trialInstr,x_fixStart,y_fixStart,x_corrSteps,y_corrSteps,x_nrSteps,y_nrSteps,alienID,trialLength,version,trialTrain,praclen,testlen,trial_label,break_on_off,beforeExpLoop.thisRepN,beforeExpLoop.thisTrialN,beforeExpLoop.thisN,beforeExpLoop.thisIndex,mini_instr_trials.thisRepN,mini_instr_trials.thisTrialN,mini_instr_trials.thisN,mini_instr_trials.thisIndex,instrLoop.thisRepN,instrLoop.thisTrialN,instrLoop.thisN,instrLoop.thisIndex,repeat_prac.thisRepN,repeat_prac.thisTrialN,repeat_prac.thisN,repeat_prac.thisIndex,trainLoop.thisRepN,trainLoop.thisTrialN,trainLoop.thisN,trainLoop.thisIndex,moveLoop_train.thisRepN,moveLoop_train.thisTrialN,moveLoop_train.thisN,moveLoop_train.thisIndex,experiment.thisRepN,experiment.thisTrialN,experiment.thisN,experiment.thisIndex,moveLoop_test.thisRepN,moveLoop_test.thisTrialN,moveLoop_test.thisN,moveLoop_test.thisIndex,mini_instr2_trials.thisRepN,mini_instr2_trials.thisTrialN,mini_instr2_trials.thisN,mini_instr2_trials.thisIndex,start_all_time,url,slideStim,audioStim,slides.started,sounds.started,nextButton.numClicks,nextButton.timesOn,nextButton.timesOff,prev_but.numClicks,prev_but.timesOn,prev_but.timesOff,alienStim,instrFile,alienStim_instr,gridImage_instr.started,startPos_3.started,key_instr.started,alienImage_3.started,sounds_1.started,key_instr.keys,key_instr.rt,all_x,all_y,FBy_corrSteps,FBy_fixStart,FBx_corrSteps,FBx_fixStart,FBy_pathSize_check,FBx_pathSize_check,gridImage_9.started,alienImageFB_3.started,startPosFB_3.started,keyFB_3.started,pathLine_ydir_2.started,pathLine_xdir_2.started,alienFace_3.started,sounds_2.started,RTFB_instr,keyFB_3.keys,keyFB_3.rt,draw_alienStim,draw_alienID,test_x,nrepcount,perfthres,percthres,earlierperf,earlystop,nextPrac,fileidx,praclen,saveACC_train,pracFile,nextPrac_train,addNrep,fileidx_endr,repExp,showearly,gridImage_4.started,startPos.started,movePos.started,key_resp.started,alienImage.started,buttonPress_train,RTchoice_train,cumAcctrain,aCorr,saveACC_choice,corrAns,x_movePos_end,y_movePos_end,key_resp.keys,key_resp.rt,wLy_dir,wLx_dir,x_movePos,y_movePos,text_2.started,text_2.stopped,aft_x_corrPos,aft_y_corrPos,y_pathSize_check,x_pathSize_check,y_pathdirY,x_pathdirY,x_pathdirX,x_corrPos,y_corrPos,gridImage_6.started,alienImageFB_2.started,startPosFB_2.started,movePosFB_2.started,keyFB_2.started,pathLine_xdir.started,pathLine_ydir.started,alienFace.started,sounds_4.started,RT_FBtrain,keyFB_2.keys,keyFB_2.rt,saveACC_pre,ACC,within_saveACC_train,earlystop_wloop,cumAcctrain_check,gridImage_3.started,alienImage_test.started,startPos_test.started,movePos_test.started,key_resp_test.started,wLy_dir_test,wLx_dir_test,buttonPress_test,RTchoice_test,cumAcctest,corrAns_test,key_resp_test.keys,key_resp_test.rt,text_3.started,text_3.stopped,total_time,end_all_time,key_resp_3.keys,slides_2.started,sounds_3.started,nextButton_2.numClicks,nextButton_2.timesOn,nextButton_2.timesOff,prev_but_2.numClicks,prev_but_2.timesOn,prev_but_2.timesOff,bye.started,participant,train_first,00_coordinate,starting corner,date,expName,psychopyVersion,frameRate,
,,,,,,,,,,,,,,,0,0,0,0,0,0,0,0,,,,,,,,,,,,,,,,,,,,,,,,,,,,,start_all_time,testround,conditions/schedules/train_x_first/blue_star_00/top_right/instructions/Slide1.png,conditions/schedules/train_x_first/blue_star_00/top_right/instructions/Audio1.wav,62.40584170026705,62.354810347873716,1,[4.61198619985953],[4.611999600194395],0,,,,,,,,,,,,,,,,,,,,,,,,,,,,,,,,,,,,,,,,,,,,,,,,,,,,,,,,,,,,,,,,,,,,,,,,,,,,,,,,,,,,,,,,,,,,,,,,,,,,,,,,,,,,,,,,,,,,,,,,,,,,EJLR91,train_x,blue_star,top_right,2025-02-28_16h04.27.999,HideSeek_v1,2022.2.5,59.9253091398624,
,,,,,,,,,,,,,,,0,0,0,0,1,0,1,0,,,,,,,,,,,,,,,,,,,,,,,,,,,,,,,conditions/schedules/train_x_first/blue_star_00/top_right/instructions/Slide2.png,conditions/schedules/train_x_first/blue_star_00/top_right/instructions/Audio2.wav,67.03745230007917,67.03965434990823,2,"[4.61198619985953, 10.792106300126761]","[4.611999600194395, 10.792113200295717]",0,,,,,,,,,,,,,,,,,,,,,,,,,,,,,,,,,,,,,,,,,,,,,,,,,,,,,,,,,,,,,,,,,,,,,,,,,,,,,,,,,,,,,,,,,,,,,,,,,,,,,,,,,,,,,,,,,,,,,,,,,,,,EJLR91,train_x,blue_star,top_right,2025-02-28_16h04.27.999,HideSeek_v1,2022.2.5,59.9253091398624,
,,,,,,,,,,,,,,,0,0,0,0,2,0,2,0,,,,,,,,,,,,,,,,,,,,,,,,,,,,,,,conditions/schedules/train_x_first/blue_star_00/top_right/instructions/Slide3.png,conditions/schedules/train_x_first/blue_star_00/top_right/instructions/Audio3.wav,77.8931435002014,77.88180809989571,3,"[4.61198619985953, 10.792106300126761, 17.100429999642074]","[4.611999600194395, 0.15300879999995232, 17.100436799693853]",0,,,,,,,,,,,,,,,,,,,,,,,,,,,,,,,,,,,,,,,,,,,,,,,,,,,,,,,,,,,,,,,,,,,,,,,,,,,,,,,,,,,,,,,,,,,,,,,,,,,,,,,,,,,,,,,,,,,,,,,,,,,,EJLR91,train_x,blue_star,top_right,2025-02-28_16h04.27.999,HideSeek_v1,2022.2.5,59.9253091398624,
,,,,,,,,,,,,,,,0,0,0,0,3,0,3,0,,,,,,,,,,,,,,,,,,,,,,,,,,,,,,,conditions/schedules/train_x_first/blue_star_00/top_right/instructions/Slide4.png,conditions/schedules/train_x_first/blue_star_00/top_right/instructions/Audio4.wav,95.07560059987009,95.06285485019907,4,"[4.61198619985953, 10.792106300126761, 17.100429999642074, 19.801621799822897]","[4.611999600194395, 0.15300879999995232, 17.100436799693853, 19.80162959964946]",0,,,,,,,,,,,,,,,,,,,,,,,,,,,,,,,,,,,,,,,,,,,,,,,,,,,,,,,,,,,,,,,,,,,,,,,,,,,,,,,,,,,,,,,,,,,,,,,,,,,,,,,,,,,,,,,,,,,,,,,,,,,,EJLR91,train_x,blue_star,top_right,2025-02-28_16h04.27.999,HideSeek_v1,2022.2.5,59.9253091398624,
,,,,,,,,,,,,,,,0,0,0,0,4,0,4,0,,,,,,,,,,,,,,,,,,,,,,,,,,,,,,,conditions/schedules/train_x_first/blue_star_00/top_right/instructions/Slide5.png,conditions/schedules/train_x_first/blue_star_00/top_right/instructions/Audio5.wav,114.94616980012506,114.94590485002846,5,"[4.61198619985953, 10.792106300126761, 17.100429999642074, 19.801621799822897, 4.33416480012238]","[4.611999600194395, 0.15300879999995232, 17.100436799693853, 0.04730059998109937, 4.334171399939805]",0,,,,,,,,,,,,,,,,,,,,,,,,,,,,,,,,,,,,,,,,,,,,,,,,,,,,,,,,,,,,,,,,,,,,,,,,,,,,,,,,,,,,,,,,,,,,,,,,,,,,,,,,,,,,,,,,,,,,,,,,,,,,EJLR91,train_x,blue_star,top_right,2025-02-28_16h04.27.999,HideSeek_v1,2022.2.5,59.9253091398624,
,,,,,,,,,,,,,,,0,0,0,0,5,0,5,0,,,,,,,,,,,,,,,,,,,,,,,,,,,,,,,conditions/schedules/train_x_first/blue_star_00/top_right/instructions/Slide6.png,conditions/schedules/train_x_first/blue_star_00/top_right/instructions/Audio6.wav,119.33055590000004,119.333207700029,6,"[4.61198619985953, 10.792106300126761, 17.100429999642074, 19.801621799822897, 4.33416480012238, 4.970999099779874]","[4.611999600194395, 0.15300879999995232, 17.100436799693853, 0.04730059998109937, 0.03379859961569309, 4.971006199717522]",0,,,,,,,,,,,,,,,,,,,,,,,,,,,,,,,,,,,,,,,,,,,,,,,,,,,,,,,,,,,,,,,,,,,,,,,,,,,,,,,,,,,,,,,,,,,,,,,,,,,,,,,,,,,,,,,,,,,,,,,,,,,,EJLR91,train_x,blue_star,top_right,2025-02-28_16h04.27.999,HideSeek_v1,2022.2.5,59.9253091398624,
,,,,,,,,,,,,,,,0,0,0,0,6,0,6,0,,,,,,,,,,,,,,,,,,,,,,,,,,,,,,,conditions/schedules/train_x_first/blue_star_00/top_right/instructions/Slide7.png,conditions/schedules/train_x_first/blue_star_00/top_right/instructions/Audio7.wav,124.35199599992484,124.35391619997098,7,"[4.61198619985953, 10.792106300126761, 17.100429999642074, 19.801621799822897, 4.33416480012238, 4.970999099779874, 5.754568799864501]","[4.611999600194395, 0.15300879999995232, 17.100436799693853, 0.04730059998109937, 0.03379859961569309, 0.06616879999637604, 5.754575799684972]",0,,,,,,,,,,,,,,,,,,,,,,,,,,,,,,,,,,,,,,,,,,,,,,,,,,,,,,,,,,,,,,,,,,,,,,,,,,,,,,,,,,,,,,,,,,,,,,,,,,,,,,,,,,,,,,,,,,,,,,,,,,,,EJLR91,train_x,blue_star,top_right,2025-02-28_16h04.27.999,HideSeek_v1,2022.2.5,59.9253091398624,
,,,,,,,,,,,,,,,0,0,0,0,7,0,7,0,,,,,,,,,,,,,,,,,,,,,,,,,,,,,,,conditions/schedules/train_x_first/blue_star_00/top_right/instructions/Slide8.png,conditions/schedules/train_x_first/blue_star_00/top_right/instructions/Audio8.wav,130.15836110012606,130.15891830027104,8,"[4.61198619985953, 10.792106300126761, 17.100429999642074, 19.801621799822897, 4.33416480012238, 4.970999099779874, 5.754568799864501, 11.807768299710006]","[4.611999600194395, 0.15300879999995232, 17.100436799693853, 0.04730059998109937, 0.03379859961569309, 0.06616879999637604, 0.03131840005517006, 11.807775299996138]",0,,,,,,,,,,,,,,,,,,,,,,,,,,,,,,,,,,,,,,,,,,,,,,,,,,,,,,,,,,,,,,,,,,,,,,,,,,,,,,,,,,,,,,,,,,,,,,,,,,,,,,,,,,,,,,,,,,,,,,,,,,,,EJLR91,train_x,blue_star,top_right,2025-02-28_16h04.27.999,HideSeek_v1,2022.2.5,59.9253091398624,
,,,,,,,,,,,,,,,0,0,0,0,8,0,8,0,,,,,,,,,,,,,,,,,,,,,,,,,,,,,,,conditions/schedules/train_x_first/blue_star_00/top_right/instructions/Slide9.png,conditions/schedules/train_x_first/blue_star_00/top_right/instructions/Audio9.wav,142.03792300028726,142.0354550499469,9,"[4.61198619985953, 10.792106300126761, 17.100429999642074, 19.801621799822897, 4.33416480012238, 4.970999099779874, 5.754568799864501, 11.807768299710006, 6.266417399980128]","[4.611999600194395, 0.15300879999995232, 17.100436799693853, 0.04730059998109937, 0.03379859961569309, 0.06616879999637604, 0.03131840005517006, 0.03016229998320341, 6.266423699911684]",0,,,,,,,,,,,,,,,,,,,,,,,,,,,,,,,,,,,,,,,,,,,,,,,,,,,,,,,,,,,,,,,,,,,,,,,,,,,,,,,,,,,,,,,,,,,,,,,,,,,,,,,,,,,,,,,,,,,,,,,,,,,,EJLR91,train_x,blue_star,top_right,2025-02-28_16h04.27.999,HideSeek_v1,2022.2.5,59.9253091398624,
,,,,,,,,,,,,,,,0,0,0,0,9,0,9,0,,,,,,,,,,,,,,,,,,,,,,,,,,,,,,,conditions/schedules/train_x_first/blue_star_00/top_right/instructions/Slide10.png,conditions/schedules/train_x_first/blue_star_00/top_right/instructions/Audio10.wav,148.3426104001701,148.34062315030022,10,"[4.61198619985953, 10.792106300126761, 17.100429999642074, 19.801621799822897, 4.33416480012238, 4.970999099779874, 5.754568799864501, 11.807768299710006, 6.266417399980128, 7.084596399683505]","[4.611999600194395, 0.15300879999995232, 17.100436799693853, 0.04730059998109937, 0.03379859961569309, 0.06616879999637604, 0.03131840005517006, 0.03016229998320341, 0.07879940001294017, 7.0846039997413754]",0,,,,,,,,,,,,,,,,,,,,,,,,,,,,,,,,,,,,,,,,,,,,,,,,,,,,,,,,,,,,,,,,,,,,,,,,,,,,,,,,,,,,,,,,,,,,,,,,,,,,,,,,,,,,,,,,,,,,,,,,,,,,EJLR91,train_x,blue_star,top_right,2025-02-28_16h04.27.999,HideSeek_v1,2022.2.5,59.9253091398624,
,,,,,,,,,,,,,,,0,0,0,0,10,0,10,0,,,,,,,,,,,,,,,,,,,,,,,,,,,,,,,conditions/schedules/train_x_first/blue_star_00/top_right/instructions/Slide11.png,conditions/schedules/train_x_first/blue_star_00/top_right/instructions/Audio11.wav,155.4963794001378,155.4963524499908,11,"[4.61198619985953, 10.792106300126761, 17.100429999642074, 19.801621799822897, 4.33416480012238, 4.970999099779874, 5.754568799864501, 11.807768299710006, 6.266417399980128, 7.084596399683505, 9.656585099641234]","[4.611999600194395, 0.15300879999995232, 17.100436799693853, 0.04730059998109937, 0.03379859961569309, 0.06616879999637604, 0.03131840005517006, 0.03016229998320341, 0.07879940001294017, 0.04817999992519617, 9.65659169992432]",0,,,,,,,,,,,,,,,,,,,,,,,,,,,,,,,,,,,,,,,,,,,,,,,,,,,,,,,,,,,,,,,,,,,,,,,,,,,,,,,,,,,,,,,,,,,,,,,,,,,,,,,,,,,,,,,,,,,,,,,,,,,,EJLR91,train_x,blue_star,top_right,2025-02-28_16h04.27.999,HideSeek_v1,2022.2.5,59.9253091398624,
,,,,,,,,,,,,,,,0,0,0,0,11,0,11,0,,,,,,,,,,,,,,,,,,,,,,,,,,,,,,,conditions/schedules/train_x_first/blue_star_00/top_right/instructions/Slide12.png,conditions/schedules/train_x_first/blue_star_00/top_right/instructions/Audio12.wav,165.22532360022888,165.2215064498596,12,"[4.61198619985953, 10.792106300126761, 17.100429999642074, 19.801621799822897, 4.33416480012238, 4.970999099779874, 5.754568799864501, 11.807768299710006, 6.266417399980128, 7.084596399683505, 9.656585099641234, 12.803927999921143]","[4.611999600194395, 0.15300879999995232, 17.100436799693853, 0.04730059998109937, 0.03379859961569309, 0.06616879999637604, 0.03131840005517006, 0.03016229998320341, 0.07879940001294017, 0.04817999992519617, 0.04716699989512563, 12.803934699855745]",0,,,,,,,,,,,,,,,,,,,,,,,,,,,,,,,,,,,,,,,,,,,,,,,,,,,,,,,,,,,,,,,,,,,,,,,,,,,,,,,,,,,,,,,,,,,,,,,,,,,,,,,,,,,,,,,,,,,,,,,,,,,,EJLR91,train_x,blue_star,top_right,2025-02-28_16h04.27.999,HideSeek_v1,2022.2.5,59.9253091398624,
1,9,5,4,5,-5,0,11,2,instr_dim1_1,,,,,,0,0,0,0,,,,,0,0,0,0,,,,,,,,,,,,,,,,,,,,,,,,,,,,,,,,,,,,,stimuli/alien_stimuli/11.png,conditions/schedules/train_x_first/blue_star_00/top_right/inputInstr_1.xlsx,stimuli/alien_stimuli/11.png,178.1347600002773,178.1347600002773,178.1347600002773,178.1347600002773,178.13175385007634,return,8.65391970006749,"[-0.16, -0.08, 0, 0.08, 0.16, 0.24, 0.32, 0.4, 0.48, 0.56]","[-0.4, -0.32, -0.24, -0.16, -0.08, 0, 0.08, 0.16, 0.24, 0.32]",5,5,4,9,0.0,0.4,186.93911150004715,186.93911150004715,186.93911150004715,186.93911150004715,186.93911150004715,186.93911150004715,186.93911150004715,186.92248810008167,9.375839200336486,return,9.223479399457574,stimuli/alien_stimuli/11.png,11,9,1,,,,,,,,,,,,,,,,,,,,,,,,,,,,,,,,,,,,,,,,,,,,,,,,,,,,,,,,,,,,,,,,,,,,,,,,,,,,,,,,,,,,,,,,,EJLR91,train_x,blue_star,top_right,2025-02-28_16h04.27.999,HideSeek_v1,2022.2.5,59.9253091398624,
,,,,,,,,,,,30,,,,0,0,0,0,,,,,,,,,,,,,,,,,,,,,,,,,,,,,,,,,,,,,,,,,,,,,,,,,,,,,,,,,,,,,,,,,,,,,,,,,,,,,,21,0.7,0,0,99,1,30,0,conditions/schedules/train_x_first/blue_star_00/top_right/inputTrain_1.1.xlsx,99,1,1,1,0,,,,,,,,,,,,,,,,,,,,,,,,,,,,,,,,,,,,,,,,,,,,,,,,,,,,,,,,,,,,,,,,,,,,,,,,,,,EJLR91,train_x,blue_star,top_right,2025-02-28_16h04.27.999,HideSeek_v1,2022.2.5,59.9253091398624,
,,,,,,,,,,,,,,,1,0,1,0,0,0,0,0,,,,,,,,,,,,,,,,,,,,,,,,,,,,,,,conditions/schedules/train_x_first/blue_star_00/top_right/instructions/Slide13.png,conditions/schedules/train_x_first/blue_star_00/top_right/instructions/Audio13.wav,196.31058329995722,196.29729620013384,13,"[4.61198619985953, 10.792106300126761, 17.100429999642074, 19.801621799822897, 4.33416480012238, 4.970999099779874, 5.754568799864501, 11.807768299710006, 6.266417399980128, 7.084596399683505, 9.656585099641234, 12.803927999921143, 17.848072699736804]","[4.611999600194395, 0.15300879999995232, 17.100436799693853, 0.04730059998109937, 0.03379859961569309, 0.06616879999637604, 0.03131840005517006, 0.03016229998320341, 0.07879940001294017, 0.04817999992519617, 0.04716699989512563, 12.803934699855745, 17.848078799899668]",0,,,,,,,,,,,,,,,,,,,,,,,,,,,,,,,,,,,,,,,,,,,,,,,,,,,,,,,,,,,,,,,,,,,,,,,,,,,,,,,,,,,,,,,,,,,,,,,,,,,,,,,,,,,,,,,,,,,,,,,,,,,,EJLR91,train_x,blue_star,top_right,2025-02-28_16h04.27.999,HideSeek_v1,2022.2.5,59.9253091398624,
,,,,,,,,,,,,,,,1,0,1,0,1,0,1,0,,,,,,,,,,,,,,,,,,,,,,,,,,,,,,,conditions/schedules/train_x_first/blue_star_00/top_right/instructions/Slide14.png,conditions/schedules/train_x_first/blue_star_00/top_right/instructions/Audio14.wav,214.23022860009223,214.22821515006945,14,"[4.61198619985953, 10.792106300126761, 17.100429999642074, 19.801621799822897, 4.33416480012238, 4.970999099779874, 5.754568799864501, 11.807768299710006, 6.266417399980128, 7.084596399683505, 9.656585099641234, 12.803927999921143, 17.848072699736804, 13.907274399884045]","[4.611999600194395, 0.15300879999995232, 17.100436799693853, 0.04730059998109937, 0.03379859961569309, 0.06616879999637604, 0.03131840005517006, 0.03016229998320341, 0.07879940001294017, 0.04817999992519617, 0.04716699989512563, 12.803934699855745, 0.014167999848723412, 13.907280500046909]",0,,,,,,,,,,,,,,,,,,,,,,,,,,,,,,,,,,,,,,,,,,,,,,,,,,,,,,,,,,,,,,,,,,,,,,,,,,,,,,,,,,,,,,,,,,,,,,,,,,,,,,,,,,,,,,,,,,,,,,,,,,,,EJLR91,train_x,blue_star,top_right,2025-02-28_16h04.27.999,HideSeek_v1,2022.2.5,59.9253091398624,
2,8,7,8,7,0,0,61,2,instr_dim1_1,,,,,,1,0,1,0,,,,,0,0,0,0,,,,,,,,,,,,,,,,,,,,,,,,,,,,,,,,,,,,,stimuli/alien_stimuli/61.png,conditions/schedules/train_x_first/blue_star_00/top_right/inputInstr_1.xlsx,stimuli/alien_stimuli/61.png,228.2385529000312,228.2385529000312,228.2385529000312,228.2385529000312,228.24015735024585,return,7.052924400195479,"[-0.16, -0.08, 0, 0.08, 0.16, 0.24, 0.32, 0.4, 0.48, 0.56]","[-0.4, -0.32, -0.24, -0.16, -0.08, 0, 0.08, 0.16, 0.24, 0.32]",7,7,8,8,0.0,0.0,235.4507983000949,235.4507983000949,235.4507983000949,235.4507983000949,235.4507983000949,235.4507983000949,235.4507983000949,235.42933519994838,6.972910400014371,return,6.803327300120145,stimuli/alien_stimuli/61.png,61,8,2,,,,,,,,,,,,,,,,,,,,,,,,,,,,,,,,,,,,,,,,,,,,,,,,,,,,,,,,,,,,,,,,,,,,,,,,,,,,,,,,,,,,,,,,,EJLR91,train_x,blue_star,top_right,2025-02-28_16h04.27.999,HideSeek_v1,2022.2.5,59.9253091398624,
,,,,,,,,,,,30,,,,1,0,1,0,,,,,,,,,,,,,,,,,,,,,,,,,,,,,,,,,,,,,,,,,,,,,,,,,,,,,,,,,,,,,,,,,,,,,,,,,,,,,,21,0.7,0,0,99,1,30,0,conditions/schedules/train_x_first/blue_star_00/top_right/inputTrain_1.1.xlsx,99,1,1,1,0,,,,,,,,,,,,,,,,,,,,,,,,,,,,,,,,,,,,,,,,,,,,,,,,,,,,,,,,,,,,,,,,,,,,,,,,,,,EJLR91,train_x,blue_star,top_right,2025-02-28_16h04.27.999,HideSeek_v1,2022.2.5,59.9253091398624,
,,,,,,,,,,,,,,,2,0,2,0,0,0,0,0,,,,,,,,,,,,,,,,,,,,,,,,,,,,,,,conditions/schedules/train_x_first/blue_star_00/top_right/instructions/Slide15.png,conditions/schedules/train_x_first/blue_star_00/top_right/instructions/Audio15.wav,242.44100150000304,242.43486580019817,15,"[4.61198619985953, 10.792106300126761, 17.100429999642074, 19.801621799822897, 4.33416480012238, 4.970999099779874, 5.754568799864501, 11.807768299710006, 6.266417399980128, 7.084596399683505, 9.656585099641234, 12.803927999921143, 17.848072699736804, 13.907274399884045, 30.699745199643075]","[4.611999600194395, 0.15300879999995232, 17.100436799693853, 0.04730059998109937, 0.03379859961569309, 0.06616879999637604, 0.03131840005517006, 0.03016229998320341, 0.07879940001294017, 0.04817999992519617, 0.04716699989512563, 12.803934699855745, 0.014167999848723412, 13.907280500046909, 30.6997523996979]",0,,,,,,,,,,,,,,,,,,,,,,,,,,,,,,,,,,,,,,,,,,,,,,,,,,,,,,,,,,,,,,,,,,,,,,,,,,,,,,,,,,,,,,,,,,,,,,,,,,,,,,,,,,,,,,,,,,,,,,,,,,,,EJLR91,train_x,blue_star,top_right,2025-02-28_16h04.27.999,HideSeek_v1,2022.2.5,59.9253091398624,
,,,,,,,,,,,,,,,2,0,2,0,1,0,1,0,,,,,,,,,,,,,,,,,,,,,,,,,,,,,,,conditions/schedules/train_x_first/blue_star_00/top_right/instructions/Slide16.png,conditions/schedules/train_x_first/blue_star_00/top_right/instructions/Audio16.wav,273.2171419002116,273.2107792501338,16,"[4.61198619985953, 10.792106300126761, 17.100429999642074, 19.801621799822897, 4.33416480012238, 4.970999099779874, 5.754568799864501, 11.807768299710006, 6.266417399980128, 7.084596399683505, 9.656585099641234, 12.803927999921143, 17.848072699736804, 13.907274399884045, 30.699745199643075, 21.75861519994214]","[4.611999600194395, 0.15300879999995232, 17.100436799693853, 0.04730059998109937, 0.03379859961569309, 0.06616879999637604, 0.03131840005517006, 0.03016229998320341, 0.07879940001294017, 0.04817999992519617, 0.04716699989512563, 12.803934699855745, 0.014167999848723412, 13.907280500046909, 0.013536800164729357, 21.75862370012328]",0,,,,,,,,,,,,,,,,,,,,,,,,,,,,,,,,,,,,,,,,,,,,,,,,,,,,,,,,,,,,,,,,,,,,,,,,,,,,,,,,,,,,,,,,,,,,,,,,,,,,,,,,,,,,,,,,,,,,,,,,,,,,EJLR91,train_x,blue_star,top_right,2025-02-28_16h04.27.999,HideSeek_v1,2022.2.5,59.9253091398624,
,7,6,4,6,-3,0,31,,train_dim1_1,1,30,,,,2,0,2,0,,,,,,,,,0,0,0,0,0,0,0,0,0,0,0,0,,,,,,,,,,,,,,,,,,,,,,,,,stimuli/alien_stimuli/31.png,,,,,,,,,,,,,,,,,,,,,,,,,,,,,,,,,,,,,,,30,,,,,,,,295.07762939995155,295.07762939995155,295.07762939995155,295.07762939995155,295.07762939995155,left,6.816939500160515,0,0,0,99,0.32,0.08,left,6.718776999507099,,,,,,,,,,,,,,,,,,,,,,,,,,,,,,,,,,,,,,,,,,,,,,,,,,,,,,,,,,,,EJLR91,train_x,blue_star,top_right,2025-02-28_16h04.27.999,HideSeek_v1,2022.2.5,59.9253091398624,
,7,6,4,6,-3,0,31,,train_dim1_1,1,30,,,,2,0,2,0,,,,,,,,,0,0,0,0,0,0,0,0,1,0,1,0,,,,,,,,,,,,,,,,,,,,,,,,,,,,,,,,,,,,,,,,,,,,,,,,,,,,,,,,,,,,,,,,30,,,,,,,,301.8820508001372,301.8820508001372,301.8820508001372,301.8820508001372,301.8820508001372,left,1.693932400085032,0,0,0,99,0.24,0.08,left,1.6069449000060558,,,,,,,,,,,,,,,,,,,,,,,,,,,,,,,,,,,,,,,,,,,,,,,,,,,,,,,,,,,,EJLR91,train_x,blue_star,top_right,2025-02-28_16h04.27.999,HideSeek_v1,2022.2.5,59.9253091398624,
,7,6,4,6,-3,0,31,,train_dim1_1,1,30,,,,2,0,2,0,,,,,,,,,0,0,0,0,0,0,0,0,2,0,2,0,,,,,,,,,,,,,,,,,,,,,,,,,,,,,,,,,,,,,,,,,,,,,,,,,,,,,,,,,,,,,,,,30,,,,,,,,303.5825380999595,303.5825380999595,303.5825380999595,303.5825380999595,303.5825380999595,left,1.194265200290829,0,0,0,99,0.15999999999999998,0.08,left,1.119469900149852,,,,,,,,,,,,,,,,,,,,,,,,,,,,,,,,,,,,,,,,,,,,,,,,,,,,,,,,,,,,EJLR91,train_x,blue_star,top_right,2025-02-28_16h04.27.999,HideSeek_v1,2022.2.5,59.9253091398624,
,7,6,4,6,-3,0,31,,train_dim1_1,1,30,,,,2,0,2,0,,,,,,,,,0,0,0,0,0,0,0,0,3,0,3,0,,,,,,,,,,,,,,,,,,,,,,,,,,,,,,,,,,,,,,,,,,,,,,,,,,,,,,,,,,,,,,,,30,,,,,,,,304.782511100173,304.782511100173,304.782511100173,304.782511100173,304.782511100173,left,0.9270696002058685,0,0,0,99,0.07999999999999997,0.08,left,0.8555253995582461,,,,,,,,,,,,,,,,,,,,,,,,,,,,,,,,,,,,,,,,,,,,,,,,,,,,,,,,,,,,EJLR91,train_x,blue_star,top_right,2025-02-28_16h04.27.999,HideSeek_v1,2022.2.5,59.9253091398624,
,7,6,4,6,-3,0,31,,train_dim1_1,1,30,,,,2,0,2,0,,,,,,,,,0,0,0,0,0,0,0,0,4,0,4,0,,,,,,,,,,,,,,,,,,,,,,,,,,,,,,,,,,,,,,,,,,,,,,,,,,,,,,,,,,,,,,,,30,,,,,,,,305.7283173999749,305.7283173999749,305.7283173999749,305.7283173999749,305.7283173999749,return,1.320140500087291,0,1,0,0,0.07999999999999997,0.08,return,1.236652999650687,0,-4,0.07999999999999997,0.08,,,,,,,,,,,,,,,,,,,,,,,,,,,,,,,,,,,,,,,,,,,,,,,,,,,,,,,,EJLR91,train_x,blue_star,top_right,2025-02-28_16h04.27.999,HideSeek_v1,2022.2.5,59.9253091398624,
,7,9,2,9,-5,0,11,,train_dim1_1,2,30,,,,2,0,2,0,,,,,,,,,0,0,0,0,0,1,1,1,0,0,0,0,,,,,,,,,,,,,,,,,,,,,,,,,stimuli/alien_stimuli/11.png,,,,,,,,,,,,,,,,,,,,,,,,,,,,,stimuli/alien_stimuli/31.png,31,7,3,,,,,,,30,,,,,,,,330.8447700003162,330.8447700003162,330.8447700003162,330.8447700003162,330.8447700003162,left,9.623369100037962,0,1,0,99,0.32,0.32,left,9.516900399699807,,,,,329.257293399889,330.8447700003162,0.16,0.08,0.0,0.24,0.08,0.16,0.28,0.16,0.08,308.6188499000855,308.6188499000855,308.6188499000855,308.6188499000855,308.6188499000855,308.6188499000855,308.6188499000855,308.6188499000855,308.60664944984023,20.75312600005418,return,20.618781699799,,,,,,,,,,,,,,,,,,,,,,,,,,,,,,,,,EJLR91,train_x,blue_star,top_right,2025-02-28_16h04.27.999,HideSeek_v1,2022.2.5,59.9253091398624,
,7,9,2,9,-5,0,11,,train_dim1_1,2,30,,,,2,0,2,0,,,,,,,,,0,0,0,0,0,1,1,1,1,0,1,0,,,,,,,,,,,,,,,,,,,,,,,,,,,,,,,,,,,,,,,,,,,,,,,,,,,,,,,,,,,,,,,,30,,,,,,,,340.45201080013067,340.45201080013067,340.45201080013067,340.45201080013067,340.45201080013067,left,0.7089908001944423,0,1,0,99,0.24,0.32,left,0.6309591000899673,,,,,,,,,,,,,,,,,,,,,,,,,,,,,,,,,,,,,,,,,,,,,,,,,,,,,,,,,,,,EJLR91,train_x,blue_star,top_right,2025-02-28_16h04.27.999,HideSeek_v1,2022.2.5,59.9253091398624,
,7,9,2,9,-5,0,11,,train_dim1_1,2,30,,,,2,0,2,0,,,,,,,,,0,0,0,0,0,1,1,1,2,0,2,0,,,,,,,,,,,,,,,,,,,,,,,,,,,,,,,,,,,,,,,,,,,,,,,,,,,,,,,,,,,,,,,,30,,,,,,,,341.1660708999261,341.1660708999261,341.1660708999261,341.1660708999261,341.1660708999261,left,0.8107751999050379,0,1,0,99,0.15999999999999998,0.32,left,0.7332143001258373,,,,,,,,,,,,,,,,,,,,,,,,,,,,,,,,,,,,,,,,,,,,,,,,,,,,,,,,,,,,EJLR91,train_x,blue_star,top_right,2025-02-28_16h04.27.999,HideSeek_v1,2022.2.5,59.9253091398624,
,7,9,2,9,-5,0,11,,train_dim1_1,2,30,,,,2,0,2,0,,,,,,,,,0,0,0,0,0,1,1,1,3,0,3,0,,,,,,,,,,,,,,,,,,,,,,,,,,,,,,,,,,,,,,,,,,,,,,,,,,,,,,,,,,,,,,,,30,,,,,,,,341.9852052000351,341.9852052000351,341.9852052000351,341.9852052000351,341.9852052000351,left,0.7271755998954177,0,1,0,99,0.07999999999999997,0.32,left,0.6359391999430954,,,,,,,,,,,,,,,,,,,,,,,,,,,,,,,,,,,,,,,,,,,,,,,,,,,,,,,,,,,,EJLR91,train_x,blue_star,top_right,2025-02-28_16h04.27.999,HideSeek_v1,2022.2.5,59.9253091398624,
,7,9,2,9,-5,0,11,,train_dim1_1,2,30,,,,2,0,2,0,,,,,,,,,0,0,0,0,0,1,1,1,4,0,4,0,,,,,,,,,,,,,,,,,,,,,,,,,,,,,,,,,,,,,,,,,,,,,,,,,,,,,,,,,,,,,,,,30,,,,,,,,342.7181138000451,342.7181138000451,342.7181138000451,342.7181138000451,342.7181138000451,left,0.5767085002735257,0,1,0,99,-2.7755575615628914e-17,0.32,left,0.4937751996330917,,,,,,,,,,,,,,,,,,,,,,,,,,,,,,,,,,,,,,,,,,,,,,,,,,,,,,,,,,,,EJLR91,train_x,blue_star,top_right,2025-02-28_16h04.27.999,HideSeek_v1,2022.2.5,59.9253091398624,
,7,9,2,9,-5,0,11,,train_dim1_1,2,30,,,,2,0,2,0,,,,,,,,,0,0,0,0,0,1,1,1,5,0,5,0,,,,,,,,,,,,,,,,,,,,,,,,,,,,,,,,,,,,,,,,,,,,,,,,,,,,,,,,,,,,,,,,30,,,,,,,,343.3034798000008,343.3034798000008,343.3034798000008,343.3034798000008,343.3034798000008,return,1.3106426000595093,1,0,0,1,-2.7755575615628914e-17,0.32,return,1.2216777997091413,0,-9,-2.7755575615628914e-17,0.32,,,,,,,,,,,,,,,,,,,,,,,,,,,,,,,,,,,,,,,,,,,,,,,,,,,,,,,,EJLR91,train_x,blue_star,top_right,2025-02-28_16h04.27.999,HideSeek_v1,2022.2.5,59.9253091398624,
,9,9,5,9,-4,0,21,,train_dim1_1,3,30,,,,2,0,2,0,,,,,,,,,0,0,0,0,0,2,2,2,0,0,0,0,,,,,,,,,,,,,,,,,,,,,,,,,stimuli/alien_stimuli/21.png,,,,,,,,,,,,,,,,,,,,,,,,,,,,,stimuli/alien_stimuli/11.png,11,7,4,,,,,,,30,,,,,,,,350.3532691001892,350.3532691001892,350.3532691001892,350.3532691001892,350.3532691001892,left,2.625688700005412,1,0,0,99,0.48000000000000004,0.32,left,2.5378320002928376,,,,,348.77717699995264,346.19394870009273,0,0.32,0.0,0.4,0.32,0,0.2,0,0.32,346.19394870009273,346.19394870009273,346.19394870009273,346.19394870009273,346.19394870009273,346.19394870009273,346.19394870009273,346.19394870009273,346.18782870024444,2.70940459985286,return,2.5673514995723963,,,,,,,,,,,,,,,,,,,,,,,,,,,,,,,,,EJLR91,train_x,blue_star,top_right,2025-02-28_16h04.27.999,HideSeek_v1,2022.2.5,59.9253091398624,
,9,9,5,9,-4,0,21,,train_dim1_1,3,30,,,,2,0,2,0,,,,,,,,,0,0,0,0,0,2,2,2,1,0,1,0,,,,,,,,,,,,,,,,,,,,,,,,,,,,,,,,,,,,,,,,,,,,,,,,,,,,,,,,,,,,,,,,30,,,,,,,,352.9796537999064,352.9796537999064,352.9796537999064,352.9796537999064,352.9796537999064,left,0.6749325999990106,1,0,0,99,0.4,0.32,left,0.5823357999324799,,,,,,,,,,,,,,,,,,,,,,,,,,,,,,,,,,,,,,,,,,,,,,,,,,,,,,,,,,,,EJLR91,train_x,blue_star,top_right,2025-02-28_16h04.27.999,HideSeek_v1,2022.2.5,59.9253091398624,
,9,9,5,9,-4,0,21,,train_dim1_1,3,30,,,,2,0,2,0,,,,,,,,,0,0,0,0,0,2,2,2,2,0,2,0,,,,,,,,,,,,,,,,,,,,,,,,,,,,,,,,,,,,,,,,,,,,,,,,,,,,,,,,,,,,,,,,30,,,,,,,,353.6616364000365,353.6616364000365,353.6616364000365,353.6616364000365,353.6616364000365,left,0.5766683002002537,1,0,0,99,0.32,0.32,left,0.49489219998940825,,,,,,,,,,,,,,,,,,,,,,,,,,,,,,,,,,,,,,,,,,,,,,,,,,,,,,,,,,,,EJLR91,train_x,blue_star,top_right,2025-02-28_16h04.27.999,HideSeek_v1,2022.2.5,59.9253091398624,
,9,9,5,9,-4,0,21,,train_dim1_1,3,30,,,,2,0,2,0,,,,,,,,,0,0,0,0,0,2,2,2,3,0,3,0,,,,,,,,,,,,,,,,,,,,,,,,,,,,,,,,,,,,,,,,,,,,,,,,,,,,,,,,,,,,,,,,30,,,,,,,,354.2447705999948,354.2447705999948,354.2447705999948,354.2447705999948,354.2447705999948,return,2.4118970003910363,1,1,0,0,0.32,0.32,return,2.3348384997807443,0,-12,0.32,0.32,,,,,,,,,,,,,,,,,,,,,,,,,,,,,,,,,,,,,,,,,,,,,,,,,,,,,,,,EJLR91,train_x,blue_star,top_right,2025-02-28_16h04.27.999,HideSeek_v1,2022.2.5,59.9253091398624,
,7,8,6,8,-1,0,51,,train_dim1_1,4,30,,,,2,0,2,0,,,,,,,,,0,0,0,0,0,3,3,3,0,0,0,0,,,,,,,,,,,,,,,,,,,,,,,,,stimuli/alien_stimuli/51.png,,,,,,,,,,,,,,,,,,,,,,,,,,,,,stimuli/alien_stimuli/21.png,21,9,5,,,,,,,30,,,,,,,,363.5833284999244,363.5833284999244,363.5833284999244,363.5833284999244,363.5833284999244,left,6.891342299990356,1,1,0,99,0.32,0.24,left,6.79652399988845,,,,,362.0176825001836,363.5833284999244,0.24,0.32,0.0,0.32,0.32,0.24,0.4,0.24,0.32,358.24518619989976,358.24518619989976,358.24518619989976,358.24518619989976,358.24518619989976,358.24518619989976,358.24518619989976,358.24518619989976,358.23114410014824,3.9056110000237823,return,3.7541776997968554,,,,,,,,,,,,,,,,,,,,,,,,,,,,,,,,,EJLR91,train_x,blue_star,top_right,2025-02-28_16h04.27.999,HideSeek_v1,2022.2.5,59.9253091398624,
,7,8,6,8,-1,0,51,,train_dim1_1,4,30,,,,2,0,2,0,,,,,,,,,0,0,0,0,0,3,3,3,1,0,1,0,,,,,,,,,,,,,,,,,,,,,,,,,,,,,,,,,,,,,,,,,,,,,,,,,,,,,,,,,,,,,,,,30,,,,,,,,370.4757580999285,370.4757580999285,370.4757580999285,370.4757580999285,370.4757580999285,return,1.6104065999388695,2,0,0,1,0.32,0.24,return,1.5288880998268723,0,-13,0.32,0.24,,,,,,,,,,,,,,,,,,,,,,,,,,,,,,,,,,,,,,,,,,,,,,,,,,,,,,,,EJLR91,train_x,blue_star,top_right,2025-02-28_16h04.27.999,HideSeek_v1,2022.2.5,59.9253091398624,
,5,7,5,7,0,0,61,,train_dim1_1,5,30,,,,2,0,2,0,,,,,,,,,0,0,0,0,0,4,4,4,0,0,0,0,,,,,,,,,,,,,,,,,,,,,,,,,stimuli/alien_stimuli/61.png,,,,,,,,,,,,,,,,,,,,,,,,,,,,,stimuli/alien_stimuli/51.png,51,7,6,,,,,,,30,,,,,,,,378.3210670002736,378.3210670002736,378.3210670002736,378.3210670002736,378.3210670002736,return,1.7737054000608623,3,0,0,1,0.24,0.16,return,1.6799622001126409,0,-13,0.24,0.16,376.7632508999668,378.3210670002736,0.32,0.24,0.0,0.08,0.24,0.32,0.36,0.32,0.24,373.6564108999446,373.6564108999446,373.6564108999446,373.6564108999446,373.6564108999446,373.6564108999446,373.6564108999446,373.6564108999446,373.6439421501011,3.2214760999195278,return,3.0889631998725235,,,,,,,,,,,,,,,,,,,,,,,,,,,,,,,,,EJLR91,train_x,blue_star,top_right,2025-02-28_16h04.27.999,HideSeek_v1,2022.2.5,59.9253091398624,
,5,5,1,5,-4,0,21,,train_dim1_1,6,30,,,,2,0,2,0,,,,,,,,,0,0,0,0,0,5,5,5,0,0,0,0,,,,,,,,,,,,,,,,,,,,,,,,,stimuli/alien_stimuli/21.png,,,,,,,,,,,,,,,,,,,,,,,,,,,,,stimuli/alien_stimuli/61.png,61,5,7,,,,,,,30,,,,,,,,385.2343498002738,385.2343498002738,385.2343498002738,385.2343498002738,385.2343498002738,left,2.0884350002743304,3,0,0,99,0.15999999999999998,0,left,1.9974329001270235,,,,,383.6690950002521,385.2343498002738,0.24,0.16,0.0,0.0,0.16,0.24,0.24,0.24,0.16,381.66981999995187,381.66981999995187,381.66981999995187,381.66981999995187,381.66981999995187,381.66981999995187,381.66981999995187,381.66981999995187,381.65050495024775,2.1205978002399206,return,1.9711859002709389,,,,,,,,,,,,,,,,,,,,,,,,,,,,,,,,,EJLR91,train_x,blue_star,top_right,2025-02-28_16h04.27.999,HideSeek_v1,2022.2.5,59.9253091398624,
,5,5,1,5,-4,0,21,,train_dim1_1,6,30,,,,2,0,2,0,,,,,,,,,0,0,0,0,0,5,5,5,1,0,1,0,,,,,,,,,,,,,,,,,,,,,,,,,,,,,,,,,,,,,,,,,,,,,,,,,,,,,,,,,,,,,,,,30,,,,,,,,387.3227711999789,387.3227711999789,387.3227711999789,387.3227711999789,387.3227711999789,left,0.4596237000077963,3,0,0,99,0.07999999999999997,0,left,0.3801540997810662,,,,,,,,,,,,,,,,,,,,,,,,,,,,,,,,,,,,,,,,,,,,,,,,,,,,,,,,,,,,EJLR91,train_x,blue_star,top_right,2025-02-28_16h04.27.999,HideSeek_v1,2022.2.5,59.9253091398624,
,5,5,1,5,-4,0,21,,train_dim1_1,6,30,,,,2,0,2,0,,,,,,,,,0,0,0,0,0,5,5,5,2,0,2,0,,,,,,,,,,,,,,,,,,,,,,,,,,,,,,,,,,,,,,,,,,,,,,,,,,,,,,,,,,,,,,,,30,,,,,,,,387.7910088999197,387.7910088999197,387.7910088999197,387.7910088999197,387.7910088999197,left,1.1774593000300229,3,0,0,99,-2.7755575615628914e-17,0,left,1.0951649998314679,,,,,,,,,,,,,,,,,,,,,,,,,,,,,,,,,,,,,,,,,,,,,,,,,,,,,,,,,,,,EJLR91,train_x,blue_star,top_right,2025-02-28_16h04.27.999,HideSeek_v1,2022.2.5,59.9253091398624,
,5,5,1,5,-4,0,21,,train_dim1_1,6,30,,,,2,0,2,0,,,,,,,,,0,0,0,0,0,5,5,5,3,0,3,0,,,,,,,,,,,,,,,,,,,,,,,,,,,,,,,,,,,,,,,,,,,,,,,,,,,,,,,,,,,,,,,,30,,,,,,,,388.9739145003259,388.9739145003259,388.9739145003259,388.9739145003259,388.9739145003259,left,0.37636639969423413,3,0,0,99,-0.08000000000000003,0,left,0.29042259976267815,,,,,,,,,,,,,,,,,,,,,,,,,,,,,,,,,,,,,,,,,,,,,,,,,,,,,,,,,,,,EJLR91,train_x,blue_star,top_right,2025-02-28_16h04.27.999,HideSeek_v1,2022.2.5,59.9253091398624,
,5,5,1,5,-4,0,21,,train_dim1_1,6,30,,,,2,0,2,0,,,,,,,,,0,0,0,0,0,5,5,5,4,0,4,0,,,,,,,,,,,,,,,,,,,,,,,,,,,,,,,,,,,,,,,,,,,,,,,,,,,,,,,,,,,,,,,,30,,,,,,,,389.35713310027495,389.35713310027495,389.35713310027495,389.35713310027495,389.35713310027495,return,0.6771866995841265,4,0,0,1,-0.08000000000000003,0,return,0.5941363000310957,0,-17,-0.08000000000000003,0,,,,,,,,,,,,,,,,,,,,,,,,,,,,,,,,,,,,,,,,,,,,,,,,,,,,,,,,EJLR91,train_x,blue_star,top_right,2025-02-28_16h04.27.999,HideSeek_v1,2022.2.5,59.9253091398624,
,8,5,8,5,0,0,61,,train_dim1_1,7,30,,,,2,0,2,0,,,,,,,,,0,0,0,0,0,6,6,6,0,0,0,0,,,,,,,,,,,,,,,,,,,,,,,,,stimuli/alien_stimuli/61.png,,,,,,,,,,,,,,,,,,,,,,,,,,,,,stimuli/alien_stimuli/21.png,21,5,8,,,,,,,30,,,,,,,,394.558319600299,394.558319600299,394.558319600299,394.558319600299,394.558319600299,return,1.8885790999047458,5,0,0,1,0.48,0,return,1.786116499453783,0,-17,0.48,0,392.9766430002637,394.558319600299,-0.08,0,0.0,0.32,0.0,-0.08,0.07999999999999999,-0.08,0,391.6056186002679,391.6056186002679,391.6056186002679,391.6056186002679,391.6056186002679,391.6056186002679,391.6056186002679,391.6056186002679,391.5920618500561,1.4871515999548137,return,1.3513863999396563,,,,,,,,,,,,,,,,,,,,,,,,,,,,,,,,,EJLR91,train_x,blue_star,top_right,2025-02-28_16h04.27.999,HideSeek_v1,2022.2.5,59.9253091398624,
,5,9,2,9,-3,0,31,,train_dim1_1,8,30,,,,2,0,2,0,,,,,,,,,0,0,0,0,0,7,7,7,0,0,0,0,,,,,,,,,,,,,,,,,,,,,,,,,stimuli/alien_stimuli/31.png,,,,,,,,,,,,,,,,,,,,,,,,,,,,,stimuli/alien_stimuli/61.png,61,8,9,,,,,,,30,,,,,,,,400.87477770028636,400.87477770028636,400.87477770028636,400.87477770028636,400.87477770028636,left,3.3406394999474287,5,0,0,99,0.15999999999999998,0.32,left,3.2496890001930296,,,,,399.3151937001385,400.87477770028636,0.48,0,0.0,0.0,0.0,0.48,0.48,0.48,0,398.0006347000599,398.0006347000599,398.0006347000599,398.0006347000599,398.0006347000599,398.0006347000599,398.0006347000599,398.0006347000599,397.9808938501403,1.4364785999059677,return,1.288353499956429,,,,,,,,,,,,,,,,,,,,,,,,,,,,,,,,,EJLR91,train_x,blue_star,top_right,2025-02-28_16h04.27.999,HideSeek_v1,2022.2.5,59.9253091398624,
,5,9,2,9,-3,0,31,,train_dim1_1,8,30,,,,2,0,2,0,,,,,,,,,0,0,0,0,0,7,7,7,1,0,1,0,,,,,,,,,,,,,,,,,,,,,,,,,,,,,,,,,,,,,,,,,,,,,,,,,,,,,,,,,,,,,,,,30,,,,,,,,404.21628350019455,404.21628350019455,404.21628350019455,404.21628350019455,404.21628350019455,left,0.34306420013308525,5,0,0,99,0.07999999999999997,0.32,left,0.26747140008956194,,,,,,,,,,,,,,,,,,,,,,,,,,,,,,,,,,,,,,,,,,,,,,,,,,,,,,,,,,,,EJLR91,train_x,blue_star,top_right,2025-02-28_16h04.27.999,HideSeek_v1,2022.2.5,59.9253091398624,
,5,9,2,9,-3,0,31,,train_dim1_1,8,30,,,,2,0,2,0,,,,,,,,,0,0,0,0,0,7,7,7,2,0,2,0,,,,,,,,,,,,,,,,,,,,,,,,,,,,,,,,,,,,,,,,,,,,,,,,,,,,,,,,,,,,,,,,30,,,,,,,,404.5659654000774,404.5659654000774,404.5659654000774,404.5659654000774,404.5659654000774,left,0.42673479998484254,5,0,0,99,-2.7755575615628914e-17,0.32,left,0.35220779990777373,,,,,,,,,,,,,,,,,,,,,,,,,,,,,,,,,,,,,,,,,,,,,,,,,,,,,,,,,,,,EJLR91,train_x,blue_star,top_right,2025-02-28_16h04.27.999,HideSeek_v1,2022.2.5,59.9253091398624,
,5,9,2,9,-3,0,31,,train_dim1_1,8,30,,,,2,0,2,0,,,,,,,,,0,0,0,0,0,7,7,7,3,0,3,0,,,,,,,,,,,,,,,,,,,,,,,,,,,,,,,,,,,,,,,,,,,,,,,,,,,,,,,,,,,,,,,,30,,,,,,,,404.9994340999983,404.9994340999983,404.9994340999983,404.9994340999983,404.9994340999983,left,0.39350959984585643,5,0,0,99,-0.08000000000000003,0.32,left,0.31454800022765994,,,,,,,,,,,,,,,,,,,,,,,,,,,,,,,,,,,,,,,,,,,,,,,,,,,,,,,,,,,,EJLR91,train_x,blue_star,top_right,2025-02-28_16h04.27.999,HideSeek_v1,2022.2.5,59.9253091398624,
,5,9,2,9,-3,0,31,,train_dim1_1,8,30,,,,2,0,2,0,,,,,,,,,0,0,0,0,0,7,7,7,4,0,4,0,,,,,,,,,,,,,,,,,,,,,,,,,,,,,,,,,,,,,,,,,,,,,,,,,,,,,,,,,,,,,,,,30,,,,,,,,405.4008098002523,405.4008098002523,405.4008098002523,405.4008098002523,405.4008098002523,return,0.35935029992833734,5,1,0,0,-0.08000000000000003,0.32,return,0.2708046999759972,0,-21,-0.08000000000000003,0.32,,,,,,,,,,,,,,,,,,,,,,,,,,,,,,,,,,,,,,,,,,,,,,,,,,,,,,,,EJLR91,train_x,blue_star,top_right,2025-02-28_16h04.27.999,HideSeek_v1,2022.2.5,59.9253091398624,
,6,5,5,5,-1,0,51,,train_dim1_1,9,30,,,,2,0,2,0,,,,,,,,,0,0,0,0,0,8,8,8,0,0,0,0,,,,,,,,,,,,,,,,,,,,,,,,,stimuli/alien_stimuli/51.png,,,,,,,,,,,,,,,,,,,,,,,,,,,,,stimuli/alien_stimuli/31.png,31,5,10,,,,,,,30,,,,,,,,411.7864614999853,411.7864614999853,411.7864614999853,411.7864614999853,411.7864614999853,left,1.689621299970895,5,1,0,99,0.24,0,left,1.5928963995538652,,,,,410.22415240015835,411.7864614999853,0,0.32,0.0,0.24,0.32,0,0.12,0,0.32,407.3266945001669,407.3266945001669,407.3266945001669,407.3266945001669,407.3266945001669,407.3266945001669,407.3266945001669,407.3266945001669,407.3052047001198,3.004867299925536,return,2.8807818996720016,,,,,,,,,,,,,,,,,,,,,,,,,,,,,,,,,EJLR91,train_x,blue_star,top_right,2025-02-28_16h04.27.999,HideSeek_v1,2022.2.5,59.9253091398624,
,6,5,5,5,-1,0,51,,train_dim1_1,9,30,,,,2,0,2,0,,,,,,,,,0,0,0,0,0,8,8,8,1,0,1,0,,,,,,,,,,,,,,,,,,,,,,,,,,,,,,,,,,,,,,,,,,,,,,,,,,,,,,,,,,,,,,,,30,,,,,,,,413.47615440003574,413.47615440003574,413.47615440003574,413.47615440003574,413.47615440003574,return,0.55948769999668,6,0,0,1,0.24,0,return,0.47587129985913634,0,-22,0.24,0,,,,,,,,,,,,,,,,,,,,,,,,,,,,,,,,,,,,,,,,,,,,,,,,,,,,,,,,EJLR91,train_x,blue_star,top_right,2025-02-28_16h04.27.999,HideSeek_v1,2022.2.5,59.9253091398624,
,5,8,0,8,-5,0,11,,train_dim1_1,10,30,,,,2,0,2,0,,,,,,,,,0,0,0,0,0,9,9,9,0,0,0,0,,,,,,,,,,,,,,,,,,,,,,,,,stimuli/alien_stimuli/11.png,,,,,,,,,,,,,,,,,,,,,,,,,,,,,stimuli/alien_stimuli/51.png,51,6,11,,,,,,,30,,,,,,,,418.22444909997284,418.22444909997284,418.22444909997284,418.22444909997284,418.22444909997284,left,3.2553248000331223,6,0,0,99,0.15999999999999998,0.24,left,3.1439776001498103,,,,,416.6461390000768,418.22444909997284,0.24,0,0.0,0.08,0.0,0.24,0.28,0.24,0,415.5992864998989,415.5992864998989,415.5992864998989,415.5992864998989,415.5992864998989,415.5992864998989,415.5992864998989,415.5992864998989,415.57848640009763,1.1534295999445021,return,1.0310468999668956,,,,,,,,,,,,,,,,,,,,,,,,,,,,,,,,,EJLR91,train_x,blue_star,top_right,2025-02-28_16h04.27.999,HideSeek_v1,2022.2.5,59.9253091398624,
,5,8,0,8,-5,0,11,,train_dim1_1,10,30,,,,2,0,2,0,,,,,,,,,0,0,0,0,0,9,9,9,1,0,1,0,,,,,,,,,,,,,,,,,,,,,,,,,,,,,,,,,,,,,,,,,,,,,,,,,,,,,,,,,,,,,,,,30,,,,,,,,421.4688753001392,421.4688753001392,421.4688753001392,421.4688753001392,421.4688753001392,left,0.5258337999694049,6,0,0,99,0.07999999999999997,0.24,left,0.4330094996839762,,,,,,,,,,,,,,,,,,,,,,,,,,,,,,,,,,,,,,,,,,,,,,,,,,,,,,,,,,,,EJLR91,train_x,blue_star,top_right,2025-02-28_16h04.27.999,HideSeek_v1,2022.2.5,59.9253091398624,
,5,8,0,8,-5,0,11,,train_dim1_1,10,30,,,,2,0,2,0,,,,,,,,,0,0,0,0,0,9,9,9,2,0,2,0,,,,,,,,,,,,,,,,,,,,,,,,,,,,,,,,,,,,,,,,,,,,,,,,,,,,,,,,,,,,,,,,30,,,,,,,,422.0013892003335,422.0013892003335,422.0013892003335,422.0013892003335,422.0013892003335,left,1.0775290997698903,6,0,0,99,-2.7755575615628914e-17,0.24,left,0.9949996997602284,,,,,,,,,,,,,,,,,,,,,,,,,,,,,,,,,,,,,,,,,,,,,,,,,,,,,,,,,,,,EJLR91,train_x,blue_star,top_right,2025-02-28_16h04.27.999,HideSeek_v1,2022.2.5,59.9253091398624,
,5,8,0,8,-5,0,11,,train_dim1_1,10,30,,,,2,0,2,0,,,,,,,,,0,0,0,0,0,9,9,9,3,0,3,0,,,,,,,,,,,,,,,,,,,,,,,,,,,,,,,,,,,,,,,,,,,,,,,,,,,,,,,,,,,,,,,,30,,,,,,,,423.08657260006294,423.08657260006294,423.08657260006294,423.08657260006294,423.08657260006294,left,1.0094175999984145,6,0,0,99,-0.08000000000000003,0.24,left,0.9290877999737859,,,,,,,,,,,,,,,,,,,,,,,,,,,,,,,,,,,,,,,,,,,,,,,,,,,,,,,,,,,,EJLR91,train_x,blue_star,top_right,2025-02-28_16h04.27.999,HideSeek_v1,2022.2.5,59.9253091398624,
,5,8,0,8,-5,0,11,,train_dim1_1,10,30,,,,2,0,2,0,,,,,,,,,0,0,0,0,0,9,9,9,4,0,4,0,,,,,,,,,,,,,,,,,,,,,,,,,,,,,,,,,,,,,,,,,,,,,,,,,,,,,,,,,,,,,,,,30,,,,,,,,424.10327030019835,424.10327030019835,424.10327030019835,424.10327030019835,424.10327030019835,left,0.9105304996483028,6,0,0,99,-0.16000000000000003,0.24,left,0.8210737998597324,,,,,,,,,,,,,,,,,,,,,,,,,,,,,,,,,,,,,,,,,,,,,,,,,,,,,,,,,,,,EJLR91,train_x,blue_star,top_right,2025-02-28_16h04.27.999,HideSeek_v1,2022.2.5,59.9253091398624,
,5,8,0,8,-5,0,11,,train_dim1_1,10,30,,,,2,0,2,0,,,,,,,,,0,0,0,0,0,9,9,9,5,0,5,0,,,,,,,,,,,,,,,,,,,,,,,,,,,,,,,,,,,,,,,,,,,,,,,,,,,,,,,,,,,,,,,,30,,,,,,,,425.0202025999315,425.0202025999315,425.0202025999315,425.0202025999315,425.0202025999315,return,0.5438736998476088,7,0,0,1,-0.16000000000000003,0.24,return,0.45760619966313243,0,-27,-0.16000000000000003,0.24,,,,,,,,,,,,,,,,,,,,,,,,,,,,,,,,,,,,,,,,,,,,,,,,,,,,,,,,EJLR91,train_x,blue_star,top_right,2025-02-28_16h04.27.999,HideSeek_v1,2022.2.5,59.9253091398624,
,7,7,4,7,-3,0,31,,train_dim1_1,11,30,,,,2,0,2,0,,,,,,,,,0,0,0,0,0,10,10,10,0,0,0,0,,,,,,,,,,,,,,,,,,,,,,,,,stimuli/alien_stimuli/31.png,,,,,,,,,,,,,,,,,,,,,,,,,,,,,stimuli/alien_stimuli/11.png,11,5,12,,,,,,,30,,,,,,,,430.0414897003211,430.0414897003211,430.0414897003211,430.0414897003211,430.0414897003211,left,1.8246639999561012,7,0,0,99,0.32,0.16,left,1.7264449000358582,,,,,428.47277180012316,430.0414897003211,-0.16,0.24,0.0,0.4,0.24,-0.16,0.039999999999999994,-0.16,0.24,427.15048650000244,427.15048650000244,427.15048650000244,427.15048650000244,427.15048650000244,427.15048650000244,427.15048650000244,427.15048650000244,427.13826379990206,1.4534136997535825,return,1.3040165998972952,,,,,,,,,,,,,,,,,,,,,,,,,,,,,,,,,EJLR91,train_x,blue_star,top_right,2025-02-28_16h04.27.999,HideSeek_v1,2022.2.5,59.9253091398624,
,7,7,4,7,-3,0,31,,train_dim1_1,11,30,,,,2,0,2,0,,,,,,,,,0,0,0,0,0,10,10,10,1,0,1,0,,,,,,,,,,,,,,,,,,,,,,,,,,,,,,,,,,,,,,,,,,,,,,,,,,,,,,,,,,,,,,,,30,,,,,,,,431.85611360007897,431.85611360007897,431.85611360007897,431.85611360007897,431.85611360007897,left,0.37580080004408956,7,0,0,99,0.24,0.16,left,0.28754449961706996,,,,,,,,,,,,,,,,,,,,,,,,,,,,,,,,,,,,,,,,,,,,,,,,,,,,,,,,,,,,EJLR91,train_x,blue_star,top_right,2025-02-28_16h04.27.999,HideSeek_v1,2022.2.5,59.9253091398624,
,7,7,4,7,-3,0,31,,train_dim1_1,11,30,,,,2,0,2,0,,,,,,,,,0,0,0,0,0,10,10,10,2,0,2,0,,,,,,,,,,,,,,,,,,,,,,,,,,,,,,,,,,,,,,,,,,,,,,,,,,,,,,,,,,,,,,,,30,,,,,,,,432.23809360014275,432.23809360014275,432.23809360014275,432.23809360014275,432.23809360014275,left,1.0939358999021351,7,0,0,99,0.15999999999999998,0.16,left,1.0218353997915983,,,,,,,,,,,,,,,,,,,,,,,,,,,,,,,,,,,,,,,,,,,,,,,,,,,,,,,,,,,,EJLR91,train_x,blue_star,top_right,2025-02-28_16h04.27.999,HideSeek_v1,2022.2.5,59.9253091398624,
,7,7,4,7,-3,0,31,,train_dim1_1,11,30,,,,2,0,2,0,,,,,,,,,0,0,0,0,0,10,10,10,3,0,3,0,,,,,,,,,,,,,,,,,,,,,,,,,,,,,,,,,,,,,,,,,,,,,,,,,,,,,,,,,,,,,,,,30,,,,,,,,433.34151139995083,433.34151139995083,433.34151139995083,433.34151139995083,433.34151139995083,return,0.4102528002113104,8,0,0,1,0.15999999999999998,0.16,return,0.3241544999182224,0,-30,0.15999999999999998,0.16,,,,,,,,,,,,,,,,,,,,,,,,,,,,,,,,,,,,,,,,,,,,,,,,,,,,,,,,EJLR91,train_x,blue_star,top_right,2025-02-28_16h04.27.999,HideSeek_v1,2022.2.5,59.9253091398624,
,5,5,1,5,-4,0,21,,train_dim1_1,12,30,,,,2,0,2,0,,,,,,,,,0,0,0,0,0,11,11,11,0,0,0,0,,,,,,,,,,,,,,,,,,,,,,,,,stimuli/alien_stimuli/21.png,,,,,,,,,,,,,,,,,,,,,,,,,,,,,stimuli/alien_stimuli/31.png,31,7,13,,,,,,,30,,,,,,,,437.64281770028174,437.64281770028174,437.64281770028174,437.64281770028174,437.64281770028174,left,2.488017300143838,8,0,0,99,0.15999999999999998,0,left,2.384388899896294,,,,,436.06244629994035,437.64281770028174,0.16,0.16,0.0,0.24,0.16,0.16,0.28,0.16,0.16,435.3138280999847,435.3138280999847,435.3138280999847,435.3138280999847,435.3138280999847,435.3138280999847,435.3138280999847,435.3138280999847,435.29506000028925,0.8526170002296567,return,0.7181175998412073,,,,,,,,,,,,,,,,,,,,,,,,,,,,,,,,,EJLR91,train_x,blue_star,top_right,2025-02-28_16h04.27.999,HideSeek_v1,2022.2.5,59.9253091398624,
,5,5,1,5,-4,0,21,,train_dim1_1,12,30,,,,2,0,2,0,,,,,,,,,0,0,0,0,0,11,11,11,1,0,1,0,,,,,,,,,,,,,,,,,,,,,,,,,,,,,,,,,,,,,,,,,,,,,,,,,,,,,,,,,,,,,,,,30,,,,,,,,440.116906600073,440.116906600073,440.116906600073,440.116906600073,440.116906600073,left,0.8267660001292825,8,0,0,99,0.07999999999999997,0,left,0.7448336998932064,,,,,,,,,,,,,,,,,,,,,,,,,,,,,,,,,,,,,,,,,,,,,,,,,,,,,,,,,,,,EJLR91,train_x,blue_star,top_right,2025-02-28_16h04.27.999,HideSeek_v1,2022.2.5,59.9253091398624,
,5,5,1,5,-4,0,21,,train_dim1_1,12,30,,,,2,0,2,0,,,,,,,,,0,0,0,0,0,11,11,11,2,0,2,0,,,,,,,,,,,,,,,,,,,,,,,,,,,,,,,,,,,,,,,,,,,,,,,,,,,,,,,,,,,,,,,,30,,,,,,,,440.95011870004237,440.95011870004237,440.95011870004237,440.95011870004237,440.95011870004237,left,0.5268248999491334,8,0,0,99,-2.7755575615628914e-17,0,left,0.44921759981662035,,,,,,,,,,,,,,,,,,,,,,,,,,,,,,,,,,,,,,,,,,,,,,,,,,,,,,,,,,,,EJLR91,train_x,blue_star,top_right,2025-02-28_16h04.27.999,HideSeek_v1,2022.2.5,59.9253091398624,
,5,5,1,5,-4,0,21,,train_dim1_1,12,30,,,,2,0,2,0,,,,,,,,,0,0,0,0,0,11,11,11,3,0,3,0,,,,,,,,,,,,,,,,,,,,,,,,,,,,,,,,,,,,,,,,,,,,,,,,,,,,,,,,,,,,,,,,30,,,,,,,,441.4837878001854,441.4837878001854,441.4837878001854,441.4837878001854,441.4837878001854,left,0.5101173003204167,8,0,0,99,-0.08000000000000003,0,left,0.43317760014906526,,,,,,,,,,,,,,,,,,,,,,,,,,,,,,,,,,,,,,,,,,,,,,,,,,,,,,,,,,,,EJLR91,train_x,blue_star,top_right,2025-02-28_16h04.27.999,HideSeek_v1,2022.2.5,59.9253091398624,
,5,5,1,5,-4,0,21,,train_dim1_1,12,30,,,,2,0,2,0,,,,,,,,,0,0,0,0,0,11,11,11,4,0,4,0,,,,,,,,,,,,,,,,,,,,,,,,,,,,,,,,,,,,,,,,,,,,,,,,,,,,,,,,,,,,,,,,30,,,,,,,,442.0003609000705,442.0003609000705,442.0003609000705,442.0003609000705,442.0003609000705,return,0.32681490015238523,9,0,0,1,-0.08000000000000003,0,return,0.2468840000219643,0,-34,-0.08000000000000003,0,,,,,,,,,,,,,,,,,,,,,,,,,,,,,,,,,,,,,,,,,,,,,,,,,,,,,,,,EJLR91,train_x,blue_star,top_right,2025-02-28_16h04.27.999,HideSeek_v1,2022.2.5,59.9253091398624,
,5,9,4,9,-1,0,51,,train_dim1_1,13,30,,,,2,0,2,0,,,,,,,,,0,0,0,0,0,12,12,12,0,0,0,0,,,,,,,,,,,,,,,,,,,,,,,,,stimuli/alien_stimuli/51.png,,,,,,,,,,,,,,,,,,,,,,,,,,,,,stimuli/alien_stimuli/21.png,21,5,14,,,,,,,30,,,,,,,,447.1950921001844,447.1950921001844,447.1950921001844,447.1950921001844,447.1950921001844,left,1.8732210001908243,9,0,0,99,0.15999999999999998,0.32,left,1.7628291002474725,,,,,445.6203733999282,447.1950921001844,-0.08,0,0.0,0.32,0.0,-0.08,0.07999999999999999,-0.08,0,443.89436200028285,443.89436200028285,443.89436200028285,443.89436200028285,443.89436200028285,443.89436200028285,443.89436200028285,443.89436200028285,443.8854801499285,1.8367133997380733,return,1.7000195998698473,,,,,,,,,,,,,,,,,,,,,,,,,,,,,,,,,EJLR91,train_x,blue_star,top_right,2025-02-28_16h04.27.999,HideSeek_v1,2022.2.5,59.9253091398624,
,5,9,4,9,-1,0,51,,train_dim1_1,13,30,,,,2,0,2,0,,,,,,,,,0,0,0,0,0,12,12,12,1,0,1,0,,,,,,,,,,,,,,,,,,,,,,,,,,,,,,,,,,,,,,,,,,,,,,,,,,,,,,,,,,,,,,,,30,,,,,,,,449.0563570000231,449.0563570000231,449.0563570000231,449.0563570000231,449.0563570000231,return,0.22598430002108216,10,0,0,1,0.15999999999999998,0.32,return,0.14551999978721142,0,-35,0.15999999999999998,0.32,,,,,,,,,,,,,,,,,,,,,,,,,,,,,,,,,,,,,,,,,,,,,,,,,,,,,,,,EJLR91,train_x,blue_star,top_right,2025-02-28_16h04.27.999,HideSeek_v1,2022.2.5,59.9253091398624,
,9,8,4,8,-5,0,11,,train_dim1_1,14,30,,,,2,0,2,0,,,,,,,,,0,0,0,0,0,13,13,13,0,0,0,0,,,,,,,,,,,,,,,,,,,,,,,,,stimuli/alien_stimuli/11.png,,,,,,,,,,,,,,,,,,,,,,,,,,,,,stimuli/alien_stimuli/51.png,51,5,15,,,,,,,30,,,,,,,,453.3907139003277,453.3907139003277,453.3907139003277,453.3907139003277,453.3907139003277,left,1.1561352000571787,10,0,0,99,0.48000000000000004,0.24,left,1.0689824000000954,,,,,451.82539559993893,453.3907139003277,0.16,0.32,0.0,0.08,0.32,0.16,0.2,0.16,0.32,450.8477723998949,450.8477723998949,450.8477723998949,450.8477723998949,450.8477723998949,450.8477723998949,450.8477723998949,450.8477723998949,450.8415048502386,1.086075299885124,return,0.9560002000071108,,,,,,,,,,,,,,,,,,,,,,,,,,,,,,,,,EJLR91,train_x,blue_star,top_right,2025-02-28_16h04.27.999,HideSeek_v1,2022.2.5,59.9253091398624,
,9,8,4,8,-5,0,11,,train_dim1_1,14,30,,,,2,0,2,0,,,,,,,,,0,0,0,0,0,13,13,13,1,0,1,0,,,,,,,,,,,,,,,,,,,,,,,,,,,,,,,,,,,,,,,,,,,,,,,,,,,,,,,,,,,,,,,,30,,,,,,,,454.5446574999951,454.5446574999951,454.5446574999951,454.5446574999951,454.5446574999951,left,0.3428620998747647,10,0,0,99,0.4,0.24,left,0.251175899989903,,,,,,,,,,,,,,,,,,,,,,,,,,,,,,,,,,,,,,,,,,,,,,,,,,,,,,,,,,,,EJLR91,train_x,blue_star,top_right,2025-02-28_16h04.27.999,HideSeek_v1,2022.2.5,59.9253091398624,
,9,8,4,8,-5,0,11,,train_dim1_1,14,30,,,,2,0,2,0,,,,,,,,,0,0,0,0,0,13,13,13,2,0,2,0,,,,,,,,,,,,,,,,,,,,,,,,,,,,,,,,,,,,,,,,,,,,,,,,,,,,,,,,,,,,,,,,30,,,,,,,,454.8953168001026,454.8953168001026,454.8953168001026,454.8953168001026,454.8953168001026,left,0.6107684001326561,10,0,0,99,0.32,0.24,left,0.519395399838686,,,,,,,,,,,,,,,,,,,,,,,,,,,,,,,,,,,,,,,,,,,,,,,,,,,,,,,,,,,,EJLR91,train_x,blue_star,top_right,2025-02-28_16h04.27.999,HideSeek_v1,2022.2.5,59.9253091398624,
,9,8,4,8,-5,0,11,,train_dim1_1,14,30,,,,2,0,2,0,,,,,,,,,0,0,0,0,0,13,13,13,3,0,3,0,,,,,,,,,,,,,,,,,,,,,,,,,,,,,,,,,,,,,,,,,,,,,,,,,,,,,,,,,,,,,,,,30,,,,,,,,455.51594040030614,455.51594040030614,455.51594040030614,455.51594040030614,455.51594040030614,left,0.4732031002640724,10,0,0,99,0.24,0.24,left,0.38529769983142614,,,,,,,,,,,,,,,,,,,,,,,,,,,,,,,,,,,,,,,,,,,,,,,,,,,,,,,,,,,,EJLR91,train_x,blue_star,top_right,2025-02-28_16h04.27.999,HideSeek_v1,2022.2.5,59.9253091398624,
,9,8,4,8,-5,0,11,,train_dim1_1,14,30,,,,2,0,2,0,,,,,,,,,0,0,0,0,0,13,13,13,4,0,4,0,,,,,,,,,,,,,,,,,,,,,,,,,,,,,,,,,,,,,,,,,,,,,,,,,,,,,,,,,,,,,,,,30,,,,,,,,455.998100399971,455.998100399971,455.998100399971,455.998100399971,455.998100399971,return,0.3267295998521149,10,1,0,0,0.24,0.24,return,0.23927369993180037,0,-39,0.24,0.24,,,,,,,,,,,,,,,,,,,,,,,,,,,,,,,,,,,,,,,,,,,,,,,,,,,,,,,,EJLR91,train_x,blue_star,top_right,2025-02-28_16h04.27.999,HideSeek_v1,2022.2.5,59.9253091398624,
,9,7,9,7,0,0,61,,train_dim1_1,15,30,,,,2,0,2,0,,,,,,,,,0,0,0,0,0,14,14,14,0,0,0,0,,,,,,,,,,,,,,,,,,,,,,,,,stimuli/alien_stimuli/61.png,,,,,,,,,,,,,,,,,,,,,,,,,,,,,stimuli/alien_stimuli/11.png,11,9,16,,,,,,,30,,,,,,,,461.613865100313,461.613865100313,461.613865100313,461.613865100313,461.613865100313,return,2.8381219003349543,11,0,0,1,0.56,0.16,return,2.753173199482262,0,-39,0.56,0.16,460.0488432003185,461.613865100313,0.16,0.24,0.0,0.4,0.24,0.16,0.36000000000000004,0.16,0.24,457.89062080020085,457.89062080020085,457.89062080020085,457.89062080020085,457.89062080020085,457.89062080020085,457.89062080020085,457.89062080020085,457.8805212502368,2.2703705998137593,return,2.1305657997727394,,,,,,,,,,,,,,,,,,,,,,,,,,,,,,,,,EJLR91,train_x,blue_star,top_right,2025-02-28_16h04.27.999,HideSeek_v1,2022.2.5,59.9253091398624,
,8,8,7,8,-1,0,51,,train_dim1_1,16,30,,,,2,0,2,0,,,,,,,,,0,0,0,0,0,15,15,15,0,0,0,0,,,,,,,,,,,,,,,,,,,,,,,,,stimuli/alien_stimuli/51.png,,,,,,,,,,,,,,,,,,,,,,,,,,,,,stimuli/alien_stimuli/61.png,61,9,17,,,,,,,30,,,,,,,,469.0527746998705,469.0527746998705,469.0527746998705,469.0527746998705,469.0527746998705,left,1.7562043000943959,11,0,0,99,0.39999999999999997,0.24,left,1.651002800092101,,,,,467.4717135000974,469.0527746998705,0.56,0.16,0.0,0.0,0.16,0.56,0.56,0.56,0.16,466.01004960015416,466.01004960015416,466.01004960015416,466.01004960015416,466.01004960015416,466.01004960015416,466.01004960015416,466.01004960015416,465.9871520999819,1.5709398998878896,return,1.440611300058663,,,,,,,,,,,,,,,,,,,,,,,,,,,,,,,,,EJLR91,train_x,blue_star,top_right,2025-02-28_16h04.27.999,HideSeek_v1,2022.2.5,59.9253091398624,
,8,8,7,8,-1,0,51,,train_dim1_1,16,30,,,,2,0,2,0,,,,,,,,,0,0,0,0,0,15,15,15,1,0,1,0,,,,,,,,,,,,,,,,,,,,,,,,,,,,,,,,,,,,,,,,,,,,,,,,,,,,,,,,,,,,,,,,30,,,,,,,,470.7919473000802,470.7919473000802,470.7919473000802,470.7919473000802,470.7919473000802,return,0.4100385997444391,12,0,0,1,0.39999999999999997,0.24,return,0.3257020995952189,0,-40,0.39999999999999997,0.24,,,,,,,,,,,,,,,,,,,,,,,,,,,,,,,,,,,,,,,,,,,,,,,,,,,,,,,,EJLR91,train_x,blue_star,top_right,2025-02-28_16h04.27.999,HideSeek_v1,2022.2.5,59.9253091398624,
,7,9,3,9,-4,0,21,,train_dim1_1,17,30,,,,2,0,2,0,,,,,,,,,0,0,0,0,0,16,16,16,0,0,0,0,,,,,,,,,,,,,,,,,,,,,,,,,stimuli/alien_stimuli/21.png,,,,,,,,,,,,,,,,,,,,,,,,,,,,,stimuli/alien_stimuli/51.png,51,8,18,,,,,,,30,,,,,,,,475.3920938000083,475.3920938000083,475.3920938000083,475.3920938000083,475.3920938000083,left,2.0713316998444498,12,0,0,99,0.32,0.32,left,1.9725619000382721,,,,,473.8272457001731,475.3920938000083,0.4,0.24,0.0,0.08,0.24,0.4,0.44,0.4,0.24,472.7664366001263,472.7664366001263,472.7664366001263,472.7664366001263,472.7664366001263,472.7664366001263,472.7664366001263,472.7664366001263,472.75954555002977,1.1695967996492982,return,1.033097400330007,,,,,,,,,,,,,,,,,,,,,,,,,,,,,,,,,EJLR91,train_x,blue_star,top_right,2025-02-28_16h04.27.999,HideSeek_v1,2022.2.5,59.9253091398624,
,7,9,3,9,-4,0,21,,train_dim1_1,17,30,,,,2,0,2,0,,,,,,,,,0,0,0,0,0,16,16,16,1,0,1,0,,,,,,,,,,,,,,,,,,,,,,,,,,,,,,,,,,,,,,,,,,,,,,,,,,,,,,,,,,,,,,,,30,,,,,,,,477.46379840001464,477.46379840001464,477.46379840001464,477.46379840001464,477.46379840001464,left,0.35991680016741157,12,0,0,99,0.24,0.32,left,0.27196749998256564,,,,,,,,,,,,,,,,,,,,,,,,,,,,,,,,,,,,,,,,,,,,,,,,,,,,,,,,,,,,EJLR91,train_x,blue_star,top_right,2025-02-28_16h04.27.999,HideSeek_v1,2022.2.5,59.9253091398624,
,7,9,3,9,-4,0,21,,train_dim1_1,17,30,,,,2,0,2,0,,,,,,,,,0,0,0,0,0,16,16,16,2,0,2,0,,,,,,,,,,,,,,,,,,,,,,,,,,,,,,,,,,,,,,,,,,,,,,,,,,,,,,,,,,,,,,,,30,,,,,,,,477.8307257001288,477.8307257001288,477.8307257001288,477.8307257001288,477.8307257001288,left,0.4267478999681771,12,0,0,99,0.15999999999999998,0.32,left,0.3392149996943772,,,,,,,,,,,,,,,,,,,,,,,,,,,,,,,,,,,,,,,,,,,,,,,,,,,,,,,,,,,,EJLR91,train_x,blue_star,top_right,2025-02-28_16h04.27.999,HideSeek_v1,2022.2.5,59.9253091398624,
,7,9,3,9,-4,0,21,,train_dim1_1,17,30,,,,2,0,2,0,,,,,,,,,0,0,0,0,0,16,16,16,3,0,3,0,,,,,,,,,,,,,,,,,,,,,,,,,,,,,,,,,,,,,,,,,,,,,,,,,,,,,,,,,,,,,,,,30,,,,,,,,478.26449070032686,478.26449070032686,478.26449070032686,478.26449070032686,478.26449070032686,return,0.3259410001337528,12,1,0,0,0.15999999999999998,0.32,return,0.2400807999074459,0,-43,0.15999999999999998,0.32,,,,,,,,,,,,,,,,,,,,,,,,,,,,,,,,,,,,,,,,,,,,,,,,,,,,,,,,EJLR91,train_x,blue_star,top_right,2025-02-28_16h04.27.999,HideSeek_v1,2022.2.5,59.9253091398624,
,7,6,7,6,0,0,61,,train_dim1_1,18,30,,,,2,0,2,0,,,,,,,,,0,0,0,0,0,17,17,17,0,0,0,0,,,,,,,,,,,,,,,,,,,,,,,,,stimuli/alien_stimuli/61.png,,,,,,,,,,,,,,,,,,,,,,,,,,,,,stimuli/alien_stimuli/21.png,21,7,19,,,,,,,30,,,,,,,,483.6441784002818,483.6441784002818,483.6441784002818,483.6441784002818,483.6441784002818,return,1.757458500098437,13,0,0,1,0.4,0.08,return,1.6444227998144925,0,-43,0.4,0.08,482.0670330999419,483.6441784002818,0.08,0.32,0.0,0.32,0.32,0.08,0.24000000000000002,0.08,0.32,480.15802900027484,480.15802900027484,480.15802900027484,480.15802900027484,480.15802900027484,480.15802900027484,480.15802900027484,480.15802900027484,480.14922085013245,2.02025100030005,return,1.8826207998208702,,,,,,,,,,,,,,,,,,,,,,,,,,,,,,,,,EJLR91,train_x,blue_star,top_right,2025-02-28_16h04.27.999,HideSeek_v1,2022.2.5,59.9253091398624,
,5,8,2,8,-3,0,31,,train_dim1_1,19,30,,,,2,0,2,0,,,,,,,,,0,0,0,0,0,18,18,18,0,0,0,0,,,,,,,,,,,,,,,,,,,,,,,,,stimuli/alien_stimuli/31.png,,,,,,,,,,,,,,,,,,,,,,,,,,,,,stimuli/alien_stimuli/61.png,61,7,20,,,,,,,30,,,,,,,,490.6331699001603,490.6331699001603,490.6331699001603,490.6331699001603,490.6331699001603,left,2.4225369999185205,13,0,0,99,0.15999999999999998,0.24,left,2.319703699555248,,,,,489.05607370007783,490.6331699001603,0.4,0.08,0.0,0.0,0.08,0.4,0.4,0.4,0.08,486.93702360009775,486.93702360009775,486.93702360009775,486.93702360009775,486.93702360009775,486.93702360009775,486.93702360009775,486.93702360009775,486.92179159997033,2.2201920999214053,return,2.0979917999356985,,,,,,,,,,,,,,,,,,,,,,,,,,,,,,,,,EJLR91,train_x,blue_star,top_right,2025-02-28_16h04.27.999,HideSeek_v1,2022.2.5,59.9253091398624,
,5,8,2,8,-3,0,31,,train_dim1_1,19,30,,,,2,0,2,0,,,,,,,,,0,0,0,0,0,18,18,18,1,0,1,0,,,,,,,,,,,,,,,,,,,,,,,,,,,,,,,,,,,,,,,,,,,,,,,,,,,,,,,,,,,,,,,,30,,,,,,,,493.0405262000859,493.0405262000859,493.0405262000859,493.0405262000859,493.0405262000859,left,0.42605930007994175,13,0,0,99,0.07999999999999997,0.24,left,0.3483533998951316,,,,,,,,,,,,,,,,,,,,,,,,,,,,,,,,,,,,,,,,,,,,,,,,,,,,,,,,,,,,EJLR91,train_x,blue_star,top_right,2025-02-28_16h04.27.999,HideSeek_v1,2022.2.5,59.9253091398624,
,5,8,2,8,-3,0,31,,train_dim1_1,19,30,,,,2,0,2,0,,,,,,,,,0,0,0,0,0,18,18,18,2,0,2,0,,,,,,,,,,,,,,,,,,,,,,,,,,,,,,,,,,,,,,,,,,,,,,,,,,,,,,,,,,,,,,,,30,,,,,,,,493.473618700169,493.473618700169,493.473618700169,493.473618700169,493.473618700169,left,0.42601960012689233,13,0,0,99,-2.7755575615628914e-17,0.24,left,0.35306650027632713,,,,,,,,,,,,,,,,,,,,,,,,,,,,,,,,,,,,,,,,,,,,,,,,,,,,,,,,,,,,EJLR91,train_x,blue_star,top_right,2025-02-28_16h04.27.999,HideSeek_v1,2022.2.5,59.9253091398624,
,5,8,2,8,-3,0,31,,train_dim1_1,19,30,,,,2,0,2,0,,,,,,,,,0,0,0,0,0,18,18,18,3,0,3,0,,,,,,,,,,,,,,,,,,,,,,,,,,,,,,,,,,,,,,,,,,,,,,,,,,,,,,,,,,,,,,,,30,,,,,,,,493.9064881000668,493.9064881000668,493.9064881000668,493.9064881000668,493.9064881000668,return,1.1274361000396311,14,0,0,1,-2.7755575615628914e-17,0.24,return,1.054202999919653,0,-46,-2.7755575615628914e-17,0.24,,,,,,,,,,,,,,,,,,,,,,,,,,,,,,,,,,,,,,,,,,,,,,,,,,,,,,,,EJLR91,train_x,blue_star,top_right,2025-02-28_16h04.27.999,HideSeek_v1,2022.2.5,59.9253091398624,
,5,6,0,6,-5,0,11,,train_dim1_1,20,30,,,,2,0,2,0,,,,,,,,,0,0,0,0,0,19,19,19,0,0,0,0,,,,,,,,,,,,,,,,,,,,,,,,,stimuli/alien_stimuli/11.png,,,,,,,,,,,,,,,,,,,,,,,,,,,,,stimuli/alien_stimuli/31.png,31,5,21,,,,,,,30,,,,,,,,499.3745023999363,499.3745023999363,499.3745023999363,499.3745023999363,499.3745023999363,left,0.9539449000731111,14,0,0,99,0.15999999999999998,0.08,left,0.8442615997046232,,,,,497.7967067002319,499.3745023999363,0,0.24,0.0,0.24,0.24,0,0.12,0,0.24,496.59511019987985,496.59511019987985,496.59511019987985,496.59511019987985,496.59511019987985,496.59511019987985,496.59511019987985,496.59511019987985,496.57933469992133,1.3031120002269745,return,1.1776601998135448,,,,,,,,,,,,,,,,,,,,,,,,,,,,,,,,,EJLR91,train_x,blue_star,top_right,2025-02-28_16h04.27.999,HideSeek_v1,2022.2.5,59.9253091398624,
,5,6,0,6,-5,0,11,,train_dim1_1,20,30,,,,2,0,2,0,,,,,,,,,0,0,0,0,0,19,19,19,1,0,1,0,,,,,,,,,,,,,,,,,,,,,,,,,,,,,,,,,,,,,,,,,,,,,,,,,,,,,,,,,,,,,,,,30,,,,,,,,500.3156368001364,500.3156368001364,500.3156368001364,500.3156368001364,500.3156368001364,left,0.30970639968290925,14,0,0,99,0.07999999999999997,0.08,left,0.22888420009985566,,,,,,,,,,,,,,,,,,,,,,,,,,,,,,,,,,,,,,,,,,,,,,,,,,,,,,,,,,,,EJLR91,train_x,blue_star,top_right,2025-02-28_16h04.27.999,HideSeek_v1,2022.2.5,59.9253091398624,
,5,6,0,6,-5,0,11,,train_dim1_1,20,30,,,,2,0,2,0,,,,,,,,,0,0,0,0,0,19,19,19,2,0,2,0,,,,,,,,,,,,,,,,,,,,,,,,,,,,,,,,,,,,,,,,,,,,,,,,,,,,,,,,,,,,,,,,30,,,,,,,,500.63292710017413,500.63292710017413,500.63292710017413,500.63292710017413,500.63292710017413,left,0.37667660042643547,14,0,0,99,-2.7755575615628914e-17,0.08,left,0.29824519995599985,,,,,,,,,,,,,,,,,,,,,,,,,,,,,,,,,,,,,,,,,,,,,,,,,,,,,,,,,,,,EJLR91,train_x,blue_star,top_right,2025-02-28_16h04.27.999,HideSeek_v1,2022.2.5,59.9253091398624,
,5,6,0,6,-5,0,11,,train_dim1_1,20,30,,,,2,0,2,0,,,,,,,,,0,0,0,0,0,19,19,19,3,0,3,0,,,,,,,,,,,,,,,,,,,,,,,,,,,,,,,,,,,,,,,,,,,,,,,,,,,,,,,,,,,,,,,,30,,,,,,,,501.0163246002048,501.0163246002048,501.0163246002048,501.0163246002048,501.0163246002048,left,0.3767884001135826,14,0,0,99,-0.08000000000000003,0.08,left,0.28651459980756044,,,,,,,,,,,,,,,,,,,,,,,,,,,,,,,,,,,,,,,,,,,,,,,,,,,,,,,,,,,,EJLR91,train_x,blue_star,top_right,2025-02-28_16h04.27.999,HideSeek_v1,2022.2.5,59.9253091398624,
,5,6,0,6,-5,0,11,,train_dim1_1,20,30,,,,2,0,2,0,,,,,,,,,0,0,0,0,0,19,19,19,4,0,4,0,,,,,,,,,,,,,,,,,,,,,,,,,,,,,,,,,,,,,,,,,,,,,,,,,,,,,,,,,,,,,,,,30,,,,,,,,501.4011520999484,501.4011520999484,501.4011520999484,501.4011520999484,501.4011520999484,left,0.34276070026680827,14,0,0,99,-0.16000000000000003,0.08,left,0.2619360997341573,,,,,,,,,,,,,,,,,,,,,,,,,,,,,,,,,,,,,,,,,,,,,,,,,,,,,,,,,,,,EJLR91,train_x,blue_star,top_right,2025-02-28_16h04.27.999,HideSeek_v1,2022.2.5,59.9253091398624,
,5,6,0,6,-5,0,11,,train_dim1_1,20,30,,,,2,0,2,0,,,,,,,,,0,0,0,0,0,19,19,19,5,0,5,0,,,,,,,,,,,,,,,,,,,,,,,,,,,,,,,,,,,,,,,,,,,,,,,,,,,,,,,,,,,,,,,,30,,,,,,,,501.7507723001763,501.7507723001763,501.7507723001763,501.7507723001763,501.7507723001763,return,0.3267011004500091,15,0,0,1,-0.16000000000000003,0.08,return,0.24941989965736866,0,-51,-0.16000000000000003,0.08,,,,,,,,,,,,,,,,,,,,,,,,,,,,,,,,,,,,,,,,,,,,,,,,,,,,,,,,EJLR91,train_x,blue_star,top_right,2025-02-28_16h04.27.999,HideSeek_v1,2022.2.5,59.9253091398624,
,9,7,6,7,-3,0,31,,train_dim1_1,21,30,,,,2,0,2,0,,,,,,,,,0,0,0,0,0,20,20,20,0,0,0,0,,,,,,,,,,,,,,,,,,,,,,,,,stimuli/alien_stimuli/31.png,,,,,,,,,,,,,,,,,,,,,,,,,,,,,stimuli/alien_stimuli/11.png,11,5,22,,,,,,,30,,,,,,,,506.3119200002402,506.3119200002402,506.3119200002402,506.3119200002402,506.3119200002402,left,2.1223272997885942,15,0,0,99,0.48000000000000004,0.16,left,2.037347299978137,,,,,504.75241609988734,506.3119200002402,-0.16,0.08,0.0,0.4,0.08,-0.16,0.039999999999999994,-0.16,0.08,503.6463117999956,503.6463117999956,503.6463117999956,503.6463117999956,503.6463117999956,503.6463117999956,503.6463117999956,503.6463117999956,503.6352283501067,1.219380000140518,return,1.0848570000380278,,,,,,,,,,,,,,,,,,,,,,,,,,,,,,,,,EJLR91,train_x,blue_star,top_right,2025-02-28_16h04.27.999,HideSeek_v1,2022.2.5,59.9253091398624,
,9,7,6,7,-3,0,31,,train_dim1_1,21,30,,,,2,0,2,0,,,,,,,,,0,0,0,0,0,20,20,20,1,0,1,0,,,,,,,,,,,,,,,,,,,,,,,,,,,,,,,,,,,,,,,,,,,,,,,,,,,,,,,,,,,,,,,,30,,,,,,,,508.43518180027604,508.43518180027604,508.43518180027604,508.43518180027604,508.43518180027604,left,0.3263089000247419,15,0,0,99,0.4,0.16,left,0.24252509977668524,,,,,,,,,,,,,,,,,,,,,,,,,,,,,,,,,,,,,,,,,,,,,,,,,,,,,,,,,,,,EJLR91,train_x,blue_star,top_right,2025-02-28_16h04.27.999,HideSeek_v1,2022.2.5,59.9253091398624,
,9,7,6,7,-3,0,31,,train_dim1_1,21,30,,,,2,0,2,0,,,,,,,,,0,0,0,0,0,20,20,20,2,0,2,0,,,,,,,,,,,,,,,,,,,,,,,,,,,,,,,,,,,,,,,,,,,,,,,,,,,,,,,,,,,,,,,,30,,,,,,,,508.76829450018704,508.76829450018704,508.76829450018704,508.76829450018704,508.76829450018704,left,0.34325340017676353,15,0,0,99,0.32,0.16,left,0.26094939978793263,,,,,,,,,,,,,,,,,,,,,,,,,,,,,,,,,,,,,,,,,,,,,,,,,,,,,,,,,,,,EJLR91,train_x,blue_star,top_right,2025-02-28_16h04.27.999,HideSeek_v1,2022.2.5,59.9253091398624,
,9,7,6,7,-3,0,31,,train_dim1_1,21,30,,,,2,0,2,0,,,,,,,,,0,0,0,0,0,20,20,20,3,0,3,0,,,,,,,,,,,,,,,,,,,,,,,,,,,,,,,,,,,,,,,,,,,,,,,,,,,,,,,,,,,,,,,,30,,,,,,,,509.11972940014675,509.11972940014675,509.11972940014675,509.11972940014675,509.11972940014675,left,0.3926335000433028,15,0,0,99,0.24,0.16,left,0.3123780000023544,,,,,,,,,,,,,,,,,,,,,,,,,,,,,,,,,,,,,,,,,,,,,,,,,,,,,,,,,,,,EJLR91,train_x,blue_star,top_right,2025-02-28_16h04.27.999,HideSeek_v1,2022.2.5,59.9253091398624,
,9,7,6,7,-3,0,31,,train_dim1_1,21,30,,,,2,0,2,0,,,,,,,,,0,0,0,0,0,20,20,20,4,0,4,0,,,,,,,,,,,,,,,,,,,,,,,,,,,,,,,,,,,,,,,,,,,,,,,,,,,,,,,,,,,,,,,,30,,,,,,,,509.52054180018604,509.52054180018604,509.52054180018604,509.52054180018604,509.52054180018604,return,0.5598082998767495,15,1,0,0,0.24,0.16,return,0.47845799988135695,0,-55,0.24,0.16,,,,,,,,,,,,,,,,,,,,,,,,,,,,,,,,,,,,,,,,,,,,,,,,,,,,,,,,EJLR91,train_x,blue_star,top_right,2025-02-28_16h04.27.999,HideSeek_v1,2022.2.5,59.9253091398624,
,6,5,2,5,-4,0,21,,train_dim1_1,22,30,,,,2,0,2,0,,,,,,,,,0,0,0,0,0,21,21,21,0,0,0,0,,,,,,,,,,,,,,,,,,,,,,,,,stimuli/alien_stimuli/21.png,,,,,,,,,,,,,,,,,,,,,,,,,,,,,stimuli/alien_stimuli/31.png,31,9,23,,,,,,,30,,,,,,,,515.3386742998846,515.3386742998846,515.3386742998846,515.3386742998846,515.3386742998846,left,2.221999099943787,15,1,0,99,0.24,0,left,2.112191000021994,,,,,513.7601975002326,515.3386742998846,0.32,0.16,0.0,0.24,0.16,0.32,0.44000000000000006,0.32,0.16,511.64303810009733,511.64303810009733,511.64303810009733,511.64303810009733,511.64303810009733,511.64303810009733,511.64303810009733,511.64303810009733,511.62521670004355,2.22046360000968,return,2.0940528996288776,,,,,,,,,,,,,,,,,,,,,,,,,,,,,,,,,EJLR91,train_x,blue_star,top_right,2025-02-28_16h04.27.999,HideSeek_v1,2022.2.5,59.9253091398624,
,6,5,2,5,-4,0,21,,train_dim1_1,22,30,,,,2,0,2,0,,,,,,,,,0,0,0,0,0,21,21,21,1,0,1,0,,,,,,,,,,,,,,,,,,,,,,,,,,,,,,,,,,,,,,,,,,,,,,,,,,,,,,,,,,,,,,,,30,,,,,,,,517.5481603001244,517.5481603001244,517.5481603001244,517.5481603001244,517.5481603001244,left,0.45922640012577176,15,1,0,99,0.15999999999999998,0,left,0.3802451998926699,,,,,,,,,,,,,,,,,,,,,,,,,,,,,,,,,,,,,,,,,,,,,,,,,,,,,,,,,,,,EJLR91,train_x,blue_star,top_right,2025-02-28_16h04.27.999,HideSeek_v1,2022.2.5,59.9253091398624,
,6,5,2,5,-4,0,21,,train_dim1_1,22,30,,,,2,0,2,0,,,,,,,,,0,0,0,0,0,21,21,21,2,0,2,0,,,,,,,,,,,,,,,,,,,,,,,,,,,,,,,,,,,,,,,,,,,,,,,,,,,,,,,,,,,,,,,,30,,,,,,,,518.0136182000861,518.0136182000861,518.0136182000861,518.0136182000861,518.0136182000861,left,0.8273351998068392,15,1,0,99,0.07999999999999997,0,left,0.7375448001548648,,,,,,,,,,,,,,,,,,,,,,,,,,,,,,,,,,,,,,,,,,,,,,,,,,,,,,,,,,,,EJLR91,train_x,blue_star,top_right,2025-02-28_16h04.27.999,HideSeek_v1,2022.2.5,59.9253091398624,
,6,5,2,5,-4,0,21,,train_dim1_1,22,30,,,,2,0,2,0,,,,,,,,,0,0,0,0,0,21,21,21,3,0,3,0,,,,,,,,,,,,,,,,,,,,,,,,,,,,,,,,,,,,,,,,,,,,,,,,,,,,,,,,,,,,,,,,30,,,,,,,,518.8578578000888,518.8578578000888,518.8578578000888,518.8578578000888,518.8578578000888,left,0.5716190999373794,15,1,0,99,-2.7755575615628914e-17,0,left,0.4819141998887062,,,,,,,,,,,,,,,,,,,,,,,,,,,,,,,,,,,,,,,,,,,,,,,,,,,,,,,,,,,,EJLR91,train_x,blue_star,top_right,2025-02-28_16h04.27.999,HideSeek_v1,2022.2.5,59.9253091398624,
,6,5,2,5,-4,0,21,,train_dim1_1,22,30,,,,2,0,2,0,,,,,,,,,0,0,0,0,0,21,21,21,4,0,4,0,,,,,,,,,,,,,,,,,,,,,,,,,,,,,,,,,,,,,,,,,,,,,,,,,,,,,,,,,,,,,,,,30,,,,,,,,519.434236400295,519.434236400295,519.434236400295,519.434236400295,519.434236400295,return,0.7598393997177482,16,0,0,1,-2.7755575615628914e-17,0,return,0.6691038999706507,0,-59,-2.7755575615628914e-17,0,,,,,,,,,,,,,,,,,,,,,,,,,,,,,,,,,,,,,,,,,,,,,,,,,,,,,,,,EJLR91,train_x,blue_star,top_right,2025-02-28_16h04.27.999,HideSeek_v1,2022.2.5,59.9253091398624,
,7,6,7,6,0,0,61,,train_dim1_1,23,30,,,,2,0,2,0,,,,,,,,,0,0,0,0,0,22,22,22,0,0,0,0,,,,,,,,,,,,,,,,,,,,,,,,,stimuli/alien_stimuli/61.png,,,,,,,,,,,,,,,,,,,,,,,,,,,,,stimuli/alien_stimuli/21.png,21,6,24,,,,,,,30,,,,,,,,524.3218580000103,524.3218580000103,524.3218580000103,524.3218580000103,524.3218580000103,return,1.5242233001627028,17,0,0,1,0.4,0.08,return,1.4195876000449061,0,-59,0.4,0.08,522.7512614000589,524.3218580000103,0,0,0.0,0.32,0.0,0,0.16,0,0,521.7594399000518,521.7594399000518,521.7594399000518,521.7594399000518,521.7594399000518,521.7594399000518,521.7594399000518,521.7594399000518,521.7500909499825,1.103374700061977,return,0.9699780996888876,,,,,,,,,,,,,,,,,,,,,,,,,,,,,,,,,EJLR91,train_x,blue_star,top_right,2025-02-28_16h04.27.999,HideSeek_v1,2022.2.5,59.9253091398624,
,9,9,8,9,-1,0,51,,train_dim1_1,24,30,,,,2,0,2,0,,,,,,,,,0,0,0,0,0,23,23,23,0,0,0,0,,,,,,,,,,,,,,,,,,,,,,,,,stimuli/alien_stimuli/51.png,,,,,,,,,,,,,,,,,,,,,,,,,,,,,stimuli/alien_stimuli/61.png,61,7,25,,,,,,,30,,,,,,,,529.9324167999439,529.9324167999439,529.9324167999439,529.9324167999439,529.9324167999439,left,1.3903403002768755,17,0,0,99,0.48000000000000004,0.32,left,1.293881899677217,,,,,528.3722116001882,529.9324167999439,0.4,0.08,0.0,0.0,0.08,0.4,0.4,0.4,0.08,527.3905171998776,527.3905171998776,527.3905171998776,527.3905171998776,527.3905171998776,527.3905171998776,527.3905171998776,527.3905171998776,527.3714804001153,1.0863653998821974,return,0.9633896998129785,,,,,,,,,,,,,,,,,,,,,,,,,,,,,,,,,EJLR91,train_x,blue_star,top_right,2025-02-28_16h04.27.999,HideSeek_v1,2022.2.5,59.9253091398624,
,9,9,8,9,-1,0,51,,train_dim1_1,24,30,,,,2,0,2,0,,,,,,,,,0,0,0,0,0,23,23,23,1,0,1,0,,,,,,,,,,,,,,,,,,,,,,,,,,,,,,,,,,,,,,,,,,,,,,,,,,,,,,,,,,,,,,,,30,,,,,,,,531.3233515000902,531.3233515000902,531.3233515000902,531.3233515000902,531.3233515000902,return,0.27641439996659756,18,0,0,1,0.48000000000000004,0.32,return,0.19745420012623072,0,-60,0.48000000000000004,0.32,,,,,,,,,,,,,,,,,,,,,,,,,,,,,,,,,,,,,,,,,,,,,,,,,,,,,,,,EJLR91,train_x,blue_star,top_right,2025-02-28_16h04.27.999,HideSeek_v1,2022.2.5,59.9253091398624,
,8,5,3,5,-5,0,11,,train_dim1_1,25,30,,,,2,0,2,0,,,,,,,,,0,0,0,0,0,24,24,24,0,0,0,0,,,,,,,,,,,,,,,,,,,,,,,,,stimuli/alien_stimuli/11.png,,,,,,,,,,,,,,,,,,,,,,,,,,,,,stimuli/alien_stimuli/51.png,51,9,26,,,,,,,30,,,,,,,,535.4411035003141,535.4411035003141,535.4411035003141,535.4411035003141,535.4411035003141,left,1.1711137001402676,18,0,0,99,0.39999999999999997,0,left,1.0874027996324003,,,,,533.8767798002809,535.4411035003141,0.48,0.32,0.0,0.08,0.32,0.48,0.52,0.48,0.32,533.16609420022,533.16609420022,533.16609420022,533.16609420022,533.16609420022,533.16609420022,533.16609420022,533.16609420022,533.1430407999084,0.8193822000175714,return,0.6871533002704382,,,,,,,,,,,,,,,,,,,,,,,,,,,,,,,,,EJLR91,train_x,blue_star,top_right,2025-02-28_16h04.27.999,HideSeek_v1,2022.2.5,59.9253091398624,
,8,5,3,5,-5,0,11,,train_dim1_1,25,30,,,,2,0,2,0,,,,,,,,,0,0,0,0,0,24,24,24,1,0,1,0,,,,,,,,,,,,,,,,,,,,,,,,,,,,,,,,,,,,,,,,,,,,,,,,,,,,,,,,,,,,,,,,30,,,,,,,,536.6130568999797,536.6130568999797,536.6130568999797,536.6130568999797,536.6130568999797,left,0.2760528000071645,18,0,0,99,0.31999999999999995,0,left,0.19116279995068908,,,,,,,,,,,,,,,,,,,,,,,,,,,,,,,,,,,,,,,,,,,,,,,,,,,,,,,,,,,,EJLR91,train_x,blue_star,top_right,2025-02-28_16h04.27.999,HideSeek_v1,2022.2.5,59.9253091398624,
,8,5,3,5,-5,0,11,,train_dim1_1,25,30,,,,2,0,2,0,,,,,,,,,0,0,0,0,0,24,24,24,2,0,2,0,,,,,,,,,,,,,,,,,,,,,,,,,,,,,,,,,,,,,,,,,,,,,,,,,,,,,,,,,,,,,,,,30,,,,,,,,536.8959290999919,536.8959290999919,536.8959290999919,536.8959290999919,536.8959290999919,left,0.4269111999310553,18,0,0,99,0.23999999999999994,0,left,0.3376815998926759,,,,,,,,,,,,,,,,,,,,,,,,,,,,,,,,,,,,,,,,,,,,,,,,,,,,,,,,,,,,EJLR91,train_x,blue_star,top_right,2025-02-28_16h04.27.999,HideSeek_v1,2022.2.5,59.9253091398624,
,8,5,3,5,-5,0,11,,train_dim1_1,25,30,,,,2,0,2,0,,,,,,,,,0,0,0,0,0,24,24,24,3,0,3,0,,,,,,,,,,,,,,,,,,,,,,,,,,,,,,,,,,,,,,,,,,,,,,,,,,,,,,,,,,,,,,,,30,,,,,,,,537.3316144999117,537.3316144999117,537.3316144999117,537.3316144999117,537.3316144999117,left,0.42626519966870546,18,0,0,99,0.15999999999999992,0,left,0.3392444998025894,,,,,,,,,,,,,,,,,,,,,,,,,,,,,,,,,,,,,,,,,,,,,,,,,,,,,,,,,,,,EJLR91,train_x,blue_star,top_right,2025-02-28_16h04.27.999,HideSeek_v1,2022.2.5,59.9253091398624,
,8,5,3,5,-5,0,11,,train_dim1_1,25,30,,,,2,0,2,0,,,,,,,,,0,0,0,0,0,24,24,24,4,0,4,0,,,,,,,,,,,,,,,,,,,,,,,,,,,,,,,,,,,,,,,,,,,,,,,,,,,,,,,,,,,,,,,,30,,,,,,,,537.7638894002885,537.7638894002885,537.7638894002885,537.7638894002885,537.7638894002885,left,0.3596238000318408,18,0,0,99,0.07999999999999992,0,left,0.27038849983364344,,,,,,,,,,,,,,,,,,,,,,,,,,,,,,,,,,,,,,,,,,,,,,,,,,,,,,,,,,,,EJLR91,train_x,blue_star,top_right,2025-02-28_16h04.27.999,HideSeek_v1,2022.2.5,59.9253091398624,
,8,5,3,5,-5,0,11,,train_dim1_1,25,30,,,,2,0,2,0,,,,,,,,,0,0,0,0,0,24,24,24,5,0,5,0,,,,,,,,,,,,,,,,,,,,,,,,,,,,,,,,,,,,,,,,,,,,,,,,,,,,,,,,,,,,,,,,30,,,,,,,,538.1309893000871,538.1309893000871,538.1309893000871,538.1309893000871,538.1309893000871,return,0.39337290031835437,19,0,0,1,0.07999999999999992,0,return,0.31548589980229735,0,-65,0.07999999999999992,0,,,,,,,,,,,,,,,,,,,,,,,,,,,,,,,,,,,,,,,,,,,,,,,,,,,,,,,,EJLR91,train_x,blue_star,top_right,2025-02-28_16h04.27.999,HideSeek_v1,2022.2.5,59.9253091398624,
,6,6,6,6,0,0,61,,train_dim1_1,26,30,,,,2,0,2,0,,,,,,,,,0,0,0,0,0,25,25,25,0,0,0,0,,,,,,,,,,,,,,,,,,,,,,,,,stimuli/alien_stimuli/61.png,,,,,,,,,,,,,,,,,,,,,,,,,,,,,stimuli/alien_stimuli/11.png,11,8,27,,,,,,,30,,,,,,,,542.4563539000228,542.4563539000228,542.4563539000228,542.4563539000228,542.4563539000228,return,1.3220848999917507,20,0,0,1,0.32,0.08,return,1.2253347001969814,0,-65,0.32,0.08,540.8824840001762,542.4563539000228,0.08,0,0.0,0.4,0.0,0.08,0.27999999999999997,0.08,0,540.0951355001889,540.0951355001889,540.0951355001889,540.0951355001889,540.0951355001889,540.0951355001889,540.0951355001889,540.0951355001889,540.0819274501875,0.9028802001848817,return,0.7703041001223028,,,,,,,,,,,,,,,,,,,,,,,,,,,,,,,,,EJLR91,train_x,blue_star,top_right,2025-02-28_16h04.27.999,HideSeek_v1,2022.2.5,59.9253091398624,
,5,6,2,6,-3,0,31,,train_dim1_1,27,30,,,,2,0,2,0,,,,,,,,,0,0,0,0,0,26,26,26,0,0,0,0,,,,,,,,,,,,,,,,,,,,,,,,,stimuli/alien_stimuli/31.png,,,,,,,,,,,,,,,,,,,,,,,,,,,,,stimuli/alien_stimuli/61.png,61,6,28,,,,,,,30,,,,,,,,547.8113367999904,547.8113367999904,547.8113367999904,547.8113367999904,547.8113367999904,left,2.6413826001808047,20,0,0,99,0.15999999999999998,0.08,left,2.5531313996762037,,,,,546.253661100287,547.8113367999904,0.32,0.08,0.0,0.0,0.08,0.32,0.32,0.32,0.08,545.3249572999775,545.3249572999775,545.3249572999775,545.3249572999775,545.3249572999775,545.3249572999775,545.3249572999775,545.3249572999775,545.3029933999293,1.035953199956566,return,0.9044943996705115,,,,,,,,,,,,,,,,,,,,,,,,,,,,,,,,,EJLR91,train_x,blue_star,top_right,2025-02-28_16h04.27.999,HideSeek_v1,2022.2.5,59.9253091398624,
,5,6,2,6,-3,0,31,,train_dim1_1,27,30,,,,2,0,2,0,,,,,,,,,0,0,0,0,0,26,26,26,1,0,1,0,,,,,,,,,,,,,,,,,,,,,,,,,,,,,,,,,,,,,,,,,,,,,,,,,,,,,,,,,,,,,,,,30,,,,,,,,550.4535713000223,550.4535713000223,550.4535713000223,550.4535713000223,550.4535713000223,left,0.42638140032067895,20,0,0,99,0.07999999999999997,0.08,left,0.3445493998005986,,,,,,,,,,,,,,,,,,,,,,,,,,,,,,,,,,,,,,,,,,,,,,,,,,,,,,,,,,,,EJLR91,train_x,blue_star,top_right,2025-02-28_16h04.27.999,HideSeek_v1,2022.2.5,59.9253091398624,
,5,6,2,6,-3,0,31,,train_dim1_1,27,30,,,,2,0,2,0,,,,,,,,,0,0,0,0,0,26,26,26,2,0,2,0,,,,,,,,,,,,,,,,,,,,,,,,,,,,,,,,,,,,,,,,,,,,,,,,,,,,,,,,,,,,,,,,30,,,,,,,,550.8866563001648,550.8866563001648,550.8866563001648,550.8866563001648,550.8866563001648,left,0.11053889989852905,20,0,0,99,-2.7755575615628914e-17,0.08,left,0.03291059983894229,,,,,,,,,,,,,,,,,,,,,,,,,,,,,,,,,,,,,,,,,,,,,,,,,,,,,,,,,,,,EJLR91,train_x,blue_star,top_right,2025-02-28_16h04.27.999,HideSeek_v1,2022.2.5,59.9253091398624,
,5,6,2,6,-3,0,31,,train_dim1_1,27,30,,,,2,0,2,0,,,,,,,,,0,0,0,0,0,26,26,26,3,0,3,0,,,,,,,,,,,,,,,,,,,,,,,,,,,,,,,,,,,,,,,,,,,,,,,,,,,,,,,,,,,,,,,,30,,,,,,,,551.0046971002594,551.0046971002594,551.0046971002594,551.0046971002594,551.0046971002594,return,0.8264639996923506,21,0,0,1,-2.7755575615628914e-17,0.08,return,0.7536827996373177,0,-68,-2.7755575615628914e-17,0.08,,,,,,,,,,,,,,,,,,,,,,,,,,,,,,,,,,,,,,,,,,,,,,,,,,,,,,,,EJLR91,train_x,blue_star,top_right,2025-02-28_16h04.27.999,HideSeek_v1,2022.2.5,59.9253091398624,
,8,6,4,6,-4,0,21,,train_dim1_1,28,30,,,,2,0,2,0,,,,,,,,,0,0,0,0,0,27,27,27,0,0,0,0,,,,,,,,,,,,,,,,,,,,,,,,,stimuli/alien_stimuli/21.png,,,,,,,,,,,,,,,,,,,,,,,,,,,,,stimuli/alien_stimuli/31.png,31,5,29,,,,,,,30,,,,,,,,555.6574490000494,555.6574490000494,555.6574490000494,555.6574490000494,555.6574490000494,left,0.9555911002680659,21,0,0,99,0.39999999999999997,0.08,left,0.8530071997083724,,,,,554.0770557001233,555.6574490000494,0,0.08,0.0,0.24,0.08,0,0.12,0,0.08,553.3946712999605,553.3946712999605,553.3946712999605,553.3946712999605,553.3946712999605,553.3946712999605,553.3946712999605,553.3946712999605,553.376107700076,0.7873651999980211,return,0.6667058998718858,,,,,,,,,,,,,,,,,,,,,,,,,,,,,,,,,EJLR91,train_x,blue_star,top_right,2025-02-28_16h04.27.999,HideSeek_v1,2022.2.5,59.9253091398624,
,8,6,4,6,-4,0,21,,train_dim1_1,28,30,,,,2,0,2,0,,,,,,,,,0,0,0,0,0,27,27,27,1,0,1,0,,,,,,,,,,,,,,,,,,,,,,,,,,,,,,,,,,,,,,,,,,,,,,,,,,,,,,,,,,,,,,,,30,,,,,,,,556.5997472000308,556.5997472000308,556.5997472000308,556.5997472000308,556.5997472000308,left,0.45721290027722716,21,0,0,99,0.31999999999999995,0.08,left,0.37093299999833107,,,,,,,,,,,,,,,,,,,,,,,,,,,,,,,,,,,,,,,,,,,,,,,,,,,,,,,,,,,,EJLR91,train_x,blue_star,top_right,2025-02-28_16h04.27.999,HideSeek_v1,2022.2.5,59.9253091398624,
,8,6,4,6,-4,0,21,,train_dim1_1,28,30,,,,2,0,2,0,,,,,,,,,0,0,0,0,0,27,27,27,2,0,2,0,,,,,,,,,,,,,,,,,,,,,,,,,,,,,,,,,,,,,,,,,,,,,,,,,,,,,,,,,,,,,,,,30,,,,,,,,557.063213000074,557.063213000074,557.063213000074,557.063213000074,557.063213000074,left,0.3933291998691857,21,0,0,99,0.23999999999999994,0.08,left,0.3158807000145316,,,,,,,,,,,,,,,,,,,,,,,,,,,,,,,,,,,,,,,,,,,,,,,,,,,,,,,,,,,,EJLR91,train_x,blue_star,top_right,2025-02-28_16h04.27.999,HideSeek_v1,2022.2.5,59.9253091398624,
,8,6,4,6,-4,0,21,,train_dim1_1,28,30,,,,2,0,2,0,,,,,,,,,0,0,0,0,0,27,27,27,3,0,3,0,,,,,,,,,,,,,,,,,,,,,,,,,,,,,,,,,,,,,,,,,,,,,,,,,,,,,,,,,,,,,,,,30,,,,,,,,557.4640567000024,557.4640567000024,557.4640567000024,557.4640567000024,557.4640567000024,left,1.0439480002969503,21,0,0,99,0.15999999999999992,0.08,left,0.9537132997065783,,,,,,,,,,,,,,,,,,,,,,,,,,,,,,,,,,,,,,,,,,,,,,,,,,,,,,,,,,,,EJLR91,train_x,blue_star,top_right,2025-02-28_16h04.27.999,HideSeek_v1,2022.2.5,59.9253091398624,
,8,6,4,6,-4,0,21,,train_dim1_1,28,30,,,,2,0,2,0,,,,,,,,,0,0,0,0,0,27,27,27,4,0,4,0,,,,,,,,,,,,,,,,,,,,,,,,,,,,,,,,,,,,,,,,,,,,,,,,,,,,,,,,,,,,,,,,30,,,,,,,,558.5155318998732,558.5155318998732,558.5155318998732,558.5155318998732,558.5155318998732,return,0.5101036000996828,22,0,0,1,0.15999999999999992,0.08,return,0.4205942000262439,0,-72,0.15999999999999992,0.08,,,,,,,,,,,,,,,,,,,,,,,,,,,,,,,,,,,,,,,,,,,,,,,,,,,,,,,,EJLR91,train_x,blue_star,top_right,2025-02-28_16h04.27.999,HideSeek_v1,2022.2.5,59.9253091398624,
,9,5,8,5,-1,0,51,,train_dim1_1,29,30,,,,2,0,2,0,,,,,,,,,0,0,0,0,0,28,28,28,0,0,0,0,,,,,,,,,,,,,,,,,,,,,,,,,stimuli/alien_stimuli/51.png,,,,,,,,,,,,,,,,,,,,,,,,,,,,,stimuli/alien_stimuli/21.png,21,8,30,,,,,,,30,,,,,,,,562.5817328998819,562.5817328998819,562.5817328998819,562.5817328998819,562.5817328998819,left,1.5857021999545395,22,0,0,99,0.48000000000000004,0,left,1.4929197002202272,,,,,561.0158470002934,562.5817328998819,0.16,0.08,0.0,0.32,0.08,0.16,0.32,0.16,0.08,560.5902718002908,560.5902718002908,560.5902718002908,560.5902718002908,560.5902718002908,560.5902718002908,560.5902718002908,560.5902718002908,560.5824032498524,0.5359672997146845,return,0.40727749979123473,,,,,,,,,,,,,,,,,,,,,,,,,,,,,,,,,EJLR91,train_x,blue_star,top_right,2025-02-28_16h04.27.999,HideSeek_v1,2022.2.5,59.9253091398624,
,9,5,8,5,-1,0,51,,train_dim1_1,29,30,,,,2,0,2,0,,,,,,,,,0,0,0,0,0,28,28,28,1,0,1,0,,,,,,,,,,,,,,,,,,,,,,,,,,,,,,,,,,,,,,,,,,,,,,,,,,,,,,,,,,,,,,,,30,,,,,,,,564.1679815999232,564.1679815999232,564.1679815999232,564.1679815999232,564.1679815999232,return,0.609884100034833,23,0,0,1,0.48000000000000004,0,return,0.5189706995151937,0,-73,0.48000000000000004,0,,,,,,,,,,,,,,,,,,,,,,,,,,,,,,,,,,,,,,,,,,,,,,,,,,,,,,,,EJLR91,train_x,blue_star,top_right,2025-02-28_16h04.27.999,HideSeek_v1,2022.2.5,59.9253091398624,
,7,7,2,7,-5,0,11,,train_dim1_1,30,30,,,,2,0,2,0,,,,,,,,,0,0,0,0,0,29,29,29,0,0,0,0,,,,,,,,,,,,,,,,,,,,,,,,,stimuli/alien_stimuli/11.png,,,,,,,,,,,,,,,,,,,,,,,,,,,,,stimuli/alien_stimuli/51.png,51,9,31,,,,,,,30,,,,,,,,568.551424600184,568.551424600184,568.551424600184,568.551424600184,568.551424600184,left,1.4067362998612225,23,0,0,99,0.32,0.16,left,1.308426700066775,,,,,566.9874618998729,568.551424600184,0.48,0,0.0,0.08,0.0,0.48,0.52,0.48,0,566.3450826001354,566.3450826001354,566.3450826001354,566.3450826001354,566.3450826001354,566.3450826001354,566.3450826001354,566.3450826001354,566.3372573501431,0.7534890002571046,return,0.6271422998979688,,,,,,,,,,,,,,,,,,,,,,,,,,,,,,,,,EJLR91,train_x,blue_star,top_right,2025-02-28_16h04.27.999,HideSeek_v1,2022.2.5,59.9253091398624,
,7,7,2,7,-5,0,11,,train_dim1_1,30,30,,,,2,0,2,0,,,,,,,,,0,0,0,0,0,29,29,29,1,0,1,0,,,,,,,,,,,,,,,,,,,,,,,,,,,,,,,,,,,,,,,,,,,,,,,,,,,,,,,,,,,,,,,,30,,,,,,,,569.9571465002373,569.9571465002373,569.9571465002373,569.9571465002373,569.9571465002373,left,0.3595461999066174,23,0,0,99,0.24,0.16,left,0.27285669976845384,,,,,,,,,,,,,,,,,,,,,,,,,,,,,,,,,,,,,,,,,,,,,,,,,,,,,,,,,,,,EJLR91,train_x,blue_star,top_right,2025-02-28_16h04.27.999,HideSeek_v1,2022.2.5,59.9253091398624,
,7,7,2,7,-5,0,11,,train_dim1_1,30,30,,,,2,0,2,0,,,,,,,,,0,0,0,0,0,29,29,29,2,0,2,0,,,,,,,,,,,,,,,,,,,,,,,,,,,,,,,,,,,,,,,,,,,,,,,,,,,,,,,,,,,,,,,,30,,,,,,,,570.3257515002042,570.3257515002042,570.3257515002042,570.3257515002042,570.3257515002042,left,0.47451840015128255,23,0,0,99,0.15999999999999998,0.16,left,0.38979100016877055,,,,,,,,,,,,,,,,,,,,,,,,,,,,,,,,,,,,,,,,,,,,,,,,,,,,,,,,,,,,EJLR91,train_x,blue_star,top_right,2025-02-28_16h04.27.999,HideSeek_v1,2022.2.5,59.9253091398624,
,7,7,2,7,-5,0,11,,train_dim1_1,30,30,,,,2,0,2,0,,,,,,,,,0,0,0,0,0,29,29,29,3,0,3,0,,,,,,,,,,,,,,,,,,,,,,,,,,,,,,,,,,,,,,,,,,,,,,,,,,,,,,,,,,,,,,,,30,,,,,,,,570.8077724999748,570.8077724999748,570.8077724999748,570.8077724999748,570.8077724999748,left,0.4263664004392922,23,0,0,99,0.07999999999999997,0.16,left,0.3342411001212895,,,,,,,,,,,,,,,,,,,,,,,,,,,,,,,,,,,,,,,,,,,,,,,,,,,,,,,,,,,,EJLR91,train_x,blue_star,top_right,2025-02-28_16h04.27.999,HideSeek_v1,2022.2.5,59.9253091398624,
,7,7,2,7,-5,0,11,,train_dim1_1,30,30,,,,2,0,2,0,,,,,,,,,0,0,0,0,0,29,29,29,4,0,4,0,,,,,,,,,,,,,,,,,,,,,,,,,,,,,,,,,,,,,,,,,,,,,,,,,,,,,,,,,,,,,,,,30,,,,,,,,571.2411974002607,571.2411974002607,571.2411974002607,571.2411974002607,571.2411974002607,left,0.41035289969295263,23,0,0,99,-2.7755575615628914e-17,0.16,left,0.32051939982920885,,,,,,,,,,,,,,,,,,,,,,,,,,,,,,,,,,,,,,,,,,,,,,,,,,,,,,,,,,,,EJLR91,train_x,blue_star,top_right,2025-02-28_16h04.27.999,HideSeek_v1,2022.2.5,59.9253091398624,
,7,7,2,7,-5,0,11,,train_dim1_1,30,30,,,,2,0,2,0,,,,,,,,,0,0,0,0,0,29,29,29,5,0,5,0,,,,,,,,,,,,,,,,,,,,,,,,,,,,,,,,,,,,,,,,,,,,,,,,,,,,,,,,,,,,,,,,30,,,,,,,,571.6601837999187,571.6601837999187,571.6601837999187,571.6601837999187,571.6601837999187,return,0.4430692996829748,24,0,0,1,-2.7755575615628914e-17,0.16,return,0.35395410005003214,0,-78,-2.7755575615628914e-17,0.16,,,,,,,,,,,,,,,,,,,,,,,,,,,,,,,,,,,,,,,,,,,,,,,,,,,,,,,,EJLR91,train_x,blue_star,top_right,2025-02-28_16h04.27.999,HideSeek_v1,2022.2.5,59.9253091398624,
,,,,,,,,,,,30,,,,2,0,2,0,,,,,,,,,,,,,,,,,,,,,,,,,,,,,,,,,,,,,,,,,,,,,,,,,,,,,,,,,,,,,,,,,,,,,,,,,,stimuli/alien_stimuli/11.png,11,7,32,21,0.7,1.0,1,1,1,30,0,conditions/schedules/train_x_first/blue_star_00/top_right/inputTrain_2.1.xlsx,99,1,2,1,0,,,,,,,,,,,1,,,,,,,,,576.2952927001752,577.8380518001504,0,0.16,0.0,0.4,0.16,0,0.2,0,0.16,573.6727490001358,573.6727490001358,573.6727490001358,573.6727490001358,573.6727490001358,573.6727490001358,573.6727490001358,573.6727490001358,573.6596816501581,2.7374415998347104,return,2.6052930001169443,0,0.9,0,1,24,,,,,,,,,,,,,,,,,,,,,,,,,,,,EJLR91,train_x,blue_star,top_right,2025-02-28_16h04.27.999,HideSeek_v1,2022.2.5,59.9253091398624,
,,,,,,,,,,,,,,,3,0,3,0,0,0,0,0,,,,,,,,,,,,,,,,,,,,,,,,,,,,,,,conditions/schedules/train_x_first/blue_star_00/top_right/instructions/Slide17.png,conditions/schedules/train_x_first/blue_star_00/top_right/instructions/Audio17.wav,577.8380518001504,577.8300997500309,17,"[4.61198619985953, 10.792106300126761, 17.100429999642074, 19.801621799822897, 4.33416480012238, 4.970999099779874, 5.754568799864501, 11.807768299710006, 6.266417399980128, 7.084596399683505, 9.656585099641234, 12.803927999921143, 17.848072699736804, 13.907274399884045, 30.699745199643075, 21.75861519994214, 33.266339499969035]","[4.611999600194395, 0.15300879999995232, 17.100436799693853, 0.04730059998109937, 0.03379859961569309, 0.06616879999637604, 0.03131840005517006, 0.03016229998320341, 0.07879940001294017, 0.04817999992519617, 0.04716699989512563, 12.803934699855745, 0.014167999848723412, 13.907280500046909, 0.013536800164729357, 21.75862370012328, 33.266345999669284]",0,,,,,,,,,,,,,,,,,,,,,,,,,,,,,,,,,,,,,,,,,,,,,,,,,,,,,,,,,,,,,,,,,,,,,,,,,,,,,,,,,,,,,,,,,,,,,,,,,,,,,,,,,,,,,,,,,,,,,,,,,,,,EJLR91,train_x,blue_star,top_right,2025-02-28_16h04.27.999,HideSeek_v1,2022.2.5,59.9253091398624,
,,,,,,,,,,,,,,,3,0,3,0,1,0,1,0,,,,,,,,,,,,,,,,,,,,,,,,,,,,,,,conditions/schedules/train_x_first/blue_star_00/top_right/instructions/Slide18.png,conditions/schedules/train_x_first/blue_star_00/top_right/instructions/Audio18.wav,611.1764036002569,611.1741794501431,18,"[4.61198619985953, 10.792106300126761, 17.100429999642074, 19.801621799822897, 4.33416480012238, 4.970999099779874, 5.754568799864501, 11.807768299710006, 6.266417399980128, 7.084596399683505, 9.656585099641234, 12.803927999921143, 17.848072699736804, 13.907274399884045, 30.699745199643075, 21.75861519994214, 33.266339499969035, 7.451356999576092]","[4.611999600194395, 0.15300879999995232, 17.100436799693853, 0.04730059998109937, 0.03379859961569309, 0.06616879999637604, 0.03131840005517006, 0.03016229998320341, 0.07879940001294017, 0.04817999992519617, 0.04716699989512563, 12.803934699855745, 0.014167999848723412, 13.907280500046909, 0.013536800164729357, 21.75862370012328, 33.266345999669284, 7.45136379962787]",0,,,,,,,,,,,,,,,,,,,,,,,,,,,,,,,,,,,,,,,,,,,,,,,,,,,,,,,,,,,,,,,,,,,,,,,,,,,,,,,,,,,,,,,,,,,,,,,,,,,,,,,,,,,,,,,,,,,,,,,,,,,,EJLR91,train_x,blue_star,top_right,2025-02-28_16h04.27.999,HideSeek_v1,2022.2.5,59.9253091398624,
,,,,,,,,,,,,,,,3,0,3,0,2,0,2,0,,,,,,,,,,,,,,,,,,,,,,,,,,,,,,,conditions/schedules/train_x_first/blue_star_00/top_right/instructions/Slide19.png,conditions/schedules/train_x_first/blue_star_00/top_right/instructions/Audio19.wav,618.6844095000997,618.6804744001478,19,"[4.61198619985953, 10.792106300126761, 17.100429999642074, 19.801621799822897, 4.33416480012238, 4.970999099779874, 5.754568799864501, 11.807768299710006, 6.266417399980128, 7.084596399683505, 9.656585099641234, 12.803927999921143, 17.848072699736804, 13.907274399884045, 30.699745199643075, 21.75861519994214, 33.266339499969035, 7.451356999576092, 10.835444000083953]","[4.611999600194395, 0.15300879999995232, 17.100436799693853, 0.04730059998109937, 0.03379859961569309, 0.06616879999637604, 0.03131840005517006, 0.03016229998320341, 0.07879940001294017, 0.04817999992519617, 0.04716699989512563, 12.803934699855745, 0.014167999848723412, 13.907280500046909, 0.013536800164729357, 21.75862370012328, 33.266345999669284, 0.02996900025755167, 10.835451600141823]",0,,,,,,,,,,,,,,,,,,,,,,,,,,,,,,,,,,,,,,,,,,,,,,,,,,,,,,,,,,,,,,,,,,,,,,,,,,,,,,,,,,,,,,,,,,,,,,,,,,,,,,,,,,,,,,,,,,,,,,,,,,,,EJLR91,train_x,blue_star,top_right,2025-02-28_16h04.27.999,HideSeek_v1,2022.2.5,59.9253091398624,
,,,,,,,,,,,,,,,3,0,3,0,3,0,3,0,,,,,,,,,,,,,,,,,,,,,,,,,,,,,,,conditions/schedules/train_x_first/blue_star_00/top_right/instructions/Slide20.png,conditions/schedules/train_x_first/blue_star_00/top_right/instructions/Audio20.wav,629.58762150025,629.5894545502961,20,"[4.61198619985953, 10.792106300126761, 17.100429999642074, 19.801621799822897, 4.33416480012238, 4.970999099779874, 5.754568799864501, 11.807768299710006, 6.266417399980128, 7.084596399683505, 9.656585099641234, 12.803927999921143, 17.848072699736804, 13.907274399884045, 30.699745199643075, 21.75861519994214, 33.266339499969035, 7.451356999576092, 10.835444000083953, 14.294233200140297]","[4.611999600194395, 0.15300879999995232, 17.100436799693853, 0.04730059998109937, 0.03379859961569309, 0.06616879999637604, 0.03131840005517006, 0.03016229998320341, 0.07879940001294017, 0.04817999992519617, 0.04716699989512563, 12.803934699855745, 0.014167999848723412, 13.907280500046909, 0.013536800164729357, 21.75862370012328, 33.266345999669284, 0.02996900025755167, 0.09891820000484586, 14.294240099843591]",0,,,,,,,,,,,,,,,,,,,,,,,,,,,,,,,,,,,,,,,,,,,,,,,,,,,,,,,,,,,,,,,,,,,,,,,,,,,,,,,,,,,,,,,,,,,,,,,,,,,,,,,,,,,,,,,,,,,,,,,,,,,,EJLR91,train_x,blue_star,top_right,2025-02-28_16h04.27.999,HideSeek_v1,2022.2.5,59.9253091398624,
1,5,8,5,3,0,-5,66,2,instr_dim1_2,,,,,,3,0,3,0,,,,,0,0,0,0,,,,,,,,,,,,,,,,,,,,,,,,,,,,,,,,,,,,,stimuli/alien_stimuli/66.png,conditions/schedules/train_x_first/blue_star_00/top_right/inputInstr_2.xlsx,stimuli/alien_stimuli/66.png,643.9792170999572,643.9792170999572,643.9792170999572,643.9792170999572,643.9846849500202,return,6.158796699717641,"[-0.16, -0.08, 0, 0.08, 0.16, 0.24, 0.32, 0.4, 0.48, 0.56]","[-0.4, -0.32, -0.24, -0.16, -0.08, 0, 0.08, 0.16, 0.24, 0.32]",3,8,5,5,0.4,0.0,650.2778572998941,650.2778572998941,650.2778572998941,650.2778572998941,650.2778572998941,650.2778572998941,650.2778572998941,650.2734852002003,6.773032799828798,return,6.634049899876118,stimuli/alien_stimuli/66.png,66,5,1,,,,,,,,,,,,,,,,,,,,,,,,,,,,,,,,,,,,,,,,,,,,,,,,,,,,,,,,,,,,,,,,,,,,,,,,,,,,,,,,,,,,,,,,,EJLR91,train_x,blue_star,top_right,2025-02-28_16h04.27.999,HideSeek_v1,2022.2.5,59.9253091398624,
,,,,,,,,,,,30,,,,3,0,3,0,,,,,,,,,,,,,,,,,,,,,,,,,,,,,,,,,,,,,,,,,,,,,,,,,,,,,,,,,,,,,,,,,,,,,,,,,,,,,,21,0.7,1.0,1,99,2,30,0,conditions/schedules/train_x_first/blue_star_00/top_right/inputTrain_2.1.xlsx,99,1,2,1,0,,,,,,,,,,,,,,,,,,,,,,,,,,,,,,,,,,,,,,,,,,,,,,,,,,,,,,,,,,,,,,,,,,,,,,,,,,,EJLR91,train_x,blue_star,top_right,2025-02-28_16h04.27.999,HideSeek_v1,2022.2.5,59.9253091398624,
,,,,,,,,,,,,,,,4,0,4,0,0,0,0,0,,,,,,,,,,,,,,,,,,,,,,,,,,,,,,,conditions/schedules/train_x_first/blue_star_00/top_right/instructions/Slide21.png,conditions/schedules/train_x_first/blue_star_00/top_right/instructions/Audio21.wav,657.0789223001339,657.0789944999851,21,"[4.61198619985953, 10.792106300126761, 17.100429999642074, 19.801621799822897, 4.33416480012238, 4.970999099779874, 5.754568799864501, 11.807768299710006, 6.266417399980128, 7.084596399683505, 9.656585099641234, 12.803927999921143, 17.848072699736804, 13.907274399884045, 30.699745199643075, 21.75861519994214, 33.266339499969035, 7.451356999576092, 10.835444000083953, 14.294233200140297, 18.963526900392026]","[4.611999600194395, 0.15300879999995232, 17.100436799693853, 0.04730059998109937, 0.03379859961569309, 0.06616879999637604, 0.03131840005517006, 0.03016229998320341, 0.07879940001294017, 0.04817999992519617, 0.04716699989512563, 12.803934699855745, 0.014167999848723412, 13.907280500046909, 0.013536800164729357, 21.75862370012328, 33.266345999669284, 0.02996900025755167, 0.09891820000484586, 14.294240099843591, 18.963533900212497]",0,,,,,,,,,,,,,,,,,,,,,,,,,,,,,,,,,,,,,,,,,,,,,,,,,,,,,,,,,,,,,,,,,,,,,,,,,,,,,,,,,,,,,,,,,,,,,,,,,,,,,,,,,,,,,,,,,,,,,,,,,,,,EJLR91,train_x,blue_star,top_right,2025-02-28_16h04.27.999,HideSeek_v1,2022.2.5,59.9253091398624,
2,7,8,7,8,0,0,61,2,instr_dim1_2,,,,,,4,0,4,0,,,,,0,0,0,0,,,,,,,,,,,,,,,,,,,,,,,,,,,,,,,,,,,,,stimuli/alien_stimuli/61.png,conditions/schedules/train_x_first/blue_star_00/top_right/inputInstr_2.xlsx,stimuli/alien_stimuli/61.png,676.1400369000621,676.1400369000621,676.1400369000621,676.1400369000621,676.1447518498637,return,5.331702499650419,"[-0.16, -0.08, 0, 0.08, 0.16, 0.24, 0.32, 0.4, 0.48, 0.56]","[-0.4, -0.32, -0.24, -0.16, -0.08, 0, 0.08, 0.16, 0.24, 0.32]",8,8,7,7,0.0,0.0,681.6207222999074,681.6207222999074,681.6207222999074,681.6207222999074,681.6207222999074,681.6207222999074,681.6207222999074,681.6160560000689,7.874106900300831,return,7.723803500179201,stimuli/alien_stimuli/61.png,61,7,2,,,,,,,,,,,,,,,,,,,,,,,,,,,,,,,,,,,,,,,,,,,,,,,,,,,,,,,,,,,,,,,,,,,,,,,,,,,,,,,,,,,,,,,,,EJLR91,train_x,blue_star,top_right,2025-02-28_16h04.27.999,HideSeek_v1,2022.2.5,59.9253091398624,
,,,,,,,,,,,30,,,,4,0,4,0,,,,,,,,,,,,,,,,,,,,,,,,,,,,,,,,,,,,,,,,,,,,,,,,,,,,,,,,,,,,,,,,,,,,,,,,,,,,,,21,0.7,1.0,1,99,2,30,0,conditions/schedules/train_x_first/blue_star_00/top_right/inputTrain_2.1.xlsx,99,1,2,1,0,,,,,,,,,,,,,,,,,,,,,,,,,,,,,,,,,,,,,,,,,,,,,,,,,,,,,,,,,,,,,,,,,,,,,,,,,,,EJLR91,train_x,blue_star,top_right,2025-02-28_16h04.27.999,HideSeek_v1,2022.2.5,59.9253091398624,
,,,,,,,,,,,,,,,5,0,5,0,0,0,0,0,,,,,,,,,,,,,,,,,,,,,,,,,,,,,,,conditions/schedules/train_x_first/blue_star_00/top_right/instructions/Slide22.png,conditions/schedules/train_x_first/blue_star_00/top_right/instructions/Audio22.wav,689.5287675000727,689.522614300251,22,"[4.61198619985953, 10.792106300126761, 17.100429999642074, 19.801621799822897, 4.33416480012238, 4.970999099779874, 5.754568799864501, 11.807768299710006, 6.266417399980128, 7.084596399683505, 9.656585099641234, 12.803927999921143, 17.848072699736804, 13.907274399884045, 30.699745199643075, 21.75861519994214, 33.266339499969035, 7.451356999576092, 10.835444000083953, 14.294233200140297, 18.963526900392026, 42.726927200332284]","[4.611999600194395, 0.15300879999995232, 17.100436799693853, 0.04730059998109937, 0.03379859961569309, 0.06616879999637604, 0.03131840005517006, 0.03016229998320341, 0.07879940001294017, 0.04817999992519617, 0.04716699989512563, 12.803934699855745, 0.014167999848723412, 13.907280500046909, 0.013536800164729357, 21.75862370012328, 33.266345999669284, 0.02996900025755167, 0.09891820000484586, 14.294240099843591, 18.963533900212497, 42.726935000158846]",0,,,,,,,,,,,,,,,,,,,,,,,,,,,,,,,,,,,,,,,,,,,,,,,,,,,,,,,,,,,,,,,,,,,,,,,,,,,,,,,,,,,,,,,,,,,,,,,,,,,,,,,,,,,,,,,,,,,,,,,,,,,,EJLR91,train_x,blue_star,top_right,2025-02-28_16h04.27.999,HideSeek_v1,2022.2.5,59.9253091398624,
,5,5,5,1,0,-4,65,,train_dim1_2,1,30,,,,5,0,5,0,,,,,,,,,0,0,0,0,0,0,0,0,0,0,0,0,,,,,,,,,,,,,,,,,,,,,,,,,stimuli/alien_stimuli/65.png,,,,,,,,,,,,,,,,,,,,,,,,,,,,,,,,,,,,,,,30,,,,,,,,732.3615969000384,732.3615969000384,732.3615969000384,732.3615969000384,732.3615969000384,down,1.8628836004063487,0,0,0,99,0.24,-0.08,down,1.7518770997412503,,,,,,,,,,,,,,,,,,,,,,,,,,,,,,,,,,,,,,,,,,,,,,,,,,,,,,,,,,,,EJLR91,train_x,blue_star,top_right,2025-02-28_16h04.27.999,HideSeek_v1,2022.2.5,59.9253091398624,
,5,5,5,1,0,-4,65,,train_dim1_2,1,30,,,,5,0,5,0,,,,,,,,,0,0,0,0,0,0,0,0,1,0,1,0,,,,,,,,,,,,,,,,,,,,,,,,,,,,,,,,,,,,,,,,,,,,,,,,,,,,,,,,,,,,,,,,30,,,,,,,,734.2066764999181,734.2066764999181,734.2066764999181,734.2066764999181,734.2066764999181,down,0.37640490010380745,0,0,0,99,0.24,-0.16,down,0.2961706998758018,,,,,,,,,,,,,,,,,,,,,,,,,,,,,,,,,,,,,,,,,,,,,,,,,,,,,,,,,,,,EJLR91,train_x,blue_star,top_right,2025-02-28_16h04.27.999,HideSeek_v1,2022.2.5,59.9253091398624,
,5,5,5,1,0,-4,65,,train_dim1_2,1,30,,,,5,0,5,0,,,,,,,,,0,0,0,0,0,0,0,0,2,0,2,0,,,,,,,,,,,,,,,,,,,,,,,,,,,,,,,,,,,,,,,,,,,,,,,,,,,,,,,,,,,,,,,,30,,,,,,,,734.588985899929,734.588985899929,734.588985899929,734.588985899929,734.588985899929,down,0.810489300172776,0,0,0,99,0.24,-0.24,down,0.7310836995020509,,,,,,,,,,,,,,,,,,,,,,,,,,,,,,,,,,,,,,,,,,,,,,,,,,,,,,,,,,,,EJLR91,train_x,blue_star,top_right,2025-02-28_16h04.27.999,HideSeek_v1,2022.2.5,59.9253091398624,
,5,5,5,1,0,-4,65,,train_dim1_2,1,30,,,,5,0,5,0,,,,,,,,,0,0,0,0,0,0,0,0,3,0,3,0,,,,,,,,,,,,,,,,,,,,,,,,,,,,,,,,,,,,,,,,,,,,,,,,,,,,,,,,,,,,,,,,30,,,,,,,,735.4065312002786,735.4065312002786,735.4065312002786,735.4065312002786,735.4065312002786,down,0.5930035999044776,0,0,0,99,0.24,-0.32,down,0.5186717002652586,,,,,,,,,,,,,,,,,,,,,,,,,,,,,,,,,,,,,,,,,,,,,,,,,,,,,,,,,,,,EJLR91,train_x,blue_star,top_right,2025-02-28_16h04.27.999,HideSeek_v1,2022.2.5,59.9253091398624,
,5,5,5,1,0,-4,65,,train_dim1_2,1,30,,,,5,0,5,0,,,,,,,,,0,0,0,0,0,0,0,0,4,0,4,0,,,,,,,,,,,,,,,,,,,,,,,,,,,,,,,,,,,,,,,,,,,,,,,,,,,,,,,,,,,,,,,,30,,,,,,,,736.0063888998702,736.0063888998702,736.0063888998702,736.0063888998702,736.0063888998702,down,0.49377600010484457,0,0,0,99,0.24,-0.4,down,0.4164697998203337,,,,,,,,,,,,,,,,,,,,,,,,,,,,,,,,,,,,,,,,,,,,,,,,,,,,,,,,,,,,EJLR91,train_x,blue_star,top_right,2025-02-28_16h04.27.999,HideSeek_v1,2022.2.5,59.9253091398624,
,5,5,5,1,0,-4,65,,train_dim1_2,1,30,,,,5,0,5,0,,,,,,,,,0,0,0,0,0,0,0,0,5,0,5,0,,,,,,,,,,,,,,,,,,,,,,,,,,,,,,,,,,,,,,,,,,,,,,,,,,,,,,,,,,,,,,,,30,,,,,,,,736.5105314003304,736.5105314003304,736.5105314003304,736.5105314003304,736.5105314003304,return,0.5920204999856651,0,1,0,0,0.24,-0.4,return,0.5077860997989774,-5,-78,0.24,-0.4,,,,,,,,,,,,,,,,,,,,,,,,,,,,,,,,,,,,,,,,,,,,,,,,,,,,,,,,EJLR91,train_x,blue_star,top_right,2025-02-28_16h04.27.999,HideSeek_v1,2022.2.5,59.9253091398624,
,8,7,8,2,0,-5,66,,train_dim1_2,2,30,,,,5,0,5,0,,,,,,,,,0,0,0,0,0,1,1,1,0,0,0,0,,,,,,,,,,,,,,,,,,,,,,,,,stimuli/alien_stimuli/66.png,,,,,,,,,,,,,,,,,,,,,,,,,,,,,stimuli/alien_stimuli/65.png,65,5,3,,,,,,,30,,,,,,,,743.5356070999987,743.5356070999987,743.5356070999987,743.5356070999987,743.5356070999987,down,1.5889416001737118,0,1,0,99,0.48,0.08,down,1.5013876999728382,,,,,741.9825921999291,743.5356070999987,0.24,-0.32,0.32,0.0,-0.16,0.24,0.24,0.24,-0.32,738.6796395001002,738.6796395001002,738.6796395001002,738.6796395001002,738.6796395001002,738.6796395001002,738.6796395001002,738.6796395001002,738.6633248499595,3.4218512000516057,return,3.2774085998535156,,,,,,,,,,,,,,,,,,,,,,,,,,,,,,,,,EJLR91,train_x,blue_star,top_right,2025-02-28_16h04.27.999,HideSeek_v1,2022.2.5,59.9253091398624,
,8,7,8,2,0,-5,66,,train_dim1_2,2,30,,,,5,0,5,0,,,,,,,,,0,0,0,0,0,1,1,1,1,0,1,0,,,,,,,,,,,,,,,,,,,,,,,,,,,,,,,,,,,,,,,,,,,,,,,,,,,,,,,,,,,,,,,,30,,,,,,,,745.1335415001959,745.1335415001959,745.1335415001959,745.1335415001959,745.1335415001959,down,0.37540580006316304,0,1,0,99,0.48,0.0,down,0.29217089945450425,,,,,,,,,,,,,,,,,,,,,,,,,,,,,,,,,,,,,,,,,,,,,,,,,,,,,,,,,,,,EJLR91,train_x,blue_star,top_right,2025-02-28_16h04.27.999,HideSeek_v1,2022.2.5,59.9253091398624,
,8,7,8,2,0,-5,66,,train_dim1_2,2,30,,,,5,0,5,0,,,,,,,,,0,0,0,0,0,1,1,1,2,0,2,0,,,,,,,,,,,,,,,,,,,,,,,,,,,,,,,,,,,,,,,,,,,,,,,,,,,,,,,,,,,,,,,,30,,,,,,,,745.515148000326,745.515148000326,745.515148000326,745.515148000326,745.515148000326,down,0.3435047003440559,0,1,0,99,0.48,-0.08,down,0.2594317998737097,,,,,,,,,,,,,,,,,,,,,,,,,,,,,,,,,,,,,,,,,,,,,,,,,,,,,,,,,,,,EJLR91,train_x,blue_star,top_right,2025-02-28_16h04.27.999,HideSeek_v1,2022.2.5,59.9253091398624,
,8,7,8,2,0,-5,66,,train_dim1_2,2,30,,,,5,0,5,0,,,,,,,,,0,0,0,0,0,1,1,1,3,0,3,0,,,,,,,,,,,,,,,,,,,,,,,,,,,,,,,,,,,,,,,,,,,,,,,,,,,,,,,,,,,,,,,,30,,,,,,,,745.8648804002441,745.8648804002441,745.8648804002441,745.8648804002441,745.8648804002441,down,0.34376349998638034,0,1,0,99,0.48,-0.16,down,0.27091840002685785,,,,,,,,,,,,,,,,,,,,,,,,,,,,,,,,,,,,,,,,,,,,,,,,,,,,,,,,,,,,EJLR91,train_x,blue_star,top_right,2025-02-28_16h04.27.999,HideSeek_v1,2022.2.5,59.9253091398624,
,8,7,8,2,0,-5,66,,train_dim1_2,2,30,,,,5,0,5,0,,,,,,,,,0,0,0,0,0,1,1,1,4,0,4,0,,,,,,,,,,,,,,,,,,,,,,,,,,,,,,,,,,,,,,,,,,,,,,,,,,,,,,,,,,,,,,,,30,,,,,,,,746.216116100084,746.216116100084,746.216116100084,746.216116100084,746.216116100084,down,0.426101699937135,0,1,0,99,0.48,-0.24,down,0.34472239995375276,,,,,,,,,,,,,,,,,,,,,,,,,,,,,,,,,,,,,,,,,,,,,,,,,,,,,,,,,,,,EJLR91,train_x,blue_star,top_right,2025-02-28_16h04.27.999,HideSeek_v1,2022.2.5,59.9253091398624,
,8,7,8,2,0,-5,66,,train_dim1_2,2,30,,,,5,0,5,0,,,,,,,,,0,0,0,0,0,1,1,1,5,0,5,0,,,,,,,,,,,,,,,,,,,,,,,,,,,,,,,,,,,,,,,,,,,,,,,,,,,,,,,,,,,,,,,,30,,,,,,,,746.6497754999436,746.6497754999436,746.6497754999436,746.6497754999436,746.6497754999436,return,0.5769402999430895,1,0,0,1,0.48,-0.24,return,0.49576530000194907,-10,-78,0.48,-0.24,,,,,,,,,,,,,,,,,,,,,,,,,,,,,,,,,,,,,,,,,,,,,,,,,,,,,,,,EJLR91,train_x,blue_star,top_right,2025-02-28_16h04.27.999,HideSeek_v1,2022.2.5,59.9253091398624,
,7,8,7,5,0,-3,64,,train_dim1_2,3,30,,,,5,0,5,0,,,,,,,,,0,0,0,0,0,2,2,2,0,0,0,0,,,,,,,,,,,,,,,,,,,,,,,,,stimuli/alien_stimuli/64.png,,,,,,,,,,,,,,,,,,,,,,,,,,,,,stimuli/alien_stimuli/66.png,66,8,4,,,,,,,30,,,,,,,,751.3773280000314,751.3773280000314,751.3773280000314,751.3773280000314,751.3773280000314,down,6.525395699776709,1,0,0,99,0.4,0.15999999999999998,down,6.449375399854034,,,,,749.8226322000846,751.3773280000314,0.48,-0.24,0.4,0.0,-0.039999999999999994,0.48,0.48,0.48,-0.24,748.7817557002418,748.7817557002418,748.7817557002418,748.7817557002418,748.7817557002418,748.7817557002418,748.7817557002418,748.7817557002418,748.7718578999862,1.1364108002744615,return,1.0200243997387588,,,,,,,,,,,,,,,,,,,,,,,,,,,,,,,,,EJLR91,train_x,blue_star,top_right,2025-02-28_16h04.27.999,HideSeek_v1,2022.2.5,59.9253091398624,
,7,8,7,5,0,-3,64,,train_dim1_2,3,30,,,,5,0,5,0,,,,,,,,,0,0,0,0,0,2,2,2,1,0,1,0,,,,,,,,,,,,,,,,,,,,,,,,,,,,,,,,,,,,,,,,,,,,,,,,,,,,,,,,,,,,,,,,30,,,,,,,,757.9098364003003,757.9098364003003,757.9098364003003,757.9098364003003,757.9098364003003,return,2.0099105001427233,1,0,0,0,0.4,0.15999999999999998,return,1.9295743997208774,-11,-78,0.4,0.15999999999999998,,,,,,,,,,,,,,,,,,,,,,,,,,,,,,,,,,,,,,,,,,,,,,,,,,,,,,,,EJLR91,train_x,blue_star,top_right,2025-02-28_16h04.27.999,HideSeek_v1,2022.2.5,59.9253091398624,
