trialInstr,x_fixStart,y_fixStart,x_corrSteps,y_corrSteps,x_nrSteps,y_nrSteps,alienID,trialLength,version,trialTrain,praclen,testlen,trial_label,break_on_off,beforeExpLoop.thisRepN,beforeExpLoop.thisTrialN,beforeExpLoop.thisN,beforeExpLoop.thisIndex,mini_instr_trials.thisRepN,mini_instr_trials.thisTrialN,mini_instr_trials.thisN,mini_instr_trials.thisIndex,instrLoop.thisRepN,instrLoop.thisTrialN,instrLoop.thisN,instrLoop.thisIndex,repeat_prac.thisRepN,repeat_prac.thisTrialN,repeat_prac.thisN,repeat_prac.thisIndex,trainLoop.thisRepN,trainLoop.thisTrialN,trainLoop.thisN,trainLoop.thisIndex,moveLoop_train.thisRepN,moveLoop_train.thisTrialN,moveLoop_train.thisN,moveLoop_train.thisIndex,experiment.thisRepN,experiment.thisTrialN,experiment.thisN,experiment.thisIndex,moveLoop_test.thisRepN,moveLoop_test.thisTrialN,moveLoop_test.thisN,moveLoop_test.thisIndex,mini_instr2_trials.thisRepN,mini_instr2_trials.thisTrialN,mini_instr2_trials.thisN,mini_instr2_trials.thisIndex,start_all_time,url,slideStim,audioStim,slides.started,sounds.started,nextButton.numClicks,nextButton.timesOn,nextButton.timesOff,prev_but.numClicks,prev_but.timesOn,prev_but.timesOff,alienStim,instrFile,alienStim_instr,gridImage_instr.started,startPos_3.started,key_instr.started,alienImage_3.started,sounds_1.started,key_instr.keys,key_instr.rt,all_x,all_y,FBy_corrSteps,FBy_fixStart,FBx_corrSteps,FBx_fixStart,FBy_pathSize_check,FBx_pathSize_check,gridImage_9.started,alienImageFB_3.started,startPosFB_3.started,keyFB_3.started,pathLine_ydir_2.started,pathLine_xdir_2.started,alienFace_3.started,sounds_2.started,RTFB_instr,keyFB_3.keys,keyFB_3.rt,draw_alienStim,draw_alienID,test_x,nrepcount,perfthres,percthres,earlierperf,earlystop,nextPrac,fileidx,praclen,saveACC_train,pracFile,nextPrac_train,addNrep,fileidx_endr,repExp,showearly,gridImage_4.started,startPos.started,movePos.started,key_resp.started,alienImage.started,buttonPress_train,RTchoice_train,cumAcctrain,aCorr,saveACC_choice,corrAns,x_movePos_end,y_movePos_end,key_resp.keys,key_resp.rt,wLy_dir,wLx_dir,x_movePos,y_movePos,text_2.started,text_2.stopped,aft_x_corrPos,aft_y_corrPos,y_pathSize_check,x_pathSize_check,y_pathdirY,x_pathdirY,x_pathdirX,x_corrPos,y_corrPos,gridImage_6.started,alienImageFB_2.started,startPosFB_2.started,movePosFB_2.started,keyFB_2.started,pathLine_xdir.started,pathLine_ydir.started,alienFace.started,sounds_4.started,RT_FBtrain,keyFB_2.keys,keyFB_2.rt,saveACC_pre,ACC,within_saveACC_train,earlystop_wloop,cumAcctrain_check,gridImage_3.started,alienImage_test.started,startPos_test.started,movePos_test.started,key_resp_test.started,wLy_dir_test,wLx_dir_test,buttonPress_test,RTchoice_test,cumAcctest,corrAns_test,key_resp_test.keys,key_resp_test.rt,text_3.started,text_3.stopped,total_time,end_all_time,key_resp_3.keys,slides_2.started,sounds_3.started,nextButton_2.numClicks,nextButton_2.timesOn,nextButton_2.timesOff,prev_but_2.numClicks,prev_but_2.timesOn,prev_but_2.timesOff,bye.started,participant,train_first,00_coordinate,starting corner,date,expName,psychopyVersion,frameRate,
,,,,,,,,,,,,,,,0,0,0,0,0,0,0,0,,,,,,,,,,,,,,,,,,,,,,,,,,,,,start_all_time,testround,conditions/schedules/train_x_first/red_square_00/bottom_right/instructions/Slide1.png,conditions/schedules/train_x_first/red_square_00/bottom_right/instructions/Audio1.wav,335.3271137000993,335.2790195995476,1,[5.2518617999739945],[5.251873800065368],0,,,,,,,,,,,,,,,,,,,,,,,,,,,,,,,,,,,,,,,,,,,,,,,,,,,,,,,,,,,,,,,,,,,,,,,,,,,,,,,,,,,,,,,,,,,,,,,,,,,,,,,,,,,,,,,,,,,,,,,,,,,,EP67HC,train_x,red_square,bottom_right,2025-02-27_15h44.12.996,HideSeek_v1,2022.2.5,60.35276178237859,
,,,,,,,,,,,,,,,0,0,0,0,1,0,1,0,,,,,,,,,,,,,,,,,,,,,,,,,,,,,,,conditions/schedules/train_x_first/red_square_00/bottom_right/instructions/Slide2.png,conditions/schedules/train_x_first/red_square_00/bottom_right/instructions/Audio2.wav,340.5966460001655,340.5983375001233,2,"[5.2518617999739945, 11.25884519983083]","[0.00030530011281371117, 11.25885169999674]",0,,,,,,,,,,,,,,,,,,,,,,,,,,,,,,,,,,,,,,,,,,,,,,,,,,,,,,,,,,,,,,,,,,,,,,,,,,,,,,,,,,,,,,,,,,,,,,,,,,,,,,,,,,,,,,,,,,,,,,,,,,,,EP67HC,train_x,red_square,bottom_right,2025-02-27_15h44.12.996,HideSeek_v1,2022.2.5,60.35276178237859,
,,,,,,,,,,,,,,,0,0,0,0,2,0,2,0,,,,,,,,,,,,,,,,,,,,,,,,,,,,,,,conditions/schedules/train_x_first/red_square_00/bottom_right/instructions/Slide3.png,conditions/schedules/train_x_first/red_square_00/bottom_right/instructions/Audio3.wav,351.930257699918,351.9245304001961,2,"[5.2518617999739945, 11.25884519983083]","[0.00030530011281371117, 0.5081917000934482]",1,[1.726240400224924],[1.7262477003969252],,,,,,,,,,,,,,,,,,,,,,,,,,,,,,,,,,,,,,,,,,,,,,,,,,,,,,,,,,,,,,,,,,,,,,,,,,,,,,,,,,,,,,,,,,,,,,,,,,,,,,,,,,,,,,,,,,,,,,,,,,EP67HC,train_x,red_square,bottom_right,2025-02-27_15h44.12.996,HideSeek_v1,2022.2.5,60.35276178237859,
,,,,,,,,,,,,,,,0,0,0,0,3,0,3,0,,,,,,,,,,,,,,,,,,,,,,,,,,,,,,,conditions/schedules/train_x_first/red_square_00/bottom_right/instructions/Slide2.png,conditions/schedules/train_x_first/red_square_00/bottom_right/instructions/Audio2.wav,353.7177876997739,353.7093378202058,3,"[5.2518617999739945, 11.25884519983083, 18.087645399849862]","[0.00030530011281371117, 0.5081917000934482, 18.087652300018817]",1,[1.726240400224924],[0.00011069979518651962],,,,,,,,,,,,,,,,,,,,,,,,,,,,,,,,,,,,,,,,,,,,,,,,,,,,,,,,,,,,,,,,,,,,,,,,,,,,,,,,,,,,,,,,,,,,,,,,,,,,,,,,,,,,,,,,,,,,,,,,,,EP67HC,train_x,red_square,bottom_right,2025-02-27_15h44.12.996,HideSeek_v1,2022.2.5,60.35276178237859,
,,,,,,,,,,,,,,,0,0,0,0,4,0,4,0,,,,,,,,,,,,,,,,,,,,,,,,,,,,,,,conditions/schedules/train_x_first/red_square_00/bottom_right/instructions/Slide3.png,conditions/schedules/train_x_first/red_square_00/bottom_right/instructions/Audio3.wav,371.87898480007425,371.87442400003783,4,"[5.2518617999739945, 11.25884519983083, 18.087645399849862, 17.02404440008104]","[0.00030530011281371117, 0.5081917000934482, 0.031176299788057804, 17.02405139990151]",1,[1.726240400224924],[0.00011069979518651962],,,,,,,,,,,,,,,,,,,,,,,,,,,,,,,,,,,,,,,,,,,,,,,,,,,,,,,,,,,,,,,,,,,,,,,,,,,,,,,,,,,,,,,,,,,,,,,,,,,,,,,,,,,,,,,,,,,,,,,,,,EP67HC,train_x,red_square,bottom_right,2025-02-27_15h44.12.996,HideSeek_v1,2022.2.5,60.35276178237859,
,,,,,,,,,,,,,,,0,0,0,0,5,0,5,0,,,,,,,,,,,,,,,,,,,,,,,,,,,,,,,conditions/schedules/train_x_first/red_square_00/bottom_right/instructions/Slide4.png,conditions/schedules/train_x_first/red_square_00/bottom_right/instructions/Audio4.wav,388.9836003999226,388.97199019999243,5,"[5.2518617999739945, 11.25884519983083, 18.087645399849862, 17.02404440008104, 19.585535599850118]","[0.00030530011281371117, 0.5081917000934482, 0.031176299788057804, 0.014425300061702728, 19.58554319990799]",1,[1.726240400224924],[0.00011069979518651962],,,,,,,,,,,,,,,,,,,,,,,,,,,,,,,,,,,,,,,,,,,,,,,,,,,,,,,,,,,,,,,,,,,,,,,,,,,,,,,,,,,,,,,,,,,,,,,,,,,,,,,,,,,,,,,,,,,,,,,,,,EP67HC,train_x,red_square,bottom_right,2025-02-27_15h44.12.996,HideSeek_v1,2022.2.5,60.35276178237859,
,,,,,,,,,,,,,,,0,0,0,0,6,0,6,0,,,,,,,,,,,,,,,,,,,,,,,,,,,,,,,conditions/schedules/train_x_first/red_square_00/bottom_right/instructions/Slide5.png,conditions/schedules/train_x_first/red_square_00/bottom_right/instructions/Audio5.wav,408.63885099999607,408.6379858001601,6,"[5.2518617999739945, 11.25884519983083, 18.087645399849862, 17.02404440008104, 19.585535599850118, 4.90135549986735]","[0.00030530011281371117, 0.5081917000934482, 0.031176299788057804, 0.014425300061702728, 0.0307090999558568, 4.901362299919128]",1,[1.726240400224924],[0.00011069979518651962],,,,,,,,,,,,,,,,,,,,,,,,,,,,,,,,,,,,,,,,,,,,,,,,,,,,,,,,,,,,,,,,,,,,,,,,,,,,,,,,,,,,,,,,,,,,,,,,,,,,,,,,,,,,,,,,,,,,,,,,,,EP67HC,train_x,red_square,bottom_right,2025-02-27_15h44.12.996,HideSeek_v1,2022.2.5,60.35276178237859,
,,,,,,,,,,,,,,,0,0,0,0,7,0,7,0,,,,,,,,,,,,,,,,,,,,,,,,,,,,,,,conditions/schedules/train_x_first/red_square_00/bottom_right/instructions/Slide6.png,conditions/schedules/train_x_first/red_square_00/bottom_right/instructions/Audio6.wav,413.5899360999465,413.5923246200196,7,"[5.2518617999739945, 11.25884519983083, 18.087645399849862, 17.02404440008104, 19.585535599850118, 4.90135549986735, 4.953768499661237]","[0.00030530011281371117, 0.5081917000934482, 0.031176299788057804, 0.014425300061702728, 0.0307090999558568, 0.04963359981775284, 4.953775499947369]",1,[1.726240400224924],[0.00011069979518651962],,,,,,,,,,,,,,,,,,,,,,,,,,,,,,,,,,,,,,,,,,,,,,,,,,,,,,,,,,,,,,,,,,,,,,,,,,,,,,,,,,,,,,,,,,,,,,,,,,,,,,,,,,,,,,,,,,,,,,,,,,EP67HC,train_x,red_square,bottom_right,2025-02-27_15h44.12.996,HideSeek_v1,2022.2.5,60.35276178237859,
,,,,,,,,,,,,,,,0,0,0,0,8,0,8,0,,,,,,,,,,,,,,,,,,,,,,,,,,,,,,,conditions/schedules/train_x_first/red_square_00/bottom_right/instructions/Slide7.png,conditions/schedules/train_x_first/red_square_00/bottom_right/instructions/Audio7.wav,418.5947456997819,418.5962475202046,8,"[5.2518617999739945, 11.25884519983083, 18.087645399849862, 17.02404440008104, 19.585535599850118, 4.90135549986735, 4.953768499661237, 5.453644799999893]","[0.00030530011281371117, 0.5081917000934482, 0.031176299788057804, 0.014425300061702728, 0.0307090999558568, 0.04963359981775284, 0.04880429990589619, 5.4536517998203635]",1,[1.726240400224924],[0.00011069979518651962],,,,,,,,,,,,,,,,,,,,,,,,,,,,,,,,,,,,,,,,,,,,,,,,,,,,,,,,,,,,,,,,,,,,,,,,,,,,,,,,,,,,,,,,,,,,,,,,,,,,,,,,,,,,,,,,,,,,,,,,,,EP67HC,train_x,red_square,bottom_right,2025-02-27_15h44.12.996,HideSeek_v1,2022.2.5,60.35276178237859,
,,,,,,,,,,,,,,,0,0,0,0,9,0,9,0,,,,,,,,,,,,,,,,,,,,,,,,,,,,,,,conditions/schedules/train_x_first/red_square_00/bottom_right/instructions/Slide8.png,conditions/schedules/train_x_first/red_square_00/bottom_right/instructions/Audio8.wav,424.1005549998954,424.10092731975016,9,"[5.2518617999739945, 11.25884519983083, 18.087645399849862, 17.02404440008104, 19.585535599850118, 4.90135549986735, 4.953768499661237, 5.453644799999893, 11.60717420000583]","[0.00030530011281371117, 0.5081917000934482, 0.031176299788057804, 0.014425300061702728, 0.0307090999558568, 0.04963359981775284, 0.04880429990589619, 0.08070500008761883, 11.607181400060654]",1,[1.726240400224924],[0.00011069979518651962],,,,,,,,,,,,,,,,,,,,,,,,,,,,,,,,,,,,,,,,,,,,,,,,,,,,,,,,,,,,,,,,,,,,,,,,,,,,,,,,,,,,,,,,,,,,,,,,,,,,,,,,,,,,,,,,,,,,,,,,,,EP67HC,train_x,red_square,bottom_right,2025-02-27_15h44.12.996,HideSeek_v1,2022.2.5,60.35276178237859,
,,,,,,,,,,,,,,,0,0,0,0,10,0,10,0,,,,,,,,,,,,,,,,,,,,,,,,,,,,,,,conditions/schedules/train_x_first/red_square_00/bottom_right/instructions/Slide9.png,conditions/schedules/train_x_first/red_square_00/bottom_right/instructions/Audio9.wav,435.77385440003127,435.77715580002405,10,"[5.2518617999739945, 11.25884519983083, 18.087645399849862, 17.02404440008104, 19.585535599850118, 4.90135549986735, 4.953768499661237, 5.453644799999893, 11.60717420000583, 6.038521900307387]","[0.00030530011281371117, 0.5081917000934482, 0.031176299788057804, 0.014425300061702728, 0.0307090999558568, 0.04963359981775284, 0.04880429990589619, 0.08070500008761883, 0.11701570032164454, 6.038528400007635]",1,[1.726240400224924],[0.00011069979518651962],,,,,,,,,,,,,,,,,,,,,,,,,,,,,,,,,,,,,,,,,,,,,,,,,,,,,,,,,,,,,,,,,,,,,,,,,,,,,,,,,,,,,,,,,,,,,,,,,,,,,,,,,,,,,,,,,,,,,,,,,,EP67HC,train_x,red_square,bottom_right,2025-02-27_15h44.12.996,HideSeek_v1,2022.2.5,60.35276178237859,
,,,,,,,,,,,,,,,0,0,0,0,11,0,11,0,,,,,,,,,,,,,,,,,,,,,,,,,,,,,,,conditions/schedules/train_x_first/red_square_00/bottom_right/instructions/Slide10.png,conditions/schedules/train_x_first/red_square_00/bottom_right/instructions/Audio10.wav,441.84979090001434,441.8488663398195,11,"[5.2518617999739945, 11.25884519983083, 18.087645399849862, 17.02404440008104, 19.585535599850118, 4.90135549986735, 4.953768499661237, 5.453644799999893, 11.60717420000583, 6.038521900307387, 6.768823400139809]","[0.00030530011281371117, 0.5081917000934482, 0.031176299788057804, 0.014425300061702728, 0.0307090999558568, 0.04963359981775284, 0.04880429990589619, 0.08070500008761883, 0.11701570032164454, 0.12940269988030195, 6.768831400200725]",1,[1.726240400224924],[0.00011069979518651962],,,,,,,,,,,,,,,,,,,,,,,,,,,,,,,,,,,,,,,,,,,,,,,,,,,,,,,,,,,,,,,,,,,,,,,,,,,,,,,,,,,,,,,,,,,,,,,,,,,,,,,,,,,,,,,,,,,,,,,,,,EP67HC,train_x,red_square,bottom_right,2025-02-27_15h44.12.996,HideSeek_v1,2022.2.5,60.35276178237859,
,,,,,,,,,,,,,,,0,0,0,0,12,0,12,0,,,,,,,,,,,,,,,,,,,,,,,,,,,,,,,conditions/schedules/train_x_first/red_square_00/bottom_right/instructions/Slide11.png,conditions/schedules/train_x_first/red_square_00/bottom_right/instructions/Audio11.wav,448.6724787000567,448.6713816201314,12,"[5.2518617999739945, 11.25884519983083, 18.087645399849862, 17.02404440008104, 19.585535599850118, 4.90135549986735, 4.953768499661237, 5.453644799999893, 11.60717420000583, 6.038521900307387, 6.768823400139809, 9.804056399967521]","[0.00030530011281371117, 0.5081917000934482, 0.031176299788057804, 0.014425300061702728, 0.0307090999558568, 0.04963359981775284, 0.04880429990589619, 0.08070500008761883, 0.11701570032164454, 0.12940269988030195, 0.09605460008606315, 9.804064100142568]",1,[1.726240400224924],[0.00011069979518651962],,,,,,,,,,,,,,,,,,,,,,,,,,,,,,,,,,,,,,,,,,,,,,,,,,,,,,,,,,,,,,,,,,,,,,,,,,,,,,,,,,,,,,,,,,,,,,,,,,,,,,,,,,,,,,,,,,,,,,,,,,EP67HC,train_x,red_square,bottom_right,2025-02-27_15h44.12.996,HideSeek_v1,2022.2.5,60.35276178237859,
,,,,,,,,,,,,,,,0,0,0,0,13,0,13,0,,,,,,,,,,,,,,,,,,,,,,,,,,,,,,,conditions/schedules/train_x_first/red_square_00/bottom_right/instructions/Slide12.png,conditions/schedules/train_x_first/red_square_00/bottom_right/instructions/Audio12.wav,458.5491638998501,458.54598089982755,13,"[5.2518617999739945, 11.25884519983083, 18.087645399849862, 17.02404440008104, 19.585535599850118, 4.90135549986735, 4.953768499661237, 5.453644799999893, 11.60717420000583, 6.038521900307387, 6.768823400139809, 9.804056399967521, 12.939317100215703]","[0.00030530011281371117, 0.5081917000934482, 0.031176299788057804, 0.014425300061702728, 0.0307090999558568, 0.04963359981775284, 0.04880429990589619, 0.08070500008761883, 0.11701570032164454, 0.12940269988030195, 0.09605460008606315, 0.014181800186634064, 12.939325099810958]",1,[1.726240400224924],[0.00011069979518651962],,,,,,,,,,,,,,,,,,,,,,,,,,,,,,,,,,,,,,,,,,,,,,,,,,,,,,,,,,,,,,,,,,,,,,,,,,,,,,,,,,,,,,,,,,,,,,,,,,,,,,,,,,,,,,,,,,,,,,,,,,EP67HC,train_x,red_square,bottom_right,2025-02-27_15h44.12.996,HideSeek_v1,2022.2.5,60.35276178237859,
1,8,2,3,2,-5,0,66,2,instr_dim1_1,,,,,,0,0,0,0,,,,,0,0,0,0,,,,,,,,,,,,,,,,,,,,,,,,,,,,,,,,,,,,,stimuli/alien_stimuli/66.png,conditions/schedules/train_x_first/red_square_00/bottom_right/inputInstr_1.xlsx,stimuli/alien_stimuli/66.png,471.59154970012605,471.59154970012605,471.59154970012605,471.59154970012605,471.59061955981883,return,14.59387020021677,"[-0.16, -0.08, 0, 0.08, 0.16, 0.24, 0.32, 0.4, 0.48, 0.56]","[-0.4, -0.32, -0.24, -0.16, -0.08, 0, 0.08, 0.16, 0.24, 0.32]",2,2,3,8,0.0,0.4,486.34324900014326,486.34324900014326,486.34324900014326,486.34324900014326,486.34324900014326,486.34324900014326,486.34324900014326,486.33583572008644,8.224506999831647,return,8.057067300193012,stimuli/alien_stimuli/66.png,66,8,1,,,,,,,,,,,,,,,,,,,,,,,,,,,,,,,,,,,,,,,,,,,,,,,,,,,,,,,,,,,,,,,,,,,,,,,,,,,,,,,,,,,,,,,,,EP67HC,train_x,red_square,bottom_right,2025-02-27_15h44.12.996,HideSeek_v1,2022.2.5,60.35276178237859,
,,,,,,,,,,,30,,,,0,0,0,0,,,,,,,,,,,,,,,,,,,,,,,,,,,,,,,,,,,,,,,,,,,,,,,,,,,,,,,,,,,,,,,,,,,,,,,,,,,,,,21,0.7,0,0,99,1,30,0,conditions/schedules/train_x_first/red_square_00/bottom_right/inputTrain_1.1.xlsx,99,1,1,1,0,,,,,,,,,,,,,,,,,,,,,,,,,,,,,,,,,,,,,,,,,,,,,,,,,,,,,,,,,,,,,,,,,,,,,,,,,,,EP67HC,train_x,red_square,bottom_right,2025-02-27_15h44.12.996,HideSeek_v1,2022.2.5,60.35276178237859,
,,,,,,,,,,,,,,,1,0,1,0,0,0,0,0,,,,,,,,,,,,,,,,,,,,,,,,,,,,,,,conditions/schedules/train_x_first/red_square_00/bottom_right/instructions/Slide13.png,conditions/schedules/train_x_first/red_square_00/bottom_right/instructions/Audio13.wav,494.5567585998215,494.5594449198339,14,"[5.2518617999739945, 11.25884519983083, 18.087645399849862, 17.02404440008104, 19.585535599850118, 4.90135549986735, 4.953768499661237, 5.453644799999893, 11.60717420000583, 6.038521900307387, 6.768823400139809, 9.804056399967521, 12.939317100215703, 18.54976520035416]","[0.00030530011281371117, 0.5081917000934482, 0.031176299788057804, 0.014425300061702728, 0.0307090999558568, 0.04963359981775284, 0.04880429990589619, 0.08070500008761883, 0.11701570032164454, 0.12940269988030195, 0.09605460008606315, 0.014181800186634064, 12.939325099810958, 18.549774100072682]",1,[1.726240400224924],[0.00011069979518651962],,,,,,,,,,,,,,,,,,,,,,,,,,,,,,,,,,,,,,,,,,,,,,,,,,,,,,,,,,,,,,,,,,,,,,,,,,,,,,,,,,,,,,,,,,,,,,,,,,,,,,,,,,,,,,,,,,,,,,,,,,EP67HC,train_x,red_square,bottom_right,2025-02-27_15h44.12.996,HideSeek_v1,2022.2.5,60.35276178237859,
,,,,,,,,,,,,,,,1,0,1,0,1,0,1,0,,,,,,,,,,,,,,,,,,,,,,,,,,,,,,,conditions/schedules/train_x_first/red_square_00/bottom_right/instructions/Slide14.png,conditions/schedules/train_x_first/red_square_00/bottom_right/instructions/Audio14.wav,513.1806966997683,513.1748224000912,15,"[5.2518617999739945, 11.25884519983083, 18.087645399849862, 17.02404440008104, 19.585535599850118, 4.90135549986735, 4.953768499661237, 5.453644799999893, 11.60717420000583, 6.038521900307387, 6.768823400139809, 9.804056399967521, 12.939317100215703, 18.54976520035416, 13.269573000259697]","[0.00030530011281371117, 0.5081917000934482, 0.031176299788057804, 0.014425300061702728, 0.0307090999558568, 0.04963359981775284, 0.04880429990589619, 0.08070500008761883, 0.11701570032164454, 0.12940269988030195, 0.09605460008606315, 0.014181800186634064, 12.939325099810958, 18.549774100072682, 13.26958080008626]",1,[1.726240400224924],[0.00011069979518651962],,,,,,,,,,,,,,,,,,,,,,,,,,,,,,,,,,,,,,,,,,,,,,,,,,,,,,,,,,,,,,,,,,,,,,,,,,,,,,,,,,,,,,,,,,,,,,,,,,,,,,,,,,,,,,,,,,,,,,,,,,EP67HC,train_x,red_square,bottom_right,2025-02-27_15h44.12.996,HideSeek_v1,2022.2.5,60.35276178237859,
2,9,0,9,0,0,0,16,2,instr_dim1_1,,,,,,1,0,1,0,,,,,0,0,0,0,,,,,,,,,,,,,,,,,,,,,,,,,,,,,,,,,,,,,stimuli/alien_stimuli/16.png,conditions/schedules/train_x_first/red_square_00/bottom_right/inputInstr_1.xlsx,stimuli/alien_stimuli/16.png,526.552547399886,526.552547399886,526.552547399886,526.552547399886,526.5524653600994,return,8.855341599788517,"[-0.16, -0.08, 0, 0.08, 0.16, 0.24, 0.32, 0.4, 0.48, 0.56]","[-0.4, -0.32, -0.24, -0.16, -0.08, 0, 0.08, 0.16, 0.24, 0.32]",0,0,9,9,0.0,0.0,535.5647690999322,535.5647690999322,535.5647690999322,535.5647690999322,535.5647690999322,535.5647690999322,535.5647690999322,535.5432976398616,14.145850399974734,return,13.988665099721402,stimuli/alien_stimuli/16.png,16,9,2,,,,,,,,,,,,,,,,,,,,,,,,,,,,,,,,,,,,,,,,,,,,,,,,,,,,,,,,,,,,,,,,,,,,,,,,,,,,,,,,,,,,,,,,,EP67HC,train_x,red_square,bottom_right,2025-02-27_15h44.12.996,HideSeek_v1,2022.2.5,60.35276178237859,
,,,,,,,,,,,30,,,,1,0,1,0,,,,,,,,,,,,,,,,,,,,,,,,,,,,,,,,,,,,,,,,,,,,,,,,,,,,,,,,,,,,,,,,,,,,,,,,,,,,,,21,0.7,0,0,99,1,30,0,conditions/schedules/train_x_first/red_square_00/bottom_right/inputTrain_1.1.xlsx,99,1,1,1,0,,,,,,,,,,,,,,,,,,,,,,,,,,,,,,,,,,,,,,,,,,,,,,,,,,,,,,,,,,,,,,,,,,,,,,,,,,,EP67HC,train_x,red_square,bottom_right,2025-02-27_15h44.12.996,HideSeek_v1,2022.2.5,60.35276178237859,
,,,,,,,,,,,,,,,2,0,2,0,0,0,0,0,,,,,,,,,,,,,,,,,,,,,,,,,,,,,,,conditions/schedules/train_x_first/red_square_00/bottom_right/instructions/Slide15.png,conditions/schedules/train_x_first/red_square_00/bottom_right/instructions/Audio15.wav,549.7207173001952,549.7215113998391,16,"[5.2518617999739945, 11.25884519983083, 18.087645399849862, 17.02404440008104, 19.585535599850118, 4.90135549986735, 4.953768499661237, 5.453644799999893, 11.60717420000583, 6.038521900307387, 6.768823400139809, 9.804056399967521, 12.939317100215703, 18.54976520035416, 13.269573000259697, 30.607058900408447]","[0.00030530011281371117, 0.5081917000934482, 0.031176299788057804, 0.014425300061702728, 0.0307090999558568, 0.04963359981775284, 0.04880429990589619, 0.08070500008761883, 0.11701570032164454, 0.12940269988030195, 0.09605460008606315, 0.014181800186634064, 12.939325099810958, 18.549774100072682, 13.26958080008626, 30.607067400123924]",1,[1.726240400224924],[0.00011069979518651962],,,,,,,,,,,,,,,,,,,,,,,,,,,,,,,,,,,,,,,,,,,,,,,,,,,,,,,,,,,,,,,,,,,,,,,,,,,,,,,,,,,,,,,,,,,,,,,,,,,,,,,,,,,,,,,,,,,,,,,,,,EP67HC,train_x,red_square,bottom_right,2025-02-27_15h44.12.996,HideSeek_v1,2022.2.5,60.35276178237859,
,,,,,,,,,,,,,,,2,0,2,0,1,0,1,0,,,,,,,,,,,,,,,,,,,,,,,,,,,,,,,conditions/schedules/train_x_first/red_square_00/bottom_right/instructions/Slide16.png,conditions/schedules/train_x_first/red_square_00/bottom_right/instructions/Audio16.wav,580.3960457001813,580.3971356998663,17,"[5.2518617999739945, 11.25884519983083, 18.087645399849862, 17.02404440008104, 19.585535599850118, 4.90135549986735, 4.953768499661237, 5.453644799999893, 11.60717420000583, 6.038521900307387, 6.768823400139809, 9.804056399967521, 12.939317100215703, 18.54976520035416, 13.269573000259697, 30.607058900408447, 22.033472399692982]","[0.00030530011281371117, 0.5081917000934482, 0.031176299788057804, 0.014425300061702728, 0.0307090999558568, 0.04963359981775284, 0.04880429990589619, 0.08070500008761883, 0.11701570032164454, 0.12940269988030195, 0.09605460008606315, 0.014181800186634064, 12.939325099810958, 18.549774100072682, 13.26958080008626, 0.03201959980651736, 22.033479299861938]",1,[1.726240400224924],[0.00011069979518651962],,,,,,,,,,,,,,,,,,,,,,,,,,,,,,,,,,,,,,,,,,,,,,,,,,,,,,,,,,,,,,,,,,,,,,,,,,,,,,,,,,,,,,,,,,,,,,,,,,,,,,,,,,,,,,,,,,,,,,,,,,EP67HC,train_x,red_square,bottom_right,2025-02-27_15h44.12.996,HideSeek_v1,2022.2.5,60.35276178237859,
,7,1,4,1,-3,0,46,,train_dim1_1,1,30,,,,2,0,2,0,,,,,,,,,0,0,0,0,0,0,0,0,0,0,0,0,,,,,,,,,,,,,,,,,,,,,,,,,stimuli/alien_stimuli/46.png,,,,,,,,,,,,,,,,,,,,,,,,,,,,,,,,,,,,,,,30,,,,,,,,602.5287580001168,602.5287580001168,602.5287580001168,602.5287580001168,602.5287580001168,up,9.40221960004419,0,0,0,99,0.4,-0.24,up,9.29785759979859,,,,,,,,,,,,,,,,,,,,,,,,,,,,,,,,,,,,,,,,,,,,,,,,,,,,,,,,,,,,EP67HC,train_x,red_square,bottom_right,2025-02-27_15h44.12.996,HideSeek_v1,2022.2.5,60.35276178237859,
,7,1,4,1,-3,0,46,,train_dim1_1,1,30,,,,2,0,2,0,,,,,,,,,0,0,0,0,0,0,0,0,1,0,1,0,,,,,,,,,,,,,,,,,,,,,,,,,,,,,,,,,,,,,,,,,,,,,,,,,,,,,,,,,,,,,,,,30,,,,,,,,611.9207410998642,611.9207410998642,611.9207410998642,611.9207410998642,611.9207410998642,down,2.494428399950266,0,0,0,99,0.4,-0.32,down,2.413330499548465,,,,,,,,,,,,,,,,,,,,,,,,,,,,,,,,,,,,,,,,,,,,,,,,,,,,,,,,,,,,EP67HC,train_x,red_square,bottom_right,2025-02-27_15h44.12.996,HideSeek_v1,2022.2.5,60.35276178237859,
,7,1,4,1,-3,0,46,,train_dim1_1,1,30,,,,2,0,2,0,,,,,,,,,0,0,0,0,0,0,0,0,2,0,2,0,,,,,,,,,,,,,,,,,,,,,,,,,,,,,,,,,,,,,,,,,,,,,,,,,,,,,,,,,,,,,,,,30,,,,,,,,614.4221104001626,614.4221104001626,614.4221104001626,614.4221104001626,614.4221104001626,down,0.6269270000047982,0,0,0,99,0.4,-0.4,down,0.553205399774015,,,,,,,,,,,,,,,,,,,,,,,,,,,,,,,,,,,,,,,,,,,,,,,,,,,,,,,,,,,,EP67HC,train_x,red_square,bottom_right,2025-02-27_15h44.12.996,HideSeek_v1,2022.2.5,60.35276178237859,
,7,1,4,1,-3,0,46,,train_dim1_1,1,30,,,,2,0,2,0,,,,,,,,,0,0,0,0,0,0,0,0,3,0,3,0,,,,,,,,,,,,,,,,,,,,,,,,,,,,,,,,,,,,,,,,,,,,,,,,,,,,,,,,,,,,,,,,30,,,,,,,,615.0552388997748,615.0552388997748,615.0552388997748,615.0552388997748,615.0552388997748,up,1.6943091000430286,0,0,0,99,0.4,-0.32,up,1.615668499842286,,,,,,,,,,,,,,,,,,,,,,,,,,,,,,,,,,,,,,,,,,,,,,,,,,,,,,,,,,,,EP67HC,train_x,red_square,bottom_right,2025-02-27_15h44.12.996,HideSeek_v1,2022.2.5,60.35276178237859,
,7,1,4,1,-3,0,46,,train_dim1_1,1,30,,,,2,0,2,0,,,,,,,,,0,0,0,0,0,0,0,0,4,0,4,0,,,,,,,,,,,,,,,,,,,,,,,,,,,,,,,,,,,,,,,,,,,,,,,,,,,,,,,,,,,,,,,,30,,,,,,,,616.7571919001639,616.7571919001639,616.7571919001639,616.7571919001639,616.7571919001639,right,1.1270513995550573,0,0,0,99,0.48000000000000004,-0.32,right,1.0453665000386536,,,,,,,,,,,,,,,,,,,,,,,,,,,,,,,,,,,,,,,,,,,,,,,,,,,,,,,,,,,,EP67HC,train_x,red_square,bottom_right,2025-02-27_15h44.12.996,HideSeek_v1,2022.2.5,60.35276178237859,
,7,1,4,1,-3,0,46,,train_dim1_1,1,30,,,,2,0,2,0,,,,,,,,,0,0,0,0,0,0,0,0,5,0,5,0,,,,,,,,,,,,,,,,,,,,,,,,,,,,,,,,,,,,,,,,,,,,,,,,,,,,,,,,,,,,,,,,30,,,,,,,,617.8914749999531,617.8914749999531,617.8914749999531,617.8914749999531,617.8914749999531,left,1.3105023000389338,0,0,0,99,0.4,-0.32,left,1.2355414000339806,,,,,,,,,,,,,,,,,,,,,,,,,,,,,,,,,,,,,,,,,,,,,,,,,,,,,,,,,,,,EP67HC,train_x,red_square,bottom_right,2025-02-27_15h44.12.996,HideSeek_v1,2022.2.5,60.35276178237859,
,7,1,4,1,-3,0,46,,train_dim1_1,1,30,,,,2,0,2,0,,,,,,,,,0,0,0,0,0,0,0,0,6,0,6,0,,,,,,,,,,,,,,,,,,,,,,,,,,,,,,,,,,,,,,,,,,,,,,,,,,,,,,,,,,,,,,,,30,,,,,,,,619.2088426998816,619.2088426998816,619.2088426998816,619.2088426998816,619.2088426998816,left,0.3268263000063598,0,0,0,99,0.32,-0.32,left,0.2525835996493697,,,,,,,,,,,,,,,,,,,,,,,,,,,,,,,,,,,,,,,,,,,,,,,,,,,,,,,,,,,,EP67HC,train_x,red_square,bottom_right,2025-02-27_15h44.12.996,HideSeek_v1,2022.2.5,60.35276178237859,
,7,1,4,1,-3,0,46,,train_dim1_1,1,30,,,,2,0,2,0,,,,,,,,,0,0,0,0,0,0,0,0,7,0,7,0,,,,,,,,,,,,,,,,,,,,,,,,,,,,,,,,,,,,,,,,,,,,,,,,,,,,,,,,,,,,,,,,30,,,,,,,,619.5421151998453,619.5421151998453,619.5421151998453,619.5421151998453,619.5421151998453,right,0.8269981001503766,0,0,0,99,0.4,-0.32,right,0.7410511998459697,,,,,,,,,,,,,,,,,,,,,,,,,,,,,,,,,,,,,,,,,,,,,,,,,,,,,,,,,,,,EP67HC,train_x,red_square,bottom_right,2025-02-27_15h44.12.996,HideSeek_v1,2022.2.5,60.35276178237859,
,7,1,4,1,-3,0,46,,train_dim1_1,1,30,,,,2,0,2,0,,,,,,,,,0,0,0,0,0,0,0,0,8,0,8,0,,,,,,,,,,,,,,,,,,,,,,,,,,,,,,,,,,,,,,,,,,,,,,,,,,,,,,,,,,,,,,,,30,,,,,,,,620.3764682998881,620.3764682998881,620.3764682998881,620.3764682998881,620.3764682998881,right,0.5602954998612404,0,0,0,99,0.48000000000000004,-0.32,right,0.47458790009841323,,,,,,,,,,,,,,,,,,,,,,,,,,,,,,,,,,,,,,,,,,,,,,,,,,,,,,,,,,,,EP67HC,train_x,red_square,bottom_right,2025-02-27_15h44.12.996,HideSeek_v1,2022.2.5,60.35276178237859,
,7,1,4,1,-3,0,46,,train_dim1_1,1,30,,,,2,0,2,0,,,,,,,,,0,0,0,0,0,0,0,0,9,0,9,0,,,,,,,,,,,,,,,,,,,,,,,,,,,,,,,,,,,,,,,,,,,,,,,,,,,,,,,,,,,,,,,,30,,,,,,,,620.942734700162,620.942734700162,620.942734700162,620.942734700162,620.942734700162,return,0.8770345002412796,0,0,0,0,0.48000000000000004,-0.32,return,0.7961294995620847,0,1,0.48000000000000004,-0.32,,,,,,,,,,,,,,,,,,,,,,,,,,,,,,,,,,,,,,,,,,,,,,,,,,,,,,,,EP67HC,train_x,red_square,bottom_right,2025-02-27_15h44.12.996,HideSeek_v1,2022.2.5,60.35276178237859,
,7,4,7,4,0,0,16,,train_dim1_1,2,30,,,,2,0,2,0,,,,,,,,,0,0,0,0,0,1,1,1,0,0,0,0,,,,,,,,,,,,,,,,,,,,,,,,,stimuli/alien_stimuli/16.png,,,,,,,,,,,,,,,,,,,,,,,,,,,,,stimuli/alien_stimuli/46.png,46,7,3,,,,,,,30,,,,,,,,656.9665732001886,656.9665732001886,656.9665732001886,656.9665732001886,656.9665732001886,left,2.2578664999455214,0,0,0,99,0.32,-0.08,left,2.1592835998162627,,,,,655.3925879998133,656.9665732001886,0.16,-0.32,0.0,0.24,-0.32,0.16,0.28,0.16,-0.32,623.3883254998364,623.3883254998364,623.3883254998364,623.3883254998364,623.3883254998364,623.3883254998364,623.3883254998364,623.3883254998364,623.3829018598888,32.11225250037387,return,31.983444000128657,,,,,,,,,,,,,,,,,,,,,,,,,,,,,,,,,EP67HC,train_x,red_square,bottom_right,2025-02-27_15h44.12.996,HideSeek_v1,2022.2.5,60.35276178237859,
,7,4,7,4,0,0,16,,train_dim1_1,2,30,,,,2,0,2,0,,,,,,,,,0,0,0,0,0,1,1,1,1,0,1,0,,,,,,,,,,,,,,,,,,,,,,,,,,,,,,,,,,,,,,,,,,,,,,,,,,,,,,,,,,,,,,,,30,,,,,,,,659.2140172999352,659.2140172999352,659.2140172999352,659.2140172999352,659.2140172999352,right,1.9608767000027,0,0,0,99,0.4,-0.08,right,1.8689427999779582,,,,,,,,,,,,,,,,,,,,,,,,,,,,,,,,,,,,,,,,,,,,,,,,,,,,,,,,,,,,EP67HC,train_x,red_square,bottom_right,2025-02-27_15h44.12.996,HideSeek_v1,2022.2.5,60.35276178237859,
,7,4,7,4,0,0,16,,train_dim1_1,2,30,,,,2,0,2,0,,,,,,,,,0,0,0,0,0,1,1,1,2,0,2,0,,,,,,,,,,,,,,,,,,,,,,,,,,,,,,,,,,,,,,,,,,,,,,,,,,,,,,,,,,,,,,,,30,,,,,,,,661.1805317001417,661.1805317001417,661.1805317001417,661.1805317001417,661.1805317001417,up,1.4442167999222875,0,0,0,99,0.4,0.0,up,1.3527380996383727,,,,,,,,,,,,,,,,,,,,,,,,,,,,,,,,,,,,,,,,,,,,,,,,,,,,,,,,,,,,EP67HC,train_x,red_square,bottom_right,2025-02-27_15h44.12.996,HideSeek_v1,2022.2.5,60.35276178237859,
,7,4,7,4,0,0,16,,train_dim1_1,2,30,,,,2,0,2,0,,,,,,,,,0,0,0,0,0,1,1,1,3,0,3,0,,,,,,,,,,,,,,,,,,,,,,,,,,,,,,,,,,,,,,,,,,,,,,,,,,,,,,,,,,,,,,,,30,,,,,,,,662.631822399795,662.631822399795,662.631822399795,662.631822399795,662.631822399795,up,0.5936368000693619,0,0,0,99,0.4,0.08,up,0.5118194995447993,,,,,,,,,,,,,,,,,,,,,,,,,,,,,,,,,,,,,,,,,,,,,,,,,,,,,,,,,,,,EP67HC,train_x,red_square,bottom_right,2025-02-27_15h44.12.996,HideSeek_v1,2022.2.5,60.35276178237859,
,7,4,7,4,0,0,16,,train_dim1_1,2,30,,,,2,0,2,0,,,,,,,,,0,0,0,0,0,1,1,1,4,0,4,0,,,,,,,,,,,,,,,,,,,,,,,,,,,,,,,,,,,,,,,,,,,,,,,,,,,,,,,,,,,,,,,,30,,,,,,,,663.2327103000134,663.2327103000134,663.2327103000134,663.2327103000134,663.2327103000134,up,0.5104621001519263,0,0,0,99,0.4,0.16,up,0.4234400000423193,,,,,,,,,,,,,,,,,,,,,,,,,,,,,,,,,,,,,,,,,,,,,,,,,,,,,,,,,,,,EP67HC,train_x,red_square,bottom_right,2025-02-27_15h44.12.996,HideSeek_v1,2022.2.5,60.35276178237859,
,7,4,7,4,0,0,16,,train_dim1_1,2,30,,,,2,0,2,0,,,,,,,,,0,0,0,0,0,1,1,1,5,0,5,0,,,,,,,,,,,,,,,,,,,,,,,,,,,,,,,,,,,,,,,,,,,,,,,,,,,,,,,,,,,,,,,,30,,,,,,,,663.7498793997802,663.7498793997802,663.7498793997802,663.7498793997802,663.7498793997802,up,1.5939686000347137,0,0,0,99,0.4,0.24,up,1.5124734998680651,,,,,,,,,,,,,,,,,,,,,,,,,,,,,,,,,,,,,,,,,,,,,,,,,,,,,,,,,,,,EP67HC,train_x,red_square,bottom_right,2025-02-27_15h44.12.996,HideSeek_v1,2022.2.5,60.35276178237859,
,7,4,7,4,0,0,16,,train_dim1_1,2,30,,,,2,0,2,0,,,,,,,,,0,0,0,0,0,1,1,1,6,0,6,0,,,,,,,,,,,,,,,,,,,,,,,,,,,,,,,,,,,,,,,,,,,,,,,,,,,,,,,,,,,,,,,,30,,,,,,,,665.3511363998987,665.3511363998987,665.3511363998987,665.3511363998987,665.3511363998987,return,0.9438320999033749,0,0,0,0,0.4,0.24,return,0.8670969000086188,4,1,0.4,0.24,,,,,,,,,,,,,,,,,,,,,,,,,,,,,,,,,,,,,,,,,,,,,,,,,,,,,,,,EP67HC,train_x,red_square,bottom_right,2025-02-27_15h44.12.996,HideSeek_v1,2022.2.5,60.35276178237859,
,9,4,8,4,-1,0,26,,train_dim1_1,3,30,,,,2,0,2,0,,,,,,,,,0,0,0,0,0,2,2,2,0,0,0,0,,,,,,,,,,,,,,,,,,,,,,,,,stimuli/alien_stimuli/26.png,,,,,,,,,,,,,,,,,,,,,,,,,,,,,stimuli/alien_stimuli/16.png,16,7,4,,,,,,,30,,,,,,,,676.740887099877,676.740887099877,676.740887099877,676.740887099877,676.740887099877,left,5.609562499914318,0,0,0,99,0.48000000000000004,-0.08,left,5.513041999656707,,,,,675.1756827998906,676.740887099877,0.4,-0.08,0.0,0.0,-0.08,0.4,0.4,0.4,-0.08,667.8859755001031,667.8859755001031,667.8859755001031,667.8859755001031,667.8859755001031,667.8859755001031,667.8859755001031,667.8859755001031,667.8695809401571,7.425299200229347,return,7.259660099633038,,,,,,,,,,,,,,,,,,,,,,,,,,,,,,,,,EP67HC,train_x,red_square,bottom_right,2025-02-27_15h44.12.996,HideSeek_v1,2022.2.5,60.35276178237859,
,9,4,8,4,-1,0,26,,train_dim1_1,3,30,,,,2,0,2,0,,,,,,,,,0,0,0,0,0,2,2,2,1,0,1,0,,,,,,,,,,,,,,,,,,,,,,,,,,,,,,,,,,,,,,,,,,,,,,,,,,,,,,,,,,,,,,,,30,,,,,,,,682.3503155000508,682.3503155000508,682.3503155000508,682.3503155000508,682.3503155000508,right,6.831604899838567,0,0,0,99,0.56,-0.08,right,6.743757299613208,,,,,,,,,,,,,,,,,,,,,,,,,,,,,,,,,,,,,,,,,,,,,,,,,,,,,,,,,,,,EP67HC,train_x,red_square,bottom_right,2025-02-27_15h44.12.996,HideSeek_v1,2022.2.5,60.35276178237859,
,9,4,8,4,-1,0,26,,train_dim1_1,3,30,,,,2,0,2,0,,,,,,,,,0,0,0,0,0,2,2,2,2,0,2,0,,,,,,,,,,,,,,,,,,,,,,,,,,,,,,,,,,,,,,,,,,,,,,,,,,,,,,,,,,,,,,,,30,,,,,,,,689.1892102002166,689.1892102002166,689.1892102002166,689.1892102002166,689.1892102002166,up,1.1101126000285149,0,0,0,99,0.56,0.0,up,1.0277360994368792,,,,,,,,,,,,,,,,,,,,,,,,,,,,,,,,,,,,,,,,,,,,,,,,,,,,,,,,,,,,EP67HC,train_x,red_square,bottom_right,2025-02-27_15h44.12.996,HideSeek_v1,2022.2.5,60.35276178237859,
,9,4,8,4,-1,0,26,,train_dim1_1,3,30,,,,2,0,2,0,,,,,,,,,0,0,0,0,0,2,2,2,3,0,3,0,,,,,,,,,,,,,,,,,,,,,,,,,,,,,,,,,,,,,,,,,,,,,,,,,,,,,,,,,,,,,,,,30,,,,,,,,690.3058338998817,690.3058338998817,690.3058338998817,690.3058338998817,690.3058338998817,up,0.5934258997440338,0,0,0,99,0.56,0.08,up,0.5057407999411225,,,,,,,,,,,,,,,,,,,,,,,,,,,,,,,,,,,,,,,,,,,,,,,,,,,,,,,,,,,,EP67HC,train_x,red_square,bottom_right,2025-02-27_15h44.12.996,HideSeek_v1,2022.2.5,60.35276178237859,
,9,4,8,4,-1,0,26,,train_dim1_1,3,30,,,,2,0,2,0,,,,,,,,,0,0,0,0,0,2,2,2,4,0,4,0,,,,,,,,,,,,,,,,,,,,,,,,,,,,,,,,,,,,,,,,,,,,,,,,,,,,,,,,,,,,,,,,30,,,,,,,,690.9054801999591,690.9054801999591,690.9054801999591,690.9054801999591,690.9054801999591,up,0.5772162000648677,0,0,0,99,0.56,0.16,up,0.4915728997439146,,,,,,,,,,,,,,,,,,,,,,,,,,,,,,,,,,,,,,,,,,,,,,,,,,,,,,,,,,,,EP67HC,train_x,red_square,bottom_right,2025-02-27_15h44.12.996,HideSeek_v1,2022.2.5,60.35276178237859,
,9,4,8,4,-1,0,26,,train_dim1_1,3,30,,,,2,0,2,0,,,,,,,,,0,0,0,0,0,2,2,2,5,0,5,0,,,,,,,,,,,,,,,,,,,,,,,,,,,,,,,,,,,,,,,,,,,,,,,,,,,,,,,,,,,,,,,,30,,,,,,,,691.4894297001883,691.4894297001883,691.4894297001883,691.4894297001883,691.4894297001883,return,1.510754800401628,0,0,0,0,0.56,0.16,return,1.4291205001063645,7,1,0.56,0.16,,,,,,,,,,,,,,,,,,,,,,,,,,,,,,,,,,,,,,,,,,,,,,,,,,,,,,,,EP67HC,train_x,red_square,bottom_right,2025-02-27_15h44.12.996,HideSeek_v1,2022.2.5,60.35276178237859,
,7,3,3,3,-4,0,56,,train_dim1_1,4,30,,,,2,0,2,0,,,,,,,,,0,0,0,0,0,3,3,3,0,0,0,0,,,,,,,,,,,,,,,,,,,,,,,,,stimuli/alien_stimuli/56.png,,,,,,,,,,,,,,,,,,,,,,,,,,,,,stimuli/alien_stimuli/26.png,26,9,5,,,,,,,30,,,,,,,,699.9750439999625,699.9750439999625,699.9750439999625,699.9750439999625,699.9750439999625,right,3.1896372996270657,0,0,0,99,0.48000000000000004,-0.16,right,3.1051932997070253,,,,,698.4114907002077,699.9750439999625,0.48,-0.08,0.0,0.08,-0.08,0.48,0.52,0.48,-0.08,694.5886246999726,694.5886246999726,694.5886246999726,694.5886246999726,694.5886246999726,694.5886246999726,694.5886246999726,694.5886246999726,694.5751967400312,3.9554000003263354,return,3.7977709001861513,,,,,,,,,,,,,,,,,,,,,,,,,,,,,,,,,EP67HC,train_x,red_square,bottom_right,2025-02-27_15h44.12.996,HideSeek_v1,2022.2.5,60.35276178237859,
,7,3,3,3,-4,0,56,,train_dim1_1,4,30,,,,2,0,2,0,,,,,,,,,0,0,0,0,0,3,3,3,1,0,1,0,,,,,,,,,,,,,,,,,,,,,,,,,,,,,,,,,,,,,,,,,,,,,,,,,,,,,,,,,,,,,,,,30,,,,,,,,703.1643860000186,703.1643860000186,703.1643860000186,703.1643860000186,703.1643860000186,left,5.797723900061101,0,0,0,99,0.4,-0.16,left,5.715501999948174,,,,,,,,,,,,,,,,,,,,,,,,,,,,,,,,,,,,,,,,,,,,,,,,,,,,,,,,,,,,EP67HC,train_x,red_square,bottom_right,2025-02-27_15h44.12.996,HideSeek_v1,2022.2.5,60.35276178237859,
,7,3,3,3,-4,0,56,,train_dim1_1,4,30,,,,2,0,2,0,,,,,,,,,0,0,0,0,0,3,3,3,2,0,2,0,,,,,,,,,,,,,,,,,,,,,,,,,,,,,,,,,,,,,,,,,,,,,,,,,,,,,,,,,,,,,,,,30,,,,,,,,708.9692226997577,708.9692226997577,708.9692226997577,708.9692226997577,708.9692226997577,down,0.576717299874872,0,0,0,99,0.4,-0.24,down,0.4890450998209417,,,,,,,,,,,,,,,,,,,,,,,,,,,,,,,,,,,,,,,,,,,,,,,,,,,,,,,,,,,,EP67HC,train_x,red_square,bottom_right,2025-02-27_15h44.12.996,HideSeek_v1,2022.2.5,60.35276178237859,
,7,3,3,3,-4,0,56,,train_dim1_1,4,30,,,,2,0,2,0,,,,,,,,,0,0,0,0,0,3,3,3,3,0,3,0,,,,,,,,,,,,,,,,,,,,,,,,,,,,,,,,,,,,,,,,,,,,,,,,,,,,,,,,,,,,,,,,30,,,,,,,,709.5522679998539,709.5522679998539,709.5522679998539,709.5522679998539,709.5522679998539,down,0.3269070996902883,0,0,0,99,0.4,-0.32,down,0.2518563000485301,,,,,,,,,,,,,,,,,,,,,,,,,,,,,,,,,,,,,,,,,,,,,,,,,,,,,,,,,,,,EP67HC,train_x,red_square,bottom_right,2025-02-27_15h44.12.996,HideSeek_v1,2022.2.5,60.35276178237859,
,7,3,3,3,-4,0,56,,train_dim1_1,4,30,,,,2,0,2,0,,,,,,,,,0,0,0,0,0,3,3,3,4,0,4,0,,,,,,,,,,,,,,,,,,,,,,,,,,,,,,,,,,,,,,,,,,,,,,,,,,,,,,,,,,,,,,,,30,,,,,,,,709.8870224999264,709.8870224999264,709.8870224999264,709.8870224999264,709.8870224999264,return,0.9437468000687659,0,0,0,0,0.4,-0.32,return,0.8635542001575232,5,1,0.4,-0.32,,,,,,,,,,,,,,,,,,,,,,,,,,,,,,,,,,,,,,,,,,,,,,,,,,,,,,,,EP67HC,train_x,red_square,bottom_right,2025-02-27_15h44.12.996,HideSeek_v1,2022.2.5,60.35276178237859,
,5,2,0,2,-5,0,66,,train_dim1_1,5,30,,,,2,0,2,0,,,,,,,,,0,0,0,0,0,4,4,4,0,0,0,0,,,,,,,,,,,,,,,,,,,,,,,,,stimuli/alien_stimuli/66.png,,,,,,,,,,,,,,,,,,,,,,,,,,,,,stimuli/alien_stimuli/56.png,56,7,6,,,,,,,30,,,,,,,,716.6514337998815,716.6514337998815,716.6514337998815,716.6514337998815,716.6514337998815,up,6.044508500024676,0,0,0,99,0.24,-0.15999999999999998,up,5.955923600122333,,,,,715.0921432999894,716.6514337998815,0.08,-0.16,0.0,0.32,-0.16,0.08,0.24000000000000002,0.08,-0.16,712.4071609000675,712.4071609000675,712.4071609000675,712.4071609000675,712.4071609000675,712.4071609000675,712.4071609000675,712.4071609000675,712.3896613600198,2.804748499765992,return,2.658726599998772,,,,,,,,,,,,,,,,,,,,,,,,,,,,,,,,,EP67HC,train_x,red_square,bottom_right,2025-02-27_15h44.12.996,HideSeek_v1,2022.2.5,60.35276178237859,
,5,2,0,2,-5,0,66,,train_dim1_1,5,30,,,,2,0,2,0,,,,,,,,,0,0,0,0,0,4,4,4,1,0,1,0,,,,,,,,,,,,,,,,,,,,,,,,,,,,,,,,,,,,,,,,,,,,,,,,,,,,,,,,,,,,,,,,30,,,,,,,,722.6957721998915,722.6957721998915,722.6957721998915,722.6957721998915,722.6957721998915,down,1.7267675995826721,0,0,0,99,0.24,-0.24,down,1.6503285001963377,,,,,,,,,,,,,,,,,,,,,,,,,,,,,,,,,,,,,,,,,,,,,,,,,,,,,,,,,,,,EP67HC,train_x,red_square,bottom_right,2025-02-27_15h44.12.996,HideSeek_v1,2022.2.5,60.35276178237859,
,5,2,0,2,-5,0,66,,train_dim1_1,5,30,,,,2,0,2,0,,,,,,,,,0,0,0,0,0,4,4,4,2,0,2,0,,,,,,,,,,,,,,,,,,,,,,,,,,,,,,,,,,,,,,,,,,,,,,,,,,,,,,,,,,,,,,,,30,,,,,,,,724.4294055998325,724.4294055998325,724.4294055998325,724.4294055998325,724.4294055998325,right,0.5934899998828769,0,0,0,99,0.32,-0.24,right,0.5072125997394323,,,,,,,,,,,,,,,,,,,,,,,,,,,,,,,,,,,,,,,,,,,,,,,,,,,,,,,,,,,,EP67HC,train_x,red_square,bottom_right,2025-02-27_15h44.12.996,HideSeek_v1,2022.2.5,60.35276178237859,
,5,2,0,2,-5,0,66,,train_dim1_1,5,30,,,,2,0,2,0,,,,,,,,,0,0,0,0,0,4,4,4,3,0,3,0,,,,,,,,,,,,,,,,,,,,,,,,,,,,,,,,,,,,,,,,,,,,,,,,,,,,,,,,,,,,,,,,30,,,,,,,,725.0307857999578,725.0307857999578,725.0307857999578,725.0307857999578,725.0307857999578,right,0.2934064003638923,0,0,0,99,0.4,-0.24,right,0.21920609986409545,,,,,,,,,,,,,,,,,,,,,,,,,,,,,,,,,,,,,,,,,,,,,,,,,,,,,,,,,,,,EP67HC,train_x,red_square,bottom_right,2025-02-27_15h44.12.996,HideSeek_v1,2022.2.5,60.35276178237859,
,5,2,0,2,-5,0,66,,train_dim1_1,5,30,,,,2,0,2,0,,,,,,,,,0,0,0,0,0,4,4,4,4,0,4,0,,,,,,,,,,,,,,,,,,,,,,,,,,,,,,,,,,,,,,,,,,,,,,,,,,,,,,,,,,,,,,,,30,,,,,,,,725.330312400125,725.330312400125,725.330312400125,725.330312400125,725.330312400125,right,0.2603266001679003,0,0,0,99,0.48000000000000004,-0.24,right,0.17376899998635054,,,,,,,,,,,,,,,,,,,,,,,,,,,,,,,,,,,,,,,,,,,,,,,,,,,,,,,,,,,,EP67HC,train_x,red_square,bottom_right,2025-02-27_15h44.12.996,HideSeek_v1,2022.2.5,60.35276178237859,
,5,2,0,2,-5,0,66,,train_dim1_1,5,30,,,,2,0,2,0,,,,,,,,,0,0,0,0,0,4,4,4,5,0,5,0,,,,,,,,,,,,,,,,,,,,,,,,,,,,,,,,,,,,,,,,,,,,,,,,,,,,,,,,,,,,,,,,30,,,,,,,,725.597330099903,725.597330099903,725.597330099903,725.597330099903,725.597330099903,return,0.9769913000054657,0,0,0,0,0.48000000000000004,-0.24,return,0.8886457001790404,5,4,0.48000000000000004,-0.24,,,,,,,,,,,,,,,,,,,,,,,,,,,,,,,,,,,,,,,,,,,,,,,,,,,,,,,,EP67HC,train_x,red_square,bottom_right,2025-02-27_15h44.12.996,HideSeek_v1,2022.2.5,60.35276178237859,
,5,0,4,0,-1,0,26,,train_dim1_1,6,30,,,,2,0,2,0,,,,,,,,,0,0,0,0,0,5,5,5,0,0,0,0,,,,,,,,,,,,,,,,,,,,,,,,,stimuli/alien_stimuli/26.png,,,,,,,,,,,,,,,,,,,,,,,,,,,,,stimuli/alien_stimuli/66.png,66,5,7,,,,,,,30,,,,,,,,732.1409999001771,732.1409999001771,732.1409999001771,732.1409999001771,732.1409999001771,return,1.9733771998435259,0,1,0,0,0.24,-0.4,return,1.8666072995401919,5,4,0.24,-0.4,730.5548792001791,732.1409999001771,-0.16,-0.24,0.0,0.4,-0.24,-0.16,0.039999999999999994,-0.16,-0.24,728.1507489997894,728.1507489997894,728.1507489997894,728.1507489997894,728.1507489997894,728.1507489997894,728.1507489997894,728.1507489997894,728.136237860145,2.5213774000294507,return,2.3813775000162423,,,,,,,,,,,,,,,,,,,,,,,,,,,,,,,,,EP67HC,train_x,red_square,bottom_right,2025-02-27_15h44.12.996,HideSeek_v1,2022.2.5,60.35276178237859,
,8,0,3,0,-5,0,66,,train_dim1_1,7,30,,,,2,0,2,0,,,,,,,,,0,0,0,0,0,6,6,6,0,0,0,0,,,,,,,,,,,,,,,,,,,,,,,,,stimuli/alien_stimuli/66.png,,,,,,,,,,,,,,,,,,,,,,,,,,,,,stimuli/alien_stimuli/26.png,26,5,8,,,,,,,30,,,,,,,,749.9814745001495,749.9814745001495,749.9814745001495,749.9814745001495,749.9814745001495,left,2.5235799001529813,0,1,0,99,0.39999999999999997,-0.4,left,2.4201755998656154,,,,,748.402914499864,749.9814745001495,0.16,-0.4,0.0,0.08,-0.4,0.16,0.2,0.16,-0.4,735.652460699901,735.652460699901,735.652460699901,735.652460699901,735.652460699901,735.652460699901,735.652460699901,735.652460699901,735.6425168597605,12.862888100091368,return,12.71883919974789,,,,,,,,,,,,,,,,,,,,,,,,,,,,,,,,,EP67HC,train_x,red_square,bottom_right,2025-02-27_15h44.12.996,HideSeek_v1,2022.2.5,60.35276178237859,
,8,0,3,0,-5,0,66,,train_dim1_1,7,30,,,,2,0,2,0,,,,,,,,,0,0,0,0,0,6,6,6,1,0,1,0,,,,,,,,,,,,,,,,,,,,,,,,,,,,,,,,,,,,,,,,,,,,,,,,,,,,,,,,,,,,,,,,30,,,,,,,,752.486430299934,752.486430299934,752.486430299934,752.486430299934,752.486430299934,left,0.4595141997560859,0,1,0,99,0.31999999999999995,-0.4,left,0.37634099973365664,,,,,,,,,,,,,,,,,,,,,,,,,,,,,,,,,,,,,,,,,,,,,,,,,,,,,,,,,,,,EP67HC,train_x,red_square,bottom_right,2025-02-27_15h44.12.996,HideSeek_v1,2022.2.5,60.35276178237859,
,8,0,3,0,-5,0,66,,train_dim1_1,7,30,,,,2,0,2,0,,,,,,,,,0,0,0,0,0,6,6,6,2,0,2,0,,,,,,,,,,,,,,,,,,,,,,,,,,,,,,,,,,,,,,,,,,,,,,,,,,,,,,,,,,,,,,,,30,,,,,,,,752.9520588000305,752.9520588000305,752.9520588000305,752.9520588000305,752.9520588000305,left,0.2765192002989352,0,1,0,99,0.23999999999999994,-0.4,left,0.19048119988292456,,,,,,,,,,,,,,,,,,,,,,,,,,,,,,,,,,,,,,,,,,,,,,,,,,,,,,,,,,,,EP67HC,train_x,red_square,bottom_right,2025-02-27_15h44.12.996,HideSeek_v1,2022.2.5,60.35276178237859,
,8,0,3,0,-5,0,66,,train_dim1_1,7,30,,,,2,0,2,0,,,,,,,,,0,0,0,0,0,6,6,6,3,0,3,0,,,,,,,,,,,,,,,,,,,,,,,,,,,,,,,,,,,,,,,,,,,,,,,,,,,,,,,,,,,,,,,,30,,,,,,,,753.2367010000162,753.2367010000162,753.2367010000162,753.2367010000162,753.2367010000162,left,0.8604847001843154,0,1,0,99,0.15999999999999992,-0.4,left,0.7791182002983987,,,,,,,,,,,,,,,,,,,,,,,,,,,,,,,,,,,,,,,,,,,,,,,,,,,,,,,,,,,,EP67HC,train_x,red_square,bottom_right,2025-02-27_15h44.12.996,HideSeek_v1,2022.2.5,60.35276178237859,
,8,0,3,0,-5,0,66,,train_dim1_1,7,30,,,,2,0,2,0,,,,,,,,,0,0,0,0,0,6,6,6,4,0,4,0,,,,,,,,,,,,,,,,,,,,,,,,,,,,,,,,,,,,,,,,,,,,,,,,,,,,,,,,,,,,,,,,30,,,,,,,,754.1041510999203,754.1041510999203,754.1041510999203,754.1041510999203,754.1041510999203,return,1.2438679998740554,0,1,0,0,0.15999999999999992,-0.4,return,1.1593534997664392,5,0,0.15999999999999992,-0.4,,,,,,,,,,,,,,,,,,,,,,,,,,,,,,,,,,,,,,,,,,,,,,,,,,,,,,,,EP67HC,train_x,red_square,bottom_right,2025-02-27_15h44.12.996,HideSeek_v1,2022.2.5,60.35276178237859,
,5,4,2,4,-3,0,46,,train_dim1_1,8,30,,,,2,0,2,0,,,,,,,,,0,0,0,0,0,7,7,7,0,0,0,0,,,,,,,,,,,,,,,,,,,,,,,,,stimuli/alien_stimuli/46.png,,,,,,,,,,,,,,,,,,,,,,,,,,,,,stimuli/alien_stimuli/66.png,66,8,9,,,,,,,30,,,,,,,,762.7882996997796,762.7882996997796,762.7882996997796,762.7882996997796,762.7882996997796,left,3.5411046002991498,0,1,0,99,0.15999999999999998,-0.08,left,3.460286600049585,,,,,761.2303530997597,762.7882996997796,0.08,-0.4,0.0,0.4,-0.4,0.08,0.27999999999999997,0.08,-0.4,756.934039299842,756.934039299842,756.934039299842,756.934039299842,756.934039299842,756.934039299842,756.934039299842,756.934039299842,756.9268517399206,4.422635599970818,return,4.270085500087589,,,,,,,,,,,,,,,,,,,,,,,,,,,,,,,,,EP67HC,train_x,red_square,bottom_right,2025-02-27_15h44.12.996,HideSeek_v1,2022.2.5,60.35276178237859,
,5,4,2,4,-3,0,46,,train_dim1_1,8,30,,,,2,0,2,0,,,,,,,,,0,0,0,0,0,7,7,7,1,0,1,0,,,,,,,,,,,,,,,,,,,,,,,,,,,,,,,,,,,,,,,,,,,,,,,,,,,,,,,,,,,,,,,,30,,,,,,,,766.3311227997765,766.3311227997765,766.3311227997765,766.3311227997765,766.3311227997765,left,0.593511899933219,0,1,0,99,0.07999999999999997,-0.08,left,0.5123077002353966,,,,,,,,,,,,,,,,,,,,,,,,,,,,,,,,,,,,,,,,,,,,,,,,,,,,,,,,,,,,EP67HC,train_x,red_square,bottom_right,2025-02-27_15h44.12.996,HideSeek_v1,2022.2.5,60.35276178237859,
,5,4,2,4,-3,0,46,,train_dim1_1,8,30,,,,2,0,2,0,,,,,,,,,0,0,0,0,0,7,7,7,2,0,2,0,,,,,,,,,,,,,,,,,,,,,,,,,,,,,,,,,,,,,,,,,,,,,,,,,,,,,,,,,,,,,,,,30,,,,,,,,766.93075470021,766.93075470021,766.93075470021,766.93075470021,766.93075470021,left,0.510240999981761,0,1,0,99,-2.7755575615628914e-17,-0.08,left,0.4329368998296559,,,,,,,,,,,,,,,,,,,,,,,,,,,,,,,,,,,,,,,,,,,,,,,,,,,,,,,,,,,,EP67HC,train_x,red_square,bottom_right,2025-02-27_15h44.12.996,HideSeek_v1,2022.2.5,60.35276178237859,
,5,4,2,4,-3,0,46,,train_dim1_1,8,30,,,,2,0,2,0,,,,,,,,,0,0,0,0,0,7,7,7,3,0,3,0,,,,,,,,,,,,,,,,,,,,,,,,,,,,,,,,,,,,,,,,,,,,,,,,,,,,,,,,,,,,,,,,30,,,,,,,,767.4486734000966,767.4486734000966,767.4486734000966,767.4486734000966,767.4486734000966,left,0.6936620003543794,0,1,0,99,-0.08000000000000003,-0.08,left,0.6169087998569012,,,,,,,,,,,,,,,,,,,,,,,,,,,,,,,,,,,,,,,,,,,,,,,,,,,,,,,,,,,,EP67HC,train_x,red_square,bottom_right,2025-02-27_15h44.12.996,HideSeek_v1,2022.2.5,60.35276178237859,
,5,4,2,4,-3,0,46,,train_dim1_1,8,30,,,,2,0,2,0,,,,,,,,,0,0,0,0,0,7,7,7,4,0,4,0,,,,,,,,,,,,,,,,,,,,,,,,,,,,,,,,,,,,,,,,,,,,,,,,,,,,,,,,,,,,,,,,30,,,,,,,,768.1487969001755,768.1487969001755,768.1487969001755,768.1487969001755,768.1487969001755,return,0.94341029971838,0,1,0,0,-0.08000000000000003,-0.08,return,0.8596902997232974,5,-4,-0.08000000000000003,-0.08,,,,,,,,,,,,,,,,,,,,,,,,,,,,,,,,,,,,,,,,,,,,,,,,,,,,,,,,EP67HC,train_x,red_square,bottom_right,2025-02-27_15h44.12.996,HideSeek_v1,2022.2.5,60.35276178237859,
,6,0,2,0,-4,0,56,,train_dim1_1,9,30,,,,2,0,2,0,,,,,,,,,0,0,0,0,0,8,8,8,0,0,0,0,,,,,,,,,,,,,,,,,,,,,,,,,stimuli/alien_stimuli/56.png,,,,,,,,,,,,,,,,,,,,,,,,,,,,,stimuli/alien_stimuli/46.png,46,5,10,,,,,,,30,,,,,,,,774.3056457000785,774.3056457000785,774.3056457000785,774.3056457000785,774.3056457000785,left,2.541738100349903,0,1,0,99,0.24,-0.4,left,2.44957339996472,,,,,772.7398353000171,774.3056457000785,0,-0.08,0.0,0.24,-0.08,0,0.12,0,-0.08,770.6708189998753,770.6708189998753,770.6708189998753,770.6708189998753,770.6708189998753,770.6708189998753,770.6708189998753,770.6708189998753,770.6548308599274,2.187767999712378,return,2.0534458998590708,,,,,,,,,,,,,,,,,,,,,,,,,,,,,,,,,EP67HC,train_x,red_square,bottom_right,2025-02-27_15h44.12.996,HideSeek_v1,2022.2.5,60.35276178237859,
,6,0,2,0,-4,0,56,,train_dim1_1,9,30,,,,2,0,2,0,,,,,,,,,0,0,0,0,0,8,8,8,1,0,1,0,,,,,,,,,,,,,,,,,,,,,,,,,,,,,,,,,,,,,,,,,,,,,,,,,,,,,,,,,,,,,,,,30,,,,,,,,776.8428294002078,776.8428294002078,776.8428294002078,776.8428294002078,776.8428294002078,left,0.376237700227648,0,1,0,99,0.15999999999999998,-0.4,left,0.29313400015234947,,,,,,,,,,,,,,,,,,,,,,,,,,,,,,,,,,,,,,,,,,,,,,,,,,,,,,,,,,,,EP67HC,train_x,red_square,bottom_right,2025-02-27_15h44.12.996,HideSeek_v1,2022.2.5,60.35276178237859,
,6,0,2,0,-4,0,56,,train_dim1_1,9,30,,,,2,0,2,0,,,,,,,,,0,0,0,0,0,8,8,8,2,0,2,0,,,,,,,,,,,,,,,,,,,,,,,,,,,,,,,,,,,,,,,,,,,,,,,,,,,,,,,,,,,,,,,,30,,,,,,,,777.225289999973,777.225289999973,777.225289999973,777.225289999973,777.225289999973,left,0.3099348000250757,0,1,0,99,0.07999999999999997,-0.4,left,0.22848369972780347,,,,,,,,,,,,,,,,,,,,,,,,,,,,,,,,,,,,,,,,,,,,,,,,,,,,,,,,,,,,EP67HC,train_x,red_square,bottom_right,2025-02-27_15h44.12.996,HideSeek_v1,2022.2.5,60.35276178237859,
,6,0,2,0,-4,0,56,,train_dim1_1,9,30,,,,2,0,2,0,,,,,,,,,0,0,0,0,0,8,8,8,3,0,3,0,,,,,,,,,,,,,,,,,,,,,,,,,,,,,,,,,,,,,,,,,,,,,,,,,,,,,,,,,,,,,,,,30,,,,,,,,777.541996799875,777.541996799875,777.541996799875,777.541996799875,777.541996799875,left,1.0273751998320222,0,1,0,99,-2.7755575615628914e-17,-0.4,left,0.943943299818784,,,,,,,,,,,,,,,,,,,,,,,,,,,,,,,,,,,,,,,,,,,,,,,,,,,,,,,,,,,,EP67HC,train_x,red_square,bottom_right,2025-02-27_15h44.12.996,HideSeek_v1,2022.2.5,60.35276178237859,
,6,0,2,0,-4,0,56,,train_dim1_1,9,30,,,,2,0,2,0,,,,,,,,,0,0,0,0,0,8,8,8,4,0,4,0,,,,,,,,,,,,,,,,,,,,,,,,,,,,,,,,,,,,,,,,,,,,,,,,,,,,,,,,,,,,,,,,30,,,,,,,,778.5772091997787,778.5772091997787,778.5772091997787,778.5772091997787,778.5772091997787,return,0.6435747002251446,1,0,0,1,-2.7755575615628914e-17,-0.4,return,0.5638052998110652,5,-8,-2.7755575615628914e-17,-0.4,,,,,,,,,,,,,,,,,,,,,,,,,,,,,,,,,,,,,,,,,,,,,,,,,,,,,,,,EP67HC,train_x,red_square,bottom_right,2025-02-27_15h44.12.996,HideSeek_v1,2022.2.5,60.35276178237859,
,5,3,5,3,0,0,16,,train_dim1_1,10,30,,,,2,0,2,0,,,,,,,,,0,0,0,0,0,9,9,9,0,0,0,0,,,,,,,,,,,,,,,,,,,,,,,,,stimuli/alien_stimuli/16.png,,,,,,,,,,,,,,,,,,,,,,,,,,,,,stimuli/alien_stimuli/56.png,56,6,11,,,,,,,30,,,,,,,,785.0454690000042,785.0454690000042,785.0454690000042,785.0454690000042,785.0454690000042,return,2.089845299720764,2,0,0,1,0.24,-0.16,return,1.9934703996405005,5,-8,0.24,-0.16,783.4821279998869,785.0454690000042,0,-0.4,0.0,0.32,-0.4,0,0.16,0,-0.4,780.7846348001622,780.7846348001622,780.7846348001622,780.7846348001622,780.7846348001622,780.7846348001622,780.7846348001622,780.7846348001622,780.7631751798093,2.8044060999527574,return,2.6679064999334514,,,,,,,,,,,,,,,,,,,,,,,,,,,,,,,,,EP67HC,train_x,red_square,bottom_right,2025-02-27_15h44.12.996,HideSeek_v1,2022.2.5,60.35276178237859,
,7,2,4,2,-3,0,46,,train_dim1_1,11,30,,,,2,0,2,0,,,,,,,,,0,0,0,0,0,10,10,10,0,0,0,0,,,,,,,,,,,,,,,,,,,,,,,,,stimuli/alien_stimuli/46.png,,,,,,,,,,,,,,,,,,,,,,,,,,,,,stimuli/alien_stimuli/16.png,16,5,12,,,,,,,30,,,,,,,,793.314412499778,793.314412499778,793.314412499778,793.314412499778,793.314412499778,left,1.7398048997856677,2,0,0,99,0.32,-0.24,left,1.651530200149864,,,,,791.7556695002131,793.314412499778,0.24,-0.16,0.0,0.0,-0.16,0.24,0.24,0.24,-0.16,788.7124410998076,788.7124410998076,788.7124410998076,788.7124410998076,788.7124410998076,788.7124410998076,788.7124410998076,788.7124410998076,788.7032695401459,3.171133799944073,return,3.014316499698907,,,,,,,,,,,,,,,,,,,,,,,,,,,,,,,,,EP67HC,train_x,red_square,bottom_right,2025-02-27_15h44.12.996,HideSeek_v1,2022.2.5,60.35276178237859,
,7,2,4,2,-3,0,46,,train_dim1_1,11,30,,,,2,0,2,0,,,,,,,,,0,0,0,0,0,10,10,10,1,0,1,0,,,,,,,,,,,,,,,,,,,,,,,,,,,,,,,,,,,,,,,,,,,,,,,,,,,,,,,,,,,,,,,,30,,,,,,,,795.0573967997916,795.0573967997916,795.0573967997916,795.0573967997916,795.0573967997916,left,0.5598491001874208,2,0,0,99,0.24,-0.24,left,0.479689700063318,,,,,,,,,,,,,,,,,,,,,,,,,,,,,,,,,,,,,,,,,,,,,,,,,,,,,,,,,,,,EP67HC,train_x,red_square,bottom_right,2025-02-27_15h44.12.996,HideSeek_v1,2022.2.5,60.35276178237859,
,7,2,4,2,-3,0,46,,train_dim1_1,11,30,,,,2,0,2,0,,,,,,,,,0,0,0,0,0,10,10,10,2,0,2,0,,,,,,,,,,,,,,,,,,,,,,,,,,,,,,,,,,,,,,,,,,,,,,,,,,,,,,,,,,,,,,,,30,,,,,,,,795.6216234997846,795.6216234997846,795.6216234997846,795.6216234997846,795.6216234997846,left,0.4766522003337741,2,0,0,99,0.15999999999999998,-0.24,left,0.39434400014579296,,,,,,,,,,,,,,,,,,,,,,,,,,,,,,,,,,,,,,,,,,,,,,,,,,,,,,,,,,,,EP67HC,train_x,red_square,bottom_right,2025-02-27_15h44.12.996,HideSeek_v1,2022.2.5,60.35276178237859,
,7,2,4,2,-3,0,46,,train_dim1_1,11,30,,,,2,0,2,0,,,,,,,,,0,0,0,0,0,10,10,10,3,0,3,0,,,,,,,,,,,,,,,,,,,,,,,,,,,,,,,,,,,,,,,,,,,,,,,,,,,,,,,,,,,,,,,,30,,,,,,,,796.1068286998197,796.1068286998197,796.1068286998197,796.1068286998197,796.1068286998197,left,0.44310929998755455,2,0,0,99,0.07999999999999997,-0.24,left,0.36001449963077903,,,,,,,,,,,,,,,,,,,,,,,,,,,,,,,,,,,,,,,,,,,,,,,,,,,,,,,,,,,,EP67HC,train_x,red_square,bottom_right,2025-02-27_15h44.12.996,HideSeek_v1,2022.2.5,60.35276178237859,
,7,2,4,2,-3,0,46,,train_dim1_1,11,30,,,,2,0,2,0,,,,,,,,,0,0,0,0,0,10,10,10,4,0,4,0,,,,,,,,,,,,,,,,,,,,,,,,,,,,,,,,,,,,,,,,,,,,,,,,,,,,,,,,,,,,,,,,30,,,,,,,,796.5556966001168,796.5556966001168,796.5556966001168,796.5556966001168,796.5556966001168,return,0.42698739981278777,2,1,0,0,0.07999999999999997,-0.24,return,0.34087010007351637,5,-12,0.07999999999999997,-0.24,,,,,,,,,,,,,,,,,,,,,,,,,,,,,,,,,,,,,,,,,,,,,,,,,,,,,,,,EP67HC,train_x,red_square,bottom_right,2025-02-27_15h44.12.996,HideSeek_v1,2022.2.5,60.35276178237859,
,5,0,4,0,-1,0,26,,train_dim1_1,12,30,,,,2,0,2,0,,,,,,,,,0,0,0,0,0,11,11,11,0,0,0,0,,,,,,,,,,,,,,,,,,,,,,,,,stimuli/alien_stimuli/26.png,,,,,,,,,,,,,,,,,,,,,,,,,,,,,stimuli/alien_stimuli/46.png,46,7,13,,,,,,,30,,,,,,,,802.8773690001108,802.8773690001108,802.8773690001108,802.8773690001108,802.8773690001108,left,1.7049948000349104,2,1,0,99,0.15999999999999998,-0.4,left,1.6116746994666755,,,,,801.3132396000437,802.8773690001108,0.16,-0.24,0.0,0.24,-0.24,0.16,0.28,0.16,-0.24,798.5449692998081,798.5449692998081,798.5449692998081,798.5449692998081,798.5449692998081,798.5449692998081,798.5449692998081,798.5449692998081,798.5279731797986,2.8714306000620127,return,2.750056200195104,,,,,,,,,,,,,,,,,,,,,,,,,,,,,,,,,EP67HC,train_x,red_square,bottom_right,2025-02-27_15h44.12.996,HideSeek_v1,2022.2.5,60.35276178237859,
,5,0,4,0,-1,0,26,,train_dim1_1,12,30,,,,2,0,2,0,,,,,,,,,0,0,0,0,0,11,11,11,1,0,1,0,,,,,,,,,,,,,,,,,,,,,,,,,,,,,,,,,,,,,,,,,,,,,,,,,,,,,,,,,,,,,,,,30,,,,,,,,804.5834462000057,804.5834462000057,804.5834462000057,804.5834462000057,804.5834462000057,return,2.211295200046152,3,0,0,1,0.15999999999999998,-0.4,return,2.1255452996119857,5,-13,0.15999999999999998,-0.4,,,,,,,,,,,,,,,,,,,,,,,,,,,,,,,,,,,,,,,,,,,,,,,,,,,,,,,,EP67HC,train_x,red_square,bottom_right,2025-02-27_15h44.12.996,HideSeek_v1,2022.2.5,60.35276178237859,
,5,4,1,4,-4,0,56,,train_dim1_1,13,30,,,,2,0,2,0,,,,,,,,,0,0,0,0,0,12,12,12,0,0,0,0,,,,,,,,,,,,,,,,,,,,,,,,,stimuli/alien_stimuli/56.png,,,,,,,,,,,,,,,,,,,,,,,,,,,,,stimuli/alien_stimuli/26.png,26,5,14,,,,,,,30,,,,,,,,811.6804630002007,811.6804630002007,811.6804630002007,811.6804630002007,811.6804630002007,left,1.456426499877125,3,0,0,99,0.15999999999999998,-0.08,left,1.3484022002667189,,,,,810.1046341001056,811.6804630002007,0.16,-0.4,0.0,0.08,-0.4,0.16,0.2,0.16,-0.4,808.379255999811,808.379255999811,808.379255999811,808.379255999811,808.379255999811,808.379255999811,808.379255999811,808.379255999811,808.3694604400545,1.8535652998834848,return,1.7054559998214245,,,,,,,,,,,,,,,,,,,,,,,,,,,,,,,,,EP67HC,train_x,red_square,bottom_right,2025-02-27_15h44.12.996,HideSeek_v1,2022.2.5,60.35276178237859,
,5,4,1,4,-4,0,56,,train_dim1_1,13,30,,,,2,0,2,0,,,,,,,,,0,0,0,0,0,12,12,12,1,0,1,0,,,,,,,,,,,,,,,,,,,,,,,,,,,,,,,,,,,,,,,,,,,,,,,,,,,,,,,,,,,,,,,,30,,,,,,,,813.1219870001078,813.1219870001078,813.1219870001078,813.1219870001078,813.1219870001078,left,0.5095710996538401,3,0,0,99,0.07999999999999997,-0.08,left,0.4260197998955846,,,,,,,,,,,,,,,,,,,,,,,,,,,,,,,,,,,,,,,,,,,,,,,,,,,,,,,,,,,,EP67HC,train_x,red_square,bottom_right,2025-02-27_15h44.12.996,HideSeek_v1,2022.2.5,60.35276178237859,
,5,4,1,4,-4,0,56,,train_dim1_1,13,30,,,,2,0,2,0,,,,,,,,,0,0,0,0,0,12,12,12,2,0,2,0,,,,,,,,,,,,,,,,,,,,,,,,,,,,,,,,,,,,,,,,,,,,,,,,,,,,,,,,,,,,,,,,30,,,,,,,,813.6388015002012,813.6388015002012,813.6388015002012,813.6388015002012,813.6388015002012,left,0.4100331999361515,3,0,0,99,-2.7755575615628914e-17,-0.08,left,0.33543349988758564,,,,,,,,,,,,,,,,,,,,,,,,,,,,,,,,,,,,,,,,,,,,,,,,,,,,,,,,,,,,EP67HC,train_x,red_square,bottom_right,2025-02-27_15h44.12.996,HideSeek_v1,2022.2.5,60.35276178237859,
,5,4,1,4,-4,0,56,,train_dim1_1,13,30,,,,2,0,2,0,,,,,,,,,0,0,0,0,0,12,12,12,3,0,3,0,,,,,,,,,,,,,,,,,,,,,,,,,,,,,,,,,,,,,,,,,,,,,,,,,,,,,,,,,,,,,,,,30,,,,,,,,814.0555277997628,814.0555277997628,814.0555277997628,814.0555277997628,814.0555277997628,left,1.8282047002576292,3,0,0,99,-0.08000000000000003,-0.08,left,1.7484025997109711,,,,,,,,,,,,,,,,,,,,,,,,,,,,,,,,,,,,,,,,,,,,,,,,,,,,,,,,,,,,EP67HC,train_x,red_square,bottom_right,2025-02-27_15h44.12.996,HideSeek_v1,2022.2.5,60.35276178237859,
,5,4,1,4,-4,0,56,,train_dim1_1,13,30,,,,2,0,2,0,,,,,,,,,0,0,0,0,0,12,12,12,4,0,4,0,,,,,,,,,,,,,,,,,,,,,,,,,,,,,,,,,,,,,,,,,,,,,,,,,,,,,,,,,,,,,,,,30,,,,,,,,815.8908335999586,815.8908335999586,815.8908335999586,815.8908335999586,815.8908335999586,left,0.6096971002407372,3,0,0,99,-0.16000000000000003,-0.08,left,0.5312600997276604,,,,,,,,,,,,,,,,,,,,,,,,,,,,,,,,,,,,,,,,,,,,,,,,,,,,,,,,,,,,EP67HC,train_x,red_square,bottom_right,2025-02-27_15h44.12.996,HideSeek_v1,2022.2.5,60.35276178237859,
,5,4,1,4,-4,0,56,,train_dim1_1,13,30,,,,2,0,2,0,,,,,,,,,0,0,0,0,0,12,12,12,5,0,5,0,,,,,,,,,,,,,,,,,,,,,,,,,,,,,,,,,,,,,,,,,,,,,,,,,,,,,,,,,,,,,,,,30,,,,,,,,816.5080424998887,816.5080424998887,816.5080424998887,816.5080424998887,816.5080424998887,return,0.30997659964486957,3,1,0,0,-0.16000000000000003,-0.08,return,0.23097659973427653,5,-18,-0.16000000000000003,-0.08,,,,,,,,,,,,,,,,,,,,,,,,,,,,,,,,,,,,,,,,,,,,,,,,,,,,,,,,EP67HC,train_x,red_square,bottom_right,2025-02-27_15h44.12.996,HideSeek_v1,2022.2.5,60.35276178237859,
,9,3,9,3,0,0,16,,train_dim1_1,14,30,,,,2,0,2,0,,,,,,,,,0,0,0,0,0,13,13,13,0,0,0,0,,,,,,,,,,,,,,,,,,,,,,,,,stimuli/alien_stimuli/16.png,,,,,,,,,,,,,,,,,,,,,,,,,,,,,stimuli/alien_stimuli/56.png,56,5,15,,,,,,,30,,,,,,,,821.5229790997691,821.5229790997691,821.5229790997691,821.5229790997691,821.5229790997691,return,1.4051644001156092,4,0,0,1,0.56,-0.16,return,1.3092326000332832,5,-18,0.56,-0.16,819.9456926998682,821.5229790997691,-0.08,-0.08,0.0,0.32,-0.08,-0.08,0.07999999999999999,-0.08,-0.08,818.3821613001637,818.3821613001637,818.3821613001637,818.3821613001637,818.3821613001637,818.3821613001637,818.3821613001637,818.3821613001637,818.3610046800226,1.6704580998048186,return,1.5467071998864412,,,,,,,,,,,,,,,,,,,,,,,,,,,,,,,,,EP67HC,train_x,red_square,bottom_right,2025-02-27_15h44.12.996,HideSeek_v1,2022.2.5,60.35276178237859,
,9,2,4,2,-5,0,66,,train_dim1_1,15,30,,,,2,0,2,0,,,,,,,,,0,0,0,0,0,14,14,14,0,0,0,0,,,,,,,,,,,,,,,,,,,,,,,,,stimuli/alien_stimuli/66.png,,,,,,,,,,,,,,,,,,,,,,,,,,,,,stimuli/alien_stimuli/16.png,16,9,16,,,,,,,30,,,,,,,,828.0083691999316,828.0083691999316,828.0083691999316,828.0083691999316,828.0083691999316,left,1.712627399712801,4,0,0,99,0.48000000000000004,-0.24,left,1.6070690001361072,,,,,826.4177807997912,828.0083691999316,0.56,-0.16,0.0,0.0,-0.16,0.56,0.56,0.56,-0.16,824.4775478998199,824.4775478998199,824.4775478998199,824.4775478998199,824.4775478998199,824.4775478998199,824.4775478998199,824.4775478998199,824.4662884599063,2.053636200260371,return,1.9149310998618603,,,,,,,,,,,,,,,,,,,,,,,,,,,,,,,,,EP67HC,train_x,red_square,bottom_right,2025-02-27_15h44.12.996,HideSeek_v1,2022.2.5,60.35276178237859,
,9,2,4,2,-5,0,66,,train_dim1_1,15,30,,,,2,0,2,0,,,,,,,,,0,0,0,0,0,14,14,14,1,0,1,0,,,,,,,,,,,,,,,,,,,,,,,,,,,,,,,,,,,,,,,,,,,,,,,,,,,,,,,,,,,,,,,,30,,,,,,,,829.7069676001556,829.7069676001556,829.7069676001556,829.7069676001556,829.7069676001556,left,0.5380803002044559,4,0,0,99,0.4,-0.24,left,0.4593104999512434,,,,,,,,,,,,,,,,,,,,,,,,,,,,,,,,,,,,,,,,,,,,,,,,,,,,,,,,,,,,EP67HC,train_x,red_square,bottom_right,2025-02-27_15h44.12.996,HideSeek_v1,2022.2.5,60.35276178237859,
,9,2,4,2,-5,0,66,,train_dim1_1,15,30,,,,2,0,2,0,,,,,,,,,0,0,0,0,0,14,14,14,2,0,2,0,,,,,,,,,,,,,,,,,,,,,,,,,,,,,,,,,,,,,,,,,,,,,,,,,,,,,,,,,,,,,,,,30,,,,,,,,830.2505772998556,830.2505772998556,830.2505772998556,830.2505772998556,830.2505772998556,left,0.4927103999070823,4,0,0,99,0.32,-0.24,left,0.41246619960293174,,,,,,,,,,,,,,,,,,,,,,,,,,,,,,,,,,,,,,,,,,,,,,,,,,,,,,,,,,,,EP67HC,train_x,red_square,bottom_right,2025-02-27_15h44.12.996,HideSeek_v1,2022.2.5,60.35276178237859,
,9,2,4,2,-5,0,66,,train_dim1_1,15,30,,,,2,0,2,0,,,,,,,,,0,0,0,0,0,14,14,14,3,0,3,0,,,,,,,,,,,,,,,,,,,,,,,,,,,,,,,,,,,,,,,,,,,,,,,,,,,,,,,,,,,,,,,,30,,,,,,,,830.7498006001115,830.7498006001115,830.7498006001115,830.7498006001115,830.7498006001115,left,0.41072560008615255,4,0,0,99,0.24,-0.24,left,0.3277299995534122,,,,,,,,,,,,,,,,,,,,,,,,,,,,,,,,,,,,,,,,,,,,,,,,,,,,,,,,,,,,EP67HC,train_x,red_square,bottom_right,2025-02-27_15h44.12.996,HideSeek_v1,2022.2.5,60.35276178237859,
,9,2,4,2,-5,0,66,,train_dim1_1,15,30,,,,2,0,2,0,,,,,,,,,0,0,0,0,0,14,14,14,4,0,4,0,,,,,,,,,,,,,,,,,,,,,,,,,,,,,,,,,,,,,,,,,,,,,,,,,,,,,,,,,,,,,,,,30,,,,,,,,831.1675907000899,831.1675907000899,831.1675907000899,831.1675907000899,831.1675907000899,left,0.45992950024083257,4,0,0,99,0.15999999999999998,-0.24,left,0.38798309955745935,,,,,,,,,,,,,,,,,,,,,,,,,,,,,,,,,,,,,,,,,,,,,,,,,,,,,,,,,,,,EP67HC,train_x,red_square,bottom_right,2025-02-27_15h44.12.996,HideSeek_v1,2022.2.5,60.35276178237859,
,9,2,4,2,-5,0,66,,train_dim1_1,15,30,,,,2,0,2,0,,,,,,,,,0,0,0,0,0,14,14,14,5,0,5,0,,,,,,,,,,,,,,,,,,,,,,,,,,,,,,,,,,,,,,,,,,,,,,,,,,,,,,,,,,,,,,,,30,,,,,,,,831.6380954999477,831.6380954999477,831.6380954999477,831.6380954999477,831.6380954999477,return,0.39309530006721616,5,0,0,1,0.15999999999999998,-0.24,return,0.30446780007332563,5,-23,0.15999999999999998,-0.24,,,,,,,,,,,,,,,,,,,,,,,,,,,,,,,,,,,,,,,,,,,,,,,,,,,,,,,,EP67HC,train_x,red_square,bottom_right,2025-02-27_15h44.12.996,HideSeek_v1,2022.2.5,60.35276178237859,
,8,3,4,3,-4,0,56,,train_dim1_1,16,30,,,,2,0,2,0,,,,,,,,,0,0,0,0,0,15,15,15,0,0,0,0,,,,,,,,,,,,,,,,,,,,,,,,,stimuli/alien_stimuli/56.png,,,,,,,,,,,,,,,,,,,,,,,,,,,,,stimuli/alien_stimuli/66.png,66,9,17,,,,,,,30,,,,,,,,836.2839498999529,836.2839498999529,836.2839498999529,836.2839498999529,836.2839498999529,left,1.4236471001058817,5,0,0,99,0.39999999999999997,-0.16,left,1.3328434000723064,,,,,834.7245014999062,836.2839498999529,0.16,-0.24,0.0,0.4,-0.24,0.16,0.36000000000000004,0.16,-0.24,833.5942262997851,833.5942262997851,833.5942262997851,833.5942262997851,833.5942262997851,833.5942262997851,833.5942262997851,833.5942262997851,833.5736557800323,1.2366741001605988,return,1.1145219998434186,,,,,,,,,,,,,,,,,,,,,,,,,,,,,,,,,EP67HC,train_x,red_square,bottom_right,2025-02-27_15h44.12.996,HideSeek_v1,2022.2.5,60.35276178237859,
,8,3,4,3,-4,0,56,,train_dim1_1,16,30,,,,2,0,2,0,,,,,,,,,0,0,0,0,0,15,15,15,1,0,1,0,,,,,,,,,,,,,,,,,,,,,,,,,,,,,,,,,,,,,,,,,,,,,,,,,,,,,,,,,,,,,,,,30,,,,,,,,837.7094212002121,837.7094212002121,837.7094212002121,837.7094212002121,837.7094212002121,left,0.4930231999605894,5,0,0,99,0.31999999999999995,-0.16,left,0.41668659960851073,,,,,,,,,,,,,,,,,,,,,,,,,,,,,,,,,,,,,,,,,,,,,,,,,,,,,,,,,,,,EP67HC,train_x,red_square,bottom_right,2025-02-27_15h44.12.996,HideSeek_v1,2022.2.5,60.35276178237859,
,8,3,4,3,-4,0,56,,train_dim1_1,16,30,,,,2,0,2,0,,,,,,,,,0,0,0,0,0,15,15,15,2,0,2,0,,,,,,,,,,,,,,,,,,,,,,,,,,,,,,,,,,,,,,,,,,,,,,,,,,,,,,,,,,,,,,,,30,,,,,,,,838.2091096001677,838.2091096001677,838.2091096001677,838.2091096001677,838.2091096001677,left,0.47687580017372966,5,0,0,99,0.23999999999999994,-0.16,left,0.4016871997155249,,,,,,,,,,,,,,,,,,,,,,,,,,,,,,,,,,,,,,,,,,,,,,,,,,,,,,,,,,,,EP67HC,train_x,red_square,bottom_right,2025-02-27_15h44.12.996,HideSeek_v1,2022.2.5,60.35276178237859,
,8,3,4,3,-4,0,56,,train_dim1_1,16,30,,,,2,0,2,0,,,,,,,,,0,0,0,0,0,15,15,15,3,0,3,0,,,,,,,,,,,,,,,,,,,,,,,,,,,,,,,,,,,,,,,,,,,,,,,,,,,,,,,,,,,,,,,,30,,,,,,,,838.693536600098,838.693536600098,838.693536600098,838.693536600098,838.693536600098,left,0.626424599904567,5,0,0,99,0.15999999999999992,-0.16,left,0.5406186995096505,,,,,,,,,,,,,,,,,,,,,,,,,,,,,,,,,,,,,,,,,,,,,,,,,,,,,,,,,,,,EP67HC,train_x,red_square,bottom_right,2025-02-27_15h44.12.996,HideSeek_v1,2022.2.5,60.35276178237859,
,8,3,4,3,-4,0,56,,train_dim1_1,16,30,,,,2,0,2,0,,,,,,,,,0,0,0,0,0,15,15,15,4,0,4,0,,,,,,,,,,,,,,,,,,,,,,,,,,,,,,,,,,,,,,,,,,,,,,,,,,,,,,,,,,,,,,,,30,,,,,,,,839.3273673001677,839.3273673001677,839.3273673001677,839.3273673001677,839.3273673001677,return,0.3100084001198411,6,0,0,1,0.15999999999999992,-0.16,return,0.2330026999115944,5,-27,0.15999999999999992,-0.16,,,,,,,,,,,,,,,,,,,,,,,,,,,,,,,,,,,,,,,,,,,,,,,,,,,,,,,,EP67HC,train_x,red_square,bottom_right,2025-02-27_15h44.12.996,HideSeek_v1,2022.2.5,60.35276178237859,
,7,4,6,4,-1,0,26,,train_dim1_1,17,30,,,,2,0,2,0,,,,,,,,,0,0,0,0,0,16,16,16,0,0,0,0,,,,,,,,,,,,,,,,,,,,,,,,,stimuli/alien_stimuli/26.png,,,,,,,,,,,,,,,,,,,,,,,,,,,,,stimuli/alien_stimuli/56.png,56,8,18,,,,,,,30,,,,,,,,844.0606245999224,844.0606245999224,844.0606245999224,844.0606245999224,844.0606245999224,left,1.9567145998589694,6,0,0,99,0.32,-0.08,left,1.8420756999403238,,,,,842.4809483001009,844.0606245999224,0.16,-0.16,0.0,0.32,-0.16,0.16,0.32,0.16,-0.16,841.2011237000115,841.2011237000115,841.2011237000115,841.2011237000115,841.2011237000115,841.2011237000115,841.2011237000115,841.2011237000115,841.1800835799426,1.386610200162977,return,1.2589517002925277,,,,,,,,,,,,,,,,,,,,,,,,,,,,,,,,,EP67HC,train_x,red_square,bottom_right,2025-02-27_15h44.12.996,HideSeek_v1,2022.2.5,60.35276178237859,
,7,4,6,4,-1,0,26,,train_dim1_1,17,30,,,,2,0,2,0,,,,,,,,,0,0,0,0,0,16,16,16,1,0,1,0,,,,,,,,,,,,,,,,,,,,,,,,,,,,,,,,,,,,,,,,,,,,,,,,,,,,,,,,,,,,,,,,30,,,,,,,,846.0011009997688,846.0011009997688,846.0011009997688,846.0011009997688,846.0011009997688,return,0.5763797000981867,7,0,0,1,0.32,-0.08,return,0.49621929973363876,5,-28,0.32,-0.08,,,,,,,,,,,,,,,,,,,,,,,,,,,,,,,,,,,,,,,,,,,,,,,,,,,,,,,,EP67HC,train_x,red_square,bottom_right,2025-02-27_15h44.12.996,HideSeek_v1,2022.2.5,60.35276178237859,
,7,1,2,1,-5,0,66,,train_dim1_1,18,30,,,,2,0,2,0,,,,,,,,,0,0,0,0,0,17,17,17,0,0,0,0,,,,,,,,,,,,,,,,,,,,,,,,,stimuli/alien_stimuli/66.png,,,,,,,,,,,,,,,,,,,,,,,,,,,,,stimuli/alien_stimuli/26.png,26,7,19,,,,,,,30,,,,,,,,850.7793780998327,850.7793780998327,850.7793780998327,850.7793780998327,850.7793780998327,left,1.5555560002103448,7,0,0,99,0.32,-0.32,left,1.4625288001261652,,,,,849.2198320999742,850.7793780998327,0.32,-0.08,0.0,0.08,-0.08,0.32,0.36,0.32,-0.08,848.1437400002033,848.1437400002033,848.1437400002033,848.1437400002033,848.1437400002033,848.1437400002033,848.1437400002033,848.1437400002033,848.1359695600811,1.1863158997148275,return,1.0475179995410144,,,,,,,,,,,,,,,,,,,,,,,,,,,,,,,,,EP67HC,train_x,red_square,bottom_right,2025-02-27_15h44.12.996,HideSeek_v1,2022.2.5,60.35276178237859,
,7,1,2,1,-5,0,66,,train_dim1_1,18,30,,,,2,0,2,0,,,,,,,,,0,0,0,0,0,17,17,17,1,0,1,0,,,,,,,,,,,,,,,,,,,,,,,,,,,,,,,,,,,,,,,,,,,,,,,,,,,,,,,,,,,,,,,,30,,,,,,,,852.3355418997817,852.3355418997817,852.3355418997817,852.3355418997817,852.3355418997817,left,0.44295830000191927,7,0,0,99,0.24,-0.32,left,0.35939780017361045,,,,,,,,,,,,,,,,,,,,,,,,,,,,,,,,,,,,,,,,,,,,,,,,,,,,,,,,,,,,EP67HC,train_x,red_square,bottom_right,2025-02-27_15h44.12.996,HideSeek_v1,2022.2.5,60.35276178237859,
,7,1,2,1,-5,0,66,,train_dim1_1,18,30,,,,2,0,2,0,,,,,,,,,0,0,0,0,0,17,17,17,2,0,2,0,,,,,,,,,,,,,,,,,,,,,,,,,,,,,,,,,,,,,,,,,,,,,,,,,,,,,,,,,,,,,,,,30,,,,,,,,852.7864195001312,852.7864195001312,852.7864195001312,852.7864195001312,852.7864195001312,left,0.4101220997981727,7,0,0,99,0.15999999999999998,-0.32,left,0.32657849974930286,,,,,,,,,,,,,,,,,,,,,,,,,,,,,,,,,,,,,,,,,,,,,,,,,,,,,,,,,,,,EP67HC,train_x,red_square,bottom_right,2025-02-27_15h44.12.996,HideSeek_v1,2022.2.5,60.35276178237859,
,7,1,2,1,-5,0,66,,train_dim1_1,18,30,,,,2,0,2,0,,,,,,,,,0,0,0,0,0,17,17,17,3,0,3,0,,,,,,,,,,,,,,,,,,,,,,,,,,,,,,,,,,,,,,,,,,,,,,,,,,,,,,,,,,,,,,,,30,,,,,,,,853.2023713001981,853.2023713001981,853.2023713001981,853.2023713001981,853.2023713001981,left,0.37691579991951585,7,0,0,99,0.07999999999999997,-0.32,left,0.30232719983905554,,,,,,,,,,,,,,,,,,,,,,,,,,,,,,,,,,,,,,,,,,,,,,,,,,,,,,,,,,,,EP67HC,train_x,red_square,bottom_right,2025-02-27_15h44.12.996,HideSeek_v1,2022.2.5,60.35276178237859,
,7,1,2,1,-5,0,66,,train_dim1_1,18,30,,,,2,0,2,0,,,,,,,,,0,0,0,0,0,17,17,17,4,0,4,0,,,,,,,,,,,,,,,,,,,,,,,,,,,,,,,,,,,,,,,,,,,,,,,,,,,,,,,,,,,,,,,,30,,,,,,,,853.586401199922,853.586401199922,853.586401199922,853.586401199922,853.586401199922,left,0.3762600999325514,7,0,0,99,-2.7755575615628914e-17,-0.32,left,0.3005111995153129,,,,,,,,,,,,,,,,,,,,,,,,,,,,,,,,,,,,,,,,,,,,,,,,,,,,,,,,,,,,EP67HC,train_x,red_square,bottom_right,2025-02-27_15h44.12.996,HideSeek_v1,2022.2.5,60.35276178237859,
,7,1,2,1,-5,0,66,,train_dim1_1,18,30,,,,2,0,2,0,,,,,,,,,0,0,0,0,0,17,17,17,5,0,5,0,,,,,,,,,,,,,,,,,,,,,,,,,,,,,,,,,,,,,,,,,,,,,,,,,,,,,,,,,,,,,,,,30,,,,,,,,853.9693145998754,853.9693145998754,853.9693145998754,853.9693145998754,853.9693145998754,return,0.41023659985512495,8,0,0,1,-2.7755575615628914e-17,-0.32,return,0.3360189995728433,5,-33,-2.7755575615628914e-17,-0.32,,,,,,,,,,,,,,,,,,,,,,,,,,,,,,,,,,,,,,,,,,,,,,,,,,,,,,,,EP67HC,train_x,red_square,bottom_right,2025-02-27_15h44.12.996,HideSeek_v1,2022.2.5,60.35276178237859,
,5,3,2,3,-3,0,46,,train_dim1_1,19,30,,,,2,0,2,0,,,,,,,,,0,0,0,0,0,18,18,18,0,0,0,0,,,,,,,,,,,,,,,,,,,,,,,,,stimuli/alien_stimuli/46.png,,,,,,,,,,,,,,,,,,,,,,,,,,,,,stimuli/alien_stimuli/66.png,66,7,20,,,,,,,30,,,,,,,,860.9364300998859,860.9364300998859,860.9364300998859,860.9364300998859,860.9364300998859,left,0.989421300124377,8,0,0,99,0.15999999999999998,-0.16,left,0.8952176999300718,,,,,859.3781745000742,860.9364300998859,0,-0.32,0.0,0.4,-0.32,0,0.2,0,-0.32,855.9401496001519,855.9401496001519,855.9401496001519,855.9401496001519,855.9401496001519,855.9401496001519,855.9401496001519,855.9401496001519,855.9254788799211,3.5385900996625423,return,3.412945699878037,,,,,,,,,,,,,,,,,,,,,,,,,,,,,,,,,EP67HC,train_x,red_square,bottom_right,2025-02-27_15h44.12.996,HideSeek_v1,2022.2.5,60.35276178237859,
,5,3,2,3,-3,0,46,,train_dim1_1,19,30,,,,2,0,2,0,,,,,,,,,0,0,0,0,0,18,18,18,1,0,1,0,,,,,,,,,,,,,,,,,,,,,,,,,,,,,,,,,,,,,,,,,,,,,,,,,,,,,,,,,,,,,,,,30,,,,,,,,861.926550200209,861.926550200209,861.926550200209,861.926550200209,861.926550200209,left,0.4441035999916494,8,0,0,99,0.07999999999999997,-0.16,left,0.3580213999375701,,,,,,,,,,,,,,,,,,,,,,,,,,,,,,,,,,,,,,,,,,,,,,,,,,,,,,,,,,,,EP67HC,train_x,red_square,bottom_right,2025-02-27_15h44.12.996,HideSeek_v1,2022.2.5,60.35276178237859,
,5,3,2,3,-3,0,46,,train_dim1_1,19,30,,,,2,0,2,0,,,,,,,,,0,0,0,0,0,18,18,18,2,0,2,0,,,,,,,,,,,,,,,,,,,,,,,,,,,,,,,,,,,,,,,,,,,,,,,,,,,,,,,,,,,,,,,,30,,,,,,,,862.3842259999365,862.3842259999365,862.3842259999365,862.3842259999365,862.3842259999365,left,0.45518040005117655,8,0,0,99,-2.7755575615628914e-17,-0.16,left,0.37970690010115504,,,,,,,,,,,,,,,,,,,,,,,,,,,,,,,,,,,,,,,,,,,,,,,,,,,,,,,,,,,,EP67HC,train_x,red_square,bottom_right,2025-02-27_15h44.12.996,HideSeek_v1,2022.2.5,60.35276178237859,
,5,3,2,3,-3,0,46,,train_dim1_1,19,30,,,,2,0,2,0,,,,,,,,,0,0,0,0,0,18,18,18,3,0,3,0,,,,,,,,,,,,,,,,,,,,,,,,,,,,,,,,,,,,,,,,,,,,,,,,,,,,,,,,,,,,,,,,30,,,,,,,,862.8439902998507,862.8439902998507,862.8439902998507,862.8439902998507,862.8439902998507,return,0.3936578999273479,9,0,0,1,-2.7755575615628914e-17,-0.16,return,0.3146885000169277,5,-36,-2.7755575615628914e-17,-0.16,,,,,,,,,,,,,,,,,,,,,,,,,,,,,,,,,,,,,,,,,,,,,,,,,,,,,,,,EP67HC,train_x,red_square,bottom_right,2025-02-27_15h44.12.996,HideSeek_v1,2022.2.5,60.35276178237859,
,5,1,5,1,0,0,16,,train_dim1_1,20,30,,,,2,0,2,0,,,,,,,,,0,0,0,0,0,19,19,19,0,0,0,0,,,,,,,,,,,,,,,,,,,,,,,,,stimuli/alien_stimuli/16.png,,,,,,,,,,,,,,,,,,,,,,,,,,,,,stimuli/alien_stimuli/46.png,46,5,21,,,,,,,30,,,,,,,,867.3850751998834,867.3850751998834,867.3850751998834,867.3850751998834,867.3850751998834,return,1.0216211001388729,10,0,0,1,0.24,-0.32,return,0.912665699608624,5,-36,0.24,-0.32,865.8005582997575,867.3850751998834,0,-0.16,0.0,0.24,-0.16,0,0.12,0,-0.16,864.804030300118,864.804030300118,864.804030300118,864.804030300118,864.804030300118,864.804030300118,864.804030300118,864.804030300118,864.7829573797993,1.1028625997714698,return,0.9706579996272922,,,,,,,,,,,,,,,,,,,,,,,,,,,,,,,,,EP67HC,train_x,red_square,bottom_right,2025-02-27_15h44.12.996,HideSeek_v1,2022.2.5,60.35276178237859,
,9,2,6,2,-3,0,46,,train_dim1_1,21,30,,,,2,0,2,0,,,,,,,,,0,0,0,0,0,20,20,20,0,0,0,0,,,,,,,,,,,,,,,,,,,,,,,,,stimuli/alien_stimuli/46.png,,,,,,,,,,,,,,,,,,,,,,,,,,,,,stimuli/alien_stimuli/16.png,16,5,22,,,,,,,30,,,,,,,,871.8615419999696,871.8615419999696,871.8615419999696,871.8615419999696,871.8615419999696,left,0.9724194998852909,10,0,0,99,0.48000000000000004,-0.24,left,0.8836036999709904,,,,,870.3042887998745,871.8615419999696,0.24,-0.32,0.0,0.0,-0.32,0.24,0.24,0.24,-0.32,869.944483499974,869.944483499974,869.944483499974,869.944483499974,869.944483499974,869.944483499974,869.944483499974,869.944483499974,869.9370479601901,0.4693271000869572,return,0.329641199670732,,,,,,,,,,,,,,,,,,,,,,,,,,,,,,,,,EP67HC,train_x,red_square,bottom_right,2025-02-27_15h44.12.996,HideSeek_v1,2022.2.5,60.35276178237859,
,9,2,6,2,-3,0,46,,train_dim1_1,21,30,,,,2,0,2,0,,,,,,,,,0,0,0,0,0,20,20,20,1,0,1,0,,,,,,,,,,,,,,,,,,,,,,,,,,,,,,,,,,,,,,,,,,,,,,,,,,,,,,,,,,,,,,,,30,,,,,,,,872.8358653998002,872.8358653998002,872.8358653998002,872.8358653998002,872.8358653998002,left,0.5096716000698507,10,0,0,99,0.4,-0.24,left,0.43028640002012253,,,,,,,,,,,,,,,,,,,,,,,,,,,,,,,,,,,,,,,,,,,,,,,,,,,,,,,,,,,,EP67HC,train_x,red_square,bottom_right,2025-02-27_15h44.12.996,HideSeek_v1,2022.2.5,60.35276178237859,
,9,2,6,2,-3,0,46,,train_dim1_1,21,30,,,,2,0,2,0,,,,,,,,,0,0,0,0,0,20,20,20,2,0,2,0,,,,,,,,,,,,,,,,,,,,,,,,,,,,,,,,,,,,,,,,,,,,,,,,,,,,,,,,,,,,,,,,30,,,,,,,,873.3524327999912,873.3524327999912,873.3524327999912,873.3524327999912,873.3524327999912,left,0.6766929998993874,10,0,0,99,0.32,-0.24,left,0.5913847996853292,,,,,,,,,,,,,,,,,,,,,,,,,,,,,,,,,,,,,,,,,,,,,,,,,,,,,,,,,,,,EP67HC,train_x,red_square,bottom_right,2025-02-27_15h44.12.996,HideSeek_v1,2022.2.5,60.35276178237859,
,9,2,6,2,-3,0,46,,train_dim1_1,21,30,,,,2,0,2,0,,,,,,,,,0,0,0,0,0,20,20,20,3,0,3,0,,,,,,,,,,,,,,,,,,,,,,,,,,,,,,,,,,,,,,,,,,,,,,,,,,,,,,,,,,,,,,,,30,,,,,,,,874.0366675001569,874.0366675001569,874.0366675001569,874.0366675001569,874.0366675001569,return,0.6271019000560045,11,0,0,1,0.32,-0.24,return,0.543858100194484,5,-39,0.32,-0.24,,,,,,,,,,,,,,,,,,,,,,,,,,,,,,,,,,,,,,,,,,,,,,,,,,,,,,,,EP67HC,train_x,red_square,bottom_right,2025-02-27_15h44.12.996,HideSeek_v1,2022.2.5,60.35276178237859,
,6,0,5,0,-1,0,26,,train_dim1_1,22,30,,,,2,0,2,0,,,,,,,,,0,0,0,0,0,21,21,21,0,0,0,0,,,,,,,,,,,,,,,,,,,,,,,,,stimuli/alien_stimuli/26.png,,,,,,,,,,,,,,,,,,,,,,,,,,,,,stimuli/alien_stimuli/46.png,46,9,23,,,,,,,30,,,,,,,,879.0599087001756,879.0599087001756,879.0599087001756,879.0599087001756,879.0599087001756,left,1.4705428001470864,11,0,0,99,0.24,-0.4,left,1.3835733998566866,,,,,877.493662700057,879.0599087001756,0.32,-0.24,0.0,0.24,-0.24,0.32,0.44000000000000006,0.32,-0.24,876.2401022999547,876.2401022999547,876.2401022999547,876.2401022999547,876.2401022999547,876.2401022999547,876.2401022999547,876.2401022999547,876.2266602599527,1.3685759999789298,return,1.2220377000048757,,,,,,,,,,,,,,,,,,,,,,,,,,,,,,,,,EP67HC,train_x,red_square,bottom_right,2025-02-27_15h44.12.996,HideSeek_v1,2022.2.5,60.35276178237859,
,6,0,5,0,-1,0,26,,train_dim1_1,22,30,,,,2,0,2,0,,,,,,,,,0,0,0,0,0,21,21,21,1,0,1,0,,,,,,,,,,,,,,,,,,,,,,,,,,,,,,,,,,,,,,,,,,,,,,,,,,,,,,,,,,,,,,,,30,,,,,,,,880.5313511998393,880.5313511998393,880.5313511998393,880.5313511998393,880.5313511998393,return,0.2764336997643113,12,0,0,1,0.24,-0.4,return,0.18567459983751178,5,-40,0.24,-0.4,,,,,,,,,,,,,,,,,,,,,,,,,,,,,,,,,,,,,,,,,,,,,,,,,,,,,,,,EP67HC,train_x,red_square,bottom_right,2025-02-27_15h44.12.996,HideSeek_v1,2022.2.5,60.35276178237859,
,7,1,2,1,-5,0,66,,train_dim1_1,23,30,,,,2,0,2,0,,,,,,,,,0,0,0,0,0,22,22,22,0,0,0,0,,,,,,,,,,,,,,,,,,,,,,,,,stimuli/alien_stimuli/66.png,,,,,,,,,,,,,,,,,,,,,,,,,,,,,stimuli/alien_stimuli/26.png,26,6,24,,,,,,,30,,,,,,,,887.2593410001136,887.2593410001136,887.2593410001136,887.2593410001136,887.2593410001136,left,1.0227755000814795,12,0,0,99,0.32,-0.32,left,0.9412498995661736,,,,,885.700337999966,887.2593410001136,0.24,-0.4,0.0,0.08,-0.4,0.24,0.28,0.24,-0.4,882.3723716000095,882.3723716000095,882.3723716000095,882.3723716000095,882.3723716000095,882.3723716000095,882.3723716000095,882.3723716000095,882.3641597600188,3.438358400017023,return,3.300065599847585,,,,,,,,,,,,,,,,,,,,,,,,,,,,,,,,,EP67HC,train_x,red_square,bottom_right,2025-02-27_15h44.12.996,HideSeek_v1,2022.2.5,60.35276178237859,
,7,1,2,1,-5,0,66,,train_dim1_1,23,30,,,,2,0,2,0,,,,,,,,,0,0,0,0,0,22,22,22,1,0,1,0,,,,,,,,,,,,,,,,,,,,,,,,,,,,,,,,,,,,,,,,,,,,,,,,,,,,,,,,,,,,,,,,30,,,,,,,,888.2823153999634,888.2823153999634,888.2823153999634,888.2823153999634,888.2823153999634,left,0.37651650002226233,12,0,0,99,0.24,-0.32,left,0.30158119974657893,,,,,,,,,,,,,,,,,,,,,,,,,,,,,,,,,,,,,,,,,,,,,,,,,,,,,,,,,,,,EP67HC,train_x,red_square,bottom_right,2025-02-27_15h44.12.996,HideSeek_v1,2022.2.5,60.35276178237859,
,7,1,2,1,-5,0,66,,train_dim1_1,23,30,,,,2,0,2,0,,,,,,,,,0,0,0,0,0,22,22,22,2,0,2,0,,,,,,,,,,,,,,,,,,,,,,,,,,,,,,,,,,,,,,,,,,,,,,,,,,,,,,,,,,,,,,,,30,,,,,,,,888.6658355998807,888.6658355998807,888.6658355998807,888.6658355998807,888.6658355998807,left,0.3431865000165999,12,0,0,99,0.15999999999999998,-0.32,left,0.2621214995160699,,,,,,,,,,,,,,,,,,,,,,,,,,,,,,,,,,,,,,,,,,,,,,,,,,,,,,,,,,,,EP67HC,train_x,red_square,bottom_right,2025-02-27_15h44.12.996,HideSeek_v1,2022.2.5,60.35276178237859,
,7,1,2,1,-5,0,66,,train_dim1_1,23,30,,,,2,0,2,0,,,,,,,,,0,0,0,0,0,22,22,22,3,0,3,0,,,,,,,,,,,,,,,,,,,,,,,,,,,,,,,,,,,,,,,,,,,,,,,,,,,,,,,,,,,,,,,,30,,,,,,,,889.0163190998137,889.0163190998137,889.0163190998137,889.0163190998137,889.0163190998137,left,0.44330229982733727,12,0,0,99,0.07999999999999997,-0.32,left,0.3558223997242749,,,,,,,,,,,,,,,,,,,,,,,,,,,,,,,,,,,,,,,,,,,,,,,,,,,,,,,,,,,,EP67HC,train_x,red_square,bottom_right,2025-02-27_15h44.12.996,HideSeek_v1,2022.2.5,60.35276178237859,
,7,1,2,1,-5,0,66,,train_dim1_1,23,30,,,,2,0,2,0,,,,,,,,,0,0,0,0,0,22,22,22,4,0,4,0,,,,,,,,,,,,,,,,,,,,,,,,,,,,,,,,,,,,,,,,,,,,,,,,,,,,,,,,,,,,,,,,30,,,,,,,,889.4661225001328,889.4661225001328,889.4661225001328,889.4661225001328,889.4661225001328,left,0.6434012004174292,12,0,0,99,-2.7755575615628914e-17,-0.32,left,0.5662834998220205,,,,,,,,,,,,,,,,,,,,,,,,,,,,,,,,,,,,,,,,,,,,,,,,,,,,,,,,,,,,EP67HC,train_x,red_square,bottom_right,2025-02-27_15h44.12.996,HideSeek_v1,2022.2.5,60.35276178237859,
,7,1,2,1,-5,0,66,,train_dim1_1,23,30,,,,2,0,2,0,,,,,,,,,0,0,0,0,0,22,22,22,5,0,5,0,,,,,,,,,,,,,,,,,,,,,,,,,,,,,,,,,,,,,,,,,,,,,,,,,,,,,,,,,,,,,,,,30,,,,,,,,890.1160073000938,890.1160073000938,890.1160073000938,890.1160073000938,890.1160073000938,return,0.37692900002002716,13,0,0,1,-2.7755575615628914e-17,-0.32,return,0.29015279980376363,5,-45,-2.7755575615628914e-17,-0.32,,,,,,,,,,,,,,,,,,,,,,,,,,,,,,,,,,,,,,,,,,,,,,,,,,,,,,,,EP67HC,train_x,red_square,bottom_right,2025-02-27_15h44.12.996,HideSeek_v1,2022.2.5,60.35276178237859,
,9,4,5,4,-4,0,56,,train_dim1_1,24,30,,,,2,0,2,0,,,,,,,,,0,0,0,0,0,23,23,23,0,0,0,0,,,,,,,,,,,,,,,,,,,,,,,,,stimuli/alien_stimuli/56.png,,,,,,,,,,,,,,,,,,,,,,,,,,,,,stimuli/alien_stimuli/66.png,66,7,25,,,,,,,30,,,,,,,,894.6122099999338,894.6122099999338,894.6122099999338,894.6122099999338,894.6122099999338,left,0.8390510999597609,13,0,0,99,0.48000000000000004,-0.08,left,0.7450347999110818,,,,,893.0396544998512,894.6122099999338,0,-0.32,0.0,0.4,-0.32,0,0.2,0,-0.32,892.0570884998888,892.0570884998888,892.0570884998888,892.0570884998888,892.0570884998888,892.0570884998888,892.0570884998888,892.0570884998888,892.038766080141,1.0864499998278916,return,0.9590815999545157,,,,,,,,,,,,,,,,,,,,,,,,,,,,,,,,,EP67HC,train_x,red_square,bottom_right,2025-02-27_15h44.12.996,HideSeek_v1,2022.2.5,60.35276178237859,
,9,4,5,4,-4,0,56,,train_dim1_1,24,30,,,,2,0,2,0,,,,,,,,,0,0,0,0,0,23,23,23,1,0,1,0,,,,,,,,,,,,,,,,,,,,,,,,,,,,,,,,,,,,,,,,,,,,,,,,,,,,,,,,,,,,,,,,30,,,,,,,,895.4425468998961,895.4425468998961,895.4425468998961,895.4425468998961,895.4425468998961,left,0.34149290015920997,13,0,0,99,0.4,-0.08,left,0.25853449990972877,,,,,,,,,,,,,,,,,,,,,,,,,,,,,,,,,,,,,,,,,,,,,,,,,,,,,,,,,,,,EP67HC,train_x,red_square,bottom_right,2025-02-27_15h44.12.996,HideSeek_v1,2022.2.5,60.35276178237859,
,9,4,5,4,-4,0,56,,train_dim1_1,24,30,,,,2,0,2,0,,,,,,,,,0,0,0,0,0,23,23,23,2,0,2,0,,,,,,,,,,,,,,,,,,,,,,,,,,,,,,,,,,,,,,,,,,,,,,,,,,,,,,,,,,,,,,,,30,,,,,,,,895.7906085001305,895.7906085001305,895.7906085001305,895.7906085001305,895.7906085001305,left,0.3099687001667917,13,0,0,99,0.32,-0.08,left,0.2297954000532627,,,,,,,,,,,,,,,,,,,,,,,,,,,,,,,,,,,,,,,,,,,,,,,,,,,,,,,,,,,,EP67HC,train_x,red_square,bottom_right,2025-02-27_15h44.12.996,HideSeek_v1,2022.2.5,60.35276178237859,
,9,4,5,4,-4,0,56,,train_dim1_1,24,30,,,,2,0,2,0,,,,,,,,,0,0,0,0,0,23,23,23,3,0,3,0,,,,,,,,,,,,,,,,,,,,,,,,,,,,,,,,,,,,,,,,,,,,,,,,,,,,,,,,,,,,,,,,30,,,,,,,,896.1079820999876,896.1079820999876,896.1079820999876,896.1079820999876,896.1079820999876,left,0.5268651000224054,13,0,0,99,0.24,-0.08,left,0.4435447999276221,,,,,,,,,,,,,,,,,,,,,,,,,,,,,,,,,,,,,,,,,,,,,,,,,,,,,,,,,,,,EP67HC,train_x,red_square,bottom_right,2025-02-27_15h44.12.996,HideSeek_v1,2022.2.5,60.35276178237859,
,9,4,5,4,-4,0,56,,train_dim1_1,24,30,,,,2,0,2,0,,,,,,,,,0,0,0,0,0,23,23,23,4,0,4,0,,,,,,,,,,,,,,,,,,,,,,,,,,,,,,,,,,,,,,,,,,,,,,,,,,,,,,,,,,,,,,,,30,,,,,,,,896.6408890001476,896.6408890001476,896.6408890001476,896.6408890001476,896.6408890001476,return,0.5100970999337733,14,0,0,1,0.24,-0.08,return,0.422739299479872,5,-49,0.24,-0.08,,,,,,,,,,,,,,,,,,,,,,,,,,,,,,,,,,,,,,,,,,,,,,,,,,,,,,,,EP67HC,train_x,red_square,bottom_right,2025-02-27_15h44.12.996,HideSeek_v1,2022.2.5,60.35276178237859,
,8,0,8,0,0,0,16,,train_dim1_1,25,30,,,,2,0,2,0,,,,,,,,,0,0,0,0,0,24,24,24,0,0,0,0,,,,,,,,,,,,,,,,,,,,,,,,,stimuli/alien_stimuli/16.png,,,,,,,,,,,,,,,,,,,,,,,,,,,,,stimuli/alien_stimuli/56.png,56,9,26,,,,,,,30,,,,,,,,903.3758515999652,903.3758515999652,903.3758515999652,903.3758515999652,903.3758515999652,return,1.0726392003707588,15,0,0,1,0.48,-0.4,return,0.9743723999708891,5,-49,0.48,-0.4,901.8134794998914,903.3758515999652,0.24,-0.08,0.0,0.32,-0.08,0.24,0.4,0.24,-0.08,898.7153920000419,898.7153920000419,898.7153920000419,898.7153920000419,898.7153920000419,898.7153920000419,898.7153920000419,898.7153920000419,898.6943795798346,3.2047961996868253,return,3.0668615996837616,,,,,,,,,,,,,,,,,,,,,,,,,,,,,,,,,EP67HC,train_x,red_square,bottom_right,2025-02-27_15h44.12.996,HideSeek_v1,2022.2.5,60.35276178237859,
,6,1,1,1,-5,0,66,,train_dim1_1,26,30,,,,2,0,2,0,,,,,,,,,0,0,0,0,0,25,25,25,0,0,0,0,,,,,,,,,,,,,,,,,,,,,,,,,stimuli/alien_stimuli/66.png,,,,,,,,,,,,,,,,,,,,,,,,,,,,,stimuli/alien_stimuli/16.png,16,8,27,,,,,,,30,,,,,,,,909.9452603999525,909.9452603999525,909.9452603999525,909.9452603999525,909.9452603999525,left,0.971094399690628,15,0,0,99,0.24,-0.32,left,0.8607240002602339,,,,,908.3688786001876,909.9452603999525,0.48,-0.4,0.0,0.0,-0.4,0.48,0.48,0.48,-0.4,906.0208795000799,906.0208795000799,906.0208795000799,906.0208795000799,906.0208795000799,906.0208795000799,906.0208795000799,906.0208795000799,906.0001991600263,2.4708731998689473,return,2.319821899756789,,,,,,,,,,,,,,,,,,,,,,,,,,,,,,,,,EP67HC,train_x,red_square,bottom_right,2025-02-27_15h44.12.996,HideSeek_v1,2022.2.5,60.35276178237859,
,6,1,1,1,-5,0,66,,train_dim1_1,26,30,,,,2,0,2,0,,,,,,,,,0,0,0,0,0,25,25,25,1,0,1,0,,,,,,,,,,,,,,,,,,,,,,,,,,,,,,,,,,,,,,,,,,,,,,,,,,,,,,,,,,,,,,,,30,,,,,,,,910.901666900143,910.901666900143,910.901666900143,910.901666900143,910.901666900143,left,0.3595949001610279,15,0,0,99,0.15999999999999998,-0.32,left,0.2729109995998442,,,,,,,,,,,,,,,,,,,,,,,,,,,,,,,,,,,,,,,,,,,,,,,,,,,,,,,,,,,,EP67HC,train_x,red_square,bottom_right,2025-02-27_15h44.12.996,HideSeek_v1,2022.2.5,60.35276178237859,
,6,1,1,1,-5,0,66,,train_dim1_1,26,30,,,,2,0,2,0,,,,,,,,,0,0,0,0,0,25,25,25,2,0,2,0,,,,,,,,,,,,,,,,,,,,,,,,,,,,,,,,,,,,,,,,,,,,,,,,,,,,,,,,,,,,,,,,30,,,,,,,,911.2684864997864,911.2684864997864,911.2684864997864,911.2684864997864,911.2684864997864,left,0.34353110007941723,15,0,0,99,0.07999999999999997,-0.32,left,0.2645673998631537,,,,,,,,,,,,,,,,,,,,,,,,,,,,,,,,,,,,,,,,,,,,,,,,,,,,,,,,,,,,EP67HC,train_x,red_square,bottom_right,2025-02-27_15h44.12.996,HideSeek_v1,2022.2.5,60.35276178237859,
,6,1,1,1,-5,0,66,,train_dim1_1,26,30,,,,2,0,2,0,,,,,,,,,0,0,0,0,0,25,25,25,3,0,3,0,,,,,,,,,,,,,,,,,,,,,,,,,,,,,,,,,,,,,,,,,,,,,,,,,,,,,,,,,,,,,,,,30,,,,,,,,911.6195771000348,911.6195771000348,911.6195771000348,911.6195771000348,911.6195771000348,left,0.3260408998467028,15,0,0,99,-2.7755575615628914e-17,-0.32,left,0.23849930008873343,,,,,,,,,,,,,,,,,,,,,,,,,,,,,,,,,,,,,,,,,,,,,,,,,,,,,,,,,,,,EP67HC,train_x,red_square,bottom_right,2025-02-27_15h44.12.996,HideSeek_v1,2022.2.5,60.35276178237859,
,6,1,1,1,-5,0,66,,train_dim1_1,26,30,,,,2,0,2,0,,,,,,,,,0,0,0,0,0,25,25,25,4,0,4,0,,,,,,,,,,,,,,,,,,,,,,,,,,,,,,,,,,,,,,,,,,,,,,,,,,,,,,,,,,,,,,,,30,,,,,,,,911.9517051000148,911.9517051000148,911.9517051000148,911.9517051000148,911.9517051000148,left,0.3933934001252055,15,0,0,99,-0.08000000000000003,-0.32,left,0.31388849997892976,,,,,,,,,,,,,,,,,,,,,,,,,,,,,,,,,,,,,,,,,,,,,,,,,,,,,,,,,,,,EP67HC,train_x,red_square,bottom_right,2025-02-27_15h44.12.996,HideSeek_v1,2022.2.5,60.35276178237859,
,6,1,1,1,-5,0,66,,train_dim1_1,26,30,,,,2,0,2,0,,,,,,,,,0,0,0,0,0,25,25,25,5,0,5,0,,,,,,,,,,,,,,,,,,,,,,,,,,,,,,,,,,,,,,,,,,,,,,,,,,,,,,,,,,,,,,,,30,,,,,,,,912.3528557000682,912.3528557000682,912.3528557000682,912.3528557000682,912.3528557000682,return,0.4602756998501718,16,0,0,1,-0.08000000000000003,-0.32,return,0.3728945995680988,5,-54,-0.08000000000000003,-0.32,,,,,,,,,,,,,,,,,,,,,,,,,,,,,,,,,,,,,,,,,,,,,,,,,,,,,,,,EP67HC,train_x,red_square,bottom_right,2025-02-27_15h44.12.996,HideSeek_v1,2022.2.5,60.35276178237859,
,5,1,2,1,-3,0,46,,train_dim1_1,27,30,,,,2,0,2,0,,,,,,,,,0,0,0,0,0,26,26,26,0,0,0,0,,,,,,,,,,,,,,,,,,,,,,,,,stimuli/alien_stimuli/46.png,,,,,,,,,,,,,,,,,,,,,,,,,,,,,stimuli/alien_stimuli/66.png,66,6,28,,,,,,,30,,,,,,,,919.5763999000192,919.5763999000192,919.5763999000192,919.5763999000192,919.5763999000192,left,1.1495558000169694,16,0,0,99,0.15999999999999998,-0.32,left,1.056445799767971,,,,,918.0099368998781,919.5763999000192,-0.08,-0.32,0.0,0.4,-0.32,-0.08,0.12,-0.08,-0.32,914.3749962002039,914.3749962002039,914.3749962002039,914.3749962002039,914.3749962002039,914.3749962002039,914.3749962002039,914.3749962002039,914.3573871800676,3.738482099957764,return,3.602884499821812,,,,,,,,,,,,,,,,,,,,,,,,,,,,,,,,,EP67HC,train_x,red_square,bottom_right,2025-02-27_15h44.12.996,HideSeek_v1,2022.2.5,60.35276178237859,
,5,1,2,1,-3,0,46,,train_dim1_1,27,30,,,,2,0,2,0,,,,,,,,,0,0,0,0,0,26,26,26,1,0,1,0,,,,,,,,,,,,,,,,,,,,,,,,,,,,,,,,,,,,,,,,,,,,,,,,,,,,,,,,,,,,,,,,30,,,,,,,,920.7256231000647,920.7256231000647,920.7256231000647,920.7256231000647,920.7256231000647,left,0.3431080002337694,16,0,0,99,0.07999999999999997,-0.32,left,0.271594800055027,,,,,,,,,,,,,,,,,,,,,,,,,,,,,,,,,,,,,,,,,,,,,,,,,,,,,,,,,,,,EP67HC,train_x,red_square,bottom_right,2025-02-27_15h44.12.996,HideSeek_v1,2022.2.5,60.35276178237859,
,5,1,2,1,-3,0,46,,train_dim1_1,27,30,,,,2,0,2,0,,,,,,,,,0,0,0,0,0,26,26,26,2,0,2,0,,,,,,,,,,,,,,,,,,,,,,,,,,,,,,,,,,,,,,,,,,,,,,,,,,,,,,,,,,,,,,,,30,,,,,,,,921.0763059998862,921.0763059998862,921.0763059998862,921.0763059998862,921.0763059998862,left,0.3099137004464865,16,0,0,99,-2.7755575615628914e-17,-0.32,left,0.22958149993792176,,,,,,,,,,,,,,,,,,,,,,,,,,,,,,,,,,,,,,,,,,,,,,,,,,,,,,,,,,,,EP67HC,train_x,red_square,bottom_right,2025-02-27_15h44.12.996,HideSeek_v1,2022.2.5,60.35276178237859,
,5,1,2,1,-3,0,46,,train_dim1_1,27,30,,,,2,0,2,0,,,,,,,,,0,0,0,0,0,26,26,26,3,0,3,0,,,,,,,,,,,,,,,,,,,,,,,,,,,,,,,,,,,,,,,,,,,,,,,,,,,,,,,,,,,,,,,,30,,,,,,,,921.3932277997956,921.3932277997956,921.3932277997956,921.3932277997956,921.3932277997956,return,0.3432933003641665,17,0,0,1,-2.7755575615628914e-17,-0.32,return,0.2564113000407815,5,-57,-2.7755575615628914e-17,-0.32,,,,,,,,,,,,,,,,,,,,,,,,,,,,,,,,,,,,,,,,,,,,,,,,,,,,,,,,EP67HC,train_x,red_square,bottom_right,2025-02-27_15h44.12.996,HideSeek_v1,2022.2.5,60.35276178237859,
,8,1,7,1,-1,0,26,,train_dim1_1,28,30,,,,2,0,2,0,,,,,,,,,0,0,0,0,0,27,27,27,0,0,0,0,,,,,,,,,,,,,,,,,,,,,,,,,stimuli/alien_stimuli/26.png,,,,,,,,,,,,,,,,,,,,,,,,,,,,,stimuli/alien_stimuli/46.png,46,5,29,,,,,,,30,,,,,,,,926.2273161998019,926.2273161998019,926.2273161998019,926.2273161998019,926.2273161998019,left,1.1378546999767423,17,0,0,99,0.39999999999999997,-0.32,left,1.0343796997331083,,,,,924.6492471001111,926.2273161998019,0,-0.32,0.0,0.24,-0.32,0,0.12,0,-0.32,923.2991494000889,923.2991494000889,923.2991494000889,923.2991494000889,923.2991494000889,923.2991494000889,923.2991494000889,923.2991494000889,923.2813203801401,1.4541044998914003,return,1.3188847000710666,,,,,,,,,,,,,,,,,,,,,,,,,,,,,,,,,EP67HC,train_x,red_square,bottom_right,2025-02-27_15h44.12.996,HideSeek_v1,2022.2.5,60.35276178237859,
,8,1,7,1,-1,0,26,,train_dim1_1,28,30,,,,2,0,2,0,,,,,,,,,0,0,0,0,0,27,27,27,1,0,1,0,,,,,,,,,,,,,,,,,,,,,,,,,,,,,,,,,,,,,,,,,,,,,,,,,,,,,,,,,,,,,,,,30,,,,,,,,927.352548299823,927.352548299823,927.352548299823,927.352548299823,927.352548299823,return,0.24272829992696643,18,0,0,1,0.39999999999999997,-0.32,return,0.1554805999621749,5,-58,0.39999999999999997,-0.32,,,,,,,,,,,,,,,,,,,,,,,,,,,,,,,,,,,,,,,,,,,,,,,,,,,,,,,,EP67HC,train_x,red_square,bottom_right,2025-02-27_15h44.12.996,HideSeek_v1,2022.2.5,60.35276178237859,
,9,0,5,0,-4,0,56,,train_dim1_1,29,30,,,,2,0,2,0,,,,,,,,,0,0,0,0,0,28,28,28,0,0,0,0,,,,,,,,,,,,,,,,,,,,,,,,,stimuli/alien_stimuli/56.png,,,,,,,,,,,,,,,,,,,,,,,,,,,,,stimuli/alien_stimuli/26.png,26,8,30,,,,,,,30,,,,,,,,932.1310886000283,932.1310886000283,932.1310886000283,932.1310886000283,932.1310886000283,left,0.9890772001817822,18,0,0,99,0.48000000000000004,-0.4,left,0.8995069996453822,,,,,930.5706527000293,932.1310886000283,0.4,-0.32,0.0,0.08,-0.32,0.4,0.44,0.4,-0.32,929.160658699926,929.160658699926,929.160658699926,929.160658699926,929.160658699926,929.160658699926,929.160658699926,929.160658699926,929.152947859792,1.519991499837488,return,1.3800516999326646,,,,,,,,,,,,,,,,,,,,,,,,,,,,,,,,,EP67HC,train_x,red_square,bottom_right,2025-02-27_15h44.12.996,HideSeek_v1,2022.2.5,60.35276178237859,
,9,0,5,0,-4,0,56,,train_dim1_1,29,30,,,,2,0,2,0,,,,,,,,,0,0,0,0,0,28,28,28,1,0,1,0,,,,,,,,,,,,,,,,,,,,,,,,,,,,,,,,,,,,,,,,,,,,,,,,,,,,,,,,,,,,,,,,30,,,,,,,,933.1237765997648,933.1237765997648,933.1237765997648,933.1237765997648,933.1237765997648,left,0.35782080003991723,18,0,0,99,0.4,-0.4,left,0.27289049979299307,,,,,,,,,,,,,,,,,,,,,,,,,,,,,,,,,,,,,,,,,,,,,,,,,,,,,,,,,,,,EP67HC,train_x,red_square,bottom_right,2025-02-27_15h44.12.996,HideSeek_v1,2022.2.5,60.35276178237859,
,9,0,5,0,-4,0,56,,train_dim1_1,29,30,,,,2,0,2,0,,,,,,,,,0,0,0,0,0,28,28,28,2,0,2,0,,,,,,,,,,,,,,,,,,,,,,,,,,,,,,,,,,,,,,,,,,,,,,,,,,,,,,,,,,,,,,,,30,,,,,,,,933.4902087999508,933.4902087999508,933.4902087999508,933.4902087999508,933.4902087999508,left,0.34147430025041103,18,0,0,99,0.32,-0.4,left,0.26558029977604747,,,,,,,,,,,,,,,,,,,,,,,,,,,,,,,,,,,,,,,,,,,,,,,,,,,,,,,,,,,,EP67HC,train_x,red_square,bottom_right,2025-02-27_15h44.12.996,HideSeek_v1,2022.2.5,60.35276178237859,
,9,0,5,0,-4,0,56,,train_dim1_1,29,30,,,,2,0,2,0,,,,,,,,,0,0,0,0,0,28,28,28,3,0,3,0,,,,,,,,,,,,,,,,,,,,,,,,,,,,,,,,,,,,,,,,,,,,,,,,,,,,,,,,,,,,,,,,30,,,,,,,,933.8403598000295,933.8403598000295,933.8403598000295,933.8403598000295,933.8403598000295,left,0.39267890015617013,18,0,0,99,0.24,-0.4,left,0.3065480999648571,,,,,,,,,,,,,,,,,,,,,,,,,,,,,,,,,,,,,,,,,,,,,,,,,,,,,,,,,,,,EP67HC,train_x,red_square,bottom_right,2025-02-27_15h44.12.996,HideSeek_v1,2022.2.5,60.35276178237859,
,9,0,5,0,-4,0,56,,train_dim1_1,29,30,,,,2,0,2,0,,,,,,,,,0,0,0,0,0,28,28,28,4,0,4,0,,,,,,,,,,,,,,,,,,,,,,,,,,,,,,,,,,,,,,,,,,,,,,,,,,,,,,,,,,,,,,,,30,,,,,,,,934.2388238999993,934.2388238999993,934.2388238999993,934.2388238999993,934.2388238999993,return,0.36083529982715845,19,0,0,1,0.24,-0.4,return,0.2796830995939672,5,-62,0.24,-0.4,,,,,,,,,,,,,,,,,,,,,,,,,,,,,,,,,,,,,,,,,,,,,,,,,,,,,,,,EP67HC,train_x,red_square,bottom_right,2025-02-27_15h44.12.996,HideSeek_v1,2022.2.5,60.35276178237859,
,7,2,7,2,0,0,16,,train_dim1_1,30,30,,,,2,0,2,0,,,,,,,,,0,0,0,0,0,29,29,29,0,0,0,0,,,,,,,,,,,,,,,,,,,,,,,,,stimuli/alien_stimuli/16.png,,,,,,,,,,,,,,,,,,,,,,,,,,,,,stimuli/alien_stimuli/56.png,56,9,31,,,,,,,30,,,,,,,,939.1386824999936,939.1386824999936,939.1386824999936,939.1386824999936,939.1386824999936,return,0.9728223001584411,20,0,0,1,0.4,-0.24,return,0.8843037998303771,5,-62,0.4,-0.24,937.5763201997615,939.1386824999936,0.24,-0.4,0.0,0.32,-0.4,0.24,0.4,0.24,-0.4,936.162923600059,936.162923600059,936.162923600059,936.162923600059,936.162923600059,936.162923600059,936.162923600059,936.162923600059,936.141967480164,1.5201581995934248,return,1.3909378997050226,,,,,,,,,,,,,,,,,,,,,,,,,,,,,,,,,EP67HC,train_x,red_square,bottom_right,2025-02-27_15h44.12.996,HideSeek_v1,2022.2.5,60.35276178237859,
,,,,,,,,,,,30,,,,2,0,2,0,,,,,,,,,,,,,,,,,,,,,,,,,,,,,,,,,,,,,,,,,,,,,,,,,,,,,,,,,,,,,,,,,,,,,,,,,,stimuli/alien_stimuli/16.png,16,7,32,21,0.7,0.8333333333333335,1,1,1,30,0,conditions/schedules/train_x_first/red_square_00/bottom_right/inputTrain_2.1.xlsx,99,1,2,1,0,,,,,,,,,,,1,,,,,,,,,943.2146046999842,944.7578468001448,0.4,-0.24,0.0,0.0,-0.24,0.4,0.4,0.4,-0.24,941.669540300034,941.669540300034,941.669540300034,941.669540300034,941.669540300034,941.669540300034,941.669540300034,941.669540300034,941.6637198598589,1.6530969999730587,return,1.526053600013256,0,0.9,0,1,20,,,,,,,,,,,,,,,,,,,,,,,,,,,,EP67HC,train_x,red_square,bottom_right,2025-02-27_15h44.12.996,HideSeek_v1,2022.2.5,60.35276178237859,
,,,,,,,,,,,,,,,3,0,3,0,0,0,0,0,,,,,,,,,,,,,,,,,,,,,,,,,,,,,,,conditions/schedules/train_x_first/red_square_00/bottom_right/instructions/Slide17.png,conditions/schedules/train_x_first/red_square_00/bottom_right/instructions/Audio17.wav,944.7578468001448,944.7492986401077,18,"[5.2518617999739945, 11.25884519983083, 18.087645399849862, 17.02404440008104, 19.585535599850118, 4.90135549986735, 4.953768499661237, 5.453644799999893, 11.60717420000583, 6.038521900307387, 6.768823400139809, 9.804056399967521, 12.939317100215703, 18.54976520035416, 13.269573000259697, 30.607058900408447, 22.033472399692982, 39.97165670013055]","[0.00030530011281371117, 0.5081917000934482, 0.031176299788057804, 0.014425300061702728, 0.0307090999558568, 0.04963359981775284, 0.04880429990589619, 0.08070500008761883, 0.11701570032164454, 0.12940269988030195, 0.09605460008606315, 0.014181800186634064, 12.939325099810958, 18.549774100072682, 13.26958080008626, 0.03201959980651736, 22.033479299861938, 39.97166550019756]",1,[1.726240400224924],[0.00011069979518651962],,,,,,,,,,,,,,,,,,,,,,,,,,,,,,,,,,,,,,,,,,,,,,,,,,,,,,,,,,,,,,,,,,,,,,,,,,,,,,,,,,,,,,,,,,,,,,,,,,,,,,,,,,,,,,,,,,,,,,,,,,EP67HC,train_x,red_square,bottom_right,2025-02-27_15h44.12.996,HideSeek_v1,2022.2.5,60.35276178237859,
,,,,,,,,,,,,,,,3,0,3,0,1,0,1,0,,,,,,,,,,,,,,,,,,,,,,,,,,,,,,,conditions/schedules/train_x_first/red_square_00/bottom_right/instructions/Slide18.png,conditions/schedules/train_x_first/red_square_00/bottom_right/instructions/Audio18.wav,984.8038043999113,984.7991350998636,19,"[5.2518617999739945, 11.25884519983083, 18.087645399849862, 17.02404440008104, 19.585535599850118, 4.90135549986735, 4.953768499661237, 5.453644799999893, 11.60717420000583, 6.038521900307387, 6.768823400139809, 9.804056399967521, 12.939317100215703, 18.54976520035416, 13.269573000259697, 30.607058900408447, 22.033472399692982, 39.97165670013055, 6.315882300026715]","[0.00030530011281371117, 0.5081917000934482, 0.031176299788057804, 0.014425300061702728, 0.0307090999558568, 0.04963359981775284, 0.04880429990589619, 0.08070500008761883, 0.11701570032164454, 0.12940269988030195, 0.09605460008606315, 0.014181800186634064, 12.939325099810958, 18.549774100072682, 13.26958080008626, 0.03201959980651736, 22.033479299861938, 0.0002391999587416649, 6.315889499615878]",1,[1.726240400224924],[0.00011069979518651962],,,,,,,,,,,,,,,,,,,,,,,,,,,,,,,,,,,,,,,,,,,,,,,,,,,,,,,,,,,,,,,,,,,,,,,,,,,,,,,,,,,,,,,,,,,,,,,,,,,,,,,,,,,,,,,,,,,,,,,,,,EP67HC,train_x,red_square,bottom_right,2025-02-27_15h44.12.996,HideSeek_v1,2022.2.5,60.35276178237859,
,,,,,,,,,,,,,,,3,0,3,0,2,0,2,0,,,,,,,,,,,,,,,,,,,,,,,,,,,,,,,conditions/schedules/train_x_first/red_square_00/bottom_right/instructions/Slide19.png,conditions/schedules/train_x_first/red_square_00/bottom_right/instructions/Audio19.wav,991.1553043001331,991.1543230400886,20,"[5.2518617999739945, 11.25884519983083, 18.087645399849862, 17.02404440008104, 19.585535599850118, 4.90135549986735, 4.953768499661237, 5.453644799999893, 11.60717420000583, 6.038521900307387, 6.768823400139809, 9.804056399967521, 12.939317100215703, 18.54976520035416, 13.269573000259697, 30.607058900408447, 22.033472399692982, 39.97165670013055, 6.315882300026715, 10.371843899600208]","[0.00030530011281371117, 0.5081917000934482, 0.031176299788057804, 0.014425300061702728, 0.0307090999558568, 0.04963359981775284, 0.04880429990589619, 0.08070500008761883, 0.11701570032164454, 0.12940269988030195, 0.09605460008606315, 0.014181800186634064, 12.939325099810958, 18.549774100072682, 13.26958080008626, 0.03201959980651736, 22.033479299861938, 0.0002391999587416649, 0.0305889998562634, 10.371849999763072]",1,[1.726240400224924],[0.00011069979518651962],,,,,,,,,,,,,,,,,,,,,,,,,,,,,,,,,,,,,,,,,,,,,,,,,,,,,,,,,,,,,,,,,,,,,,,,,,,,,,,,,,,,,,,,,,,,,,,,,,,,,,,,,,,,,,,,,,,,,,,,,,EP67HC,train_x,red_square,bottom_right,2025-02-27_15h44.12.996,HideSeek_v1,2022.2.5,60.35276178237859,
,,,,,,,,,,,,,,,3,0,3,0,3,0,3,0,,,,,,,,,,,,,,,,,,,,,,,,,,,,,,,conditions/schedules/train_x_first/red_square_00/bottom_right/instructions/Slide20.png,conditions/schedules/train_x_first/red_square_00/bottom_right/instructions/Audio20.wav,1001.6011704001576,1001.5968342998531,21,"[5.2518617999739945, 11.25884519983083, 18.087645399849862, 17.02404440008104, 19.585535599850118, 4.90135549986735, 4.953768499661237, 5.453644799999893, 11.60717420000583, 6.038521900307387, 6.768823400139809, 9.804056399967521, 12.939317100215703, 18.54976520035416, 13.269573000259697, 30.607058900408447, 22.033472399692982, 39.97165670013055, 6.315882300026715, 10.371843899600208, 13.820974600035697]","[0.00030530011281371117, 0.5081917000934482, 0.031176299788057804, 0.014425300061702728, 0.0307090999558568, 0.04963359981775284, 0.04880429990589619, 0.08070500008761883, 0.11701570032164454, 0.12940269988030195, 0.09605460008606315, 0.014181800186634064, 12.939325099810958, 18.549774100072682, 13.26958080008626, 0.03201959980651736, 22.033479299861938, 0.0002391999587416649, 0.0305889998562634, 0.00023979973047971725, 13.82098239986226]",1,[1.726240400224924],[0.00011069979518651962],,,,,,,,,,,,,,,,,,,,,,,,,,,,,,,,,,,,,,,,,,,,,,,,,,,,,,,,,,,,,,,,,,,,,,,,,,,,,,,,,,,,,,,,,,,,,,,,,,,,,,,,,,,,,,,,,,,,,,,,,,EP67HC,train_x,red_square,bottom_right,2025-02-27_15h44.12.996,HideSeek_v1,2022.2.5,60.35276178237859,
1,7,3,7,8,0,5,11,2,instr_dim1_2,,,,,,3,0,3,0,,,,,0,0,0,0,,,,,,,,,,,,,,,,,,,,,,,,,,,,,,,,,,,,,stimuli/alien_stimuli/11.png,conditions/schedules/train_x_first/red_square_00/bottom_right/inputInstr_2.xlsx,stimuli/alien_stimuli/11.png,1015.518323100172,1015.518323100172,1015.518323100172,1015.518323100172,1015.5078561800532,return,8.202245299704373,"[-0.16, -0.08, 0, 0.08, 0.16, 0.24, 0.32, 0.4, 0.48, 0.56]","[-0.4, -0.32, -0.24, -0.16, -0.08, 0, 0.08, 0.16, 0.24, 0.32]",8,3,7,7,0.4,0.0,1023.8797483998351,1023.8797483998351,1023.8797483998351,1023.8797483998351,1023.8797483998351,1023.8797483998351,1023.8797483998351,1023.8815152199473,17.09862869977951,return,16.94668099982664,stimuli/alien_stimuli/11.png,11,7,1,,,,,,,,,,,,,,,,,,,,,,,,,,,,,,,,,,,,,,,,,,,,,,,,,,,,,,,,,,,,,,,,,,,,,,,,,,,,,,,,,,,,,,,,,EP67HC,train_x,red_square,bottom_right,2025-02-27_15h44.12.996,HideSeek_v1,2022.2.5,60.35276178237859,
,,,,,,,,,,,30,,,,3,0,3,0,,,,,,,,,,,,,,,,,,,,,,,,,,,,,,,,,,,,,,,,,,,,,,,,,,,,,,,,,,,,,,,,,,,,,,,,,,,,,,21,0.7,0.8333333333333335,1,99,2,30,0,conditions/schedules/train_x_first/red_square_00/bottom_right/inputTrain_2.1.xlsx,99,1,2,1,0,,,,,,,,,,,,,,,,,,,,,,,,,,,,,,,,,,,,,,,,,,,,,,,,,,,,,,,,,,,,,,,,,,,,,,,,,,,EP67HC,train_x,red_square,bottom_right,2025-02-27_15h44.12.996,HideSeek_v1,2022.2.5,60.35276178237859,
