trialInstr,x_fixStart,y_fixStart,x_corrSteps,y_corrSteps,x_nrSteps,y_nrSteps,alienID,trialLength,version,trialTrain,praclen,testlen,trial_label,break_on_off,beforeExpLoop.thisRepN,beforeExpLoop.thisTrialN,beforeExpLoop.thisN,beforeExpLoop.thisIndex,mini_instr_trials.thisRepN,mini_instr_trials.thisTrialN,mini_instr_trials.thisN,mini_instr_trials.thisIndex,instrLoop.thisRepN,instrLoop.thisTrialN,instrLoop.thisN,instrLoop.thisIndex,repeat_prac.thisRepN,repeat_prac.thisTrialN,repeat_prac.thisN,repeat_prac.thisIndex,trainLoop.thisRepN,trainLoop.thisTrialN,trainLoop.thisN,trainLoop.thisIndex,moveLoop_train.thisRepN,moveLoop_train.thisTrialN,moveLoop_train.thisN,moveLoop_train.thisIndex,experiment.thisRepN,experiment.thisTrialN,experiment.thisN,experiment.thisIndex,moveLoop_test.thisRepN,moveLoop_test.thisTrialN,moveLoop_test.thisN,moveLoop_test.thisIndex,mini_instr2_trials.thisRepN,mini_instr2_trials.thisTrialN,mini_instr2_trials.thisN,mini_instr2_trials.thisIndex,start_all_time,url,slideStim,audioStim,slides.started,sounds.started,nextButton.numClicks,nextButton.timesOn,nextButton.timesOff,prev_but.numClicks,prev_but.timesOn,prev_but.timesOff,alienStim,instrFile,alienStim_instr,gridImage_instr.started,startPos_3.started,key_instr.started,alienImage_3.started,sounds_1.started,key_instr.keys,key_instr.rt,all_x,all_y,FBy_corrSteps,FBy_fixStart,FBx_corrSteps,FBx_fixStart,FBy_pathSize_check,FBx_pathSize_check,gridImage_9.started,alienImageFB_3.started,startPosFB_3.started,keyFB_3.started,pathLine_ydir_2.started,pathLine_xdir_2.started,alienFace_3.started,sounds_2.started,RTFB_instr,keyFB_3.keys,keyFB_3.rt,draw_alienStim,draw_alienID,test_x,nrepcount,perfthres,percthres,earlierperf,earlystop,nextPrac,fileidx,praclen,saveACC_train,pracFile,nextPrac_train,addNrep,fileidx_endr,repExp,showearly,gridImage_4.started,startPos.started,movePos.started,key_resp.started,alienImage.started,buttonPress_train,RTchoice_train,cumAcctrain,aCorr,saveACC_choice,corrAns,x_movePos_end,y_movePos_end,key_resp.keys,key_resp.rt,wLy_dir,wLx_dir,x_movePos,y_movePos,text_2.started,text_2.stopped,aft_x_corrPos,aft_y_corrPos,y_pathSize_check,x_pathSize_check,y_pathdirY,x_pathdirY,x_pathdirX,x_corrPos,y_corrPos,gridImage_6.started,alienImageFB_2.started,startPosFB_2.started,movePosFB_2.started,keyFB_2.started,pathLine_xdir.started,pathLine_ydir.started,alienFace.started,sounds_4.started,RT_FBtrain,keyFB_2.keys,keyFB_2.rt,saveACC_pre,ACC,within_saveACC_train,earlystop_wloop,cumAcctrain_check,gridImage_3.started,alienImage_test.started,startPos_test.started,movePos_test.started,key_resp_test.started,wLy_dir_test,wLx_dir_test,buttonPress_test,RTchoice_test,cumAcctest,corrAns_test,key_resp_test.keys,key_resp_test.rt,text_3.started,text_3.stopped,total_time,end_all_time,key_resp_3.keys,slides_2.started,sounds_3.started,nextButton_2.numClicks,nextButton_2.timesOn,nextButton_2.timesOff,prev_but_2.numClicks,prev_but_2.timesOn,prev_but_2.timesOff,bye.started,participant,train_first,00_coordinate,starting corner,date,expName,psychopyVersion,frameRate,
,,,,,,,,,,,,,,,0,0,0,0,0,0,0,0,,,,,,,,,,,,,,,,,,,,,,,,,,,,,start_all_time,testround,conditions/schedules/train_x_first/blue_star_00/bottom_left/instructions/Slide1.png,conditions/schedules/train_x_first/blue_star_00/bottom_left/instructions/Audio1.wav,1844.9054674,1844.8488375200009,1,[5.871631999999863],[5.871639999999843],0,,,,,,,,,,,,,,,,,,,,,,,,,,,,,,,,,,,,,,,,,,,,,,,,,,,,,,,,,,,,,,,,,,,,,,,,,,,,,,,,,,,,,,,,,,,,,,,,,,,,,,,,,,,,,,,,,,,,,,,,,,,,ERWYZ6,train_x,blue_star,bottom_left,2025-05-30_09h22.52.948,HideSeek_v1,2022.2.5,59.91636873241702,
,,,,,,,,,,,,,,,0,0,0,0,1,0,1,0,,,,,,,,,,,,,,,,,,,,,,,,,,,,,,,conditions/schedules/train_x_first/blue_star_00/bottom_left/instructions/Slide2.png,conditions/schedules/train_x_first/blue_star_00/bottom_left/instructions/Audio2.wav,1850.7951767999998,1850.7950505,2,"[5.871631999999863, 17.979365000000143]","[0.0002079000000776432, 17.979371599999922]",0,,,,,,,,,,,,,,,,,,,,,,,,,,,,,,,,,,,,,,,,,,,,,,,,,,,,,,,,,,,,,,,,,,,,,,,,,,,,,,,,,,,,,,,,,,,,,,,,,,,,,,,,,,,,,,,,,,,,,,,,,,,,ERWYZ6,train_x,blue_star,bottom_left,2025-05-30_09h22.52.948,HideSeek_v1,2022.2.5,59.91636873241702,
,,,,,,,,,,,,,,,0,0,0,0,2,0,2,0,,,,,,,,,,,,,,,,,,,,,,,,,,,,,,,conditions/schedules/train_x_first/blue_star_00/bottom_left/instructions/Slide3.png,conditions/schedules/train_x_first/blue_star_00/bottom_left/instructions/Audio3.wav,1868.8632906999997,1868.85925486,3,"[5.871631999999863, 17.979365000000143, 17.05846130000009]","[0.0002079000000776432, 0.01408609999998589, 17.058467600000313]",0,,,,,,,,,,,,,,,,,,,,,,,,,,,,,,,,,,,,,,,,,,,,,,,,,,,,,,,,,,,,,,,,,,,,,,,,,,,,,,,,,,,,,,,,,,,,,,,,,,,,,,,,,,,,,,,,,,,,,,,,,,,,ERWYZ6,train_x,blue_star,bottom_left,2025-05-30_09h22.52.948,HideSeek_v1,2022.2.5,59.91636873241702,
,,,,,,,,,,,,,,,0,0,0,0,3,0,3,0,,,,,,,,,,,,,,,,,,,,,,,,,,,,,,,conditions/schedules/train_x_first/blue_star_00/bottom_left/instructions/Slide4.png,conditions/schedules/train_x_first/blue_star_00/bottom_left/instructions/Audio4.wav,1886.0017319999997,1885.9903672,4,"[5.871631999999863, 17.979365000000143, 17.05846130000009, 19.003008599999703]","[0.0002079000000776432, 0.01408609999998589, 0.0004389999999148131, 19.003018699999757]",0,,,,,,,,,,,,,,,,,,,,,,,,,,,,,,,,,,,,,,,,,,,,,,,,,,,,,,,,,,,,,,,,,,,,,,,,,,,,,,,,,,,,,,,,,,,,,,,,,,,,,,,,,,,,,,,,,,,,,,,,,,,,ERWYZ6,train_x,blue_star,bottom_left,2025-05-30_09h22.52.948,HideSeek_v1,2022.2.5,59.91636873241702,
,,,,,,,,,,,,,,,0,0,0,0,4,0,4,0,,,,,,,,,,,,,,,,,,,,,,,,,,,,,,,conditions/schedules/train_x_first/blue_star_00/bottom_left/instructions/Slide5.png,conditions/schedules/train_x_first/blue_star_00/bottom_left/instructions/Audio5.wav,1905.0697691,1905.05621354,5,"[5.871631999999863, 17.979365000000143, 17.05846130000009, 19.003008599999703, 5.856121499999972]","[0.0002079000000776432, 0.01408609999998589, 0.0004389999999148131, 0.035123399999974936, 5.856128699999772]",0,,,,,,,,,,,,,,,,,,,,,,,,,,,,,,,,,,,,,,,,,,,,,,,,,,,,,,,,,,,,,,,,,,,,,,,,,,,,,,,,,,,,,,,,,,,,,,,,,,,,,,,,,,,,,,,,,,,,,,,,,,,,ERWYZ6,train_x,blue_star,bottom_left,2025-05-30_09h22.52.948,HideSeek_v1,2022.2.5,59.91636873241702,
,,,,,,,,,,,,,,,0,0,0,0,5,0,5,0,,,,,,,,,,,,,,,,,,,,,,,,,,,,,,,conditions/schedules/train_x_first/blue_star_00/bottom_left/instructions/Slide6.png,conditions/schedules/train_x_first/blue_star_00/bottom_left/instructions/Audio6.wav,1910.9776634999998,1910.9778599399997,6,"[5.871631999999863, 17.979365000000143, 17.05846130000009, 19.003008599999703, 5.856121499999972, 4.802219299999706]","[0.0002079000000776432, 0.01408609999998589, 0.0004389999999148131, 0.035123399999974936, 0.03129480000006879, 4.802225999999791]",0,,,,,,,,,,,,,,,,,,,,,,,,,,,,,,,,,,,,,,,,,,,,,,,,,,,,,,,,,,,,,,,,,,,,,,,,,,,,,,,,,,,,,,,,,,,,,,,,,,,,,,,,,,,,,,,,,,,,,,,,,,,,ERWYZ6,train_x,blue_star,bottom_left,2025-05-30_09h22.52.948,HideSeek_v1,2022.2.5,59.91636873241702,
,,,,,,,,,,,,,,,0,0,0,0,6,0,6,0,,,,,,,,,,,,,,,,,,,,,,,,,,,,,,,conditions/schedules/train_x_first/blue_star_00/bottom_left/instructions/Slide7.png,conditions/schedules/train_x_first/blue_star_00/bottom_left/instructions/Audio7.wav,1915.8323372999998,1915.83195454,7,"[5.871631999999863, 17.979365000000143, 17.05846130000009, 19.003008599999703, 5.856121499999972, 4.802219299999706, 5.585467299999891]","[0.0002079000000776432, 0.01408609999998589, 0.0004389999999148131, 0.035123399999974936, 0.03129480000006879, 0.047492599999714, 5.5854739999999765]",0,,,,,,,,,,,,,,,,,,,,,,,,,,,,,,,,,,,,,,,,,,,,,,,,,,,,,,,,,,,,,,,,,,,,,,,,,,,,,,,,,,,,,,,,,,,,,,,,,,,,,,,,,,,,,,,,,,,,,,,,,,,,ERWYZ6,train_x,blue_star,bottom_left,2025-05-30_09h22.52.948,HideSeek_v1,2022.2.5,59.91636873241702,
,,,,,,,,,,,,,,,0,0,0,0,7,0,7,0,,,,,,,,,,,,,,,,,,,,,,,,,,,,,,,conditions/schedules/train_x_first/blue_star_00/bottom_left/instructions/Slide8.png,conditions/schedules/train_x_first/blue_star_00/bottom_left/instructions/Audio8.wav,1921.4709478,1921.46980514,8,"[5.871631999999863, 17.979365000000143, 17.05846130000009, 19.003008599999703, 5.856121499999972, 4.802219299999706, 5.585467299999891, 11.490170999999918]","[0.0002079000000776432, 0.01408609999998589, 0.0004389999999148131, 0.035123399999974936, 0.03129480000006879, 0.047492599999714, 0.06424029999971026, 11.490177299999687]",0,,,,,,,,,,,,,,,,,,,,,,,,,,,,,,,,,,,,,,,,,,,,,,,,,,,,,,,,,,,,,,,,,,,,,,,,,,,,,,,,,,,,,,,,,,,,,,,,,,,,,,,,,,,,,,,,,,,,,,,,,,,,ERWYZ6,train_x,blue_star,bottom_left,2025-05-30_09h22.52.948,HideSeek_v1,2022.2.5,59.91636873241702,
,,,,,,,,,,,,,,,0,0,0,0,8,0,8,0,,,,,,,,,,,,,,,,,,,,,,,,,,,,,,,conditions/schedules/train_x_first/blue_star_00/bottom_left/instructions/Slide9.png,conditions/schedules/train_x_first/blue_star_00/bottom_left/instructions/Audio9.wav,1933.0293770999997,1933.0294697999998,9,"[5.871631999999863, 17.979365000000143, 17.05846130000009, 19.003008599999703, 5.856121499999972, 4.802219299999706, 5.585467299999891, 11.490170999999918, 5.553019899999981]","[0.0002079000000776432, 0.01408609999998589, 0.0004389999999148131, 0.035123399999974936, 0.03129480000006879, 0.047492599999714, 0.06424029999971026, 0.06539519999978438, 5.553026999999929]",0,,,,,,,,,,,,,,,,,,,,,,,,,,,,,,,,,,,,,,,,,,,,,,,,,,,,,,,,,,,,,,,,,,,,,,,,,,,,,,,,,,,,,,,,,,,,,,,,,,,,,,,,,,,,,,,,,,,,,,,,,,,,ERWYZ6,train_x,blue_star,bottom_left,2025-05-30_09h22.52.948,HideSeek_v1,2022.2.5,59.91636873241702,
,,,,,,,,,,,,,,,0,0,0,0,9,0,9,0,,,,,,,,,,,,,,,,,,,,,,,,,,,,,,,conditions/schedules/train_x_first/blue_star_00/bottom_left/instructions/Slide10.png,conditions/schedules/train_x_first/blue_star_00/bottom_left/instructions/Audio10.wav,1938.6195975,1938.6177760799997,10,"[5.871631999999863, 17.979365000000143, 17.05846130000009, 19.003008599999703, 5.856121499999972, 4.802219299999706, 5.585467299999891, 11.490170999999918, 5.553019899999981, 6.818322300000091]","[0.0002079000000776432, 0.01408609999998589, 0.0004389999999148131, 0.035123399999974936, 0.03129480000006879, 0.047492599999714, 0.06424029999971026, 0.06539519999978438, 0.09561329999996815, 6.818329499999891]",0,,,,,,,,,,,,,,,,,,,,,,,,,,,,,,,,,,,,,,,,,,,,,,,,,,,,,,,,,,,,,,,,,,,,,,,,,,,,,,,,,,,,,,,,,,,,,,,,,,,,,,,,,,,,,,,,,,,,,,,,,,,,ERWYZ6,train_x,blue_star,bottom_left,2025-05-30_09h22.52.948,HideSeek_v1,2022.2.5,59.91636873241702,
,,,,,,,,,,,,,,,0,0,0,0,10,0,10,0,,,,,,,,,,,,,,,,,,,,,,,,,,,,,,,conditions/schedules/train_x_first/blue_star_00/bottom_left/instructions/Slide11.png,conditions/schedules/train_x_first/blue_star_00/bottom_left/instructions/Audio11.wav,1945.4943733999999,1945.4898517399997,11,"[5.871631999999863, 17.979365000000143, 17.05846130000009, 19.003008599999703, 5.856121499999972, 4.802219299999706, 5.585467299999891, 11.490170999999918, 5.553019899999981, 6.818322300000091, 9.868138499999986]","[0.0002079000000776432, 0.01408609999998589, 0.0004389999999148131, 0.035123399999974936, 0.03129480000006879, 0.047492599999714, 0.06424029999971026, 0.06539519999978438, 0.09561329999996815, 0.04651799999965078, 9.868145299999924]",0,,,,,,,,,,,,,,,,,,,,,,,,,,,,,,,,,,,,,,,,,,,,,,,,,,,,,,,,,,,,,,,,,,,,,,,,,,,,,,,,,,,,,,,,,,,,,,,,,,,,,,,,,,,,,,,,,,,,,,,,,,,,ERWYZ6,train_x,blue_star,bottom_left,2025-05-30_09h22.52.948,HideSeek_v1,2022.2.5,59.91636873241702,
,,,,,,,,,,,,,,,0,0,0,0,11,0,11,0,,,,,,,,,,,,,,,,,,,,,,,,,,,,,,,conditions/schedules/train_x_first/blue_star_00/bottom_left/instructions/Slide12.png,conditions/schedules/train_x_first/blue_star_00/bottom_left/instructions/Audio12.wav,1955.4187948999997,1955.4146853399998,12,"[5.871631999999863, 17.979365000000143, 17.05846130000009, 19.003008599999703, 5.856121499999972, 4.802219299999706, 5.585467299999891, 11.490170999999918, 5.553019899999981, 6.818322300000091, 9.868138499999986, 12.33750900000041]","[0.0002079000000776432, 0.01408609999998589, 0.0004389999999148131, 0.035123399999974936, 0.03129480000006879, 0.047492599999714, 0.06424029999971026, 0.06539519999978438, 0.09561329999996815, 0.04651799999965078, 0.08079429999997956, 12.337515200000325]",0,,,,,,,,,,,,,,,,,,,,,,,,,,,,,,,,,,,,,,,,,,,,,,,,,,,,,,,,,,,,,,,,,,,,,,,,,,,,,,,,,,,,,,,,,,,,,,,,,,,,,,,,,,,,,,,,,,,,,,,,,,,,ERWYZ6,train_x,blue_star,bottom_left,2025-05-30_09h22.52.948,HideSeek_v1,2022.2.5,59.91636873241702,
1,4,0,9,0,5,0,11,2,instr_dim1_1,,,,,,0,0,0,0,,,,,0,0,0,0,,,,,,,,,,,,,,,,,,,,,,,,,,,,,,,,,,,,,stimuli/alien_stimuli/11.png,conditions/schedules/train_x_first/blue_star_00/bottom_left/inputInstr_1.xlsx,stimuli/alien_stimuli/11.png,1967.8656848,1967.8656848,1967.8656848,1967.8656848,1967.8578376199998,return,10.709624699999836,"[-0.16, -0.08, 0, 0.08, 0.16, 0.24, 0.32, 0.4, 0.48, 0.56]","[-0.4, -0.32, -0.24, -0.16, -0.08, 0, 0.08, 0.16, 0.24, 0.32]",0,0,9,4,0.0,0.4,1978.7590348999997,1978.7590348999997,1978.7590348999997,1978.7590348999997,1978.7590348999997,1978.7590348999997,1978.7590348999997,1978.7499813999998,7.373870999999781,return,7.194010199999752,stimuli/alien_stimuli/11.png,11,4,1,,,,,,,,,,,,,,,,,,,,,,,,,,,,,,,,,,,,,,,,,,,,,,,,,,,,,,,,,,,,,,,,,,,,,,,,,,,,,,,,,,,,,,,,,ERWYZ6,train_x,blue_star,bottom_left,2025-05-30_09h22.52.948,HideSeek_v1,2022.2.5,59.91636873241702,
,,,,,,,,,,,30,,,,0,0,0,0,,,,,,,,,,,,,,,,,,,,,,,,,,,,,,,,,,,,,,,,,,,,,,,,,,,,,,,,,,,,,,,,,,,,,,,,,,,,,,21,0.7,0,0,99,1,30,0,conditions/schedules/train_x_first/blue_star_00/bottom_left/inputTrain_1.1.xlsx,99,1,1,1,0,,,,,,,,,,,,,,,,,,,,,,,,,,,,,,,,,,,,,,,,,,,,,,,,,,,,,,,,,,,,,,,,,,,,,,,,,,,ERWYZ6,train_x,blue_star,bottom_left,2025-05-30_09h22.52.948,HideSeek_v1,2022.2.5,59.91636873241702,
,,,,,,,,,,,,,,,1,0,1,0,0,0,0,0,,,,,,,,,,,,,,,,,,,,,,,,,,,,,,,conditions/schedules/train_x_first/blue_star_00/bottom_left/instructions/Slide13.png,conditions/schedules/train_x_first/blue_star_00/bottom_left/instructions/Audio13.wav,1986.1222116,1986.1226646,13,"[5.871631999999863, 17.979365000000143, 17.05846130000009, 19.003008599999703, 5.856121499999972, 4.802219299999706, 5.585467299999891, 11.490170999999918, 5.553019899999981, 6.818322300000091, 9.868138499999986, 12.33750900000041, 16.979781000000003]","[0.0002079000000776432, 0.01408609999998589, 0.0004389999999148131, 0.035123399999974936, 0.03129480000006879, 0.047492599999714, 0.06424029999971026, 0.06539519999978438, 0.09561329999996815, 0.04651799999965078, 0.08079429999997956, 12.337515200000325, 16.979788500000268]",0,,,,,,,,,,,,,,,,,,,,,,,,,,,,,,,,,,,,,,,,,,,,,,,,,,,,,,,,,,,,,,,,,,,,,,,,,,,,,,,,,,,,,,,,,,,,,,,,,,,,,,,,,,,,,,,,,,,,,,,,,,,,ERWYZ6,train_x,blue_star,bottom_left,2025-05-30_09h22.52.948,HideSeek_v1,2022.2.5,59.91636873241702,
,,,,,,,,,,,,,,,1,0,1,0,1,0,1,0,,,,,,,,,,,,,,,,,,,,,,,,,,,,,,,conditions/schedules/train_x_first/blue_star_00/bottom_left/instructions/Slide14.png,conditions/schedules/train_x_first/blue_star_00/bottom_left/instructions/Audio14.wav,2003.1737908,2003.1707327,14,"[5.871631999999863, 17.979365000000143, 17.05846130000009, 19.003008599999703, 5.856121499999972, 4.802219299999706, 5.585467299999891, 11.490170999999918, 5.553019899999981, 6.818322300000091, 9.868138499999986, 12.33750900000041, 16.979781000000003, 14.140835300000163]","[0.0002079000000776432, 0.01408609999998589, 0.0004389999999148131, 0.035123399999974936, 0.03129480000006879, 0.047492599999714, 0.06424029999971026, 0.06539519999978438, 0.09561329999996815, 0.04651799999965078, 0.08079429999997956, 12.337515200000325, 0.031154400000104943, 14.1408421000001]",0,,,,,,,,,,,,,,,,,,,,,,,,,,,,,,,,,,,,,,,,,,,,,,,,,,,,,,,,,,,,,,,,,,,,,,,,,,,,,,,,,,,,,,,,,,,,,,,,,,,,,,,,,,,,,,,,,,,,,,,,,,,,ERWYZ6,train_x,blue_star,bottom_left,2025-05-30_09h22.52.948,HideSeek_v1,2022.2.5,59.91636873241702,
2,3,2,3,2,0,0,61,2,instr_dim1_1,,,,,,1,0,1,0,,,,,0,0,0,0,,,,,,,,,,,,,,,,,,,,,,,,,,,,,,,,,,,,,stimuli/alien_stimuli/61.png,conditions/schedules/train_x_first/blue_star_00/bottom_left/inputInstr_1.xlsx,stimuli/alien_stimuli/61.png,2017.4205769999999,2017.4205769999999,2017.4205769999999,2017.4205769999999,2017.41565622,return,6.271641000000159,"[-0.16, -0.08, 0, 0.08, 0.16, 0.24, 0.32, 0.4, 0.48, 0.56]","[-0.4, -0.32, -0.24, -0.16, -0.08, 0, 0.08, 0.16, 0.24, 0.32]",2,2,3,3,0.0,0.0,2023.8612000999997,2023.8612000999997,2023.8612000999997,2023.8612000999997,2023.8612000999997,2023.8612000999997,2023.8612000999997,2023.8375083799997,6.773630700000012,return,6.6162140999998655,stimuli/alien_stimuli/61.png,61,3,2,,,,,,,,,,,,,,,,,,,,,,,,,,,,,,,,,,,,,,,,,,,,,,,,,,,,,,,,,,,,,,,,,,,,,,,,,,,,,,,,,,,,,,,,,ERWYZ6,train_x,blue_star,bottom_left,2025-05-30_09h22.52.948,HideSeek_v1,2022.2.5,59.91636873241702,
,,,,,,,,,,,30,,,,1,0,1,0,,,,,,,,,,,,,,,,,,,,,,,,,,,,,,,,,,,,,,,,,,,,,,,,,,,,,,,,,,,,,,,,,,,,,,,,,,,,,,21,0.7,0,0,99,1,30,0,conditions/schedules/train_x_first/blue_star_00/bottom_left/inputTrain_1.1.xlsx,99,1,1,1,0,,,,,,,,,,,,,,,,,,,,,,,,,,,,,,,,,,,,,,,,,,,,,,,,,,,,,,,,,,,,,,,,,,,,,,,,,,,ERWYZ6,train_x,blue_star,bottom_left,2025-05-30_09h22.52.948,HideSeek_v1,2022.2.5,59.91636873241702,
,,,,,,,,,,,,,,,2,0,2,0,0,0,0,0,,,,,,,,,,,,,,,,,,,,,,,,,,,,,,,conditions/schedules/train_x_first/blue_star_00/bottom_left/instructions/Slide15.png,conditions/schedules/train_x_first/blue_star_00/bottom_left/instructions/Audio15.wav,2030.6317374,2030.6263919399998,15,"[5.871631999999863, 17.979365000000143, 17.05846130000009, 19.003008599999703, 5.856121499999972, 4.802219299999706, 5.585467299999891, 11.490170999999918, 5.553019899999981, 6.818322300000091, 9.868138499999986, 12.33750900000041, 16.979781000000003, 14.140835300000163, 31.220105700000204]","[0.0002079000000776432, 0.01408609999998589, 0.0004389999999148131, 0.035123399999974936, 0.03129480000006879, 0.047492599999714, 0.06424029999971026, 0.06539519999978438, 0.09561329999996815, 0.04651799999965078, 0.08079429999997956, 12.337515200000325, 0.031154400000104943, 14.1408421000001, 31.220114300000205]",0,,,,,,,,,,,,,,,,,,,,,,,,,,,,,,,,,,,,,,,,,,,,,,,,,,,,,,,,,,,,,,,,,,,,,,,,,,,,,,,,,,,,,,,,,,,,,,,,,,,,,,,,,,,,,,,,,,,,,,,,,,,,ERWYZ6,train_x,blue_star,bottom_left,2025-05-30_09h22.52.948,HideSeek_v1,2022.2.5,59.91636873241702,
,,,,,,,,,,,,,,,2,0,2,0,1,0,1,0,,,,,,,,,,,,,,,,,,,,,,,,,,,,,,,conditions/schedules/train_x_first/blue_star_00/bottom_left/instructions/Slide16.png,conditions/schedules/train_x_first/blue_star_00/bottom_left/instructions/Audio16.wav,2061.9281639,2061.9194712,16,"[5.871631999999863, 17.979365000000143, 17.05846130000009, 19.003008599999703, 5.856121499999972, 4.802219299999706, 5.585467299999891, 11.490170999999918, 5.553019899999981, 6.818322300000091, 9.868138499999986, 12.33750900000041, 16.979781000000003, 14.140835300000163, 31.220105700000204, 22.641512499999862]","[0.0002079000000776432, 0.01408609999998589, 0.0004389999999148131, 0.035123399999974936, 0.03129480000006879, 0.047492599999714, 0.06424029999971026, 0.06539519999978438, 0.09561329999996815, 0.04651799999965078, 0.08079429999997956, 12.337515200000325, 0.031154400000104943, 14.1408421000001, 0.013843100000030972, 22.64151899999979]",0,,,,,,,,,,,,,,,,,,,,,,,,,,,,,,,,,,,,,,,,,,,,,,,,,,,,,,,,,,,,,,,,,,,,,,,,,,,,,,,,,,,,,,,,,,,,,,,,,,,,,,,,,,,,,,,,,,,,,,,,,,,,ERWYZ6,train_x,blue_star,bottom_left,2025-05-30_09h22.52.948,HideSeek_v1,2022.2.5,59.91636873241702,
,2,1,5,1,3,0,31,,train_dim1_1,1,30,,,,2,0,2,0,,,,,,,,,0,0,0,0,0,0,0,0,0,0,0,0,,,,,,,,,,,,,,,,,,,,,,,,,stimuli/alien_stimuli/31.png,,,,,,,,,,,,,,,,,,,,,,,,,,,,,,,,,,,,,,,30,,,,,,,,2084.6678392,2084.6678392,2084.6678392,2084.6678392,2084.6678392,right,10.836946499999613,0,0,0,99,0.08,-0.32,right,10.740178299999911,,,,,,,,,,,,,,,,,,,,,,,,,,,,,,,,,,,,,,,,,,,,,,,,,,,,,,,,,,,,ERWYZ6,train_x,blue_star,bottom_left,2025-05-30_09h22.52.948,HideSeek_v1,2022.2.5,59.91636873241702,
,2,1,5,1,3,0,31,,train_dim1_1,1,30,,,,2,0,2,0,,,,,,,,,0,0,0,0,0,0,0,0,1,0,1,0,,,,,,,,,,,,,,,,,,,,,,,,,,,,,,,,,,,,,,,,,,,,,,,,,,,,,,,,,,,,,,,,30,,,,,,,,2095.5141988,2095.5141988,2095.5141988,2095.5141988,2095.5141988,right,0.8264276000004429,0,0,0,99,0.16,-0.32,right,0.7280866999998352,,,,,,,,,,,,,,,,,,,,,,,,,,,,,,,,,,,,,,,,,,,,,,,,,,,,,,,,,,,,ERWYZ6,train_x,blue_star,bottom_left,2025-05-30_09h22.52.948,HideSeek_v1,2022.2.5,59.91636873241702,
,2,1,5,1,3,0,31,,train_dim1_1,1,30,,,,2,0,2,0,,,,,,,,,0,0,0,0,0,0,0,0,2,0,2,0,,,,,,,,,,,,,,,,,,,,,,,,,,,,,,,,,,,,,,,,,,,,,,,,,,,,,,,,,,,,,,,,30,,,,,,,,2096.3286415,2096.3286415,2096.3286415,2096.3286415,2096.3286415,right,0.9771653000002516,0,0,0,99,0.24,-0.32,right,0.8950660999997808,,,,,,,,,,,,,,,,,,,,,,,,,,,,,,,,,,,,,,,,,,,,,,,,,,,,,,,,,,,,ERWYZ6,train_x,blue_star,bottom_left,2025-05-30_09h22.52.948,HideSeek_v1,2022.2.5,59.91636873241702,
,2,1,5,1,3,0,31,,train_dim1_1,1,30,,,,2,0,2,0,,,,,,,,,0,0,0,0,0,0,0,0,3,0,3,0,,,,,,,,,,,,,,,,,,,,,,,,,,,,,,,,,,,,,,,,,,,,,,,,,,,,,,,,,,,,,,,,30,,,,,,,,2097.3129951,2097.3129951,2097.3129951,2097.3129951,2097.3129951,right,0.5934136000000763,0,0,0,99,0.32,-0.32,right,0.5092443000002049,,,,,,,,,,,,,,,,,,,,,,,,,,,,,,,,,,,,,,,,,,,,,,,,,,,,,,,,,,,,ERWYZ6,train_x,blue_star,bottom_left,2025-05-30_09h22.52.948,HideSeek_v1,2022.2.5,59.91636873241702,
,2,1,5,1,3,0,31,,train_dim1_1,1,30,,,,2,0,2,0,,,,,,,,,0,0,0,0,0,0,0,0,4,0,4,0,,,,,,,,,,,,,,,,,,,,,,,,,,,,,,,,,,,,,,,,,,,,,,,,,,,,,,,,,,,,,,,,30,,,,,,,,2097.9141744999997,2097.9141744999997,2097.9141744999997,2097.9141744999997,2097.9141744999997,right,0.44314170000006925,0,0,0,99,0.4,-0.32,right,0.36026829999980237,,,,,,,,,,,,,,,,,,,,,,,,,,,,,,,,,,,,,,,,,,,,,,,,,,,,,,,,,,,,ERWYZ6,train_x,blue_star,bottom_left,2025-05-30_09h22.52.948,HideSeek_v1,2022.2.5,59.91636873241702,
,2,1,5,1,3,0,31,,train_dim1_1,1,30,,,,2,0,2,0,,,,,,,,,0,0,0,0,0,0,0,0,5,0,5,0,,,,,,,,,,,,,,,,,,,,,,,,,,,,,,,,,,,,,,,,,,,,,,,,,,,,,,,,,,,,,,,,30,,,,,,,,2098.3635437999997,2098.3635437999997,2098.3635437999997,2098.3635437999997,2098.3635437999997,right,0.5768319999997402,0,0,0,99,0.48000000000000004,-0.32,right,0.49977789999991273,,,,,,,,,,,,,,,,,,,,,,,,,,,,,,,,,,,,,,,,,,,,,,,,,,,,,,,,,,,,ERWYZ6,train_x,blue_star,bottom_left,2025-05-30_09h22.52.948,HideSeek_v1,2022.2.5,59.91636873241702,
,2,1,5,1,3,0,31,,train_dim1_1,1,30,,,,2,0,2,0,,,,,,,,,0,0,0,0,0,0,0,0,6,0,6,0,,,,,,,,,,,,,,,,,,,,,,,,,,,,,,,,,,,,,,,,,,,,,,,,,,,,,,,,,,,,,,,,30,,,,,,,,2098.947781,2098.947781,2098.947781,2098.947781,2098.947781,down,1.4610430000002452,0,0,0,99,0.48000000000000004,-0.4,down,1.3835910000001377,,,,,,,,,,,,,,,,,,,,,,,,,,,,,,,,,,,,,,,,,,,,,,,,,,,,,,,,,,,,ERWYZ6,train_x,blue_star,bottom_left,2025-05-30_09h22.52.948,HideSeek_v1,2022.2.5,59.91636873241702,
,2,1,5,1,3,0,31,,train_dim1_1,1,30,,,,2,0,2,0,,,,,,,,,0,0,0,0,0,0,0,0,7,0,7,0,,,,,,,,,,,,,,,,,,,,,,,,,,,,,,,,,,,,,,,,,,,,,,,,,,,,,,,,,,,,,,,,30,,,,,,,,2100.4153793,2100.4153793,2100.4153793,2100.4153793,2100.4153793,return,1.1605687999999645,0,0,0,0,0.48000000000000004,-0.4,return,1.073808399999848,-1,6,0.48000000000000004,-0.4,,,,,,,,,,,,,,,,,,,,,,,,,,,,,,,,,,,,,,,,,,,,,,,,,,,,,,,,ERWYZ6,train_x,blue_star,bottom_left,2025-05-30_09h22.52.948,HideSeek_v1,2022.2.5,59.91636873241702,
,2,4,7,4,5,0,11,,train_dim1_1,2,30,,,,2,0,2,0,,,,,,,,,0,0,0,0,0,1,1,1,0,0,0,0,,,,,,,,,,,,,,,,,,,,,,,,,stimuli/alien_stimuli/11.png,,,,,,,,,,,,,,,,,,,,,,,,,,,,,stimuli/alien_stimuli/31.png,31,2,3,,,,,,,30,,,,,,,,2131.7088997,2131.7088997,2131.7088997,2131.7088997,2131.7088997,right,4.272526199999902,0,0,0,99,0.08,-0.08,right,4.162554700000214,,,,,2130.1267660999997,2131.7088997,0.24,-0.32,0.0,0.24,-0.32,0.24,0.12,0.24,-0.32,2103.1489796,2103.1489796,2103.1489796,2103.1489796,2103.1489796,2103.1489796,2103.1489796,2103.1489796,2103.13694502,27.091355999999905,return,26.956235499999707,,,,,,,,,,,,,,,,,,,,,,,,,,,,,,,,,ERWYZ6,train_x,blue_star,bottom_left,2025-05-30_09h22.52.948,HideSeek_v1,2022.2.5,59.91636873241702,
,2,4,7,4,5,0,11,,train_dim1_1,2,30,,,,2,0,2,0,,,,,,,,,0,0,0,0,0,1,1,1,1,0,1,0,,,,,,,,,,,,,,,,,,,,,,,,,,,,,,,,,,,,,,,,,,,,,,,,,,,,,,,,,,,,,,,,30,,,,,,,,2135.9661923,2135.9661923,2135.9661923,2135.9661923,2135.9661923,right,1.6606094000003395,0,0,0,99,0.16,-0.08,right,1.5830740000000105,,,,,,,,,,,,,,,,,,,,,,,,,,,,,,,,,,,,,,,,,,,,,,,,,,,,,,,,,,,,ERWYZ6,train_x,blue_star,bottom_left,2025-05-30_09h22.52.948,HideSeek_v1,2022.2.5,59.91636873241702,
,2,4,7,4,5,0,11,,train_dim1_1,2,30,,,,2,0,2,0,,,,,,,,,0,0,0,0,0,1,1,1,2,0,2,0,,,,,,,,,,,,,,,,,,,,,,,,,,,,,,,,,,,,,,,,,,,,,,,,,,,,,,,,,,,,,,,,30,,,,,,,,2137.6338904,2137.6338904,2137.6338904,2137.6338904,2137.6338904,right,0.6933179000002383,0,0,0,99,0.24,-0.08,right,0.603482500000041,,,,,,,,,,,,,,,,,,,,,,,,,,,,,,,,,,,,,,,,,,,,,,,,,,,,,,,,,,,,ERWYZ6,train_x,blue_star,bottom_left,2025-05-30_09h22.52.948,HideSeek_v1,2022.2.5,59.91636873241702,
,2,4,7,4,5,0,11,,train_dim1_1,2,30,,,,2,0,2,0,,,,,,,,,0,0,0,0,0,1,1,1,3,0,3,0,,,,,,,,,,,,,,,,,,,,,,,,,,,,,,,,,,,,,,,,,,,,,,,,,,,,,,,,,,,,,,,,30,,,,,,,,2138.3338215999997,2138.3338215999997,2138.3338215999997,2138.3338215999997,2138.3338215999997,return,1.09374680000019,0,0,0,0,0.24,-0.08,return,1.0040423999997756,-1,9,0.24,-0.08,,,,,,,,,,,,,,,,,,,,,,,,,,,,,,,,,,,,,,,,,,,,,,,,,,,,,,,,ERWYZ6,train_x,blue_star,bottom_left,2025-05-30_09h22.52.948,HideSeek_v1,2022.2.5,59.91636873241702,
,4,4,8,4,4,0,21,,train_dim1_1,3,30,,,,2,0,2,0,,,,,,,,,0,0,0,0,0,2,2,2,0,0,0,0,,,,,,,,,,,,,,,,,,,,,,,,,stimuli/alien_stimuli/21.png,,,,,,,,,,,,,,,,,,,,,,,,,,,,,stimuli/alien_stimuli/11.png,11,2,4,,,,,,,30,,,,,,,,2177.1819163,2177.1819163,2177.1819163,2177.1819163,2177.1819163,right,19.92077530000006,0,0,0,99,0.24,-0.08,right,19.8146688999999,,,,,2175.5979684,2177.1819163,0.4,-0.08,0.0,0.4,-0.08,0.4,0.2,0.4,-0.08,2140.9963328999997,2140.9963328999997,2140.9963328999997,2140.9963328999997,2140.9963328999997,2140.9963328999997,2140.9963328999997,2140.9963328999997,2140.98486972,34.71487339999976,return,34.580419100000086,,,,,,,,,,,,,,,,,,,,,,,,,,,,,,,,,ERWYZ6,train_x,blue_star,bottom_left,2025-05-30_09h22.52.948,HideSeek_v1,2022.2.5,59.91636873241702,
,4,4,8,4,4,0,21,,train_dim1_1,3,30,,,,2,0,2,0,,,,,,,,,0,0,0,0,0,2,2,2,1,0,1,0,,,,,,,,,,,,,,,,,,,,,,,,,,,,,,,,,,,,,,,,,,,,,,,,,,,,,,,,,,,,,,,,30,,,,,,,,2197.1018561,2197.1018561,2197.1018561,2197.1018561,2197.1018561,right,0.6264578999998776,0,0,0,99,0.32,-0.08,right,0.5170489000000771,,,,,,,,,,,,,,,,,,,,,,,,,,,,,,,,,,,,,,,,,,,,,,,,,,,,,,,,,,,,ERWYZ6,train_x,blue_star,bottom_left,2025-05-30_09h22.52.948,HideSeek_v1,2022.2.5,59.91636873241702,
,4,4,8,4,4,0,21,,train_dim1_1,3,30,,,,2,0,2,0,,,,,,,,,0,0,0,0,0,2,2,2,2,0,2,0,,,,,,,,,,,,,,,,,,,,,,,,,,,,,,,,,,,,,,,,,,,,,,,,,,,,,,,,,,,,,,,,30,,,,,,,,2197.7165861999997,2197.7165861999997,2197.7165861999997,2197.7165861999997,2197.7165861999997,right,0.6935346000000209,0,0,0,99,0.4,-0.08,right,0.6069671999997581,,,,,,,,,,,,,,,,,,,,,,,,,,,,,,,,,,,,,,,,,,,,,,,,,,,,,,,,,,,,ERWYZ6,train_x,blue_star,bottom_left,2025-05-30_09h22.52.948,HideSeek_v1,2022.2.5,59.91636873241702,
,4,4,8,4,4,0,21,,train_dim1_1,3,30,,,,2,0,2,0,,,,,,,,,0,0,0,0,0,2,2,2,3,0,3,0,,,,,,,,,,,,,,,,,,,,,,,,,,,,,,,,,,,,,,,,,,,,,,,,,,,,,,,,,,,,,,,,30,,,,,,,,2198.417282,2198.417282,2198.417282,2198.417282,2198.417282,right,0.44328760000007605,0,0,0,99,0.48000000000000004,-0.08,right,0.3532499000001508,,,,,,,,,,,,,,,,,,,,,,,,,,,,,,,,,,,,,,,,,,,,,,,,,,,,,,,,,,,,ERWYZ6,train_x,blue_star,bottom_left,2025-05-30_09h22.52.948,HideSeek_v1,2022.2.5,59.91636873241702,
,4,4,8,4,4,0,21,,train_dim1_1,3,30,,,,2,0,2,0,,,,,,,,,0,0,0,0,0,2,2,2,4,0,4,0,,,,,,,,,,,,,,,,,,,,,,,,,,,,,,,,,,,,,,,,,,,,,,,,,,,,,,,,,,,,,,,,30,,,,,,,,2198.8687726999997,2198.8687726999997,2198.8687726999997,2198.8687726999997,2198.8687726999997,return,0.760008199999902,1,0,0,1,0.48000000000000004,-0.08,return,0.6678891000000249,-1,13,0.48000000000000004,-0.08,,,,,,,,,,,,,,,,,,,,,,,,,,,,,,,,,,,,,,,,,,,,,,,,,,,,,,,,ERWYZ6,train_x,blue_star,bottom_left,2025-05-30_09h22.52.948,HideSeek_v1,2022.2.5,59.91636873241702,
,2,3,3,3,1,0,51,,train_dim1_1,4,30,,,,2,0,2,0,,,,,,,,,0,0,0,0,0,3,3,3,0,0,0,0,,,,,,,,,,,,,,,,,,,,,,,,,stimuli/alien_stimuli/51.png,,,,,,,,,,,,,,,,,,,,,,,,,,,,,stimuli/alien_stimuli/21.png,21,4,5,,,,,,,30,,,,,,,,2205.7519291999997,2205.7519291999997,2205.7519291999997,2205.7519291999997,2205.7519291999997,right,2.8564684999996643,1,0,0,99,0.08,-0.16,right,2.762886400000184,,,,,2204.1883525,2205.7519291999997,0.48,-0.08,0.0,0.32,-0.08,0.48,0.32,0.48,-0.08,2201.2202479,2201.2202479,2201.2202479,2201.2202479,2201.2202479,2201.2202479,2201.2202479,2201.2202479,2201.20137928,3.1047060000000783,return,2.935950899999966,,,,,,,,,,,,,,,,,,,,,,,,,,,,,,,,,ERWYZ6,train_x,blue_star,bottom_left,2025-05-30_09h22.52.948,HideSeek_v1,2022.2.5,59.91636873241702,
,2,3,3,3,1,0,51,,train_dim1_1,4,30,,,,2,0,2,0,,,,,,,,,0,0,0,0,0,3,3,3,1,0,1,0,,,,,,,,,,,,,,,,,,,,,,,,,,,,,,,,,,,,,,,,,,,,,,,,,,,,,,,,,,,,,,,,30,,,,,,,,2208.6077424,2208.6077424,2208.6077424,2208.6077424,2208.6077424,right,0.6265044000001581,1,0,0,99,0.16,-0.16,right,0.5462715000002163,,,,,,,,,,,,,,,,,,,,,,,,,,,,,,,,,,,,,,,,,,,,,,,,,,,,,,,,,,,,ERWYZ6,train_x,blue_star,bottom_left,2025-05-30_09h22.52.948,HideSeek_v1,2022.2.5,59.91636873241702,
,2,3,3,3,1,0,51,,train_dim1_1,4,30,,,,2,0,2,0,,,,,,,,,0,0,0,0,0,3,3,3,2,0,2,0,,,,,,,,,,,,,,,,,,,,,,,,,,,,,,,,,,,,,,,,,,,,,,,,,,,,,,,,,,,,,,,,30,,,,,,,,2209.2411362999997,2209.2411362999997,2209.2411362999997,2209.2411362999997,2209.2411362999997,return,1.4106563000000278,1,1,0,0,0.16,-0.16,return,1.335541100000114,-1,15,0.16,-0.16,,,,,,,,,,,,,,,,,,,,,,,,,,,,,,,,,,,,,,,,,,,,,,,,,,,,,,,,ERWYZ6,train_x,blue_star,bottom_left,2025-05-30_09h22.52.948,HideSeek_v1,2022.2.5,59.91636873241702,
,0,2,0,2,0,0,61,,train_dim1_1,5,30,,,,2,0,2,0,,,,,,,,,0,0,0,0,0,4,4,4,0,0,0,0,,,,,,,,,,,,,,,,,,,,,,,,,stimuli/alien_stimuli/61.png,,,,,,,,,,,,,,,,,,,,,,,,,,,,,stimuli/alien_stimuli/51.png,51,2,6,,,,,,,30,,,,,,,,2217.5070828,2217.5070828,2217.5070828,2217.5070828,2217.5070828,right,3.924923200000194,1,1,0,99,-0.08,-0.24,right,3.834073400000193,,,,,2215.9482209,2217.5070828,0.08,-0.16,0.0,0.08,-0.16,0.08,0.04,0.08,-0.16,2212.2359836,2212.2359836,2212.2359836,2212.2359836,2212.2359836,2212.2359836,2212.2359836,2212.2359836,2212.2270505799997,3.8388347000000067,return,3.6900516000004018,,,,,,,,,,,,,,,,,,,,,,,,,,,,,,,,,ERWYZ6,train_x,blue_star,bottom_left,2025-05-30_09h22.52.948,HideSeek_v1,2022.2.5,59.91636873241702,
,0,2,0,2,0,0,61,,train_dim1_1,5,30,,,,2,0,2,0,,,,,,,,,0,0,0,0,0,4,4,4,1,0,1,0,,,,,,,,,,,,,,,,,,,,,,,,,,,,,,,,,,,,,,,,,,,,,,,,,,,,,,,,,,,,,,,,30,,,,,,,,2221.4332609999997,2221.4332609999997,2221.4332609999997,2221.4332609999997,2221.4332609999997,right,0.692427299999963,1,1,0,99,0.0,-0.24,right,0.6116340000002083,,,,,,,,,,,,,,,,,,,,,,,,,,,,,,,,,,,,,,,,,,,,,,,,,,,,,,,,,,,,ERWYZ6,train_x,blue_star,bottom_left,2025-05-30_09h22.52.948,HideSeek_v1,2022.2.5,59.91636873241702,
,0,2,0,2,0,0,61,,train_dim1_1,5,30,,,,2,0,2,0,,,,,,,,,0,0,0,0,0,4,4,4,2,0,2,0,,,,,,,,,,,,,,,,,,,,,,,,,,,,,,,,,,,,,,,,,,,,,,,,,,,,,,,,,,,,,,,,30,,,,,,,,2222.1338542,2222.1338542,2222.1338542,2222.1338542,2222.1338542,return,1.877619599999889,1,0,0,0,0.0,-0.24,return,1.800030700000093,-1,17,0.0,-0.24,,,,,,,,,,,,,,,,,,,,,,,,,,,,,,,,,,,,,,,,,,,,,,,,,,,,,,,,ERWYZ6,train_x,blue_star,bottom_left,2025-05-30_09h22.52.948,HideSeek_v1,2022.2.5,59.91636873241702,
,0,0,4,0,4,0,21,,train_dim1_1,6,30,,,,2,0,2,0,,,,,,,,,0,0,0,0,0,5,5,5,0,0,0,0,,,,,,,,,,,,,,,,,,,,,,,,,stimuli/alien_stimuli/21.png,,,,,,,,,,,,,,,,,,,,,,,,,,,,,stimuli/alien_stimuli/61.png,61,0,7,,,,,,,30,,,,,,,,2229.7151896,2229.7151896,2229.7151896,2229.7151896,2229.7151896,right,2.507862400000249,1,0,0,99,-0.08,-0.4,right,2.4004755999998224,,,,,2228.1415643,2229.7151896,-0.16,-0.24,0.0,0.0,-0.24,-0.16,-0.16,-0.16,-0.24,2225.5892856,2225.5892856,2225.5892856,2225.5892856,2225.5892856,2225.5892856,2225.5892856,2225.5892856,2225.57163652,2.670866500000102,return,2.5330913999999893,,,,,,,,,,,,,,,,,,,,,,,,,,,,,,,,,ERWYZ6,train_x,blue_star,bottom_left,2025-05-30_09h22.52.948,HideSeek_v1,2022.2.5,59.91636873241702,
,0,0,4,0,4,0,21,,train_dim1_1,6,30,,,,2,0,2,0,,,,,,,,,0,0,0,0,0,5,5,5,1,0,1,0,,,,,,,,,,,,,,,,,,,,,,,,,,,,,,,,,,,,,,,,,,,,,,,,,,,,,,,,,,,,,,,,30,,,,,,,,2232.2128057,2232.2128057,2232.2128057,2232.2128057,2232.2128057,right,0.47631959999989704,1,0,0,99,0.0,-0.4,right,0.39179920000003676,,,,,,,,,,,,,,,,,,,,,,,,,,,,,,,,,,,,,,,,,,,,,,,,,,,,,,,,,,,,ERWYZ6,train_x,blue_star,bottom_left,2025-05-30_09h22.52.948,HideSeek_v1,2022.2.5,59.91636873241702,
,0,0,4,0,4,0,21,,train_dim1_1,6,30,,,,2,0,2,0,,,,,,,,,0,0,0,0,0,5,5,5,2,0,2,0,,,,,,,,,,,,,,,,,,,,,,,,,,,,,,,,,,,,,,,,,,,,,,,,,,,,,,,,,,,,,,,,30,,,,,,,,2232.6954514,2232.6954514,2232.6954514,2232.6954514,2232.6954514,right,0.3934446999996908,1,0,0,99,0.08,-0.4,right,0.3168057000001454,,,,,,,,,,,,,,,,,,,,,,,,,,,,,,,,,,,,,,,,,,,,,,,,,,,,,,,,,,,,ERWYZ6,train_x,blue_star,bottom_left,2025-05-30_09h22.52.948,HideSeek_v1,2022.2.5,59.91636873241702,
,0,0,4,0,4,0,21,,train_dim1_1,6,30,,,,2,0,2,0,,,,,,,,,0,0,0,0,0,5,5,5,3,0,3,0,,,,,,,,,,,,,,,,,,,,,,,,,,,,,,,,,,,,,,,,,,,,,,,,,,,,,,,,,,,,,,,,30,,,,,,,,2233.0961198,2233.0961198,2233.0961198,2233.0961198,2233.0961198,right,0.3932875000000422,1,0,0,99,0.16,-0.4,right,0.3013325999999097,,,,,,,,,,,,,,,,,,,,,,,,,,,,,,,,,,,,,,,,,,,,,,,,,,,,,,,,,,,,ERWYZ6,train_x,blue_star,bottom_left,2025-05-30_09h22.52.948,HideSeek_v1,2022.2.5,59.91636873241702,
,0,0,4,0,4,0,21,,train_dim1_1,6,30,,,,2,0,2,0,,,,,,,,,0,0,0,0,0,5,5,5,4,0,4,0,,,,,,,,,,,,,,,,,,,,,,,,,,,,,,,,,,,,,,,,,,,,,,,,,,,,,,,,,,,,,,,,30,,,,,,,,2233.4957461999998,2233.4957461999998,2233.4957461999998,2233.4957461999998,2233.4957461999998,return,0.8770002999999633,2,0,0,1,0.16,-0.4,return,0.7904612000000952,-1,21,0.16,-0.4,,,,,,,,,,,,,,,,,,,,,,,,,,,,,,,,,,,,,,,,,,,,,,,,,,,,,,,,ERWYZ6,train_x,blue_star,bottom_left,2025-05-30_09h22.52.948,HideSeek_v1,2022.2.5,59.91636873241702,
,3,0,3,0,0,0,61,,train_dim1_1,7,30,,,,2,0,2,0,,,,,,,,,0,0,0,0,0,6,6,6,0,0,0,0,,,,,,,,,,,,,,,,,,,,,,,,,stimuli/alien_stimuli/61.png,,,,,,,,,,,,,,,,,,,,,,,,,,,,,stimuli/alien_stimuli/21.png,21,0,8,,,,,,,30,,,,,,,,2240.1775276,2240.1775276,2240.1775276,2240.1775276,2240.1775276,right,1.1550734999996166,2,0,0,99,0.16,-0.4,right,1.0676188000001048,,,,,2238.6170829999996,2240.1775276,0.16,-0.4,0.0,0.32,-0.4,0.16,0.0,0.16,-0.4,2235.9432361,2235.9432361,2235.9432361,2235.9432361,2235.9432361,2235.9432361,2235.9432361,2235.9432361,2235.93042802,2.7882102000003215,return,2.650778999999943,,,,,,,,,,,,,,,,,,,,,,,,,,,,,,,,,ERWYZ6,train_x,blue_star,bottom_left,2025-05-30_09h22.52.948,HideSeek_v1,2022.2.5,59.91636873241702,
,3,0,3,0,0,0,61,,train_dim1_1,7,30,,,,2,0,2,0,,,,,,,,,0,0,0,0,0,6,6,6,1,0,1,0,,,,,,,,,,,,,,,,,,,,,,,,,,,,,,,,,,,,,,,,,,,,,,,,,,,,,,,,,,,,,,,,30,,,,,,,,2241.3327526,2241.3327526,2241.3327526,2241.3327526,2241.3327526,right,0.6763872999999876,2,0,0,99,0.24,-0.4,right,0.5892247000000452,,,,,,,,,,,,,,,,,,,,,,,,,,,,,,,,,,,,,,,,,,,,,,,,,,,,,,,,,,,,ERWYZ6,train_x,blue_star,bottom_left,2025-05-30_09h22.52.948,HideSeek_v1,2022.2.5,59.91636873241702,
,3,0,3,0,0,0,61,,train_dim1_1,7,30,,,,2,0,2,0,,,,,,,,,0,0,0,0,0,6,6,6,2,0,2,0,,,,,,,,,,,,,,,,,,,,,,,,,,,,,,,,,,,,,,,,,,,,,,,,,,,,,,,,,,,,,,,,30,,,,,,,,2242.0161482,2242.0161482,2242.0161482,2242.0161482,2242.0161482,return,1.9776941999998598,2,0,0,0,0.24,-0.4,return,1.9050571999999875,-1,23,0.24,-0.4,,,,,,,,,,,,,,,,,,,,,,,,,,,,,,,,,,,,,,,,,,,,,,,,,,,,,,,,ERWYZ6,train_x,blue_star,bottom_left,2025-05-30_09h22.52.948,HideSeek_v1,2022.2.5,59.91636873241702,
,0,4,3,4,3,0,31,,train_dim1_1,8,30,,,,2,0,2,0,,,,,,,,,0,0,0,0,0,7,7,7,0,0,0,0,,,,,,,,,,,,,,,,,,,,,,,,,stimuli/alien_stimuli/31.png,,,,,,,,,,,,,,,,,,,,,,,,,,,,,stimuli/alien_stimuli/61.png,61,3,9,,,,,,,30,,,,,,,,2249.3332514,2249.3332514,2249.3332514,2249.3332514,2249.3332514,right,1.0362518000001728,2,0,0,99,-0.08,-0.08,right,0.933582999999885,,,,,2247.7576009,2249.3332514,0.08,-0.4,0.0,0.0,-0.4,0.08,0.08,0.08,-0.4,2245.5768264,2245.5768264,2245.5768264,2245.5768264,2245.5768264,2245.5768264,2245.5768264,2245.5768264,2245.55504362,2.3039050000002135,return,2.152868800000192,,,,,,,,,,,,,,,,,,,,,,,,,,,,,,,,,ERWYZ6,train_x,blue_star,bottom_left,2025-05-30_09h22.52.948,HideSeek_v1,2022.2.5,59.91636873241702,
,0,4,3,4,3,0,31,,train_dim1_1,8,30,,,,2,0,2,0,,,,,,,,,0,0,0,0,0,7,7,7,1,0,1,0,,,,,,,,,,,,,,,,,,,,,,,,,,,,,,,,,,,,,,,,,,,,,,,,,,,,,,,,,,,,,,,,30,,,,,,,,2250.3575674,2250.3575674,2250.3575674,2250.3575674,2250.3575674,right,0.42583250000006956,2,0,0,99,0.0,-0.08,right,0.34724290000019664,,,,,,,,,,,,,,,,,,,,,,,,,,,,,,,,,,,,,,,,,,,,,,,,,,,,,,,,,,,,ERWYZ6,train_x,blue_star,bottom_left,2025-05-30_09h22.52.948,HideSeek_v1,2022.2.5,59.91636873241702,
,0,4,3,4,3,0,31,,train_dim1_1,8,30,,,,2,0,2,0,,,,,,,,,0,0,0,0,0,7,7,7,2,0,2,0,,,,,,,,,,,,,,,,,,,,,,,,,,,,,,,,,,,,,,,,,,,,,,,,,,,,,,,,,,,,,,,,30,,,,,,,,2250.7899110999997,2250.7899110999997,2250.7899110999997,2250.7899110999997,2250.7899110999997,right,0.47690479999982927,2,0,0,99,0.08,-0.08,right,0.39580070000045,,,,,,,,,,,,,,,,,,,,,,,,,,,,,,,,,,,,,,,,,,,,,,,,,,,,,,,,,,,,ERWYZ6,train_x,blue_star,bottom_left,2025-05-30_09h22.52.948,HideSeek_v1,2022.2.5,59.91636873241702,
,0,4,3,4,3,0,31,,train_dim1_1,8,30,,,,2,0,2,0,,,,,,,,,0,0,0,0,0,7,7,7,3,0,3,0,,,,,,,,,,,,,,,,,,,,,,,,,,,,,,,,,,,,,,,,,,,,,,,,,,,,,,,,,,,,,,,,30,,,,,,,,2251.2749227,2251.2749227,2251.2749227,2251.2749227,2251.2749227,return,0.6932033000002775,3,0,0,1,0.08,-0.08,return,0.6128976999997349,-1,26,0.08,-0.08,,,,,,,,,,,,,,,,,,,,,,,,,,,,,,,,,,,,,,,,,,,,,,,,,,,,,,,,ERWYZ6,train_x,blue_star,bottom_left,2025-05-30_09h22.52.948,HideSeek_v1,2022.2.5,59.91636873241702,
,1,0,2,0,1,0,51,,train_dim1_1,9,30,,,,2,0,2,0,,,,,,,,,0,0,0,0,0,8,8,8,0,0,0,0,,,,,,,,,,,,,,,,,,,,,,,,,stimuli/alien_stimuli/51.png,,,,,,,,,,,,,,,,,,,,,,,,,,,,,stimuli/alien_stimuli/31.png,31,0,10,,,,,,,30,,,,,,,,2258.5639401,2258.5639401,2258.5639401,2258.5639401,2258.5639401,return,3.2544192999998813,3,1,0,0,-0.08,-0.4,return,3.171666800000253,-1,26,-0.08,-0.4,2256.9987567,2258.5639401,0.08,-0.08,0.0,0.24,-0.08,0.08,-0.04,0.08,-0.08,2253.5331819999997,2253.5331819999997,2253.5331819999997,2253.5331819999997,2253.5331819999997,2253.5331819999997,2253.5331819999997,2253.5331819999997,2253.5117194599998,3.571636000000126,return,3.445093499999871,,,,,,,,,,,,,,,,,,,,,,,,,,,,,,,,,ERWYZ6,train_x,blue_star,bottom_left,2025-05-30_09h22.52.948,HideSeek_v1,2022.2.5,59.91636873241702,
,0,3,5,3,5,0,11,,train_dim1_1,10,30,,,,2,0,2,0,,,,,,,,,0,0,0,0,0,9,9,9,0,0,0,0,,,,,,,,,,,,,,,,,,,,,,,,,stimuli/alien_stimuli/11.png,,,,,,,,,,,,,,,,,,,,,,,,,,,,,stimuli/alien_stimuli/51.png,51,1,11,,,,,,,30,,,,,,,,2266.9700006999997,2266.9700006999997,2266.9700006999997,2266.9700006999997,2266.9700006999997,right,0.9726084000003539,3,1,0,99,-0.08,-0.16,right,0.8660927999998194,,,,,2265.3887961,2266.9700006999997,0,-0.4,0.0,0.08,-0.4,0,-0.04,0,-0.4,2263.3773204999998,2263.3773204999998,2263.3773204999998,2263.3773204999998,2263.3773204999998,2263.3773204999998,2263.3773204999998,2263.3773204999998,2263.36974142,2.1206959000001007,return,1.9859645000000228,,,,,,,,,,,,,,,,,,,,,,,,,,,,,,,,,ERWYZ6,train_x,blue_star,bottom_left,2025-05-30_09h22.52.948,HideSeek_v1,2022.2.5,59.91636873241702,
,0,3,5,3,5,0,11,,train_dim1_1,10,30,,,,2,0,2,0,,,,,,,,,0,0,0,0,0,9,9,9,1,0,1,0,,,,,,,,,,,,,,,,,,,,,,,,,,,,,,,,,,,,,,,,,,,,,,,,,,,,,,,,,,,,,,,,30,,,,,,,,2267.9259948999998,2267.9259948999998,2267.9259948999998,2267.9259948999998,2267.9259948999998,right,0.3425515999997515,3,1,0,99,0.0,-0.16,right,0.2663369999999077,,,,,,,,,,,,,,,,,,,,,,,,,,,,,,,,,,,,,,,,,,,,,,,,,,,,,,,,,,,,ERWYZ6,train_x,blue_star,bottom_left,2025-05-30_09h22.52.948,HideSeek_v1,2022.2.5,59.91636873241702,
,0,3,5,3,5,0,11,,train_dim1_1,10,30,,,,2,0,2,0,,,,,,,,,0,0,0,0,0,9,9,9,2,0,2,0,,,,,,,,,,,,,,,,,,,,,,,,,,,,,,,,,,,,,,,,,,,,,,,,,,,,,,,,,,,,,,,,30,,,,,,,,2268.275436,2268.275436,2268.275436,2268.275436,2268.275436,return,0.5934634999998707,3,0,0,0,0.0,-0.16,return,0.5043457000000444,-1,28,0.0,-0.16,,,,,,,,,,,,,,,,,,,,,,,,,,,,,,,,,,,,,,,,,,,,,,,,,,,,,,,,ERWYZ6,train_x,blue_star,bottom_left,2025-05-30_09h22.52.948,HideSeek_v1,2022.2.5,59.91636873241702,
,2,2,5,2,3,0,31,,train_dim1_1,11,30,,,,2,0,2,0,,,,,,,,,0,0,0,0,0,10,10,10,0,0,0,0,,,,,,,,,,,,,,,,,,,,,,,,,stimuli/alien_stimuli/31.png,,,,,,,,,,,,,,,,,,,,,,,,,,,,,stimuli/alien_stimuli/11.png,11,0,12,,,,,,,30,,,,,,,,2273.8994061,2273.8994061,2273.8994061,2273.8994061,2273.8994061,right,1.6550715000003038,3,0,0,99,0.08,-0.24,right,1.5569908000001078,,,,,2272.3281635,2273.8994061,0.24,-0.16,0.0,0.4,-0.16,0.24,0.039999999999999994,0.24,-0.16,2270.4329456,2270.4329456,2270.4329456,2270.4329456,2270.4329456,2270.4329456,2270.4329456,2270.4329456,2270.42593142,2.003496699999687,return,1.8665846000002375,,,,,,,,,,,,,,,,,,,,,,,,,,,,,,,,,ERWYZ6,train_x,blue_star,bottom_left,2025-05-30_09h22.52.948,HideSeek_v1,2022.2.5,59.91636873241702,
,2,2,5,2,3,0,31,,train_dim1_1,11,30,,,,2,0,2,0,,,,,,,,,0,0,0,0,0,10,10,10,1,0,1,0,,,,,,,,,,,,,,,,,,,,,,,,,,,,,,,,,,,,,,,,,,,,,,,,,,,,,,,,,,,,,,,,30,,,,,,,,2275.5441791,2275.5441791,2275.5441791,2275.5441791,2275.5441791,right,0.4261944999998377,3,0,0,99,0.16,-0.24,right,0.34887749999995776,,,,,,,,,,,,,,,,,,,,,,,,,,,,,,,,,,,,,,,,,,,,,,,,,,,,,,,,,,,,ERWYZ6,train_x,blue_star,bottom_left,2025-05-30_09h22.52.948,HideSeek_v1,2022.2.5,59.91636873241702,
,2,2,5,2,3,0,31,,train_dim1_1,11,30,,,,2,0,2,0,,,,,,,,,0,0,0,0,0,10,10,10,2,0,2,0,,,,,,,,,,,,,,,,,,,,,,,,,,,,,,,,,,,,,,,,,,,,,,,,,,,,,,,,,,,,,,,,30,,,,,,,,2275.97779,2275.97779,2275.97779,2275.97779,2275.97779,right,0.34304440000005343,3,0,0,99,0.24,-0.24,right,0.26889310000012756,,,,,,,,,,,,,,,,,,,,,,,,,,,,,,,,,,,,,,,,,,,,,,,,,,,,,,,,,,,,ERWYZ6,train_x,blue_star,bottom_left,2025-05-30_09h22.52.948,HideSeek_v1,2022.2.5,59.91636873241702,
,2,2,5,2,3,0,31,,train_dim1_1,11,30,,,,2,0,2,0,,,,,,,,,0,0,0,0,0,10,10,10,3,0,3,0,,,,,,,,,,,,,,,,,,,,,,,,,,,,,,,,,,,,,,,,,,,,,,,,,,,,,,,,,,,,,,,,30,,,,,,,,2276.3290038,2276.3290038,2276.3290038,2276.3290038,2276.3290038,return,0.6099904000002425,4,0,0,1,0.24,-0.24,return,0.5324040000003833,-1,31,0.24,-0.24,,,,,,,,,,,,,,,,,,,,,,,,,,,,,,,,,,,,,,,,,,,,,,,,,,,,,,,,ERWYZ6,train_x,blue_star,bottom_left,2025-05-30_09h22.52.948,HideSeek_v1,2022.2.5,59.91636873241702,
,0,0,4,0,4,0,21,,train_dim1_1,12,30,,,,2,0,2,0,,,,,,,,,0,0,0,0,0,11,11,11,0,0,0,0,,,,,,,,,,,,,,,,,,,,,,,,,stimuli/alien_stimuli/21.png,,,,,,,,,,,,,,,,,,,,,,,,,,,,,stimuli/alien_stimuli/31.png,31,2,13,,,,,,,30,,,,,,,,2281.8539201,2281.8539201,2281.8539201,2281.8539201,2281.8539201,right,1.6360482000000047,4,0,0,99,-0.08,-0.4,right,1.532975699999838,,,,,2280.267969,2281.8539201,0.24,-0.24,0.0,0.24,-0.24,0.24,0.12,0.24,-0.24,2278.5037482999996,2278.5037482999996,2278.5037482999996,2278.5037482999996,2278.5037482999996,2278.5037482999996,2278.5037482999996,2278.5037482999996,2278.48243066,1.870676999999887,return,1.7448149999999032,,,,,,,,,,,,,,,,,,,,,,,,,,,,,,,,,ERWYZ6,train_x,blue_star,bottom_left,2025-05-30_09h22.52.948,HideSeek_v1,2022.2.5,59.91636873241702,
,0,0,4,0,4,0,21,,train_dim1_1,12,30,,,,2,0,2,0,,,,,,,,,0,0,0,0,0,11,11,11,1,0,1,0,,,,,,,,,,,,,,,,,,,,,,,,,,,,,,,,,,,,,,,,,,,,,,,,,,,,,,,,,,,,,,,,30,,,,,,,,2283.4723469,2283.4723469,2283.4723469,2283.4723469,2283.4723469,right,0.37607719999959954,4,0,0,99,0.0,-0.4,right,0.2882887000004075,,,,,,,,,,,,,,,,,,,,,,,,,,,,,,,,,,,,,,,,,,,,,,,,,,,,,,,,,,,,ERWYZ6,train_x,blue_star,bottom_left,2025-05-30_09h22.52.948,HideSeek_v1,2022.2.5,59.91636873241702,
,0,0,4,0,4,0,21,,train_dim1_1,12,30,,,,2,0,2,0,,,,,,,,,0,0,0,0,0,11,11,11,2,0,2,0,,,,,,,,,,,,,,,,,,,,,,,,,,,,,,,,,,,,,,,,,,,,,,,,,,,,,,,,,,,,,,,,30,,,,,,,,2283.8554884,2283.8554884,2283.8554884,2283.8554884,2283.8554884,right,0.44331590000001597,4,0,0,99,0.08,-0.4,right,0.35069259999988844,,,,,,,,,,,,,,,,,,,,,,,,,,,,,,,,,,,,,,,,,,,,,,,,,,,,,,,,,,,,ERWYZ6,train_x,blue_star,bottom_left,2025-05-30_09h22.52.948,HideSeek_v1,2022.2.5,59.91636873241702,
,0,0,4,0,4,0,21,,train_dim1_1,12,30,,,,2,0,2,0,,,,,,,,,0,0,0,0,0,11,11,11,3,0,3,0,,,,,,,,,,,,,,,,,,,,,,,,,,,,,,,,,,,,,,,,,,,,,,,,,,,,,,,,,,,,,,,,30,,,,,,,,2284.3053528,2284.3053528,2284.3053528,2284.3053528,2284.3053528,right,1.0106265999997959,4,0,0,99,0.16,-0.4,right,0.9321867000002158,,,,,,,,,,,,,,,,,,,,,,,,,,,,,,,,,,,,,,,,,,,,,,,,,,,,,,,,,,,,ERWYZ6,train_x,blue_star,bottom_left,2025-05-30_09h22.52.948,HideSeek_v1,2022.2.5,59.91636873241702,
,0,0,4,0,4,0,21,,train_dim1_1,12,30,,,,2,0,2,0,,,,,,,,,0,0,0,0,0,11,11,11,4,0,4,0,,,,,,,,,,,,,,,,,,,,,,,,,,,,,,,,,,,,,,,,,,,,,,,,,,,,,,,,,,,,,,,,30,,,,,,,,2285.3239696,2285.3239696,2285.3239696,2285.3239696,2285.3239696,return,0.4597446999996464,5,0,0,1,0.16,-0.4,return,0.3671960000000354,-1,35,0.16,-0.4,,,,,,,,,,,,,,,,,,,,,,,,,,,,,,,,,,,,,,,,,,,,,,,,,,,,,,,,ERWYZ6,train_x,blue_star,bottom_left,2025-05-30_09h22.52.948,HideSeek_v1,2022.2.5,59.91636873241702,
,0,4,1,4,1,0,51,,train_dim1_1,13,30,,,,2,0,2,0,,,,,,,,,0,0,0,0,0,12,12,12,0,0,0,0,,,,,,,,,,,,,,,,,,,,,,,,,stimuli/alien_stimuli/51.png,,,,,,,,,,,,,,,,,,,,,,,,,,,,,stimuli/alien_stimuli/21.png,21,0,14,,,,,,,30,,,,,,,,2290.4000960999997,2290.4000960999997,2290.4000960999997,2290.4000960999997,2290.4000960999997,return,2.1569172999998045,5,1,0,0,-0.16,-0.08,return,2.051200799999947,-1,35,-0.16,-0.08,2288.8251837,2290.4000960999997,0.16,-0.4,0.0,0.32,-0.4,0.16,0.0,0.16,-0.4,2287.3490895,2287.3490895,2287.3490895,2287.3490895,2287.3490895,2287.3490895,2287.3490895,2287.3490895,2287.33943632,1.5875678000002154,return,1.4585229000002755,,,,,,,,,,,,,,,,,,,,,,,,,,,,,,,,,ERWYZ6,train_x,blue_star,bottom_left,2025-05-30_09h22.52.948,HideSeek_v1,2022.2.5,59.91636873241702,
,4,3,9,3,5,0,11,,train_dim1_1,14,30,,,,2,0,2,0,,,,,,,,,0,0,0,0,0,13,13,13,0,0,0,0,,,,,,,,,,,,,,,,,,,,,,,,,stimuli/alien_stimuli/11.png,,,,,,,,,,,,,,,,,,,,,,,,,,,,,stimuli/alien_stimuli/51.png,51,0,15,,,,,,,30,,,,,,,,2297.096342,2297.096342,2297.096342,2297.096342,2297.096342,right,1.2714897000000747,5,1,0,99,0.24,-0.16,right,1.173784800000135,,,,,2295.5307588,2297.096342,-0.08,-0.08,0.0,0.08,-0.08,-0.08,-0.12,-0.08,-0.08,2294.1039048,2294.1039048,2294.1039048,2294.1039048,2294.1039048,2294.1039048,2294.1039048,2294.1039048,2294.09528892,1.5365154999999504,return,1.4029807000000574,,,,,,,,,,,,,,,,,,,,,,,,,,,,,,,,,ERWYZ6,train_x,blue_star,bottom_left,2025-05-30_09h22.52.948,HideSeek_v1,2022.2.5,59.91636873241702,
,4,3,9,3,5,0,11,,train_dim1_1,14,30,,,,2,0,2,0,,,,,,,,,0,0,0,0,0,13,13,13,1,0,1,0,,,,,,,,,,,,,,,,,,,,,,,,,,,,,,,,,,,,,,,,,,,,,,,,,,,,,,,,,,,,,,,,30,,,,,,,,2298.3672536999998,2298.3672536999998,2298.3672536999998,2298.3672536999998,2298.3672536999998,right,0.6097368000000642,5,1,0,99,0.32,-0.16,right,0.5192500000001701,,,,,,,,,,,,,,,,,,,,,,,,,,,,,,,,,,,,,,,,,,,,,,,,,,,,,,,,,,,,ERWYZ6,train_x,blue_star,bottom_left,2025-05-30_09h22.52.948,HideSeek_v1,2022.2.5,59.91636873241702,
,4,3,9,3,5,0,11,,train_dim1_1,14,30,,,,2,0,2,0,,,,,,,,,0,0,0,0,0,13,13,13,2,0,2,0,,,,,,,,,,,,,,,,,,,,,,,,,,,,,,,,,,,,,,,,,,,,,,,,,,,,,,,,,,,,,,,,30,,,,,,,,2298.9842744,2298.9842744,2298.9842744,2298.9842744,2298.9842744,right,0.6435104000001957,5,1,0,99,0.4,-0.16,right,0.5595590000001494,,,,,,,,,,,,,,,,,,,,,,,,,,,,,,,,,,,,,,,,,,,,,,,,,,,,,,,,,,,,ERWYZ6,train_x,blue_star,bottom_left,2025-05-30_09h22.52.948,HideSeek_v1,2022.2.5,59.91636873241702,
,4,3,9,3,5,0,11,,train_dim1_1,14,30,,,,2,0,2,0,,,,,,,,,0,0,0,0,0,13,13,13,3,0,3,0,,,,,,,,,,,,,,,,,,,,,,,,,,,,,,,,,,,,,,,,,,,,,,,,,,,,,,,,,,,,,,,,30,,,,,,,,2299.634161,2299.634161,2299.634161,2299.634161,2299.634161,return,1.8944903000001432,5,0,0,0,0.4,-0.16,return,1.803882999999928,-1,38,0.4,-0.16,,,,,,,,,,,,,,,,,,,,,,,,,,,,,,,,,,,,,,,,,,,,,,,,,,,,,,,,ERWYZ6,train_x,blue_star,bottom_left,2025-05-30_09h22.52.948,HideSeek_v1,2022.2.5,59.91636873241702,
,4,2,4,2,0,0,61,,train_dim1_1,15,30,,,,2,0,2,0,,,,,,,,,0,0,0,0,0,14,14,14,0,0,0,0,,,,,,,,,,,,,,,,,,,,,,,,,stimuli/alien_stimuli/61.png,,,,,,,,,,,,,,,,,,,,,,,,,,,,,stimuli/alien_stimuli/11.png,11,4,16,,,,,,,30,,,,,,,,2306.2505075999998,2306.2505075999998,2306.2505075999998,2306.2505075999998,2306.2505075999998,right,1.63888309999993,5,0,0,99,0.24,-0.24,right,1.5299103000000969,,,,,2304.6717532,2306.2505075999998,0.56,-0.16,0.0,0.4,-0.16,0.56,0.36000000000000004,0.56,-0.16,2303.0973958,2303.0973958,2303.0973958,2303.0973958,2303.0973958,2303.0973958,2303.0973958,2303.0973958,2303.0859876199997,1.687007999999878,return,1.5562757000001284,,,,,,,,,,,,,,,,,,,,,,,,,,,,,,,,,ERWYZ6,train_x,blue_star,bottom_left,2025-05-30_09h22.52.948,HideSeek_v1,2022.2.5,59.91636873241702,
,4,2,4,2,0,0,61,,train_dim1_1,15,30,,,,2,0,2,0,,,,,,,,,0,0,0,0,0,14,14,14,1,0,1,0,,,,,,,,,,,,,,,,,,,,,,,,,,,,,,,,,,,,,,,,,,,,,,,,,,,,,,,,,,,,,,,,30,,,,,,,,2307.871004,2307.871004,2307.871004,2307.871004,2307.871004,left,2.160934100000304,5,0,0,99,0.15999999999999998,-0.24,left,2.087864799999693,,,,,,,,,,,,,,,,,,,,,,,,,,,,,,,,,,,,,,,,,,,,,,,,,,,,,,,,,,,,ERWYZ6,train_x,blue_star,bottom_left,2025-05-30_09h22.52.948,HideSeek_v1,2022.2.5,59.91636873241702,
,4,2,4,2,0,0,61,,train_dim1_1,15,30,,,,2,0,2,0,,,,,,,,,0,0,0,0,0,14,14,14,2,0,2,0,,,,,,,,,,,,,,,,,,,,,,,,,,,,,,,,,,,,,,,,,,,,,,,,,,,,,,,,,,,,,,,,30,,,,,,,,2310.0409848,2310.0409848,2310.0409848,2310.0409848,2310.0409848,return,0.8914617000000362,6,0,0,1,0.15999999999999998,-0.24,return,0.8055447000000413,-1,38,0.15999999999999998,-0.24,,,,,,,,,,,,,,,,,,,,,,,,,,,,,,,,,,,,,,,,,,,,,,,,,,,,,,,,ERWYZ6,train_x,blue_star,bottom_left,2025-05-30_09h22.52.948,HideSeek_v1,2022.2.5,59.91636873241702,
,3,3,4,3,1,0,51,,train_dim1_1,16,30,,,,2,0,2,0,,,,,,,,,0,0,0,0,0,15,15,15,0,0,0,0,,,,,,,,,,,,,,,,,,,,,,,,,stimuli/alien_stimuli/51.png,,,,,,,,,,,,,,,,,,,,,,,,,,,,,stimuli/alien_stimuli/61.png,61,4,17,,,,,,,30,,,,,,,,2315.5713736999996,2315.5713736999996,2315.5713736999996,2315.5713736999996,2315.5713736999996,right,1.941030800000135,6,0,0,99,0.16,-0.16,right,1.8406066000001147,,,,,2313.9960259,2315.5713736999996,0.16,-0.24,0.0,0.0,-0.24,0.16,0.16,0.16,-0.24,2312.4938809,2312.4938809,2312.4938809,2312.4938809,2312.4938809,2312.4938809,2312.4938809,2312.4938809,2312.47758896,1.6035329000001184,return,1.4792145999998638,,,,,,,,,,,,,,,,,,,,,,,,,,,,,,,,,ERWYZ6,train_x,blue_star,bottom_left,2025-05-30_09h22.52.948,HideSeek_v1,2022.2.5,59.91636873241702,
,3,3,4,3,1,0,51,,train_dim1_1,16,30,,,,2,0,2,0,,,,,,,,,0,0,0,0,0,15,15,15,1,0,1,0,,,,,,,,,,,,,,,,,,,,,,,,,,,,,,,,,,,,,,,,,,,,,,,,,,,,,,,,,,,,,,,,30,,,,,,,,2317.4984925999997,2317.4984925999997,2317.4984925999997,2317.4984925999997,2317.4984925999997,right,0.5595711000000847,6,0,0,99,0.24,-0.16,right,0.4791291999998748,,,,,,,,,,,,,,,,,,,,,,,,,,,,,,,,,,,,,,,,,,,,,,,,,,,,,,,,,,,,ERWYZ6,train_x,blue_star,bottom_left,2025-05-30_09h22.52.948,HideSeek_v1,2022.2.5,59.91636873241702,
,3,3,4,3,1,0,51,,train_dim1_1,16,30,,,,2,0,2,0,,,,,,,,,0,0,0,0,0,15,15,15,2,0,2,0,,,,,,,,,,,,,,,,,,,,,,,,,,,,,,,,,,,,,,,,,,,,,,,,,,,,,,,,,,,,,,,,30,,,,,,,,2318.065761,2318.065761,2318.065761,2318.065761,2318.065761,return,1.194226599999638,6,1,0,0,0.24,-0.16,return,1.1182388000000856,-1,40,0.24,-0.16,,,,,,,,,,,,,,,,,,,,,,,,,,,,,,,,,,,,,,,,,,,,,,,,,,,,,,,,ERWYZ6,train_x,blue_star,bottom_left,2025-05-30_09h22.52.948,HideSeek_v1,2022.2.5,59.91636873241702,
,2,4,6,4,4,0,21,,train_dim1_1,17,30,,,,2,0,2,0,,,,,,,,,0,0,0,0,0,16,16,16,0,0,0,0,,,,,,,,,,,,,,,,,,,,,,,,,stimuli/alien_stimuli/21.png,,,,,,,,,,,,,,,,,,,,,,,,,,,,,stimuli/alien_stimuli/51.png,51,3,18,,,,,,,30,,,,,,,,2323.8469956,2323.8469956,2323.8469956,2323.8469956,2323.8469956,right,0.9726488999999674,6,1,0,99,0.08,-0.08,right,0.869587099999876,,,,,2322.2696837999997,2323.8469956,0.16,-0.16,0.0,0.08,-0.16,0.16,0.12,0.16,-0.16,2320.8272266,2320.8272266,2320.8272266,2320.8272266,2320.8272266,2320.8272266,2320.8272266,2320.8272266,2320.8174943199997,1.5533461999998508,return,1.4176783999999998,,,,,,,,,,,,,,,,,,,,,,,,,,,,,,,,,ERWYZ6,train_x,blue_star,bottom_left,2025-05-30_09h22.52.948,HideSeek_v1,2022.2.5,59.91636873241702,
,2,4,6,4,4,0,21,,train_dim1_1,17,30,,,,2,0,2,0,,,,,,,,,0,0,0,0,0,16,16,16,1,0,1,0,,,,,,,,,,,,,,,,,,,,,,,,,,,,,,,,,,,,,,,,,,,,,,,,,,,,,,,,,,,,,,,,30,,,,,,,,2324.8059051,2324.8059051,2324.8059051,2324.8059051,2324.8059051,right,0.42591270000002623,6,1,0,99,0.16,-0.08,right,0.34170620000020335,,,,,,,,,,,,,,,,,,,,,,,,,,,,,,,,,,,,,,,,,,,,,,,,,,,,,,,,,,,,ERWYZ6,train_x,blue_star,bottom_left,2025-05-30_09h22.52.948,HideSeek_v1,2022.2.5,59.91636873241702,
,2,4,6,4,4,0,21,,train_dim1_1,17,30,,,,2,0,2,0,,,,,,,,,0,0,0,0,0,16,16,16,2,0,2,0,,,,,,,,,,,,,,,,,,,,,,,,,,,,,,,,,,,,,,,,,,,,,,,,,,,,,,,,,,,,,,,,30,,,,,,,,2325.2392249,2325.2392249,2325.2392249,2325.2392249,2325.2392249,right,0.7269474999998238,6,1,0,99,0.24,-0.08,right,0.6483947000000398,,,,,,,,,,,,,,,,,,,,,,,,,,,,,,,,,,,,,,,,,,,,,,,,,,,,,,,,,,,,ERWYZ6,train_x,blue_star,bottom_left,2025-05-30_09h22.52.948,HideSeek_v1,2022.2.5,59.91636873241702,
,2,4,6,4,4,0,21,,train_dim1_1,17,30,,,,2,0,2,0,,,,,,,,,0,0,0,0,0,16,16,16,3,0,3,0,,,,,,,,,,,,,,,,,,,,,,,,,,,,,,,,,,,,,,,,,,,,,,,,,,,,,,,,,,,,,,,,30,,,,,,,,2325.9724324999997,2325.9724324999997,2325.9724324999997,2325.9724324999997,2325.9724324999997,right,0.49353000000019165,6,1,0,99,0.32,-0.08,right,0.4171058000000585,,,,,,,,,,,,,,,,,,,,,,,,,,,,,,,,,,,,,,,,,,,,,,,,,,,,,,,,,,,,ERWYZ6,train_x,blue_star,bottom_left,2025-05-30_09h22.52.948,HideSeek_v1,2022.2.5,59.91636873241702,
,2,4,6,4,4,0,21,,train_dim1_1,17,30,,,,2,0,2,0,,,,,,,,,0,0,0,0,0,16,16,16,4,0,4,0,,,,,,,,,,,,,,,,,,,,,,,,,,,,,,,,,,,,,,,,,,,,,,,,,,,,,,,,,,,,,,,,30,,,,,,,,2326.4732882999997,2326.4732882999997,2326.4732882999997,2326.4732882999997,2326.4732882999997,return,1.1774243999998362,7,0,0,1,0.32,-0.08,return,1.090462999999886,-1,44,0.32,-0.08,,,,,,,,,,,,,,,,,,,,,,,,,,,,,,,,,,,,,,,,,,,,,,,,,,,,,,,,ERWYZ6,train_x,blue_star,bottom_left,2025-05-30_09h22.52.948,HideSeek_v1,2022.2.5,59.91636873241702,
,2,1,2,1,0,0,61,,train_dim1_1,18,30,,,,2,0,2,0,,,,,,,,,0,0,0,0,0,17,17,17,0,0,0,0,,,,,,,,,,,,,,,,,,,,,,,,,stimuli/alien_stimuli/61.png,,,,,,,,,,,,,,,,,,,,,,,,,,,,,stimuli/alien_stimuli/21.png,21,2,19,,,,,,,30,,,,,,,,2331.9003672999997,2331.9003672999997,2331.9003672999997,2331.9003672999997,2331.9003672999997,return,1.4727296999999453,8,0,0,1,0,-0.32,return,1.3690579000002572,-1,44,0,-0.32,2330.3264437999997,2331.9003672999997,0.32,-0.08,0.0,0.32,-0.08,0.32,0.16,0.32,-0.08,2329.2161453,2329.2161453,2329.2161453,2329.2161453,2329.2161453,2329.2161453,2329.2161453,2329.2161453,2329.20777572,1.2199531999999635,return,1.0869284999997717,,,,,,,,,,,,,,,,,,,,,,,,,,,,,,,,,ERWYZ6,train_x,blue_star,bottom_left,2025-05-30_09h22.52.948,HideSeek_v1,2022.2.5,59.91636873241702,
,0,3,3,3,3,0,31,,train_dim1_1,19,30,,,,2,0,2,0,,,,,,,,,0,0,0,0,0,18,18,18,0,0,0,0,,,,,,,,,,,,,,,,,,,,,,,,,stimuli/alien_stimuli/31.png,,,,,,,,,,,,,,,,,,,,,,,,,,,,,stimuli/alien_stimuli/61.png,61,2,20,,,,,,,30,,,,,,,,2337.9756082,2337.9756082,2337.9756082,2337.9756082,2337.9756082,right,1.2547323999997388,8,0,0,99,-0.08,-0.16,right,1.1621469000000388,,,,,2336.4147223,2337.9756082,0,-0.32,0.0,0.0,-0.32,0,0.0,0,-0.32,2334.9135937,2334.9135937,2334.9135937,2334.9135937,2334.9135937,2334.9135937,2334.9135937,2334.9135937,2334.89588036,1.603587399999924,return,1.4775285000004033,,,,,,,,,,,,,,,,,,,,,,,,,,,,,,,,,ERWYZ6,train_x,blue_star,bottom_left,2025-05-30_09h22.52.948,HideSeek_v1,2022.2.5,59.91636873241702,
,0,3,3,3,3,0,31,,train_dim1_1,19,30,,,,2,0,2,0,,,,,,,,,0,0,0,0,0,18,18,18,1,0,1,0,,,,,,,,,,,,,,,,,,,,,,,,,,,,,,,,,,,,,,,,,,,,,,,,,,,,,,,,,,,,,,,,30,,,,,,,,2339.2303457,2339.2303457,2339.2303457,2339.2303457,2339.2303457,right,0.45938099999966653,8,0,0,99,0.0,-0.16,right,0.3748316000004479,,,,,,,,,,,,,,,,,,,,,,,,,,,,,,,,,,,,,,,,,,,,,,,,,,,,,,,,,,,,ERWYZ6,train_x,blue_star,bottom_left,2025-05-30_09h22.52.948,HideSeek_v1,2022.2.5,59.91636873241702,
,0,3,3,3,3,0,31,,train_dim1_1,19,30,,,,2,0,2,0,,,,,,,,,0,0,0,0,0,18,18,18,2,0,2,0,,,,,,,,,,,,,,,,,,,,,,,,,,,,,,,,,,,,,,,,,,,,,,,,,,,,,,,,,,,,,,,,30,,,,,,,,2339.6972557999998,2339.6972557999998,2339.6972557999998,2339.6972557999998,2339.6972557999998,right,0.8270793000001504,8,0,0,99,0.08,-0.16,right,0.7508131999996976,,,,,,,,,,,,,,,,,,,,,,,,,,,,,,,,,,,,,,,,,,,,,,,,,,,,,,,,,,,,ERWYZ6,train_x,blue_star,bottom_left,2025-05-30_09h22.52.948,HideSeek_v1,2022.2.5,59.91636873241702,
,0,3,3,3,3,0,31,,train_dim1_1,19,30,,,,2,0,2,0,,,,,,,,,0,0,0,0,0,18,18,18,3,0,3,0,,,,,,,,,,,,,,,,,,,,,,,,,,,,,,,,,,,,,,,,,,,,,,,,,,,,,,,,,,,,,,,,30,,,,,,,,2340.5313272,2340.5313272,2340.5313272,2340.5313272,2340.5313272,right,0.7767919000002621,8,0,0,99,0.16,-0.16,right,0.6934139999997342,,,,,,,,,,,,,,,,,,,,,,,,,,,,,,,,,,,,,,,,,,,,,,,,,,,,,,,,,,,,ERWYZ6,train_x,blue_star,bottom_left,2025-05-30_09h22.52.948,HideSeek_v1,2022.2.5,59.91636873241702,
,0,3,3,3,3,0,31,,train_dim1_1,19,30,,,,2,0,2,0,,,,,,,,,0,0,0,0,0,18,18,18,4,0,4,0,,,,,,,,,,,,,,,,,,,,,,,,,,,,,,,,,,,,,,,,,,,,,,,,,,,,,,,,,,,,,,,,30,,,,,,,,2341.3152302999997,2341.3152302999997,2341.3152302999997,2341.3152302999997,2341.3152302999997,return,0.47690730000022086,8,1,0,0,0.16,-0.16,return,0.3989224000000604,-1,48,0.16,-0.16,,,,,,,,,,,,,,,,,,,,,,,,,,,,,,,,,,,,,,,,,,,,,,,,,,,,,,,,ERWYZ6,train_x,blue_star,bottom_left,2025-05-30_09h22.52.948,HideSeek_v1,2022.2.5,59.91636873241702,
,0,1,5,1,5,0,11,,train_dim1_1,20,30,,,,2,0,2,0,,,,,,,,,0,0,0,0,0,19,19,19,0,0,0,0,,,,,,,,,,,,,,,,,,,,,,,,,stimuli/alien_stimuli/11.png,,,,,,,,,,,,,,,,,,,,,,,,,,,,,stimuli/alien_stimuli/31.png,31,0,21,,,,,,,30,,,,,,,,2346.3511478,2346.3511478,2346.3511478,2346.3511478,2346.3511478,right,1.4071933999998691,8,1,0,99,-0.08,-0.32,right,1.3018925000000081,,,,,2344.7716929,2346.3511478,0.08,-0.16,0.0,0.24,-0.16,0.08,-0.04,0.08,-0.16,2343.3538507999997,2343.3538507999997,2343.3538507999997,2343.3538507999997,2343.3538507999997,2343.3538507999997,2343.3538507999997,2343.3538507999997,2343.33621616,1.5199424000002182,return,1.3901263000001336,,,,,,,,,,,,,,,,,,,,,,,,,,,,,,,,,ERWYZ6,train_x,blue_star,bottom_left,2025-05-30_09h22.52.948,HideSeek_v1,2022.2.5,59.91636873241702,
,0,1,5,1,5,0,11,,train_dim1_1,20,30,,,,2,0,2,0,,,,,,,,,0,0,0,0,0,19,19,19,1,0,1,0,,,,,,,,,,,,,,,,,,,,,,,,,,,,,,,,,,,,,,,,,,,,,,,,,,,,,,,,,,,,,,,,30,,,,,,,,2347.7432581999997,2347.7432581999997,2347.7432581999997,2347.7432581999997,2347.7432581999997,right,0.5762979000000996,8,1,0,99,0.0,-0.32,right,0.49286289999997734,,,,,,,,,,,,,,,,,,,,,,,,,,,,,,,,,,,,,,,,,,,,,,,,,,,,,,,,,,,,ERWYZ6,train_x,blue_star,bottom_left,2025-05-30_09h22.52.948,HideSeek_v1,2022.2.5,59.91636873241702,
,0,1,5,1,5,0,11,,train_dim1_1,20,30,,,,2,0,2,0,,,,,,,,,0,0,0,0,0,19,19,19,2,0,2,0,,,,,,,,,,,,,,,,,,,,,,,,,,,,,,,,,,,,,,,,,,,,,,,,,,,,,,,,,,,,,,,,30,,,,,,,,2348.3250706,2348.3250706,2348.3250706,2348.3250706,2348.3250706,right,0.47682080000004134,8,1,0,99,0.08,-0.32,right,0.3976823000001559,,,,,,,,,,,,,,,,,,,,,,,,,,,,,,,,,,,,,,,,,,,,,,,,,,,,,,,,,,,,ERWYZ6,train_x,blue_star,bottom_left,2025-05-30_09h22.52.948,HideSeek_v1,2022.2.5,59.91636873241702,
,0,1,5,1,5,0,11,,train_dim1_1,20,30,,,,2,0,2,0,,,,,,,,,0,0,0,0,0,19,19,19,3,0,3,0,,,,,,,,,,,,,,,,,,,,,,,,,,,,,,,,,,,,,,,,,,,,,,,,,,,,,,,,,,,,,,,,30,,,,,,,,2348.808976,2348.808976,2348.808976,2348.808976,2348.808976,right,0.8099397999999383,8,1,0,99,0.16,-0.32,right,0.7328145000000177,,,,,,,,,,,,,,,,,,,,,,,,,,,,,,,,,,,,,,,,,,,,,,,,,,,,,,,,,,,,ERWYZ6,train_x,blue_star,bottom_left,2025-05-30_09h22.52.948,HideSeek_v1,2022.2.5,59.91636873241702,
,0,1,5,1,5,0,11,,train_dim1_1,20,30,,,,2,0,2,0,,,,,,,,,0,0,0,0,0,19,19,19,4,0,4,0,,,,,,,,,,,,,,,,,,,,,,,,,,,,,,,,,,,,,,,,,,,,,,,,,,,,,,,,,,,,,,,,30,,,,,,,,2349.6261666,2349.6261666,2349.6261666,2349.6261666,2349.6261666,return,0.5266746000002058,8,1,0,0,0.16,-0.32,return,0.4484267999999929,-1,52,0.16,-0.32,,,,,,,,,,,,,,,,,,,,,,,,,,,,,,,,,,,,,,,,,,,,,,,,,,,,,,,,ERWYZ6,train_x,blue_star,bottom_left,2025-05-30_09h22.52.948,HideSeek_v1,2022.2.5,59.91636873241702,
,4,2,7,2,3,0,31,,train_dim1_1,21,30,,,,2,0,2,0,,,,,,,,,0,0,0,0,0,20,20,20,0,0,0,0,,,,,,,,,,,,,,,,,,,,,,,,,stimuli/alien_stimuli/31.png,,,,,,,,,,,,,,,,,,,,,,,,,,,,,stimuli/alien_stimuli/11.png,11,0,22,,,,,,,30,,,,,,,,2355.0046586999997,2355.0046586999997,2355.0046586999997,2355.0046586999997,2355.0046586999997,right,1.3885205999999926,8,1,0,99,0.24,-0.24,right,1.2798197000000755,,,,,2353.4291012,2355.0046586999997,0.24,-0.32,0.0,0.4,-0.32,0.24,0.039999999999999994,0.24,-0.32,2351.7198049,2351.7198049,2351.7198049,2351.7198049,2351.7198049,2351.7198049,2351.7198049,2351.7198049,2351.70967582,1.820685599999706,return,1.6891813999999385,,,,,,,,,,,,,,,,,,,,,,,,,,,,,,,,,ERWYZ6,train_x,blue_star,bottom_left,2025-05-30_09h22.52.948,HideSeek_v1,2022.2.5,59.91636873241702,
,4,2,7,2,3,0,31,,train_dim1_1,21,30,,,,2,0,2,0,,,,,,,,,0,0,0,0,0,20,20,20,1,0,1,0,,,,,,,,,,,,,,,,,,,,,,,,,,,,,,,,,,,,,,,,,,,,,,,,,,,,,,,,,,,,,,,,30,,,,,,,,2356.3791339,2356.3791339,2356.3791339,2356.3791339,2356.3791339,right,0.4927471000000878,8,1,0,99,0.32,-0.24,right,0.4195017000000689,,,,,,,,,,,,,,,,,,,,,,,,,,,,,,,,,,,,,,,,,,,,,,,,,,,,,,,,,,,,ERWYZ6,train_x,blue_star,bottom_left,2025-05-30_09h22.52.948,HideSeek_v1,2022.2.5,59.91636873241702,
,4,2,7,2,3,0,31,,train_dim1_1,21,30,,,,2,0,2,0,,,,,,,,,0,0,0,0,0,20,20,20,2,0,2,0,,,,,,,,,,,,,,,,,,,,,,,,,,,,,,,,,,,,,,,,,,,,,,,,,,,,,,,,,,,,,,,,30,,,,,,,,2356.878608,2356.878608,2356.878608,2356.878608,2356.878608,right,0.5775747000002411,8,1,0,99,0.4,-0.24,right,0.5045604999999114,,,,,,,,,,,,,,,,,,,,,,,,,,,,,,,,,,,,,,,,,,,,,,,,,,,,,,,,,,,,ERWYZ6,train_x,blue_star,bottom_left,2025-05-30_09h22.52.948,HideSeek_v1,2022.2.5,59.91636873241702,
,4,2,7,2,3,0,31,,train_dim1_1,21,30,,,,2,0,2,0,,,,,,,,,0,0,0,0,0,20,20,20,3,0,3,0,,,,,,,,,,,,,,,,,,,,,,,,,,,,,,,,,,,,,,,,,,,,,,,,,,,,,,,,,,,,,,,,30,,,,,,,,2357.4628293,2357.4628293,2357.4628293,2357.4628293,2357.4628293,return,0.8598124999998618,9,0,0,1,0.4,-0.24,return,0.7749161999998933,-1,55,0.4,-0.24,,,,,,,,,,,,,,,,,,,,,,,,,,,,,,,,,,,,,,,,,,,,,,,,,,,,,,,,ERWYZ6,train_x,blue_star,bottom_left,2025-05-30_09h22.52.948,HideSeek_v1,2022.2.5,59.91636873241702,
,1,0,5,0,4,0,21,,train_dim1_1,22,30,,,,2,0,2,0,,,,,,,,,0,0,0,0,0,21,21,21,0,0,0,0,,,,,,,,,,,,,,,,,,,,,,,,,stimuli/alien_stimuli/21.png,,,,,,,,,,,,,,,,,,,,,,,,,,,,,stimuli/alien_stimuli/31.png,31,4,23,,,,,,,30,,,,,,,,2362.5490892,2362.5490892,2362.5490892,2362.5490892,2362.5490892,right,1.7074803999998949,9,0,0,99,0.0,-0.4,right,1.5960162999998602,,,,,2360.968414,2362.5490892,0.4,-0.24,0.0,0.24,-0.24,0.4,0.28,0.4,-0.24,2359.8869801,2359.8869801,2359.8869801,2359.8869801,2359.8869801,2359.8869801,2359.8869801,2359.8869801,2359.86649026,1.186927100000048,return,1.0559471000000258,,,,,,,,,,,,,,,,,,,,,,,,,,,,,,,,,ERWYZ6,train_x,blue_star,bottom_left,2025-05-30_09h22.52.948,HideSeek_v1,2022.2.5,59.91636873241702,
,1,0,5,0,4,0,21,,train_dim1_1,22,30,,,,2,0,2,0,,,,,,,,,0,0,0,0,0,21,21,21,1,0,1,0,,,,,,,,,,,,,,,,,,,,,,,,,,,,,,,,,,,,,,,,,,,,,,,,,,,,,,,,,,,,,,,,30,,,,,,,,2364.2392851,2364.2392851,2364.2392851,2364.2392851,2364.2392851,right,0.49226420000013604,9,0,0,99,0.08,-0.4,right,0.4148112000001447,,,,,,,,,,,,,,,,,,,,,,,,,,,,,,,,,,,,,,,,,,,,,,,,,,,,,,,,,,,,ERWYZ6,train_x,blue_star,bottom_left,2025-05-30_09h22.52.948,HideSeek_v1,2022.2.5,59.91636873241702,
,1,0,5,0,4,0,21,,train_dim1_1,22,30,,,,2,0,2,0,,,,,,,,,0,0,0,0,0,21,21,21,2,0,2,0,,,,,,,,,,,,,,,,,,,,,,,,,,,,,,,,,,,,,,,,,,,,,,,,,,,,,,,,,,,,,,,,30,,,,,,,,2364.7384672,2364.7384672,2364.7384672,2364.7384672,2364.7384672,right,0.49350479999975505,9,0,0,99,0.16,-0.4,right,0.4124973000001546,,,,,,,,,,,,,,,,,,,,,,,,,,,,,,,,,,,,,,,,,,,,,,,,,,,,,,,,,,,,ERWYZ6,train_x,blue_star,bottom_left,2025-05-30_09h22.52.948,HideSeek_v1,2022.2.5,59.91636873241702,
,1,0,5,0,4,0,21,,train_dim1_1,22,30,,,,2,0,2,0,,,,,,,,,0,0,0,0,0,21,21,21,3,0,3,0,,,,,,,,,,,,,,,,,,,,,,,,,,,,,,,,,,,,,,,,,,,,,,,,,,,,,,,,,,,,,,,,30,,,,,,,,2365.2397271,2365.2397271,2365.2397271,2365.2397271,2365.2397271,right,0.5265799999997398,9,0,0,99,0.24,-0.4,right,0.4446556000001465,,,,,,,,,,,,,,,,,,,,,,,,,,,,,,,,,,,,,,,,,,,,,,,,,,,,,,,,,,,,ERWYZ6,train_x,blue_star,bottom_left,2025-05-30_09h22.52.948,HideSeek_v1,2022.2.5,59.91636873241702,
,1,0,5,0,4,0,21,,train_dim1_1,22,30,,,,2,0,2,0,,,,,,,,,0,0,0,0,0,21,21,21,4,0,4,0,,,,,,,,,,,,,,,,,,,,,,,,,,,,,,,,,,,,,,,,,,,,,,,,,,,,,,,,,,,,,,,,30,,,,,,,,2365.7726644,2365.7726644,2365.7726644,2365.7726644,2365.7726644,right,0.5436015999998745,9,0,0,99,0.32,-0.4,right,0.45334989999980735,,,,,,,,,,,,,,,,,,,,,,,,,,,,,,,,,,,,,,,,,,,,,,,,,,,,,,,,,,,,ERWYZ6,train_x,blue_star,bottom_left,2025-05-30_09h22.52.948,HideSeek_v1,2022.2.5,59.91636873241702,
,1,0,5,0,4,0,21,,train_dim1_1,22,30,,,,2,0,2,0,,,,,,,,,0,0,0,0,0,21,21,21,5,0,5,0,,,,,,,,,,,,,,,,,,,,,,,,,,,,,,,,,,,,,,,,,,,,,,,,,,,,,,,,,,,,,,,,30,,,,,,,,2366.3229340999997,2366.3229340999997,2366.3229340999997,2366.3229340999997,2366.3229340999997,right,0.4099913000000015,9,0,0,99,0.4,-0.4,right,0.33190860000001976,,,,,,,,,,,,,,,,,,,,,,,,,,,,,,,,,,,,,,,,,,,,,,,,,,,,,,,,,,,,ERWYZ6,train_x,blue_star,bottom_left,2025-05-30_09h22.52.948,HideSeek_v1,2022.2.5,59.91636873241702,
,1,0,5,0,4,0,21,,train_dim1_1,22,30,,,,2,0,2,0,,,,,,,,,0,0,0,0,0,21,21,21,6,0,6,0,,,,,,,,,,,,,,,,,,,,,,,,,,,,,,,,,,,,,,,,,,,,,,,,,,,,,,,,,,,,,,,,30,,,,,,,,2366.7407805,2366.7407805,2366.7407805,2366.7407805,2366.7407805,left,1.5108846999996786,9,0,0,99,0.32,-0.4,left,1.4267665999999508,,,,,,,,,,,,,,,,,,,,,,,,,,,,,,,,,,,,,,,,,,,,,,,,,,,,,,,,,,,,ERWYZ6,train_x,blue_star,bottom_left,2025-05-30_09h22.52.948,HideSeek_v1,2022.2.5,59.91636873241702,
,1,0,5,0,4,0,21,,train_dim1_1,22,30,,,,2,0,2,0,,,,,,,,,0,0,0,0,0,21,21,21,7,0,7,0,,,,,,,,,,,,,,,,,,,,,,,,,,,,,,,,,,,,,,,,,,,,,,,,,,,,,,,,,,,,,,,,30,,,,,,,,2368.2577548,2368.2577548,2368.2577548,2368.2577548,2368.2577548,return,0.6267759000002115,9,1,0,0,0.32,-0.4,return,0.548702500000104,-1,60,0.32,-0.4,,,,,,,,,,,,,,,,,,,,,,,,,,,,,,,,,,,,,,,,,,,,,,,,,,,,,,,,ERWYZ6,train_x,blue_star,bottom_left,2025-05-30_09h22.52.948,HideSeek_v1,2022.2.5,59.91636873241702,
,2,1,2,1,0,0,61,,train_dim1_1,23,30,,,,2,0,2,0,,,,,,,,,0,0,0,0,0,22,22,22,0,0,0,0,,,,,,,,,,,,,,,,,,,,,,,,,stimuli/alien_stimuli/61.png,,,,,,,,,,,,,,,,,,,,,,,,,,,,,stimuli/alien_stimuli/21.png,21,1,24,,,,,,,30,,,,,,,,2373.5539344999997,2373.5539344999997,2373.5539344999997,2373.5539344999997,2373.5539344999997,return,2.1011782999999014,10,0,0,1,0,-0.32,return,2.0089682000001403,-1,60,0,-0.32,2371.9773729,2373.5539344999997,0.24,-0.4,0.0,0.32,-0.4,0.24,0.07999999999999999,0.24,-0.4,2370.4695351,2370.4695351,2370.4695351,2370.4695351,2370.4695351,2370.4695351,2370.4695351,2370.4695351,2370.45842218,1.637132599999859,return,1.4874945000000253,,,,,,,,,,,,,,,,,,,,,,,,,,,,,,,,,ERWYZ6,train_x,blue_star,bottom_left,2025-05-30_09h22.52.948,HideSeek_v1,2022.2.5,59.91636873241702,
,4,4,5,4,1,0,51,,train_dim1_1,24,30,,,,2,0,2,0,,,,,,,,,0,0,0,0,0,23,23,23,0,0,0,0,,,,,,,,,,,,,,,,,,,,,,,,,stimuli/alien_stimuli/51.png,,,,,,,,,,,,,,,,,,,,,,,,,,,,,stimuli/alien_stimuli/61.png,61,2,25,,,,,,,30,,,,,,,,2381.2911706,2381.2911706,2381.2911706,2381.2911706,2381.2911706,right,1.456436500000109,10,0,0,99,0.24,-0.08,right,1.3566491999998789,,,,,2379.7171319,2381.2911706,0,-0.32,0.0,0.0,-0.32,0,0.0,0,-0.32,2377.1999111,2377.1999111,2377.1999111,2377.1999111,2377.1999111,2377.1999111,2377.1999111,2377.1999111,2377.1809660599997,2.6208959000000505,return,2.499000300000148,,,,,,,,,,,,,,,,,,,,,,,,,,,,,,,,,ERWYZ6,train_x,blue_star,bottom_left,2025-05-30_09h22.52.948,HideSeek_v1,2022.2.5,59.91636873241702,
,4,4,5,4,1,0,51,,train_dim1_1,24,30,,,,2,0,2,0,,,,,,,,,0,0,0,0,0,23,23,23,1,0,1,0,,,,,,,,,,,,,,,,,,,,,,,,,,,,,,,,,,,,,,,,,,,,,,,,,,,,,,,,,,,,,,,,30,,,,,,,,2382.7364767999998,2382.7364767999998,2382.7364767999998,2382.7364767999998,2382.7364767999998,right,0.42603120000012495,10,0,0,99,0.32,-0.08,right,0.335916599999905,,,,,,,,,,,,,,,,,,,,,,,,,,,,,,,,,,,,,,,,,,,,,,,,,,,,,,,,,,,,ERWYZ6,train_x,blue_star,bottom_left,2025-05-30_09h22.52.948,HideSeek_v1,2022.2.5,59.91636873241702,
,4,4,5,4,1,0,51,,train_dim1_1,24,30,,,,2,0,2,0,,,,,,,,,0,0,0,0,0,23,23,23,2,0,2,0,,,,,,,,,,,,,,,,,,,,,,,,,,,,,,,,,,,,,,,,,,,,,,,,,,,,,,,,,,,,,,,,30,,,,,,,,2383.168934,2383.168934,2383.168934,2383.168934,2383.168934,right,0.6267992000002778,10,0,0,99,0.4,-0.08,right,0.5368328999996947,,,,,,,,,,,,,,,,,,,,,,,,,,,,,,,,,,,,,,,,,,,,,,,,,,,,,,,,,,,,ERWYZ6,train_x,blue_star,bottom_left,2025-05-30_09h22.52.948,HideSeek_v1,2022.2.5,59.91636873241702,
,4,4,5,4,1,0,51,,train_dim1_1,24,30,,,,2,0,2,0,,,,,,,,,0,0,0,0,0,23,23,23,3,0,3,0,,,,,,,,,,,,,,,,,,,,,,,,,,,,,,,,,,,,,,,,,,,,,,,,,,,,,,,,,,,,,,,,30,,,,,,,,2383.8030833,2383.8030833,2383.8030833,2383.8030833,2383.8030833,return,0.3601411999998163,10,0,0,0,0.4,-0.08,return,0.284075899999948,-1,63,0.4,-0.08,,,,,,,,,,,,,,,,,,,,,,,,,,,,,,,,,,,,,,,,,,,,,,,,,,,,,,,,ERWYZ6,train_x,blue_star,bottom_left,2025-05-30_09h22.52.948,HideSeek_v1,2022.2.5,59.91636873241702,
,3,0,8,0,5,0,11,,train_dim1_1,25,30,,,,2,0,2,0,,,,,,,,,0,0,0,0,0,24,24,24,0,0,0,0,,,,,,,,,,,,,,,,,,,,,,,,,stimuli/alien_stimuli/11.png,,,,,,,,,,,,,,,,,,,,,,,,,,,,,stimuli/alien_stimuli/51.png,51,4,26,,,,,,,30,,,,,,,,2389.1577781,2389.1577781,2389.1577781,2389.1577781,2389.1577781,right,1.3045230000002448,10,0,0,99,0.16,-0.4,right,1.200779199999829,,,,,2387.5736626999997,2389.1577781,0.24,-0.08,0.0,0.08,-0.08,0.24,0.2,0.24,-0.08,2385.7299334,2385.7299334,2385.7299334,2385.7299334,2385.7299334,2385.7299334,2385.7299334,2385.7299334,2385.7213567199997,1.9538078999999016,return,1.8239770999997518,,,,,,,,,,,,,,,,,,,,,,,,,,,,,,,,,ERWYZ6,train_x,blue_star,bottom_left,2025-05-30_09h22.52.948,HideSeek_v1,2022.2.5,59.91636873241702,
,3,0,8,0,5,0,11,,train_dim1_1,25,30,,,,2,0,2,0,,,,,,,,,0,0,0,0,0,24,24,24,1,0,1,0,,,,,,,,,,,,,,,,,,,,,,,,,,,,,,,,,,,,,,,,,,,,,,,,,,,,,,,,,,,,,,,,30,,,,,,,,2390.445609,2390.445609,2390.445609,2390.445609,2390.445609,right,0.4923816000000443,10,0,0,99,0.24,-0.4,right,0.4096671999999444,,,,,,,,,,,,,,,,,,,,,,,,,,,,,,,,,,,,,,,,,,,,,,,,,,,,,,,,,,,,ERWYZ6,train_x,blue_star,bottom_left,2025-05-30_09h22.52.948,HideSeek_v1,2022.2.5,59.91636873241702,
,3,0,8,0,5,0,11,,train_dim1_1,25,30,,,,2,0,2,0,,,,,,,,,0,0,0,0,0,24,24,24,2,0,2,0,,,,,,,,,,,,,,,,,,,,,,,,,,,,,,,,,,,,,,,,,,,,,,,,,,,,,,,,,,,,,,,,30,,,,,,,,2390.9431314,2390.9431314,2390.9431314,2390.9431314,2390.9431314,right,0.4769055000001572,10,0,0,99,0.32,-0.4,right,0.3869379000001345,,,,,,,,,,,,,,,,,,,,,,,,,,,,,,,,,,,,,,,,,,,,,,,,,,,,,,,,,,,,ERWYZ6,train_x,blue_star,bottom_left,2025-05-30_09h22.52.948,HideSeek_v1,2022.2.5,59.91636873241702,
,3,0,8,0,5,0,11,,train_dim1_1,25,30,,,,2,0,2,0,,,,,,,,,0,0,0,0,0,24,24,24,3,0,3,0,,,,,,,,,,,,,,,,,,,,,,,,,,,,,,,,,,,,,,,,,,,,,,,,,,,,,,,,,,,,,,,,30,,,,,,,,2391.4285612999997,2391.4285612999997,2391.4285612999997,2391.4285612999997,2391.4285612999997,right,1.0772643999998763,10,0,0,99,0.4,-0.4,right,0.9844821000000366,,,,,,,,,,,,,,,,,,,,,,,,,,,,,,,,,,,,,,,,,,,,,,,,,,,,,,,,,,,,ERWYZ6,train_x,blue_star,bottom_left,2025-05-30_09h22.52.948,HideSeek_v1,2022.2.5,59.91636873241702,
,3,0,8,0,5,0,11,,train_dim1_1,25,30,,,,2,0,2,0,,,,,,,,,0,0,0,0,0,24,24,24,4,0,4,0,,,,,,,,,,,,,,,,,,,,,,,,,,,,,,,,,,,,,,,,,,,,,,,,,,,,,,,,,,,,,,,,30,,,,,,,,2392.5116937,2392.5116937,2392.5116937,2392.5116937,2392.5116937,return,0.5265279999998711,10,1,0,0,0.4,-0.4,return,0.44958789999998316,-1,67,0.4,-0.4,,,,,,,,,,,,,,,,,,,,,,,,,,,,,,,,,,,,,,,,,,,,,,,,,,,,,,,,ERWYZ6,train_x,blue_star,bottom_left,2025-05-30_09h22.52.948,HideSeek_v1,2022.2.5,59.91636873241702,
,1,1,1,1,0,0,61,,train_dim1_1,26,30,,,,2,0,2,0,,,,,,,,,0,0,0,0,0,25,25,25,0,0,0,0,,,,,,,,,,,,,,,,,,,,,,,,,stimuli/alien_stimuli/61.png,,,,,,,,,,,,,,,,,,,,,,,,,,,,,stimuli/alien_stimuli/11.png,11,3,27,,,,,,,30,,,,,,,,2397.8794546,2397.8794546,2397.8794546,2397.8794546,2397.8794546,return,1.905028399999992,11,0,0,1,-0.08,-0.32,return,1.791618000000085,-1,67,-0.08,-0.32,2396.2975567,2397.8794546,0.48,-0.4,0.0,0.4,-0.4,0.48,0.27999999999999997,0.48,-0.4,2394.6058893,2394.6058893,2394.6058893,2394.6058893,2394.6058893,2394.6058893,2394.6058893,2394.6058893,2394.59529092,1.8038338999999723,return,1.6650425000001405,,,,,,,,,,,,,,,,,,,,,,,,,,,,,,,,,ERWYZ6,train_x,blue_star,bottom_left,2025-05-30_09h22.52.948,HideSeek_v1,2022.2.5,59.91636873241702,
,0,1,3,1,3,0,31,,train_dim1_1,27,30,,,,2,0,2,0,,,,,,,,,0,0,0,0,0,26,26,26,0,0,0,0,,,,,,,,,,,,,,,,,,,,,,,,,stimuli/alien_stimuli/31.png,,,,,,,,,,,,,,,,,,,,,,,,,,,,,stimuli/alien_stimuli/61.png,61,1,28,,,,,,,30,,,,,,,,2404.1611507,2404.1611507,2404.1611507,2404.1611507,2404.1611507,right,0.9070741000000453,11,0,0,99,-0.08,-0.32,right,0.8225503000002163,,,,,2402.6027491,2404.1611507,-0.08,-0.32,0.0,0.0,-0.32,-0.08,-0.08,-0.08,-0.32,2401.324482,2401.324482,2401.324482,2401.324482,2401.324482,2401.324482,2401.324482,2401.324482,2401.3010756599997,1.3863759999999274,return,1.257130299999858,,,,,,,,,,,,,,,,,,,,,,,,,,,,,,,,,ERWYZ6,train_x,blue_star,bottom_left,2025-05-30_09h22.52.948,HideSeek_v1,2022.2.5,59.91636873241702,
,0,1,3,1,3,0,31,,train_dim1_1,27,30,,,,2,0,2,0,,,,,,,,,0,0,0,0,0,26,26,26,1,0,1,0,,,,,,,,,,,,,,,,,,,,,,,,,,,,,,,,,,,,,,,,,,,,,,,,,,,,,,,,,,,,,,,,30,,,,,,,,2405.0698263,2405.0698263,2405.0698263,2405.0698263,2405.0698263,right,0.5595034999996642,11,0,0,99,0.0,-0.32,right,0.4712991000000102,,,,,,,,,,,,,,,,,,,,,,,,,,,,,,,,,,,,,,,,,,,,,,,,,,,,,,,,,,,,ERWYZ6,train_x,blue_star,bottom_left,2025-05-30_09h22.52.948,HideSeek_v1,2022.2.5,59.91636873241702,
,0,1,3,1,3,0,31,,train_dim1_1,27,30,,,,2,0,2,0,,,,,,,,,0,0,0,0,0,26,26,26,2,0,2,0,,,,,,,,,,,,,,,,,,,,,,,,,,,,,,,,,,,,,,,,,,,,,,,,,,,,,,,,,,,,,,,,30,,,,,,,,2405.6348347999997,2405.6348347999997,2405.6348347999997,2405.6348347999997,2405.6348347999997,right,0.47668249999969703,11,0,0,99,0.08,-0.32,right,0.401540799999907,,,,,,,,,,,,,,,,,,,,,,,,,,,,,,,,,,,,,,,,,,,,,,,,,,,,,,,,,,,,ERWYZ6,train_x,blue_star,bottom_left,2025-05-30_09h22.52.948,HideSeek_v1,2022.2.5,59.91636873241702,
,0,1,3,1,3,0,31,,train_dim1_1,27,30,,,,2,0,2,0,,,,,,,,,0,0,0,0,0,26,26,26,3,0,3,0,,,,,,,,,,,,,,,,,,,,,,,,,,,,,,,,,,,,,,,,,,,,,,,,,,,,,,,,,,,,,,,,30,,,,,,,,2406.1197692,2406.1197692,2406.1197692,2406.1197692,2406.1197692,right,0.5102136000000428,11,0,0,99,0.16,-0.32,right,0.43589159999999083,,,,,,,,,,,,,,,,,,,,,,,,,,,,,,,,,,,,,,,,,,,,,,,,,,,,,,,,,,,,ERWYZ6,train_x,blue_star,bottom_left,2025-05-30_09h22.52.948,HideSeek_v1,2022.2.5,59.91636873241702,
,0,1,3,1,3,0,31,,train_dim1_1,27,30,,,,2,0,2,0,,,,,,,,,0,0,0,0,0,26,26,26,4,0,4,0,,,,,,,,,,,,,,,,,,,,,,,,,,,,,,,,,,,,,,,,,,,,,,,,,,,,,,,,,,,,,,,,30,,,,,,,,2406.6359976,2406.6359976,2406.6359976,2406.6359976,2406.6359976,return,0.7101628999998866,11,1,0,0,0.16,-0.32,return,0.6350769999997965,-1,71,0.16,-0.32,,,,,,,,,,,,,,,,,,,,,,,,,,,,,,,,,,,,,,,,,,,,,,,,,,,,,,,,ERWYZ6,train_x,blue_star,bottom_left,2025-05-30_09h22.52.948,HideSeek_v1,2022.2.5,59.91636873241702,
,3,1,7,1,4,0,21,,train_dim1_1,28,30,,,,2,0,2,0,,,,,,,,,0,0,0,0,0,27,27,27,0,0,0,0,,,,,,,,,,,,,,,,,,,,,,,,,stimuli/alien_stimuli/21.png,,,,,,,,,,,,,,,,,,,,,,,,,,,,,stimuli/alien_stimuli/31.png,31,0,29,,,,,,,30,,,,,,,,2412.0658134,2412.0658134,2412.0658134,2412.0658134,2412.0658134,right,1.1491722999999183,11,1,0,99,0.16,-0.32,right,1.041883700000085,,,,,2410.476212,2412.0658134,0.08,-0.32,0.0,0.24,-0.32,0.08,-0.04,0.08,-0.32,2408.9120442999997,2408.9120442999997,2408.9120442999997,2408.9120442999997,2408.9120442999997,2408.9120442999997,2408.9120442999997,2408.9120442999997,2408.89078236,1.6697865000001002,return,1.5377224999996315,,,,,,,,,,,,,,,,,,,,,,,,,,,,,,,,,ERWYZ6,train_x,blue_star,bottom_left,2025-05-30_09h22.52.948,HideSeek_v1,2022.2.5,59.91636873241702,
,3,1,7,1,4,0,21,,train_dim1_1,28,30,,,,2,0,2,0,,,,,,,,,0,0,0,0,0,27,27,27,1,0,1,0,,,,,,,,,,,,,,,,,,,,,,,,,,,,,,,,,,,,,,,,,,,,,,,,,,,,,,,,,,,,,,,,30,,,,,,,,2413.2034761,2413.2034761,2413.2034761,2413.2034761,2413.2034761,right,0.620765499999834,11,1,0,99,0.24,-0.32,right,0.535468399999786,,,,,,,,,,,,,,,,,,,,,,,,,,,,,,,,,,,,,,,,,,,,,,,,,,,,,,,,,,,,ERWYZ6,train_x,blue_star,bottom_left,2025-05-30_09h22.52.948,HideSeek_v1,2022.2.5,59.91636873241702,
,3,1,7,1,4,0,21,,train_dim1_1,28,30,,,,2,0,2,0,,,,,,,,,0,0,0,0,0,27,27,27,2,0,2,0,,,,,,,,,,,,,,,,,,,,,,,,,,,,,,,,,,,,,,,,,,,,,,,,,,,,,,,,,,,,,,,,30,,,,,,,,2413.8287487,2413.8287487,2413.8287487,2413.8287487,2413.8287487,right,0.6269124000000375,11,1,0,99,0.32,-0.32,right,0.5486733000001323,,,,,,,,,,,,,,,,,,,,,,,,,,,,,,,,,,,,,,,,,,,,,,,,,,,,,,,,,,,,ERWYZ6,train_x,blue_star,bottom_left,2025-05-30_09h22.52.948,HideSeek_v1,2022.2.5,59.91636873241702,
,3,1,7,1,4,0,21,,train_dim1_1,28,30,,,,2,0,2,0,,,,,,,,,0,0,0,0,0,27,27,27,3,0,3,0,,,,,,,,,,,,,,,,,,,,,,,,,,,,,,,,,,,,,,,,,,,,,,,,,,,,,,,,,,,,,,,,30,,,,,,,,2414.4635983,2414.4635983,2414.4635983,2414.4635983,2414.4635983,right,0.4432059999999183,11,1,0,99,0.4,-0.32,right,0.35571840000000066,,,,,,,,,,,,,,,,,,,,,,,,,,,,,,,,,,,,,,,,,,,,,,,,,,,,,,,,,,,,ERWYZ6,train_x,blue_star,bottom_left,2025-05-30_09h22.52.948,HideSeek_v1,2022.2.5,59.91636873241702,
,3,1,7,1,4,0,21,,train_dim1_1,28,30,,,,2,0,2,0,,,,,,,,,0,0,0,0,0,27,27,27,4,0,4,0,,,,,,,,,,,,,,,,,,,,,,,,,,,,,,,,,,,,,,,,,,,,,,,,,,,,,,,,,,,,,,,,30,,,,,,,,2414.9137306,2414.9137306,2414.9137306,2414.9137306,2414.9137306,return,0.9103055999999015,12,0,0,1,0.4,-0.32,return,0.8303030999999237,-1,75,0.4,-0.32,,,,,,,,,,,,,,,,,,,,,,,,,,,,,,,,,,,,,,,,,,,,,,,,,,,,,,,,ERWYZ6,train_x,blue_star,bottom_left,2025-05-30_09h22.52.948,HideSeek_v1,2022.2.5,59.91636873241702,
,4,0,5,0,1,0,51,,train_dim1_1,29,30,,,,2,0,2,0,,,,,,,,,0,0,0,0,0,28,28,28,0,0,0,0,,,,,,,,,,,,,,,,,,,,,,,,,stimuli/alien_stimuli/51.png,,,,,,,,,,,,,,,,,,,,,,,,,,,,,stimuli/alien_stimuli/21.png,21,3,30,,,,,,,30,,,,,,,,2420.1567915,2420.1567915,2420.1567915,2420.1567915,2420.1567915,right,1.440816299999824,12,0,0,99,0.24,-0.4,right,1.3357138999998597,,,,,2418.5831101999997,2420.1567915,0.4,-0.32,0.0,0.32,-0.32,0.4,0.24000000000000002,0.4,-0.32,2417.3905950999997,2417.3905950999997,2417.3905950999997,2417.3905950999997,2417.3905950999997,2417.3905950999997,2417.3905950999997,2417.3905950999997,2417.38098042,1.3038265000000138,return,1.1757690000002867,,,,,,,,,,,,,,,,,,,,,,,,,,,,,,,,,ERWYZ6,train_x,blue_star,bottom_left,2025-05-30_09h22.52.948,HideSeek_v1,2022.2.5,59.91636873241702,
,4,0,5,0,1,0,51,,train_dim1_1,29,30,,,,2,0,2,0,,,,,,,,,0,0,0,0,0,28,28,28,1,0,1,0,,,,,,,,,,,,,,,,,,,,,,,,,,,,,,,,,,,,,,,,,,,,,,,,,,,,,,,,,,,,,,,,30,,,,,,,,2421.585154,2421.585154,2421.585154,2421.585154,2421.585154,right,0.5093756000001122,12,0,0,99,0.32,-0.4,right,0.42755320000003394,,,,,,,,,,,,,,,,,,,,,,,,,,,,,,,,,,,,,,,,,,,,,,,,,,,,,,,,,,,,ERWYZ6,train_x,blue_star,bottom_left,2025-05-30_09h22.52.948,HideSeek_v1,2022.2.5,59.91636873241702,
,4,0,5,0,1,0,51,,train_dim1_1,29,30,,,,2,0,2,0,,,,,,,,,0,0,0,0,0,28,28,28,2,0,2,0,,,,,,,,,,,,,,,,,,,,,,,,,,,,,,,,,,,,,,,,,,,,,,,,,,,,,,,,,,,,,,,,30,,,,,,,,2422.1009903,2422.1009903,2422.1009903,2422.1009903,2422.1009903,right,0.4933780999999726,12,0,0,99,0.4,-0.4,right,0.40672200000005887,,,,,,,,,,,,,,,,,,,,,,,,,,,,,,,,,,,,,,,,,,,,,,,,,,,,,,,,,,,,ERWYZ6,train_x,blue_star,bottom_left,2025-05-30_09h22.52.948,HideSeek_v1,2022.2.5,59.91636873241702,
,4,0,5,0,1,0,51,,train_dim1_1,29,30,,,,2,0,2,0,,,,,,,,,0,0,0,0,0,28,28,28,3,0,3,0,,,,,,,,,,,,,,,,,,,,,,,,,,,,,,,,,,,,,,,,,,,,,,,,,,,,,,,,,,,,,,,,30,,,,,,,,2422.6015334,2422.6015334,2422.6015334,2422.6015334,2422.6015334,return,0.5936636999999791,12,0,0,0,0.4,-0.4,return,0.5114972999998599,-1,78,0.4,-0.4,,,,,,,,,,,,,,,,,,,,,,,,,,,,,,,,,,,,,,,,,,,,,,,,,,,,,,,,ERWYZ6,train_x,blue_star,bottom_left,2025-05-30_09h22.52.948,HideSeek_v1,2022.2.5,59.91636873241702,
,2,2,7,2,5,0,11,,train_dim1_1,30,30,,,,2,0,2,0,,,,,,,,,0,0,0,0,0,29,29,29,0,0,0,0,,,,,,,,,,,,,,,,,,,,,,,,,stimuli/alien_stimuli/11.png,,,,,,,,,,,,,,,,,,,,,,,,,,,,,stimuli/alien_stimuli/51.png,51,4,31,,,,,,,30,,,,,,,,2428.0148316,2428.0148316,2428.0148316,2428.0148316,2428.0148316,right,1.2898608999998942,12,0,0,99,0.08,-0.24,right,1.177987299999927,,,,,2426.4395274999997,2428.0148316,0.24,-0.4,0.0,0.08,-0.4,0.24,0.2,0.24,-0.4,2424.7582703999997,2424.7582703999997,2424.7582703999997,2424.7582703999997,2424.7582703999997,2424.7582703999997,2424.7582703999997,2424.7582703999997,2424.73710666,1.7872049000002335,return,1.6500640000002704,,,,,,,,,,,,,,,,,,,,,,,,,,,,,,,,,ERWYZ6,train_x,blue_star,bottom_left,2025-05-30_09h22.52.948,HideSeek_v1,2022.2.5,59.91636873241702,
,2,2,7,2,5,0,11,,train_dim1_1,30,30,,,,2,0,2,0,,,,,,,,,0,0,0,0,0,29,29,29,1,0,1,0,,,,,,,,,,,,,,,,,,,,,,,,,,,,,,,,,,,,,,,,,,,,,,,,,,,,,,,,,,,,,,,,30,,,,,,,,2429.2938168,2429.2938168,2429.2938168,2429.2938168,2429.2938168,return,1.0262502999999015,12,0,0,0,0.08,-0.24,return,0.945553200000063,-1,79,0.08,-0.24,,,,,,,,,,,,,,,,,,,,,,,,,,,,,,,,,,,,,,,,,,,,,,,,,,,,,,,,ERWYZ6,train_x,blue_star,bottom_left,2025-05-30_09h22.52.948,HideSeek_v1,2022.2.5,59.91636873241702,
,,,,,,,,,,,30,,,,2,0,2,0,,,,,,,,,,,,,,,,,,,,,,,,,,,,,,,,,,,,,,,,,,,,,,,,,,,,,,,,,,,,,,,,,,,,,,,,,,stimuli/alien_stimuli/11.png,11,2,32,21,0.7,0.5,1,1,1,30,0,conditions/schedules/train_x_first/blue_star_00/bottom_left/inputTrain_2.1.xlsx,99,1,2,1,0,,,,,,,,,,,0,,,,,,,,,2433.5453770999998,2435.0884895,0.4,-0.24,0.0,0.4,-0.24,0.4,0.2,0.4,-0.24,2431.8853581999997,2431.8853581999997,2431.8853581999997,2431.8853581999997,2431.8853581999997,2431.8853581999997,2431.8853581999997,2431.8853581999997,2431.87625402,1.7704766000001655,return,1.64406919999999,0,0.9,0,1,12,,,,,,,,,,,,,,,,,,,,,,,,,,,,ERWYZ6,train_x,blue_star,bottom_left,2025-05-30_09h22.52.948,HideSeek_v1,2022.2.5,59.91636873241702,
,,,,,,,,,,,,,,,3,0,3,0,0,0,0,0,,,,,,,,,,,,,,,,,,,,,,,,,,,,,,,conditions/schedules/train_x_first/blue_star_00/bottom_left/instructions/Slide17.png,conditions/schedules/train_x_first/blue_star_00/bottom_left/instructions/Audio17.wav,2435.0884895,2435.07938388,17,"[5.871631999999863, 17.979365000000143, 17.05846130000009, 19.003008599999703, 5.856121499999972, 4.802219299999706, 5.585467299999891, 11.490170999999918, 5.553019899999981, 6.818322300000091, 9.868138499999986, 12.33750900000041, 16.979781000000003, 14.140835300000163, 31.220105700000204, 22.641512499999862, 58.52034830000002]","[0.0002079000000776432, 0.01408609999998589, 0.0004389999999148131, 0.035123399999974936, 0.03129480000006879, 0.047492599999714, 0.06424029999971026, 0.06539519999978438, 0.09561329999996815, 0.04651799999965078, 0.08079429999997956, 12.337515200000325, 0.031154400000104943, 14.1408421000001, 0.013843100000030972, 22.64151899999979, 58.52035569999998]",0,,,,,,,,,,,,,,,,,,,,,,,,,,,,,,,,,,,,,,,,,,,,,,,,,,,,,,,,,,,,,,,,,,,,,,,,,,,,,,,,,,,,,,,,,,,,,,,,,,,,,,,,,,,,,,,,,,,,,,,,,,,,ERWYZ6,train_x,blue_star,bottom_left,2025-05-30_09h22.52.948,HideSeek_v1,2022.2.5,59.91636873241702,
,,,,,,,,,,,,,,,3,0,3,0,1,0,1,0,,,,,,,,,,,,,,,,,,,,,,,,,,,,,,,conditions/schedules/train_x_first/blue_star_00/bottom_left/instructions/Slide18.png,conditions/schedules/train_x_first/blue_star_00/bottom_left/instructions/Audio18.wav,2493.6833131999997,2493.6776934,18,"[5.871631999999863, 17.979365000000143, 17.05846130000009, 19.003008599999703, 5.856121499999972, 4.802219299999706, 5.585467299999891, 11.490170999999918, 5.553019899999981, 6.818322300000091, 9.868138499999986, 12.33750900000041, 16.979781000000003, 14.140835300000163, 31.220105700000204, 22.641512499999862, 58.52034830000002, 6.49843809999993]","[0.0002079000000776432, 0.01408609999998589, 0.0004389999999148131, 0.035123399999974936, 0.03129480000006879, 0.047492599999714, 0.06424029999971026, 0.06539519999978438, 0.09561329999996815, 0.04651799999965078, 0.08079429999997956, 12.337515200000325, 0.031154400000104943, 14.1408421000001, 0.013843100000030972, 22.64151899999979, 0.00021240000023681205, 6.498444700000164]",0,,,,,,,,,,,,,,,,,,,,,,,,,,,,,,,,,,,,,,,,,,,,,,,,,,,,,,,,,,,,,,,,,,,,,,,,,,,,,,,,,,,,,,,,,,,,,,,,,,,,,,,,,,,,,,,,,,,,,,,,,,,,ERWYZ6,train_x,blue_star,bottom_left,2025-05-30_09h22.52.948,HideSeek_v1,2022.2.5,59.91636873241702,
,,,,,,,,,,,,,,,3,0,3,0,2,0,2,0,,,,,,,,,,,,,,,,,,,,,,,,,,,,,,,conditions/schedules/train_x_first/blue_star_00/bottom_left/instructions/Slide19.png,conditions/schedules/train_x_first/blue_star_00/bottom_left/instructions/Audio19.wav,2500.2193425,2500.2169877799997,19,"[5.871631999999863, 17.979365000000143, 17.05846130000009, 19.003008599999703, 5.856121499999972, 4.802219299999706, 5.585467299999891, 11.490170999999918, 5.553019899999981, 6.818322300000091, 9.868138499999986, 12.33750900000041, 16.979781000000003, 14.140835300000163, 31.220105700000204, 22.641512499999862, 58.52034830000002, 6.49843809999993, 10.303755499999625]","[0.0002079000000776432, 0.01408609999998589, 0.0004389999999148131, 0.035123399999974936, 0.03129480000006879, 0.047492599999714, 0.06424029999971026, 0.06539519999978438, 0.09561329999996815, 0.04651799999965078, 0.08079429999997956, 12.337515200000325, 0.031154400000104943, 14.1408421000001, 0.013843100000030972, 22.64151899999979, 0.00021240000023681205, 0.01375579999967158, 10.303762900000038]",0,,,,,,,,,,,,,,,,,,,,,,,,,,,,,,,,,,,,,,,,,,,,,,,,,,,,,,,,,,,,,,,,,,,,,,,,,,,,,,,,,,,,,,,,,,,,,,,,,,,,,,,,,,,,,,,,,,,,,,,,,,,,ERWYZ6,train_x,blue_star,bottom_left,2025-05-30_09h22.52.948,HideSeek_v1,2022.2.5,59.91636873241702,
,,,,,,,,,,,,,,,3,0,3,0,3,0,3,0,,,,,,,,,,,,,,,,,,,,,,,,,,,,,,,conditions/schedules/train_x_first/blue_star_00/bottom_left/instructions/Slide20.png,conditions/schedules/train_x_first/blue_star_00/bottom_left/instructions/Audio20.wav,2510.595575,2510.5917952,20,"[5.871631999999863, 17.979365000000143, 17.05846130000009, 19.003008599999703, 5.856121499999972, 4.802219299999706, 5.585467299999891, 11.490170999999918, 5.553019899999981, 6.818322300000091, 9.868138499999986, 12.33750900000041, 16.979781000000003, 14.140835300000163, 31.220105700000204, 22.641512499999862, 58.52034830000002, 6.49843809999993, 10.303755499999625, 13.822032699999909]","[0.0002079000000776432, 0.01408609999998589, 0.0004389999999148131, 0.035123399999974936, 0.03129480000006879, 0.047492599999714, 0.06424029999971026, 0.06539519999978438, 0.09561329999996815, 0.04651799999965078, 0.08079429999997956, 12.337515200000325, 0.031154400000104943, 14.1408421000001, 0.013843100000030972, 22.64151899999979, 0.00021240000023681205, 0.01375579999967158, 0.046902899999622605, 13.822043299999677]",0,,,,,,,,,,,,,,,,,,,,,,,,,,,,,,,,,,,,,,,,,,,,,,,,,,,,,,,,,,,,,,,,,,,,,,,,,,,,,,,,,,,,,,,,,,,,,,,,,,,,,,,,,,,,,,,,,,,,,,,,,,,,ERWYZ6,train_x,blue_star,bottom_left,2025-05-30_09h22.52.948,HideSeek_v1,2022.2.5,59.91636873241702,
1,0,3,0,8,0,5,66,2,instr_dim1_2,,,,,,3,0,3,0,,,,,0,0,0,0,,,,,,,,,,,,,,,,,,,,,,,,,,,,,,,,,,,,,stimuli/alien_stimuli/66.png,conditions/schedules/train_x_first/blue_star_00/bottom_left/inputInstr_2.xlsx,stimuli/alien_stimuli/66.png,2524.5133977,2524.5133977,2524.5133977,2524.5133977,2524.50301296,return,6.23179400000015,"[-0.16, -0.08, 0, 0.08, 0.16, 0.24, 0.32, 0.4, 0.48, 0.56]","[-0.4, -0.32, -0.24, -0.16, -0.08, 0, 0.08, 0.16, 0.24, 0.32]",8,3,0,0,0.4,0.0,2530.8995497,2530.8995497,2530.8995497,2530.8995497,2530.8995497,2530.8995497,2530.8995497,2530.89138468,7.323672800000168,return,7.170591999999829,stimuli/alien_stimuli/66.png,66,0,1,,,,,,,,,,,,,,,,,,,,,,,,,,,,,,,,,,,,,,,,,,,,,,,,,,,,,,,,,,,,,,,,,,,,,,,,,,,,,,,,,,,,,,,,,ERWYZ6,train_x,blue_star,bottom_left,2025-05-30_09h22.52.948,HideSeek_v1,2022.2.5,59.91636873241702,
,,,,,,,,,,,30,,,,3,0,3,0,,,,,,,,,,,,,,,,,,,,,,,,,,,,,,,,,,,,,,,,,,,,,,,,,,,,,,,,,,,,,,,,,,,,,,,,,,,,,,21,0.7,0.5,1,99,2,30,0,conditions/schedules/train_x_first/blue_star_00/bottom_left/inputTrain_2.1.xlsx,99,1,2,1,0,,,,,,,,,,,,,,,,,,,,,,,,,,,,,,,,,,,,,,,,,,,,,,,,,,,,,,,,,,,,,,,,,,,,,,,,,,,ERWYZ6,train_x,blue_star,bottom_left,2025-05-30_09h22.52.948,HideSeek_v1,2022.2.5,59.91636873241702,
,,,,,,,,,,,,,,,4,0,4,0,0,0,0,0,,,,,,,,,,,,,,,,,,,,,,,,,,,,,,,conditions/schedules/train_x_first/blue_star_00/bottom_left/instructions/Slide21.png,conditions/schedules/train_x_first/blue_star_00/bottom_left/instructions/Audio21.wav,2538.2569083,2538.2472657999997,21,"[5.871631999999863, 17.979365000000143, 17.05846130000009, 19.003008599999703, 5.856121499999972, 4.802219299999706, 5.585467299999891, 11.490170999999918, 5.553019899999981, 6.818322300000091, 9.868138499999986, 12.33750900000041, 16.979781000000003, 14.140835300000163, 31.220105700000204, 22.641512499999862, 58.52034830000002, 6.49843809999993, 10.303755499999625, 13.822032699999909, 17.22010309999996]","[0.0002079000000776432, 0.01408609999998589, 0.0004389999999148131, 0.035123399999974936, 0.03129480000006879, 0.047492599999714, 0.06424029999971026, 0.06539519999978438, 0.09561329999996815, 0.04651799999965078, 0.08079429999997956, 12.337515200000325, 0.031154400000104943, 14.1408421000001, 0.013843100000030972, 22.64151899999979, 0.00021240000023681205, 0.01375579999967158, 0.046902899999622605, 13.822043299999677, 17.220110700000077]",0,,,,,,,,,,,,,,,,,,,,,,,,,,,,,,,,,,,,,,,,,,,,,,,,,,,,,,,,,,,,,,,,,,,,,,,,,,,,,,,,,,,,,,,,,,,,,,,,,,,,,,,,,,,,,,,,,,,,,,,,,,,,ERWYZ6,train_x,blue_star,bottom_left,2025-05-30_09h22.52.948,HideSeek_v1,2022.2.5,59.91636873241702,
2,2,3,2,3,0,0,61,2,instr_dim1_2,,,,,,4,0,4,0,,,,,0,0,0,0,,,,,,,,,,,,,,,,,,,,,,,,,,,,,,,,,,,,,stimuli/alien_stimuli/61.png,conditions/schedules/train_x_first/blue_star_00/bottom_left/inputInstr_2.xlsx,stimuli/alien_stimuli/61.png,2555.573531,2555.573531,2555.573531,2555.573531,2555.57884472,return,6.233634099999904,"[-0.16, -0.08, 0, 0.08, 0.16, 0.24, 0.32, 0.4, 0.48, 0.56]","[-0.4, -0.32, -0.24, -0.16, -0.08, 0, 0.08, 0.16, 0.24, 0.32]",3,3,2,2,0.0,0.0,2561.9568440999997,2561.9568440999997,2561.9568440999997,2561.9568440999997,2561.9568440999997,2561.9568440999997,2561.9568440999997,2561.95073528,6.439587600000323,return,6.2939856000001555,stimuli/alien_stimuli/61.png,61,2,2,,,,,,,,,,,,,,,,,,,,,,,,,,,,,,,,,,,,,,,,,,,,,,,,,,,,,,,,,,,,,,,,,,,,,,,,,,,,,,,,,,,,,,,,,ERWYZ6,train_x,blue_star,bottom_left,2025-05-30_09h22.52.948,HideSeek_v1,2022.2.5,59.91636873241702,
,,,,,,,,,,,30,,,,4,0,4,0,,,,,,,,,,,,,,,,,,,,,,,,,,,,,,,,,,,,,,,,,,,,,,,,,,,,,,,,,,,,,,,,,,,,,,,,,,,,,,21,0.7,0.5,1,99,2,30,0,conditions/schedules/train_x_first/blue_star_00/bottom_left/inputTrain_2.1.xlsx,99,1,2,1,0,,,,,,,,,,,,,,,,,,,,,,,,,,,,,,,,,,,,,,,,,,,,,,,,,,,,,,,,,,,,,,,,,,,,,,,,,,,ERWYZ6,train_x,blue_star,bottom_left,2025-05-30_09h22.52.948,HideSeek_v1,2022.2.5,59.91636873241702,
,,,,,,,,,,,,,,,5,0,5,0,0,0,0,0,,,,,,,,,,,,,,,,,,,,,,,,,,,,,,,conditions/schedules/train_x_first/blue_star_00/bottom_left/instructions/Slide22.png,conditions/schedules/train_x_first/blue_star_00/bottom_left/instructions/Audio22.wav,2568.4275944,2568.4223500999997,22,"[5.871631999999863, 17.979365000000143, 17.05846130000009, 19.003008599999703, 5.856121499999972, 4.802219299999706, 5.585467299999891, 11.490170999999918, 5.553019899999981, 6.818322300000091, 9.868138499999986, 12.33750900000041, 16.979781000000003, 14.140835300000163, 31.220105700000204, 22.641512499999862, 58.52034830000002, 6.49843809999993, 10.303755499999625, 13.822032699999909, 17.22010309999996, 44.263615200000004]","[0.0002079000000776432, 0.01408609999998589, 0.0004389999999148131, 0.035123399999974936, 0.03129480000006879, 0.047492599999714, 0.06424029999971026, 0.06539519999978438, 0.09561329999996815, 0.04651799999965078, 0.08079429999997956, 12.337515200000325, 0.031154400000104943, 14.1408421000001, 0.013843100000030972, 22.64151899999979, 0.00021240000023681205, 0.01375579999967158, 0.046902899999622605, 13.822043299999677, 17.220110700000077, 44.263623199999984]",0,,,,,,,,,,,,,,,,,,,,,,,,,,,,,,,,,,,,,,,,,,,,,,,,,,,,,,,,,,,,,,,,,,,,,,,,,,,,,,,,,,,,,,,,,,,,,,,,,,,,,,,,,,,,,,,,,,,,,,,,,,,,ERWYZ6,train_x,blue_star,bottom_left,2025-05-30_09h22.52.948,HideSeek_v1,2022.2.5,59.91636873241702,
,0,0,0,4,0,4,65,,train_dim1_2,1,30,,,,5,0,5,0,,,,,,,,,0,0,0,0,0,0,0,0,0,0,0,0,,,,,,,,,,,,,,,,,,,,,,,,,stimuli/alien_stimuli/65.png,,,,,,,,,,,,,,,,,,,,,,,,,,,,,,,,,,,,,,,30,,,,,,,,2612.7925124,2612.7925124,2612.7925124,2612.7925124,2612.7925124,up,2.546546000000035,0,0,0,99,-0.16,-0.32,up,2.4465830000002597,,,,,,,,,,,,,,,,,,,,,,,,,,,,,,,,,,,,,,,,,,,,,,,,,,,,,,,,,,,,ERWYZ6,train_x,blue_star,bottom_left,2025-05-30_09h22.52.948,HideSeek_v1,2022.2.5,59.91636873241702,
,0,0,0,4,0,4,65,,train_dim1_2,1,30,,,,5,0,5,0,,,,,,,,,0,0,0,0,0,0,0,0,1,0,1,0,,,,,,,,,,,,,,,,,,,,,,,,,,,,,,,,,,,,,,,,,,,,,,,,,,,,,,,,,,,,,,,,30,,,,,,,,2615.3301506,2615.3301506,2615.3301506,2615.3301506,2615.3301506,up,0.675556300000153,0,0,0,99,-0.16,-0.24,up,0.5941578999999138,,,,,,,,,,,,,,,,,,,,,,,,,,,,,,,,,,,,,,,,,,,,,,,,,,,,,,,,,,,,ERWYZ6,train_x,blue_star,bottom_left,2025-05-30_09h22.52.948,HideSeek_v1,2022.2.5,59.91636873241702,
,0,0,0,4,0,4,65,,train_dim1_2,1,30,,,,5,0,5,0,,,,,,,,,0,0,0,0,0,0,0,0,2,0,2,0,,,,,,,,,,,,,,,,,,,,,,,,,,,,,,,,,,,,,,,,,,,,,,,,,,,,,,,,,,,,,,,,30,,,,,,,,2616.0111540999997,2616.0111540999997,2616.0111540999997,2616.0111540999997,2616.0111540999997,up,0.4597425000001749,0,0,0,99,-0.16,-0.15999999999999998,up,0.3833322000003818,,,,,,,,,,,,,,,,,,,,,,,,,,,,,,,,,,,,,,,,,,,,,,,,,,,,,,,,,,,,ERWYZ6,train_x,blue_star,bottom_left,2025-05-30_09h22.52.948,HideSeek_v1,2022.2.5,59.91636873241702,
,0,0,0,4,0,4,65,,train_dim1_2,1,30,,,,5,0,5,0,,,,,,,,,0,0,0,0,0,0,0,0,3,0,3,0,,,,,,,,,,,,,,,,,,,,,,,,,,,,,,,,,,,,,,,,,,,,,,,,,,,,,,,,,,,,,,,,30,,,,,,,,2616.4761114,2616.4761114,2616.4761114,2616.4761114,2616.4761114,up,0.5766446999996333,0,0,0,99,-0.16,-0.07999999999999997,up,0.4945265000000063,,,,,,,,,,,,,,,,,,,,,,,,,,,,,,,,,,,,,,,,,,,,,,,,,,,,,,,,,,,,ERWYZ6,train_x,blue_star,bottom_left,2025-05-30_09h22.52.948,HideSeek_v1,2022.2.5,59.91636873241702,
,0,0,0,4,0,4,65,,train_dim1_2,1,30,,,,5,0,5,0,,,,,,,,,0,0,0,0,0,0,0,0,4,0,4,0,,,,,,,,,,,,,,,,,,,,,,,,,,,,,,,,,,,,,,,,,,,,,,,,,,,,,,,,,,,,,,,,30,,,,,,,,2617.0599715,2617.0599715,2617.0599715,2617.0599715,2617.0599715,up,0.5436416000002282,0,0,0,99,-0.16,2.7755575615628914e-17,up,0.46487229999991087,,,,,,,,,,,,,,,,,,,,,,,,,,,,,,,,,,,,,,,,,,,,,,,,,,,,,,,,,,,,ERWYZ6,train_x,blue_star,bottom_left,2025-05-30_09h22.52.948,HideSeek_v1,2022.2.5,59.91636873241702,
,0,0,0,4,0,4,65,,train_dim1_2,1,30,,,,5,0,5,0,,,,,,,,,0,0,0,0,0,0,0,0,5,0,5,0,,,,,,,,,,,,,,,,,,,,,,,,,,,,,,,,,,,,,,,,,,,,,,,,,,,,,,,,,,,,,,,,30,,,,,,,,2617.6105285999997,2617.6105285999997,2617.6105285999997,2617.6105285999997,2617.6105285999997,return,0.8436004999998659,0,1,0,0,-0.16,2.7755575615628914e-17,return,0.7631107000000839,4,79,-0.16,2.7755575615628914e-17,,,,,,,,,,,,,,,,,,,,,,,,,,,,,,,,,,,,,,,,,,,,,,,,,,,,,,,,ERWYZ6,train_x,blue_star,bottom_left,2025-05-30_09h22.52.948,HideSeek_v1,2022.2.5,59.91636873241702,
,3,2,3,7,0,5,66,,train_dim1_2,2,30,,,,5,0,5,0,,,,,,,,,0,0,0,0,0,1,1,1,0,0,0,0,,,,,,,,,,,,,,,,,,,,,,,,,stimuli/alien_stimuli/66.png,,,,,,,,,,,,,,,,,,,,,,,,,,,,,stimuli/alien_stimuli/65.png,65,0,3,,,,,,,30,,,,,,,,2623.0687702,2623.0687702,2623.0687702,2623.0687702,2623.0687702,up,1.6405221999998503,0,1,0,99,0.08,-0.15999999999999998,up,1.5582339000001184,,,,,2621.517672,2623.0687702,-0.16,-0.08,0.32,0.0,-0.24000000000000002,-0.16,-0.16,-0.16,-0.08,2620.0376707,2620.0376707,2620.0376707,2620.0376707,2620.0376707,2620.0376707,2620.0376707,2620.0376707,2620.01558182,1.603564699999879,return,1.4554037999999991,,,,,,,,,,,,,,,,,,,,,,,,,,,,,,,,,ERWYZ6,train_x,blue_star,bottom_left,2025-05-30_09h22.52.948,HideSeek_v1,2022.2.5,59.91636873241702,
,3,2,3,7,0,5,66,,train_dim1_2,2,30,,,,5,0,5,0,,,,,,,,,0,0,0,0,0,1,1,1,1,0,1,0,,,,,,,,,,,,,,,,,,,,,,,,,,,,,,,,,,,,,,,,,,,,,,,,,,,,,,,,,,,,,,,,30,,,,,,,,2624.717077,2624.717077,2624.717077,2624.717077,2624.717077,up,0.509421299999758,0,1,0,99,0.08,-0.07999999999999997,up,0.4319275000001426,,,,,,,,,,,,,,,,,,,,,,,,,,,,,,,,,,,,,,,,,,,,,,,,,,,,,,,,,,,,ERWYZ6,train_x,blue_star,bottom_left,2025-05-30_09h22.52.948,HideSeek_v1,2022.2.5,59.91636873241702,
,3,2,3,7,0,5,66,,train_dim1_2,2,30,,,,5,0,5,0,,,,,,,,,0,0,0,0,0,1,1,1,2,0,2,0,,,,,,,,,,,,,,,,,,,,,,,,,,,,,,,,,,,,,,,,,,,,,,,,,,,,,,,,,,,,,,,,30,,,,,,,,2625.2339124,2625.2339124,2625.2339124,2625.2339124,2625.2339124,up,0.6435280000000603,0,1,0,99,0.08,2.7755575615628914e-17,up,0.5694874999998092,,,,,,,,,,,,,,,,,,,,,,,,,,,,,,,,,,,,,,,,,,,,,,,,,,,,,,,,,,,,ERWYZ6,train_x,blue_star,bottom_left,2025-05-30_09h22.52.948,HideSeek_v1,2022.2.5,59.91636873241702,
,3,2,3,7,0,5,66,,train_dim1_2,2,30,,,,5,0,5,0,,,,,,,,,0,0,0,0,0,1,1,1,3,0,3,0,,,,,,,,,,,,,,,,,,,,,,,,,,,,,,,,,,,,,,,,,,,,,,,,,,,,,,,,,,,,,,,,30,,,,,,,,2625.8836477,2625.8836477,2625.8836477,2625.8836477,2625.8836477,up,0.6936153999999988,0,1,0,99,0.08,0.08000000000000003,up,0.618149199999948,,,,,,,,,,,,,,,,,,,,,,,,,,,,,,,,,,,,,,,,,,,,,,,,,,,,,,,,,,,,ERWYZ6,train_x,blue_star,bottom_left,2025-05-30_09h22.52.948,HideSeek_v1,2022.2.5,59.91636873241702,
,3,2,3,7,0,5,66,,train_dim1_2,2,30,,,,5,0,5,0,,,,,,,,,0,0,0,0,0,1,1,1,4,0,4,0,,,,,,,,,,,,,,,,,,,,,,,,,,,,,,,,,,,,,,,,,,,,,,,,,,,,,,,,,,,,,,,,30,,,,,,,,2626.5918662999998,2626.5918662999998,2626.5918662999998,2626.5918662999998,2626.5918662999998,return,0.5221836000000621,0,1,0,0,0.08,0.08000000000000003,return,0.431520400000295,8,79,0.08,0.08000000000000003,,,,,,,,,,,,,,,,,,,,,,,,,,,,,,,,,,,,,,,,,,,,,,,,,,,,,,,,ERWYZ6,train_x,blue_star,bottom_left,2025-05-30_09h22.52.948,HideSeek_v1,2022.2.5,59.91636873241702,
,2,3,2,6,0,3,64,,train_dim1_2,3,30,,,,5,0,5,0,,,,,,,,,0,0,0,0,0,2,2,2,0,0,0,0,,,,,,,,,,,,,,,,,,,,,,,,,stimuli/alien_stimuli/64.png,,,,,,,,,,,,,,,,,,,,,,,,,,,,,stimuli/alien_stimuli/66.png,66,3,4,,,,,,,30,,,,,,,,2631.7293385,2631.7293385,2631.7293385,2631.7293385,2631.7293385,up,3.056145699999888,0,1,0,99,0,-0.08,up,2.9825529999997116,,,,,2630.1750806,2631.7293385,0.08,0.16,0.4,0.0,-0.039999999999999994,0.08,0.08,0.08,0.16,2628.6617624,2628.6617624,2628.6617624,2628.6617624,2628.6617624,2628.6617624,2628.6617624,2628.6617624,2628.6563152599997,1.6033798000003117,return,1.490004500000282,,,,,,,,,,,,,,,,,,,,,,,,,,,,,,,,,ERWYZ6,train_x,blue_star,bottom_left,2025-05-30_09h22.52.948,HideSeek_v1,2022.2.5,59.91636873241702,
,2,3,2,6,0,3,64,,train_dim1_2,3,30,,,,5,0,5,0,,,,,,,,,0,0,0,0,0,2,2,2,1,0,1,0,,,,,,,,,,,,,,,,,,,,,,,,,,,,,,,,,,,,,,,,,,,,,,,,,,,,,,,,,,,,,,,,30,,,,,,,,2634.7917471,2634.7917471,2634.7917471,2634.7917471,2634.7917471,up,0.5762202999999317,0,1,0,99,0,0.0,up,0.4955831999999418,,,,,,,,,,,,,,,,,,,,,,,,,,,,,,,,,,,,,,,,,,,,,,,,,,,,,,,,,,,,ERWYZ6,train_x,blue_star,bottom_left,2025-05-30_09h22.52.948,HideSeek_v1,2022.2.5,59.91636873241702,
,2,3,2,6,0,3,64,,train_dim1_2,3,30,,,,5,0,5,0,,,,,,,,,0,0,0,0,0,2,2,2,2,0,2,0,,,,,,,,,,,,,,,,,,,,,,,,,,,,,,,,,,,,,,,,,,,,,,,,,,,,,,,,,,,,,,,,30,,,,,,,,2635.3755766,2635.3755766,2635.3755766,2635.3755766,2635.3755766,return,0.62698249999994,0,1,0,0,0,0.0,return,0.539144199999896,10,79,0,0.0,,,,,,,,,,,,,,,,,,,,,,,,,,,,,,,,,,,,,,,,,,,,,,,,,,,,,,,,ERWYZ6,train_x,blue_star,bottom_left,2025-05-30_09h22.52.948,HideSeek_v1,2022.2.5,59.91636873241702,
,0,1,0,2,0,1,62,,train_dim1_2,4,30,,,,5,0,5,0,,,,,,,,,0,0,0,0,0,3,3,3,0,0,0,0,,,,,,,,,,,,,,,,,,,,,,,,,stimuli/alien_stimuli/62.png,,,,,,,,,,,,,,,,,,,,,,,,,,,,,stimuli/alien_stimuli/64.png,64,2,5,,,,,,,30,,,,,,,,2640.3041009,2640.3041009,2640.3041009,2640.3041009,2640.3041009,return,1.2872569000001022,0,1,0,0,-0.16,-0.32,return,1.1983783000003996,10,79,-0.16,-0.32,2638.7488877,2640.3041009,0,0.08,0.24,0.0,-0.04,0,0.0,0,0.08,2637.5527539,2637.5527539,2637.5527539,2637.5527539,2637.5527539,2637.5527539,2637.5527539,2637.5527539,2637.5467746599998,1.2869974999998703,return,1.1712363000000323,,,,,,,,,,,,,,,,,,,,,,,,,,,,,,,,,ERWYZ6,train_x,blue_star,bottom_left,2025-05-30_09h22.52.948,HideSeek_v1,2022.2.5,59.91636873241702,
,3,3,3,3,0,0,61,,train_dim1_2,5,30,,,,5,0,5,0,,,,,,,,,0,0,0,0,0,4,4,4,0,0,0,0,,,,,,,,,,,,,,,,,,,,,,,,,stimuli/alien_stimuli/61.png,,,,,,,,,,,,,,,,,,,,,,,,,,,,,stimuli/alien_stimuli/62.png,62,0,6,,,,,,,30,,,,,,,,2645.8086289,2645.8086289,2645.8086289,2645.8086289,2645.8086289,return,3.2548683999998502,1,0,0,1,0.08,-0.16,return,3.1816410000000133,10,79,0.08,-0.16,2644.2534348,2645.8086289,-0.16,-0.24,0.08,0.0,-0.28,-0.16,-0.16,-0.16,-0.24,2643.1410587,2643.1410587,2643.1410587,2643.1410587,2643.1410587,2643.1410587,2643.1410587,2643.1410587,2643.13486136,1.2032619000001432,return,1.0941463000002614,,,,,,,,,,,,,,,,,,,,,,,,,,,,,,,,,ERWYZ6,train_x,blue_star,bottom_left,2025-05-30_09h22.52.948,HideSeek_v1,2022.2.5,59.91636873241702,
