trialInstr,x_fixStart,y_fixStart,x_corrSteps,y_corrSteps,x_nrSteps,y_nrSteps,alienID,trialLength,version,trialTrain,praclen,testlen,trial_label,break_on_off,beforeExpLoop.thisRepN,beforeExpLoop.thisTrialN,beforeExpLoop.thisN,beforeExpLoop.thisIndex,mini_instr_trials.thisRepN,mini_instr_trials.thisTrialN,mini_instr_trials.thisN,mini_instr_trials.thisIndex,instrLoop.thisRepN,instrLoop.thisTrialN,instrLoop.thisN,instrLoop.thisIndex,repeat_prac.thisRepN,repeat_prac.thisTrialN,repeat_prac.thisN,repeat_prac.thisIndex,trainLoop.thisRepN,trainLoop.thisTrialN,trainLoop.thisN,trainLoop.thisIndex,moveLoop_train.thisRepN,moveLoop_train.thisTrialN,moveLoop_train.thisN,moveLoop_train.thisIndex,experiment.thisRepN,experiment.thisTrialN,experiment.thisN,experiment.thisIndex,moveLoop_test.thisRepN,moveLoop_test.thisTrialN,moveLoop_test.thisN,moveLoop_test.thisIndex,mini_instr2_trials.thisRepN,mini_instr2_trials.thisTrialN,mini_instr2_trials.thisN,mini_instr2_trials.thisIndex,start_all_time,url,slideStim,audioStim,slides.started,sounds.started,nextButton.numClicks,nextButton.timesOn,nextButton.timesOff,prev_but.numClicks,prev_but.timesOn,prev_but.timesOff,alienStim,instrFile,alienStim_instr,gridImage_instr.started,startPos_3.started,key_instr.started,alienImage_3.started,sounds_1.started,key_instr.keys,key_instr.rt,all_x,all_y,FBy_corrSteps,FBy_fixStart,FBx_corrSteps,FBx_fixStart,FBy_pathSize_check,FBx_pathSize_check,gridImage_9.started,alienImageFB_3.started,startPosFB_3.started,keyFB_3.started,pathLine_ydir_2.started,pathLine_xdir_2.started,alienFace_3.started,sounds_2.started,RTFB_instr,keyFB_3.keys,keyFB_3.rt,draw_alienStim,draw_alienID,test_x,nrepcount,perfthres,percthres,earlierperf,earlystop,nextPrac,fileidx,praclen,saveACC_train,pracFile,nextPrac_train,addNrep,fileidx_endr,repExp,showearly,gridImage_4.started,startPos.started,movePos.started,key_resp.started,alienImage.started,buttonPress_train,RTchoice_train,cumAcctrain,aCorr,saveACC_choice,corrAns,x_movePos_end,y_movePos_end,key_resp.keys,key_resp.rt,wLy_dir,wLx_dir,x_movePos,y_movePos,text_2.started,text_2.stopped,aft_x_corrPos,aft_y_corrPos,y_pathSize_check,x_pathSize_check,y_pathdirY,x_pathdirY,x_pathdirX,x_corrPos,y_corrPos,gridImage_6.started,alienImageFB_2.started,startPosFB_2.started,movePosFB_2.started,keyFB_2.started,pathLine_xdir.started,pathLine_ydir.started,alienFace.started,sounds_4.started,RT_FBtrain,keyFB_2.keys,keyFB_2.rt,saveACC_pre,ACC,within_saveACC_train,earlystop_wloop,cumAcctrain_check,gridImage_3.started,alienImage_test.started,startPos_test.started,movePos_test.started,key_resp_test.started,wLy_dir_test,wLx_dir_test,buttonPress_test,RTchoice_test,cumAcctest,corrAns_test,key_resp_test.keys,key_resp_test.rt,text_3.started,text_3.stopped,total_time,end_all_time,key_resp_3.keys,slides_2.started,sounds_3.started,nextButton_2.numClicks,nextButton_2.timesOn,nextButton_2.timesOff,prev_but_2.numClicks,prev_but_2.timesOn,prev_but_2.timesOff,bye.started,participant,train_first,00_coordinate,starting corner,date,expName,psychopyVersion,frameRate,
,,,,,,,,,,,,,,,0,0,0,0,0,0,0,0,,,,,,,,,,,,,,,,,,,,,,,,,,,,,start_all_time,testround,conditions/schedules/train_y_first/red_square_00/top_left/instructions/Slide1.png,conditions/schedules/train_y_first/red_square_00/top_left/instructions/Audio1.wav,1973.1759733000072,1973.1124105009076,1,[3.6885302999871783],[3.6885415999568067],0,,,,,,,,,,,,,,,,,,,,,,,,,,,,,,,,,,,,,,,,,,,,,,,,,,,,,,,,,,,,,,,,,,,,,,,,,,,,,,,,,,,,,,,,,,,,,,,,,,,,,,,,,,,,,,,,,,,,,,,,,,,,ETY26L,train_y,red_square,top_left,2025-05-12_15h37.53.704,HideSeek_v1,2022.2.5,59.98415219899437,
,,,,,,,,,,,,,,,0,0,0,0,1,0,1,0,,,,,,,,,,,,,,,,,,,,,,,,,,,,,,,conditions/schedules/train_y_first/red_square_00/top_left/instructions/Slide2.png,conditions/schedules/train_y_first/red_square_00/top_left/instructions/Audio2.wav,1976.8827505999943,1976.8821806999913,2,"[3.6885302999871783, 17.878525500011165]","[0.014279399998486042, 17.87853200000245]",0,,,,,,,,,,,,,,,,,,,,,,,,,,,,,,,,,,,,,,,,,,,,,,,,,,,,,,,,,,,,,,,,,,,,,,,,,,,,,,,,,,,,,,,,,,,,,,,,,,,,,,,,,,,,,,,,,,,,,,,,,,,,ETY26L,train_y,red_square,top_left,2025-05-12_15h37.53.704,HideSeek_v1,2022.2.5,59.98415219899437,
,,,,,,,,,,,,,,,0,0,0,0,2,0,2,0,,,,,,,,,,,,,,,,,,,,,,,,,,,,,,,conditions/schedules/train_y_first/red_square_00/top_left/instructions/Slide3.png,conditions/schedules/train_y_first/red_square_00/top_left/instructions/Audio3.wav,1994.8387265999918,1994.830379000021,3,"[3.6885302999871783, 17.878525500011165, 16.286244399962015]","[0.014279399998486042, 0.05659469997044653, 16.286251899960916]",0,,,,,,,,,,,,,,,,,,,,,,,,,,,,,,,,,,,,,,,,,,,,,,,,,,,,,,,,,,,,,,,,,,,,,,,,,,,,,,,,,,,,,,,,,,,,,,,,,,,,,,,,,,,,,,,,,,,,,,,,,,,,ETY26L,train_y,red_square,top_left,2025-05-12_15h37.53.704,HideSeek_v1,2022.2.5,59.98415219899437,
,,,,,,,,,,,,,,,0,0,0,0,3,0,3,0,,,,,,,,,,,,,,,,,,,,,,,,,,,,,,,conditions/schedules/train_y_first/red_square_00/top_left/instructions/Slide4.png,conditions/schedules/train_y_first/red_square_00/top_left/instructions/Audio4.wav,2011.2036564999726,2011.1938576000102,4,"[3.6885302999871783, 17.878525500011165, 16.286244399962015, 19.80467410001438]","[0.014279399998486042, 0.05659469997044653, 0.0883966000401415, 19.804681100009475]",0,,,,,,,,,,,,,,,,,,,,,,,,,,,,,,,,,,,,,,,,,,,,,,,,,,,,,,,,,,,,,,,,,,,,,,,,,,,,,,,,,,,,,,,,,,,,,,,,,,,,,,,,,,,,,,,,,,,,,,,,,,,,ETY26L,train_y,red_square,top_left,2025-05-12_15h37.53.704,HideSeek_v1,2022.2.5,59.98415219899437,
,,,,,,,,,,,,,,,0,0,0,0,4,0,4,0,,,,,,,,,,,,,,,,,,,,,,,,,,,,,,,conditions/schedules/train_y_first/red_square_00/top_left/instructions/Slide5.png,conditions/schedules/train_y_first/red_square_00/top_left/instructions/Audio5.wav,2031.0777147999615,2031.0771134000097,5,"[3.6885302999871783, 17.878525500011165, 16.286244399962015, 19.80467410001438, 4.4339195000356995]","[0.014279399998486042, 0.05659469997044653, 0.0883966000401415, 0.06368409999413416, 4.433926700032316]",0,,,,,,,,,,,,,,,,,,,,,,,,,,,,,,,,,,,,,,,,,,,,,,,,,,,,,,,,,,,,,,,,,,,,,,,,,,,,,,,,,,,,,,,,,,,,,,,,,,,,,,,,,,,,,,,,,,,,,,,,,,,,ETY26L,train_y,red_square,top_left,2025-05-12_15h37.53.704,HideSeek_v1,2022.2.5,59.98415219899437,
,,,,,,,,,,,,,,,0,0,0,0,5,0,5,0,,,,,,,,,,,,,,,,,,,,,,,,,,,,,,,conditions/schedules/train_y_first/red_square_00/top_left/instructions/Slide6.png,conditions/schedules/train_y_first/red_square_00/top_left/instructions/Audio6.wav,2035.5634127999656,2035.5642585000023,6,"[3.6885302999871783, 17.878525500011165, 16.286244399962015, 19.80467410001438, 4.4339195000356995, 5.019396299961954]","[0.014279399998486042, 0.05659469997044653, 0.0883966000401415, 0.06368409999413416, 0.048535199952311814, 5.019402999954764]",0,,,,,,,,,,,,,,,,,,,,,,,,,,,,,,,,,,,,,,,,,,,,,,,,,,,,,,,,,,,,,,,,,,,,,,,,,,,,,,,,,,,,,,,,,,,,,,,,,,,,,,,,,,,,,,,,,,,,,,,,,,,,ETY26L,train_y,red_square,top_left,2025-05-12_15h37.53.704,HideSeek_v1,2022.2.5,59.98415219899437,
,,,,,,,,,,,,,,,0,0,0,0,6,0,6,0,,,,,,,,,,,,,,,,,,,,,,,,,,,,,,,conditions/schedules/train_y_first/red_square_00/top_left/instructions/Slide7.png,conditions/schedules/train_y_first/red_square_00/top_left/instructions/Audio7.wav,2040.6339553999715,2040.6351791999768,7,"[3.6885302999871783, 17.878525500011165, 16.286244399962015, 19.80467410001438, 4.4339195000356995, 5.019396299961954, 5.803205100004561]","[0.014279399998486042, 0.05659469997044653, 0.0883966000401415, 0.06368409999413416, 0.048535199952311814, 0.049193100014235824, 5.803211799997371]",0,,,,,,,,,,,,,,,,,,,,,,,,,,,,,,,,,,,,,,,,,,,,,,,,,,,,,,,,,,,,,,,,,,,,,,,,,,,,,,,,,,,,,,,,,,,,,,,,,,,,,,,,,,,,,,,,,,,,,,,,,,,,ETY26L,train_y,red_square,top_left,2025-05-12_15h37.53.704,HideSeek_v1,2022.2.5,59.98415219899437,
,,,,,,,,,,,,,,,0,0,0,0,7,0,7,0,,,,,,,,,,,,,,,,,,,,,,,,,,,,,,,conditions/schedules/train_y_first/red_square_00/top_left/instructions/Slide8.png,conditions/schedules/train_y_first/red_square_00/top_left/instructions/Audio8.wav,2046.4908388999756,2046.4898462999845,8,"[3.6885302999871783, 17.878525500011165, 16.286244399962015, 19.80467410001438, 4.4339195000356995, 5.019396299961954, 5.803205100004561, 11.606209699995816]","[0.014279399998486042, 0.05659469997044653, 0.0883966000401415, 0.06368409999413416, 0.048535199952311814, 0.049193100014235824, 0.046557200024835765, 11.60621669999091]",0,,,,,,,,,,,,,,,,,,,,,,,,,,,,,,,,,,,,,,,,,,,,,,,,,,,,,,,,,,,,,,,,,,,,,,,,,,,,,,,,,,,,,,,,,,,,,,,,,,,,,,,,,,,,,,,,,,,,,,,,,,,,ETY26L,train_y,red_square,top_left,2025-05-12_15h37.53.704,HideSeek_v1,2022.2.5,59.98415219899437,
,,,,,,,,,,,,,,,0,0,0,0,8,0,8,0,,,,,,,,,,,,,,,,,,,,,,,,,,,,,,,conditions/schedules/train_y_first/red_square_00/top_left/instructions/Slide9.png,conditions/schedules/train_y_first/red_square_00/top_left/instructions/Audio9.wav,2058.1612067999667,2058.1495574999717,9,"[3.6885302999871783, 17.878525500011165, 16.286244399962015, 19.80467410001438, 4.4339195000356995, 5.019396299961954, 5.803205100004561, 11.606209699995816, 5.824162499979138]","[0.014279399998486042, 0.05659469997044653, 0.0883966000401415, 0.06368409999413416, 0.048535199952311814, 0.049193100014235824, 0.046557200024835765, 0.08619589998852462, 5.824168999970425]",0,,,,,,,,,,,,,,,,,,,,,,,,,,,,,,,,,,,,,,,,,,,,,,,,,,,,,,,,,,,,,,,,,,,,,,,,,,,,,,,,,,,,,,,,,,,,,,,,,,,,,,,,,,,,,,,,,,,,,,,,,,,,ETY26L,train_y,red_square,top_left,2025-05-12_15h37.53.704,HideSeek_v1,2022.2.5,59.98415219899437,
,,,,,,,,,,,,,,,0,0,0,0,9,0,9,0,,,,,,,,,,,,,,,,,,,,,,,,,,,,,,,conditions/schedules/train_y_first/red_square_00/top_left/instructions/Slide10.png,conditions/schedules/train_y_first/red_square_00/top_left/instructions/Audio10.wav,2064.0233990999986,2064.0209367000207,10,"[3.6885302999871783, 17.878525500011165, 16.286244399962015, 19.80467410001438, 4.4339195000356995, 5.019396299961954, 5.803205100004561, 11.606209699995816, 5.824162499979138, 6.884201600041706]","[0.014279399998486042, 0.05659469997044653, 0.0883966000401415, 0.06368409999413416, 0.048535199952311814, 0.049193100014235824, 0.046557200024835765, 0.08619589998852462, 0.11166330002015457, 6.884209500043653]",0,,,,,,,,,,,,,,,,,,,,,,,,,,,,,,,,,,,,,,,,,,,,,,,,,,,,,,,,,,,,,,,,,,,,,,,,,,,,,,,,,,,,,,,,,,,,,,,,,,,,,,,,,,,,,,,,,,,,,,,,,,,,ETY26L,train_y,red_square,top_left,2025-05-12_15h37.53.704,HideSeek_v1,2022.2.5,59.98415219899437,
,,,,,,,,,,,,,,,0,0,0,0,10,0,10,0,,,,,,,,,,,,,,,,,,,,,,,,,,,,,,,conditions/schedules/train_y_first/red_square_00/top_left/instructions/Slide11.png,conditions/schedules/train_y_first/red_square_00/top_left/instructions/Audio11.wav,2070.945905199973,2070.9432862999674,11,"[3.6885302999871783, 17.878525500011165, 16.286244399962015, 19.80467410001438, 4.4339195000356995, 5.019396299961954, 5.803205100004561, 11.606209699995816, 5.824162499979138, 6.884201600041706, 10.922275799966883]","[0.014279399998486042, 0.05659469997044653, 0.0883966000401415, 0.06368409999413416, 0.048535199952311814, 0.049193100014235824, 0.046557200024835765, 0.08619589998852462, 0.11166330002015457, 0.0778584000072442, 10.922283799969591]",0,,,,,,,,,,,,,,,,,,,,,,,,,,,,,,,,,,,,,,,,,,,,,,,,,,,,,,,,,,,,,,,,,,,,,,,,,,,,,,,,,,,,,,,,,,,,,,,,,,,,,,,,,,,,,,,,,,,,,,,,,,,,ETY26L,train_y,red_square,top_left,2025-05-12_15h37.53.704,HideSeek_v1,2022.2.5,59.98415219899437,
,,,,,,,,,,,,,,,0,0,0,0,11,0,11,0,,,,,,,,,,,,,,,,,,,,,,,,,,,,,,,conditions/schedules/train_y_first/red_square_00/top_left/instructions/Slide12.png,conditions/schedules/train_y_first/red_square_00/top_left/instructions/Audio12.wav,2081.9402100999723,2081.935959299997,12,"[3.6885302999871783, 17.878525500011165, 16.286244399962015, 19.80467410001438, 4.4339195000356995, 5.019396299961954, 5.803205100004561, 11.606209699995816, 5.824162499979138, 6.884201600041706, 10.922275799966883, 13.88836020004237]","[0.014279399998486042, 0.05659469997044653, 0.0883966000401415, 0.06368409999413416, 0.048535199952311814, 0.049193100014235824, 0.046557200024835765, 0.08619589998852462, 0.11166330002015457, 0.0778584000072442, 10.922283799969591, 13.888367800042033]",0,,,,,,,,,,,,,,,,,,,,,,,,,,,,,,,,,,,,,,,,,,,,,,,,,,,,,,,,,,,,,,,,,,,,,,,,,,,,,,,,,,,,,,,,,,,,,,,,,,,,,,,,,,,,,,,,,,,,,,,,,,,,ETY26L,train_y,red_square,top_left,2025-05-12_15h37.53.704,HideSeek_v1,2022.2.5,59.98415219899437,
1,2,8,2,3,0,-5,11,2,instr_dim1_1,,,,,,0,0,0,0,,,,,0,0,0,0,,,,,,,,,,,,,,,,,,,,,,,,,,,,,,,,,,,,,stimuli/alien_stimuli/11.png,conditions/schedules/train_y_first/red_square_00/top_left/inputInstr_1.xlsx,stimuli/alien_stimuli/11.png,2095.9332383999717,2095.9332383999717,2095.9332383999717,2095.9332383999717,2095.9310666999954,return,19.60273280000547,"[-0.16, -0.08, 0, 0.08, 0.16, 0.24, 0.32, 0.4, 0.48, 0.56]","[-0.4, -0.32, -0.24, -0.16, -0.08, 0, 0.08, 0.16, 0.24, 0.32]",3,8,2,2,0.4,0.0,2115.7121594999917,2115.7121594999917,2115.7121594999917,2115.7121594999917,2115.7121594999917,2115.7121594999917,2115.7121594999917,2115.6970729999884,10.376333199965302,return,10.20136659994023,stimuli/alien_stimuli/11.png,11,2,1,,,,,,,,,,,,,,,,,,,,,,,,,,,,,,,,,,,,,,,,,,,,,,,,,,,,,,,,,,,,,,,,,,,,,,,,,,,,,,,,,,,,,,,,,ETY26L,train_y,red_square,top_left,2025-05-12_15h37.53.704,HideSeek_v1,2022.2.5,59.98415219899437,
,,,,,,,,,,,30,,,,0,0,0,0,,,,,,,,,,,,,,,,,,,,,,,,,,,,,,,,,,,,,,,,,,,,,,,,,,,,,,,,,,,,,,,,,,,,,,,,,,,,,,21,0.7,0,0,99,1,30,0,conditions/schedules/train_y_first/red_square_00/top_left/inputTrain_1.1.xlsx,99,1,1,1,0,,,,,,,,,,,,,,,,,,,,,,,,,,,,,,,,,,,,,,,,,,,,,,,,,,,,,,,,,,,,,,,,,,,,,,,,,,,ETY26L,train_y,red_square,top_left,2025-05-12_15h37.53.704,HideSeek_v1,2022.2.5,59.98415219899437,
,,,,,,,,,,,,,,,1,0,1,0,0,0,0,0,,,,,,,,,,,,,,,,,,,,,,,,,,,,,,,conditions/schedules/train_y_first/red_square_00/top_left/instructions/Slide13.png,conditions/schedules/train_y_first/red_square_00/top_left/instructions/Audio13.wav,2126.0916358999675,2126.0890483999974,13,"[3.6885302999871783, 17.878525500011165, 16.286244399962015, 19.80467410001438, 4.4339195000356995, 5.019396299961954, 5.803205100004561, 11.606209699995816, 5.824162499979138, 6.884201600041706, 10.922275799966883, 13.88836020004237, 17.692407299997285]","[0.014279399998486042, 0.05659469997044653, 0.0883966000401415, 0.06368409999413416, 0.048535199952311814, 0.049193100014235824, 0.046557200024835765, 0.08619589998852462, 0.11166330002015457, 0.0778584000072442, 10.922283799969591, 13.888367800042033, 17.69241369998781]",0,,,,,,,,,,,,,,,,,,,,,,,,,,,,,,,,,,,,,,,,,,,,,,,,,,,,,,,,,,,,,,,,,,,,,,,,,,,,,,,,,,,,,,,,,,,,,,,,,,,,,,,,,,,,,,,,,,,,,,,,,,,,ETY26L,train_y,red_square,top_left,2025-05-12_15h37.53.704,HideSeek_v1,2022.2.5,59.98415219899437,
,,,,,,,,,,,,,,,1,0,1,0,1,0,1,0,,,,,,,,,,,,,,,,,,,,,,,,,,,,,,,conditions/schedules/train_y_first/red_square_00/top_left/instructions/Slide14.png,conditions/schedules/train_y_first/red_square_00/top_left/instructions/Audio14.wav,2143.857666499971,2143.8537490999734,14,"[3.6885302999871783, 17.878525500011165, 16.286244399962015, 19.80467410001438, 4.4339195000356995, 5.019396299961954, 5.803205100004561, 11.606209699995816, 5.824162499979138, 6.884201600041706, 10.922275799966883, 13.88836020004237, 17.692407299997285, 17.024303899961524]","[0.014279399998486042, 0.05659469997044653, 0.0883966000401415, 0.06368409999413416, 0.048535199952311814, 0.049193100014235824, 0.046557200024835765, 0.08619589998852462, 0.11166330002015457, 0.0778584000072442, 10.922283799969591, 13.888367800042033, 17.69241369998781, 17.02431029995205]",0,,,,,,,,,,,,,,,,,,,,,,,,,,,,,,,,,,,,,,,,,,,,,,,,,,,,,,,,,,,,,,,,,,,,,,,,,,,,,,,,,,,,,,,,,,,,,,,,,,,,,,,,,,,,,,,,,,,,,,,,,,,,ETY26L,train_y,red_square,top_left,2025-05-12_15h37.53.704,HideSeek_v1,2022.2.5,59.98415219899437,
2,0,8,0,8,0,0,16,2,instr_dim1_1,,,,,,1,0,1,0,,,,,0,0,0,0,,,,,,,,,,,,,,,,,,,,,,,,,,,,,,,,,,,,,stimuli/alien_stimuli/16.png,conditions/schedules/train_y_first/red_square_00/top_left/inputInstr_1.xlsx,stimuli/alien_stimuli/16.png,2160.9822338999948,2160.9822338999948,2160.9822338999948,2160.9822338999948,2160.9847710000176,return,6.606238700042013,"[-0.16, -0.08, 0, 0.08, 0.16, 0.24, 0.32, 0.4, 0.48, 0.56]","[-0.4, -0.32, -0.24, -0.16, -0.08, 0, 0.08, 0.16, 0.24, 0.32]",8,8,0,0,0.0,0.0,2167.7379841000075,2167.7379841000075,2167.7379841000075,2167.7379841000075,2167.7379841000075,2167.7379841000075,2167.7379841000075,2167.740166100004,13.128016399976332,return,12.964150400017388,stimuli/alien_stimuli/16.png,16,0,2,,,,,,,,,,,,,,,,,,,,,,,,,,,,,,,,,,,,,,,,,,,,,,,,,,,,,,,,,,,,,,,,,,,,,,,,,,,,,,,,,,,,,,,,,ETY26L,train_y,red_square,top_left,2025-05-12_15h37.53.704,HideSeek_v1,2022.2.5,59.98415219899437,
,,,,,,,,,,,30,,,,1,0,1,0,,,,,,,,,,,,,,,,,,,,,,,,,,,,,,,,,,,,,,,,,,,,,,,,,,,,,,,,,,,,,,,,,,,,,,,,,,,,,,21,0.7,0,0,99,1,30,0,conditions/schedules/train_y_first/red_square_00/top_left/inputTrain_1.1.xlsx,99,1,1,1,0,,,,,,,,,,,,,,,,,,,,,,,,,,,,,,,,,,,,,,,,,,,,,,,,,,,,,,,,,,,,,,,,,,,,,,,,,,,ETY26L,train_y,red_square,top_left,2025-05-12_15h37.53.704,HideSeek_v1,2022.2.5,59.98415219899437,
,,,,,,,,,,,,,,,2,0,2,0,0,0,0,0,,,,,,,,,,,,,,,,,,,,,,,,,,,,,,,conditions/schedules/train_y_first/red_square_00/top_left/instructions/Slide15.png,conditions/schedules/train_y_first/red_square_00/top_left/instructions/Audio15.wav,2180.885808799998,2180.8841354000033,15,"[3.6885302999871783, 17.878525500011165, 16.286244399962015, 19.80467410001438, 4.4339195000356995, 5.019396299961954, 5.803205100004561, 11.606209699995816, 5.824162499979138, 6.884201600041706, 10.922275799966883, 13.88836020004237, 17.692407299997285, 17.024303899961524, 42.916973699990194]","[0.014279399998486042, 0.05659469997044653, 0.0883966000401415, 0.06368409999413416, 0.048535199952311814, 0.049193100014235824, 0.046557200024835765, 0.08619589998852462, 0.11166330002015457, 0.0778584000072442, 10.922283799969591, 13.888367800042033, 17.69241369998781, 17.02431029995205, 42.917000900022686]",0,,,,,,,,,,,,,,,,,,,,,,,,,,,,,,,,,,,,,,,,,,,,,,,,,,,,,,,,,,,,,,,,,,,,,,,,,,,,,,,,,,,,,,,,,,,,,,,,,,,,,,,,,,,,,,,,,,,,,,,,,,,,ETY26L,train_y,red_square,top_left,2025-05-12_15h37.53.704,HideSeek_v1,2022.2.5,59.98415219899437,
,,,,,,,,,,,,,,,2,0,2,0,1,0,1,0,,,,,,,,,,,,,,,,,,,,,,,,,,,,,,,conditions/schedules/train_y_first/red_square_00/top_left/instructions/Slide16.png,conditions/schedules/train_y_first/red_square_00/top_left/instructions/Audio16.wav,2223.892101300007,2223.8881605999777,16,"[3.6885302999871783, 17.878525500011165, 16.286244399962015, 19.80467410001438, 4.4339195000356995, 5.019396299961954, 5.803205100004561, 11.606209699995816, 5.824162499979138, 6.884201600041706, 10.922275799966883, 13.88836020004237, 17.692407299997285, 17.024303899961524, 42.916973699990194, 21.46001200005412]","[0.014279399998486042, 0.05659469997044653, 0.0883966000401415, 0.06368409999413416, 0.048535199952311814, 0.049193100014235824, 0.046557200024835765, 0.08619589998852462, 0.11166330002015457, 0.0778584000072442, 10.922283799969591, 13.888367800042033, 17.69241369998781, 17.02431029995205, 0.046577900007832795, 21.460018800047692]",0,,,,,,,,,,,,,,,,,,,,,,,,,,,,,,,,,,,,,,,,,,,,,,,,,,,,,,,,,,,,,,,,,,,,,,,,,,,,,,,,,,,,,,,,,,,,,,,,,,,,,,,,,,,,,,,,,,,,,,,,,,,,ETY26L,train_y,red_square,top_left,2025-05-12_15h37.53.704,HideSeek_v1,2022.2.5,59.98415219899437,
,0,5,0,4,0,-1,15,,train_dim1_1,1,30,,,,2,0,2,0,,,,,,,,,0,0,0,0,0,0,0,0,0,0,0,0,,,,,,,,,,,,,,,,,,,,,,,,,stimuli/alien_stimuli/15.png,,,,,,,,,,,,,,,,,,,,,,,,,,,,,,,,,,,,,,,30,,,,,,,,2245.455806699989,2245.455806699989,2245.455806699989,2245.455806699989,2245.455806699989,down,12.936748499982059,0,0,0,99,-0.16,-0.08,down,12.83866529999068,,,,,,,,,,,,,,,,,,,,,,,,,,,,,,,,,,,,,,,,,,,,,,,,,,,,,,,,,,,,ETY26L,train_y,red_square,top_left,2025-05-12_15h37.53.704,HideSeek_v1,2022.2.5,59.98415219899437,
,0,5,0,4,0,-1,15,,train_dim1_1,1,30,,,,2,0,2,0,,,,,,,,,0,0,0,0,0,0,0,0,1,0,1,0,,,,,,,,,,,,,,,,,,,,,,,,,,,,,,,,,,,,,,,,,,,,,,,,,,,,,,,,,,,,,,,,30,,,,,,,,2258.401817200007,2258.401817200007,2258.401817200007,2258.401817200007,2258.401817200007,down,3.0615325000253506,0,0,0,99,-0.16,-0.16,down,2.9654833000386134,,,,,,,,,,,,,,,,,,,,,,,,,,,,,,,,,,,,,,,,,,,,,,,,,,,,,,,,,,,,ETY26L,train_y,red_square,top_left,2025-05-12_15h37.53.704,HideSeek_v1,2022.2.5,59.98415219899437,
,0,5,0,4,0,-1,15,,train_dim1_1,1,30,,,,2,0,2,0,,,,,,,,,0,0,0,0,0,0,0,0,2,0,2,0,,,,,,,,,,,,,,,,,,,,,,,,,,,,,,,,,,,,,,,,,,,,,,,,,,,,,,,,,,,,,,,,30,,,,,,,,2261.4523525999975,2261.4523525999975,2261.4523525999975,2261.4523525999975,2261.4523525999975,return,1.1939181000343524,0,1,0,0,-0.16,-0.16,return,1.1082365999463946,-2,0,-0.16,-0.16,,,,,,,,,,,,,,,,,,,,,,,,,,,,,,,,,,,,,,,,,,,,,,,,,,,,,,,,ETY26L,train_y,red_square,top_left,2025-05-12_15h37.53.704,HideSeek_v1,2022.2.5,59.98415219899437,
,3,7,3,7,0,0,16,,train_dim1_1,2,30,,,,2,0,2,0,,,,,,,,,0,0,0,0,0,1,1,1,0,0,0,0,,,,,,,,,,,,,,,,,,,,,,,,,stimuli/alien_stimuli/16.png,,,,,,,,,,,,,,,,,,,,,,,,,,,,,stimuli/alien_stimuli/15.png,15,0,3,,,,,,,30,,,,,,,,2288.7643100999994,2288.7643100999994,2288.7643100999994,2288.7643100999994,2288.7643100999994,down,3.6587532999692485,0,1,0,99,0.08,0.08,down,3.5481703999685124,,,,,2287.1892695999704,2288.7643100999994,-0.16,-0.08,0.08,0.0,-0.04,-0.16,-0.16,-0.16,-0.08,2264.233192399959,2264.233192399959,2264.233192399959,2264.233192399959,2264.233192399959,2264.233192399959,2264.233192399959,2264.233192399959,2264.2201873000013,23.088078000000678,return,22.928871000010986,,,,,,,,,,,,,,,,,,,,,,,,,,,,,,,,,ETY26L,train_y,red_square,top_left,2025-05-12_15h37.53.704,HideSeek_v1,2022.2.5,59.98415219899437,
,3,7,3,7,0,0,16,,train_dim1_1,2,30,,,,2,0,2,0,,,,,,,,,0,0,0,0,0,1,1,1,1,0,1,0,,,,,,,,,,,,,,,,,,,,,,,,,,,,,,,,,,,,,,,,,,,,,,,,,,,,,,,,,,,,,,,,30,,,,,,,,2292.411880199972,2292.411880199972,2292.411880199972,2292.411880199972,2292.411880199972,return,0.9765943000093102,0,1,0,0,0.08,0.08,return,0.8882876000134274,-3,0,0.08,0.08,,,,,,,,,,,,,,,,,,,,,,,,,,,,,,,,,,,,,,,,,,,,,,,,,,,,,,,,ETY26L,train_y,red_square,top_left,2025-05-12_15h37.53.704,HideSeek_v1,2022.2.5,59.98415219899437,
,2,8,2,5,0,-3,13,,train_dim1_1,3,30,,,,2,0,2,0,,,,,,,,,0,0,0,0,0,2,2,2,0,0,0,0,,,,,,,,,,,,,,,,,,,,,,,,,stimuli/alien_stimuli/13.png,,,,,,,,,,,,,,,,,,,,,,,,,,,,,stimuli/alien_stimuli/16.png,16,3,4,,,,,,,30,,,,,,,,2302.3573055999586,2302.3573055999586,2302.3573055999586,2302.3573055999586,2302.3573055999586,down,4.2444304000237025,0,1,0,99,0,0.15999999999999998,down,4.164351399987936,,,,,2300.7838120000088,2302.3573055999586,0.08,0.16,0.0,0.0,0.16,0.08,0.08,0.08,0.16,2294.955370199983,2294.955370199983,2294.955370199983,2294.955370199983,2294.955370199983,2294.955370199983,2294.955370199983,2294.955370199983,2294.9457538000133,5.94023919996107,return,5.7992069000029005,,,,,,,,,,,,,,,,,,,,,,,,,,,,,,,,,ETY26L,train_y,red_square,top_left,2025-05-12_15h37.53.704,HideSeek_v1,2022.2.5,59.98415219899437,
,2,8,2,5,0,-3,13,,train_dim1_1,3,30,,,,2,0,2,0,,,,,,,,,0,0,0,0,0,2,2,2,1,0,1,0,,,,,,,,,,,,,,,,,,,,,,,,,,,,,,,,,,,,,,,,,,,,,,,,,,,,,,,,,,,,,,,,30,,,,,,,,2306.6067215999938,2306.6067215999938,2306.6067215999938,2306.6067215999938,2306.6067215999938,down,1.2763391000335105,0,1,0,99,0,0.07999999999999997,down,1.1908831999753602,,,,,,,,,,,,,,,,,,,,,,,,,,,,,,,,,,,,,,,,,,,,,,,,,,,,,,,,,,,,ETY26L,train_y,red_square,top_left,2025-05-12_15h37.53.704,HideSeek_v1,2022.2.5,59.98415219899437,
,2,8,2,5,0,-3,13,,train_dim1_1,3,30,,,,2,0,2,0,,,,,,,,,0,0,0,0,0,2,2,2,2,0,2,0,,,,,,,,,,,,,,,,,,,,,,,,,,,,,,,,,,,,,,,,,,,,,,,,,,,,,,,,,,,,,,,,30,,,,,,,,2307.8905932999915,2307.8905932999915,2307.8905932999915,2307.8905932999915,2307.8905932999915,down,1.0767720000003465,0,1,0,99,0,-2.7755575615628914e-17,down,0.9968663000036031,,,,,,,,,,,,,,,,,,,,,,,,,,,,,,,,,,,,,,,,,,,,,,,,,,,,,,,,,,,,ETY26L,train_y,red_square,top_left,2025-05-12_15h37.53.704,HideSeek_v1,2022.2.5,59.98415219899437,
,2,8,2,5,0,-3,13,,train_dim1_1,3,30,,,,2,0,2,0,,,,,,,,,0,0,0,0,0,2,2,2,3,0,3,0,,,,,,,,,,,,,,,,,,,,,,,,,,,,,,,,,,,,,,,,,,,,,,,,,,,,,,,,,,,,,,,,30,,,,,,,,2308.9730643999646,2308.9730643999646,2308.9730643999646,2308.9730643999646,2308.9730643999646,return,1.260472399997525,1,0,0,1,0,-2.7755575615628914e-17,return,1.1753047000383958,-6,0,0,-2.7755575615628914e-17,,,,,,,,,,,,,,,,,,,,,,,,,,,,,,,,,,,,,,,,,,,,,,,,,,,,,,,,ETY26L,train_y,red_square,top_left,2025-05-12_15h37.53.704,HideSeek_v1,2022.2.5,59.98415219899437,
,0,6,0,2,0,-4,12,,train_dim1_1,4,30,,,,2,0,2,0,,,,,,,,,0,0,0,0,0,3,3,3,0,0,0,0,,,,,,,,,,,,,,,,,,,,,,,,,stimuli/alien_stimuli/12.png,,,,,,,,,,,,,,,,,,,,,,,,,,,,,stimuli/alien_stimuli/13.png,13,2,5,,,,,,,30,,,,,,,,2317.140361399972,2317.140361399972,2317.140361399972,2317.140361399972,2317.140361399972,down,4.339595300029032,1,0,0,99,-0.16,0.0,down,4.260268899961375,,,,,2315.579404399963,2317.140361399972,0,0,0.24,0.0,0.12,0,0.0,0,0,2311.8077743999893,2311.8077743999893,2311.8077743999893,2311.8077743999893,2311.8077743999893,2311.8077743999893,2311.8077743999893,2311.8077743999893,2311.809540199989,3.8887650999822654,return,3.7445021999883465,,,,,,,,,,,,,,,,,,,,,,,,,,,,,,,,,ETY26L,train_y,red_square,top_left,2025-05-12_15h37.53.704,HideSeek_v1,2022.2.5,59.98415219899437,
,0,6,0,2,0,-4,12,,train_dim1_1,4,30,,,,2,0,2,0,,,,,,,,,0,0,0,0,0,3,3,3,1,0,1,0,,,,,,,,,,,,,,,,,,,,,,,,,,,,,,,,,,,,,,,,,,,,,,,,,,,,,,,,,,,,,,,,30,,,,,,,,2321.4859098999877,2321.4859098999877,2321.4859098999877,2321.4859098999877,2321.4859098999877,down,1.0598960999632254,1,0,0,99,-0.16,-0.08,down,0.9824540999834426,,,,,,,,,,,,,,,,,,,,,,,,,,,,,,,,,,,,,,,,,,,,,,,,,,,,,,,,,,,,ETY26L,train_y,red_square,top_left,2025-05-12_15h37.53.704,HideSeek_v1,2022.2.5,59.98415219899437,
,0,6,0,2,0,-4,12,,train_dim1_1,4,30,,,,2,0,2,0,,,,,,,,,0,0,0,0,0,3,3,3,2,0,2,0,,,,,,,,,,,,,,,,,,,,,,,,,,,,,,,,,,,,,,,,,,,,,,,,,,,,,,,,,,,,,,,,30,,,,,,,,2322.5527248000144,2322.5527248000144,2322.5527248000144,2322.5527248000144,2322.5527248000144,down,1.0941150999860838,1,0,0,99,-0.16,-0.16,down,1.0159664999810047,,,,,,,,,,,,,,,,,,,,,,,,,,,,,,,,,,,,,,,,,,,,,,,,,,,,,,,,,,,,ETY26L,train_y,red_square,top_left,2025-05-12_15h37.53.704,HideSeek_v1,2022.2.5,59.98415219899437,
,0,6,0,2,0,-4,12,,train_dim1_1,4,30,,,,2,0,2,0,,,,,,,,,0,0,0,0,0,3,3,3,3,0,3,0,,,,,,,,,,,,,,,,,,,,,,,,,,,,,,,,,,,,,,,,,,,,,,,,,,,,,,,,,,,,,,,,30,,,,,,,,2323.653513600002,2323.653513600002,2323.653513600002,2323.653513600002,2323.653513600002,down,0.9436066000489518,1,0,0,99,-0.16,-0.24,down,0.8666397999622859,,,,,,,,,,,,,,,,,,,,,,,,,,,,,,,,,,,,,,,,,,,,,,,,,,,,,,,,,,,,ETY26L,train_y,red_square,top_left,2025-05-12_15h37.53.704,HideSeek_v1,2022.2.5,59.98415219899437,
,0,6,0,2,0,-4,12,,train_dim1_1,4,30,,,,2,0,2,0,,,,,,,,,0,0,0,0,0,3,3,3,4,0,4,0,,,,,,,,,,,,,,,,,,,,,,,,,,,,,,,,,,,,,,,,,,,,,,,,,,,,,,,,,,,,,,,,30,,,,,,,,2324.606749699975,2324.606749699975,2324.606749699975,2324.606749699975,2324.606749699975,return,2.561577500018757,2,0,0,1,-0.16,-0.24,return,2.478218999982346,-10,0,-0.16,-0.24,,,,,,,,,,,,,,,,,,,,,,,,,,,,,,,,,,,,,,,,,,,,,,,,,,,,,,,,ETY26L,train_y,red_square,top_left,2025-05-12_15h37.53.704,HideSeek_v1,2022.2.5,59.98415219899437,
,3,8,3,3,0,-5,11,,train_dim1_1,5,30,,,,2,0,2,0,,,,,,,,,0,0,0,0,0,4,4,4,0,0,0,0,,,,,,,,,,,,,,,,,,,,,,,,,stimuli/alien_stimuli/11.png,,,,,,,,,,,,,,,,,,,,,,,,,,,,,stimuli/alien_stimuli/12.png,12,0,6,,,,,,,30,,,,,,,,2334.1684627999784,2334.1684627999784,2334.1684627999784,2334.1684627999784,2334.1684627999784,down,2.739695099997334,2,0,0,99,0.08,0.15999999999999998,down,2.646449899999425,,,,,2332.6103206999833,2334.1684627999784,-0.16,-0.24,0.32,0.0,-0.07999999999999999,-0.16,-0.16,-0.16,-0.24,2328.7403573999763,2328.7403573999763,2328.7403573999763,2328.7403573999763,2328.7403573999763,2328.7403573999763,2328.7403573999763,2328.7403573999763,2328.740343799989,3.9891675999970175,return,3.8537666999618523,,,,,,,,,,,,,,,,,,,,,,,,,,,,,,,,,ETY26L,train_y,red_square,top_left,2025-05-12_15h37.53.704,HideSeek_v1,2022.2.5,59.98415219899437,
,3,8,3,3,0,-5,11,,train_dim1_1,5,30,,,,2,0,2,0,,,,,,,,,0,0,0,0,0,4,4,4,1,0,1,0,,,,,,,,,,,,,,,,,,,,,,,,,,,,,,,,,,,,,,,,,,,,,,,,,,,,,,,,,,,,,,,,30,,,,,,,,2336.9147394999745,2336.9147394999745,2336.9147394999745,2336.9147394999745,2336.9147394999745,down,0.6430910999770276,2,0,0,99,0.08,0.07999999999999997,down,0.5586142000393011,,,,,,,,,,,,,,,,,,,,,,,,,,,,,,,,,,,,,,,,,,,,,,,,,,,,,,,,,,,,ETY26L,train_y,red_square,top_left,2025-05-12_15h37.53.704,HideSeek_v1,2022.2.5,59.98415219899437,
,3,8,3,3,0,-5,11,,train_dim1_1,5,30,,,,2,0,2,0,,,,,,,,,0,0,0,0,0,4,4,4,2,0,2,0,,,,,,,,,,,,,,,,,,,,,,,,,,,,,,,,,,,,,,,,,,,,,,,,,,,,,,,,,,,,,,,,30,,,,,,,,2337.566494199971,2337.566494199971,2337.566494199971,2337.566494199971,2337.566494199971,down,1.0933492999756709,2,0,0,99,0.08,-2.7755575615628914e-17,down,1.0007945999968797,,,,,,,,,,,,,,,,,,,,,,,,,,,,,,,,,,,,,,,,,,,,,,,,,,,,,,,,,,,,ETY26L,train_y,red_square,top_left,2025-05-12_15h37.53.704,HideSeek_v1,2022.2.5,59.98415219899437,
,3,8,3,3,0,-5,11,,train_dim1_1,5,30,,,,2,0,2,0,,,,,,,,,0,0,0,0,0,4,4,4,3,0,3,0,,,,,,,,,,,,,,,,,,,,,,,,,,,,,,,,,,,,,,,,,,,,,,,,,,,,,,,,,,,,,,,,30,,,,,,,,2338.666845800006,2338.666845800006,2338.666845800006,2338.666845800006,2338.666845800006,down,3.0454632000182755,2,0,0,99,0.08,-0.08000000000000003,down,2.9627198000089265,,,,,,,,,,,,,,,,,,,,,,,,,,,,,,,,,,,,,,,,,,,,,,,,,,,,,,,,,,,,ETY26L,train_y,red_square,top_left,2025-05-12_15h37.53.704,HideSeek_v1,2022.2.5,59.98415219899437,
,3,8,3,3,0,-5,11,,train_dim1_1,5,30,,,,2,0,2,0,,,,,,,,,0,0,0,0,0,4,4,4,4,0,4,0,,,,,,,,,,,,,,,,,,,,,,,,,,,,,,,,,,,,,,,,,,,,,,,,,,,,,,,,,,,,,,,,30,,,,,,,,2341.7190016999957,2341.7190016999957,2341.7190016999957,2341.7190016999957,2341.7190016999957,down,1.0604183999821544,2,0,0,99,0.08,-0.16000000000000003,down,0.9831755999475718,,,,,,,,,,,,,,,,,,,,,,,,,,,,,,,,,,,,,,,,,,,,,,,,,,,,,,,,,,,,ETY26L,train_y,red_square,top_left,2025-05-12_15h37.53.704,HideSeek_v1,2022.2.5,59.98415219899437,
,3,8,3,3,0,-5,11,,train_dim1_1,5,30,,,,2,0,2,0,,,,,,,,,0,0,0,0,0,4,4,4,5,0,5,0,,,,,,,,,,,,,,,,,,,,,,,,,,,,,,,,,,,,,,,,,,,,,,,,,,,,,,,,,,,,,,,,30,,,,,,,,2342.7859192999895,2342.7859192999895,2342.7859192999895,2342.7859192999895,2342.7859192999895,return,0.659992000029888,3,0,0,1,0.08,-0.16000000000000003,return,0.5688792000291869,-15,0,0.08,-0.16000000000000003,,,,,,,,,,,,,,,,,,,,,,,,,,,,,,,,,,,,,,,,,,,,,,,,,,,,,,,,ETY26L,train_y,red_square,top_left,2025-05-12_15h37.53.704,HideSeek_v1,2022.2.5,59.98415219899437,
,1,9,1,5,0,-4,12,,train_dim1_1,6,30,,,,2,0,2,0,,,,,,,,,0,0,0,0,0,5,5,5,0,0,0,0,,,,,,,,,,,,,,,,,,,,,,,,,stimuli/alien_stimuli/12.png,,,,,,,,,,,,,,,,,,,,,,,,,,,,,stimuli/alien_stimuli/11.png,11,3,7,,,,,,,30,,,,,,,,2348.612568499986,2348.612568499986,2348.612568499986,2348.612568499986,2348.612568499986,down,2.1897306999890134,3,0,0,99,-0.08,0.24,down,2.1076662999694236,,,,,2347.055852499965,2348.612568499986,0.08,-0.16,0.4,0.0,0.039999999999999994,0.08,0.08,0.08,-0.16,2345.019598099985,2345.019598099985,2345.019598099985,2345.019598099985,2345.019598099985,2345.019598099985,2345.019598099985,2345.019598099985,2345.0205369000323,2.154504399979487,return,2.020470999996178,,,,,,,,,,,,,,,,,,,,,,,,,,,,,,,,,ETY26L,train_y,red_square,top_left,2025-05-12_15h37.53.704,HideSeek_v1,2022.2.5,59.98415219899437,
,1,9,1,5,0,-4,12,,train_dim1_1,6,30,,,,2,0,2,0,,,,,,,,,0,0,0,0,0,5,5,5,1,0,1,0,,,,,,,,,,,,,,,,,,,,,,,,,,,,,,,,,,,,,,,,,,,,,,,,,,,,,,,,,,,,,,,,30,,,,,,,,2350.809722199978,2350.809722199978,2350.809722199978,2350.809722199978,2350.809722199978,down,0.8932651000213809,3,0,0,99,-0.08,0.15999999999999998,down,0.8131750999600627,,,,,,,,,,,,,,,,,,,,,,,,,,,,,,,,,,,,,,,,,,,,,,,,,,,,,,,,,,,,ETY26L,train_y,red_square,top_left,2025-05-12_15h37.53.704,HideSeek_v1,2022.2.5,59.98415219899437,
,1,9,1,5,0,-4,12,,train_dim1_1,6,30,,,,2,0,2,0,,,,,,,,,0,0,0,0,0,5,5,5,2,0,2,0,,,,,,,,,,,,,,,,,,,,,,,,,,,,,,,,,,,,,,,,,,,,,,,,,,,,,,,,,,,,,,,,30,,,,,,,,2351.709958899999,2351.709958899999,2351.709958899999,2351.709958899999,2351.709958899999,down,1.2770083000068553,3,0,0,99,-0.08,0.07999999999999997,down,1.1849000999936834,,,,,,,,,,,,,,,,,,,,,,,,,,,,,,,,,,,,,,,,,,,,,,,,,,,,,,,,,,,,ETY26L,train_y,red_square,top_left,2025-05-12_15h37.53.704,HideSeek_v1,2022.2.5,59.98415219899437,
,1,9,1,5,0,-4,12,,train_dim1_1,6,30,,,,2,0,2,0,,,,,,,,,0,0,0,0,0,5,5,5,3,0,3,0,,,,,,,,,,,,,,,,,,,,,,,,,,,,,,,,,,,,,,,,,,,,,,,,,,,,,,,,,,,,,,,,30,,,,,,,,2352.9940139999962,2352.9940139999962,2352.9940139999962,2352.9940139999962,2352.9940139999962,down,2.111531800008379,3,0,0,99,-0.08,-2.7755575615628914e-17,down,2.026180699991528,,,,,,,,,,,,,,,,,,,,,,,,,,,,,,,,,,,,,,,,,,,,,,,,,,,,,,,,,,,,ETY26L,train_y,red_square,top_left,2025-05-12_15h37.53.704,HideSeek_v1,2022.2.5,59.98415219899437,
,1,9,1,5,0,-4,12,,train_dim1_1,6,30,,,,2,0,2,0,,,,,,,,,0,0,0,0,0,5,5,5,4,0,4,0,,,,,,,,,,,,,,,,,,,,,,,,,,,,,,,,,,,,,,,,,,,,,,,,,,,,,,,,,,,,,,,,30,,,,,,,,2355.113390000013,2355.113390000013,2355.113390000013,2355.113390000013,2355.113390000013,return,1.1101815999718383,4,0,0,1,-0.08,-2.7755575615628914e-17,return,1.0273207999998704,-19,0,-0.08,-2.7755575615628914e-17,,,,,,,,,,,,,,,,,,,,,,,,,,,,,,,,,,,,,,,,,,,,,,,,,,,,,,,,ETY26L,train_y,red_square,top_left,2025-05-12_15h37.53.704,HideSeek_v1,2022.2.5,59.98415219899437,
,1,8,1,5,0,-3,13,,train_dim1_1,7,30,,,,2,0,2,0,,,,,,,,,0,0,0,0,0,6,6,6,0,0,0,0,,,,,,,,,,,,,,,,,,,,,,,,,stimuli/alien_stimuli/13.png,,,,,,,,,,,,,,,,,,,,,,,,,,,,,stimuli/alien_stimuli/12.png,12,1,8,,,,,,,30,,,,,,,,2360.7375275999657,2360.7375275999657,2360.7375275999657,2360.7375275999657,2360.7375275999657,down,7.044885199982673,4,0,0,99,-0.08,0.15999999999999998,down,6.956134599982761,,,,,2359.1822723000078,2360.7375275999657,-0.08,0,0.32,0.0,0.16,-0.08,-0.08,-0.08,0,2357.793714599975,2357.793714599975,2357.793714599975,2357.793714599975,2357.793714599975,2357.793714599975,2357.793714599975,2357.793714599975,2357.7810948000115,1.5035558000090532,return,1.372188900015317,,,,,,,,,,,,,,,,,,,,,,,,,,,,,,,,,ETY26L,train_y,red_square,top_left,2025-05-12_15h37.53.704,HideSeek_v1,2022.2.5,59.98415219899437,
,1,8,1,5,0,-3,13,,train_dim1_1,7,30,,,,2,0,2,0,,,,,,,,,0,0,0,0,0,6,6,6,1,0,1,0,,,,,,,,,,,,,,,,,,,,,,,,,,,,,,,,,,,,,,,,,,,,,,,,,,,,,,,,,,,,,,,,30,,,,,,,,2367.790748199972,2367.790748199972,2367.790748199972,2367.790748199972,2367.790748199972,down,2.5112959999823943,4,0,0,99,-0.08,0.07999999999999997,down,2.4294426999404095,,,,,,,,,,,,,,,,,,,,,,,,,,,,,,,,,,,,,,,,,,,,,,,,,,,,,,,,,,,,ETY26L,train_y,red_square,top_left,2025-05-12_15h37.53.704,HideSeek_v1,2022.2.5,59.98415219899437,
,1,8,1,5,0,-3,13,,train_dim1_1,7,30,,,,2,0,2,0,,,,,,,,,0,0,0,0,0,6,6,6,2,0,2,0,,,,,,,,,,,,,,,,,,,,,,,,,,,,,,,,,,,,,,,,,,,,,,,,,,,,,,,,,,,,,,,,30,,,,,,,,2370.309131099959,2370.309131099959,2370.309131099959,2370.309131099959,2370.309131099959,down,0.7263034000061452,4,0,0,99,-0.08,-2.7755575615628914e-17,down,0.6343486999976449,,,,,,,,,,,,,,,,,,,,,,,,,,,,,,,,,,,,,,,,,,,,,,,,,,,,,,,,,,,,ETY26L,train_y,red_square,top_left,2025-05-12_15h37.53.704,HideSeek_v1,2022.2.5,59.98415219899437,
,1,8,1,5,0,-3,13,,train_dim1_1,7,30,,,,2,0,2,0,,,,,,,,,0,0,0,0,0,6,6,6,3,0,3,0,,,,,,,,,,,,,,,,,,,,,,,,,,,,,,,,,,,,,,,,,,,,,,,,,,,,,,,,,,,,,,,,30,,,,,,,,2371.0424816999584,2371.0424816999584,2371.0424816999584,2371.0424816999584,2371.0424816999584,return,0.47666230000322685,5,0,0,1,-0.08,-2.7755575615628914e-17,return,0.3873471000115387,-22,0,-0.08,-2.7755575615628914e-17,,,,,,,,,,,,,,,,,,,,,,,,,,,,,,,,,,,,,,,,,,,,,,,,,,,,,,,,ETY26L,train_y,red_square,top_left,2025-05-12_15h37.53.704,HideSeek_v1,2022.2.5,59.98415219899437,
,4,7,4,2,0,-5,11,,train_dim1_1,8,30,,,,2,0,2,0,,,,,,,,,0,0,0,0,0,7,7,7,0,0,0,0,,,,,,,,,,,,,,,,,,,,,,,,,stimuli/alien_stimuli/11.png,,,,,,,,,,,,,,,,,,,,,,,,,,,,,stimuli/alien_stimuli/13.png,13,1,9,,,,,,,30,,,,,,,,2378.0743878000067,2378.0743878000067,2378.0743878000067,2378.0743878000067,2378.0743878000067,down,3.0556540000252426,5,0,0,99,0.16,0.08,down,2.962475300009828,,,,,2376.5133128999732,2378.0743878000067,-0.08,0,0.24,0.0,0.12,-0.08,-0.08,-0.08,0,2373.093453999958,2373.093453999958,2373.093453999958,2373.093453999958,2373.093453999958,2373.093453999958,2373.093453999958,2373.093453999958,2373.093785300036,3.5385250999825075,return,3.3883055999758653,,,,,,,,,,,,,,,,,,,,,,,,,,,,,,,,,ETY26L,train_y,red_square,top_left,2025-05-12_15h37.53.704,HideSeek_v1,2022.2.5,59.98415219899437,
,4,7,4,2,0,-5,11,,train_dim1_1,8,30,,,,2,0,2,0,,,,,,,,,0,0,0,0,0,7,7,7,1,0,1,0,,,,,,,,,,,,,,,,,,,,,,,,,,,,,,,,,,,,,,,,,,,,,,,,,,,,,,,,,,,,,,,,30,,,,,,,,2381.1341401999816,2381.1341401999816,2381.1341401999816,2381.1341401999816,2381.1341401999816,down,0.6097155000315979,5,0,0,99,0.16,0.0,down,0.5297243999666534,,,,,,,,,,,,,,,,,,,,,,,,,,,,,,,,,,,,,,,,,,,,,,,,,,,,,,,,,,,,ETY26L,train_y,red_square,top_left,2025-05-12_15h37.53.704,HideSeek_v1,2022.2.5,59.98415219899437,
,4,7,4,2,0,-5,11,,train_dim1_1,8,30,,,,2,0,2,0,,,,,,,,,0,0,0,0,0,7,7,7,2,0,2,0,,,,,,,,,,,,,,,,,,,,,,,,,,,,,,,,,,,,,,,,,,,,,,,,,,,,,,,,,,,,,,,,30,,,,,,,,2381.751476300007,2381.751476300007,2381.751476300007,2381.751476300007,2381.751476300007,down,0.7101594999548979,5,0,0,99,0.16,-0.08,down,0.6265192999853753,,,,,,,,,,,,,,,,,,,,,,,,,,,,,,,,,,,,,,,,,,,,,,,,,,,,,,,,,,,,ETY26L,train_y,red_square,top_left,2025-05-12_15h37.53.704,HideSeek_v1,2022.2.5,59.98415219899437,
,4,7,4,2,0,-5,11,,train_dim1_1,8,30,,,,2,0,2,0,,,,,,,,,0,0,0,0,0,7,7,7,3,0,3,0,,,,,,,,,,,,,,,,,,,,,,,,,,,,,,,,,,,,,,,,,,,,,,,,,,,,,,,,,,,,,,,,30,,,,,,,,2382.4692383999936,2382.4692383999936,2382.4692383999936,2382.4692383999936,2382.4692383999936,down,0.609793699986767,5,0,0,99,0.16,-0.16,down,0.5254885999602266,,,,,,,,,,,,,,,,,,,,,,,,,,,,,,,,,,,,,,,,,,,,,,,,,,,,,,,,,,,,ETY26L,train_y,red_square,top_left,2025-05-12_15h37.53.704,HideSeek_v1,2022.2.5,59.98415219899437,
,4,7,4,2,0,-5,11,,train_dim1_1,8,30,,,,2,0,2,0,,,,,,,,,0,0,0,0,0,7,7,7,4,0,4,0,,,,,,,,,,,,,,,,,,,,,,,,,,,,,,,,,,,,,,,,,,,,,,,,,,,,,,,,,,,,,,,,30,,,,,,,,2383.0865285999607,2383.0865285999607,2383.0865285999607,2383.0865285999607,2383.0865285999607,down,0.6266159999649972,5,0,0,99,0.16,-0.24,down,0.5415264000184834,,,,,,,,,,,,,,,,,,,,,,,,,,,,,,,,,,,,,,,,,,,,,,,,,,,,,,,,,,,,ETY26L,train_y,red_square,top_left,2025-05-12_15h37.53.704,HideSeek_v1,2022.2.5,59.98415219899437,
,4,7,4,2,0,-5,11,,train_dim1_1,8,30,,,,2,0,2,0,,,,,,,,,0,0,0,0,0,7,7,7,5,0,5,0,,,,,,,,,,,,,,,,,,,,,,,,,,,,,,,,,,,,,,,,,,,,,,,,,,,,,,,,,,,,,,,,30,,,,,,,,2383.71966469998,2383.71966469998,2383.71966469998,2383.71966469998,2383.71966469998,return,0.47664899996016175,6,0,0,1,0.16,-0.24,return,0.38762799999676645,-27,0,0.16,-0.24,,,,,,,,,,,,,,,,,,,,,,,,,,,,,,,,,,,,,,,,,,,,,,,,,,,,,,,,ETY26L,train_y,red_square,top_left,2025-05-12_15h37.53.704,HideSeek_v1,2022.2.5,59.98415219899437,
,4,8,4,7,0,-1,15,,train_dim1_1,9,30,,,,2,0,2,0,,,,,,,,,0,0,0,0,0,8,8,8,0,0,0,0,,,,,,,,,,,,,,,,,,,,,,,,,stimuli/alien_stimuli/15.png,,,,,,,,,,,,,,,,,,,,,,,,,,,,,stimuli/alien_stimuli/11.png,11,4,10,,,,,,,30,,,,,,,,2388.361494499957,2388.361494499957,2388.361494499957,2388.361494499957,2388.361494499957,down,8.596143700007815,6,0,0,99,0.16,0.15999999999999998,down,8.50947140000062,,,,,2386.8051750999875,2388.361494499957,0.16,-0.24,0.4,0.0,-0.039999999999999994,0.16,0.16,0.16,-0.24,2385.7710818999913,2385.7710818999913,2385.7710818999913,2385.7710818999913,2385.7710818999913,2385.7710818999913,2385.7710818999913,2385.7710818999913,2385.77098760003,1.1531872000196017,return,1.0082090999931097,,,,,,,,,,,,,,,,,,,,,,,,,,,,,,,,,ETY26L,train_y,red_square,top_left,2025-05-12_15h37.53.704,HideSeek_v1,2022.2.5,59.98415219899437,
,4,8,4,7,0,-1,15,,train_dim1_1,9,30,,,,2,0,2,0,,,,,,,,,0,0,0,0,0,8,8,8,1,0,1,0,,,,,,,,,,,,,,,,,,,,,,,,,,,,,,,,,,,,,,,,,,,,,,,,,,,,,,,,,,,,,,,,30,,,,,,,,2396.9652547999867,2396.9652547999867,2396.9652547999867,2396.9652547999867,2396.9652547999867,return,0.6593924000044353,7,0,0,1,0.16,0.15999999999999998,return,0.5771361999795772,-28,0,0.16,0.15999999999999998,,,,,,,,,,,,,,,,,,,,,,,,,,,,,,,,,,,,,,,,,,,,,,,,,,,,,,,,ETY26L,train_y,red_square,top_left,2025-05-12_15h37.53.704,HideSeek_v1,2022.2.5,59.98415219899437,
,2,7,2,7,0,0,16,,train_dim1_1,10,30,,,,2,0,2,0,,,,,,,,,0,0,0,0,0,9,9,9,0,0,0,0,,,,,,,,,,,,,,,,,,,,,,,,,stimuli/alien_stimuli/16.png,,,,,,,,,,,,,,,,,,,,,,,,,,,,,stimuli/alien_stimuli/15.png,15,4,11,,,,,,,30,,,,,,,,2402.640229100012,2402.640229100012,2402.640229100012,2402.640229100012,2402.640229100012,return,1.707513300003484,8,0,0,1,0,0.16,return,1.6278494999860413,-28,0,0,0.16,2401.083635099989,2402.640229100012,0.16,0.16,0.08,0.0,0.2,0.16,0.16,0.16,0.16,2399.1993761999765,2399.1993761999765,2399.1993761999765,2399.1993761999765,2399.1993761999765,2399.1993761999765,2399.1993761999765,2399.1993761999765,2399.1989468000247,2.0035482000093907,return,1.8523822000133805,,,,,,,,,,,,,,,,,,,,,,,,,,,,,,,,,ETY26L,train_y,red_square,top_left,2025-05-12_15h37.53.704,HideSeek_v1,2022.2.5,59.98415219899437,
,4,6,4,5,0,-1,15,,train_dim1_1,11,30,,,,2,0,2,0,,,,,,,,,0,0,0,0,0,10,10,10,0,0,0,0,,,,,,,,,,,,,,,,,,,,,,,,,stimuli/alien_stimuli/15.png,,,,,,,,,,,,,,,,,,,,,,,,,,,,,stimuli/alien_stimuli/16.png,16,2,12,,,,,,,30,,,,,,,,2409.064740200003,2409.064740200003,2409.064740200003,2409.064740200003,2409.064740200003,down,1.5892373999813572,8,0,0,99,0.16,0.0,down,1.5103763999650255,,,,,2407.505631499982,2409.064740200003,0,0.16,0.0,0.0,0.16,0,0.0,0,0.16,2405.9016232999857,2405.9016232999857,2405.9016232999857,2405.9016232999857,2405.9016232999857,2405.9016232999857,2405.9016232999857,2405.9016232999857,2405.8875242000213,1.7034180000191554,return,1.5737174000241794,,,,,,,,,,,,,,,,,,,,,,,,,,,,,,,,,ETY26L,train_y,red_square,top_left,2025-05-12_15h37.53.704,HideSeek_v1,2022.2.5,59.98415219899437,
,4,6,4,5,0,-1,15,,train_dim1_1,11,30,,,,2,0,2,0,,,,,,,,,0,0,0,0,0,10,10,10,1,0,1,0,,,,,,,,,,,,,,,,,,,,,,,,,,,,,,,,,,,,,,,,,,,,,,,,,,,,,,,,,,,,,,,,30,,,,,,,,2410.6606895999867,2410.6606895999867,2410.6606895999867,2410.6606895999867,2410.6606895999867,return,0.4426054000505246,9,0,0,1,0.16,0.0,return,0.3595032000448555,-29,0,0.16,0.0,,,,,,,,,,,,,,,,,,,,,,,,,,,,,,,,,,,,,,,,,,,,,,,,,,,,,,,,ETY26L,train_y,red_square,top_left,2025-05-12_15h37.53.704,HideSeek_v1,2022.2.5,59.98415219899437,
,0,5,0,0,0,-5,11,,train_dim1_1,12,30,,,,2,0,2,0,,,,,,,,,0,0,0,0,0,11,11,11,0,0,0,0,,,,,,,,,,,,,,,,,,,,,,,,,stimuli/alien_stimuli/11.png,,,,,,,,,,,,,,,,,,,,,,,,,,,,,stimuli/alien_stimuli/15.png,15,4,13,,,,,,,30,,,,,,,,2415.6335231999983,2415.6335231999983,2415.6335231999983,2415.6335231999983,2415.6335231999983,down,2.4909760000300594,9,0,0,99,-0.16,-0.08,down,2.413779299997259,,,,,2414.0783391000004,2415.6335231999983,0.16,0,0.08,0.0,0.04,0.16,0.16,0.16,0,2412.6589945000014,2412.6589945000014,2412.6589945000014,2412.6589945000014,2412.6589945000014,2412.6589945000014,2412.6589945000014,2412.6589945000014,2412.659881300031,1.520322300028056,return,1.4014392000390217,,,,,,,,,,,,,,,,,,,,,,,,,,,,,,,,,ETY26L,train_y,red_square,top_left,2025-05-12_15h37.53.704,HideSeek_v1,2022.2.5,59.98415219899437,
,0,5,0,0,0,-5,11,,train_dim1_1,12,30,,,,2,0,2,0,,,,,,,,,0,0,0,0,0,11,11,11,1,0,1,0,,,,,,,,,,,,,,,,,,,,,,,,,,,,,,,,,,,,,,,,,,,,,,,,,,,,,,,,,,,,,,,,30,,,,,,,,2418.1321075999876,2418.1321075999876,2418.1321075999876,2418.1321075999876,2418.1321075999876,down,0.5926461999770254,9,0,0,99,-0.16,-0.16,down,0.5071633000043221,,,,,,,,,,,,,,,,,,,,,,,,,,,,,,,,,,,,,,,,,,,,,,,,,,,,,,,,,,,,ETY26L,train_y,red_square,top_left,2025-05-12_15h37.53.704,HideSeek_v1,2022.2.5,59.98415219899437,
,0,5,0,0,0,-5,11,,train_dim1_1,12,30,,,,2,0,2,0,,,,,,,,,0,0,0,0,0,11,11,11,2,0,2,0,,,,,,,,,,,,,,,,,,,,,,,,,,,,,,,,,,,,,,,,,,,,,,,,,,,,,,,,,,,,,,,,30,,,,,,,,2418.73274810001,2418.73274810001,2418.73274810001,2418.73274810001,2418.73274810001,down,0.5434336999896914,9,0,0,99,-0.16,-0.24,down,0.461102600034792,,,,,,,,,,,,,,,,,,,,,,,,,,,,,,,,,,,,,,,,,,,,,,,,,,,,,,,,,,,,ETY26L,train_y,red_square,top_left,2025-05-12_15h37.53.704,HideSeek_v1,2022.2.5,59.98415219899437,
,0,5,0,0,0,-5,11,,train_dim1_1,12,30,,,,2,0,2,0,,,,,,,,,0,0,0,0,0,11,11,11,3,0,3,0,,,,,,,,,,,,,,,,,,,,,,,,,,,,,,,,,,,,,,,,,,,,,,,,,,,,,,,,,,,,,,,,30,,,,,,,,2419.2827456999803,2419.2827456999803,2419.2827456999803,2419.2827456999803,2419.2827456999803,down,0.5101643999805674,9,0,0,99,-0.16,-0.32,down,0.4179415999678895,,,,,,,,,,,,,,,,,,,,,,,,,,,,,,,,,,,,,,,,,,,,,,,,,,,,,,,,,,,,ETY26L,train_y,red_square,top_left,2025-05-12_15h37.53.704,HideSeek_v1,2022.2.5,59.98415219899437,
,0,5,0,0,0,-5,11,,train_dim1_1,12,30,,,,2,0,2,0,,,,,,,,,0,0,0,0,0,11,11,11,4,0,4,0,,,,,,,,,,,,,,,,,,,,,,,,,,,,,,,,,,,,,,,,,,,,,,,,,,,,,,,,,,,,,,,,30,,,,,,,,2419.8001672999817,2419.8001672999817,2419.8001672999817,2419.8001672999817,2419.8001672999817,down,0.8935699000139721,9,0,0,99,-0.16,-0.4,down,0.8168608999694698,,,,,,,,,,,,,,,,,,,,,,,,,,,,,,,,,,,,,,,,,,,,,,,,,,,,,,,,,,,,ETY26L,train_y,red_square,top_left,2025-05-12_15h37.53.704,HideSeek_v1,2022.2.5,59.98415219899437,
,0,5,0,0,0,-5,11,,train_dim1_1,12,30,,,,2,0,2,0,,,,,,,,,0,0,0,0,0,11,11,11,5,0,5,0,,,,,,,,,,,,,,,,,,,,,,,,,,,,,,,,,,,,,,,,,,,,,,,,,,,,,,,,,,,,,,,,30,,,,,,,,2420.7012674,2420.7012674,2420.7012674,2420.7012674,2420.7012674,return,0.6605974000412971,10,0,0,1,-0.16,-0.4,return,0.5709623000002466,-34,0,-0.16,-0.4,,,,,,,,,,,,,,,,,,,,,,,,,,,,,,,,,,,,,,,,,,,,,,,,,,,,,,,,ETY26L,train_y,red_square,top_left,2025-05-12_15h37.53.704,HideSeek_v1,2022.2.5,59.98415219899437,
,4,8,4,4,0,-4,12,,train_dim1_1,13,30,,,,2,0,2,0,,,,,,,,,0,0,0,0,0,12,12,12,0,0,0,0,,,,,,,,,,,,,,,,,,,,,,,,,stimuli/alien_stimuli/12.png,,,,,,,,,,,,,,,,,,,,,,,,,,,,,stimuli/alien_stimuli/11.png,11,0,14,,,,,,,30,,,,,,,,2425.5263754999614,2425.5263754999614,2425.5263754999614,2425.5263754999614,2425.5263754999614,down,2.590061000024434,10,0,0,99,0.16,0.15999999999999998,down,2.502983200014569,,,,,2423.9695823999937,2425.5263754999614,-0.16,-0.4,0.4,0.0,-0.2,-0.16,-0.16,-0.16,-0.4,2422.9319968000054,2422.9319968000054,2422.9319968000054,2422.9319968000054,2422.9319968000054,2422.9319968000054,2422.9319968000054,2422.9319968000054,2422.918123599986,1.1538856999832205,return,1.0191030999994837,,,,,,,,,,,,,,,,,,,,,,,,,,,,,,,,,ETY26L,train_y,red_square,top_left,2025-05-12_15h37.53.704,HideSeek_v1,2022.2.5,59.98415219899437,
,4,8,4,4,0,-4,12,,train_dim1_1,13,30,,,,2,0,2,0,,,,,,,,,0,0,0,0,0,12,12,12,1,0,1,0,,,,,,,,,,,,,,,,,,,,,,,,,,,,,,,,,,,,,,,,,,,,,,,,,,,,,,,,,,,,,,,,30,,,,,,,,2428.1232451999676,2428.1232451999676,2428.1232451999676,2428.1232451999676,2428.1232451999676,down,0.476182299957145,10,0,0,99,0.16,0.07999999999999997,down,0.392620500002522,,,,,,,,,,,,,,,,,,,,,,,,,,,,,,,,,,,,,,,,,,,,,,,,,,,,,,,,,,,,ETY26L,train_y,red_square,top_left,2025-05-12_15h37.53.704,HideSeek_v1,2022.2.5,59.98415219899437,
,4,8,4,4,0,-4,12,,train_dim1_1,13,30,,,,2,0,2,0,,,,,,,,,0,0,0,0,0,12,12,12,2,0,2,0,,,,,,,,,,,,,,,,,,,,,,,,,,,,,,,,,,,,,,,,,,,,,,,,,,,,,,,,,,,,,,,,30,,,,,,,,2428.6078104999615,2428.6078104999615,2428.6078104999615,2428.6078104999615,2428.6078104999615,down,0.5433089999714866,10,0,0,99,0.16,-2.7755575615628914e-17,down,0.464674599992577,,,,,,,,,,,,,,,,,,,,,,,,,,,,,,,,,,,,,,,,,,,,,,,,,,,,,,,,,,,,ETY26L,train_y,red_square,top_left,2025-05-12_15h37.53.704,HideSeek_v1,2022.2.5,59.98415219899437,
,4,8,4,4,0,-4,12,,train_dim1_1,13,30,,,,2,0,2,0,,,,,,,,,0,0,0,0,0,12,12,12,3,0,3,0,,,,,,,,,,,,,,,,,,,,,,,,,,,,,,,,,,,,,,,,,,,,,,,,,,,,,,,,,,,,,,,,30,,,,,,,,2429.1577885999577,2429.1577885999577,2429.1577885999577,2429.1577885999577,2429.1577885999577,down,0.5433261999860406,10,0,0,99,0.16,-0.08000000000000003,down,0.46431730000767857,,,,,,,,,,,,,,,,,,,,,,,,,,,,,,,,,,,,,,,,,,,,,,,,,,,,,,,,,,,,ETY26L,train_y,red_square,top_left,2025-05-12_15h37.53.704,HideSeek_v1,2022.2.5,59.98415219899437,
,4,8,4,4,0,-4,12,,train_dim1_1,13,30,,,,2,0,2,0,,,,,,,,,0,0,0,0,0,12,12,12,4,0,4,0,,,,,,,,,,,,,,,,,,,,,,,,,,,,,,,,,,,,,,,,,,,,,,,,,,,,,,,,,,,,,,,,30,,,,,,,,2429.7087877999875,2429.7087877999875,2429.7087877999875,2429.7087877999875,2429.7087877999875,return,0.44323240005178377,11,0,0,1,0.16,-0.08000000000000003,return,0.3507652999833226,-38,0,0.16,-0.08000000000000003,,,,,,,,,,,,,,,,,,,,,,,,,,,,,,,,,,,,,,,,,,,,,,,,,,,,,,,,ETY26L,train_y,red_square,top_left,2025-05-12_15h37.53.704,HideSeek_v1,2022.2.5,59.98415219899437,
,2,7,2,7,0,0,16,,train_dim1_1,14,30,,,,2,0,2,0,,,,,,,,,0,0,0,0,0,13,13,13,0,0,0,0,,,,,,,,,,,,,,,,,,,,,,,,,stimuli/alien_stimuli/16.png,,,,,,,,,,,,,,,,,,,,,,,,,,,,,stimuli/alien_stimuli/12.png,12,4,15,,,,,,,30,,,,,,,,2434.515495600004,2434.515495600004,2434.515495600004,2434.515495600004,2434.515495600004,return,3.841646699991543,12,0,0,1,0,0.16,return,3.750355700030923,-38,0,0,0.16,2432.95999090001,2434.515495600004,0.16,-0.08,0.32,0.0,0.07999999999999999,0.16,0.16,0.16,-0.08,2431.7047682999982,2431.7047682999982,2431.7047682999982,2431.7047682999982,2431.7047682999982,2431.7047682999982,2431.7047682999982,2431.7047682999982,2431.692276099988,1.3534704999765381,return,1.233965299965348,,,,,,,,,,,,,,,,,,,,,,,,,,,,,,,,,ETY26L,train_y,red_square,top_left,2025-05-12_15h37.53.704,HideSeek_v1,2022.2.5,59.98415219899437,
,1,9,1,6,0,-3,13,,train_dim1_1,15,30,,,,2,0,2,0,,,,,,,,,0,0,0,0,0,14,14,14,0,0,0,0,,,,,,,,,,,,,,,,,,,,,,,,,stimuli/alien_stimuli/13.png,,,,,,,,,,,,,,,,,,,,,,,,,,,,,stimuli/alien_stimuli/16.png,16,2,16,,,,,,,30,,,,,,,,2442.489276600012,2442.489276600012,2442.489276600012,2442.489276600012,2442.489276600012,down,1.606933199975174,12,0,0,99,-0.08,0.24,down,1.5184947999659926,,,,,2440.933447699994,2442.489276600012,0,0.16,0.0,0.0,0.16,0,0.0,0,0.16,2439.9312654999667,2439.9312654999667,2439.9312654999667,2439.9312654999667,2439.9312654999667,2439.9312654999667,2439.9312654999667,2439.9312654999667,2439.9324493000167,1.119871900009457,return,0.9723878999939188,,,,,,,,,,,,,,,,,,,,,,,,,,,,,,,,,ETY26L,train_y,red_square,top_left,2025-05-12_15h37.53.704,HideSeek_v1,2022.2.5,59.98415219899437,
,1,9,1,6,0,-3,13,,train_dim1_1,15,30,,,,2,0,2,0,,,,,,,,,0,0,0,0,0,14,14,14,1,0,1,0,,,,,,,,,,,,,,,,,,,,,,,,,,,,,,,,,,,,,,,,,,,,,,,,,,,,,,,,,,,,,,,,30,,,,,,,,2444.1027841999894,2444.1027841999894,2444.1027841999894,2444.1027841999894,2444.1027841999894,down,0.4928152000065893,12,0,0,99,-0.08,0.15999999999999998,down,0.4118466000072658,,,,,,,,,,,,,,,,,,,,,,,,,,,,,,,,,,,,,,,,,,,,,,,,,,,,,,,,,,,,ETY26L,train_y,red_square,top_left,2025-05-12_15h37.53.704,HideSeek_v1,2022.2.5,59.98415219899437,
,1,9,1,6,0,-3,13,,train_dim1_1,15,30,,,,2,0,2,0,,,,,,,,,0,0,0,0,0,14,14,14,2,0,2,0,,,,,,,,,,,,,,,,,,,,,,,,,,,,,,,,,,,,,,,,,,,,,,,,,,,,,,,,,,,,,,,,30,,,,,,,,2444.602488500008,2444.602488500008,2444.602488500008,2444.602488500008,2444.602488500008,down,0.45983899995917454,12,0,0,99,-0.08,0.07999999999999997,down,0.3762624000082724,,,,,,,,,,,,,,,,,,,,,,,,,,,,,,,,,,,,,,,,,,,,,,,,,,,,,,,,,,,,ETY26L,train_y,red_square,top_left,2025-05-12_15h37.53.704,HideSeek_v1,2022.2.5,59.98415219899437,
,1,9,1,6,0,-3,13,,train_dim1_1,15,30,,,,2,0,2,0,,,,,,,,,0,0,0,0,0,14,14,14,3,0,3,0,,,,,,,,,,,,,,,,,,,,,,,,,,,,,,,,,,,,,,,,,,,,,,,,,,,,,,,,,,,,,,,,30,,,,,,,,2445.070587299997,2445.070587299997,2445.070587299997,2445.070587299997,2445.070587299997,return,0.4600282000028528,13,0,0,1,-0.08,0.07999999999999997,return,0.3688215999864042,-41,0,-0.08,0.07999999999999997,,,,,,,,,,,,,,,,,,,,,,,,,,,,,,,,,,,,,,,,,,,,,,,,,,,,,,,,ETY26L,train_y,red_square,top_left,2025-05-12_15h37.53.704,HideSeek_v1,2022.2.5,59.98415219899437,
,4,5,4,4,0,-1,15,,train_dim1_1,16,30,,,,2,0,2,0,,,,,,,,,0,0,0,0,0,15,15,15,0,0,0,0,,,,,,,,,,,,,,,,,,,,,,,,,stimuli/alien_stimuli/15.png,,,,,,,,,,,,,,,,,,,,,,,,,,,,,stimuli/alien_stimuli/13.png,13,1,17,,,,,,,30,,,,,,,,2449.4954189999844,2449.4954189999844,2449.4954189999844,2449.4954189999844,2449.4954189999844,down,1.9071237000171095,13,0,0,99,0.16,-0.08,down,1.8162849000073038,,,,,2447.9391760000144,2449.4954189999844,-0.08,0.08,0.24,0.0,0.2,-0.08,-0.08,-0.08,0.08,2447.087523199967,2447.087523199967,2447.087523199967,2447.087523199967,2447.087523199967,2447.087523199967,2447.087523199967,2447.087523199967,2447.088453000033,0.9529737000120804,return,0.8299788999720477,,,,,,,,,,,,,,,,,,,,,,,,,,,,,,,,,ETY26L,train_y,red_square,top_left,2025-05-12_15h37.53.704,HideSeek_v1,2022.2.5,59.98415219899437,
,4,5,4,4,0,-1,15,,train_dim1_1,16,30,,,,2,0,2,0,,,,,,,,,0,0,0,0,0,15,15,15,1,0,1,0,,,,,,,,,,,,,,,,,,,,,,,,,,,,,,,,,,,,,,,,,,,,,,,,,,,,,,,,,,,,,,,,30,,,,,,,,2451.41079970001,2451.41079970001,2451.41079970001,2451.41079970001,2451.41079970001,return,0.4758123999927193,14,0,0,1,0.16,-0.08,return,0.38697120000142604,-42,0,0.16,-0.08,,,,,,,,,,,,,,,,,,,,,,,,,,,,,,,,,,,,,,,,,,,,,,,,,,,,,,,,ETY26L,train_y,red_square,top_left,2025-05-12_15h37.53.704,HideSeek_v1,2022.2.5,59.98415219899437,
,3,8,3,5,0,-3,13,,train_dim1_1,17,30,,,,2,0,2,0,,,,,,,,,0,0,0,0,0,16,16,16,0,0,0,0,,,,,,,,,,,,,,,,,,,,,,,,,stimuli/alien_stimuli/13.png,,,,,,,,,,,,,,,,,,,,,,,,,,,,,stimuli/alien_stimuli/15.png,15,4,18,,,,,,,30,,,,,,,,2456.0499726000126,2456.0499726000126,2456.0499726000126,2456.0499726000126,2456.0499726000126,down,1.4065376999787986,14,0,0,99,0.08,0.15999999999999998,down,1.3153337999829091,,,,,2454.494423199969,2456.0499726000126,0.16,-0.08,0.08,0.0,-0.04,0.16,0.16,0.16,-0.08,2453.4414964999887,2453.4414964999887,2453.4414964999887,2453.4414964999887,2453.4414964999887,2453.4414964999887,2453.4414964999887,2453.4414964999887,2453.4269350999966,1.1533201999845915,return,1.0228495999472216,,,,,,,,,,,,,,,,,,,,,,,,,,,,,,,,,ETY26L,train_y,red_square,top_left,2025-05-12_15h37.53.704,HideSeek_v1,2022.2.5,59.98415219899437,
,3,8,3,5,0,-3,13,,train_dim1_1,17,30,,,,2,0,2,0,,,,,,,,,0,0,0,0,0,16,16,16,1,0,1,0,,,,,,,,,,,,,,,,,,,,,,,,,,,,,,,,,,,,,,,,,,,,,,,,,,,,,,,,,,,,,,,,30,,,,,,,,2457.462923599989,2457.462923599989,2457.462923599989,2457.462923599989,2457.462923599989,down,0.42605900001944974,14,0,0,99,0.08,0.07999999999999997,down,0.3518890999839641,,,,,,,,,,,,,,,,,,,,,,,,,,,,,,,,,,,,,,,,,,,,,,,,,,,,,,,,,,,,ETY26L,train_y,red_square,top_left,2025-05-12_15h37.53.704,HideSeek_v1,2022.2.5,59.98415219899437,
,3,8,3,5,0,-3,13,,train_dim1_1,17,30,,,,2,0,2,0,,,,,,,,,0,0,0,0,0,16,16,16,2,0,2,0,,,,,,,,,,,,,,,,,,,,,,,,,,,,,,,,,,,,,,,,,,,,,,,,,,,,,,,,,,,,,,,,30,,,,,,,,2457.8981323000044,2457.8981323000044,2457.8981323000044,2457.8981323000044,2457.8981323000044,down,0.4772460999665782,14,0,0,99,0.08,-2.7755575615628914e-17,down,0.3908128999755718,,,,,,,,,,,,,,,,,,,,,,,,,,,,,,,,,,,,,,,,,,,,,,,,,,,,,,,,,,,,ETY26L,train_y,red_square,top_left,2025-05-12_15h37.53.704,HideSeek_v1,2022.2.5,59.98415219899437,
,3,8,3,5,0,-3,13,,train_dim1_1,17,30,,,,2,0,2,0,,,,,,,,,0,0,0,0,0,16,16,16,3,0,3,0,,,,,,,,,,,,,,,,,,,,,,,,,,,,,,,,,,,,,,,,,,,,,,,,,,,,,,,,,,,,,,,,30,,,,,,,,2458.3812766000046,2458.3812766000046,2458.3812766000046,2458.3812766000046,2458.3812766000046,return,0.5257332999608479,15,0,0,1,0.08,-2.7755575615628914e-17,return,0.4465758999576792,-45,0,0.08,-2.7755575615628914e-17,,,,,,,,,,,,,,,,,,,,,,,,,,,,,,,,,,,,,,,,,,,,,,,,,,,,,,,,ETY26L,train_y,red_square,top_left,2025-05-12_15h37.53.704,HideSeek_v1,2022.2.5,59.98415219899437,
,2,6,2,1,0,-5,11,,train_dim1_1,18,30,,,,2,0,2,0,,,,,,,,,0,0,0,0,0,17,17,17,0,0,0,0,,,,,,,,,,,,,,,,,,,,,,,,,stimuli/alien_stimuli/11.png,,,,,,,,,,,,,,,,,,,,,,,,,,,,,stimuli/alien_stimuli/13.png,13,3,19,,,,,,,30,,,,,,,,2463.0073123999755,2463.0073123999755,2463.0073123999755,2463.0073123999755,2463.0073123999755,down,8.961507599975448,15,0,0,99,0,0.0,down,8.874197700002696,,,,,2461.4504612999735,2463.0073123999755,0.08,0,0.24,0.0,0.12,0.08,0.08,0.08,0,2460.4611743999994,2460.4611743999994,2460.4611743999994,2460.4611743999994,2460.4611743999994,2460.4611743999994,2460.4611743999994,2460.4611743999994,2460.4494703999953,1.0863923000288196,return,0.9576920999679714,,,,,,,,,,,,,,,,,,,,,,,,,,,,,,,,,ETY26L,train_y,red_square,top_left,2025-05-12_15h37.53.704,HideSeek_v1,2022.2.5,59.98415219899437,
,2,6,2,1,0,-5,11,,train_dim1_1,18,30,,,,2,0,2,0,,,,,,,,,0,0,0,0,0,17,17,17,1,0,1,0,,,,,,,,,,,,,,,,,,,,,,,,,,,,,,,,,,,,,,,,,,,,,,,,,,,,,,,,,,,,,,,,30,,,,,,,,2471.99684420001,2471.99684420001,2471.99684420001,2471.99684420001,2471.99684420001,down,0.9093211999861524,15,0,0,99,0,-0.08,down,0.8075825000414625,,,,,,,,,,,,,,,,,,,,,,,,,,,,,,,,,,,,,,,,,,,,,,,,,,,,,,,,,,,,ETY26L,train_y,red_square,top_left,2025-05-12_15h37.53.704,HideSeek_v1,2022.2.5,59.98415219899437,
,2,6,2,1,0,-5,11,,train_dim1_1,18,30,,,,2,0,2,0,,,,,,,,,0,0,0,0,0,17,17,17,2,0,2,0,,,,,,,,,,,,,,,,,,,,,,,,,,,,,,,,,,,,,,,,,,,,,,,,,,,,,,,,,,,,,,,,30,,,,,,,,2472.8952063999604,2472.8952063999604,2472.8952063999604,2472.8952063999604,2472.8952063999604,down,0.7591605000197887,15,0,0,99,0,-0.16,down,0.672380100004375,,,,,,,,,,,,,,,,,,,,,,,,,,,,,,,,,,,,,,,,,,,,,,,,,,,,,,,,,,,,ETY26L,train_y,red_square,top_left,2025-05-12_15h37.53.704,HideSeek_v1,2022.2.5,59.98415219899437,
,2,6,2,1,0,-5,11,,train_dim1_1,18,30,,,,2,0,2,0,,,,,,,,,0,0,0,0,0,17,17,17,3,0,3,0,,,,,,,,,,,,,,,,,,,,,,,,,,,,,,,,,,,,,,,,,,,,,,,,,,,,,,,,,,,,,,,,30,,,,,,,,2473.6610784999793,2473.6610784999793,2473.6610784999793,2473.6610784999793,2473.6610784999793,down,0.9935945000033826,15,0,0,99,0,-0.24,down,0.9100483999936841,,,,,,,,,,,,,,,,,,,,,,,,,,,,,,,,,,,,,,,,,,,,,,,,,,,,,,,,,,,,ETY26L,train_y,red_square,top_left,2025-05-12_15h37.53.704,HideSeek_v1,2022.2.5,59.98415219899437,
,2,6,2,1,0,-5,11,,train_dim1_1,18,30,,,,2,0,2,0,,,,,,,,,0,0,0,0,0,17,17,17,4,0,4,0,,,,,,,,,,,,,,,,,,,,,,,,,,,,,,,,,,,,,,,,,,,,,,,,,,,,,,,,,,,,,,,,30,,,,,,,,2474.661233599996,2474.661233599996,2474.661233599996,2474.661233599996,2474.661233599996,down,1.2939969999715686,15,0,0,99,0,-0.32,down,1.21865550003713,,,,,,,,,,,,,,,,,,,,,,,,,,,,,,,,,,,,,,,,,,,,,,,,,,,,,,,,,,,,ETY26L,train_y,red_square,top_left,2025-05-12_15h37.53.704,HideSeek_v1,2022.2.5,59.98415219899437,
,2,6,2,1,0,-5,11,,train_dim1_1,18,30,,,,2,0,2,0,,,,,,,,,0,0,0,0,0,17,17,17,5,0,5,0,,,,,,,,,,,,,,,,,,,,,,,,,,,,,,,,,,,,,,,,,,,,,,,,,,,,,,,,,,,,,,,,30,,,,,,,,2475.962911300012,2475.962911300012,2475.962911300012,2475.962911300012,2475.962911300012,return,0.4601163000334054,16,0,0,1,0,-0.32,return,0.3741539999609813,-50,0,0,-0.32,,,,,,,,,,,,,,,,,,,,,,,,,,,,,,,,,,,,,,,,,,,,,,,,,,,,,,,,ETY26L,train_y,red_square,top_left,2025-05-12_15h37.53.704,HideSeek_v1,2022.2.5,59.98415219899437,
,0,9,0,5,0,-4,12,,train_dim1_1,19,30,,,,2,0,2,0,,,,,,,,,0,0,0,0,0,18,18,18,0,0,0,0,,,,,,,,,,,,,,,,,,,,,,,,,stimuli/alien_stimuli/12.png,,,,,,,,,,,,,,,,,,,,,,,,,,,,,stimuli/alien_stimuli/11.png,11,2,20,,,,,,,30,,,,,,,,2480.304416399973,2480.304416399973,2480.304416399973,2480.304416399973,2480.304416399973,down,3.258429099980276,16,0,0,99,-0.16,0.24,down,3.174293599964585,,,,,2478.7480593000073,2480.304416399973,0,-0.32,0.4,0.0,-0.12,0,0.0,0,-0.32,2477.9977884999826,2477.9977884999826,2477.9977884999826,2477.9977884999826,2477.9977884999826,2477.9977884999826,2477.9977884999826,2477.9977884999826,2477.9972663000226,0.8697304000379518,return,0.7324268999509513,,,,,,,,,,,,,,,,,,,,,,,,,,,,,,,,,ETY26L,train_y,red_square,top_left,2025-05-12_15h37.53.704,HideSeek_v1,2022.2.5,59.98415219899437,
,0,9,0,5,0,-4,12,,train_dim1_1,19,30,,,,2,0,2,0,,,,,,,,,0,0,0,0,0,18,18,18,1,0,1,0,,,,,,,,,,,,,,,,,,,,,,,,,,,,,,,,,,,,,,,,,,,,,,,,,,,,,,,,,,,,,,,,30,,,,,,,,2483.570112299989,2483.570112299989,2483.570112299989,2483.570112299989,2483.570112299989,down,0.44241499999770895,16,0,0,99,-0.16,0.15999999999999998,down,0.36257049994310364,,,,,,,,,,,,,,,,,,,,,,,,,,,,,,,,,,,,,,,,,,,,,,,,,,,,,,,,,,,,ETY26L,train_y,red_square,top_left,2025-05-12_15h37.53.704,HideSeek_v1,2022.2.5,59.98415219899437,
,0,9,0,5,0,-4,12,,train_dim1_1,19,30,,,,2,0,2,0,,,,,,,,,0,0,0,0,0,18,18,18,2,0,2,0,,,,,,,,,,,,,,,,,,,,,,,,,,,,,,,,,,,,,,,,,,,,,,,,,,,,,,,,,,,,,,,,30,,,,,,,,2484.0200404999778,2484.0200404999778,2484.0200404999778,2484.0200404999778,2484.0200404999778,down,0.47657160001108423,16,0,0,99,-0.16,0.07999999999999997,down,0.38411959999939427,,,,,,,,,,,,,,,,,,,,,,,,,,,,,,,,,,,,,,,,,,,,,,,,,,,,,,,,,,,,ETY26L,train_y,red_square,top_left,2025-05-12_15h37.53.704,HideSeek_v1,2022.2.5,59.98415219899437,
,0,9,0,5,0,-4,12,,train_dim1_1,19,30,,,,2,0,2,0,,,,,,,,,0,0,0,0,0,18,18,18,3,0,3,0,,,,,,,,,,,,,,,,,,,,,,,,,,,,,,,,,,,,,,,,,,,,,,,,,,,,,,,,,,,,,,,,30,,,,,,,,2484.50317109999,2484.50317109999,2484.50317109999,2484.50317109999,2484.50317109999,down,0.4767816999810748,16,0,0,99,-0.16,-2.7755575615628914e-17,down,0.38848399999551475,,,,,,,,,,,,,,,,,,,,,,,,,,,,,,,,,,,,,,,,,,,,,,,,,,,,,,,,,,,,ETY26L,train_y,red_square,top_left,2025-05-12_15h37.53.704,HideSeek_v1,2022.2.5,59.98415219899437,
,0,9,0,5,0,-4,12,,train_dim1_1,19,30,,,,2,0,2,0,,,,,,,,,0,0,0,0,0,18,18,18,4,0,4,0,,,,,,,,,,,,,,,,,,,,,,,,,,,,,,,,,,,,,,,,,,,,,,,,,,,,,,,,,,,,,,,,30,,,,,,,,2484.988045200007,2484.988045200007,2484.988045200007,2484.988045200007,2484.988045200007,return,0.45982360001653433,17,0,0,1,-0.16,-2.7755575615628914e-17,return,0.3818468000390567,-54,0,-0.16,-2.7755575615628914e-17,,,,,,,,,,,,,,,,,,,,,,,,,,,,,,,,,,,,,,,,,,,,,,,,,,,,,,,,ETY26L,train_y,red_square,top_left,2025-05-12_15h37.53.704,HideSeek_v1,2022.2.5,59.98415219899437,
,2,5,2,5,0,0,16,,train_dim1_1,20,30,,,,2,0,2,0,,,,,,,,,0,0,0,0,0,19,19,19,0,0,0,0,,,,,,,,,,,,,,,,,,,,,,,,,stimuli/alien_stimuli/16.png,,,,,,,,,,,,,,,,,,,,,,,,,,,,,stimuli/alien_stimuli/12.png,12,0,21,,,,,,,30,,,,,,,,2489.6944091999903,2489.6944091999903,2489.6944091999903,2489.6944091999903,2489.6944091999903,return,2.140045400010422,18,0,0,1,0,0,return,2.065264600038063,-54,0,0,0,2488.1391834999667,2489.6944091999903,-0.16,0,0.32,0.0,0.16,-0.16,-0.16,-0.16,0,2487.002724399965,2487.002724399965,2487.002724399965,2487.002724399965,2487.002724399965,2487.002724399965,2487.002724399965,2487.002724399965,2486.988283500017,1.23652979999315,return,1.1195283000124618,,,,,,,,,,,,,,,,,,,,,,,,,,,,,,,,,ETY26L,train_y,red_square,top_left,2025-05-12_15h37.53.704,HideSeek_v1,2022.2.5,59.98415219899437,
,2,9,2,8,0,-1,15,,train_dim1_1,21,30,,,,2,0,2,0,,,,,,,,,0,0,0,0,0,20,20,20,0,0,0,0,,,,,,,,,,,,,,,,,,,,,,,,,stimuli/alien_stimuli/15.png,,,,,,,,,,,,,,,,,,,,,,,,,,,,,stimuli/alien_stimuli/16.png,16,2,22,,,,,,,30,,,,,,,,2495.9673167999717,2495.9673167999717,2495.9673167999717,2495.9673167999717,2495.9673167999717,down,1.1567954999627545,18,0,0,99,0,0.24,down,1.0725656999857165,,,,,2494.410917399975,2495.9673167999717,0,0,0.0,0.0,0.0,0,0.0,0,0,2493.391855199996,2493.391855199996,2493.391855199996,2493.391855199996,2493.391855199996,2493.391855199996,2493.391855199996,2493.391855199996,2493.37717230001,1.1193379999604076,return,0.9986202000291087,,,,,,,,,,,,,,,,,,,,,,,,,,,,,,,,,ETY26L,train_y,red_square,top_left,2025-05-12_15h37.53.704,HideSeek_v1,2022.2.5,59.98415219899437,
,2,9,2,8,0,-1,15,,train_dim1_1,21,30,,,,2,0,2,0,,,,,,,,,0,0,0,0,0,20,20,20,1,0,1,0,,,,,,,,,,,,,,,,,,,,,,,,,,,,,,,,,,,,,,,,,,,,,,,,,,,,,,,,,,,,,,,,30,,,,,,,,2497.131198899995,2497.131198899995,2497.131198899995,2497.131198899995,2497.131198899995,return,0.44266200001584366,19,0,0,1,0,0.24,return,0.3506283999886364,-55,0,0,0.24,,,,,,,,,,,,,,,,,,,,,,,,,,,,,,,,,,,,,,,,,,,,,,,,,,,,,,,,ETY26L,train_y,red_square,top_left,2025-05-12_15h37.53.704,HideSeek_v1,2022.2.5,59.98415219899437,
,0,7,0,4,0,-3,13,,train_dim1_1,22,30,,,,2,0,2,0,,,,,,,,,0,0,0,0,0,21,21,21,0,0,0,0,,,,,,,,,,,,,,,,,,,,,,,,,stimuli/alien_stimuli/13.png,,,,,,,,,,,,,,,,,,,,,,,,,,,,,stimuli/alien_stimuli/15.png,15,2,23,,,,,,,30,,,,,,,,2502.123102499987,2502.123102499987,2502.123102499987,2502.123102499987,2502.123102499987,down,1.0889019999885932,19,0,0,99,-0.16,0.08,down,1.0075037999777123,,,,,2500.5661185999634,2502.123102499987,0,0.24,0.08,0.0,0.28,0,0.0,0,0.24,2499.129172999994,2499.129172999994,2499.129172999994,2499.129172999994,2499.129172999994,2499.129172999994,2499.129172999994,2499.129172999994,2499.1147613999783,1.5369551999610849,return,1.4192203999846242,,,,,,,,,,,,,,,,,,,,,,,,,,,,,,,,,ETY26L,train_y,red_square,top_left,2025-05-12_15h37.53.704,HideSeek_v1,2022.2.5,59.98415219899437,
,0,7,0,4,0,-3,13,,train_dim1_1,22,30,,,,2,0,2,0,,,,,,,,,0,0,0,0,0,21,21,21,1,0,1,0,,,,,,,,,,,,,,,,,,,,,,,,,,,,,,,,,,,,,,,,,,,,,,,,,,,,,,,,,,,,,,,,30,,,,,,,,2503.2185875999858,2503.2185875999858,2503.2185875999858,2503.2185875999858,2503.2185875999858,down,0.3927541999728419,19,0,0,99,-0.16,0.0,down,0.3080963999964297,,,,,,,,,,,,,,,,,,,,,,,,,,,,,,,,,,,,,,,,,,,,,,,,,,,,,,,,,,,,ETY26L,train_y,red_square,top_left,2025-05-12_15h37.53.704,HideSeek_v1,2022.2.5,59.98415219899437,
,0,7,0,4,0,-3,13,,train_dim1_1,22,30,,,,2,0,2,0,,,,,,,,,0,0,0,0,0,21,21,21,2,0,2,0,,,,,,,,,,,,,,,,,,,,,,,,,,,,,,,,,,,,,,,,,,,,,,,,,,,,,,,,,,,,,,,,30,,,,,,,,2503.6193640999845,2503.6193640999845,2503.6193640999845,2503.6193640999845,2503.6193640999845,down,0.44302030000835657,19,0,0,99,-0.16,-0.08,down,0.3546277999994345,,,,,,,,,,,,,,,,,,,,,,,,,,,,,,,,,,,,,,,,,,,,,,,,,,,,,,,,,,,,ETY26L,train_y,red_square,top_left,2025-05-12_15h37.53.704,HideSeek_v1,2022.2.5,59.98415219899437,
,0,7,0,4,0,-3,13,,train_dim1_1,22,30,,,,2,0,2,0,,,,,,,,,0,0,0,0,0,21,21,21,3,0,3,0,,,,,,,,,,,,,,,,,,,,,,,,,,,,,,,,,,,,,,,,,,,,,,,,,,,,,,,,,,,,,,,,30,,,,,,,,2504.069667599979,2504.069667599979,2504.069667599979,2504.069667599979,2504.069667599979,return,0.5426473999978043,20,0,0,1,-0.16,-0.08,return,0.46180019999155775,-58,0,-0.16,-0.08,,,,,,,,,,,,,,,,,,,,,,,,,,,,,,,,,,,,,,,,,,,,,,,,,,,,,,,,ETY26L,train_y,red_square,top_left,2025-05-12_15h37.53.704,HideSeek_v1,2022.2.5,59.98415219899437,
,0,8,0,3,0,-5,11,,train_dim1_1,23,30,,,,2,0,2,0,,,,,,,,,0,0,0,0,0,22,22,22,0,0,0,0,,,,,,,,,,,,,,,,,,,,,,,,,stimuli/alien_stimuli/11.png,,,,,,,,,,,,,,,,,,,,,,,,,,,,,stimuli/alien_stimuli/13.png,13,0,24,,,,,,,30,,,,,,,,2508.3098594999756,2508.3098594999756,2508.3098594999756,2508.3098594999756,2508.3098594999756,down,3.1417088999878615,20,0,0,99,-0.16,0.15999999999999998,down,3.0511829999741167,,,,,2506.7544112000032,2508.3098594999756,-0.16,-0.08,0.24,0.0,0.04,-0.16,-0.16,-0.16,-0.08,2506.167173499998,2506.167173499998,2506.167173499998,2506.167173499998,2506.167173499998,2506.167173499998,2506.167173499998,2506.167173499998,2506.1540165999904,0.6860620999941602,return,0.5587218000437133,,,,,,,,,,,,,,,,,,,,,,,,,,,,,,,,,ETY26L,train_y,red_square,top_left,2025-05-12_15h37.53.704,HideSeek_v1,2022.2.5,59.98415219899437,
,0,8,0,3,0,-5,11,,train_dim1_1,23,30,,,,2,0,2,0,,,,,,,,,0,0,0,0,0,22,22,22,1,0,1,0,,,,,,,,,,,,,,,,,,,,,,,,,,,,,,,,,,,,,,,,,,,,,,,,,,,,,,,,,,,,,,,,30,,,,,,,,2511.459003199998,2511.459003199998,2511.459003199998,2511.459003199998,2511.459003199998,down,0.44288019998930395,20,0,0,99,-0.16,0.07999999999999997,down,0.35438540001632646,,,,,,,,,,,,,,,,,,,,,,,,,,,,,,,,,,,,,,,,,,,,,,,,,,,,,,,,,,,,ETY26L,train_y,red_square,top_left,2025-05-12_15h37.53.704,HideSeek_v1,2022.2.5,59.98415219899437,
,0,8,0,3,0,-5,11,,train_dim1_1,23,30,,,,2,0,2,0,,,,,,,,,0,0,0,0,0,22,22,22,2,0,2,0,,,,,,,,,,,,,,,,,,,,,,,,,,,,,,,,,,,,,,,,,,,,,,,,,,,,,,,,,,,,,,,,30,,,,,,,,2511.9090740999673,2511.9090740999673,2511.9090740999673,2511.9090740999673,2511.9090740999673,down,0.45984019996831194,20,0,0,99,-0.16,-2.7755575615628914e-17,down,0.3786651000264101,,,,,,,,,,,,,,,,,,,,,,,,,,,,,,,,,,,,,,,,,,,,,,,,,,,,,,,,,,,,ETY26L,train_y,red_square,top_left,2025-05-12_15h37.53.704,HideSeek_v1,2022.2.5,59.98415219899437,
,0,8,0,3,0,-5,11,,train_dim1_1,23,30,,,,2,0,2,0,,,,,,,,,0,0,0,0,0,22,22,22,3,0,3,0,,,,,,,,,,,,,,,,,,,,,,,,,,,,,,,,,,,,,,,,,,,,,,,,,,,,,,,,,,,,,,,,30,,,,,,,,2512.377028399962,2512.377028399962,2512.377028399962,2512.377028399962,2512.377028399962,down,0.5100495999795385,20,0,0,99,-0.16,-0.08000000000000003,down,0.42908020003233105,,,,,,,,,,,,,,,,,,,,,,,,,,,,,,,,,,,,,,,,,,,,,,,,,,,,,,,,,,,,ETY26L,train_y,red_square,top_left,2025-05-12_15h37.53.704,HideSeek_v1,2022.2.5,59.98415219899437,
,0,8,0,3,0,-5,11,,train_dim1_1,23,30,,,,2,0,2,0,,,,,,,,,0,0,0,0,0,22,22,22,4,0,4,0,,,,,,,,,,,,,,,,,,,,,,,,,,,,,,,,,,,,,,,,,,,,,,,,,,,,,,,,,,,,,,,,30,,,,,,,,2512.8932507999707,2512.8932507999707,2512.8932507999707,2512.8932507999707,2512.8932507999707,return,0.4934110000031069,20,1,0,0,-0.16,-0.08000000000000003,return,0.4075192000018433,-62,0,-0.16,-0.08000000000000003,,,,,,,,,,,,,,,,,,,,,,,,,,,,,,,,,,,,,,,,,,,,,,,,,,,,,,,,ETY26L,train_y,red_square,top_left,2025-05-12_15h37.53.704,HideSeek_v1,2022.2.5,59.98415219899437,
,3,7,3,7,0,0,16,,train_dim1_1,24,30,,,,2,0,2,0,,,,,,,,,0,0,0,0,0,23,23,23,0,0,0,0,,,,,,,,,,,,,,,,,,,,,,,,,stimuli/alien_stimuli/16.png,,,,,,,,,,,,,,,,,,,,,,,,,,,,,stimuli/alien_stimuli/11.png,11,0,25,,,,,,,30,,,,,,,,2518.0520833999617,2518.0520833999617,2518.0520833999617,2518.0520833999617,2518.0520833999617,return,2.0061896999832243,21,0,0,1,0.08,0.16,return,1.9265263000270352,-62,0,0.08,0.16,2516.4958466999815,2518.0520833999617,-0.16,-0.16,0.4,0.0,0.039999999999999994,-0.16,-0.16,-0.16,-0.16,2514.9428850999684,2514.9428850999684,2514.9428850999684,2514.9428850999684,2514.9428850999684,2514.9428850999684,2514.9428850999684,2514.9428850999684,2514.9447063000116,1.6534607000066899,return,1.5217012999928556,,,,,,,,,,,,,,,,,,,,,,,,,,,,,,,,,ETY26L,train_y,red_square,top_left,2025-05-12_15h37.53.704,HideSeek_v1,2022.2.5,59.98415219899437,
,3,8,3,4,0,-4,12,,train_dim1_1,25,30,,,,2,0,2,0,,,,,,,,,0,0,0,0,0,24,24,24,0,0,0,0,,,,,,,,,,,,,,,,,,,,,,,,,stimuli/alien_stimuli/12.png,,,,,,,,,,,,,,,,,,,,,,,,,,,,,stimuli/alien_stimuli/16.png,16,3,26,,,,,,,30,,,,,,,,2524.006797000009,2524.006797000009,2524.006797000009,2524.006797000009,2524.006797000009,down,1.2234828000073321,21,0,0,99,0.08,0.15999999999999998,down,1.1366533000255004,,,,,2522.450758699968,2524.006797000009,0.08,0.16,0.0,0.0,0.16,0.08,0.08,0.08,0.16,2521.6128928000107,2521.6128928000107,2521.6128928000107,2521.6128928000107,2521.6128928000107,2521.6128928000107,2521.6128928000107,2521.6128928000107,2521.6001629999955,0.9361089000012726,return,0.8084753000293858,,,,,,,,,,,,,,,,,,,,,,,,,,,,,,,,,ETY26L,train_y,red_square,top_left,2025-05-12_15h37.53.704,HideSeek_v1,2022.2.5,59.98415219899437,
,3,8,3,4,0,-4,12,,train_dim1_1,25,30,,,,2,0,2,0,,,,,,,,,0,0,0,0,0,24,24,24,1,0,1,0,,,,,,,,,,,,,,,,,,,,,,,,,,,,,,,,,,,,,,,,,,,,,,,,,,,,,,,,,,,,,,,,30,,,,,,,,2525.237250300008,2525.237250300008,2525.237250300008,2525.237250300008,2525.237250300008,down,0.6764117000275292,21,0,0,99,0.08,0.07999999999999997,down,0.5928391999914311,,,,,,,,,,,,,,,,,,,,,,,,,,,,,,,,,,,,,,,,,,,,,,,,,,,,,,,,,,,,ETY26L,train_y,red_square,top_left,2025-05-12_15h37.53.704,HideSeek_v1,2022.2.5,59.98415219899437,
,3,8,3,4,0,-4,12,,train_dim1_1,25,30,,,,2,0,2,0,,,,,,,,,0,0,0,0,0,24,24,24,2,0,2,0,,,,,,,,,,,,,,,,,,,,,,,,,,,,,,,,,,,,,,,,,,,,,,,,,,,,,,,,,,,,,,,,30,,,,,,,,2525.921246699989,2525.921246699989,2525.921246699989,2525.921246699989,2525.921246699989,down,0.49340689997188747,21,0,0,99,0.08,-2.7755575615628914e-17,down,0.4112067999667488,,,,,,,,,,,,,,,,,,,,,,,,,,,,,,,,,,,,,,,,,,,,,,,,,,,,,,,,,,,,ETY26L,train_y,red_square,top_left,2025-05-12_15h37.53.704,HideSeek_v1,2022.2.5,59.98415219899437,
,3,8,3,4,0,-4,12,,train_dim1_1,25,30,,,,2,0,2,0,,,,,,,,,0,0,0,0,0,24,24,24,3,0,3,0,,,,,,,,,,,,,,,,,,,,,,,,,,,,,,,,,,,,,,,,,,,,,,,,,,,,,,,,,,,,,,,,30,,,,,,,,2526.4209857999813,2526.4209857999813,2526.4209857999813,2526.4209857999813,2526.4209857999813,down,0.49336480000056326,21,0,0,99,0.08,-0.08000000000000003,down,0.4098705999786034,,,,,,,,,,,,,,,,,,,,,,,,,,,,,,,,,,,,,,,,,,,,,,,,,,,,,,,,,,,,ETY26L,train_y,red_square,top_left,2025-05-12_15h37.53.704,HideSeek_v1,2022.2.5,59.98415219899437,
,3,8,3,4,0,-4,12,,train_dim1_1,25,30,,,,2,0,2,0,,,,,,,,,0,0,0,0,0,24,24,24,4,0,4,0,,,,,,,,,,,,,,,,,,,,,,,,,,,,,,,,,,,,,,,,,,,,,,,,,,,,,,,,,,,,,,,,30,,,,,,,,2526.9223731000093,2526.9223731000093,2526.9223731000093,2526.9223731000093,2526.9223731000093,return,0.827016299997922,22,0,0,1,0.08,-0.08000000000000003,return,0.7417873999802396,-66,0,0.08,-0.08000000000000003,,,,,,,,,,,,,,,,,,,,,,,,,,,,,,,,,,,,,,,,,,,,,,,,,,,,,,,,ETY26L,train_y,red_square,top_left,2025-05-12_15h37.53.704,HideSeek_v1,2022.2.5,59.98415219899437,
,4,9,4,6,0,-3,13,,train_dim1_1,26,30,,,,2,0,2,0,,,,,,,,,0,0,0,0,0,25,25,25,0,0,0,0,,,,,,,,,,,,,,,,,,,,,,,,,stimuli/alien_stimuli/13.png,,,,,,,,,,,,,,,,,,,,,,,,,,,,,stimuli/alien_stimuli/12.png,12,3,27,,,,,,,30,,,,,,,,2531.696511999995,2531.696511999995,2531.696511999995,2531.696511999995,2531.696511999995,down,0.9232184000429697,22,0,0,99,0.16,0.24,down,0.8411016000318341,,,,,2530.140510700003,2531.696511999995,0.08,-0.08,0.32,0.0,0.07999999999999999,0.08,0.08,0.08,-0.08,2529.312063499994,2529.312063499994,2529.312063499994,2529.312063499994,2529.312063499994,2529.312063499994,2529.312063499994,2529.312063499994,2529.306812600029,0.935623699973803,return,0.801388300023973,,,,,,,,,,,,,,,,,,,,,,,,,,,,,,,,,ETY26L,train_y,red_square,top_left,2025-05-12_15h37.53.704,HideSeek_v1,2022.2.5,59.98415219899437,
,4,9,4,6,0,-3,13,,train_dim1_1,26,30,,,,2,0,2,0,,,,,,,,,0,0,0,0,0,25,25,25,1,0,1,0,,,,,,,,,,,,,,,,,,,,,,,,,,,,,,,,,,,,,,,,,,,,,,,,,,,,,,,,,,,,,,,,30,,,,,,,,2532.626871799992,2532.626871799992,2532.626871799992,2532.626871799992,2532.626871799992,down,0.4925055999774486,22,0,0,99,0.16,0.15999999999999998,down,0.4076180999982171,,,,,,,,,,,,,,,,,,,,,,,,,,,,,,,,,,,,,,,,,,,,,,,,,,,,,,,,,,,,ETY26L,train_y,red_square,top_left,2025-05-12_15h37.53.704,HideSeek_v1,2022.2.5,59.98415219899437,
,4,9,4,6,0,-3,13,,train_dim1_1,26,30,,,,2,0,2,0,,,,,,,,,0,0,0,0,0,25,25,25,2,0,2,0,,,,,,,,,,,,,,,,,,,,,,,,,,,,,,,,,,,,,,,,,,,,,,,,,,,,,,,,,,,,,,,,30,,,,,,,,2533.12603330001,2533.12603330001,2533.12603330001,2533.12603330001,2533.12603330001,down,0.4767419999698177,22,0,0,99,0.16,0.07999999999999997,down,0.40175950003322214,,,,,,,,,,,,,,,,,,,,,,,,,,,,,,,,,,,,,,,,,,,,,,,,,,,,,,,,,,,,ETY26L,train_y,red_square,top_left,2025-05-12_15h37.53.704,HideSeek_v1,2022.2.5,59.98415219899437,
,4,9,4,6,0,-3,13,,train_dim1_1,26,30,,,,2,0,2,0,,,,,,,,,0,0,0,0,0,25,25,25,3,0,3,0,,,,,,,,,,,,,,,,,,,,,,,,,,,,,,,,,,,,,,,,,,,,,,,,,,,,,,,,,,,,,,,,30,,,,,,,,2533.6121973000118,2533.6121973000118,2533.6121973000118,2533.6121973000118,2533.6121973000118,return,0.49146220000693575,23,0,0,1,0.16,0.07999999999999997,return,0.41009300004225224,-69,0,0.16,0.07999999999999997,,,,,,,,,,,,,,,,,,,,,,,,,,,,,,,,,,,,,,,,,,,,,,,,,,,,,,,,ETY26L,train_y,red_square,top_left,2025-05-12_15h37.53.704,HideSeek_v1,2022.2.5,59.98415219899437,
,3,9,3,9,0,0,16,,train_dim1_1,27,30,,,,2,0,2,0,,,,,,,,,0,0,0,0,0,26,26,26,0,0,0,0,,,,,,,,,,,,,,,,,,,,,,,,,stimuli/alien_stimuli/16.png,,,,,,,,,,,,,,,,,,,,,,,,,,,,,stimuli/alien_stimuli/13.png,13,4,28,,,,,,,30,,,,,,,,2538.134195099992,2538.134195099992,2538.134195099992,2538.134195099992,2538.134195099992,return,1.30650579999201,24,0,0,1,0.08,0.32,return,1.2296804999932647,-69,0,0.08,0.32,2536.57940290001,2538.134195099992,0.16,0.08,0.24,0.0,0.2,0.16,0.16,0.16,0.08,2535.6570614000084,2535.6570614000084,2535.6570614000084,2535.6570614000084,2535.6570614000084,2535.6570614000084,2535.6570614000084,2535.6570614000084,2535.6452108999947,1.0197413000278175,return,0.9037177999853157,,,,,,,,,,,,,,,,,,,,,,,,,,,,,,,,,ETY26L,train_y,red_square,top_left,2025-05-12_15h37.53.704,HideSeek_v1,2022.2.5,59.98415219899437,
,4,6,4,1,0,-5,11,,train_dim1_1,28,30,,,,2,0,2,0,,,,,,,,,0,0,0,0,0,27,27,27,0,0,0,0,,,,,,,,,,,,,,,,,,,,,,,,,stimuli/alien_stimuli/11.png,,,,,,,,,,,,,,,,,,,,,,,,,,,,,stimuli/alien_stimuli/16.png,16,3,29,,,,,,,30,,,,,,,,2543.323883300007,2543.323883300007,2543.323883300007,2543.323883300007,2543.323883300007,down,3.273858900007326,24,0,0,99,0.16,0.0,down,3.1827736999839544,,,,,2541.766973199963,2543.323883300007,0.08,0.32,0.0,0.0,0.32,0.08,0.08,0.08,0.32,2540.9959924999857,2540.9959924999857,2540.9959924999857,2540.9959924999857,2540.9959924999857,2540.9959924999857,2540.9959924999857,2540.9959924999857,2540.98291229998,0.8696161000407301,return,0.743899599998258,,,,,,,,,,,,,,,,,,,,,,,,,,,,,,,,,ETY26L,train_y,red_square,top_left,2025-05-12_15h37.53.704,HideSeek_v1,2022.2.5,59.98415219899437,
,4,6,4,1,0,-5,11,,train_dim1_1,28,30,,,,2,0,2,0,,,,,,,,,0,0,0,0,0,27,27,27,1,0,1,0,,,,,,,,,,,,,,,,,,,,,,,,,,,,,,,,,,,,,,,,,,,,,,,,,,,,,,,,,,,,,,,,30,,,,,,,,2546.604791299964,2546.604791299964,2546.604791299964,2546.604791299964,2546.604791299964,down,0.42613099998561665,24,0,0,99,0.16,-0.08,down,0.3348237000172958,,,,,,,,,,,,,,,,,,,,,,,,,,,,,,,,,,,,,,,,,,,,,,,,,,,,,,,,,,,,ETY26L,train_y,red_square,top_left,2025-05-12_15h37.53.704,HideSeek_v1,2022.2.5,59.98415219899437,
,4,6,4,1,0,-5,11,,train_dim1_1,28,30,,,,2,0,2,0,,,,,,,,,0,0,0,0,0,27,27,27,2,0,2,0,,,,,,,,,,,,,,,,,,,,,,,,,,,,,,,,,,,,,,,,,,,,,,,,,,,,,,,,,,,,,,,,30,,,,,,,,2547.038549699995,2547.038549699995,2547.038549699995,2547.038549699995,2547.038549699995,down,0.44303810002747923,24,0,0,99,0.16,-0.16,down,0.3616127999848686,,,,,,,,,,,,,,,,,,,,,,,,,,,,,,,,,,,,,,,,,,,,,,,,,,,,,,,,,,,,ETY26L,train_y,red_square,top_left,2025-05-12_15h37.53.704,HideSeek_v1,2022.2.5,59.98415219899437,
,4,6,4,1,0,-5,11,,train_dim1_1,28,30,,,,2,0,2,0,,,,,,,,,0,0,0,0,0,27,27,27,3,0,3,0,,,,,,,,,,,,,,,,,,,,,,,,,,,,,,,,,,,,,,,,,,,,,,,,,,,,,,,,,,,,,,,,30,,,,,,,,2547.489045299997,2547.489045299997,2547.489045299997,2547.489045299997,2547.489045299997,down,0.47683610004605725,24,0,0,99,0.16,-0.24,down,0.3972801999771036,,,,,,,,,,,,,,,,,,,,,,,,,,,,,,,,,,,,,,,,,,,,,,,,,,,,,,,,,,,,ETY26L,train_y,red_square,top_left,2025-05-12_15h37.53.704,HideSeek_v1,2022.2.5,59.98415219899437,
,4,6,4,1,0,-5,11,,train_dim1_1,28,30,,,,2,0,2,0,,,,,,,,,0,0,0,0,0,27,27,27,4,0,4,0,,,,,,,,,,,,,,,,,,,,,,,,,,,,,,,,,,,,,,,,,,,,,,,,,,,,,,,,,,,,,,,,30,,,,,,,,2547.971878799959,2547.971878799959,2547.971878799959,2547.971878799959,2547.971878799959,down,0.5432863999740221,24,0,0,99,0.16,-0.32,down,0.4631230999948457,,,,,,,,,,,,,,,,,,,,,,,,,,,,,,,,,,,,,,,,,,,,,,,,,,,,,,,,,,,,ETY26L,train_y,red_square,top_left,2025-05-12_15h37.53.704,HideSeek_v1,2022.2.5,59.98415219899437,
,4,6,4,1,0,-5,11,,train_dim1_1,28,30,,,,2,0,2,0,,,,,,,,,0,0,0,0,0,27,27,27,5,0,5,0,,,,,,,,,,,,,,,,,,,,,,,,,,,,,,,,,,,,,,,,,,,,,,,,,,,,,,,,,,,,,,,,30,,,,,,,,2548.522558299999,2548.522558299999,2548.522558299999,2548.522558299999,2548.522558299999,return,1.861177199985832,25,0,0,1,0.16,-0.32,return,1.7718991999863647,-74,0,0.16,-0.32,,,,,,,,,,,,,,,,,,,,,,,,,,,,,,,,,,,,,,,,,,,,,,,,,,,,,,,,ETY26L,train_y,red_square,top_left,2025-05-12_15h37.53.704,HideSeek_v1,2022.2.5,59.98415219899437,
,2,7,2,3,0,-4,12,,train_dim1_1,29,30,,,,2,0,2,0,,,,,,,,,0,0,0,0,0,28,28,28,0,0,0,0,,,,,,,,,,,,,,,,,,,,,,,,,stimuli/alien_stimuli/12.png,,,,,,,,,,,,,,,,,,,,,,,,,,,,,stimuli/alien_stimuli/11.png,11,4,30,,,,,,,30,,,,,,,,2554.56663029996,2554.56663029996,2554.56663029996,2554.56663029996,2554.56663029996,down,1.7240978999761865,25,0,0,99,0,0.08,down,1.6357335000066087,,,,,2553.00893859996,2554.56663029996,0.16,-0.32,0.4,0.0,-0.12,0.16,0.16,0.16,-0.32,2551.9576401999802,2551.9576401999802,2551.9576401999802,2551.9576401999802,2551.9576401999802,2551.9576401999802,2551.9576401999802,2551.9576401999802,2551.9585388000123,1.1694522999459878,return,1.0279092999990098,,,,,,,,,,,,,,,,,,,,,,,,,,,,,,,,,ETY26L,train_y,red_square,top_left,2025-05-12_15h37.53.704,HideSeek_v1,2022.2.5,59.98415219899437,
,2,7,2,3,0,-4,12,,train_dim1_1,29,30,,,,2,0,2,0,,,,,,,,,0,0,0,0,0,28,28,28,1,0,1,0,,,,,,,,,,,,,,,,,,,,,,,,,,,,,,,,,,,,,,,,,,,,,,,,,,,,,,,,,,,,,,,,30,,,,,,,,2556.296478300006,2556.296478300006,2556.296478300006,2556.296478300006,2556.296478300006,down,0.3926821000059135,25,0,0,99,0,0.0,down,0.3156985000241548,,,,,,,,,,,,,,,,,,,,,,,,,,,,,,,,,,,,,,,,,,,,,,,,,,,,,,,,,,,,ETY26L,train_y,red_square,top_left,2025-05-12_15h37.53.704,HideSeek_v1,2022.2.5,59.98415219899437,
,2,7,2,3,0,-4,12,,train_dim1_1,29,30,,,,2,0,2,0,,,,,,,,,0,0,0,0,0,28,28,28,2,0,2,0,,,,,,,,,,,,,,,,,,,,,,,,,,,,,,,,,,,,,,,,,,,,,,,,,,,,,,,,,,,,,,,,30,,,,,,,,2556.697150999971,2556.697150999971,2556.697150999971,2556.697150999971,2556.697150999971,down,0.39309990004403517,25,0,0,99,0,-0.08,down,0.3050025000120513,,,,,,,,,,,,,,,,,,,,,,,,,,,,,,,,,,,,,,,,,,,,,,,,,,,,,,,,,,,,ETY26L,train_y,red_square,top_left,2025-05-12_15h37.53.704,HideSeek_v1,2022.2.5,59.98415219899437,
,2,7,2,3,0,-4,12,,train_dim1_1,29,30,,,,2,0,2,0,,,,,,,,,0,0,0,0,0,28,28,28,3,0,3,0,,,,,,,,,,,,,,,,,,,,,,,,,,,,,,,,,,,,,,,,,,,,,,,,,,,,,,,,,,,,,,,,30,,,,,,,,2557.0971497999853,2557.0971497999853,2557.0971497999853,2557.0971497999853,2557.0971497999853,down,0.39338730002054945,25,0,0,99,0,-0.16,down,0.30767359997844324,,,,,,,,,,,,,,,,,,,,,,,,,,,,,,,,,,,,,,,,,,,,,,,,,,,,,,,,,,,,ETY26L,train_y,red_square,top_left,2025-05-12_15h37.53.704,HideSeek_v1,2022.2.5,59.98415219899437,
,2,7,2,3,0,-4,12,,train_dim1_1,29,30,,,,2,0,2,0,,,,,,,,,0,0,0,0,0,28,28,28,4,0,4,0,,,,,,,,,,,,,,,,,,,,,,,,,,,,,,,,,,,,,,,,,,,,,,,,,,,,,,,,,,,,,,,,30,,,,,,,,2557.49846849998,2557.49846849998,2557.49846849998,2557.49846849998,2557.49846849998,return,0.40979259996674955,26,0,0,1,0,-0.16,return,0.3326200000010431,-78,0,0,-0.16,,,,,,,,,,,,,,,,,,,,,,,,,,,,,,,,,,,,,,,,,,,,,,,,,,,,,,,,ETY26L,train_y,red_square,top_left,2025-05-12_15h37.53.704,HideSeek_v1,2022.2.5,59.98415219899437,
,0,6,0,5,0,-1,15,,train_dim1_1,30,30,,,,2,0,2,0,,,,,,,,,0,0,0,0,0,29,29,29,0,0,0,0,,,,,,,,,,,,,,,,,,,,,,,,,stimuli/alien_stimuli/15.png,,,,,,,,,,,,,,,,,,,,,,,,,,,,,stimuli/alien_stimuli/12.png,12,2,31,,,,,,,30,,,,,,,,2562.474516499962,2562.474516499962,2562.474516499962,2562.474516499962,2562.474516499962,down,1.237580800021533,26,0,0,99,-0.16,0.0,down,1.1543629999505356,,,,,2560.9160542999743,2562.474516499962,0,-0.16,0.32,0.0,0.0,0,0.0,0,-0.16,2559.464235099964,2559.464235099964,2559.464235099964,2559.464235099964,2559.464235099964,2559.464235099964,2559.464235099964,2559.464235099964,2559.465017300012,1.5531453000148758,return,1.427719299972523,,,,,,,,,,,,,,,,,,,,,,,,,,,,,,,,,ETY26L,train_y,red_square,top_left,2025-05-12_15h37.53.704,HideSeek_v1,2022.2.5,59.98415219899437,
,0,6,0,5,0,-1,15,,train_dim1_1,30,30,,,,2,0,2,0,,,,,,,,,0,0,0,0,0,29,29,29,1,0,1,0,,,,,,,,,,,,,,,,,,,,,,,,,,,,,,,,,,,,,,,,,,,,,,,,,,,,,,,,,,,,,,,,30,,,,,,,,2563.7210504999966,2563.7210504999966,2563.7210504999966,2563.7210504999966,2563.7210504999966,return,1.025438499986194,27,0,0,1,-0.16,0.0,return,0.9439223999506794,-79,0,-0.16,0.0,,,,,,,,,,,,,,,,,,,,,,,,,,,,,,,,,,,,,,,,,,,,,,,,,,,,,,,,ETY26L,train_y,red_square,top_left,2025-05-12_15h37.53.704,HideSeek_v1,2022.2.5,59.98415219899437,
,,,,,,,,,,,30,,,,2,0,2,0,,,,,,,,,,,,,,,,,,,,,,,,,,,,,,,,,,,,,,,,,,,,,,,,,,,,,,,,,,,,,,,,,,,,,,,,,,stimuli/alien_stimuli/15.png,15,0,32,21,0.7,1.125,1,1,1,30,0,conditions/schedules/train_y_first/red_square_00/top_left/inputTrain_2.1.xlsx,99,1,2,1,0,,,,,,,,,,,1,,,,,,,,,2566.9543491000077,2568.517911600007,-0.16,0,0.08,0.0,0.04,-0.16,-0.16,-0.16,0,2566.3027512999834,2566.3027512999834,2566.3027512999834,2566.3027512999834,2566.3027512999834,2566.3027512999834,2566.3027512999834,2566.3027512999834,2566.3038591000077,0.7530979000148363,return,0.6275958000333048,0,0.9,0,1,27,,,,,,,,,,,,,,,,,,,,,,,,,,,,ETY26L,train_y,red_square,top_left,2025-05-12_15h37.53.704,HideSeek_v1,2022.2.5,59.98415219899437,
,,,,,,,,,,,,,,,3,0,3,0,0,0,0,0,,,,,,,,,,,,,,,,,,,,,,,,,,,,,,,conditions/schedules/train_y_first/red_square_00/top_left/instructions/Slide17.png,conditions/schedules/train_y_first/red_square_00/top_left/instructions/Audio17.wav,2568.517911600007,2568.5057564000017,17,"[3.6885302999871783, 17.878525500011165, 16.286244399962015, 19.80467410001438, 4.4339195000356995, 5.019396299961954, 5.803205100004561, 11.606209699995816, 5.824162499979138, 6.884201600041706, 10.922275799966883, 13.88836020004237, 17.692407299997285, 17.024303899961524, 42.916973699990194, 21.46001200005412, 53.163265399984084]","[0.014279399998486042, 0.05659469997044653, 0.0883966000401415, 0.06368409999413416, 0.048535199952311814, 0.049193100014235824, 0.046557200024835765, 0.08619589998852462, 0.11166330002015457, 0.0778584000072442, 10.922283799969591, 13.888367800042033, 17.69241369998781, 17.02431029995205, 0.046577900007832795, 21.460018800047692, 53.163272400037386]",0,,,,,,,,,,,,,,,,,,,,,,,,,,,,,,,,,,,,,,,,,,,,,,,,,,,,,,,,,,,,,,,,,,,,,,,,,,,,,,,,,,,,,,,,,,,,,,,,,,,,,,,,,,,,,,,,,,,,,,,,,,,,ETY26L,train_y,red_square,top_left,2025-05-12_15h37.53.704,HideSeek_v1,2022.2.5,59.98415219899437,
,,,,,,,,,,,,,,,3,0,3,0,1,0,1,0,,,,,,,,,,,,,,,,,,,,,,,,,,,,,,,conditions/schedules/train_y_first/red_square_00/top_left/instructions/Slide18.png,conditions/schedules/train_y_first/red_square_00/top_left/instructions/Audio18.wav,2621.7450345999678,2621.7338540999917,18,"[3.6885302999871783, 17.878525500011165, 16.286244399962015, 19.80467410001438, 4.4339195000356995, 5.019396299961954, 5.803205100004561, 11.606209699995816, 5.824162499979138, 6.884201600041706, 10.922275799966883, 13.88836020004237, 17.692407299997285, 17.024303899961524, 42.916973699990194, 21.46001200005412, 53.163265399984084, 6.641106499999296]","[0.014279399998486042, 0.05659469997044653, 0.0883966000401415, 0.06368409999413416, 0.048535199952311814, 0.049193100014235824, 0.046557200024835765, 0.08619589998852462, 0.11166330002015457, 0.0778584000072442, 10.922283799969591, 13.888367800042033, 17.69241369998781, 17.02431029995205, 0.046577900007832795, 21.460018800047692, 0.014053400023840368, 6.64111349999439]",0,,,,,,,,,,,,,,,,,,,,,,,,,,,,,,,,,,,,,,,,,,,,,,,,,,,,,,,,,,,,,,,,,,,,,,,,,,,,,,,,,,,,,,,,,,,,,,,,,,,,,,,,,,,,,,,,,,,,,,,,,,,,ETY26L,train_y,red_square,top_left,2025-05-12_15h37.53.704,HideSeek_v1,2022.2.5,59.98415219899437,
,,,,,,,,,,,,,,,3,0,3,0,2,0,2,0,,,,,,,,,,,,,,,,,,,,,,,,,,,,,,,conditions/schedules/train_y_first/red_square_00/top_left/instructions/Slide19.png,conditions/schedules/train_y_first/red_square_00/top_left/instructions/Audio19.wav,2628.4401793999714,2628.438586000004,19,"[3.6885302999871783, 17.878525500011165, 16.286244399962015, 19.80467410001438, 4.4339195000356995, 5.019396299961954, 5.803205100004561, 11.606209699995816, 5.824162499979138, 6.884201600041706, 10.922275799966883, 13.88836020004237, 17.692407299997285, 17.024303899961524, 42.916973699990194, 21.46001200005412, 53.163265399984084, 6.641106499999296, 9.554387199983466]","[0.014279399998486042, 0.05659469997044653, 0.0883966000401415, 0.06368409999413416, 0.048535199952311814, 0.049193100014235824, 0.046557200024835765, 0.08619589998852462, 0.11166330002015457, 0.0778584000072442, 10.922283799969591, 13.888367800042033, 17.69241369998781, 17.02431029995205, 0.046577900007832795, 21.460018800047692, 0.014053400023840368, 0.00027759996009990573, 9.55440899997484]",0,,,,,,,,,,,,,,,,,,,,,,,,,,,,,,,,,,,,,,,,,,,,,,,,,,,,,,,,,,,,,,,,,,,,,,,,,,,,,,,,,,,,,,,,,,,,,,,,,,,,,,,,,,,,,,,,,,,,,,,,,,,,ETY26L,train_y,red_square,top_left,2025-05-12_15h37.53.704,HideSeek_v1,2022.2.5,59.98415219899437,
,,,,,,,,,,,,,,,3,0,3,0,3,0,3,0,,,,,,,,,,,,,,,,,,,,,,,,,,,,,,,conditions/schedules/train_y_first/red_square_00/top_left/instructions/Slide20.png,conditions/schedules/train_y_first/red_square_00/top_left/instructions/Audio20.wav,2638.0502215999877,2638.0472182999947,20,"[3.6885302999871783, 17.878525500011165, 16.286244399962015, 19.80467410001438, 4.4339195000356995, 5.019396299961954, 5.803205100004561, 11.606209699995816, 5.824162499979138, 6.884201600041706, 10.922275799966883, 13.88836020004237, 17.692407299997285, 17.024303899961524, 42.916973699990194, 21.46001200005412, 53.163265399984084, 6.641106499999296, 9.554387199983466, 12.404234500019811]","[0.014279399998486042, 0.05659469997044653, 0.0883966000401415, 0.06368409999413416, 0.048535199952311814, 0.049193100014235824, 0.046557200024835765, 0.08619589998852462, 0.11166330002015457, 0.0778584000072442, 10.922283799969591, 13.888367800042033, 17.69241369998781, 17.02431029995205, 0.046577900007832795, 21.460018800047692, 0.014053400023840368, 0.00027759996009990573, 0.0796697000041604, 12.40424120001262]",0,,,,,,,,,,,,,,,,,,,,,,,,,,,,,,,,,,,,,,,,,,,,,,,,,,,,,,,,,,,,,,,,,,,,,,,,,,,,,,,,,,,,,,,,,,,,,,,,,,,,,,,,,,,,,,,,,,,,,,,,,,,,ETY26L,train_y,red_square,top_left,2025-05-12_15h37.53.704,HideSeek_v1,2022.2.5,59.98415219899437,
1,3,7,8,7,5,0,66,2,instr_dim1_2,,,,,,3,0,3,0,,,,,0,0,0,0,,,,,,,,,,,,,,,,,,,,,,,,,,,,,,,,,,,,,stimuli/alien_stimuli/66.png,conditions/schedules/train_y_first/red_square_00/top_left/inputInstr_2.xlsx,stimuli/alien_stimuli/66.png,2650.5543888999964,2650.5543888999964,2650.5543888999964,2650.5543888999964,2650.5403225999908,return,16.52115370001411,"[-0.16, -0.08, 0, 0.08, 0.16, 0.24, 0.32, 0.4, 0.48, 0.56]","[-0.4, -0.32, -0.24, -0.16, -0.08, 0, 0.08, 0.16, 0.24, 0.32]",7,7,8,3,0.0,0.4,2667.2509874000098,2667.2509874000098,2667.2509874000098,2667.2509874000098,2667.2509874000098,2667.2509874000098,2667.2509874000098,2667.2374816999945,6.856655800016597,return,6.680819500004873,stimuli/alien_stimuli/66.png,66,3,1,,,,,,,,,,,,,,,,,,,,,,,,,,,,,,,,,,,,,,,,,,,,,,,,,,,,,,,,,,,,,,,,,,,,,,,,,,,,,,,,,,,,,,,,,ETY26L,train_y,red_square,top_left,2025-05-12_15h37.53.704,HideSeek_v1,2022.2.5,59.98415219899437,
,,,,,,,,,,,30,,,,3,0,3,0,,,,,,,,,,,,,,,,,,,,,,,,,,,,,,,,,,,,,,,,,,,,,,,,,,,,,,,,,,,,,,,,,,,,,,,,,,,,,,21,0.7,1.125,1,99,2,30,0,conditions/schedules/train_y_first/red_square_00/top_left/inputTrain_2.1.xlsx,99,1,2,1,0,,,,,,,,,,,,,,,,,,,,,,,,,,,,,,,,,,,,,,,,,,,,,,,,,,,,,,,,,,,,,,,,,,,,,,,,,,,ETY26L,train_y,red_square,top_left,2025-05-12_15h37.53.704,HideSeek_v1,2022.2.5,59.98415219899437,
,,,,,,,,,,,,,,,4,0,4,0,0,0,0,0,,,,,,,,,,,,,,,,,,,,,,,,,,,,,,,conditions/schedules/train_y_first/red_square_00/top_left/instructions/Slide21.png,conditions/schedules/train_y_first/red_square_00/top_left/instructions/Audio21.wav,2674.093220699986,2674.0931961000024,21,"[3.6885302999871783, 17.878525500011165, 16.286244399962015, 19.80467410001438, 4.4339195000356995, 5.019396299961954, 5.803205100004561, 11.606209699995816, 5.824162499979138, 6.884201600041706, 10.922275799966883, 13.88836020004237, 17.692407299997285, 17.024303899961524, 42.916973699990194, 21.46001200005412, 53.163265399984084, 6.641106499999296, 9.554387199983466, 12.404234500019811, 12.791522100043949]","[0.014279399998486042, 0.05659469997044653, 0.0883966000401415, 0.06368409999413416, 0.048535199952311814, 0.049193100014235824, 0.046557200024835765, 0.08619589998852462, 0.11166330002015457, 0.0778584000072442, 10.922283799969591, 13.888367800042033, 17.69241369998781, 17.02431029995205, 0.046577900007832795, 21.460018800047692, 0.014053400023840368, 0.00027759996009990573, 0.0796697000041604, 12.40424120001262, 12.791529400041327]",0,,,,,,,,,,,,,,,,,,,,,,,,,,,,,,,,,,,,,,,,,,,,,,,,,,,,,,,,,,,,,,,,,,,,,,,,,,,,,,,,,,,,,,,,,,,,,,,,,,,,,,,,,,,,,,,,,,,,,,,,,,,,ETY26L,train_y,red_square,top_left,2025-05-12_15h37.53.704,HideSeek_v1,2022.2.5,59.98415219899437,
2,4,5,4,5,0,0,16,2,instr_dim1_2,,,,,,4,0,4,0,,,,,0,0,0,0,,,,,,,,,,,,,,,,,,,,,,,,,,,,,,,,,,,,,stimuli/alien_stimuli/16.png,conditions/schedules/train_y_first/red_square_00/top_left/inputInstr_2.xlsx,stimuli/alien_stimuli/16.png,2686.9873684999766,2686.9873684999766,2686.9873684999766,2686.9873684999766,2686.987282899994,return,6.781593199993949,"[-0.16, -0.08, 0, 0.08, 0.16, 0.24, 0.32, 0.4, 0.48, 0.56]","[-0.4, -0.32, -0.24, -0.16, -0.08, 0, 0.08, 0.16, 0.24, 0.32]",5,5,4,4,0.0,0.0,2693.93543839996,2693.93543839996,2693.93543839996,2693.93543839996,2693.93543839996,2693.93543839996,2693.93543839996,2693.9261505999893,6.823472300020512,return,6.662208899972029,stimuli/alien_stimuli/16.png,16,4,2,,,,,,,,,,,,,,,,,,,,,,,,,,,,,,,,,,,,,,,,,,,,,,,,,,,,,,,,,,,,,,,,,,,,,,,,,,,,,,,,,,,,,,,,,ETY26L,train_y,red_square,top_left,2025-05-12_15h37.53.704,HideSeek_v1,2022.2.5,59.98415219899437,
,,,,,,,,,,,30,,,,4,0,4,0,,,,,,,,,,,,,,,,,,,,,,,,,,,,,,,,,,,,,,,,,,,,,,,,,,,,,,,,,,,,,,,,,,,,,,,,,,,,,,21,0.7,1.125,1,99,2,30,0,conditions/schedules/train_y_first/red_square_00/top_left/inputTrain_2.1.xlsx,99,1,2,1,0,,,,,,,,,,,,,,,,,,,,,,,,,,,,,,,,,,,,,,,,,,,,,,,,,,,,,,,,,,,,,,,,,,,,,,,,,,,ETY26L,train_y,red_square,top_left,2025-05-12_15h37.53.704,HideSeek_v1,2022.2.5,59.98415219899437,
,,,,,,,,,,,,,,,5,0,5,0,0,0,0,0,,,,,,,,,,,,,,,,,,,,,,,,,,,,,,,conditions/schedules/train_y_first/red_square_00/top_left/instructions/Slide22.png,conditions/schedules/train_y_first/red_square_00/top_left/instructions/Audio22.wav,2700.752092299983,2700.748595299985,22,"[3.6885302999871783, 17.878525500011165, 16.286244399962015, 19.80467410001438, 4.4339195000356995, 5.019396299961954, 5.803205100004561, 11.606209699995816, 5.824162499979138, 6.884201600041706, 10.922275799966883, 13.88836020004237, 17.692407299997285, 17.024303899961524, 42.916973699990194, 21.46001200005412, 53.163265399984084, 6.641106499999296, 9.554387199983466, 12.404234500019811, 12.791522100043949, 30.10217189998366]","[0.014279399998486042, 0.05659469997044653, 0.0883966000401415, 0.06368409999413416, 0.048535199952311814, 0.049193100014235824, 0.046557200024835765, 0.08619589998852462, 0.11166330002015457, 0.0778584000072442, 10.922283799969591, 13.888367800042033, 17.69241369998781, 17.02431029995205, 0.046577900007832795, 21.460018800047692, 0.014053400023840368, 0.00027759996009990573, 0.0796697000041604, 12.40424120001262, 12.791529400041327, 30.102178399974946]",0,,,,,,,,,,,,,,,,,,,,,,,,,,,,,,,,,,,,,,,,,,,,,,,,,,,,,,,,,,,,,,,,,,,,,,,,,,,,,,,,,,,,,,,,,,,,,,,,,,,,,,,,,,,,,,,,,,,,,,,,,,,,ETY26L,train_y,red_square,top_left,2025-05-12_15h37.53.704,HideSeek_v1,2022.2.5,59.98415219899437,
,2,6,5,6,3,0,46,,train_dim1_2,1,30,,,,5,0,5,0,,,,,,,,,0,0,0,0,0,0,0,0,0,0,0,0,,,,,,,,,,,,,,,,,,,,,,,,,stimuli/alien_stimuli/46.png,,,,,,,,,,,,,,,,,,,,,,,,,,,,,,,,,,,,,,,30,,,,,,,,2730.958244699985,2730.958244699985,2730.958244699985,2730.958244699985,2730.958244699985,right,6.181998799962457,0,0,0,99,0.08,0.08,right,6.087219599983655,,,,,,,,,,,,,,,,,,,,,,,,,,,,,,,,,,,,,,,,,,,,,,,,,,,,,,,,,,,,ETY26L,train_y,red_square,top_left,2025-05-12_15h37.53.704,HideSeek_v1,2022.2.5,59.98415219899437,
,2,6,5,6,3,0,46,,train_dim1_2,1,30,,,,5,0,5,0,,,,,,,,,0,0,0,0,0,0,0,0,1,0,1,0,,,,,,,,,,,,,,,,,,,,,,,,,,,,,,,,,,,,,,,,,,,,,,,,,,,,,,,,,,,,,,,,30,,,,,,,,2737.1267409999855,2737.1267409999855,2737.1267409999855,2737.1267409999855,2737.1267409999855,right,0.7765774000436068,0,0,0,99,0.16,0.08,right,0.7001164000248536,,,,,,,,,,,,,,,,,,,,,,,,,,,,,,,,,,,,,,,,,,,,,,,,,,,,,,,,,,,,ETY26L,train_y,red_square,top_left,2025-05-12_15h37.53.704,HideSeek_v1,2022.2.5,59.98415219899437,
,2,6,5,6,3,0,46,,train_dim1_2,1,30,,,,5,0,5,0,,,,,,,,,0,0,0,0,0,0,0,0,2,0,2,0,,,,,,,,,,,,,,,,,,,,,,,,,,,,,,,,,,,,,,,,,,,,,,,,,,,,,,,,,,,,,,,,30,,,,,,,,2737.9094968999852,2737.9094968999852,2737.9094968999852,2737.9094968999852,2737.9094968999852,right,0.7433207999565639,0,0,0,99,0.24,0.08,right,0.6657351999892853,,,,,,,,,,,,,,,,,,,,,,,,,,,,,,,,,,,,,,,,,,,,,,,,,,,,,,,,,,,,ETY26L,train_y,red_square,top_left,2025-05-12_15h37.53.704,HideSeek_v1,2022.2.5,59.98415219899437,
,2,6,5,6,3,0,46,,train_dim1_2,1,30,,,,5,0,5,0,,,,,,,,,0,0,0,0,0,0,0,0,3,0,3,0,,,,,,,,,,,,,,,,,,,,,,,,,,,,,,,,,,,,,,,,,,,,,,,,,,,,,,,,,,,,,,,,30,,,,,,,,2738.6608053999953,2738.6608053999953,2738.6608053999953,2738.6608053999953,2738.6608053999953,return,0.6599666000111029,1,0,0,1,0.24,0.08,return,0.5817074999795295,-79,3,0.24,0.08,,,,,,,,,,,,,,,,,,,,,,,,,,,,,,,,,,,,,,,,,,,,,,,,,,,,,,,,ETY26L,train_y,red_square,top_left,2025-05-12_15h37.53.704,HideSeek_v1,2022.2.5,59.98415219899437,
,2,9,2,9,0,0,16,,train_dim1_2,2,30,,,,5,0,5,0,,,,,,,,,0,0,0,0,0,1,1,1,0,0,0,0,,,,,,,,,,,,,,,,,,,,,,,,,stimuli/alien_stimuli/16.png,,,,,,,,,,,,,,,,,,,,,,,,,,,,,stimuli/alien_stimuli/46.png,46,2,3,,,,,,,30,,,,,,,,2745.082208000007,2745.082208000007,2745.082208000007,2745.082208000007,2745.082208000007,return,3.206782800029032,2,0,0,1,0,0.32,return,3.121357900032308,-79,3,0,0.32,2743.5175982000073,2745.082208000007,0.24,0.08,0.0,0.24,0.08,0.24,0.12,0.24,0.08,2740.882761799963,2740.882761799963,2740.882761799963,2740.882761799963,2740.882761799963,2740.882761799963,2740.882761799963,2740.882761799963,2740.865474399994,2.7371384000289254,return,2.6176368999877013,,,,,,,,,,,,,,,,,,,,,,,,,,,,,,,,,ETY26L,train_y,red_square,top_left,2025-05-12_15h37.53.704,HideSeek_v1,2022.2.5,59.98415219899437,
,4,9,5,9,1,0,26,,train_dim1_2,3,30,,,,5,0,5,0,,,,,,,,,0,0,0,0,0,2,2,2,0,0,0,0,,,,,,,,,,,,,,,,,,,,,,,,,stimuli/alien_stimuli/26.png,,,,,,,,,,,,,,,,,,,,,,,,,,,,,stimuli/alien_stimuli/16.png,16,2,4,,,,,,,30,,,,,,,,2752.586134299985,2752.586134299985,2752.586134299985,2752.586134299985,2752.586134299985,right,1.4236219000304118,2,0,0,99,0.24,0.32,right,1.3095884999493137,,,,,2751.006988500012,2752.586134299985,0,0.32,0.0,0.0,0.32,0,0.0,0,0.32,2749.8694829999586,2749.8694829999586,2749.8694829999586,2749.8694829999586,2749.8694829999586,2749.8694829999586,2749.8694829999586,2749.8694829999586,2749.8560669000144,1.2696313000051305,return,1.107527600019239,,,,,,,,,,,,,,,,,,,,,,,,,,,,,,,,,ETY26L,train_y,red_square,top_left,2025-05-12_15h37.53.704,HideSeek_v1,2022.2.5,59.98415219899437,
,4,9,5,9,1,0,26,,train_dim1_2,3,30,,,,5,0,5,0,,,,,,,,,0,0,0,0,0,2,2,2,1,0,1,0,,,,,,,,,,,,,,,,,,,,,,,,,,,,,,,,,,,,,,,,,,,,,,,,,,,,,,,,,,,,,,,,30,,,,,,,,2753.995254999958,2753.995254999958,2753.995254999958,2753.995254999958,2753.995254999958,return,0.4929621000192128,3,0,0,1,0.24,0.32,return,0.4072553000296466,-79,4,0.24,0.32,,,,,,,,,,,,,,,,,,,,,,,,,,,,,,,,,,,,,,,,,,,,,,,,,,,,,,,,ETY26L,train_y,red_square,top_left,2025-05-12_15h37.53.704,HideSeek_v1,2022.2.5,59.98415219899437,
,2,8,6,8,4,0,56,,train_dim1_2,4,30,,,,5,0,5,0,,,,,,,,,0,0,0,0,0,3,3,3,0,0,0,0,,,,,,,,,,,,,,,,,,,,,,,,,stimuli/alien_stimuli/56.png,,,,,,,,,,,,,,,,,,,,,,,,,,,,,stimuli/alien_stimuli/26.png,26,4,5,,,,,,,30,,,,,,,,2758.4916181999724,2758.4916181999724,2758.4916181999724,2758.4916181999724,2758.4916181999724,right,2.0568267999915406,3,0,0,99,0.08,0.24,right,1.9681731999735348,,,,,2756.9284827999654,2758.4916181999724,0.24,0.32,0.0,0.08,0.32,0.24,0.2,0.24,0.32,2756.0545906999614,2756.0545906999614,2756.0545906999614,2756.0545906999614,2756.0545906999614,2756.0545906999614,2756.0545906999614,2756.0545906999614,2756.0444747000292,0.9863572000176646,return,0.8434090999653563,,,,,,,,,,,,,,,,,,,,,,,,,,,,,,,,,ETY26L,train_y,red_square,top_left,2025-05-12_15h37.53.704,HideSeek_v1,2022.2.5,59.98415219899437,
,2,8,6,8,4,0,56,,train_dim1_2,4,30,,,,5,0,5,0,,,,,,,,,0,0,0,0,0,3,3,3,1,0,1,0,,,,,,,,,,,,,,,,,,,,,,,,,,,,,,,,,,,,,,,,,,,,,,,,,,,,,,,,,,,,,,,,30,,,,,,,,2760.547175799962,2760.547175799962,2760.547175799962,2760.547175799962,2760.547175799962,right,0.45996790000936016,3,0,0,99,0.16,0.24,right,0.3753326000296511,,,,,,,,,,,,,,,,,,,,,,,,,,,,,,,,,,,,,,,,,,,,,,,,,,,,,,,,,,,,ETY26L,train_y,red_square,top_left,2025-05-12_15h37.53.704,HideSeek_v1,2022.2.5,59.98415219899437,
,2,8,6,8,4,0,56,,train_dim1_2,4,30,,,,5,0,5,0,,,,,,,,,0,0,0,0,0,3,3,3,2,0,2,0,,,,,,,,,,,,,,,,,,,,,,,,,,,,,,,,,,,,,,,,,,,,,,,,,,,,,,,,,,,,,,,,30,,,,,,,,2761.0145342999604,2761.0145342999604,2761.0145342999604,2761.0145342999604,2761.0145342999604,right,0.4267723999801092,3,0,0,99,0.24,0.24,right,0.3506669999915175,,,,,,,,,,,,,,,,,,,,,,,,,,,,,,,,,,,,,,,,,,,,,,,,,,,,,,,,,,,,ETY26L,train_y,red_square,top_left,2025-05-12_15h37.53.704,HideSeek_v1,2022.2.5,59.98415219899437,
,2,8,6,8,4,0,56,,train_dim1_2,4,30,,,,5,0,5,0,,,,,,,,,0,0,0,0,0,3,3,3,3,0,3,0,,,,,,,,,,,,,,,,,,,,,,,,,,,,,,,,,,,,,,,,,,,,,,,,,,,,,,,,,,,,,,,,30,,,,,,,,2761.447579999978,2761.447579999978,2761.447579999978,2761.447579999978,2761.447579999978,right,0.47645489999558777,3,0,0,99,0.32,0.24,right,0.39042930002324283,,,,,,,,,,,,,,,,,,,,,,,,,,,,,,,,,,,,,,,,,,,,,,,,,,,,,,,,,,,,ETY26L,train_y,red_square,top_left,2025-05-12_15h37.53.704,HideSeek_v1,2022.2.5,59.98415219899437,
,2,8,6,8,4,0,56,,train_dim1_2,4,30,,,,5,0,5,0,,,,,,,,,0,0,0,0,0,3,3,3,4,0,4,0,,,,,,,,,,,,,,,,,,,,,,,,,,,,,,,,,,,,,,,,,,,,,,,,,,,,,,,,,,,,,,,,30,,,,,,,,2761.930908199982,2761.930908199982,2761.930908199982,2761.930908199982,2761.930908199982,return,0.4434289999771863,4,0,0,1,0.32,0.24,return,0.36141270003281534,-79,8,0.32,0.24,,,,,,,,,,,,,,,,,,,,,,,,,,,,,,,,,,,,,,,,,,,,,,,,,,,,,,,,ETY26L,train_y,red_square,top_left,2025-05-12_15h37.53.704,HideSeek_v1,2022.2.5,59.98415219899437,
