trialInstr,x_fixStart,y_fixStart,x_corrSteps,y_corrSteps,x_nrSteps,y_nrSteps,alienID,trialLength,version,trialTrain,praclen,testlen,trial_label,break_on_off,beforeExpLoop.thisRepN,beforeExpLoop.thisTrialN,beforeExpLoop.thisN,beforeExpLoop.thisIndex,mini_instr_trials.thisRepN,mini_instr_trials.thisTrialN,mini_instr_trials.thisN,mini_instr_trials.thisIndex,instrLoop.thisRepN,instrLoop.thisTrialN,instrLoop.thisN,instrLoop.thisIndex,repeat_prac.thisRepN,repeat_prac.thisTrialN,repeat_prac.thisN,repeat_prac.thisIndex,trainLoop.thisRepN,trainLoop.thisTrialN,trainLoop.thisN,trainLoop.thisIndex,moveLoop_train.thisRepN,moveLoop_train.thisTrialN,moveLoop_train.thisN,moveLoop_train.thisIndex,experiment.thisRepN,experiment.thisTrialN,experiment.thisN,experiment.thisIndex,moveLoop_test.thisRepN,moveLoop_test.thisTrialN,moveLoop_test.thisN,moveLoop_test.thisIndex,mini_instr2_trials.thisRepN,mini_instr2_trials.thisTrialN,mini_instr2_trials.thisN,mini_instr2_trials.thisIndex,start_all_time,url,slideStim,audioStim,slides.started,sounds.started,nextButton.numClicks,nextButton.timesOn,nextButton.timesOff,prev_but.numClicks,prev_but.timesOn,prev_but.timesOff,alienStim,instrFile,alienStim_instr,gridImage_instr.started,startPos_3.started,key_instr.started,alienImage_3.started,sounds_1.started,key_instr.keys,key_instr.rt,all_x,all_y,FBy_corrSteps,FBy_fixStart,FBx_corrSteps,FBx_fixStart,FBy_pathSize_check,FBx_pathSize_check,gridImage_9.started,alienImageFB_3.started,startPosFB_3.started,keyFB_3.started,pathLine_ydir_2.started,pathLine_xdir_2.started,alienFace_3.started,sounds_2.started,RTFB_instr,keyFB_3.keys,keyFB_3.rt,draw_alienStim,draw_alienID,test_x,nrepcount,perfthres,percthres,earlierperf,earlystop,nextPrac,fileidx,praclen,saveACC_train,pracFile,nextPrac_train,addNrep,fileidx_endr,repExp,showearly,gridImage_4.started,startPos.started,movePos.started,key_resp.started,alienImage.started,buttonPress_train,RTchoice_train,cumAcctrain,aCorr,saveACC_choice,corrAns,x_movePos_end,y_movePos_end,key_resp.keys,key_resp.rt,wLy_dir,wLx_dir,x_movePos,y_movePos,text_2.started,text_2.stopped,aft_x_corrPos,aft_y_corrPos,y_pathSize_check,x_pathSize_check,y_pathdirY,x_pathdirY,x_pathdirX,x_corrPos,y_corrPos,gridImage_6.started,alienImageFB_2.started,startPosFB_2.started,movePosFB_2.started,keyFB_2.started,pathLine_xdir.started,pathLine_ydir.started,alienFace.started,sounds_4.started,RT_FBtrain,keyFB_2.keys,keyFB_2.rt,saveACC_pre,ACC,within_saveACC_train,earlystop_wloop,cumAcctrain_check,gridImage_3.started,alienImage_test.started,startPos_test.started,movePos_test.started,key_resp_test.started,wLy_dir_test,wLx_dir_test,buttonPress_test,RTchoice_test,cumAcctest,corrAns_test,key_resp_test.keys,key_resp_test.rt,text_3.started,text_3.stopped,total_time,end_all_time,key_resp_3.keys,slides_2.started,sounds_3.started,nextButton_2.numClicks,nextButton_2.timesOn,nextButton_2.timesOff,prev_but_2.numClicks,prev_but_2.timesOn,prev_but_2.timesOff,bye.started,participant,train_first,00_coordinate,starting corner,date,expName,psychopyVersion,frameRate,
,,,,,,,,,,,,,,,0,0,0,0,0,0,0,0,,,,,,,,,,,,,,,,,,,,,,,,,,,,,start_all_time,testround,conditions/schedules/train_y_first/blue_star_00/bottom_left/instructions/Slide1.png,conditions/schedules/train_y_first/blue_star_00/bottom_left/instructions/Audio1.wav,604.5201135000098,604.4601591984392,1,[3.986874900001567],[3.986889499996323],0,,,,,,,,,,,,,,,,,,,,,,,,,,,,,,,,,,,,,,,,,,,,,,,,,,,,,,,,,,,,,,,,,,,,,,,,,,,,,,,,,,,,,,,,,,,,,,,,,,,,,,,,,,,,,,,,,,,,,,,,,,,,EXDRFV,train_y,blue_star,bottom_left,2025-05-19_16h34.07.185,HideSeek_v1,2022.2.5,59.976705044936466,
,,,,,,,,,,,,,,,0,0,0,0,1,0,1,0,,,,,,,,,,,,,,,,,,,,,,,,,,,,,,,conditions/schedules/train_y_first/blue_star_00/bottom_left/instructions/Slide2.png,conditions/schedules/train_y_first/blue_star_00/bottom_left/instructions/Audio2.wav,608.5257220000494,608.5280644999875,2,"[3.986874900001567, 18.83242250001058]","[0.0002204999909736216, 18.83243000000948]",0,,,,,,,,,,,,,,,,,,,,,,,,,,,,,,,,,,,,,,,,,,,,,,,,,,,,,,,,,,,,,,,,,,,,,,,,,,,,,,,,,,,,,,,,,,,,,,,,,,,,,,,,,,,,,,,,,,,,,,,,,,,,EXDRFV,train_y,blue_star,bottom_left,2025-05-19_16h34.07.185,HideSeek_v1,2022.2.5,59.976705044936466,
,,,,,,,,,,,,,,,0,0,0,0,2,0,2,0,,,,,,,,,,,,,,,,,,,,,,,,,,,,,,,conditions/schedules/train_y_first/blue_star_00/bottom_left/instructions/Slide3.png,conditions/schedules/train_y_first/blue_star_00/bottom_left/instructions/Audio3.wav,627.433284400031,627.4270569000219,3,"[3.986874900001567, 18.83242250001058, 16.571652800019365]","[0.0002204999909736216, 0.01414060004753992, 16.571660100016743]",0,,,,,,,,,,,,,,,,,,,,,,,,,,,,,,,,,,,,,,,,,,,,,,,,,,,,,,,,,,,,,,,,,,,,,,,,,,,,,,,,,,,,,,,,,,,,,,,,,,,,,,,,,,,,,,,,,,,,,,,,,,,,EXDRFV,train_y,blue_star,bottom_left,2025-05-19_16h34.07.185,HideSeek_v1,2022.2.5,59.976705044936466,
,,,,,,,,,,,,,,,0,0,0,0,3,0,3,0,,,,,,,,,,,,,,,,,,,,,,,,,,,,,,,conditions/schedules/train_y_first/blue_star_00/bottom_left/instructions/Slide4.png,conditions/schedules/train_y_first/blue_star_00/bottom_left/instructions/Audio4.wav,644.0884662000462,644.0739915999875,4,"[3.986874900001567, 18.83242250001058, 16.571652800019365, 19.036494500003755]","[0.0002204999909736216, 0.01414060004753992, 16.571660100016743, 19.036502600007225]",0,,,,,,,,,,,,,,,,,,,,,,,,,,,,,,,,,,,,,,,,,,,,,,,,,,,,,,,,,,,,,,,,,,,,,,,,,,,,,,,,,,,,,,,,,,,,,,,,,,,,,,,,,,,,,,,,,,,,,,,,,,,,EXDRFV,train_y,blue_star,bottom_left,2025-05-19_16h34.07.185,HideSeek_v1,2022.2.5,59.976705044936466,
,,,,,,,,,,,,,,,0,0,0,0,4,0,4,0,,,,,,,,,,,,,,,,,,,,,,,,,,,,,,,conditions/schedules/train_y_first/blue_star_00/bottom_left/instructions/Slide5.png,conditions/schedules/train_y_first/blue_star_00/bottom_left/instructions/Audio5.wav,663.1907107000006,663.1897886999941,5,"[3.986874900001567, 18.83242250001058, 16.571652800019365, 19.036494500003755, 3.9837638000026345]","[0.0002204999909736216, 0.01414060004753992, 16.571660100016743, 0.030068800027947873, 3.9837724000099115]",0,,,,,,,,,,,,,,,,,,,,,,,,,,,,,,,,,,,,,,,,,,,,,,,,,,,,,,,,,,,,,,,,,,,,,,,,,,,,,,,,,,,,,,,,,,,,,,,,,,,,,,,,,,,,,,,,,,,,,,,,,,,,EXDRFV,train_y,blue_star,bottom_left,2025-05-19_16h34.07.185,HideSeek_v1,2022.2.5,59.976705044936466,
,,,,,,,,,,,,,,,0,0,0,0,5,0,5,0,,,,,,,,,,,,,,,,,,,,,,,,,,,,,,,conditions/schedules/train_y_first/blue_star_00/bottom_left/instructions/Slide6.png,conditions/schedules/train_y_first/blue_star_00/bottom_left/instructions/Audio6.wav,667.2262413999997,667.2265170200145,6,"[3.986874900001567, 18.83242250001058, 16.571652800019365, 19.036494500003755, 3.9837638000026345, 4.468191000050865]","[0.0002204999909736216, 0.01414060004753992, 16.571660100016743, 0.030068800027947873, 0.047286300046835095, 4.4681988000520505]",0,,,,,,,,,,,,,,,,,,,,,,,,,,,,,,,,,,,,,,,,,,,,,,,,,,,,,,,,,,,,,,,,,,,,,,,,,,,,,,,,,,,,,,,,,,,,,,,,,,,,,,,,,,,,,,,,,,,,,,,,,,,,EXDRFV,train_y,blue_star,bottom_left,2025-05-19_16h34.07.185,HideSeek_v1,2022.2.5,59.976705044936466,
,,,,,,,,,,,,,,,0,0,0,0,6,0,6,0,,,,,,,,,,,,,,,,,,,,,,,,,,,,,,,conditions/schedules/train_y_first/blue_star_00/bottom_left/instructions/Slide7.png,conditions/schedules/train_y_first/blue_star_00/bottom_left/instructions/Audio7.wav,671.7458695000387,671.7471493200165,7,"[3.986874900001567, 18.83242250001058, 16.571652800019365, 19.036494500003755, 3.9837638000026345, 4.468191000050865, 5.102819399966393]","[0.0002204999909736216, 0.01414060004753992, 16.571660100016743, 0.030068800027947873, 0.047286300046835095, 0.06509859999641776, 5.102826599963009]",0,,,,,,,,,,,,,,,,,,,,,,,,,,,,,,,,,,,,,,,,,,,,,,,,,,,,,,,,,,,,,,,,,,,,,,,,,,,,,,,,,,,,,,,,,,,,,,,,,,,,,,,,,,,,,,,,,,,,,,,,,,,,EXDRFV,train_y,blue_star,bottom_left,2025-05-19_16h34.07.185,HideSeek_v1,2022.2.5,59.976705044936466,
,,,,,,,,,,,,,,,0,0,0,0,7,0,7,0,,,,,,,,,,,,,,,,,,,,,,,,,,,,,,,conditions/schedules/train_y_first/blue_star_00/bottom_left/instructions/Slide8.png,conditions/schedules/train_y_first/blue_star_00/bottom_left/instructions/Audio8.wav,676.9033471000148,676.9012826200225,8,"[3.986874900001567, 18.83242250001058, 16.571652800019365, 19.036494500003755, 3.9837638000026345, 4.468191000050865, 5.102819399966393, 11.671788599982392]","[0.0002204999909736216, 0.01414060004753992, 16.571660100016743, 0.030068800027947873, 0.047286300046835095, 0.06509859999641776, 0.04634419997455552, 11.671795999980532]",0,,,,,,,,,,,,,,,,,,,,,,,,,,,,,,,,,,,,,,,,,,,,,,,,,,,,,,,,,,,,,,,,,,,,,,,,,,,,,,,,,,,,,,,,,,,,,,,,,,,,,,,,,,,,,,,,,,,,,,,,,,,,EXDRFV,train_y,blue_star,bottom_left,2025-05-19_16h34.07.185,HideSeek_v1,2022.2.5,59.976705044936466,
,,,,,,,,,,,,,,,0,0,0,0,8,0,8,0,,,,,,,,,,,,,,,,,,,,,,,,,,,,,,,conditions/schedules/train_y_first/blue_star_00/bottom_left/instructions/Slide9.png,conditions/schedules/train_y_first/blue_star_00/bottom_left/instructions/Audio9.wav,688.6456536000478,688.6444133000041,9,"[3.986874900001567, 18.83242250001058, 16.571652800019365, 19.036494500003755, 3.9837638000026345, 4.468191000050865, 5.102819399966393, 11.671788599982392, 5.734048999962397]","[0.0002204999909736216, 0.01414060004753992, 16.571660100016743, 0.030068800027947873, 0.047286300046835095, 0.06509859999641776, 0.04634419997455552, 0.02988260000711307, 5.734056599962059]",0,,,,,,,,,,,,,,,,,,,,,,,,,,,,,,,,,,,,,,,,,,,,,,,,,,,,,,,,,,,,,,,,,,,,,,,,,,,,,,,,,,,,,,,,,,,,,,,,,,,,,,,,,,,,,,,,,,,,,,,,,,,,EXDRFV,train_y,blue_star,bottom_left,2025-05-19_16h34.07.185,HideSeek_v1,2022.2.5,59.976705044936466,
,,,,,,,,,,,,,,,0,0,0,0,9,0,9,0,,,,,,,,,,,,,,,,,,,,,,,,,,,,,,,conditions/schedules/train_y_first/blue_star_00/bottom_left/instructions/Slide10.png,conditions/schedules/train_y_first/blue_star_00/bottom_left/instructions/Audio10.wav,694.4181251000264,694.4156961399771,10,"[3.986874900001567, 18.83242250001058, 16.571652800019365, 19.036494500003755, 3.9837638000026345, 4.468191000050865, 5.102819399966393, 11.671788599982392, 5.734048999962397, 6.816827300004661]","[0.0002204999909736216, 0.01414060004753992, 16.571660100016743, 0.030068800027947873, 0.047286300046835095, 0.06509859999641776, 0.04634419997455552, 0.02988260000711307, 0.047273000003769994, 6.816834099998232]",0,,,,,,,,,,,,,,,,,,,,,,,,,,,,,,,,,,,,,,,,,,,,,,,,,,,,,,,,,,,,,,,,,,,,,,,,,,,,,,,,,,,,,,,,,,,,,,,,,,,,,,,,,,,,,,,,,,,,,,,,,,,,EXDRFV,train_y,blue_star,bottom_left,2025-05-19_16h34.07.185,HideSeek_v1,2022.2.5,59.976705044936466,
,,,,,,,,,,,,,,,0,0,0,0,10,0,10,0,,,,,,,,,,,,,,,,,,,,,,,,,,,,,,,conditions/schedules/train_y_first/blue_star_00/bottom_left/instructions/Slide11.png,conditions/schedules/train_y_first/blue_star_00/bottom_left/instructions/Audio11.wav,701.2735737000476,701.2713403400325,11,"[3.986874900001567, 18.83242250001058, 16.571652800019365, 19.036494500003755, 3.9837638000026345, 4.468191000050865, 5.102819399966393, 11.671788599982392, 5.734048999962397, 6.816827300004661, 10.12000390002504]","[0.0002204999909736216, 0.01414060004753992, 16.571660100016743, 0.030068800027947873, 0.047286300046835095, 0.06509859999641776, 0.04634419997455552, 0.02988260000711307, 0.047273000003769994, 0.06113940000068396, 10.120011500024702]",0,,,,,,,,,,,,,,,,,,,,,,,,,,,,,,,,,,,,,,,,,,,,,,,,,,,,,,,,,,,,,,,,,,,,,,,,,,,,,,,,,,,,,,,,,,,,,,,,,,,,,,,,,,,,,,,,,,,,,,,,,,,,EXDRFV,train_y,blue_star,bottom_left,2025-05-19_16h34.07.185,HideSeek_v1,2022.2.5,59.976705044936466,
,,,,,,,,,,,,,,,0,0,0,0,11,0,11,0,,,,,,,,,,,,,,,,,,,,,,,,,,,,,,,conditions/schedules/train_y_first/blue_star_00/bottom_left/instructions/Slide12.png,conditions/schedules/train_y_first/blue_star_00/bottom_left/instructions/Audio12.wav,711.4647240000195,711.463012799999,12,"[3.986874900001567, 18.83242250001058, 16.571652800019365, 19.036494500003755, 3.9837638000026345, 4.468191000050865, 5.102819399966393, 11.671788599982392, 5.734048999962397, 6.816827300004661, 10.12000390002504, 13.59037630003877]","[0.0002204999909736216, 0.01414060004753992, 16.571660100016743, 0.030068800027947873, 0.047286300046835095, 0.06509859999641776, 0.04634419997455552, 0.02988260000711307, 0.047273000003769994, 0.06113940000068396, 0.04601760004879907, 13.590383900038432]",0,,,,,,,,,,,,,,,,,,,,,,,,,,,,,,,,,,,,,,,,,,,,,,,,,,,,,,,,,,,,,,,,,,,,,,,,,,,,,,,,,,,,,,,,,,,,,,,,,,,,,,,,,,,,,,,,,,,,,,,,,,,,EXDRFV,train_y,blue_star,bottom_left,2025-05-19_16h34.07.185,HideSeek_v1,2022.2.5,59.976705044936466,
1,0,3,0,8,0,5,66,2,instr_dim1_1,,,,,,0,0,0,0,,,,,0,0,0,0,,,,,,,,,,,,,,,,,,,,,,,,,,,,,,,,,,,,,stimuli/alien_stimuli/66.png,conditions/schedules/train_y_first/blue_star_00/bottom_left/inputInstr_1.xlsx,stimuli/alien_stimuli/66.png,725.1556767000002,725.1556767000002,725.1556767000002,725.1556767000002,725.1578171600063,return,10.466419400006998,"[-0.16, -0.08, 0, 0.08, 0.16, 0.24, 0.32, 0.4, 0.48, 0.56]","[-0.4, -0.32, -0.24, -0.16, -0.08, 0, 0.08, 0.16, 0.24, 0.32]",8,3,0,0,0.4,0.0,735.7901225000387,735.7901225000387,735.7901225000387,735.7901225000387,735.7901225000387,735.7901225000387,735.7901225000387,735.783469420002,13.896489899954759,return,13.734905900026206,stimuli/alien_stimuli/66.png,66,0,1,,,,,,,,,,,,,,,,,,,,,,,,,,,,,,,,,,,,,,,,,,,,,,,,,,,,,,,,,,,,,,,,,,,,,,,,,,,,,,,,,,,,,,,,,EXDRFV,train_y,blue_star,bottom_left,2025-05-19_16h34.07.185,HideSeek_v1,2022.2.5,59.976705044936466,
,,,,,,,,,,,30,,,,0,0,0,0,,,,,,,,,,,,,,,,,,,,,,,,,,,,,,,,,,,,,,,,,,,,,,,,,,,,,,,,,,,,,,,,,,,,,,,,,,,,,,21,0.7,0,0,99,1,30,0,conditions/schedules/train_y_first/blue_star_00/bottom_left/inputTrain_1.1.xlsx,99,1,1,1,0,,,,,,,,,,,,,,,,,,,,,,,,,,,,,,,,,,,,,,,,,,,,,,,,,,,,,,,,,,,,,,,,,,,,,,,,,,,EXDRFV,train_y,blue_star,bottom_left,2025-05-19_16h34.07.185,HideSeek_v1,2022.2.5,59.976705044936466,
,,,,,,,,,,,,,,,1,0,1,0,0,0,0,0,,,,,,,,,,,,,,,,,,,,,,,,,,,,,,,conditions/schedules/train_y_first/blue_star_00/bottom_left/instructions/Slide13.png,conditions/schedules/train_y_first/blue_star_00/bottom_left/instructions/Audio13.wav,749.691026000015,749.6785453199583,13,"[3.986874900001567, 18.83242250001058, 16.571652800019365, 19.036494500003755, 3.9837638000026345, 4.468191000050865, 5.102819399966393, 11.671788599982392, 5.734048999962397, 6.816827300004661, 10.12000390002504, 13.59037630003877, 17.349157500022557]","[0.0002204999909736216, 0.01414060004753992, 16.571660100016743, 0.030068800027947873, 0.047286300046835095, 0.06509859999641776, 0.04634419997455552, 0.02988260000711307, 0.047273000003769994, 0.06113940000068396, 0.04601760004879907, 13.590383900038432, 17.349164900020696]",0,,,,,,,,,,,,,,,,,,,,,,,,,,,,,,,,,,,,,,,,,,,,,,,,,,,,,,,,,,,,,,,,,,,,,,,,,,,,,,,,,,,,,,,,,,,,,,,,,,,,,,,,,,,,,,,,,,,,,,,,,,,,EXDRFV,train_y,blue_star,bottom_left,2025-05-19_16h34.07.185,HideSeek_v1,2022.2.5,59.976705044936466,
,,,,,,,,,,,,,,,1,0,1,0,1,0,1,0,,,,,,,,,,,,,,,,,,,,,,,,,,,,,,,conditions/schedules/train_y_first/blue_star_00/bottom_left/instructions/Slide14.png,conditions/schedules/train_y_first/blue_star_00/bottom_left/instructions/Audio14.wav,767.113226400048,767.1094961000199,14,"[3.986874900001567, 18.83242250001058, 16.571652800019365, 19.036494500003755, 3.9837638000026345, 4.468191000050865, 5.102819399966393, 11.671788599982392, 5.734048999962397, 6.816827300004661, 10.12000390002504, 13.59037630003877, 17.349157500022557, 17.157934799965005]","[0.0002204999909736216, 0.01414060004753992, 16.571660100016743, 0.030068800027947873, 0.047286300046835095, 0.06509859999641776, 0.04634419997455552, 0.02988260000711307, 0.047273000003769994, 0.06113940000068396, 0.04601760004879907, 13.590383900038432, 0.03054479998536408, 17.157942299963906]",0,,,,,,,,,,,,,,,,,,,,,,,,,,,,,,,,,,,,,,,,,,,,,,,,,,,,,,,,,,,,,,,,,,,,,,,,,,,,,,,,,,,,,,,,,,,,,,,,,,,,,,,,,,,,,,,,,,,,,,,,,,,,EXDRFV,train_y,blue_star,bottom_left,2025-05-19_16h34.07.185,HideSeek_v1,2022.2.5,59.976705044936466,
2,2,3,2,3,0,0,61,2,instr_dim1_1,,,,,,1,0,1,0,,,,,0,0,0,0,,,,,,,,,,,,,,,,,,,,,,,,,,,,,,,,,,,,,stimuli/alien_stimuli/61.png,conditions/schedules/train_y_first/blue_star_00/bottom_left/inputInstr_1.xlsx,stimuli/alien_stimuli/61.png,784.3658847000333,784.3658847000333,784.3658847000333,784.3658847000333,784.3571652799844,return,9.051205500029027,"[-0.16, -0.08, 0, 0.08, 0.16, 0.24, 0.32, 0.4, 0.48, 0.56]","[-0.4, -0.32, -0.24, -0.16, -0.08, 0, 0.08, 0.16, 0.24, 0.32]",3,3,2,2,0.0,0.0,793.5849573000451,793.5849573000451,793.5849573000451,793.5849573000451,793.5849573000451,793.5849573000451,793.5849573000451,793.5814742199901,8.357920999987982,return,8.198386000003666,stimuli/alien_stimuli/61.png,61,2,2,,,,,,,,,,,,,,,,,,,,,,,,,,,,,,,,,,,,,,,,,,,,,,,,,,,,,,,,,,,,,,,,,,,,,,,,,,,,,,,,,,,,,,,,,EXDRFV,train_y,blue_star,bottom_left,2025-05-19_16h34.07.185,HideSeek_v1,2022.2.5,59.976705044936466,
,,,,,,,,,,,30,,,,1,0,1,0,,,,,,,,,,,,,,,,,,,,,,,,,,,,,,,,,,,,,,,,,,,,,,,,,,,,,,,,,,,,,,,,,,,,,,,,,,,,,,21,0.7,0,0,99,1,30,0,conditions/schedules/train_y_first/blue_star_00/bottom_left/inputTrain_1.1.xlsx,99,1,1,1,0,,,,,,,,,,,,,,,,,,,,,,,,,,,,,,,,,,,,,,,,,,,,,,,,,,,,,,,,,,,,,,,,,,,,,,,,,,,EXDRFV,train_y,blue_star,bottom_left,2025-05-19_16h34.07.185,HideSeek_v1,2022.2.5,59.976705044936466,
,,,,,,,,,,,,,,,2,0,2,0,0,0,0,0,,,,,,,,,,,,,,,,,,,,,,,,,,,,,,,conditions/schedules/train_y_first/blue_star_00/bottom_left/instructions/Slide15.png,conditions/schedules/train_y_first/blue_star_00/bottom_left/instructions/Audio15.wav,801.9583401000127,801.9549989999505,15,"[3.986874900001567, 18.83242250001058, 16.571652800019365, 19.036494500003755, 3.9837638000026345, 4.468191000050865, 5.102819399966393, 11.671788599982392, 5.734048999962397, 6.816827300004661, 10.12000390002504, 13.59037630003877, 17.349157500022557, 17.157934799965005, 42.746041400008835]","[0.0002204999909736216, 0.01414060004753992, 16.571660100016743, 0.030068800027947873, 0.047286300046835095, 0.06509859999641776, 0.04634419997455552, 0.02988260000711307, 0.047273000003769994, 0.06113940000068396, 0.04601760004879907, 13.590383900038432, 0.03054479998536408, 17.157942299963906, 42.74604870000621]",0,,,,,,,,,,,,,,,,,,,,,,,,,,,,,,,,,,,,,,,,,,,,,,,,,,,,,,,,,,,,,,,,,,,,,,,,,,,,,,,,,,,,,,,,,,,,,,,,,,,,,,,,,,,,,,,,,,,,,,,,,,,,EXDRFV,train_y,blue_star,bottom_left,2025-05-19_16h34.07.185,HideSeek_v1,2022.2.5,59.976705044936466,
,,,,,,,,,,,,,,,2,0,2,0,1,0,1,0,,,,,,,,,,,,,,,,,,,,,,,,,,,,,,,conditions/schedules/train_y_first/blue_star_00/bottom_left/instructions/Slide16.png,conditions/schedules/train_y_first/blue_star_00/bottom_left/instructions/Audio16.wav,844.7746570000309,844.773817600013,16,"[3.986874900001567, 18.83242250001058, 16.571652800019365, 19.036494500003755, 3.9837638000026345, 4.468191000050865, 5.102819399966393, 11.671788599982392, 5.734048999962397, 6.816827300004661, 10.12000390002504, 13.59037630003877, 17.349157500022557, 17.157934799965005, 42.746041400008835, 22.948856400034856]","[0.0002204999909736216, 0.01414060004753992, 16.571660100016743, 0.030068800027947873, 0.047286300046835095, 0.06509859999641776, 0.04634419997455552, 0.02988260000711307, 0.047273000003769994, 0.06113940000068396, 0.04601760004879907, 13.590383900038432, 0.03054479998536408, 17.157942299963906, 0.0638044000370428, 22.948863600031473]",0,,,,,,,,,,,,,,,,,,,,,,,,,,,,,,,,,,,,,,,,,,,,,,,,,,,,,,,,,,,,,,,,,,,,,,,,,,,,,,,,,,,,,,,,,,,,,,,,,,,,,,,,,,,,,,,,,,,,,,,,,,,,EXDRFV,train_y,blue_star,bottom_left,2025-05-19_16h34.07.185,HideSeek_v1,2022.2.5,59.976705044936466,
,0,0,0,4,0,4,65,,train_dim1_1,1,30,,,,2,0,2,0,,,,,,,,,0,0,0,0,0,0,0,0,0,0,0,0,,,,,,,,,,,,,,,,,,,,,,,,,stimuli/alien_stimuli/65.png,,,,,,,,,,,,,,,,,,,,,,,,,,,,,,,,,,,,,,,30,,,,,,,,867.8268359000213,867.8268359000213,867.8268359000213,867.8268359000213,867.8268359000213,up,11.136870299989823,0,0,0,99,-0.16,-0.32,up,11.030859599995892,,,,,,,,,,,,,,,,,,,,,,,,,,,,,,,,,,,,,,,,,,,,,,,,,,,,,,,,,,,,EXDRFV,train_y,blue_star,bottom_left,2025-05-19_16h34.07.185,HideSeek_v1,2022.2.5,59.976705044936466,
,0,0,0,4,0,4,65,,train_dim1_1,1,30,,,,2,0,2,0,,,,,,,,,0,0,0,0,0,0,0,0,1,0,1,0,,,,,,,,,,,,,,,,,,,,,,,,,,,,,,,,,,,,,,,,,,,,,,,,,,,,,,,,,,,,,,,,30,,,,,,,,878.9660801000427,878.9660801000427,878.9660801000427,878.9660801000427,878.9660801000427,up,0.6747681999695487,0,0,0,99,-0.16,-0.24,up,0.573792000010144,,,,,,,,,,,,,,,,,,,,,,,,,,,,,,,,,,,,,,,,,,,,,,,,,,,,,,,,,,,,EXDRFV,train_y,blue_star,bottom_left,2025-05-19_16h34.07.185,HideSeek_v1,2022.2.5,59.976705044936466,
,0,0,0,4,0,4,65,,train_dim1_1,1,30,,,,2,0,2,0,,,,,,,,,0,0,0,0,0,0,0,0,2,0,2,0,,,,,,,,,,,,,,,,,,,,,,,,,,,,,,,,,,,,,,,,,,,,,,,,,,,,,,,,,,,,,,,,30,,,,,,,,879.6337091000169,879.6337091000169,879.6337091000169,879.6337091000169,879.6337091000169,up,0.5764857999747619,0,0,0,99,-0.16,-0.15999999999999998,up,0.4926689999992959,,,,,,,,,,,,,,,,,,,,,,,,,,,,,,,,,,,,,,,,,,,,,,,,,,,,,,,,,,,,EXDRFV,train_y,blue_star,bottom_left,2025-05-19_16h34.07.185,HideSeek_v1,2022.2.5,59.976705044936466,
,0,0,0,4,0,4,65,,train_dim1_1,1,30,,,,2,0,2,0,,,,,,,,,0,0,0,0,0,0,0,0,3,0,3,0,,,,,,,,,,,,,,,,,,,,,,,,,,,,,,,,,,,,,,,,,,,,,,,,,,,,,,,,,,,,,,,,30,,,,,,,,880.2162333000451,880.2162333000451,880.2162333000451,880.2162333000451,880.2162333000451,up,0.4933272000052966,0,0,0,99,-0.16,-0.07999999999999997,up,0.4157890999922529,,,,,,,,,,,,,,,,,,,,,,,,,,,,,,,,,,,,,,,,,,,,,,,,,,,,,,,,,,,,EXDRFV,train_y,blue_star,bottom_left,2025-05-19_16h34.07.185,HideSeek_v1,2022.2.5,59.976705044936466,
,0,0,0,4,0,4,65,,train_dim1_1,1,30,,,,2,0,2,0,,,,,,,,,0,0,0,0,0,0,0,0,4,0,4,0,,,,,,,,,,,,,,,,,,,,,,,,,,,,,,,,,,,,,,,,,,,,,,,,,,,,,,,,,,,,,,,,30,,,,,,,,880.7165356000187,880.7165356000187,880.7165356000187,880.7165356000187,880.7165356000187,up,0.5096837999881245,0,0,0,99,-0.16,2.7755575615628914e-17,up,0.4355421999935061,,,,,,,,,,,,,,,,,,,,,,,,,,,,,,,,,,,,,,,,,,,,,,,,,,,,,,,,,,,,EXDRFV,train_y,blue_star,bottom_left,2025-05-19_16h34.07.185,HideSeek_v1,2022.2.5,59.976705044936466,
,0,0,0,4,0,4,65,,train_dim1_1,1,30,,,,2,0,2,0,,,,,,,,,0,0,0,0,0,0,0,0,5,0,5,0,,,,,,,,,,,,,,,,,,,,,,,,,,,,,,,,,,,,,,,,,,,,,,,,,,,,,,,,,,,,,,,,30,,,,,,,,881.2338506000233,881.2338506000233,881.2338506000233,881.2338506000233,881.2338506000233,return,0.9600598000106402,0,1,0,0,-0.16,2.7755575615628914e-17,return,0.8792386000277475,5,0,-0.16,2.7755575615628914e-17,,,,,,,,,,,,,,,,,,,,,,,,,,,,,,,,,,,,,,,,,,,,,,,,,,,,,,,,EXDRFV,train_y,blue_star,bottom_left,2025-05-19_16h34.07.185,HideSeek_v1,2022.2.5,59.976705044936466,
,3,2,3,7,0,5,66,,train_dim1_1,2,30,,,,2,0,2,0,,,,,,,,,0,0,0,0,0,1,1,1,0,0,0,0,,,,,,,,,,,,,,,,,,,,,,,,,stimuli/alien_stimuli/66.png,,,,,,,,,,,,,,,,,,,,,,,,,,,,,stimuli/alien_stimuli/65.png,65,0,3,,,,,,,30,,,,,,,,908.0470937000355,908.0470937000355,908.0470937000355,908.0470937000355,908.0470937000355,up,7.10951009998098,0,1,0,99,0.08,-0.15999999999999998,up,7.015461799979676,,,,,906.4746646000422,908.0470937000355,-0.16,-0.08,0.32,0.0,-0.24000000000000002,-0.16,-0.16,-0.16,-0.08,883.7680911000352,883.7680911000352,883.7680911000352,883.7680911000352,883.7680911000352,883.7680911000352,883.7680911000352,883.7680911000352,883.75609045999,22.82116180000594,return,22.687526100024115,,,,,,,,,,,,,,,,,,,,,,,,,,,,,,,,,EXDRFV,train_y,blue_star,bottom_left,2025-05-19_16h34.07.185,HideSeek_v1,2022.2.5,59.976705044936466,
,3,2,3,7,0,5,66,,train_dim1_1,2,30,,,,2,0,2,0,,,,,,,,,0,0,0,0,0,1,1,1,1,0,1,0,,,,,,,,,,,,,,,,,,,,,,,,,,,,,,,,,,,,,,,,,,,,,,,,,,,,,,,,,,,,,,,,30,,,,,,,,915.1618616000051,915.1618616000051,915.1618616000051,915.1618616000051,915.1618616000051,up,0.7081700999988243,0,1,0,99,0.08,-0.07999999999999997,up,0.6145506000029854,,,,,,,,,,,,,,,,,,,,,,,,,,,,,,,,,,,,,,,,,,,,,,,,,,,,,,,,,,,,EXDRFV,train_y,blue_star,bottom_left,2025-05-19_16h34.07.185,HideSeek_v1,2022.2.5,59.976705044936466,
,3,2,3,7,0,5,66,,train_dim1_1,2,30,,,,2,0,2,0,,,,,,,,,0,0,0,0,0,1,1,1,2,0,2,0,,,,,,,,,,,,,,,,,,,,,,,,,,,,,,,,,,,,,,,,,,,,,,,,,,,,,,,,,,,,,,,,30,,,,,,,,915.8630948000355,915.8630948000355,915.8630948000355,915.8630948000355,915.8630948000355,up,0.6932096999953501,0,1,0,99,0.08,2.7755575615628914e-17,up,0.6155297000077553,,,,,,,,,,,,,,,,,,,,,,,,,,,,,,,,,,,,,,,,,,,,,,,,,,,,,,,,,,,,EXDRFV,train_y,blue_star,bottom_left,2025-05-19_16h34.07.185,HideSeek_v1,2022.2.5,59.976705044936466,
,3,2,3,7,0,5,66,,train_dim1_1,2,30,,,,2,0,2,0,,,,,,,,,0,0,0,0,0,1,1,1,3,0,3,0,,,,,,,,,,,,,,,,,,,,,,,,,,,,,,,,,,,,,,,,,,,,,,,,,,,,,,,,,,,,,,,,30,,,,,,,,916.5634964000201,916.5634964000201,916.5634964000201,916.5634964000201,916.5634964000201,return,1.409979399992153,0,0,0,0,0.08,2.7755575615628914e-17,return,1.3242075000307523,8,0,0.08,2.7755575615628914e-17,,,,,,,,,,,,,,,,,,,,,,,,,,,,,,,,,,,,,,,,,,,,,,,,,,,,,,,,EXDRFV,train_y,blue_star,bottom_left,2025-05-19_16h34.07.185,HideSeek_v1,2022.2.5,59.976705044936466,
,2,3,2,6,0,3,64,,train_dim1_1,3,30,,,,2,0,2,0,,,,,,,,,0,0,0,0,0,2,2,2,0,0,0,0,,,,,,,,,,,,,,,,,,,,,,,,,stimuli/alien_stimuli/64.png,,,,,,,,,,,,,,,,,,,,,,,,,,,,,stimuli/alien_stimuli/66.png,66,3,4,,,,,,,30,,,,,,,,941.0990019000019,941.0990019000019,941.0990019000019,941.0990019000019,941.0990019000019,up,4.474185500002932,0,0,0,99,0,-0.08,up,4.387361500004772,,,,,939.5355363000417,941.0990019000019,0.08,0.16,0.4,0.0,-0.039999999999999994,0.08,0.08,0.08,0.16,919.5463575000176,919.5463575000176,919.5463575000176,919.5463575000176,919.5463575000176,919.5463575000176,919.5463575000176,919.5463575000176,919.5358603600121,20.102500300039537,return,19.973551900009625,,,,,,,,,,,,,,,,,,,,,,,,,,,,,,,,,EXDRFV,train_y,blue_star,bottom_left,2025-05-19_16h34.07.185,HideSeek_v1,2022.2.5,59.976705044936466,
,2,3,2,6,0,3,64,,train_dim1_1,3,30,,,,2,0,2,0,,,,,,,,,0,0,0,0,0,2,2,2,1,0,1,0,,,,,,,,,,,,,,,,,,,,,,,,,,,,,,,,,,,,,,,,,,,,,,,,,,,,,,,,,,,,,,,,30,,,,,,,,945.5705543000367,945.5705543000367,945.5705543000367,945.5705543000367,945.5705543000367,up,0.7259965999983251,0,0,0,99,0,0.0,up,0.6397063999902457,,,,,,,,,,,,,,,,,,,,,,,,,,,,,,,,,,,,,,,,,,,,,,,,,,,,,,,,,,,,EXDRFV,train_y,blue_star,bottom_left,2025-05-19_16h34.07.185,HideSeek_v1,2022.2.5,59.976705044936466,
,2,3,2,6,0,3,64,,train_dim1_1,3,30,,,,2,0,2,0,,,,,,,,,0,0,0,0,0,2,2,2,2,0,2,0,,,,,,,,,,,,,,,,,,,,,,,,,,,,,,,,,,,,,,,,,,,,,,,,,,,,,,,,,,,,,,,,30,,,,,,,,946.3035279000178,946.3035279000178,946.3035279000178,946.3035279000178,946.3035279000178,up,0.8269412000081502,0,0,0,99,0,0.08,up,0.7479997000191361,,,,,,,,,,,,,,,,,,,,,,,,,,,,,,,,,,,,,,,,,,,,,,,,,,,,,,,,,,,,EXDRFV,train_y,blue_star,bottom_left,2025-05-19_16h34.07.185,HideSeek_v1,2022.2.5,59.976705044936466,
,2,3,2,6,0,3,64,,train_dim1_1,3,30,,,,2,0,2,0,,,,,,,,,0,0,0,0,0,2,2,2,3,0,3,0,,,,,,,,,,,,,,,,,,,,,,,,,,,,,,,,,,,,,,,,,,,,,,,,,,,,,,,,,,,,,,,,30,,,,,,,,947.137669400021,947.137669400021,947.137669400021,947.137669400021,947.137669400021,return,5.4971589999622665,1,0,0,1,0,0.08,return,5.422326200001407,11,0,0,0.08,,,,,,,,,,,,,,,,,,,,,,,,,,,,,,,,,,,,,,,,,,,,,,,,,,,,,,,,EXDRFV,train_y,blue_star,bottom_left,2025-05-19_16h34.07.185,HideSeek_v1,2022.2.5,59.976705044936466,
,0,1,0,2,0,1,62,,train_dim1_1,4,30,,,,2,0,2,0,,,,,,,,,0,0,0,0,0,3,3,3,0,0,0,0,,,,,,,,,,,,,,,,,,,,,,,,,stimuli/alien_stimuli/62.png,,,,,,,,,,,,,,,,,,,,,,,,,,,,,stimuli/alien_stimuli/64.png,64,2,5,,,,,,,30,,,,,,,,963.4574017000268,963.4574017000268,963.4574017000268,963.4574017000268,963.4574017000268,return,4.509846500004642,1,1,0,0,-0.16,-0.32,return,4.425372400030028,11,0,-0.16,-0.32,961.9041817000252,963.4574017000268,0,0.08,0.24,0.0,-0.04,0,0.0,0,0.08,954.2259187000454,954.2259187000454,954.2259187000454,954.2259187000454,954.2259187000454,954.2259187000454,954.2259187000454,954.2259187000454,954.2144376399577,7.808717500010971,return,7.647380299982615,,,,,,,,,,,,,,,,,,,,,,,,,,,,,,,,,EXDRFV,train_y,blue_star,bottom_left,2025-05-19_16h34.07.185,HideSeek_v1,2022.2.5,59.976705044936466,
,3,3,3,3,0,0,61,,train_dim1_1,5,30,,,,2,0,2,0,,,,,,,,,0,0,0,0,0,4,4,4,0,0,0,0,,,,,,,,,,,,,,,,,,,,,,,,,stimuli/alien_stimuli/61.png,,,,,,,,,,,,,,,,,,,,,,,,,,,,,stimuli/alien_stimuli/62.png,62,0,6,,,,,,,30,,,,,,,,977.9893611000152,977.9893611000152,977.9893611000152,977.9893611000152,977.9893611000152,return,5.305417500028852,2,0,0,1,0.08,-0.16,return,5.23077349999221,11,0,0.08,-0.16,976.4327500000363,977.9893611000152,-0.16,-0.24,0.08,0.0,-0.28,-0.16,-0.16,-0.16,-0.24,969.5478698000079,969.5478698000079,969.5478698000079,969.5478698000079,969.5478698000079,969.5478698000079,969.5478698000079,969.5478698000079,969.5451694399584,7.005293900030665,return,6.863579500000924,,,,,,,,,,,,,,,,,,,,,,,,,,,,,,,,,EXDRFV,train_y,blue_star,bottom_left,2025-05-19_16h34.07.185,HideSeek_v1,2022.2.5,59.976705044936466,
,1,4,1,5,0,1,62,,train_dim1_1,6,30,,,,2,0,2,0,,,,,,,,,0,0,0,0,0,5,5,5,0,0,0,0,,,,,,,,,,,,,,,,,,,,,,,,,stimuli/alien_stimuli/62.png,,,,,,,,,,,,,,,,,,,,,,,,,,,,,stimuli/alien_stimuli/61.png,61,3,7,,,,,,,30,,,,,,,,989.8968804000178,989.8968804000178,989.8968804000178,989.8968804000178,989.8968804000178,up,2.7562112000305206,2,0,0,99,-0.08,0.0,up,2.6798498000134714,,,,,988.3430134000373,989.8968804000178,0.08,-0.16,0.0,0.0,-0.16,0.08,0.08,0.08,-0.16,984.8664931000094,984.8664931000094,984.8664931000094,984.8664931000094,984.8664931000094,984.8664931000094,984.8664931000094,984.8664931000094,984.8566869599686,3.5878578000119887,return,3.44833430001745,,,,,,,,,,,,,,,,,,,,,,,,,,,,,,,,,EXDRFV,train_y,blue_star,bottom_left,2025-05-19_16h34.07.185,HideSeek_v1,2022.2.5,59.976705044936466,
,1,4,1,5,0,1,62,,train_dim1_1,6,30,,,,2,0,2,0,,,,,,,,,0,0,0,0,0,5,5,5,1,0,1,0,,,,,,,,,,,,,,,,,,,,,,,,,,,,,,,,,,,,,,,,,,,,,,,,,,,,,,,,,,,,,,,,30,,,,,,,,992.6606108000269,992.6606108000269,992.6606108000269,992.6606108000269,992.6606108000269,return,1.2264854999957606,3,0,0,1,-0.08,0.0,return,1.1402373000164516,12,0,-0.08,0.0,,,,,,,,,,,,,,,,,,,,,,,,,,,,,,,,,,,,,,,,,,,,,,,,,,,,,,,,EXDRFV,train_y,blue_star,bottom_left,2025-05-19_16h34.07.185,HideSeek_v1,2022.2.5,59.976705044936466,
,1,3,1,6,0,3,64,,train_dim1_1,7,30,,,,2,0,2,0,,,,,,,,,0,0,0,0,0,6,6,6,0,0,0,0,,,,,,,,,,,,,,,,,,,,,,,,,stimuli/alien_stimuli/64.png,,,,,,,,,,,,,,,,,,,,,,,,,,,,,stimuli/alien_stimuli/62.png,62,1,8,,,,,,,30,,,,,,,,998.6893669000128,998.6893669000128,998.6893669000128,998.6893669000128,998.6893669000128,up,2.0030162000330165,3,0,0,99,-0.08,-0.08,up,1.9177629000041634,,,,,997.1331742000184,998.6893669000128,-0.08,0,0.08,0.0,-0.04,-0.08,-0.08,-0.08,0,995.4587170000304,995.4587170000304,995.4587170000304,995.4587170000304,995.4587170000304,995.4587170000304,995.4587170000304,995.4587170000304,995.4487212600011,1.7864922999870032,return,1.6522563999751583,,,,,,,,,,,,,,,,,,,,,,,,,,,,,,,,,EXDRFV,train_y,blue_star,bottom_left,2025-05-19_16h34.07.185,HideSeek_v1,2022.2.5,59.976705044936466,
,1,3,1,6,0,3,64,,train_dim1_1,7,30,,,,2,0,2,0,,,,,,,,,0,0,0,0,0,6,6,6,1,0,1,0,,,,,,,,,,,,,,,,,,,,,,,,,,,,,,,,,,,,,,,,,,,,,,,,,,,,,,,,,,,,,,,,30,,,,,,,,1000.6990519000101,1000.6990519000101,1000.6990519000101,1000.6990519000101,1000.6990519000101,up,1.0268033999600448,3,0,0,99,-0.08,0.0,up,0.9519853999954648,,,,,,,,,,,,,,,,,,,,,,,,,,,,,,,,,,,,,,,,,,,,,,,,,,,,,,,,,,,,EXDRFV,train_y,blue_star,bottom_left,2025-05-19_16h34.07.185,HideSeek_v1,2022.2.5,59.976705044936466,
,1,3,1,6,0,3,64,,train_dim1_1,7,30,,,,2,0,2,0,,,,,,,,,0,0,0,0,0,6,6,6,2,0,2,0,,,,,,,,,,,,,,,,,,,,,,,,,,,,,,,,,,,,,,,,,,,,,,,,,,,,,,,,,,,,,,,,30,,,,,,,,1001.7337317000492,1001.7337317000492,1001.7337317000492,1001.7337317000492,1001.7337317000492,up,0.9603902000235394,3,0,0,99,-0.08,0.08,up,0.8781805000035092,,,,,,,,,,,,,,,,,,,,,,,,,,,,,,,,,,,,,,,,,,,,,,,,,,,,,,,,,,,,EXDRFV,train_y,blue_star,bottom_left,2025-05-19_16h34.07.185,HideSeek_v1,2022.2.5,59.976705044936466,
,1,3,1,6,0,3,64,,train_dim1_1,7,30,,,,2,0,2,0,,,,,,,,,0,0,0,0,0,6,6,6,3,0,3,0,,,,,,,,,,,,,,,,,,,,,,,,,,,,,,,,,,,,,,,,,,,,,,,,,,,,,,,,,,,,,,,,30,,,,,,,,1002.7019813000225,1002.7019813000225,1002.7019813000225,1002.7019813000225,1002.7019813000225,return,1.0924093999783508,4,0,0,1,-0.08,0.08,return,1.0152021999820136,15,0,-0.08,0.08,,,,,,,,,,,,,,,,,,,,,,,,,,,,,,,,,,,,,,,,,,,,,,,,,,,,,,,,EXDRFV,train_y,blue_star,bottom_left,2025-05-19_16h34.07.185,HideSeek_v1,2022.2.5,59.976705044936466,
,4,2,4,2,0,0,61,,train_dim1_1,8,30,,,,2,0,2,0,,,,,,,,,0,0,0,0,0,7,7,7,0,0,0,0,,,,,,,,,,,,,,,,,,,,,,,,,stimuli/alien_stimuli/61.png,,,,,,,,,,,,,,,,,,,,,,,,,,,,,stimuli/alien_stimuli/64.png,64,1,9,,,,,,,30,,,,,,,,1008.2966716000228,1008.2966716000228,1008.2966716000228,1008.2966716000228,1008.2966716000228,return,2.387432700023055,5,0,0,1,0.16,-0.24,return,2.3149181999615394,15,0,0.16,-0.24,1006.741354800004,1008.2966716000228,-0.08,0.08,0.24,0.0,-0.04,-0.08,-0.08,-0.08,0.08,1005.3664788000169,1005.3664788000169,1005.3664788000169,1005.3664788000169,1005.3664788000169,1005.3664788000169,1005.3664788000169,1005.3664788000169,1005.3568759600107,1.4868943000328727,return,1.3560621999786235,,,,,,,,,,,,,,,,,,,,,,,,,,,,,,,,,EXDRFV,train_y,blue_star,bottom_left,2025-05-19_16h34.07.185,HideSeek_v1,2022.2.5,59.976705044936466,
,4,3,4,7,0,4,65,,train_dim1_1,9,30,,,,2,0,2,0,,,,,,,,,0,0,0,0,0,8,8,8,0,0,0,0,,,,,,,,,,,,,,,,,,,,,,,,,stimuli/alien_stimuli/65.png,,,,,,,,,,,,,,,,,,,,,,,,,,,,,stimuli/alien_stimuli/61.png,61,4,10,,,,,,,30,,,,,,,,1015.3491404000088,1015.3491404000088,1015.3491404000088,1015.3491404000088,1015.3491404000088,up,1.3217047000071034,5,0,0,99,0.16,-0.08,up,1.2486821999773383,,,,,1013.7970493000466,1015.3491404000088,0.16,-0.24,0.0,0.0,-0.24,0.16,0.16,0.16,-0.24,1012.2395350000006,1012.2395350000006,1012.2395350000006,1012.2395350000006,1012.2395350000006,1012.2395350000006,1012.2395350000006,1012.2395350000006,1012.229475079989,1.6532997000031173,return,1.5259185999748297,,,,,,,,,,,,,,,,,,,,,,,,,,,,,,,,,EXDRFV,train_y,blue_star,bottom_left,2025-05-19_16h34.07.185,HideSeek_v1,2022.2.5,59.976705044936466,
,4,3,4,7,0,4,65,,train_dim1_1,9,30,,,,2,0,2,0,,,,,,,,,0,0,0,0,0,8,8,8,1,0,1,0,,,,,,,,,,,,,,,,,,,,,,,,,,,,,,,,,,,,,,,,,,,,,,,,,,,,,,,,,,,,,,,,30,,,,,,,,1016.6829379000119,1016.6829379000119,1016.6829379000119,1016.6829379000119,1016.6829379000119,up,0.6068296000012197,5,0,0,99,0.16,0.0,up,0.5291497000143863,,,,,,,,,,,,,,,,,,,,,,,,,,,,,,,,,,,,,,,,,,,,,,,,,,,,,,,,,,,,EXDRFV,train_y,blue_star,bottom_left,2025-05-19_16h34.07.185,HideSeek_v1,2022.2.5,59.976705044936466,
,4,3,4,7,0,4,65,,train_dim1_1,9,30,,,,2,0,2,0,,,,,,,,,0,0,0,0,0,8,8,8,2,0,2,0,,,,,,,,,,,,,,,,,,,,,,,,,,,,,,,,,,,,,,,,,,,,,,,,,,,,,,,,,,,,,,,,30,,,,,,,,1017.2964870000142,1017.2964870000142,1017.2964870000142,1017.2964870000142,1017.2964870000142,up,0.5435315000358969,5,0,0,99,0.16,0.08,up,0.4705350000294857,,,,,,,,,,,,,,,,,,,,,,,,,,,,,,,,,,,,,,,,,,,,,,,,,,,,,,,,,,,,EXDRFV,train_y,blue_star,bottom_left,2025-05-19_16h34.07.185,HideSeek_v1,2022.2.5,59.976705044936466,
,4,3,4,7,0,4,65,,train_dim1_1,9,30,,,,2,0,2,0,,,,,,,,,0,0,0,0,0,8,8,8,3,0,3,0,,,,,,,,,,,,,,,,,,,,,,,,,,,,,,,,,,,,,,,,,,,,,,,,,,,,,,,,,,,,,,,,30,,,,,,,,1017.846839100006,1017.846839100006,1017.846839100006,1017.846839100006,1017.846839100006,up,0.8266429999493994,5,0,0,99,0.16,0.16,up,0.7471816000179388,,,,,,,,,,,,,,,,,,,,,,,,,,,,,,,,,,,,,,,,,,,,,,,,,,,,,,,,,,,,EXDRFV,train_y,blue_star,bottom_left,2025-05-19_16h34.07.185,HideSeek_v1,2022.2.5,59.976705044936466,
,4,3,4,7,0,4,65,,train_dim1_1,9,30,,,,2,0,2,0,,,,,,,,,0,0,0,0,0,8,8,8,4,0,4,0,,,,,,,,,,,,,,,,,,,,,,,,,,,,,,,,,,,,,,,,,,,,,,,,,,,,,,,,,,,,,,,,30,,,,,,,,1018.6804632000276,1018.6804632000276,1018.6804632000276,1018.6804632000276,1018.6804632000276,return,1.460818699968513,6,0,0,1,0.16,0.16,return,1.3813083000131883,19,0,0.16,0.16,,,,,,,,,,,,,,,,,,,,,,,,,,,,,,,,,,,,,,,,,,,,,,,,,,,,,,,,EXDRFV,train_y,blue_star,bottom_left,2025-05-19_16h34.07.185,HideSeek_v1,2022.2.5,59.976705044936466,
,2,2,2,7,0,5,66,,train_dim1_1,10,30,,,,2,0,2,0,,,,,,,,,0,0,0,0,0,9,9,9,0,0,0,0,,,,,,,,,,,,,,,,,,,,,,,,,stimuli/alien_stimuli/66.png,,,,,,,,,,,,,,,,,,,,,,,,,,,,,stimuli/alien_stimuli/65.png,65,4,11,,,,,,,30,,,,,,,,1024.608842400019,1024.608842400019,1024.608842400019,1024.608842400019,1024.608842400019,up,1.9549486000323668,6,0,0,99,0,-0.15999999999999998,up,1.872650799981784,,,,,1023.0550646000193,1024.608842400019,0.16,0.16,0.32,0.0,0.0,0.16,0.16,0.16,0.16,1021.6915482000331,1021.6915482000331,1021.6915482000331,1021.6915482000331,1021.6915482000331,1021.6915482000331,1021.6915482000331,1021.6915482000331,1021.6871954799979,1.4543066999758594,return,1.3467914999928325,,,,,,,,,,,,,,,,,,,,,,,,,,,,,,,,,EXDRFV,train_y,blue_star,bottom_left,2025-05-19_16h34.07.185,HideSeek_v1,2022.2.5,59.976705044936466,
,2,2,2,7,0,5,66,,train_dim1_1,10,30,,,,2,0,2,0,,,,,,,,,0,0,0,0,0,9,9,9,1,0,1,0,,,,,,,,,,,,,,,,,,,,,,,,,,,,,,,,,,,,,,,,,,,,,,,,,,,,,,,,,,,,,,,,30,,,,,,,,1026.5706695000408,1026.5706695000408,1026.5706695000408,1026.5706695000408,1026.5706695000408,up,0.6429680999717675,6,0,0,99,0,-0.07999999999999997,up,0.5576094000134617,,,,,,,,,,,,,,,,,,,,,,,,,,,,,,,,,,,,,,,,,,,,,,,,,,,,,,,,,,,,EXDRFV,train_y,blue_star,bottom_left,2025-05-19_16h34.07.185,HideSeek_v1,2022.2.5,59.976705044936466,
,2,2,2,7,0,5,66,,train_dim1_1,10,30,,,,2,0,2,0,,,,,,,,,0,0,0,0,0,9,9,9,2,0,2,0,,,,,,,,,,,,,,,,,,,,,,,,,,,,,,,,,,,,,,,,,,,,,,,,,,,,,,,,,,,,,,,,30,,,,,,,,1027.2214489000035,1027.2214489000035,1027.2214489000035,1027.2214489000035,1027.2214489000035,up,0.6931705000461079,6,0,0,99,0,2.7755575615628914e-17,up,0.6159486999968067,,,,,,,,,,,,,,,,,,,,,,,,,,,,,,,,,,,,,,,,,,,,,,,,,,,,,,,,,,,,EXDRFV,train_y,blue_star,bottom_left,2025-05-19_16h34.07.185,HideSeek_v1,2022.2.5,59.976705044936466,
,2,2,2,7,0,5,66,,train_dim1_1,10,30,,,,2,0,2,0,,,,,,,,,0,0,0,0,0,9,9,9,3,0,3,0,,,,,,,,,,,,,,,,,,,,,,,,,,,,,,,,,,,,,,,,,,,,,,,,,,,,,,,,,,,,,,,,30,,,,,,,,1027.9240098000155,1027.9240098000155,1027.9240098000155,1027.9240098000155,1027.9240098000155,up,0.8080592000042088,6,0,0,99,0,0.08000000000000003,up,0.7319933000253513,,,,,,,,,,,,,,,,,,,,,,,,,,,,,,,,,,,,,,,,,,,,,,,,,,,,,,,,,,,,EXDRFV,train_y,blue_star,bottom_left,2025-05-19_16h34.07.185,HideSeek_v1,2022.2.5,59.976705044936466,
,2,2,2,7,0,5,66,,train_dim1_1,10,30,,,,2,0,2,0,,,,,,,,,0,0,0,0,0,9,9,9,4,0,4,0,,,,,,,,,,,,,,,,,,,,,,,,,,,,,,,,,,,,,,,,,,,,,,,,,,,,,,,,,,,,,,,,30,,,,,,,,1028.7389769000001,1028.7389769000001,1028.7389769000001,1028.7389769000001,1028.7389769000001,up,2.244525699992664,6,0,0,99,0,0.16000000000000003,up,2.1637937999912538,,,,,,,,,,,,,,,,,,,,,,,,,,,,,,,,,,,,,,,,,,,,,,,,,,,,,,,,,,,,EXDRFV,train_y,blue_star,bottom_left,2025-05-19_16h34.07.185,HideSeek_v1,2022.2.5,59.976705044936466,
,2,2,2,7,0,5,66,,train_dim1_1,10,30,,,,2,0,2,0,,,,,,,,,0,0,0,0,0,9,9,9,5,0,5,0,,,,,,,,,,,,,,,,,,,,,,,,,,,,,,,,,,,,,,,,,,,,,,,,,,,,,,,,,,,,,,,,30,,,,,,,,1030.9914006000035,1030.9914006000035,1030.9914006000035,1030.9914006000035,1030.9914006000035,return,0.6262082000030205,7,0,0,1,0,0.16000000000000003,return,0.5494935999740846,24,0,0,0.16000000000000003,,,,,,,,,,,,,,,,,,,,,,,,,,,,,,,,,,,,,,,,,,,,,,,,,,,,,,,,EXDRFV,train_y,blue_star,bottom_left,2025-05-19_16h34.07.185,HideSeek_v1,2022.2.5,59.976705044936466,
,4,1,4,5,0,4,65,,train_dim1_1,11,30,,,,2,0,2,0,,,,,,,,,0,0,0,0,0,10,10,10,0,0,0,0,,,,,,,,,,,,,,,,,,,,,,,,,stimuli/alien_stimuli/65.png,,,,,,,,,,,,,,,,,,,,,,,,,,,,,stimuli/alien_stimuli/66.png,66,2,12,,,,,,,30,,,,,,,,1036.1832423000014,1036.1832423000014,1036.1832423000014,1036.1832423000014,1036.1832423000014,up,1.4233541000285186,7,0,0,99,0.16,-0.24,up,1.3383284999872558,,,,,1034.6312506000395,1036.1832423000014,0,0.16,0.4,0.0,-0.039999999999999994,0,0.0,0,0.16,1033.1858282000176,1033.1858282000176,1033.1858282000176,1033.1858282000176,1033.1858282000176,1033.1858282000176,1033.1858282000176,1033.1858282000176,1033.1802022599672,1.55333059997065,return,1.4194321999675594,,,,,,,,,,,,,,,,,,,,,,,,,,,,,,,,,EXDRFV,train_y,blue_star,bottom_left,2025-05-19_16h34.07.185,HideSeek_v1,2022.2.5,59.976705044936466,
,4,1,4,5,0,4,65,,train_dim1_1,11,30,,,,2,0,2,0,,,,,,,,,0,0,0,0,0,10,10,10,1,0,1,0,,,,,,,,,,,,,,,,,,,,,,,,,,,,,,,,,,,,,,,,,,,,,,,,,,,,,,,,,,,,,,,,30,,,,,,,,1037.6138925999985,1037.6138925999985,1037.6138925999985,1037.6138925999985,1037.6138925999985,up,0.4759563999832608,7,0,0,99,0.16,-0.15999999999999998,up,0.40328110003611073,,,,,,,,,,,,,,,,,,,,,,,,,,,,,,,,,,,,,,,,,,,,,,,,,,,,,,,,,,,,EXDRFV,train_y,blue_star,bottom_left,2025-05-19_16h34.07.185,HideSeek_v1,2022.2.5,59.976705044936466,
,4,1,4,5,0,4,65,,train_dim1_1,11,30,,,,2,0,2,0,,,,,,,,,0,0,0,0,0,10,10,10,2,0,2,0,,,,,,,,,,,,,,,,,,,,,,,,,,,,,,,,,,,,,,,,,,,,,,,,,,,,,,,,,,,,,,,,30,,,,,,,,1038.0967595000402,1038.0967595000402,1038.0967595000402,1038.0967595000402,1038.0967595000402,up,0.5097046000300907,7,0,0,99,0.16,-0.07999999999999997,up,0.4306304000201635,,,,,,,,,,,,,,,,,,,,,,,,,,,,,,,,,,,,,,,,,,,,,,,,,,,,,,,,,,,,EXDRFV,train_y,blue_star,bottom_left,2025-05-19_16h34.07.185,HideSeek_v1,2022.2.5,59.976705044936466,
,4,1,4,5,0,4,65,,train_dim1_1,11,30,,,,2,0,2,0,,,,,,,,,0,0,0,0,0,10,10,10,3,0,3,0,,,,,,,,,,,,,,,,,,,,,,,,,,,,,,,,,,,,,,,,,,,,,,,,,,,,,,,,,,,,,,,,30,,,,,,,,1038.6145165000344,1038.6145165000344,1038.6145165000344,1038.6145165000344,1038.6145165000344,up,0.5596143999719061,7,0,0,99,0.16,2.7755575615628914e-17,up,0.479581399995368,,,,,,,,,,,,,,,,,,,,,,,,,,,,,,,,,,,,,,,,,,,,,,,,,,,,,,,,,,,,EXDRFV,train_y,blue_star,bottom_left,2025-05-19_16h34.07.185,HideSeek_v1,2022.2.5,59.976705044936466,
,4,1,4,5,0,4,65,,train_dim1_1,11,30,,,,2,0,2,0,,,,,,,,,0,0,0,0,0,10,10,10,4,0,4,0,,,,,,,,,,,,,,,,,,,,,,,,,,,,,,,,,,,,,,,,,,,,,,,,,,,,,,,,,,,,,,,,30,,,,,,,,1039.1815567000303,1039.1815567000303,1039.1815567000303,1039.1815567000303,1039.1815567000303,return,1.010186999978032,8,0,0,1,0.16,2.7755575615628914e-17,return,0.9328447000007145,28,0,0.16,2.7755575615628914e-17,,,,,,,,,,,,,,,,,,,,,,,,,,,,,,,,,,,,,,,,,,,,,,,,,,,,,,,,EXDRFV,train_y,blue_star,bottom_left,2025-05-19_16h34.07.185,HideSeek_v1,2022.2.5,59.976705044936466,
,0,0,0,0,0,0,61,,train_dim1_1,12,30,,,,2,0,2,0,,,,,,,,,0,0,0,0,0,11,11,11,0,0,0,0,,,,,,,,,,,,,,,,,,,,,,,,,stimuli/alien_stimuli/61.png,,,,,,,,,,,,,,,,,,,,,,,,,,,,,stimuli/alien_stimuli/65.png,65,4,13,,,,,,,30,,,,,,,,1044.2061038000393,1044.2061038000393,1044.2061038000393,1044.2061038000393,1044.2061038000393,return,2.7243552999570966,9,0,0,1,-0.16,-0.4,return,2.6381394999916665,28,0,-0.16,-0.4,1042.6543830000446,1044.2061038000393,0.16,0,0.32,0.0,-0.16,0.16,0.16,0.16,0,1041.743716900004,1041.743716900004,1041.743716900004,1041.743716900004,1041.743716900004,1041.743716900004,1041.743716900004,1041.743716900004,1041.7371280799969,1.0026317000156268,return,0.8794308999786153,,,,,,,,,,,,,,,,,,,,,,,,,,,,,,,,,EXDRFV,train_y,blue_star,bottom_left,2025-05-19_16h34.07.185,HideSeek_v1,2022.2.5,59.976705044936466,
,4,3,4,4,0,1,62,,train_dim1_1,13,30,,,,2,0,2,0,,,,,,,,,0,0,0,0,0,12,12,12,0,0,0,0,,,,,,,,,,,,,,,,,,,,,,,,,stimuli/alien_stimuli/62.png,,,,,,,,,,,,,,,,,,,,,,,,,,,,,stimuli/alien_stimuli/61.png,61,0,14,,,,,,,30,,,,,,,,1051.314274000004,1051.314274000004,1051.314274000004,1051.314274000004,1051.314274000004,up,2.1218671000096947,9,0,0,99,0.16,-0.08,up,2.0484147000242956,,,,,1049.7605198000092,1051.314274000004,-0.16,-0.4,0.0,0.0,-0.4,-0.16,-0.16,-0.16,-0.4,1048.4862749000313,1048.4862749000313,1048.4862749000313,1048.4862749000313,1048.4862749000313,1048.4862749000313,1048.4862749000313,1048.4862749000313,1048.4761602800106,1.3698445999762043,return,1.2441976999980398,,,,,,,,,,,,,,,,,,,,,,,,,,,,,,,,,EXDRFV,train_y,blue_star,bottom_left,2025-05-19_16h34.07.185,HideSeek_v1,2022.2.5,59.976705044936466,
,4,3,4,4,0,1,62,,train_dim1_1,13,30,,,,2,0,2,0,,,,,,,,,0,0,0,0,0,12,12,12,1,0,1,0,,,,,,,,,,,,,,,,,,,,,,,,,,,,,,,,,,,,,,,,,,,,,,,,,,,,,,,,,,,,,,,,30,,,,,,,,1053.4451506000478,1053.4451506000478,1053.4451506000478,1053.4451506000478,1053.4451506000478,return,1.0926030999980867,10,0,0,1,0.16,-0.08,return,1.0187723999843001,29,0,0.16,-0.08,,,,,,,,,,,,,,,,,,,,,,,,,,,,,,,,,,,,,,,,,,,,,,,,,,,,,,,,EXDRFV,train_y,blue_star,bottom_left,2025-05-19_16h34.07.185,HideSeek_v1,2022.2.5,59.976705044936466,
,2,2,2,7,0,5,66,,train_dim1_1,14,30,,,,2,0,2,0,,,,,,,,,0,0,0,0,0,13,13,13,0,0,0,0,,,,,,,,,,,,,,,,,,,,,,,,,stimuli/alien_stimuli/66.png,,,,,,,,,,,,,,,,,,,,,,,,,,,,,stimuli/alien_stimuli/62.png,62,4,15,,,,,,,30,,,,,,,,1058.6364430999965,1058.6364430999965,1058.6364430999965,1058.6364430999965,1058.6364430999965,up,1.672068500018213,10,0,0,99,0,-0.15999999999999998,up,1.5852561999927275,,,,,1057.0833351000329,1058.6364430999965,0.16,-0.08,0.08,0.0,-0.12,0.16,0.16,0.16,-0.08,1056.107557500014,1056.107557500014,1056.107557500014,1056.107557500014,1056.107557500014,1056.107557500014,1056.107557500014,1056.107557500014,1056.0990540599973,1.0860464999568649,return,0.9484832999878563,,,,,,,,,,,,,,,,,,,,,,,,,,,,,,,,,EXDRFV,train_y,blue_star,bottom_left,2025-05-19_16h34.07.185,HideSeek_v1,2022.2.5,59.976705044936466,
,2,2,2,7,0,5,66,,train_dim1_1,14,30,,,,2,0,2,0,,,,,,,,,0,0,0,0,0,13,13,13,1,0,1,0,,,,,,,,,,,,,,,,,,,,,,,,,,,,,,,,,,,,,,,,,,,,,,,,,,,,,,,,,,,,,,,,30,,,,,,,,1060.3157294000266,1060.3157294000266,1060.3157294000266,1060.3157294000266,1060.3157294000266,up,0.5258894999860786,10,0,0,99,0,-0.07999999999999997,up,0.4399078999995254,,,,,,,,,,,,,,,,,,,,,,,,,,,,,,,,,,,,,,,,,,,,,,,,,,,,,,,,,,,,EXDRFV,train_y,blue_star,bottom_left,2025-05-19_16h34.07.185,HideSeek_v1,2022.2.5,59.976705044936466,
,2,2,2,7,0,5,66,,train_dim1_1,14,30,,,,2,0,2,0,,,,,,,,,0,0,0,0,0,13,13,13,2,0,2,0,,,,,,,,,,,,,,,,,,,,,,,,,,,,,,,,,,,,,,,,,,,,,,,,,,,,,,,,,,,,,,,,30,,,,,,,,1060.8495076000108,1060.8495076000108,1060.8495076000108,1060.8495076000108,1060.8495076000108,up,0.47662999999010935,10,0,0,99,0,2.7755575615628914e-17,up,0.3990728000062518,,,,,,,,,,,,,,,,,,,,,,,,,,,,,,,,,,,,,,,,,,,,,,,,,,,,,,,,,,,,EXDRFV,train_y,blue_star,bottom_left,2025-05-19_16h34.07.185,HideSeek_v1,2022.2.5,59.976705044936466,
,2,2,2,7,0,5,66,,train_dim1_1,14,30,,,,2,0,2,0,,,,,,,,,0,0,0,0,0,13,13,13,3,0,3,0,,,,,,,,,,,,,,,,,,,,,,,,,,,,,,,,,,,,,,,,,,,,,,,,,,,,,,,,,,,,,,,,30,,,,,,,,1061.3325452000136,1061.3325452000136,1061.3325452000136,1061.3325452000136,1061.3325452000136,up,0.5096886999672279,10,0,0,99,0,0.08000000000000003,up,0.42547319998266175,,,,,,,,,,,,,,,,,,,,,,,,,,,,,,,,,,,,,,,,,,,,,,,,,,,,,,,,,,,,EXDRFV,train_y,blue_star,bottom_left,2025-05-19_16h34.07.185,HideSeek_v1,2022.2.5,59.976705044936466,
,2,2,2,7,0,5,66,,train_dim1_1,14,30,,,,2,0,2,0,,,,,,,,,0,0,0,0,0,13,13,13,4,0,4,0,,,,,,,,,,,,,,,,,,,,,,,,,,,,,,,,,,,,,,,,,,,,,,,,,,,,,,,,,,,,,,,,30,,,,,,,,1061.8496504000505,1061.8496504000505,1061.8496504000505,1061.8496504000505,1061.8496504000505,up,1.0770245000021532,10,0,0,99,0,0.16000000000000003,up,1.0053526999545284,,,,,,,,,,,,,,,,,,,,,,,,,,,,,,,,,,,,,,,,,,,,,,,,,,,,,,,,,,,,EXDRFV,train_y,blue_star,bottom_left,2025-05-19_16h34.07.185,HideSeek_v1,2022.2.5,59.976705044936466,
,2,2,2,7,0,5,66,,train_dim1_1,14,30,,,,2,0,2,0,,,,,,,,,0,0,0,0,0,13,13,13,5,0,5,0,,,,,,,,,,,,,,,,,,,,,,,,,,,,,,,,,,,,,,,,,,,,,,,,,,,,,,,,,,,,,,,,30,,,,,,,,1062.9352151000057,1062.9352151000057,1062.9352151000057,1062.9352151000057,1062.9352151000057,return,0.7928731000283733,11,0,0,1,0,0.16000000000000003,return,0.7105739000253379,34,0,0,0.16000000000000003,,,,,,,,,,,,,,,,,,,,,,,,,,,,,,,,,,,,,,,,,,,,,,,,,,,,,,,,EXDRFV,train_y,blue_star,bottom_left,2025-05-19_16h34.07.185,HideSeek_v1,2022.2.5,59.976705044936466,
,1,4,1,7,0,3,64,,train_dim1_1,15,30,,,,2,0,2,0,,,,,,,,,0,0,0,0,0,14,14,14,0,0,0,0,,,,,,,,,,,,,,,,,,,,,,,,,stimuli/alien_stimuli/64.png,,,,,,,,,,,,,,,,,,,,,,,,,,,,,stimuli/alien_stimuli/66.png,66,2,16,,,,,,,30,,,,,,,,1067.8586949000019,1067.8586949000019,1067.8586949000019,1067.8586949000019,1067.8586949000019,up,1.2070390000008047,11,0,0,99,-0.08,0.0,up,1.1254331999807619,,,,,1066.3076988999965,1067.8586949000019,0,0.16,0.4,0.0,-0.039999999999999994,0,0.0,0,0.16,1065.2977769999998,1065.2977769999998,1065.2977769999998,1065.2977769999998,1065.2977769999998,1065.2977769999998,1065.2977769999998,1065.2977769999998,1065.2900679599784,1.119643600017298,return,0.9840937000117265,,,,,,,,,,,,,,,,,,,,,,,,,,,,,,,,,EXDRFV,train_y,blue_star,bottom_left,2025-05-19_16h34.07.185,HideSeek_v1,2022.2.5,59.976705044936466,
,1,4,1,7,0,3,64,,train_dim1_1,15,30,,,,2,0,2,0,,,,,,,,,0,0,0,0,0,14,14,14,1,0,1,0,,,,,,,,,,,,,,,,,,,,,,,,,,,,,,,,,,,,,,,,,,,,,,,,,,,,,,,,,,,,,,,,30,,,,,,,,1069.0736533000018,1069.0736533000018,1069.0736533000018,1069.0736533000018,1069.0736533000018,up,0.9424556000158191,11,0,0,99,-0.08,0.08,up,0.8686043999623507,,,,,,,,,,,,,,,,,,,,,,,,,,,,,,,,,,,,,,,,,,,,,,,,,,,,,,,,,,,,EXDRFV,train_y,blue_star,bottom_left,2025-05-19_16h34.07.185,HideSeek_v1,2022.2.5,59.976705044936466,
,1,4,1,7,0,3,64,,train_dim1_1,15,30,,,,2,0,2,0,,,,,,,,,0,0,0,0,0,14,14,14,2,0,2,0,,,,,,,,,,,,,,,,,,,,,,,,,,,,,,,,,,,,,,,,,,,,,,,,,,,,,,,,,,,,,,,,30,,,,,,,,1070.0245279000374,1070.0245279000374,1070.0245279000374,1070.0245279000374,1070.0245279000374,up,1.010129100002814,11,0,0,99,-0.08,0.16,up,0.9375342999701388,,,,,,,,,,,,,,,,,,,,,,,,,,,,,,,,,,,,,,,,,,,,,,,,,,,,,,,,,,,,EXDRFV,train_y,blue_star,bottom_left,2025-05-19_16h34.07.185,HideSeek_v1,2022.2.5,59.976705044936466,
,1,4,1,7,0,3,64,,train_dim1_1,15,30,,,,2,0,2,0,,,,,,,,,0,0,0,0,0,14,14,14,3,0,3,0,,,,,,,,,,,,,,,,,,,,,,,,,,,,,,,,,,,,,,,,,,,,,,,,,,,,,,,,,,,,,,,,30,,,,,,,,1071.040577000007,1071.040577000007,1071.040577000007,1071.040577000007,1071.040577000007,return,3.9459959999658167,12,0,0,1,-0.08,0.16,return,3.859635500004515,37,0,-0.08,0.16,,,,,,,,,,,,,,,,,,,,,,,,,,,,,,,,,,,,,,,,,,,,,,,,,,,,,,,,EXDRFV,train_y,blue_star,bottom_left,2025-05-19_16h34.07.185,HideSeek_v1,2022.2.5,59.976705044936466,
,4,0,4,4,0,4,65,,train_dim1_1,16,30,,,,2,0,2,0,,,,,,,,,0,0,0,0,0,15,15,15,0,0,0,0,,,,,,,,,,,,,,,,,,,,,,,,,stimuli/alien_stimuli/65.png,,,,,,,,,,,,,,,,,,,,,,,,,,,,,stimuli/alien_stimuli/64.png,64,1,17,,,,,,,30,,,,,,,,1079.286207200028,1079.286207200028,1079.286207200028,1079.286207200028,1079.286207200028,up,2.0390751999802887,12,0,0,99,0.16,-0.32,up,1.9666238999925554,,,,,1077.733674600022,1079.286207200028,-0.08,0.16,0.24,0.0,0.04,-0.08,-0.08,-0.08,0.16,1076.5440126000321,1076.5440126000321,1076.5440126000321,1076.5440126000321,1076.5440126000321,1076.5440126000321,1076.5440126000321,1076.5440126000321,1076.5326284800074,1.2863371000275947,return,1.1658931000274606,,,,,,,,,,,,,,,,,,,,,,,,,,,,,,,,,EXDRFV,train_y,blue_star,bottom_left,2025-05-19_16h34.07.185,HideSeek_v1,2022.2.5,59.976705044936466,
,4,0,4,4,0,4,65,,train_dim1_1,16,30,,,,2,0,2,0,,,,,,,,,0,0,0,0,0,15,15,15,1,0,1,0,,,,,,,,,,,,,,,,,,,,,,,,,,,,,,,,,,,,,,,,,,,,,,,,,,,,,,,,,,,,,,,,30,,,,,,,,1081.333838600025,1081.333838600025,1081.333838600025,1081.333838600025,1081.333838600025,up,0.4420932999928482,12,0,0,99,0.16,-0.24,up,0.3655243000248447,,,,,,,,,,,,,,,,,,,,,,,,,,,,,,,,,,,,,,,,,,,,,,,,,,,,,,,,,,,,EXDRFV,train_y,blue_star,bottom_left,2025-05-19_16h34.07.185,HideSeek_v1,2022.2.5,59.976705044936466,
,4,0,4,4,0,4,65,,train_dim1_1,16,30,,,,2,0,2,0,,,,,,,,,0,0,0,0,0,15,15,15,2,0,2,0,,,,,,,,,,,,,,,,,,,,,,,,,,,,,,,,,,,,,,,,,,,,,,,,,,,,,,,,,,,,,,,,30,,,,,,,,1081.7829695999972,1081.7829695999972,1081.7829695999972,1081.7829695999972,1081.7829695999972,up,0.3934892999823205,12,0,0,99,0.16,-0.15999999999999998,up,0.3055165000259876,,,,,,,,,,,,,,,,,,,,,,,,,,,,,,,,,,,,,,,,,,,,,,,,,,,,,,,,,,,,EXDRFV,train_y,blue_star,bottom_left,2025-05-19_16h34.07.185,HideSeek_v1,2022.2.5,59.976705044936466,
,4,0,4,4,0,4,65,,train_dim1_1,16,30,,,,2,0,2,0,,,,,,,,,0,0,0,0,0,15,15,15,3,0,3,0,,,,,,,,,,,,,,,,,,,,,,,,,,,,,,,,,,,,,,,,,,,,,,,,,,,,,,,,,,,,,,,,30,,,,,,,,1082.1840171000222,1082.1840171000222,1082.1840171000222,1082.1840171000222,1082.1840171000222,up,0.7267270999727771,12,0,0,99,0.16,-0.07999999999999997,up,0.6495368999894708,,,,,,,,,,,,,,,,,,,,,,,,,,,,,,,,,,,,,,,,,,,,,,,,,,,,,,,,,,,,EXDRFV,train_y,blue_star,bottom_left,2025-05-19_16h34.07.185,HideSeek_v1,2022.2.5,59.976705044936466,
,4,0,4,4,0,4,65,,train_dim1_1,16,30,,,,2,0,2,0,,,,,,,,,0,0,0,0,0,15,15,15,4,0,4,0,,,,,,,,,,,,,,,,,,,,,,,,,,,,,,,,,,,,,,,,,,,,,,,,,,,,,,,,,,,,,,,,30,,,,,,,,1082.91742230003,1082.91742230003,1082.91742230003,1082.91742230003,1082.91742230003,return,1.7939940000069328,13,0,0,1,0.16,-0.07999999999999997,return,1.7155766999931075,41,0,0.16,-0.07999999999999997,,,,,,,,,,,,,,,,,,,,,,,,,,,,,,,,,,,,,,,,,,,,,,,,,,,,,,,,EXDRFV,train_y,blue_star,bottom_left,2025-05-19_16h34.07.185,HideSeek_v1,2022.2.5,59.976705044936466,
,3,3,3,6,0,3,64,,train_dim1_1,17,30,,,,2,0,2,0,,,,,,,,,0,0,0,0,0,16,16,16,0,0,0,0,,,,,,,,,,,,,,,,,,,,,,,,,stimuli/alien_stimuli/64.png,,,,,,,,,,,,,,,,,,,,,,,,,,,,,stimuli/alien_stimuli/65.png,65,4,18,,,,,,,30,,,,,,,,1089.2299895000178,1089.2299895000178,1089.2299895000178,1089.2299895000178,1089.2299895000178,up,1.9870245999773033,13,0,0,99,0.08,-0.08,up,1.9007114000269212,,,,,1087.675306899997,1089.2299895000178,0.16,-0.08,0.32,0.0,-0.24000000000000002,0.16,0.16,0.16,-0.08,1086.2623768000049,1086.2623768000049,1086.2623768000049,1086.2623768000049,1086.2623768000049,1086.2623768000049,1086.2623768000049,1086.2623768000049,1086.2574923799955,1.5034719000104815,return,1.3940421000006609,,,,,,,,,,,,,,,,,,,,,,,,,,,,,,,,,EXDRFV,train_y,blue_star,bottom_left,2025-05-19_16h34.07.185,HideSeek_v1,2022.2.5,59.976705044936466,
,3,3,3,6,0,3,64,,train_dim1_1,17,30,,,,2,0,2,0,,,,,,,,,0,0,0,0,0,16,16,16,1,0,1,0,,,,,,,,,,,,,,,,,,,,,,,,,,,,,,,,,,,,,,,,,,,,,,,,,,,,,,,,,,,,,,,,30,,,,,,,,1091.223911500012,1091.223911500012,1091.223911500012,1091.223911500012,1091.223911500012,up,0.7095311000011861,13,0,0,99,0.08,0.0,up,0.6263543000095524,,,,,,,,,,,,,,,,,,,,,,,,,,,,,,,,,,,,,,,,,,,,,,,,,,,,,,,,,,,,EXDRFV,train_y,blue_star,bottom_left,2025-05-19_16h34.07.185,HideSeek_v1,2022.2.5,59.976705044936466,
,3,3,3,6,0,3,64,,train_dim1_1,17,30,,,,2,0,2,0,,,,,,,,,0,0,0,0,0,16,16,16,2,0,2,0,,,,,,,,,,,,,,,,,,,,,,,,,,,,,,,,,,,,,,,,,,,,,,,,,,,,,,,,,,,,,,,,30,,,,,,,,1091.9409313000506,1091.9409313000506,1091.9409313000506,1091.9409313000506,1091.9409313000506,up,0.7265858000027947,13,0,0,99,0.08,0.08,up,0.6450386000215076,,,,,,,,,,,,,,,,,,,,,,,,,,,,,,,,,,,,,,,,,,,,,,,,,,,,,,,,,,,,EXDRFV,train_y,blue_star,bottom_left,2025-05-19_16h34.07.185,HideSeek_v1,2022.2.5,59.976705044936466,
,3,3,3,6,0,3,64,,train_dim1_1,17,30,,,,2,0,2,0,,,,,,,,,0,0,0,0,0,16,16,16,3,0,3,0,,,,,,,,,,,,,,,,,,,,,,,,,,,,,,,,,,,,,,,,,,,,,,,,,,,,,,,,,,,,,,,,30,,,,,,,,1092.674761100032,1092.674761100032,1092.674761100032,1092.674761100032,1092.674761100032,down,5.314023600018118,13,0,0,99,0.08,0.0,down,5.234802599996328,,,,,,,,,,,,,,,,,,,,,,,,,,,,,,,,,,,,,,,,,,,,,,,,,,,,,,,,,,,,EXDRFV,train_y,blue_star,bottom_left,2025-05-19_16h34.07.185,HideSeek_v1,2022.2.5,59.976705044936466,
,3,3,3,6,0,3,64,,train_dim1_1,17,30,,,,2,0,2,0,,,,,,,,,0,0,0,0,0,16,16,16,4,0,4,0,,,,,,,,,,,,,,,,,,,,,,,,,,,,,,,,,,,,,,,,,,,,,,,,,,,,,,,,,,,,,,,,30,,,,,,,,1098.005335599999,1098.005335599999,1098.005335599999,1098.005335599999,1098.005335599999,up,1.8107695000362583,13,0,0,99,0.08,0.08,up,1.720481899974402,,,,,,,,,,,,,,,,,,,,,,,,,,,,,,,,,,,,,,,,,,,,,,,,,,,,,,,,,,,,EXDRFV,train_y,blue_star,bottom_left,2025-05-19_16h34.07.185,HideSeek_v1,2022.2.5,59.976705044936466,
,3,3,3,6,0,3,64,,train_dim1_1,17,30,,,,2,0,2,0,,,,,,,,,0,0,0,0,0,16,16,16,5,0,5,0,,,,,,,,,,,,,,,,,,,,,,,,,,,,,,,,,,,,,,,,,,,,,,,,,,,,,,,,,,,,,,,,30,,,,,,,,1099.816746000026,1099.816746000026,1099.816746000026,1099.816746000026,1099.816746000026,return,0.5433561999816447,14,0,0,1,0.08,0.08,return,0.45936890004668385,44,0,0.08,0.08,,,,,,,,,,,,,,,,,,,,,,,,,,,,,,,,,,,,,,,,,,,,,,,,,,,,,,,,EXDRFV,train_y,blue_star,bottom_left,2025-05-19_16h34.07.185,HideSeek_v1,2022.2.5,59.976705044936466,
,2,1,2,1,0,0,61,,train_dim1_1,18,30,,,,2,0,2,0,,,,,,,,,0,0,0,0,0,17,17,17,0,0,0,0,,,,,,,,,,,,,,,,,,,,,,,,,stimuli/alien_stimuli/61.png,,,,,,,,,,,,,,,,,,,,,,,,,,,,,stimuli/alien_stimuli/64.png,64,3,19,,,,,,,30,,,,,,,,1104.6251508000423,1104.6251508000423,1104.6251508000423,1104.6251508000423,1104.6251508000423,return,2.288327499991283,15,0,0,1,0,-0.32,return,2.208432899962645,44,0,0,-0.32,1103.071263300022,1104.6251508000423,0.08,0.08,0.24,0.0,-0.04,0.08,0.08,0.08,0.08,1101.9267558000283,1101.9267558000283,1101.9267558000283,1101.9267558000283,1101.9267558000283,1101.9267558000283,1101.9267558000283,1101.9267558000283,1101.9203107599692,1.2534199999645352,return,1.1236860000062734,,,,,,,,,,,,,,,,,,,,,,,,,,,,,,,,,EXDRFV,train_y,blue_star,bottom_left,2025-05-19_16h34.07.185,HideSeek_v1,2022.2.5,59.976705044936466,
,0,4,0,5,0,1,62,,train_dim1_1,19,30,,,,2,0,2,0,,,,,,,,,0,0,0,0,0,18,18,18,0,0,0,0,,,,,,,,,,,,,,,,,,,,,,,,,stimuli/alien_stimuli/62.png,,,,,,,,,,,,,,,,,,,,,,,,,,,,,stimuli/alien_stimuli/61.png,61,2,20,,,,,,,30,,,,,,,,1111.1980117000057,1111.1980117000057,1111.1980117000057,1111.1980117000057,1111.1980117000057,up,1.638474099978339,15,0,0,99,-0.16,0.0,up,1.5589648999739438,,,,,1109.6433174000122,1111.1980117000057,0,-0.32,0.0,0.0,-0.32,0,0.0,0,-0.32,1108.4827124000294,1108.4827124000294,1108.4827124000294,1108.4827124000294,1108.4827124000294,1108.4827124000294,1108.4827124000294,1108.4827124000294,1108.4758151599613,1.2696049999794923,return,1.1433774999459274,,,,,,,,,,,,,,,,,,,,,,,,,,,,,,,,,EXDRFV,train_y,blue_star,bottom_left,2025-05-19_16h34.07.185,HideSeek_v1,2022.2.5,59.976705044936466,
,0,4,0,5,0,1,62,,train_dim1_1,19,30,,,,2,0,2,0,,,,,,,,,0,0,0,0,0,18,18,18,1,0,1,0,,,,,,,,,,,,,,,,,,,,,,,,,,,,,,,,,,,,,,,,,,,,,,,,,,,,,,,,,,,,,,,,30,,,,,,,,1112.8430228999932,1112.8430228999932,1112.8430228999932,1112.8430228999932,1112.8430228999932,return,0.9263948999578133,16,0,0,1,-0.16,0.0,return,0.8482668999931775,45,0,-0.16,0.0,,,,,,,,,,,,,,,,,,,,,,,,,,,,,,,,,,,,,,,,,,,,,,,,,,,,,,,,EXDRFV,train_y,blue_star,bottom_left,2025-05-19_16h34.07.185,HideSeek_v1,2022.2.5,59.976705044936466,
,2,0,2,5,0,5,66,,train_dim1_1,20,30,,,,2,0,2,0,,,,,,,,,0,0,0,0,0,19,19,19,0,0,0,0,,,,,,,,,,,,,,,,,,,,,,,,,stimuli/alien_stimuli/66.png,,,,,,,,,,,,,,,,,,,,,,,,,,,,,stimuli/alien_stimuli/62.png,62,0,21,,,,,,,30,,,,,,,,1117.634606400039,1117.634606400039,1117.634606400039,1117.634606400039,1117.634606400039,up,1.4221789000439458,16,0,0,99,0,-0.32,up,1.3351827000151388,,,,,1116.0821711000171,1117.634606400039,-0.16,0,0.08,0.0,-0.04,-0.16,-0.16,-0.16,0,1115.3347442999948,1115.3347442999948,1115.3347442999948,1115.3347442999948,1115.3347442999948,1115.3347442999948,1115.3347442999948,1115.3347442999948,1115.3316711599996,0.8524555999902077,return,0.7264418000122532,,,,,,,,,,,,,,,,,,,,,,,,,,,,,,,,,EXDRFV,train_y,blue_star,bottom_left,2025-05-19_16h34.07.185,HideSeek_v1,2022.2.5,59.976705044936466,
,2,0,2,5,0,5,66,,train_dim1_1,20,30,,,,2,0,2,0,,,,,,,,,0,0,0,0,0,19,19,19,1,0,1,0,,,,,,,,,,,,,,,,,,,,,,,,,,,,,,,,,,,,,,,,,,,,,,,,,,,,,,,,,,,,,,,,30,,,,,,,,1119.0646421000129,1119.0646421000129,1119.0646421000129,1119.0646421000129,1119.0646421000129,up,0.409401299955789,16,0,0,99,0,-0.24,up,0.3356979999807663,,,,,,,,,,,,,,,,,,,,,,,,,,,,,,,,,,,,,,,,,,,,,,,,,,,,,,,,,,,,EXDRFV,train_y,blue_star,bottom_left,2025-05-19_16h34.07.185,HideSeek_v1,2022.2.5,59.976705044936466,
,2,0,2,5,0,5,66,,train_dim1_1,20,30,,,,2,0,2,0,,,,,,,,,0,0,0,0,0,19,19,19,2,0,2,0,,,,,,,,,,,,,,,,,,,,,,,,,,,,,,,,,,,,,,,,,,,,,,,,,,,,,,,,,,,,,,,,30,,,,,,,,1119.4817903999938,1119.4817903999938,1119.4817903999938,1119.4817903999938,1119.4817903999938,up,0.42643400002270937,16,0,0,99,0,-0.15999999999999998,up,0.34190950001357123,,,,,,,,,,,,,,,,,,,,,,,,,,,,,,,,,,,,,,,,,,,,,,,,,,,,,,,,,,,,EXDRFV,train_y,blue_star,bottom_left,2025-05-19_16h34.07.185,HideSeek_v1,2022.2.5,59.976705044936466,
,2,0,2,5,0,5,66,,train_dim1_1,20,30,,,,2,0,2,0,,,,,,,,,0,0,0,0,0,19,19,19,3,0,3,0,,,,,,,,,,,,,,,,,,,,,,,,,,,,,,,,,,,,,,,,,,,,,,,,,,,,,,,,,,,,,,,,30,,,,,,,,1119.9149787000497,1119.9149787000497,1119.9149787000497,1119.9149787000497,1119.9149787000497,up,0.44326529995305464,16,0,0,99,0,-0.07999999999999997,up,0.35841059999074787,,,,,,,,,,,,,,,,,,,,,,,,,,,,,,,,,,,,,,,,,,,,,,,,,,,,,,,,,,,,EXDRFV,train_y,blue_star,bottom_left,2025-05-19_16h34.07.185,HideSeek_v1,2022.2.5,59.976705044936466,
,2,0,2,5,0,5,66,,train_dim1_1,20,30,,,,2,0,2,0,,,,,,,,,0,0,0,0,0,19,19,19,4,0,4,0,,,,,,,,,,,,,,,,,,,,,,,,,,,,,,,,,,,,,,,,,,,,,,,,,,,,,,,,,,,,,,,,30,,,,,,,,1120.3657419999945,1120.3657419999945,1120.3657419999945,1120.3657419999945,1120.3657419999945,up,0.7766779999947175,16,0,0,99,0,2.7755575615628914e-17,up,0.6942134000128135,,,,,,,,,,,,,,,,,,,,,,,,,,,,,,,,,,,,,,,,,,,,,,,,,,,,,,,,,,,,EXDRFV,train_y,blue_star,bottom_left,2025-05-19_16h34.07.185,HideSeek_v1,2022.2.5,59.976705044936466,
,2,0,2,5,0,5,66,,train_dim1_1,20,30,,,,2,0,2,0,,,,,,,,,0,0,0,0,0,19,19,19,5,0,5,0,,,,,,,,,,,,,,,,,,,,,,,,,,,,,,,,,,,,,,,,,,,,,,,,,,,,,,,,,,,,,,,,30,,,,,,,,1121.149612600042,1121.149612600042,1121.149612600042,1121.149612600042,1121.149612600042,return,1.493702800013125,17,0,0,1,0,2.7755575615628914e-17,return,1.41150899999775,50,0,0,2.7755575615628914e-17,,,,,,,,,,,,,,,,,,,,,,,,,,,,,,,,,,,,,,,,,,,,,,,,,,,,,,,,EXDRFV,train_y,blue_star,bottom_left,2025-05-19_16h34.07.185,HideSeek_v1,2022.2.5,59.976705044936466,
,2,4,2,8,0,4,65,,train_dim1_1,21,30,,,,2,0,2,0,,,,,,,,,0,0,0,0,0,20,20,20,0,0,0,0,,,,,,,,,,,,,,,,,,,,,,,,,stimuli/alien_stimuli/65.png,,,,,,,,,,,,,,,,,,,,,,,,,,,,,stimuli/alien_stimuli/66.png,66,2,22,,,,,,,30,,,,,,,,1126.3767546000308,1126.3767546000308,1126.3767546000308,1126.3767546000308,1126.3767546000308,up,1.4710365000064485,17,0,0,99,0,0.0,up,1.3980677999788895,,,,,1124.822463700024,1126.3767546000308,0,0,0.4,0.0,-0.2,0,0.0,0,0,1124.2004292000202,1124.2004292000202,1124.2004292000202,1124.2004292000202,1124.2004292000202,1124.2004292000202,1124.2004292000202,1124.2004292000202,1124.1888276799698,0.719345899997279,return,0.599946899979841,,,,,,,,,,,,,,,,,,,,,,,,,,,,,,,,,EXDRFV,train_y,blue_star,bottom_left,2025-05-19_16h34.07.185,HideSeek_v1,2022.2.5,59.976705044936466,
,2,4,2,8,0,4,65,,train_dim1_1,21,30,,,,2,0,2,0,,,,,,,,,0,0,0,0,0,20,20,20,1,0,1,0,,,,,,,,,,,,,,,,,,,,,,,,,,,,,,,,,,,,,,,,,,,,,,,,,,,,,,,,,,,,,,,,30,,,,,,,,1127.8548461000319,1127.8548461000319,1127.8548461000319,1127.8548461000319,1127.8548461000319,up,0.4760452000191435,17,0,0,99,0,0.08,up,0.403601499972865,,,,,,,,,,,,,,,,,,,,,,,,,,,,,,,,,,,,,,,,,,,,,,,,,,,,,,,,,,,,EXDRFV,train_y,blue_star,bottom_left,2025-05-19_16h34.07.185,HideSeek_v1,2022.2.5,59.976705044936466,
,2,4,2,8,0,4,65,,train_dim1_1,21,30,,,,2,0,2,0,,,,,,,,,0,0,0,0,0,20,20,20,2,0,2,0,,,,,,,,,,,,,,,,,,,,,,,,,,,,,,,,,,,,,,,,,,,,,,,,,,,,,,,,,,,,,,,,30,,,,,,,,1128.3390659000142,1128.3390659000142,1128.3390659000142,1128.3390659000142,1128.3390659000142,up,0.4759258999838494,17,0,0,99,0,0.16,up,0.39984470000490546,,,,,,,,,,,,,,,,,,,,,,,,,,,,,,,,,,,,,,,,,,,,,,,,,,,,,,,,,,,,EXDRFV,train_y,blue_star,bottom_left,2025-05-19_16h34.07.185,HideSeek_v1,2022.2.5,59.976705044936466,
,2,4,2,8,0,4,65,,train_dim1_1,21,30,,,,2,0,2,0,,,,,,,,,0,0,0,0,0,20,20,20,3,0,3,0,,,,,,,,,,,,,,,,,,,,,,,,,,,,,,,,,,,,,,,,,,,,,,,,,,,,,,,,,,,,,,,,30,,,,,,,,1128.8226063000038,1128.8226063000038,1128.8226063000038,1128.8226063000038,1128.8226063000038,up,0.693285699991975,17,0,0,99,0,0.24,up,0.6190235000103712,,,,,,,,,,,,,,,,,,,,,,,,,,,,,,,,,,,,,,,,,,,,,,,,,,,,,,,,,,,,EXDRFV,train_y,blue_star,bottom_left,2025-05-19_16h34.07.185,HideSeek_v1,2022.2.5,59.976705044936466,
,2,4,2,8,0,4,65,,train_dim1_1,21,30,,,,2,0,2,0,,,,,,,,,0,0,0,0,0,20,20,20,4,0,4,0,,,,,,,,,,,,,,,,,,,,,,,,,,,,,,,,,,,,,,,,,,,,,,,,,,,,,,,,,,,,,,,,30,,,,,,,,1129.5221857000142,1129.5221857000142,1129.5221857000142,1129.5221857000142,1129.5221857000142,return,2.010815799992997,18,0,0,1,0,0.24,return,1.926726800040342,54,0,0,0.24,,,,,,,,,,,,,,,,,,,,,,,,,,,,,,,,,,,,,,,,,,,,,,,,,,,,,,,,EXDRFV,train_y,blue_star,bottom_left,2025-05-19_16h34.07.185,HideSeek_v1,2022.2.5,59.976705044936466,
,0,2,0,5,0,3,64,,train_dim1_1,22,30,,,,2,0,2,0,,,,,,,,,0,0,0,0,0,21,21,21,0,0,0,0,,,,,,,,,,,,,,,,,,,,,,,,,stimuli/alien_stimuli/64.png,,,,,,,,,,,,,,,,,,,,,,,,,,,,,stimuli/alien_stimuli/65.png,65,2,23,,,,,,,30,,,,,,,,1135.3011206000228,1135.3011206000228,1135.3011206000228,1135.3011206000228,1135.3011206000228,up,1.8367202000226825,18,0,0,99,-0.16,-0.15999999999999998,up,1.759869700006675,,,,,1133.7464902999927,1135.3011206000228,0,0.24,0.32,0.0,0.07999999999999999,0,0.0,0,0.24,1133.088008599996,1133.088008599996,1133.088008599996,1133.088008599996,1133.088008599996,1133.088008599996,1133.088008599996,1133.088008599996,1133.0795595799689,0.7531127000111155,return,0.6429185000015423,,,,,,,,,,,,,,,,,,,,,,,,,,,,,,,,,EXDRFV,train_y,blue_star,bottom_left,2025-05-19_16h34.07.185,HideSeek_v1,2022.2.5,59.976705044936466,
,0,2,0,5,0,3,64,,train_dim1_1,22,30,,,,2,0,2,0,,,,,,,,,0,0,0,0,0,21,21,21,1,0,1,0,,,,,,,,,,,,,,,,,,,,,,,,,,,,,,,,,,,,,,,,,,,,,,,,,,,,,,,,,,,,,,,,30,,,,,,,,1137.1455678000348,1137.1455678000348,1137.1455678000348,1137.1455678000348,1137.1455678000348,up,0.7760703000240028,18,0,0,99,-0.16,-0.07999999999999997,up,0.6907542999833822,,,,,,,,,,,,,,,,,,,,,,,,,,,,,,,,,,,,,,,,,,,,,,,,,,,,,,,,,,,,EXDRFV,train_y,blue_star,bottom_left,2025-05-19_16h34.07.185,HideSeek_v1,2022.2.5,59.976705044936466,
,0,2,0,5,0,3,64,,train_dim1_1,22,30,,,,2,0,2,0,,,,,,,,,0,0,0,0,0,21,21,21,2,0,2,0,,,,,,,,,,,,,,,,,,,,,,,,,,,,,,,,,,,,,,,,,,,,,,,,,,,,,,,,,,,,,,,,30,,,,,,,,1137.929961500049,1137.929961500049,1137.929961500049,1137.929961500049,1137.929961500049,up,2.8118132000090554,18,0,0,99,-0.16,2.7755575615628914e-17,up,2.73695269995369,,,,,,,,,,,,,,,,,,,,,,,,,,,,,,,,,,,,,,,,,,,,,,,,,,,,,,,,,,,,EXDRFV,train_y,blue_star,bottom_left,2025-05-19_16h34.07.185,HideSeek_v1,2022.2.5,59.976705044936466,
,0,2,0,5,0,3,64,,train_dim1_1,22,30,,,,2,0,2,0,,,,,,,,,0,0,0,0,0,21,21,21,3,0,3,0,,,,,,,,,,,,,,,,,,,,,,,,,,,,,,,,,,,,,,,,,,,,,,,,,,,,,,,,,,,,,,,,30,,,,,,,,1140.7493027000455,1140.7493027000455,1140.7493027000455,1140.7493027000455,1140.7493027000455,return,1.0930158999981359,19,0,0,1,-0.16,2.7755575615628914e-17,return,1.0093271000077948,57,0,-0.16,2.7755575615628914e-17,,,,,,,,,,,,,,,,,,,,,,,,,,,,,,,,,,,,,,,,,,,,,,,,,,,,,,,,EXDRFV,train_y,blue_star,bottom_left,2025-05-19_16h34.07.185,HideSeek_v1,2022.2.5,59.976705044936466,
,0,3,0,3,0,0,61,,train_dim1_1,23,30,,,,2,0,2,0,,,,,,,,,0,0,0,0,0,22,22,22,0,0,0,0,,,,,,,,,,,,,,,,,,,,,,,,,stimuli/alien_stimuli/61.png,,,,,,,,,,,,,,,,,,,,,,,,,,,,,stimuli/alien_stimuli/64.png,64,0,24,,,,,,,30,,,,,,,,1145.826099400001,1145.826099400001,1145.826099400001,1145.826099400001,1145.826099400001,return,1.4544804000179283,20,0,0,1,-0.16,-0.16,return,1.3695367999607697,57,0,-0.16,-0.16,1144.2723944000318,1145.826099400001,-0.16,0,0.24,0.0,-0.12,-0.16,-0.16,-0.16,0,1143.395909200015,1143.395909200015,1143.395909200015,1143.395909200015,1143.395909200015,1143.395909200015,1143.395909200015,1143.395909200015,1143.3881880800006,0.9697461000178009,return,0.8595010000281036,,,,,,,,,,,,,,,,,,,,,,,,,,,,,,,,,EXDRFV,train_y,blue_star,bottom_left,2025-05-19_16h34.07.185,HideSeek_v1,2022.2.5,59.976705044936466,
,3,2,3,7,0,5,66,,train_dim1_1,24,30,,,,2,0,2,0,,,,,,,,,0,0,0,0,0,23,23,23,0,0,0,0,,,,,,,,,,,,,,,,,,,,,,,,,stimuli/alien_stimuli/66.png,,,,,,,,,,,,,,,,,,,,,,,,,,,,,stimuli/alien_stimuli/61.png,61,0,25,,,,,,,30,,,,,,,,1150.8816157000256,1150.8816157000256,1150.8816157000256,1150.8816157000256,1150.8816157000256,up,1.7366379000013694,20,0,0,99,0.08,-0.15999999999999998,up,1.663040799961891,,,,,1149.326254500018,1150.8816157000256,-0.16,-0.16,0.0,0.0,-0.16,-0.16,-0.16,-0.16,-0.16,1148.8360601000022,1148.8360601000022,1148.8360601000022,1148.8360601000022,1148.8360601000022,1148.8360601000022,1148.8360601000022,1148.8360601000022,1148.825825079996,0.5860556999687105,return,0.4730009000049904,,,,,,,,,,,,,,,,,,,,,,,,,,,,,,,,,EXDRFV,train_y,blue_star,bottom_left,2025-05-19_16h34.07.185,HideSeek_v1,2022.2.5,59.976705044936466,
,3,2,3,7,0,5,66,,train_dim1_1,24,30,,,,2,0,2,0,,,,,,,,,0,0,0,0,0,23,23,23,1,0,1,0,,,,,,,,,,,,,,,,,,,,,,,,,,,,,,,,,,,,,,,,,,,,,,,,,,,,,,,,,,,,,,,,30,,,,,,,,1152.6260011999984,1152.6260011999984,1152.6260011999984,1152.6260011999984,1152.6260011999984,up,0.44276290002744645,20,0,0,99,0.08,-0.07999999999999997,up,0.359501899976749,,,,,,,,,,,,,,,,,,,,,,,,,,,,,,,,,,,,,,,,,,,,,,,,,,,,,,,,,,,,EXDRFV,train_y,blue_star,bottom_left,2025-05-19_16h34.07.185,HideSeek_v1,2022.2.5,59.976705044936466,
,3,2,3,7,0,5,66,,train_dim1_1,24,30,,,,2,0,2,0,,,,,,,,,0,0,0,0,0,23,23,23,2,0,2,0,,,,,,,,,,,,,,,,,,,,,,,,,,,,,,,,,,,,,,,,,,,,,,,,,,,,,,,,,,,,,,,,30,,,,,,,,1153.076173700043,1153.076173700043,1153.076173700043,1153.076173700043,1153.076173700043,up,0.3096839000354521,20,0,0,99,0.08,2.7755575615628914e-17,up,0.23129450000124052,,,,,,,,,,,,,,,,,,,,,,,,,,,,,,,,,,,,,,,,,,,,,,,,,,,,,,,,,,,,EXDRFV,train_y,blue_star,bottom_left,2025-05-19_16h34.07.185,HideSeek_v1,2022.2.5,59.976705044936466,
,3,2,3,7,0,5,66,,train_dim1_1,24,30,,,,2,0,2,0,,,,,,,,,0,0,0,0,0,23,23,23,3,0,3,0,,,,,,,,,,,,,,,,,,,,,,,,,,,,,,,,,,,,,,,,,,,,,,,,,,,,,,,,,,,,,,,,30,,,,,,,,1153.392458300048,1153.392458300048,1153.392458300048,1153.392458300048,1153.392458300048,up,0.4429913000203669,20,0,0,99,0.08,0.08000000000000003,up,0.3557603000081144,,,,,,,,,,,,,,,,,,,,,,,,,,,,,,,,,,,,,,,,,,,,,,,,,,,,,,,,,,,,EXDRFV,train_y,blue_star,bottom_left,2025-05-19_16h34.07.185,HideSeek_v1,2022.2.5,59.976705044936466,
,3,2,3,7,0,5,66,,train_dim1_1,24,30,,,,2,0,2,0,,,,,,,,,0,0,0,0,0,23,23,23,4,0,4,0,,,,,,,,,,,,,,,,,,,,,,,,,,,,,,,,,,,,,,,,,,,,,,,,,,,,,,,,,,,,,,,,30,,,,,,,,1153.8429365000338,1153.8429365000338,1153.8429365000338,1153.8429365000338,1153.8429365000338,up,1.3605839000083506,20,0,0,99,0.08,0.16000000000000003,up,1.2820447999984026,,,,,,,,,,,,,,,,,,,,,,,,,,,,,,,,,,,,,,,,,,,,,,,,,,,,,,,,,,,,EXDRFV,train_y,blue_star,bottom_left,2025-05-19_16h34.07.185,HideSeek_v1,2022.2.5,59.976705044936466,
,3,2,3,7,0,5,66,,train_dim1_1,24,30,,,,2,0,2,0,,,,,,,,,0,0,0,0,0,23,23,23,5,0,5,0,,,,,,,,,,,,,,,,,,,,,,,,,,,,,,,,,,,,,,,,,,,,,,,,,,,,,,,,,,,,,,,,30,,,,,,,,1155.2115291000227,1155.2115291000227,1155.2115291000227,1155.2115291000227,1155.2115291000227,return,0.97612459998345,21,0,0,1,0.08,0.16000000000000003,return,0.8881748000276275,62,0,0.08,0.16000000000000003,,,,,,,,,,,,,,,,,,,,,,,,,,,,,,,,,,,,,,,,,,,,,,,,,,,,,,,,EXDRFV,train_y,blue_star,bottom_left,2025-05-19_16h34.07.185,HideSeek_v1,2022.2.5,59.976705044936466,
,3,3,3,4,0,1,62,,train_dim1_1,25,30,,,,2,0,2,0,,,,,,,,,0,0,0,0,0,24,24,24,0,0,0,0,,,,,,,,,,,,,,,,,,,,,,,,,stimuli/alien_stimuli/62.png,,,,,,,,,,,,,,,,,,,,,,,,,,,,,stimuli/alien_stimuli/66.png,66,3,26,,,,,,,30,,,,,,,,1160.1565492000082,1160.1565492000082,1160.1565492000082,1160.1565492000082,1160.1565492000082,up,2.870871099992655,21,0,0,99,0.08,-0.08,up,2.7915085999993607,,,,,1158.6003948000143,1160.1565492000082,0.08,0.16,0.4,0.0,-0.039999999999999994,0.08,0.08,0.08,0.16,1157.7384372000233,1157.7384372000233,1157.7384372000233,1157.7384372000233,1157.7384372000233,1157.7384372000233,1157.7384372000233,1157.7384372000233,1157.7331321800127,0.9529365000198595,return,0.8339814000064507,,,,,,,,,,,,,,,,,,,,,,,,,,,,,,,,,EXDRFV,train_y,blue_star,bottom_left,2025-05-19_16h34.07.185,HideSeek_v1,2022.2.5,59.976705044936466,
,3,3,3,4,0,1,62,,train_dim1_1,25,30,,,,2,0,2,0,,,,,,,,,0,0,0,0,0,24,24,24,1,0,1,0,,,,,,,,,,,,,,,,,,,,,,,,,,,,,,,,,,,,,,,,,,,,,,,,,,,,,,,,,,,,,,,,30,,,,,,,,1163.0348443000112,1163.0348443000112,1163.0348443000112,1163.0348443000112,1163.0348443000112,return,0.6759587000124156,22,0,0,1,0.08,-0.08,return,0.5967603999888524,63,0,0.08,-0.08,,,,,,,,,,,,,,,,,,,,,,,,,,,,,,,,,,,,,,,,,,,,,,,,,,,,,,,,EXDRFV,train_y,blue_star,bottom_left,2025-05-19_16h34.07.185,HideSeek_v1,2022.2.5,59.976705044936466,
,4,4,4,7,0,3,64,,train_dim1_1,26,30,,,,2,0,2,0,,,,,,,,,0,0,0,0,0,25,25,25,0,0,0,0,,,,,,,,,,,,,,,,,,,,,,,,,stimuli/alien_stimuli/64.png,,,,,,,,,,,,,,,,,,,,,,,,,,,,,stimuli/alien_stimuli/62.png,62,3,27,,,,,,,30,,,,,,,,1167.5774585000472,1167.5774585000472,1167.5774585000472,1167.5774585000472,1167.5774585000472,up,1.187568099994678,22,0,0,99,0.16,0.0,up,1.1108725999947637,,,,,1166.0233821000438,1167.5774585000472,0.08,-0.08,0.08,0.0,-0.12,0.08,0.08,0.08,-0.08,1165.2850489999983,1165.2850489999983,1165.2850489999983,1165.2850489999983,1165.2850489999983,1165.2850489999983,1165.2850489999983,1165.2850489999983,1165.272712659958,0.8527827999787405,return,0.7133376999991015,,,,,,,,,,,,,,,,,,,,,,,,,,,,,,,,,EXDRFV,train_y,blue_star,bottom_left,2025-05-19_16h34.07.185,HideSeek_v1,2022.2.5,59.976705044936466,
,4,4,4,7,0,3,64,,train_dim1_1,26,30,,,,2,0,2,0,,,,,,,,,0,0,0,0,0,25,25,25,1,0,1,0,,,,,,,,,,,,,,,,,,,,,,,,,,,,,,,,,,,,,,,,,,,,,,,,,,,,,,,,,,,,,,,,30,,,,,,,,1168.7768007999985,1168.7768007999985,1168.7768007999985,1168.7768007999985,1168.7768007999985,up,0.5232353999745101,22,0,0,99,0.16,0.08,up,0.4449804999749176,,,,,,,,,,,,,,,,,,,,,,,,,,,,,,,,,,,,,,,,,,,,,,,,,,,,,,,,,,,,EXDRFV,train_y,blue_star,bottom_left,2025-05-19_16h34.07.185,HideSeek_v1,2022.2.5,59.976705044936466,
,4,4,4,7,0,3,64,,train_dim1_1,26,30,,,,2,0,2,0,,,,,,,,,0,0,0,0,0,25,25,25,2,0,2,0,,,,,,,,,,,,,,,,,,,,,,,,,,,,,,,,,,,,,,,,,,,,,,,,,,,,,,,,,,,,,,,,30,,,,,,,,1169.306205800036,1169.306205800036,1169.306205800036,1169.306205800036,1169.306205800036,up,0.7599830999970436,22,0,0,99,0.16,0.16,up,0.673456399992574,,,,,,,,,,,,,,,,,,,,,,,,,,,,,,,,,,,,,,,,,,,,,,,,,,,,,,,,,,,,EXDRFV,train_y,blue_star,bottom_left,2025-05-19_16h34.07.185,HideSeek_v1,2022.2.5,59.976705044936466,
,4,4,4,7,0,3,64,,train_dim1_1,26,30,,,,2,0,2,0,,,,,,,,,0,0,0,0,0,25,25,25,3,0,3,0,,,,,,,,,,,,,,,,,,,,,,,,,,,,,,,,,,,,,,,,,,,,,,,,,,,,,,,,,,,,,,,,30,,,,,,,,1170.0721671000356,1170.0721671000356,1170.0721671000356,1170.0721671000356,1170.0721671000356,return,0.9104690999956802,23,0,0,1,0.16,0.16,return,0.827817999990657,66,0,0.16,0.16,,,,,,,,,,,,,,,,,,,,,,,,,,,,,,,,,,,,,,,,,,,,,,,,,,,,,,,,EXDRFV,train_y,blue_star,bottom_left,2025-05-19_16h34.07.185,HideSeek_v1,2022.2.5,59.976705044936466,
,3,4,3,9,0,5,66,,train_dim1_1,27,30,,,,2,0,2,0,,,,,,,,,0,0,0,0,0,26,26,26,0,0,0,0,,,,,,,,,,,,,,,,,,,,,,,,,stimuli/alien_stimuli/66.png,,,,,,,,,,,,,,,,,,,,,,,,,,,,,stimuli/alien_stimuli/64.png,64,4,28,,,,,,,30,,,,,,,,1175.034942600003,1175.034942600003,1175.034942600003,1175.034942600003,1175.034942600003,up,1.2360645000007935,23,0,0,99,0.08,0.0,up,1.1513512000092305,,,,,1173.479618100042,1175.034942600003,0.16,0.16,0.24,0.0,0.04,0.16,0.16,0.16,0.16,1172.537036900001,1172.537036900001,1172.537036900001,1172.537036900001,1172.537036900001,1172.537036900001,1172.537036900001,1172.537036900001,1172.528757379984,1.036469400045462,return,0.9198643999989145,,,,,,,,,,,,,,,,,,,,,,,,,,,,,,,,,EXDRFV,train_y,blue_star,bottom_left,2025-05-19_16h34.07.185,HideSeek_v1,2022.2.5,59.976705044936466,
,3,4,3,9,0,5,66,,train_dim1_1,27,30,,,,2,0,2,0,,,,,,,,,0,0,0,0,0,26,26,26,1,0,1,0,,,,,,,,,,,,,,,,,,,,,,,,,,,,,,,,,,,,,,,,,,,,,,,,,,,,,,,,,,,,,,,,30,,,,,,,,1176.2797987000085,1176.2797987000085,1176.2797987000085,1176.2797987000085,1176.2797987000085,up,0.35922240000218153,23,0,0,99,0.08,0.08,up,0.2842744000372477,,,,,,,,,,,,,,,,,,,,,,,,,,,,,,,,,,,,,,,,,,,,,,,,,,,,,,,,,,,,EXDRFV,train_y,blue_star,bottom_left,2025-05-19_16h34.07.185,HideSeek_v1,2022.2.5,59.976705044936466,
,3,4,3,9,0,5,66,,train_dim1_1,27,30,,,,2,0,2,0,,,,,,,,,0,0,0,0,0,26,26,26,2,0,2,0,,,,,,,,,,,,,,,,,,,,,,,,,,,,,,,,,,,,,,,,,,,,,,,,,,,,,,,,,,,,,,,,30,,,,,,,,1176.645236900018,1176.645236900018,1176.645236900018,1176.645236900018,1176.645236900018,up,0.3762257000198588,23,0,0,99,0.08,0.16,up,0.2950101000024006,,,,,,,,,,,,,,,,,,,,,,,,,,,,,,,,,,,,,,,,,,,,,,,,,,,,,,,,,,,,EXDRFV,train_y,blue_star,bottom_left,2025-05-19_16h34.07.185,HideSeek_v1,2022.2.5,59.976705044936466,
,3,4,3,9,0,5,66,,train_dim1_1,27,30,,,,2,0,2,0,,,,,,,,,0,0,0,0,0,26,26,26,3,0,3,0,,,,,,,,,,,,,,,,,,,,,,,,,,,,,,,,,,,,,,,,,,,,,,,,,,,,,,,,,,,,,,,,30,,,,,,,,1177.0284409000305,1177.0284409000305,1177.0284409000305,1177.0284409000305,1177.0284409000305,up,0.4765415000147186,23,0,0,99,0.08,0.24,up,0.39242380001815036,,,,,,,,,,,,,,,,,,,,,,,,,,,,,,,,,,,,,,,,,,,,,,,,,,,,,,,,,,,,EXDRFV,train_y,blue_star,bottom_left,2025-05-19_16h34.07.185,HideSeek_v1,2022.2.5,59.976705044936466,
,3,4,3,9,0,5,66,,train_dim1_1,27,30,,,,2,0,2,0,,,,,,,,,0,0,0,0,0,26,26,26,4,0,4,0,,,,,,,,,,,,,,,,,,,,,,,,,,,,,,,,,,,,,,,,,,,,,,,,,,,,,,,,,,,,,,,,30,,,,,,,,1177.5119610000402,1177.5119610000402,1177.5119610000402,1177.5119610000402,1177.5119610000402,up,0.7432190999970771,23,0,0,99,0.08,0.32,up,0.6599897000123747,,,,,,,,,,,,,,,,,,,,,,,,,,,,,,,,,,,,,,,,,,,,,,,,,,,,,,,,,,,,EXDRFV,train_y,blue_star,bottom_left,2025-05-19_16h34.07.185,HideSeek_v1,2022.2.5,59.976705044936466,
,3,4,3,9,0,5,66,,train_dim1_1,27,30,,,,2,0,2,0,,,,,,,,,0,0,0,0,0,26,26,26,5,0,5,0,,,,,,,,,,,,,,,,,,,,,,,,,,,,,,,,,,,,,,,,,,,,,,,,,,,,,,,,,,,,,,,,30,,,,,,,,1178.26733230002,1178.26733230002,1178.26733230002,1178.26733230002,1178.26733230002,return,1.0770375999854878,24,0,0,1,0.08,0.32,return,0.9924362000310794,71,0,0.08,0.32,,,,,,,,,,,,,,,,,,,,,,,,,,,,,,,,,,,,,,,,,,,,,,,,,,,,,,,,EXDRFV,train_y,blue_star,bottom_left,2025-05-19_16h34.07.185,HideSeek_v1,2022.2.5,59.976705044936466,
,4,1,4,1,0,0,61,,train_dim1_1,28,30,,,,2,0,2,0,,,,,,,,,0,0,0,0,0,27,27,27,0,0,0,0,,,,,,,,,,,,,,,,,,,,,,,,,stimuli/alien_stimuli/61.png,,,,,,,,,,,,,,,,,,,,,,,,,,,,,stimuli/alien_stimuli/66.png,66,3,29,,,,,,,30,,,,,,,,1183.2078416000004,1183.2078416000004,1183.2078416000004,1183.2078416000004,1183.2078416000004,return,1.2196040999842808,25,0,0,1,0.16,-0.32,return,1.1322412000154145,71,0,0.16,-0.32,1181.6531015000073,1183.2078416000004,0.08,0.32,0.4,0.0,0.12,0.08,0.08,0.08,0.32,1180.8912657000474,1180.8912657000474,1180.8912657000474,1180.8912657000474,1180.8912657000474,1180.8912657000474,1180.8912657000474,1180.8912657000474,1180.8858138799667,0.8526658000191674,return,0.740544400003273,,,,,,,,,,,,,,,,,,,,,,,,,,,,,,,,,EXDRFV,train_y,blue_star,bottom_left,2025-05-19_16h34.07.185,HideSeek_v1,2022.2.5,59.976705044936466,
,2,2,2,3,0,1,62,,train_dim1_1,29,30,,,,2,0,2,0,,,,,,,,,0,0,0,0,0,28,28,28,0,0,0,0,,,,,,,,,,,,,,,,,,,,,,,,,stimuli/alien_stimuli/62.png,,,,,,,,,,,,,,,,,,,,,,,,,,,,,stimuli/alien_stimuli/61.png,61,4,30,,,,,,,30,,,,,,,,1188.6806290000095,1188.6806290000095,1188.6806290000095,1188.6806290000095,1188.6806290000095,up,1.7852199000190012,25,0,0,99,0,-0.15999999999999998,up,1.7007212999742478,,,,,1187.1245268000057,1188.6806290000095,0.16,-0.32,0.0,0.0,-0.32,0.16,0.16,0.16,-0.32,1185.981343100022,1185.981343100022,1185.981343100022,1185.981343100022,1185.981343100022,1185.981343100022,1185.981343100022,1185.981343100022,1185.9734018799616,1.2365516999852844,return,1.117270999995526,,,,,,,,,,,,,,,,,,,,,,,,,,,,,,,,,EXDRFV,train_y,blue_star,bottom_left,2025-05-19_16h34.07.185,HideSeek_v1,2022.2.5,59.976705044936466,
,2,2,2,3,0,1,62,,train_dim1_1,29,30,,,,2,0,2,0,,,,,,,,,0,0,0,0,0,28,28,28,1,0,1,0,,,,,,,,,,,,,,,,,,,,,,,,,,,,,,,,,,,,,,,,,,,,,,,,,,,,,,,,,,,,,,,,30,,,,,,,,1190.4758658999926,1190.4758658999926,1190.4758658999926,1190.4758658999926,1190.4758658999926,return,1.2439068000530824,26,0,0,1,0,-0.15999999999999998,return,1.1567482999525964,72,0,0,-0.15999999999999998,,,,,,,,,,,,,,,,,,,,,,,,,,,,,,,,,,,,,,,,,,,,,,,,,,,,,,,,EXDRFV,train_y,blue_star,bottom_left,2025-05-19_16h34.07.185,HideSeek_v1,2022.2.5,59.976705044936466,
,0,1,0,5,0,4,65,,train_dim1_1,30,30,,,,2,0,2,0,,,,,,,,,0,0,0,0,0,29,29,29,0,0,0,0,,,,,,,,,,,,,,,,,,,,,,,,,stimuli/alien_stimuli/65.png,,,,,,,,,,,,,,,,,,,,,,,,,,,,,stimuli/alien_stimuli/62.png,62,2,31,,,,,,,30,,,,,,,,1195.7873077000258,1195.7873077000258,1195.7873077000258,1195.7873077000258,1195.7873077000258,up,1.2183091000188142,26,0,0,99,-0.16,-0.24,up,1.1351788000320084,,,,,1194.2302047000267,1195.7873077000258,0,-0.16,0.08,0.0,-0.2,0,0.0,0,-0.16,1193.2909884999972,1193.2909884999972,1193.2909884999972,1193.2909884999972,1193.2909884999972,1193.2909884999972,1193.2909884999972,1193.2909884999972,1193.2794289599929,1.0528632999630645,return,0.917015699960757,,,,,,,,,,,,,,,,,,,,,,,,,,,,,,,,,EXDRFV,train_y,blue_star,bottom_left,2025-05-19_16h34.07.185,HideSeek_v1,2022.2.5,59.976705044936466,
,0,1,0,5,0,4,65,,train_dim1_1,30,30,,,,2,0,2,0,,,,,,,,,0,0,0,0,0,29,29,29,1,0,1,0,,,,,,,,,,,,,,,,,,,,,,,,,,,,,,,,,,,,,,,,,,,,,,,,,,,,,,,,,,,,,,,,30,,,,,,,,1197.0127745000063,1197.0127745000063,1197.0127745000063,1197.0127745000063,1197.0127745000063,up,0.37604330002795905,26,0,0,99,-0.16,-0.15999999999999998,up,0.2988198999664746,,,,,,,,,,,,,,,,,,,,,,,,,,,,,,,,,,,,,,,,,,,,,,,,,,,,,,,,,,,,EXDRFV,train_y,blue_star,bottom_left,2025-05-19_16h34.07.185,HideSeek_v1,2022.2.5,59.976705044936466,
,0,1,0,5,0,4,65,,train_dim1_1,30,30,,,,2,0,2,0,,,,,,,,,0,0,0,0,0,29,29,29,2,0,2,0,,,,,,,,,,,,,,,,,,,,,,,,,,,,,,,,,,,,,,,,,,,,,,,,,,,,,,,,,,,,,,,,30,,,,,,,,1197.3958517000428,1197.3958517000428,1197.3958517000428,1197.3958517000428,1197.3958517000428,up,0.37653789995238185,26,0,0,99,-0.16,-0.07999999999999997,up,0.29594039998482913,,,,,,,,,,,,,,,,,,,,,,,,,,,,,,,,,,,,,,,,,,,,,,,,,,,,,,,,,,,,EXDRFV,train_y,blue_star,bottom_left,2025-05-19_16h34.07.185,HideSeek_v1,2022.2.5,59.976705044936466,
,0,1,0,5,0,4,65,,train_dim1_1,30,30,,,,2,0,2,0,,,,,,,,,0,0,0,0,0,29,29,29,3,0,3,0,,,,,,,,,,,,,,,,,,,,,,,,,,,,,,,,,,,,,,,,,,,,,,,,,,,,,,,,,,,,,,,,30,,,,,,,,1197.7802326999954,1197.7802326999954,1197.7802326999954,1197.7802326999954,1197.7802326999954,up,1.0101186000392772,26,0,0,99,-0.16,2.7755575615628914e-17,up,0.9224276000168175,,,,,,,,,,,,,,,,,,,,,,,,,,,,,,,,,,,,,,,,,,,,,,,,,,,,,,,,,,,,EXDRFV,train_y,blue_star,bottom_left,2025-05-19_16h34.07.185,HideSeek_v1,2022.2.5,59.976705044936466,
,0,1,0,5,0,4,65,,train_dim1_1,30,30,,,,2,0,2,0,,,,,,,,,0,0,0,0,0,29,29,29,4,0,4,0,,,,,,,,,,,,,,,,,,,,,,,,,,,,,,,,,,,,,,,,,,,,,,,,,,,,,,,,,,,,,,,,30,,,,,,,,1198.7964422000223,1198.7964422000223,1198.7964422000223,1198.7964422000223,1198.7964422000223,return,1.043569200031925,27,0,0,1,-0.16,2.7755575615628914e-17,return,0.9630832000402734,76,0,-0.16,2.7755575615628914e-17,,,,,,,,,,,,,,,,,,,,,,,,,,,,,,,,,,,,,,,,,,,,,,,,,,,,,,,,EXDRFV,train_y,blue_star,bottom_left,2025-05-19_16h34.07.185,HideSeek_v1,2022.2.5,59.976705044936466,
,,,,,,,,,,,30,,,,2,0,2,0,,,,,,,,,,,,,,,,,,,,,,,,,,,,,,,,,,,,,,,,,,,,,,,,,,,,,,,,,,,,,,,,,,,,,,,,,,stimuli/alien_stimuli/65.png,65,0,32,21,0.7,1.125,1,1,1,30,0,conditions/schedules/train_y_first/blue_star_00/bottom_left/inputTrain_2.1.xlsx,99,1,2,1,0,,,,,,,,,,,1,,,,,,,,,1202.0700704000192,1203.6254492000444,-0.16,0,0.32,0.0,-0.16,-0.16,-0.16,-0.16,0,1201.3934684999986,1201.3934684999986,1201.3934684999986,1201.3934684999986,1201.3934684999986,1201.3934684999986,1201.3934684999986,1201.3934684999986,1201.3860663799685,0.7696300999959931,return,0.6514297000248916,0,0.9,0,1,27,,,,,,,,,,,,,,,,,,,,,,,,,,,,EXDRFV,train_y,blue_star,bottom_left,2025-05-19_16h34.07.185,HideSeek_v1,2022.2.5,59.976705044936466,
,,,,,,,,,,,,,,,3,0,3,0,0,0,0,0,,,,,,,,,,,,,,,,,,,,,,,,,,,,,,,conditions/schedules/train_y_first/blue_star_00/bottom_left/instructions/Slide17.png,conditions/schedules/train_y_first/blue_star_00/bottom_left/instructions/Audio17.wav,1203.6254492000444,1203.621604520001,17,"[3.986874900001567, 18.83242250001058, 16.571652800019365, 19.036494500003755, 3.9837638000026345, 4.468191000050865, 5.102819399966393, 11.671788599982392, 5.734048999962397, 6.816827300004661, 10.12000390002504, 13.59037630003877, 17.349157500022557, 17.157934799965005, 42.746041400008835, 22.948856400034856, 33.77150069997879]","[0.0002204999909736216, 0.01414060004753992, 16.571660100016743, 0.030068800027947873, 0.047286300046835095, 0.06509859999641776, 0.04634419997455552, 0.02988260000711307, 0.047273000003769994, 0.06113940000068396, 0.04601760004879907, 13.590383900038432, 0.03054479998536408, 17.157942299963906, 0.0638044000370428, 22.948863600031473, 33.77150889998302]",0,,,,,,,,,,,,,,,,,,,,,,,,,,,,,,,,,,,,,,,,,,,,,,,,,,,,,,,,,,,,,,,,,,,,,,,,,,,,,,,,,,,,,,,,,,,,,,,,,,,,,,,,,,,,,,,,,,,,,,,,,,,,EXDRFV,train_y,blue_star,bottom_left,2025-05-19_16h34.07.185,HideSeek_v1,2022.2.5,59.976705044936466,
,,,,,,,,,,,,,,,3,0,3,0,1,0,1,0,,,,,,,,,,,,,,,,,,,,,,,,,,,,,,,conditions/schedules/train_y_first/blue_star_00/bottom_left/instructions/Slide18.png,conditions/schedules/train_y_first/blue_star_00/bottom_left/instructions/Audio18.wav,1237.4682275000378,1237.466222499992,18,"[3.986874900001567, 18.83242250001058, 16.571652800019365, 19.036494500003755, 3.9837638000026345, 4.468191000050865, 5.102819399966393, 11.671788599982392, 5.734048999962397, 6.816827300004661, 10.12000390002504, 13.59037630003877, 17.349157500022557, 17.157934799965005, 42.746041400008835, 22.948856400034856, 33.77150069997879, 6.850542600033805]","[0.0002204999909736216, 0.01414060004753992, 16.571660100016743, 0.030068800027947873, 0.047286300046835095, 0.06509859999641776, 0.04634419997455552, 0.02988260000711307, 0.047273000003769994, 0.06113940000068396, 0.04601760004879907, 13.590383900038432, 0.03054479998536408, 17.157942299963906, 0.0638044000370428, 22.948863600031473, 0.00021890003699809313, 6.85055040003499]",0,,,,,,,,,,,,,,,,,,,,,,,,,,,,,,,,,,,,,,,,,,,,,,,,,,,,,,,,,,,,,,,,,,,,,,,,,,,,,,,,,,,,,,,,,,,,,,,,,,,,,,,,,,,,,,,,,,,,,,,,,,,,EXDRFV,train_y,blue_star,bottom_left,2025-05-19_16h34.07.185,HideSeek_v1,2022.2.5,59.976705044936466,
,,,,,,,,,,,,,,,3,0,3,0,2,0,2,0,,,,,,,,,,,,,,,,,,,,,,,,,,,,,,,conditions/schedules/train_y_first/blue_star_00/bottom_left/instructions/Slide19.png,conditions/schedules/train_y_first/blue_star_00/bottom_left/instructions/Audio19.wav,1244.3741315000225,1244.3716883199988,19,"[3.986874900001567, 18.83242250001058, 16.571652800019365, 19.036494500003755, 3.9837638000026345, 4.468191000050865, 5.102819399966393, 11.671788599982392, 5.734048999962397, 6.816827300004661, 10.12000390002504, 13.59037630003877, 17.349157500022557, 17.157934799965005, 42.746041400008835, 22.948856400034856, 33.77150069997879, 6.850542600033805, 9.869921499979682]","[0.0002204999909736216, 0.01414060004753992, 16.571660100016743, 0.030068800027947873, 0.047286300046835095, 0.06509859999641776, 0.04634419997455552, 0.02988260000711307, 0.047273000003769994, 0.06113940000068396, 0.04601760004879907, 13.590383900038432, 0.03054479998536408, 17.157942299963906, 0.0638044000370428, 22.948863600031473, 0.00021890003699809313, 0.03029859997332096, 9.869928899977822]",0,,,,,,,,,,,,,,,,,,,,,,,,,,,,,,,,,,,,,,,,,,,,,,,,,,,,,,,,,,,,,,,,,,,,,,,,,,,,,,,,,,,,,,,,,,,,,,,,,,,,,,,,,,,,,,,,,,,,,,,,,,,,EXDRFV,train_y,blue_star,bottom_left,2025-05-19_16h34.07.185,HideSeek_v1,2022.2.5,59.976705044936466,
,,,,,,,,,,,,,,,3,0,3,0,3,0,3,0,,,,,,,,,,,,,,,,,,,,,,,,,,,,,,,conditions/schedules/train_y_first/blue_star_00/bottom_left/instructions/Slide20.png,conditions/schedules/train_y_first/blue_star_00/bottom_left/instructions/Audio20.wav,1254.3180390000343,1254.3135910000128,20,"[3.986874900001567, 18.83242250001058, 16.571652800019365, 19.036494500003755, 3.9837638000026345, 4.468191000050865, 5.102819399966393, 11.671788599982392, 5.734048999962397, 6.816827300004661, 10.12000390002504, 13.59037630003877, 17.349157500022557, 17.157934799965005, 42.746041400008835, 22.948856400034856, 33.77150069997879, 6.850542600033805, 9.869921499979682, 12.953576900006738]","[0.0002204999909736216, 0.01414060004753992, 16.571660100016743, 0.030068800027947873, 0.047286300046835095, 0.06509859999641776, 0.04634419997455552, 0.02988260000711307, 0.047273000003769994, 0.06113940000068396, 0.04601760004879907, 13.590383900038432, 0.03054479998536408, 17.157942299963906, 0.0638044000370428, 22.948863600031473, 0.00021890003699809313, 0.03029859997332096, 0.030407699989154935, 12.953587699972559]",0,,,,,,,,,,,,,,,,,,,,,,,,,,,,,,,,,,,,,,,,,,,,,,,,,,,,,,,,,,,,,,,,,,,,,,,,,,,,,,,,,,,,,,,,,,,,,,,,,,,,,,,,,,,,,,,,,,,,,,,,,,,,EXDRFV,train_y,blue_star,bottom_left,2025-05-19_16h34.07.185,HideSeek_v1,2022.2.5,59.976705044936466,
1,4,0,9,0,5,0,11,2,instr_dim1_2,,,,,,3,0,3,0,,,,,0,0,0,0,,,,,,,,,,,,,,,,,,,,,,,,,,,,,,,,,,,,,stimuli/alien_stimuli/11.png,conditions/schedules/train_y_first/blue_star_00/bottom_left/inputInstr_2.xlsx,stimuli/alien_stimuli/11.png,1267.3780557000428,1267.3780557000428,1267.3780557000428,1267.3780557000428,1267.374346459977,return,5.873679100011941,"[-0.16, -0.08, 0, 0.08, 0.16, 0.24, 0.32, 0.4, 0.48, 0.56]","[-0.4, -0.32, -0.24, -0.16, -0.08, 0, 0.08, 0.16, 0.24, 0.32]",0,0,9,4,0.0,0.4,1273.4220088000293,1273.4220088000293,1273.4220088000293,1273.4220088000293,1273.4220088000293,1273.4220088000293,1273.4220088000293,1273.412655219977,7.673962600005325,return,7.507520999992266,stimuli/alien_stimuli/11.png,11,4,1,,,,,,,,,,,,,,,,,,,,,,,,,,,,,,,,,,,,,,,,,,,,,,,,,,,,,,,,,,,,,,,,,,,,,,,,,,,,,,,,,,,,,,,,,EXDRFV,train_y,blue_star,bottom_left,2025-05-19_16h34.07.185,HideSeek_v1,2022.2.5,59.976705044936466,
,,,,,,,,,,,30,,,,3,0,3,0,,,,,,,,,,,,,,,,,,,,,,,,,,,,,,,,,,,,,,,,,,,,,,,,,,,,,,,,,,,,,,,,,,,,,,,,,,,,,,21,0.7,1.125,1,99,2,30,0,conditions/schedules/train_y_first/blue_star_00/bottom_left/inputTrain_2.1.xlsx,99,1,2,1,0,,,,,,,,,,,,,,,,,,,,,,,,,,,,,,,,,,,,,,,,,,,,,,,,,,,,,,,,,,,,,,,,,,,,,,,,,,,EXDRFV,train_y,blue_star,bottom_left,2025-05-19_16h34.07.185,HideSeek_v1,2022.2.5,59.976705044936466,
,,,,,,,,,,,,,,,4,0,4,0,0,0,0,0,,,,,,,,,,,,,,,,,,,,,,,,,,,,,,,conditions/schedules/train_y_first/blue_star_00/bottom_left/instructions/Slide21.png,conditions/schedules/train_y_first/blue_star_00/bottom_left/instructions/Audio21.wav,1281.086814600043,1281.0854543199705,21,"[3.986874900001567, 18.83242250001058, 16.571652800019365, 19.036494500003755, 3.9837638000026345, 4.468191000050865, 5.102819399966393, 11.671788599982392, 5.734048999962397, 6.816827300004661, 10.12000390002504, 13.59037630003877, 17.349157500022557, 17.157934799965005, 42.746041400008835, 22.948856400034856, 33.77150069997879, 6.850542600033805, 9.869921499979682, 12.953576900006738, 12.339747400023043]","[0.0002204999909736216, 0.01414060004753992, 16.571660100016743, 0.030068800027947873, 0.047286300046835095, 0.06509859999641776, 0.04634419997455552, 0.02988260000711307, 0.047273000003769994, 0.06113940000068396, 0.04601760004879907, 13.590383900038432, 0.03054479998536408, 17.157942299963906, 0.0638044000370428, 22.948863600031473, 0.00021890003699809313, 0.03029859997332096, 0.030407699989154935, 12.953587699972559, 12.339758799993433]",0,,,,,,,,,,,,,,,,,,,,,,,,,,,,,,,,,,,,,,,,,,,,,,,,,,,,,,,,,,,,,,,,,,,,,,,,,,,,,,,,,,,,,,,,,,,,,,,,,,,,,,,,,,,,,,,,,,,,,,,,,,,,EXDRFV,train_y,blue_star,bottom_left,2025-05-19_16h34.07.185,HideSeek_v1,2022.2.5,59.976705044936466,
2,3,2,3,2,0,0,61,2,instr_dim1_2,,,,,,4,0,4,0,,,,,0,0,0,0,,,,,,,,,,,,,,,,,,,,,,,,,,,,,,,,,,,,,stimuli/alien_stimuli/61.png,conditions/schedules/train_y_first/blue_star_00/bottom_left/inputInstr_2.xlsx,stimuli/alien_stimuli/61.png,1293.5270049000392,1293.5270049000392,1293.5270049000392,1293.5270049000392,1293.5126114799757,return,5.326071200019214,"[-0.16, -0.08, 0, 0.08, 0.16, 0.24, 0.32, 0.4, 0.48, 0.56]","[-0.4, -0.32, -0.24, -0.16, -0.08, 0, 0.08, 0.16, 0.24, 0.32]",2,2,3,3,0.0,0.0,1299.0205135000288,1299.0205135000288,1299.0205135000288,1299.0205135000288,1299.0205135000288,1299.0205135000288,1299.0205135000288,1299.0003228399785,0.3016473000170663,return,0.135802699951455,stimuli/alien_stimuli/61.png,61,3,2,,,,,,,,,,,,,,,,,,,,,,,,,,,,,,,,,,,,,,,,,,,,,,,,,,,,,,,,,,,,,,,,,,,,,,,,,,,,,,,,,,,,,,,,,EXDRFV,train_y,blue_star,bottom_left,2025-05-19_16h34.07.185,HideSeek_v1,2022.2.5,59.976705044936466,
,,,,,,,,,,,30,,,,4,0,4,0,,,,,,,,,,,,,,,,,,,,,,,,,,,,,,,,,,,,,,,,,,,,,,,,,,,,,,,,,,,,,,,,,,,,,,,,,,,,,,21,0.7,1.125,1,99,2,30,0,conditions/schedules/train_y_first/blue_star_00/bottom_left/inputTrain_2.1.xlsx,99,1,2,1,0,,,,,,,,,,,,,,,,,,,,,,,,,,,,,,,,,,,,,,,,,,,,,,,,,,,,,,,,,,,,,,,,,,,,,,,,,,,EXDRFV,train_y,blue_star,bottom_left,2025-05-19_16h34.07.185,HideSeek_v1,2022.2.5,59.976705044936466,
,,,,,,,,,,,,,,,5,0,5,0,0,0,0,0,,,,,,,,,,,,,,,,,,,,,,,,,,,,,,,conditions/schedules/train_y_first/blue_star_00/bottom_left/instructions/Slide22.png,conditions/schedules/train_y_first/blue_star_00/bottom_left/instructions/Audio22.wav,1299.3355275000213,1299.3340307999752,22,"[3.986874900001567, 18.83242250001058, 16.571652800019365, 19.036494500003755, 3.9837638000026345, 4.468191000050865, 5.102819399966393, 11.671788599982392, 5.734048999962397, 6.816827300004661, 10.12000390002504, 13.59037630003877, 17.349157500022557, 17.157934799965005, 42.746041400008835, 22.948856400034856, 33.77150069997879, 6.850542600033805, 9.869921499979682, 12.953576900006738, 12.339747400023043, 44.43309359997511]","[0.0002204999909736216, 0.01414060004753992, 16.571660100016743, 0.030068800027947873, 0.047286300046835095, 0.06509859999641776, 0.04634419997455552, 0.02988260000711307, 0.047273000003769994, 0.06113940000068396, 0.04601760004879907, 13.590383900038432, 0.03054479998536408, 17.157942299963906, 0.0638044000370428, 22.948863600031473, 0.00021890003699809313, 0.03029859997332096, 0.030407699989154935, 12.953587699972559, 12.339758799993433, 44.43310119997477]",0,,,,,,,,,,,,,,,,,,,,,,,,,,,,,,,,,,,,,,,,,,,,,,,,,,,,,,,,,,,,,,,,,,,,,,,,,,,,,,,,,,,,,,,,,,,,,,,,,,,,,,,,,,,,,,,,,,,,,,,,,,,,EXDRFV,train_y,blue_star,bottom_left,2025-05-19_16h34.07.185,HideSeek_v1,2022.2.5,59.976705044936466,
,2,1,5,1,3,0,31,,train_dim1_2,1,30,,,,5,0,5,0,,,,,,,,,0,0,0,0,0,0,0,0,0,0,0,0,,,,,,,,,,,,,,,,,,,,,,,,,stimuli/alien_stimuli/31.png,,,,,,,,,,,,,,,,,,,,,,,,,,,,,,,,,,,,,,,30,,,,,,,,1343.8803086000262,1343.8803086000262,1343.8803086000262,1343.8803086000262,1343.8803086000262,right,5.531362499983516,0,0,0,99,0.08,-0.32,right,5.417935100034811,,,,,,,,,,,,,,,,,,,,,,,,,,,,,,,,,,,,,,,,,,,,,,,,,,,,,,,,,,,,EXDRFV,train_y,blue_star,bottom_left,2025-05-19_16h34.07.185,HideSeek_v1,2022.2.5,59.976705044936466,
,2,1,5,1,3,0,31,,train_dim1_2,1,30,,,,5,0,5,0,,,,,,,,,0,0,0,0,0,0,0,0,1,0,1,0,,,,,,,,,,,,,,,,,,,,,,,,,,,,,,,,,,,,,,,,,,,,,,,,,,,,,,,,,,,,,,,,30,,,,,,,,1349.391343700001,1349.391343700001,1349.391343700001,1349.391343700001,1349.391343700001,right,2.4436302999965847,0,0,0,99,0.16,-0.32,right,2.3673302000388503,,,,,,,,,,,,,,,,,,,,,,,,,,,,,,,,,,,,,,,,,,,,,,,,,,,,,,,,,,,,EXDRFV,train_y,blue_star,bottom_left,2025-05-19_16h34.07.185,HideSeek_v1,2022.2.5,59.976705044936466,
,2,1,5,1,3,0,31,,train_dim1_2,1,30,,,,5,0,5,0,,,,,,,,,0,0,0,0,0,0,0,0,2,0,2,0,,,,,,,,,,,,,,,,,,,,,,,,,,,,,,,,,,,,,,,,,,,,,,,,,,,,,,,,,,,,,,,,30,,,,,,,,1351.842481300002,1351.842481300002,1351.842481300002,1351.842481300002,1351.842481300002,right,1.110326400026679,0,0,0,99,0.24,-0.32,right,1.0262554999790154,,,,,,,,,,,,,,,,,,,,,,,,,,,,,,,,,,,,,,,,,,,,,,,,,,,,,,,,,,,,EXDRFV,train_y,blue_star,bottom_left,2025-05-19_16h34.07.185,HideSeek_v1,2022.2.5,59.976705044936466,
,2,1,5,1,3,0,31,,train_dim1_2,1,30,,,,5,0,5,0,,,,,,,,,0,0,0,0,0,0,0,0,3,0,3,0,,,,,,,,,,,,,,,,,,,,,,,,,,,,,,,,,,,,,,,,,,,,,,,,,,,,,,,,,,,,,,,,30,,,,,,,,1352.9580152000417,1352.9580152000417,1352.9580152000417,1352.9580152000417,1352.9580152000417,right,2.4447209000354633,0,0,0,99,0.32,-0.32,right,2.373068799963221,,,,,,,,,,,,,,,,,,,,,,,,,,,,,,,,,,,,,,,,,,,,,,,,,,,,,,,,,,,,EXDRFV,train_y,blue_star,bottom_left,2025-05-19_16h34.07.185,HideSeek_v1,2022.2.5,59.976705044936466,
,2,1,5,1,3,0,31,,train_dim1_2,1,30,,,,5,0,5,0,,,,,,,,,0,0,0,0,0,0,0,0,4,0,4,0,,,,,,,,,,,,,,,,,,,,,,,,,,,,,,,,,,,,,,,,,,,,,,,,,,,,,,,,,,,,,,,,30,,,,,,,,1355.4116993000498,1355.4116993000498,1355.4116993000498,1355.4116993000498,1355.4116993000498,return,1.0424617000389844,0,1,0,0,0.32,-0.32,return,0.9545180999557488,76,4,0.32,-0.32,,,,,,,,,,,,,,,,,,,,,,,,,,,,,,,,,,,,,,,,,,,,,,,,,,,,,,,,EXDRFV,train_y,blue_star,bottom_left,2025-05-19_16h34.07.185,HideSeek_v1,2022.2.5,59.976705044936466,
,2,4,7,4,5,0,11,,train_dim1_2,2,30,,,,5,0,5,0,,,,,,,,,0,0,0,0,0,1,1,1,0,0,0,0,,,,,,,,,,,,,,,,,,,,,,,,,stimuli/alien_stimuli/11.png,,,,,,,,,,,,,,,,,,,,,,,,,,,,,stimuli/alien_stimuli/31.png,31,2,3,,,,,,,30,,,,,,,,1362.4848499000072,1362.4848499000072,1362.4848499000072,1362.4848499000072,1362.4848499000072,right,1.704548999958206,0,1,0,99,0.08,-0.08,right,1.60385860002134,,,,,1360.918703800009,1362.4848499000072,0.24,-0.32,0.0,0.24,-0.32,0.24,0.12,0.24,-0.32,1358.0306567000225,1358.0306567000225,1358.0306567000225,1358.0306567000225,1358.0306567000225,1358.0306567000225,1358.0306567000225,1358.0306567000225,1358.0159428599814,3.0046192000154406,return,2.8643420999869704,,,,,,,,,,,,,,,,,,,,,,,,,,,,,,,,,EXDRFV,train_y,blue_star,bottom_left,2025-05-19_16h34.07.185,HideSeek_v1,2022.2.5,59.976705044936466,
,2,4,7,4,5,0,11,,train_dim1_2,2,30,,,,5,0,5,0,,,,,,,,,0,0,0,0,0,1,1,1,1,0,1,0,,,,,,,,,,,,,,,,,,,,,,,,,,,,,,,,,,,,,,,,,,,,,,,,,,,,,,,,,,,,,,,,30,,,,,,,,1364.1897235000506,1364.1897235000506,1364.1897235000506,1364.1897235000506,1364.1897235000506,right,0.39232079999055713,0,1,0,99,0.16,-0.08,right,0.3134155999869108,,,,,,,,,,,,,,,,,,,,,,,,,,,,,,,,,,,,,,,,,,,,,,,,,,,,,,,,,,,,EXDRFV,train_y,blue_star,bottom_left,2025-05-19_16h34.07.185,HideSeek_v1,2022.2.5,59.976705044936466,
,2,4,7,4,5,0,11,,train_dim1_2,2,30,,,,5,0,5,0,,,,,,,,,0,0,0,0,0,1,1,1,2,0,2,0,,,,,,,,,,,,,,,,,,,,,,,,,,,,,,,,,,,,,,,,,,,,,,,,,,,,,,,,,,,,,,,,30,,,,,,,,1364.5957020000205,1364.5957020000205,1364.5957020000205,1364.5957020000205,1364.5957020000205,right,0.4067390999989584,0,1,0,99,0.24,-0.08,right,0.319753399991896,,,,,,,,,,,,,,,,,,,,,,,,,,,,,,,,,,,,,,,,,,,,,,,,,,,,,,,,,,,,EXDRFV,train_y,blue_star,bottom_left,2025-05-19_16h34.07.185,HideSeek_v1,2022.2.5,59.976705044936466,
,2,4,7,4,5,0,11,,train_dim1_2,2,30,,,,5,0,5,0,,,,,,,,,0,0,0,0,0,1,1,1,3,0,3,0,,,,,,,,,,,,,,,,,,,,,,,,,,,,,,,,,,,,,,,,,,,,,,,,,,,,,,,,,,,,,,,,30,,,,,,,,1365.00879360002,1365.00879360002,1365.00879360002,1365.00879360002,1365.00879360002,right,0.6749359000241384,0,1,0,99,0.32,-0.08,right,0.5955870999605395,,,,,,,,,,,,,,,,,,,,,,,,,,,,,,,,,,,,,,,,,,,,,,,,,,,,,,,,,,,,EXDRFV,train_y,blue_star,bottom_left,2025-05-19_16h34.07.185,HideSeek_v1,2022.2.5,59.976705044936466,
,2,4,7,4,5,0,11,,train_dim1_2,2,30,,,,5,0,5,0,,,,,,,,,0,0,0,0,0,1,1,1,4,0,4,0,,,,,,,,,,,,,,,,,,,,,,,,,,,,,,,,,,,,,,,,,,,,,,,,,,,,,,,,,,,,,,,,30,,,,,,,,1365.6906682000263,1365.6906682000263,1365.6906682000263,1365.6906682000263,1365.6906682000263,return,1.3270771999959834,0,1,0,0,0.32,-0.08,return,1.2358418999938294,76,8,0.32,-0.08,,,,,,,,,,,,,,,,,,,,,,,,,,,,,,,,,,,,,,,,,,,,,,,,,,,,,,,,EXDRFV,train_y,blue_star,bottom_left,2025-05-19_16h34.07.185,HideSeek_v1,2022.2.5,59.976705044936466,
,4,4,8,4,4,0,21,,train_dim1_2,3,30,,,,5,0,5,0,,,,,,,,,0,0,0,0,0,2,2,2,0,0,0,0,,,,,,,,,,,,,,,,,,,,,,,,,stimuli/alien_stimuli/21.png,,,,,,,,,,,,,,,,,,,,,,,,,,,,,stimuli/alien_stimuli/11.png,11,2,4,,,,,,,30,,,,,,,,1372.4273942,1372.4273942,1372.4273942,1372.4273942,1372.4273942,right,1.5030585000058636,0,1,0,99,0.24,-0.08,right,1.3899542999570258,,,,,1370.8437798999948,1372.4273942,0.4,-0.08,0.0,0.4,-0.08,0.4,0.2,0.4,-0.08,1368.6104733000393,1368.6104733000393,1368.6104733000393,1368.6104733000393,1368.6104733000393,1368.6104733000393,1368.6104733000393,1368.6104733000393,1368.591451439983,2.3706991000217386,return,2.2047420000308193,,,,,,,,,,,,,,,,,,,,,,,,,,,,,,,,,EXDRFV,train_y,blue_star,bottom_left,2025-05-19_16h34.07.185,HideSeek_v1,2022.2.5,59.976705044936466,
,4,4,8,4,4,0,21,,train_dim1_2,3,30,,,,5,0,5,0,,,,,,,,,0,0,0,0,0,2,2,2,1,0,1,0,,,,,,,,,,,,,,,,,,,,,,,,,,,,,,,,,,,,,,,,,,,,,,,,,,,,,,,,,,,,,,,,30,,,,,,,,1373.9155972000444,1373.9155972000444,1373.9155972000444,1373.9155972000444,1373.9155972000444,right,0.4075518000172451,0,1,0,99,0.32,-0.08,right,0.3302780000376515,,,,,,,,,,,,,,,,,,,,,,,,,,,,,,,,,,,,,,,,,,,,,,,,,,,,,,,,,,,,EXDRFV,train_y,blue_star,bottom_left,2025-05-19_16h34.07.185,HideSeek_v1,2022.2.5,59.976705044936466,
,4,4,8,4,4,0,21,,train_dim1_2,3,30,,,,5,0,5,0,,,,,,,,,0,0,0,0,0,2,2,2,2,0,2,0,,,,,,,,,,,,,,,,,,,,,,,,,,,,,,,,,,,,,,,,,,,,,,,,,,,,,,,,,,,,,,,,30,,,,,,,,1374.3302558000432,1374.3302558000432,1374.3302558000432,1374.3302558000432,1374.3302558000432,right,0.45990449999226257,0,1,0,99,0.4,-0.08,right,0.373434700013604,,,,,,,,,,,,,,,,,,,,,,,,,,,,,,,,,,,,,,,,,,,,,,,,,,,,,,,,,,,,EXDRFV,train_y,blue_star,bottom_left,2025-05-19_16h34.07.185,HideSeek_v1,2022.2.5,59.976705044936466,
,4,4,8,4,4,0,21,,train_dim1_2,3,30,,,,5,0,5,0,,,,,,,,,0,0,0,0,0,2,2,2,3,0,3,0,,,,,,,,,,,,,,,,,,,,,,,,,,,,,,,,,,,,,,,,,,,,,,,,,,,,,,,,,,,,,,,,30,,,,,,,,1374.7972164000385,1374.7972164000385,1374.7972164000385,1374.7972164000385,1374.7972164000385,right,0.7097739999881014,0,1,0,99,0.48000000000000004,-0.08,right,0.6258819000213407,,,,,,,,,,,,,,,,,,,,,,,,,,,,,,,,,,,,,,,,,,,,,,,,,,,,,,,,,,,,EXDRFV,train_y,blue_star,bottom_left,2025-05-19_16h34.07.185,HideSeek_v1,2022.2.5,59.976705044936466,
