trialInstr,x_fixStart,y_fixStart,x_corrSteps,y_corrSteps,x_nrSteps,y_nrSteps,alienID,trialLength,version,trialTrain,praclen,testlen,trial_label,break_on_off,beforeExpLoop.thisRepN,beforeExpLoop.thisTrialN,beforeExpLoop.thisN,beforeExpLoop.thisIndex,mini_instr_trials.thisRepN,mini_instr_trials.thisTrialN,mini_instr_trials.thisN,mini_instr_trials.thisIndex,instrLoop.thisRepN,instrLoop.thisTrialN,instrLoop.thisN,instrLoop.thisIndex,repeat_prac.thisRepN,repeat_prac.thisTrialN,repeat_prac.thisN,repeat_prac.thisIndex,trainLoop.thisRepN,trainLoop.thisTrialN,trainLoop.thisN,trainLoop.thisIndex,moveLoop_train.thisRepN,moveLoop_train.thisTrialN,moveLoop_train.thisN,moveLoop_train.thisIndex,experiment.thisRepN,experiment.thisTrialN,experiment.thisN,experiment.thisIndex,moveLoop_test.thisRepN,moveLoop_test.thisTrialN,moveLoop_test.thisN,moveLoop_test.thisIndex,mini_instr2_trials.thisRepN,mini_instr2_trials.thisTrialN,mini_instr2_trials.thisN,mini_instr2_trials.thisIndex,start_all_time,url,slideStim,audioStim,slides.started,sounds.started,nextButton.numClicks,nextButton.timesOn,nextButton.timesOff,prev_but.numClicks,prev_but.timesOn,prev_but.timesOff,alienStim,instrFile,alienStim_instr,gridImage_instr.started,startPos_3.started,key_instr.started,alienImage_3.started,sounds_1.started,key_instr.keys,key_instr.rt,all_x,all_y,FBy_corrSteps,FBy_fixStart,FBx_corrSteps,FBx_fixStart,FBy_pathSize_check,FBx_pathSize_check,gridImage_9.started,alienImageFB_3.started,startPosFB_3.started,keyFB_3.started,pathLine_ydir_2.started,pathLine_xdir_2.started,alienFace_3.started,sounds_2.started,RTFB_instr,keyFB_3.keys,keyFB_3.rt,draw_alienStim,draw_alienID,test_x,nrepcount,perfthres,percthres,earlierperf,earlystop,nextPrac,fileidx,praclen,saveACC_train,pracFile,nextPrac_train,addNrep,fileidx_endr,repExp,showearly,gridImage_4.started,startPos.started,movePos.started,key_resp.started,alienImage.started,buttonPress_train,RTchoice_train,cumAcctrain,aCorr,saveACC_choice,corrAns,x_movePos_end,y_movePos_end,key_resp.keys,key_resp.rt,wLy_dir,wLx_dir,x_movePos,y_movePos,text_2.started,text_2.stopped,aft_x_corrPos,aft_y_corrPos,y_pathSize_check,x_pathSize_check,y_pathdirY,x_pathdirY,x_pathdirX,x_corrPos,y_corrPos,gridImage_6.started,alienImageFB_2.started,startPosFB_2.started,movePosFB_2.started,keyFB_2.started,pathLine_xdir.started,pathLine_ydir.started,alienFace.started,sounds_4.started,RT_FBtrain,keyFB_2.keys,keyFB_2.rt,saveACC_pre,ACC,within_saveACC_train,earlystop_wloop,cumAcctrain_check,gridImage_3.started,alienImage_test.started,startPos_test.started,movePos_test.started,key_resp_test.started,wLy_dir_test,wLx_dir_test,buttonPress_test,RTchoice_test,cumAcctest,corrAns_test,key_resp_test.keys,key_resp_test.rt,text_3.started,text_3.stopped,total_time,end_all_time,key_resp_3.keys,slides_2.started,sounds_3.started,nextButton_2.numClicks,nextButton_2.timesOn,nextButton_2.timesOff,prev_but_2.numClicks,prev_but_2.timesOn,prev_but_2.timesOff,bye.started,participant,train_first,00_coordinate,starting corner,date,expName,psychopyVersion,frameRate,
,,,,,,,,,,,,,,,0,0,0,0,0,0,0,0,,,,,,,,,,,,,,,,,,,,,,,,,,,,,start_all_time,testround,conditions/schedules/train_x_first/blue_star_00/top_left/instructions/Slide1.png,conditions/schedules/train_x_first/blue_star_00/top_left/instructions/Audio1.wav,410.14096899994183,410.07886370122435,1,[6.592996500083245],[6.59300340001937],0,,,,,,,,,,,,,,,,,,,,,,,,,,,,,,,,,,,,,,,,,,,,,,,,,,,,,,,,,,,,,,,,,,,,,,,,,,,,,,,,,,,,,,,,,,,,,,,,,,,,,,,,,,,,,,,,,,,,,,,,,,,,EYKRNY,train_x,blue_star,top_left,2025-09-05_14h22.06.497,HideSeek_v1,2022.2.5,59.950277266211366,
,,,,,,,,,,,,,,,0,0,0,0,1,0,1,0,,,,,,,,,,,,,,,,,,,,,,,,,,,,,,,conditions/schedules/train_x_first/blue_star_00/top_left/instructions/Slide2.png,conditions/schedules/train_x_first/blue_star_00/top_left/instructions/Audio2.wav,416.7545425000135,416.75318690005224,2,"[6.592996500083245, 18.81319140002597]","[0.01560600008815527, 18.81319810007699]",0,,,,,,,,,,,,,,,,,,,,,,,,,,,,,,,,,,,,,,,,,,,,,,,,,,,,,,,,,,,,,,,,,,,,,,,,,,,,,,,,,,,,,,,,,,,,,,,,,,,,,,,,,,,,,,,,,,,,,,,,,,,,EYKRNY,train_x,blue_star,top_left,2025-09-05_14h22.06.497,HideSeek_v1,2022.2.5,59.950277266211366,
,,,,,,,,,,,,,,,0,0,0,0,2,0,2,0,,,,,,,,,,,,,,,,,,,,,,,,,,,,,,,conditions/schedules/train_x_first/blue_star_00/top_left/instructions/Slide3.png,conditions/schedules/train_x_first/blue_star_00/top_left/instructions/Audio3.wav,435.6426675999537,435.6355509000132,3,"[6.592996500083245, 18.81319140002597, 10.148424300015904]","[0.01560600008815527, 0.0002728999825194478, 10.148430800065398]",0,,,,,,,,,,,,,,,,,,,,,,,,,,,,,,,,,,,,,,,,,,,,,,,,,,,,,,,,,,,,,,,,,,,,,,,,,,,,,,,,,,,,,,,,,,,,,,,,,,,,,,,,,,,,,,,,,,,,,,,,,,,,EYKRNY,train_x,blue_star,top_left,2025-09-05_14h22.06.497,HideSeek_v1,2022.2.5,59.950277266211366,
,,,,,,,,,,,,,,,0,0,0,0,3,0,3,0,,,,,,,,,,,,,,,,,,,,,,,,,,,,,,,conditions/schedules/train_x_first/blue_star_00/top_left/instructions/Slide4.png,conditions/schedules/train_x_first/blue_star_00/top_left/instructions/Audio4.wav,445.8610972999595,445.86015520000365,3,"[6.592996500083245, 18.81319140002597, 10.148424300015904]","[0.01560600008815527, 0.0002728999825194478, 0.00021820003166794777]",1,[1.8993626999435946],[1.8993697999976575],,,,,,,,,,,,,,,,,,,,,,,,,,,,,,,,,,,,,,,,,,,,,,,,,,,,,,,,,,,,,,,,,,,,,,,,,,,,,,,,,,,,,,,,,,,,,,,,,,,,,,,,,,,,,,,,,,,,,,,,,,EYKRNY,train_x,blue_star,top_left,2025-09-05_14h22.06.497,HideSeek_v1,2022.2.5,59.950277266211366,
,,,,,,,,,,,,,,,0,0,0,0,4,0,4,0,,,,,,,,,,,,,,,,,,,,,,,,,,,,,,,conditions/schedules/train_x_first/blue_star_00/top_left/instructions/Slide3.png,conditions/schedules/train_x_first/blue_star_00/top_left/instructions/Audio3.wav,447.8212704999605,447.8125420000171,4,"[6.592996500083245, 18.81319140002597, 10.148424300015904, 18.238745699985884]","[0.01560600008815527, 0.0002728999825194478, 0.00021820003166794777, 18.238753200042993]",1,[1.8993626999435946],[0.00015239999629557133],,,,,,,,,,,,,,,,,,,,,,,,,,,,,,,,,,,,,,,,,,,,,,,,,,,,,,,,,,,,,,,,,,,,,,,,,,,,,,,,,,,,,,,,,,,,,,,,,,,,,,,,,,,,,,,,,,,,,,,,,,EYKRNY,train_x,blue_star,top_left,2025-09-05_14h22.06.497,HideSeek_v1,2022.2.5,59.950277266211366,
,,,,,,,,,,,,,,,0,0,0,0,5,0,5,0,,,,,,,,,,,,,,,,,,,,,,,,,,,,,,,conditions/schedules/train_x_first/blue_star_00/top_left/instructions/Slide4.png,conditions/schedules/train_x_first/blue_star_00/top_left/instructions/Audio4.wav,466.13519810000435,466.1268304999685,5,"[6.592996500083245, 18.81319140002597, 10.148424300015904, 18.238745699985884, 19.306534700095654]","[0.01560600008815527, 0.0002728999825194478, 0.00021820003166794777, 18.238753200042993, 19.306542700040154]",1,[1.8993626999435946],[0.00015239999629557133],,,,,,,,,,,,,,,,,,,,,,,,,,,,,,,,,,,,,,,,,,,,,,,,,,,,,,,,,,,,,,,,,,,,,,,,,,,,,,,,,,,,,,,,,,,,,,,,,,,,,,,,,,,,,,,,,,,,,,,,,,EYKRNY,train_x,blue_star,top_left,2025-09-05_14h22.06.497,HideSeek_v1,2022.2.5,59.950277266211366,
,,,,,,,,,,,,,,,0,0,0,0,6,0,6,0,,,,,,,,,,,,,,,,,,,,,,,,,,,,,,,conditions/schedules/train_x_first/blue_star_00/top_left/instructions/Slide5.png,conditions/schedules/train_x_first/blue_star_00/top_left/instructions/Audio5.wav,485.51563599996734,485.5097710000118,6,"[6.592996500083245, 18.81319140002597, 10.148424300015904, 18.238745699985884, 19.306534700095654, 4.545379800023511]","[0.01560600008815527, 0.0002728999825194478, 0.00021820003166794777, 18.238753200042993, 0.031145600019954145, 4.545387100079097]",1,[1.8993626999435946],[0.00015239999629557133],,,,,,,,,,,,,,,,,,,,,,,,,,,,,,,,,,,,,,,,,,,,,,,,,,,,,,,,,,,,,,,,,,,,,,,,,,,,,,,,,,,,,,,,,,,,,,,,,,,,,,,,,,,,,,,,,,,,,,,,,,EYKRNY,train_x,blue_star,top_left,2025-09-05_14h22.06.497,HideSeek_v1,2022.2.5,59.950277266211366,
,,,,,,,,,,,,,,,0,0,0,0,7,0,7,0,,,,,,,,,,,,,,,,,,,,,,,,,,,,,,,conditions/schedules/train_x_first/blue_star_00/top_left/instructions/Slide6.png,conditions/schedules/train_x_first/blue_star_00/top_left/instructions/Audio6.wav,490.11358659993857,490.11342120000626,7,"[6.592996500083245, 18.81319140002597, 10.148424300015904, 18.238745699985884, 19.306534700095654, 4.545379800023511, 5.83669240004383]","[0.01560600008815527, 0.0002728999825194478, 0.00021820003166794777, 18.238753200042993, 0.031145600019954145, 0.048732100054621696, 5.836699099978432]",1,[1.8993626999435946],[0.00015239999629557133],,,,,,,,,,,,,,,,,,,,,,,,,,,,,,,,,,,,,,,,,,,,,,,,,,,,,,,,,,,,,,,,,,,,,,,,,,,,,,,,,,,,,,,,,,,,,,,,,,,,,,,,,,,,,,,,,,,,,,,,,,EYKRNY,train_x,blue_star,top_left,2025-09-05_14h22.06.497,HideSeek_v1,2022.2.5,59.950277266211366,
,,,,,,,,,,,,,,,0,0,0,0,8,0,8,0,,,,,,,,,,,,,,,,,,,,,,,,,,,,,,,conditions/schedules/train_x_first/blue_star_00/top_left/instructions/Slide7.png,conditions/schedules/train_x_first/blue_star_00/top_left/instructions/Audio7.wav,496.00109969999176,496.00162010004277,8,"[6.592996500083245, 18.81319140002597, 10.148424300015904, 18.238745699985884, 19.306534700095654, 4.545379800023511, 5.83669240004383, 5.386440200032666]","[0.01560600008815527, 0.0002728999825194478, 0.00021820003166794777, 18.238753200042993, 0.031145600019954145, 0.048732100054621696, 0.03211050003301352, 5.386446899967268]",1,[1.8993626999435946],[0.00015239999629557133],,,,,,,,,,,,,,,,,,,,,,,,,,,,,,,,,,,,,,,,,,,,,,,,,,,,,,,,,,,,,,,,,,,,,,,,,,,,,,,,,,,,,,,,,,,,,,,,,,,,,,,,,,,,,,,,,,,,,,,,,,EYKRNY,train_x,blue_star,top_left,2025-09-05_14h22.06.497,HideSeek_v1,2022.2.5,59.950277266211366,
,,,,,,,,,,,,,,,0,0,0,0,9,0,9,0,,,,,,,,,,,,,,,,,,,,,,,,,,,,,,,conditions/schedules/train_x_first/blue_star_00/top_left/instructions/Slide8.png,conditions/schedules/train_x_first/blue_star_00/top_left/instructions/Audio8.wav,501.4427249999717,501.4395130000077,9,"[6.592996500083245, 18.81319140002597, 10.148424300015904, 18.238745699985884, 19.306534700095654, 4.545379800023511, 5.83669240004383, 5.386440200032666, 11.236970699974336]","[0.01560600008815527, 0.0002728999825194478, 0.00021820003166794777, 18.238753200042993, 0.031145600019954145, 0.048732100054621696, 0.03211050003301352, 0.047719899914227426, 11.236977699911222]",1,[1.8993626999435946],[0.00015239999629557133],,,,,,,,,,,,,,,,,,,,,,,,,,,,,,,,,,,,,,,,,,,,,,,,,,,,,,,,,,,,,,,,,,,,,,,,,,,,,,,,,,,,,,,,,,,,,,,,,,,,,,,,,,,,,,,,,,,,,,,,,,EYKRNY,train_x,blue_star,top_left,2025-09-05_14h22.06.497,HideSeek_v1,2022.2.5,59.950277266211366,
,,,,,,,,,,,,,,,0,0,0,0,10,0,10,0,,,,,,,,,,,,,,,,,,,,,,,,,,,,,,,conditions/schedules/train_x_first/blue_star_00/top_left/instructions/Slide9.png,conditions/schedules/train_x_first/blue_star_00/top_left/instructions/Audio9.wav,512.7511574999662,512.7489522999385,10,"[6.592996500083245, 18.81319140002597, 10.148424300015904, 18.238745699985884, 19.306534700095654, 4.545379800023511, 5.83669240004383, 5.386440200032666, 11.236970699974336, 6.0512185000116006]","[0.01560600008815527, 0.0002728999825194478, 0.00021820003166794777, 18.238753200042993, 0.031145600019954145, 0.048732100054621696, 0.03211050003301352, 0.047719899914227426, 0.031372199999168515, 6.051226299954578]",1,[1.8993626999435946],[0.00015239999629557133],,,,,,,,,,,,,,,,,,,,,,,,,,,,,,,,,,,,,,,,,,,,,,,,,,,,,,,,,,,,,,,,,,,,,,,,,,,,,,,,,,,,,,,,,,,,,,,,,,,,,,,,,,,,,,,,,,,,,,,,,,EYKRNY,train_x,blue_star,top_left,2025-09-05_14h22.06.497,HideSeek_v1,2022.2.5,59.950277266211366,
,,,,,,,,,,,,,,,0,0,0,0,11,0,11,0,,,,,,,,,,,,,,,,,,,,,,,,,,,,,,,conditions/schedules/train_x_first/blue_star_00/top_left/instructions/Slide10.png,conditions/schedules/train_x_first/blue_star_00/top_left/instructions/Audio10.wav,518.8408227999462,518.837504600035,11,"[6.592996500083245, 18.81319140002597, 10.148424300015904, 18.238745699985884, 19.306534700095654, 4.545379800023511, 5.83669240004383, 5.386440200032666, 11.236970699974336, 6.0512185000116006, 6.5661635000724345]","[0.01560600008815527, 0.0002728999825194478, 0.00021820003166794777, 18.238753200042993, 0.031145600019954145, 0.048732100054621696, 0.03211050003301352, 0.047719899914227426, 0.031372199999168515, 0.04857610003091395, 6.566170600010082]",1,[1.8993626999435946],[0.00015239999629557133],,,,,,,,,,,,,,,,,,,,,,,,,,,,,,,,,,,,,,,,,,,,,,,,,,,,,,,,,,,,,,,,,,,,,,,,,,,,,,,,,,,,,,,,,,,,,,,,,,,,,,,,,,,,,,,,,,,,,,,,,,EYKRNY,train_x,blue_star,top_left,2025-09-05_14h22.06.497,HideSeek_v1,2022.2.5,59.950277266211366,
,,,,,,,,,,,,,,,0,0,0,0,12,0,12,0,,,,,,,,,,,,,,,,,,,,,,,,,,,,,,,conditions/schedules/train_x_first/blue_star_00/top_left/instructions/Slide11.png,conditions/schedules/train_x_first/blue_star_00/top_left/instructions/Audio11.wav,525.4868146999506,525.4761163999792,12,"[6.592996500083245, 18.81319140002597, 10.148424300015904, 18.238745699985884, 19.306534700095654, 4.545379800023511, 5.83669240004383, 5.386440200032666, 11.236970699974336, 6.0512185000116006, 6.5661635000724345, 9.328473699977621]","[0.01560600008815527, 0.0002728999825194478, 0.00021820003166794777, 18.238753200042993, 0.031145600019954145, 0.048732100054621696, 0.03211050003301352, 0.047719899914227426, 0.031372199999168515, 0.04857610003091395, 0.014901399961672723, 9.328480300027877]",1,[1.8993626999435946],[0.00015239999629557133],,,,,,,,,,,,,,,,,,,,,,,,,,,,,,,,,,,,,,,,,,,,,,,,,,,,,,,,,,,,,,,,,,,,,,,,,,,,,,,,,,,,,,,,,,,,,,,,,,,,,,,,,,,,,,,,,,,,,,,,,,EYKRNY,train_x,blue_star,top_left,2025-09-05_14h22.06.497,HideSeek_v1,2022.2.5,59.950277266211366,
,,,,,,,,,,,,,,,0,0,0,0,13,0,13,0,,,,,,,,,,,,,,,,,,,,,,,,,,,,,,,conditions/schedules/train_x_first/blue_star_00/top_left/instructions/Slide12.png,conditions/schedules/train_x_first/blue_star_00/top_left/instructions/Audio12.wav,534.8885194000322,534.8838734000456,13,"[6.592996500083245, 18.81319140002597, 10.148424300015904, 18.238745699985884, 19.306534700095654, 4.545379800023511, 5.83669240004383, 5.386440200032666, 11.236970699974336, 6.0512185000116006, 6.5661635000724345, 9.328473699977621, 12.420127600082196]","[0.01560600008815527, 0.0002728999825194478, 0.00021820003166794777, 18.238753200042993, 0.031145600019954145, 0.048732100054621696, 0.03211050003301352, 0.047719899914227426, 0.031372199999168515, 0.04857610003091395, 0.014901399961672723, 0.04748810001183301, 12.420134200016037]",1,[1.8993626999435946],[0.00015239999629557133],,,,,,,,,,,,,,,,,,,,,,,,,,,,,,,,,,,,,,,,,,,,,,,,,,,,,,,,,,,,,,,,,,,,,,,,,,,,,,,,,,,,,,,,,,,,,,,,,,,,,,,,,,,,,,,,,,,,,,,,,,EYKRNY,train_x,blue_star,top_left,2025-09-05_14h22.06.497,HideSeek_v1,2022.2.5,59.950277266211366,
1,4,5,9,5,5,0,11,2,instr_dim1_1,,,,,,0,0,0,0,,,,,0,0,0,0,,,,,,,,,,,,,,,,,,,,,,,,,,,,,,,,,,,,,stimuli/alien_stimuli/11.png,conditions/schedules/train_x_first/blue_star_00/top_left/inputInstr_1.xlsx,stimuli/alien_stimuli/11.png,547.4115338999545,547.4115338999545,547.4115338999545,547.4115338999545,547.4107895000138,return,7.182988499989733,"[-0.16, -0.08, 0, 0.08, 0.16, 0.24, 0.32, 0.4, 0.48, 0.56]","[-0.4, -0.32, -0.24, -0.16, -0.08, 0, 0.08, 0.16, 0.24, 0.32]",5,5,9,4,0.0,0.4,554.7433028999949,554.7433028999949,554.7433028999949,554.7433028999949,554.7433028999949,554.7433028999949,554.7433028999949,554.7338924000272,7.523361100000329,return,7.366134899901226,stimuli/alien_stimuli/11.png,11,4,1,,,,,,,,,,,,,,,,,,,,,,,,,,,,,,,,,,,,,,,,,,,,,,,,,,,,,,,,,,,,,,,,,,,,,,,,,,,,,,,,,,,,,,,,,EYKRNY,train_x,blue_star,top_left,2025-09-05_14h22.06.497,HideSeek_v1,2022.2.5,59.950277266211366,
,,,,,,,,,,,30,,,,0,0,0,0,,,,,,,,,,,,,,,,,,,,,,,,,,,,,,,,,,,,,,,,,,,,,,,,,,,,,,,,,,,,,,,,,,,,,,,,,,,,,,21,0.7,0,0,99,1,30,0,conditions/schedules/train_x_first/blue_star_00/top_left/inputTrain_1.1.xlsx,99,1,1,1,0,,,,,,,,,,,,,,,,,,,,,,,,,,,,,,,,,,,,,,,,,,,,,,,,,,,,,,,,,,,,,,,,,,,,,,,,,,,EYKRNY,train_x,blue_star,top_left,2025-09-05_14h22.06.497,HideSeek_v1,2022.2.5,59.950277266211366,
,,,,,,,,,,,,,,,1,0,1,0,0,0,0,0,,,,,,,,,,,,,,,,,,,,,,,,,,,,,,,conditions/schedules/train_x_first/blue_star_00/top_left/instructions/Slide13.png,conditions/schedules/train_x_first/blue_star_00/top_left/instructions/Audio13.wav,562.2962489000056,562.2897508000024,14,"[6.592996500083245, 18.81319140002597, 10.148424300015904, 18.238745699985884, 19.306534700095654, 4.545379800023511, 5.83669240004383, 5.386440200032666, 11.236970699974336, 6.0512185000116006, 6.5661635000724345, 9.328473699977621, 12.420127600082196, 16.955297600012273]","[0.01560600008815527, 0.0002728999825194478, 0.00021820003166794777, 18.238753200042993, 0.031145600019954145, 0.048732100054621696, 0.03211050003301352, 0.047719899914227426, 0.031372199999168515, 0.04857610003091395, 0.014901399961672723, 0.04748810001183301, 12.420134200016037, 16.955305400071666]",1,[1.8993626999435946],[0.00015239999629557133],,,,,,,,,,,,,,,,,,,,,,,,,,,,,,,,,,,,,,,,,,,,,,,,,,,,,,,,,,,,,,,,,,,,,,,,,,,,,,,,,,,,,,,,,,,,,,,,,,,,,,,,,,,,,,,,,,,,,,,,,,EYKRNY,train_x,blue_star,top_left,2025-09-05_14h22.06.497,HideSeek_v1,2022.2.5,59.950277266211366,
,,,,,,,,,,,,,,,1,0,1,0,1,0,1,0,,,,,,,,,,,,,,,,,,,,,,,,,,,,,,,conditions/schedules/train_x_first/blue_star_00/top_left/instructions/Slide14.png,conditions/schedules/train_x_first/blue_star_00/top_left/instructions/Audio14.wav,579.3180415999377,579.3042196999769,14,"[6.592996500083245, 18.81319140002597, 10.148424300015904, 18.238745699985884, 19.306534700095654, 4.545379800023511, 5.83669240004383, 5.386440200032666, 11.236970699974336, 6.0512185000116006, 6.5661635000724345, 9.328473699977621, 12.420127600082196, 16.955297600012273]","[0.01560600008815527, 0.0002728999825194478, 0.00021820003166794777, 18.238753200042993, 0.031145600019954145, 0.048732100054621696, 0.03211050003301352, 0.047719899914227426, 0.031372199999168515, 0.04857610003091395, 0.014901399961672723, 0.04748810001183301, 12.420134200016037, 0.050867300014942884]",2,"[1.8993626999435946, 3.620434300042689]","[0.00015239999629557133, 3.6204417999833822]",,,,,,,,,,,,,,,,,,,,,,,,,,,,,,,,,,,,,,,,,,,,,,,,,,,,,,,,,,,,,,,,,,,,,,,,,,,,,,,,,,,,,,,,,,,,,,,,,,,,,,,,,,,,,,,,,,,,,,,,,,EYKRNY,train_x,blue_star,top_left,2025-09-05_14h22.06.497,HideSeek_v1,2022.2.5,59.950277266211366,
,,,,,,,,,,,,,,,1,0,1,0,2,0,2,0,,,,,,,,,,,,,,,,,,,,,,,,,,,,,,,conditions/schedules/train_x_first/blue_star_00/top_left/instructions/Slide13.png,conditions/schedules/train_x_first/blue_star_00/top_left/instructions/Audio13.wav,582.9897833999712,582.9904710000147,15,"[6.592996500083245, 18.81319140002597, 10.148424300015904, 18.238745699985884, 19.306534700095654, 4.545379800023511, 5.83669240004383, 5.386440200032666, 11.236970699974336, 6.0512185000116006, 6.5661635000724345, 9.328473699977621, 12.420127600082196, 16.955297600012273, 19.015149399987422]","[0.01560600008815527, 0.0002728999825194478, 0.00021820003166794777, 18.238753200042993, 0.031145600019954145, 0.048732100054621696, 0.03211050003301352, 0.047719899914227426, 0.031372199999168515, 0.04857610003091395, 0.014901399961672723, 0.04748810001183301, 12.420134200016037, 0.050867300014942884, 19.015157200046815]",2,"[1.8993626999435946, 3.620434300042689]","[0.00015239999629557133, 0.014678900013677776]",,,,,,,,,,,,,,,,,,,,,,,,,,,,,,,,,,,,,,,,,,,,,,,,,,,,,,,,,,,,,,,,,,,,,,,,,,,,,,,,,,,,,,,,,,,,,,,,,,,,,,,,,,,,,,,,,,,,,,,,,,EYKRNY,train_x,blue_star,top_left,2025-09-05_14h22.06.497,HideSeek_v1,2022.2.5,59.950277266211366,
,,,,,,,,,,,,,,,1,0,1,0,3,0,3,0,,,,,,,,,,,,,,,,,,,,,,,,,,,,,,,conditions/schedules/train_x_first/blue_star_00/top_left/instructions/Slide14.png,conditions/schedules/train_x_first/blue_star_00/top_left/instructions/Audio14.wav,602.0772805999732,602.073244899977,16,"[6.592996500083245, 18.81319140002597, 10.148424300015904, 18.238745699985884, 19.306534700095654, 4.545379800023511, 5.83669240004383, 5.386440200032666, 11.236970699974336, 6.0512185000116006, 6.5661635000724345, 9.328473699977621, 12.420127600082196, 16.955297600012273, 19.015149399987422, 14.37218079995364]","[0.01560600008815527, 0.0002728999825194478, 0.00021820003166794777, 18.238753200042993, 0.031145600019954145, 0.048732100054621696, 0.03211050003301352, 0.047719899914227426, 0.031372199999168515, 0.04857610003091395, 0.014901399961672723, 0.04748810001183301, 12.420134200016037, 0.050867300014942884, 0.014282400021329522, 14.372187900007702]",2,"[1.8993626999435946, 3.620434300042689]","[0.00015239999629557133, 0.014678900013677776]",,,,,,,,,,,,,,,,,,,,,,,,,,,,,,,,,,,,,,,,,,,,,,,,,,,,,,,,,,,,,,,,,,,,,,,,,,,,,,,,,,,,,,,,,,,,,,,,,,,,,,,,,,,,,,,,,,,,,,,,,,EYKRNY,train_x,blue_star,top_left,2025-09-05_14h22.06.497,HideSeek_v1,2022.2.5,59.950277266211366,
2,3,7,3,7,0,0,61,2,instr_dim1_1,,,,,,1,0,1,0,,,,,0,0,0,0,,,,,,,,,,,,,,,,,,,,,,,,,,,,,,,,,,,,,stimuli/alien_stimuli/61.png,conditions/schedules/train_x_first/blue_star_00/top_left/inputInstr_1.xlsx,stimuli/alien_stimuli/61.png,616.551637699944,616.551637699944,616.551637699944,616.551637699944,616.5516524999634,return,6.383044599904679,"[-0.16, -0.08, 0, 0.08, 0.16, 0.24, 0.32, 0.4, 0.48, 0.56]","[-0.4, -0.32, -0.24, -0.16, -0.08, 0, 0.08, 0.16, 0.24, 0.32]",7,7,3,3,0.0,0.0,623.0928906999761,623.0928906999761,623.0928906999761,623.0928906999761,623.0928906999761,623.0928906999761,623.0928906999761,623.0735184000572,9.158665499999188,return,8.997312899911776,stimuli/alien_stimuli/61.png,61,3,2,,,,,,,,,,,,,,,,,,,,,,,,,,,,,,,,,,,,,,,,,,,,,,,,,,,,,,,,,,,,,,,,,,,,,,,,,,,,,,,,,,,,,,,,,EYKRNY,train_x,blue_star,top_left,2025-09-05_14h22.06.497,HideSeek_v1,2022.2.5,59.950277266211366,
,,,,,,,,,,,30,,,,1,0,1,0,,,,,,,,,,,,,,,,,,,,,,,,,,,,,,,,,,,,,,,,,,,,,,,,,,,,,,,,,,,,,,,,,,,,,,,,,,,,,,21,0.7,0,0,99,1,30,0,conditions/schedules/train_x_first/blue_star_00/top_left/inputTrain_1.1.xlsx,99,1,1,1,0,,,,,,,,,,,,,,,,,,,,,,,,,,,,,,,,,,,,,,,,,,,,,,,,,,,,,,,,,,,,,,,,,,,,,,,,,,,EYKRNY,train_x,blue_star,top_left,2025-09-05_14h22.06.497,HideSeek_v1,2022.2.5,59.950277266211366,
,,,,,,,,,,,,,,,2,0,2,0,0,0,0,0,,,,,,,,,,,,,,,,,,,,,,,,,,,,,,,conditions/schedules/train_x_first/blue_star_00/top_left/instructions/Slide15.png,conditions/schedules/train_x_first/blue_star_00/top_left/instructions/Audio15.wav,632.2766611999832,632.2646949000191,17,"[6.592996500083245, 18.81319140002597, 10.148424300015904, 18.238745699985884, 19.306534700095654, 4.545379800023511, 5.83669240004383, 5.386440200032666, 11.236970699974336, 6.0512185000116006, 6.5661635000724345, 9.328473699977621, 12.420127600082196, 16.955297600012273, 19.015149399987422, 14.37218079995364, 30.41140640003141]","[0.01560600008815527, 0.0002728999825194478, 0.00021820003166794777, 18.238753200042993, 0.031145600019954145, 0.048732100054621696, 0.03211050003301352, 0.047719899914227426, 0.031372199999168515, 0.04857610003091395, 0.014901399961672723, 0.04748810001183301, 12.420134200016037, 0.050867300014942884, 0.014282400021329522, 14.372187900007702, 30.41141439997591]",2,"[1.8993626999435946, 3.620434300042689]","[0.00015239999629557133, 0.014678900013677776]",,,,,,,,,,,,,,,,,,,,,,,,,,,,,,,,,,,,,,,,,,,,,,,,,,,,,,,,,,,,,,,,,,,,,,,,,,,,,,,,,,,,,,,,,,,,,,,,,,,,,,,,,,,,,,,,,,,,,,,,,,EYKRNY,train_x,blue_star,top_left,2025-09-05_14h22.06.497,HideSeek_v1,2022.2.5,59.950277266211366,
,,,,,,,,,,,,,,,2,0,2,0,1,0,1,0,,,,,,,,,,,,,,,,,,,,,,,,,,,,,,,conditions/schedules/train_x_first/blue_star_00/top_left/instructions/Slide16.png,conditions/schedules/train_x_first/blue_star_00/top_left/instructions/Audio16.wav,662.7529356000014,662.7400543999858,18,"[6.592996500083245, 18.81319140002597, 10.148424300015904, 18.238745699985884, 19.306534700095654, 4.545379800023511, 5.83669240004383, 5.386440200032666, 11.236970699974336, 6.0512185000116006, 6.5661635000724345, 9.328473699977621, 12.420127600082196, 16.955297600012273, 19.015149399987422, 14.37218079995364, 30.41140640003141, 21.302149900002405]","[0.01560600008815527, 0.0002728999825194478, 0.00021820003166794777, 18.238753200042993, 0.031145600019954145, 0.048732100054621696, 0.03211050003301352, 0.047719899914227426, 0.031372199999168515, 0.04857610003091395, 0.014901399961672723, 0.04748810001183301, 12.420134200016037, 0.050867300014942884, 0.014282400021329522, 14.372187900007702, 0.05126470001414418, 21.302156599937007]",2,"[1.8993626999435946, 3.620434300042689]","[0.00015239999629557133, 0.014678900013677776]",,,,,,,,,,,,,,,,,,,,,,,,,,,,,,,,,,,,,,,,,,,,,,,,,,,,,,,,,,,,,,,,,,,,,,,,,,,,,,,,,,,,,,,,,,,,,,,,,,,,,,,,,,,,,,,,,,,,,,,,,,EYKRNY,train_x,blue_star,top_left,2025-09-05_14h22.06.497,HideSeek_v1,2022.2.5,59.950277266211366,
,2,6,5,6,3,0,31,,train_dim1_1,1,30,,,,2,0,2,0,,,,,,,,,0,0,0,0,0,0,0,0,0,0,0,0,,,,,,,,,,,,,,,,,,,,,,,,,stimuli/alien_stimuli/31.png,,,,,,,,,,,,,,,,,,,,,,,,,,,,,,,,,,,,,,,30,,,,,,,,684.1652403000044,684.1652403000044,684.1652403000044,684.1652403000044,684.1652403000044,right,2.7211436999496073,0,0,0,99,0.08,0.08,right,2.621684900019318,,,,,,,,,,,,,,,,,,,,,,,,,,,,,,,,,,,,,,,,,,,,,,,,,,,,,,,,,,,,EYKRNY,train_x,blue_star,top_left,2025-09-05_14h22.06.497,HideSeek_v1,2022.2.5,59.950277266211366,
,2,6,5,6,3,0,31,,train_dim1_1,1,30,,,,2,0,2,0,,,,,,,,,0,0,0,0,0,0,0,0,1,0,1,0,,,,,,,,,,,,,,,,,,,,,,,,,,,,,,,,,,,,,,,,,,,,,,,,,,,,,,,,,,,,,,,,30,,,,,,,,686.8756418999983,686.8756418999983,686.8756418999983,686.8756418999983,686.8756418999983,right,1.1099499999545515,0,0,0,99,0.16,0.08,right,1.0304586000274867,,,,,,,,,,,,,,,,,,,,,,,,,,,,,,,,,,,,,,,,,,,,,,,,,,,,,,,,,,,,EYKRNY,train_x,blue_star,top_left,2025-09-05_14h22.06.497,HideSeek_v1,2022.2.5,59.950277266211366,
,2,6,5,6,3,0,31,,train_dim1_1,1,30,,,,2,0,2,0,,,,,,,,,0,0,0,0,0,0,0,0,2,0,2,0,,,,,,,,,,,,,,,,,,,,,,,,,,,,,,,,,,,,,,,,,,,,,,,,,,,,,,,,,,,,,,,,30,,,,,,,,687.992872199975,687.992872199975,687.992872199975,687.992872199975,687.992872199975,up,1.4107598999980837,0,0,0,99,0.16,0.16,up,1.3259939999552444,,,,,,,,,,,,,,,,,,,,,,,,,,,,,,,,,,,,,,,,,,,,,,,,,,,,,,,,,,,,EYKRNY,train_x,blue_star,top_left,2025-09-05_14h22.06.497,HideSeek_v1,2022.2.5,59.950277266211366,
,2,6,5,6,3,0,31,,train_dim1_1,1,30,,,,2,0,2,0,,,,,,,,,0,0,0,0,0,0,0,0,3,0,3,0,,,,,,,,,,,,,,,,,,,,,,,,,,,,,,,,,,,,,,,,,,,,,,,,,,,,,,,,,,,,,,,,30,,,,,,,,689.4104654999683,689.4104654999683,689.4104654999683,689.4104654999683,689.4104654999683,return,0.6436348999850452,0,0,0,0,0.16,0.16,return,0.563247499987483,1,2,0.16,0.16,,,,,,,,,,,,,,,,,,,,,,,,,,,,,,,,,,,,,,,,,,,,,,,,,,,,,,,,EYKRNY,train_x,blue_star,top_left,2025-09-05_14h22.06.497,HideSeek_v1,2022.2.5,59.950277266211366,
,2,9,7,9,5,0,11,,train_dim1_1,2,30,,,,2,0,2,0,,,,,,,,,0,0,0,0,0,1,1,1,0,0,0,0,,,,,,,,,,,,,,,,,,,,,,,,,stimuli/alien_stimuli/11.png,,,,,,,,,,,,,,,,,,,,,,,,,,,,,stimuli/alien_stimuli/31.png,31,2,3,,,,,,,30,,,,,,,,699.1728852000087,699.1728852000087,699.1728852000087,699.1728852000087,699.1728852000087,down,5.157477299915627,0,0,0,99,0,0.24,down,5.064356299932115,,,,,697.6023528999649,699.1728852000087,0.24,0.08,0.0,0.24,0.08,0.24,0.12,0.24,0.08,691.6262235000031,691.6262235000031,691.6262235000031,691.6262235000031,691.6262235000031,691.6262235000031,691.6262235000031,691.6262235000031,691.6136109000304,6.090668699936941,return,5.947706899954937,,,,,,,,,,,,,,,,,,,,,,,,,,,,,,,,,EYKRNY,train_x,blue_star,top_left,2025-09-05_14h22.06.497,HideSeek_v1,2022.2.5,59.950277266211366,
,2,9,7,9,5,0,11,,train_dim1_1,2,30,,,,2,0,2,0,,,,,,,,,0,0,0,0,0,1,1,1,1,0,1,0,,,,,,,,,,,,,,,,,,,,,,,,,,,,,,,,,,,,,,,,,,,,,,,,,,,,,,,,,,,,,,,,30,,,,,,,,704.3286031000316,704.3286031000316,704.3286031000316,704.3286031000316,704.3286031000316,down,1.5935410999227315,0,0,0,99,0,0.15999999999999998,down,1.5088458999525756,,,,,,,,,,,,,,,,,,,,,,,,,,,,,,,,,,,,,,,,,,,,,,,,,,,,,,,,,,,,EYKRNY,train_x,blue_star,top_left,2025-09-05_14h22.06.497,HideSeek_v1,2022.2.5,59.950277266211366,
,2,9,7,9,5,0,11,,train_dim1_1,2,30,,,,2,0,2,0,,,,,,,,,0,0,0,0,0,1,1,1,2,0,2,0,,,,,,,,,,,,,,,,,,,,,,,,,,,,,,,,,,,,,,,,,,,,,,,,,,,,,,,,,,,,,,,,30,,,,,,,,705.9286941000028,705.9286941000028,705.9286941000028,705.9286941000028,705.9286941000028,down,0.8264555999776348,0,0,0,99,0,0.07999999999999997,down,0.7362329999450594,,,,,,,,,,,,,,,,,,,,,,,,,,,,,,,,,,,,,,,,,,,,,,,,,,,,,,,,,,,,EYKRNY,train_x,blue_star,top_left,2025-09-05_14h22.06.497,HideSeek_v1,2022.2.5,59.950277266211366,
,2,9,7,9,5,0,11,,train_dim1_1,2,30,,,,2,0,2,0,,,,,,,,,0,0,0,0,0,1,1,1,3,0,3,0,,,,,,,,,,,,,,,,,,,,,,,,,,,,,,,,,,,,,,,,,,,,,,,,,,,,,,,,,,,,,,,,30,,,,,,,,706.762209199951,706.762209199951,706.762209199951,706.762209199951,706.762209199951,return,2.194750100024976,0,0,0,0,0,0.07999999999999997,return,2.111391199985519,-2,2,0,0.07999999999999997,,,,,,,,,,,,,,,,,,,,,,,,,,,,,,,,,,,,,,,,,,,,,,,,,,,,,,,,EYKRNY,train_x,blue_star,top_left,2025-09-05_14h22.06.497,HideSeek_v1,2022.2.5,59.950277266211366,
,4,9,8,9,4,0,21,,train_dim1_1,3,30,,,,2,0,2,0,,,,,,,,,0,0,0,0,0,2,2,2,0,0,0,0,,,,,,,,,,,,,,,,,,,,,,,,,stimuli/alien_stimuli/21.png,,,,,,,,,,,,,,,,,,,,,,,,,,,,,stimuli/alien_stimuli/11.png,11,2,4,,,,,,,30,,,,,,,,728.7870735999895,728.7870735999895,728.7870735999895,728.7870735999895,728.7870735999895,right,3.324104300001636,0,0,0,99,0.24,0.32,right,3.2199727999977767,,,,,727.2100888999412,728.7870735999895,0.4,0.32,0.0,0.4,0.32,0.4,0.2,0.4,0.32,710.5458028999856,710.5458028999856,710.5458028999856,710.5458028999856,710.5458028999856,710.5458028999856,710.5458028999856,710.5458028999856,710.5295206999639,16.799454599968158,return,16.6394451999804,,,,,,,,,,,,,,,,,,,,,,,,,,,,,,,,,EYKRNY,train_x,blue_star,top_left,2025-09-05_14h22.06.497,HideSeek_v1,2022.2.5,59.950277266211366,
,4,9,8,9,4,0,21,,train_dim1_1,3,30,,,,2,0,2,0,,,,,,,,,0,0,0,0,0,2,2,2,1,0,1,0,,,,,,,,,,,,,,,,,,,,,,,,,,,,,,,,,,,,,,,,,,,,,,,,,,,,,,,,,,,,,,,,30,,,,,,,,732.0991404999513,732.0991404999513,732.0991404999513,732.0991404999513,732.0991404999513,right,0.8430790000129491,0,0,0,99,0.32,0.32,right,0.7579751000739634,,,,,,,,,,,,,,,,,,,,,,,,,,,,,,,,,,,,,,,,,,,,,,,,,,,,,,,,,,,,EYKRNY,train_x,blue_star,top_left,2025-09-05_14h22.06.497,HideSeek_v1,2022.2.5,59.950277266211366,
,4,9,8,9,4,0,21,,train_dim1_1,3,30,,,,2,0,2,0,,,,,,,,,0,0,0,0,0,2,2,2,2,0,2,0,,,,,,,,,,,,,,,,,,,,,,,,,,,,,,,,,,,,,,,,,,,,,,,,,,,,,,,,,,,,,,,,30,,,,,,,,732.9487615999533,732.9487615999533,732.9487615999533,732.9487615999533,732.9487615999533,right,0.8269208999117836,0,0,0,99,0.4,0.32,right,0.7347458000294864,,,,,,,,,,,,,,,,,,,,,,,,,,,,,,,,,,,,,,,,,,,,,,,,,,,,,,,,,,,,EYKRNY,train_x,blue_star,top_left,2025-09-05_14h22.06.497,HideSeek_v1,2022.2.5,59.950277266211366,
,4,9,8,9,4,0,21,,train_dim1_1,3,30,,,,2,0,2,0,,,,,,,,,0,0,0,0,0,2,2,2,3,0,3,0,,,,,,,,,,,,,,,,,,,,,,,,,,,,,,,,,,,,,,,,,,,,,,,,,,,,,,,,,,,,,,,,30,,,,,,,,733.7837314999197,733.7837314999197,733.7837314999197,733.7837314999197,733.7837314999197,right,0.7936771999811754,0,0,0,99,0.48000000000000004,0.32,right,0.7079137999098748,,,,,,,,,,,,,,,,,,,,,,,,,,,,,,,,,,,,,,,,,,,,,,,,,,,,,,,,,,,,EYKRNY,train_x,blue_star,top_left,2025-09-05_14h22.06.497,HideSeek_v1,2022.2.5,59.950277266211366,
,4,9,8,9,4,0,21,,train_dim1_1,3,30,,,,2,0,2,0,,,,,,,,,0,0,0,0,0,2,2,2,4,0,4,0,,,,,,,,,,,,,,,,,,,,,,,,,,,,,,,,,,,,,,,,,,,,,,,,,,,,,,,,,,,,,,,,30,,,,,,,,734.5852735999506,734.5852735999506,734.5852735999506,734.5852735999506,734.5852735999506,right,0.5432098000310361,0,0,0,99,0.56,0.32,right,0.4600860000355169,,,,,,,,,,,,,,,,,,,,,,,,,,,,,,,,,,,,,,,,,,,,,,,,,,,,,,,,,,,,EYKRNY,train_x,blue_star,top_left,2025-09-05_14h22.06.497,HideSeek_v1,2022.2.5,59.950277266211366,
,4,9,8,9,4,0,21,,train_dim1_1,3,30,,,,2,0,2,0,,,,,,,,,0,0,0,0,0,2,2,2,5,0,5,0,,,,,,,,,,,,,,,,,,,,,,,,,,,,,,,,,,,,,,,,,,,,,,,,,,,,,,,,,,,,,,,,30,,,,,,,,735.1366810000036,735.1366810000036,735.1366810000036,735.1366810000036,735.1366810000036,return,0.6101824999786913,0,1,0,0,0.56,0.32,return,0.5263242999790236,-2,7,0.56,0.32,,,,,,,,,,,,,,,,,,,,,,,,,,,,,,,,,,,,,,,,,,,,,,,,,,,,,,,,EYKRNY,train_x,blue_star,top_left,2025-09-05_14h22.06.497,HideSeek_v1,2022.2.5,59.950277266211366,
,2,8,3,8,1,0,51,,train_dim1_1,4,30,,,,2,0,2,0,,,,,,,,,0,0,0,0,0,3,3,3,0,0,0,0,,,,,,,,,,,,,,,,,,,,,,,,,stimuli/alien_stimuli/51.png,,,,,,,,,,,,,,,,,,,,,,,,,,,,,stimuli/alien_stimuli/21.png,21,4,5,,,,,,,30,,,,,,,,744.1007225000067,744.1007225000067,744.1007225000067,744.1007225000067,744.1007225000067,down,3.6921963000204414,0,1,0,99,0,0.15999999999999998,down,3.6068057999946177,,,,,742.5395074000116,744.1007225000067,0.48,0.32,0.0,0.32,0.32,0.48,0.32,0.48,0.32,737.3338684999617,737.3338684999617,737.3338684999617,737.3338684999617,737.3338684999617,737.3338684999617,737.3338684999617,737.3338684999617,737.3183291000081,5.3403749000281096,return,5.173937100102194,,,,,,,,,,,,,,,,,,,,,,,,,,,,,,,,,EYKRNY,train_x,blue_star,top_left,2025-09-05_14h22.06.497,HideSeek_v1,2022.2.5,59.950277266211366,
,2,8,3,8,1,0,51,,train_dim1_1,4,30,,,,2,0,2,0,,,,,,,,,0,0,0,0,0,3,3,3,1,0,1,0,,,,,,,,,,,,,,,,,,,,,,,,,,,,,,,,,,,,,,,,,,,,,,,,,,,,,,,,,,,,,,,,30,,,,,,,,747.7979690999491,747.7979690999491,747.7979690999491,747.7979690999491,747.7979690999491,down,1.2753827000269666,0,1,0,99,0,0.07999999999999997,down,1.1856795999919996,,,,,,,,,,,,,,,,,,,,,,,,,,,,,,,,,,,,,,,,,,,,,,,,,,,,,,,,,,,,EYKRNY,train_x,blue_star,top_left,2025-09-05_14h22.06.497,HideSeek_v1,2022.2.5,59.950277266211366,
,2,8,3,8,1,0,51,,train_dim1_1,4,30,,,,2,0,2,0,,,,,,,,,0,0,0,0,0,3,3,3,2,0,2,0,,,,,,,,,,,,,,,,,,,,,,,,,,,,,,,,,,,,,,,,,,,,,,,,,,,,,,,,,,,,,,,,30,,,,,,,,749.0828124999534,749.0828124999534,749.0828124999534,749.0828124999534,749.0828124999534,down,2.3420921000652015,0,1,0,99,0,-2.7755575615628914e-17,down,2.2589813000522554,,,,,,,,,,,,,,,,,,,,,,,,,,,,,,,,,,,,,,,,,,,,,,,,,,,,,,,,,,,,EYKRNY,train_x,blue_star,top_left,2025-09-05_14h22.06.497,HideSeek_v1,2022.2.5,59.950277266211366,
,2,8,3,8,1,0,51,,train_dim1_1,4,30,,,,2,0,2,0,,,,,,,,,0,0,0,0,0,3,3,3,3,0,3,0,,,,,,,,,,,,,,,,,,,,,,,,,,,,,,,,,,,,,,,,,,,,,,,,,,,,,,,,,,,,,,,,30,,,,,,,,751.4306636999827,751.4306636999827,751.4306636999827,751.4306636999827,751.4306636999827,return,0.7599980999948457,0,0,0,0,0,-2.7755575615628914e-17,return,0.6788097999524325,-5,7,0,-2.7755575615628914e-17,,,,,,,,,,,,,,,,,,,,,,,,,,,,,,,,,,,,,,,,,,,,,,,,,,,,,,,,EYKRNY,train_x,blue_star,top_left,2025-09-05_14h22.06.497,HideSeek_v1,2022.2.5,59.950277266211366,
,0,7,0,7,0,0,61,,train_dim1_1,5,30,,,,2,0,2,0,,,,,,,,,0,0,0,0,0,4,4,4,0,0,0,0,,,,,,,,,,,,,,,,,,,,,,,,,stimuli/alien_stimuli/61.png,,,,,,,,,,,,,,,,,,,,,,,,,,,,,stimuli/alien_stimuli/51.png,51,2,6,,,,,,,30,,,,,,,,758.3823115000268,758.3823115000268,758.3823115000268,758.3823115000268,758.3823115000268,right,1.4699360999511555,0,0,0,99,-0.08,0.16,right,1.3782156999222934,,,,,756.8180024999892,758.3823115000268,0.08,0.24,0.0,0.08,0.24,0.08,0.04,0.08,0.24,753.7791504999623,753.7791504999623,753.7791504999623,753.7791504999623,753.7791504999623,753.7791504999623,753.7791504999623,753.7791504999623,753.7654606000054,3.1718661999329925,return,3.0219211999792606,,,,,,,,,,,,,,,,,,,,,,,,,,,,,,,,,EYKRNY,train_x,blue_star,top_left,2025-09-05_14h22.06.497,HideSeek_v1,2022.2.5,59.950277266211366,
,0,7,0,7,0,0,61,,train_dim1_1,5,30,,,,2,0,2,0,,,,,,,,,0,0,0,0,0,4,4,4,1,0,1,0,,,,,,,,,,,,,,,,,,,,,,,,,,,,,,,,,,,,,,,,,,,,,,,,,,,,,,,,,,,,,,,,30,,,,,,,,759.8567424999783,759.8567424999783,759.8567424999783,759.8567424999783,759.8567424999783,return,0.7262195000657812,0,1,0,0,-0.08,0.16,return,0.6327732999343425,-5,8,-0.08,0.16,,,,,,,,,,,,,,,,,,,,,,,,,,,,,,,,,,,,,,,,,,,,,,,,,,,,,,,,EYKRNY,train_x,blue_star,top_left,2025-09-05_14h22.06.497,HideSeek_v1,2022.2.5,59.950277266211366,
,0,5,4,5,4,0,21,,train_dim1_1,6,30,,,,2,0,2,0,,,,,,,,,0,0,0,0,0,5,5,5,0,0,0,0,,,,,,,,,,,,,,,,,,,,,,,,,stimuli/alien_stimuli/21.png,,,,,,,,,,,,,,,,,,,,,,,,,,,,,stimuli/alien_stimuli/61.png,61,0,7,,,,,,,30,,,,,,,,768.4243141999468,768.4243141999468,768.4243141999468,768.4243141999468,768.4243141999468,right,2.491168799926527,0,1,0,99,-0.08,0,right,2.3990241000428796,,,,,766.8595552999759,768.4243141999468,-0.16,0.16,0.0,0.0,0.16,-0.16,-0.16,-0.16,0.16,762.1545571000315,762.1545571000315,762.1545571000315,762.1545571000315,762.1545571000315,762.1545571000315,762.1545571000315,762.1545571000315,762.1391916000516,4.822677600081079,return,4.680614699958824,,,,,,,,,,,,,,,,,,,,,,,,,,,,,,,,,EYKRNY,train_x,blue_star,top_left,2025-09-05_14h22.06.497,HideSeek_v1,2022.2.5,59.950277266211366,
,0,5,4,5,4,0,21,,train_dim1_1,6,30,,,,2,0,2,0,,,,,,,,,0,0,0,0,0,5,5,5,1,0,1,0,,,,,,,,,,,,,,,,,,,,,,,,,,,,,,,,,,,,,,,,,,,,,,,,,,,,,,,,,,,,,,,,30,,,,,,,,770.9158671000041,770.9158671000041,770.9158671000041,770.9158671000041,770.9158671000041,right,0.7922809000592679,0,1,0,99,0.0,0,right,0.7060789000242949,,,,,,,,,,,,,,,,,,,,,,,,,,,,,,,,,,,,,,,,,,,,,,,,,,,,,,,,,,,,EYKRNY,train_x,blue_star,top_left,2025-09-05_14h22.06.497,HideSeek_v1,2022.2.5,59.950277266211366,
,0,5,4,5,4,0,21,,train_dim1_1,6,30,,,,2,0,2,0,,,,,,,,,0,0,0,0,0,5,5,5,2,0,2,0,,,,,,,,,,,,,,,,,,,,,,,,,,,,,,,,,,,,,,,,,,,,,,,,,,,,,,,,,,,,,,,,30,,,,,,,,771.7159321999643,771.7159321999643,771.7159321999643,771.7159321999643,771.7159321999643,right,0.7769735999172553,0,1,0,99,0.08,0,right,0.6958400000585243,,,,,,,,,,,,,,,,,,,,,,,,,,,,,,,,,,,,,,,,,,,,,,,,,,,,,,,,,,,,EYKRNY,train_x,blue_star,top_left,2025-09-05_14h22.06.497,HideSeek_v1,2022.2.5,59.950277266211366,
,0,5,4,5,4,0,21,,train_dim1_1,6,30,,,,2,0,2,0,,,,,,,,,0,0,0,0,0,5,5,5,3,0,3,0,,,,,,,,,,,,,,,,,,,,,,,,,,,,,,,,,,,,,,,,,,,,,,,,,,,,,,,,,,,,,,,,30,,,,,,,,772.5017169999192,772.5017169999192,772.5017169999192,772.5017169999192,772.5017169999192,right,0.6255653999978676,0,1,0,99,0.16,0,right,0.5444388999603689,,,,,,,,,,,,,,,,,,,,,,,,,,,,,,,,,,,,,,,,,,,,,,,,,,,,,,,,,,,,EYKRNY,train_x,blue_star,top_left,2025-09-05_14h22.06.497,HideSeek_v1,2022.2.5,59.950277266211366,
,0,5,4,5,4,0,21,,train_dim1_1,6,30,,,,2,0,2,0,,,,,,,,,0,0,0,0,0,5,5,5,4,0,4,0,,,,,,,,,,,,,,,,,,,,,,,,,,,,,,,,,,,,,,,,,,,,,,,,,,,,,,,,,,,,,,,,30,,,,,,,,773.1344785999972,773.1344785999972,773.1344785999972,773.1344785999972,773.1344785999972,return,2.06137889996171,1,0,0,1,0.16,0,return,1.9729869000148028,-5,12,0.16,0,,,,,,,,,,,,,,,,,,,,,,,,,,,,,,,,,,,,,,,,,,,,,,,,,,,,,,,,EYKRNY,train_x,blue_star,top_left,2025-09-05_14h22.06.497,HideSeek_v1,2022.2.5,59.950277266211366,
,3,5,3,5,0,0,61,,train_dim1_1,7,30,,,,2,0,2,0,,,,,,,,,0,0,0,0,0,6,6,6,0,0,0,0,,,,,,,,,,,,,,,,,,,,,,,,,stimuli/alien_stimuli/61.png,,,,,,,,,,,,,,,,,,,,,,,,,,,,,stimuli/alien_stimuli/21.png,21,0,8,,,,,,,30,,,,,,,,780.8528305999935,780.8528305999935,780.8528305999935,780.8528305999935,780.8528305999935,return,3.9863751000957564,2,0,0,1,0.08,0,return,3.8819837999762967,-5,12,0.08,0,779.2697865000227,780.8528305999935,0.16,0,0.0,0.32,0.0,0.16,0.0,0.16,0,776.7738530000206,776.7738530000206,776.7738530000206,776.7738530000206,776.7738530000206,776.7738530000206,776.7738530000206,776.7738530000206,776.7512808999977,2.6206612999085337,return,2.4714478999376297,,,,,,,,,,,,,,,,,,,,,,,,,,,,,,,,,EYKRNY,train_x,blue_star,top_left,2025-09-05_14h22.06.497,HideSeek_v1,2022.2.5,59.950277266211366,
,0,9,3,9,3,0,31,,train_dim1_1,8,30,,,,2,0,2,0,,,,,,,,,0,0,0,0,0,7,7,7,0,0,0,0,,,,,,,,,,,,,,,,,,,,,,,,,stimuli/alien_stimuli/31.png,,,,,,,,,,,,,,,,,,,,,,,,,,,,,stimuli/alien_stimuli/61.png,61,3,9,,,,,,,30,,,,,,,,791.0903305999236,791.0903305999236,791.0903305999236,791.0903305999236,791.0903305999236,return,3.2088082999689505,2,0,0,0,-0.16,0.32,return,3.1176088000647724,-5,12,-0.16,0.32,789.5284547000192,791.0903305999236,0.08,0,0.0,0.0,0.0,0.08,0.08,0.08,0,786.3782629999332,786.3782629999332,786.3782629999332,786.3782629999332,786.3782629999332,786.3782629999332,786.3782629999332,786.3782629999332,786.3591489999787,3.2546611999860033,return,3.129871500073932,,,,,,,,,,,,,,,,,,,,,,,,,,,,,,,,,EYKRNY,train_x,blue_star,top_left,2025-09-05_14h22.06.497,HideSeek_v1,2022.2.5,59.950277266211366,
,1,5,2,5,1,0,51,,train_dim1_1,9,30,,,,2,0,2,0,,,,,,,,,0,0,0,0,0,8,8,8,0,0,0,0,,,,,,,,,,,,,,,,,,,,,,,,,stimuli/alien_stimuli/51.png,,,,,,,,,,,,,,,,,,,,,,,,,,,,,stimuli/alien_stimuli/31.png,31,0,10,,,,,,,30,,,,,,,,803.8531751999399,803.8531751999399,803.8531751999399,803.8531751999399,803.8531751999399,return,2.1214524999959394,2,1,0,0,-0.08,0,return,2.025902900029905,-5,12,-0.08,0,802.28890829999,803.8531751999399,0.08,0.32,0.0,0.24,0.32,0.08,-0.04,0.08,0.32,795.8725592999253,795.8725592999253,795.8725592999253,795.8725592999253,795.8725592999253,795.8725592999253,795.8725592999253,795.8725592999253,795.8502256000181,6.5248467000201344,return,6.392117900075391,,,,,,,,,,,,,,,,,,,,,,,,,,,,,,,,,EYKRNY,train_x,blue_star,top_left,2025-09-05_14h22.06.497,HideSeek_v1,2022.2.5,59.950277266211366,
,0,8,5,8,5,0,11,,train_dim1_1,10,30,,,,2,0,2,0,,,,,,,,,0,0,0,0,0,9,9,9,0,0,0,0,,,,,,,,,,,,,,,,,,,,,,,,,stimuli/alien_stimuli/11.png,,,,,,,,,,,,,,,,,,,,,,,,,,,,,stimuli/alien_stimuli/51.png,51,1,11,,,,,,,30,,,,,,,,811.8278678000206,811.8278678000206,811.8278678000206,811.8278678000206,811.8278678000206,right,1.671468299929984,2,1,0,99,-0.08,0.24,right,1.575382399954833,,,,,810.2623496999731,811.8278678000206,0,0,0.0,0.08,0.0,0,-0.04,0,0,807.551108899992,807.551108899992,807.551108899992,807.551108899992,807.551108899992,807.551108899992,807.551108899992,807.551108899992,807.5431694000494,2.8379885000176728,return,2.6850580000318587,,,,,,,,,,,,,,,,,,,,,,,,,,,,,,,,,EYKRNY,train_x,blue_star,top_left,2025-09-05_14h22.06.497,HideSeek_v1,2022.2.5,59.950277266211366,
,0,8,5,8,5,0,11,,train_dim1_1,10,30,,,,2,0,2,0,,,,,,,,,0,0,0,0,0,9,9,9,1,0,1,0,,,,,,,,,,,,,,,,,,,,,,,,,,,,,,,,,,,,,,,,,,,,,,,,,,,,,,,,,,,,,,,,30,,,,,,,,813.5008798999479,813.5008798999479,813.5008798999479,813.5008798999479,813.5008798999479,right,0.4760991999646649,2,1,0,99,0.0,0.24,right,0.39445560006424785,,,,,,,,,,,,,,,,,,,,,,,,,,,,,,,,,,,,,,,,,,,,,,,,,,,,,,,,,,,,EYKRNY,train_x,blue_star,top_left,2025-09-05_14h22.06.497,HideSeek_v1,2022.2.5,59.950277266211366,
,0,8,5,8,5,0,11,,train_dim1_1,10,30,,,,2,0,2,0,,,,,,,,,0,0,0,0,0,9,9,9,2,0,2,0,,,,,,,,,,,,,,,,,,,,,,,,,,,,,,,,,,,,,,,,,,,,,,,,,,,,,,,,,,,,,,,,30,,,,,,,,813.9857747999486,813.9857747999486,813.9857747999486,813.9857747999486,813.9857747999486,right,0.5265934000490233,2,1,0,99,0.08,0.24,right,0.437967799953185,,,,,,,,,,,,,,,,,,,,,,,,,,,,,,,,,,,,,,,,,,,,,,,,,,,,,,,,,,,,EYKRNY,train_x,blue_star,top_left,2025-09-05_14h22.06.497,HideSeek_v1,2022.2.5,59.950277266211366,
,0,8,5,8,5,0,11,,train_dim1_1,10,30,,,,2,0,2,0,,,,,,,,,0,0,0,0,0,9,9,9,3,0,3,0,,,,,,,,,,,,,,,,,,,,,,,,,,,,,,,,,,,,,,,,,,,,,,,,,,,,,,,,,,,,,,,,30,,,,,,,,814.5174254999729,814.5174254999729,814.5174254999729,814.5174254999729,814.5174254999729,right,0.5771084000589326,2,1,0,99,0.16,0.24,right,0.494585599983111,,,,,,,,,,,,,,,,,,,,,,,,,,,,,,,,,,,,,,,,,,,,,,,,,,,,,,,,,,,,EYKRNY,train_x,blue_star,top_left,2025-09-05_14h22.06.497,HideSeek_v1,2022.2.5,59.950277266211366,
,0,8,5,8,5,0,11,,train_dim1_1,10,30,,,,2,0,2,0,,,,,,,,,0,0,0,0,0,9,9,9,4,0,4,0,,,,,,,,,,,,,,,,,,,,,,,,,,,,,,,,,,,,,,,,,,,,,,,,,,,,,,,,,,,,,,,,30,,,,,,,,815.1018597999355,815.1018597999355,815.1018597999355,815.1018597999355,815.1018597999355,right,0.49299539998173714,2,1,0,99,0.24,0.24,right,0.4074965000618249,,,,,,,,,,,,,,,,,,,,,,,,,,,,,,,,,,,,,,,,,,,,,,,,,,,,,,,,,,,,EYKRNY,train_x,blue_star,top_left,2025-09-05_14h22.06.497,HideSeek_v1,2022.2.5,59.950277266211366,
,0,8,5,8,5,0,11,,train_dim1_1,10,30,,,,2,0,2,0,,,,,,,,,0,0,0,0,0,9,9,9,5,0,5,0,,,,,,,,,,,,,,,,,,,,,,,,,,,,,,,,,,,,,,,,,,,,,,,,,,,,,,,,,,,,,,,,30,,,,,,,,815.6008994999574,815.6008994999574,815.6008994999574,815.6008994999574,815.6008994999574,return,0.5269582999171689,3,0,0,1,0.24,0.24,return,0.44722139998339117,-5,17,0.24,0.24,,,,,,,,,,,,,,,,,,,,,,,,,,,,,,,,,,,,,,,,,,,,,,,,,,,,,,,,EYKRNY,train_x,blue_star,top_left,2025-09-05_14h22.06.497,HideSeek_v1,2022.2.5,59.950277266211366,
,2,7,5,7,3,0,31,,train_dim1_1,11,30,,,,2,0,2,0,,,,,,,,,0,0,0,0,0,10,10,10,0,0,0,0,,,,,,,,,,,,,,,,,,,,,,,,,stimuli/alien_stimuli/31.png,,,,,,,,,,,,,,,,,,,,,,,,,,,,,stimuli/alien_stimuli/11.png,11,0,12,,,,,,,30,,,,,,,,821.6131879999302,821.6131879999302,821.6131879999302,821.6131879999302,821.6131879999302,right,1.671408399939537,3,0,0,99,0.08,0.16,right,1.5625256000785157,,,,,820.037240399979,821.6131879999302,0.24,0.24,0.0,0.4,0.24,0.24,0.039999999999999994,0.24,0.24,817.6971438999753,817.6971438999753,817.6971438999753,817.6971438999753,817.6971438999753,817.6971438999753,817.6971438999753,817.6971438999753,817.6851245999801,2.454274700023234,return,2.3230626999866217,,,,,,,,,,,,,,,,,,,,,,,,,,,,,,,,,EYKRNY,train_x,blue_star,top_left,2025-09-05_14h22.06.497,HideSeek_v1,2022.2.5,59.950277266211366,
,2,7,5,7,3,0,31,,train_dim1_1,11,30,,,,2,0,2,0,,,,,,,,,0,0,0,0,0,10,10,10,1,0,1,0,,,,,,,,,,,,,,,,,,,,,,,,,,,,,,,,,,,,,,,,,,,,,,,,,,,,,,,,,,,,,,,,30,,,,,,,,823.2740159999812,823.2740159999812,823.2740159999812,823.2740159999812,823.2740159999812,right,0.7579975000116974,3,0,0,99,0.16,0.16,right,0.6759898000163957,,,,,,,,,,,,,,,,,,,,,,,,,,,,,,,,,,,,,,,,,,,,,,,,,,,,,,,,,,,,EYKRNY,train_x,blue_star,top_left,2025-09-05_14h22.06.497,HideSeek_v1,2022.2.5,59.950277266211366,
,2,7,5,7,3,0,31,,train_dim1_1,11,30,,,,2,0,2,0,,,,,,,,,0,0,0,0,0,10,10,10,2,0,2,0,,,,,,,,,,,,,,,,,,,,,,,,,,,,,,,,,,,,,,,,,,,,,,,,,,,,,,,,,,,,,,,,30,,,,,,,,824.0386548999231,824.0386548999231,824.0386548999231,824.0386548999231,824.0386548999231,right,1.5609369999729097,3,0,0,99,0.24,0.16,right,1.4868808999890462,,,,,,,,,,,,,,,,,,,,,,,,,,,,,,,,,,,,,,,,,,,,,,,,,,,,,,,,,,,,EYKRNY,train_x,blue_star,top_left,2025-09-05_14h22.06.497,HideSeek_v1,2022.2.5,59.950277266211366,
,2,7,5,7,3,0,31,,train_dim1_1,11,30,,,,2,0,2,0,,,,,,,,,0,0,0,0,0,10,10,10,3,0,3,0,,,,,,,,,,,,,,,,,,,,,,,,,,,,,,,,,,,,,,,,,,,,,,,,,,,,,,,,,,,,,,,,30,,,,,,,,825.6097099999897,825.6097099999897,825.6097099999897,825.6097099999897,825.6097099999897,return,0.4070031000301242,4,0,0,1,0.24,0.16,return,0.32111739995889366,-5,20,0.24,0.16,,,,,,,,,,,,,,,,,,,,,,,,,,,,,,,,,,,,,,,,,,,,,,,,,,,,,,,,EYKRNY,train_x,blue_star,top_left,2025-09-05_14h22.06.497,HideSeek_v1,2022.2.5,59.950277266211366,
,0,5,4,5,4,0,21,,train_dim1_1,12,30,,,,2,0,2,0,,,,,,,,,0,0,0,0,0,11,11,11,0,0,0,0,,,,,,,,,,,,,,,,,,,,,,,,,stimuli/alien_stimuli/21.png,,,,,,,,,,,,,,,,,,,,,,,,,,,,,stimuli/alien_stimuli/31.png,31,2,13,,,,,,,30,,,,,,,,831.6153084000107,831.6153084000107,831.6153084000107,831.6153084000107,831.6153084000107,right,1.5691606999607757,4,0,0,99,-0.08,0,right,1.462785299983807,,,,,830.0284068000037,831.6153084000107,0.24,0.16,0.0,0.24,0.16,0.24,0.12,0.24,0.16,827.5875516999513,827.5875516999513,827.5875516999513,827.5875516999513,827.5875516999513,827.5875516999513,827.5875516999513,827.5875516999513,827.5765608999877,2.5543573000468314,return,2.415905399946496,,,,,,,,,,,,,,,,,,,,,,,,,,,,,,,,,EYKRNY,train_x,blue_star,top_left,2025-09-05_14h22.06.497,HideSeek_v1,2022.2.5,59.950277266211366,
,0,5,4,5,4,0,21,,train_dim1_1,12,30,,,,2,0,2,0,,,,,,,,,0,0,0,0,0,11,11,11,1,0,1,0,,,,,,,,,,,,,,,,,,,,,,,,,,,,,,,,,,,,,,,,,,,,,,,,,,,,,,,,,,,,,,,,30,,,,,,,,833.1674096999923,833.1674096999923,833.1674096999923,833.1674096999923,833.1674096999923,right,0.8093187999911606,4,0,0,99,0.0,0,right,0.715618500020355,,,,,,,,,,,,,,,,,,,,,,,,,,,,,,,,,,,,,,,,,,,,,,,,,,,,,,,,,,,,EYKRNY,train_x,blue_star,top_left,2025-09-05_14h22.06.497,HideSeek_v1,2022.2.5,59.950277266211366,
,0,5,4,5,4,0,21,,train_dim1_1,12,30,,,,2,0,2,0,,,,,,,,,0,0,0,0,0,11,11,11,2,0,2,0,,,,,,,,,,,,,,,,,,,,,,,,,,,,,,,,,,,,,,,,,,,,,,,,,,,,,,,,,,,,,,,,30,,,,,,,,833.9840710000135,833.9840710000135,833.9840710000135,833.9840710000135,833.9840710000135,right,0.7269483000272885,4,0,0,99,0.08,0,right,0.6483868999639526,,,,,,,,,,,,,,,,,,,,,,,,,,,,,,,,,,,,,,,,,,,,,,,,,,,,,,,,,,,,EYKRNY,train_x,blue_star,top_left,2025-09-05_14h22.06.497,HideSeek_v1,2022.2.5,59.950277266211366,
,0,5,4,5,4,0,21,,train_dim1_1,12,30,,,,2,0,2,0,,,,,,,,,0,0,0,0,0,11,11,11,3,0,3,0,,,,,,,,,,,,,,,,,,,,,,,,,,,,,,,,,,,,,,,,,,,,,,,,,,,,,,,,,,,,,,,,30,,,,,,,,834.717209000024,834.717209000024,834.717209000024,834.717209000024,834.717209000024,right,0.9269789000973105,4,0,0,99,0.16,0,right,0.833809099975042,,,,,,,,,,,,,,,,,,,,,,,,,,,,,,,,,,,,,,,,,,,,,,,,,,,,,,,,,,,,EYKRNY,train_x,blue_star,top_left,2025-09-05_14h22.06.497,HideSeek_v1,2022.2.5,59.950277266211366,
,0,5,4,5,4,0,21,,train_dim1_1,12,30,,,,2,0,2,0,,,,,,,,,0,0,0,0,0,11,11,11,4,0,4,0,,,,,,,,,,,,,,,,,,,,,,,,,,,,,,,,,,,,,,,,,,,,,,,,,,,,,,,,,,,,,,,,30,,,,,,,,835.6513704999816,835.6513704999816,835.6513704999816,835.6513704999816,835.6513704999816,return,2.261266199988313,5,0,0,1,0.16,0,return,2.1792390999617055,-5,24,0.16,0,,,,,,,,,,,,,,,,,,,,,,,,,,,,,,,,,,,,,,,,,,,,,,,,,,,,,,,,EYKRNY,train_x,blue_star,top_left,2025-09-05_14h22.06.497,HideSeek_v1,2022.2.5,59.950277266211366,
,0,9,1,9,1,0,51,,train_dim1_1,13,30,,,,2,0,2,0,,,,,,,,,0,0,0,0,0,12,12,12,0,0,0,0,,,,,,,,,,,,,,,,,,,,,,,,,stimuli/alien_stimuli/51.png,,,,,,,,,,,,,,,,,,,,,,,,,,,,,stimuli/alien_stimuli/21.png,21,0,14,,,,,,,30,,,,,,,,843.0178481999319,843.0178481999319,843.0178481999319,843.0178481999319,843.0178481999319,return,1.9184693000279367,5,1,0,0,-0.16,0.32,return,1.8078272000420839,-5,24,-0.16,0.32,841.4381279000081,843.0178481999319,0.16,0,0.0,0.32,0.0,0.16,0.0,0.16,0,839.4833324999781,839.4833324999781,839.4833324999781,839.4833324999781,839.4833324999781,839.4833324999781,839.4833324999781,839.4833324999781,839.4699215999804,2.0706655000103638,return,1.9354865999193862,,,,,,,,,,,,,,,,,,,,,,,,,,,,,,,,,EYKRNY,train_x,blue_star,top_left,2025-09-05_14h22.06.497,HideSeek_v1,2022.2.5,59.950277266211366,
,4,8,9,8,5,0,11,,train_dim1_1,14,30,,,,2,0,2,0,,,,,,,,,0,0,0,0,0,13,13,13,0,0,0,0,,,,,,,,,,,,,,,,,,,,,,,,,stimuli/alien_stimuli/11.png,,,,,,,,,,,,,,,,,,,,,,,,,,,,,stimuli/alien_stimuli/51.png,51,0,15,,,,,,,30,,,,,,,,849.640118499985,849.640118499985,849.640118499985,849.640118499985,849.640118499985,right,2.274488899973221,5,1,0,99,0.24,0.24,right,2.181762699969113,,,,,848.0773195999209,849.640118499985,-0.08,0.32,0.0,0.08,0.32,-0.08,-0.12,-0.08,0.32,846.4876233999385,846.4876233999385,846.4876233999385,846.4876233999385,846.4876233999385,846.4876233999385,846.4876233999385,846.4876233999385,846.4754995999624,1.7040126000065356,return,1.5687588999280706,,,,,,,,,,,,,,,,,,,,,,,,,,,,,,,,,EYKRNY,train_x,blue_star,top_left,2025-09-05_14h22.06.497,HideSeek_v1,2022.2.5,59.950277266211366,
,4,8,9,8,5,0,11,,train_dim1_1,14,30,,,,2,0,2,0,,,,,,,,,0,0,0,0,0,13,13,13,1,0,1,0,,,,,,,,,,,,,,,,,,,,,,,,,,,,,,,,,,,,,,,,,,,,,,,,,,,,,,,,,,,,,,,,30,,,,,,,,851.9198677999666,851.9198677999666,851.9198677999666,851.9198677999666,851.9198677999666,right,0.7756787000689656,5,1,0,99,0.32,0.24,right,0.6875044000335038,,,,,,,,,,,,,,,,,,,,,,,,,,,,,,,,,,,,,,,,,,,,,,,,,,,,,,,,,,,,EYKRNY,train_x,blue_star,top_left,2025-09-05_14h22.06.497,HideSeek_v1,2022.2.5,59.950277266211366,
,4,8,9,8,5,0,11,,train_dim1_1,14,30,,,,2,0,2,0,,,,,,,,,0,0,0,0,0,13,13,13,2,0,2,0,,,,,,,,,,,,,,,,,,,,,,,,,,,,,,,,,,,,,,,,,,,,,,,,,,,,,,,,,,,,,,,,30,,,,,,,,852.6996549000032,852.6996549000032,852.6996549000032,852.6996549000032,852.6996549000032,right,0.7102298000827432,5,1,0,99,0.4,0.24,right,0.6272899999748915,,,,,,,,,,,,,,,,,,,,,,,,,,,,,,,,,,,,,,,,,,,,,,,,,,,,,,,,,,,,EYKRNY,train_x,blue_star,top_left,2025-09-05_14h22.06.497,HideSeek_v1,2022.2.5,59.950277266211366,
,4,8,9,8,5,0,11,,train_dim1_1,14,30,,,,2,0,2,0,,,,,,,,,0,0,0,0,0,13,13,13,3,0,3,0,,,,,,,,,,,,,,,,,,,,,,,,,,,,,,,,,,,,,,,,,,,,,,,,,,,,,,,,,,,,,,,,30,,,,,,,,853.4202012999449,853.4202012999449,853.4202012999449,853.4202012999449,853.4202012999449,right,1.2243656000355259,5,1,0,99,0.48000000000000004,0.24,right,1.1309712000656873,,,,,,,,,,,,,,,,,,,,,,,,,,,,,,,,,,,,,,,,,,,,,,,,,,,,,,,,,,,,EYKRNY,train_x,blue_star,top_left,2025-09-05_14h22.06.497,HideSeek_v1,2022.2.5,59.950277266211366,
,4,8,9,8,5,0,11,,train_dim1_1,14,30,,,,2,0,2,0,,,,,,,,,0,0,0,0,0,13,13,13,4,0,4,0,,,,,,,,,,,,,,,,,,,,,,,,,,,,,,,,,,,,,,,,,,,,,,,,,,,,,,,,,,,,,,,,30,,,,,,,,854.6537004000274,854.6537004000274,854.6537004000274,854.6537004000274,854.6537004000274,right,0.873858799925074,5,1,0,99,0.56,0.24,right,0.7935244999825954,,,,,,,,,,,,,,,,,,,,,,,,,,,,,,,,,,,,,,,,,,,,,,,,,,,,,,,,,,,,EYKRNY,train_x,blue_star,top_left,2025-09-05_14h22.06.497,HideSeek_v1,2022.2.5,59.950277266211366,
,4,8,9,8,5,0,11,,train_dim1_1,14,30,,,,2,0,2,0,,,,,,,,,0,0,0,0,0,13,13,13,5,0,5,0,,,,,,,,,,,,,,,,,,,,,,,,,,,,,,,,,,,,,,,,,,,,,,,,,,,,,,,,,,,,,,,,30,,,,,,,,855.5375116999494,855.5375116999494,855.5375116999494,855.5375116999494,855.5375116999494,return,5.0618997000856325,6,0,0,1,0.56,0.24,return,4.971128100063652,-5,29,0.56,0.24,,,,,,,,,,,,,,,,,,,,,,,,,,,,,,,,,,,,,,,,,,,,,,,,,,,,,,,,EYKRNY,train_x,blue_star,top_left,2025-09-05_14h22.06.497,HideSeek_v1,2022.2.5,59.950277266211366,
,4,7,4,7,0,0,61,,train_dim1_1,15,30,,,,2,0,2,0,,,,,,,,,0,0,0,0,0,14,14,14,0,0,0,0,,,,,,,,,,,,,,,,,,,,,,,,,stimuli/alien_stimuli/61.png,,,,,,,,,,,,,,,,,,,,,,,,,,,,,stimuli/alien_stimuli/11.png,11,4,16,,,,,,,30,,,,,,,,866.1701801000163,866.1701801000163,866.1701801000163,866.1701801000163,866.1701801000163,return,2.1736341000068933,7,0,0,1,0.16,0.16,return,2.0665756999514997,-5,29,0.16,0.16,864.5907637999626,866.1701801000163,0.56,0.24,0.0,0.4,0.24,0.56,0.36000000000000004,0.56,0.24,862.1720717999851,862.1720717999851,862.1720717999851,862.1720717999851,862.1720717999851,862.1720717999851,862.1720717999851,862.1720717999851,862.1553260999731,2.5378332999534905,return,2.386983499978669,,,,,,,,,,,,,,,,,,,,,,,,,,,,,,,,,EYKRNY,train_x,blue_star,top_left,2025-09-05_14h22.06.497,HideSeek_v1,2022.2.5,59.950277266211366,
,3,8,4,8,1,0,51,,train_dim1_1,16,30,,,,2,0,2,0,,,,,,,,,0,0,0,0,0,15,15,15,0,0,0,0,,,,,,,,,,,,,,,,,,,,,,,,,stimuli/alien_stimuli/51.png,,,,,,,,,,,,,,,,,,,,,,,,,,,,,stimuli/alien_stimuli/61.png,61,4,17,,,,,,,30,,,,,,,,873.3099125999724,873.3099125999724,873.3099125999724,873.3099125999724,873.3099125999724,right,1.6851870999671519,7,0,0,99,0.16,0.24,right,1.5886626000283286,,,,,871.729817399988,873.3099125999724,0.16,0.16,0.0,0.0,0.16,0.16,0.16,0.16,0.16,869.8889575999929,869.8889575999929,869.8889575999929,869.8889575999929,869.8889575999929,869.8889575999929,869.8889575999929,869.8889575999929,869.8782389000057,1.953969300026074,return,1.8182592999655753,,,,,,,,,,,,,,,,,,,,,,,,,,,,,,,,,EYKRNY,train_x,blue_star,top_left,2025-09-05_14h22.06.497,HideSeek_v1,2022.2.5,59.950277266211366,
,3,8,4,8,1,0,51,,train_dim1_1,16,30,,,,2,0,2,0,,,,,,,,,0,0,0,0,0,15,15,15,1,0,1,0,,,,,,,,,,,,,,,,,,,,,,,,,,,,,,,,,,,,,,,,,,,,,,,,,,,,,,,,,,,,,,,,30,,,,,,,,874.9881662999978,874.9881662999978,874.9881662999978,874.9881662999978,874.9881662999978,return,0.9069120000349358,8,0,0,1,0.16,0.24,return,0.8132795999990776,-5,30,0.16,0.24,,,,,,,,,,,,,,,,,,,,,,,,,,,,,,,,,,,,,,,,,,,,,,,,,,,,,,,,EYKRNY,train_x,blue_star,top_left,2025-09-05_14h22.06.497,HideSeek_v1,2022.2.5,59.950277266211366,
,2,9,6,9,4,0,21,,train_dim1_1,17,30,,,,2,0,2,0,,,,,,,,,0,0,0,0,0,16,16,16,0,0,0,0,,,,,,,,,,,,,,,,,,,,,,,,,stimuli/alien_stimuli/21.png,,,,,,,,,,,,,,,,,,,,,,,,,,,,,stimuli/alien_stimuli/51.png,51,3,18,,,,,,,30,,,,,,,,880.4223153999774,880.4223153999774,880.4223153999774,880.4223153999774,880.4223153999774,right,2.401753199985251,8,0,0,99,0.08,0.32,right,2.2936890999553725,,,,,878.8357849000022,880.4223153999774,0.16,0.24,0.0,0.08,0.24,0.16,0.12,0.16,0.24,877.4740185999544,877.4740185999544,877.4740185999544,877.4740185999544,877.4740185999544,877.4740185999544,877.4740185999544,877.4740185999544,877.4515997000503,1.486336800036952,return,1.3392068000975996,,,,,,,,,,,,,,,,,,,,,,,,,,,,,,,,,EYKRNY,train_x,blue_star,top_left,2025-09-05_14h22.06.497,HideSeek_v1,2022.2.5,59.950277266211366,
,2,9,6,9,4,0,21,,train_dim1_1,17,30,,,,2,0,2,0,,,,,,,,,0,0,0,0,0,16,16,16,1,0,1,0,,,,,,,,,,,,,,,,,,,,,,,,,,,,,,,,,,,,,,,,,,,,,,,,,,,,,,,,,,,,,,,,30,,,,,,,,882.8121876999503,882.8121876999503,882.8121876999503,882.8121876999503,882.8121876999503,right,0.776099200011231,8,0,0,99,0.16,0.32,right,0.6789303999394178,,,,,,,,,,,,,,,,,,,,,,,,,,,,,,,,,,,,,,,,,,,,,,,,,,,,,,,,,,,,EYKRNY,train_x,blue_star,top_left,2025-09-05_14h22.06.497,HideSeek_v1,2022.2.5,59.950277266211366,
,2,9,6,9,4,0,21,,train_dim1_1,17,30,,,,2,0,2,0,,,,,,,,,0,0,0,0,0,16,16,16,2,0,2,0,,,,,,,,,,,,,,,,,,,,,,,,,,,,,,,,,,,,,,,,,,,,,,,,,,,,,,,,,,,,,,,,30,,,,,,,,883.5910118999891,883.5910118999891,883.5910118999891,883.5910118999891,883.5910118999891,right,0.96044069994241,8,0,0,99,0.24,0.32,right,0.8712064999854192,,,,,,,,,,,,,,,,,,,,,,,,,,,,,,,,,,,,,,,,,,,,,,,,,,,,,,,,,,,,EYKRNY,train_x,blue_star,top_left,2025-09-05_14h22.06.497,HideSeek_v1,2022.2.5,59.950277266211366,
,2,9,6,9,4,0,21,,train_dim1_1,17,30,,,,2,0,2,0,,,,,,,,,0,0,0,0,0,16,16,16,3,0,3,0,,,,,,,,,,,,,,,,,,,,,,,,,,,,,,,,,,,,,,,,,,,,,,,,,,,,,,,,,,,,,,,,30,,,,,,,,884.5587313999422,884.5587313999422,884.5587313999422,884.5587313999422,884.5587313999422,right,1.0936761000193655,8,0,0,99,0.32,0.32,right,1.0036375001072884,,,,,,,,,,,,,,,,,,,,,,,,,,,,,,,,,,,,,,,,,,,,,,,,,,,,,,,,,,,,EYKRNY,train_x,blue_star,top_left,2025-09-05_14h22.06.497,HideSeek_v1,2022.2.5,59.950277266211366,
,2,9,6,9,4,0,21,,train_dim1_1,17,30,,,,2,0,2,0,,,,,,,,,0,0,0,0,0,16,16,16,4,0,4,0,,,,,,,,,,,,,,,,,,,,,,,,,,,,,,,,,,,,,,,,,,,,,,,,,,,,,,,,,,,,,,,,30,,,,,,,,885.6605887999758,885.6605887999758,885.6605887999758,885.6605887999758,885.6605887999758,return,0.7099030000390485,9,0,0,1,0.32,0.32,return,0.616436899988912,-5,34,0.32,0.32,,,,,,,,,,,,,,,,,,,,,,,,,,,,,,,,,,,,,,,,,,,,,,,,,,,,,,,,EYKRNY,train_x,blue_star,top_left,2025-09-05_14h22.06.497,HideSeek_v1,2022.2.5,59.950277266211366,
,2,6,2,6,0,0,61,,train_dim1_1,18,30,,,,2,0,2,0,,,,,,,,,0,0,0,0,0,17,17,17,0,0,0,0,,,,,,,,,,,,,,,,,,,,,,,,,stimuli/alien_stimuli/61.png,,,,,,,,,,,,,,,,,,,,,,,,,,,,,stimuli/alien_stimuli/21.png,21,2,19,,,,,,,30,,,,,,,,890.9220689999638,890.9220689999638,890.9220689999638,890.9220689999638,890.9220689999638,return,1.468716899980791,10,0,0,1,0,0.08,return,1.359155400074087,-5,34,0,0.08,889.3448171999771,890.9220689999638,0.32,0.32,0.0,0.32,0.32,0.32,0.16,0.32,0.32,887.9485149999382,887.9485149999382,887.9485149999382,887.9485149999382,887.9485149999382,887.9485149999382,887.9485149999382,887.9485149999382,887.9263618999626,1.5201981000136584,return,1.3712193000828847,,,,,,,,,,,,,,,,,,,,,,,,,,,,,,,,,EYKRNY,train_x,blue_star,top_left,2025-09-05_14h22.06.497,HideSeek_v1,2022.2.5,59.950277266211366,
,0,8,3,8,3,0,31,,train_dim1_1,19,30,,,,2,0,2,0,,,,,,,,,0,0,0,0,0,18,18,18,0,0,0,0,,,,,,,,,,,,,,,,,,,,,,,,,stimuli/alien_stimuli/31.png,,,,,,,,,,,,,,,,,,,,,,,,,,,,,stimuli/alien_stimuli/61.png,61,2,20,,,,,,,30,,,,,,,,896.9129257999593,896.9129257999593,896.9129257999593,896.9129257999593,896.9129257999593,right,1.5057795000029728,10,0,0,99,-0.08,0.24,right,1.4095232000108808,,,,,895.3495343999239,896.9129257999593,0,0.08,0.0,0.0,0.08,0,0.0,0,0.08,893.9347468999913,893.9347468999913,893.9347468999913,893.9347468999913,893.9347468999913,893.9347468999913,893.9347468999913,893.9347468999913,893.9149178999476,1.5201477999798954,return,1.390079200034961,,,,,,,,,,,,,,,,,,,,,,,,,,,,,,,,,EYKRNY,train_x,blue_star,top_left,2025-09-05_14h22.06.497,HideSeek_v1,2022.2.5,59.950277266211366,
,0,8,3,8,3,0,31,,train_dim1_1,19,30,,,,2,0,2,0,,,,,,,,,0,0,0,0,0,18,18,18,1,0,1,0,,,,,,,,,,,,,,,,,,,,,,,,,,,,,,,,,,,,,,,,,,,,,,,,,,,,,,,,,,,,,,,,30,,,,,,,,898.4231513999403,898.4231513999403,898.4231513999403,898.4231513999403,898.4231513999403,right,0.72607950004749,10,0,0,99,0.0,0.24,right,0.6309053000295535,,,,,,,,,,,,,,,,,,,,,,,,,,,,,,,,,,,,,,,,,,,,,,,,,,,,,,,,,,,,EYKRNY,train_x,blue_star,top_left,2025-09-05_14h22.06.497,HideSeek_v1,2022.2.5,59.950277266211366,
,0,8,3,8,3,0,31,,train_dim1_1,19,30,,,,2,0,2,0,,,,,,,,,0,0,0,0,0,18,18,18,2,0,2,0,,,,,,,,,,,,,,,,,,,,,,,,,,,,,,,,,,,,,,,,,,,,,,,,,,,,,,,,,,,,,,,,30,,,,,,,,899.154595799977,899.154595799977,899.154595799977,899.154595799977,899.154595799977,right,0.5266145000932738,10,0,0,99,0.08,0.24,right,0.43819979997351766,,,,,,,,,,,,,,,,,,,,,,,,,,,,,,,,,,,,,,,,,,,,,,,,,,,,,,,,,,,,EYKRNY,train_x,blue_star,top_left,2025-09-05_14h22.06.497,HideSeek_v1,2022.2.5,59.950277266211366,
,0,8,3,8,3,0,31,,train_dim1_1,19,30,,,,2,0,2,0,,,,,,,,,0,0,0,0,0,18,18,18,3,0,3,0,,,,,,,,,,,,,,,,,,,,,,,,,,,,,,,,,,,,,,,,,,,,,,,,,,,,,,,,,,,,,,,,30,,,,,,,,899.6862016000086,899.6862016000086,899.6862016000086,899.6862016000086,899.6862016000086,return,5.161708400002681,11,0,0,1,0.08,0.24,return,5.085596399963833,-5,37,0.08,0.24,,,,,,,,,,,,,,,,,,,,,,,,,,,,,,,,,,,,,,,,,,,,,,,,,,,,,,,,EYKRNY,train_x,blue_star,top_left,2025-09-05_14h22.06.497,HideSeek_v1,2022.2.5,59.950277266211366,
,0,6,5,6,5,0,11,,train_dim1_1,20,30,,,,2,0,2,0,,,,,,,,,0,0,0,0,0,19,19,19,0,0,0,0,,,,,,,,,,,,,,,,,,,,,,,,,stimuli/alien_stimuli/11.png,,,,,,,,,,,,,,,,,,,,,,,,,,,,,stimuli/alien_stimuli/31.png,31,0,21,,,,,,,30,,,,,,,,909.0613697000081,909.0613697000081,909.0613697000081,909.0613697000081,909.0613697000081,right,1.2371027000481263,11,0,0,99,-0.08,0.08,right,1.1198982000350952,,,,,907.4763116999529,909.0613697000081,0.08,0.24,0.0,0.24,0.24,0.08,-0.04,0.08,0.24,906.4282371000154,906.4282371000154,906.4282371000154,906.4282371000154,906.4282371000154,906.4282371000154,906.4282371000154,906.4282371000154,906.408562900056,1.1701502000214532,return,1.0252580000087619,,,,,,,,,,,,,,,,,,,,,,,,,,,,,,,,,EYKRNY,train_x,blue_star,top_left,2025-09-05_14h22.06.497,HideSeek_v1,2022.2.5,59.950277266211366,
,0,6,5,6,5,0,11,,train_dim1_1,20,30,,,,2,0,2,0,,,,,,,,,0,0,0,0,0,19,19,19,1,0,1,0,,,,,,,,,,,,,,,,,,,,,,,,,,,,,,,,,,,,,,,,,,,,,,,,,,,,,,,,,,,,,,,,30,,,,,,,,910.2812844000291,910.2812844000291,910.2812844000291,910.2812844000291,910.2812844000291,right,0.5262416999321431,11,0,0,99,0.0,0.08,right,0.4448066999902949,,,,,,,,,,,,,,,,,,,,,,,,,,,,,,,,,,,,,,,,,,,,,,,,,,,,,,,,,,,,EYKRNY,train_x,blue_star,top_left,2025-09-05_14h22.06.497,HideSeek_v1,2022.2.5,59.950277266211366,
,0,6,5,6,5,0,11,,train_dim1_1,20,30,,,,2,0,2,0,,,,,,,,,0,0,0,0,0,19,19,19,2,0,2,0,,,,,,,,,,,,,,,,,,,,,,,,,,,,,,,,,,,,,,,,,,,,,,,,,,,,,,,,,,,,,,,,30,,,,,,,,910.8142400999786,910.8142400999786,910.8142400999786,910.8142400999786,910.8142400999786,right,0.5436722000595182,11,0,0,99,0.08,0.08,right,0.46433410001918674,,,,,,,,,,,,,,,,,,,,,,,,,,,,,,,,,,,,,,,,,,,,,,,,,,,,,,,,,,,,EYKRNY,train_x,blue_star,top_left,2025-09-05_14h22.06.497,HideSeek_v1,2022.2.5,59.950277266211366,
,0,6,5,6,5,0,11,,train_dim1_1,20,30,,,,2,0,2,0,,,,,,,,,0,0,0,0,0,19,19,19,3,0,3,0,,,,,,,,,,,,,,,,,,,,,,,,,,,,,,,,,,,,,,,,,,,,,,,,,,,,,,,,,,,,,,,,30,,,,,,,,911.3685129999649,911.3685129999649,911.3685129999649,911.3685129999649,911.3685129999649,right,0.5093420000048354,11,0,0,99,0.16,0.08,right,0.42298459995072335,,,,,,,,,,,,,,,,,,,,,,,,,,,,,,,,,,,,,,,,,,,,,,,,,,,,,,,,,,,,EYKRNY,train_x,blue_star,top_left,2025-09-05_14h22.06.497,HideSeek_v1,2022.2.5,59.950277266211366,
,0,6,5,6,5,0,11,,train_dim1_1,20,30,,,,2,0,2,0,,,,,,,,,0,0,0,0,0,19,19,19,4,0,4,0,,,,,,,,,,,,,,,,,,,,,,,,,,,,,,,,,,,,,,,,,,,,,,,,,,,,,,,,,,,,,,,,30,,,,,,,,911.880925299949,911.880925299949,911.880925299949,911.880925299949,911.880925299949,right,0.47676469990983605,11,0,0,99,0.24,0.08,right,0.38705330004449934,,,,,,,,,,,,,,,,,,,,,,,,,,,,,,,,,,,,,,,,,,,,,,,,,,,,,,,,,,,,EYKRNY,train_x,blue_star,top_left,2025-09-05_14h22.06.497,HideSeek_v1,2022.2.5,59.950277266211366,
,0,6,5,6,5,0,11,,train_dim1_1,20,30,,,,2,0,2,0,,,,,,,,,0,0,0,0,0,19,19,19,5,0,5,0,,,,,,,,,,,,,,,,,,,,,,,,,,,,,,,,,,,,,,,,,,,,,,,,,,,,,,,,,,,,,,,,30,,,,,,,,912.3673526999773,912.3673526999773,912.3673526999773,912.3673526999773,912.3673526999773,return,0.5934249999700114,12,0,0,1,0.24,0.08,return,0.5006623000372201,-5,42,0.24,0.08,,,,,,,,,,,,,,,,,,,,,,,,,,,,,,,,,,,,,,,,,,,,,,,,,,,,,,,,EYKRNY,train_x,blue_star,top_left,2025-09-05_14h22.06.497,HideSeek_v1,2022.2.5,59.950277266211366,
,4,7,7,7,3,0,31,,train_dim1_1,21,30,,,,2,0,2,0,,,,,,,,,0,0,0,0,0,20,20,20,0,0,0,0,,,,,,,,,,,,,,,,,,,,,,,,,stimuli/alien_stimuli/31.png,,,,,,,,,,,,,,,,,,,,,,,,,,,,,stimuli/alien_stimuli/11.png,11,0,22,,,,,,,30,,,,,,,,917.3738742999267,917.3738742999267,917.3738742999267,917.3738742999267,917.3738742999267,right,1.7869113000342622,12,0,0,99,0.24,0.16,right,1.6808083000360057,,,,,915.7997357000131,917.3738742999267,0.24,0.08,0.0,0.4,0.08,0.24,0.039999999999999994,0.24,0.08,914.5272702999646,914.5272702999646,914.5272702999646,914.5272702999646,914.5272702999646,914.5272702999646,914.5272702999646,914.5272702999646,914.5153032000176,1.386932299938053,return,1.245100700063631,,,,,,,,,,,,,,,,,,,,,,,,,,,,,,,,,EYKRNY,train_x,blue_star,top_left,2025-09-05_14h22.06.497,HideSeek_v1,2022.2.5,59.950277266211366,
,4,7,7,7,3,0,31,,train_dim1_1,21,30,,,,2,0,2,0,,,,,,,,,0,0,0,0,0,20,20,20,1,0,1,0,,,,,,,,,,,,,,,,,,,,,,,,,,,,,,,,,,,,,,,,,,,,,,,,,,,,,,,,,,,,,,,,30,,,,,,,,919.1524891000008,919.1524891000008,919.1524891000008,919.1524891000008,919.1524891000008,right,0.4261141000315547,12,0,0,99,0.32,0.16,right,0.34480389999225736,,,,,,,,,,,,,,,,,,,,,,,,,,,,,,,,,,,,,,,,,,,,,,,,,,,,,,,,,,,,EYKRNY,train_x,blue_star,top_left,2025-09-05_14h22.06.497,HideSeek_v1,2022.2.5,59.950277266211366,
,4,7,7,7,3,0,31,,train_dim1_1,21,30,,,,2,0,2,0,,,,,,,,,0,0,0,0,0,20,20,20,2,0,2,0,,,,,,,,,,,,,,,,,,,,,,,,,,,,,,,,,,,,,,,,,,,,,,,,,,,,,,,,,,,,,,,,30,,,,,,,,919.5844799999613,919.5844799999613,919.5844799999613,919.5844799999613,919.5844799999613,right,0.39280769997276366,12,0,0,99,0.4,0.16,right,0.30392430000938475,,,,,,,,,,,,,,,,,,,,,,,,,,,,,,,,,,,,,,,,,,,,,,,,,,,,,,,,,,,,EYKRNY,train_x,blue_star,top_left,2025-09-05_14h22.06.497,HideSeek_v1,2022.2.5,59.950277266211366,
,4,7,7,7,3,0,31,,train_dim1_1,21,30,,,,2,0,2,0,,,,,,,,,0,0,0,0,0,20,20,20,3,0,3,0,,,,,,,,,,,,,,,,,,,,,,,,,,,,,,,,,,,,,,,,,,,,,,,,,,,,,,,,,,,,,,,,30,,,,,,,,919.9846601999598,919.9846601999598,919.9846601999598,919.9846601999598,919.9846601999598,return,0.4768005999503657,13,0,0,1,0.4,0.16,return,0.40180200000759214,-5,45,0.4,0.16,,,,,,,,,,,,,,,,,,,,,,,,,,,,,,,,,,,,,,,,,,,,,,,,,,,,,,,,EYKRNY,train_x,blue_star,top_left,2025-09-05_14h22.06.497,HideSeek_v1,2022.2.5,59.950277266211366,
,1,5,5,5,4,0,21,,train_dim1_1,22,30,,,,2,0,2,0,,,,,,,,,0,0,0,0,0,21,21,21,0,0,0,0,,,,,,,,,,,,,,,,,,,,,,,,,stimuli/alien_stimuli/21.png,,,,,,,,,,,,,,,,,,,,,,,,,,,,,stimuli/alien_stimuli/31.png,31,4,23,,,,,,,30,,,,,,,,924.5692072999664,924.5692072999664,924.5692072999664,924.5692072999664,924.5692072999664,right,1.0936769000254571,13,0,0,99,0.0,0,right,1.0012975999852642,,,,,922.9890487999655,924.5692072999664,0.4,0.16,0.0,0.24,0.16,0.4,0.28,0.4,0.16,922.0252641999396,922.0252641999396,922.0252641999396,922.0252641999396,922.0252641999396,922.0252641999396,922.0252641999396,922.0252641999396,922.0049818000523,1.0693545000394806,return,0.9444853999884799,,,,,,,,,,,,,,,,,,,,,,,,,,,,,,,,,EYKRNY,train_x,blue_star,top_left,2025-09-05_14h22.06.497,HideSeek_v1,2022.2.5,59.950277266211366,
,1,5,5,5,4,0,21,,train_dim1_1,22,30,,,,2,0,2,0,,,,,,,,,0,0,0,0,0,21,21,21,1,0,1,0,,,,,,,,,,,,,,,,,,,,,,,,,,,,,,,,,,,,,,,,,,,,,,,,,,,,,,,,,,,,,,,,30,,,,,,,,925.6675246999366,925.6675246999366,925.6675246999366,925.6675246999366,925.6675246999366,right,0.3705890999408439,13,0,0,99,0.08,0,right,0.27757369994651526,,,,,,,,,,,,,,,,,,,,,,,,,,,,,,,,,,,,,,,,,,,,,,,,,,,,,,,,,,,,EYKRNY,train_x,blue_star,top_left,2025-09-05_14h22.06.497,HideSeek_v1,2022.2.5,59.950277266211366,
,1,5,5,5,4,0,21,,train_dim1_1,22,30,,,,2,0,2,0,,,,,,,,,0,0,0,0,0,21,21,21,2,0,2,0,,,,,,,,,,,,,,,,,,,,,,,,,,,,,,,,,,,,,,,,,,,,,,,,,,,,,,,,,,,,,,,,30,,,,,,,,926.048536599963,926.048536599963,926.048536599963,926.048536599963,926.048536599963,right,0.37969880003947765,13,0,0,99,0.16,0,right,0.2940179000142962,,,,,,,,,,,,,,,,,,,,,,,,,,,,,,,,,,,,,,,,,,,,,,,,,,,,,,,,,,,,EYKRNY,train_x,blue_star,top_left,2025-09-05_14h22.06.497,HideSeek_v1,2022.2.5,59.950277266211366,
,1,5,5,5,4,0,21,,train_dim1_1,22,30,,,,2,0,2,0,,,,,,,,,0,0,0,0,0,21,21,21,3,0,3,0,,,,,,,,,,,,,,,,,,,,,,,,,,,,,,,,,,,,,,,,,,,,,,,,,,,,,,,,,,,,,,,,30,,,,,,,,926.4659192999825,926.4659192999825,926.4659192999825,926.4659192999825,926.4659192999825,right,0.39504269999451935,13,0,0,99,0.24,0,right,0.2982631999766454,,,,,,,,,,,,,,,,,,,,,,,,,,,,,,,,,,,,,,,,,,,,,,,,,,,,,,,,,,,,EYKRNY,train_x,blue_star,top_left,2025-09-05_14h22.06.497,HideSeek_v1,2022.2.5,59.950277266211366,
,1,5,5,5,4,0,21,,train_dim1_1,22,30,,,,2,0,2,0,,,,,,,,,0,0,0,0,0,21,21,21,4,0,4,0,,,,,,,,,,,,,,,,,,,,,,,,,,,,,,,,,,,,,,,,,,,,,,,,,,,,,,,,,,,,,,,,30,,,,,,,,926.8775707000168,926.8775707000168,926.8775707000168,926.8775707000168,926.8775707000168,return,0.44125440006610006,14,0,0,1,0.24,0,return,0.34903949999716133,-5,49,0.24,0,,,,,,,,,,,,,,,,,,,,,,,,,,,,,,,,,,,,,,,,,,,,,,,,,,,,,,,,EYKRNY,train_x,blue_star,top_left,2025-09-05_14h22.06.497,HideSeek_v1,2022.2.5,59.950277266211366,
,2,6,2,6,0,0,61,,train_dim1_1,23,30,,,,2,0,2,0,,,,,,,,,0,0,0,0,0,22,22,22,0,0,0,0,,,,,,,,,,,,,,,,,,,,,,,,,stimuli/alien_stimuli/61.png,,,,,,,,,,,,,,,,,,,,,,,,,,,,,stimuli/alien_stimuli/21.png,21,1,24,,,,,,,30,,,,,,,,931.5054126000032,931.5054126000032,931.5054126000032,931.5054126000032,931.5054126000032,return,1.2064332000445575,15,0,0,1,0,0.08,return,1.0930392999434844,-5,49,0,0.08,929.9278032999719,931.5054126000032,0.24,0,0.0,0.32,0.0,0.24,0.07999999999999999,0.24,0,928.8905350000132,928.8905350000132,928.8905350000132,928.8905350000132,928.8905350000132,928.8905350000132,928.8905350000132,928.8905350000132,928.8779480999568,1.168307099957019,return,1.0185331999091431,,,,,,,,,,,,,,,,,,,,,,,,,,,,,,,,,EYKRNY,train_x,blue_star,top_left,2025-09-05_14h22.06.497,HideSeek_v1,2022.2.5,59.950277266211366,
,4,9,5,9,1,0,51,,train_dim1_1,24,30,,,,2,0,2,0,,,,,,,,,0,0,0,0,0,23,23,23,0,0,0,0,,,,,,,,,,,,,,,,,,,,,,,,,stimuli/alien_stimuli/51.png,,,,,,,,,,,,,,,,,,,,,,,,,,,,,stimuli/alien_stimuli/61.png,61,2,25,,,,,,,30,,,,,,,,936.8814927999629,936.8814927999629,936.8814927999629,936.8814927999629,936.8814927999629,right,2.3745319000445306,15,0,0,99,0.24,0.32,right,2.272726400056854,,,,,935.3164341999218,936.8814927999629,0,0.08,0.0,0.0,0.08,0,0.0,0,0.08,934.2557038000086,934.2557038000086,934.2557038000086,934.2557038000086,934.2557038000086,934.2557038000086,934.2557038000086,934.2557038000086,934.2316238999599,1.1697570000542328,return,1.035288600018248,,,,,,,,,,,,,,,,,,,,,,,,,,,,,,,,,EYKRNY,train_x,blue_star,top_left,2025-09-05_14h22.06.497,HideSeek_v1,2022.2.5,59.950277266211366,
,4,9,5,9,1,0,51,,train_dim1_1,24,30,,,,2,0,2,0,,,,,,,,,0,0,0,0,0,23,23,23,1,0,1,0,,,,,,,,,,,,,,,,,,,,,,,,,,,,,,,,,,,,,,,,,,,,,,,,,,,,,,,,,,,,,,,,30,,,,,,,,939.2592946999939,939.2592946999939,939.2592946999939,939.2592946999939,939.2592946999939,return,0.4919075999641791,16,0,0,1,0.24,0.32,return,0.40954090002924204,-5,50,0.24,0.32,,,,,,,,,,,,,,,,,,,,,,,,,,,,,,,,,,,,,,,,,,,,,,,,,,,,,,,,EYKRNY,train_x,blue_star,top_left,2025-09-05_14h22.06.497,HideSeek_v1,2022.2.5,59.950277266211366,
,3,5,8,5,5,0,11,,train_dim1_1,25,30,,,,2,0,2,0,,,,,,,,,0,0,0,0,0,24,24,24,0,0,0,0,,,,,,,,,,,,,,,,,,,,,,,,,stimuli/alien_stimuli/11.png,,,,,,,,,,,,,,,,,,,,,,,,,,,,,stimuli/alien_stimuli/51.png,51,4,26,,,,,,,30,,,,,,,,944.2374133999692,944.2374133999692,944.2374133999692,944.2374133999692,944.2374133999692,right,1.139721899991855,16,0,0,99,0.16,0,right,1.0378458000486717,,,,,942.6720089999726,944.2374133999692,0.24,0.32,0.0,0.08,0.32,0.24,0.2,0.24,0.32,941.3255385999801,941.3255385999801,941.3255385999801,941.3255385999801,941.3255385999801,941.3255385999801,941.3255385999801,941.3255385999801,941.3044817999703,1.469574199989438,return,1.3233758000424132,,,,,,,,,,,,,,,,,,,,,,,,,,,,,,,,,EYKRNY,train_x,blue_star,top_left,2025-09-05_14h22.06.497,HideSeek_v1,2022.2.5,59.950277266211366,
,3,5,8,5,5,0,11,,train_dim1_1,25,30,,,,2,0,2,0,,,,,,,,,0,0,0,0,0,24,24,24,1,0,1,0,,,,,,,,,,,,,,,,,,,,,,,,,,,,,,,,,,,,,,,,,,,,,,,,,,,,,,,,,,,,,,,,30,,,,,,,,945.3782066999702,945.3782066999702,945.3782066999702,945.3782066999702,945.3782066999702,right,0.39255480002611876,16,0,0,99,0.24,0,right,0.30669130000751466,,,,,,,,,,,,,,,,,,,,,,,,,,,,,,,,,,,,,,,,,,,,,,,,,,,,,,,,,,,,EYKRNY,train_x,blue_star,top_left,2025-09-05_14h22.06.497,HideSeek_v1,2022.2.5,59.950277266211366,
,3,5,8,5,5,0,11,,train_dim1_1,25,30,,,,2,0,2,0,,,,,,,,,0,0,0,0,0,24,24,24,2,0,2,0,,,,,,,,,,,,,,,,,,,,,,,,,,,,,,,,,,,,,,,,,,,,,,,,,,,,,,,,,,,,,,,,30,,,,,,,,945.7781938000116,945.7781938000116,945.7781938000116,945.7781938000116,945.7781938000116,right,0.393255400005728,16,0,0,99,0.32,0,right,0.3053101999685168,,,,,,,,,,,,,,,,,,,,,,,,,,,,,,,,,,,,,,,,,,,,,,,,,,,,,,,,,,,,EYKRNY,train_x,blue_star,top_left,2025-09-05_14h22.06.497,HideSeek_v1,2022.2.5,59.950277266211366,
,3,5,8,5,5,0,11,,train_dim1_1,25,30,,,,2,0,2,0,,,,,,,,,0,0,0,0,0,24,24,24,3,0,3,0,,,,,,,,,,,,,,,,,,,,,,,,,,,,,,,,,,,,,,,,,,,,,,,,,,,,,,,,,,,,,,,,30,,,,,,,,946.1802313999506,946.1802313999506,946.1802313999506,946.1802313999506,946.1802313999506,right,0.39326100004836917,16,0,0,99,0.4,0,right,0.2981068000663072,,,,,,,,,,,,,,,,,,,,,,,,,,,,,,,,,,,,,,,,,,,,,,,,,,,,,,,,,,,,EYKRNY,train_x,blue_star,top_left,2025-09-05_14h22.06.497,HideSeek_v1,2022.2.5,59.950277266211366,
,3,5,8,5,5,0,11,,train_dim1_1,25,30,,,,2,0,2,0,,,,,,,,,0,0,0,0,0,24,24,24,4,0,4,0,,,,,,,,,,,,,,,,,,,,,,,,,,,,,,,,,,,,,,,,,,,,,,,,,,,,,,,,,,,,,,,,30,,,,,,,,946.578978799982,946.578978799982,946.578978799982,946.578978799982,946.578978799982,right,0.39295240002684295,16,0,0,99,0.48000000000000004,0,right,0.31423749995883554,,,,,,,,,,,,,,,,,,,,,,,,,,,,,,,,,,,,,,,,,,,,,,,,,,,,,,,,,,,,EYKRNY,train_x,blue_star,top_left,2025-09-05_14h22.06.497,HideSeek_v1,2022.2.5,59.950277266211366,
,3,5,8,5,5,0,11,,train_dim1_1,25,30,,,,2,0,2,0,,,,,,,,,0,0,0,0,0,24,24,24,5,0,5,0,,,,,,,,,,,,,,,,,,,,,,,,,,,,,,,,,,,,,,,,,,,,,,,,,,,,,,,,,,,,,,,,30,,,,,,,,946.9801979999756,946.9801979999756,946.9801979999756,946.9801979999756,946.9801979999756,return,1.2773797999834642,17,0,0,1,0.48000000000000004,0,return,1.181311700027436,-5,55,0.48000000000000004,0,,,,,,,,,,,,,,,,,,,,,,,,,,,,,,,,,,,,,,,,,,,,,,,,,,,,,,,,EYKRNY,train_x,blue_star,top_left,2025-09-05_14h22.06.497,HideSeek_v1,2022.2.5,59.950277266211366,
,1,6,1,6,0,0,61,,train_dim1_1,26,30,,,,2,0,2,0,,,,,,,,,0,0,0,0,0,25,25,25,0,0,0,0,,,,,,,,,,,,,,,,,,,,,,,,,stimuli/alien_stimuli/61.png,,,,,,,,,,,,,,,,,,,,,,,,,,,,,stimuli/alien_stimuli/11.png,11,3,27,,,,,,,30,,,,,,,,952.7291254999582,952.7291254999582,952.7291254999582,952.7291254999582,952.7291254999582,return,3.0873447000049055,18,0,0,1,-0.08,0.08,return,2.985003700014204,-5,55,-0.08,0.08,951.145812899922,952.7291254999582,0.48,0,0.0,0.4,0.0,0.48,0.27999999999999997,0.48,0,949.8252114999341,949.8252114999341,949.8252114999341,949.8252114999341,949.8252114999341,949.8252114999341,949.8252114999341,949.8252114999341,949.8113527000182,1.4364601999986917,return,1.2924505999544635,,,,,,,,,,,,,,,,,,,,,,,,,,,,,,,,,EYKRNY,train_x,blue_star,top_left,2025-09-05_14h22.06.497,HideSeek_v1,2022.2.5,59.950277266211366,
,0,6,3,6,3,0,31,,train_dim1_1,27,30,,,,2,0,2,0,,,,,,,,,0,0,0,0,0,26,26,26,0,0,0,0,,,,,,,,,,,,,,,,,,,,,,,,,stimuli/alien_stimuli/31.png,,,,,,,,,,,,,,,,,,,,,,,,,,,,,stimuli/alien_stimuli/61.png,61,1,28,,,,,,,30,,,,,,,,960.4008815999841,960.4008815999841,960.4008815999841,960.4008815999841,960.4008815999841,right,1.1475233000237495,18,0,0,99,-0.08,0.08,right,1.0424894000170752,,,,,958.8187501999782,960.4008815999841,-0.08,0.08,0.0,0.0,0.08,-0.08,-0.08,-0.08,0.08,957.3593519999413,957.3593519999413,957.3593519999413,957.3593519999413,957.3593519999413,957.3593519999413,957.3593519999413,957.3593519999413,957.3508405999978,1.5706792999990284,return,1.4328170999651775,,,,,,,,,,,,,,,,,,,,,,,,,,,,,,,,,EYKRNY,train_x,blue_star,top_left,2025-09-05_14h22.06.497,HideSeek_v1,2022.2.5,59.950277266211366,
,0,6,3,6,3,0,31,,train_dim1_1,27,30,,,,2,0,2,0,,,,,,,,,0,0,0,0,0,26,26,26,1,0,1,0,,,,,,,,,,,,,,,,,,,,,,,,,,,,,,,,,,,,,,,,,,,,,,,,,,,,,,,,,,,,,,,,30,,,,,,,,961.5390956000192,961.5390956000192,961.5390956000192,961.5390956000192,961.5390956000192,right,0.6263375000562519,18,0,0,99,0.0,0.08,right,0.5338104000547901,,,,,,,,,,,,,,,,,,,,,,,,,,,,,,,,,,,,,,,,,,,,,,,,,,,,,,,,,,,,EYKRNY,train_x,blue_star,top_left,2025-09-05_14h22.06.497,HideSeek_v1,2022.2.5,59.950277266211366,
,0,6,3,6,3,0,31,,train_dim1_1,27,30,,,,2,0,2,0,,,,,,,,,0,0,0,0,0,26,26,26,2,0,2,0,,,,,,,,,,,,,,,,,,,,,,,,,,,,,,,,,,,,,,,,,,,,,,,,,,,,,,,,,,,,,,,,30,,,,,,,,962.1781850999687,962.1781850999687,962.1781850999687,962.1781850999687,962.1781850999687,right,0.7603098000399768,18,0,0,99,0.08,0.08,right,0.6668552999617532,,,,,,,,,,,,,,,,,,,,,,,,,,,,,,,,,,,,,,,,,,,,,,,,,,,,,,,,,,,,EYKRNY,train_x,blue_star,top_left,2025-09-05_14h22.06.497,HideSeek_v1,2022.2.5,59.950277266211366,
,0,6,3,6,3,0,31,,train_dim1_1,27,30,,,,2,0,2,0,,,,,,,,,0,0,0,0,0,26,26,26,3,0,3,0,,,,,,,,,,,,,,,,,,,,,,,,,,,,,,,,,,,,,,,,,,,,,,,,,,,,,,,,,,,,,,,,30,,,,,,,,962.9376678999979,962.9376678999979,962.9376678999979,962.9376678999979,962.9376678999979,right,1.343935800017789,18,0,0,99,0.16,0.08,right,1.2699531000107527,,,,,,,,,,,,,,,,,,,,,,,,,,,,,,,,,,,,,,,,,,,,,,,,,,,,,,,,,,,,EYKRNY,train_x,blue_star,top_left,2025-09-05_14h22.06.497,HideSeek_v1,2022.2.5,59.950277266211366,
,0,6,3,6,3,0,31,,train_dim1_1,27,30,,,,2,0,2,0,,,,,,,,,0,0,0,0,0,26,26,26,4,0,4,0,,,,,,,,,,,,,,,,,,,,,,,,,,,,,,,,,,,,,,,,,,,,,,,,,,,,,,,,,,,,,,,,30,,,,,,,,964.291959599941,964.291959599941,964.291959599941,964.291959599941,964.291959599941,left,0.4398783999495208,18,0,0,99,0.08,0.08,left,0.358802399947308,,,,,,,,,,,,,,,,,,,,,,,,,,,,,,,,,,,,,,,,,,,,,,,,,,,,,,,,,,,,EYKRNY,train_x,blue_star,top_left,2025-09-05_14h22.06.497,HideSeek_v1,2022.2.5,59.950277266211366,
,0,6,3,6,3,0,31,,train_dim1_1,27,30,,,,2,0,2,0,,,,,,,,,0,0,0,0,0,26,26,26,5,0,5,0,,,,,,,,,,,,,,,,,,,,,,,,,,,,,,,,,,,,,,,,,,,,,,,,,,,,,,,,,,,,,,,,30,,,,,,,,964.7386528999778,964.7386528999778,964.7386528999778,964.7386528999778,964.7386528999778,return,3.6961039000889286,19,0,0,1,0.08,0.08,return,3.606556700076908,-5,58,0.08,0.08,,,,,,,,,,,,,,,,,,,,,,,,,,,,,,,,,,,,,,,,,,,,,,,,,,,,,,,,EYKRNY,train_x,blue_star,top_left,2025-09-05_14h22.06.497,HideSeek_v1,2022.2.5,59.950277266211366,
,3,6,7,6,4,0,21,,train_dim1_1,28,30,,,,2,0,2,0,,,,,,,,,0,0,0,0,0,27,27,27,0,0,0,0,,,,,,,,,,,,,,,,,,,,,,,,,stimuli/alien_stimuli/21.png,,,,,,,,,,,,,,,,,,,,,,,,,,,,,stimuli/alien_stimuli/31.png,31,0,29,,,,,,,30,,,,,,,,972.5787315999623,972.5787315999623,972.5787315999623,972.5787315999623,972.5787315999623,right,1.4719048000406474,19,0,0,99,0.16,0.08,right,1.361025799997151,,,,,970.995920300018,972.5787315999623,0.08,0.08,0.0,0.24,0.08,0.08,-0.04,0.08,0.08,970.0204537999816,970.0204537999816,970.0204537999816,970.0204537999816,970.0204537999816,970.0204537999816,970.0204537999816,970.0204537999816,970.0113359000301,1.1033881000475958,return,0.9508649000199512,,,,,,,,,,,,,,,,,,,,,,,,,,,,,,,,,EYKRNY,train_x,blue_star,top_left,2025-09-05_14h22.06.497,HideSeek_v1,2022.2.5,59.950277266211366,
,3,6,7,6,4,0,21,,train_dim1_1,28,30,,,,2,0,2,0,,,,,,,,,0,0,0,0,0,27,27,27,1,0,1,0,,,,,,,,,,,,,,,,,,,,,,,,,,,,,,,,,,,,,,,,,,,,,,,,,,,,,,,,,,,,,,,,30,,,,,,,,974.0350716999965,974.0350716999965,974.0350716999965,974.0350716999965,974.0350716999965,right,0.9769252999685705,19,0,0,99,0.24,0.08,right,0.8818209000164643,,,,,,,,,,,,,,,,,,,,,,,,,,,,,,,,,,,,,,,,,,,,,,,,,,,,,,,,,,,,EYKRNY,train_x,blue_star,top_left,2025-09-05_14h22.06.497,HideSeek_v1,2022.2.5,59.950277266211366,
,3,6,7,6,4,0,21,,train_dim1_1,28,30,,,,2,0,2,0,,,,,,,,,0,0,0,0,0,27,27,27,2,0,2,0,,,,,,,,,,,,,,,,,,,,,,,,,,,,,,,,,,,,,,,,,,,,,,,,,,,,,,,,,,,,,,,,30,,,,,,,,975.0176988999592,975.0176988999592,975.0176988999592,975.0176988999592,975.0176988999592,right,0.5929363000905141,19,0,0,99,0.32,0.08,right,0.5143136000260711,,,,,,,,,,,,,,,,,,,,,,,,,,,,,,,,,,,,,,,,,,,,,,,,,,,,,,,,,,,,EYKRNY,train_x,blue_star,top_left,2025-09-05_14h22.06.497,HideSeek_v1,2022.2.5,59.950277266211366,
,3,6,7,6,4,0,21,,train_dim1_1,28,30,,,,2,0,2,0,,,,,,,,,0,0,0,0,0,27,27,27,3,0,3,0,,,,,,,,,,,,,,,,,,,,,,,,,,,,,,,,,,,,,,,,,,,,,,,,,,,,,,,,,,,,,,,,30,,,,,,,,975.6184892000165,975.6184892000165,975.6184892000165,975.6184892000165,975.6184892000165,right,0.6431986000388861,19,0,0,99,0.4,0.08,right,0.5646180999465287,,,,,,,,,,,,,,,,,,,,,,,,,,,,,,,,,,,,,,,,,,,,,,,,,,,,,,,,,,,,EYKRNY,train_x,blue_star,top_left,2025-09-05_14h22.06.497,HideSeek_v1,2022.2.5,59.950277266211366,
,3,6,7,6,4,0,21,,train_dim1_1,28,30,,,,2,0,2,0,,,,,,,,,0,0,0,0,0,27,27,27,4,0,4,0,,,,,,,,,,,,,,,,,,,,,,,,,,,,,,,,,,,,,,,,,,,,,,,,,,,,,,,,,,,,,,,,30,,,,,,,,976.2714697999181,976.2714697999181,976.2714697999181,976.2714697999181,976.2714697999181,right,0.5600015999516472,19,0,0,99,0.48000000000000004,0.08,right,0.47971049998886883,,,,,,,,,,,,,,,,,,,,,,,,,,,,,,,,,,,,,,,,,,,,,,,,,,,,,,,,,,,,EYKRNY,train_x,blue_star,top_left,2025-09-05_14h22.06.497,HideSeek_v1,2022.2.5,59.950277266211366,
,3,6,7,6,4,0,21,,train_dim1_1,28,30,,,,2,0,2,0,,,,,,,,,0,0,0,0,0,27,27,27,5,0,5,0,,,,,,,,,,,,,,,,,,,,,,,,,,,,,,,,,,,,,,,,,,,,,,,,,,,,,,,,,,,,,,,,30,,,,,,,,976.836149699986,976.836149699986,976.836149699986,976.836149699986,976.836149699986,return,1.126812900067307,19,1,0,0,0.48000000000000004,0.08,return,1.036479700007476,-5,63,0.48000000000000004,0.08,,,,,,,,,,,,,,,,,,,,,,,,,,,,,,,,,,,,,,,,,,,,,,,,,,,,,,,,EYKRNY,train_x,blue_star,top_left,2025-09-05_14h22.06.497,HideSeek_v1,2022.2.5,59.950277266211366,
,4,5,5,5,1,0,51,,train_dim1_1,29,30,,,,2,0,2,0,,,,,,,,,0,0,0,0,0,28,28,28,0,0,0,0,,,,,,,,,,,,,,,,,,,,,,,,,stimuli/alien_stimuli/51.png,,,,,,,,,,,,,,,,,,,,,,,,,,,,,stimuli/alien_stimuli/21.png,21,3,30,,,,,,,30,,,,,,,,984.0028648999287,984.0028648999287,984.0028648999287,984.0028648999287,984.0028648999287,right,1.370879799942486,19,1,0,99,0.24,0,right,1.2830094000091776,,,,,982.438426699955,984.0028648999287,0.4,0.08,0.0,0.32,0.08,0.4,0.24000000000000002,0.4,0.08,979.5301719999406,979.5301719999406,979.5301719999406,979.5301719999406,979.5301719999406,979.5301719999406,979.5301719999406,979.5301719999406,979.5193082000128,3.0215068000834435,return,2.890777499997057,,,,,,,,,,,,,,,,,,,,,,,,,,,,,,,,,EYKRNY,train_x,blue_star,top_left,2025-09-05_14h22.06.497,HideSeek_v1,2022.2.5,59.950277266211366,
,4,5,5,5,1,0,51,,train_dim1_1,29,30,,,,2,0,2,0,,,,,,,,,0,0,0,0,0,28,28,28,1,0,1,0,,,,,,,,,,,,,,,,,,,,,,,,,,,,,,,,,,,,,,,,,,,,,,,,,,,,,,,,,,,,,,,,30,,,,,,,,985.3795135000255,985.3795135000255,985.3795135000255,985.3795135000255,985.3795135000255,return,0.7566361000062898,20,0,0,1,0.24,0,return,0.6747280999552459,-5,64,0.24,0,,,,,,,,,,,,,,,,,,,,,,,,,,,,,,,,,,,,,,,,,,,,,,,,,,,,,,,,EYKRNY,train_x,blue_star,top_left,2025-09-05_14h22.06.497,HideSeek_v1,2022.2.5,59.950277266211366,
,2,7,7,7,5,0,11,,train_dim1_1,30,30,,,,2,0,2,0,,,,,,,,,0,0,0,0,0,29,29,29,0,0,0,0,,,,,,,,,,,,,,,,,,,,,,,,,stimuli/alien_stimuli/11.png,,,,,,,,,,,,,,,,,,,,,,,,,,,,,stimuli/alien_stimuli/51.png,51,4,31,,,,,,,30,,,,,,,,990.9926904999884,990.9926904999884,990.9926904999884,990.9926904999884,990.9926904999884,right,2.2909374999580905,20,0,0,99,0.08,0.16,right,2.172308500041254,,,,,989.410993999918,990.9926904999884,0.24,0,0.0,0.08,0.0,0.24,0.2,0.24,0,987.7033395000035,987.7033395000035,987.7033395000035,987.7033395000035,987.7033395000035,987.7033395000035,987.7033395000035,987.7033395000035,987.692811099952,1.8206106999423355,return,1.6889339999761432,,,,,,,,,,,,,,,,,,,,,,,,,,,,,,,,,EYKRNY,train_x,blue_star,top_left,2025-09-05_14h22.06.497,HideSeek_v1,2022.2.5,59.950277266211366,
,2,7,7,7,5,0,11,,train_dim1_1,30,30,,,,2,0,2,0,,,,,,,,,0,0,0,0,0,29,29,29,1,0,1,0,,,,,,,,,,,,,,,,,,,,,,,,,,,,,,,,,,,,,,,,,,,,,,,,,,,,,,,,,,,,,,,,30,,,,,,,,993.2672333000228,993.2672333000228,993.2672333000228,993.2672333000228,993.2672333000228,right,0.7264872000087053,20,0,0,99,0.16,0.16,right,0.6376027999212965,,,,,,,,,,,,,,,,,,,,,,,,,,,,,,,,,,,,,,,,,,,,,,,,,,,,,,,,,,,,EYKRNY,train_x,blue_star,top_left,2025-09-05_14h22.06.497,HideSeek_v1,2022.2.5,59.950277266211366,
,2,7,7,7,5,0,11,,train_dim1_1,30,30,,,,2,0,2,0,,,,,,,,,0,0,0,0,0,29,29,29,2,0,2,0,,,,,,,,,,,,,,,,,,,,,,,,,,,,,,,,,,,,,,,,,,,,,,,,,,,,,,,,,,,,,,,,30,,,,,,,,993.9993917000247,993.9993917000247,993.9993917000247,993.9993917000247,993.9993917000247,right,0.6933984000934288,20,0,0,99,0.24,0.16,right,0.6167829000623897,,,,,,,,,,,,,,,,,,,,,,,,,,,,,,,,,,,,,,,,,,,,,,,,,,,,,,,,,,,,EYKRNY,train_x,blue_star,top_left,2025-09-05_14h22.06.497,HideSeek_v1,2022.2.5,59.950277266211366,
,2,7,7,7,5,0,11,,train_dim1_1,30,30,,,,2,0,2,0,,,,,,,,,0,0,0,0,0,29,29,29,3,0,3,0,,,,,,,,,,,,,,,,,,,,,,,,,,,,,,,,,,,,,,,,,,,,,,,,,,,,,,,,,,,,,,,,30,,,,,,,,994.717441399931,994.717441399931,994.717441399931,994.717441399931,994.717441399931,right,0.6403885999461636,20,0,0,99,0.32,0.16,right,0.5384295999538153,,,,,,,,,,,,,,,,,,,,,,,,,,,,,,,,,,,,,,,,,,,,,,,,,,,,,,,,,,,,EYKRNY,train_x,blue_star,top_left,2025-09-05_14h22.06.497,HideSeek_v1,2022.2.5,59.950277266211366,
,2,7,7,7,5,0,11,,train_dim1_1,30,30,,,,2,0,2,0,,,,,,,,,0,0,0,0,0,29,29,29,4,0,4,0,,,,,,,,,,,,,,,,,,,,,,,,,,,,,,,,,,,,,,,,,,,,,,,,,,,,,,,,,,,,,,,,30,,,,,,,,995.3528616999974,995.3528616999974,995.3528616999974,995.3528616999974,995.3528616999974,right,0.676526700030081,20,0,0,99,0.4,0.16,right,0.5874793999828398,,,,,,,,,,,,,,,,,,,,,,,,,,,,,,,,,,,,,,,,,,,,,,,,,,,,,,,,,,,,EYKRNY,train_x,blue_star,top_left,2025-09-05_14h22.06.497,HideSeek_v1,2022.2.5,59.950277266211366,
,2,7,7,7,5,0,11,,train_dim1_1,30,30,,,,2,0,2,0,,,,,,,,,0,0,0,0,0,29,29,29,5,0,5,0,,,,,,,,,,,,,,,,,,,,,,,,,,,,,,,,,,,,,,,,,,,,,,,,,,,,,,,,,,,,,,,,30,,,,,,,,996.0349430999486,996.0349430999486,996.0349430999486,996.0349430999486,996.0349430999486,return,1.8444743000436574,21,0,0,1,0.4,0.16,return,1.759219800005667,-5,69,0.4,0.16,,,,,,,,,,,,,,,,,,,,,,,,,,,,,,,,,,,,,,,,,,,,,,,,,,,,,,,,EYKRNY,train_x,blue_star,top_left,2025-09-05_14h22.06.497,HideSeek_v1,2022.2.5,59.950277266211366,
,,,,,,,,,,,30,,,,2,0,2,0,,,,,,,,,,,,,,,,,,,,,,,,,,,,,,,,,,,,,,,,,,,,,,,,,,,,,,,,,,,,,,,,,,,,,,,,,,stimuli/alien_stimuli/11.png,11,2,32,21,0.7,0.875,1,1,1,30,0,conditions/schedules/train_x_first/blue_star_00/top_left/inputTrain_2.1.xlsx,99,1,2,1,0,,,,,,,,,,,1,,,,,,,,,1001.8712771999417,1003.4317184999818,0.4,0.16,0.0,0.4,0.16,0.4,0.2,0.4,0.16,999.4652351000113,999.4652351000113,999.4652351000113,999.4652351000113,999.4652351000113,999.4652351000113,999.4652351000113,999.4652351000113,999.4529115999816,2.5370848000748083,return,2.380586300045252,0,0.9,0,1,21,,,,,,,,,,,,,,,,,,,,,,,,,,,,EYKRNY,train_x,blue_star,top_left,2025-09-05_14h22.06.497,HideSeek_v1,2022.2.5,59.950277266211366,
,,,,,,,,,,,,,,,3,0,3,0,0,0,0,0,,,,,,,,,,,,,,,,,,,,,,,,,,,,,,,conditions/schedules/train_x_first/blue_star_00/top_left/instructions/Slide17.png,conditions/schedules/train_x_first/blue_star_00/top_left/instructions/Audio17.wav,1003.4317184999818,1003.4225364999612,19,"[6.592996500083245, 18.81319140002597, 10.148424300015904, 18.238745699985884, 19.306534700095654, 4.545379800023511, 5.83669240004383, 5.386440200032666, 11.236970699974336, 6.0512185000116006, 6.5661635000724345, 9.328473699977621, 12.420127600082196, 16.955297600012273, 19.015149399987422, 14.37218079995364, 30.41140640003141, 21.302149900002405, 45.24294580006972]","[0.01560600008815527, 0.0002728999825194478, 0.00021820003166794777, 18.238753200042993, 0.031145600019954145, 0.048732100054621696, 0.03211050003301352, 0.047719899914227426, 0.031372199999168515, 0.04857610003091395, 0.014901399961672723, 0.04748810001183301, 12.420134200016037, 0.050867300014942884, 0.014282400021329522, 14.372187900007702, 0.05126470001414418, 21.302156599937007, 45.24295260000508]",2,"[1.8993626999435946, 3.620434300042689]","[0.00015239999629557133, 0.014678900013677776]",,,,,,,,,,,,,,,,,,,,,,,,,,,,,,,,,,,,,,,,,,,,,,,,,,,,,,,,,,,,,,,,,,,,,,,,,,,,,,,,,,,,,,,,,,,,,,,,,,,,,,,,,,,,,,,,,,,,,,,,,,EYKRNY,train_x,blue_star,top_left,2025-09-05_14h22.06.497,HideSeek_v1,2022.2.5,59.950277266211366,
,,,,,,,,,,,,,,,3,0,3,0,1,0,1,0,,,,,,,,,,,,,,,,,,,,,,,,,,,,,,,conditions/schedules/train_x_first/blue_star_00/top_left/instructions/Slide18.png,conditions/schedules/train_x_first/blue_star_00/top_left/instructions/Audio18.wav,1048.7324319999898,1048.7270269999747,20,"[6.592996500083245, 18.81319140002597, 10.148424300015904, 18.238745699985884, 19.306534700095654, 4.545379800023511, 5.83669240004383, 5.386440200032666, 11.236970699974336, 6.0512185000116006, 6.5661635000724345, 9.328473699977621, 12.420127600082196, 16.955297600012273, 19.015149399987422, 14.37218079995364, 30.41140640003141, 21.302149900002405, 45.24294580006972, 6.397867999970913]","[0.01560600008815527, 0.0002728999825194478, 0.00021820003166794777, 18.238753200042993, 0.031145600019954145, 0.048732100054621696, 0.03211050003301352, 0.047719899914227426, 0.031372199999168515, 0.04857610003091395, 0.014901399961672723, 0.04748810001183301, 12.420134200016037, 0.050867300014942884, 0.014282400021329522, 14.372187900007702, 0.05126470001414418, 21.302156599937007, 0.00021570001263171434, 6.3978748000226915]",2,"[1.8993626999435946, 3.620434300042689]","[0.00015239999629557133, 0.014678900013677776]",,,,,,,,,,,,,,,,,,,,,,,,,,,,,,,,,,,,,,,,,,,,,,,,,,,,,,,,,,,,,,,,,,,,,,,,,,,,,,,,,,,,,,,,,,,,,,,,,,,,,,,,,,,,,,,,,,,,,,,,,,EYKRNY,train_x,blue_star,top_left,2025-09-05_14h22.06.497,HideSeek_v1,2022.2.5,59.950277266211366,
,,,,,,,,,,,,,,,3,0,3,0,2,0,2,0,,,,,,,,,,,,,,,,,,,,,,,,,,,,,,,conditions/schedules/train_x_first/blue_star_00/top_left/instructions/Slide19.png,conditions/schedules/train_x_first/blue_star_00/top_left/instructions/Audio19.wav,1055.1719112999272,1055.1654273000079,21,"[6.592996500083245, 18.81319140002597, 10.148424300015904, 18.238745699985884, 19.306534700095654, 4.545379800023511, 5.83669240004383, 5.386440200032666, 11.236970699974336, 6.0512185000116006, 6.5661635000724345, 9.328473699977621, 12.420127600082196, 16.955297600012273, 19.015149399987422, 14.37218079995364, 30.41140640003141, 21.302149900002405, 45.24294580006972, 6.397867999970913, 10.533178600016981]","[0.01560600008815527, 0.0002728999825194478, 0.00021820003166794777, 18.238753200042993, 0.031145600019954145, 0.048732100054621696, 0.03211050003301352, 0.047719899914227426, 0.031372199999168515, 0.04857610003091395, 0.014901399961672723, 0.04748810001183301, 12.420134200016037, 0.050867300014942884, 0.014282400021329522, 14.372187900007702, 0.05126470001414418, 21.302156599937007, 0.00021570001263171434, 0.037091200007125735, 10.533188099972904]",2,"[1.8993626999435946, 3.620434300042689]","[0.00015239999629557133, 0.014678900013677776]",,,,,,,,,,,,,,,,,,,,,,,,,,,,,,,,,,,,,,,,,,,,,,,,,,,,,,,,,,,,,,,,,,,,,,,,,,,,,,,,,,,,,,,,,,,,,,,,,,,,,,,,,,,,,,,,,,,,,,,,,,EYKRNY,train_x,blue_star,top_left,2025-09-05_14h22.06.497,HideSeek_v1,2022.2.5,59.950277266211366,
,,,,,,,,,,,,,,,3,0,3,0,3,0,3,0,,,,,,,,,,,,,,,,,,,,,,,,,,,,,,,conditions/schedules/train_x_first/blue_star_00/top_left/instructions/Slide20.png,conditions/schedules/train_x_first/blue_star_00/top_left/instructions/Audio20.wav,1065.7768056999194,1065.7742178000044,22,"[6.592996500083245, 18.81319140002597, 10.148424300015904, 18.238745699985884, 19.306534700095654, 4.545379800023511, 5.83669240004383, 5.386440200032666, 11.236970699974336, 6.0512185000116006, 6.5661635000724345, 9.328473699977621, 12.420127600082196, 16.955297600012273, 19.015149399987422, 14.37218079995364, 30.41140640003141, 21.302149900002405, 45.24294580006972, 6.397867999970913, 10.533178600016981, 14.741039699991234]","[0.01560600008815527, 0.0002728999825194478, 0.00021820003166794777, 18.238753200042993, 0.031145600019954145, 0.048732100054621696, 0.03211050003301352, 0.047719899914227426, 0.031372199999168515, 0.04857610003091395, 0.014901399961672723, 0.04748810001183301, 12.420134200016037, 0.050867300014942884, 0.014282400021329522, 14.372187900007702, 0.05126470001414418, 21.302156599937007, 0.00021570001263171434, 0.037091200007125735, 0.03218670003116131, 14.741046500043012]",2,"[1.8993626999435946, 3.620434300042689]","[0.00015239999629557133, 0.014678900013677776]",,,,,,,,,,,,,,,,,,,,,,,,,,,,,,,,,,,,,,,,,,,,,,,,,,,,,,,,,,,,,,,,,,,,,,,,,,,,,,,,,,,,,,,,,,,,,,,,,,,,,,,,,,,,,,,,,,,,,,,,,,EYKRNY,train_x,blue_star,top_left,2025-09-05_14h22.06.497,HideSeek_v1,2022.2.5,59.950277266211366,
1,0,8,0,3,0,-5,66,2,instr_dim1_2,,,,,,3,0,3,0,,,,,0,0,0,0,,,,,,,,,,,,,,,,,,,,,,,,,,,,,,,,,,,,,stimuli/alien_stimuli/66.png,conditions/schedules/train_x_first/blue_star_00/top_left/inputInstr_2.xlsx,stimuli/alien_stimuli/66.png,1080.6150647000177,1080.6150647000177,1080.6150647000177,1080.6150647000177,1080.6199863000306,return,6.878528099972755,"[-0.16, -0.08, 0, 0.08, 0.16, 0.24, 0.32, 0.4, 0.48, 0.56]","[-0.4, -0.32, -0.24, -0.16, -0.08, 0, 0.08, 0.16, 0.24, 0.32]",3,8,0,0,0.4,0.0,1087.6477850999217,1087.6477850999217,1087.6477850999217,1087.6477850999217,1087.6477850999217,1087.6477850999217,1087.6477850999217,1087.6422396000473,7.790793699910864,return,7.637416500016116,stimuli/alien_stimuli/66.png,66,0,1,,,,,,,,,,,,,,,,,,,,,,,,,,,,,,,,,,,,,,,,,,,,,,,,,,,,,,,,,,,,,,,,,,,,,,,,,,,,,,,,,,,,,,,,,EYKRNY,train_x,blue_star,top_left,2025-09-05_14h22.06.497,HideSeek_v1,2022.2.5,59.950277266211366,
,,,,,,,,,,,30,,,,3,0,3,0,,,,,,,,,,,,,,,,,,,,,,,,,,,,,,,,,,,,,,,,,,,,,,,,,,,,,,,,,,,,,,,,,,,,,,,,,,,,,,21,0.7,0.875,1,99,2,30,0,conditions/schedules/train_x_first/blue_star_00/top_left/inputTrain_2.1.xlsx,99,1,2,1,0,,,,,,,,,,,,,,,,,,,,,,,,,,,,,,,,,,,,,,,,,,,,,,,,,,,,,,,,,,,,,,,,,,,,,,,,,,,EYKRNY,train_x,blue_star,top_left,2025-09-05_14h22.06.497,HideSeek_v1,2022.2.5,59.950277266211366,
,,,,,,,,,,,,,,,4,0,4,0,0,0,0,0,,,,,,,,,,,,,,,,,,,,,,,,,,,,,,,conditions/schedules/train_x_first/blue_star_00/top_left/instructions/Slide21.png,conditions/schedules/train_x_first/blue_star_00/top_left/instructions/Audio21.wav,1095.4644035999663,1095.4653811999597,23,"[6.592996500083245, 18.81319140002597, 10.148424300015904, 18.238745699985884, 19.306534700095654, 4.545379800023511, 5.83669240004383, 5.386440200032666, 11.236970699974336, 6.0512185000116006, 6.5661635000724345, 9.328473699977621, 12.420127600082196, 16.955297600012273, 19.015149399987422, 14.37218079995364, 30.41140640003141, 21.302149900002405, 45.24294580006972, 6.397867999970913, 10.533178600016981, 14.741039699991234, 17.379921499988995]","[0.01560600008815527, 0.0002728999825194478, 0.00021820003166794777, 18.238753200042993, 0.031145600019954145, 0.048732100054621696, 0.03211050003301352, 0.047719899914227426, 0.031372199999168515, 0.04857610003091395, 0.014901399961672723, 0.04748810001183301, 12.420134200016037, 0.050867300014942884, 0.014282400021329522, 14.372187900007702, 0.05126470001414418, 21.302156599937007, 0.00021570001263171434, 0.037091200007125735, 0.03218670003116131, 14.741046500043012, 17.37992810003925]",2,"[1.8993626999435946, 3.620434300042689]","[0.00015239999629557133, 0.014678900013677776]",,,,,,,,,,,,,,,,,,,,,,,,,,,,,,,,,,,,,,,,,,,,,,,,,,,,,,,,,,,,,,,,,,,,,,,,,,,,,,,,,,,,,,,,,,,,,,,,,,,,,,,,,,,,,,,,,,,,,,,,,,EYKRNY,train_x,blue_star,top_left,2025-09-05_14h22.06.497,HideSeek_v1,2022.2.5,59.950277266211366,
2,2,8,2,8,0,0,61,2,instr_dim1_2,,,,,,4,0,4,0,,,,,0,0,0,0,,,,,,,,,,,,,,,,,,,,,,,,,,,,,,,,,,,,,stimuli/alien_stimuli/61.png,conditions/schedules/train_x_first/blue_star_00/top_left/inputInstr_2.xlsx,stimuli/alien_stimuli/61.png,1112.9439320999663,1112.9439320999663,1112.9439320999663,1112.9439320999663,1112.9468297000508,return,6.441176199936308,"[-0.16, -0.08, 0, 0.08, 0.16, 0.24, 0.32, 0.4, 0.48, 0.56]","[-0.4, -0.32, -0.24, -0.16, -0.08, 0, 0.08, 0.16, 0.24, 0.32]",8,8,2,2,0.0,0.0,1119.523625599919,1119.523625599919,1119.523625599919,1119.523625599919,1119.523625599919,1119.523625599919,1119.523625599919,1119.5186537999891,5.939229800016619,return,5.799265000037849,stimuli/alien_stimuli/61.png,61,2,2,,,,,,,,,,,,,,,,,,,,,,,,,,,,,,,,,,,,,,,,,,,,,,,,,,,,,,,,,,,,,,,,,,,,,,,,,,,,,,,,,,,,,,,,,EYKRNY,train_x,blue_star,top_left,2025-09-05_14h22.06.497,HideSeek_v1,2022.2.5,59.950277266211366,
,,,,,,,,,,,30,,,,4,0,4,0,,,,,,,,,,,,,,,,,,,,,,,,,,,,,,,,,,,,,,,,,,,,,,,,,,,,,,,,,,,,,,,,,,,,,,,,,,,,,,21,0.7,0.875,1,99,2,30,0,conditions/schedules/train_x_first/blue_star_00/top_left/inputTrain_2.1.xlsx,99,1,2,1,0,,,,,,,,,,,,,,,,,,,,,,,,,,,,,,,,,,,,,,,,,,,,,,,,,,,,,,,,,,,,,,,,,,,,,,,,,,,EYKRNY,train_x,blue_star,top_left,2025-09-05_14h22.06.497,HideSeek_v1,2022.2.5,59.950277266211366,
,,,,,,,,,,,,,,,5,0,5,0,0,0,0,0,,,,,,,,,,,,,,,,,,,,,,,,,,,,,,,conditions/schedules/train_x_first/blue_star_00/top_left/instructions/Slide22.png,conditions/schedules/train_x_first/blue_star_00/top_left/instructions/Audio22.wav,1125.4937195000239,1125.4902183000231,24,"[6.592996500083245, 18.81319140002597, 10.148424300015904, 18.238745699985884, 19.306534700095654, 4.545379800023511, 5.83669240004383, 5.386440200032666, 11.236970699974336, 6.0512185000116006, 6.5661635000724345, 9.328473699977621, 12.420127600082196, 16.955297600012273, 19.015149399987422, 14.37218079995364, 30.41140640003141, 21.302149900002405, 45.24294580006972, 6.397867999970913, 10.533178600016981, 14.741039699991234, 17.379921499988995, 42.46354619995691]","[0.01560600008815527, 0.0002728999825194478, 0.00021820003166794777, 18.238753200042993, 0.031145600019954145, 0.048732100054621696, 0.03211050003301352, 0.047719899914227426, 0.031372199999168515, 0.04857610003091395, 0.014901399961672723, 0.04748810001183301, 12.420134200016037, 0.050867300014942884, 0.014282400021329522, 14.372187900007702, 0.05126470001414418, 21.302156599937007, 0.00021570001263171434, 0.037091200007125735, 0.03218670003116131, 14.741046500043012, 17.37992810003925, 42.46355399989989]",2,"[1.8993626999435946, 3.620434300042689]","[0.00015239999629557133, 0.014678900013677776]",,,,,,,,,,,,,,,,,,,,,,,,,,,,,,,,,,,,,,,,,,,,,,,,,,,,,,,,,,,,,,,,,,,,,,,,,,,,,,,,,,,,,,,,,,,,,,,,,,,,,,,,,,,,,,,,,,,,,,,,,,EYKRNY,train_x,blue_star,top_left,2025-09-05_14h22.06.497,HideSeek_v1,2022.2.5,59.950277266211366,
,0,5,0,1,0,-4,65,,train_dim1_2,1,30,,,,5,0,5,0,,,,,,,,,0,0,0,0,0,0,0,0,0,0,0,0,,,,,,,,,,,,,,,,,,,,,,,,,stimuli/alien_stimuli/65.png,,,,,,,,,,,,,,,,,,,,,,,,,,,,,,,,,,,,,,,30,,,,,,,,1168.0689169999678,1168.0689169999678,1168.0689169999678,1168.0689169999678,1168.0689169999678,down,2.8213248000247404,0,0,0,99,-0.16,-0.08,down,2.7104892999632284,,,,,,,,,,,,,,,,,,,,,,,,,,,,,,,,,,,,,,,,,,,,,,,,,,,,,,,,,,,,EYKRNY,train_x,blue_star,top_left,2025-09-05_14h22.06.497,HideSeek_v1,2022.2.5,59.950277266211366,
,0,5,0,1,0,-4,65,,train_dim1_2,1,30,,,,5,0,5,0,,,,,,,,,0,0,0,0,0,0,0,0,1,0,1,0,,,,,,,,,,,,,,,,,,,,,,,,,,,,,,,,,,,,,,,,,,,,,,,,,,,,,,,,,,,,,,,,30,,,,,,,,1170.8765637000324,1170.8765637000324,1170.8765637000324,1170.8765637000324,1170.8765637000324,down,0.5427922999951988,0,0,0,99,-0.16,-0.16,down,0.46467059990391135,,,,,,,,,,,,,,,,,,,,,,,,,,,,,,,,,,,,,,,,,,,,,,,,,,,,,,,,,,,,EYKRNY,train_x,blue_star,top_left,2025-09-05_14h22.06.497,HideSeek_v1,2022.2.5,59.950277266211366,
,0,5,0,1,0,-4,65,,train_dim1_2,1,30,,,,5,0,5,0,,,,,,,,,0,0,0,0,0,0,0,0,2,0,2,0,,,,,,,,,,,,,,,,,,,,,,,,,,,,,,,,,,,,,,,,,,,,,,,,,,,,,,,,,,,,,,,,30,,,,,,,,1171.4259545999812,1171.4259545999812,1171.4259545999812,1171.4259545999812,1171.4259545999812,down,0.5765178999863565,0,0,0,99,-0.16,-0.24,down,0.49581320001743734,,,,,,,,,,,,,,,,,,,,,,,,,,,,,,,,,,,,,,,,,,,,,,,,,,,,,,,,,,,,EYKRNY,train_x,blue_star,top_left,2025-09-05_14h22.06.497,HideSeek_v1,2022.2.5,59.950277266211366,
,0,5,0,1,0,-4,65,,train_dim1_2,1,30,,,,5,0,5,0,,,,,,,,,0,0,0,0,0,0,0,0,3,0,3,0,,,,,,,,,,,,,,,,,,,,,,,,,,,,,,,,,,,,,,,,,,,,,,,,,,,,,,,,,,,,,,,,30,,,,,,,,1172.0102726999903,1172.0102726999903,1172.0102726999903,1172.0102726999903,1172.0102726999903,down,0.5932076999451965,0,0,0,99,-0.16,-0.32,down,0.5144169999985024,,,,,,,,,,,,,,,,,,,,,,,,,,,,,,,,,,,,,,,,,,,,,,,,,,,,,,,,,,,,EYKRNY,train_x,blue_star,top_left,2025-09-05_14h22.06.497,HideSeek_v1,2022.2.5,59.950277266211366,
,0,5,0,1,0,-4,65,,train_dim1_2,1,30,,,,5,0,5,0,,,,,,,,,0,0,0,0,0,0,0,0,4,0,4,0,,,,,,,,,,,,,,,,,,,,,,,,,,,,,,,,,,,,,,,,,,,,,,,,,,,,,,,,,,,,,,,,30,,,,,,,,1172.613212199998,1172.613212199998,1172.613212199998,1172.613212199998,1172.613212199998,down,0.4927747000474483,0,0,0,99,-0.16,-0.4,down,0.40992979996372014,,,,,,,,,,,,,,,,,,,,,,,,,,,,,,,,,,,,,,,,,,,,,,,,,,,,,,,,,,,,EYKRNY,train_x,blue_star,top_left,2025-09-05_14h22.06.497,HideSeek_v1,2022.2.5,59.950277266211366,
,0,5,0,1,0,-4,65,,train_dim1_2,1,30,,,,5,0,5,0,,,,,,,,,0,0,0,0,0,0,0,0,5,0,5,0,,,,,,,,,,,,,,,,,,,,,,,,,,,,,,,,,,,,,,,,,,,,,,,,,,,,,,,,,,,,,,,,30,,,,,,,,1173.1110294000246,1173.1110294000246,1173.1110294000246,1173.1110294000246,1173.1110294000246,return,0.693272199947387,0,1,0,0,-0.16,-0.4,return,0.6083591000642627,-10,69,-0.16,-0.4,,,,,,,,,,,,,,,,,,,,,,,,,,,,,,,,,,,,,,,,,,,,,,,,,,,,,,,,EYKRNY,train_x,blue_star,top_left,2025-09-05_14h22.06.497,HideSeek_v1,2022.2.5,59.950277266211366,
