trialInstr,x_fixStart,y_fixStart,x_corrSteps,y_corrSteps,x_nrSteps,y_nrSteps,alienID,trialLength,version,trialTrain,praclen,testlen,trial_label,break_on_off,beforeExpLoop.thisRepN,beforeExpLoop.thisTrialN,beforeExpLoop.thisN,beforeExpLoop.thisIndex,mini_instr_trials.thisRepN,mini_instr_trials.thisTrialN,mini_instr_trials.thisN,mini_instr_trials.thisIndex,instrLoop.thisRepN,instrLoop.thisTrialN,instrLoop.thisN,instrLoop.thisIndex,repeat_prac.thisRepN,repeat_prac.thisTrialN,repeat_prac.thisN,repeat_prac.thisIndex,trainLoop.thisRepN,trainLoop.thisTrialN,trainLoop.thisN,trainLoop.thisIndex,moveLoop_train.thisRepN,moveLoop_train.thisTrialN,moveLoop_train.thisN,moveLoop_train.thisIndex,experiment.thisRepN,experiment.thisTrialN,experiment.thisN,experiment.thisIndex,moveLoop_test.thisRepN,moveLoop_test.thisTrialN,moveLoop_test.thisN,moveLoop_test.thisIndex,mini_instr2_trials.thisRepN,mini_instr2_trials.thisTrialN,mini_instr2_trials.thisN,mini_instr2_trials.thisIndex,start_all_time,url,slideStim,audioStim,slides.started,sounds.started,nextButton.numClicks,nextButton.timesOn,nextButton.timesOff,prev_but.numClicks,prev_but.timesOn,prev_but.timesOff,alienStim,instrFile,alienStim_instr,gridImage_instr.started,startPos_3.started,key_instr.started,alienImage_3.started,sounds_1.started,key_instr.keys,key_instr.rt,all_x,all_y,FBy_corrSteps,FBy_fixStart,FBx_corrSteps,FBx_fixStart,FBy_pathSize_check,FBx_pathSize_check,gridImage_9.started,alienImageFB_3.started,startPosFB_3.started,keyFB_3.started,pathLine_ydir_2.started,pathLine_xdir_2.started,alienFace_3.started,sounds_2.started,RTFB_instr,keyFB_3.keys,keyFB_3.rt,draw_alienStim,draw_alienID,test_x,nrepcount,perfthres,percthres,earlierperf,earlystop,nextPrac,fileidx,praclen,saveACC_train,pracFile,nextPrac_train,addNrep,fileidx_endr,repExp,showearly,gridImage_4.started,startPos.started,movePos.started,key_resp.started,alienImage.started,buttonPress_train,RTchoice_train,cumAcctrain,aCorr,saveACC_choice,corrAns,x_movePos_end,y_movePos_end,key_resp.keys,key_resp.rt,wLy_dir,wLx_dir,x_movePos,y_movePos,text_2.started,text_2.stopped,aft_x_corrPos,aft_y_corrPos,y_pathSize_check,x_pathSize_check,y_pathdirY,x_pathdirY,x_pathdirX,x_corrPos,y_corrPos,gridImage_6.started,alienImageFB_2.started,startPosFB_2.started,movePosFB_2.started,keyFB_2.started,pathLine_xdir.started,pathLine_ydir.started,alienFace.started,sounds_4.started,RT_FBtrain,keyFB_2.keys,keyFB_2.rt,saveACC_pre,ACC,within_saveACC_train,earlystop_wloop,cumAcctrain_check,gridImage_3.started,alienImage_test.started,startPos_test.started,movePos_test.started,key_resp_test.started,wLy_dir_test,wLx_dir_test,buttonPress_test,RTchoice_test,cumAcctest,corrAns_test,key_resp_test.keys,key_resp_test.rt,text_3.started,text_3.stopped,total_time,end_all_time,key_resp_3.keys,slides_2.started,sounds_3.started,nextButton_2.numClicks,nextButton_2.timesOn,nextButton_2.timesOff,prev_but_2.numClicks,prev_but_2.timesOn,prev_but_2.timesOff,bye.started,participant,train_first,00_coordinate,starting corner,date,expName,psychopyVersion,frameRate,
,,,,,,,,,,,,,,,0,0,0,0,0,0,0,0,,,,,,,,,,,,,,,,,,,,,,,,,,,,,start_all_time,testround,conditions/schedules/train_x_first/red_square_00/bottom_left/instructions/Slide1.png,conditions/schedules/train_x_first/red_square_00/bottom_left/instructions/Audio1.wav,1484.8258799000178,1484.7745426183335,1,[5.152755100047216],[5.152762999990955],0,,,,,,,,,,,,,,,,,,,,,,,,,,,,,,,,,,,,,,,,,,,,,,,,,,,,,,,,,,,,,,,,,,,,,,,,,,,,,,,,,,,,,,,,,,,,,,,,,,,,,,,,,,,,,,,,,,,,,,,,,,,,F5ANKX,train_x,red_square,bottom_left,2025-07-16_16h41.06.717,HideSeek_v1,2022.2.5,60.14086193521657,
,,,,,,,,,,,,,,,0,0,0,0,1,0,1,0,,,,,,,,,,,,,,,,,,,,,,,,,,,,,,,conditions/schedules/train_x_first/red_square_00/bottom_left/instructions/Slide2.png,conditions/schedules/train_x_first/red_square_00/bottom_left/instructions/Audio2.wav,1489.9966519000009,1489.998001449916,2,"[5.152755100047216, 17.81354779994581]","[5.152762999990955, 17.81355419999454]",0,,,,,,,,,,,,,,,,,,,,,,,,,,,,,,,,,,,,,,,,,,,,,,,,,,,,,,,,,,,,,,,,,,,,,,,,,,,,,,,,,,,,,,,,,,,,,,,,,,,,,,,,,,,,,,,,,,,,,,,,,,,,F5ANKX,train_x,red_square,bottom_left,2025-07-16_16h41.06.717,HideSeek_v1,2022.2.5,60.14086193521657,
,,,,,,,,,,,,,,,0,0,0,0,2,0,2,0,,,,,,,,,,,,,,,,,,,,,,,,,,,,,,,conditions/schedules/train_x_first/red_square_00/bottom_left/instructions/Slide3.png,conditions/schedules/train_x_first/red_square_00/bottom_left/instructions/Audio3.wav,1507.8816674000118,1507.879397349956,3,"[5.152755100047216, 17.81354779994581, 16.425398600054905]","[5.152762999990955, 17.81355419999454, 16.42540549999103]",0,,,,,,,,,,,,,,,,,,,,,,,,,,,,,,,,,,,,,,,,,,,,,,,,,,,,,,,,,,,,,,,,,,,,,,,,,,,,,,,,,,,,,,,,,,,,,,,,,,,,,,,,,,,,,,,,,,,,,,,,,,,,F5ANKX,train_x,red_square,bottom_left,2025-07-16_16h41.06.717,HideSeek_v1,2022.2.5,60.14086193521657,
,,,,,,,,,,,,,,,0,0,0,0,3,0,3,0,,,,,,,,,,,,,,,,,,,,,,,,,,,,,,,conditions/schedules/train_x_first/red_square_00/bottom_left/instructions/Slide4.png,conditions/schedules/train_x_first/red_square_00/bottom_left/instructions/Audio4.wav,1524.3871989999898,1524.3765716499765,4,"[5.152755100047216, 17.81354779994581, 16.425398600054905, 19.186200800002553]","[5.152762999990955, 17.81355419999454, 0.03309759998228401, 19.186206999933347]",0,,,,,,,,,,,,,,,,,,,,,,,,,,,,,,,,,,,,,,,,,,,,,,,,,,,,,,,,,,,,,,,,,,,,,,,,,,,,,,,,,,,,,,,,,,,,,,,,,,,,,,,,,,,,,,,,,,,,,,,,,,,,F5ANKX,train_x,red_square,bottom_left,2025-07-16_16h41.06.717,HideSeek_v1,2022.2.5,60.14086193521657,
,,,,,,,,,,,,,,,0,0,0,0,4,0,4,0,,,,,,,,,,,,,,,,,,,,,,,,,,,,,,,conditions/schedules/train_x_first/red_square_00/bottom_left/instructions/Slide5.png,conditions/schedules/train_x_first/red_square_00/bottom_left/instructions/Audio5.wav,1543.6406990999822,1543.6426656499389,5,"[5.152755100047216, 17.81354779994581, 16.425398600054905, 19.186200800002553, 3.9863132999744266]","[5.152762999990955, 17.81355419999454, 0.03309759998228401, 0.00021639990154653788, 3.9863197999075055]",0,,,,,,,,,,,,,,,,,,,,,,,,,,,,,,,,,,,,,,,,,,,,,,,,,,,,,,,,,,,,,,,,,,,,,,,,,,,,,,,,,,,,,,,,,,,,,,,,,,,,,,,,,,,,,,,,,,,,,,,,,,,,F5ANKX,train_x,red_square,bottom_left,2025-07-16_16h41.06.717,HideSeek_v1,2022.2.5,60.14086193521657,
,,,,,,,,,,,,,,,0,0,0,0,5,0,5,0,,,,,,,,,,,,,,,,,,,,,,,,,,,,,,,conditions/schedules/train_x_first/red_square_00/bottom_left/instructions/Slide6.png,conditions/schedules/train_x_first/red_square_00/bottom_left/instructions/Audio6.wav,1547.68017409998,1547.679414119944,6,"[5.152755100047216, 17.81354779994581, 16.425398600054905, 19.186200800002553, 3.9863132999744266, 4.400876399944536]","[5.152762999990955, 17.81355419999454, 0.03309759998228401, 0.00021639990154653788, 0.046706699999049306, 4.400883900001645]",0,,,,,,,,,,,,,,,,,,,,,,,,,,,,,,,,,,,,,,,,,,,,,,,,,,,,,,,,,,,,,,,,,,,,,,,,,,,,,,,,,,,,,,,,,,,,,,,,,,,,,,,,,,,,,,,,,,,,,,,,,,,,F5ANKX,train_x,red_square,bottom_left,2025-07-16_16h41.06.717,HideSeek_v1,2022.2.5,60.14086193521657,
,,,,,,,,,,,,,,,0,0,0,0,6,0,6,0,,,,,,,,,,,,,,,,,,,,,,,,,,,,,,,conditions/schedules/train_x_first/red_square_00/bottom_left/instructions/Slide7.png,conditions/schedules/train_x_first/red_square_00/bottom_left/instructions/Audio7.wav,1552.1323682999937,1552.1330617199653,7,"[5.152755100047216, 17.81354779994581, 16.425398600054905, 19.186200800002553, 3.9863132999744266, 4.400876399944536, 5.1188400000100955]","[5.152762999990955, 17.81355419999454, 0.03309759998228401, 0.00021639990154653788, 0.046706699999049306, 0.11478990002069622, 5.118846300058067]",0,,,,,,,,,,,,,,,,,,,,,,,,,,,,,,,,,,,,,,,,,,,,,,,,,,,,,,,,,,,,,,,,,,,,,,,,,,,,,,,,,,,,,,,,,,,,,,,,,,,,,,,,,,,,,,,,,,,,,,,,,,,,F5ANKX,train_x,red_square,bottom_left,2025-07-16_16h41.06.717,HideSeek_v1,2022.2.5,60.14086193521657,
,,,,,,,,,,,,,,,0,0,0,0,7,0,7,0,,,,,,,,,,,,,,,,,,,,,,,,,,,,,,,conditions/schedules/train_x_first/red_square_00/bottom_left/instructions/Slide8.png,conditions/schedules/train_x_first/red_square_00/bottom_left/instructions/Audio8.wav,1557.3157743999036,1557.3038924199298,8,"[5.152755100047216, 17.81354779994581, 16.425398600054905, 19.186200800002553, 3.9863132999744266, 4.400876399944536, 5.1188400000100955, 11.211699699983]","[5.152762999990955, 17.81355419999454, 0.03309759998228401, 0.00021639990154653788, 0.046706699999049306, 0.11478990002069622, 0.0354580000275746, 11.211706400034018]",0,,,,,,,,,,,,,,,,,,,,,,,,,,,,,,,,,,,,,,,,,,,,,,,,,,,,,,,,,,,,,,,,,,,,,,,,,,,,,,,,,,,,,,,,,,,,,,,,,,,,,,,,,,,,,,,,,,,,,,,,,,,,F5ANKX,train_x,red_square,bottom_left,2025-07-16_16h41.06.717,HideSeek_v1,2022.2.5,60.14086193521657,
,,,,,,,,,,,,,,,0,0,0,0,8,0,8,0,,,,,,,,,,,,,,,,,,,,,,,,,,,,,,,conditions/schedules/train_x_first/red_square_00/bottom_left/instructions/Slide9.png,conditions/schedules/train_x_first/red_square_00/bottom_left/instructions/Audio9.wav,1568.5942495999625,1568.596714149986,9,"[5.152755100047216, 17.81354779994581, 16.425398600054905, 19.186200800002553, 3.9863132999744266, 4.400876399944536, 5.1188400000100955, 11.211699699983, 5.487945399945602]","[5.152762999990955, 17.81355419999454, 0.03309759998228401, 0.00021639990154653788, 0.046706699999049306, 0.11478990002069622, 0.0354580000275746, 0.09993839997332543, 5.487952600000426]",0,,,,,,,,,,,,,,,,,,,,,,,,,,,,,,,,,,,,,,,,,,,,,,,,,,,,,,,,,,,,,,,,,,,,,,,,,,,,,,,,,,,,,,,,,,,,,,,,,,,,,,,,,,,,,,,,,,,,,,,,,,,,F5ANKX,train_x,red_square,bottom_left,2025-07-16_16h41.06.717,HideSeek_v1,2022.2.5,60.14086193521657,
,,,,,,,,,,,,,,,0,0,0,0,9,0,9,0,,,,,,,,,,,,,,,,,,,,,,,,,,,,,,,conditions/schedules/train_x_first/red_square_00/bottom_left/instructions/Slide10.png,conditions/schedules/train_x_first/red_square_00/bottom_left/instructions/Audio10.wav,1574.1198863999452,1574.117861289985,10,"[5.152755100047216, 17.81354779994581, 16.425398600054905, 19.186200800002553, 3.9863132999744266, 4.400876399944536, 5.1188400000100955, 11.211699699983, 5.487945399945602, 6.5174181999173015]","[5.152762999990955, 17.81355419999454, 0.03309759998228401, 0.00021639990154653788, 0.046706699999049306, 0.11478990002069622, 0.0354580000275746, 0.09993839997332543, 0.0952129999641329, 6.517424699966796]",0,,,,,,,,,,,,,,,,,,,,,,,,,,,,,,,,,,,,,,,,,,,,,,,,,,,,,,,,,,,,,,,,,,,,,,,,,,,,,,,,,,,,,,,,,,,,,,,,,,,,,,,,,,,,,,,,,,,,,,,,,,,,F5ANKX,train_x,red_square,bottom_left,2025-07-16_16h41.06.717,HideSeek_v1,2022.2.5,60.14086193521657,
,,,,,,,,,,,,,,,0,0,0,0,10,0,10,0,,,,,,,,,,,,,,,,,,,,,,,,,,,,,,,conditions/schedules/train_x_first/red_square_00/bottom_left/instructions/Slide11.png,conditions/schedules/train_x_first/red_square_00/bottom_left/instructions/Audio11.wav,1580.6925607000012,1580.6900965199109,11,"[5.152755100047216, 17.81354779994581, 16.425398600054905, 19.186200800002553, 3.9863132999744266, 4.400876399944536, 5.1188400000100955, 11.211699699983, 5.487945399945602, 6.5174181999173015, 9.803434700006619]","[5.152762999990955, 17.81355419999454, 0.03309759998228401, 0.00021639990154653788, 0.046706699999049306, 0.11478990002069622, 0.0354580000275746, 0.09993839997332543, 0.0952129999641329, 0.07846570003312081, 9.80344100005459]",0,,,,,,,,,,,,,,,,,,,,,,,,,,,,,,,,,,,,,,,,,,,,,,,,,,,,,,,,,,,,,,,,,,,,,,,,,,,,,,,,,,,,,,,,,,,,,,,,,,,,,,,,,,,,,,,,,,,,,,,,,,,,F5ANKX,train_x,red_square,bottom_left,2025-07-16_16h41.06.717,HideSeek_v1,2022.2.5,60.14086193521657,
,,,,,,,,,,,,,,,0,0,0,0,11,0,11,0,,,,,,,,,,,,,,,,,,,,,,,,,,,,,,,conditions/schedules/train_x_first/red_square_00/bottom_left/instructions/Slide12.png,conditions/schedules/train_x_first/red_square_00/bottom_left/instructions/Audio12.wav,1590.551490199985,1590.548295619921,12,"[5.152755100047216, 17.81354779994581, 16.425398600054905, 19.186200800002553, 3.9863132999744266, 4.400876399944536, 5.1188400000100955, 11.211699699983, 5.487945399945602, 6.5174181999173015, 9.803434700006619, 12.688439399935305]","[5.152762999990955, 17.81355419999454, 0.03309759998228401, 0.00021639990154653788, 0.046706699999049306, 0.11478990002069622, 0.0354580000275746, 0.09993839997332543, 0.0952129999641329, 0.07846570003312081, 0.06384359998628497, 12.688445799984038]",0,,,,,,,,,,,,,,,,,,,,,,,,,,,,,,,,,,,,,,,,,,,,,,,,,,,,,,,,,,,,,,,,,,,,,,,,,,,,,,,,,,,,,,,,,,,,,,,,,,,,,,,,,,,,,,,,,,,,,,,,,,,,F5ANKX,train_x,red_square,bottom_left,2025-07-16_16h41.06.717,HideSeek_v1,2022.2.5,60.14086193521657,
1,3,2,8,2,5,0,66,2,instr_dim1_1,,,,,,0,0,0,0,,,,,0,0,0,0,,,,,,,,,,,,,,,,,,,,,,,,,,,,,,,,,,,,,stimuli/alien_stimuli/66.png,conditions/schedules/train_x_first/red_square_00/bottom_left/inputInstr_1.xlsx,stimuli/alien_stimuli/66.png,1603.3426152999746,1603.3426152999746,1603.3426152999746,1603.3426152999746,1603.3423632099411,return,10.136957100010477,"[-0.16, -0.08, 0, 0.08, 0.16, 0.24, 0.32, 0.4, 0.48, 0.56]","[-0.4, -0.32, -0.24, -0.16, -0.08, 0, 0.08, 0.16, 0.24, 0.32]",2,2,8,3,0.0,0.4,1613.6230345999356,1613.6230345999356,1613.6230345999356,1613.6230345999356,1613.6230345999356,1613.6230345999356,1613.6230345999356,1613.617296839878,9.60841939994134,return,9.461333599989302,stimuli/alien_stimuli/66.png,66,3,1,,,,,,,,,,,,,,,,,,,,,,,,,,,,,,,,,,,,,,,,,,,,,,,,,,,,,,,,,,,,,,,,,,,,,,,,,,,,,,,,,,,,,,,,,F5ANKX,train_x,red_square,bottom_left,2025-07-16_16h41.06.717,HideSeek_v1,2022.2.5,60.14086193521657,
,,,,,,,,,,,30,,,,0,0,0,0,,,,,,,,,,,,,,,,,,,,,,,,,,,,,,,,,,,,,,,,,,,,,,,,,,,,,,,,,,,,,,,,,,,,,,,,,,,,,,21,0.7,0,0,99,1,30,0,conditions/schedules/train_x_first/red_square_00/bottom_left/inputTrain_1.1.xlsx,99,1,1,1,0,,,,,,,,,,,,,,,,,,,,,,,,,,,,,,,,,,,,,,,,,,,,,,,,,,,,,,,,,,,,,,,,,,,,,,,,,,,F5ANKX,train_x,red_square,bottom_left,2025-07-16_16h41.06.717,HideSeek_v1,2022.2.5,60.14086193521657,
,,,,,,,,,,,,,,,1,0,1,0,0,0,0,0,,,,,,,,,,,,,,,,,,,,,,,,,,,,,,,conditions/schedules/train_x_first/red_square_00/bottom_left/instructions/Slide13.png,conditions/schedules/train_x_first/red_square_00/bottom_left/instructions/Audio13.wav,1623.2417846999597,1623.2417911699392,13,"[5.152755100047216, 17.81354779994581, 16.425398600054905, 19.186200800002553, 3.9863132999744266, 4.400876399944536, 5.1188400000100955, 11.211699699983, 5.487945399945602, 6.5174181999173015, 9.803434700006619, 12.688439399935305, 16.361218999954872]","[5.152762999990955, 17.81355419999454, 0.03309759998228401, 0.00021639990154653788, 0.046706699999049306, 0.11478990002069622, 0.0354580000275746, 0.09993839997332543, 0.0952129999641329, 0.07846570003312081, 0.06384359998628497, 12.688445799984038, 16.361225400003605]",0,,,,,,,,,,,,,,,,,,,,,,,,,,,,,,,,,,,,,,,,,,,,,,,,,,,,,,,,,,,,,,,,,,,,,,,,,,,,,,,,,,,,,,,,,,,,,,,,,,,,,,,,,,,,,,,,,,,,,,,,,,,,F5ANKX,train_x,red_square,bottom_left,2025-07-16_16h41.06.717,HideSeek_v1,2022.2.5,60.14086193521657,
,,,,,,,,,,,,,,,1,0,1,0,1,0,1,0,,,,,,,,,,,,,,,,,,,,,,,,,,,,,,,conditions/schedules/train_x_first/red_square_00/bottom_left/instructions/Slide14.png,conditions/schedules/train_x_first/red_square_00/bottom_left/instructions/Audio14.wav,1639.6731541999616,1639.6724888499011,14,"[5.152755100047216, 17.81354779994581, 16.425398600054905, 19.186200800002553, 3.9863132999744266, 4.400876399944536, 5.1188400000100955, 11.211699699983, 5.487945399945602, 6.5174181999173015, 9.803434700006619, 12.688439399935305, 16.361218999954872, 13.475048499996774]","[5.152762999990955, 17.81355419999454, 0.03309759998228401, 0.00021639990154653788, 0.046706699999049306, 0.11478990002069622, 0.0354580000275746, 0.09993839997332543, 0.0952129999641329, 0.07846570003312081, 0.06384359998628497, 12.688445799984038, 0.0002109999768435955, 13.475055199931376]",0,,,,,,,,,,,,,,,,,,,,,,,,,,,,,,,,,,,,,,,,,,,,,,,,,,,,,,,,,,,,,,,,,,,,,,,,,,,,,,,,,,,,,,,,,,,,,,,,,,,,,,,,,,,,,,,,,,,,,,,,,,,,F5ANKX,train_x,red_square,bottom_left,2025-07-16_16h41.06.717,HideSeek_v1,2022.2.5,60.14086193521657,
2,4,0,4,0,0,0,16,2,instr_dim1_1,,,,,,1,0,1,0,,,,,0,0,0,0,,,,,,,,,,,,,,,,,,,,,,,,,,,,,,,,,,,,,stimuli/alien_stimuli/16.png,conditions/schedules/train_x_first/red_square_00/bottom_left/inputInstr_1.xlsx,stimuli/alien_stimuli/16.png,1653.259001599974,1653.259001599974,1653.259001599974,1653.259001599974,1653.250765609916,return,6.4358322999905795,"[-0.16, -0.08, 0, 0.08, 0.16, 0.24, 0.32, 0.4, 0.48, 0.56]","[-0.4, -0.32, -0.24, -0.16, -0.08, 0, 0.08, 0.16, 0.24, 0.32]",0,0,4,4,0.0,0.0,1659.861731300014,1659.861731300014,1659.861731300014,1659.861731300014,1659.861731300014,1659.861731300014,1659.861731300014,1659.8394646399422,7.690331500023603,return,7.523061600048095,stimuli/alien_stimuli/16.png,16,4,2,,,,,,,,,,,,,,,,,,,,,,,,,,,,,,,,,,,,,,,,,,,,,,,,,,,,,,,,,,,,,,,,,,,,,,,,,,,,,,,,,,,,,,,,,F5ANKX,train_x,red_square,bottom_left,2025-07-16_16h41.06.717,HideSeek_v1,2022.2.5,60.14086193521657,
,,,,,,,,,,,30,,,,1,0,1,0,,,,,,,,,,,,,,,,,,,,,,,,,,,,,,,,,,,,,,,,,,,,,,,,,,,,,,,,,,,,,,,,,,,,,,,,,,,,,,21,0.7,0,0,99,1,30,0,conditions/schedules/train_x_first/red_square_00/bottom_left/inputTrain_1.1.xlsx,99,1,1,1,0,,,,,,,,,,,,,,,,,,,,,,,,,,,,,,,,,,,,,,,,,,,,,,,,,,,,,,,,,,,,,,,,,,,,,,,,,,,F5ANKX,train_x,red_square,bottom_left,2025-07-16_16h41.06.717,HideSeek_v1,2022.2.5,60.14086193521657,
,,,,,,,,,,,,,,,2,0,2,0,0,0,0,0,,,,,,,,,,,,,,,,,,,,,,,,,,,,,,,conditions/schedules/train_x_first/red_square_00/bottom_left/instructions/Slide15.png,conditions/schedules/train_x_first/red_square_00/bottom_left/instructions/Audio15.wav,1667.5524298999226,1667.545531269943,15,"[5.152755100047216, 17.81354779994581, 16.425398600054905, 19.186200800002553, 3.9863132999744266, 4.400876399944536, 5.1188400000100955, 11.211699699983, 5.487945399945602, 6.5174181999173015, 9.803434700006619, 12.688439399935305, 16.361218999954872, 13.475048499996774, 29.99909579998348]","[5.152762999990955, 17.81355419999454, 0.03309759998228401, 0.00021639990154653788, 0.046706699999049306, 0.11478990002069622, 0.0354580000275746, 0.09993839997332543, 0.0952129999641329, 0.07846570003312081, 0.06384359998628497, 12.688445799984038, 0.0002109999768435955, 13.475055199931376, 29.99910249991808]",0,,,,,,,,,,,,,,,,,,,,,,,,,,,,,,,,,,,,,,,,,,,,,,,,,,,,,,,,,,,,,,,,,,,,,,,,,,,,,,,,,,,,,,,,,,,,,,,,,,,,,,,,,,,,,,,,,,,,,,,,,,,,F5ANKX,train_x,red_square,bottom_left,2025-07-16_16h41.06.717,HideSeek_v1,2022.2.5,60.14086193521657,
,,,,,,,,,,,,,,,2,0,2,0,1,0,1,0,,,,,,,,,,,,,,,,,,,,,,,,,,,,,,,conditions/schedules/train_x_first/red_square_00/bottom_left/instructions/Slide16.png,conditions/schedules/train_x_first/red_square_00/bottom_left/instructions/Audio16.wav,1697.6127732999157,1697.6037904198981,16,"[5.152755100047216, 17.81354779994581, 16.425398600054905, 19.186200800002553, 3.9863132999744266, 4.400876399944536, 5.1188400000100955, 11.211699699983, 5.487945399945602, 6.5174181999173015, 9.803434700006619, 12.688439399935305, 16.361218999954872, 13.475048499996774, 29.99909579998348, 20.806282100034878]","[5.152762999990955, 17.81355419999454, 0.03309759998228401, 0.00021639990154653788, 0.046706699999049306, 0.11478990002069622, 0.0354580000275746, 0.09993839997332543, 0.0952129999641329, 0.07846570003312081, 0.06384359998628497, 12.688445799984038, 0.0002109999768435955, 13.475055199931376, 0.01408260001335293, 20.80628980009351]",0,,,,,,,,,,,,,,,,,,,,,,,,,,,,,,,,,,,,,,,,,,,,,,,,,,,,,,,,,,,,,,,,,,,,,,,,,,,,,,,,,,,,,,,,,,,,,,,,,,,,,,,,,,,,,,,,,,,,,,,,,,,,F5ANKX,train_x,red_square,bottom_left,2025-07-16_16h41.06.717,HideSeek_v1,2022.2.5,60.14086193521657,
,2,1,5,1,3,0,46,,train_dim1_1,1,30,,,,2,0,2,0,,,,,,,,,0,0,0,0,0,0,0,0,0,0,0,0,,,,,,,,,,,,,,,,,,,,,,,,,stimuli/alien_stimuli/46.png,,,,,,,,,,,,,,,,,,,,,,,,,,,,,,,,,,,,,,,30,,,,,,,,1718.5182409000117,1718.5182409000117,1718.5182409000117,1718.5182409000117,1718.5182409000117,up,4.114676599972881,0,0,0,99,0,-0.24,up,4.009576299926266,,,,,,,,,,,,,,,,,,,,,,,,,,,,,,,,,,,,,,,,,,,,,,,,,,,,,,,,,,,,F5ANKX,train_x,red_square,bottom_left,2025-07-16_16h41.06.717,HideSeek_v1,2022.2.5,60.14086193521657,
,2,1,5,1,3,0,46,,train_dim1_1,1,30,,,,2,0,2,0,,,,,,,,,0,0,0,0,0,0,0,0,1,0,1,0,,,,,,,,,,,,,,,,,,,,,,,,,,,,,,,,,,,,,,,,,,,,,,,,,,,,,,,,,,,,,,,,30,,,,,,,,1722.6223257000092,1722.6223257000092,1722.6223257000092,1722.6223257000092,1722.6223257000092,up,0.5766096999868751,0,0,0,99,0,-0.15999999999999998,up,0.4952362000476569,,,,,,,,,,,,,,,,,,,,,,,,,,,,,,,,,,,,,,,,,,,,,,,,,,,,,,,,,,,,F5ANKX,train_x,red_square,bottom_left,2025-07-16_16h41.06.717,HideSeek_v1,2022.2.5,60.14086193521657,
,2,1,5,1,3,0,46,,train_dim1_1,1,30,,,,2,0,2,0,,,,,,,,,0,0,0,0,0,0,0,0,2,0,2,0,,,,,,,,,,,,,,,,,,,,,,,,,,,,,,,,,,,,,,,,,,,,,,,,,,,,,,,,,,,,,,,,30,,,,,,,,1723.2223629999207,1723.2223629999207,1723.2223629999207,1723.2223629999207,1723.2223629999207,up,0.626983700087294,0,0,0,99,0,-0.07999999999999997,up,0.5261938000330701,,,,,,,,,,,,,,,,,,,,,,,,,,,,,,,,,,,,,,,,,,,,,,,,,,,,,,,,,,,,F5ANKX,train_x,red_square,bottom_left,2025-07-16_16h41.06.717,HideSeek_v1,2022.2.5,60.14086193521657,
,2,1,5,1,3,0,46,,train_dim1_1,1,30,,,,2,0,2,0,,,,,,,,,0,0,0,0,0,0,0,0,3,0,3,0,,,,,,,,,,,,,,,,,,,,,,,,,,,,,,,,,,,,,,,,,,,,,,,,,,,,,,,,,,,,,,,,30,,,,,,,,1723.8543553999625,1723.8543553999625,1723.8543553999625,1723.8543553999625,1723.8543553999625,return,2.061319199972786,0,0,0,0,0,-0.07999999999999997,return,1.9727828999748453,3,0,0,-0.07999999999999997,,,,,,,,,,,,,,,,,,,,,,,,,,,,,,,,,,,,,,,,,,,,,,,,,,,,,,,,F5ANKX,train_x,red_square,bottom_left,2025-07-16_16h41.06.717,HideSeek_v1,2022.2.5,60.14086193521657,
,2,4,2,4,0,0,16,,train_dim1_1,2,30,,,,2,0,2,0,,,,,,,,,0,0,0,0,0,1,1,1,0,0,0,0,,,,,,,,,,,,,,,,,,,,,,,,,stimuli/alien_stimuli/16.png,,,,,,,,,,,,,,,,,,,,,,,,,,,,,stimuli/alien_stimuli/46.png,46,2,3,,,,,,,30,,,,,,,,1749.4642723000143,1749.4642723000143,1749.4642723000143,1749.4642723000143,1749.4642723000143,up,4.676319700083695,0,0,0,99,0,0.0,up,4.560775300022215,,,,,1747.8790347999893,1749.4642723000143,0.24,-0.32,0.0,0.24,-0.32,0.24,0.12,0.24,-0.32,1727.4739784999983,1727.4739784999983,1727.4739784999983,1727.4739784999983,1727.4739784999983,1727.4739784999983,1727.4739784999983,1727.4739784999983,1727.4620345098783,20.51926510001067,return,20.37348530010786,,,,,,,,,,,,,,,,,,,,,,,,,,,,,,,,,F5ANKX,train_x,red_square,bottom_left,2025-07-16_16h41.06.717,HideSeek_v1,2022.2.5,60.14086193521657,
,2,4,2,4,0,0,16,,train_dim1_1,2,30,,,,2,0,2,0,,,,,,,,,0,0,0,0,0,1,1,1,1,0,1,0,,,,,,,,,,,,,,,,,,,,,,,,,,,,,,,,,,,,,,,,,,,,,,,,,,,,,,,,,,,,,,,,30,,,,,,,,1754.1219798999373,1754.1219798999373,1754.1219798999373,1754.1219798999373,1754.1219798999373,down,2.9420121000148356,0,0,0,99,0,-0.08,down,2.855549000087194,,,,,,,,,,,,,,,,,,,,,,,,,,,,,,,,,,,,,,,,,,,,,,,,,,,,,,,,,,,,F5ANKX,train_x,red_square,bottom_left,2025-07-16_16h41.06.717,HideSeek_v1,2022.2.5,60.14086193521657,
,2,4,2,4,0,0,16,,train_dim1_1,2,30,,,,2,0,2,0,,,,,,,,,0,0,0,0,0,1,1,1,2,0,2,0,,,,,,,,,,,,,,,,,,,,,,,,,,,,,,,,,,,,,,,,,,,,,,,,,,,,,,,,,,,,,,,,30,,,,,,,,1757.0708571999567,1757.0708571999567,1757.0708571999567,1757.0708571999567,1757.0708571999567,return,1.2274468999821693,1,0,0,1,0,-0.08,return,1.1455893999664113,3,0,0,-0.08,,,,,,,,,,,,,,,,,,,,,,,,,,,,,,,,,,,,,,,,,,,,,,,,,,,,,,,,F5ANKX,train_x,red_square,bottom_left,2025-07-16_16h41.06.717,HideSeek_v1,2022.2.5,60.14086193521657,
,4,4,5,4,1,0,26,,train_dim1_1,3,30,,,,2,0,2,0,,,,,,,,,0,0,0,0,0,2,2,2,0,0,0,0,,,,,,,,,,,,,,,,,,,,,,,,,stimuli/alien_stimuli/26.png,,,,,,,,,,,,,,,,,,,,,,,,,,,,,stimuli/alien_stimuli/16.png,16,2,4,,,,,,,30,,,,,,,,1766.6575934999855,1766.6575934999855,1766.6575934999855,1766.6575934999855,1766.6575934999855,right,17.50388119998388,1,0,0,99,0.24,-0.08,right,17.404040799941868,,,,,1765.0938657999504,1766.6575934999855,0,-0.08,0.0,0.0,-0.08,0,0.0,0,-0.08,1759.8874218999408,1759.8874218999408,1759.8874218999408,1759.8874218999408,1759.8874218999408,1759.8874218999408,1759.8874218999408,1759.8874218999408,1759.8718720399077,5.340372900012881,return,5.173962699947879,,,,,,,,,,,,,,,,,,,,,,,,,,,,,,,,,F5ANKX,train_x,red_square,bottom_left,2025-07-16_16h41.06.717,HideSeek_v1,2022.2.5,60.14086193521657,
,4,4,5,4,1,0,26,,train_dim1_1,3,30,,,,2,0,2,0,,,,,,,,,0,0,0,0,0,2,2,2,1,0,1,0,,,,,,,,,,,,,,,,,,,,,,,,,,,,,,,,,,,,,,,,,,,,,,,,,,,,,,,,,,,,,,,,30,,,,,,,,1784.1659056999488,1784.1659056999488,1784.1659056999488,1784.1659056999488,1784.1659056999488,return,1.5438216000329703,2,0,0,1,0.24,-0.08,return,1.451005500042811,3,1,0.24,-0.08,,,,,,,,,,,,,,,,,,,,,,,,,,,,,,,,,,,,,,,,,,,,,,,,,,,,,,,,F5ANKX,train_x,red_square,bottom_left,2025-07-16_16h41.06.717,HideSeek_v1,2022.2.5,60.14086193521657,
,2,3,6,3,4,0,56,,train_dim1_1,4,30,,,,2,0,2,0,,,,,,,,,0,0,0,0,0,3,3,3,0,0,0,0,,,,,,,,,,,,,,,,,,,,,,,,,stimuli/alien_stimuli/56.png,,,,,,,,,,,,,,,,,,,,,,,,,,,,,stimuli/alien_stimuli/26.png,26,4,5,,,,,,,30,,,,,,,,1794.0634214999154,1794.0634214999154,1794.0634214999154,1794.0634214999154,1794.0634214999154,right,3.125314399949275,2,0,0,99,0.08,-0.16,right,3.029832800035365,,,,,1792.4996433999622,1794.0634214999154,0.24,-0.08,0.0,0.08,-0.08,0.24,0.2,0.24,-0.08,1787.2911926999222,1787.2911926999222,1787.2911926999222,1787.2911926999222,1787.2911926999222,1787.2911926999222,1787.2911926999222,1787.2911926999222,1787.2788617399522,5.339151000021957,return,5.191294700023718,,,,,,,,,,,,,,,,,,,,,,,,,,,,,,,,,F5ANKX,train_x,red_square,bottom_left,2025-07-16_16h41.06.717,HideSeek_v1,2022.2.5,60.14086193521657,
,2,3,6,3,4,0,56,,train_dim1_1,4,30,,,,2,0,2,0,,,,,,,,,0,0,0,0,0,3,3,3,1,0,1,0,,,,,,,,,,,,,,,,,,,,,,,,,,,,,,,,,,,,,,,,,,,,,,,,,,,,,,,,,,,,,,,,30,,,,,,,,1797.1856252999278,1797.1856252999278,1797.1856252999278,1797.1856252999278,1797.1856252999278,right,0.8931250999448821,2,0,0,99,0.16,-0.16,right,0.8066526000620797,,,,,,,,,,,,,,,,,,,,,,,,,,,,,,,,,,,,,,,,,,,,,,,,,,,,,,,,,,,,F5ANKX,train_x,red_square,bottom_left,2025-07-16_16h41.06.717,HideSeek_v1,2022.2.5,60.14086193521657,
,2,3,6,3,4,0,56,,train_dim1_1,4,30,,,,2,0,2,0,,,,,,,,,0,0,0,0,0,3,3,3,2,0,2,0,,,,,,,,,,,,,,,,,,,,,,,,,,,,,,,,,,,,,,,,,,,,,,,,,,,,,,,,,,,,,,,,30,,,,,,,,1798.0869593999814,1798.0869593999814,1798.0869593999814,1798.0869593999814,1798.0869593999814,right,0.9771105000982061,2,0,0,99,0.24,-0.16,right,0.8891319000395015,,,,,,,,,,,,,,,,,,,,,,,,,,,,,,,,,,,,,,,,,,,,,,,,,,,,,,,,,,,,F5ANKX,train_x,red_square,bottom_left,2025-07-16_16h41.06.717,HideSeek_v1,2022.2.5,60.14086193521657,
,2,3,6,3,4,0,56,,train_dim1_1,4,30,,,,2,0,2,0,,,,,,,,,0,0,0,0,0,3,3,3,3,0,3,0,,,,,,,,,,,,,,,,,,,,,,,,,,,,,,,,,,,,,,,,,,,,,,,,,,,,,,,,,,,,,,,,30,,,,,,,,1799.0735583999194,1799.0735583999194,1799.0735583999194,1799.0735583999194,1799.0735583999194,right,0.9108357999939471,2,0,0,99,0.32,-0.16,right,0.8260286999866366,,,,,,,,,,,,,,,,,,,,,,,,,,,,,,,,,,,,,,,,,,,,,,,,,,,,,,,,,,,,F5ANKX,train_x,red_square,bottom_left,2025-07-16_16h41.06.717,HideSeek_v1,2022.2.5,60.14086193521657,
,2,3,6,3,4,0,56,,train_dim1_1,4,30,,,,2,0,2,0,,,,,,,,,0,0,0,0,0,3,3,3,4,0,4,0,,,,,,,,,,,,,,,,,,,,,,,,,,,,,,,,,,,,,,,,,,,,,,,,,,,,,,,,,,,,,,,,30,,,,,,,,1799.9889614999993,1799.9889614999993,1799.9889614999993,1799.9889614999993,1799.9889614999993,right,0.6268134999554604,2,0,0,99,0.4,-0.16,right,0.5494958999333903,,,,,,,,,,,,,,,,,,,,,,,,,,,,,,,,,,,,,,,,,,,,,,,,,,,,,,,,,,,,F5ANKX,train_x,red_square,bottom_left,2025-07-16_16h41.06.717,HideSeek_v1,2022.2.5,60.14086193521657,
,2,3,6,3,4,0,56,,train_dim1_1,4,30,,,,2,0,2,0,,,,,,,,,0,0,0,0,0,3,3,3,5,0,5,0,,,,,,,,,,,,,,,,,,,,,,,,,,,,,,,,,,,,,,,,,,,,,,,,,,,,,,,,,,,,,,,,30,,,,,,,,1800.6281864999328,1800.6281864999328,1800.6281864999328,1800.6281864999328,1800.6281864999328,return,0.8933780000079423,2,1,0,0,0.4,-0.16,return,0.796686900081113,3,6,0.4,-0.16,,,,,,,,,,,,,,,,,,,,,,,,,,,,,,,,,,,,,,,,,,,,,,,,,,,,,,,,F5ANKX,train_x,red_square,bottom_left,2025-07-16_16h41.06.717,HideSeek_v1,2022.2.5,60.14086193521657,
,0,2,5,2,5,0,66,,train_dim1_1,5,30,,,,2,0,2,0,,,,,,,,,0,0,0,0,0,4,4,4,0,0,0,0,,,,,,,,,,,,,,,,,,,,,,,,,stimuli/alien_stimuli/66.png,,,,,,,,,,,,,,,,,,,,,,,,,,,,,stimuli/alien_stimuli/56.png,56,2,6,,,,,,,30,,,,,,,,1814.5792622999288,1814.5792622999288,1814.5792622999288,1814.5792622999288,1814.5792622999288,right,3.7088923000264913,2,1,0,99,-0.08,-0.24,right,3.6174623999977484,,,,,1813.016872499953,1814.5792622999288,0.32,-0.16,0.0,0.32,-0.16,0.32,0.16,0.32,-0.16,1803.0995579999872,1803.0995579999872,1803.0995579999872,1803.0995579999872,1803.0995579999872,1803.0995579999872,1803.0995579999872,1803.0995579999872,1803.091440139967,10.044135699979961,return,9.898914500023238,,,,,,,,,,,,,,,,,,,,,,,,,,,,,,,,,F5ANKX,train_x,red_square,bottom_left,2025-07-16_16h41.06.717,HideSeek_v1,2022.2.5,60.14086193521657,
,0,2,5,2,5,0,66,,train_dim1_1,5,30,,,,2,0,2,0,,,,,,,,,0,0,0,0,0,4,4,4,1,0,1,0,,,,,,,,,,,,,,,,,,,,,,,,,,,,,,,,,,,,,,,,,,,,,,,,,,,,,,,,,,,,,,,,30,,,,,,,,1818.2840572999557,1818.2840572999557,1818.2840572999557,1818.2840572999557,1818.2840572999557,right,0.9935690999263898,2,1,0,99,0.0,-0.24,right,0.9173548000399023,,,,,,,,,,,,,,,,,,,,,,,,,,,,,,,,,,,,,,,,,,,,,,,,,,,,,,,,,,,,F5ANKX,train_x,red_square,bottom_left,2025-07-16_16h41.06.717,HideSeek_v1,2022.2.5,60.14086193521657,
,0,2,5,2,5,0,66,,train_dim1_1,5,30,,,,2,0,2,0,,,,,,,,,0,0,0,0,0,4,4,4,2,0,2,0,,,,,,,,,,,,,,,,,,,,,,,,,,,,,,,,,,,,,,,,,,,,,,,,,,,,,,,,,,,,,,,,30,,,,,,,,1819.2860571999336,1819.2860571999336,1819.2860571999336,1819.2860571999336,1819.2860571999336,right,1.0272273999871686,2,1,0,99,0.08,-0.24,right,0.946660100016743,,,,,,,,,,,,,,,,,,,,,,,,,,,,,,,,,,,,,,,,,,,,,,,,,,,,,,,,,,,,F5ANKX,train_x,red_square,bottom_left,2025-07-16_16h41.06.717,HideSeek_v1,2022.2.5,60.14086193521657,
,0,2,5,2,5,0,66,,train_dim1_1,5,30,,,,2,0,2,0,,,,,,,,,0,0,0,0,0,4,4,4,3,0,3,0,,,,,,,,,,,,,,,,,,,,,,,,,,,,,,,,,,,,,,,,,,,,,,,,,,,,,,,,,,,,,,,,30,,,,,,,,1820.3194211999653,1820.3194211999653,1820.3194211999653,1820.3194211999653,1820.3194211999653,right,1.1104898999910802,2,1,0,99,0.16,-0.24,right,1.032201400026679,,,,,,,,,,,,,,,,,,,,,,,,,,,,,,,,,,,,,,,,,,,,,,,,,,,,,,,,,,,,F5ANKX,train_x,red_square,bottom_left,2025-07-16_16h41.06.717,HideSeek_v1,2022.2.5,60.14086193521657,
,0,2,5,2,5,0,66,,train_dim1_1,5,30,,,,2,0,2,0,,,,,,,,,0,0,0,0,0,4,4,4,4,0,4,0,,,,,,,,,,,,,,,,,,,,,,,,,,,,,,,,,,,,,,,,,,,,,,,,,,,,,,,,,,,,,,,,30,,,,,,,,1821.436878999928,1821.436878999928,1821.436878999928,1821.436878999928,1821.436878999928,right,0.9438178000273183,2,1,0,99,0.24,-0.24,right,0.8626174000091851,,,,,,,,,,,,,,,,,,,,,,,,,,,,,,,,,,,,,,,,,,,,,,,,,,,,,,,,,,,,F5ANKX,train_x,red_square,bottom_left,2025-07-16_16h41.06.717,HideSeek_v1,2022.2.5,60.14086193521657,
,0,2,5,2,5,0,66,,train_dim1_1,5,30,,,,2,0,2,0,,,,,,,,,0,0,0,0,0,4,4,4,5,0,5,0,,,,,,,,,,,,,,,,,,,,,,,,,,,,,,,,,,,,,,,,,,,,,,,,,,,,,,,,,,,,,,,,30,,,,,,,,1822.387708999915,1822.387708999915,1822.387708999915,1822.387708999915,1822.387708999915,return,1.9278412000276148,3,0,0,1,0.24,-0.24,return,1.839649699977599,3,11,0.24,-0.24,,,,,,,,,,,,,,,,,,,,,,,,,,,,,,,,,,,,,,,,,,,,,,,,,,,,,,,,F5ANKX,train_x,red_square,bottom_left,2025-07-16_16h41.06.717,HideSeek_v1,2022.2.5,60.14086193521657,
,0,0,1,0,1,0,26,,train_dim1_1,6,30,,,,2,0,2,0,,,,,,,,,0,0,0,0,0,5,5,5,0,0,0,0,,,,,,,,,,,,,,,,,,,,,,,,,stimuli/alien_stimuli/26.png,,,,,,,,,,,,,,,,,,,,,,,,,,,,,stimuli/alien_stimuli/66.png,66,0,7,,,,,,,30,,,,,,,,1831.427161599975,1831.427161599975,1831.427161599975,1831.427161599975,1831.427161599975,right,6.194405999965966,3,0,0,99,-0.08,-0.4,right,6.094571999972686,,,,,1829.8638883999083,1831.427161599975,0.24,-0.24,0.0,0.4,-0.24,0.24,0.039999999999999994,0.24,-0.24,1825.8921541000018,1825.8921541000018,1825.8921541000018,1825.8921541000018,1825.8921541000018,1825.8921541000018,1825.8921541000018,1825.8921541000018,1825.8774913099014,4.0892768000485376,return,3.9560913000022992,,,,,,,,,,,,,,,,,,,,,,,,,,,,,,,,,F5ANKX,train_x,red_square,bottom_left,2025-07-16_16h41.06.717,HideSeek_v1,2022.2.5,60.14086193521657,
,0,0,1,0,1,0,26,,train_dim1_1,6,30,,,,2,0,2,0,,,,,,,,,0,0,0,0,0,5,5,5,1,0,1,0,,,,,,,,,,,,,,,,,,,,,,,,,,,,,,,,,,,,,,,,,,,,,,,,,,,,,,,,,,,,,,,,30,,,,,,,,1837.6223971999716,1837.6223971999716,1837.6223971999716,1837.6223971999716,1837.6223971999716,return,0.8767431000014767,4,0,0,1,-0.08,-0.4,return,0.7909602000145242,3,12,-0.08,-0.4,,,,,,,,,,,,,,,,,,,,,,,,,,,,,,,,,,,,,,,,,,,,,,,,,,,,,,,,F5ANKX,train_x,red_square,bottom_left,2025-07-16_16h41.06.717,HideSeek_v1,2022.2.5,60.14086193521657,
,3,0,8,0,5,0,66,,train_dim1_1,7,30,,,,2,0,2,0,,,,,,,,,0,0,0,0,0,6,6,6,0,0,0,0,,,,,,,,,,,,,,,,,,,,,,,,,stimuli/alien_stimuli/66.png,,,,,,,,,,,,,,,,,,,,,,,,,,,,,stimuli/alien_stimuli/26.png,26,0,8,,,,,,,30,,,,,,,,1845.3163478999631,1845.3163478999631,1845.3163478999631,1845.3163478999631,1845.3163478999631,right,2.5910868999781087,4,0,0,99,0.16,-0.4,right,2.482741600018926,,,,,1843.742368599982,1845.3163478999631,-0.08,-0.4,0.0,0.08,-0.4,-0.08,-0.12,-0.08,-0.4,1840.0761528000003,1840.0761528000003,1840.0761528000003,1840.0761528000003,1840.0761528000003,1840.0761528000003,1840.0761528000003,1840.0761528000003,1840.055771409895,3.7890266000758857,return,3.6365771000273526,,,,,,,,,,,,,,,,,,,,,,,,,,,,,,,,,F5ANKX,train_x,red_square,bottom_left,2025-07-16_16h41.06.717,HideSeek_v1,2022.2.5,60.14086193521657,
,3,0,8,0,5,0,66,,train_dim1_1,7,30,,,,2,0,2,0,,,,,,,,,0,0,0,0,0,6,6,6,1,0,1,0,,,,,,,,,,,,,,,,,,,,,,,,,,,,,,,,,,,,,,,,,,,,,,,,,,,,,,,,,,,,,,,,30,,,,,,,,1847.8923654999817,1847.8923654999817,1847.8923654999817,1847.8923654999817,1847.8923654999817,right,1.0934089999645948,4,0,0,99,0.24,-0.4,right,1.0118153999792412,,,,,,,,,,,,,,,,,,,,,,,,,,,,,,,,,,,,,,,,,,,,,,,,,,,,,,,,,,,,F5ANKX,train_x,red_square,bottom_left,2025-07-16_16h41.06.717,HideSeek_v1,2022.2.5,60.14086193521657,
,3,0,8,0,5,0,66,,train_dim1_1,7,30,,,,2,0,2,0,,,,,,,,,0,0,0,0,0,6,6,6,2,0,2,0,,,,,,,,,,,,,,,,,,,,,,,,,,,,,,,,,,,,,,,,,,,,,,,,,,,,,,,,,,,,,,,,30,,,,,,,,1848.993469899986,1848.993469899986,1848.993469899986,1848.993469899986,1848.993469899986,right,1.1272821000311524,4,0,0,99,0.32,-0.4,right,1.0387610000325367,,,,,,,,,,,,,,,,,,,,,,,,,,,,,,,,,,,,,,,,,,,,,,,,,,,,,,,,,,,,F5ANKX,train_x,red_square,bottom_left,2025-07-16_16h41.06.717,HideSeek_v1,2022.2.5,60.14086193521657,
,3,0,8,0,5,0,66,,train_dim1_1,7,30,,,,2,0,2,0,,,,,,,,,0,0,0,0,0,6,6,6,3,0,3,0,,,,,,,,,,,,,,,,,,,,,,,,,,,,,,,,,,,,,,,,,,,,,,,,,,,,,,,,,,,,,,,,30,,,,,,,,1850.1312645999715,1850.1312645999715,1850.1312645999715,1850.1312645999715,1850.1312645999715,right,1.0275314000900835,4,0,0,99,0.4,-0.4,right,0.9459915000479668,,,,,,,,,,,,,,,,,,,,,,,,,,,,,,,,,,,,,,,,,,,,,,,,,,,,,,,,,,,,F5ANKX,train_x,red_square,bottom_left,2025-07-16_16h41.06.717,HideSeek_v1,2022.2.5,60.14086193521657,
,3,0,8,0,5,0,66,,train_dim1_1,7,30,,,,2,0,2,0,,,,,,,,,0,0,0,0,0,6,6,6,4,0,4,0,,,,,,,,,,,,,,,,,,,,,,,,,,,,,,,,,,,,,,,,,,,,,,,,,,,,,,,,,,,,,,,,30,,,,,,,,1851.161827199976,1851.161827199976,1851.161827199976,1851.161827199976,1851.161827199976,right,0.6601678000297397,4,0,0,99,0.48000000000000004,-0.4,right,0.5811459999531507,,,,,,,,,,,,,,,,,,,,,,,,,,,,,,,,,,,,,,,,,,,,,,,,,,,,,,,,,,,,F5ANKX,train_x,red_square,bottom_left,2025-07-16_16h41.06.717,HideSeek_v1,2022.2.5,60.14086193521657,
,3,0,8,0,5,0,66,,train_dim1_1,7,30,,,,2,0,2,0,,,,,,,,,0,0,0,0,0,6,6,6,5,0,5,0,,,,,,,,,,,,,,,,,,,,,,,,,,,,,,,,,,,,,,,,,,,,,,,,,,,,,,,,,,,,,,,,30,,,,,,,,1851.8604913000017,1851.8604913000017,1851.8604913000017,1851.8604913000017,1851.8604913000017,return,0.9605381999863312,5,0,0,1,0.48000000000000004,-0.4,return,0.8540194999659434,3,17,0.48000000000000004,-0.4,,,,,,,,,,,,,,,,,,,,,,,,,,,,,,,,,,,,,,,,,,,,,,,,,,,,,,,,F5ANKX,train_x,red_square,bottom_left,2025-07-16_16h41.06.717,HideSeek_v1,2022.2.5,60.14086193521657,
,0,4,3,4,3,0,46,,train_dim1_1,8,30,,,,2,0,2,0,,,,,,,,,0,0,0,0,0,7,7,7,0,0,0,0,,,,,,,,,,,,,,,,,,,,,,,,,stimuli/alien_stimuli/46.png,,,,,,,,,,,,,,,,,,,,,,,,,,,,,stimuli/alien_stimuli/66.png,66,3,9,,,,,,,30,,,,,,,,1860.529136099969,1860.529136099969,1860.529136099969,1860.529136099969,1860.529136099969,return,7.445258399937302,5,0,0,0,-0.16,-0.08,return,7.359557999996468,3,17,-0.16,-0.08,1858.9715168999974,1860.529136099969,0.48,-0.4,0.0,0.4,-0.4,0.48,0.27999999999999997,0.48,-0.4,1854.3687776000006,1854.3687776000006,1854.3687776000006,1854.3687776000006,1854.3687776000006,1854.3687776000006,1854.3687776000006,1854.3687776000006,1854.350878309936,4.7227321999380365,return,4.580516200046986,,,,,,,,,,,,,,,,,,,,,,,,,,,,,,,,,F5ANKX,train_x,red_square,bottom_left,2025-07-16_16h41.06.717,HideSeek_v1,2022.2.5,60.14086193521657,
,1,0,5,0,4,0,56,,train_dim1_1,9,30,,,,2,0,2,0,,,,,,,,,0,0,0,0,0,8,8,8,0,0,0,0,,,,,,,,,,,,,,,,,,,,,,,,,stimuli/alien_stimuli/56.png,,,,,,,,,,,,,,,,,,,,,,,,,,,,,stimuli/alien_stimuli/46.png,46,0,10,,,,,,,30,,,,,,,,1874.6262141999323,1874.6262141999323,1874.6262141999323,1874.6262141999323,1874.6262141999323,up,4.243178799981251,5,0,0,99,-0.08,-0.32,up,4.14674360002391,,,,,1873.0665665999986,1874.6262141999323,0.08,-0.08,0.0,0.24,-0.08,0.08,-0.04,0.08,-0.08,1869.549939599936,1869.549939599936,1869.549939599936,1869.549939599936,1869.549939599936,1869.549939599936,1869.549939599936,1869.549939599936,1869.5301037099098,3.6386087000137195,return,3.4898186000064015,,,,,,,,,,,,,,,,,,,,,,,,,,,,,,,,,F5ANKX,train_x,red_square,bottom_left,2025-07-16_16h41.06.717,HideSeek_v1,2022.2.5,60.14086193521657,
,1,0,5,0,4,0,56,,train_dim1_1,9,30,,,,2,0,2,0,,,,,,,,,0,0,0,0,0,8,8,8,1,0,1,0,,,,,,,,,,,,,,,,,,,,,,,,,,,,,,,,,,,,,,,,,,,,,,,,,,,,,,,,,,,,,,,,30,,,,,,,,1878.8763189999154,1878.8763189999154,1878.8763189999154,1878.8763189999154,1878.8763189999154,up,1.0766735000070184,5,0,0,99,-0.08,-0.24,up,0.9811583999544382,,,,,,,,,,,,,,,,,,,,,,,,,,,,,,,,,,,,,,,,,,,,,,,,,,,,,,,,,,,,F5ANKX,train_x,red_square,bottom_left,2025-07-16_16h41.06.717,HideSeek_v1,2022.2.5,60.14086193521657,
,1,0,5,0,4,0,56,,train_dim1_1,9,30,,,,2,0,2,0,,,,,,,,,0,0,0,0,0,8,8,8,2,0,2,0,,,,,,,,,,,,,,,,,,,,,,,,,,,,,,,,,,,,,,,,,,,,,,,,,,,,,,,,,,,,,,,,30,,,,,,,,1879.9548288999358,1879.9548288999358,1879.9548288999358,1879.9548288999358,1879.9548288999358,up,0.3601774999406189,5,0,0,99,-0.08,-0.15999999999999998,up,0.284842099994421,,,,,,,,,,,,,,,,,,,,,,,,,,,,,,,,,,,,,,,,,,,,,,,,,,,,,,,,,,,,F5ANKX,train_x,red_square,bottom_left,2025-07-16_16h41.06.717,HideSeek_v1,2022.2.5,60.14086193521657,
,1,0,5,0,4,0,56,,train_dim1_1,9,30,,,,2,0,2,0,,,,,,,,,0,0,0,0,0,8,8,8,3,0,3,0,,,,,,,,,,,,,,,,,,,,,,,,,,,,,,,,,,,,,,,,,,,,,,,,,,,,,,,,,,,,,,,,30,,,,,,,,1880.3284805999137,1880.3284805999137,1880.3284805999137,1880.3284805999137,1880.3284805999137,return,0.7766389999305829,5,0,0,0,-0.08,-0.15999999999999998,return,0.6796162999235094,6,17,-0.08,-0.15999999999999998,,,,,,,,,,,,,,,,,,,,,,,,,,,,,,,,,,,,,,,,,,,,,,,,,,,,,,,,F5ANKX,train_x,red_square,bottom_left,2025-07-16_16h41.06.717,HideSeek_v1,2022.2.5,60.14086193521657,
,0,3,0,3,0,0,16,,train_dim1_1,10,30,,,,2,0,2,0,,,,,,,,,0,0,0,0,0,9,9,9,0,0,0,0,,,,,,,,,,,,,,,,,,,,,,,,,stimuli/alien_stimuli/16.png,,,,,,,,,,,,,,,,,,,,,,,,,,,,,stimuli/alien_stimuli/56.png,56,1,11,,,,,,,30,,,,,,,,1887.5057037000079,1887.5057037000079,1887.5057037000079,1887.5057037000079,1887.5057037000079,return,3.308804400032386,6,0,0,1,-0.16,-0.16,return,3.220951800001785,6,17,-0.16,-0.16,1885.9441382999066,1887.5057037000079,0.24,-0.4,0.0,0.32,-0.4,0.24,0.07999999999999999,0.24,-0.4,1882.6632217000006,1882.6632217000006,1882.6632217000006,1882.6632217000006,1882.6632217000006,1882.6632217000006,1882.6632217000006,1882.6632217000006,1882.6578317099602,3.388894999981858,return,3.265192099963315,,,,,,,,,,,,,,,,,,,,,,,,,,,,,,,,,F5ANKX,train_x,red_square,bottom_left,2025-07-16_16h41.06.717,HideSeek_v1,2022.2.5,60.14086193521657,
,2,2,5,2,3,0,46,,train_dim1_1,11,30,,,,2,0,2,0,,,,,,,,,0,0,0,0,0,10,10,10,0,0,0,0,,,,,,,,,,,,,,,,,,,,,,,,,stimuli/alien_stimuli/46.png,,,,,,,,,,,,,,,,,,,,,,,,,,,,,stimuli/alien_stimuli/16.png,16,0,12,,,,,,,30,,,,,,,,1895.9212893999647,1895.9212893999647,1895.9212893999647,1895.9212893999647,1895.9212893999647,right,9.027148900087923,6,0,0,99,0.08,-0.24,right,8.906641399953514,,,,,1894.3340857999865,1895.9212893999647,-0.16,-0.16,0.0,0.0,-0.16,-0.16,-0.16,-0.16,-0.16,1892.3923749999376,1892.3923749999376,1892.3923749999376,1892.3923749999376,1892.3923749999376,1892.3923749999376,1892.3923749999376,1892.3923749999376,1892.3826599398628,2.070726800011471,return,1.9261272000148892,,,,,,,,,,,,,,,,,,,,,,,,,,,,,,,,,F5ANKX,train_x,red_square,bottom_left,2025-07-16_16h41.06.717,HideSeek_v1,2022.2.5,60.14086193521657,
,2,2,5,2,3,0,46,,train_dim1_1,11,30,,,,2,0,2,0,,,,,,,,,0,0,0,0,0,10,10,10,1,0,1,0,,,,,,,,,,,,,,,,,,,,,,,,,,,,,,,,,,,,,,,,,,,,,,,,,,,,,,,,,,,,,,,,30,,,,,,,,1904.9264460999984,1904.9264460999984,1904.9264460999984,1904.9264460999984,1904.9264460999984,right,4.112732599955052,6,0,0,99,0.16,-0.24,right,4.029297100030817,,,,,,,,,,,,,,,,,,,,,,,,,,,,,,,,,,,,,,,,,,,,,,,,,,,,,,,,,,,,F5ANKX,train_x,red_square,bottom_left,2025-07-16_16h41.06.717,HideSeek_v1,2022.2.5,60.14086193521657,
,2,2,5,2,3,0,46,,train_dim1_1,11,30,,,,2,0,2,0,,,,,,,,,0,0,0,0,0,10,10,10,2,0,2,0,,,,,,,,,,,,,,,,,,,,,,,,,,,,,,,,,,,,,,,,,,,,,,,,,,,,,,,,,,,,,,,,30,,,,,,,,1909.0449660000158,1909.0449660000158,1909.0449660000158,1909.0449660000158,1909.0449660000158,right,0.7768674999242648,6,0,0,99,0.24,-0.24,right,0.6972484999569133,,,,,,,,,,,,,,,,,,,,,,,,,,,,,,,,,,,,,,,,,,,,,,,,,,,,,,,,,,,,F5ANKX,train_x,red_square,bottom_left,2025-07-16_16h41.06.717,HideSeek_v1,2022.2.5,60.14086193521657,
,2,2,5,2,3,0,46,,train_dim1_1,11,30,,,,2,0,2,0,,,,,,,,,0,0,0,0,0,10,10,10,3,0,3,0,,,,,,,,,,,,,,,,,,,,,,,,,,,,,,,,,,,,,,,,,,,,,,,,,,,,,,,,,,,,,,,,30,,,,,,,,1909.8354555999395,1909.8354555999395,1909.8354555999395,1909.8354555999395,1909.8354555999395,return,0.7435542000457644,7,0,0,1,0.24,-0.24,return,0.6584562000352889,6,20,0.24,-0.24,,,,,,,,,,,,,,,,,,,,,,,,,,,,,,,,,,,,,,,,,,,,,,,,,,,,,,,,F5ANKX,train_x,red_square,bottom_left,2025-07-16_16h41.06.717,HideSeek_v1,2022.2.5,60.14086193521657,
,0,0,1,0,1,0,26,,train_dim1_1,12,30,,,,2,0,2,0,,,,,,,,,0,0,0,0,0,11,11,11,0,0,0,0,,,,,,,,,,,,,,,,,,,,,,,,,stimuli/alien_stimuli/26.png,,,,,,,,,,,,,,,,,,,,,,,,,,,,,stimuli/alien_stimuli/46.png,46,2,13,,,,,,,30,,,,,,,,1917.164285399951,1917.164285399951,1917.164285399951,1917.164285399951,1917.164285399951,return,1.5403532000491396,7,1,0,0,-0.16,-0.4,return,1.4445958000142127,6,20,-0.16,-0.4,1915.6020867999177,1917.164285399951,0.24,-0.24,0.0,0.24,-0.24,0.24,0.12,0.24,-0.24,1912.1518449999858,1912.1518449999858,1912.1518449999858,1912.1518449999858,1912.1518449999858,1912.1518449999858,1912.1518449999858,1912.1518449999858,1912.1325971098968,3.5718044999521226,return,3.4328073000069708,,,,,,,,,,,,,,,,,,,,,,,,,,,,,,,,,F5ANKX,train_x,red_square,bottom_left,2025-07-16_16h41.06.717,HideSeek_v1,2022.2.5,60.14086193521657,
,0,4,4,4,4,0,56,,train_dim1_1,13,30,,,,2,0,2,0,,,,,,,,,0,0,0,0,0,12,12,12,0,0,0,0,,,,,,,,,,,,,,,,,,,,,,,,,stimuli/alien_stimuli/56.png,,,,,,,,,,,,,,,,,,,,,,,,,,,,,stimuli/alien_stimuli/26.png,26,0,14,,,,,,,30,,,,,,,,1925.9356047000038,1925.9356047000038,1925.9356047000038,1925.9356047000038,1925.9356047000038,right,2.4084252999164164,7,1,0,99,-0.08,-0.08,right,2.322343899984844,,,,,1924.3763519999338,1925.9356047000038,-0.08,-0.4,0.0,0.08,-0.4,-0.08,-0.12,-0.08,-0.4,1920.2662207999965,1920.2662207999965,1920.2662207999965,1920.2662207999965,1920.2662207999965,1920.2662207999965,1920.2662207999965,1920.2662207999965,1920.2559091099656,4.222317599924281,return,4.086018900037743,,,,,,,,,,,,,,,,,,,,,,,,,,,,,,,,,F5ANKX,train_x,red_square,bottom_left,2025-07-16_16h41.06.717,HideSeek_v1,2022.2.5,60.14086193521657,
,0,4,4,4,4,0,56,,train_dim1_1,13,30,,,,2,0,2,0,,,,,,,,,0,0,0,0,0,12,12,12,1,0,1,0,,,,,,,,,,,,,,,,,,,,,,,,,,,,,,,,,,,,,,,,,,,,,,,,,,,,,,,,,,,,,,,,30,,,,,,,,1928.3455920999404,1928.3455920999404,1928.3455920999404,1928.3455920999404,1928.3455920999404,right,0.9764962000772357,7,1,0,99,0.0,-0.08,right,0.886155900079757,,,,,,,,,,,,,,,,,,,,,,,,,,,,,,,,,,,,,,,,,,,,,,,,,,,,,,,,,,,,F5ANKX,train_x,red_square,bottom_left,2025-07-16_16h41.06.717,HideSeek_v1,2022.2.5,60.14086193521657,
,0,4,4,4,4,0,56,,train_dim1_1,13,30,,,,2,0,2,0,,,,,,,,,0,0,0,0,0,12,12,12,2,0,2,0,,,,,,,,,,,,,,,,,,,,,,,,,,,,,,,,,,,,,,,,,,,,,,,,,,,,,,,,,,,,,,,,30,,,,,,,,1929.3285828999942,1929.3285828999942,1929.3285828999942,1929.3285828999942,1929.3285828999942,right,1.4774268999462947,7,1,0,99,0.08,-0.08,right,1.3926766000222415,,,,,,,,,,,,,,,,,,,,,,,,,,,,,,,,,,,,,,,,,,,,,,,,,,,,,,,,,,,,F5ANKX,train_x,red_square,bottom_left,2025-07-16_16h41.06.717,HideSeek_v1,2022.2.5,60.14086193521657,
,0,4,4,4,4,0,56,,train_dim1_1,13,30,,,,2,0,2,0,,,,,,,,,0,0,0,0,0,12,12,12,3,0,3,0,,,,,,,,,,,,,,,,,,,,,,,,,,,,,,,,,,,,,,,,,,,,,,,,,,,,,,,,,,,,,,,,30,,,,,,,,1930.8141637999797,1930.8141637999797,1930.8141637999797,1930.8141637999797,1930.8141637999797,right,1.0103743000654504,7,1,0,99,0.16,-0.08,right,0.9196917000226676,,,,,,,,,,,,,,,,,,,,,,,,,,,,,,,,,,,,,,,,,,,,,,,,,,,,,,,,,,,,F5ANKX,train_x,red_square,bottom_left,2025-07-16_16h41.06.717,HideSeek_v1,2022.2.5,60.14086193521657,
,0,4,4,4,4,0,56,,train_dim1_1,13,30,,,,2,0,2,0,,,,,,,,,0,0,0,0,0,12,12,12,4,0,4,0,,,,,,,,,,,,,,,,,,,,,,,,,,,,,,,,,,,,,,,,,,,,,,,,,,,,,,,,,,,,,,,,30,,,,,,,,1931.8308561999584,1931.8308561999584,1931.8308561999584,1931.8308561999584,1931.8308561999584,return,1.0273299999535084,8,0,0,1,0.16,-0.08,return,0.9523427000967786,6,24,0.16,-0.08,,,,,,,,,,,,,,,,,,,,,,,,,,,,,,,,,,,,,,,,,,,,,,,,,,,,,,,,F5ANKX,train_x,red_square,bottom_left,2025-07-16_16h41.06.717,HideSeek_v1,2022.2.5,60.14086193521657,
,4,3,4,3,0,0,16,,train_dim1_1,14,30,,,,2,0,2,0,,,,,,,,,0,0,0,0,0,13,13,13,0,0,0,0,,,,,,,,,,,,,,,,,,,,,,,,,stimuli/alien_stimuli/16.png,,,,,,,,,,,,,,,,,,,,,,,,,,,,,stimuli/alien_stimuli/56.png,56,0,15,,,,,,,30,,,,,,,,1937.703722300008,1937.703722300008,1937.703722300008,1937.703722300008,1937.703722300008,return,2.141299800015986,9,0,0,1,0.16,-0.16,return,2.0265897000208497,6,24,0.16,-0.16,1936.1192370000063,1937.703722300008,0.16,-0.08,0.0,0.32,-0.08,0.16,0.0,0.16,-0.08,1934.440169599955,1934.440169599955,1934.440169599955,1934.440169599955,1934.440169599955,1934.440169599955,1934.440169599955,1934.440169599955,1934.4174173099573,1.8040429000975564,return,1.6470484000165015,,,,,,,,,,,,,,,,,,,,,,,,,,,,,,,,,F5ANKX,train_x,red_square,bottom_left,2025-07-16_16h41.06.717,HideSeek_v1,2022.2.5,60.14086193521657,
,4,2,9,2,5,0,66,,train_dim1_1,15,30,,,,2,0,2,0,,,,,,,,,0,0,0,0,0,14,14,14,0,0,0,0,,,,,,,,,,,,,,,,,,,,,,,,,stimuli/alien_stimuli/66.png,,,,,,,,,,,,,,,,,,,,,,,,,,,,,stimuli/alien_stimuli/16.png,16,4,16,,,,,,,30,,,,,,,,1945.3035259000026,1945.3035259000026,1945.3035259000026,1945.3035259000026,1945.3035259000026,right,1.6569439000450075,9,0,0,99,0.24,-0.24,right,1.54686360002961,,,,,1943.7256945999106,1945.3035259000026,0.16,-0.16,0.0,0.0,-0.16,0.16,0.16,0.16,-0.16,1941.3809879999608,1941.3809879999608,1941.3809879999608,1941.3809879999608,1941.3809879999608,1941.3809879999608,1941.3809879999608,1941.3809879999608,1941.3739130098957,2.453789599938318,return,2.3193122999509797,,,,,,,,,,,,,,,,,,,,,,,,,,,,,,,,,F5ANKX,train_x,red_square,bottom_left,2025-07-16_16h41.06.717,HideSeek_v1,2022.2.5,60.14086193521657,
,4,2,9,2,5,0,66,,train_dim1_1,15,30,,,,2,0,2,0,,,,,,,,,0,0,0,0,0,14,14,14,1,0,1,0,,,,,,,,,,,,,,,,,,,,,,,,,,,,,,,,,,,,,,,,,,,,,,,,,,,,,,,,,,,,,,,,30,,,,,,,,1946.9412259999663,1946.9412259999663,1946.9412259999663,1946.9412259999663,1946.9412259999663,right,0.8265896999510005,9,0,0,99,0.32,-0.24,right,0.7547785999486223,,,,,,,,,,,,,,,,,,,,,,,,,,,,,,,,,,,,,,,,,,,,,,,,,,,,,,,,,,,,F5ANKX,train_x,red_square,bottom_left,2025-07-16_16h41.06.717,HideSeek_v1,2022.2.5,60.14086193521657,
,4,2,9,2,5,0,66,,train_dim1_1,15,30,,,,2,0,2,0,,,,,,,,,0,0,0,0,0,14,14,14,2,0,2,0,,,,,,,,,,,,,,,,,,,,,,,,,,,,,,,,,,,,,,,,,,,,,,,,,,,,,,,,,,,,,,,,30,,,,,,,,1947.7771074000048,1947.7771074000048,1947.7771074000048,1947.7771074000048,1947.7771074000048,right,0.8104320999700576,9,0,0,99,0.4,-0.24,right,0.7211342999944463,,,,,,,,,,,,,,,,,,,,,,,,,,,,,,,,,,,,,,,,,,,,,,,,,,,,,,,,,,,,F5ANKX,train_x,red_square,bottom_left,2025-07-16_16h41.06.717,HideSeek_v1,2022.2.5,60.14086193521657,
,4,2,9,2,5,0,66,,train_dim1_1,15,30,,,,2,0,2,0,,,,,,,,,0,0,0,0,0,14,14,14,3,0,3,0,,,,,,,,,,,,,,,,,,,,,,,,,,,,,,,,,,,,,,,,,,,,,,,,,,,,,,,,,,,,,,,,30,,,,,,,,1948.5928747999715,1948.5928747999715,1948.5928747999715,1948.5928747999715,1948.5928747999715,right,0.7770590999862179,9,0,0,99,0.48000000000000004,-0.24,right,0.7000053999945521,,,,,,,,,,,,,,,,,,,,,,,,,,,,,,,,,,,,,,,,,,,,,,,,,,,,,,,,,,,,F5ANKX,train_x,red_square,bottom_left,2025-07-16_16h41.06.717,HideSeek_v1,2022.2.5,60.14086193521657,
,4,2,9,2,5,0,66,,train_dim1_1,15,30,,,,2,0,2,0,,,,,,,,,0,0,0,0,0,14,14,14,4,0,4,0,,,,,,,,,,,,,,,,,,,,,,,,,,,,,,,,,,,,,,,,,,,,,,,,,,,,,,,,,,,,,,,,30,,,,,,,,1949.3766448999522,1949.3766448999522,1949.3766448999522,1949.3766448999522,1949.3766448999522,right,0.6769259000429884,9,0,0,99,0.56,-0.24,right,0.5941212000325322,,,,,,,,,,,,,,,,,,,,,,,,,,,,,,,,,,,,,,,,,,,,,,,,,,,,,,,,,,,,F5ANKX,train_x,red_square,bottom_left,2025-07-16_16h41.06.717,HideSeek_v1,2022.2.5,60.14086193521657,
,4,2,9,2,5,0,66,,train_dim1_1,15,30,,,,2,0,2,0,,,,,,,,,0,0,0,0,0,14,14,14,5,0,5,0,,,,,,,,,,,,,,,,,,,,,,,,,,,,,,,,,,,,,,,,,,,,,,,,,,,,,,,,,,,,,,,,30,,,,,,,,1950.0603658999316,1950.0603658999316,1950.0603658999316,1950.0603658999316,1950.0603658999316,return,0.7940571999642998,10,0,0,1,0.56,-0.24,return,0.7136282999999821,6,29,0.56,-0.24,,,,,,,,,,,,,,,,,,,,,,,,,,,,,,,,,,,,,,,,,,,,,,,,,,,,,,,,F5ANKX,train_x,red_square,bottom_left,2025-07-16_16h41.06.717,HideSeek_v1,2022.2.5,60.14086193521657,
,3,3,7,3,4,0,56,,train_dim1_1,16,30,,,,2,0,2,0,,,,,,,,,0,0,0,0,0,15,15,15,0,0,0,0,,,,,,,,,,,,,,,,,,,,,,,,,stimuli/alien_stimuli/56.png,,,,,,,,,,,,,,,,,,,,,,,,,,,,,stimuli/alien_stimuli/66.png,66,4,17,,,,,,,30,,,,,,,,1956.7797202999936,1956.7797202999936,1956.7797202999936,1956.7797202999936,1956.7797202999936,right,5.877334599965252,10,0,0,99,0.16,-0.16,right,5.786393099930137,,,,,1955.2182905999944,1956.7797202999936,0.56,-0.24,0.0,0.4,-0.24,0.56,0.36000000000000004,0.56,-0.24,1952.44405489997,1952.44405489997,1952.44405489997,1952.44405489997,1952.44405489997,1952.44405489997,1952.44405489997,1952.44405489997,1952.432852739864,2.9043376999907196,return,2.7424214000348,,,,,,,,,,,,,,,,,,,,,,,,,,,,,,,,,F5ANKX,train_x,red_square,bottom_left,2025-07-16_16h41.06.717,HideSeek_v1,2022.2.5,60.14086193521657,
,3,3,7,3,4,0,56,,train_dim1_1,16,30,,,,2,0,2,0,,,,,,,,,0,0,0,0,0,15,15,15,1,0,1,0,,,,,,,,,,,,,,,,,,,,,,,,,,,,,,,,,,,,,,,,,,,,,,,,,,,,,,,,,,,,,,,,30,,,,,,,,1962.6577894999646,1962.6577894999646,1962.6577894999646,1962.6577894999646,1962.6577894999646,right,1.3270729000214487,10,0,0,99,0.24,-0.16,right,1.250572600052692,,,,,,,,,,,,,,,,,,,,,,,,,,,,,,,,,,,,,,,,,,,,,,,,,,,,,,,,,,,,F5ANKX,train_x,red_square,bottom_left,2025-07-16_16h41.06.717,HideSeek_v1,2022.2.5,60.14086193521657,
,3,3,7,3,4,0,56,,train_dim1_1,16,30,,,,2,0,2,0,,,,,,,,,0,0,0,0,0,15,15,15,2,0,2,0,,,,,,,,,,,,,,,,,,,,,,,,,,,,,,,,,,,,,,,,,,,,,,,,,,,,,,,,,,,,,,,,30,,,,,,,,1963.991471599904,1963.991471599904,1963.991471599904,1963.991471599904,1963.991471599904,right,1.2772492000367492,10,0,0,99,0.32,-0.16,right,1.1987758999457583,,,,,,,,,,,,,,,,,,,,,,,,,,,,,,,,,,,,,,,,,,,,,,,,,,,,,,,,,,,,F5ANKX,train_x,red_square,bottom_left,2025-07-16_16h41.06.717,HideSeek_v1,2022.2.5,60.14086193521657,
,3,3,7,3,4,0,56,,train_dim1_1,16,30,,,,2,0,2,0,,,,,,,,,0,0,0,0,0,15,15,15,3,0,3,0,,,,,,,,,,,,,,,,,,,,,,,,,,,,,,,,,,,,,,,,,,,,,,,,,,,,,,,,,,,,,,,,30,,,,,,,,1965.2755312999943,1965.2755312999943,1965.2755312999943,1965.2755312999943,1965.2755312999943,return,0.99409769999329,10,1,0,0,0.32,-0.16,return,0.917324399924837,6,32,0.32,-0.16,,,,,,,,,,,,,,,,,,,,,,,,,,,,,,,,,,,,,,,,,,,,,,,,,,,,,,,,F5ANKX,train_x,red_square,bottom_left,2025-07-16_16h41.06.717,HideSeek_v1,2022.2.5,60.14086193521657,
,2,4,3,4,1,0,26,,train_dim1_1,17,30,,,,2,0,2,0,,,,,,,,,0,0,0,0,0,16,16,16,0,0,0,0,,,,,,,,,,,,,,,,,,,,,,,,,stimuli/alien_stimuli/26.png,,,,,,,,,,,,,,,,,,,,,,,,,,,,,stimuli/alien_stimuli/56.png,56,3,18,,,,,,,30,,,,,,,,1971.625058399979,1971.625058399979,1971.625058399979,1971.625058399979,1971.625058399979,right,2.860392300062813,10,1,0,99,0.08,-0.08,right,2.7541569999884814,,,,,1970.0308444999391,1971.625058399979,0.4,-0.16,0.0,0.32,-0.16,0.4,0.24000000000000002,0.4,-0.16,1967.8572817000095,1967.8572817000095,1967.8572817000095,1967.8572817000095,1967.8572817000095,1967.8572817000095,1967.8572817000095,1967.8572817000095,1967.8453404398635,2.3041737999301404,return,2.1449273000471294,,,,,,,,,,,,,,,,,,,,,,,,,,,,,,,,,F5ANKX,train_x,red_square,bottom_left,2025-07-16_16h41.06.717,HideSeek_v1,2022.2.5,60.14086193521657,
,2,4,3,4,1,0,26,,train_dim1_1,17,30,,,,2,0,2,0,,,,,,,,,0,0,0,0,0,16,16,16,1,0,1,0,,,,,,,,,,,,,,,,,,,,,,,,,,,,,,,,,,,,,,,,,,,,,,,,,,,,,,,,,,,,,,,,30,,,,,,,,1974.4693397999508,1974.4693397999508,1974.4693397999508,1974.4693397999508,1974.4693397999508,return,0.5933011000743136,11,0,0,1,0.08,-0.08,return,0.5164400000358,6,33,0.08,-0.08,,,,,,,,,,,,,,,,,,,,,,,,,,,,,,,,,,,,,,,,,,,,,,,,,,,,,,,,F5ANKX,train_x,red_square,bottom_left,2025-07-16_16h41.06.717,HideSeek_v1,2022.2.5,60.14086193521657,
,2,1,7,1,5,0,66,,train_dim1_1,18,30,,,,2,0,2,0,,,,,,,,,0,0,0,0,0,17,17,17,0,0,0,0,,,,,,,,,,,,,,,,,,,,,,,,,stimuli/alien_stimuli/66.png,,,,,,,,,,,,,,,,,,,,,,,,,,,,,stimuli/alien_stimuli/26.png,26,2,19,,,,,,,30,,,,,,,,1980.6472070999444,1980.6472070999444,1980.6472070999444,1980.6472070999444,1980.6472070999444,right,1.5405354999238625,11,0,0,99,0.08,-0.32,right,1.4363796000834554,,,,,1979.0714622999076,1980.6472070999444,0.08,-0.08,0.0,0.08,-0.08,0.08,0.04,0.08,-0.08,1976.626914299908,1976.626914299908,1976.626914299908,1976.626914299908,1976.626914299908,1976.626914299908,1976.626914299908,1976.626914299908,1976.6192473098754,2.5542303000111133,return,2.4150397999910638,,,,,,,,,,,,,,,,,,,,,,,,,,,,,,,,,F5ANKX,train_x,red_square,bottom_left,2025-07-16_16h41.06.717,HideSeek_v1,2022.2.5,60.14086193521657,
,2,1,7,1,5,0,66,,train_dim1_1,18,30,,,,2,0,2,0,,,,,,,,,0,0,0,0,0,17,17,17,1,0,1,0,,,,,,,,,,,,,,,,,,,,,,,,,,,,,,,,,,,,,,,,,,,,,,,,,,,,,,,,,,,,,,,,30,,,,,,,,1982.1710626999848,1982.1710626999848,1982.1710626999848,1982.1710626999848,1982.1710626999848,right,0.9431535999756306,11,0,0,99,0.16,-0.32,right,0.8657224000198767,,,,,,,,,,,,,,,,,,,,,,,,,,,,,,,,,,,,,,,,,,,,,,,,,,,,,,,,,,,,F5ANKX,train_x,red_square,bottom_left,2025-07-16_16h41.06.717,HideSeek_v1,2022.2.5,60.14086193521657,
,2,1,7,1,5,0,66,,train_dim1_1,18,30,,,,2,0,2,0,,,,,,,,,0,0,0,0,0,17,17,17,2,0,2,0,,,,,,,,,,,,,,,,,,,,,,,,,,,,,,,,,,,,,,,,,,,,,,,,,,,,,,,,,,,,,,,,30,,,,,,,,1983.121406499995,1983.121406499995,1983.121406499995,1983.121406499995,1983.121406499995,right,0.9435608999338001,11,0,0,99,0.24,-0.32,right,0.8698042000178248,,,,,,,,,,,,,,,,,,,,,,,,,,,,,,,,,,,,,,,,,,,,,,,,,,,,,,,,,,,,F5ANKX,train_x,red_square,bottom_left,2025-07-16_16h41.06.717,HideSeek_v1,2022.2.5,60.14086193521657,
,2,1,7,1,5,0,66,,train_dim1_1,18,30,,,,2,0,2,0,,,,,,,,,0,0,0,0,0,17,17,17,3,0,3,0,,,,,,,,,,,,,,,,,,,,,,,,,,,,,,,,,,,,,,,,,,,,,,,,,,,,,,,,,,,,,,,,30,,,,,,,,1984.0713475999655,1984.0713475999655,1984.0713475999655,1984.0713475999655,1984.0713475999655,right,1.0274150000186637,11,0,0,99,0.32,-0.32,right,0.9460815000347793,,,,,,,,,,,,,,,,,,,,,,,,,,,,,,,,,,,,,,,,,,,,,,,,,,,,,,,,,,,,F5ANKX,train_x,red_square,bottom_left,2025-07-16_16h41.06.717,HideSeek_v1,2022.2.5,60.14086193521657,
,2,1,7,1,5,0,66,,train_dim1_1,18,30,,,,2,0,2,0,,,,,,,,,0,0,0,0,0,17,17,17,4,0,4,0,,,,,,,,,,,,,,,,,,,,,,,,,,,,,,,,,,,,,,,,,,,,,,,,,,,,,,,,,,,,,,,,30,,,,,,,,1985.10724199994,1985.10724199994,1985.10724199994,1985.10724199994,1985.10724199994,right,0.7601613999577239,11,0,0,99,0.4,-0.32,right,0.686402800027281,,,,,,,,,,,,,,,,,,,,,,,,,,,,,,,,,,,,,,,,,,,,,,,,,,,,,,,,,,,,F5ANKX,train_x,red_square,bottom_left,2025-07-16_16h41.06.717,HideSeek_v1,2022.2.5,60.14086193521657,
,2,1,7,1,5,0,66,,train_dim1_1,18,30,,,,2,0,2,0,,,,,,,,,0,0,0,0,0,17,17,17,5,0,5,0,,,,,,,,,,,,,,,,,,,,,,,,,,,,,,,,,,,,,,,,,,,,,,,,,,,,,,,,,,,,,,,,30,,,,,,,,1985.8735154999886,1985.8735154999886,1985.8735154999886,1985.8735154999886,1985.8735154999886,return,0.9440298998961225,12,0,0,1,0.4,-0.32,return,0.8603280000388622,6,38,0.4,-0.32,,,,,,,,,,,,,,,,,,,,,,,,,,,,,,,,,,,,,,,,,,,,,,,,,,,,,,,,F5ANKX,train_x,red_square,bottom_left,2025-07-16_16h41.06.717,HideSeek_v1,2022.2.5,60.14086193521657,
,0,3,3,3,3,0,46,,train_dim1_1,19,30,,,,2,0,2,0,,,,,,,,,0,0,0,0,0,18,18,18,0,0,0,0,,,,,,,,,,,,,,,,,,,,,,,,,stimuli/alien_stimuli/46.png,,,,,,,,,,,,,,,,,,,,,,,,,,,,,stimuli/alien_stimuli/66.png,66,2,20,,,,,,,30,,,,,,,,1991.291795499972,1991.291795499972,1991.291795499972,1991.291795499972,1991.291795499972,right,4.976449600071646,12,0,0,99,-0.08,-0.16,right,4.870907100033946,,,,,1989.7139102999354,1991.291795499972,0.4,-0.32,0.0,0.4,-0.32,0.4,0.2,0.4,-0.32,1988.3981959999073,1988.3981959999073,1988.3981959999073,1988.3981959999073,1988.3981959999073,1988.3981959999073,1988.3981959999073,1988.3981959999073,1988.3788248099272,1.4374072999926284,return,1.2857862999662757,,,,,,,,,,,,,,,,,,,,,,,,,,,,,,,,,F5ANKX,train_x,red_square,bottom_left,2025-07-16_16h41.06.717,HideSeek_v1,2022.2.5,60.14086193521657,
,0,3,3,3,3,0,46,,train_dim1_1,19,30,,,,2,0,2,0,,,,,,,,,0,0,0,0,0,18,18,18,1,0,1,0,,,,,,,,,,,,,,,,,,,,,,,,,,,,,,,,,,,,,,,,,,,,,,,,,,,,,,,,,,,,,,,,30,,,,,,,,1996.2509435999673,1996.2509435999673,1996.2509435999673,1996.2509435999673,1996.2509435999673,right,0.9601497000548989,12,0,0,99,0.0,-0.16,right,0.8744893999537453,,,,,,,,,,,,,,,,,,,,,,,,,,,,,,,,,,,,,,,,,,,,,,,,,,,,,,,,,,,,F5ANKX,train_x,red_square,bottom_left,2025-07-16_16h41.06.717,HideSeek_v1,2022.2.5,60.14086193521657,
,0,3,3,3,3,0,46,,train_dim1_1,19,30,,,,2,0,2,0,,,,,,,,,0,0,0,0,0,18,18,18,2,0,2,0,,,,,,,,,,,,,,,,,,,,,,,,,,,,,,,,,,,,,,,,,,,,,,,,,,,,,,,,,,,,,,,,30,,,,,,,,1997.2163401999278,1997.2163401999278,1997.2163401999278,1997.2163401999278,1997.2163401999278,right,0.9935866000596434,12,0,0,99,0.08,-0.16,right,0.9088371000252664,,,,,,,,,,,,,,,,,,,,,,,,,,,,,,,,,,,,,,,,,,,,,,,,,,,,,,,,,,,,F5ANKX,train_x,red_square,bottom_left,2025-07-16_16h41.06.717,HideSeek_v1,2022.2.5,60.14086193521657,
,0,3,3,3,3,0,46,,train_dim1_1,19,30,,,,2,0,2,0,,,,,,,,,0,0,0,0,0,18,18,18,3,0,3,0,,,,,,,,,,,,,,,,,,,,,,,,,,,,,,,,,,,,,,,,,,,,,,,,,,,,,,,,,,,,,,,,30,,,,,,,,1998.2234560999786,1998.2234560999786,1998.2234560999786,1998.2234560999786,1998.2234560999786,return,0.8937194999307394,13,0,0,1,0.08,-0.16,return,0.813118499936536,6,41,0.08,-0.16,,,,,,,,,,,,,,,,,,,,,,,,,,,,,,,,,,,,,,,,,,,,,,,,,,,,,,,,F5ANKX,train_x,red_square,bottom_left,2025-07-16_16h41.06.717,HideSeek_v1,2022.2.5,60.14086193521657,
,0,1,0,1,0,0,16,,train_dim1_1,20,30,,,,2,0,2,0,,,,,,,,,0,0,0,0,0,19,19,19,0,0,0,0,,,,,,,,,,,,,,,,,,,,,,,,,stimuli/alien_stimuli/16.png,,,,,,,,,,,,,,,,,,,,,,,,,,,,,stimuli/alien_stimuli/46.png,46,0,21,,,,,,,30,,,,,,,,2004.0908630000195,2004.0908630000195,2004.0908630000195,2004.0908630000195,2004.0908630000195,return,1.7073167000198737,14,0,0,1,-0.16,-0.32,return,1.5953755000373349,6,41,-0.16,-0.32,2002.5077455999563,2004.0908630000195,0.08,-0.16,0.0,0.24,-0.16,0.08,-0.04,0.08,-0.16,2000.6798283999087,2000.6798283999087,2000.6798283999087,2000.6798283999087,2000.6798283999087,2000.6798283999087,2000.6798283999087,2000.6798283999087,2000.672573009867,1.9372962000779808,return,1.8019991000182927,,,,,,,,,,,,,,,,,,,,,,,,,,,,,,,,,F5ANKX,train_x,red_square,bottom_left,2025-07-16_16h41.06.717,HideSeek_v1,2022.2.5,60.14086193521657,
,4,2,7,2,3,0,46,,train_dim1_1,21,30,,,,2,0,2,0,,,,,,,,,0,0,0,0,0,20,20,20,0,0,0,0,,,,,,,,,,,,,,,,,,,,,,,,,stimuli/alien_stimuli/46.png,,,,,,,,,,,,,,,,,,,,,,,,,,,,,stimuli/alien_stimuli/16.png,16,0,22,,,,,,,30,,,,,,,,2010.5427682999289,2010.5427682999289,2010.5427682999289,2010.5427682999289,2010.5427682999289,right,4.209611300029792,14,0,0,99,0.24,-0.24,right,4.116205100086518,,,,,2008.9798292999621,2010.5427682999289,-0.16,-0.32,0.0,0.0,-0.32,-0.16,-0.16,-0.16,-0.32,2007.3376102999318,2007.3376102999318,2007.3376102999318,2007.3376102999318,2007.3376102999318,2007.3376102999318,2007.3376102999318,2007.3376102999318,2007.32822500997,1.7539726999821141,return,1.620412899996154,,,,,,,,,,,,,,,,,,,,,,,,,,,,,,,,,F5ANKX,train_x,red_square,bottom_left,2025-07-16_16h41.06.717,HideSeek_v1,2022.2.5,60.14086193521657,
,4,2,7,2,3,0,46,,train_dim1_1,21,30,,,,2,0,2,0,,,,,,,,,0,0,0,0,0,20,20,20,1,0,1,0,,,,,,,,,,,,,,,,,,,,,,,,,,,,,,,,,,,,,,,,,,,,,,,,,,,,,,,,,,,,,,,,30,,,,,,,,2014.749623999931,2014.749623999931,2014.749623999931,2014.749623999931,2014.749623999931,right,1.1099450000328943,14,0,0,99,0.32,-0.24,right,1.0348877999931574,,,,,,,,,,,,,,,,,,,,,,,,,,,,,,,,,,,,,,,,,,,,,,,,,,,,,,,,,,,,F5ANKX,train_x,red_square,bottom_left,2025-07-16_16h41.06.717,HideSeek_v1,2022.2.5,60.14086193521657,
,4,2,7,2,3,0,46,,train_dim1_1,21,30,,,,2,0,2,0,,,,,,,,,0,0,0,0,0,20,20,20,2,0,2,0,,,,,,,,,,,,,,,,,,,,,,,,,,,,,,,,,,,,,,,,,,,,,,,,,,,,,,,,,,,,,,,,30,,,,,,,,2015.8653072000016,2015.8653072000016,2015.8653072000016,2015.8653072000016,2015.8653072000016,right,0.9603726000059396,14,0,0,99,0.4,-0.24,right,0.8806437000166625,,,,,,,,,,,,,,,,,,,,,,,,,,,,,,,,,,,,,,,,,,,,,,,,,,,,,,,,,,,,F5ANKX,train_x,red_square,bottom_left,2025-07-16_16h41.06.717,HideSeek_v1,2022.2.5,60.14086193521657,
,4,2,7,2,3,0,46,,train_dim1_1,21,30,,,,2,0,2,0,,,,,,,,,0,0,0,0,0,20,20,20,3,0,3,0,,,,,,,,,,,,,,,,,,,,,,,,,,,,,,,,,,,,,,,,,,,,,,,,,,,,,,,,,,,,,,,,30,,,,,,,,2016.8328532999149,2016.8328532999149,2016.8328532999149,2016.8328532999149,2016.8328532999149,right,0.4768834999995306,14,0,0,99,0.48000000000000004,-0.24,right,0.3882556000025943,,,,,,,,,,,,,,,,,,,,,,,,,,,,,,,,,,,,,,,,,,,,,,,,,,,,,,,,,,,,F5ANKX,train_x,red_square,bottom_left,2025-07-16_16h41.06.717,HideSeek_v1,2022.2.5,60.14086193521657,
,4,2,7,2,3,0,46,,train_dim1_1,21,30,,,,2,0,2,0,,,,,,,,,0,0,0,0,0,20,20,20,4,0,4,0,,,,,,,,,,,,,,,,,,,,,,,,,,,,,,,,,,,,,,,,,,,,,,,,,,,,,,,,,,,,,,,,30,,,,,,,,2017.319109599921,2017.319109599921,2017.319109599921,2017.319109599921,2017.319109599921,return,0.8603825999889523,14,1,0,0,0.48000000000000004,-0.24,return,0.7775644001085311,6,45,0.48000000000000004,-0.24,,,,,,,,,,,,,,,,,,,,,,,,,,,,,,,,,,,,,,,,,,,,,,,,,,,,,,,,F5ANKX,train_x,red_square,bottom_left,2025-07-16_16h41.06.717,HideSeek_v1,2022.2.5,60.14086193521657,
,1,0,2,0,1,0,26,,train_dim1_1,22,30,,,,2,0,2,0,,,,,,,,,0,0,0,0,0,21,21,21,0,0,0,0,,,,,,,,,,,,,,,,,,,,,,,,,stimuli/alien_stimuli/26.png,,,,,,,,,,,,,,,,,,,,,,,,,,,,,stimuli/alien_stimuli/46.png,46,4,23,,,,,,,30,,,,,,,,2024.569834999973,2024.569834999973,2024.569834999973,2024.569834999973,2024.569834999973,right,2.257700900081545,14,1,0,99,0.0,-0.4,right,2.1747532000299543,,,,,2023.008266299963,2024.569834999973,0.4,-0.24,0.0,0.24,-0.24,0.4,0.28,0.4,-0.24,2019.7949806000106,2019.7949806000106,2019.7949806000106,2019.7949806000106,2019.7949806000106,2019.7949806000106,2019.7949806000106,2019.7949806000106,2019.7886220999062,3.3714831999968737,return,3.1809433000162244,,,,,,,,,,,,,,,,,,,,,,,,,,,,,,,,,F5ANKX,train_x,red_square,bottom_left,2025-07-16_16h41.06.717,HideSeek_v1,2022.2.5,60.14086193521657,
,1,0,2,0,1,0,26,,train_dim1_1,22,30,,,,2,0,2,0,,,,,,,,,0,0,0,0,0,21,21,21,1,0,1,0,,,,,,,,,,,,,,,,,,,,,,,,,,,,,,,,,,,,,,,,,,,,,,,,,,,,,,,,,,,,,,,,30,,,,,,,,2026.82975169993,2026.82975169993,2026.82975169993,2026.82975169993,2026.82975169993,return,1.0262814000016078,15,0,0,1,0.0,-0.4,return,0.9364029000280425,6,46,0.0,-0.4,,,,,,,,,,,,,,,,,,,,,,,,,,,,,,,,,,,,,,,,,,,,,,,,,,,,,,,,F5ANKX,train_x,red_square,bottom_left,2025-07-16_16h41.06.717,HideSeek_v1,2022.2.5,60.14086193521657,
,2,1,7,1,5,0,66,,train_dim1_1,23,30,,,,2,0,2,0,,,,,,,,,0,0,0,0,0,22,22,22,0,0,0,0,,,,,,,,,,,,,,,,,,,,,,,,,stimuli/alien_stimuli/66.png,,,,,,,,,,,,,,,,,,,,,,,,,,,,,stimuli/alien_stimuli/26.png,26,1,24,,,,,,,30,,,,,,,,2032.4957252999302,2032.4957252999302,2032.4957252999302,2032.4957252999302,2032.4957252999302,right,1.3720043000066653,15,0,0,99,0.08,-0.32,right,1.2709915000014007,,,,,2030.8981381999329,2032.4957252999302,0,-0.4,0.0,0.08,-0.4,0,-0.04,0,-0.4,2029.424141699914,2029.424141699914,2029.424141699914,2029.424141699914,2029.424141699914,2029.424141699914,2029.424141699914,2029.424141699914,2029.413422209921,1.5868311000522226,return,1.4425238000694662,,,,,,,,,,,,,,,,,,,,,,,,,,,,,,,,,F5ANKX,train_x,red_square,bottom_left,2025-07-16_16h41.06.717,HideSeek_v1,2022.2.5,60.14086193521657,
,2,1,7,1,5,0,66,,train_dim1_1,23,30,,,,2,0,2,0,,,,,,,,,0,0,0,0,0,22,22,22,1,0,1,0,,,,,,,,,,,,,,,,,,,,,,,,,,,,,,,,,,,,,,,,,,,,,,,,,,,,,,,,,,,,,,,,30,,,,,,,,2033.850043799961,2033.850043799961,2033.850043799961,2033.850043799961,2033.850043799961,right,0.8742438000626862,15,0,0,99,0.16,-0.32,right,0.7943979999981821,,,,,,,,,,,,,,,,,,,,,,,,,,,,,,,,,,,,,,,,,,,,,,,,,,,,,,,,,,,,F5ANKX,train_x,red_square,bottom_left,2025-07-16_16h41.06.717,HideSeek_v1,2022.2.5,60.14086193521657,
,2,1,7,1,5,0,66,,train_dim1_1,23,30,,,,2,0,2,0,,,,,,,,,0,0,0,0,0,22,22,22,2,0,2,0,,,,,,,,,,,,,,,,,,,,,,,,,,,,,,,,,,,,,,,,,,,,,,,,,,,,,,,,,,,,,,,,30,,,,,,,,2034.7307745999424,2034.7307745999424,2034.7307745999424,2034.7307745999424,2034.7307745999424,right,0.793508299975656,15,0,0,99,0.24,-0.32,right,0.7087440000614151,,,,,,,,,,,,,,,,,,,,,,,,,,,,,,,,,,,,,,,,,,,,,,,,,,,,,,,,,,,,F5ANKX,train_x,red_square,bottom_left,2025-07-16_16h41.06.717,HideSeek_v1,2022.2.5,60.14086193521657,
,2,1,7,1,5,0,66,,train_dim1_1,23,30,,,,2,0,2,0,,,,,,,,,0,0,0,0,0,22,22,22,3,0,3,0,,,,,,,,,,,,,,,,,,,,,,,,,,,,,,,,,,,,,,,,,,,,,,,,,,,,,,,,,,,,,,,,30,,,,,,,,2035.5308780999621,2035.5308780999621,2035.5308780999621,2035.5308780999621,2035.5308780999621,right,0.6107040999922901,15,0,0,99,0.32,-0.32,right,0.5376923000440001,,,,,,,,,,,,,,,,,,,,,,,,,,,,,,,,,,,,,,,,,,,,,,,,,,,,,,,,,,,,F5ANKX,train_x,red_square,bottom_left,2025-07-16_16h41.06.717,HideSeek_v1,2022.2.5,60.14086193521657,
,2,1,7,1,5,0,66,,train_dim1_1,23,30,,,,2,0,2,0,,,,,,,,,0,0,0,0,0,22,22,22,4,0,4,0,,,,,,,,,,,,,,,,,,,,,,,,,,,,,,,,,,,,,,,,,,,,,,,,,,,,,,,,,,,,,,,,30,,,,,,,,2036.1561370999552,2036.1561370999552,2036.1561370999552,2036.1561370999552,2036.1561370999552,right,0.7096425000345334,15,0,0,99,0.4,-0.32,right,0.6248365000355989,,,,,,,,,,,,,,,,,,,,,,,,,,,,,,,,,,,,,,,,,,,,,,,,,,,,,,,,,,,,F5ANKX,train_x,red_square,bottom_left,2025-07-16_16h41.06.717,HideSeek_v1,2022.2.5,60.14086193521657,
,2,1,7,1,5,0,66,,train_dim1_1,23,30,,,,2,0,2,0,,,,,,,,,0,0,0,0,0,22,22,22,5,0,5,0,,,,,,,,,,,,,,,,,,,,,,,,,,,,,,,,,,,,,,,,,,,,,,,,,,,,,,,,,,,,,,,,30,,,,,,,,2036.8682452999055,2036.8682452999055,2036.8682452999055,2036.8682452999055,2036.8682452999055,return,0.7776411999948323,16,0,0,1,0.4,-0.32,return,0.6903279999969527,6,51,0.4,-0.32,,,,,,,,,,,,,,,,,,,,,,,,,,,,,,,,,,,,,,,,,,,,,,,,,,,,,,,,F5ANKX,train_x,red_square,bottom_left,2025-07-16_16h41.06.717,HideSeek_v1,2022.2.5,60.14086193521657,
,4,4,8,4,4,0,56,,train_dim1_1,24,30,,,,2,0,2,0,,,,,,,,,0,0,0,0,0,23,23,23,0,0,0,0,,,,,,,,,,,,,,,,,,,,,,,,,stimuli/alien_stimuli/56.png,,,,,,,,,,,,,,,,,,,,,,,,,,,,,stimuli/alien_stimuli/66.png,66,2,25,,,,,,,30,,,,,,,,2042.0983606999507,2042.0983606999507,2042.0983606999507,2042.0983606999507,2042.0983606999507,right,3.191546000074595,16,0,0,99,0.24,-0.08,right,3.092184300068766,,,,,2040.5226044999436,2042.0983606999507,0.4,-0.32,0.0,0.4,-0.32,0.4,0.2,0.4,-0.32,2039.2040416999953,2039.2040416999953,2039.2040416999953,2039.2040416999953,2039.2040416999953,2039.2040416999953,2039.2040416999953,2039.2040416999953,2039.188198079914,1.4201496999012306,return,1.2931888001039624,,,,,,,,,,,,,,,,,,,,,,,,,,,,,,,,,F5ANKX,train_x,red_square,bottom_left,2025-07-16_16h41.06.717,HideSeek_v1,2022.2.5,60.14086193521657,
,4,4,8,4,4,0,56,,train_dim1_1,24,30,,,,2,0,2,0,,,,,,,,,0,0,0,0,0,23,23,23,1,0,1,0,,,,,,,,,,,,,,,,,,,,,,,,,,,,,,,,,,,,,,,,,,,,,,,,,,,,,,,,,,,,,,,,30,,,,,,,,2045.2763361999532,2045.2763361999532,2045.2763361999532,2045.2763361999532,2045.2763361999532,right,0.9099325999850407,16,0,0,99,0.32,-0.08,right,0.8276919999625534,,,,,,,,,,,,,,,,,,,,,,,,,,,,,,,,,,,,,,,,,,,,,,,,,,,,,,,,,,,,F5ANKX,train_x,red_square,bottom_left,2025-07-16_16h41.06.717,HideSeek_v1,2022.2.5,60.14086193521657,
,4,4,8,4,4,0,56,,train_dim1_1,24,30,,,,2,0,2,0,,,,,,,,,0,0,0,0,0,23,23,23,2,0,2,0,,,,,,,,,,,,,,,,,,,,,,,,,,,,,,,,,,,,,,,,,,,,,,,,,,,,,,,,,,,,,,,,30,,,,,,,,2046.1924260999076,2046.1924260999076,2046.1924260999076,2046.1924260999076,2046.1924260999076,right,0.7937812999589369,16,0,0,99,0.4,-0.08,right,0.7145480999024585,,,,,,,,,,,,,,,,,,,,,,,,,,,,,,,,,,,,,,,,,,,,,,,,,,,,,,,,,,,,F5ANKX,train_x,red_square,bottom_left,2025-07-16_16h41.06.717,HideSeek_v1,2022.2.5,60.14086193521657,
,4,4,8,4,4,0,56,,train_dim1_1,24,30,,,,2,0,2,0,,,,,,,,,0,0,0,0,0,23,23,23,3,0,3,0,,,,,,,,,,,,,,,,,,,,,,,,,,,,,,,,,,,,,,,,,,,,,,,,,,,,,,,,,,,,,,,,30,,,,,,,,2046.994336099946,2046.994336099946,2046.994336099946,2046.994336099946,2046.994336099946,return,3.012099700048566,16,1,0,0,0.4,-0.08,return,2.9356305000837892,6,54,0.4,-0.08,,,,,,,,,,,,,,,,,,,,,,,,,,,,,,,,,,,,,,,,,,,,,,,,,,,,,,,,F5ANKX,train_x,red_square,bottom_left,2025-07-16_16h41.06.717,HideSeek_v1,2022.2.5,60.14086193521657,
,3,0,3,0,0,0,16,,train_dim1_1,25,30,,,,2,0,2,0,,,,,,,,,0,0,0,0,0,24,24,24,0,0,0,0,,,,,,,,,,,,,,,,,,,,,,,,,stimuli/alien_stimuli/16.png,,,,,,,,,,,,,,,,,,,,,,,,,,,,,stimuli/alien_stimuli/56.png,56,4,26,,,,,,,30,,,,,,,,2055.381582299946,2055.381582299946,2055.381582299946,2055.381582299946,2055.381582299946,return,6.094637100002728,17,0,0,1,0.08,-0.4,return,5.989359500003047,6,54,0.08,-0.4,2053.800328799989,2055.381582299946,0.48,-0.08,0.0,0.32,-0.08,0.48,0.32,0.48,-0.08,2051.5900809000013,2051.5900809000013,2051.5900809000013,2051.5900809000013,2051.5900809000013,2051.5900809000013,2051.5900809000013,2051.5900809000013,2051.581621139939,2.337579100043513,return,2.193309299997054,,,,,,,,,,,,,,,,,,,,,,,,,,,,,,,,,F5ANKX,train_x,red_square,bottom_left,2025-07-16_16h41.06.717,HideSeek_v1,2022.2.5,60.14086193521657,
,1,1,6,1,5,0,66,,train_dim1_1,26,30,,,,2,0,2,0,,,,,,,,,0,0,0,0,0,25,25,25,0,0,0,0,,,,,,,,,,,,,,,,,,,,,,,,,stimuli/alien_stimuli/66.png,,,,,,,,,,,,,,,,,,,,,,,,,,,,,stimuli/alien_stimuli/16.png,16,3,27,,,,,,,30,,,,,,,,2065.876006799983,2065.876006799983,2065.876006799983,2065.876006799983,2065.876006799983,right,1.2398446999723092,17,0,0,99,0.0,-0.32,right,1.1264378000050783,,,,,2064.2926636999473,2065.876006799983,0.08,-0.4,0.0,0.0,-0.4,0.08,0.08,0.08,-0.4,2063.033241099911,2063.033241099911,2063.033241099911,2063.033241099911,2063.033241099911,2063.033241099911,2063.033241099911,2063.033241099911,2063.0245286399036,1.387794699985534,return,1.2331197999883443,,,,,,,,,,,,,,,,,,,,,,,,,,,,,,,,,F5ANKX,train_x,red_square,bottom_left,2025-07-16_16h41.06.717,HideSeek_v1,2022.2.5,60.14086193521657,
,1,1,6,1,5,0,66,,train_dim1_1,26,30,,,,2,0,2,0,,,,,,,,,0,0,0,0,0,25,25,25,1,0,1,0,,,,,,,,,,,,,,,,,,,,,,,,,,,,,,,,,,,,,,,,,,,,,,,,,,,,,,,,,,,,,,,,30,,,,,,,,2067.0923263999866,2067.0923263999866,2067.0923263999866,2067.0923263999866,2067.0923263999866,right,0.9263594000367448,17,0,0,99,0.08,-0.32,right,0.8474406999303028,,,,,,,,,,,,,,,,,,,,,,,,,,,,,,,,,,,,,,,,,,,,,,,,,,,,,,,,,,,,F5ANKX,train_x,red_square,bottom_left,2025-07-16_16h41.06.717,HideSeek_v1,2022.2.5,60.14086193521657,
,1,1,6,1,5,0,66,,train_dim1_1,26,30,,,,2,0,2,0,,,,,,,,,0,0,0,0,0,25,25,25,2,0,2,0,,,,,,,,,,,,,,,,,,,,,,,,,,,,,,,,,,,,,,,,,,,,,,,,,,,,,,,,,,,,,,,,30,,,,,,,,2068.024078599992,2068.024078599992,2068.024078599992,2068.024078599992,2068.024078599992,right,0.9275612999917939,17,0,0,99,0.16,-0.32,right,0.849739900091663,,,,,,,,,,,,,,,,,,,,,,,,,,,,,,,,,,,,,,,,,,,,,,,,,,,,,,,,,,,,F5ANKX,train_x,red_square,bottom_left,2025-07-16_16h41.06.717,HideSeek_v1,2022.2.5,60.14086193521657,
,1,1,6,1,5,0,66,,train_dim1_1,26,30,,,,2,0,2,0,,,,,,,,,0,0,0,0,0,25,25,25,3,0,3,0,,,,,,,,,,,,,,,,,,,,,,,,,,,,,,,,,,,,,,,,,,,,,,,,,,,,,,,,,,,,,,,,30,,,,,,,,2068.959241100005,2068.959241100005,2068.959241100005,2068.959241100005,2068.959241100005,right,0.7770538000622764,17,0,0,99,0.24,-0.32,right,0.6976282999385148,,,,,,,,,,,,,,,,,,,,,,,,,,,,,,,,,,,,,,,,,,,,,,,,,,,,,,,,,,,,F5ANKX,train_x,red_square,bottom_left,2025-07-16_16h41.06.717,HideSeek_v1,2022.2.5,60.14086193521657,
,1,1,6,1,5,0,66,,train_dim1_1,26,30,,,,2,0,2,0,,,,,,,,,0,0,0,0,0,25,25,25,4,0,4,0,,,,,,,,,,,,,,,,,,,,,,,,,,,,,,,,,,,,,,,,,,,,,,,,,,,,,,,,,,,,,,,,30,,,,,,,,2069.744192400016,2069.744192400016,2069.744192400016,2069.744192400016,2069.744192400016,right,0.610350799979642,17,0,0,99,0.32,-0.32,right,0.5210805999813601,,,,,,,,,,,,,,,,,,,,,,,,,,,,,,,,,,,,,,,,,,,,,,,,,,,,,,,,,,,,F5ANKX,train_x,red_square,bottom_left,2025-07-16_16h41.06.717,HideSeek_v1,2022.2.5,60.14086193521657,
,1,1,6,1,5,0,66,,train_dim1_1,26,30,,,,2,0,2,0,,,,,,,,,0,0,0,0,0,25,25,25,5,0,5,0,,,,,,,,,,,,,,,,,,,,,,,,,,,,,,,,,,,,,,,,,,,,,,,,,,,,,,,,,,,,,,,,30,,,,,,,,2070.3820931999944,2070.3820931999944,2070.3820931999944,2070.3820931999944,2070.3820931999944,return,0.7771807999815792,18,0,0,1,0.32,-0.32,return,0.680285400012508,6,59,0.32,-0.32,,,,,,,,,,,,,,,,,,,,,,,,,,,,,,,,,,,,,,,,,,,,,,,,,,,,,,,,F5ANKX,train_x,red_square,bottom_left,2025-07-16_16h41.06.717,HideSeek_v1,2022.2.5,60.14086193521657,
,0,1,3,1,3,0,46,,train_dim1_1,27,30,,,,2,0,2,0,,,,,,,,,0,0,0,0,0,26,26,26,0,0,0,0,,,,,,,,,,,,,,,,,,,,,,,,,stimuli/alien_stimuli/46.png,,,,,,,,,,,,,,,,,,,,,,,,,,,,,stimuli/alien_stimuli/66.png,66,1,28,,,,,,,30,,,,,,,,2075.3237742999336,2075.3237742999336,2075.3237742999336,2075.3237742999336,2075.3237742999336,right,1.8077752999961376,18,0,0,99,-0.08,-0.32,right,1.702498900005594,,,,,2073.7502110999776,2075.3237742999336,0.32,-0.32,0.0,0.4,-0.32,0.32,0.12,0.32,-0.32,2072.7021824999247,2072.7021824999247,2072.7021824999247,2072.7021824999247,2072.7021824999247,2072.7021824999247,2072.7021824999247,2072.7021824999247,2072.6824605798815,1.1534658999880776,return,1.0317026000702754,,,,,,,,,,,,,,,,,,,,,,,,,,,,,,,,,F5ANKX,train_x,red_square,bottom_left,2025-07-16_16h41.06.717,HideSeek_v1,2022.2.5,60.14086193521657,
,0,1,3,1,3,0,46,,train_dim1_1,27,30,,,,2,0,2,0,,,,,,,,,0,0,0,0,0,26,26,26,1,0,1,0,,,,,,,,,,,,,,,,,,,,,,,,,,,,,,,,,,,,,,,,,,,,,,,,,,,,,,,,,,,,,,,,30,,,,,,,,2077.1170057000127,2077.1170057000127,2077.1170057000127,2077.1170057000127,2077.1170057000127,right,1.2770583000965416,18,0,0,99,0.0,-0.32,right,1.1965866000391543,,,,,,,,,,,,,,,,,,,,,,,,,,,,,,,,,,,,,,,,,,,,,,,,,,,,,,,,,,,,F5ANKX,train_x,red_square,bottom_left,2025-07-16_16h41.06.717,HideSeek_v1,2022.2.5,60.14086193521657,
,0,1,3,1,3,0,46,,train_dim1_1,27,30,,,,2,0,2,0,,,,,,,,,0,0,0,0,0,26,26,26,2,0,2,0,,,,,,,,,,,,,,,,,,,,,,,,,,,,,,,,,,,,,,,,,,,,,,,,,,,,,,,,,,,,,,,,30,,,,,,,,2078.400649599964,2078.400649599964,2078.400649599964,2078.400649599964,2078.400649599964,right,1.1940680999541655,18,0,0,99,0.08,-0.32,right,1.1212624000618234,,,,,,,,,,,,,,,,,,,,,,,,,,,,,,,,,,,,,,,,,,,,,,,,,,,,,,,,,,,,F5ANKX,train_x,red_square,bottom_left,2025-07-16_16h41.06.717,HideSeek_v1,2022.2.5,60.14086193521657,
,0,1,3,1,3,0,46,,train_dim1_1,27,30,,,,2,0,2,0,,,,,,,,,0,0,0,0,0,26,26,26,3,0,3,0,,,,,,,,,,,,,,,,,,,,,,,,,,,,,,,,,,,,,,,,,,,,,,,,,,,,,,,,,,,,,,,,30,,,,,,,,2079.6065791000146,2079.6065791000146,2079.6065791000146,2079.6065791000146,2079.6065791000146,right,0.8601662999717519,18,0,0,99,0.16,-0.32,right,0.777362700086087,,,,,,,,,,,,,,,,,,,,,,,,,,,,,,,,,,,,,,,,,,,,,,,,,,,,,,,,,,,,F5ANKX,train_x,red_square,bottom_left,2025-07-16_16h41.06.717,HideSeek_v1,2022.2.5,60.14086193521657,
,0,1,3,1,3,0,46,,train_dim1_1,27,30,,,,2,0,2,0,,,,,,,,,0,0,0,0,0,26,26,26,4,0,4,0,,,,,,,,,,,,,,,,,,,,,,,,,,,,,,,,,,,,,,,,,,,,,,,,,,,,,,,,,,,,,,,,30,,,,,,,,2080.472854899941,2080.472854899941,2080.472854899941,2080.472854899941,2080.472854899941,return,0.8435303999576718,18,1,0,0,0.16,-0.32,return,0.7525833999970928,6,63,0.16,-0.32,,,,,,,,,,,,,,,,,,,,,,,,,,,,,,,,,,,,,,,,,,,,,,,,,,,,,,,,F5ANKX,train_x,red_square,bottom_left,2025-07-16_16h41.06.717,HideSeek_v1,2022.2.5,60.14086193521657,
,3,1,4,1,1,0,26,,train_dim1_1,28,30,,,,2,0,2,0,,,,,,,,,0,0,0,0,0,27,27,27,0,0,0,0,,,,,,,,,,,,,,,,,,,,,,,,,stimuli/alien_stimuli/26.png,,,,,,,,,,,,,,,,,,,,,,,,,,,,,stimuli/alien_stimuli/46.png,46,0,29,,,,,,,30,,,,,,,,2086.573448500014,2086.573448500014,2086.573448500014,2086.573448500014,2086.573448500014,right,1.8559505000011995,18,1,0,99,0.16,-0.32,right,1.75424360006582,,,,,2084.9928472000174,2086.573448500014,0.08,-0.32,0.0,0.24,-0.32,0.08,-0.04,0.08,-0.32,2082.880667599966,2082.880667599966,2082.880667599966,2082.880667599966,2082.880667599966,2082.880667599966,2082.880667599966,2082.880667599966,2082.857774679875,2.220625299960375,return,2.0895075999433175,,,,,,,,,,,,,,,,,,,,,,,,,,,,,,,,,F5ANKX,train_x,red_square,bottom_left,2025-07-16_16h41.06.717,HideSeek_v1,2022.2.5,60.14086193521657,
,3,1,4,1,1,0,26,,train_dim1_1,28,30,,,,2,0,2,0,,,,,,,,,0,0,0,0,0,27,27,27,1,0,1,0,,,,,,,,,,,,,,,,,,,,,,,,,,,,,,,,,,,,,,,,,,,,,,,,,,,,,,,,,,,,,,,,30,,,,,,,,2088.414083199925,2088.414083199925,2088.414083199925,2088.414083199925,2088.414083199925,return,0.49375730007886887,19,0,0,1,0.16,-0.32,return,0.4082712000235915,6,64,0.16,-0.32,,,,,,,,,,,,,,,,,,,,,,,,,,,,,,,,,,,,,,,,,,,,,,,,,,,,,,,,F5ANKX,train_x,red_square,bottom_left,2025-07-16_16h41.06.717,HideSeek_v1,2022.2.5,60.14086193521657,
,4,0,8,0,4,0,56,,train_dim1_1,29,30,,,,2,0,2,0,,,,,,,,,0,0,0,0,0,28,28,28,0,0,0,0,,,,,,,,,,,,,,,,,,,,,,,,,stimuli/alien_stimuli/56.png,,,,,,,,,,,,,,,,,,,,,,,,,,,,,stimuli/alien_stimuli/26.png,26,3,30,,,,,,,30,,,,,,,,2092.738979400019,2092.738979400019,2092.738979400019,2092.738979400019,2092.738979400019,right,2.641567299957387,19,0,0,99,0.24,-0.4,right,2.5319571000291035,,,,,2091.1649474999867,2092.738979400019,0.16,-0.32,0.0,0.08,-0.32,0.16,0.12,0.16,-0.32,2090.488349799998,2090.488349799998,2090.488349799998,2090.488349799998,2090.488349799998,2090.488349799998,2090.488349799998,2090.488349799998,2090.4809140399334,0.8028020999627188,return,0.6573979000095278,,,,,,,,,,,,,,,,,,,,,,,,,,,,,,,,,F5ANKX,train_x,red_square,bottom_left,2025-07-16_16h41.06.717,HideSeek_v1,2022.2.5,60.14086193521657,
,4,0,8,0,4,0,56,,train_dim1_1,29,30,,,,2,0,2,0,,,,,,,,,0,0,0,0,0,28,28,28,1,0,1,0,,,,,,,,,,,,,,,,,,,,,,,,,,,,,,,,,,,,,,,,,,,,,,,,,,,,,,,,,,,,,,,,30,,,,,,,,2095.371596599929,2095.371596599929,2095.371596599929,2095.371596599929,2095.371596599929,right,1.0434142000740394,19,0,0,99,0.32,-0.4,right,0.9544259000103921,,,,,,,,,,,,,,,,,,,,,,,,,,,,,,,,,,,,,,,,,,,,,,,,,,,,,,,,,,,,F5ANKX,train_x,red_square,bottom_left,2025-07-16_16h41.06.717,HideSeek_v1,2022.2.5,60.14086193521657,
,4,0,8,0,4,0,56,,train_dim1_1,29,30,,,,2,0,2,0,,,,,,,,,0,0,0,0,0,28,28,28,2,0,2,0,,,,,,,,,,,,,,,,,,,,,,,,,,,,,,,,,,,,,,,,,,,,,,,,,,,,,,,,,,,,,,,,30,,,,,,,,2096.418015299947,2096.418015299947,2096.418015299947,2096.418015299947,2096.418015299947,right,0.8934665999840945,19,0,0,99,0.4,-0.4,right,0.816042400081642,,,,,,,,,,,,,,,,,,,,,,,,,,,,,,,,,,,,,,,,,,,,,,,,,,,,,,,,,,,,F5ANKX,train_x,red_square,bottom_left,2025-07-16_16h41.06.717,HideSeek_v1,2022.2.5,60.14086193521657,
,4,0,8,0,4,0,56,,train_dim1_1,29,30,,,,2,0,2,0,,,,,,,,,0,0,0,0,0,28,28,28,3,0,3,0,,,,,,,,,,,,,,,,,,,,,,,,,,,,,,,,,,,,,,,,,,,,,,,,,,,,,,,,,,,,,,,,30,,,,,,,,2097.3203374999575,2097.3203374999575,2097.3203374999575,2097.3203374999575,2097.3203374999575,right,0.4929763999534771,19,0,0,99,0.48000000000000004,-0.4,right,0.4013985999627039,,,,,,,,,,,,,,,,,,,,,,,,,,,,,,,,,,,,,,,,,,,,,,,,,,,,,,,,,,,,F5ANKX,train_x,red_square,bottom_left,2025-07-16_16h41.06.717,HideSeek_v1,2022.2.5,60.14086193521657,
,4,0,8,0,4,0,56,,train_dim1_1,29,30,,,,2,0,2,0,,,,,,,,,0,0,0,0,0,28,28,28,4,0,4,0,,,,,,,,,,,,,,,,,,,,,,,,,,,,,,,,,,,,,,,,,,,,,,,,,,,,,,,,,,,,,,,,30,,,,,,,,2097.8222636999562,2097.8222636999562,2097.8222636999562,2097.8222636999562,2097.8222636999562,return,0.5268855999456719,20,0,0,1,0.48000000000000004,-0.4,return,0.4368979000719264,6,68,0.48000000000000004,-0.4,,,,,,,,,,,,,,,,,,,,,,,,,,,,,,,,,,,,,,,,,,,,,,,,,,,,,,,,F5ANKX,train_x,red_square,bottom_left,2025-07-16_16h41.06.717,HideSeek_v1,2022.2.5,60.14086193521657,
,2,2,2,2,0,0,16,,train_dim1_1,30,30,,,,2,0,2,0,,,,,,,,,0,0,0,0,0,29,29,29,0,0,0,0,,,,,,,,,,,,,,,,,,,,,,,,,stimuli/alien_stimuli/16.png,,,,,,,,,,,,,,,,,,,,,,,,,,,,,stimuli/alien_stimuli/56.png,56,4,31,,,,,,,30,,,,,,,,2103.0728113999357,2103.0728113999357,2103.0728113999357,2103.0728113999357,2103.0728113999357,right,1.8065716999117285,20,0,0,99,0.08,-0.24,right,1.6959291000384837,,,,,2101.4899110000115,2103.0728113999357,0.48,-0.4,0.0,0.32,-0.4,0.48,0.32,0.48,-0.4,2099.9107256999705,2099.9107256999705,2099.9107256999705,2099.9107256999705,2099.9107256999705,2099.9107256999705,2099.9107256999705,2099.9107256999705,2099.8884935799056,1.6869813000084832,return,1.5622474999399856,,,,,,,,,,,,,,,,,,,,,,,,,,,,,,,,,F5ANKX,train_x,red_square,bottom_left,2025-07-16_16h41.06.717,HideSeek_v1,2022.2.5,60.14086193521657,
,2,2,2,2,0,0,16,,train_dim1_1,30,30,,,,2,0,2,0,,,,,,,,,0,0,0,0,0,29,29,29,1,0,1,0,,,,,,,,,,,,,,,,,,,,,,,,,,,,,,,,,,,,,,,,,,,,,,,,,,,,,,,,,,,,,,,,30,,,,,,,,2104.8646946999943,2104.8646946999943,2104.8646946999943,2104.8646946999943,2104.8646946999943,left,3.028790000011213,20,0,0,99,0.0,-0.24,left,2.934523700037971,,,,,,,,,,,,,,,,,,,,,,,,,,,,,,,,,,,,,,,,,,,,,,,,,,,,,,,,,,,,F5ANKX,train_x,red_square,bottom_left,2025-07-16_16h41.06.717,HideSeek_v1,2022.2.5,60.14086193521657,
,2,2,2,2,0,0,16,,train_dim1_1,30,30,,,,2,0,2,0,,,,,,,,,0,0,0,0,0,29,29,29,2,0,2,0,,,,,,,,,,,,,,,,,,,,,,,,,,,,,,,,,,,,,,,,,,,,,,,,,,,,,,,,,,,,,,,,30,,,,,,,,2107.896488599945,2107.896488599945,2107.896488599945,2107.896488599945,2107.896488599945,return,0.5264074999140576,21,0,0,1,0.0,-0.24,return,0.44342540006618947,6,68,0.0,-0.24,,,,,,,,,,,,,,,,,,,,,,,,,,,,,,,,,,,,,,,,,,,,,,,,,,,,,,,,F5ANKX,train_x,red_square,bottom_left,2025-07-16_16h41.06.717,HideSeek_v1,2022.2.5,60.14086193521657,
,,,,,,,,,,,30,,,,2,0,2,0,,,,,,,,,,,,,,,,,,,,,,,,,,,,,,,,,,,,,,,,,,,,,,,,,,,,,,,,,,,,,,,,,,,,,,,,,,stimuli/alien_stimuli/16.png,16,2,32,21,0.7,0.875,1,1,1,30,0,conditions/schedules/train_x_first/red_square_00/bottom_left/inputTrain_2.1.xlsx,99,1,2,1,0,,,,,,,,,,,1,,,,,,,,,2111.114529500017,2112.673124599969,0,-0.24,0.0,0.0,-0.24,0,0.0,0,-0.24,2109.989217799972,2109.989217799972,2109.989217799972,2109.989217799972,2109.989217799972,2109.989217799972,2109.989217799972,2109.989217799972,2109.9801512098757,1.2365667999256402,return,1.093797400011681,0,0.9,0,1,21,,,,,,,,,,,,,,,,,,,,,,,,,,,,F5ANKX,train_x,red_square,bottom_left,2025-07-16_16h41.06.717,HideSeek_v1,2022.2.5,60.14086193521657,
,,,,,,,,,,,,,,,3,0,3,0,0,0,0,0,,,,,,,,,,,,,,,,,,,,,,,,,,,,,,,conditions/schedules/train_x_first/red_square_00/bottom_left/instructions/Slide17.png,conditions/schedules/train_x_first/red_square_00/bottom_left/instructions/Audio17.wav,2112.673124599969,2112.6657315199495,17,"[5.152755100047216, 17.81354779994581, 16.425398600054905, 19.186200800002553, 3.9863132999744266, 4.400876399944536, 5.1188400000100955, 11.211699699983, 5.487945399945602, 6.5174181999173015, 9.803434700006619, 12.688439399935305, 16.361218999954872, 13.475048499996774, 29.99909579998348, 20.806282100034878, 47.21243479999248]","[5.152762999990955, 17.81355419999454, 0.03309759998228401, 0.00021639990154653788, 0.046706699999049306, 0.11478990002069622, 0.0354580000275746, 0.09993839997332543, 0.0952129999641329, 0.07846570003312081, 0.06384359998628497, 12.688445799984038, 0.0002109999768435955, 13.475055199931376, 0.01408260001335293, 20.80628980009351, 47.21244149992708]",0,,,,,,,,,,,,,,,,,,,,,,,,,,,,,,,,,,,,,,,,,,,,,,,,,,,,,,,,,,,,,,,,,,,,,,,,,,,,,,,,,,,,,,,,,,,,,,,,,,,,,,,,,,,,,,,,,,,,,,,,,,,,F5ANKX,train_x,red_square,bottom_left,2025-07-16_16h41.06.717,HideSeek_v1,2022.2.5,60.14086193521657,
,,,,,,,,,,,,,,,3,0,3,0,1,0,1,0,,,,,,,,,,,,,,,,,,,,,,,,,,,,,,,conditions/schedules/train_x_first/red_square_00/bottom_left/instructions/Slide18.png,conditions/schedules/train_x_first/red_square_00/bottom_left/instructions/Audio18.wav,2159.9503407999873,2159.938741119951,18,"[5.152755100047216, 17.81354779994581, 16.425398600054905, 19.186200800002553, 3.9863132999744266, 4.400876399944536, 5.1188400000100955, 11.211699699983, 5.487945399945602, 6.5174181999173015, 9.803434700006619, 12.688439399935305, 16.361218999954872, 13.475048499996774, 29.99909579998348, 20.806282100034878, 47.21243479999248, 6.057481799973175]","[5.152762999990955, 17.81355419999454, 0.03309759998228401, 0.00021639990154653788, 0.046706699999049306, 0.11478990002069622, 0.0354580000275746, 0.09993839997332543, 0.0952129999641329, 0.07846570003312081, 0.06384359998628497, 12.688445799984038, 0.0002109999768435955, 13.475055199931376, 0.01408260001335293, 20.80628980009351, 0.00021139997988939285, 6.057488700025715]",0,,,,,,,,,,,,,,,,,,,,,,,,,,,,,,,,,,,,,,,,,,,,,,,,,,,,,,,,,,,,,,,,,,,,,,,,,,,,,,,,,,,,,,,,,,,,,,,,,,,,,,,,,,,,,,,,,,,,,,,,,,,,F5ANKX,train_x,red_square,bottom_left,2025-07-16_16h41.06.717,HideSeek_v1,2022.2.5,60.14086193521657,
,,,,,,,,,,,,,,,3,0,3,0,2,0,2,0,,,,,,,,,,,,,,,,,,,,,,,,,,,,,,,conditions/schedules/train_x_first/red_square_00/bottom_left/instructions/Slide19.png,conditions/schedules/train_x_first/red_square_00/bottom_left/instructions/Audio19.wav,2166.049928899971,2166.0438142899543,19,"[5.152755100047216, 17.81354779994581, 16.425398600054905, 19.186200800002553, 3.9863132999744266, 4.400876399944536, 5.1188400000100955, 11.211699699983, 5.487945399945602, 6.5174181999173015, 9.803434700006619, 12.688439399935305, 16.361218999954872, 13.475048499996774, 29.99909579998348, 20.806282100034878, 47.21243479999248, 6.057481799973175, 9.983072300092317]","[5.152762999990955, 17.81355419999454, 0.03309759998228401, 0.00021639990154653788, 0.046706699999049306, 0.11478990002069622, 0.0354580000275746, 0.09993839997332543, 0.0952129999641329, 0.07846570003312081, 0.06384359998628497, 12.688445799984038, 0.0002109999768435955, 13.475055199931376, 0.01408260001335293, 20.80628980009351, 0.00021139997988939285, 0.014109100098721683, 9.98307980003301]",0,,,,,,,,,,,,,,,,,,,,,,,,,,,,,,,,,,,,,,,,,,,,,,,,,,,,,,,,,,,,,,,,,,,,,,,,,,,,,,,,,,,,,,,,,,,,,,,,,,,,,,,,,,,,,,,,,,,,,,,,,,,,F5ANKX,train_x,red_square,bottom_left,2025-07-16_16h41.06.717,HideSeek_v1,2022.2.5,60.14086193521657,
,,,,,,,,,,,,,,,3,0,3,0,3,0,3,0,,,,,,,,,,,,,,,,,,,,,,,,,,,,,,,conditions/schedules/train_x_first/red_square_00/bottom_left/instructions/Slide20.png,conditions/schedules/train_x_first/red_square_00/bottom_left/instructions/Audio20.wav,2176.0891220999183,2176.085348219983,20,"[5.152755100047216, 17.81354779994581, 16.425398600054905, 19.186200800002553, 3.9863132999744266, 4.400876399944536, 5.1188400000100955, 11.211699699983, 5.487945399945602, 6.5174181999173015, 9.803434700006619, 12.688439399935305, 16.361218999954872, 13.475048499996774, 29.99909579998348, 20.806282100034878, 47.21243479999248, 6.057481799973175, 9.983072300092317, 13.805201099952683]","[5.152762999990955, 17.81355419999454, 0.03309759998228401, 0.00021639990154653788, 0.046706699999049306, 0.11478990002069622, 0.0354580000275746, 0.09993839997332543, 0.0952129999641329, 0.07846570003312081, 0.06384359998628497, 12.688445799984038, 0.0002109999768435955, 13.475055199931376, 0.01408260001335293, 20.80628980009351, 0.00021139997988939285, 0.014109100098721683, 0.046112900017760694, 13.8052078000037]",0,,,,,,,,,,,,,,,,,,,,,,,,,,,,,,,,,,,,,,,,,,,,,,,,,,,,,,,,,,,,,,,,,,,,,,,,,,,,,,,,,,,,,,,,,,,,,,,,,,,,,,,,,,,,,,,,,,,,,,,,,,,,F5ANKX,train_x,red_square,bottom_left,2025-07-16_16h41.06.717,HideSeek_v1,2022.2.5,60.14086193521657,
1,2,3,2,8,0,5,11,2,instr_dim1_2,,,,,,3,0,3,0,,,,,0,0,0,0,,,,,,,,,,,,,,,,,,,,,,,,,,,,,,,,,,,,,stimuli/alien_stimuli/11.png,conditions/schedules/train_x_first/red_square_00/bottom_left/inputInstr_2.xlsx,stimuli/alien_stimuli/11.png,2190.0010652999626,2190.0010652999626,2190.0010652999626,2190.0010652999626,2189.9969273099096,return,7.095065400004387,"[-0.16, -0.08, 0, 0.08, 0.16, 0.24, 0.32, 0.4, 0.48, 0.56]","[-0.4, -0.32, -0.24, -0.16, -0.08, 0, 0.08, 0.16, 0.24, 0.32]",8,3,2,2,0.4,0.0,2197.246527499985,2197.246527499985,2197.246527499985,2197.246527499985,2197.246527499985,2197.246527499985,2197.246527499985,2197.2361297399507,6.789985000039451,return,6.640980699914508,stimuli/alien_stimuli/11.png,11,2,1,,,,,,,,,,,,,,,,,,,,,,,,,,,,,,,,,,,,,,,,,,,,,,,,,,,,,,,,,,,,,,,,,,,,,,,,,,,,,,,,,,,,,,,,,F5ANKX,train_x,red_square,bottom_left,2025-07-16_16h41.06.717,HideSeek_v1,2022.2.5,60.14086193521657,
,,,,,,,,,,,30,,,,3,0,3,0,,,,,,,,,,,,,,,,,,,,,,,,,,,,,,,,,,,,,,,,,,,,,,,,,,,,,,,,,,,,,,,,,,,,,,,,,,,,,,21,0.7,0.875,1,99,2,30,0,conditions/schedules/train_x_first/red_square_00/bottom_left/inputTrain_2.1.xlsx,99,1,2,1,0,,,,,,,,,,,,,,,,,,,,,,,,,,,,,,,,,,,,,,,,,,,,,,,,,,,,,,,,,,,,,,,,,,,,,,,,,,,F5ANKX,train_x,red_square,bottom_left,2025-07-16_16h41.06.717,HideSeek_v1,2022.2.5,60.14086193521657,
,,,,,,,,,,,,,,,4,0,4,0,0,0,0,0,,,,,,,,,,,,,,,,,,,,,,,,,,,,,,,conditions/schedules/train_x_first/red_square_00/bottom_left/instructions/Slide21.png,conditions/schedules/train_x_first/red_square_00/bottom_left/instructions/Audio21.wav,2204.059243800002,2204.0584650998935,21,"[5.152755100047216, 17.81354779994581, 16.425398600054905, 19.186200800002553, 3.9863132999744266, 4.400876399944536, 5.1188400000100955, 11.211699699983, 5.487945399945602, 6.5174181999173015, 9.803434700006619, 12.688439399935305, 16.361218999954872, 13.475048499996774, 29.99909579998348, 20.806282100034878, 47.21243479999248, 6.057481799973175, 9.983072300092317, 13.805201099952683, 16.577283999999054]","[5.152762999990955, 17.81355419999454, 0.03309759998228401, 0.00021639990154653788, 0.046706699999049306, 0.11478990002069622, 0.0354580000275746, 0.09993839997332543, 0.0952129999641329, 0.07846570003312081, 0.06384359998628497, 12.688445799984038, 0.0002109999768435955, 13.475055199931376, 0.01408260001335293, 20.80628980009351, 0.00021139997988939285, 0.014109100098721683, 0.046112900017760694, 13.8052078000037, 16.57729039993137]",0,,,,,,,,,,,,,,,,,,,,,,,,,,,,,,,,,,,,,,,,,,,,,,,,,,,,,,,,,,,,,,,,,,,,,,,,,,,,,,,,,,,,,,,,,,,,,,,,,,,,,,,,,,,,,,,,,,,,,,,,,,,,F5ANKX,train_x,red_square,bottom_left,2025-07-16_16h41.06.717,HideSeek_v1,2022.2.5,60.14086193521657,
2,0,3,0,3,0,0,16,2,instr_dim1_2,,,,,,4,0,4,0,,,,,0,0,0,0,,,,,,,,,,,,,,,,,,,,,,,,,,,,,,,,,,,,,stimuli/alien_stimuli/16.png,conditions/schedules/train_x_first/red_square_00/bottom_left/inputInstr_2.xlsx,stimuli/alien_stimuli/16.png,2220.736206899979,2220.736206899979,2220.736206899979,2220.736206899979,2220.7392404099346,return,6.280986699974164,"[-0.16, -0.08, 0, 0.08, 0.16, 0.24, 0.32, 0.4, 0.48, 0.56]","[-0.4, -0.32, -0.24, -0.16, -0.08, 0, 0.08, 0.16, 0.24, 0.32]",3,3,0,0,0.0,0.0,2227.1727170000086,2227.1727170000086,2227.1727170000086,2227.1727170000086,2227.1727170000086,2227.1727170000086,2227.1727170000086,2227.161015339941,6.890269999974407,return,6.743564700009301,stimuli/alien_stimuli/16.png,16,0,2,,,,,,,,,,,,,,,,,,,,,,,,,,,,,,,,,,,,,,,,,,,,,,,,,,,,,,,,,,,,,,,,,,,,,,,,,,,,,,,,,,,,,,,,,F5ANKX,train_x,red_square,bottom_left,2025-07-16_16h41.06.717,HideSeek_v1,2022.2.5,60.14086193521657,
,,,,,,,,,,,30,,,,4,0,4,0,,,,,,,,,,,,,,,,,,,,,,,,,,,,,,,,,,,,,,,,,,,,,,,,,,,,,,,,,,,,,,,,,,,,,,,,,,,,,,21,0.7,0.875,1,99,2,30,0,conditions/schedules/train_x_first/red_square_00/bottom_left/inputTrain_2.1.xlsx,99,1,2,1,0,,,,,,,,,,,,,,,,,,,,,,,,,,,,,,,,,,,,,,,,,,,,,,,,,,,,,,,,,,,,,,,,,,,,,,,,,,,F5ANKX,train_x,red_square,bottom_left,2025-07-16_16h41.06.717,HideSeek_v1,2022.2.5,60.14086193521657,
,,,,,,,,,,,,,,,5,0,5,0,0,0,0,0,,,,,,,,,,,,,,,,,,,,,,,,,,,,,,,conditions/schedules/train_x_first/red_square_00/bottom_left/instructions/Slide22.png,conditions/schedules/train_x_first/red_square_00/bottom_left/instructions/Audio22.wav,2234.0901929999236,2234.083441699855,22,"[5.152755100047216, 17.81354779994581, 16.425398600054905, 19.186200800002553, 3.9863132999744266, 4.400876399944536, 5.1188400000100955, 11.211699699983, 5.487945399945602, 6.5174181999173015, 9.803434700006619, 12.688439399935305, 16.361218999954872, 13.475048499996774, 29.99909579998348, 20.806282100034878, 47.21243479999248, 6.057481799973175, 9.983072300092317, 13.805201099952683, 16.577283999999054, 42.243522500037216]","[5.152762999990955, 17.81355419999454, 0.03309759998228401, 0.00021639990154653788, 0.046706699999049306, 0.11478990002069622, 0.0354580000275746, 0.09993839997332543, 0.0952129999641329, 0.07846570003312081, 0.06384359998628497, 12.688445799984038, 0.0002109999768435955, 13.475055199931376, 0.01408260001335293, 20.80628980009351, 0.00021139997988939285, 0.014109100098721683, 0.046112900017760694, 13.8052078000037, 16.57729039993137, 42.24352920008823]",0,,,,,,,,,,,,,,,,,,,,,,,,,,,,,,,,,,,,,,,,,,,,,,,,,,,,,,,,,,,,,,,,,,,,,,,,,,,,,,,,,,,,,,,,,,,,,,,,,,,,,,,,,,,,,,,,,,,,,,,,,,,,F5ANKX,train_x,red_square,bottom_left,2025-07-16_16h41.06.717,HideSeek_v1,2022.2.5,60.14086193521657,
,0,0,0,1,0,1,15,,train_dim1_2,1,30,,,,5,0,5,0,,,,,,,,,0,0,0,0,0,0,0,0,0,0,0,0,,,,,,,,,,,,,,,,,,,,,,,,,stimuli/alien_stimuli/15.png,,,,,,,,,,,,,,,,,,,,,,,,,,,,,,,,,,,,,,,30,,,,,,,,2276.4391269999323,2276.4391269999323,2276.4391269999323,2276.4391269999323,2276.4391269999323,return,10.08208600000944,0,1,0,0,-0.16,-0.4,return,9.984839600045234,6,68,-0.16,-0.4,,,,,,,,,,,,,,,,,,,,,,,,,,,,,,,,,,,,,,,,,,,,,,,,,,,,,,,,F5ANKX,train_x,red_square,bottom_left,2025-07-16_16h41.06.717,HideSeek_v1,2022.2.5,60.14086193521657,
,3,2,3,2,0,0,16,,train_dim1_2,2,30,,,,5,0,5,0,,,,,,,,,0,0,0,0,0,1,1,1,0,0,0,0,,,,,,,,,,,,,,,,,,,,,,,,,stimuli/alien_stimuli/16.png,,,,,,,,,,,,,,,,,,,,,,,,,,,,,stimuli/alien_stimuli/15.png,15,0,3,,,,,,,30,,,,,,,,2293.2758432999253,2293.2758432999253,2293.2758432999253,2293.2758432999253,2293.2758432999253,up,2.4207074999576434,0,1,0,99,0.08,-0.15999999999999998,up,2.33181100001093,,,,,2291.6481735999696,2293.2758432999253,-0.16,-0.32,0.08,0.0,-0.36,-0.16,-0.16,-0.16,-0.32,2288.084275399917,2288.084275399917,2288.084275399917,2288.084275399917,2288.084275399917,2288.084275399917,2288.084275399917,2288.084275399917,2288.0788245399485,3.688150899950415,return,3.5342608999926597,,,,,,,,,,,,,,,,,,,,,,,,,,,,,,,,,F5ANKX,train_x,red_square,bottom_left,2025-07-16_16h41.06.717,HideSeek_v1,2022.2.5,60.14086193521657,
,3,2,3,2,0,0,16,,train_dim1_2,2,30,,,,5,0,5,0,,,,,,,,,0,0,0,0,0,1,1,1,1,0,1,0,,,,,,,,,,,,,,,,,,,,,,,,,,,,,,,,,,,,,,,,,,,,,,,,,,,,,,,,,,,,,,,,30,,,,,,,,2295.7035167999566,2295.7035167999566,2295.7035167999566,2295.7035167999566,2295.7035167999566,return,0.8933455999940634,0,1,0,0,0.08,-0.15999999999999998,return,0.8130300999619067,7,68,0.08,-0.15999999999999998,,,,,,,,,,,,,,,,,,,,,,,,,,,,,,,,,,,,,,,,,,,,,,,,,,,,,,,,F5ANKX,train_x,red_square,bottom_left,2025-07-16_16h41.06.717,HideSeek_v1,2022.2.5,60.14086193521657,
,2,3,2,6,0,3,13,,train_dim1_2,3,30,,,,5,0,5,0,,,,,,,,,0,0,0,0,0,2,2,2,0,0,0,0,,,,,,,,,,,,,,,,,,,,,,,,,stimuli/alien_stimuli/13.png,,,,,,,,,,,,,,,,,,,,,,,,,,,,,stimuli/alien_stimuli/16.png,16,3,4,,,,,,,30,,,,,,,,2303.386962599936,2303.386962599936,2303.386962599936,2303.386962599936,2303.386962599936,up,4.559721500030719,0,1,0,99,0,-0.08,up,4.461937900050543,,,,,2301.8232600999763,2303.386962599936,0.08,-0.24,0.0,0.0,-0.24,0.08,0.08,0.08,-0.24,2298.168569499976,2298.168569499976,2298.168569499976,2298.168569499976,2298.168569499976,2298.168569499976,2298.168569499976,2298.168569499976,2298.1535392098713,3.7718310999916866,return,3.6292724000522867,,,,,,,,,,,,,,,,,,,,,,,,,,,,,,,,,F5ANKX,train_x,red_square,bottom_left,2025-07-16_16h41.06.717,HideSeek_v1,2022.2.5,60.14086193521657,
,2,3,2,6,0,3,13,,train_dim1_2,3,30,,,,5,0,5,0,,,,,,,,,0,0,0,0,0,2,2,2,1,0,1,0,,,,,,,,,,,,,,,,,,,,,,,,,,,,,,,,,,,,,,,,,,,,,,,,,,,,,,,,,,,,,,,,30,,,,,,,,2307.9470539999893,2307.9470539999893,2307.9470539999893,2307.9470539999893,2307.9470539999893,up,0.7929904999909922,0,1,0,99,0,0.0,up,0.7150401000399143,,,,,,,,,,,,,,,,,,,,,,,,,,,,,,,,,,,,,,,,,,,,,,,,,,,,,,,,,,,,F5ANKX,train_x,red_square,bottom_left,2025-07-16_16h41.06.717,HideSeek_v1,2022.2.5,60.14086193521657,
,2,3,2,6,0,3,13,,train_dim1_2,3,30,,,,5,0,5,0,,,,,,,,,0,0,0,0,0,2,2,2,2,0,2,0,,,,,,,,,,,,,,,,,,,,,,,,,,,,,,,,,,,,,,,,,,,,,,,,,,,,,,,,,,,,,,,,30,,,,,,,,2308.751733599929,2308.751733599929,2308.751733599929,2308.751733599929,2308.751733599929,up,0.8103924000170082,0,1,0,99,0,0.08,up,0.723710700054653,,,,,,,,,,,,,,,,,,,,,,,,,,,,,,,,,,,,,,,,,,,,,,,,,,,,,,,,,,,,F5ANKX,train_x,red_square,bottom_left,2025-07-16_16h41.06.717,HideSeek_v1,2022.2.5,60.14086193521657,
,2,3,2,6,0,3,13,,train_dim1_2,3,30,,,,5,0,5,0,,,,,,,,,0,0,0,0,0,2,2,2,3,0,3,0,,,,,,,,,,,,,,,,,,,,,,,,,,,,,,,,,,,,,,,,,,,,,,,,,,,,,,,,,,,,,,,,30,,,,,,,,2309.572606200003,2309.572606200003,2309.572606200003,2309.572606200003,2309.572606200003,up,0.5934420999838039,0,1,0,99,0,0.16,up,0.49757769994903356,,,,,,,,,,,,,,,,,,,,,,,,,,,,,,,,,,,,,,,,,,,,,,,,,,,,,,,,,,,,F5ANKX,train_x,red_square,bottom_left,2025-07-16_16h41.06.717,HideSeek_v1,2022.2.5,60.14086193521657,
,2,3,2,6,0,3,13,,train_dim1_2,3,30,,,,5,0,5,0,,,,,,,,,0,0,0,0,0,2,2,2,4,0,4,0,,,,,,,,,,,,,,,,,,,,,,,,,,,,,,,,,,,,,,,,,,,,,,,,,,,,,,,,,,,,,,,,30,,,,,,,,2310.1652509999694,2310.1652509999694,2310.1652509999694,2310.1652509999694,2310.1652509999694,up,0.5938091001007706,0,1,0,99,0,0.24,up,0.5003451999509707,,,,,,,,,,,,,,,,,,,,,,,,,,,,,,,,,,,,,,,,,,,,,,,,,,,,,,,,,,,,F5ANKX,train_x,red_square,bottom_left,2025-07-16_16h41.06.717,HideSeek_v1,2022.2.5,60.14086193521657,
,2,3,2,6,0,3,13,,train_dim1_2,3,30,,,,5,0,5,0,,,,,,,,,0,0,0,0,0,2,2,2,5,0,5,0,,,,,,,,,,,,,,,,,,,,,,,,,,,,,,,,,,,,,,,,,,,,,,,,,,,,,,,,,,,,,,,,30,,,,,,,,2310.7713341999333,2310.7713341999333,2310.7713341999333,2310.7713341999333,2310.7713341999333,return,0.7767339000711218,0,0,0,0,0,0.24,return,0.6788695000577718,12,68,0,0.24,,,,,,,,,,,,,,,,,,,,,,,,,,,,,,,,,,,,,,,,,,,,,,,,,,,,,,,,F5ANKX,train_x,red_square,bottom_left,2025-07-16_16h41.06.717,HideSeek_v1,2022.2.5,60.14086193521657,
,0,1,0,5,0,4,12,,train_dim1_2,4,30,,,,5,0,5,0,,,,,,,,,0,0,0,0,0,3,3,3,0,0,0,0,,,,,,,,,,,,,,,,,,,,,,,,,stimuli/alien_stimuli/12.png,,,,,,,,,,,,,,,,,,,,,,,,,,,,,stimuli/alien_stimuli/13.png,13,2,5,,,,,,,30,,,,,,,,2317.8108682999155,2317.8108682999155,2317.8108682999155,2317.8108682999155,2317.8108682999155,up,3.169376000063494,0,0,0,99,-0.16,-0.24,up,3.078138899989426,,,,,2316.2352073999355,2317.8108682999155,0,0.08,0.24,0.0,-0.04,0,0.0,0,0.08,2313.115679899929,2313.115679899929,2313.115679899929,2313.115679899929,2313.115679899929,2313.115679899929,2313.115679899929,2313.115679899929,2313.1160881398714,3.238468399969861,return,3.0987457999726757,,,,,,,,,,,,,,,,,,,,,,,,,,,,,,,,,F5ANKX,train_x,red_square,bottom_left,2025-07-16_16h41.06.717,HideSeek_v1,2022.2.5,60.14086193521657,
,0,1,0,5,0,4,12,,train_dim1_2,4,30,,,,5,0,5,0,,,,,,,,,0,0,0,0,0,3,3,3,1,0,1,0,,,,,,,,,,,,,,,,,,,,,,,,,,,,,,,,,,,,,,,,,,,,,,,,,,,,,,,,,,,,,,,,30,,,,,,,,2320.975721099996,2320.975721099996,2320.975721099996,2320.975721099996,2320.975721099996,up,0.6432507999707013,0,0,0,99,-0.16,-0.15999999999999998,up,0.5487681999802589,,,,,,,,,,,,,,,,,,,,,,,,,,,,,,,,,,,,,,,,,,,,,,,,,,,,,,,,,,,,F5ANKX,train_x,red_square,bottom_left,2025-07-16_16h41.06.717,HideSeek_v1,2022.2.5,60.14086193521657,
,0,1,0,5,0,4,12,,train_dim1_2,4,30,,,,5,0,5,0,,,,,,,,,0,0,0,0,0,3,3,3,2,0,2,0,,,,,,,,,,,,,,,,,,,,,,,,,,,,,,,,,,,,,,,,,,,,,,,,,,,,,,,,,,,,,,,,30,,,,,,,,2321.625056799967,2321.625056799967,2321.625056799967,2321.625056799967,2321.625056799967,up,0.7106017000041902,0,0,0,99,-0.16,-0.07999999999999997,up,0.628674199921079,,,,,,,,,,,,,,,,,,,,,,,,,,,,,,,,,,,,,,,,,,,,,,,,,,,,,,,,,,,,F5ANKX,train_x,red_square,bottom_left,2025-07-16_16h41.06.717,HideSeek_v1,2022.2.5,60.14086193521657,
,0,1,0,5,0,4,12,,train_dim1_2,4,30,,,,5,0,5,0,,,,,,,,,0,0,0,0,0,3,3,3,3,0,3,0,,,,,,,,,,,,,,,,,,,,,,,,,,,,,,,,,,,,,,,,,,,,,,,,,,,,,,,,,,,,,,,,30,,,,,,,,2322.341625400004,2322.341625400004,2322.341625400004,2322.341625400004,2322.341625400004,up,0.6099722000071779,0,0,0,99,-0.16,2.7755575615628914e-17,up,0.5197274000383914,,,,,,,,,,,,,,,,,,,,,,,,,,,,,,,,,,,,,,,,,,,,,,,,,,,,,,,,,,,,F5ANKX,train_x,red_square,bottom_left,2025-07-16_16h41.06.717,HideSeek_v1,2022.2.5,60.14086193521657,
,0,1,0,5,0,4,12,,train_dim1_2,4,30,,,,5,0,5,0,,,,,,,,,0,0,0,0,0,3,3,3,4,0,4,0,,,,,,,,,,,,,,,,,,,,,,,,,,,,,,,,,,,,,,,,,,,,,,,,,,,,,,,,,,,,,,,,30,,,,,,,,2322.9592610999243,2322.9592610999243,2322.9592610999243,2322.9592610999243,2322.9592610999243,up,0.6935217999853194,0,0,0,99,-0.16,0.08000000000000003,up,0.6148990000365302,,,,,,,,,,,,,,,,,,,,,,,,,,,,,,,,,,,,,,,,,,,,,,,,,,,,,,,,,,,,F5ANKX,train_x,red_square,bottom_left,2025-07-16_16h41.06.717,HideSeek_v1,2022.2.5,60.14086193521657,
