trialInstr,x_fixStart,y_fixStart,x_corrSteps,y_corrSteps,x_nrSteps,y_nrSteps,alienID,trialLength,version,trialTrain,praclen,testlen,trial_label,break_on_off,beforeExpLoop.thisRepN,beforeExpLoop.thisTrialN,beforeExpLoop.thisN,beforeExpLoop.thisIndex,mini_instr_trials.thisRepN,mini_instr_trials.thisTrialN,mini_instr_trials.thisN,mini_instr_trials.thisIndex,instrLoop.thisRepN,instrLoop.thisTrialN,instrLoop.thisN,instrLoop.thisIndex,repeat_prac.thisRepN,repeat_prac.thisTrialN,repeat_prac.thisN,repeat_prac.thisIndex,trainLoop.thisRepN,trainLoop.thisTrialN,trainLoop.thisN,trainLoop.thisIndex,moveLoop_train.thisRepN,moveLoop_train.thisTrialN,moveLoop_train.thisN,moveLoop_train.thisIndex,experiment.thisRepN,experiment.thisTrialN,experiment.thisN,experiment.thisIndex,moveLoop_test.thisRepN,moveLoop_test.thisTrialN,moveLoop_test.thisN,moveLoop_test.thisIndex,mini_instr2_trials.thisRepN,mini_instr2_trials.thisTrialN,mini_instr2_trials.thisN,mini_instr2_trials.thisIndex,start_all_time,url,slideStim,audioStim,slides.started,sounds.started,nextButton.numClicks,nextButton.timesOn,nextButton.timesOff,prev_but.numClicks,prev_but.timesOn,prev_but.timesOff,alienStim,instrFile,alienStim_instr,gridImage_instr.started,startPos_3.started,key_instr.started,alienImage_3.started,sounds_1.started,key_instr.keys,key_instr.rt,all_x,all_y,FBy_corrSteps,FBy_fixStart,FBx_corrSteps,FBx_fixStart,FBy_pathSize_check,FBx_pathSize_check,gridImage_9.started,alienImageFB_3.started,startPosFB_3.started,keyFB_3.started,pathLine_ydir_2.started,pathLine_xdir_2.started,alienFace_3.started,sounds_2.started,RTFB_instr,keyFB_3.keys,keyFB_3.rt,draw_alienStim,draw_alienID,test_x,nrepcount,perfthres,percthres,earlierperf,earlystop,nextPrac,fileidx,praclen,saveACC_train,pracFile,nextPrac_train,addNrep,fileidx_endr,repExp,showearly,gridImage_4.started,startPos.started,movePos.started,key_resp.started,alienImage.started,buttonPress_train,RTchoice_train,cumAcctrain,aCorr,saveACC_choice,corrAns,x_movePos_end,y_movePos_end,key_resp.keys,key_resp.rt,wLy_dir,wLx_dir,x_movePos,y_movePos,text_2.started,text_2.stopped,aft_x_corrPos,aft_y_corrPos,y_pathSize_check,x_pathSize_check,y_pathdirY,x_pathdirY,x_pathdirX,x_corrPos,y_corrPos,gridImage_6.started,alienImageFB_2.started,startPosFB_2.started,movePosFB_2.started,keyFB_2.started,pathLine_xdir.started,pathLine_ydir.started,alienFace.started,sounds_4.started,RT_FBtrain,keyFB_2.keys,keyFB_2.rt,saveACC_pre,ACC,within_saveACC_train,earlystop_wloop,cumAcctrain_check,gridImage_3.started,alienImage_test.started,startPos_test.started,movePos_test.started,key_resp_test.started,wLy_dir_test,wLx_dir_test,buttonPress_test,RTchoice_test,cumAcctest,corrAns_test,key_resp_test.keys,key_resp_test.rt,text_3.started,text_3.stopped,total_time,end_all_time,key_resp_3.keys,slides_2.started,sounds_3.started,nextButton_2.numClicks,nextButton_2.timesOn,nextButton_2.timesOff,prev_but_2.numClicks,prev_but_2.timesOn,prev_but_2.timesOff,bye.started,participant,train_first,00_coordinate,starting corner,date,expName,psychopyVersion,frameRate,
,,,,,,,,,,,,,,,0,0,0,0,0,0,0,0,,,,,,,,,,,,,,,,,,,,,,,,,,,,,start_all_time,testround,conditions/schedules/train_x_first/red_square_00/bottom_left/instructions/Slide1.png,conditions/schedules/train_x_first/red_square_00/bottom_left/instructions/Audio1.wav,1333.6647026,1333.6094303800076,1,[8.137456899999961],[8.137463800000205],0,,,,,,,,,,,,,,,,,,,,,,,,,,,,,,,,,,,,,,,,,,,,,,,,,,,,,,,,,,,,,,,,,,,,,,,,,,,,,,,,,,,,,,,,,,,,,,,,,,,,,,,,,,,,,,,,,,,,,,,,,,,,FJFCRA,train_x,red_square,bottom_left,2025-09-25_17h01.51.938,HideSeek_v1,2022.2.5,59.97994270723117,
,,,,,,,,,,,,,,,0,0,0,0,1,0,1,0,,,,,,,,,,,,,,,,,,,,,,,,,,,,,,,conditions/schedules/train_x_first/red_square_00/bottom_left/instructions/Slide2.png,conditions/schedules/train_x_first/red_square_00/bottom_left/instructions/Audio2.wav,1341.8184171000003,1341.8184052000004,2,"[8.137456899999961, 19.030087000000094]","[0.014810600000146223, 19.03009380000003]",0,,,,,,,,,,,,,,,,,,,,,,,,,,,,,,,,,,,,,,,,,,,,,,,,,,,,,,,,,,,,,,,,,,,,,,,,,,,,,,,,,,,,,,,,,,,,,,,,,,,,,,,,,,,,,,,,,,,,,,,,,,,,FJFCRA,train_x,red_square,bottom_left,2025-09-25_17h01.51.938,HideSeek_v1,2022.2.5,59.97994270723117,
,,,,,,,,,,,,,,,0,0,0,0,2,0,2,0,,,,,,,,,,,,,,,,,,,,,,,,,,,,,,,conditions/schedules/train_x_first/red_square_00/bottom_left/instructions/Slide3.png,conditions/schedules/train_x_first/red_square_00/bottom_left/instructions/Audio3.wav,1360.9336805000003,1360.9335265800005,3,"[8.137456899999961, 19.030087000000094, 16.260919999999714]","[0.014810600000146223, 0.00022659999967800104, 16.2609266999998]",0,,,,,,,,,,,,,,,,,,,,,,,,,,,,,,,,,,,,,,,,,,,,,,,,,,,,,,,,,,,,,,,,,,,,,,,,,,,,,,,,,,,,,,,,,,,,,,,,,,,,,,,,,,,,,,,,,,,,,,,,,,,,FJFCRA,train_x,red_square,bottom_left,2025-09-25_17h01.51.938,HideSeek_v1,2022.2.5,59.97994270723117,
,,,,,,,,,,,,,,,0,0,0,0,3,0,3,0,,,,,,,,,,,,,,,,,,,,,,,,,,,,,,,conditions/schedules/train_x_first/red_square_00/bottom_left/instructions/Slide4.png,conditions/schedules/train_x_first/red_square_00/bottom_left/instructions/Audio4.wav,1377.2717247,1377.26347,4,"[8.137456899999961, 19.030087000000094, 16.260919999999714, 19.54047679999985]","[0.014810600000146223, 0.00022659999967800104, 0.056960200000048644, 19.540483299999778]",0,,,,,,,,,,,,,,,,,,,,,,,,,,,,,,,,,,,,,,,,,,,,,,,,,,,,,,,,,,,,,,,,,,,,,,,,,,,,,,,,,,,,,,,,,,,,,,,,,,,,,,,,,,,,,,,,,,,,,,,,,,,,FJFCRA,train_x,red_square,bottom_left,2025-09-25_17h01.51.938,HideSeek_v1,2022.2.5,59.97994270723117,
,,,,,,,,,,,,,,,0,0,0,0,4,0,4,0,,,,,,,,,,,,,,,,,,,,,,,,,,,,,,,conditions/schedules/train_x_first/red_square_00/bottom_left/instructions/Slide5.png,conditions/schedules/train_x_first/red_square_00/bottom_left/instructions/Audio5.wav,1396.8781909,1396.8640984200001,5,"[8.137456899999961, 19.030087000000094, 16.260919999999714, 19.54047679999985, 5.087676300000112]","[0.014810600000146223, 0.00022659999967800104, 0.056960200000048644, 0.049993999999969674, 5.087683299999753]",0,,,,,,,,,,,,,,,,,,,,,,,,,,,,,,,,,,,,,,,,,,,,,,,,,,,,,,,,,,,,,,,,,,,,,,,,,,,,,,,,,,,,,,,,,,,,,,,,,,,,,,,,,,,,,,,,,,,,,,,,,,,,FJFCRA,train_x,red_square,bottom_left,2025-09-25_17h01.51.938,HideSeek_v1,2022.2.5,59.97994270723117,
,,,,,,,,,,,,,,,0,0,0,0,5,0,5,0,,,,,,,,,,,,,,,,,,,,,,,,,,,,,,,conditions/schedules/train_x_first/red_square_00/bottom_left/instructions/Slide6.png,conditions/schedules/train_x_first/red_square_00/bottom_left/instructions/Audio6.wav,1402.0155378,1402.0179179200004,6,"[8.137456899999961, 19.030087000000094, 16.260919999999714, 19.54047679999985, 5.087676300000112, 5.537891299999956]","[0.014810600000146223, 0.00022659999967800104, 0.056960200000048644, 0.049993999999969674, 0.08279219999985798, 5.537897899999734]",0,,,,,,,,,,,,,,,,,,,,,,,,,,,,,,,,,,,,,,,,,,,,,,,,,,,,,,,,,,,,,,,,,,,,,,,,,,,,,,,,,,,,,,,,,,,,,,,,,,,,,,,,,,,,,,,,,,,,,,,,,,,,FJFCRA,train_x,red_square,bottom_left,2025-09-25_17h01.51.938,HideSeek_v1,2022.2.5,59.97994270723117,
,,,,,,,,,,,,,,,0,0,0,0,6,0,6,0,,,,,,,,,,,,,,,,,,,,,,,,,,,,,,,conditions/schedules/train_x_first/red_square_00/bottom_left/instructions/Slide7.png,conditions/schedules/train_x_first/red_square_00/bottom_left/instructions/Audio7.wav,1407.6163639000001,1407.6060203200004,7,"[8.137456899999961, 19.030087000000094, 16.260919999999714, 19.54047679999985, 5.087676300000112, 5.537891299999956, 6.459211800000048]","[0.014810600000146223, 0.00022659999967800104, 0.056960200000048644, 0.049993999999969674, 0.08279219999985798, 0.07040330000018002, 6.459218800000144]",0,,,,,,,,,,,,,,,,,,,,,,,,,,,,,,,,,,,,,,,,,,,,,,,,,,,,,,,,,,,,,,,,,,,,,,,,,,,,,,,,,,,,,,,,,,,,,,,,,,,,,,,,,,,,,,,,,,,,,,,,,,,,FJFCRA,train_x,red_square,bottom_left,2025-09-25_17h01.51.938,HideSeek_v1,2022.2.5,59.97994270723117,
,,,,,,,,,,,,,,,0,0,0,0,7,0,7,0,,,,,,,,,,,,,,,,,,,,,,,,,,,,,,,conditions/schedules/train_x_first/red_square_00/bottom_left/instructions/Slide8.png,conditions/schedules/train_x_first/red_square_00/bottom_left/instructions/Audio8.wav,1414.1284596,1414.1277906200003,8,"[8.137456899999961, 19.030087000000094, 16.260919999999714, 19.54047679999985, 5.087676300000112, 5.537891299999956, 6.459211800000048, 12.790649999999914]","[0.014810600000146223, 0.00022659999967800104, 0.056960200000048644, 0.049993999999969674, 0.08279219999985798, 0.07040330000018002, 0.07995189999974173, 12.790657099999862]",0,,,,,,,,,,,,,,,,,,,,,,,,,,,,,,,,,,,,,,,,,,,,,,,,,,,,,,,,,,,,,,,,,,,,,,,,,,,,,,,,,,,,,,,,,,,,,,,,,,,,,,,,,,,,,,,,,,,,,,,,,,,,FJFCRA,train_x,red_square,bottom_left,2025-09-25_17h01.51.938,HideSeek_v1,2022.2.5,59.97994270723117,
,,,,,,,,,,,,,,,0,0,0,0,8,0,8,0,,,,,,,,,,,,,,,,,,,,,,,,,,,,,,,conditions/schedules/train_x_first/red_square_00/bottom_left/instructions/Slide9.png,conditions/schedules/train_x_first/red_square_00/bottom_left/instructions/Audio9.wav,1426.9836845,1426.9717262200002,9,"[8.137456899999961, 19.030087000000094, 16.260919999999714, 19.54047679999985, 5.087676300000112, 5.537891299999956, 6.459211800000048, 12.790649999999914, 6.2418846000000485]","[0.014810600000146223, 0.00022659999967800104, 0.056960200000048644, 0.049993999999969674, 0.08279219999985798, 0.07040330000018002, 0.07995189999974173, 0.0358830999998645, 6.241892500000176]",0,,,,,,,,,,,,,,,,,,,,,,,,,,,,,,,,,,,,,,,,,,,,,,,,,,,,,,,,,,,,,,,,,,,,,,,,,,,,,,,,,,,,,,,,,,,,,,,,,,,,,,,,,,,,,,,,,,,,,,,,,,,,FJFCRA,train_x,red_square,bottom_left,2025-09-25_17h01.51.938,HideSeek_v1,2022.2.5,59.97994270723117,
,,,,,,,,,,,,,,,0,0,0,0,9,0,9,0,,,,,,,,,,,,,,,,,,,,,,,,,,,,,,,conditions/schedules/train_x_first/red_square_00/bottom_left/instructions/Slide10.png,conditions/schedules/train_x_first/red_square_00/bottom_left/instructions/Audio10.wav,1433.2789946000003,1433.2772882200002,10,"[8.137456899999961, 19.030087000000094, 16.260919999999714, 19.54047679999985, 5.087676300000112, 5.537891299999956, 6.459211800000048, 12.790649999999914, 6.2418846000000485, 8.435901400000148]","[0.014810600000146223, 0.00022659999967800104, 0.056960200000048644, 0.049993999999969674, 0.08279219999985798, 0.07040330000018002, 0.07995189999974173, 0.0358830999998645, 0.0478211999998166, 8.435907600000064]",0,,,,,,,,,,,,,,,,,,,,,,,,,,,,,,,,,,,,,,,,,,,,,,,,,,,,,,,,,,,,,,,,,,,,,,,,,,,,,,,,,,,,,,,,,,,,,,,,,,,,,,,,,,,,,,,,,,,,,,,,,,,,FJFCRA,train_x,red_square,bottom_left,2025-09-25_17h01.51.938,HideSeek_v1,2022.2.5,59.97994270723117,
,,,,,,,,,,,,,,,0,0,0,0,10,0,10,0,,,,,,,,,,,,,,,,,,,,,,,,,,,,,,,conditions/schedules/train_x_first/red_square_00/bottom_left/instructions/Slide11.png,conditions/schedules/train_x_first/red_square_00/bottom_left/instructions/Audio11.wav,1441.7688288,1441.7673785200004,11,"[8.137456899999961, 19.030087000000094, 16.260919999999714, 19.54047679999985, 5.087676300000112, 5.537891299999956, 6.459211800000048, 12.790649999999914, 6.2418846000000485, 8.435901400000148, 10.28780370000004]","[0.014810600000146223, 0.00022659999967800104, 0.056960200000048644, 0.049993999999969674, 0.08279219999985798, 0.07040330000018002, 0.07995189999974173, 0.0358830999998645, 0.0478211999998166, 0.03104799999982788, 10.287811599999714]",0,,,,,,,,,,,,,,,,,,,,,,,,,,,,,,,,,,,,,,,,,,,,,,,,,,,,,,,,,,,,,,,,,,,,,,,,,,,,,,,,,,,,,,,,,,,,,,,,,,,,,,,,,,,,,,,,,,,,,,,,,,,,FJFCRA,train_x,red_square,bottom_left,2025-09-25_17h01.51.938,HideSeek_v1,2022.2.5,59.97994270723117,
,,,,,,,,,,,,,,,0,0,0,0,11,0,11,0,,,,,,,,,,,,,,,,,,,,,,,,,,,,,,,conditions/schedules/train_x_first/red_square_00/bottom_left/instructions/Slide12.png,conditions/schedules/train_x_first/red_square_00/bottom_left/instructions/Audio12.wav,1452.1273281000003,1452.1259869000003,12,"[8.137456899999961, 19.030087000000094, 16.260919999999714, 19.54047679999985, 5.087676300000112, 5.537891299999956, 6.459211800000048, 12.790649999999914, 6.2418846000000485, 8.435901400000148, 10.28780370000004, 13.140068400000018]","[0.014810600000146223, 0.00022659999967800104, 0.056960200000048644, 0.049993999999969674, 0.08279219999985798, 0.07040330000018002, 0.07995189999974173, 0.0358830999998645, 0.0478211999998166, 0.03104799999982788, 0.02979200000027049, 13.140074599999934]",0,,,,,,,,,,,,,,,,,,,,,,,,,,,,,,,,,,,,,,,,,,,,,,,,,,,,,,,,,,,,,,,,,,,,,,,,,,,,,,,,,,,,,,,,,,,,,,,,,,,,,,,,,,,,,,,,,,,,,,,,,,,,FJFCRA,train_x,red_square,bottom_left,2025-09-25_17h01.51.938,HideSeek_v1,2022.2.5,59.97994270723117,
1,3,2,8,2,5,0,66,2,instr_dim1_1,,,,,,0,0,0,0,,,,,0,0,0,0,,,,,,,,,,,,,,,,,,,,,,,,,,,,,,,,,,,,,stimuli/alien_stimuli/66.png,conditions/schedules/train_x_first/red_square_00/bottom_left/inputInstr_1.xlsx,stimuli/alien_stimuli/66.png,1465.3696191000004,1465.3696191000004,1465.3696191000004,1465.3696191000004,1465.3702900600003,return,9.010988800000291,"[-0.16, -0.08, 0, 0.08, 0.16, 0.24, 0.32, 0.4, 0.48, 0.56]","[-0.4, -0.32, -0.24, -0.16, -0.08, 0, 0.08, 0.16, 0.24, 0.32]",2,2,8,3,0.0,0.4,1474.5452693000002,1474.5452693000002,1474.5452693000002,1474.5452693000002,1474.5452693000002,1474.5452693000002,1474.5452693000002,1474.5279111400005,7.490389699999923,return,7.323708900000042,stimuli/alien_stimuli/66.png,66,3,1,,,,,,,,,,,,,,,,,,,,,,,,,,,,,,,,,,,,,,,,,,,,,,,,,,,,,,,,,,,,,,,,,,,,,,,,,,,,,,,,,,,,,,,,,FJFCRA,train_x,red_square,bottom_left,2025-09-25_17h01.51.938,HideSeek_v1,2022.2.5,59.97994270723117,
,,,,,,,,,,,30,,,,0,0,0,0,,,,,,,,,,,,,,,,,,,,,,,,,,,,,,,,,,,,,,,,,,,,,,,,,,,,,,,,,,,,,,,,,,,,,,,,,,,,,,21,0.7,0,0,99,1,30,0,conditions/schedules/train_x_first/red_square_00/bottom_left/inputTrain_1.1.xlsx,99,1,1,1,0,,,,,,,,,,,,,,,,,,,,,,,,,,,,,,,,,,,,,,,,,,,,,,,,,,,,,,,,,,,,,,,,,,,,,,,,,,,FJFCRA,train_x,red_square,bottom_left,2025-09-25_17h01.51.938,HideSeek_v1,2022.2.5,59.97994270723117,
,,,,,,,,,,,,,,,1,0,1,0,0,0,0,0,,,,,,,,,,,,,,,,,,,,,,,,,,,,,,,conditions/schedules/train_x_first/red_square_00/bottom_left/instructions/Slide13.png,conditions/schedules/train_x_first/red_square_00/bottom_left/instructions/Audio13.wav,1482.0599955000002,1482.0508611000005,13,"[8.137456899999961, 19.030087000000094, 16.260919999999714, 19.54047679999985, 5.087676300000112, 5.537891299999956, 6.459211800000048, 12.790649999999914, 6.2418846000000485, 8.435901400000148, 10.28780370000004, 13.140068400000018, 16.819432700000107]","[0.014810600000146223, 0.00022659999967800104, 0.056960200000048644, 0.049993999999969674, 0.08279219999985798, 0.07040330000018002, 0.07995189999974173, 0.0358830999998645, 0.0478211999998166, 0.03104799999982788, 0.02979200000027049, 13.140074599999934, 16.81944079999994]",0,,,,,,,,,,,,,,,,,,,,,,,,,,,,,,,,,,,,,,,,,,,,,,,,,,,,,,,,,,,,,,,,,,,,,,,,,,,,,,,,,,,,,,,,,,,,,,,,,,,,,,,,,,,,,,,,,,,,,,,,,,,,FJFCRA,train_x,red_square,bottom_left,2025-09-25_17h01.51.938,HideSeek_v1,2022.2.5,59.97994270723117,
,,,,,,,,,,,,,,,1,0,1,0,1,0,1,0,,,,,,,,,,,,,,,,,,,,,,,,,,,,,,,conditions/schedules/train_x_first/red_square_00/bottom_left/instructions/Slide14.png,conditions/schedules/train_x_first/red_square_00/bottom_left/instructions/Audio14.wav,1498.9508635000002,1498.9484869000005,14,"[8.137456899999961, 19.030087000000094, 16.260919999999714, 19.54047679999985, 5.087676300000112, 5.537891299999956, 6.459211800000048, 12.790649999999914, 6.2418846000000485, 8.435901400000148, 10.28780370000004, 13.140068400000018, 16.819432700000107, 13.84023500000012]","[0.014810600000146223, 0.00022659999967800104, 0.056960200000048644, 0.049993999999969674, 0.08279219999985798, 0.07040330000018002, 0.07995189999974173, 0.0358830999998645, 0.0478211999998166, 0.03104799999982788, 0.02979200000027049, 13.140074599999934, 0.03038830000014059, 13.840243900000132]",0,,,,,,,,,,,,,,,,,,,,,,,,,,,,,,,,,,,,,,,,,,,,,,,,,,,,,,,,,,,,,,,,,,,,,,,,,,,,,,,,,,,,,,,,,,,,,,,,,,,,,,,,,,,,,,,,,,,,,,,,,,,,FJFCRA,train_x,red_square,bottom_left,2025-09-25_17h01.51.938,HideSeek_v1,2022.2.5,59.97994270723117,
2,4,0,4,0,0,0,16,2,instr_dim1_1,,,,,,1,0,1,0,,,,,0,0,0,0,,,,,,,,,,,,,,,,,,,,,,,,,,,,,,,,,,,,,stimuli/alien_stimuli/16.png,conditions/schedules/train_x_first/red_square_00/bottom_left/inputInstr_1.xlsx,stimuli/alien_stimuli/16.png,1512.8964372,1512.8964372,1512.8964372,1512.8964372,1512.8932363600004,return,6.458913999999936,"[-0.16, -0.08, 0, 0.08, 0.16, 0.24, 0.32, 0.4, 0.48, 0.56]","[-0.4, -0.32, -0.24, -0.16, -0.08, 0, 0.08, 0.16, 0.24, 0.32]",0,0,4,4,0.0,0.0,1519.5278342000001,1519.5278342000001,1519.5278342000001,1519.5278342000001,1519.5278342000001,1519.5278342000001,1519.5278342000001,1519.5152993200002,7.0739181000003555,return,6.905857299999866,stimuli/alien_stimuli/16.png,16,4,2,,,,,,,,,,,,,,,,,,,,,,,,,,,,,,,,,,,,,,,,,,,,,,,,,,,,,,,,,,,,,,,,,,,,,,,,,,,,,,,,,,,,,,,,,FJFCRA,train_x,red_square,bottom_left,2025-09-25_17h01.51.938,HideSeek_v1,2022.2.5,59.97994270723117,
,,,,,,,,,,,30,,,,1,0,1,0,,,,,,,,,,,,,,,,,,,,,,,,,,,,,,,,,,,,,,,,,,,,,,,,,,,,,,,,,,,,,,,,,,,,,,,,,,,,,,21,0.7,0,0,99,1,30,0,conditions/schedules/train_x_first/red_square_00/bottom_left/inputTrain_1.1.xlsx,99,1,1,1,0,,,,,,,,,,,,,,,,,,,,,,,,,,,,,,,,,,,,,,,,,,,,,,,,,,,,,,,,,,,,,,,,,,,,,,,,,,,FJFCRA,train_x,red_square,bottom_left,2025-09-25_17h01.51.938,HideSeek_v1,2022.2.5,59.97994270723117,
,,,,,,,,,,,,,,,2,0,2,0,0,0,0,0,,,,,,,,,,,,,,,,,,,,,,,,,,,,,,,conditions/schedules/train_x_first/red_square_00/bottom_left/instructions/Slide15.png,conditions/schedules/train_x_first/red_square_00/bottom_left/instructions/Audio15.wav,1526.6211117000003,1526.6211745800003,15,"[8.137456899999961, 19.030087000000094, 16.260919999999714, 19.54047679999985, 5.087676300000112, 5.537891299999956, 6.459211800000048, 12.790649999999914, 6.2418846000000485, 8.435901400000148, 10.28780370000004, 13.140068400000018, 16.819432700000107, 13.84023500000012, 29.956274499999836]","[0.014810600000146223, 0.00022659999967800104, 0.056960200000048644, 0.049993999999969674, 0.08279219999985798, 0.07040330000018002, 0.07995189999974173, 0.0358830999998645, 0.0478211999998166, 0.03104799999982788, 0.02979200000027049, 13.140074599999934, 0.03038830000014059, 13.840243900000132, 29.956282499999816]",0,,,,,,,,,,,,,,,,,,,,,,,,,,,,,,,,,,,,,,,,,,,,,,,,,,,,,,,,,,,,,,,,,,,,,,,,,,,,,,,,,,,,,,,,,,,,,,,,,,,,,,,,,,,,,,,,,,,,,,,,,,,,FJFCRA,train_x,red_square,bottom_left,2025-09-25_17h01.51.938,HideSeek_v1,2022.2.5,59.97994270723117,
,,,,,,,,,,,,,,,2,0,2,0,1,0,1,0,,,,,,,,,,,,,,,,,,,,,,,,,,,,,,,conditions/schedules/train_x_first/red_square_00/bottom_left/instructions/Slide16.png,conditions/schedules/train_x_first/red_square_00/bottom_left/instructions/Audio16.wav,1556.6502953,1556.6461953,16,"[8.137456899999961, 19.030087000000094, 16.260919999999714, 19.54047679999985, 5.087676300000112, 5.537891299999956, 6.459211800000048, 12.790649999999914, 6.2418846000000485, 8.435901400000148, 10.28780370000004, 13.140068400000018, 16.819432700000107, 13.84023500000012, 29.956274499999836, 22.51184239999975]","[0.014810600000146223, 0.00022659999967800104, 0.056960200000048644, 0.049993999999969674, 0.08279219999985798, 0.07040330000018002, 0.07995189999974173, 0.0358830999998645, 0.0478211999998166, 0.03104799999982788, 0.02979200000027049, 13.140074599999934, 0.03038830000014059, 13.840243900000132, 0.030309599999782222, 22.511848999999984]",0,,,,,,,,,,,,,,,,,,,,,,,,,,,,,,,,,,,,,,,,,,,,,,,,,,,,,,,,,,,,,,,,,,,,,,,,,,,,,,,,,,,,,,,,,,,,,,,,,,,,,,,,,,,,,,,,,,,,,,,,,,,,FJFCRA,train_x,red_square,bottom_left,2025-09-25_17h01.51.938,HideSeek_v1,2022.2.5,59.97994270723117,
,2,1,5,1,3,0,46,,train_dim1_1,1,30,,,,2,0,2,0,,,,,,,,,0,0,0,0,0,0,0,0,0,0,0,0,,,,,,,,,,,,,,,,,,,,,,,,,stimuli/alien_stimuli/46.png,,,,,,,,,,,,,,,,,,,,,,,,,,,,,,,,,,,,,,,30,,,,,,,,1579.2690440000001,1579.2690440000001,1579.2690440000001,1579.2690440000001,1579.2690440000001,right,3.526414399999794,0,0,0,99,0.08,-0.32,right,3.4302357999996502,,,,,,,,,,,,,,,,,,,,,,,,,,,,,,,,,,,,,,,,,,,,,,,,,,,,,,,,,,,,FJFCRA,train_x,red_square,bottom_left,2025-09-25_17h01.51.938,HideSeek_v1,2022.2.5,59.97994270723117,
,2,1,5,1,3,0,46,,train_dim1_1,1,30,,,,2,0,2,0,,,,,,,,,0,0,0,0,0,0,0,0,1,0,1,0,,,,,,,,,,,,,,,,,,,,,,,,,,,,,,,,,,,,,,,,,,,,,,,,,,,,,,,,,,,,,,,,30,,,,,,,,1582.7823471000002,1582.7823471000002,1582.7823471000002,1582.7823471000002,1582.7823471000002,left,4.8632173999999395,0,0,0,99,0.0,-0.32,left,4.785532399999852,,,,,,,,,,,,,,,,,,,,,,,,,,,,,,,,,,,,,,,,,,,,,,,,,,,,,,,,,,,,FJFCRA,train_x,red_square,bottom_left,2025-09-25_17h01.51.938,HideSeek_v1,2022.2.5,59.97994270723117,
,2,1,5,1,3,0,46,,train_dim1_1,1,30,,,,2,0,2,0,,,,,,,,,0,0,0,0,0,0,0,0,2,0,2,0,,,,,,,,,,,,,,,,,,,,,,,,,,,,,,,,,,,,,,,,,,,,,,,,,,,,,,,,,,,,,,,,30,,,,,,,,1587.6551395000001,1587.6551395000001,1587.6551395000001,1587.6551395000001,1587.6551395000001,up,1.3086066999999275,0,0,0,99,0.0,-0.24,up,1.2256623999998055,,,,,,,,,,,,,,,,,,,,,,,,,,,,,,,,,,,,,,,,,,,,,,,,,,,,,,,,,,,,FJFCRA,train_x,red_square,bottom_left,2025-09-25_17h01.51.938,HideSeek_v1,2022.2.5,59.97994270723117,
,2,1,5,1,3,0,46,,train_dim1_1,1,30,,,,2,0,2,0,,,,,,,,,0,0,0,0,0,0,0,0,3,0,3,0,,,,,,,,,,,,,,,,,,,,,,,,,,,,,,,,,,,,,,,,,,,,,,,,,,,,,,,,,,,,,,,,30,,,,,,,,1588.9694697,1588.9694697,1588.9694697,1588.9694697,1588.9694697,up,0.9438715999999658,0,0,0,99,0.0,-0.15999999999999998,up,0.8691715999999587,,,,,,,,,,,,,,,,,,,,,,,,,,,,,,,,,,,,,,,,,,,,,,,,,,,,,,,,,,,,FJFCRA,train_x,red_square,bottom_left,2025-09-25_17h01.51.938,HideSeek_v1,2022.2.5,59.97994270723117,
,2,1,5,1,3,0,46,,train_dim1_1,1,30,,,,2,0,2,0,,,,,,,,,0,0,0,0,0,0,0,0,4,0,4,0,,,,,,,,,,,,,,,,,,,,,,,,,,,,,,,,,,,,,,,,,,,,,,,,,,,,,,,,,,,,,,,,30,,,,,,,,1589.9227013,1589.9227013,1589.9227013,1589.9227013,1589.9227013,up,1.9280188000002454,0,0,0,99,0.0,-0.07999999999999997,up,1.8446875999999293,,,,,,,,,,,,,,,,,,,,,,,,,,,,,,,,,,,,,,,,,,,,,,,,,,,,,,,,,,,,FJFCRA,train_x,red_square,bottom_left,2025-09-25_17h01.51.938,HideSeek_v1,2022.2.5,59.97994270723117,
,2,1,5,1,3,0,46,,train_dim1_1,1,30,,,,2,0,2,0,,,,,,,,,0,0,0,0,0,0,0,0,5,0,5,0,,,,,,,,,,,,,,,,,,,,,,,,,,,,,,,,,,,,,,,,,,,,,,,,,,,,,,,,,,,,,,,,30,,,,,,,,1591.8577736000002,1591.8577736000002,1591.8577736000002,1591.8577736000002,1591.8577736000002,up,4.261595200000102,0,0,0,99,0.0,2.7755575615628914e-17,up,4.177672099999768,,,,,,,,,,,,,,,,,,,,,,,,,,,,,,,,,,,,,,,,,,,,,,,,,,,,,,,,,,,,FJFCRA,train_x,red_square,bottom_left,2025-09-25_17h01.51.938,HideSeek_v1,2022.2.5,59.97994270723117,
,2,1,5,1,3,0,46,,train_dim1_1,1,30,,,,2,0,2,0,,,,,,,,,0,0,0,0,0,0,0,0,6,0,6,0,,,,,,,,,,,,,,,,,,,,,,,,,,,,,,,,,,,,,,,,,,,,,,,,,,,,,,,,,,,,,,,,30,,,,,,,,1596.1269414000003,1596.1269414000003,1596.1269414000003,1596.1269414000003,1596.1269414000003,return,0.7104835999998613,0,0,0,0,0.0,2.7755575615628914e-17,return,0.6324632000001884,4,0,0.0,2.7755575615628914e-17,,,,,,,,,,,,,,,,,,,,,,,,,,,,,,,,,,,,,,,,,,,,,,,,,,,,,,,,FJFCRA,train_x,red_square,bottom_left,2025-09-25_17h01.51.938,HideSeek_v1,2022.2.5,59.97994270723117,
,2,4,2,4,0,0,16,,train_dim1_1,2,30,,,,2,0,2,0,,,,,,,,,0,0,0,0,0,1,1,1,0,0,0,0,,,,,,,,,,,,,,,,,,,,,,,,,stimuli/alien_stimuli/16.png,,,,,,,,,,,,,,,,,,,,,,,,,,,,,stimuli/alien_stimuli/46.png,46,2,3,,,,,,,30,,,,,,,,1609.0236616000002,1609.0236616000002,1609.0236616000002,1609.0236616000002,1609.0236616000002,right,4.4697212999999465,0,0,0,99,0.08,-0.08,right,4.3656753000001345,,,,,1607.4384112000002,1609.0236616000002,0.24,-0.32,0.0,0.24,-0.32,0.24,0.12,0.24,-0.32,1598.4146949,1598.4146949,1598.4146949,1598.4146949,1598.4146949,1598.4146949,1598.4146949,1598.4146949,1598.39766346,9.143303800000012,return,8.994201800000269,,,,,,,,,,,,,,,,,,,,,,,,,,,,,,,,,FJFCRA,train_x,red_square,bottom_left,2025-09-25_17h01.51.938,HideSeek_v1,2022.2.5,59.97994270723117,
,2,4,2,4,0,0,16,,train_dim1_1,2,30,,,,2,0,2,0,,,,,,,,,0,0,0,0,0,1,1,1,1,0,1,0,,,,,,,,,,,,,,,,,,,,,,,,,,,,,,,,,,,,,,,,,,,,,,,,,,,,,,,,,,,,,,,,30,,,,,,,,1613.4886983000001,1613.4886983000001,1613.4886983000001,1613.4886983000001,1613.4886983000001,right,1.6858718999997109,0,0,0,99,0.16,-0.08,right,1.6069117999996934,,,,,,,,,,,,,,,,,,,,,,,,,,,,,,,,,,,,,,,,,,,,,,,,,,,,,,,,,,,,FJFCRA,train_x,red_square,bottom_left,2025-09-25_17h01.51.938,HideSeek_v1,2022.2.5,59.97994270723117,
,2,4,2,4,0,0,16,,train_dim1_1,2,30,,,,2,0,2,0,,,,,,,,,0,0,0,0,0,1,1,1,2,0,2,0,,,,,,,,,,,,,,,,,,,,,,,,,,,,,,,,,,,,,,,,,,,,,,,,,,,,,,,,,,,,,,,,30,,,,,,,,1615.1812313,1615.1812313,1615.1812313,1615.1812313,1615.1812313,return,1.8595768999998654,0,0,0,0,0.16,-0.08,return,1.7693074000000024,4,2,0.16,-0.08,,,,,,,,,,,,,,,,,,,,,,,,,,,,,,,,,,,,,,,,,,,,,,,,,,,,,,,,FJFCRA,train_x,red_square,bottom_left,2025-09-25_17h01.51.938,HideSeek_v1,2022.2.5,59.97994270723117,
,4,4,5,4,1,0,26,,train_dim1_1,3,30,,,,2,0,2,0,,,,,,,,,0,0,0,0,0,2,2,2,0,0,0,0,,,,,,,,,,,,,,,,,,,,,,,,,stimuli/alien_stimuli/26.png,,,,,,,,,,,,,,,,,,,,,,,,,,,,,stimuli/alien_stimuli/16.png,16,2,4,,,,,,,30,,,,,,,,1624.5366175,1624.5366175,1624.5366175,1624.5366175,1624.5366175,right,3.255043999999998,0,0,0,99,0.24,-0.08,right,3.1685051000000612,,,,,1622.9678739,1624.5366175,0,-0.08,0.0,0.0,-0.08,0,0.0,0,-0.08,1618.6257661,1618.6257661,1618.6257661,1618.6257661,1618.6257661,1618.6257661,1618.6257661,1618.6257661,1618.6142271400004,4.47277720000011,return,4.325543499999753,,,,,,,,,,,,,,,,,,,,,,,,,,,,,,,,,FJFCRA,train_x,red_square,bottom_left,2025-09-25_17h01.51.938,HideSeek_v1,2022.2.5,59.97994270723117,
,4,4,5,4,1,0,26,,train_dim1_1,3,30,,,,2,0,2,0,,,,,,,,,0,0,0,0,0,2,2,2,1,0,1,0,,,,,,,,,,,,,,,,,,,,,,,,,,,,,,,,,,,,,,,,,,,,,,,,,,,,,,,,,,,,,,,,30,,,,,,,,1627.7890054,1627.7890054,1627.7890054,1627.7890054,1627.7890054,return,0.7766052000001764,1,0,0,1,0.24,-0.08,return,0.6845123999997895,4,3,0.24,-0.08,,,,,,,,,,,,,,,,,,,,,,,,,,,,,,,,,,,,,,,,,,,,,,,,,,,,,,,,FJFCRA,train_x,red_square,bottom_left,2025-09-25_17h01.51.938,HideSeek_v1,2022.2.5,59.97994270723117,
,2,3,6,3,4,0,56,,train_dim1_1,4,30,,,,2,0,2,0,,,,,,,,,0,0,0,0,0,3,3,3,0,0,0,0,,,,,,,,,,,,,,,,,,,,,,,,,stimuli/alien_stimuli/56.png,,,,,,,,,,,,,,,,,,,,,,,,,,,,,stimuli/alien_stimuli/26.png,26,4,5,,,,,,,30,,,,,,,,1635.7778820000003,1635.7778820000003,1635.7778820000003,1635.7778820000003,1635.7778820000003,right,3.4212568000002648,1,0,0,99,0.08,-0.16,right,3.3245490999998992,,,,,1634.2105963000004,1635.7778820000003,0.24,-0.08,0.0,0.08,-0.08,0.24,0.2,0.24,-0.08,1630.1534128000003,1630.1534128000003,1630.1534128000003,1630.1534128000003,1630.1534128000003,1630.1534128000003,1630.1534128000003,1630.1534128000003,1630.1408725400001,4.188467099999798,return,4.039987499999938,,,,,,,,,,,,,,,,,,,,,,,,,,,,,,,,,FJFCRA,train_x,red_square,bottom_left,2025-09-25_17h01.51.938,HideSeek_v1,2022.2.5,59.97994270723117,
,2,3,6,3,4,0,56,,train_dim1_1,4,30,,,,2,0,2,0,,,,,,,,,0,0,0,0,0,3,3,3,1,0,1,0,,,,,,,,,,,,,,,,,,,,,,,,,,,,,,,,,,,,,,,,,,,,,,,,,,,,,,,,,,,,,,,,30,,,,,,,,1639.1972800000003,1639.1972800000003,1639.1972800000003,1639.1972800000003,1639.1972800000003,right,0.442776700000195,1,0,0,99,0.16,-0.16,right,0.35366850000002614,,,,,,,,,,,,,,,,,,,,,,,,,,,,,,,,,,,,,,,,,,,,,,,,,,,,,,,,,,,,FJFCRA,train_x,red_square,bottom_left,2025-09-25_17h01.51.938,HideSeek_v1,2022.2.5,59.97994270723117,
,2,3,6,3,4,0,56,,train_dim1_1,4,30,,,,2,0,2,0,,,,,,,,,0,0,0,0,0,3,3,3,2,0,2,0,,,,,,,,,,,,,,,,,,,,,,,,,,,,,,,,,,,,,,,,,,,,,,,,,,,,,,,,,,,,,,,,30,,,,,,,,1639.6493599,1639.6493599,1639.6493599,1639.6493599,1639.6493599,right,1.3092086999999992,1,0,0,99,0.24,-0.16,right,1.2179336999998895,,,,,,,,,,,,,,,,,,,,,,,,,,,,,,,,,,,,,,,,,,,,,,,,,,,,,,,,,,,,FJFCRA,train_x,red_square,bottom_left,2025-09-25_17h01.51.938,HideSeek_v1,2022.2.5,59.97994270723117,
,2,3,6,3,4,0,56,,train_dim1_1,4,30,,,,2,0,2,0,,,,,,,,,0,0,0,0,0,3,3,3,3,0,3,0,,,,,,,,,,,,,,,,,,,,,,,,,,,,,,,,,,,,,,,,,,,,,,,,,,,,,,,,,,,,,,,,30,,,,,,,,1640.9698723000001,1640.9698723000001,1640.9698723000001,1640.9698723000001,1640.9698723000001,right,0.5902632000002086,1,0,0,99,0.32,-0.16,right,0.5007972999998174,,,,,,,,,,,,,,,,,,,,,,,,,,,,,,,,,,,,,,,,,,,,,,,,,,,,,,,,,,,,FJFCRA,train_x,red_square,bottom_left,2025-09-25_17h01.51.938,HideSeek_v1,2022.2.5,59.97994270723117,
,2,3,6,3,4,0,56,,train_dim1_1,4,30,,,,2,0,2,0,,,,,,,,,0,0,0,0,0,3,3,3,4,0,4,0,,,,,,,,,,,,,,,,,,,,,,,,,,,,,,,,,,,,,,,,,,,,,,,,,,,,,,,,,,,,,,,,30,,,,,,,,1641.5649723000001,1641.5649723000001,1641.5649723000001,1641.5649723000001,1641.5649723000001,right,0.5938451000001805,1,0,0,99,0.4,-0.16,right,0.5182121999997662,,,,,,,,,,,,,,,,,,,,,,,,,,,,,,,,,,,,,,,,,,,,,,,,,,,,,,,,,,,,FJFCRA,train_x,red_square,bottom_left,2025-09-25_17h01.51.938,HideSeek_v1,2022.2.5,59.97994270723117,
,2,3,6,3,4,0,56,,train_dim1_1,4,30,,,,2,0,2,0,,,,,,,,,0,0,0,0,0,3,3,3,5,0,5,0,,,,,,,,,,,,,,,,,,,,,,,,,,,,,,,,,,,,,,,,,,,,,,,,,,,,,,,,,,,,,,,,30,,,,,,,,1642.167688,1642.167688,1642.167688,1642.167688,1642.167688,return,0.6086202000001322,1,1,0,0,0.4,-0.16,return,0.5262760000001663,4,8,0.4,-0.16,,,,,,,,,,,,,,,,,,,,,,,,,,,,,,,,,,,,,,,,,,,,,,,,,,,,,,,,FJFCRA,train_x,red_square,bottom_left,2025-09-25_17h01.51.938,HideSeek_v1,2022.2.5,59.97994270723117,
,0,2,5,2,5,0,66,,train_dim1_1,5,30,,,,2,0,2,0,,,,,,,,,0,0,0,0,0,4,4,4,0,0,0,0,,,,,,,,,,,,,,,,,,,,,,,,,stimuli/alien_stimuli/66.png,,,,,,,,,,,,,,,,,,,,,,,,,,,,,stimuli/alien_stimuli/56.png,56,2,6,,,,,,,30,,,,,,,,1655.6667834,1655.6667834,1655.6667834,1655.6667834,1655.6667834,right,1.604726699999901,1,1,0,99,-0.08,-0.24,right,1.5091148000002477,,,,,1654.0938403,1655.6667834,0.32,-0.16,0.0,0.32,-0.16,0.32,0.16,0.32,-0.16,1644.3627897000001,1644.3627897000001,1644.3627897000001,1644.3627897000001,1644.3627897000001,1644.3627897000001,1644.3627897000001,1644.3627897000001,1644.3524067400003,9.859963899999912,return,9.706958499999587,,,,,,,,,,,,,,,,,,,,,,,,,,,,,,,,,FJFCRA,train_x,red_square,bottom_left,2025-09-25_17h01.51.938,HideSeek_v1,2022.2.5,59.97994270723117,
,0,2,5,2,5,0,66,,train_dim1_1,5,30,,,,2,0,2,0,,,,,,,,,0,0,0,0,0,4,4,4,1,0,1,0,,,,,,,,,,,,,,,,,,,,,,,,,,,,,,,,,,,,,,,,,,,,,,,,,,,,,,,,,,,,,,,,30,,,,,,,,1657.2606539000003,1657.2606539000003,1657.2606539000003,1657.2606539000003,1657.2606539000003,right,0.5763452999999572,1,1,0,99,0.0,-0.24,right,0.4920714999999518,,,,,,,,,,,,,,,,,,,,,,,,,,,,,,,,,,,,,,,,,,,,,,,,,,,,,,,,,,,,FJFCRA,train_x,red_square,bottom_left,2025-09-25_17h01.51.938,HideSeek_v1,2022.2.5,59.97994270723117,
,0,2,5,2,5,0,66,,train_dim1_1,5,30,,,,2,0,2,0,,,,,,,,,0,0,0,0,0,4,4,4,2,0,2,0,,,,,,,,,,,,,,,,,,,,,,,,,,,,,,,,,,,,,,,,,,,,,,,,,,,,,,,,,,,,,,,,30,,,,,,,,1657.8473451,1657.8473451,1657.8473451,1657.8473451,1657.8473451,right,0.5239232999997512,1,1,0,99,0.08,-0.24,right,0.43746139999996103,,,,,,,,,,,,,,,,,,,,,,,,,,,,,,,,,,,,,,,,,,,,,,,,,,,,,,,,,,,,FJFCRA,train_x,red_square,bottom_left,2025-09-25_17h01.51.938,HideSeek_v1,2022.2.5,59.97994270723117,
,0,2,5,2,5,0,66,,train_dim1_1,5,30,,,,2,0,2,0,,,,,,,,,0,0,0,0,0,4,4,4,3,0,3,0,,,,,,,,,,,,,,,,,,,,,,,,,,,,,,,,,,,,,,,,,,,,,,,,,,,,,,,,,,,,,,,,30,,,,,,,,1658.3770123,1658.3770123,1658.3770123,1658.3770123,1658.3770123,right,0.5101292999997895,1,1,0,99,0.16,-0.24,right,0.42504559999963476,,,,,,,,,,,,,,,,,,,,,,,,,,,,,,,,,,,,,,,,,,,,,,,,,,,,,,,,,,,,FJFCRA,train_x,red_square,bottom_left,2025-09-25_17h01.51.938,HideSeek_v1,2022.2.5,59.97994270723117,
,0,2,5,2,5,0,66,,train_dim1_1,5,30,,,,2,0,2,0,,,,,,,,,0,0,0,0,0,4,4,4,4,0,4,0,,,,,,,,,,,,,,,,,,,,,,,,,,,,,,,,,,,,,,,,,,,,,,,,,,,,,,,,,,,,,,,,30,,,,,,,,1658.8942574000002,1658.8942574000002,1658.8942574000002,1658.8942574000002,1658.8942574000002,right,0.5266805999999633,1,1,0,99,0.24,-0.24,right,0.44325690000016493,,,,,,,,,,,,,,,,,,,,,,,,,,,,,,,,,,,,,,,,,,,,,,,,,,,,,,,,,,,,FJFCRA,train_x,red_square,bottom_left,2025-09-25_17h01.51.938,HideSeek_v1,2022.2.5,59.97994270723117,
,0,2,5,2,5,0,66,,train_dim1_1,5,30,,,,2,0,2,0,,,,,,,,,0,0,0,0,0,4,4,4,5,0,5,0,,,,,,,,,,,,,,,,,,,,,,,,,,,,,,,,,,,,,,,,,,,,,,,,,,,,,,,,,,,,,,,,30,,,,,,,,1659.4309830000002,1659.4309830000002,1659.4309830000002,1659.4309830000002,1659.4309830000002,return,0.8740199999997458,2,0,0,1,0.24,-0.24,return,0.7924270999998271,4,13,0.24,-0.24,,,,,,,,,,,,,,,,,,,,,,,,,,,,,,,,,,,,,,,,,,,,,,,,,,,,,,,,FJFCRA,train_x,red_square,bottom_left,2025-09-25_17h01.51.938,HideSeek_v1,2022.2.5,59.97994270723117,
,0,0,1,0,1,0,26,,train_dim1_1,6,30,,,,2,0,2,0,,,,,,,,,0,0,0,0,0,5,5,5,0,0,0,0,,,,,,,,,,,,,,,,,,,,,,,,,stimuli/alien_stimuli/26.png,,,,,,,,,,,,,,,,,,,,,,,,,,,,,stimuli/alien_stimuli/66.png,66,0,7,,,,,,,30,,,,,,,,1667.3682392,1667.3682392,1667.3682392,1667.3682392,1667.3682392,right,2.4062808000003315,2,0,0,99,-0.08,-0.4,right,2.312172300000043,,,,,1665.8035599,1667.3682392,0.24,-0.24,0.0,0.4,-0.24,0.24,0.039999999999999994,0.24,-0.24,1661.8897903000002,1661.8897903000002,1661.8897903000002,1661.8897903000002,1661.8897903000002,1661.8897903000002,1661.8897903000002,1661.8897903000002,1661.8837286400003,4.038676900000155,return,3.886953400000152,,,,,,,,,,,,,,,,,,,,,,,,,,,,,,,,,FJFCRA,train_x,red_square,bottom_left,2025-09-25_17h01.51.938,HideSeek_v1,2022.2.5,59.97994270723117,
,0,0,1,0,1,0,26,,train_dim1_1,6,30,,,,2,0,2,0,,,,,,,,,0,0,0,0,0,5,5,5,1,0,1,0,,,,,,,,,,,,,,,,,,,,,,,,,,,,,,,,,,,,,,,,,,,,,,,,,,,,,,,,,,,,,,,,30,,,,,,,,1669.7753615000001,1669.7753615000001,1669.7753615000001,1669.7753615000001,1669.7753615000001,return,0.7751229000000421,3,0,0,1,-0.08,-0.4,return,0.6950098000003209,4,14,-0.08,-0.4,,,,,,,,,,,,,,,,,,,,,,,,,,,,,,,,,,,,,,,,,,,,,,,,,,,,,,,,FJFCRA,train_x,red_square,bottom_left,2025-09-25_17h01.51.938,HideSeek_v1,2022.2.5,59.97994270723117,
,3,0,8,0,5,0,66,,train_dim1_1,7,30,,,,2,0,2,0,,,,,,,,,0,0,0,0,0,6,6,6,0,0,0,0,,,,,,,,,,,,,,,,,,,,,,,,,stimuli/alien_stimuli/66.png,,,,,,,,,,,,,,,,,,,,,,,,,,,,,stimuli/alien_stimuli/26.png,26,0,8,,,,,,,30,,,,,,,,1676.2838660000002,1676.2838660000002,1676.2838660000002,1676.2838660000002,1676.2838660000002,left,2.120836800000234,3,0,0,99,0.0,-0.4,left,2.0252756000001,,,,,1674.7107537000002,1676.2838660000002,-0.08,-0.4,0.0,0.08,-0.4,-0.08,-0.12,-0.08,-0.4,1672.1366631,1672.1366631,1672.1366631,1672.1366631,1672.1366631,1672.1366631,1672.1366631,1672.1366631,1672.1255082400003,2.7038471999999274,return,2.5569853999996894,,,,,,,,,,,,,,,,,,,,,,,,,,,,,,,,,FJFCRA,train_x,red_square,bottom_left,2025-09-25_17h01.51.938,HideSeek_v1,2022.2.5,59.97994270723117,
,3,0,8,0,5,0,66,,train_dim1_1,7,30,,,,2,0,2,0,,,,,,,,,0,0,0,0,0,6,6,6,1,0,1,0,,,,,,,,,,,,,,,,,,,,,,,,,,,,,,,,,,,,,,,,,,,,,,,,,,,,,,,,,,,,,,,,30,,,,,,,,1678.3980742000003,1678.3980742000003,1678.3980742000003,1678.3980742000003,1678.3980742000003,right,1.5756847999996353,3,0,0,99,0.08,-0.4,right,1.4929568000003428,,,,,,,,,,,,,,,,,,,,,,,,,,,,,,,,,,,,,,,,,,,,,,,,,,,,,,,,,,,,FJFCRA,train_x,red_square,bottom_left,2025-09-25_17h01.51.938,HideSeek_v1,2022.2.5,59.97994270723117,
,3,0,8,0,5,0,66,,train_dim1_1,7,30,,,,2,0,2,0,,,,,,,,,0,0,0,0,0,6,6,6,2,0,2,0,,,,,,,,,,,,,,,,,,,,,,,,,,,,,,,,,,,,,,,,,,,,,,,,,,,,,,,,,,,,,,,,30,,,,,,,,1679.9824484,1679.9824484,1679.9824484,1679.9824484,1679.9824484,right,1.722787100000005,3,0,0,99,0.16,-0.4,right,1.6404254000000265,,,,,,,,,,,,,,,,,,,,,,,,,,,,,,,,,,,,,,,,,,,,,,,,,,,,,,,,,,,,FJFCRA,train_x,red_square,bottom_left,2025-09-25_17h01.51.938,HideSeek_v1,2022.2.5,59.97994270723117,
,3,0,8,0,5,0,66,,train_dim1_1,7,30,,,,2,0,2,0,,,,,,,,,0,0,0,0,0,6,6,6,3,0,3,0,,,,,,,,,,,,,,,,,,,,,,,,,,,,,,,,,,,,,,,,,,,,,,,,,,,,,,,,,,,,,,,,30,,,,,,,,1681.7144376,1681.7144376,1681.7144376,1681.7144376,1681.7144376,right,0.5588572999999997,3,0,0,99,0.24,-0.4,right,0.47894890000009127,,,,,,,,,,,,,,,,,,,,,,,,,,,,,,,,,,,,,,,,,,,,,,,,,,,,,,,,,,,,FJFCRA,train_x,red_square,bottom_left,2025-09-25_17h01.51.938,HideSeek_v1,2022.2.5,59.97994270723117,
,3,0,8,0,5,0,66,,train_dim1_1,7,30,,,,2,0,2,0,,,,,,,,,0,0,0,0,0,6,6,6,4,0,4,0,,,,,,,,,,,,,,,,,,,,,,,,,,,,,,,,,,,,,,,,,,,,,,,,,,,,,,,,,,,,,,,,30,,,,,,,,1682.2811323,1682.2811323,1682.2811323,1682.2811323,1682.2811323,right,0.5433691000002909,3,0,0,99,0.32,-0.4,right,0.45929530000023533,,,,,,,,,,,,,,,,,,,,,,,,,,,,,,,,,,,,,,,,,,,,,,,,,,,,,,,,,,,,FJFCRA,train_x,red_square,bottom_left,2025-09-25_17h01.51.938,HideSeek_v1,2022.2.5,59.97994270723117,
,3,0,8,0,5,0,66,,train_dim1_1,7,30,,,,2,0,2,0,,,,,,,,,0,0,0,0,0,6,6,6,5,0,5,0,,,,,,,,,,,,,,,,,,,,,,,,,,,,,,,,,,,,,,,,,,,,,,,,,,,,,,,,,,,,,,,,30,,,,,,,,1682.8323973000001,1682.8323973000001,1682.8323973000001,1682.8323973000001,1682.8323973000001,right,0.5935644000001048,3,0,0,99,0.4,-0.4,right,0.5116678999999067,,,,,,,,,,,,,,,,,,,,,,,,,,,,,,,,,,,,,,,,,,,,,,,,,,,,,,,,,,,,FJFCRA,train_x,red_square,bottom_left,2025-09-25_17h01.51.938,HideSeek_v1,2022.2.5,59.97994270723117,
,3,0,8,0,5,0,66,,train_dim1_1,7,30,,,,2,0,2,0,,,,,,,,,0,0,0,0,0,6,6,6,6,0,6,0,,,,,,,,,,,,,,,,,,,,,,,,,,,,,,,,,,,,,,,,,,,,,,,,,,,,,,,,,,,,,,,,30,,,,,,,,1683.4354994,1683.4354994,1683.4354994,1683.4354994,1683.4354994,return,1.4749932999998236,3,1,0,0,0.4,-0.4,return,1.3877229999999372,4,18,0.4,-0.4,,,,,,,,,,,,,,,,,,,,,,,,,,,,,,,,,,,,,,,,,,,,,,,,,,,,,,,,FJFCRA,train_x,red_square,bottom_left,2025-09-25_17h01.51.938,HideSeek_v1,2022.2.5,59.97994270723117,
,0,4,3,4,3,0,46,,train_dim1_1,8,30,,,,2,0,2,0,,,,,,,,,0,0,0,0,0,7,7,7,0,0,0,0,,,,,,,,,,,,,,,,,,,,,,,,,stimuli/alien_stimuli/46.png,,,,,,,,,,,,,,,,,,,,,,,,,,,,,stimuli/alien_stimuli/66.png,66,3,9,,,,,,,30,,,,,,,,1690.9139837000002,1690.9139837000002,1690.9139837000002,1690.9139837000002,1690.9139837000002,right,2.091988500000298,3,1,0,99,-0.08,-0.08,right,1.999329800000055,,,,,1689.3397217000002,1690.9139837000002,0.48,-0.4,0.0,0.4,-0.4,0.48,0.27999999999999997,0.48,-0.4,1686.4977466,1686.4977466,1686.4977466,1686.4977466,1686.4977466,1686.4977466,1686.4977466,1686.4977466,1686.4873698400002,2.9714278000001286,return,2.814998099999798,,,,,,,,,,,,,,,,,,,,,,,,,,,,,,,,,FJFCRA,train_x,red_square,bottom_left,2025-09-25_17h01.51.938,HideSeek_v1,2022.2.5,59.97994270723117,
,0,4,3,4,3,0,46,,train_dim1_1,8,30,,,,2,0,2,0,,,,,,,,,0,0,0,0,0,7,7,7,1,0,1,0,,,,,,,,,,,,,,,,,,,,,,,,,,,,,,,,,,,,,,,,,,,,,,,,,,,,,,,,,,,,,,,,30,,,,,,,,1693.0054833,1693.0054833,1693.0054833,1693.0054833,1693.0054833,right,1.2934201000002759,3,1,0,99,0.0,-0.08,right,1.214896000000067,,,,,,,,,,,,,,,,,,,,,,,,,,,,,,,,,,,,,,,,,,,,,,,,,,,,,,,,,,,,FJFCRA,train_x,red_square,bottom_left,2025-09-25_17h01.51.938,HideSeek_v1,2022.2.5,59.97994270723117,
,0,4,3,4,3,0,46,,train_dim1_1,8,30,,,,2,0,2,0,,,,,,,,,0,0,0,0,0,7,7,7,2,0,2,0,,,,,,,,,,,,,,,,,,,,,,,,,,,,,,,,,,,,,,,,,,,,,,,,,,,,,,,,,,,,,,,,30,,,,,,,,1694.3095310000003,1694.3095310000003,1694.3095310000003,1694.3095310000003,1694.3095310000003,return,3.7602953000000525,3,1,0,0,0.0,-0.08,return,3.6856673999997156,4,20,0.0,-0.08,,,,,,,,,,,,,,,,,,,,,,,,,,,,,,,,,,,,,,,,,,,,,,,,,,,,,,,,FJFCRA,train_x,red_square,bottom_left,2025-09-25_17h01.51.938,HideSeek_v1,2022.2.5,59.97994270723117,
,1,0,5,0,4,0,56,,train_dim1_1,9,30,,,,2,0,2,0,,,,,,,,,0,0,0,0,0,8,8,8,0,0,0,0,,,,,,,,,,,,,,,,,,,,,,,,,stimuli/alien_stimuli/56.png,,,,,,,,,,,,,,,,,,,,,,,,,,,,,stimuli/alien_stimuli/46.png,46,0,10,,,,,,,30,,,,,,,,1702.8471757000002,1702.8471757000002,1702.8471757000002,1702.8471757000002,1702.8471757000002,right,3.718590399999812,3,1,0,99,0.0,-0.4,right,3.6194928999999547,,,,,1701.2662102,1702.8471757000002,0.08,-0.08,0.0,0.24,-0.08,0.08,-0.04,0.08,-0.08,1699.6509755000002,1699.6509755000002,1699.6509755000002,1699.6509755000002,1699.6509755000002,1699.6509755000002,1699.6509755000002,1699.6509755000002,1699.6316294600003,1.7366608000002088,return,1.5913976999996748,,,,,,,,,,,,,,,,,,,,,,,,,,,,,,,,,FJFCRA,train_x,red_square,bottom_left,2025-09-25_17h01.51.938,HideSeek_v1,2022.2.5,59.97994270723117,
,1,0,5,0,4,0,56,,train_dim1_1,9,30,,,,2,0,2,0,,,,,,,,,0,0,0,0,0,8,8,8,1,0,1,0,,,,,,,,,,,,,,,,,,,,,,,,,,,,,,,,,,,,,,,,,,,,,,,,,,,,,,,,,,,,,,,,30,,,,,,,,1706.5540254000002,1706.5540254000002,1706.5540254000002,1706.5540254000002,1706.5540254000002,right,0.6263326000002962,3,1,0,99,0.08,-0.4,right,0.5500576000000592,,,,,,,,,,,,,,,,,,,,,,,,,,,,,,,,,,,,,,,,,,,,,,,,,,,,,,,,,,,,FJFCRA,train_x,red_square,bottom_left,2025-09-25_17h01.51.938,HideSeek_v1,2022.2.5,59.97994270723117,
,1,0,5,0,4,0,56,,train_dim1_1,9,30,,,,2,0,2,0,,,,,,,,,0,0,0,0,0,8,8,8,2,0,2,0,,,,,,,,,,,,,,,,,,,,,,,,,,,,,,,,,,,,,,,,,,,,,,,,,,,,,,,,,,,,,,,,30,,,,,,,,1707.1865189,1707.1865189,1707.1865189,1707.1865189,1707.1865189,right,0.5433318000000327,3,1,0,99,0.16,-0.4,right,0.45883950000018103,,,,,,,,,,,,,,,,,,,,,,,,,,,,,,,,,,,,,,,,,,,,,,,,,,,,,,,,,,,,FJFCRA,train_x,red_square,bottom_left,2025-09-25_17h01.51.938,HideSeek_v1,2022.2.5,59.97994270723117,
,1,0,5,0,4,0,56,,train_dim1_1,9,30,,,,2,0,2,0,,,,,,,,,0,0,0,0,0,8,8,8,3,0,3,0,,,,,,,,,,,,,,,,,,,,,,,,,,,,,,,,,,,,,,,,,,,,,,,,,,,,,,,,,,,,,,,,30,,,,,,,,1707.7426594000003,1707.7426594000003,1707.7426594000003,1707.7426594000003,1707.7426594000003,return,0.8439195999999356,3,1,0,0,0.16,-0.4,return,0.7527820999999904,4,23,0.16,-0.4,,,,,,,,,,,,,,,,,,,,,,,,,,,,,,,,,,,,,,,,,,,,,,,,,,,,,,,,FJFCRA,train_x,red_square,bottom_left,2025-09-25_17h01.51.938,HideSeek_v1,2022.2.5,59.97994270723117,
,0,3,0,3,0,0,16,,train_dim1_1,10,30,,,,2,0,2,0,,,,,,,,,0,0,0,0,0,9,9,9,0,0,0,0,,,,,,,,,,,,,,,,,,,,,,,,,stimuli/alien_stimuli/16.png,,,,,,,,,,,,,,,,,,,,,,,,,,,,,stimuli/alien_stimuli/56.png,56,1,11,,,,,,,30,,,,,,,,1713.1969147,1713.1969147,1713.1969147,1713.1969147,1713.1969147,return,2.6288418999997702,4,0,0,1,-0.16,-0.16,return,2.524100199999907,4,23,-0.16,-0.16,1711.6083010000002,1713.1969147,0.24,-0.4,0.0,0.32,-0.4,0.24,0.07999999999999999,0.24,-0.4,1710.1565773000002,1710.1565773000002,1710.1565773000002,1710.1565773000002,1710.1565773000002,1710.1565773000002,1710.1565773000002,1710.1565773000002,1710.1402111600003,1.5709836999999425,return,1.4334239999999454,,,,,,,,,,,,,,,,,,,,,,,,,,,,,,,,,FJFCRA,train_x,red_square,bottom_left,2025-09-25_17h01.51.938,HideSeek_v1,2022.2.5,59.97994270723117,
,2,2,5,2,3,0,46,,train_dim1_1,11,30,,,,2,0,2,0,,,,,,,,,0,0,0,0,0,10,10,10,0,0,0,0,,,,,,,,,,,,,,,,,,,,,,,,,stimuli/alien_stimuli/46.png,,,,,,,,,,,,,,,,,,,,,,,,,,,,,stimuli/alien_stimuli/16.png,16,0,12,,,,,,,30,,,,,,,,1720.3796712000003,1720.3796712000003,1720.3796712000003,1720.3796712000003,1720.3796712000003,right,1.8195713000000069,4,0,0,99,0.08,-0.24,right,1.7224721999997428,,,,,1718.8140983000003,1720.3796712000003,-0.16,-0.16,0.0,0.0,-0.16,-0.16,-0.16,-0.16,-0.16,1717.3735929,1717.3735929,1717.3735929,1717.3735929,1717.3735929,1717.3735929,1717.3735929,1717.3735929,1717.3630144600004,1.5536071999999876,return,1.4153072999998813,,,,,,,,,,,,,,,,,,,,,,,,,,,,,,,,,FJFCRA,train_x,red_square,bottom_left,2025-09-25_17h01.51.938,HideSeek_v1,2022.2.5,59.97994270723117,
,2,2,5,2,3,0,46,,train_dim1_1,11,30,,,,2,0,2,0,,,,,,,,,0,0,0,0,0,10,10,10,1,0,1,0,,,,,,,,,,,,,,,,,,,,,,,,,,,,,,,,,,,,,,,,,,,,,,,,,,,,,,,,,,,,,,,,30,,,,,,,,1722.1983910000004,1722.1983910000004,1722.1983910000004,1722.1983910000004,1722.1983910000004,right,0.42626430000018445,4,0,0,99,0.16,-0.24,right,0.34711780000009185,,,,,,,,,,,,,,,,,,,,,,,,,,,,,,,,,,,,,,,,,,,,,,,,,,,,,,,,,,,,FJFCRA,train_x,red_square,bottom_left,2025-09-25_17h01.51.938,HideSeek_v1,2022.2.5,59.97994270723117,
,2,2,5,2,3,0,46,,train_dim1_1,11,30,,,,2,0,2,0,,,,,,,,,0,0,0,0,0,10,10,10,2,0,2,0,,,,,,,,,,,,,,,,,,,,,,,,,,,,,,,,,,,,,,,,,,,,,,,,,,,,,,,,,,,,,,,,30,,,,,,,,1722.6322501,1722.6322501,1722.6322501,1722.6322501,1722.6322501,return,0.7095694999998159,4,1,0,0,0.16,-0.24,return,0.6221152999997912,4,25,0.16,-0.24,,,,,,,,,,,,,,,,,,,,,,,,,,,,,,,,,,,,,,,,,,,,,,,,,,,,,,,,FJFCRA,train_x,red_square,bottom_left,2025-09-25_17h01.51.938,HideSeek_v1,2022.2.5,59.97994270723117,
,0,0,1,0,1,0,26,,train_dim1_1,12,30,,,,2,0,2,0,,,,,,,,,0,0,0,0,0,11,11,11,0,0,0,0,,,,,,,,,,,,,,,,,,,,,,,,,stimuli/alien_stimuli/26.png,,,,,,,,,,,,,,,,,,,,,,,,,,,,,stimuli/alien_stimuli/46.png,46,2,13,,,,,,,30,,,,,,,,1727.8570817,1727.8570817,1727.8570817,1727.8570817,1727.8570817,right,1.5371189000002232,4,1,0,99,-0.08,-0.4,right,1.4316156000001001,,,,,1726.2700895000003,1727.8570817,0.24,-0.24,0.0,0.24,-0.24,0.24,0.12,0.24,-0.24,1724.9091261000003,1724.9091261000003,1724.9091261000003,1724.9091261000003,1724.9091261000003,1724.9091261000003,1724.9091261000003,1724.9091261000003,1724.9025347600002,1.470176199999969,return,1.3418952000002946,,,,,,,,,,,,,,,,,,,,,,,,,,,,,,,,,FJFCRA,train_x,red_square,bottom_left,2025-09-25_17h01.51.938,HideSeek_v1,2022.2.5,59.97994270723117,
,0,0,1,0,1,0,26,,train_dim1_1,12,30,,,,2,0,2,0,,,,,,,,,0,0,0,0,0,11,11,11,1,0,1,0,,,,,,,,,,,,,,,,,,,,,,,,,,,,,,,,,,,,,,,,,,,,,,,,,,,,,,,,,,,,,,,,30,,,,,,,,1729.3741642,1729.3741642,1729.3741642,1729.3741642,1729.3741642,return,0.49275760000000446,5,0,0,1,-0.08,-0.4,return,0.4111886000001732,4,26,-0.08,-0.4,,,,,,,,,,,,,,,,,,,,,,,,,,,,,,,,,,,,,,,,,,,,,,,,,,,,,,,,FJFCRA,train_x,red_square,bottom_left,2025-09-25_17h01.51.938,HideSeek_v1,2022.2.5,59.97994270723117,
,0,4,4,4,4,0,56,,train_dim1_1,13,30,,,,2,0,2,0,,,,,,,,,0,0,0,0,0,12,12,12,0,0,0,0,,,,,,,,,,,,,,,,,,,,,,,,,stimuli/alien_stimuli/56.png,,,,,,,,,,,,,,,,,,,,,,,,,,,,,stimuli/alien_stimuli/26.png,26,0,14,,,,,,,30,,,,,,,,1734.0726362,1734.0726362,1734.0726362,1734.0726362,1734.0726362,right,2.9400179000003845,5,0,0,99,-0.08,-0.08,right,2.856672200000162,,,,,1732.5089633000002,1734.0726362,-0.08,-0.4,0.0,0.08,-0.4,-0.08,-0.12,-0.08,-0.4,1731.4339423000001,1731.4339423000001,1731.4339423000001,1731.4339423000001,1731.4339423000001,1731.4339423000001,1731.4339423000001,1731.4339423000001,1731.4244376600002,1.1864003999999113,return,1.0454292999999097,,,,,,,,,,,,,,,,,,,,,,,,,,,,,,,,,FJFCRA,train_x,red_square,bottom_left,2025-09-25_17h01.51.938,HideSeek_v1,2022.2.5,59.97994270723117,
,0,4,4,4,4,0,56,,train_dim1_1,13,30,,,,2,0,2,0,,,,,,,,,0,0,0,0,0,12,12,12,1,0,1,0,,,,,,,,,,,,,,,,,,,,,,,,,,,,,,,,,,,,,,,,,,,,,,,,,,,,,,,,,,,,,,,,30,,,,,,,,1737.0121772000002,1737.0121772000002,1737.0121772000002,1737.0121772000002,1737.0121772000002,right,0.4428444000000127,5,0,0,99,0.0,-0.08,right,0.3631734000001643,,,,,,,,,,,,,,,,,,,,,,,,,,,,,,,,,,,,,,,,,,,,,,,,,,,,,,,,,,,,FJFCRA,train_x,red_square,bottom_left,2025-09-25_17h01.51.938,HideSeek_v1,2022.2.5,59.97994270723117,
,0,4,4,4,4,0,56,,train_dim1_1,13,30,,,,2,0,2,0,,,,,,,,,0,0,0,0,0,12,12,12,2,0,2,0,,,,,,,,,,,,,,,,,,,,,,,,,,,,,,,,,,,,,,,,,,,,,,,,,,,,,,,,,,,,,,,,30,,,,,,,,1737.4622168,1737.4622168,1737.4622168,1737.4622168,1737.4622168,right,0.39353699999992386,5,0,0,99,0.08,-0.08,right,0.30651899999986654,,,,,,,,,,,,,,,,,,,,,,,,,,,,,,,,,,,,,,,,,,,,,,,,,,,,,,,,,,,,FJFCRA,train_x,red_square,bottom_left,2025-09-25_17h01.51.938,HideSeek_v1,2022.2.5,59.97994270723117,
,0,4,4,4,4,0,56,,train_dim1_1,13,30,,,,2,0,2,0,,,,,,,,,0,0,0,0,0,12,12,12,3,0,3,0,,,,,,,,,,,,,,,,,,,,,,,,,,,,,,,,,,,,,,,,,,,,,,,,,,,,,,,,,,,,,,,,30,,,,,,,,1737.8622774,1737.8622774,1737.8622774,1737.8622774,1737.8622774,return,0.960550400000102,5,1,0,0,0.08,-0.08,return,0.8731045000000677,4,29,0.08,-0.08,,,,,,,,,,,,,,,,,,,,,,,,,,,,,,,,,,,,,,,,,,,,,,,,,,,,,,,,FJFCRA,train_x,red_square,bottom_left,2025-09-25_17h01.51.938,HideSeek_v1,2022.2.5,59.97994270723117,
,4,3,4,3,0,0,16,,train_dim1_1,14,30,,,,2,0,2,0,,,,,,,,,0,0,0,0,0,13,13,13,0,0,0,0,,,,,,,,,,,,,,,,,,,,,,,,,stimuli/alien_stimuli/16.png,,,,,,,,,,,,,,,,,,,,,,,,,,,,,stimuli/alien_stimuli/56.png,56,0,15,,,,,,,30,,,,,,,,1743.2439765000004,1743.2439765000004,1743.2439765000004,1743.2439765000004,1743.2439765000004,return,1.5217382000000725,6,0,0,1,0.16,-0.16,return,1.4162228000001278,4,29,0.16,-0.16,1741.6661000000004,1743.2439765000004,0.16,-0.08,0.0,0.32,-0.08,0.16,0.0,0.16,-0.08,1740.3894319,1740.3894319,1740.3894319,1740.3894319,1740.3894319,1740.3894319,1740.3894319,1740.3894319,1740.3819372600003,1.3865403999998307,return,1.2531540999999606,,,,,,,,,,,,,,,,,,,,,,,,,,,,,,,,,FJFCRA,train_x,red_square,bottom_left,2025-09-25_17h01.51.938,HideSeek_v1,2022.2.5,59.97994270723117,
,4,2,9,2,5,0,66,,train_dim1_1,15,30,,,,2,0,2,0,,,,,,,,,0,0,0,0,0,14,14,14,0,0,0,0,,,,,,,,,,,,,,,,,,,,,,,,,stimuli/alien_stimuli/66.png,,,,,,,,,,,,,,,,,,,,,,,,,,,,,stimuli/alien_stimuli/16.png,16,4,16,,,,,,,30,,,,,,,,1749.1182321000001,1749.1182321000001,1749.1182321000001,1749.1182321000001,1749.1182321000001,right,1.503378100000191,6,0,0,99,0.24,-0.24,right,1.4160027999997737,,,,,1747.5545867,1749.1182321000001,0.16,-0.16,0.0,0.0,-0.16,0.16,0.16,0.16,-0.16,1746.3183214,1746.3183214,1746.3183214,1746.3183214,1746.3183214,1746.3183214,1746.3183214,1746.3183214,1746.3036132600002,1.352893999999651,return,1.2095611999999392,,,,,,,,,,,,,,,,,,,,,,,,,,,,,,,,,FJFCRA,train_x,red_square,bottom_left,2025-09-25_17h01.51.938,HideSeek_v1,2022.2.5,59.97994270723117,
,4,2,9,2,5,0,66,,train_dim1_1,15,30,,,,2,0,2,0,,,,,,,,,0,0,0,0,0,14,14,14,1,0,1,0,,,,,,,,,,,,,,,,,,,,,,,,,,,,,,,,,,,,,,,,,,,,,,,,,,,,,,,,,,,,,,,,30,,,,,,,,1750.6226375,1750.6226375,1750.6226375,1750.6226375,1750.6226375,right,0.6929878999999346,6,0,0,99,0.32,-0.24,right,0.6134482000003345,,,,,,,,,,,,,,,,,,,,,,,,,,,,,,,,,,,,,,,,,,,,,,,,,,,,,,,,,,,,FJFCRA,train_x,red_square,bottom_left,2025-09-25_17h01.51.938,HideSeek_v1,2022.2.5,59.97994270723117,
,4,2,9,2,5,0,66,,train_dim1_1,15,30,,,,2,0,2,0,,,,,,,,,0,0,0,0,0,14,14,14,2,0,2,0,,,,,,,,,,,,,,,,,,,,,,,,,,,,,,,,,,,,,,,,,,,,,,,,,,,,,,,,,,,,,,,,30,,,,,,,,1751.3226016000003,1751.3226016000003,1751.3226016000003,1751.3226016000003,1751.3226016000003,right,0.9429025000004003,6,0,0,99,0.4,-0.24,right,0.8640507999999727,,,,,,,,,,,,,,,,,,,,,,,,,,,,,,,,,,,,,,,,,,,,,,,,,,,,,,,,,,,,FJFCRA,train_x,red_square,bottom_left,2025-09-25_17h01.51.938,HideSeek_v1,2022.2.5,59.97994270723117,
,4,2,9,2,5,0,66,,train_dim1_1,15,30,,,,2,0,2,0,,,,,,,,,0,0,0,0,0,14,14,14,3,0,3,0,,,,,,,,,,,,,,,,,,,,,,,,,,,,,,,,,,,,,,,,,,,,,,,,,,,,,,,,,,,,,,,,30,,,,,,,,1752.2719431,1752.2719431,1752.2719431,1752.2719431,1752.2719431,right,0.5767252000000553,6,0,0,99,0.48000000000000004,-0.24,right,0.5033573000001752,,,,,,,,,,,,,,,,,,,,,,,,,,,,,,,,,,,,,,,,,,,,,,,,,,,,,,,,,,,,FJFCRA,train_x,red_square,bottom_left,2025-09-25_17h01.51.938,HideSeek_v1,2022.2.5,59.97994270723117,
,4,2,9,2,5,0,66,,train_dim1_1,15,30,,,,2,0,2,0,,,,,,,,,0,0,0,0,0,14,14,14,4,0,4,0,,,,,,,,,,,,,,,,,,,,,,,,,,,,,,,,,,,,,,,,,,,,,,,,,,,,,,,,,,,,,,,,30,,,,,,,,1752.8570287000002,1752.8570287000002,1752.8570287000002,1752.8570287000002,1752.8570287000002,right,0.49352630000021236,6,0,0,99,0.56,-0.24,right,0.41209760000003826,,,,,,,,,,,,,,,,,,,,,,,,,,,,,,,,,,,,,,,,,,,,,,,,,,,,,,,,,,,,FJFCRA,train_x,red_square,bottom_left,2025-09-25_17h01.51.938,HideSeek_v1,2022.2.5,59.97994270723117,
,4,2,9,2,5,0,66,,train_dim1_1,15,30,,,,2,0,2,0,,,,,,,,,0,0,0,0,0,14,14,14,5,0,5,0,,,,,,,,,,,,,,,,,,,,,,,,,,,,,,,,,,,,,,,,,,,,,,,,,,,,,,,,,,,,,,,,30,,,,,,,,1753.3574447,1753.3574447,1753.3574447,1753.3574447,1753.3574447,return,0.6260692999999264,7,0,0,1,0.56,-0.24,return,0.5431874000001926,4,34,0.56,-0.24,,,,,,,,,,,,,,,,,,,,,,,,,,,,,,,,,,,,,,,,,,,,,,,,,,,,,,,,FJFCRA,train_x,red_square,bottom_left,2025-09-25_17h01.51.938,HideSeek_v1,2022.2.5,59.97994270723117,
,3,3,7,3,4,0,56,,train_dim1_1,16,30,,,,2,0,2,0,,,,,,,,,0,0,0,0,0,15,15,15,0,0,0,0,,,,,,,,,,,,,,,,,,,,,,,,,stimuli/alien_stimuli/56.png,,,,,,,,,,,,,,,,,,,,,,,,,,,,,stimuli/alien_stimuli/66.png,66,4,17,,,,,,,30,,,,,,,,1758.1231596000002,1758.1231596000002,1758.1231596000002,1758.1231596000002,1758.1231596000002,right,1.9678358999999546,7,0,0,99,0.16,-0.16,right,1.8651164999997718,,,,,1756.5455430000002,1758.1231596000002,0.56,-0.24,0.0,0.4,-0.24,0.56,0.36000000000000004,0.56,-0.24,1755.5480671,1755.5480671,1755.5480671,1755.5480671,1755.5480671,1755.5480671,1755.5480671,1755.5480671,1755.5279595800002,1.103983700000299,return,0.973129399999948,,,,,,,,,,,,,,,,,,,,,,,,,,,,,,,,,FJFCRA,train_x,red_square,bottom_left,2025-09-25_17h01.51.938,HideSeek_v1,2022.2.5,59.97994270723117,
,3,3,7,3,4,0,56,,train_dim1_1,16,30,,,,2,0,2,0,,,,,,,,,0,0,0,0,0,15,15,15,1,0,1,0,,,,,,,,,,,,,,,,,,,,,,,,,,,,,,,,,,,,,,,,,,,,,,,,,,,,,,,,,,,,,,,,30,,,,,,,,1760.0820642000003,1760.0820642000003,1760.0820642000003,1760.0820642000003,1760.0820642000003,right,0.4587664999999106,7,0,0,99,0.24,-0.16,right,0.38084619999983715,,,,,,,,,,,,,,,,,,,,,,,,,,,,,,,,,,,,,,,,,,,,,,,,,,,,,,,,,,,,FJFCRA,train_x,red_square,bottom_left,2025-09-25_17h01.51.938,HideSeek_v1,2022.2.5,59.97994270723117,
,3,3,7,3,4,0,56,,train_dim1_1,16,30,,,,2,0,2,0,,,,,,,,,0,0,0,0,0,15,15,15,2,0,2,0,,,,,,,,,,,,,,,,,,,,,,,,,,,,,,,,,,,,,,,,,,,,,,,,,,,,,,,,,,,,,,,,30,,,,,,,,1760.5471957,1760.5471957,1760.5471957,1760.5471957,1760.5471957,right,0.4601137999998173,7,0,0,99,0.32,-0.16,right,0.37815980000016225,,,,,,,,,,,,,,,,,,,,,,,,,,,,,,,,,,,,,,,,,,,,,,,,,,,,,,,,,,,,FJFCRA,train_x,red_square,bottom_left,2025-09-25_17h01.51.938,HideSeek_v1,2022.2.5,59.97994270723117,
,3,3,7,3,4,0,56,,train_dim1_1,16,30,,,,2,0,2,0,,,,,,,,,0,0,0,0,0,15,15,15,3,0,3,0,,,,,,,,,,,,,,,,,,,,,,,,,,,,,,,,,,,,,,,,,,,,,,,,,,,,,,,,,,,,,,,,30,,,,,,,,1761.0143592,1761.0143592,1761.0143592,1761.0143592,1761.0143592,right,0.3934324000001652,7,0,0,99,0.4,-0.16,right,0.31776430000002165,,,,,,,,,,,,,,,,,,,,,,,,,,,,,,,,,,,,,,,,,,,,,,,,,,,,,,,,,,,,FJFCRA,train_x,red_square,bottom_left,2025-09-25_17h01.51.938,HideSeek_v1,2022.2.5,59.97994270723117,
,3,3,7,3,4,0,56,,train_dim1_1,16,30,,,,2,0,2,0,,,,,,,,,0,0,0,0,0,15,15,15,4,0,4,0,,,,,,,,,,,,,,,,,,,,,,,,,,,,,,,,,,,,,,,,,,,,,,,,,,,,,,,,,,,,,,,,30,,,,,,,,1761.4153407000003,1761.4153407000003,1761.4153407000003,1761.4153407000003,1761.4153407000003,return,0.4765747999999803,8,0,0,1,0.4,-0.16,return,0.3867400000000316,4,38,0.4,-0.16,,,,,,,,,,,,,,,,,,,,,,,,,,,,,,,,,,,,,,,,,,,,,,,,,,,,,,,,FJFCRA,train_x,red_square,bottom_left,2025-09-25_17h01.51.938,HideSeek_v1,2022.2.5,59.97994270723117,
,2,4,3,4,1,0,26,,train_dim1_1,17,30,,,,2,0,2,0,,,,,,,,,0,0,0,0,0,16,16,16,0,0,0,0,,,,,,,,,,,,,,,,,,,,,,,,,stimuli/alien_stimuli/26.png,,,,,,,,,,,,,,,,,,,,,,,,,,,,,stimuli/alien_stimuli/56.png,56,3,18,,,,,,,30,,,,,,,,1765.8631032000003,1765.8631032000003,1765.8631032000003,1765.8631032000003,1765.8631032000003,right,1.0049767999998949,8,0,0,99,0.08,-0.08,right,0.8995990999998185,,,,,1764.2853303000002,1765.8631032000003,0.4,-0.16,0.0,0.32,-0.16,0.4,0.24000000000000002,0.4,-0.16,1763.4578212000001,1763.4578212000001,1763.4578212000001,1763.4578212000001,1763.4578212000001,1763.4578212000001,1763.4578212000001,1763.4578212000001,1763.4512681600002,0.936119399999825,return,0.7991852999999765,,,,,,,,,,,,,,,,,,,,,,,,,,,,,,,,,FJFCRA,train_x,red_square,bottom_left,2025-09-25_17h01.51.938,HideSeek_v1,2022.2.5,59.97994270723117,
,2,4,3,4,1,0,26,,train_dim1_1,17,30,,,,2,0,2,0,,,,,,,,,0,0,0,0,0,16,16,16,1,0,1,0,,,,,,,,,,,,,,,,,,,,,,,,,,,,,,,,,,,,,,,,,,,,,,,,,,,,,,,,,,,,,,,,30,,,,,,,,1766.8560354,1766.8560354,1766.8560354,1766.8560354,1766.8560354,right,0.3262152000002061,8,0,0,99,0.16,-0.08,right,0.24762349999957678,,,,,,,,,,,,,,,,,,,,,,,,,,,,,,,,,,,,,,,,,,,,,,,,,,,,,,,,,,,,FJFCRA,train_x,red_square,bottom_left,2025-09-25_17h01.51.938,HideSeek_v1,2022.2.5,59.97994270723117,
,2,4,3,4,1,0,26,,train_dim1_1,17,30,,,,2,0,2,0,,,,,,,,,0,0,0,0,0,16,16,16,2,0,2,0,,,,,,,,,,,,,,,,,,,,,,,,,,,,,,,,,,,,,,,,,,,,,,,,,,,,,,,,,,,,,,,,30,,,,,,,,1767.1873632000002,1767.1873632000002,1767.1873632000002,1767.1873632000002,1767.1873632000002,left,1.727599000000282,8,0,0,99,0.08,-0.08,left,1.638737800000058,,,,,,,,,,,,,,,,,,,,,,,,,,,,,,,,,,,,,,,,,,,,,,,,,,,,,,,,,,,,FJFCRA,train_x,red_square,bottom_left,2025-09-25_17h01.51.938,HideSeek_v1,2022.2.5,59.97994270723117,
,2,4,3,4,1,0,26,,train_dim1_1,17,30,,,,2,0,2,0,,,,,,,,,0,0,0,0,0,16,16,16,3,0,3,0,,,,,,,,,,,,,,,,,,,,,,,,,,,,,,,,,,,,,,,,,,,,,,,,,,,,,,,,,,,,,,,,30,,,,,,,,1768.9229553,1768.9229553,1768.9229553,1768.9229553,1768.9229553,left,1.5110773999999765,8,0,0,99,0.0,-0.08,left,1.41900999999973,,,,,,,,,,,,,,,,,,,,,,,,,,,,,,,,,,,,,,,,,,,,,,,,,,,,,,,,,,,,FJFCRA,train_x,red_square,bottom_left,2025-09-25_17h01.51.938,HideSeek_v1,2022.2.5,59.97994270723117,
,2,4,3,4,1,0,26,,train_dim1_1,17,30,,,,2,0,2,0,,,,,,,,,0,0,0,0,0,16,16,16,4,0,4,0,,,,,,,,,,,,,,,,,,,,,,,,,,,,,,,,,,,,,,,,,,,,,,,,,,,,,,,,,,,,,,,,30,,,,,,,,1770.4417469,1770.4417469,1770.4417469,1770.4417469,1770.4417469,return,0.4094100000002072,8,1,0,0,0.0,-0.08,return,0.31730260000006183,4,38,0.0,-0.08,,,,,,,,,,,,,,,,,,,,,,,,,,,,,,,,,,,,,,,,,,,,,,,,,,,,,,,,FJFCRA,train_x,red_square,bottom_left,2025-09-25_17h01.51.938,HideSeek_v1,2022.2.5,59.97994270723117,
,2,1,7,1,5,0,66,,train_dim1_1,18,30,,,,2,0,2,0,,,,,,,,,0,0,0,0,0,17,17,17,0,0,0,0,,,,,,,,,,,,,,,,,,,,,,,,,stimuli/alien_stimuli/66.png,,,,,,,,,,,,,,,,,,,,,,,,,,,,,stimuli/alien_stimuli/26.png,26,2,19,,,,,,,30,,,,,,,,1775.1230904000004,1775.1230904000004,1775.1230904000004,1775.1230904000004,1775.1230904000004,right,1.1643654999998034,8,1,0,99,0.08,-0.32,right,1.0577570000001515,,,,,1773.5429199,1775.1230904000004,0.08,-0.08,0.0,0.08,-0.08,0.08,0.04,0.08,-0.08,1772.4227173,1772.4227173,1772.4227173,1772.4227173,1772.4227173,1772.4227173,1772.4227173,1772.4227173,1772.4087223600002,1.2369158000001335,return,1.0903933999999254,,,,,,,,,,,,,,,,,,,,,,,,,,,,,,,,,FJFCRA,train_x,red_square,bottom_left,2025-09-25_17h01.51.938,HideSeek_v1,2022.2.5,59.97994270723117,
,2,1,7,1,5,0,66,,train_dim1_1,18,30,,,,2,0,2,0,,,,,,,,,0,0,0,0,0,17,17,17,1,0,1,0,,,,,,,,,,,,,,,,,,,,,,,,,,,,,,,,,,,,,,,,,,,,,,,,,,,,,,,,,,,,,,,,30,,,,,,,,1776.2767595,1776.2767595,1776.2767595,1776.2767595,1776.2767595,right,0.3591514999998253,8,1,0,99,0.16,-0.32,right,0.27185449999990396,,,,,,,,,,,,,,,,,,,,,,,,,,,,,,,,,,,,,,,,,,,,,,,,,,,,,,,,,,,,FJFCRA,train_x,red_square,bottom_left,2025-09-25_17h01.51.938,HideSeek_v1,2022.2.5,59.97994270723117,
,2,1,7,1,5,0,66,,train_dim1_1,18,30,,,,2,0,2,0,,,,,,,,,0,0,0,0,0,17,17,17,2,0,2,0,,,,,,,,,,,,,,,,,,,,,,,,,,,,,,,,,,,,,,,,,,,,,,,,,,,,,,,,,,,,,,,,30,,,,,,,,1776.6436795,1776.6436795,1776.6436795,1776.6436795,1776.6436795,right,0.3759294999999838,8,1,0,99,0.24,-0.32,right,0.2952953000000207,,,,,,,,,,,,,,,,,,,,,,,,,,,,,,,,,,,,,,,,,,,,,,,,,,,,,,,,,,,,FJFCRA,train_x,red_square,bottom_left,2025-09-25_17h01.51.938,HideSeek_v1,2022.2.5,59.97994270723117,
,2,1,7,1,5,0,66,,train_dim1_1,18,30,,,,2,0,2,0,,,,,,,,,0,0,0,0,0,17,17,17,3,0,3,0,,,,,,,,,,,,,,,,,,,,,,,,,,,,,,,,,,,,,,,,,,,,,,,,,,,,,,,,,,,,,,,,30,,,,,,,,1777.033935,1777.033935,1777.033935,1777.033935,1777.033935,right,0.3884322999997494,8,1,0,99,0.32,-0.32,right,0.3039078000002746,,,,,,,,,,,,,,,,,,,,,,,,,,,,,,,,,,,,,,,,,,,,,,,,,,,,,,,,,,,,FJFCRA,train_x,red_square,bottom_left,2025-09-25_17h01.51.938,HideSeek_v1,2022.2.5,59.97994270723117,
,2,1,7,1,5,0,66,,train_dim1_1,18,30,,,,2,0,2,0,,,,,,,,,0,0,0,0,0,17,17,17,4,0,4,0,,,,,,,,,,,,,,,,,,,,,,,,,,,,,,,,,,,,,,,,,,,,,,,,,,,,,,,,,,,,,,,,30,,,,,,,,1777.4299265,1777.4299265,1777.4299265,1777.4299265,1777.4299265,right,0.40730989999974554,8,1,0,99,0.4,-0.32,right,0.33351890000005824,,,,,,,,,,,,,,,,,,,,,,,,,,,,,,,,,,,,,,,,,,,,,,,,,,,,,,,,,,,,FJFCRA,train_x,red_square,bottom_left,2025-09-25_17h01.51.938,HideSeek_v1,2022.2.5,59.97994270723117,
,2,1,7,1,5,0,66,,train_dim1_1,18,30,,,,2,0,2,0,,,,,,,,,0,0,0,0,0,17,17,17,5,0,5,0,,,,,,,,,,,,,,,,,,,,,,,,,,,,,,,,,,,,,,,,,,,,,,,,,,,,,,,,,,,,,,,,30,,,,,,,,1777.8437667000003,1777.8437667000003,1777.8437667000003,1777.8437667000003,1777.8437667000003,return,0.5265641999999389,9,0,0,1,0.4,-0.32,return,0.44548290000022917,4,43,0.4,-0.32,,,,,,,,,,,,,,,,,,,,,,,,,,,,,,,,,,,,,,,,,,,,,,,,,,,,,,,,FJFCRA,train_x,red_square,bottom_left,2025-09-25_17h01.51.938,HideSeek_v1,2022.2.5,59.97994270723117,
,0,3,3,3,3,0,46,,train_dim1_1,19,30,,,,2,0,2,0,,,,,,,,,0,0,0,0,0,18,18,18,0,0,0,0,,,,,,,,,,,,,,,,,,,,,,,,,stimuli/alien_stimuli/46.png,,,,,,,,,,,,,,,,,,,,,,,,,,,,,stimuli/alien_stimuli/66.png,66,2,20,,,,,,,30,,,,,,,,1782.5571247000003,1782.5571247000003,1782.5571247000003,1782.5571247000003,1782.5571247000003,right,2.9765846999998757,9,0,0,99,-0.08,-0.16,right,2.8860559999999396,,,,,1780.9824228000002,1782.5571247000003,0.4,-0.32,0.0,0.4,-0.32,0.4,0.2,0.4,-0.32,1779.9315206,1779.9315206,1779.9315206,1779.9315206,1779.9315206,1779.9315206,1779.9315206,1779.9315206,1779.9144617800002,1.1535463999998683,return,1.027923300000225,,,,,,,,,,,,,,,,,,,,,,,,,,,,,,,,,FJFCRA,train_x,red_square,bottom_left,2025-09-25_17h01.51.938,HideSeek_v1,2022.2.5,59.97994270723117,
,0,3,3,3,3,0,46,,train_dim1_1,19,30,,,,2,0,2,0,,,,,,,,,0,0,0,0,0,18,18,18,1,0,1,0,,,,,,,,,,,,,,,,,,,,,,,,,,,,,,,,,,,,,,,,,,,,,,,,,,,,,,,,,,,,,,,,30,,,,,,,,1785.5341125,1785.5341125,1785.5341125,1785.5341125,1785.5341125,right,0.493062000000009,9,0,0,99,0.0,-0.16,right,0.4128235999997969,,,,,,,,,,,,,,,,,,,,,,,,,,,,,,,,,,,,,,,,,,,,,,,,,,,,,,,,,,,,FJFCRA,train_x,red_square,bottom_left,2025-09-25_17h01.51.938,HideSeek_v1,2022.2.5,59.97994270723117,
,0,3,3,3,3,0,46,,train_dim1_1,19,30,,,,2,0,2,0,,,,,,,,,0,0,0,0,0,18,18,18,2,0,2,0,,,,,,,,,,,,,,,,,,,,,,,,,,,,,,,,,,,,,,,,,,,,,,,,,,,,,,,,,,,,,,,,30,,,,,,,,1786.0329455,1786.0329455,1786.0329455,1786.0329455,1786.0329455,right,1.7273548000002847,9,0,0,99,0.08,-0.16,right,1.6554188000001204,,,,,,,,,,,,,,,,,,,,,,,,,,,,,,,,,,,,,,,,,,,,,,,,,,,,,,,,,,,,FJFCRA,train_x,red_square,bottom_left,2025-09-25_17h01.51.938,HideSeek_v1,2022.2.5,59.97994270723117,
,0,3,3,3,3,0,46,,train_dim1_1,19,30,,,,2,0,2,0,,,,,,,,,0,0,0,0,0,18,18,18,3,0,3,0,,,,,,,,,,,,,,,,,,,,,,,,,,,,,,,,,,,,,,,,,,,,,,,,,,,,,,,,,,,,,,,,30,,,,,,,,1787.7713291,1787.7713291,1787.7713291,1787.7713291,1787.7713291,return,0.407552300000134,10,0,0,1,0.08,-0.16,return,0.3289244999997436,4,46,0.08,-0.16,,,,,,,,,,,,,,,,,,,,,,,,,,,,,,,,,,,,,,,,,,,,,,,,,,,,,,,,FJFCRA,train_x,red_square,bottom_left,2025-09-25_17h01.51.938,HideSeek_v1,2022.2.5,59.97994270723117,
,0,1,0,1,0,0,16,,train_dim1_1,20,30,,,,2,0,2,0,,,,,,,,,0,0,0,0,0,19,19,19,0,0,0,0,,,,,,,,,,,,,,,,,,,,,,,,,stimuli/alien_stimuli/16.png,,,,,,,,,,,,,,,,,,,,,,,,,,,,,stimuli/alien_stimuli/46.png,46,0,21,,,,,,,30,,,,,,,,1792.2814966,1792.2814966,1792.2814966,1792.2814966,1792.2814966,return,1.7311798000000636,11,0,0,1,-0.16,-0.32,return,1.6316961999997375,4,46,-0.16,-0.32,1790.7071047,1792.2814966,0.08,-0.16,0.0,0.24,-0.16,0.08,-0.04,0.08,-0.16,1789.7518974,1789.7518974,1789.7518974,1789.7518974,1789.7518974,1789.7518974,1789.7518974,1789.7518974,1789.7400704600002,1.0688892999996824,return,0.935876900000153,,,,,,,,,,,,,,,,,,,,,,,,,,,,,,,,,FJFCRA,train_x,red_square,bottom_left,2025-09-25_17h01.51.938,HideSeek_v1,2022.2.5,59.97994270723117,
,4,2,7,2,3,0,46,,train_dim1_1,21,30,,,,2,0,2,0,,,,,,,,,0,0,0,0,0,20,20,20,0,0,0,0,,,,,,,,,,,,,,,,,,,,,,,,,stimuli/alien_stimuli/46.png,,,,,,,,,,,,,,,,,,,,,,,,,,,,,stimuli/alien_stimuli/16.png,16,0,22,,,,,,,30,,,,,,,,1797.9919935000003,1797.9919935000003,1797.9919935000003,1797.9919935000003,1797.9919935000003,right,2.2024207999998,11,0,0,99,0.24,-0.24,right,2.1189937000000327,,,,,1796.4285185000003,1797.9919935000003,-0.16,-0.32,0.0,0.0,-0.32,-0.16,-0.16,-0.16,-0.32,1795.5776704,1795.5776704,1795.5776704,1795.5776704,1795.5776704,1795.5776704,1795.5776704,1795.5776704,1795.5613120600003,0.9691905999998198,return,0.8237027999999782,,,,,,,,,,,,,,,,,,,,,,,,,,,,,,,,,FJFCRA,train_x,red_square,bottom_left,2025-09-25_17h01.51.938,HideSeek_v1,2022.2.5,59.97994270723117,
,4,2,7,2,3,0,46,,train_dim1_1,21,30,,,,2,0,2,0,,,,,,,,,0,0,0,0,0,20,20,20,1,0,1,0,,,,,,,,,,,,,,,,,,,,,,,,,,,,,,,,,,,,,,,,,,,,,,,,,,,,,,,,,,,,,,,,30,,,,,,,,1800.1975917,1800.1975917,1800.1975917,1800.1975917,1800.1975917,right,0.8586049000000457,11,0,0,99,0.32,-0.24,right,0.7825374000000238,,,,,,,,,,,,,,,,,,,,,,,,,,,,,,,,,,,,,,,,,,,,,,,,,,,,,,,,,,,,FJFCRA,train_x,red_square,bottom_left,2025-09-25_17h01.51.938,HideSeek_v1,2022.2.5,59.97994270723117,
,4,2,7,2,3,0,46,,train_dim1_1,21,30,,,,2,0,2,0,,,,,,,,,0,0,0,0,0,20,20,20,2,0,2,0,,,,,,,,,,,,,,,,,,,,,,,,,,,,,,,,,,,,,,,,,,,,,,,,,,,,,,,,,,,,,,,,30,,,,,,,,1801.0661808,1801.0661808,1801.0661808,1801.0661808,1801.0661808,right,0.5734176999999363,11,0,0,99,0.4,-0.24,right,0.4907287000002043,,,,,,,,,,,,,,,,,,,,,,,,,,,,,,,,,,,,,,,,,,,,,,,,,,,,,,,,,,,,FJFCRA,train_x,red_square,bottom_left,2025-09-25_17h01.51.938,HideSeek_v1,2022.2.5,59.97994270723117,
,4,2,7,2,3,0,46,,train_dim1_1,21,30,,,,2,0,2,0,,,,,,,,,0,0,0,0,0,20,20,20,3,0,3,0,,,,,,,,,,,,,,,,,,,,,,,,,,,,,,,,,,,,,,,,,,,,,,,,,,,,,,,,,,,,,,,,30,,,,,,,,1801.6472601,1801.6472601,1801.6472601,1801.6472601,1801.6472601,return,2.2115553999997246,12,0,0,1,0.4,-0.24,return,2.1282092999996394,4,49,0.4,-0.24,,,,,,,,,,,,,,,,,,,,,,,,,,,,,,,,,,,,,,,,,,,,,,,,,,,,,,,,FJFCRA,train_x,red_square,bottom_left,2025-09-25_17h01.51.938,HideSeek_v1,2022.2.5,59.97994270723117,
,1,0,2,0,1,0,26,,train_dim1_1,22,30,,,,2,0,2,0,,,,,,,,,0,0,0,0,0,21,21,21,0,0,0,0,,,,,,,,,,,,,,,,,,,,,,,,,stimuli/alien_stimuli/26.png,,,,,,,,,,,,,,,,,,,,,,,,,,,,,stimuli/alien_stimuli/46.png,46,4,23,,,,,,,30,,,,,,,,1807.836651,1807.836651,1807.836651,1807.836651,1807.836651,right,1.401586800000132,12,0,0,99,0.0,-0.4,right,1.2876640000000634,,,,,1806.253381,1807.836651,0.4,-0.24,0.0,0.24,-0.24,0.4,0.28,0.4,-0.24,1805.4253594000002,1805.4253594000002,1805.4253594000002,1805.4253594000002,1805.4253594000002,1805.4253594000002,1805.4253594000002,1805.4253594000002,1805.4028591800002,0.9360768999999891,return,0.8040954999997894,,,,,,,,,,,,,,,,,,,,,,,,,,,,,,,,,FJFCRA,train_x,red_square,bottom_left,2025-09-25_17h01.51.938,HideSeek_v1,2022.2.5,59.97994270723117,
,1,0,2,0,1,0,26,,train_dim1_1,22,30,,,,2,0,2,0,,,,,,,,,0,0,0,0,0,21,21,21,1,0,1,0,,,,,,,,,,,,,,,,,,,,,,,,,,,,,,,,,,,,,,,,,,,,,,,,,,,,,,,,,,,,,,,,30,,,,,,,,1809.2249715000003,1809.2249715000003,1809.2249715000003,1809.2249715000003,1809.2249715000003,return,0.3764893999996275,13,0,0,1,0.0,-0.4,return,0.2953346999998985,4,50,0.0,-0.4,,,,,,,,,,,,,,,,,,,,,,,,,,,,,,,,,,,,,,,,,,,,,,,,,,,,,,,,FJFCRA,train_x,red_square,bottom_left,2025-09-25_17h01.51.938,HideSeek_v1,2022.2.5,59.97994270723117,
,2,1,7,1,5,0,66,,train_dim1_1,23,30,,,,2,0,2,0,,,,,,,,,0,0,0,0,0,22,22,22,0,0,0,0,,,,,,,,,,,,,,,,,,,,,,,,,stimuli/alien_stimuli/66.png,,,,,,,,,,,,,,,,,,,,,,,,,,,,,stimuli/alien_stimuli/26.png,26,1,24,,,,,,,30,,,,,,,,1813.5130359,1813.5130359,1813.5130359,1813.5130359,1813.5130359,right,0.9566248999999516,13,0,0,99,0.08,-0.32,right,0.8606909000001224,,,,,1811.9413643000003,1813.5130359,0,-0.4,0.0,0.08,-0.4,0,-0.04,0,-0.4,1811.1691703000001,1811.1691703000001,1811.1691703000001,1811.1691703000001,1811.1691703000001,1811.1691703000001,1811.1691703000001,1811.1691703000001,1811.1575207600001,0.8862994999999501,return,0.752244700000233,,,,,,,,,,,,,,,,,,,,,,,,,,,,,,,,,FJFCRA,train_x,red_square,bottom_left,2025-09-25_17h01.51.938,HideSeek_v1,2022.2.5,59.97994270723117,
,2,1,7,1,5,0,66,,train_dim1_1,23,30,,,,2,0,2,0,,,,,,,,,0,0,0,0,0,22,22,22,1,0,1,0,,,,,,,,,,,,,,,,,,,,,,,,,,,,,,,,,,,,,,,,,,,,,,,,,,,,,,,,,,,,,,,,30,,,,,,,,1814.4605472000003,1814.4605472000003,1814.4605472000003,1814.4605472000003,1814.4605472000003,right,0.35690889999978026,13,0,0,99,0.16,-0.32,right,0.2762806000001774,,,,,,,,,,,,,,,,,,,,,,,,,,,,,,,,,,,,,,,,,,,,,,,,,,,,,,,,,,,,FJFCRA,train_x,red_square,bottom_left,2025-09-25_17h01.51.938,HideSeek_v1,2022.2.5,59.97994270723117,
,2,1,7,1,5,0,66,,train_dim1_1,23,30,,,,2,0,2,0,,,,,,,,,0,0,0,0,0,22,22,22,2,0,2,0,,,,,,,,,,,,,,,,,,,,,,,,,,,,,,,,,,,,,,,,,,,,,,,,,,,,,,,,,,,,,,,,30,,,,,,,,1814.8242087000003,1814.8242087000003,1814.8242087000003,1814.8242087000003,1814.8242087000003,right,0.3933790000000954,13,0,0,99,0.24,-0.32,right,0.31269529999974566,,,,,,,,,,,,,,,,,,,,,,,,,,,,,,,,,,,,,,,,,,,,,,,,,,,,,,,,,,,,FJFCRA,train_x,red_square,bottom_left,2025-09-25_17h01.51.938,HideSeek_v1,2022.2.5,59.97994270723117,
,2,1,7,1,5,0,66,,train_dim1_1,23,30,,,,2,0,2,0,,,,,,,,,0,0,0,0,0,22,22,22,3,0,3,0,,,,,,,,,,,,,,,,,,,,,,,,,,,,,,,,,,,,,,,,,,,,,,,,,,,,,,,,,,,,,,,,30,,,,,,,,1815.2283125000004,1815.2283125000004,1815.2283125000004,1815.2283125000004,1815.2283125000004,right,0.3566814000000704,13,0,0,99,0.32,-0.32,right,0.2744641000000456,,,,,,,,,,,,,,,,,,,,,,,,,,,,,,,,,,,,,,,,,,,,,,,,,,,,,,,,,,,,FJFCRA,train_x,red_square,bottom_left,2025-09-25_17h01.51.938,HideSeek_v1,2022.2.5,59.97994270723117,
,2,1,7,1,5,0,66,,train_dim1_1,23,30,,,,2,0,2,0,,,,,,,,,0,0,0,0,0,22,22,22,4,0,4,0,,,,,,,,,,,,,,,,,,,,,,,,,,,,,,,,,,,,,,,,,,,,,,,,,,,,,,,,,,,,,,,,30,,,,,,,,1815.5910506,1815.5910506,1815.5910506,1815.5910506,1815.5910506,right,0.3934755000000223,13,0,0,99,0.4,-0.32,right,0.30496839999989334,,,,,,,,,,,,,,,,,,,,,,,,,,,,,,,,,,,,,,,,,,,,,,,,,,,,,,,,,,,,FJFCRA,train_x,red_square,bottom_left,2025-09-25_17h01.51.938,HideSeek_v1,2022.2.5,59.97994270723117,
,2,1,7,1,5,0,66,,train_dim1_1,23,30,,,,2,0,2,0,,,,,,,,,0,0,0,0,0,22,22,22,5,0,5,0,,,,,,,,,,,,,,,,,,,,,,,,,,,,,,,,,,,,,,,,,,,,,,,,,,,,,,,,,,,,,,,,30,,,,,,,,1815.9909361,1815.9909361,1815.9909361,1815.9909361,1815.9909361,return,0.4267304999998487,14,0,0,1,0.4,-0.32,return,0.3537419999998974,4,55,0.4,-0.32,,,,,,,,,,,,,,,,,,,,,,,,,,,,,,,,,,,,,,,,,,,,,,,,,,,,,,,,FJFCRA,train_x,red_square,bottom_left,2025-09-25_17h01.51.938,HideSeek_v1,2022.2.5,59.97994270723117,
,4,4,8,4,4,0,56,,train_dim1_1,24,30,,,,2,0,2,0,,,,,,,,,0,0,0,0,0,23,23,23,0,0,0,0,,,,,,,,,,,,,,,,,,,,,,,,,stimuli/alien_stimuli/56.png,,,,,,,,,,,,,,,,,,,,,,,,,,,,,stimuli/alien_stimuli/66.png,66,2,25,,,,,,,30,,,,,,,,1820.0643205000001,1820.0643205000001,1820.0643205000001,1820.0643205000001,1820.0643205000001,right,3.2186314999999013,14,0,0,99,0.24,-0.08,right,3.1291508000000476,,,,,1818.4970417,1820.0643205000001,0.4,-0.32,0.0,0.4,-0.32,0.4,0.2,0.4,-0.32,1817.9826594,1817.9826594,1817.9826594,1817.9826594,1817.9826594,1817.9826594,1817.9826594,1817.9826594,1817.9631972800003,0.6197842999999921,return,0.4930221999999276,,,,,,,,,,,,,,,,,,,,,,,,,,,,,,,,,FJFCRA,train_x,red_square,bottom_left,2025-09-25_17h01.51.938,HideSeek_v1,2022.2.5,59.97994270723117,
,4,4,8,4,4,0,56,,train_dim1_1,24,30,,,,2,0,2,0,,,,,,,,,0,0,0,0,0,23,23,23,1,0,1,0,,,,,,,,,,,,,,,,,,,,,,,,,,,,,,,,,,,,,,,,,,,,,,,,,,,,,,,,,,,,,,,,30,,,,,,,,1823.2842848,1823.2842848,1823.2842848,1823.2842848,1823.2842848,right,0.5590221999996174,14,0,0,99,0.32,-0.08,right,0.47716940000020713,,,,,,,,,,,,,,,,,,,,,,,,,,,,,,,,,,,,,,,,,,,,,,,,,,,,,,,,,,,,FJFCRA,train_x,red_square,bottom_left,2025-09-25_17h01.51.938,HideSeek_v1,2022.2.5,59.97994270723117,
,4,4,8,4,4,0,56,,train_dim1_1,24,30,,,,2,0,2,0,,,,,,,,,0,0,0,0,0,23,23,23,2,0,2,0,,,,,,,,,,,,,,,,,,,,,,,,,,,,,,,,,,,,,,,,,,,,,,,,,,,,,,,,,,,,,,,,30,,,,,,,,1823.8505762,1823.8505762,1823.8505762,1823.8505762,1823.8505762,right,0.42682979999972304,14,0,0,99,0.4,-0.08,right,0.3358149000001731,,,,,,,,,,,,,,,,,,,,,,,,,,,,,,,,,,,,,,,,,,,,,,,,,,,,,,,,,,,,FJFCRA,train_x,red_square,bottom_left,2025-09-25_17h01.51.938,HideSeek_v1,2022.2.5,59.97994270723117,
,4,4,8,4,4,0,56,,train_dim1_1,24,30,,,,2,0,2,0,,,,,,,,,0,0,0,0,0,23,23,23,3,0,3,0,,,,,,,,,,,,,,,,,,,,,,,,,,,,,,,,,,,,,,,,,,,,,,,,,,,,,,,,,,,,,,,,30,,,,,,,,1824.2853166,1824.2853166,1824.2853166,1824.2853166,1824.2853166,right,0.37662979999959134,14,0,0,99,0.48000000000000004,-0.08,right,0.2957341000002316,,,,,,,,,,,,,,,,,,,,,,,,,,,,,,,,,,,,,,,,,,,,,,,,,,,,,,,,,,,,FJFCRA,train_x,red_square,bottom_left,2025-09-25_17h01.51.938,HideSeek_v1,2022.2.5,59.97994270723117,
,4,4,8,4,4,0,56,,train_dim1_1,24,30,,,,2,0,2,0,,,,,,,,,0,0,0,0,0,23,23,23,4,0,4,0,,,,,,,,,,,,,,,,,,,,,,,,,,,,,,,,,,,,,,,,,,,,,,,,,,,,,,,,,,,,,,,,30,,,,,,,,1824.6680632000002,1824.6680632000002,1824.6680632000002,1824.6680632000002,1824.6680632000002,return,0.4767930999996679,15,0,0,1,0.48000000000000004,-0.08,return,0.40046529999983704,4,59,0.48000000000000004,-0.08,,,,,,,,,,,,,,,,,,,,,,,,,,,,,,,,,,,,,,,,,,,,,,,,,,,,,,,,FJFCRA,train_x,red_square,bottom_left,2025-09-25_17h01.51.938,HideSeek_v1,2022.2.5,59.97994270723117,
,3,0,3,0,0,0,16,,train_dim1_1,25,30,,,,2,0,2,0,,,,,,,,,0,0,0,0,0,24,24,24,0,0,0,0,,,,,,,,,,,,,,,,,,,,,,,,,stimuli/alien_stimuli/16.png,,,,,,,,,,,,,,,,,,,,,,,,,,,,,stimuli/alien_stimuli/56.png,56,4,26,,,,,,,30,,,,,,,,1829.8176158,1829.8176158,1829.8176158,1829.8176158,1829.8176158,return,1.8203894000002947,16,0,0,1,0.08,-0.4,return,1.7184048000000303,4,59,0.08,-0.4,1828.2384261000002,1829.8176158,0.48,-0.08,0.0,0.32,-0.08,0.48,0.32,0.48,-0.08,1826.7157229,1826.7157229,1826.7157229,1826.7157229,1826.7157229,1826.7157229,1826.7157229,1826.7157229,1826.7036867600002,1.63670860000002,return,1.491395000000125,,,,,,,,,,,,,,,,,,,,,,,,,,,,,,,,,FJFCRA,train_x,red_square,bottom_left,2025-09-25_17h01.51.938,HideSeek_v1,2022.2.5,59.97994270723117,
,1,1,6,1,5,0,66,,train_dim1_1,26,30,,,,2,0,2,0,,,,,,,,,0,0,0,0,0,25,25,25,0,0,0,0,,,,,,,,,,,,,,,,,,,,,,,,,stimuli/alien_stimuli/66.png,,,,,,,,,,,,,,,,,,,,,,,,,,,,,stimuli/alien_stimuli/16.png,16,3,27,,,,,,,30,,,,,,,,1835.6443844,1835.6443844,1835.6443844,1835.6443844,1835.6443844,right,0.9329232000000047,16,0,0,99,0.0,-0.32,right,0.8460492000000386,,,,,1834.0766072000001,1835.6443844,0.08,-0.4,0.0,0.0,-0.4,0.08,0.08,0.08,-0.4,1833.1863986000003,1833.1863986000003,1833.1863986000003,1833.1863986000003,1833.1863986000003,1833.1863986000003,1833.1863986000003,1833.1863986000003,1833.1756472600002,1.0030524999997397,return,0.8615019000000075,,,,,,,,,,,,,,,,,,,,,,,,,,,,,,,,,FJFCRA,train_x,red_square,bottom_left,2025-09-25_17h01.51.938,HideSeek_v1,2022.2.5,59.97994270723117,
,1,1,6,1,5,0,66,,train_dim1_1,26,30,,,,2,0,2,0,,,,,,,,,0,0,0,0,0,25,25,25,1,0,1,0,,,,,,,,,,,,,,,,,,,,,,,,,,,,,,,,,,,,,,,,,,,,,,,,,,,,,,,,,,,,,,,,30,,,,,,,,1836.5767838000002,1836.5767838000002,1836.5767838000002,1836.5767838000002,1836.5767838000002,right,0.5083698000003096,16,0,0,99,0.08,-0.32,right,0.4238406000000623,,,,,,,,,,,,,,,,,,,,,,,,,,,,,,,,,,,,,,,,,,,,,,,,,,,,,,,,,,,,FJFCRA,train_x,red_square,bottom_left,2025-09-25_17h01.51.938,HideSeek_v1,2022.2.5,59.97994270723117,
,1,1,6,1,5,0,66,,train_dim1_1,26,30,,,,2,0,2,0,,,,,,,,,0,0,0,0,0,25,25,25,2,0,2,0,,,,,,,,,,,,,,,,,,,,,,,,,,,,,,,,,,,,,,,,,,,,,,,,,,,,,,,,,,,,,,,,30,,,,,,,,1837.0919808000003,1837.0919808000003,1837.0919808000003,1837.0919808000003,1837.0919808000003,right,0.46020980000002965,16,0,0,99,0.16,-0.32,right,0.3854073999997354,,,,,,,,,,,,,,,,,,,,,,,,,,,,,,,,,,,,,,,,,,,,,,,,,,,,,,,,,,,,FJFCRA,train_x,red_square,bottom_left,2025-09-25_17h01.51.938,HideSeek_v1,2022.2.5,59.97994270723117,
,1,1,6,1,5,0,66,,train_dim1_1,26,30,,,,2,0,2,0,,,,,,,,,0,0,0,0,0,25,25,25,3,0,3,0,,,,,,,,,,,,,,,,,,,,,,,,,,,,,,,,,,,,,,,,,,,,,,,,,,,,,,,,,,,,,,,,30,,,,,,,,1837.5632943,1837.5632943,1837.5632943,1837.5632943,1837.5632943,right,0.575268000000051,16,0,0,99,0.24,-0.32,right,0.4876700999999457,,,,,,,,,,,,,,,,,,,,,,,,,,,,,,,,,,,,,,,,,,,,,,,,,,,,,,,,,,,,FJFCRA,train_x,red_square,bottom_left,2025-09-25_17h01.51.938,HideSeek_v1,2022.2.5,59.97994270723117,
,1,1,6,1,5,0,66,,train_dim1_1,26,30,,,,2,0,2,0,,,,,,,,,0,0,0,0,0,25,25,25,4,0,4,0,,,,,,,,,,,,,,,,,,,,,,,,,,,,,,,,,,,,,,,,,,,,,,,,,,,,,,,,,,,,,,,,30,,,,,,,,1838.1430618,1838.1430618,1838.1430618,1838.1430618,1838.1430618,right,0.5934492999999748,16,0,0,99,0.32,-0.32,right,0.5155592000002116,,,,,,,,,,,,,,,,,,,,,,,,,,,,,,,,,,,,,,,,,,,,,,,,,,,,,,,,,,,,FJFCRA,train_x,red_square,bottom_left,2025-09-25_17h01.51.938,HideSeek_v1,2022.2.5,59.97994270723117,
,1,1,6,1,5,0,66,,train_dim1_1,26,30,,,,2,0,2,0,,,,,,,,,0,0,0,0,0,25,25,25,5,0,5,0,,,,,,,,,,,,,,,,,,,,,,,,,,,,,,,,,,,,,,,,,,,,,,,,,,,,,,,,,,,,,,,,30,,,,,,,,1838.7453060000003,1838.7453060000003,1838.7453060000003,1838.7453060000003,1838.7453060000003,return,0.8588628999996217,17,0,0,1,0.32,-0.32,return,0.771709499999929,4,64,0.32,-0.32,,,,,,,,,,,,,,,,,,,,,,,,,,,,,,,,,,,,,,,,,,,,,,,,,,,,,,,,FJFCRA,train_x,red_square,bottom_left,2025-09-25_17h01.51.938,HideSeek_v1,2022.2.5,59.97994270723117,
,0,1,3,1,3,0,46,,train_dim1_1,27,30,,,,2,0,2,0,,,,,,,,,0,0,0,0,0,26,26,26,0,0,0,0,,,,,,,,,,,,,,,,,,,,,,,,,stimuli/alien_stimuli/46.png,,,,,,,,,,,,,,,,,,,,,,,,,,,,,stimuli/alien_stimuli/66.png,66,1,28,,,,,,,30,,,,,,,,1843.6460874,1843.6460874,1843.6460874,1843.6460874,1843.6460874,right,1.5360342999997556,17,0,0,99,-0.08,-0.32,right,1.4359909000000926,,,,,1842.0665118000002,1843.6460874,0.32,-0.32,0.0,0.4,-0.32,0.32,0.12,0.32,-0.32,1841.1694544000002,1841.1694544000002,1841.1694544000002,1841.1694544000002,1841.1694544000002,1841.1694544000002,1841.1694544000002,1841.1694544000002,1841.1492062800003,1.0025142999998025,return,0.8789072999999235,,,,,,,,,,,,,,,,,,,,,,,,,,,,,,,,,FJFCRA,train_x,red_square,bottom_left,2025-09-25_17h01.51.938,HideSeek_v1,2022.2.5,59.97994270723117,
,0,1,3,1,3,0,46,,train_dim1_1,27,30,,,,2,0,2,0,,,,,,,,,0,0,0,0,0,26,26,26,1,0,1,0,,,,,,,,,,,,,,,,,,,,,,,,,,,,,,,,,,,,,,,,,,,,,,,,,,,,,,,,,,,,,,,,30,,,,,,,,1845.1671061000002,1845.1671061000002,1845.1671061000002,1845.1671061000002,1845.1671061000002,right,0.4595982999999251,17,0,0,99,0.0,-0.32,right,0.3702934999997751,,,,,,,,,,,,,,,,,,,,,,,,,,,,,,,,,,,,,,,,,,,,,,,,,,,,,,,,,,,,FJFCRA,train_x,red_square,bottom_left,2025-09-25_17h01.51.938,HideSeek_v1,2022.2.5,59.97994270723117,
,0,1,3,1,3,0,46,,train_dim1_1,27,30,,,,2,0,2,0,,,,,,,,,0,0,0,0,0,26,26,26,2,0,2,0,,,,,,,,,,,,,,,,,,,,,,,,,,,,,,,,,,,,,,,,,,,,,,,,,,,,,,,,,,,,,,,,30,,,,,,,,1845.6343444000004,1845.6343444000004,1845.6343444000004,1845.6343444000004,1845.6343444000004,right,1.3433273999999074,17,0,0,99,0.08,-0.32,right,1.26452780000011,,,,,,,,,,,,,,,,,,,,,,,,,,,,,,,,,,,,,,,,,,,,,,,,,,,,,,,,,,,,FJFCRA,train_x,red_square,bottom_left,2025-09-25_17h01.51.938,HideSeek_v1,2022.2.5,59.97994270723117,
,0,1,3,1,3,0,46,,train_dim1_1,27,30,,,,2,0,2,0,,,,,,,,,0,0,0,0,0,26,26,26,3,0,3,0,,,,,,,,,,,,,,,,,,,,,,,,,,,,,,,,,,,,,,,,,,,,,,,,,,,,,,,,,,,,,,,,30,,,,,,,,1846.9834747,1846.9834747,1846.9834747,1846.9834747,1846.9834747,return,0.6438130999999885,18,0,0,1,0.08,-0.32,return,0.5570772999996052,4,67,0.08,-0.32,,,,,,,,,,,,,,,,,,,,,,,,,,,,,,,,,,,,,,,,,,,,,,,,,,,,,,,,FJFCRA,train_x,red_square,bottom_left,2025-09-25_17h01.51.938,HideSeek_v1,2022.2.5,59.97994270723117,
,3,1,4,1,1,0,26,,train_dim1_1,28,30,,,,2,0,2,0,,,,,,,,,0,0,0,0,0,27,27,27,0,0,0,0,,,,,,,,,,,,,,,,,,,,,,,,,stimuli/alien_stimuli/26.png,,,,,,,,,,,,,,,,,,,,,,,,,,,,,stimuli/alien_stimuli/46.png,46,0,29,,,,,,,30,,,,,,,,1851.5739997,1851.5739997,1851.5739997,1851.5739997,1851.5739997,right,1.5993038000001434,18,0,0,99,0.16,-0.32,right,1.4930655999997953,,,,,1849.9897928,1851.5739997,0.08,-0.32,0.0,0.24,-0.32,0.08,-0.04,0.08,-0.32,1849.1973681,1849.1973681,1849.1973681,1849.1973681,1849.1973681,1849.1973681,1849.1973681,1849.1973681,1849.1892554600001,0.9025624000000789,return,0.7650563999997075,,,,,,,,,,,,,,,,,,,,,,,,,,,,,,,,,FJFCRA,train_x,red_square,bottom_left,2025-09-25_17h01.51.938,HideSeek_v1,2022.2.5,59.97994270723117,
,3,1,4,1,1,0,26,,train_dim1_1,28,30,,,,2,0,2,0,,,,,,,,,0,0,0,0,0,27,27,27,1,0,1,0,,,,,,,,,,,,,,,,,,,,,,,,,,,,,,,,,,,,,,,,,,,,,,,,,,,,,,,,,,,,,,,,30,,,,,,,,1853.1607816,1853.1607816,1853.1607816,1853.1607816,1853.1607816,return,0.3592247999999927,19,0,0,1,0.16,-0.32,return,0.2752773999997089,4,68,0.16,-0.32,,,,,,,,,,,,,,,,,,,,,,,,,,,,,,,,,,,,,,,,,,,,,,,,,,,,,,,,FJFCRA,train_x,red_square,bottom_left,2025-09-25_17h01.51.938,HideSeek_v1,2022.2.5,59.97994270723117,
,4,0,8,0,4,0,56,,train_dim1_1,29,30,,,,2,0,2,0,,,,,,,,,0,0,0,0,0,28,28,28,0,0,0,0,,,,,,,,,,,,,,,,,,,,,,,,,stimuli/alien_stimuli/56.png,,,,,,,,,,,,,,,,,,,,,,,,,,,,,stimuli/alien_stimuli/26.png,26,3,30,,,,,,,30,,,,,,,,1857.6107231,1857.6107231,1857.6107231,1857.6107231,1857.6107231,right,1.2184250999998767,19,0,0,99,0.24,-0.4,right,1.1330008999999563,,,,,1856.0445286,1857.6107231,0.16,-0.32,0.0,0.08,-0.32,0.16,0.12,0.16,-0.32,1855.0851956000001,1855.0851956000001,1855.0851956000001,1855.0851956000001,1855.0851956000001,1855.0851956000001,1855.0851956000001,1855.0851956000001,1855.0771416600003,1.069756100000177,return,0.9290200000001505,,,,,,,,,,,,,,,,,,,,,,,,,,,,,,,,,FJFCRA,train_x,red_square,bottom_left,2025-09-25_17h01.51.938,HideSeek_v1,2022.2.5,59.97994270723117,
,4,0,8,0,4,0,56,,train_dim1_1,29,30,,,,2,0,2,0,,,,,,,,,0,0,0,0,0,28,28,28,1,0,1,0,,,,,,,,,,,,,,,,,,,,,,,,,,,,,,,,,,,,,,,,,,,,,,,,,,,,,,,,,,,,,,,,30,,,,,,,,1858.832919,1858.832919,1858.832919,1858.832919,1858.832919,right,1.1905713999999534,19,0,0,99,0.32,-0.4,right,1.1070409999998674,,,,,,,,,,,,,,,,,,,,,,,,,,,,,,,,,,,,,,,,,,,,,,,,,,,,,,,,,,,,FJFCRA,train_x,red_square,bottom_left,2025-09-25_17h01.51.938,HideSeek_v1,2022.2.5,59.97994270723117,
,4,0,8,0,4,0,56,,train_dim1_1,29,30,,,,2,0,2,0,,,,,,,,,0,0,0,0,0,28,28,28,2,0,2,0,,,,,,,,,,,,,,,,,,,,,,,,,,,,,,,,,,,,,,,,,,,,,,,,,,,,,,,,,,,,,,,,30,,,,,,,,1860.0319666,1860.0319666,1860.0319666,1860.0319666,1860.0319666,right,0.4422092999998313,19,0,0,99,0.4,-0.4,right,0.3603297999999313,,,,,,,,,,,,,,,,,,,,,,,,,,,,,,,,,,,,,,,,,,,,,,,,,,,,,,,,,,,,FJFCRA,train_x,red_square,bottom_left,2025-09-25_17h01.51.938,HideSeek_v1,2022.2.5,59.97994270723117,
,4,0,8,0,4,0,56,,train_dim1_1,29,30,,,,2,0,2,0,,,,,,,,,0,0,0,0,0,28,28,28,3,0,3,0,,,,,,,,,,,,,,,,,,,,,,,,,,,,,,,,,,,,,,,,,,,,,,,,,,,,,,,,,,,,,,,,30,,,,,,,,1860.4813211,1860.4813211,1860.4813211,1860.4813211,1860.4813211,right,0.4261529000000337,19,0,0,99,0.48000000000000004,-0.4,right,0.34651099999985036,,,,,,,,,,,,,,,,,,,,,,,,,,,,,,,,,,,,,,,,,,,,,,,,,,,,,,,,,,,,FJFCRA,train_x,red_square,bottom_left,2025-09-25_17h01.51.938,HideSeek_v1,2022.2.5,59.97994270723117,
,4,0,8,0,4,0,56,,train_dim1_1,29,30,,,,2,0,2,0,,,,,,,,,0,0,0,0,0,28,28,28,4,0,4,0,,,,,,,,,,,,,,,,,,,,,,,,,,,,,,,,,,,,,,,,,,,,,,,,,,,,,,,,,,,,,,,,30,,,,,,,,1860.9138510000002,1860.9138510000002,1860.9138510000002,1860.9138510000002,1860.9138510000002,return,0.643740699999853,20,0,0,1,0.48000000000000004,-0.4,return,0.5637554999999566,4,72,0.48000000000000004,-0.4,,,,,,,,,,,,,,,,,,,,,,,,,,,,,,,,,,,,,,,,,,,,,,,,,,,,,,,,FJFCRA,train_x,red_square,bottom_left,2025-09-25_17h01.51.938,HideSeek_v1,2022.2.5,59.97994270723117,
,2,2,2,2,0,0,16,,train_dim1_1,30,30,,,,2,0,2,0,,,,,,,,,0,0,0,0,0,29,29,29,0,0,0,0,,,,,,,,,,,,,,,,,,,,,,,,,stimuli/alien_stimuli/16.png,,,,,,,,,,,,,,,,,,,,,,,,,,,,,stimuli/alien_stimuli/56.png,56,4,31,,,,,,,30,,,,,,,,1865.5310039,1865.5310039,1865.5310039,1865.5310039,1865.5310039,return,1.421185400000013,21,0,0,1,0,-0.24,return,1.3123818999998775,4,72,0,-0.24,1863.9513684000003,1865.5310039,0.48,-0.4,0.0,0.32,-0.4,0.48,0.32,0.48,-0.4,1863.1283223,1863.1283223,1863.1283223,1863.1283223,1863.1283223,1863.1283223,1863.1283223,1863.1283223,1863.1173096600003,0.9361742999999478,return,0.795788899999593,,,,,,,,,,,,,,,,,,,,,,,,,,,,,,,,,FJFCRA,train_x,red_square,bottom_left,2025-09-25_17h01.51.938,HideSeek_v1,2022.2.5,59.97994270723117,
,,,,,,,,,,,30,,,,2,0,2,0,,,,,,,,,,,,,,,,,,,,,,,,,,,,,,,,,,,,,,,,,,,,,,,,,,,,,,,,,,,,,,,,,,,,,,,,,,stimuli/alien_stimuli/16.png,16,2,32,21,0.7,0.875,1,1,1,30,0,conditions/schedules/train_x_first/red_square_00/bottom_left/inputTrain_2.1.xlsx,99,1,2,1,0,,,,,,,,,,,1,,,,,,,,,1869.1388929,1870.6814534,0,-0.24,0.0,0.0,-0.24,0,0.0,0,-0.24,1868.5029259000003,1868.5029259000003,1868.5029259000003,1868.5029259000003,1868.5029259000003,1868.5029259000003,1868.5029259000003,1868.5029259000003,1868.4884276600003,0.7522687000000587,return,0.6064219999999523,0,0.9,0,1,21,,,,,,,,,,,,,,,,,,,,,,,,,,,,FJFCRA,train_x,red_square,bottom_left,2025-09-25_17h01.51.938,HideSeek_v1,2022.2.5,59.97994270723117,
,,,,,,,,,,,,,,,3,0,3,0,0,0,0,0,,,,,,,,,,,,,,,,,,,,,,,,,,,,,,,conditions/schedules/train_x_first/red_square_00/bottom_left/instructions/Slide17.png,conditions/schedules/train_x_first/red_square_00/bottom_left/instructions/Audio17.wav,1870.6814534,1870.6734359400004,17,"[8.137456899999961, 19.030087000000094, 16.260919999999714, 19.54047679999985, 5.087676300000112, 5.537891299999956, 6.459211800000048, 12.790649999999914, 6.2418846000000485, 8.435901400000148, 10.28780370000004, 13.140068400000018, 16.819432700000107, 13.84023500000012, 29.956274499999836, 22.51184239999975, 38.03770560000021]","[0.014810600000146223, 0.00022659999967800104, 0.056960200000048644, 0.049993999999969674, 0.08279219999985798, 0.07040330000018002, 0.07995189999974173, 0.0358830999998645, 0.0478211999998166, 0.03104799999982788, 0.02979200000027049, 13.140074599999934, 0.03038830000014059, 13.840243900000132, 0.030309599999782222, 22.511848999999984, 38.03771349999988]",0,,,,,,,,,,,,,,,,,,,,,,,,,,,,,,,,,,,,,,,,,,,,,,,,,,,,,,,,,,,,,,,,,,,,,,,,,,,,,,,,,,,,,,,,,,,,,,,,,,,,,,,,,,,,,,,,,,,,,,,,,,,,FJFCRA,train_x,red_square,bottom_left,2025-09-25_17h01.51.938,HideSeek_v1,2022.2.5,59.97994270723117,
,,,,,,,,,,,,,,,3,0,3,0,1,0,1,0,,,,,,,,,,,,,,,,,,,,,,,,,,,,,,,conditions/schedules/train_x_first/red_square_00/bottom_left/instructions/Slide18.png,conditions/schedules/train_x_first/red_square_00/bottom_left/instructions/Audio18.wav,1908.7912616000003,1908.7886969000003,18,"[8.137456899999961, 19.030087000000094, 16.260919999999714, 19.54047679999985, 5.087676300000112, 5.537891299999956, 6.459211800000048, 12.790649999999914, 6.2418846000000485, 8.435901400000148, 10.28780370000004, 13.140068400000018, 16.819432700000107, 13.84023500000012, 29.956274499999836, 22.51184239999975, 38.03770560000021, 6.919231800000034]","[0.014810600000146223, 0.00022659999967800104, 0.056960200000048644, 0.049993999999969674, 0.08279219999985798, 0.07040330000018002, 0.07995189999974173, 0.0358830999998645, 0.0478211999998166, 0.03104799999982788, 0.02979200000027049, 13.140074599999934, 0.03038830000014059, 13.840243900000132, 0.030309599999782222, 22.511848999999984, 0.0464563000000453, 6.919239599999855]",0,,,,,,,,,,,,,,,,,,,,,,,,,,,,,,,,,,,,,,,,,,,,,,,,,,,,,,,,,,,,,,,,,,,,,,,,,,,,,,,,,,,,,,,,,,,,,,,,,,,,,,,,,,,,,,,,,,,,,,,,,,,,FJFCRA,train_x,red_square,bottom_left,2025-09-25_17h01.51.938,HideSeek_v1,2022.2.5,59.97994270723117,
,,,,,,,,,,,,,,,3,0,3,0,2,0,2,0,,,,,,,,,,,,,,,,,,,,,,,,,,,,,,,conditions/schedules/train_x_first/red_square_00/bottom_left/instructions/Slide19.png,conditions/schedules/train_x_first/red_square_00/bottom_left/instructions/Audio19.wav,1915.749664,1915.7444701400002,19,"[8.137456899999961, 19.030087000000094, 16.260919999999714, 19.54047679999985, 5.087676300000112, 5.537891299999956, 6.459211800000048, 12.790649999999914, 6.2418846000000485, 8.435901400000148, 10.28780370000004, 13.140068400000018, 16.819432700000107, 13.84023500000012, 29.956274499999836, 22.51184239999975, 38.03770560000021, 6.919231800000034, 10.58470589999979]","[0.014810600000146223, 0.00022659999967800104, 0.056960200000048644, 0.049993999999969674, 0.08279219999985798, 0.07040330000018002, 0.07995189999974173, 0.0358830999998645, 0.0478211999998166, 0.03104799999982788, 0.02979200000027049, 13.140074599999934, 0.03038830000014059, 13.840243900000132, 0.030309599999782222, 22.511848999999984, 0.0464563000000453, 0.01387750000003507, 10.5847133999996]",0,,,,,,,,,,,,,,,,,,,,,,,,,,,,,,,,,,,,,,,,,,,,,,,,,,,,,,,,,,,,,,,,,,,,,,,,,,,,,,,,,,,,,,,,,,,,,,,,,,,,,,,,,,,,,,,,,,,,,,,,,,,,FJFCRA,train_x,red_square,bottom_left,2025-09-25_17h01.51.938,HideSeek_v1,2022.2.5,59.97994270723117,
,,,,,,,,,,,,,,,3,0,3,0,3,0,3,0,,,,,,,,,,,,,,,,,,,,,,,,,,,,,,,conditions/schedules/train_x_first/red_square_00/bottom_left/instructions/Slide20.png,conditions/schedules/train_x_first/red_square_00/bottom_left/instructions/Audio20.wav,1926.4104507000002,1926.4036137,20,"[8.137456899999961, 19.030087000000094, 16.260919999999714, 19.54047679999985, 5.087676300000112, 5.537891299999956, 6.459211800000048, 12.790649999999914, 6.2418846000000485, 8.435901400000148, 10.28780370000004, 13.140068400000018, 16.819432700000107, 13.84023500000012, 29.956274499999836, 22.51184239999975, 38.03770560000021, 6.919231800000034, 10.58470589999979, 14.202911500000027]","[0.014810600000146223, 0.00022659999967800104, 0.056960200000048644, 0.049993999999969674, 0.08279219999985798, 0.07040330000018002, 0.07995189999974173, 0.0358830999998645, 0.0478211999998166, 0.03104799999982788, 0.02979200000027049, 13.140074599999934, 0.03038830000014059, 13.840243900000132, 0.030309599999782222, 22.511848999999984, 0.0464563000000453, 0.01387750000003507, 0.03724050000028001, 14.202918400000272]",0,,,,,,,,,,,,,,,,,,,,,,,,,,,,,,,,,,,,,,,,,,,,,,,,,,,,,,,,,,,,,,,,,,,,,,,,,,,,,,,,,,,,,,,,,,,,,,,,,,,,,,,,,,,,,,,,,,,,,,,,,,,,FJFCRA,train_x,red_square,bottom_left,2025-09-25_17h01.51.938,HideSeek_v1,2022.2.5,59.97994270723117,
1,2,3,2,8,0,5,11,2,instr_dim1_2,,,,,,3,0,3,0,,,,,0,0,0,0,,,,,,,,,,,,,,,,,,,,,,,,,,,,,,,,,,,,,stimuli/alien_stimuli/11.png,conditions/schedules/train_x_first/red_square_00/bottom_left/inputInstr_2.xlsx,stimuli/alien_stimuli/11.png,1940.7238543000003,1940.7238543000003,1940.7238543000003,1940.7238543000003,1940.7151322600005,return,6.262915099999759,"[-0.16, -0.08, 0, 0.08, 0.16, 0.24, 0.32, 0.4, 0.48, 0.56]","[-0.4, -0.32, -0.24, -0.16, -0.08, 0, 0.08, 0.16, 0.24, 0.32]",8,3,2,2,0.4,0.0,1947.1384782,1947.1384782,1947.1384782,1947.1384782,1947.1384782,1947.1384782,1947.1384782,1947.1369483200003,8.174223900000015,return,8.016067300000145,stimuli/alien_stimuli/11.png,11,2,1,,,,,,,,,,,,,,,,,,,,,,,,,,,,,,,,,,,,,,,,,,,,,,,,,,,,,,,,,,,,,,,,,,,,,,,,,,,,,,,,,,,,,,,,,FJFCRA,train_x,red_square,bottom_left,2025-09-25_17h01.51.938,HideSeek_v1,2022.2.5,59.97994270723117,
,,,,,,,,,,,30,,,,3,0,3,0,,,,,,,,,,,,,,,,,,,,,,,,,,,,,,,,,,,,,,,,,,,,,,,,,,,,,,,,,,,,,,,,,,,,,,,,,,,,,,21,0.7,0.875,1,99,2,30,0,conditions/schedules/train_x_first/red_square_00/bottom_left/inputTrain_2.1.xlsx,99,1,2,1,0,,,,,,,,,,,,,,,,,,,,,,,,,,,,,,,,,,,,,,,,,,,,,,,,,,,,,,,,,,,,,,,,,,,,,,,,,,,FJFCRA,train_x,red_square,bottom_left,2025-09-25_17h01.51.938,HideSeek_v1,2022.2.5,59.97994270723117,
,,,,,,,,,,,,,,,4,0,4,0,0,0,0,0,,,,,,,,,,,,,,,,,,,,,,,,,,,,,,,conditions/schedules/train_x_first/red_square_00/bottom_left/instructions/Slide21.png,conditions/schedules/train_x_first/red_square_00/bottom_left/instructions/Audio21.wav,1955.3420173,1955.3435743800003,21,"[8.137456899999961, 19.030087000000094, 16.260919999999714, 19.54047679999985, 5.087676300000112, 5.537891299999956, 6.459211800000048, 12.790649999999914, 6.2418846000000485, 8.435901400000148, 10.28780370000004, 13.140068400000018, 16.819432700000107, 13.84023500000012, 29.956274499999836, 22.51184239999975, 38.03770560000021, 6.919231800000034, 10.58470589999979, 14.202911500000027, 16.846516200000224]","[0.014810600000146223, 0.00022659999967800104, 0.056960200000048644, 0.049993999999969674, 0.08279219999985798, 0.07040330000018002, 0.07995189999974173, 0.0358830999998645, 0.0478211999998166, 0.03104799999982788, 0.02979200000027049, 13.140074599999934, 0.03038830000014059, 13.840243900000132, 0.030309599999782222, 22.511848999999984, 0.0464563000000453, 0.01387750000003507, 0.03724050000028001, 14.202918400000272, 16.846523799999886]",0,,,,,,,,,,,,,,,,,,,,,,,,,,,,,,,,,,,,,,,,,,,,,,,,,,,,,,,,,,,,,,,,,,,,,,,,,,,,,,,,,,,,,,,,,,,,,,,,,,,,,,,,,,,,,,,,,,,,,,,,,,,,FJFCRA,train_x,red_square,bottom_left,2025-09-25_17h01.51.938,HideSeek_v1,2022.2.5,59.97994270723117,
2,0,3,0,3,0,0,16,2,instr_dim1_2,,,,,,4,0,4,0,,,,,0,0,0,0,,,,,,,,,,,,,,,,,,,,,,,,,,,,,,,,,,,,,stimuli/alien_stimuli/16.png,conditions/schedules/train_x_first/red_square_00/bottom_left/inputInstr_2.xlsx,stimuli/alien_stimuli/16.png,1972.2917401,1972.2917401,1972.2917401,1972.2917401,1972.2910617600003,return,4.136030499999947,"[-0.16, -0.08, 0, 0.08, 0.16, 0.24, 0.32, 0.4, 0.48, 0.56]","[-0.4, -0.32, -0.24, -0.16, -0.08, 0, 0.08, 0.16, 0.24, 0.32]",3,3,0,0,0.0,0.0,1976.572846,1976.572846,1976.572846,1976.572846,1976.572846,1976.572846,1976.572846,1976.5613346400005,6.690671199999997,return,6.539072799999872,stimuli/alien_stimuli/16.png,16,0,2,,,,,,,,,,,,,,,,,,,,,,,,,,,,,,,,,,,,,,,,,,,,,,,,,,,,,,,,,,,,,,,,,,,,,,,,,,,,,,,,,,,,,,,,,FJFCRA,train_x,red_square,bottom_left,2025-09-25_17h01.51.938,HideSeek_v1,2022.2.5,59.97994270723117,
,,,,,,,,,,,30,,,,4,0,4,0,,,,,,,,,,,,,,,,,,,,,,,,,,,,,,,,,,,,,,,,,,,,,,,,,,,,,,,,,,,,,,,,,,,,,,,,,,,,,,21,0.7,0.875,1,99,2,30,0,conditions/schedules/train_x_first/red_square_00/bottom_left/inputTrain_2.1.xlsx,99,1,2,1,0,,,,,,,,,,,,,,,,,,,,,,,,,,,,,,,,,,,,,,,,,,,,,,,,,,,,,,,,,,,,,,,,,,,,,,,,,,,FJFCRA,train_x,red_square,bottom_left,2025-09-25_17h01.51.938,HideSeek_v1,2022.2.5,59.97994270723117,
,,,,,,,,,,,,,,,5,0,5,0,0,0,0,0,,,,,,,,,,,,,,,,,,,,,,,,,,,,,,,conditions/schedules/train_x_first/red_square_00/bottom_left/instructions/Slide22.png,conditions/schedules/train_x_first/red_square_00/bottom_left/instructions/Audio22.wav,1983.3054689,1983.3006972800006,22,"[8.137456899999961, 19.030087000000094, 16.260919999999714, 19.54047679999985, 5.087676300000112, 5.537891299999956, 6.459211800000048, 12.790649999999914, 6.2418846000000485, 8.435901400000148, 10.28780370000004, 13.140068400000018, 16.819432700000107, 13.84023500000012, 29.956274499999836, 22.51184239999975, 38.03770560000021, 6.919231800000034, 10.58470589999979, 14.202911500000027, 16.846516200000224, 42.94439779999993]","[0.014810600000146223, 0.00022659999967800104, 0.056960200000048644, 0.049993999999969674, 0.08279219999985798, 0.07040330000018002, 0.07995189999974173, 0.0358830999998645, 0.0478211999998166, 0.03104799999982788, 0.02979200000027049, 13.140074599999934, 0.03038830000014059, 13.840243900000132, 0.030309599999782222, 22.511848999999984, 0.0464563000000453, 0.01387750000003507, 0.03724050000028001, 14.202918400000272, 16.846523799999886, 42.944406199999776]",0,,,,,,,,,,,,,,,,,,,,,,,,,,,,,,,,,,,,,,,,,,,,,,,,,,,,,,,,,,,,,,,,,,,,,,,,,,,,,,,,,,,,,,,,,,,,,,,,,,,,,,,,,,,,,,,,,,,,,,,,,,,,FJFCRA,train_x,red_square,bottom_left,2025-09-25_17h01.51.938,HideSeek_v1,2022.2.5,59.97994270723117,
,0,0,0,1,0,1,15,,train_dim1_2,1,30,,,,5,0,5,0,,,,,,,,,0,0,0,0,0,0,0,0,0,0,0,0,,,,,,,,,,,,,,,,,,,,,,,,,stimuli/alien_stimuli/15.png,,,,,,,,,,,,,,,,,,,,,,,,,,,,,,,,,,,,,,,30,,,,,,,,2026.3521848,2026.3521848,2026.3521848,2026.3521848,2026.3521848,return,3.2969382000001133,0,1,0,0,-0.16,-0.4,return,3.1951048000001947,4,72,-0.16,-0.4,,,,,,,,,,,,,,,,,,,,,,,,,,,,,,,,,,,,,,,,,,,,,,,,,,,,,,,,FJFCRA,train_x,red_square,bottom_left,2025-09-25_17h01.51.938,HideSeek_v1,2022.2.5,59.97994270723117,
,3,2,3,2,0,0,16,,train_dim1_2,2,30,,,,5,0,5,0,,,,,,,,,0,0,0,0,0,1,1,1,0,0,0,0,,,,,,,,,,,,,,,,,,,,,,,,,stimuli/alien_stimuli/16.png,,,,,,,,,,,,,,,,,,,,,,,,,,,,,stimuli/alien_stimuli/15.png,15,0,3,,,,,,,30,,,,,,,,2037.6437053,2037.6437053,2037.6437053,2037.6437053,2037.6437053,return,1.5655676999999741,1,0,0,1,0.08,-0.24,return,1.487502199999767,4,72,0.08,-0.24,2036.0775342000002,2037.6437053,-0.16,-0.32,0.08,0.0,-0.36,-0.16,-0.16,-0.16,-0.32,2031.2145995,2031.2145995,2031.2145995,2031.2145995,2031.2145995,2031.2145995,2031.2145995,2031.2145995,2031.2072736400005,4.98902709999993,return,4.834294100000193,,,,,,,,,,,,,,,,,,,,,,,,,,,,,,,,,FJFCRA,train_x,red_square,bottom_left,2025-09-25_17h01.51.938,HideSeek_v1,2022.2.5,59.97994270723117,
,2,3,2,6,0,3,13,,train_dim1_2,3,30,,,,5,0,5,0,,,,,,,,,0,0,0,0,0,2,2,2,0,0,0,0,,,,,,,,,,,,,,,,,,,,,,,,,stimuli/alien_stimuli/13.png,,,,,,,,,,,,,,,,,,,,,,,,,,,,,stimuli/alien_stimuli/16.png,16,3,4,,,,,,,30,,,,,,,,2043.6759566,2043.6759566,2043.6759566,2043.6759566,2043.6759566,up,1.4265050000003612,1,0,0,99,0,-0.08,up,1.342607300000168,,,,,2042.1158141,2043.6759566,0.08,-0.24,0.0,0.0,-0.24,0.08,0.08,0.08,-0.24,2040.7876988000003,2040.7876988000003,2040.7876988000003,2040.7876988000003,2040.7876988000003,2040.7876988000003,2040.7876988000003,2040.7876988000003,2040.7814017400005,1.4531466999997065,return,1.2960947000002534,,,,,,,,,,,,,,,,,,,,,,,,,,,,,,,,,FJFCRA,train_x,red_square,bottom_left,2025-09-25_17h01.51.938,HideSeek_v1,2022.2.5,59.97994270723117,
,2,3,2,6,0,3,13,,train_dim1_2,3,30,,,,5,0,5,0,,,,,,,,,0,0,0,0,0,2,2,2,1,0,1,0,,,,,,,,,,,,,,,,,,,,,,,,,,,,,,,,,,,,,,,,,,,,,,,,,,,,,,,,,,,,,,,,30,,,,,,,,2045.1112442000003,2045.1112442000003,2045.1112442000003,2045.1112442000003,2045.1112442000003,up,0.5507581000001665,1,0,0,99,0,0.0,up,0.4695528999997123,,,,,,,,,,,,,,,,,,,,,,,,,,,,,,,,,,,,,,,,,,,,,,,,,,,,,,,,,,,,FJFCRA,train_x,red_square,bottom_left,2025-09-25_17h01.51.938,HideSeek_v1,2022.2.5,59.97994270723117,
,2,3,2,6,0,3,13,,train_dim1_2,3,30,,,,5,0,5,0,,,,,,,,,0,0,0,0,0,2,2,2,2,0,2,0,,,,,,,,,,,,,,,,,,,,,,,,,,,,,,,,,,,,,,,,,,,,,,,,,,,,,,,,,,,,,,,,30,,,,,,,,2045.6697355000001,2045.6697355000001,2045.6697355000001,2045.6697355000001,2045.6697355000001,up,0.47651630000018486,1,0,0,99,0,0.08,up,0.3945780000000241,,,,,,,,,,,,,,,,,,,,,,,,,,,,,,,,,,,,,,,,,,,,,,,,,,,,,,,,,,,,FJFCRA,train_x,red_square,bottom_left,2025-09-25_17h01.51.938,HideSeek_v1,2022.2.5,59.97994270723117,
,2,3,2,6,0,3,13,,train_dim1_2,3,30,,,,5,0,5,0,,,,,,,,,0,0,0,0,0,2,2,2,3,0,3,0,,,,,,,,,,,,,,,,,,,,,,,,,,,,,,,,,,,,,,,,,,,,,,,,,,,,,,,,,,,,,,,,30,,,,,,,,2046.152254,2046.152254,2046.152254,2046.152254,2046.152254,up,0.4268889999998464,1,0,0,99,0,0.16,up,0.3503830999999309,,,,,,,,,,,,,,,,,,,,,,,,,,,,,,,,,,,,,,,,,,,,,,,,,,,,,,,,,,,,FJFCRA,train_x,red_square,bottom_left,2025-09-25_17h01.51.938,HideSeek_v1,2022.2.5,59.97994270723117,
,2,3,2,6,0,3,13,,train_dim1_2,3,30,,,,5,0,5,0,,,,,,,,,0,0,0,0,0,2,2,2,4,0,4,0,,,,,,,,,,,,,,,,,,,,,,,,,,,,,,,,,,,,,,,,,,,,,,,,,,,,,,,,,,,,,,,,30,,,,,,,,2046.5881385000002,2046.5881385000002,2046.5881385000002,2046.5881385000002,2046.5881385000002,up,0.7764871999997922,1,0,0,99,0,0.24,up,0.6898223999997981,,,,,,,,,,,,,,,,,,,,,,,,,,,,,,,,,,,,,,,,,,,,,,,,,,,,,,,,,,,,FJFCRA,train_x,red_square,bottom_left,2025-09-25_17h01.51.938,HideSeek_v1,2022.2.5,59.97994270723117,
,2,3,2,6,0,3,13,,train_dim1_2,3,30,,,,5,0,5,0,,,,,,,,,0,0,0,0,0,2,2,2,5,0,5,0,,,,,,,,,,,,,,,,,,,,,,,,,,,,,,,,,,,,,,,,,,,,,,,,,,,,,,,,,,,,,,,,30,,,,,,,,2047.3737021000002,2047.3737021000002,2047.3737021000002,2047.3737021000002,2047.3737021000002,return,0.9573009999999158,1,0,0,0,0,0.24,return,0.8701612999999497,9,72,0,0.24,,,,,,,,,,,,,,,,,,,,,,,,,,,,,,,,,,,,,,,,,,,,,,,,,,,,,,,,FJFCRA,train_x,red_square,bottom_left,2025-09-25_17h01.51.938,HideSeek_v1,2022.2.5,59.97994270723117,
,0,1,0,5,0,4,12,,train_dim1_2,4,30,,,,5,0,5,0,,,,,,,,,0,0,0,0,0,3,3,3,0,0,0,0,,,,,,,,,,,,,,,,,,,,,,,,,stimuli/alien_stimuli/12.png,,,,,,,,,,,,,,,,,,,,,,,,,,,,,stimuli/alien_stimuli/13.png,13,2,5,,,,,,,30,,,,,,,,2055.0372795000003,2055.0372795000003,2055.0372795000003,2055.0372795000003,2055.0372795000003,up,2.154051499999696,1,0,0,99,-0.16,-0.24,up,2.0714520999996466,,,,,2053.4752439000004,2055.0372795000003,0,0.08,0.24,0.0,-0.04,0,0.0,0,0.08,2049.8888175,2049.8888175,2049.8888175,2049.8888175,2049.8888175,2049.8888175,2049.8888175,2049.8888175,2049.88916826,3.6886101000000053,return,3.564834099999757,,,,,,,,,,,,,,,,,,,,,,,,,,,,,,,,,FJFCRA,train_x,red_square,bottom_left,2025-09-25_17h01.51.938,HideSeek_v1,2022.2.5,59.97994270723117,
,0,1,0,5,0,4,12,,train_dim1_2,4,30,,,,5,0,5,0,,,,,,,,,0,0,0,0,0,3,3,3,1,0,1,0,,,,,,,,,,,,,,,,,,,,,,,,,,,,,,,,,,,,,,,,,,,,,,,,,,,,,,,,,,,,,,,,30,,,,,,,,2057.2006381,2057.2006381,2057.2006381,2057.2006381,2057.2006381,up,0.6061109000002034,1,0,0,99,-0.16,-0.15999999999999998,up,0.5134021000000075,,,,,,,,,,,,,,,,,,,,,,,,,,,,,,,,,,,,,,,,,,,,,,,,,,,,,,,,,,,,FJFCRA,train_x,red_square,bottom_left,2025-09-25_17h01.51.938,HideSeek_v1,2022.2.5,59.97994270723117,
,0,1,0,5,0,4,12,,train_dim1_2,4,30,,,,5,0,5,0,,,,,,,,,0,0,0,0,0,3,3,3,2,0,2,0,,,,,,,,,,,,,,,,,,,,,,,,,,,,,,,,,,,,,,,,,,,,,,,,,,,,,,,,,,,,,,,,30,,,,,,,,2057.8145768,2057.8145768,2057.8145768,2057.8145768,2057.8145768,up,0.47713809999959267,1,0,0,99,-0.16,-0.07999999999999997,up,0.39155389999962154,,,,,,,,,,,,,,,,,,,,,,,,,,,,,,,,,,,,,,,,,,,,,,,,,,,,,,,,,,,,FJFCRA,train_x,red_square,bottom_left,2025-09-25_17h01.51.938,HideSeek_v1,2022.2.5,59.97994270723117,
,0,1,0,5,0,4,12,,train_dim1_2,4,30,,,,5,0,5,0,,,,,,,,,0,0,0,0,0,3,3,3,3,0,3,0,,,,,,,,,,,,,,,,,,,,,,,,,,,,,,,,,,,,,,,,,,,,,,,,,,,,,,,,,,,,,,,,30,,,,,,,,2058.2975611,2058.2975611,2058.2975611,2058.2975611,2058.2975611,up,0.4267002000001412,1,0,0,99,-0.16,2.7755575615628914e-17,up,0.3415322000001879,,,,,,,,,,,,,,,,,,,,,,,,,,,,,,,,,,,,,,,,,,,,,,,,,,,,,,,,,,,,FJFCRA,train_x,red_square,bottom_left,2025-09-25_17h01.51.938,HideSeek_v1,2022.2.5,59.97994270723117,
,0,1,0,5,0,4,12,,train_dim1_2,4,30,,,,5,0,5,0,,,,,,,,,0,0,0,0,0,3,3,3,4,0,4,0,,,,,,,,,,,,,,,,,,,,,,,,,,,,,,,,,,,,,,,,,,,,,,,,,,,,,,,,,,,,,,,,30,,,,,,,,2058.7313754,2058.7313754,2058.7313754,2058.7313754,2058.7313754,up,0.3931411999997181,1,0,0,99,-0.16,0.08000000000000003,up,0.3109439999999495,,,,,,,,,,,,,,,,,,,,,,,,,,,,,,,,,,,,,,,,,,,,,,,,,,,,,,,,,,,,FJFCRA,train_x,red_square,bottom_left,2025-09-25_17h01.51.938,HideSeek_v1,2022.2.5,59.97994270723117,
,0,1,0,5,0,4,12,,train_dim1_2,4,30,,,,5,0,5,0,,,,,,,,,0,0,0,0,0,3,3,3,5,0,5,0,,,,,,,,,,,,,,,,,,,,,,,,,,,,,,,,,,,,,,,,,,,,,,,,,,,,,,,,,,,,,,,,30,,,,,,,,2059.1322939,2059.1322939,2059.1322939,2059.1322939,2059.1322939,return,0.5597741000001406,1,1,0,0,-0.16,0.08000000000000003,return,0.47121359999994183,14,72,-0.16,0.08000000000000003,,,,,,,,,,,,,,,,,,,,,,,,,,,,,,,,,,,,,,,,,,,,,,,,,,,,,,,,FJFCRA,train_x,red_square,bottom_left,2025-09-25_17h01.51.938,HideSeek_v1,2022.2.5,59.97994270723117,
