trialInstr,x_fixStart,y_fixStart,x_corrSteps,y_corrSteps,x_nrSteps,y_nrSteps,alienID,trialLength,version,trialTrain,praclen,testlen,trial_label,break_on_off,beforeExpLoop.thisRepN,beforeExpLoop.thisTrialN,beforeExpLoop.thisN,beforeExpLoop.thisIndex,mini_instr_trials.thisRepN,mini_instr_trials.thisTrialN,mini_instr_trials.thisN,mini_instr_trials.thisIndex,instrLoop.thisRepN,instrLoop.thisTrialN,instrLoop.thisN,instrLoop.thisIndex,repeat_prac.thisRepN,repeat_prac.thisTrialN,repeat_prac.thisN,repeat_prac.thisIndex,trainLoop.thisRepN,trainLoop.thisTrialN,trainLoop.thisN,trainLoop.thisIndex,moveLoop_train.thisRepN,moveLoop_train.thisTrialN,moveLoop_train.thisN,moveLoop_train.thisIndex,experiment.thisRepN,experiment.thisTrialN,experiment.thisN,experiment.thisIndex,moveLoop_test.thisRepN,moveLoop_test.thisTrialN,moveLoop_test.thisN,moveLoop_test.thisIndex,mini_instr2_trials.thisRepN,mini_instr2_trials.thisTrialN,mini_instr2_trials.thisN,mini_instr2_trials.thisIndex,start_all_time,url,slideStim,audioStim,slides.started,sounds.started,nextButton.numClicks,nextButton.timesOn,nextButton.timesOff,prev_but.numClicks,prev_but.timesOn,prev_but.timesOff,alienStim,instrFile,alienStim_instr,gridImage_instr.started,startPos_3.started,key_instr.started,alienImage_3.started,sounds_1.started,key_instr.keys,key_instr.rt,all_x,all_y,FBy_corrSteps,FBy_fixStart,FBx_corrSteps,FBx_fixStart,FBy_pathSize_check,FBx_pathSize_check,gridImage_9.started,alienImageFB_3.started,startPosFB_3.started,keyFB_3.started,pathLine_ydir_2.started,pathLine_xdir_2.started,alienFace_3.started,sounds_2.started,RTFB_instr,keyFB_3.keys,keyFB_3.rt,draw_alienStim,draw_alienID,test_x,nrepcount,perfthres,percthres,earlierperf,earlystop,nextPrac,fileidx,praclen,saveACC_train,pracFile,nextPrac_train,addNrep,fileidx_endr,repExp,showearly,gridImage_4.started,startPos.started,movePos.started,key_resp.started,alienImage.started,buttonPress_train,RTchoice_train,cumAcctrain,aCorr,saveACC_choice,corrAns,x_movePos_end,y_movePos_end,key_resp.keys,key_resp.rt,wLy_dir,wLx_dir,x_movePos,y_movePos,text_2.started,text_2.stopped,aft_x_corrPos,aft_y_corrPos,y_pathSize_check,x_pathSize_check,y_pathdirY,x_pathdirY,x_pathdirX,x_corrPos,y_corrPos,gridImage_6.started,alienImageFB_2.started,startPosFB_2.started,movePosFB_2.started,keyFB_2.started,pathLine_xdir.started,pathLine_ydir.started,alienFace.started,sounds_4.started,RT_FBtrain,keyFB_2.keys,keyFB_2.rt,saveACC_pre,ACC,within_saveACC_train,earlystop_wloop,cumAcctrain_check,gridImage_3.started,alienImage_test.started,startPos_test.started,movePos_test.started,key_resp_test.started,wLy_dir_test,wLx_dir_test,buttonPress_test,RTchoice_test,cumAcctest,corrAns_test,key_resp_test.keys,key_resp_test.rt,text_3.started,text_3.stopped,total_time,end_all_time,key_resp_3.keys,slides_2.started,sounds_3.started,nextButton_2.numClicks,nextButton_2.timesOn,nextButton_2.timesOff,prev_but_2.numClicks,prev_but_2.timesOn,prev_but_2.timesOff,bye.started,participant,train_first,00_coordinate,starting corner,date,expName,psychopyVersion,frameRate,
,,,,,,,,,,,,,,,0,0,0,0,0,0,0,0,,,,,,,,,,,,,,,,,,,,,,,,,,,,,start_all_time,testround,conditions/schedules/train_y_first/red_square_00/top_right/instructions/Slide1.png,conditions/schedules/train_y_first/red_square_00/top_right/instructions/Audio1.wav,78.61461609997787,78.57193216029555,1,[3.445683700032532],[3.4456915999762714],0,,,,,,,,,,,,,,,,,,,,,,,,,,,,,,,,,,,,,,,,,,,,,,,,,,,,,,,,,,,,,,,,,,,,,,,,,,,,,,,,,,,,,,,,,,,,,,,,,,,,,,,,,,,,,,,,,,,,,,,,,,,,FWRGJU,train_y,red_square,top_right,2025-08-19_18h46.28.717,HideSeek_v1,2022.2.5,59.982676982707986,
,,,,,,,,,,,,,,,0,0,0,0,1,0,1,0,,,,,,,,,,,,,,,,,,,,,,,,,,,,,,,conditions/schedules/train_y_first/red_square_00/top_right/instructions/Slide2.png,conditions/schedules/train_y_first/red_square_00/top_right/instructions/Audio2.wav,82.0835496999789,82.06985494005494,2,"[3.445683700032532, 18.316189300036058]","[0.0002500999253243208, 18.31619710009545]",0,,,,,,,,,,,,,,,,,,,,,,,,,,,,,,,,,,,,,,,,,,,,,,,,,,,,,,,,,,,,,,,,,,,,,,,,,,,,,,,,,,,,,,,,,,,,,,,,,,,,,,,,,,,,,,,,,,,,,,,,,,,,FWRGJU,train_y,red_square,top_right,2025-08-19_18h46.28.717,HideSeek_v1,2022.2.5,59.982676982707986,
,,,,,,,,,,,,,,,0,0,0,0,2,0,2,0,,,,,,,,,,,,,,,,,,,,,,,,,,,,,,,conditions/schedules/train_y_first/red_square_00/top_right/instructions/Slide3.png,conditions/schedules/train_y_first/red_square_00/top_right/instructions/Audio3.wav,100.46726950001903,100.46858735010028,3,"[3.445683700032532, 18.316189300036058, 16.129229600075632]","[0.0002500999253243208, 0.00021810014732182026, 16.129237400135025]",0,,,,,,,,,,,,,,,,,,,,,,,,,,,,,,,,,,,,,,,,,,,,,,,,,,,,,,,,,,,,,,,,,,,,,,,,,,,,,,,,,,,,,,,,,,,,,,,,,,,,,,,,,,,,,,,,,,,,,,,,,,,,FWRGJU,train_y,red_square,top_right,2025-08-19_18h46.28.717,HideSeek_v1,2022.2.5,59.982676982707986,
,,,,,,,,,,,,,,,0,0,0,0,3,0,3,0,,,,,,,,,,,,,,,,,,,,,,,,,,,,,,,conditions/schedules/train_y_first/red_square_00/top_right/instructions/Slide4.png,conditions/schedules/train_y_first/red_square_00/top_right/instructions/Audio4.wav,116.68130080006085,116.6819167600479,4,"[3.445683700032532, 18.316189300036058, 16.129229600075632, 19.465106999967247]","[0.0002500999253243208, 0.00021810014732182026, 16.129237400135025, 19.465114600025117]",0,,,,,,,,,,,,,,,,,,,,,,,,,,,,,,,,,,,,,,,,,,,,,,,,,,,,,,,,,,,,,,,,,,,,,,,,,,,,,,,,,,,,,,,,,,,,,,,,,,,,,,,,,,,,,,,,,,,,,,,,,,,,FWRGJU,train_y,red_square,top_right,2025-08-19_18h46.28.717,HideSeek_v1,2022.2.5,59.982676982707986,
,,,,,,,,,,,,,,,0,0,0,0,4,0,4,0,,,,,,,,,,,,,,,,,,,,,,,,,,,,,,,conditions/schedules/train_y_first/red_square_00/top_right/instructions/Slide5.png,conditions/schedules/train_y_first/red_square_00/top_right/instructions/Audio5.wav,136.21275550010614,136.21499594999477,5,"[3.445683700032532, 18.316189300036058, 16.129229600075632, 19.465106999967247, 4.920925799990073]","[0.0002500999253243208, 0.00021810014732182026, 16.129237400135025, 0.06688910000957549, 4.920933600049466]",0,,,,,,,,,,,,,,,,,,,,,,,,,,,,,,,,,,,,,,,,,,,,,,,,,,,,,,,,,,,,,,,,,,,,,,,,,,,,,,,,,,,,,,,,,,,,,,,,,,,,,,,,,,,,,,,,,,,,,,,,,,,,FWRGJU,train_y,red_square,top_right,2025-08-19_18h46.28.717,HideSeek_v1,2022.2.5,59.982676982707986,
,,,,,,,,,,,,,,,0,0,0,0,5,0,5,0,,,,,,,,,,,,,,,,,,,,,,,,,,,,,,,conditions/schedules/train_y_first/red_square_00/top_right/instructions/Slide6.png,conditions/schedules/train_y_first/red_square_00/top_right/instructions/Audio6.wav,141.18461690004915,141.1856340400409,6,"[3.445683700032532, 18.316189300036058, 16.129229600075632, 19.465106999967247, 4.920925799990073, 4.1020138000603765]","[0.0002500999253243208, 0.00021810014732182026, 16.129237400135025, 0.06688910000957549, 0.03221870004199445, 4.102021200116724]",0,,,,,,,,,,,,,,,,,,,,,,,,,,,,,,,,,,,,,,,,,,,,,,,,,,,,,,,,,,,,,,,,,,,,,,,,,,,,,,,,,,,,,,,,,,,,,,,,,,,,,,,,,,,,,,,,,,,,,,,,,,,,FWRGJU,train_y,red_square,top_right,2025-08-19_18h46.28.717,HideSeek_v1,2022.2.5,59.982676982707986,
,,,,,,,,,,,,,,,0,0,0,0,6,0,6,0,,,,,,,,,,,,,,,,,,,,,,,,,,,,,,,conditions/schedules/train_y_first/red_square_00/top_right/instructions/Slide7.png,conditions/schedules/train_y_first/red_square_00/top_right/instructions/Audio7.wav,145.3379583999049,145.33911133999936,7,"[3.445683700032532, 18.316189300036058, 16.129229600075632, 19.465106999967247, 4.920925799990073, 4.1020138000603765, 4.869271900039166]","[0.0002500999253243208, 0.00021810014732182026, 16.129237400135025, 0.06688910000957549, 0.03221870004199445, 0.08221139991655946, 4.8692795999813825]",0,,,,,,,,,,,,,,,,,,,,,,,,,,,,,,,,,,,,,,,,,,,,,,,,,,,,,,,,,,,,,,,,,,,,,,,,,,,,,,,,,,,,,,,,,,,,,,,,,,,,,,,,,,,,,,,,,,,,,,,,,,,,FWRGJU,train_y,red_square,top_right,2025-08-19_18h46.28.717,HideSeek_v1,2022.2.5,59.982676982707986,
,,,,,,,,,,,,,,,0,0,0,0,7,0,7,0,,,,,,,,,,,,,,,,,,,,,,,,,,,,,,,conditions/schedules/train_y_first/red_square_00/top_right/instructions/Slide8.png,conditions/schedules/train_y_first/red_square_00/top_right/instructions/Audio8.wav,150.2593710999936,150.259882040089,8,"[3.445683700032532, 18.316189300036058, 16.129229600075632, 19.465106999967247, 4.920925799990073, 4.1020138000603765, 4.869271900039166, 11.657947400119156]","[0.0002500999253243208, 0.00021810014732182026, 16.129237400135025, 0.06688910000957549, 0.03221870004199445, 0.08221139991655946, 0.06525760004296899, 11.657955100061372]",0,,,,,,,,,,,,,,,,,,,,,,,,,,,,,,,,,,,,,,,,,,,,,,,,,,,,,,,,,,,,,,,,,,,,,,,,,,,,,,,,,,,,,,,,,,,,,,,,,,,,,,,,,,,,,,,,,,,,,,,,,,,,FWRGJU,train_y,red_square,top_right,2025-08-19_18h46.28.717,HideSeek_v1,2022.2.5,59.982676982707986,
,,,,,,,,,,,,,,,0,0,0,0,8,0,8,0,,,,,,,,,,,,,,,,,,,,,,,,,,,,,,,conditions/schedules/train_y_first/red_square_00/top_right/instructions/Slide9.png,conditions/schedules/train_y_first/red_square_00/top_right/instructions/Audio9.wav,161.98400820000097,161.98620914993808,9,"[3.445683700032532, 18.316189300036058, 16.129229600075632, 19.465106999967247, 4.920925799990073, 4.1020138000603765, 4.869271900039166, 11.657947400119156, 6.071846999926493]","[0.0002500999253243208, 0.00021810014732182026, 16.129237400135025, 0.06688910000957549, 0.03221870004199445, 0.08221139991655946, 0.06525760004296899, 0.03323719999752939, 6.0718549999874085]",0,,,,,,,,,,,,,,,,,,,,,,,,,,,,,,,,,,,,,,,,,,,,,,,,,,,,,,,,,,,,,,,,,,,,,,,,,,,,,,,,,,,,,,,,,,,,,,,,,,,,,,,,,,,,,,,,,,,,,,,,,,,,FWRGJU,train_y,red_square,top_right,2025-08-19_18h46.28.717,HideSeek_v1,2022.2.5,59.982676982707986,
,,,,,,,,,,,,,,,0,0,0,0,9,0,9,0,,,,,,,,,,,,,,,,,,,,,,,,,,,,,,,conditions/schedules/train_y_first/red_square_00/top_right/instructions/Slide10.png,conditions/schedules/train_y_first/red_square_00/top_right/instructions/Audio10.wav,168.09380239993334,168.09153382992372,10,"[3.445683700032532, 18.316189300036058, 16.129229600075632, 19.465106999967247, 4.920925799990073, 4.1020138000603765, 4.869271900039166, 11.657947400119156, 6.071846999926493, 7.134247200097889]","[0.0002500999253243208, 0.00021810014732182026, 16.129237400135025, 0.06688910000957549, 0.03221870004199445, 0.08221139991655946, 0.06525760004296899, 0.03323719999752939, 0.06370369996875525, 7.134254999924451]",0,,,,,,,,,,,,,,,,,,,,,,,,,,,,,,,,,,,,,,,,,,,,,,,,,,,,,,,,,,,,,,,,,,,,,,,,,,,,,,,,,,,,,,,,,,,,,,,,,,,,,,,,,,,,,,,,,,,,,,,,,,,,FWRGJU,train_y,red_square,top_right,2025-08-19_18h46.28.717,HideSeek_v1,2022.2.5,59.982676982707986,
,,,,,,,,,,,,,,,0,0,0,0,10,0,10,0,,,,,,,,,,,,,,,,,,,,,,,,,,,,,,,conditions/schedules/train_y_first/red_square_00/top_right/instructions/Slide11.png,conditions/schedules/train_y_first/red_square_00/top_right/instructions/Audio11.wav,175.26656219991855,175.26401243009605,11,"[3.445683700032532, 18.316189300036058, 16.129229600075632, 19.465106999967247, 4.920925799990073, 4.1020138000603765, 4.869271900039166, 11.657947400119156, 6.071846999926493, 7.134247200097889, 9.352362399920821]","[0.0002500999253243208, 0.00021810014732182026, 16.129237400135025, 0.06688910000957549, 0.03221870004199445, 0.08221139991655946, 0.06525760004296899, 0.03323719999752939, 0.06370369996875525, 0.04713309998624027, 9.352370499866083]",0,,,,,,,,,,,,,,,,,,,,,,,,,,,,,,,,,,,,,,,,,,,,,,,,,,,,,,,,,,,,,,,,,,,,,,,,,,,,,,,,,,,,,,,,,,,,,,,,,,,,,,,,,,,,,,,,,,,,,,,,,,,,FWRGJU,train_y,red_square,top_right,2025-08-19_18h46.28.717,HideSeek_v1,2022.2.5,59.982676982707986,
,,,,,,,,,,,,,,,0,0,0,0,11,0,11,0,,,,,,,,,,,,,,,,,,,,,,,,,,,,,,,conditions/schedules/train_y_first/red_square_00/top_right/instructions/Slide12.png,conditions/schedules/train_y_first/red_square_00/top_right/instructions/Audio12.wav,184.67388390004635,184.67170923994854,12,"[3.445683700032532, 18.316189300036058, 16.129229600075632, 19.465106999967247, 4.920925799990073, 4.1020138000603765, 4.869271900039166, 11.657947400119156, 6.071846999926493, 7.134247200097889, 9.352362399920821, 13.356371500063688]","[0.0002500999253243208, 0.00021810014732182026, 16.129237400135025, 0.06688910000957549, 0.03221870004199445, 0.08221139991655946, 0.06525760004296899, 0.03323719999752939, 0.06370369996875525, 0.04713309998624027, 0.030602999962866306, 13.356379000004381]",0,,,,,,,,,,,,,,,,,,,,,,,,,,,,,,,,,,,,,,,,,,,,,,,,,,,,,,,,,,,,,,,,,,,,,,,,,,,,,,,,,,,,,,,,,,,,,,,,,,,,,,,,,,,,,,,,,,,,,,,,,,,,FWRGJU,train_y,red_square,top_right,2025-08-19_18h46.28.717,HideSeek_v1,2022.2.5,59.982676982707986,
1,7,8,7,3,0,-5,11,2,instr_dim1_1,,,,,,0,0,0,0,,,,,0,0,0,0,,,,,,,,,,,,,,,,,,,,,,,,,,,,,,,,,,,,,stimuli/alien_stimuli/11.png,conditions/schedules/train_y_first/red_square_00/top_right/inputInstr_1.xlsx,stimuli/alien_stimuli/11.png,198.1318771999795,198.1318771999795,198.1318771999795,198.1318771999795,198.1330381699372,return,11.877106099855155,"[-0.16, -0.08, 0, 0.08, 0.16, 0.24, 0.32, 0.4, 0.48, 0.56]","[-0.4, -0.32, -0.24, -0.16, -0.08, 0, 0.08, 0.16, 0.24, 0.32]",3,8,7,7,0.4,0.0,210.16614479990676,210.16614479990676,210.16614479990676,210.16614479990676,210.16614479990676,210.16614479990676,210.16614479990676,210.15953559009358,9.658603599993512,return,9.49796609999612,stimuli/alien_stimuli/11.png,11,7,1,,,,,,,,,,,,,,,,,,,,,,,,,,,,,,,,,,,,,,,,,,,,,,,,,,,,,,,,,,,,,,,,,,,,,,,,,,,,,,,,,,,,,,,,,FWRGJU,train_y,red_square,top_right,2025-08-19_18h46.28.717,HideSeek_v1,2022.2.5,59.982676982707986,
,,,,,,,,,,,30,,,,0,0,0,0,,,,,,,,,,,,,,,,,,,,,,,,,,,,,,,,,,,,,,,,,,,,,,,,,,,,,,,,,,,,,,,,,,,,,,,,,,,,,,21,0.7,0,0,99,1,30,0,conditions/schedules/train_y_first/red_square_00/top_right/inputTrain_1.1.xlsx,99,1,1,1,0,,,,,,,,,,,,,,,,,,,,,,,,,,,,,,,,,,,,,,,,,,,,,,,,,,,,,,,,,,,,,,,,,,,,,,,,,,,FWRGJU,train_y,red_square,top_right,2025-08-19_18h46.28.717,HideSeek_v1,2022.2.5,59.982676982707986,
,,,,,,,,,,,,,,,1,0,1,0,0,0,0,0,,,,,,,,,,,,,,,,,,,,,,,,,,,,,,,conditions/schedules/train_y_first/red_square_00/top_right/instructions/Slide13.png,conditions/schedules/train_y_first/red_square_00/top_right/instructions/Audio13.wav,219.83212170004845,219.83413200010546,13,"[3.445683700032532, 18.316189300036058, 16.129229600075632, 19.465106999967247, 4.920925799990073, 4.1020138000603765, 4.869271900039166, 11.657947400119156, 6.071846999926493, 7.134247200097889, 9.352362399920821, 13.356371500063688, 16.5639988000039]","[0.0002500999253243208, 0.00021810014732182026, 16.129237400135025, 0.06688910000957549, 0.03221870004199445, 0.08221139991655946, 0.06525760004296899, 0.03323719999752939, 0.06370369996875525, 0.04713309998624027, 0.030602999962866306, 13.356379000004381, 16.564007399836555]",0,,,,,,,,,,,,,,,,,,,,,,,,,,,,,,,,,,,,,,,,,,,,,,,,,,,,,,,,,,,,,,,,,,,,,,,,,,,,,,,,,,,,,,,,,,,,,,,,,,,,,,,,,,,,,,,,,,,,,,,,,,,,FWRGJU,train_y,red_square,top_right,2025-08-19_18h46.28.717,HideSeek_v1,2022.2.5,59.982676982707986,
,,,,,,,,,,,,,,,1,0,1,0,1,0,1,0,,,,,,,,,,,,,,,,,,,,,,,,,,,,,,,conditions/schedules/train_y_first/red_square_00/top_right/instructions/Slide14.png,conditions/schedules/train_y_first/red_square_00/top_right/instructions/Audio14.wav,236.45667249988765,236.4482295399066,14,"[3.445683700032532, 18.316189300036058, 16.129229600075632, 19.465106999967247, 4.920925799990073, 4.1020138000603765, 4.869271900039166, 11.657947400119156, 6.071846999926493, 7.134247200097889, 9.352362399920821, 13.356371500063688, 16.5639988000039, 16.352468200027943]","[0.0002500999253243208, 0.00021810014732182026, 16.129237400135025, 0.06688910000957549, 0.03221870004199445, 0.08221139991655946, 0.06525760004296899, 0.03323719999752939, 0.06370369996875525, 0.04713309998624027, 0.030602999962866306, 13.356379000004381, 0.03520440007559955, 16.352475999854505]",0,,,,,,,,,,,,,,,,,,,,,,,,,,,,,,,,,,,,,,,,,,,,,,,,,,,,,,,,,,,,,,,,,,,,,,,,,,,,,,,,,,,,,,,,,,,,,,,,,,,,,,,,,,,,,,,,,,,,,,,,,,,,FWRGJU,train_y,red_square,top_right,2025-08-19_18h46.28.717,HideSeek_v1,2022.2.5,59.982676982707986,
2,5,8,5,8,0,0,16,2,instr_dim1_1,,,,,,1,0,1,0,,,,,0,0,0,0,,,,,,,,,,,,,,,,,,,,,,,,,,,,,,,,,,,,,stimuli/alien_stimuli/16.png,conditions/schedules/train_y_first/red_square_00/top_right/inputInstr_1.xlsx,stimuli/alien_stimuli/16.png,252.90693309996277,252.90693309996277,252.90693309996277,252.90693309996277,252.91177457012236,return,7.29306469974108,"[-0.16, -0.08, 0, 0.08, 0.16, 0.24, 0.32, 0.4, 0.48, 0.56]","[-0.4, -0.32, -0.24, -0.16, -0.08, 0, 0.08, 0.16, 0.24, 0.32]",8,8,5,5,0.0,0.0,260.3481258000247,260.3481258000247,260.3481258000247,260.3481258000247,260.3481258000247,260.3481258000247,260.3481258000247,260.33458028011955,6.772682900074869,return,6.615515899844468,stimuli/alien_stimuli/16.png,16,5,2,,,,,,,,,,,,,,,,,,,,,,,,,,,,,,,,,,,,,,,,,,,,,,,,,,,,,,,,,,,,,,,,,,,,,,,,,,,,,,,,,,,,,,,,,FWRGJU,train_y,red_square,top_right,2025-08-19_18h46.28.717,HideSeek_v1,2022.2.5,59.982676982707986,
,,,,,,,,,,,30,,,,1,0,1,0,,,,,,,,,,,,,,,,,,,,,,,,,,,,,,,,,,,,,,,,,,,,,,,,,,,,,,,,,,,,,,,,,,,,,,,,,,,,,,21,0.7,0,0,99,1,30,0,conditions/schedules/train_y_first/red_square_00/top_right/inputTrain_1.1.xlsx,99,1,1,1,0,,,,,,,,,,,,,,,,,,,,,,,,,,,,,,,,,,,,,,,,,,,,,,,,,,,,,,,,,,,,,,,,,,,,,,,,,,,FWRGJU,train_y,red_square,top_right,2025-08-19_18h46.28.717,HideSeek_v1,2022.2.5,59.982676982707986,
,,,,,,,,,,,,,,,2,0,2,0,0,0,0,0,,,,,,,,,,,,,,,,,,,,,,,,,,,,,,,conditions/schedules/train_y_first/red_square_00/top_right/instructions/Slide15.png,conditions/schedules/train_y_first/red_square_00/top_right/instructions/Audio15.wav,267.14372829999775,267.1399562000297,15,"[3.445683700032532, 18.316189300036058, 16.129229600075632, 19.465106999967247, 4.920925799990073, 4.1020138000603765, 4.869271900039166, 11.657947400119156, 6.071846999926493, 7.134247200097889, 9.352362399920821, 13.356371500063688, 16.5639988000039, 16.352468200027943, 42.47980959992856]","[0.0002500999253243208, 0.00021810014732182026, 16.129237400135025, 0.06688910000957549, 0.03221870004199445, 0.08221139991655946, 0.06525760004296899, 0.03323719999752939, 0.06370369996875525, 0.04713309998624027, 0.030602999962866306, 13.356379000004381, 0.03520440007559955, 16.352475999854505, 42.479818399995565]",0,,,,,,,,,,,,,,,,,,,,,,,,,,,,,,,,,,,,,,,,,,,,,,,,,,,,,,,,,,,,,,,,,,,,,,,,,,,,,,,,,,,,,,,,,,,,,,,,,,,,,,,,,,,,,,,,,,,,,,,,,,,,FWRGJU,train_y,red_square,top_right,2025-08-19_18h46.28.717,HideSeek_v1,2022.2.5,59.982676982707986,
,,,,,,,,,,,,,,,2,0,2,0,1,0,1,0,,,,,,,,,,,,,,,,,,,,,,,,,,,,,,,conditions/schedules/train_y_first/red_square_00/top_right/instructions/Slide16.png,conditions/schedules/train_y_first/red_square_00/top_right/instructions/Audio16.wav,309.69611890008673,309.69223064999096,16,"[3.445683700032532, 18.316189300036058, 16.129229600075632, 19.465106999967247, 4.920925799990073, 4.1020138000603765, 4.869271900039166, 11.657947400119156, 6.071846999926493, 7.134247200097889, 9.352362399920821, 13.356371500063688, 16.5639988000039, 16.352468200027943, 42.47980959992856, 21.461840000003576]","[0.0002500999253243208, 0.00021810014732182026, 16.129237400135025, 0.06688910000957549, 0.03221870004199445, 0.08221139991655946, 0.06525760004296899, 0.03323719999752939, 0.06370369996875525, 0.04713309998624027, 0.030602999962866306, 13.356379000004381, 0.03520440007559955, 16.352475999854505, 0.014226200059056282, 21.461848699953407]",0,,,,,,,,,,,,,,,,,,,,,,,,,,,,,,,,,,,,,,,,,,,,,,,,,,,,,,,,,,,,,,,,,,,,,,,,,,,,,,,,,,,,,,,,,,,,,,,,,,,,,,,,,,,,,,,,,,,,,,,,,,,,FWRGJU,train_y,red_square,top_right,2025-08-19_18h46.28.717,HideSeek_v1,2022.2.5,59.982676982707986,
,5,5,5,4,0,-1,15,,train_dim1_1,1,30,,,,2,0,2,0,,,,,,,,,0,0,0,0,0,0,0,0,0,0,0,0,,,,,,,,,,,,,,,,,,,,,,,,,stimuli/alien_stimuli/15.png,,,,,,,,,,,,,,,,,,,,,,,,,,,,,,,,,,,,,,,30,,,,,,,,331.2619380999822,331.2619380999822,331.2619380999822,331.2619380999822,331.2619380999822,down,43.94770110002719,0,0,0,99,0.24,-0.08,down,43.83819089992903,,,,,,,,,,,,,,,,,,,,,,,,,,,,,,,,,,,,,,,,,,,,,,,,,,,,,,,,,,,,FWRGJU,train_y,red_square,top_right,2025-08-19_18h46.28.717,HideSeek_v1,2022.2.5,59.982676982707986,
,5,5,5,4,0,-1,15,,train_dim1_1,1,30,,,,2,0,2,0,,,,,,,,,0,0,0,0,0,0,0,0,1,0,1,0,,,,,,,,,,,,,,,,,,,,,,,,,,,,,,,,,,,,,,,,,,,,,,,,,,,,,,,,,,,,,,,,30,,,,,,,,375.21396990003996,375.21396990003996,375.21396990003996,375.21396990003996,375.21396990003996,down,1.5762920000124723,0,0,0,99,0.24,-0.16,down,1.4742542998865247,,,,,,,,,,,,,,,,,,,,,,,,,,,,,,,,,,,,,,,,,,,,,,,,,,,,,,,,,,,,FWRGJU,train_y,red_square,top_right,2025-08-19_18h46.28.717,HideSeek_v1,2022.2.5,59.982676982707986,
,5,5,5,4,0,-1,15,,train_dim1_1,1,30,,,,2,0,2,0,,,,,,,,,0,0,0,0,0,0,0,0,2,0,2,0,,,,,,,,,,,,,,,,,,,,,,,,,,,,,,,,,,,,,,,,,,,,,,,,,,,,,,,,,,,,,,,,30,,,,,,,,376.78253159997985,376.78253159997985,376.78253159997985,376.78253159997985,376.78253159997985,down,1.5442222999408841,0,0,0,99,0.24,-0.24,down,1.4629042998421937,,,,,,,,,,,,,,,,,,,,,,,,,,,,,,,,,,,,,,,,,,,,,,,,,,,,,,,,,,,,FWRGJU,train_y,red_square,top_right,2025-08-19_18h46.28.717,HideSeek_v1,2022.2.5,59.982676982707986,
,5,5,5,4,0,-1,15,,train_dim1_1,1,30,,,,2,0,2,0,,,,,,,,,0,0,0,0,0,0,0,0,3,0,3,0,,,,,,,,,,,,,,,,,,,,,,,,,,,,,,,,,,,,,,,,,,,,,,,,,,,,,,,,,,,,,,,,30,,,,,,,,378.33503179997206,378.33503179997206,378.33503179997206,378.33503179997206,378.33503179997206,down,0.9099717000499368,0,0,0,99,0.24,-0.32,down,0.8264735999982804,,,,,,,,,,,,,,,,,,,,,,,,,,,,,,,,,,,,,,,,,,,,,,,,,,,,,,,,,,,,FWRGJU,train_y,red_square,top_right,2025-08-19_18h46.28.717,HideSeek_v1,2022.2.5,59.982676982707986,
,5,5,5,4,0,-1,15,,train_dim1_1,1,30,,,,2,0,2,0,,,,,,,,,0,0,0,0,0,0,0,0,4,0,4,0,,,,,,,,,,,,,,,,,,,,,,,,,,,,,,,,,,,,,,,,,,,,,,,,,,,,,,,,,,,,,,,,30,,,,,,,,379.2511235999409,379.2511235999409,379.2511235999409,379.2511235999409,379.2511235999409,down,0.37670390005223453,0,0,0,99,0.24,-0.4,down,0.2884867999237031,,,,,,,,,,,,,,,,,,,,,,,,,,,,,,,,,,,,,,,,,,,,,,,,,,,,,,,,,,,,FWRGJU,train_y,red_square,top_right,2025-08-19_18h46.28.717,HideSeek_v1,2022.2.5,59.982676982707986,
,5,5,5,4,0,-1,15,,train_dim1_1,1,30,,,,2,0,2,0,,,,,,,,,0,0,0,0,0,0,0,0,5,0,5,0,,,,,,,,,,,,,,,,,,,,,,,,,,,,,,,,,,,,,,,,,,,,,,,,,,,,,,,,,,,,,,,,30,,,,,,,,379.6356081000995,379.6356081000995,379.6356081000995,379.6356081000995,379.6356081000995,return,1.3280114000663161,0,0,0,0,0.24,-0.4,return,1.2407890998292714,-5,0,0.24,-0.4,,,,,,,,,,,,,,,,,,,,,,,,,,,,,,,,,,,,,,,,,,,,,,,,,,,,,,,,FWRGJU,train_y,red_square,top_right,2025-08-19_18h46.28.717,HideSeek_v1,2022.2.5,59.982676982707986,
,8,7,8,7,0,0,16,,train_dim1_1,2,30,,,,2,0,2,0,,,,,,,,,0,0,0,0,0,1,1,1,0,0,0,0,,,,,,,,,,,,,,,,,,,,,,,,,stimuli/alien_stimuli/16.png,,,,,,,,,,,,,,,,,,,,,,,,,,,,,stimuli/alien_stimuli/15.png,15,5,3,,,,,,,30,,,,,,,,391.87068980000913,391.87068980000913,391.87068980000913,391.87068980000913,391.87068980000913,left,14.213304300094023,0,0,0,99,0.39999999999999997,0.16,left,14.119881199905649,,,,,390.3091343000997,391.87068980000913,0.24,-0.08,0.08,0.0,-0.04,0.24,0.24,0.24,-0.08,382.5330050000921,382.5330050000921,382.5330050000921,382.5330050000921,382.5330050000921,382.5330050000921,382.5330050000921,382.5330050000921,382.5195476699155,7.892029100097716,return,7.7457934997510165,,,,,,,,,,,,,,,,,,,,,,,,,,,,,,,,,FWRGJU,train_y,red_square,top_right,2025-08-19_18h46.28.717,HideSeek_v1,2022.2.5,59.982676982707986,
,8,7,8,7,0,0,16,,train_dim1_1,2,30,,,,2,0,2,0,,,,,,,,,0,0,0,0,0,1,1,1,1,0,1,0,,,,,,,,,,,,,,,,,,,,,,,,,,,,,,,,,,,,,,,,,,,,,,,,,,,,,,,,,,,,,,,,30,,,,,,,,406.09760609990917,406.09760609990917,406.09760609990917,406.09760609990917,406.09760609990917,left,0.5927228999789804,0,0,0,99,0.31999999999999995,0.16,left,0.5016286000609398,,,,,,,,,,,,,,,,,,,,,,,,,,,,,,,,,,,,,,,,,,,,,,,,,,,,,,,,,,,,FWRGJU,train_y,red_square,top_right,2025-08-19_18h46.28.717,HideSeek_v1,2022.2.5,59.982676982707986,
,8,7,8,7,0,0,16,,train_dim1_1,2,30,,,,2,0,2,0,,,,,,,,,0,0,0,0,0,1,1,1,2,0,2,0,,,,,,,,,,,,,,,,,,,,,,,,,,,,,,,,,,,,,,,,,,,,,,,,,,,,,,,,,,,,,,,,30,,,,,,,,406.6912752999924,406.6912752999924,406.6912752999924,406.6912752999924,406.6912752999924,left,4.5636741002090275,0,0,0,99,0.23999999999999994,0.16,left,4.480432600015774,,,,,,,,,,,,,,,,,,,,,,,,,,,,,,,,,,,,,,,,,,,,,,,,,,,,,,,,,,,,FWRGJU,train_y,red_square,top_right,2025-08-19_18h46.28.717,HideSeek_v1,2022.2.5,59.982676982707986,
,8,7,8,7,0,0,16,,train_dim1_1,2,30,,,,2,0,2,0,,,,,,,,,0,0,0,0,0,1,1,1,3,0,3,0,,,,,,,,,,,,,,,,,,,,,,,,,,,,,,,,,,,,,,,,,,,,,,,,,,,,,,,,,,,,,,,,30,,,,,,,,411.26197550003417,411.26197550003417,411.26197550003417,411.26197550003417,411.26197550003417,left,6.531387799885124,0,0,0,99,0.15999999999999992,0.16,left,6.439304699888453,,,,,,,,,,,,,,,,,,,,,,,,,,,,,,,,,,,,,,,,,,,,,,,,,,,,,,,,,,,,FWRGJU,train_y,red_square,top_right,2025-08-19_18h46.28.717,HideSeek_v1,2022.2.5,59.982676982707986,
,8,7,8,7,0,0,16,,train_dim1_1,2,30,,,,2,0,2,0,,,,,,,,,0,0,0,0,0,1,1,1,4,0,4,0,,,,,,,,,,,,,,,,,,,,,,,,,,,,,,,,,,,,,,,,,,,,,,,,,,,,,,,,,,,,,,,,30,,,,,,,,417.7999555999413,417.7999555999413,417.7999555999413,417.7999555999413,417.7999555999413,left,0.8600733000785112,0,0,0,99,0.07999999999999992,0.16,left,0.7713838999625295,,,,,,,,,,,,,,,,,,,,,,,,,,,,,,,,,,,,,,,,,,,,,,,,,,,,,,,,,,,,FWRGJU,train_y,red_square,top_right,2025-08-19_18h46.28.717,HideSeek_v1,2022.2.5,59.982676982707986,
,8,7,8,7,0,0,16,,train_dim1_1,2,30,,,,2,0,2,0,,,,,,,,,0,0,0,0,0,1,1,1,5,0,5,0,,,,,,,,,,,,,,,,,,,,,,,,,,,,,,,,,,,,,,,,,,,,,,,,,,,,,,,,,,,,,,,,30,,,,,,,,418.6671736999415,418.6671736999415,418.6671736999415,418.6671736999415,418.6671736999415,left,0.3427112998906523,0,0,0,99,-8.326672684688674e-17,0.16,left,0.25245899986475706,,,,,,,,,,,,,,,,,,,,,,,,,,,,,,,,,,,,,,,,,,,,,,,,,,,,,,,,,,,,FWRGJU,train_y,red_square,top_right,2025-08-19_18h46.28.717,HideSeek_v1,2022.2.5,59.982676982707986,
,8,7,8,7,0,0,16,,train_dim1_1,2,30,,,,2,0,2,0,,,,,,,,,0,0,0,0,0,1,1,1,6,0,6,0,,,,,,,,,,,,,,,,,,,,,,,,,,,,,,,,,,,,,,,,,,,,,,,,,,,,,,,,,,,,,,,,30,,,,,,,,419.0187252999749,419.0187252999749,419.0187252999749,419.0187252999749,419.0187252999749,return,0.7098578000441194,0,0,0,0,-8.326672684688674e-17,0.16,return,0.6166653998661786,-5,-6,-8.326672684688674e-17,0.16,,,,,,,,,,,,,,,,,,,,,,,,,,,,,,,,,,,,,,,,,,,,,,,,,,,,,,,,FWRGJU,train_y,red_square,top_right,2025-08-19_18h46.28.717,HideSeek_v1,2022.2.5,59.982676982707986,
,7,8,7,5,0,-3,13,,train_dim1_1,3,30,,,,2,0,2,0,,,,,,,,,0,0,0,0,0,2,2,2,0,0,0,0,,,,,,,,,,,,,,,,,,,,,,,,,stimuli/alien_stimuli/13.png,,,,,,,,,,,,,,,,,,,,,,,,,,,,,stimuli/alien_stimuli/16.png,16,8,4,,,,,,,30,,,,,,,,427.6319901999086,427.6319901999086,427.6319901999086,427.6319901999086,427.6319901999086,down,9.776590100023896,0,0,0,99,0.4,0.15999999999999998,down,9.687807499896735,,,,,426.0722131000366,427.6319901999086,0.48,0.16,0.0,0.0,0.16,0.48,0.48,0.48,0.16,421.2981370999478,421.2981370999478,421.2981370999478,421.2981370999478,421.2981370999478,421.2981370999478,421.2981370999478,421.2981370999478,421.28484807000495,4.889687400078401,return,4.745674900012091,,,,,,,,,,,,,,,,,,,,,,,,,,,,,,,,,FWRGJU,train_y,red_square,top_right,2025-08-19_18h46.28.717,HideSeek_v1,2022.2.5,59.982676982707986,
,7,8,7,5,0,-3,13,,train_dim1_1,3,30,,,,2,0,2,0,,,,,,,,,0,0,0,0,0,2,2,2,1,0,1,0,,,,,,,,,,,,,,,,,,,,,,,,,,,,,,,,,,,,,,,,,,,,,,,,,,,,,,,,,,,,,,,,30,,,,,,,,437.43399329995736,437.43399329995736,437.43399329995736,437.43399329995736,437.43399329995736,down,2.244705299846828,0,0,0,99,0.4,0.07999999999999997,down,2.142572700046003,,,,,,,,,,,,,,,,,,,,,,,,,,,,,,,,,,,,,,,,,,,,,,,,,,,,,,,,,,,,FWRGJU,train_y,red_square,top_right,2025-08-19_18h46.28.717,HideSeek_v1,2022.2.5,59.982676982707986,
,7,8,7,5,0,-3,13,,train_dim1_1,3,30,,,,2,0,2,0,,,,,,,,,0,0,0,0,0,2,2,2,2,0,2,0,,,,,,,,,,,,,,,,,,,,,,,,,,,,,,,,,,,,,,,,,,,,,,,,,,,,,,,,,,,,,,,,30,,,,,,,,439.6701096999459,439.6701096999459,439.6701096999459,439.6701096999459,439.6701096999459,down,0.8244590000249445,0,0,0,99,0.4,-2.7755575615628914e-17,down,0.7336017999332398,,,,,,,,,,,,,,,,,,,,,,,,,,,,,,,,,,,,,,,,,,,,,,,,,,,,,,,,,,,,FWRGJU,train_y,red_square,top_right,2025-08-19_18h46.28.717,HideSeek_v1,2022.2.5,59.982676982707986,
,7,8,7,5,0,-3,13,,train_dim1_1,3,30,,,,2,0,2,0,,,,,,,,,0,0,0,0,0,2,2,2,3,0,3,0,,,,,,,,,,,,,,,,,,,,,,,,,,,,,,,,,,,,,,,,,,,,,,,,,,,,,,,,,,,,,,,,30,,,,,,,,440.5004555999767,440.5004555999767,440.5004555999767,440.5004555999767,440.5004555999767,down,2.0781539001036435,0,0,0,99,0.4,-0.08000000000000003,down,1.9938940997235477,,,,,,,,,,,,,,,,,,,,,,,,,,,,,,,,,,,,,,,,,,,,,,,,,,,,,,,,,,,,FWRGJU,train_y,red_square,top_right,2025-08-19_18h46.28.717,HideSeek_v1,2022.2.5,59.982676982707986,
,7,8,7,5,0,-3,13,,train_dim1_1,3,30,,,,2,0,2,0,,,,,,,,,0,0,0,0,0,2,2,2,4,0,4,0,,,,,,,,,,,,,,,,,,,,,,,,,,,,,,,,,,,,,,,,,,,,,,,,,,,,,,,,,,,,,,,,30,,,,,,,,442.58586389990523,442.58586389990523,442.58586389990523,442.58586389990523,442.58586389990523,return,1.8111147000454366,0,1,0,0,0.4,-0.08000000000000003,return,1.721956399967894,-9,-6,0.4,-0.08000000000000003,,,,,,,,,,,,,,,,,,,,,,,,,,,,,,,,,,,,,,,,,,,,,,,,,,,,,,,,FWRGJU,train_y,red_square,top_right,2025-08-19_18h46.28.717,HideSeek_v1,2022.2.5,59.982676982707986,
,5,6,5,2,0,-4,12,,train_dim1_1,4,30,,,,2,0,2,0,,,,,,,,,0,0,0,0,0,3,3,3,0,0,0,0,,,,,,,,,,,,,,,,,,,,,,,,,stimuli/alien_stimuli/12.png,,,,,,,,,,,,,,,,,,,,,,,,,,,,,stimuli/alien_stimuli/13.png,13,7,5,,,,,,,30,,,,,,,,451.58639089995995,451.58639089995995,451.58639089995995,451.58639089995995,451.58639089995995,down,3.9044769001193345,0,1,0,99,0.24,0.0,down,3.8178997999057174,,,,,450.02547800005414,451.58639089995995,0.4,0,0.24,0.0,0.12,0.4,0.4,0.4,0,445.9678996000439,445.9678996000439,445.9678996000439,445.9678996000439,445.9678996000439,445.9678996000439,445.9678996000439,445.9678996000439,445.95529976999387,4.172566399909556,return,4.039031399879605,,,,,,,,,,,,,,,,,,,,,,,,,,,,,,,,,FWRGJU,train_y,red_square,top_right,2025-08-19_18h46.28.717,HideSeek_v1,2022.2.5,59.982676982707986,
,5,6,5,2,0,-4,12,,train_dim1_1,4,30,,,,2,0,2,0,,,,,,,,,0,0,0,0,0,3,3,3,1,0,1,0,,,,,,,,,,,,,,,,,,,,,,,,,,,,,,,,,,,,,,,,,,,,,,,,,,,,,,,,,,,,,,,,30,,,,,,,,455.5002760000061,455.5002760000061,455.5002760000061,455.5002760000061,455.5002760000061,down,0.5414527000393718,0,1,0,99,0.24,-0.08,down,0.46320889983326197,,,,,,,,,,,,,,,,,,,,,,,,,,,,,,,,,,,,,,,,,,,,,,,,,,,,,,,,,,,,FWRGJU,train_y,red_square,top_right,2025-08-19_18h46.28.717,HideSeek_v1,2022.2.5,59.982676982707986,
,5,6,5,2,0,-4,12,,train_dim1_1,4,30,,,,2,0,2,0,,,,,,,,,0,0,0,0,0,3,3,3,2,0,2,0,,,,,,,,,,,,,,,,,,,,,,,,,,,,,,,,,,,,,,,,,,,,,,,,,,,,,,,,,,,,,,,,30,,,,,,,,456.05007770005614,456.05007770005614,456.05007770005614,456.05007770005614,456.05007770005614,down,0.5099069999996573,0,1,0,99,0.24,-0.16,down,0.41934449994005263,,,,,,,,,,,,,,,,,,,,,,,,,,,,,,,,,,,,,,,,,,,,,,,,,,,,,,,,,,,,FWRGJU,train_y,red_square,top_right,2025-08-19_18h46.28.717,HideSeek_v1,2022.2.5,59.982676982707986,
,5,6,5,2,0,-4,12,,train_dim1_1,4,30,,,,2,0,2,0,,,,,,,,,0,0,0,0,0,3,3,3,3,0,3,0,,,,,,,,,,,,,,,,,,,,,,,,,,,,,,,,,,,,,,,,,,,,,,,,,,,,,,,,,,,,,,,,30,,,,,,,,456.56756859994493,456.56756859994493,456.56756859994493,456.56756859994493,456.56756859994493,down,0.976986899971962,0,1,0,99,0.24,-0.24,down,0.8958323998376727,,,,,,,,,,,,,,,,,,,,,,,,,,,,,,,,,,,,,,,,,,,,,,,,,,,,,,,,,,,,FWRGJU,train_y,red_square,top_right,2025-08-19_18h46.28.717,HideSeek_v1,2022.2.5,59.982676982707986,
,5,6,5,2,0,-4,12,,train_dim1_1,4,30,,,,2,0,2,0,,,,,,,,,0,0,0,0,0,3,3,3,4,0,4,0,,,,,,,,,,,,,,,,,,,,,,,,,,,,,,,,,,,,,,,,,,,,,,,,,,,,,,,,,,,,,,,,30,,,,,,,,457.54973579989746,457.54973579989746,457.54973579989746,457.54973579989746,457.54973579989746,down,2.228332699974999,0,1,0,99,0.24,-0.32,down,2.1385454998817295,,,,,,,,,,,,,,,,,,,,,,,,,,,,,,,,,,,,,,,,,,,,,,,,,,,,,,,,,,,,FWRGJU,train_y,red_square,top_right,2025-08-19_18h46.28.717,HideSeek_v1,2022.2.5,59.982676982707986,
,5,6,5,2,0,-4,12,,train_dim1_1,4,30,,,,2,0,2,0,,,,,,,,,0,0,0,0,0,3,3,3,5,0,5,0,,,,,,,,,,,,,,,,,,,,,,,,,,,,,,,,,,,,,,,,,,,,,,,,,,,,,,,,,,,,,,,,30,,,,,,,,459.7968017999083,459.7968017999083,459.7968017999083,459.7968017999083,459.7968017999083,return,0.584939899854362,0,1,0,0,0.24,-0.32,return,0.4972840999253094,-14,-6,0.24,-0.32,,,,,,,,,,,,,,,,,,,,,,,,,,,,,,,,,,,,,,,,,,,,,,,,,,,,,,,,FWRGJU,train_y,red_square,top_right,2025-08-19_18h46.28.717,HideSeek_v1,2022.2.5,59.982676982707986,
,8,8,8,3,0,-5,11,,train_dim1_1,5,30,,,,2,0,2,0,,,,,,,,,0,0,0,0,0,4,4,4,0,0,0,0,,,,,,,,,,,,,,,,,,,,,,,,,stimuli/alien_stimuli/11.png,,,,,,,,,,,,,,,,,,,,,,,,,,,,,stimuli/alien_stimuli/12.png,12,5,6,,,,,,,30,,,,,,,,470.3855016999878,470.3855016999878,470.3855016999878,470.3855016999878,470.3855016999878,down,2.3701283000409603,0,1,0,99,0.48,0.15999999999999998,down,2.280971999745816,,,,,468.8242669000756,470.3855016999878,0.24,-0.24,0.32,0.0,-0.07999999999999999,0.24,0.24,0.24,-0.24,461.95029899990186,461.95029899990186,461.95029899990186,461.95029899990186,461.95029899990186,461.95029899990186,461.95029899990186,461.95029899990186,461.93556286999956,6.990917099872604,return,6.849808299914002,,,,,,,,,,,,,,,,,,,,,,,,,,,,,,,,,FWRGJU,train_y,red_square,top_right,2025-08-19_18h46.28.717,HideSeek_v1,2022.2.5,59.982676982707986,
,8,8,8,3,0,-5,11,,train_dim1_1,5,30,,,,2,0,2,0,,,,,,,,,0,0,0,0,0,4,4,4,1,0,1,0,,,,,,,,,,,,,,,,,,,,,,,,,,,,,,,,,,,,,,,,,,,,,,,,,,,,,,,,,,,,,,,,30,,,,,,,,472.7637752001174,472.7637752001174,472.7637752001174,472.7637752001174,472.7637752001174,down,1.125866899965331,0,1,0,99,0.48,0.07999999999999997,down,1.0328799998387694,,,,,,,,,,,,,,,,,,,,,,,,,,,,,,,,,,,,,,,,,,,,,,,,,,,,,,,,,,,,FWRGJU,train_y,red_square,top_right,2025-08-19_18h46.28.717,HideSeek_v1,2022.2.5,59.982676982707986,
,8,8,8,3,0,-5,11,,train_dim1_1,5,30,,,,2,0,2,0,,,,,,,,,0,0,0,0,0,4,4,4,2,0,2,0,,,,,,,,,,,,,,,,,,,,,,,,,,,,,,,,,,,,,,,,,,,,,,,,,,,,,,,,,,,,,,,,30,,,,,,,,473.89649570011534,473.89649570011534,473.89649570011534,473.89649570011534,473.89649570011534,down,0.8937593000009656,0,1,0,99,0.48,-2.7755575615628914e-17,down,0.808877999894321,,,,,,,,,,,,,,,,,,,,,,,,,,,,,,,,,,,,,,,,,,,,,,,,,,,,,,,,,,,,FWRGJU,train_y,red_square,top_right,2025-08-19_18h46.28.717,HideSeek_v1,2022.2.5,59.982676982707986,
,8,8,8,3,0,-5,11,,train_dim1_1,5,30,,,,2,0,2,0,,,,,,,,,0,0,0,0,0,4,4,4,3,0,3,0,,,,,,,,,,,,,,,,,,,,,,,,,,,,,,,,,,,,,,,,,,,,,,,,,,,,,,,,,,,,,,,,30,,,,,,,,474.81064349994995,474.81064349994995,474.81064349994995,474.81064349994995,474.81064349994995,down,0.8934130000416189,0,1,0,99,0.48,-0.08000000000000003,down,0.7896693998482078,,,,,,,,,,,,,,,,,,,,,,,,,,,,,,,,,,,,,,,,,,,,,,,,,,,,,,,,,,,,FWRGJU,train_y,red_square,top_right,2025-08-19_18h46.28.717,HideSeek_v1,2022.2.5,59.982676982707986,
,8,8,8,3,0,-5,11,,train_dim1_1,5,30,,,,2,0,2,0,,,,,,,,,0,0,0,0,0,4,4,4,4,0,4,0,,,,,,,,,,,,,,,,,,,,,,,,,,,,,,,,,,,,,,,,,,,,,,,,,,,,,,,,,,,,,,,,30,,,,,,,,475.6975310998969,475.6975310998969,475.6975310998969,475.6975310998969,475.6975310998969,down,2.2448296998627484,0,1,0,99,0.48,-0.16000000000000003,down,2.1590110999532044,,,,,,,,,,,,,,,,,,,,,,,,,,,,,,,,,,,,,,,,,,,,,,,,,,,,,,,,,,,,FWRGJU,train_y,red_square,top_right,2025-08-19_18h46.28.717,HideSeek_v1,2022.2.5,59.982676982707986,
,8,8,8,3,0,-5,11,,train_dim1_1,5,30,,,,2,0,2,0,,,,,,,,,0,0,0,0,0,4,4,4,5,0,5,0,,,,,,,,,,,,,,,,,,,,,,,,,,,,,,,,,,,,,,,,,,,,,,,,,,,,,,,,,,,,,,,,30,,,,,,,,477.94890740001574,477.94890740001574,477.94890740001574,477.94890740001574,477.94890740001574,return,3.9130351999774575,1,0,0,1,0.48,-0.16000000000000003,return,3.821020499803126,-19,-6,0.48,-0.16000000000000003,,,,,,,,,,,,,,,,,,,,,,,,,,,,,,,,,,,,,,,,,,,,,,,,,,,,,,,,FWRGJU,train_y,red_square,top_right,2025-08-19_18h46.28.717,HideSeek_v1,2022.2.5,59.982676982707986,
,6,9,6,5,0,-4,12,,train_dim1_1,6,30,,,,2,0,2,0,,,,,,,,,0,0,0,0,0,5,5,5,0,0,0,0,,,,,,,,,,,,,,,,,,,,,,,,,stimuli/alien_stimuli/12.png,,,,,,,,,,,,,,,,,,,,,,,,,,,,,stimuli/alien_stimuli/11.png,11,8,7,,,,,,,30,,,,,,,,487.662827800028,487.662827800028,487.662827800028,487.662827800028,487.662827800028,down,1.4674431001767516,1,0,0,99,0.32,0.24,down,1.371993799926713,,,,,486.0885524000041,487.662827800028,0.48,-0.16,0.4,0.0,0.039999999999999994,0.48,0.48,0.48,-0.16,483.44096660008654,483.44096660008654,483.44096660008654,483.44096660008654,483.44096660008654,483.44096660008654,483.44096660008654,483.44096660008654,483.436578779947,2.770992700010538,return,2.6163847998250276,,,,,,,,,,,,,,,,,,,,,,,,,,,,,,,,,FWRGJU,train_y,red_square,top_right,2025-08-19_18h46.28.717,HideSeek_v1,2022.2.5,59.982676982707986,
,6,9,6,5,0,-4,12,,train_dim1_1,6,30,,,,2,0,2,0,,,,,,,,,0,0,0,0,0,5,5,5,1,0,1,0,,,,,,,,,,,,,,,,,,,,,,,,,,,,,,,,,,,,,,,,,,,,,,,,,,,,,,,,,,,,,,,,30,,,,,,,,489.12579339998774,489.12579339998774,489.12579339998774,489.12579339998774,489.12579339998774,down,0.6761594000272453,1,0,0,99,0.32,0.15999999999999998,down,0.5854742999654263,,,,,,,,,,,,,,,,,,,,,,,,,,,,,,,,,,,,,,,,,,,,,,,,,,,,,,,,,,,,FWRGJU,train_y,red_square,top_right,2025-08-19_18h46.28.717,HideSeek_v1,2022.2.5,59.982676982707986,
,6,9,6,5,0,-4,12,,train_dim1_1,6,30,,,,2,0,2,0,,,,,,,,,0,0,0,0,0,5,5,5,2,0,2,0,,,,,,,,,,,,,,,,,,,,,,,,,,,,,,,,,,,,,,,,,,,,,,,,,,,,,,,,,,,,,,,,30,,,,,,,,489.80889119999483,489.80889119999483,489.80889119999483,489.80889119999483,489.80889119999483,down,0.7437861999496818,1,0,0,99,0.32,0.07999999999999997,down,0.662478799931705,,,,,,,,,,,,,,,,,,,,,,,,,,,,,,,,,,,,,,,,,,,,,,,,,,,,,,,,,,,,FWRGJU,train_y,red_square,top_right,2025-08-19_18h46.28.717,HideSeek_v1,2022.2.5,59.982676982707986,
,6,9,6,5,0,-4,12,,train_dim1_1,6,30,,,,2,0,2,0,,,,,,,,,0,0,0,0,0,5,5,5,3,0,3,0,,,,,,,,,,,,,,,,,,,,,,,,,,,,,,,,,,,,,,,,,,,,,,,,,,,,,,,,,,,,,,,,30,,,,,,,,490.56016310001723,490.56016310001723,490.56016310001723,490.56016310001723,490.56016310001723,down,1.1437953000422567,1,0,0,99,0.32,-2.7755575615628914e-17,down,1.0614671998191625,,,,,,,,,,,,,,,,,,,,,,,,,,,,,,,,,,,,,,,,,,,,,,,,,,,,,,,,,,,,FWRGJU,train_y,red_square,top_right,2025-08-19_18h46.28.717,HideSeek_v1,2022.2.5,59.982676982707986,
,6,9,6,5,0,-4,12,,train_dim1_1,6,30,,,,2,0,2,0,,,,,,,,,0,0,0,0,0,5,5,5,4,0,4,0,,,,,,,,,,,,,,,,,,,,,,,,,,,,,,,,,,,,,,,,,,,,,,,,,,,,,,,,,,,,,,,,30,,,,,,,,491.7109072001185,491.7109072001185,491.7109072001185,491.7109072001185,491.7109072001185,down,0.5600960999727249,1,0,0,99,0.32,-0.08000000000000003,down,0.4791520999278873,,,,,,,,,,,,,,,,,,,,,,,,,,,,,,,,,,,,,,,,,,,,,,,,,,,,,,,,,,,,FWRGJU,train_y,red_square,top_right,2025-08-19_18h46.28.717,HideSeek_v1,2022.2.5,59.982676982707986,
,6,9,6,5,0,-4,12,,train_dim1_1,6,30,,,,2,0,2,0,,,,,,,,,0,0,0,0,0,5,5,5,5,0,5,0,,,,,,,,,,,,,,,,,,,,,,,,,,,,,,,,,,,,,,,,,,,,,,,,,,,,,,,,,,,,,,,,30,,,,,,,,492.28174720006064,492.28174720006064,492.28174720006064,492.28174720006064,492.28174720006064,down,0.6436018999665976,1,0,0,99,0.32,-0.16000000000000003,down,0.5525799999013543,,,,,,,,,,,,,,,,,,,,,,,,,,,,,,,,,,,,,,,,,,,,,,,,,,,,,,,,,,,,FWRGJU,train_y,red_square,top_right,2025-08-19_18h46.28.717,HideSeek_v1,2022.2.5,59.982676982707986,
,6,9,6,5,0,-4,12,,train_dim1_1,6,30,,,,2,0,2,0,,,,,,,,,0,0,0,0,0,5,5,5,6,0,6,0,,,,,,,,,,,,,,,,,,,,,,,,,,,,,,,,,,,,,,,,,,,,,,,,,,,,,,,,,,,,,,,,30,,,,,,,,492.9293903000653,492.9293903000653,492.9293903000653,492.9293903000653,492.9293903000653,up,1.87779360008426,1,0,0,99,0.32,-0.08000000000000003,up,1.8005271998699754,,,,,,,,,,,,,,,,,,,,,,,,,,,,,,,,,,,,,,,,,,,,,,,,,,,,,,,,,,,,FWRGJU,train_y,red_square,top_right,2025-08-19_18h46.28.717,HideSeek_v1,2022.2.5,59.982676982707986,
,6,9,6,5,0,-4,12,,train_dim1_1,6,30,,,,2,0,2,0,,,,,,,,,0,0,0,0,0,5,5,5,7,0,7,0,,,,,,,,,,,,,,,,,,,,,,,,,,,,,,,,,,,,,,,,,,,,,,,,,,,,,,,,,,,,,,,,30,,,,,,,,494.8138564999681,494.8138564999681,494.8138564999681,494.8138564999681,494.8138564999681,down,2.2113925002049655,1,0,0,99,0.32,-0.16000000000000003,down,2.1336825997568667,,,,,,,,,,,,,,,,,,,,,,,,,,,,,,,,,,,,,,,,,,,,,,,,,,,,,,,,,,,,FWRGJU,train_y,red_square,top_right,2025-08-19_18h46.28.717,HideSeek_v1,2022.2.5,59.982676982707986,
,6,9,6,5,0,-4,12,,train_dim1_1,6,30,,,,2,0,2,0,,,,,,,,,0,0,0,0,0,5,5,5,8,0,8,0,,,,,,,,,,,,,,,,,,,,,,,,,,,,,,,,,,,,,,,,,,,,,,,,,,,,,,,,,,,,,,,,30,,,,,,,,497.0334067000076,497.0334067000076,497.0334067000076,497.0334067000076,497.0334067000076,return,0.45963909989222884,1,0,0,0,0.32,-0.16000000000000003,return,0.37211139989085495,-25,-6,0.32,-0.16000000000000003,,,,,,,,,,,,,,,,,,,,,,,,,,,,,,,,,,,,,,,,,,,,,,,,,,,,,,,,FWRGJU,train_y,red_square,top_right,2025-08-19_18h46.28.717,HideSeek_v1,2022.2.5,59.982676982707986,
,6,8,6,5,0,-3,13,,train_dim1_1,7,30,,,,2,0,2,0,,,,,,,,,0,0,0,0,0,6,6,6,0,0,0,0,,,,,,,,,,,,,,,,,,,,,,,,,stimuli/alien_stimuli/13.png,,,,,,,,,,,,,,,,,,,,,,,,,,,,,stimuli/alien_stimuli/12.png,12,6,8,,,,,,,30,,,,,,,,506.64569199993275,506.64569199993275,506.64569199993275,506.64569199993275,506.64569199993275,down,4.257122999988496,1,0,0,99,0.32,0.15999999999999998,down,4.179625499760732,,,,,505.0877312000375,506.64569199993275,0.32,0,0.32,0.0,0.16,0.32,0.32,0.32,0,499.0643682999071,499.0643682999071,499.0643682999071,499.0643682999071,499.0643682999071,499.0643682999071,499.0643682999071,499.0643682999071,499.0495492699556,6.140478700166568,return,6.002013399731368,,,,,,,,,,,,,,,,,,,,,,,,,,,,,,,,,FWRGJU,train_y,red_square,top_right,2025-08-19_18h46.28.717,HideSeek_v1,2022.2.5,59.982676982707986,
,6,8,6,5,0,-3,13,,train_dim1_1,7,30,,,,2,0,2,0,,,,,,,,,0,0,0,0,0,6,6,6,1,0,1,0,,,,,,,,,,,,,,,,,,,,,,,,,,,,,,,,,,,,,,,,,,,,,,,,,,,,,,,,,,,,,,,,30,,,,,,,,510.9099592999555,510.9099592999555,510.9099592999555,510.9099592999555,510.9099592999555,down,1.6939636000897735,1,0,0,99,0.32,0.07999999999999997,down,1.6169264998752624,,,,,,,,,,,,,,,,,,,,,,,,,,,,,,,,,,,,,,,,,,,,,,,,,,,,,,,,,,,,FWRGJU,train_y,red_square,top_right,2025-08-19_18h46.28.717,HideSeek_v1,2022.2.5,59.982676982707986,
,6,8,6,5,0,-3,13,,train_dim1_1,7,30,,,,2,0,2,0,,,,,,,,,0,0,0,0,0,6,6,6,2,0,2,0,,,,,,,,,,,,,,,,,,,,,,,,,,,,,,,,,,,,,,,,,,,,,,,,,,,,,,,,,,,,,,,,30,,,,,,,,512.6118507001083,512.6118507001083,512.6118507001083,512.6118507001083,512.6118507001083,down,1.3610527000855654,1,0,0,99,0.32,-2.7755575615628914e-17,down,1.2733639997895807,,,,,,,,,,,,,,,,,,,,,,,,,,,,,,,,,,,,,,,,,,,,,,,,,,,,,,,,,,,,FWRGJU,train_y,red_square,top_right,2025-08-19_18h46.28.717,HideSeek_v1,2022.2.5,59.982676982707986,
,6,8,6,5,0,-3,13,,train_dim1_1,7,30,,,,2,0,2,0,,,,,,,,,0,0,0,0,0,6,6,6,3,0,3,0,,,,,,,,,,,,,,,,,,,,,,,,,,,,,,,,,,,,,,,,,,,,,,,,,,,,,,,,,,,,,,,,30,,,,,,,,513.9847895998973,513.9847895998973,513.9847895998973,513.9847895998973,513.9847895998973,down,0.9241067999973893,1,0,0,99,0.32,-0.08000000000000003,down,0.83975619985722,,,,,,,,,,,,,,,,,,,,,,,,,,,,,,,,,,,,,,,,,,,,,,,,,,,,,,,,,,,,FWRGJU,train_y,red_square,top_right,2025-08-19_18h46.28.717,HideSeek_v1,2022.2.5,59.982676982707986,
,6,8,6,5,0,-3,13,,train_dim1_1,7,30,,,,2,0,2,0,,,,,,,,,0,0,0,0,0,6,6,6,4,0,4,0,,,,,,,,,,,,,,,,,,,,,,,,,,,,,,,,,,,,,,,,,,,,,,,,,,,,,,,,,,,,,,,,30,,,,,,,,514.9138263999484,514.9138263999484,514.9138263999484,514.9138263999484,514.9138263999484,down,1.627904700115323,1,0,0,99,0.32,-0.16000000000000003,down,1.5386429999489337,,,,,,,,,,,,,,,,,,,,,,,,,,,,,,,,,,,,,,,,,,,,,,,,,,,,,,,,,,,,FWRGJU,train_y,red_square,top_right,2025-08-19_18h46.28.717,HideSeek_v1,2022.2.5,59.982676982707986,
,6,8,6,5,0,-3,13,,train_dim1_1,7,30,,,,2,0,2,0,,,,,,,,,0,0,0,0,0,6,6,6,5,0,5,0,,,,,,,,,,,,,,,,,,,,,,,,,,,,,,,,,,,,,,,,,,,,,,,,,,,,,,,,,,,,,,,,30,,,,,,,,516.5480186999775,516.5480186999775,516.5480186999775,516.5480186999775,516.5480186999775,return,1.4941455000080168,1,0,0,0,0.32,-0.16000000000000003,return,1.408167999703437,-30,-6,0.32,-0.16000000000000003,,,,,,,,,,,,,,,,,,,,,,,,,,,,,,,,,,,,,,,,,,,,,,,,,,,,,,,,FWRGJU,train_y,red_square,top_right,2025-08-19_18h46.28.717,HideSeek_v1,2022.2.5,59.982676982707986,
,9,7,9,2,0,-5,11,,train_dim1_1,8,30,,,,2,0,2,0,,,,,,,,,0,0,0,0,0,7,7,7,0,0,0,0,,,,,,,,,,,,,,,,,,,,,,,,,stimuli/alien_stimuli/11.png,,,,,,,,,,,,,,,,,,,,,,,,,,,,,stimuli/alien_stimuli/13.png,13,6,9,,,,,,,30,,,,,,,,524.7783691999502,524.7783691999502,524.7783691999502,524.7783691999502,524.7783691999502,left,4.456902400124818,1,0,0,99,0.48000000000000004,0.16,left,4.371390899876133,,,,,523.2193557999562,524.7783691999502,0.32,0,0.24,0.0,0.12,0.32,0.32,0.32,0,519.6119935999159,519.6119935999159,519.6119935999159,519.6119935999159,519.6119935999159,519.6119935999159,519.6119935999159,519.6119935999159,519.6000154700596,3.721711100079119,return,3.5855018999427557,,,,,,,,,,,,,,,,,,,,,,,,,,,,,,,,,FWRGJU,train_y,red_square,top_right,2025-08-19_18h46.28.717,HideSeek_v1,2022.2.5,59.982676982707986,
,9,7,9,2,0,-5,11,,train_dim1_1,8,30,,,,2,0,2,0,,,,,,,,,0,0,0,0,0,7,7,7,1,0,1,0,,,,,,,,,,,,,,,,,,,,,,,,,,,,,,,,,,,,,,,,,,,,,,,,,,,,,,,,,,,,,,,,30,,,,,,,,529.2450751999859,529.2450751999859,529.2450751999859,529.2450751999859,529.2450751999859,left,0.5251054998952895,1,0,0,99,0.4,0.16,left,0.43935339991003275,,,,,,,,,,,,,,,,,,,,,,,,,,,,,,,,,,,,,,,,,,,,,,,,,,,,,,,,,,,,FWRGJU,train_y,red_square,top_right,2025-08-19_18h46.28.717,HideSeek_v1,2022.2.5,59.982676982707986,
,9,7,9,2,0,-5,11,,train_dim1_1,8,30,,,,2,0,2,0,,,,,,,,,0,0,0,0,0,7,7,7,2,0,2,0,,,,,,,,,,,,,,,,,,,,,,,,,,,,,,,,,,,,,,,,,,,,,,,,,,,,,,,,,,,,,,,,30,,,,,,,,529.7783651999198,529.7783651999198,529.7783651999198,529.7783651999198,529.7783651999198,left,0.47685870015993714,1,0,0,99,0.32,0.16,left,0.38955789990723133,,,,,,,,,,,,,,,,,,,,,,,,,,,,,,,,,,,,,,,,,,,,,,,,,,,,,,,,,,,,FWRGJU,train_y,red_square,top_right,2025-08-19_18h46.28.717,HideSeek_v1,2022.2.5,59.982676982707986,
,9,7,9,2,0,-5,11,,train_dim1_1,8,30,,,,2,0,2,0,,,,,,,,,0,0,0,0,0,7,7,7,3,0,3,0,,,,,,,,,,,,,,,,,,,,,,,,,,,,,,,,,,,,,,,,,,,,,,,,,,,,,,,,,,,,,,,,30,,,,,,,,530.2704566998873,530.2704566998873,530.2704566998873,530.2704566998873,530.2704566998873,left,1.7441555999685079,1,0,0,99,0.24,0.16,left,1.6418906000908464,,,,,,,,,,,,,,,,,,,,,,,,,,,,,,,,,,,,,,,,,,,,,,,,,,,,,,,,,,,,FWRGJU,train_y,red_square,top_right,2025-08-19_18h46.28.717,HideSeek_v1,2022.2.5,59.982676982707986,
,9,7,9,2,0,-5,11,,train_dim1_1,8,30,,,,2,0,2,0,,,,,,,,,0,0,0,0,0,7,7,7,4,0,4,0,,,,,,,,,,,,,,,,,,,,,,,,,,,,,,,,,,,,,,,,,,,,,,,,,,,,,,,,,,,,,,,,30,,,,,,,,532.0111984999385,532.0111984999385,532.0111984999385,532.0111984999385,532.0111984999385,left,0.29299500002525747,1,0,0,99,0.15999999999999998,0.16,left,0.20662429998628795,,,,,,,,,,,,,,,,,,,,,,,,,,,,,,,,,,,,,,,,,,,,,,,,,,,,,,,,,,,,FWRGJU,train_y,red_square,top_right,2025-08-19_18h46.28.717,HideSeek_v1,2022.2.5,59.982676982707986,
,9,7,9,2,0,-5,11,,train_dim1_1,8,30,,,,2,0,2,0,,,,,,,,,0,0,0,0,0,7,7,7,5,0,5,0,,,,,,,,,,,,,,,,,,,,,,,,,,,,,,,,,,,,,,,,,,,,,,,,,,,,,,,,,,,,,,,,30,,,,,,,,532.3110716000665,532.3110716000665,532.3110716000665,532.3110716000665,532.3110716000665,return,0.7274790999945253,1,0,0,0,0.15999999999999998,0.16,return,0.6484000000637025,-30,-11,0.15999999999999998,0.16,,,,,,,,,,,,,,,,,,,,,,,,,,,,,,,,,,,,,,,,,,,,,,,,,,,,,,,,FWRGJU,train_y,red_square,top_right,2025-08-19_18h46.28.717,HideSeek_v1,2022.2.5,59.982676982707986,
,9,8,9,7,0,-1,15,,train_dim1_1,9,30,,,,2,0,2,0,,,,,,,,,0,0,0,0,0,8,8,8,0,0,0,0,,,,,,,,,,,,,,,,,,,,,,,,,stimuli/alien_stimuli/15.png,,,,,,,,,,,,,,,,,,,,,,,,,,,,,stimuli/alien_stimuli/11.png,11,9,10,,,,,,,30,,,,,,,,539.7323358000722,539.7323358000722,539.7323358000722,539.7323358000722,539.7323358000722,down,2.115371400024742,1,0,0,99,0.56,0.15999999999999998,down,2.035461399704218,,,,,538.1651250000577,539.7323358000722,0.56,-0.24,0.4,0.0,-0.039999999999999994,0.56,0.56,0.56,-0.24,534.6143308000173,534.6143308000173,534.6143308000173,534.6143308000173,534.6143308000173,534.6143308000173,534.6143308000173,534.6143308000173,534.6125490800478,3.6715746999252588,return,3.5222497000359,,,,,,,,,,,,,,,,,,,,,,,,,,,,,,,,,FWRGJU,train_y,red_square,top_right,2025-08-19_18h46.28.717,HideSeek_v1,2022.2.5,59.982676982707986,
,9,8,9,7,0,-1,15,,train_dim1_1,9,30,,,,2,0,2,0,,,,,,,,,0,0,0,0,0,8,8,8,1,0,1,0,,,,,,,,,,,,,,,,,,,,,,,,,,,,,,,,,,,,,,,,,,,,,,,,,,,,,,,,,,,,,,,,30,,,,,,,,541.8540099998936,541.8540099998936,541.8540099998936,541.8540099998936,541.8540099998936,up,1.7939028998371214,1,0,0,99,0.56,0.24,up,1.7037370998878032,,,,,,,,,,,,,,,,,,,,,,,,,,,,,,,,,,,,,,,,,,,,,,,,,,,,,,,,,,,,FWRGJU,train_y,red_square,top_right,2025-08-19_18h46.28.717,HideSeek_v1,2022.2.5,59.982676982707986,
,9,8,9,7,0,-1,15,,train_dim1_1,9,30,,,,2,0,2,0,,,,,,,,,0,0,0,0,0,8,8,8,2,0,2,0,,,,,,,,,,,,,,,,,,,,,,,,,,,,,,,,,,,,,,,,,,,,,,,,,,,,,,,,,,,,,,,,30,,,,,,,,543.6552826999687,543.6552826999687,543.6552826999687,543.6552826999687,543.6552826999687,return,0.5597867998294532,1,1,0,0,0.56,0.24,return,0.47391539975069463,-30,-11,0.56,0.24,,,,,,,,,,,,,,,,,,,,,,,,,,,,,,,,,,,,,,,,,,,,,,,,,,,,,,,,FWRGJU,train_y,red_square,top_right,2025-08-19_18h46.28.717,HideSeek_v1,2022.2.5,59.982676982707986,
,7,7,7,7,0,0,16,,train_dim1_1,10,30,,,,2,0,2,0,,,,,,,,,0,0,0,0,0,9,9,9,0,0,0,0,,,,,,,,,,,,,,,,,,,,,,,,,stimuli/alien_stimuli/16.png,,,,,,,,,,,,,,,,,,,,,,,,,,,,,stimuli/alien_stimuli/15.png,15,9,11,,,,,,,30,,,,,,,,549.4317314999644,549.4317314999644,549.4317314999644,549.4317314999644,549.4317314999644,return,2.1718017000239342,2,0,0,1,0.4,0.16,return,2.0945246999617666,-30,-11,0.4,0.16,547.8734037999529,549.4317314999644,0.56,0.16,0.08,0.0,0.2,0.56,0.56,0.56,0.16,545.7900268000085,545.7900268000085,545.7900268000085,545.7900268000085,545.7900268000085,545.7900268000085,545.7900268000085,545.7900268000085,545.7884961799718,2.2036608001217246,return,2.0527351000346243,,,,,,,,,,,,,,,,,,,,,,,,,,,,,,,,,FWRGJU,train_y,red_square,top_right,2025-08-19_18h46.28.717,HideSeek_v1,2022.2.5,59.982676982707986,
,9,6,9,5,0,-1,15,,train_dim1_1,11,30,,,,2,0,2,0,,,,,,,,,0,0,0,0,0,10,10,10,0,0,0,0,,,,,,,,,,,,,,,,,,,,,,,,,stimuli/alien_stimuli/15.png,,,,,,,,,,,,,,,,,,,,,,,,,,,,,stimuli/alien_stimuli/16.png,16,7,12,,,,,,,30,,,,,,,,556.3896590999793,556.3896590999793,556.3896590999793,556.3896590999793,556.3896590999793,down,2.704706799937412,2,0,0,99,0.56,0.0,down,2.622390699805692,,,,,554.8291768000927,556.3896590999793,0.4,0.16,0.0,0.0,0.16,0.4,0.4,0.4,0.16,553.159259099979,553.159259099979,553.159259099979,553.159259099979,553.159259099979,553.159259099979,553.159259099979,553.159259099979,553.1445753599983,1.769829299999401,return,1.6372828998137265,,,,,,,,,,,,,,,,,,,,,,,,,,,,,,,,,FWRGJU,train_y,red_square,top_right,2025-08-19_18h46.28.717,HideSeek_v1,2022.2.5,59.982676982707986,
,9,6,9,5,0,-1,15,,train_dim1_1,11,30,,,,2,0,2,0,,,,,,,,,0,0,0,0,0,10,10,10,1,0,1,0,,,,,,,,,,,,,,,,,,,,,,,,,,,,,,,,,,,,,,,,,,,,,,,,,,,,,,,,,,,,,,,,30,,,,,,,,559.1037304999772,559.1037304999772,559.1037304999772,559.1037304999772,559.1037304999772,return,0.45712210005149245,3,0,0,1,0.56,0.0,return,0.3642178999725729,-31,-11,0.56,0.0,,,,,,,,,,,,,,,,,,,,,,,,,,,,,,,,,,,,,,,,,,,,,,,,,,,,,,,,FWRGJU,train_y,red_square,top_right,2025-08-19_18h46.28.717,HideSeek_v1,2022.2.5,59.982676982707986,
,5,5,5,0,0,-5,11,,train_dim1_1,12,30,,,,2,0,2,0,,,,,,,,,0,0,0,0,0,11,11,11,0,0,0,0,,,,,,,,,,,,,,,,,,,,,,,,,stimuli/alien_stimuli/11.png,,,,,,,,,,,,,,,,,,,,,,,,,,,,,stimuli/alien_stimuli/15.png,15,9,13,,,,,,,30,,,,,,,,564.2275419998914,564.2275419998914,564.2275419998914,564.2275419998914,564.2275419998914,return,6.708615999901667,3,0,0,0,0.24,0,return,6.629745999816805,-31,-11,0.24,0,562.6689532999881,564.2275419998914,0.56,0,0.08,0.0,0.04,0.56,0.56,0.56,0,561.1213303999975,561.1213303999975,561.1213303999975,561.1213303999975,561.1213303999975,561.1213303999975,561.1213303999975,561.1213303999975,561.1178675699048,1.653401100076735,return,1.515213699778542,,,,,,,,,,,,,,,,,,,,,,,,,,,,,,,,,FWRGJU,train_y,red_square,top_right,2025-08-19_18h46.28.717,HideSeek_v1,2022.2.5,59.982676982707986,
,9,8,9,4,0,-4,12,,train_dim1_1,13,30,,,,2,0,2,0,,,,,,,,,0,0,0,0,0,12,12,12,0,0,0,0,,,,,,,,,,,,,,,,,,,,,,,,,stimuli/alien_stimuli/12.png,,,,,,,,,,,,,,,,,,,,,,,,,,,,,stimuli/alien_stimuli/11.png,11,5,14,,,,,,,30,,,,,,,,575.8223395000678,575.8223395000678,575.8223395000678,575.8223395000678,575.8223395000678,down,1.6865497000981122,3,0,0,99,0.56,0.15999999999999998,down,1.6020391997881234,,,,,574.2618269000668,575.8223395000678,0.24,-0.4,0.4,0.0,-0.2,0.24,0.24,0.24,-0.4,572.5081482001115,572.5081482001115,572.5081482001115,572.5081482001115,572.5081482001115,572.5081482001115,572.5081482001115,572.5081482001115,572.4939555700403,1.8704168000258505,return,1.7296382999047637,,,,,,,,,,,,,,,,,,,,,,,,,,,,,,,,,FWRGJU,train_y,red_square,top_right,2025-08-19_18h46.28.717,HideSeek_v1,2022.2.5,59.982676982707986,
,9,8,9,4,0,-4,12,,train_dim1_1,13,30,,,,2,0,2,0,,,,,,,,,0,0,0,0,0,12,12,12,1,0,1,0,,,,,,,,,,,,,,,,,,,,,,,,,,,,,,,,,,,,,,,,,,,,,,,,,,,,,,,,,,,,,,,,30,,,,,,,,577.5172512000427,577.5172512000427,577.5172512000427,577.5172512000427,577.5172512000427,down,0.47586390003561974,3,0,0,99,0.56,0.07999999999999997,down,0.3848816999234259,,,,,,,,,,,,,,,,,,,,,,,,,,,,,,,,,,,,,,,,,,,,,,,,,,,,,,,,,,,,FWRGJU,train_y,red_square,top_right,2025-08-19_18h46.28.717,HideSeek_v1,2022.2.5,59.982676982707986,
,9,8,9,4,0,-4,12,,train_dim1_1,13,30,,,,2,0,2,0,,,,,,,,,0,0,0,0,0,12,12,12,2,0,2,0,,,,,,,,,,,,,,,,,,,,,,,,,,,,,,,,,,,,,,,,,,,,,,,,,,,,,,,,,,,,,,,,30,,,,,,,,577.9999838999938,577.9999838999938,577.9999838999938,577.9999838999938,577.9999838999938,down,0.49334970000199974,3,0,0,99,0.56,-2.7755575615628914e-17,down,0.39998009987175465,,,,,,,,,,,,,,,,,,,,,,,,,,,,,,,,,,,,,,,,,,,,,,,,,,,,,,,,,,,,FWRGJU,train_y,red_square,top_right,2025-08-19_18h46.28.717,HideSeek_v1,2022.2.5,59.982676982707986,
,9,8,9,4,0,-4,12,,train_dim1_1,13,30,,,,2,0,2,0,,,,,,,,,0,0,0,0,0,12,12,12,3,0,3,0,,,,,,,,,,,,,,,,,,,,,,,,,,,,,,,,,,,,,,,,,,,,,,,,,,,,,,,,,,,,,,,,30,,,,,,,,578.5003925999627,578.5003925999627,578.5003925999627,578.5003925999627,578.5003925999627,down,1.1272654000204057,3,0,0,99,0.56,-0.08000000000000003,down,1.0470920999068767,,,,,,,,,,,,,,,,,,,,,,,,,,,,,,,,,,,,,,,,,,,,,,,,,,,,,,,,,,,,FWRGJU,train_y,red_square,top_right,2025-08-19_18h46.28.717,HideSeek_v1,2022.2.5,59.982676982707986,
,9,8,9,4,0,-4,12,,train_dim1_1,13,30,,,,2,0,2,0,,,,,,,,,0,0,0,0,0,12,12,12,4,0,4,0,,,,,,,,,,,,,,,,,,,,,,,,,,,,,,,,,,,,,,,,,,,,,,,,,,,,,,,,,,,,,,,,30,,,,,,,,579.6350428999867,579.6350428999867,579.6350428999867,579.6350428999867,579.6350428999867,down,3.4626702000387013,3,0,0,99,0.56,-0.16000000000000003,down,3.37081619980745,,,,,,,,,,,,,,,,,,,,,,,,,,,,,,,,,,,,,,,,,,,,,,,,,,,,,,,,,,,,FWRGJU,train_y,red_square,top_right,2025-08-19_18h46.28.717,HideSeek_v1,2022.2.5,59.982676982707986,
,9,8,9,4,0,-4,12,,train_dim1_1,13,30,,,,2,0,2,0,,,,,,,,,0,0,0,0,0,12,12,12,5,0,5,0,,,,,,,,,,,,,,,,,,,,,,,,,,,,,,,,,,,,,,,,,,,,,,,,,,,,,,,,,,,,,,,,30,,,,,,,,583.1056590001099,583.1056590001099,583.1056590001099,583.1056590001099,583.1056590001099,return,0.6589908001478761,3,1,0,0,0.56,-0.16000000000000003,return,0.5690189998131245,-36,-11,0.56,-0.16000000000000003,,,,,,,,,,,,,,,,,,,,,,,,,,,,,,,,,,,,,,,,,,,,,,,,,,,,,,,,FWRGJU,train_y,red_square,top_right,2025-08-19_18h46.28.717,HideSeek_v1,2022.2.5,59.982676982707986,
,7,7,7,7,0,0,16,,train_dim1_1,14,30,,,,2,0,2,0,,,,,,,,,0,0,0,0,0,13,13,13,0,0,0,0,,,,,,,,,,,,,,,,,,,,,,,,,stimuli/alien_stimuli/16.png,,,,,,,,,,,,,,,,,,,,,,,,,,,,,stimuli/alien_stimuli/12.png,12,9,15,,,,,,,30,,,,,,,,589.3505730000325,589.3505730000325,589.3505730000325,589.3505730000325,589.3505730000325,return,3.504890500102192,4,0,0,1,0.4,0.16,return,3.421713899821043,-36,-11,0.4,0.16,587.7897222999018,589.3505730000325,0.56,-0.08,0.32,0.0,0.07999999999999999,0.56,0.56,0.56,-0.08,585.3340698000975,585.3340698000975,585.3340698000975,585.3340698000975,585.3340698000975,585.3340698000975,585.3340698000975,585.3340698000975,585.3212390700355,2.570644299965352,return,2.4233385999687016,,,,,,,,,,,,,,,,,,,,,,,,,,,,,,,,,FWRGJU,train_y,red_square,top_right,2025-08-19_18h46.28.717,HideSeek_v1,2022.2.5,59.982676982707986,
,6,9,6,6,0,-3,13,,train_dim1_1,15,30,,,,2,0,2,0,,,,,,,,,0,0,0,0,0,14,14,14,0,0,0,0,,,,,,,,,,,,,,,,,,,,,,,,,stimuli/alien_stimuli/13.png,,,,,,,,,,,,,,,,,,,,,,,,,,,,,stimuli/alien_stimuli/16.png,16,7,16,,,,,,,30,,,,,,,,597.0688916000072,597.0688916000072,597.0688916000072,597.0688916000072,597.0688916000072,down,1.389818700030446,4,0,0,99,0.32,0.24,down,1.3065537000074983,,,,,595.5131628999952,597.0688916000072,0.4,0.16,0.0,0.0,0.16,0.4,0.4,0.4,0.16,594.4244810999371,594.4244810999371,594.4244810999371,594.4244810999371,594.4244810999371,594.4244810999371,594.4244810999371,594.4244810999371,594.4123405700084,1.203034000005573,return,1.0613915999419987,,,,,,,,,,,,,,,,,,,,,,,,,,,,,,,,,FWRGJU,train_y,red_square,top_right,2025-08-19_18h46.28.717,HideSeek_v1,2022.2.5,59.982676982707986,
,6,9,6,6,0,-3,13,,train_dim1_1,15,30,,,,2,0,2,0,,,,,,,,,0,0,0,0,0,14,14,14,1,0,1,0,,,,,,,,,,,,,,,,,,,,,,,,,,,,,,,,,,,,,,,,,,,,,,,,,,,,,,,,,,,,,,,,30,,,,,,,,598.4660388999619,598.4660388999619,598.4660388999619,598.4660388999619,598.4660388999619,down,1.8438842999748886,4,0,0,99,0.32,0.15999999999999998,down,1.7555796999949962,,,,,,,,,,,,,,,,,,,,,,,,,,,,,,,,,,,,,,,,,,,,,,,,,,,,,,,,,,,,FWRGJU,train_y,red_square,top_right,2025-08-19_18h46.28.717,HideSeek_v1,2022.2.5,59.982676982707986,
,6,9,6,6,0,-3,13,,train_dim1_1,15,30,,,,2,0,2,0,,,,,,,,,0,0,0,0,0,14,14,14,2,0,2,0,,,,,,,,,,,,,,,,,,,,,,,,,,,,,,,,,,,,,,,,,,,,,,,,,,,,,,,,,,,,,,,,30,,,,,,,,600.3169732999522,600.3169732999522,600.3169732999522,600.3169732999522,600.3169732999522,down,2.2285128000658005,4,0,0,99,0.32,0.07999999999999997,down,2.1474833998363465,,,,,,,,,,,,,,,,,,,,,,,,,,,,,,,,,,,,,,,,,,,,,,,,,,,,,,,,,,,,FWRGJU,train_y,red_square,top_right,2025-08-19_18h46.28.717,HideSeek_v1,2022.2.5,59.982676982707986,
,6,9,6,6,0,-3,13,,train_dim1_1,15,30,,,,2,0,2,0,,,,,,,,,0,0,0,0,0,14,14,14,3,0,3,0,,,,,,,,,,,,,,,,,,,,,,,,,,,,,,,,,,,,,,,,,,,,,,,,,,,,,,,,,,,,,,,,30,,,,,,,,602.553179499926,602.553179499926,602.553179499926,602.553179499926,602.553179499926,down,1.5107867000624537,4,0,0,99,0.32,-2.7755575615628914e-17,down,1.4239785999525338,,,,,,,,,,,,,,,,,,,,,,,,,,,,,,,,,,,,,,,,,,,,,,,,,,,,,,,,,,,,FWRGJU,train_y,red_square,top_right,2025-08-19_18h46.28.717,HideSeek_v1,2022.2.5,59.982676982707986,
,6,9,6,6,0,-3,13,,train_dim1_1,15,30,,,,2,0,2,0,,,,,,,,,0,0,0,0,0,14,14,14,4,0,4,0,,,,,,,,,,,,,,,,,,,,,,,,,,,,,,,,,,,,,,,,,,,,,,,,,,,,,,,,,,,,,,,,30,,,,,,,,604.0702442999464,604.0702442999464,604.0702442999464,604.0702442999464,604.0702442999464,return,0.6606769000645727,4,1,0,0,0.32,-2.7755575615628914e-17,return,0.5757118000183254,-40,-11,0.32,-2.7755575615628914e-17,,,,,,,,,,,,,,,,,,,,,,,,,,,,,,,,,,,,,,,,,,,,,,,,,,,,,,,,FWRGJU,train_y,red_square,top_right,2025-08-19_18h46.28.717,HideSeek_v1,2022.2.5,59.982676982707986,
,9,5,9,4,0,-1,15,,train_dim1_1,16,30,,,,2,0,2,0,,,,,,,,,0,0,0,0,0,15,15,15,0,0,0,0,,,,,,,,,,,,,,,,,,,,,,,,,stimuli/alien_stimuli/15.png,,,,,,,,,,,,,,,,,,,,,,,,,,,,,stimuli/alien_stimuli/13.png,13,6,17,,,,,,,30,,,,,,,,609.0339991000947,609.0339991000947,609.0339991000947,609.0339991000947,609.0339991000947,down,2.5371465000789613,4,1,0,99,0.56,-0.08,down,2.4584897998720407,,,,,607.4728715000674,609.0339991000947,0.32,0.08,0.24,0.0,0.2,0.32,0.32,0.32,0.08,606.2866062000394,606.2866062000394,606.2866062000394,606.2866062000394,606.2866062000394,606.2866062000394,606.2866062000394,606.2866062000394,606.2721418600995,1.2861091999802738,return,1.1564613999798894,,,,,,,,,,,,,,,,,,,,,,,,,,,,,,,,,FWRGJU,train_y,red_square,top_right,2025-08-19_18h46.28.717,HideSeek_v1,2022.2.5,59.982676982707986,
,9,5,9,4,0,-1,15,,train_dim1_1,16,30,,,,2,0,2,0,,,,,,,,,0,0,0,0,0,15,15,15,1,0,1,0,,,,,,,,,,,,,,,,,,,,,,,,,,,,,,,,,,,,,,,,,,,,,,,,,,,,,,,,,,,,,,,,30,,,,,,,,611.577888000058,611.577888000058,611.577888000058,611.577888000058,611.577888000058,return,0.7100072000175714,5,0,0,1,0.56,-0.08,return,0.6236773999407887,-41,-11,0.56,-0.08,,,,,,,,,,,,,,,,,,,,,,,,,,,,,,,,,,,,,,,,,,,,,,,,,,,,,,,,FWRGJU,train_y,red_square,top_right,2025-08-19_18h46.28.717,HideSeek_v1,2022.2.5,59.982676982707986,
,8,8,8,5,0,-3,13,,train_dim1_1,17,30,,,,2,0,2,0,,,,,,,,,0,0,0,0,0,16,16,16,0,0,0,0,,,,,,,,,,,,,,,,,,,,,,,,,stimuli/alien_stimuli/13.png,,,,,,,,,,,,,,,,,,,,,,,,,,,,,stimuli/alien_stimuli/15.png,15,9,18,,,,,,,30,,,,,,,,616.6527178999968,616.6527178999968,616.6527178999968,616.6527178999968,616.6527178999968,down,1.8728117998689413,5,0,0,99,0.48,0.15999999999999998,down,1.7853460998740047,,,,,615.0960462000221,616.6527178999968,0.56,-0.08,0.08,0.0,-0.04,0.56,0.56,0.56,-0.08,613.8469467000104,613.8469467000104,613.8469467000104,613.8469467000104,613.8469467000104,613.8469467000104,613.8469467000104,613.8469467000104,613.8450119700283,1.3533019998576492,return,1.2216401998884976,,,,,,,,,,,,,,,,,,,,,,,,,,,,,,,,,FWRGJU,train_y,red_square,top_right,2025-08-19_18h46.28.717,HideSeek_v1,2022.2.5,59.982676982707986,
,8,8,8,5,0,-3,13,,train_dim1_1,17,30,,,,2,0,2,0,,,,,,,,,0,0,0,0,0,16,16,16,1,0,1,0,,,,,,,,,,,,,,,,,,,,,,,,,,,,,,,,,,,,,,,,,,,,,,,,,,,,,,,,,,,,,,,,30,,,,,,,,618.5374390000943,618.5374390000943,618.5374390000943,618.5374390000943,618.5374390000943,down,1.2232880000956357,5,0,0,99,0.48,0.07999999999999997,down,1.1413309997878969,,,,,,,,,,,,,,,,,,,,,,,,,,,,,,,,,,,,,,,,,,,,,,,,,,,,,,,,,,,,FWRGJU,train_y,red_square,top_right,2025-08-19_18h46.28.717,HideSeek_v1,2022.2.5,59.982676982707986,
,8,8,8,5,0,-3,13,,train_dim1_1,17,30,,,,2,0,2,0,,,,,,,,,0,0,0,0,0,16,16,16,2,0,2,0,,,,,,,,,,,,,,,,,,,,,,,,,,,,,,,,,,,,,,,,,,,,,,,,,,,,,,,,,,,,,,,,30,,,,,,,,619.7665526000783,619.7665526000783,619.7665526000783,619.7665526000783,619.7665526000783,down,1.310792800039053,5,0,0,99,0.48,-2.7755575615628914e-17,down,1.2350134998559952,,,,,,,,,,,,,,,,,,,,,,,,,,,,,,,,,,,,,,,,,,,,,,,,,,,,,,,,,,,,FWRGJU,train_y,red_square,top_right,2025-08-19_18h46.28.717,HideSeek_v1,2022.2.5,59.982676982707986,
,8,8,8,5,0,-3,13,,train_dim1_1,17,30,,,,2,0,2,0,,,,,,,,,0,0,0,0,0,16,16,16,3,0,3,0,,,,,,,,,,,,,,,,,,,,,,,,,,,,,,,,,,,,,,,,,,,,,,,,,,,,,,,,,,,,,,,,30,,,,,,,,621.0845629998948,621.0845629998948,621.0845629998948,621.0845629998948,621.0845629998948,return,0.6268448000773787,6,0,0,1,0.48,-2.7755575615628914e-17,return,0.5403991998173296,-44,-11,0.48,-2.7755575615628914e-17,,,,,,,,,,,,,,,,,,,,,,,,,,,,,,,,,,,,,,,,,,,,,,,,,,,,,,,,FWRGJU,train_y,red_square,top_right,2025-08-19_18h46.28.717,HideSeek_v1,2022.2.5,59.982676982707986,
,7,6,7,1,0,-5,11,,train_dim1_1,18,30,,,,2,0,2,0,,,,,,,,,0,0,0,0,0,17,17,17,0,0,0,0,,,,,,,,,,,,,,,,,,,,,,,,,stimuli/alien_stimuli/11.png,,,,,,,,,,,,,,,,,,,,,,,,,,,,,stimuli/alien_stimuli/13.png,13,8,19,,,,,,,30,,,,,,,,626.0992302999366,626.0992302999366,626.0992302999366,626.0992302999366,626.0992302999366,down,2.2514103001449257,6,0,0,99,0.4,0.0,down,2.170101299881935,,,,,624.5370442001149,626.0992302999366,0.48,0,0.24,0.0,0.12,0.48,0.48,0.48,0,623.2779306999873,623.2779306999873,623.2779306999873,623.2779306999873,623.2779306999873,623.2779306999873,623.2779306999873,623.2779306999873,623.269560870016,1.369690999854356,return,1.226796800037846,,,,,,,,,,,,,,,,,,,,,,,,,,,,,,,,,FWRGJU,train_y,red_square,top_right,2025-08-19_18h46.28.717,HideSeek_v1,2022.2.5,59.982676982707986,
,7,6,7,1,0,-5,11,,train_dim1_1,18,30,,,,2,0,2,0,,,,,,,,,0,0,0,0,0,17,17,17,1,0,1,0,,,,,,,,,,,,,,,,,,,,,,,,,,,,,,,,,,,,,,,,,,,,,,,,,,,,,,,,,,,,,,,,30,,,,,,,,628.3579287000466,628.3579287000466,628.3579287000466,628.3579287000466,628.3579287000466,down,0.7766299999784678,6,0,0,99,0.4,-0.08,down,0.6953450997825712,,,,,,,,,,,,,,,,,,,,,,,,,,,,,,,,,,,,,,,,,,,,,,,,,,,,,,,,,,,,FWRGJU,train_y,red_square,top_right,2025-08-19_18h46.28.717,HideSeek_v1,2022.2.5,59.982676982707986,
,7,6,7,1,0,-5,11,,train_dim1_1,18,30,,,,2,0,2,0,,,,,,,,,0,0,0,0,0,17,17,17,2,0,2,0,,,,,,,,,,,,,,,,,,,,,,,,,,,,,,,,,,,,,,,,,,,,,,,,,,,,,,,,,,,,,,,,30,,,,,,,,629.1426429001149,629.1426429001149,629.1426429001149,629.1426429001149,629.1426429001149,down,2.3786963999737054,6,0,0,99,0.4,-0.16,down,2.2997878999449313,,,,,,,,,,,,,,,,,,,,,,,,,,,,,,,,,,,,,,,,,,,,,,,,,,,,,,,,,,,,FWRGJU,train_y,red_square,top_right,2025-08-19_18h46.28.717,HideSeek_v1,2022.2.5,59.982676982707986,
,7,6,7,1,0,-5,11,,train_dim1_1,18,30,,,,2,0,2,0,,,,,,,,,0,0,0,0,0,17,17,17,3,0,3,0,,,,,,,,,,,,,,,,,,,,,,,,,,,,,,,,,,,,,,,,,,,,,,,,,,,,,,,,,,,,,,,,30,,,,,,,,631.5458563000429,631.5458563000429,631.5458563000429,631.5458563000429,631.5458563000429,down,0.6572248998563737,6,0,0,99,0.4,-0.24,down,0.5593395999167114,,,,,,,,,,,,,,,,,,,,,,,,,,,,,,,,,,,,,,,,,,,,,,,,,,,,,,,,,,,,FWRGJU,train_y,red_square,top_right,2025-08-19_18h46.28.717,HideSeek_v1,2022.2.5,59.982676982707986,
,7,6,7,1,0,-5,11,,train_dim1_1,18,30,,,,2,0,2,0,,,,,,,,,0,0,0,0,0,17,17,17,4,0,4,0,,,,,,,,,,,,,,,,,,,,,,,,,,,,,,,,,,,,,,,,,,,,,,,,,,,,,,,,,,,,,,,,30,,,,,,,,632.1948287999257,632.1948287999257,632.1948287999257,632.1948287999257,632.1948287999257,down,1.6942681998480111,6,0,0,99,0.4,-0.32,down,1.6094211000017822,,,,,,,,,,,,,,,,,,,,,,,,,,,,,,,,,,,,,,,,,,,,,,,,,,,,,,,,,,,,FWRGJU,train_y,red_square,top_right,2025-08-19_18h46.28.717,HideSeek_v1,2022.2.5,59.982676982707986,
,7,6,7,1,0,-5,11,,train_dim1_1,18,30,,,,2,0,2,0,,,,,,,,,0,0,0,0,0,17,17,17,5,0,5,0,,,,,,,,,,,,,,,,,,,,,,,,,,,,,,,,,,,,,,,,,,,,,,,,,,,,,,,,,,,,,,,,30,,,,,,,,633.8966429999564,633.8966429999564,633.8966429999564,633.8966429999564,633.8966429999564,return,0.5099999001249671,7,0,0,1,0.4,-0.32,return,0.4268966999370605,-49,-11,0.4,-0.32,,,,,,,,,,,,,,,,,,,,,,,,,,,,,,,,,,,,,,,,,,,,,,,,,,,,,,,,FWRGJU,train_y,red_square,top_right,2025-08-19_18h46.28.717,HideSeek_v1,2022.2.5,59.982676982707986,
,5,9,5,5,0,-4,12,,train_dim1_1,19,30,,,,2,0,2,0,,,,,,,,,0,0,0,0,0,18,18,18,0,0,0,0,,,,,,,,,,,,,,,,,,,,,,,,,stimuli/alien_stimuli/12.png,,,,,,,,,,,,,,,,,,,,,,,,,,,,,stimuli/alien_stimuli/11.png,11,7,20,,,,,,,30,,,,,,,,638.6753378000576,638.6753378000576,638.6753378000576,638.6753378000576,638.6753378000576,down,1.802576799876988,7,0,0,99,0.24,0.24,down,1.7163100999314338,,,,,637.1141582999844,638.6753378000576,0.4,-0.32,0.4,0.0,-0.12,0.4,0.4,0.4,-0.32,635.9794636999723,635.9794636999723,635.9794636999723,635.9794636999723,635.9794636999723,635.9794636999723,635.9794636999723,635.9794636999723,635.980172180105,1.2528947999235243,return,1.1069134999997914,,,,,,,,,,,,,,,,,,,,,,,,,,,,,,,,,FWRGJU,train_y,red_square,top_right,2025-08-19_18h46.28.717,HideSeek_v1,2022.2.5,59.982676982707986,
,5,9,5,5,0,-4,12,,train_dim1_1,19,30,,,,2,0,2,0,,,,,,,,,0,0,0,0,0,18,18,18,1,0,1,0,,,,,,,,,,,,,,,,,,,,,,,,,,,,,,,,,,,,,,,,,,,,,,,,,,,,,,,,,,,,,,,,30,,,,,,,,640.4861949998885,640.4861949998885,640.4861949998885,640.4861949998885,640.4861949998885,down,1.0762097998522222,7,0,0,99,0.24,0.15999999999999998,down,0.9912287998013198,,,,,,,,,,,,,,,,,,,,,,,,,,,,,,,,,,,,,,,,,,,,,,,,,,,,,,,,,,,,FWRGJU,train_y,red_square,top_right,2025-08-19_18h46.28.717,HideSeek_v1,2022.2.5,59.982676982707986,
,5,9,5,5,0,-4,12,,train_dim1_1,19,30,,,,2,0,2,0,,,,,,,,,0,0,0,0,0,18,18,18,2,0,2,0,,,,,,,,,,,,,,,,,,,,,,,,,,,,,,,,,,,,,,,,,,,,,,,,,,,,,,,,,,,,,,,,30,,,,,,,,641.5707437999081,641.5707437999081,641.5707437999081,641.5707437999081,641.5707437999081,down,2.927380299894139,7,0,0,99,0.24,0.07999999999999997,down,2.8414831997361034,,,,,,,,,,,,,,,,,,,,,,,,,,,,,,,,,,,,,,,,,,,,,,,,,,,,,,,,,,,,FWRGJU,train_y,red_square,top_right,2025-08-19_18h46.28.717,HideSeek_v1,2022.2.5,59.982676982707986,
,5,9,5,5,0,-4,12,,train_dim1_1,19,30,,,,2,0,2,0,,,,,,,,,0,0,0,0,0,18,18,18,3,0,3,0,,,,,,,,,,,,,,,,,,,,,,,,,,,,,,,,,,,,,,,,,,,,,,,,,,,,,,,,,,,,,,,,30,,,,,,,,644.505284700077,644.505284700077,644.505284700077,644.505284700077,644.505284700077,down,1.243848399957642,7,0,0,99,0.24,-2.7755575615628914e-17,down,1.1510920997243375,,,,,,,,,,,,,,,,,,,,,,,,,,,,,,,,,,,,,,,,,,,,,,,,,,,,,,,,,,,,FWRGJU,train_y,red_square,top_right,2025-08-19_18h46.28.717,HideSeek_v1,2022.2.5,59.982676982707986,
,5,9,5,5,0,-4,12,,train_dim1_1,19,30,,,,2,0,2,0,,,,,,,,,0,0,0,0,0,18,18,18,4,0,4,0,,,,,,,,,,,,,,,,,,,,,,,,,,,,,,,,,,,,,,,,,,,,,,,,,,,,,,,,,,,,,,,,30,,,,,,,,645.7557512999047,645.7557512999047,645.7557512999047,645.7557512999047,645.7557512999047,return,2.2615656999405473,8,0,0,1,0.24,-2.7755575615628914e-17,return,2.1840007996652275,-53,-11,0.24,-2.7755575615628914e-17,,,,,,,,,,,,,,,,,,,,,,,,,,,,,,,,,,,,,,,,,,,,,,,,,,,,,,,,FWRGJU,train_y,red_square,top_right,2025-08-19_18h46.28.717,HideSeek_v1,2022.2.5,59.982676982707986,
,7,5,7,5,0,0,16,,train_dim1_1,20,30,,,,2,0,2,0,,,,,,,,,0,0,0,0,0,19,19,19,0,0,0,0,,,,,,,,,,,,,,,,,,,,,,,,,stimuli/alien_stimuli/16.png,,,,,,,,,,,,,,,,,,,,,,,,,,,,,stimuli/alien_stimuli/12.png,12,5,21,,,,,,,30,,,,,,,,655.3938343999907,655.3938343999907,655.3938343999907,655.3938343999907,655.3938343999907,return,5.051586800022051,9,0,0,1,0.4,0,return,4.9592474000528455,-53,-11,0.4,0,653.8279643000569,655.3938343999907,0.24,0,0.32,0.0,0.16,0.24,0.24,0.24,0,649.5909219000023,649.5909219000023,649.5909219000023,649.5909219000023,649.5909219000023,649.5909219000023,649.5909219000023,649.5909219000023,649.5913909799419,4.355522699886933,return,4.212735499953851,,,,,,,,,,,,,,,,,,,,,,,,,,,,,,,,,FWRGJU,train_y,red_square,top_right,2025-08-19_18h46.28.717,HideSeek_v1,2022.2.5,59.982676982707986,
,7,9,7,8,0,-1,15,,train_dim1_1,21,30,,,,2,0,2,0,,,,,,,,,0,0,0,0,0,20,20,20,0,0,0,0,,,,,,,,,,,,,,,,,,,,,,,,,stimuli/alien_stimuli/15.png,,,,,,,,,,,,,,,,,,,,,,,,,,,,,stimuli/alien_stimuli/16.png,16,7,22,,,,,,,30,,,,,,,,664.8899058001116,664.8899058001116,664.8899058001116,664.8899058001116,664.8899058001116,down,1.3852120998781174,9,0,0,99,0.4,0.24,down,1.283464799867943,,,,,663.3192338000517,664.8899058001116,0.4,0,0.0,0.0,0.0,0.4,0.4,0.4,0,662.0185044999234,662.0185044999234,662.0185044999234,662.0185044999234,662.0185044999234,662.0185044999234,662.0185044999234,662.0185044999234,662.0181782799773,1.420198200037703,return,1.2840811000205576,,,,,,,,,,,,,,,,,,,,,,,,,,,,,,,,,FWRGJU,train_y,red_square,top_right,2025-08-19_18h46.28.717,HideSeek_v1,2022.2.5,59.982676982707986,
,7,9,7,8,0,-1,15,,train_dim1_1,21,30,,,,2,0,2,0,,,,,,,,,0,0,0,0,0,20,20,20,1,0,1,0,,,,,,,,,,,,,,,,,,,,,,,,,,,,,,,,,,,,,,,,,,,,,,,,,,,,,,,,,,,,,,,,30,,,,,,,,666.2729801998939,666.2729801998939,666.2729801998939,666.2729801998939,666.2729801998939,return,0.4597776001319289,10,0,0,1,0.4,0.24,return,0.3779391997959465,-54,-11,0.4,0.24,,,,,,,,,,,,,,,,,,,,,,,,,,,,,,,,,,,,,,,,,,,,,,,,,,,,,,,,FWRGJU,train_y,red_square,top_right,2025-08-19_18h46.28.717,HideSeek_v1,2022.2.5,59.982676982707986,
,5,7,5,4,0,-3,13,,train_dim1_1,22,30,,,,2,0,2,0,,,,,,,,,0,0,0,0,0,21,21,21,0,0,0,0,,,,,,,,,,,,,,,,,,,,,,,,,stimuli/alien_stimuli/13.png,,,,,,,,,,,,,,,,,,,,,,,,,,,,,stimuli/alien_stimuli/15.png,15,7,23,,,,,,,30,,,,,,,,671.1921606999822,671.1921606999822,671.1921606999822,671.1921606999822,671.1921606999822,down,2.4534799999091774,10,0,0,99,0.24,0.08,down,2.369297499768436,,,,,669.6243296000175,671.1921606999822,0.4,0.24,0.08,0.0,0.28,0.4,0.4,0.4,0.24,668.2939152000472,668.2939152000472,668.2939152000472,668.2939152000472,668.2939152000472,668.2939152000472,668.2939152000472,668.2939152000472,668.2901382700074,1.4367003999650478,return,1.3093312997370958,,,,,,,,,,,,,,,,,,,,,,,,,,,,,,,,,FWRGJU,train_y,red_square,top_right,2025-08-19_18h46.28.717,HideSeek_v1,2022.2.5,59.982676982707986,
,5,7,5,4,0,-3,13,,train_dim1_1,22,30,,,,2,0,2,0,,,,,,,,,0,0,0,0,0,21,21,21,1,0,1,0,,,,,,,,,,,,,,,,,,,,,,,,,,,,,,,,,,,,,,,,,,,,,,,,,,,,,,,,,,,,,,,,30,,,,,,,,673.646019600099,673.646019600099,673.646019600099,673.646019600099,673.646019600099,down,1.7106133999768645,10,0,0,99,0.24,0.0,down,1.6203546999022365,,,,,,,,,,,,,,,,,,,,,,,,,,,,,,,,,,,,,,,,,,,,,,,,,,,,,,,,,,,,FWRGJU,train_y,red_square,top_right,2025-08-19_18h46.28.717,HideSeek_v1,2022.2.5,59.982676982707986,
,5,7,5,4,0,-3,13,,train_dim1_1,22,30,,,,2,0,2,0,,,,,,,,,0,0,0,0,0,21,21,21,2,0,2,0,,,,,,,,,,,,,,,,,,,,,,,,,,,,,,,,,,,,,,,,,,,,,,,,,,,,,,,,,,,,,,,,30,,,,,,,,675.3640085000079,675.3640085000079,675.3640085000079,675.3640085000079,675.3640085000079,down,2.260898199863732,10,0,0,99,0.24,-0.08,down,2.171493199886754,,,,,,,,,,,,,,,,,,,,,,,,,,,,,,,,,,,,,,,,,,,,,,,,,,,,,,,,,,,,FWRGJU,train_y,red_square,top_right,2025-08-19_18h46.28.717,HideSeek_v1,2022.2.5,59.982676982707986,
,5,7,5,4,0,-3,13,,train_dim1_1,22,30,,,,2,0,2,0,,,,,,,,,0,0,0,0,0,21,21,21,3,0,3,0,,,,,,,,,,,,,,,,,,,,,,,,,,,,,,,,,,,,,,,,,,,,,,,,,,,,,,,,,,,,,,,,30,,,,,,,,677.6326079999562,677.6326079999562,677.6326079999562,677.6326079999562,677.6326079999562,return,0.5769700000528246,11,0,0,1,0.24,-0.08,return,0.4844821998849511,-57,-11,0.24,-0.08,,,,,,,,,,,,,,,,,,,,,,,,,,,,,,,,,,,,,,,,,,,,,,,,,,,,,,,,FWRGJU,train_y,red_square,top_right,2025-08-19_18h46.28.717,HideSeek_v1,2022.2.5,59.982676982707986,
,5,8,5,3,0,-5,11,,train_dim1_1,23,30,,,,2,0,2,0,,,,,,,,,0,0,0,0,0,22,22,22,0,0,0,0,,,,,,,,,,,,,,,,,,,,,,,,,stimuli/alien_stimuli/11.png,,,,,,,,,,,,,,,,,,,,,,,,,,,,,stimuli/alien_stimuli/13.png,13,5,24,,,,,,,30,,,,,,,,683.2279864999,683.2279864999,683.2279864999,683.2279864999,683.2279864999,down,1.0357108998578042,11,0,0,99,0.24,0.15999999999999998,down,0.9429943999275565,,,,,681.6678585000336,683.2279864999,0.24,-0.08,0.24,0.0,0.04,0.24,0.24,0.24,-0.08,679.7773812999949,679.7773812999949,679.7773812999949,679.7773812999949,679.7773812999949,679.7773812999949,679.7773812999949,679.7773812999949,679.7665589700919,2.003592799883336,return,1.8579009000677615,,,,,,,,,,,,,,,,,,,,,,,,,,,,,,,,,FWRGJU,train_y,red_square,top_right,2025-08-19_18h46.28.717,HideSeek_v1,2022.2.5,59.982676982707986,
,5,8,5,3,0,-5,11,,train_dim1_1,23,30,,,,2,0,2,0,,,,,,,,,0,0,0,0,0,22,22,22,1,0,1,0,,,,,,,,,,,,,,,,,,,,,,,,,,,,,,,,,,,,,,,,,,,,,,,,,,,,,,,,,,,,,,,,30,,,,,,,,684.2745399998967,684.2745399998967,684.2745399998967,684.2745399998967,684.2745399998967,down,1.7408781999256462,11,0,0,99,0.24,0.07999999999999997,down,1.64800739986822,,,,,,,,,,,,,,,,,,,,,,,,,,,,,,,,,,,,,,,,,,,,,,,,,,,,,,,,,,,,FWRGJU,train_y,red_square,top_right,2025-08-19_18h46.28.717,HideSeek_v1,2022.2.5,59.982676982707986,
,5,8,5,3,0,-5,11,,train_dim1_1,23,30,,,,2,0,2,0,,,,,,,,,0,0,0,0,0,22,22,22,2,0,2,0,,,,,,,,,,,,,,,,,,,,,,,,,,,,,,,,,,,,,,,,,,,,,,,,,,,,,,,,,,,,,,,,30,,,,,,,,686.0329638000112,686.0329638000112,686.0329638000112,686.0329638000112,686.0329638000112,down,1.4610657999292016,11,0,0,99,0.24,-2.7755575615628914e-17,down,1.358048499794677,,,,,,,,,,,,,,,,,,,,,,,,,,,,,,,,,,,,,,,,,,,,,,,,,,,,,,,,,,,,FWRGJU,train_y,red_square,top_right,2025-08-19_18h46.28.717,HideSeek_v1,2022.2.5,59.982676982707986,
,5,8,5,3,0,-5,11,,train_dim1_1,23,30,,,,2,0,2,0,,,,,,,,,0,0,0,0,0,22,22,22,3,0,3,0,,,,,,,,,,,,,,,,,,,,,,,,,,,,,,,,,,,,,,,,,,,,,,,,,,,,,,,,,,,,,,,,30,,,,,,,,687.4975193999708,687.4975193999708,687.4975193999708,687.4975193999708,687.4975193999708,down,4.99712279997766,11,0,0,99,0.24,-0.08000000000000003,down,4.903011799789965,,,,,,,,,,,,,,,,,,,,,,,,,,,,,,,,,,,,,,,,,,,,,,,,,,,,,,,,,,,,FWRGJU,train_y,red_square,top_right,2025-08-19_18h46.28.717,HideSeek_v1,2022.2.5,59.982676982707986,
,5,8,5,3,0,-5,11,,train_dim1_1,23,30,,,,2,0,2,0,,,,,,,,,0,0,0,0,0,22,22,22,4,0,4,0,,,,,,,,,,,,,,,,,,,,,,,,,,,,,,,,,,,,,,,,,,,,,,,,,,,,,,,,,,,,,,,,30,,,,,,,,692.4954820000567,692.4954820000567,692.4954820000567,692.4954820000567,692.4954820000567,down,1.8279484999366105,11,0,0,99,0.24,-0.16000000000000003,down,1.743413999909535,,,,,,,,,,,,,,,,,,,,,,,,,,,,,,,,,,,,,,,,,,,,,,,,,,,,,,,,,,,,FWRGJU,train_y,red_square,top_right,2025-08-19_18h46.28.717,HideSeek_v1,2022.2.5,59.982676982707986,
,5,8,5,3,0,-5,11,,train_dim1_1,23,30,,,,2,0,2,0,,,,,,,,,0,0,0,0,0,22,22,22,5,0,5,0,,,,,,,,,,,,,,,,,,,,,,,,,,,,,,,,,,,,,,,,,,,,,,,,,,,,,,,,,,,,,,,,30,,,,,,,,694.334823000012,694.334823000012,694.334823000012,694.334823000012,694.334823000012,return,0.6592896999791265,12,0,0,1,0.24,-0.16000000000000003,return,0.5736199000384659,-62,-11,0.24,-0.16000000000000003,,,,,,,,,,,,,,,,,,,,,,,,,,,,,,,,,,,,,,,,,,,,,,,,,,,,,,,,FWRGJU,train_y,red_square,top_right,2025-08-19_18h46.28.717,HideSeek_v1,2022.2.5,59.982676982707986,
,8,7,8,7,0,0,16,,train_dim1_1,24,30,,,,2,0,2,0,,,,,,,,,0,0,0,0,0,23,23,23,0,0,0,0,,,,,,,,,,,,,,,,,,,,,,,,,stimuli/alien_stimuli/16.png,,,,,,,,,,,,,,,,,,,,,,,,,,,,,stimuli/alien_stimuli/11.png,11,5,25,,,,,,,30,,,,,,,,699.5740102001,699.5740102001,699.5740102001,699.5740102001,699.5740102001,return,1.355831499909982,13,0,0,1,0.48,0.16,return,1.2660421999171376,-62,-11,0.48,0.16,698.0144559000619,699.5740102001,0.24,-0.16,0.4,0.0,0.039999999999999994,0.24,0.24,0.24,-0.16,696.5785604999401,696.5785604999401,696.5785604999401,696.5785604999401,696.5785604999401,696.5785604999401,696.5785604999401,696.5785604999401,696.5639415699989,1.5534306999761611,return,1.4118927998933941,,,,,,,,,,,,,,,,,,,,,,,,,,,,,,,,,FWRGJU,train_y,red_square,top_right,2025-08-19_18h46.28.717,HideSeek_v1,2022.2.5,59.982676982707986,
,8,8,8,4,0,-4,12,,train_dim1_1,25,30,,,,2,0,2,0,,,,,,,,,0,0,0,0,0,24,24,24,0,0,0,0,,,,,,,,,,,,,,,,,,,,,,,,,stimuli/alien_stimuli/12.png,,,,,,,,,,,,,,,,,,,,,,,,,,,,,stimuli/alien_stimuli/16.png,16,8,26,,,,,,,30,,,,,,,,705.9275084000546,705.9275084000546,705.9275084000546,705.9275084000546,705.9275084000546,down,1.673776499927044,13,0,0,99,0.48,0.15999999999999998,down,1.5924843000248075,,,,,704.3696089000441,705.9275084000546,0.48,0.16,0.0,0.0,0.16,0.48,0.48,0.48,0.16,702.4826527999248,702.4826527999248,702.4826527999248,702.4826527999248,702.4826527999248,702.4826527999248,702.4826527999248,702.4826527999248,702.4684925600886,1.987173300003633,return,1.8664408000186086,,,,,,,,,,,,,,,,,,,,,,,,,,,,,,,,,FWRGJU,train_y,red_square,top_right,2025-08-19_18h46.28.717,HideSeek_v1,2022.2.5,59.982676982707986,
,8,8,8,4,0,-4,12,,train_dim1_1,25,30,,,,2,0,2,0,,,,,,,,,0,0,0,0,0,24,24,24,1,0,1,0,,,,,,,,,,,,,,,,,,,,,,,,,,,,,,,,,,,,,,,,,,,,,,,,,,,,,,,,,,,,,,,,30,,,,,,,,707.6085489999969,707.6085489999969,707.6085489999969,707.6085489999969,707.6085489999969,down,1.5427104998379946,13,0,0,99,0.48,0.07999999999999997,down,1.4582420999649912,,,,,,,,,,,,,,,,,,,,,,,,,,,,,,,,,,,,,,,,,,,,,,,,,,,,,,,,,,,,FWRGJU,train_y,red_square,top_right,2025-08-19_18h46.28.717,HideSeek_v1,2022.2.5,59.982676982707986,
,8,8,8,4,0,-4,12,,train_dim1_1,25,30,,,,2,0,2,0,,,,,,,,,0,0,0,0,0,24,24,24,2,0,2,0,,,,,,,,,,,,,,,,,,,,,,,,,,,,,,,,,,,,,,,,,,,,,,,,,,,,,,,,,,,,,,,,30,,,,,,,,709.1610739000607,709.1610739000607,709.1610739000607,709.1610739000607,709.1610739000607,down,1.3928486001677811,13,0,0,99,0.48,-2.7755575615628914e-17,down,1.3043650998733938,,,,,,,,,,,,,,,,,,,,,,,,,,,,,,,,,,,,,,,,,,,,,,,,,,,,,,,,,,,,FWRGJU,train_y,red_square,top_right,2025-08-19_18h46.28.717,HideSeek_v1,2022.2.5,59.982676982707986,
,8,8,8,4,0,-4,12,,train_dim1_1,25,30,,,,2,0,2,0,,,,,,,,,0,0,0,0,0,24,24,24,3,0,3,0,,,,,,,,,,,,,,,,,,,,,,,,,,,,,,,,,,,,,,,,,,,,,,,,,,,,,,,,,,,,,,,,30,,,,,,,,710.5596962999552,710.5596962999552,710.5596962999552,710.5596962999552,710.5596962999552,down,3.3456014001276344,13,0,0,99,0.48,-0.08000000000000003,down,3.2566444997210056,,,,,,,,,,,,,,,,,,,,,,,,,,,,,,,,,,,,,,,,,,,,,,,,,,,,,,,,,,,,FWRGJU,train_y,red_square,top_right,2025-08-19_18h46.28.717,HideSeek_v1,2022.2.5,59.982676982707986,
,8,8,8,4,0,-4,12,,train_dim1_1,25,30,,,,2,0,2,0,,,,,,,,,0,0,0,0,0,24,24,24,4,0,4,0,,,,,,,,,,,,,,,,,,,,,,,,,,,,,,,,,,,,,,,,,,,,,,,,,,,,,,,,,,,,,,,,30,,,,,,,,713.9139920999296,713.9139920999296,713.9139920999296,713.9139920999296,713.9139920999296,return,0.6436213999986649,14,0,0,1,0.48,-0.08000000000000003,return,0.5527510000392795,-66,-11,0.48,-0.08000000000000003,,,,,,,,,,,,,,,,,,,,,,,,,,,,,,,,,,,,,,,,,,,,,,,,,,,,,,,,FWRGJU,train_y,red_square,top_right,2025-08-19_18h46.28.717,HideSeek_v1,2022.2.5,59.982676982707986,
,9,9,9,6,0,-3,13,,train_dim1_1,26,30,,,,2,0,2,0,,,,,,,,,0,0,0,0,0,25,25,25,0,0,0,0,,,,,,,,,,,,,,,,,,,,,,,,,stimuli/alien_stimuli/13.png,,,,,,,,,,,,,,,,,,,,,,,,,,,,,stimuli/alien_stimuli/12.png,12,8,27,,,,,,,30,,,,,,,,719.0251720000524,719.0251720000524,719.0251720000524,719.0251720000524,719.0251720000524,down,1.9363454999402165,14,0,0,99,0.56,0.24,down,1.8507147999480367,,,,,717.4640816999599,719.0251720000524,0.48,-0.08,0.32,0.0,0.07999999999999999,0.48,0.48,0.48,-0.08,716.1312349000946,716.1312349000946,716.1312349000946,716.1312349000946,716.1312349000946,716.1312349000946,716.1312349000946,716.1312349000946,716.1298000800889,1.4532412001863122,return,1.3017169998493046,,,,,,,,,,,,,,,,,,,,,,,,,,,,,,,,,FWRGJU,train_y,red_square,top_right,2025-08-19_18h46.28.717,HideSeek_v1,2022.2.5,59.982676982707986,
,9,9,9,6,0,-3,13,,train_dim1_1,26,30,,,,2,0,2,0,,,,,,,,,0,0,0,0,0,25,25,25,1,0,1,0,,,,,,,,,,,,,,,,,,,,,,,,,,,,,,,,,,,,,,,,,,,,,,,,,,,,,,,,,,,,,,,,30,,,,,,,,720.9678009999916,720.9678009999916,720.9678009999916,720.9678009999916,720.9678009999916,down,1.6437892001122236,14,0,0,99,0.56,0.15999999999999998,down,1.5630713999271393,,,,,,,,,,,,,,,,,,,,,,,,,,,,,,,,,,,,,,,,,,,,,,,,,,,,,,,,,,,,FWRGJU,train_y,red_square,top_right,2025-08-19_18h46.28.717,HideSeek_v1,2022.2.5,59.982676982707986,
,9,9,9,6,0,-3,13,,train_dim1_1,26,30,,,,2,0,2,0,,,,,,,,,0,0,0,0,0,25,25,25,2,0,2,0,,,,,,,,,,,,,,,,,,,,,,,,,,,,,,,,,,,,,,,,,,,,,,,,,,,,,,,,,,,,,,,,30,,,,,,,,722.6191314999014,722.6191314999014,722.6191314999014,722.6191314999014,722.6191314999014,down,3.6293530999682844,14,0,0,99,0.56,0.07999999999999997,down,3.5507920999079943,,,,,,,,,,,,,,,,,,,,,,,,,,,,,,,,,,,,,,,,,,,,,,,,,,,,,,,,,,,,FWRGJU,train_y,red_square,top_right,2025-08-19_18h46.28.717,HideSeek_v1,2022.2.5,59.982676982707986,
,9,9,9,6,0,-3,13,,train_dim1_1,26,30,,,,2,0,2,0,,,,,,,,,0,0,0,0,0,25,25,25,3,0,3,0,,,,,,,,,,,,,,,,,,,,,,,,,,,,,,,,,,,,,,,,,,,,,,,,,,,,,,,,,,,,,,,,30,,,,,,,,726.2560650999658,726.2560650999658,726.2560650999658,726.2560650999658,726.2560650999658,return,0.6091992000583559,15,0,0,1,0.56,0.07999999999999997,return,0.517750599887222,-69,-11,0.56,0.07999999999999997,,,,,,,,,,,,,,,,,,,,,,,,,,,,,,,,,,,,,,,,,,,,,,,,,,,,,,,,FWRGJU,train_y,red_square,top_right,2025-08-19_18h46.28.717,HideSeek_v1,2022.2.5,59.982676982707986,
,8,9,8,9,0,0,16,,train_dim1_1,27,30,,,,2,0,2,0,,,,,,,,,0,0,0,0,0,26,26,26,0,0,0,0,,,,,,,,,,,,,,,,,,,,,,,,,stimuli/alien_stimuli/16.png,,,,,,,,,,,,,,,,,,,,,,,,,,,,,stimuli/alien_stimuli/13.png,13,9,28,,,,,,,30,,,,,,,,731.1481776,731.1481776,731.1481776,731.1481776,731.1481776,return,1.8721926000434905,16,0,0,1,0.48,0.32,return,1.7917371997609735,-69,-11,0.48,0.32,729.5911491001025,731.1481776,0.56,0.08,0.24,0.0,0.2,0.56,0.56,0.56,0.08,728.4375571999699,728.4375571999699,728.4375571999699,728.4375571999699,728.4375571999699,728.4375571999699,728.4375571999699,728.4375571999699,728.4234795700759,1.2700984999537468,return,1.133782499935478,,,,,,,,,,,,,,,,,,,,,,,,,,,,,,,,,FWRGJU,train_y,red_square,top_right,2025-08-19_18h46.28.717,HideSeek_v1,2022.2.5,59.982676982707986,
,9,6,9,1,0,-5,11,,train_dim1_1,28,30,,,,2,0,2,0,,,,,,,,,0,0,0,0,0,27,27,27,0,0,0,0,,,,,,,,,,,,,,,,,,,,,,,,,stimuli/alien_stimuli/11.png,,,,,,,,,,,,,,,,,,,,,,,,,,,,,stimuli/alien_stimuli/16.png,16,8,29,,,,,,,30,,,,,,,,736.9937277999707,736.9937277999707,736.9937277999707,736.9937277999707,736.9937277999707,down,1.2658605999313295,16,0,0,99,0.56,0.0,down,1.1852708999067545,,,,,735.42919480009,736.9937277999707,0.48,0.32,0.0,0.0,0.32,0.48,0.48,0.48,0.32,734.5778824998997,734.5778824998997,734.5778824998997,734.5778824998997,734.5778824998997,734.5778824998997,734.5778824998997,734.5778824998997,734.5787134699058,0.9527340000495315,return,0.8196191999595612,,,,,,,,,,,,,,,,,,,,,,,,,,,,,,,,,FWRGJU,train_y,red_square,top_right,2025-08-19_18h46.28.717,HideSeek_v1,2022.2.5,59.982676982707986,
,9,6,9,1,0,-5,11,,train_dim1_1,28,30,,,,2,0,2,0,,,,,,,,,0,0,0,0,0,27,27,27,1,0,1,0,,,,,,,,,,,,,,,,,,,,,,,,,,,,,,,,,,,,,,,,,,,,,,,,,,,,,,,,,,,,,,,,30,,,,,,,,738.2674112999812,738.2674112999812,738.2674112999812,738.2674112999812,738.2674112999812,down,1.2932107001543045,16,0,0,99,0.56,-0.08,down,1.2022222997620702,,,,,,,,,,,,,,,,,,,,,,,,,,,,,,,,,,,,,,,,,,,,,,,,,,,,,,,,,,,,FWRGJU,train_y,red_square,top_right,2025-08-19_18h46.28.717,HideSeek_v1,2022.2.5,59.982676982707986,
,9,6,9,1,0,-5,11,,train_dim1_1,28,30,,,,2,0,2,0,,,,,,,,,0,0,0,0,0,27,27,27,2,0,2,0,,,,,,,,,,,,,,,,,,,,,,,,,,,,,,,,,,,,,,,,,,,,,,,,,,,,,,,,,,,,,,,,30,,,,,,,,739.5685874999035,739.5685874999035,739.5685874999035,739.5685874999035,739.5685874999035,down,3.928645099978894,16,0,0,99,0.56,-0.16,down,3.839946100022644,,,,,,,,,,,,,,,,,,,,,,,,,,,,,,,,,,,,,,,,,,,,,,,,,,,,,,,,,,,,FWRGJU,train_y,red_square,top_right,2025-08-19_18h46.28.717,HideSeek_v1,2022.2.5,59.982676982707986,
,9,6,9,1,0,-5,11,,train_dim1_1,28,30,,,,2,0,2,0,,,,,,,,,0,0,0,0,0,27,27,27,3,0,3,0,,,,,,,,,,,,,,,,,,,,,,,,,,,,,,,,,,,,,,,,,,,,,,,,,,,,,,,,,,,,,,,,30,,,,,,,,743.5044265000615,743.5044265000615,743.5044265000615,743.5044265000615,743.5044265000615,down,1.077144700102508,16,0,0,99,0.56,-0.24,down,0.9888504997361451,,,,,,,,,,,,,,,,,,,,,,,,,,,,,,,,,,,,,,,,,,,,,,,,,,,,,,,,,,,,FWRGJU,train_y,red_square,top_right,2025-08-19_18h46.28.717,HideSeek_v1,2022.2.5,59.982676982707986,
,9,6,9,1,0,-5,11,,train_dim1_1,28,30,,,,2,0,2,0,,,,,,,,,0,0,0,0,0,27,27,27,4,0,4,0,,,,,,,,,,,,,,,,,,,,,,,,,,,,,,,,,,,,,,,,,,,,,,,,,,,,,,,,,,,,,,,,30,,,,,,,,744.5874103000388,744.5874103000388,744.5874103000388,744.5874103000388,744.5874103000388,down,1.7445327998138964,16,0,0,99,0.56,-0.32,down,1.6536557998042554,,,,,,,,,,,,,,,,,,,,,,,,,,,,,,,,,,,,,,,,,,,,,,,,,,,,,,,,,,,,FWRGJU,train_y,red_square,top_right,2025-08-19_18h46.28.717,HideSeek_v1,2022.2.5,59.982676982707986,
,9,6,9,1,0,-5,11,,train_dim1_1,28,30,,,,2,0,2,0,,,,,,,,,0,0,0,0,0,27,27,27,5,0,5,0,,,,,,,,,,,,,,,,,,,,,,,,,,,,,,,,,,,,,,,,,,,,,,,,,,,,,,,,,,,,,,,,30,,,,,,,,746.340413399972,746.340413399972,746.340413399972,746.340413399972,746.340413399972,return,0.776408800156787,17,0,0,1,0.56,-0.32,return,0.6949769998900592,-74,-11,0.56,-0.32,,,,,,,,,,,,,,,,,,,,,,,,,,,,,,,,,,,,,,,,,,,,,,,,,,,,,,,,FWRGJU,train_y,red_square,top_right,2025-08-19_18h46.28.717,HideSeek_v1,2022.2.5,59.982676982707986,
,7,7,7,3,0,-4,12,,train_dim1_1,29,30,,,,2,0,2,0,,,,,,,,,0,0,0,0,0,28,28,28,0,0,0,0,,,,,,,,,,,,,,,,,,,,,,,,,stimuli/alien_stimuli/12.png,,,,,,,,,,,,,,,,,,,,,,,,,,,,,stimuli/alien_stimuli/11.png,11,9,30,,,,,,,30,,,,,,,,751.2002097000368,751.2002097000368,751.2002097000368,751.2002097000368,751.2002097000368,down,1.8546714999247342,17,0,0,99,0.4,0.08,down,1.7736951997503638,,,,,749.6409869000781,751.2002097000368,0.56,-0.32,0.4,0.0,-0.12,0.56,0.56,0.56,-0.32,748.6912251000758,748.6912251000758,748.6912251000758,748.6912251000758,748.6912251000758,748.6912251000758,748.6912251000758,748.6912251000758,748.6904104799032,1.0692611001431942,return,0.9258620999753475,,,,,,,,,,,,,,,,,,,,,,,,,,,,,,,,,FWRGJU,train_y,red_square,top_right,2025-08-19_18h46.28.717,HideSeek_v1,2022.2.5,59.982676982707986,
,7,7,7,3,0,-4,12,,train_dim1_1,29,30,,,,2,0,2,0,,,,,,,,,0,0,0,0,0,28,28,28,1,0,1,0,,,,,,,,,,,,,,,,,,,,,,,,,,,,,,,,,,,,,,,,,,,,,,,,,,,,,,,,,,,,,,,,30,,,,,,,,753.0632778001018,753.0632778001018,753.0632778001018,753.0632778001018,753.0632778001018,down,1.8933218999300152,17,0,0,99,0.4,0.0,down,1.805354799842462,,,,,,,,,,,,,,,,,,,,,,,,,,,,,,,,,,,,,,,,,,,,,,,,,,,,,,,,,,,,FWRGJU,train_y,red_square,top_right,2025-08-19_18h46.28.717,HideSeek_v1,2022.2.5,59.982676982707986,
,7,7,7,3,0,-4,12,,train_dim1_1,29,30,,,,2,0,2,0,,,,,,,,,0,0,0,0,0,28,28,28,2,0,2,0,,,,,,,,,,,,,,,,,,,,,,,,,,,,,,,,,,,,,,,,,,,,,,,,,,,,,,,,,,,,,,,,30,,,,,,,,754.9633808999788,754.9633808999788,754.9633808999788,754.9633808999788,754.9633808999788,down,4.196528600063175,17,0,0,99,0.4,-0.08,down,4.118371399817988,,,,,,,,,,,,,,,,,,,,,,,,,,,,,,,,,,,,,,,,,,,,,,,,,,,,,,,,,,,,FWRGJU,train_y,red_square,top_right,2025-08-19_18h46.28.717,HideSeek_v1,2022.2.5,59.982676982707986,
,7,7,7,3,0,-4,12,,train_dim1_1,29,30,,,,2,0,2,0,,,,,,,,,0,0,0,0,0,28,28,28,3,0,3,0,,,,,,,,,,,,,,,,,,,,,,,,,,,,,,,,,,,,,,,,,,,,,,,,,,,,,,,,,,,,,,,,30,,,,,,,,759.1681222999468,759.1681222999468,759.1681222999468,759.1681222999468,759.1681222999468,down,0.6266741999424994,17,0,0,99,0.4,-0.16,down,0.5433175000362098,,,,,,,,,,,,,,,,,,,,,,,,,,,,,,,,,,,,,,,,,,,,,,,,,,,,,,,,,,,,FWRGJU,train_y,red_square,top_right,2025-08-19_18h46.28.717,HideSeek_v1,2022.2.5,59.982676982707986,
,7,7,7,3,0,-4,12,,train_dim1_1,29,30,,,,2,0,2,0,,,,,,,,,0,0,0,0,0,28,28,28,4,0,4,0,,,,,,,,,,,,,,,,,,,,,,,,,,,,,,,,,,,,,,,,,,,,,,,,,,,,,,,,,,,,,,,,30,,,,,,,,759.8008997000288,759.8008997000288,759.8008997000288,759.8008997000288,759.8008997000288,return,0.6265593999996781,18,0,0,1,0.4,-0.16,return,0.540299299871549,-78,-11,0.4,-0.16,,,,,,,,,,,,,,,,,,,,,,,,,,,,,,,,,,,,,,,,,,,,,,,,,,,,,,,,FWRGJU,train_y,red_square,top_right,2025-08-19_18h46.28.717,HideSeek_v1,2022.2.5,59.982676982707986,
,5,6,5,5,0,-1,15,,train_dim1_1,30,30,,,,2,0,2,0,,,,,,,,,0,0,0,0,0,29,29,29,0,0,0,0,,,,,,,,,,,,,,,,,,,,,,,,,stimuli/alien_stimuli/15.png,,,,,,,,,,,,,,,,,,,,,,,,,,,,,stimuli/alien_stimuli/12.png,12,7,31,,,,,,,30,,,,,,,,765.863290600013,765.863290600013,765.863290600013,765.863290600013,765.863290600013,down,1.8210593999829143,18,0,0,99,0.24,0.0,down,1.7422539999242872,,,,,764.3031121001113,765.863290600013,0.4,-0.16,0.32,0.0,0.0,0.4,0.4,0.4,-0.16,762.0039383000694,762.0039383000694,762.0039383000694,762.0039383000694,762.0039383000694,762.0039383000694,762.0039383000694,762.0039383000694,762.0014322800562,2.4207564999815077,return,2.281542900018394,,,,,,,,,,,,,,,,,,,,,,,,,,,,,,,,,FWRGJU,train_y,red_square,top_right,2025-08-19_18h46.28.717,HideSeek_v1,2022.2.5,59.982676982707986,
,5,6,5,5,0,-1,15,,train_dim1_1,30,30,,,,2,0,2,0,,,,,,,,,0,0,0,0,0,29,29,29,1,0,1,0,,,,,,,,,,,,,,,,,,,,,,,,,,,,,,,,,,,,,,,,,,,,,,,,,,,,,,,,,,,,,,,,30,,,,,,,,767.6925919000059,767.6925919000059,767.6925919000059,767.6925919000059,767.6925919000059,return,1.3259966000914574,19,0,0,1,0.24,0.0,return,1.24445839994587,-79,-11,0.24,0.0,,,,,,,,,,,,,,,,,,,,,,,,,,,,,,,,,,,,,,,,,,,,,,,,,,,,,,,,FWRGJU,train_y,red_square,top_right,2025-08-19_18h46.28.717,HideSeek_v1,2022.2.5,59.982676982707986,
,,,,,,,,,,,30,,,,2,0,2,0,,,,,,,,,,,,,,,,,,,,,,,,,,,,,,,,,,,,,,,,,,,,,,,,,,,,,,,,,,,,,,,,,,,,,,,,,,stimuli/alien_stimuli/15.png,15,5,32,21,0.7,0.7916666666666667,1,1,1,30,0,conditions/schedules/train_y_first/red_square_00/top_right/inputTrain_2.1.xlsx,99,1,2,1,0,,,,,,,,,,,1,,,,,,,,,771.4256414000411,772.9931958001107,0.24,0,0.08,0.0,0.04,0.24,0.24,0.24,0,770.5815083000343,770.5815083000343,770.5815083000343,770.5815083000343,770.5815083000343,770.5815083000343,770.5815083000343,770.5815083000343,770.5751932701096,0.9526597999501973,return,0.8142804999370128,0,0.9,0,1,19,,,,,,,,,,,,,,,,,,,,,,,,,,,,FWRGJU,train_y,red_square,top_right,2025-08-19_18h46.28.717,HideSeek_v1,2022.2.5,59.982676982707986,
,,,,,,,,,,,,,,,3,0,3,0,0,0,0,0,,,,,,,,,,,,,,,,,,,,,,,,,,,,,,,conditions/schedules/train_y_first/red_square_00/top_right/instructions/Slide17.png,conditions/schedules/train_y_first/red_square_00/top_right/instructions/Audio17.wav,772.9931958001107,772.9937751500402,17,"[3.445683700032532, 18.316189300036058, 16.129229600075632, 19.465106999967247, 4.920925799990073, 4.1020138000603765, 4.869271900039166, 11.657947400119156, 6.071846999926493, 7.134247200097889, 9.352362399920821, 13.356371500063688, 16.5639988000039, 16.352468200027943, 42.47980959992856, 21.461840000003576, 33.7936293000821]","[0.0002500999253243208, 0.00021810014732182026, 16.129237400135025, 0.06688910000957549, 0.03221870004199445, 0.08221139991655946, 0.06525760004296899, 0.03323719999752939, 0.06370369996875525, 0.04713309998624027, 0.030602999962866306, 13.356379000004381, 0.03520440007559955, 16.352475999854505, 0.014226200059056282, 21.461848699953407, 33.79363720002584]",0,,,,,,,,,,,,,,,,,,,,,,,,,,,,,,,,,,,,,,,,,,,,,,,,,,,,,,,,,,,,,,,,,,,,,,,,,,,,,,,,,,,,,,,,,,,,,,,,,,,,,,,,,,,,,,,,,,,,,,,,,,,,FWRGJU,train_y,red_square,top_right,2025-08-19_18h46.28.717,HideSeek_v1,2022.2.5,59.982676982707986,
,,,,,,,,,,,,,,,3,0,3,0,1,0,1,0,,,,,,,,,,,,,,,,,,,,,,,,,,,,,,,conditions/schedules/train_y_first/red_square_00/top_right/instructions/Slide18.png,conditions/schedules/train_y_first/red_square_00/top_right/instructions/Audio18.wav,806.854450999992,806.8554637499619,18,"[3.445683700032532, 18.316189300036058, 16.129229600075632, 19.465106999967247, 4.920925799990073, 4.1020138000603765, 4.869271900039166, 11.657947400119156, 6.071846999926493, 7.134247200097889, 9.352362399920821, 13.356371500063688, 16.5639988000039, 16.352468200027943, 42.47980959992856, 21.461840000003576, 33.7936293000821, 8.355529499938712]","[0.0002500999253243208, 0.00021810014732182026, 16.129237400135025, 0.06688910000957549, 0.03221870004199445, 0.08221139991655946, 0.06525760004296899, 0.03323719999752939, 0.06370369996875525, 0.04713309998624027, 0.030602999962866306, 13.356379000004381, 0.03520440007559955, 16.352475999854505, 0.014226200059056282, 21.461848699953407, 0.014501299941912293, 8.355536799877882]",0,,,,,,,,,,,,,,,,,,,,,,,,,,,,,,,,,,,,,,,,,,,,,,,,,,,,,,,,,,,,,,,,,,,,,,,,,,,,,,,,,,,,,,,,,,,,,,,,,,,,,,,,,,,,,,,,,,,,,,,,,,,,FWRGJU,train_y,red_square,top_right,2025-08-19_18h46.28.717,HideSeek_v1,2022.2.5,59.982676982707986,
,,,,,,,,,,,,,,,3,0,3,0,2,0,2,0,,,,,,,,,,,,,,,,,,,,,,,,,,,,,,,conditions/schedules/train_y_first/red_square_00/top_right/instructions/Slide19.png,conditions/schedules/train_y_first/red_square_00/top_right/instructions/Audio19.wav,815.2717552999966,815.2623138399795,19,"[3.445683700032532, 18.316189300036058, 16.129229600075632, 19.465106999967247, 4.920925799990073, 4.1020138000603765, 4.869271900039166, 11.657947400119156, 6.071846999926493, 7.134247200097889, 9.352362399920821, 13.356371500063688, 16.5639988000039, 16.352468200027943, 42.47980959992856, 21.461840000003576, 33.7936293000821, 8.355529499938712, 9.346137200016528]","[0.0002500999253243208, 0.00021810014732182026, 16.129237400135025, 0.06688910000957549, 0.03221870004199445, 0.08221139991655946, 0.06525760004296899, 0.03323719999752939, 0.06370369996875525, 0.04713309998624027, 0.030602999962866306, 13.356379000004381, 0.03520440007559955, 16.352475999854505, 0.014226200059056282, 21.461848699953407, 0.014501299941912293, 0.014129400020465255, 9.346145200077444]",0,,,,,,,,,,,,,,,,,,,,,,,,,,,,,,,,,,,,,,,,,,,,,,,,,,,,,,,,,,,,,,,,,,,,,,,,,,,,,,,,,,,,,,,,,,,,,,,,,,,,,,,,,,,,,,,,,,,,,,,,,,,,FWRGJU,train_y,red_square,top_right,2025-08-19_18h46.28.717,HideSeek_v1,2022.2.5,59.982676982707986,
,,,,,,,,,,,,,,,3,0,3,0,3,0,3,0,,,,,,,,,,,,,,,,,,,,,,,,,,,,,,,conditions/schedules/train_y_first/red_square_00/top_right/instructions/Slide20.png,conditions/schedules/train_y_first/red_square_00/top_right/instructions/Audio20.wav,824.6722981000785,824.6702810400166,20,"[3.445683700032532, 18.316189300036058, 16.129229600075632, 19.465106999967247, 4.920925799990073, 4.1020138000603765, 4.869271900039166, 11.657947400119156, 6.071846999926493, 7.134247200097889, 9.352362399920821, 13.356371500063688, 16.5639988000039, 16.352468200027943, 42.47980959992856, 21.461840000003576, 33.7936293000821, 8.355529499938712, 9.346137200016528, 13.123001900035888]","[0.0002500999253243208, 0.00021810014732182026, 16.129237400135025, 0.06688910000957549, 0.03221870004199445, 0.08221139991655946, 0.06525760004296899, 0.03323719999752939, 0.06370369996875525, 0.04713309998624027, 0.030602999962866306, 13.356379000004381, 0.03520440007559955, 16.352475999854505, 0.014226200059056282, 21.461848699953407, 0.014501299941912293, 0.014129400020465255, 0.06267899996601045, 13.123010999988765]",0,,,,,,,,,,,,,,,,,,,,,,,,,,,,,,,,,,,,,,,,,,,,,,,,,,,,,,,,,,,,,,,,,,,,,,,,,,,,,,,,,,,,,,,,,,,,,,,,,,,,,,,,,,,,,,,,,,,,,,,,,,,,FWRGJU,train_y,red_square,top_right,2025-08-19_18h46.28.717,HideSeek_v1,2022.2.5,59.982676982707986,
1,8,7,3,7,-5,0,66,2,instr_dim1_2,,,,,,3,0,3,0,,,,,0,0,0,0,,,,,,,,,,,,,,,,,,,,,,,,,,,,,,,,,,,,,stimuli/alien_stimuli/66.png,conditions/schedules/train_y_first/red_square_00/top_right/inputInstr_2.xlsx,stimuli/alien_stimuli/66.png,837.8973562000319,837.8973562000319,837.8973562000319,837.8973562000319,837.8979112699162,return,14.874626599717885,"[-0.16, -0.08, 0, 0.08, 0.16, 0.24, 0.32, 0.4, 0.48, 0.56]","[-0.4, -0.32, -0.24, -0.16, -0.08, 0, 0.08, 0.16, 0.24, 0.32]",7,7,3,8,0.0,0.4,852.9490944000427,852.9490944000427,852.9490944000427,852.9490944000427,852.9490944000427,852.9490944000427,852.9490944000427,852.9271010900848,8.557839000131935,return,8.382943699834868,stimuli/alien_stimuli/66.png,66,8,1,,,,,,,,,,,,,,,,,,,,,,,,,,,,,,,,,,,,,,,,,,,,,,,,,,,,,,,,,,,,,,,,,,,,,,,,,,,,,,,,,,,,,,,,,FWRGJU,train_y,red_square,top_right,2025-08-19_18h46.28.717,HideSeek_v1,2022.2.5,59.982676982707986,
,,,,,,,,,,,30,,,,3,0,3,0,,,,,,,,,,,,,,,,,,,,,,,,,,,,,,,,,,,,,,,,,,,,,,,,,,,,,,,,,,,,,,,,,,,,,,,,,,,,,,21,0.7,0.7916666666666667,1,99,2,30,0,conditions/schedules/train_y_first/red_square_00/top_right/inputTrain_2.1.xlsx,99,1,2,1,0,,,,,,,,,,,,,,,,,,,,,,,,,,,,,,,,,,,,,,,,,,,,,,,,,,,,,,,,,,,,,,,,,,,,,,,,,,,FWRGJU,train_y,red_square,top_right,2025-08-19_18h46.28.717,HideSeek_v1,2022.2.5,59.982676982707986,
,,,,,,,,,,,,,,,4,0,4,0,0,0,0,0,,,,,,,,,,,,,,,,,,,,,,,,,,,,,,,conditions/schedules/train_y_first/red_square_00/top_right/instructions/Slide21.png,conditions/schedules/train_y_first/red_square_00/top_right/instructions/Audio21.wav,861.4805433999281,861.4672924799379,21,"[3.445683700032532, 18.316189300036058, 16.129229600075632, 19.465106999967247, 4.920925799990073, 4.1020138000603765, 4.869271900039166, 11.657947400119156, 6.071846999926493, 7.134247200097889, 9.352362399920821, 13.356371500063688, 16.5639988000039, 16.352468200027943, 42.47980959992856, 21.461840000003576, 33.7936293000821, 8.355529499938712, 9.346137200016528, 13.123001900035888, 50.37594099994749]","[0.0002500999253243208, 0.00021810014732182026, 16.129237400135025, 0.06688910000957549, 0.03221870004199445, 0.08221139991655946, 0.06525760004296899, 0.03323719999752939, 0.06370369996875525, 0.04713309998624027, 0.030602999962866306, 13.356379000004381, 0.03520440007559955, 16.352475999854505, 0.014226200059056282, 21.461848699953407, 0.014501299941912293, 0.014129400020465255, 0.06267899996601045, 13.123010999988765, 50.37594890012406]",0,,,,,,,,,,,,,,,,,,,,,,,,,,,,,,,,,,,,,,,,,,,,,,,,,,,,,,,,,,,,,,,,,,,,,,,,,,,,,,,,,,,,,,,,,,,,,,,,,,,,,,,,,,,,,,,,,,,,,,,,,,,,FWRGJU,train_y,red_square,top_right,2025-08-19_18h46.28.717,HideSeek_v1,2022.2.5,59.982676982707986,
2,9,5,9,5,0,0,16,2,instr_dim1_2,,,,,,4,0,4,0,,,,,0,0,0,0,,,,,,,,,,,,,,,,,,,,,,,,,,,,,,,,,,,,,stimuli/alien_stimuli/16.png,conditions/schedules/train_y_first/red_square_00/top_right/inputInstr_2.xlsx,stimuli/alien_stimuli/16.png,911.9531288000289,911.9531288000289,911.9531288000289,911.9531288000289,911.9429511600174,return,6.137222700053826,"[-0.16, -0.08, 0, 0.08, 0.16, 0.24, 0.32, 0.4, 0.48, 0.56]","[-0.4, -0.32, -0.24, -0.16, -0.08, 0, 0.08, 0.16, 0.24, 0.32]",5,5,9,9,0.0,0.0,918.2589094000868,918.2589094000868,918.2589094000868,918.2589094000868,918.2589094000868,918.2589094000868,918.2589094000868,918.2476253900677,7.323644299991429,return,7.153133599786088,stimuli/alien_stimuli/16.png,16,9,2,,,,,,,,,,,,,,,,,,,,,,,,,,,,,,,,,,,,,,,,,,,,,,,,,,,,,,,,,,,,,,,,,,,,,,,,,,,,,,,,,,,,,,,,,FWRGJU,train_y,red_square,top_right,2025-08-19_18h46.28.717,HideSeek_v1,2022.2.5,59.982676982707986,
,,,,,,,,,,,30,,,,4,0,4,0,,,,,,,,,,,,,,,,,,,,,,,,,,,,,,,,,,,,,,,,,,,,,,,,,,,,,,,,,,,,,,,,,,,,,,,,,,,,,,21,0.7,0.7916666666666667,1,99,2,30,0,conditions/schedules/train_y_first/red_square_00/top_right/inputTrain_2.1.xlsx,99,1,2,1,0,,,,,,,,,,,,,,,,,,,,,,,,,,,,,,,,,,,,,,,,,,,,,,,,,,,,,,,,,,,,,,,,,,,,,,,,,,,FWRGJU,train_y,red_square,top_right,2025-08-19_18h46.28.717,HideSeek_v1,2022.2.5,59.982676982707986,
,,,,,,,,,,,,,,,5,0,5,0,0,0,0,0,,,,,,,,,,,,,,,,,,,,,,,,,,,,,,,conditions/schedules/train_y_first/red_square_00/top_right/instructions/Slide22.png,conditions/schedules/train_y_first/red_square_00/top_right/instructions/Audio22.wav,925.5873793999199,925.5871025999077,22,"[3.445683700032532, 18.316189300036058, 16.129229600075632, 19.465106999967247, 4.920925799990073, 4.1020138000603765, 4.869271900039166, 11.657947400119156, 6.071846999926493, 7.134247200097889, 9.352362399920821, 13.356371500063688, 16.5639988000039, 16.352468200027943, 42.47980959992856, 21.461840000003576, 33.7936293000821, 8.355529499938712, 9.346137200016528, 13.123001900035888, 50.37594099994749, 30.322698700008914]","[0.0002500999253243208, 0.00021810014732182026, 16.129237400135025, 0.06688910000957549, 0.03221870004199445, 0.08221139991655946, 0.06525760004296899, 0.03323719999752939, 0.06370369996875525, 0.04713309998624027, 0.030602999962866306, 13.356379000004381, 0.03520440007559955, 16.352475999854505, 0.014226200059056282, 21.461848699953407, 0.014501299941912293, 0.014129400020465255, 0.06267899996601045, 13.123010999988765, 50.37594890012406, 30.322706500068307]",0,,,,,,,,,,,,,,,,,,,,,,,,,,,,,,,,,,,,,,,,,,,,,,,,,,,,,,,,,,,,,,,,,,,,,,,,,,,,,,,,,,,,,,,,,,,,,,,,,,,,,,,,,,,,,,,,,,,,,,,,,,,,FWRGJU,train_y,red_square,top_right,2025-08-19_18h46.28.717,HideSeek_v1,2022.2.5,59.982676982707986,
