trialInstr,x_fixStart,y_fixStart,x_corrSteps,y_corrSteps,x_nrSteps,y_nrSteps,alienID,trialLength,version,trialTrain,praclen,testlen,trial_label,break_on_off,beforeExpLoop.thisRepN,beforeExpLoop.thisTrialN,beforeExpLoop.thisN,beforeExpLoop.thisIndex,mini_instr_trials.thisRepN,mini_instr_trials.thisTrialN,mini_instr_trials.thisN,mini_instr_trials.thisIndex,instrLoop.thisRepN,instrLoop.thisTrialN,instrLoop.thisN,instrLoop.thisIndex,repeat_prac.thisRepN,repeat_prac.thisTrialN,repeat_prac.thisN,repeat_prac.thisIndex,trainLoop.thisRepN,trainLoop.thisTrialN,trainLoop.thisN,trainLoop.thisIndex,moveLoop_train.thisRepN,moveLoop_train.thisTrialN,moveLoop_train.thisN,moveLoop_train.thisIndex,experiment.thisRepN,experiment.thisTrialN,experiment.thisN,experiment.thisIndex,moveLoop_test.thisRepN,moveLoop_test.thisTrialN,moveLoop_test.thisN,moveLoop_test.thisIndex,mini_instr2_trials.thisRepN,mini_instr2_trials.thisTrialN,mini_instr2_trials.thisN,mini_instr2_trials.thisIndex,start_all_time,url,slideStim,audioStim,slides.started,sounds.started,nextButton.numClicks,nextButton.timesOn,nextButton.timesOff,prev_but.numClicks,prev_but.timesOn,prev_but.timesOff,alienStim,instrFile,alienStim_instr,gridImage_instr.started,startPos_3.started,key_instr.started,alienImage_3.started,sounds_1.started,key_instr.keys,key_instr.rt,all_x,all_y,FBy_corrSteps,FBy_fixStart,FBx_corrSteps,FBx_fixStart,FBy_pathSize_check,FBx_pathSize_check,gridImage_9.started,alienImageFB_3.started,startPosFB_3.started,keyFB_3.started,pathLine_ydir_2.started,pathLine_xdir_2.started,alienFace_3.started,sounds_2.started,RTFB_instr,keyFB_3.keys,keyFB_3.rt,draw_alienStim,draw_alienID,test_x,nrepcount,perfthres,percthres,earlierperf,earlystop,nextPrac,fileidx,praclen,saveACC_train,pracFile,nextPrac_train,addNrep,fileidx_endr,repExp,showearly,gridImage_4.started,startPos.started,movePos.started,key_resp.started,alienImage.started,buttonPress_train,RTchoice_train,cumAcctrain,aCorr,saveACC_choice,corrAns,x_movePos_end,y_movePos_end,key_resp.keys,key_resp.rt,wLy_dir,wLx_dir,x_movePos,y_movePos,text_2.started,text_2.stopped,aft_x_corrPos,aft_y_corrPos,y_pathSize_check,x_pathSize_check,y_pathdirY,x_pathdirY,x_pathdirX,x_corrPos,y_corrPos,gridImage_6.started,alienImageFB_2.started,startPosFB_2.started,movePosFB_2.started,keyFB_2.started,pathLine_xdir.started,pathLine_ydir.started,alienFace.started,sounds_4.started,RT_FBtrain,keyFB_2.keys,keyFB_2.rt,saveACC_pre,ACC,within_saveACC_train,earlystop_wloop,cumAcctrain_check,gridImage_3.started,alienImage_test.started,startPos_test.started,movePos_test.started,key_resp_test.started,wLy_dir_test,wLx_dir_test,buttonPress_test,RTchoice_test,cumAcctest,corrAns_test,key_resp_test.keys,key_resp_test.rt,text_3.started,text_3.stopped,total_time,end_all_time,key_resp_3.keys,slides_2.started,sounds_3.started,nextButton_2.numClicks,nextButton_2.timesOn,nextButton_2.timesOff,prev_but_2.numClicks,prev_but_2.timesOn,prev_but_2.timesOff,bye.started,participant,train_first,00_coordinate,starting corner,date,expName,psychopyVersion,frameRate,
,,,,,,,,,,,,,,,0,0,0,0,0,0,0,0,,,,,,,,,,,,,,,,,,,,,,,,,,,,,start_all_time,testround,conditions/schedules/train_y_first/blue_star_00/bottom_left/instructions/Slide1.png,conditions/schedules/train_y_first/blue_star_00/bottom_left/instructions/Audio1.wav,1001.9548608000041,1001.8977756707114,1,[6.856075000017881],[6.856081100006122],0,,,,,,,,,,,,,,,,,,,,,,,,,,,,,,,,,,,,,,,,,,,,,,,,,,,,,,,,,,,,,,,,,,,,,,,,,,,,,,,,,,,,,,,,,,,,,,,,,,,,,,,,,,,,,,,,,,,,,,,,,,,,FYQNRK,train_y,blue_star,bottom_left,2025-06-10_17h40.41.483,HideSeek_v1,2022.2.5,59.98915396916282,
,,,,,,,,,,,,,,,0,0,0,0,1,0,1,0,,,,,,,,,,,,,,,,,,,,,,,,,,,,,,,conditions/schedules/train_y_first/blue_star_00/bottom_left/instructions/Slide2.png,conditions/schedules/train_y_first/blue_star_00/bottom_left/instructions/Audio2.wav,1008.8334414999699,1008.8352111499989,2,"[6.856075000017881, 18.43155520001892]","[0.014210699999239296, 18.43156270001782]",0,,,,,,,,,,,,,,,,,,,,,,,,,,,,,,,,,,,,,,,,,,,,,,,,,,,,,,,,,,,,,,,,,,,,,,,,,,,,,,,,,,,,,,,,,,,,,,,,,,,,,,,,,,,,,,,,,,,,,,,,,,,,FYQNRK,train_y,blue_star,bottom_left,2025-06-10_17h40.41.483,HideSeek_v1,2022.2.5,59.98915396916282,
,,,,,,,,,,,,,,,0,0,0,0,2,0,2,0,,,,,,,,,,,,,,,,,,,,,,,,,,,,,,,conditions/schedules/train_y_first/blue_star_00/bottom_left/instructions/Slide3.png,conditions/schedules/train_y_first/blue_star_00/bottom_left/instructions/Audio3.wav,1027.3433480999665,1027.334140149993,3,"[6.856075000017881, 18.43155520001892, 16.785489499976393]","[0.014210699999239296, 0.014130599971394986, 16.785496599972248]",0,,,,,,,,,,,,,,,,,,,,,,,,,,,,,,,,,,,,,,,,,,,,,,,,,,,,,,,,,,,,,,,,,,,,,,,,,,,,,,,,,,,,,,,,,,,,,,,,,,,,,,,,,,,,,,,,,,,,,,,,,,,,FYQNRK,train_y,blue_star,bottom_left,2025-06-10_17h40.41.483,HideSeek_v1,2022.2.5,59.98915396916282,
,,,,,,,,,,,,,,,0,0,0,0,3,0,3,0,,,,,,,,,,,,,,,,,,,,,,,,,,,,,,,conditions/schedules/train_y_first/blue_star_00/bottom_left/instructions/Slide4.png,conditions/schedules/train_y_first/blue_star_00/bottom_left/instructions/Audio4.wav,1044.2057624000008,1044.1980135500198,4,"[6.856075000017881, 18.43155520001892, 16.785489499976393, 19.523160699987784]","[0.014210699999239296, 0.014130599971394986, 0.0736256999662146, 19.523168399988208]",0,,,,,,,,,,,,,,,,,,,,,,,,,,,,,,,,,,,,,,,,,,,,,,,,,,,,,,,,,,,,,,,,,,,,,,,,,,,,,,,,,,,,,,,,,,,,,,,,,,,,,,,,,,,,,,,,,,,,,,,,,,,,FYQNRK,train_y,blue_star,bottom_left,2025-06-10_17h40.41.483,HideSeek_v1,2022.2.5,59.98915396916282,
,,,,,,,,,,,,,,,0,0,0,0,4,0,4,0,,,,,,,,,,,,,,,,,,,,,,,,,,,,,,,conditions/schedules/train_y_first/blue_star_00/bottom_left/instructions/Slide5.png,conditions/schedules/train_y_first/blue_star_00/bottom_left/instructions/Audio5.wav,1063.7913361999672,1063.7807609800132,5,"[6.856075000017881, 18.43155520001892, 16.785489499976393, 19.523160699987784, 4.474510499974713]","[0.014210699999239296, 0.014130599971394986, 0.0736256999662146, 0.05376300000352785, 4.4745174999698065]",0,,,,,,,,,,,,,,,,,,,,,,,,,,,,,,,,,,,,,,,,,,,,,,,,,,,,,,,,,,,,,,,,,,,,,,,,,,,,,,,,,,,,,,,,,,,,,,,,,,,,,,,,,,,,,,,,,,,,,,,,,,,,FYQNRK,train_y,blue_star,bottom_left,2025-06-10_17h40.41.483,HideSeek_v1,2022.2.5,59.98915396916282,
,,,,,,,,,,,,,,,0,0,0,0,5,0,5,0,,,,,,,,,,,,,,,,,,,,,,,,,,,,,,,conditions/schedules/train_y_first/blue_star_00/bottom_left/instructions/Slide6.png,conditions/schedules/train_y_first/blue_star_00/bottom_left/instructions/Audio6.wav,1068.3169828999671,1068.318061579985,6,"[6.856075000017881, 18.43155520001892, 16.785489499976393, 19.523160699987784, 4.474510499974713, 5.052934900042601]","[0.014210699999239296, 0.014130599971394986, 0.0736256999662146, 0.05376300000352785, 0.09873890003655106, 5.052941700036172]",0,,,,,,,,,,,,,,,,,,,,,,,,,,,,,,,,,,,,,,,,,,,,,,,,,,,,,,,,,,,,,,,,,,,,,,,,,,,,,,,,,,,,,,,,,,,,,,,,,,,,,,,,,,,,,,,,,,,,,,,,,,,,FYQNRK,train_y,blue_star,bottom_left,2025-06-10_17h40.41.483,HideSeek_v1,2022.2.5,59.98915396916282,
,,,,,,,,,,,,,,,0,0,0,0,6,0,6,0,,,,,,,,,,,,,,,,,,,,,,,,,,,,,,,conditions/schedules/train_y_first/blue_star_00/bottom_left/instructions/Slide7.png,conditions/schedules/train_y_first/blue_star_00/bottom_left/instructions/Audio7.wav,1073.4223095999914,1073.422239379992,7,"[6.856075000017881, 18.43155520001892, 16.785489499976393, 19.523160699987784, 4.474510499974713, 5.052934900042601, 5.768659800000023]","[0.014210699999239296, 0.014130599971394986, 0.0736256999662146, 0.05376300000352785, 0.09873890003655106, 0.0640824000001885, 5.768666599993594]",0,,,,,,,,,,,,,,,,,,,,,,,,,,,,,,,,,,,,,,,,,,,,,,,,,,,,,,,,,,,,,,,,,,,,,,,,,,,,,,,,,,,,,,,,,,,,,,,,,,,,,,,,,,,,,,,,,,,,,,,,,,,,FYQNRK,train_y,blue_star,bottom_left,2025-06-10_17h40.41.483,HideSeek_v1,2022.2.5,59.98915396916282,
,,,,,,,,,,,,,,,0,0,0,0,7,0,7,0,,,,,,,,,,,,,,,,,,,,,,,,,,,,,,,conditions/schedules/train_y_first/blue_star_00/bottom_left/instructions/Slide8.png,conditions/schedules/train_y_first/blue_star_00/bottom_left/instructions/Audio8.wav,1079.2430400999729,1079.2436577799729,8,"[6.856075000017881, 18.43155520001892, 16.785489499976393, 19.523160699987784, 4.474510499974713, 5.052934900042601, 5.768659800000023, 11.907948600011878]","[0.014210699999239296, 0.014130599971394986, 0.0736256999662146, 0.05376300000352785, 0.09873890003655106, 0.0640824000001885, 0.06466119998367503, 11.907955800008494]",0,,,,,,,,,,,,,,,,,,,,,,,,,,,,,,,,,,,,,,,,,,,,,,,,,,,,,,,,,,,,,,,,,,,,,,,,,,,,,,,,,,,,,,,,,,,,,,,,,,,,,,,,,,,,,,,,,,,,,,,,,,,,FYQNRK,train_y,blue_star,bottom_left,2025-06-10_17h40.41.483,HideSeek_v1,2022.2.5,59.98915396916282,
,,,,,,,,,,,,,,,0,0,0,0,8,0,8,0,,,,,,,,,,,,,,,,,,,,,,,,,,,,,,,conditions/schedules/train_y_first/blue_star_00/bottom_left/instructions/Slide9.png,conditions/schedules/train_y_first/blue_star_00/bottom_left/instructions/Audio9.wav,1091.2084395999555,1091.2036138800088,9,"[6.856075000017881, 18.43155520001892, 16.785489499976393, 19.523160699987784, 4.474510499974713, 5.052934900042601, 5.768659800000023, 11.907948600011878, 5.881147400010377]","[0.014210699999239296, 0.014130599971394986, 0.0736256999662146, 0.05376300000352785, 0.09873890003655106, 0.0640824000001885, 0.06466119998367503, 0.031228800013195723, 5.8811554000130855]",0,,,,,,,,,,,,,,,,,,,,,,,,,,,,,,,,,,,,,,,,,,,,,,,,,,,,,,,,,,,,,,,,,,,,,,,,,,,,,,,,,,,,,,,,,,,,,,,,,,,,,,,,,,,,,,,,,,,,,,,,,,,,FYQNRK,train_y,blue_star,bottom_left,2025-06-10_17h40.41.483,HideSeek_v1,2022.2.5,59.98915396916282,
,,,,,,,,,,,,,,,0,0,0,0,9,0,9,0,,,,,,,,,,,,,,,,,,,,,,,,,,,,,,,conditions/schedules/train_y_first/blue_star_00/bottom_left/instructions/Slide10.png,conditions/schedules/train_y_first/blue_star_00/bottom_left/instructions/Audio10.wav,1097.1275109999697,1097.125228110014,10,"[6.856075000017881, 18.43155520001892, 16.785489499976393, 19.523160699987784, 4.474510499974713, 5.052934900042601, 5.768659800000023, 11.907948600011878, 5.881147400010377, 7.569446499983314]","[0.014210699999239296, 0.014130599971394986, 0.0736256999662146, 0.05376300000352785, 0.09873890003655106, 0.0640824000001885, 0.06466119998367503, 0.031228800013195723, 0.09614029998192564, 7.569454399985261]",0,,,,,,,,,,,,,,,,,,,,,,,,,,,,,,,,,,,,,,,,,,,,,,,,,,,,,,,,,,,,,,,,,,,,,,,,,,,,,,,,,,,,,,,,,,,,,,,,,,,,,,,,,,,,,,,,,,,,,,,,,,,,FYQNRK,train_y,blue_star,bottom_left,2025-06-10_17h40.41.483,HideSeek_v1,2022.2.5,59.98915396916282,
,,,,,,,,,,,,,,,0,0,0,0,10,0,10,0,,,,,,,,,,,,,,,,,,,,,,,,,,,,,,,conditions/schedules/train_y_first/blue_star_00/bottom_left/instructions/Slide11.png,conditions/schedules/train_y_first/blue_star_00/bottom_left/instructions/Audio11.wav,1104.7336538999807,1104.731521010003,11,"[6.856075000017881, 18.43155520001892, 16.785489499976393, 19.523160699987784, 4.474510499974713, 5.052934900042601, 5.768659800000023, 11.907948600011878, 5.881147400010377, 7.569446499983314, 10.43714719999116]","[0.014210699999239296, 0.014130599971394986, 0.0736256999662146, 0.05376300000352785, 0.09873890003655106, 0.0640824000001885, 0.06466119998367503, 0.031228800013195723, 0.09614029998192564, 0.06195599999045953, 10.437153899983969]",0,,,,,,,,,,,,,,,,,,,,,,,,,,,,,,,,,,,,,,,,,,,,,,,,,,,,,,,,,,,,,,,,,,,,,,,,,,,,,,,,,,,,,,,,,,,,,,,,,,,,,,,,,,,,,,,,,,,,,,,,,,,,FYQNRK,train_y,blue_star,bottom_left,2025-06-10_17h40.41.483,HideSeek_v1,2022.2.5,59.98915396916282,
,,,,,,,,,,,,,,,0,0,0,0,11,0,11,0,,,,,,,,,,,,,,,,,,,,,,,,,,,,,,,conditions/schedules/train_y_first/blue_star_00/bottom_left/instructions/Slide12.png,conditions/schedules/train_y_first/blue_star_00/bottom_left/instructions/Audio12.wav,1115.2476343999733,1115.2403708500206,12,"[6.856075000017881, 18.43155520001892, 16.785489499976393, 19.523160699987784, 4.474510499974713, 5.052934900042601, 5.768659800000023, 11.907948600011878, 5.881147400010377, 7.569446499983314, 10.43714719999116, 13.953159800032154]","[0.014210699999239296, 0.014130599971394986, 0.0736256999662146, 0.05376300000352785, 0.09873890003655106, 0.0640824000001885, 0.06466119998367503, 0.031228800013195723, 0.09614029998192564, 0.06195599999045953, 0.03299730003345758, 13.95316630002344]",0,,,,,,,,,,,,,,,,,,,,,,,,,,,,,,,,,,,,,,,,,,,,,,,,,,,,,,,,,,,,,,,,,,,,,,,,,,,,,,,,,,,,,,,,,,,,,,,,,,,,,,,,,,,,,,,,,,,,,,,,,,,,FYQNRK,train_y,blue_star,bottom_left,2025-06-10_17h40.41.483,HideSeek_v1,2022.2.5,59.98915396916282,
1,0,3,0,8,0,5,66,2,instr_dim1_1,,,,,,0,0,0,0,,,,,0,0,0,0,,,,,,,,,,,,,,,,,,,,,,,,,,,,,,,,,,,,,stimuli/alien_stimuli/66.png,conditions/schedules/train_y_first/blue_star_00/bottom_left/inputInstr_1.xlsx,stimuli/alien_stimuli/66.png,1129.2880192999728,1129.2880192999728,1129.2880192999728,1129.2880192999728,1129.2853501200093,return,7.319398999970872,"[-0.16, -0.08, 0, 0.08, 0.16, 0.24, 0.32, 0.4, 0.48, 0.56]","[-0.4, -0.32, -0.24, -0.16, -0.08, 0, 0.08, 0.16, 0.24, 0.32]",8,3,0,0,0.4,0.0,1136.7495186000015,1136.7495186000015,1136.7495186000015,1136.7495186000015,1136.7495186000015,1136.7495186000015,1136.7495186000015,1136.741541259992,35.429907499987166,return,35.279570600017905,stimuli/alien_stimuli/66.png,66,0,1,,,,,,,,,,,,,,,,,,,,,,,,,,,,,,,,,,,,,,,,,,,,,,,,,,,,,,,,,,,,,,,,,,,,,,,,,,,,,,,,,,,,,,,,,FYQNRK,train_y,blue_star,bottom_left,2025-06-10_17h40.41.483,HideSeek_v1,2022.2.5,59.98915396916282,
,,,,,,,,,,,30,,,,0,0,0,0,,,,,,,,,,,,,,,,,,,,,,,,,,,,,,,,,,,,,,,,,,,,,,,,,,,,,,,,,,,,,,,,,,,,,,,,,,,,,,21,0.7,0,0,99,1,30,0,conditions/schedules/train_y_first/blue_star_00/bottom_left/inputTrain_1.1.xlsx,99,1,1,1,0,,,,,,,,,,,,,,,,,,,,,,,,,,,,,,,,,,,,,,,,,,,,,,,,,,,,,,,,,,,,,,,,,,,,,,,,,,,FYQNRK,train_y,blue_star,bottom_left,2025-06-10_17h40.41.483,HideSeek_v1,2022.2.5,59.98915396916282,
,,,,,,,,,,,,,,,1,0,1,0,0,0,0,0,,,,,,,,,,,,,,,,,,,,,,,,,,,,,,,conditions/schedules/train_y_first/blue_star_00/bottom_left/instructions/Slide13.png,conditions/schedules/train_y_first/blue_star_00/bottom_left/instructions/Audio13.wav,1172.197636500001,1172.1875155300133,13,"[6.856075000017881, 18.43155520001892, 16.785489499976393, 19.523160699987784, 4.474510499974713, 5.052934900042601, 5.768659800000023, 11.907948600011878, 5.881147400010377, 7.569446499983314, 10.43714719999116, 13.953159800032154, 19.753691099991556]","[0.014210699999239296, 0.014130599971394986, 0.0736256999662146, 0.05376300000352785, 0.09873890003655106, 0.0640824000001885, 0.06466119998367503, 0.031228800013195723, 0.09614029998192564, 0.06195599999045953, 0.03299730003345758, 13.95316630002344, 19.75369799998589]",0,,,,,,,,,,,,,,,,,,,,,,,,,,,,,,,,,,,,,,,,,,,,,,,,,,,,,,,,,,,,,,,,,,,,,,,,,,,,,,,,,,,,,,,,,,,,,,,,,,,,,,,,,,,,,,,,,,,,,,,,,,,,FYQNRK,train_y,blue_star,bottom_left,2025-06-10_17h40.41.483,HideSeek_v1,2022.2.5,59.98915396916282,
,,,,,,,,,,,,,,,1,0,1,0,1,0,1,0,,,,,,,,,,,,,,,,,,,,,,,,,,,,,,,conditions/schedules/train_y_first/blue_star_00/bottom_left/instructions/Slide14.png,conditions/schedules/train_y_first/blue_star_00/bottom_left/instructions/Audio14.wav,1192.0164092999767,1192.0041517800184,14,"[6.856075000017881, 18.43155520001892, 16.785489499976393, 19.523160699987784, 4.474510499974713, 5.052934900042601, 5.768659800000023, 11.907948600011878, 5.881147400010377, 7.569446499983314, 10.43714719999116, 13.953159800032154, 19.753691099991556, 17.316049300017767]","[0.014210699999239296, 0.014130599971394986, 0.0736256999662146, 0.05376300000352785, 0.09873890003655106, 0.0640824000001885, 0.06466119998367503, 0.031228800013195723, 0.09614029998192564, 0.06195599999045953, 0.03299730003345758, 13.95316630002344, 0.013954900030512363, 17.316056600015145]",0,,,,,,,,,,,,,,,,,,,,,,,,,,,,,,,,,,,,,,,,,,,,,,,,,,,,,,,,,,,,,,,,,,,,,,,,,,,,,,,,,,,,,,,,,,,,,,,,,,,,,,,,,,,,,,,,,,,,,,,,,,,,FYQNRK,train_y,blue_star,bottom_left,2025-06-10_17h40.41.483,HideSeek_v1,2022.2.5,59.98915396916282,
2,2,3,2,3,0,0,61,2,instr_dim1_1,,,,,,1,0,1,0,,,,,0,0,0,0,,,,,,,,,,,,,,,,,,,,,,,,,,,,,,,,,,,,,stimuli/alien_stimuli/61.png,conditions/schedules/train_y_first/blue_star_00/bottom_left/inputInstr_1.xlsx,stimuli/alien_stimuli/61.png,1209.4206922999583,1209.4206922999583,1209.4206922999583,1209.4206922999583,1209.4184689200133,return,4.251097399974242,"[-0.16, -0.08, 0, 0.08, 0.16, 0.24, 0.32, 0.4, 0.48, 0.56]","[-0.4, -0.32, -0.24, -0.16, -0.08, 0, 0.08, 0.16, 0.24, 0.32]",3,3,2,2,0.0,0.0,1213.8080299999565,1213.8080299999565,1213.8080299999565,1213.8080299999565,1213.8080299999565,1213.8080299999565,1213.8080299999565,1213.805382460018,5.738755900005344,return,5.589208899997175,stimuli/alien_stimuli/61.png,61,2,2,,,,,,,,,,,,,,,,,,,,,,,,,,,,,,,,,,,,,,,,,,,,,,,,,,,,,,,,,,,,,,,,,,,,,,,,,,,,,,,,,,,,,,,,,FYQNRK,train_y,blue_star,bottom_left,2025-06-10_17h40.41.483,HideSeek_v1,2022.2.5,59.98915396916282,
,,,,,,,,,,,30,,,,1,0,1,0,,,,,,,,,,,,,,,,,,,,,,,,,,,,,,,,,,,,,,,,,,,,,,,,,,,,,,,,,,,,,,,,,,,,,,,,,,,,,,21,0.7,0,0,99,1,30,0,conditions/schedules/train_y_first/blue_star_00/bottom_left/inputTrain_1.1.xlsx,99,1,1,1,0,,,,,,,,,,,,,,,,,,,,,,,,,,,,,,,,,,,,,,,,,,,,,,,,,,,,,,,,,,,,,,,,,,,,,,,,,,,FYQNRK,train_y,blue_star,bottom_left,2025-06-10_17h40.41.483,HideSeek_v1,2022.2.5,59.98915396916282,
,,,,,,,,,,,,,,,2,0,2,0,0,0,0,0,,,,,,,,,,,,,,,,,,,,,,,,,,,,,,,conditions/schedules/train_y_first/blue_star_00/bottom_left/instructions/Slide15.png,conditions/schedules/train_y_first/blue_star_00/bottom_left/instructions/Audio15.wav,1219.5659739999683,1219.5600348299834,15,"[6.856075000017881, 18.43155520001892, 16.785489499976393, 19.523160699987784, 4.474510499974713, 5.052934900042601, 5.768659800000023, 11.907948600011878, 5.881147400010377, 7.569446499983314, 10.43714719999116, 13.953159800032154, 19.753691099991556, 17.316049300017767, 43.744697400019504]","[0.014210699999239296, 0.014130599971394986, 0.0736256999662146, 0.05376300000352785, 0.09873890003655106, 0.0640824000001885, 0.06466119998367503, 0.031228800013195723, 0.09614029998192564, 0.06195599999045953, 0.03299730003345758, 13.95316630002344, 0.013954900030512363, 17.316056600015145, 43.74470380001003]",0,,,,,,,,,,,,,,,,,,,,,,,,,,,,,,,,,,,,,,,,,,,,,,,,,,,,,,,,,,,,,,,,,,,,,,,,,,,,,,,,,,,,,,,,,,,,,,,,,,,,,,,,,,,,,,,,,,,,,,,,,,,,FYQNRK,train_y,blue_star,bottom_left,2025-06-10_17h40.41.483,HideSeek_v1,2022.2.5,59.98915396916282,
,,,,,,,,,,,,,,,2,0,2,0,1,0,1,0,,,,,,,,,,,,,,,,,,,,,,,,,,,,,,,conditions/schedules/train_y_first/blue_star_00/bottom_left/instructions/Slide16.png,conditions/schedules/train_y_first/blue_star_00/bottom_left/instructions/Audio16.wav,1263.3842580000055,1263.3800761500024,16,"[6.856075000017881, 18.43155520001892, 16.785489499976393, 19.523160699987784, 4.474510499974713, 5.052934900042601, 5.768659800000023, 11.907948600011878, 5.881147400010377, 7.569446499983314, 10.43714719999116, 13.953159800032154, 19.753691099991556, 17.316049300017767, 43.744697400019504, 21.410738600010518]","[0.014210699999239296, 0.014130599971394986, 0.0736256999662146, 0.05376300000352785, 0.09873890003655106, 0.0640824000001885, 0.06466119998367503, 0.031228800013195723, 0.09614029998192564, 0.06195599999045953, 0.03299730003345758, 13.95316630002344, 0.013954900030512363, 17.316056600015145, 0.000202000024728477, 21.410745900007896]",0,,,,,,,,,,,,,,,,,,,,,,,,,,,,,,,,,,,,,,,,,,,,,,,,,,,,,,,,,,,,,,,,,,,,,,,,,,,,,,,,,,,,,,,,,,,,,,,,,,,,,,,,,,,,,,,,,,,,,,,,,,,,FYQNRK,train_y,blue_star,bottom_left,2025-06-10_17h40.41.483,HideSeek_v1,2022.2.5,59.98915396916282,
,0,0,0,4,0,4,65,,train_dim1_1,1,30,,,,2,0,2,0,,,,,,,,,0,0,0,0,0,0,0,0,0,0,0,0,,,,,,,,,,,,,,,,,,,,,,,,,stimuli/alien_stimuli/65.png,,,,,,,,,,,,,,,,,,,,,,,,,,,,,,,,,,,,,,,30,,,,,,,,1284.8896584999748,1284.8896584999748,1284.8896584999748,1284.8896584999748,1284.8896584999748,up,6.768173300020862,0,0,0,99,-0.16,-0.32,up,6.676663099962752,,,,,,,,,,,,,,,,,,,,,,,,,,,,,,,,,,,,,,,,,,,,,,,,,,,,,,,,,,,,FYQNRK,train_y,blue_star,bottom_left,2025-06-10_17h40.41.483,HideSeek_v1,2022.2.5,59.98915396916282,
,0,0,0,4,0,4,65,,train_dim1_1,1,30,,,,2,0,2,0,,,,,,,,,0,0,0,0,0,0,0,0,1,0,1,0,,,,,,,,,,,,,,,,,,,,,,,,,,,,,,,,,,,,,,,,,,,,,,,,,,,,,,,,,,,,,,,,30,,,,,,,,1291.6509320999612,1291.6509320999612,1291.6509320999612,1291.6509320999612,1291.6509320999612,up,1.4606516999774612,0,0,0,99,-0.16,-0.24,up,1.3751532000023872,,,,,,,,,,,,,,,,,,,,,,,,,,,,,,,,,,,,,,,,,,,,,,,,,,,,,,,,,,,,FYQNRK,train_y,blue_star,bottom_left,2025-06-10_17h40.41.483,HideSeek_v1,2022.2.5,59.98915396916282,
,0,0,0,4,0,4,65,,train_dim1_1,1,30,,,,2,0,2,0,,,,,,,,,0,0,0,0,0,0,0,0,2,0,2,0,,,,,,,,,,,,,,,,,,,,,,,,,,,,,,,,,,,,,,,,,,,,,,,,,,,,,,,,,,,,,,,,30,,,,,,,,1293.1207641999936,1293.1207641999936,1293.1207641999936,1293.1207641999936,1293.1207641999936,up,2.2089529000222683,0,0,0,99,-0.16,-0.15999999999999998,up,2.1289621999603696,,,,,,,,,,,,,,,,,,,,,,,,,,,,,,,,,,,,,,,,,,,,,,,,,,,,,,,,,,,,FYQNRK,train_y,blue_star,bottom_left,2025-06-10_17h40.41.483,HideSeek_v1,2022.2.5,59.98915396916282,
,0,0,0,4,0,4,65,,train_dim1_1,1,30,,,,2,0,2,0,,,,,,,,,0,0,0,0,0,0,0,0,3,0,3,0,,,,,,,,,,,,,,,,,,,,,,,,,,,,,,,,,,,,,,,,,,,,,,,,,,,,,,,,,,,,,,,,30,,,,,,,,1295.3370027999626,1295.3370027999626,1295.3370027999626,1295.3370027999626,1295.3370027999626,up,0.9606518000364304,0,0,0,99,-0.16,-0.07999999999999997,up,0.8752666999935172,,,,,,,,,,,,,,,,,,,,,,,,,,,,,,,,,,,,,,,,,,,,,,,,,,,,,,,,,,,,FYQNRK,train_y,blue_star,bottom_left,2025-06-10_17h40.41.483,HideSeek_v1,2022.2.5,59.98915396916282,
,0,0,0,4,0,4,65,,train_dim1_1,1,30,,,,2,0,2,0,,,,,,,,,0,0,0,0,0,0,0,0,4,0,4,0,,,,,,,,,,,,,,,,,,,,,,,,,,,,,,,,,,,,,,,,,,,,,,,,,,,,,,,,,,,,,,,,30,,,,,,,,1296.3050906999852,1296.3050906999852,1296.3050906999852,1296.3050906999852,1296.3050906999852,return,1.3934722000267357,1,0,0,1,-0.16,-0.07999999999999997,return,1.3058283999562263,4,0,-0.16,-0.07999999999999997,,,,,,,,,,,,,,,,,,,,,,,,,,,,,,,,,,,,,,,,,,,,,,,,,,,,,,,,FYQNRK,train_y,blue_star,bottom_left,2025-06-10_17h40.41.483,HideSeek_v1,2022.2.5,59.98915396916282,
,3,2,3,7,0,5,66,,train_dim1_1,2,30,,,,2,0,2,0,,,,,,,,,0,0,0,0,0,1,1,1,0,0,0,0,,,,,,,,,,,,,,,,,,,,,,,,,stimuli/alien_stimuli/66.png,,,,,,,,,,,,,,,,,,,,,,,,,,,,,stimuli/alien_stimuli/65.png,65,0,3,,,,,,,30,,,,,,,,1304.0165954999975,1304.0165954999975,1304.0165954999975,1304.0165954999975,1304.0165954999975,up,2.388425900018774,1,0,0,99,0.08,-0.15999999999999998,up,2.310808599984739,,,,,1302.4623148999526,1304.0165954999975,-0.16,-0.08,0.32,0.0,-0.24000000000000002,-0.16,-0.16,-0.16,-0.08,1299.2654936999897,1299.2654936999897,1299.2654936999897,1299.2654936999897,1299.2654936999897,1299.2654936999897,1299.2654936999897,1299.2654936999897,1299.259635190002,3.3046605000272393,return,3.179560499964282,,,,,,,,,,,,,,,,,,,,,,,,,,,,,,,,,FYQNRK,train_y,blue_star,bottom_left,2025-06-10_17h40.41.483,HideSeek_v1,2022.2.5,59.98915396916282,
,3,2,3,7,0,5,66,,train_dim1_1,2,30,,,,2,0,2,0,,,,,,,,,0,0,0,0,0,1,1,1,1,0,1,0,,,,,,,,,,,,,,,,,,,,,,,,,,,,,,,,,,,,,,,,,,,,,,,,,,,,,,,,,,,,,,,,30,,,,,,,,1306.4120854999637,1306.4120854999637,1306.4120854999637,1306.4120854999637,1306.4120854999637,up,0.4933565999963321,1,0,0,99,0.08,-0.07999999999999997,up,0.40696829999797046,,,,,,,,,,,,,,,,,,,,,,,,,,,,,,,,,,,,,,,,,,,,,,,,,,,,,,,,,,,,FYQNRK,train_y,blue_star,bottom_left,2025-06-10_17h40.41.483,HideSeek_v1,2022.2.5,59.98915396916282,
,3,2,3,7,0,5,66,,train_dim1_1,2,30,,,,2,0,2,0,,,,,,,,,0,0,0,0,0,1,1,1,2,0,2,0,,,,,,,,,,,,,,,,,,,,,,,,,,,,,,,,,,,,,,,,,,,,,,,,,,,,,,,,,,,,,,,,30,,,,,,,,1306.9125325999921,1306.9125325999921,1306.9125325999921,1306.9125325999921,1306.9125325999921,up,0.576470700034406,1,0,0,99,0.08,2.7755575615628914e-17,up,0.4900262999581173,,,,,,,,,,,,,,,,,,,,,,,,,,,,,,,,,,,,,,,,,,,,,,,,,,,,,,,,,,,,FYQNRK,train_y,blue_star,bottom_left,2025-06-10_17h40.41.483,HideSeek_v1,2022.2.5,59.98915396916282,
,3,2,3,7,0,5,66,,train_dim1_1,2,30,,,,2,0,2,0,,,,,,,,,0,0,0,0,0,1,1,1,3,0,3,0,,,,,,,,,,,,,,,,,,,,,,,,,,,,,,,,,,,,,,,,,,,,,,,,,,,,,,,,,,,,,,,,30,,,,,,,,1307.4994013999822,1307.4994013999822,1307.4994013999822,1307.4994013999822,1307.4994013999822,up,0.5933846999541856,1,0,0,99,0.08,0.08000000000000003,up,0.5107484000036493,,,,,,,,,,,,,,,,,,,,,,,,,,,,,,,,,,,,,,,,,,,,,,,,,,,,,,,,,,,,FYQNRK,train_y,blue_star,bottom_left,2025-06-10_17h40.41.483,HideSeek_v1,2022.2.5,59.98915396916282,
,3,2,3,7,0,5,66,,train_dim1_1,2,30,,,,2,0,2,0,,,,,,,,,0,0,0,0,0,1,1,1,4,0,4,0,,,,,,,,,,,,,,,,,,,,,,,,,,,,,,,,,,,,,,,,,,,,,,,,,,,,,,,,,,,,,,,,30,,,,,,,,1308.0966865000082,1308.0966865000082,1308.0966865000082,1308.0966865000082,1308.0966865000082,up,0.47711390000768006,1,0,0,99,0.08,0.16000000000000003,up,0.39043920004041865,,,,,,,,,,,,,,,,,,,,,,,,,,,,,,,,,,,,,,,,,,,,,,,,,,,,,,,,,,,,FYQNRK,train_y,blue_star,bottom_left,2025-06-10_17h40.41.483,HideSeek_v1,2022.2.5,59.98915396916282,
,3,2,3,7,0,5,66,,train_dim1_1,2,30,,,,2,0,2,0,,,,,,,,,0,0,0,0,0,1,1,1,5,0,5,0,,,,,,,,,,,,,,,,,,,,,,,,,,,,,,,,,,,,,,,,,,,,,,,,,,,,,,,,,,,,,,,,30,,,,,,,,1308.5805277999607,1308.5805277999607,1308.5805277999607,1308.5805277999607,1308.5805277999607,return,0.626939499983564,2,0,0,1,0.08,0.16000000000000003,return,0.5547488000011072,9,0,0.08,0.16000000000000003,,,,,,,,,,,,,,,,,,,,,,,,,,,,,,,,,,,,,,,,,,,,,,,,,,,,,,,,FYQNRK,train_y,blue_star,bottom_left,2025-06-10_17h40.41.483,HideSeek_v1,2022.2.5,59.98915396916282,
,2,3,2,6,0,3,64,,train_dim1_1,3,30,,,,2,0,2,0,,,,,,,,,0,0,0,0,0,2,2,2,0,0,0,0,,,,,,,,,,,,,,,,,,,,,,,,,stimuli/alien_stimuli/64.png,,,,,,,,,,,,,,,,,,,,,,,,,,,,,stimuli/alien_stimuli/66.png,66,3,4,,,,,,,30,,,,,,,,1313.6761878999532,1313.6761878999532,1313.6761878999532,1313.6761878999532,1313.6761878999532,up,11.94688360003056,2,0,0,99,0,-0.08,up,11.863081300049089,,,,,1312.1202095999615,1313.6761878999532,0.08,0.16,0.4,0.0,-0.039999999999999994,0.08,0.08,0.08,0.16,1310.7815884999582,1310.7815884999582,1310.7815884999582,1310.7815884999582,1310.7815884999582,1310.7815884999582,1310.7815884999582,1310.7815884999582,1310.7692312900208,1.4531879000132903,return,1.3129413000424393,,,,,,,,,,,,,,,,,,,,,,,,,,,,,,,,,FYQNRK,train_y,blue_star,bottom_left,2025-06-10_17h40.41.483,HideSeek_v1,2022.2.5,59.98915396916282,
,2,3,2,6,0,3,64,,train_dim1_1,3,30,,,,2,0,2,0,,,,,,,,,0,0,0,0,0,2,2,2,1,0,1,0,,,,,,,,,,,,,,,,,,,,,,,,,,,,,,,,,,,,,,,,,,,,,,,,,,,,,,,,,,,,,,,,30,,,,,,,,1325.6365643999889,1325.6365643999889,1325.6365643999889,1325.6365643999889,1325.6365643999889,up,0.6591230000485666,2,0,0,99,0,0.0,up,0.5750979000004008,,,,,,,,,,,,,,,,,,,,,,,,,,,,,,,,,,,,,,,,,,,,,,,,,,,,,,,,,,,,FYQNRK,train_y,blue_star,bottom_left,2025-06-10_17h40.41.483,HideSeek_v1,2022.2.5,59.98915396916282,
,2,3,2,6,0,3,64,,train_dim1_1,3,30,,,,2,0,2,0,,,,,,,,,0,0,0,0,0,2,2,2,2,0,2,0,,,,,,,,,,,,,,,,,,,,,,,,,,,,,,,,,,,,,,,,,,,,,,,,,,,,,,,,,,,,,,,,30,,,,,,,,1326.2935302999686,1326.2935302999686,1326.2935302999686,1326.2935302999686,1326.2935302999686,return,0.5267739999690093,2,1,0,0,0,0.0,return,0.44727920001605526,11,0,0,0.0,,,,,,,,,,,,,,,,,,,,,,,,,,,,,,,,,,,,,,,,,,,,,,,,,,,,,,,,FYQNRK,train_y,blue_star,bottom_left,2025-06-10_17h40.41.483,HideSeek_v1,2022.2.5,59.98915396916282,
,0,1,0,2,0,1,62,,train_dim1_1,4,30,,,,2,0,2,0,,,,,,,,,0,0,0,0,0,3,3,3,0,0,0,0,,,,,,,,,,,,,,,,,,,,,,,,,stimuli/alien_stimuli/62.png,,,,,,,,,,,,,,,,,,,,,,,,,,,,,stimuli/alien_stimuli/64.png,64,2,5,,,,,,,30,,,,,,,,1333.342085799959,1333.342085799959,1333.342085799959,1333.342085799959,1333.342085799959,up,12.145499299978837,2,1,0,99,-0.16,-0.24,up,12.067885100026615,,,,,1331.7865235999925,1333.342085799959,0,0.08,0.24,0.0,-0.04,0,0.0,0,0.08,1328.3934928999515,1328.3934928999515,1328.3934928999515,1328.3934928999515,1328.3934928999515,1328.3934928999515,1328.3934928999515,1328.3934928999515,1328.3838736900243,3.5047444000374526,return,3.3665296000544913,,,,,,,,,,,,,,,,,,,,,,,,,,,,,,,,,FYQNRK,train_y,blue_star,bottom_left,2025-06-10_17h40.41.483,HideSeek_v1,2022.2.5,59.98915396916282,
,0,1,0,2,0,1,62,,train_dim1_1,4,30,,,,2,0,2,0,,,,,,,,,0,0,0,0,0,3,3,3,1,0,1,0,,,,,,,,,,,,,,,,,,,,,,,,,,,,,,,,,,,,,,,,,,,,,,,,,,,,,,,,,,,,,,,,30,,,,,,,,1345.5020316999871,1345.5020316999871,1345.5020316999871,1345.5020316999871,1345.5020316999871,return,0.5263765000272542,3,0,0,1,-0.16,-0.24,return,0.43089819996384904,12,0,-0.16,-0.24,,,,,,,,,,,,,,,,,,,,,,,,,,,,,,,,,,,,,,,,,,,,,,,,,,,,,,,,FYQNRK,train_y,blue_star,bottom_left,2025-06-10_17h40.41.483,HideSeek_v1,2022.2.5,59.98915396916282,
,3,3,3,3,0,0,61,,train_dim1_1,5,30,,,,2,0,2,0,,,,,,,,,0,0,0,0,0,4,4,4,0,0,0,0,,,,,,,,,,,,,,,,,,,,,,,,,stimuli/alien_stimuli/61.png,,,,,,,,,,,,,,,,,,,,,,,,,,,,,stimuli/alien_stimuli/62.png,62,0,6,,,,,,,30,,,,,,,,1351.8049070999841,1351.8049070999841,1351.8049070999841,1351.8049070999841,1351.8049070999841,return,1.5557355000055395,4,0,0,1,0.08,-0.16,return,1.4793871999718249,12,0,0.08,-0.16,1350.2520593999652,1351.8049070999841,-0.16,-0.24,0.08,0.0,-0.28,-0.16,-0.16,-0.16,-0.24,1347.5959543999634,1347.5959543999634,1347.5959543999634,1347.5959543999634,1347.5959543999634,1347.5959543999634,1347.5959543999634,1347.5959543999634,1347.5830778899717,2.7709845999488607,return,2.625583600020036,,,,,,,,,,,,,,,,,,,,,,,,,,,,,,,,,FYQNRK,train_y,blue_star,bottom_left,2025-06-10_17h40.41.483,HideSeek_v1,2022.2.5,59.98915396916282,
,1,4,1,5,0,1,62,,train_dim1_1,6,30,,,,2,0,2,0,,,,,,,,,0,0,0,0,0,5,5,5,0,0,0,0,,,,,,,,,,,,,,,,,,,,,,,,,stimuli/alien_stimuli/62.png,,,,,,,,,,,,,,,,,,,,,,,,,,,,,stimuli/alien_stimuli/61.png,61,3,7,,,,,,,30,,,,,,,,1359.2992132999934,1359.2992132999934,1359.2992132999934,1359.2992132999934,1359.2992132999934,up,1.701978400000371,4,0,0,99,-0.08,0.0,up,1.6240148000069894,,,,,1357.7413529999903,1359.2992132999934,0.08,-0.16,0.0,0.0,-0.16,0.08,0.08,0.08,-0.16,1354.9146050999989,1354.9146050999989,1354.9146050999989,1354.9146050999989,1354.9146050999989,1354.9146050999989,1354.9146050999989,1354.9146050999989,1354.9057869200128,2.9212346999556758,return,2.80033989995718,,,,,,,,,,,,,,,,,,,,,,,,,,,,,,,,,FYQNRK,train_y,blue_star,bottom_left,2025-06-10_17h40.41.483,HideSeek_v1,2022.2.5,59.98915396916282,
,1,4,1,5,0,1,62,,train_dim1_1,6,30,,,,2,0,2,0,,,,,,,,,0,0,0,0,0,5,5,5,1,0,1,0,,,,,,,,,,,,,,,,,,,,,,,,,,,,,,,,,,,,,,,,,,,,,,,,,,,,,,,,,,,,,,,,30,,,,,,,,1361.008543599979,1361.008543599979,1361.008543599979,1361.008543599979,1361.008543599979,return,0.6098687000339851,5,0,0,1,-0.08,0.0,return,0.5211766000138596,13,0,-0.08,0.0,,,,,,,,,,,,,,,,,,,,,,,,,,,,,,,,,,,,,,,,,,,,,,,,,,,,,,,,FYQNRK,train_y,blue_star,bottom_left,2025-06-10_17h40.41.483,HideSeek_v1,2022.2.5,59.98915396916282,
,1,3,1,6,0,3,64,,train_dim1_1,7,30,,,,2,0,2,0,,,,,,,,,0,0,0,0,0,6,6,6,0,0,0,0,,,,,,,,,,,,,,,,,,,,,,,,,stimuli/alien_stimuli/64.png,,,,,,,,,,,,,,,,,,,,,,,,,,,,,stimuli/alien_stimuli/62.png,62,1,8,,,,,,,30,,,,,,,,1367.440307199955,1367.440307199955,1367.440307199955,1367.440307199955,1367.440307199955,up,1.533354800019879,5,0,0,99,-0.08,-0.08,up,1.446183199994266,,,,,1365.881515999965,1367.440307199955,-0.08,0,0.08,0.0,-0.04,-0.08,-0.08,-0.08,0,1363.1692820999888,1363.1692820999888,1363.1692820999888,1363.1692820999888,1363.1692820999888,1363.1692820999888,1363.1692820999888,1363.1692820999888,1363.162777819985,2.8042929000221193,return,2.6917373000178486,,,,,,,,,,,,,,,,,,,,,,,,,,,,,,,,,FYQNRK,train_y,blue_star,bottom_left,2025-06-10_17h40.41.483,HideSeek_v1,2022.2.5,59.98915396916282,
,1,3,1,6,0,3,64,,train_dim1_1,7,30,,,,2,0,2,0,,,,,,,,,0,0,0,0,0,6,6,6,1,0,1,0,,,,,,,,,,,,,,,,,,,,,,,,,,,,,,,,,,,,,,,,,,,,,,,,,,,,,,,,,,,,,,,,30,,,,,,,,1368.9794365999987,1368.9794365999987,1368.9794365999987,1368.9794365999987,1368.9794365999987,up,0.859865800011903,5,0,0,99,-0.08,0.0,up,0.7775429000030272,,,,,,,,,,,,,,,,,,,,,,,,,,,,,,,,,,,,,,,,,,,,,,,,,,,,,,,,,,,,FYQNRK,train_y,blue_star,bottom_left,2025-06-10_17h40.41.483,HideSeek_v1,2022.2.5,59.98915396916282,
,1,3,1,6,0,3,64,,train_dim1_1,7,30,,,,2,0,2,0,,,,,,,,,0,0,0,0,0,6,6,6,2,0,2,0,,,,,,,,,,,,,,,,,,,,,,,,,,,,,,,,,,,,,,,,,,,,,,,,,,,,,,,,,,,,,,,,30,,,,,,,,1369.8468123999774,1369.8468123999774,1369.8468123999774,1369.8468123999774,1369.8468123999774,up,0.44330270000500605,5,0,0,99,-0.08,0.08,up,0.3572442999575287,,,,,,,,,,,,,,,,,,,,,,,,,,,,,,,,,,,,,,,,,,,,,,,,,,,,,,,,,,,,FYQNRK,train_y,blue_star,bottom_left,2025-06-10_17h40.41.483,HideSeek_v1,2022.2.5,59.98915396916282,
,1,3,1,6,0,3,64,,train_dim1_1,7,30,,,,2,0,2,0,,,,,,,,,0,0,0,0,0,6,6,6,3,0,3,0,,,,,,,,,,,,,,,,,,,,,,,,,,,,,,,,,,,,,,,,,,,,,,,,,,,,,,,,,,,,,,,,30,,,,,,,,1370.2976846999954,1370.2976846999954,1370.2976846999954,1370.2976846999954,1370.2976846999954,return,0.4266367999953218,6,0,0,1,-0.08,0.08,return,0.3528404000098817,16,0,-0.08,0.08,,,,,,,,,,,,,,,,,,,,,,,,,,,,,,,,,,,,,,,,,,,,,,,,,,,,,,,,FYQNRK,train_y,blue_star,bottom_left,2025-06-10_17h40.41.483,HideSeek_v1,2022.2.5,59.98915396916282,
,4,2,4,2,0,0,61,,train_dim1_1,8,30,,,,2,0,2,0,,,,,,,,,0,0,0,0,0,7,7,7,0,0,0,0,,,,,,,,,,,,,,,,,,,,,,,,,stimuli/alien_stimuli/61.png,,,,,,,,,,,,,,,,,,,,,,,,,,,,,stimuli/alien_stimuli/64.png,64,1,9,,,,,,,30,,,,,,,,1376.9252068999922,1376.9252068999922,1376.9252068999922,1376.9252068999922,1376.9252068999922,return,2.0732849999913014,7,0,0,1,0.16,-0.24,return,1.9995512000168674,16,0,0.16,-0.24,1375.3727679000003,1376.9252068999922,-0.08,0.08,0.24,0.0,-0.04,-0.08,-0.08,-0.08,0.08,1372.2763686999679,1372.2763686999679,1372.2763686999679,1372.2763686999679,1372.2763686999679,1372.2763686999679,1372.2763686999679,1372.2763686999679,1372.2700416199746,3.18835129996296,return,3.0667561999871396,,,,,,,,,,,,,,,,,,,,,,,,,,,,,,,,,FYQNRK,train_y,blue_star,bottom_left,2025-06-10_17h40.41.483,HideSeek_v1,2022.2.5,59.98915396916282,
,4,3,4,7,0,4,65,,train_dim1_1,9,30,,,,2,0,2,0,,,,,,,,,0,0,0,0,0,8,8,8,0,0,0,0,,,,,,,,,,,,,,,,,,,,,,,,,stimuli/alien_stimuli/65.png,,,,,,,,,,,,,,,,,,,,,,,,,,,,,stimuli/alien_stimuli/61.png,61,4,10,,,,,,,30,,,,,,,,1385.551474399981,1385.551474399981,1385.551474399981,1385.551474399981,1385.551474399981,up,1.3034202000126243,7,0,0,99,0.16,-0.08,up,1.230304399970919,,,,,1383.9965914000059,1385.551474399981,0.16,-0.24,0.0,0.0,-0.24,0.16,0.16,0.16,-0.24,1380.5480222000042,1380.5480222000042,1380.5480222000042,1380.5480222000042,1380.5480222000042,1380.5480222000042,1380.5480222000042,1380.5480222000042,1380.5436843200237,3.5384386999648996,return,3.4266440999927,,,,,,,,,,,,,,,,,,,,,,,,,,,,,,,,,FYQNRK,train_y,blue_star,bottom_left,2025-06-10_17h40.41.483,HideSeek_v1,2022.2.5,59.98915396916282,
,4,3,4,7,0,4,65,,train_dim1_1,9,30,,,,2,0,2,0,,,,,,,,,0,0,0,0,0,8,8,8,1,0,1,0,,,,,,,,,,,,,,,,,,,,,,,,,,,,,,,,,,,,,,,,,,,,,,,,,,,,,,,,,,,,,,,,30,,,,,,,,1386.8610289999633,1386.8610289999633,1386.8610289999633,1386.8610289999633,1386.8610289999633,up,0.5096129000303335,7,0,0,99,0.16,0.0,up,0.43760470004053786,,,,,,,,,,,,,,,,,,,,,,,,,,,,,,,,,,,,,,,,,,,,,,,,,,,,,,,,,,,,FYQNRK,train_y,blue_star,bottom_left,2025-06-10_17h40.41.483,HideSeek_v1,2022.2.5,59.98915396916282,
,4,3,4,7,0,4,65,,train_dim1_1,9,30,,,,2,0,2,0,,,,,,,,,0,0,0,0,0,8,8,8,2,0,2,0,,,,,,,,,,,,,,,,,,,,,,,,,,,,,,,,,,,,,,,,,,,,,,,,,,,,,,,,,,,,,,,,30,,,,,,,,1387.3789813999902,1387.3789813999902,1387.3789813999902,1387.3789813999902,1387.3789813999902,up,2.111419200024102,7,0,0,99,0.16,0.08,up,2.0334829000057653,,,,,,,,,,,,,,,,,,,,,,,,,,,,,,,,,,,,,,,,,,,,,,,,,,,,,,,,,,,,FYQNRK,train_y,blue_star,bottom_left,2025-06-10_17h40.41.483,HideSeek_v1,2022.2.5,59.98915396916282,
,4,3,4,7,0,4,65,,train_dim1_1,9,30,,,,2,0,2,0,,,,,,,,,0,0,0,0,0,8,8,8,3,0,3,0,,,,,,,,,,,,,,,,,,,,,,,,,,,,,,,,,,,,,,,,,,,,,,,,,,,,,,,,,,,,,,,,30,,,,,,,,1389.4964474999579,1389.4964474999579,1389.4964474999579,1389.4964474999579,1389.4964474999579,up,0.5769059999729507,7,0,0,99,0.16,0.16,up,0.4951753999921493,,,,,,,,,,,,,,,,,,,,,,,,,,,,,,,,,,,,,,,,,,,,,,,,,,,,,,,,,,,,FYQNRK,train_y,blue_star,bottom_left,2025-06-10_17h40.41.483,HideSeek_v1,2022.2.5,59.98915396916282,
,4,3,4,7,0,4,65,,train_dim1_1,9,30,,,,2,0,2,0,,,,,,,,,0,0,0,0,0,8,8,8,4,0,4,0,,,,,,,,,,,,,,,,,,,,,,,,,,,,,,,,,,,,,,,,,,,,,,,,,,,,,,,,,,,,,,,,30,,,,,,,,1390.0807403000072,1390.0807403000072,1390.0807403000072,1390.0807403000072,1390.0807403000072,up,2.0114121999940835,7,0,0,99,0.16,0.24,up,1.9335474999970756,,,,,,,,,,,,,,,,,,,,,,,,,,,,,,,,,,,,,,,,,,,,,,,,,,,,,,,,,,,,FYQNRK,train_y,blue_star,bottom_left,2025-06-10_17h40.41.483,HideSeek_v1,2022.2.5,59.98915396916282,
,4,3,4,7,0,4,65,,train_dim1_1,9,30,,,,2,0,2,0,,,,,,,,,0,0,0,0,0,8,8,8,5,0,5,0,,,,,,,,,,,,,,,,,,,,,,,,,,,,,,,,,,,,,,,,,,,,,,,,,,,,,,,,,,,,,,,,30,,,,,,,,1392.0996627999702,1392.0996627999702,1392.0996627999702,1392.0996627999702,1392.0996627999702,return,0.6264729000395164,7,1,0,0,0.16,0.24,return,0.5494124999968335,21,0,0.16,0.24,,,,,,,,,,,,,,,,,,,,,,,,,,,,,,,,,,,,,,,,,,,,,,,,,,,,,,,,FYQNRK,train_y,blue_star,bottom_left,2025-06-10_17h40.41.483,HideSeek_v1,2022.2.5,59.98915396916282,
,2,2,2,7,0,5,66,,train_dim1_1,10,30,,,,2,0,2,0,,,,,,,,,0,0,0,0,0,9,9,9,0,0,0,0,,,,,,,,,,,,,,,,,,,,,,,,,stimuli/alien_stimuli/66.png,,,,,,,,,,,,,,,,,,,,,,,,,,,,,stimuli/alien_stimuli/65.png,65,4,11,,,,,,,30,,,,,,,,1397.6782878999948,1397.6782878999948,1397.6782878999948,1397.6782878999948,1397.6782878999948,up,1.0695860999985598,7,1,0,99,0,-0.15999999999999998,up,0.9850875999545678,,,,,1396.1232308999752,1397.6782878999948,0.16,0.16,0.32,0.0,0.0,0.16,0.16,0.16,0.16,1394.2950315999915,1394.2950315999915,1394.2950315999915,1394.2950315999915,1394.2950315999915,1394.2950315999915,1394.2950315999915,1394.2950315999915,1394.2886401900205,1.9370364000205882,return,1.799946099985391,,,,,,,,,,,,,,,,,,,,,,,,,,,,,,,,,FYQNRK,train_y,blue_star,bottom_left,2025-06-10_17h40.41.483,HideSeek_v1,2022.2.5,59.98915396916282,
,2,2,2,7,0,5,66,,train_dim1_1,10,30,,,,2,0,2,0,,,,,,,,,0,0,0,0,0,9,9,9,1,0,1,0,,,,,,,,,,,,,,,,,,,,,,,,,,,,,,,,,,,,,,,,,,,,,,,,,,,,,,,,,,,,,,,,30,,,,,,,,1398.7552457999554,1398.7552457999554,1398.7552457999554,1398.7552457999554,1398.7552457999554,up,0.27605089999269694,7,1,0,99,0,-0.07999999999999997,up,0.19161620002705604,,,,,,,,,,,,,,,,,,,,,,,,,,,,,,,,,,,,,,,,,,,,,,,,,,,,,,,,,,,,FYQNRK,train_y,blue_star,bottom_left,2025-06-10_17h40.41.483,HideSeek_v1,2022.2.5,59.98915396916282,
,2,2,2,7,0,5,66,,train_dim1_1,10,30,,,,2,0,2,0,,,,,,,,,0,0,0,0,0,9,9,9,2,0,2,0,,,,,,,,,,,,,,,,,,,,,,,,,,,,,,,,,,,,,,,,,,,,,,,,,,,,,,,,,,,,,,,,30,,,,,,,,1399.0399878000026,1399.0399878000026,1399.0399878000026,1399.0399878000026,1399.0399878000026,up,1.8606524000060745,7,1,0,99,0,2.7755575615628914e-17,up,1.7719491999596357,,,,,,,,,,,,,,,,,,,,,,,,,,,,,,,,,,,,,,,,,,,,,,,,,,,,,,,,,,,,FYQNRK,train_y,blue_star,bottom_left,2025-06-10_17h40.41.483,HideSeek_v1,2022.2.5,59.98915396916282,
,2,2,2,7,0,5,66,,train_dim1_1,10,30,,,,2,0,2,0,,,,,,,,,0,0,0,0,0,9,9,9,3,0,3,0,,,,,,,,,,,,,,,,,,,,,,,,,,,,,,,,,,,,,,,,,,,,,,,,,,,,,,,,,,,,,,,,30,,,,,,,,1400.9062845999724,1400.9062845999724,1400.9062845999724,1400.9062845999724,1400.9062845999724,up,0.37645530002191663,7,1,0,99,0,0.08000000000000003,up,0.30324999999720603,,,,,,,,,,,,,,,,,,,,,,,,,,,,,,,,,,,,,,,,,,,,,,,,,,,,,,,,,,,,FYQNRK,train_y,blue_star,bottom_left,2025-06-10_17h40.41.483,HideSeek_v1,2022.2.5,59.98915396916282,
,2,2,2,7,0,5,66,,train_dim1_1,10,30,,,,2,0,2,0,,,,,,,,,0,0,0,0,0,9,9,9,4,0,4,0,,,,,,,,,,,,,,,,,,,,,,,,,,,,,,,,,,,,,,,,,,,,,,,,,,,,,,,,,,,,,,,,30,,,,,,,,1401.2940230999957,1401.2940230999957,1401.2940230999957,1401.2940230999957,1401.2940230999957,up,0.5933350999839604,7,1,0,99,0,0.16000000000000003,up,0.5089303000131622,,,,,,,,,,,,,,,,,,,,,,,,,,,,,,,,,,,,,,,,,,,,,,,,,,,,,,,,,,,,FYQNRK,train_y,blue_star,bottom_left,2025-06-10_17h40.41.483,HideSeek_v1,2022.2.5,59.98915396916282,
,2,2,2,7,0,5,66,,train_dim1_1,10,30,,,,2,0,2,0,,,,,,,,,0,0,0,0,0,9,9,9,5,0,5,0,,,,,,,,,,,,,,,,,,,,,,,,,,,,,,,,,,,,,,,,,,,,,,,,,,,,,,,,,,,,,,,,30,,,,,,,,1401.8906665999675,1401.8906665999675,1401.8906665999675,1401.8906665999675,1401.8906665999675,return,0.41000770003302023,8,0,0,1,0,0.16000000000000003,return,0.3223893000395037,26,0,0,0.16000000000000003,,,,,,,,,,,,,,,,,,,,,,,,,,,,,,,,,,,,,,,,,,,,,,,,,,,,,,,,FYQNRK,train_y,blue_star,bottom_left,2025-06-10_17h40.41.483,HideSeek_v1,2022.2.5,59.98915396916282,
,4,1,4,5,0,4,65,,train_dim1_1,11,30,,,,2,0,2,0,,,,,,,,,0,0,0,0,0,10,10,10,0,0,0,0,,,,,,,,,,,,,,,,,,,,,,,,,stimuli/alien_stimuli/65.png,,,,,,,,,,,,,,,,,,,,,,,,,,,,,stimuli/alien_stimuli/66.png,66,2,12,,,,,,,30,,,,,,,,1407.168200599961,1407.168200599961,1407.168200599961,1407.168200599961,1407.168200599961,up,0.9551379000185989,8,0,0,99,0.16,-0.24,up,0.8703438999946229,,,,,1405.6145478999824,1407.168200599961,0,0.16,0.4,0.0,-0.039999999999999994,0,0.0,0,0.16,1403.851739799953,1403.851739799953,1403.851739799953,1403.851739799953,1403.851739799953,1403.851739799953,1403.851739799953,1403.851739799953,1403.8464769199722,1.8535995000274852,return,1.731184399977792,,,,,,,,,,,,,,,,,,,,,,,,,,,,,,,,,FYQNRK,train_y,blue_star,bottom_left,2025-06-10_17h40.41.483,HideSeek_v1,2022.2.5,59.98915396916282,
,4,1,4,5,0,4,65,,train_dim1_1,11,30,,,,2,0,2,0,,,,,,,,,0,0,0,0,0,10,10,10,1,0,1,0,,,,,,,,,,,,,,,,,,,,,,,,,,,,,,,,,,,,,,,,,,,,,,,,,,,,,,,,,,,,,,,,30,,,,,,,,1408.1292258999893,1408.1292258999893,1408.1292258999893,1408.1292258999893,1408.1292258999893,up,0.7096750000491738,8,0,0,99,0.16,-0.15999999999999998,up,0.6361366999917664,,,,,,,,,,,,,,,,,,,,,,,,,,,,,,,,,,,,,,,,,,,,,,,,,,,,,,,,,,,,FYQNRK,train_y,blue_star,bottom_left,2025-06-10_17h40.41.483,HideSeek_v1,2022.2.5,59.98915396916282,
,4,1,4,5,0,4,65,,train_dim1_1,11,30,,,,2,0,2,0,,,,,,,,,0,0,0,0,0,10,10,10,2,0,2,0,,,,,,,,,,,,,,,,,,,,,,,,,,,,,,,,,,,,,,,,,,,,,,,,,,,,,,,,,,,,,,,,30,,,,,,,,1408.8476487000007,1408.8476487000007,1408.8476487000007,1408.8476487000007,1408.8476487000007,up,0.47674820001702756,8,0,0,99,0.16,-0.07999999999999997,up,0.3897859999560751,,,,,,,,,,,,,,,,,,,,,,,,,,,,,,,,,,,,,,,,,,,,,,,,,,,,,,,,,,,,FYQNRK,train_y,blue_star,bottom_left,2025-06-10_17h40.41.483,HideSeek_v1,2022.2.5,59.98915396916282,
,4,1,4,5,0,4,65,,train_dim1_1,11,30,,,,2,0,2,0,,,,,,,,,0,0,0,0,0,10,10,10,3,0,3,0,,,,,,,,,,,,,,,,,,,,,,,,,,,,,,,,,,,,,,,,,,,,,,,,,,,,,,,,,,,,,,,,30,,,,,,,,1409.3294975999743,1409.3294975999743,1409.3294975999743,1409.3294975999743,1409.3294975999743,up,0.4600714999833144,8,0,0,99,0.16,2.7755575615628914e-17,up,0.3756054000114091,,,,,,,,,,,,,,,,,,,,,,,,,,,,,,,,,,,,,,,,,,,,,,,,,,,,,,,,,,,,FYQNRK,train_y,blue_star,bottom_left,2025-06-10_17h40.41.483,HideSeek_v1,2022.2.5,59.98915396916282,
,4,1,4,5,0,4,65,,train_dim1_1,11,30,,,,2,0,2,0,,,,,,,,,0,0,0,0,0,10,10,10,4,0,4,0,,,,,,,,,,,,,,,,,,,,,,,,,,,,,,,,,,,,,,,,,,,,,,,,,,,,,,,,,,,,,,,,30,,,,,,,,1409.800288199971,1409.800288199971,1409.800288199971,1409.800288199971,1409.800288199971,return,0.593500699964352,9,0,0,1,0.16,2.7755575615628914e-17,return,0.5080090999836102,30,0,0.16,2.7755575615628914e-17,,,,,,,,,,,,,,,,,,,,,,,,,,,,,,,,,,,,,,,,,,,,,,,,,,,,,,,,FYQNRK,train_y,blue_star,bottom_left,2025-06-10_17h40.41.483,HideSeek_v1,2022.2.5,59.98915396916282,
,0,0,0,0,0,0,61,,train_dim1_1,12,30,,,,2,0,2,0,,,,,,,,,0,0,0,0,0,11,11,11,0,0,0,0,,,,,,,,,,,,,,,,,,,,,,,,,stimuli/alien_stimuli/61.png,,,,,,,,,,,,,,,,,,,,,,,,,,,,,stimuli/alien_stimuli/65.png,65,4,13,,,,,,,30,,,,,,,,1414.67417069996,1414.67417069996,1414.67417069996,1414.67417069996,1414.67417069996,return,1.6549009999725968,10,0,0,1,-0.16,-0.4,return,1.5809390000067651,30,0,-0.16,-0.4,1413.1208961000084,1414.67417069996,0.16,0,0.32,0.0,-0.16,0.16,0.16,0.16,0,1411.9418089999817,1411.9418089999817,1411.9418089999817,1411.9418089999817,1411.9418089999817,1411.9418089999817,1411.9418089999817,1411.9418089999817,1411.936405919981,1.2700199999962933,return,1.147333599976264,,,,,,,,,,,,,,,,,,,,,,,,,,,,,,,,,FYQNRK,train_y,blue_star,bottom_left,2025-06-10_17h40.41.483,HideSeek_v1,2022.2.5,59.98915396916282,
,4,3,4,4,0,1,62,,train_dim1_1,13,30,,,,2,0,2,0,,,,,,,,,0,0,0,0,0,12,12,12,0,0,0,0,,,,,,,,,,,,,,,,,,,,,,,,,stimuli/alien_stimuli/62.png,,,,,,,,,,,,,,,,,,,,,,,,,,,,,stimuli/alien_stimuli/61.png,61,0,14,,,,,,,30,,,,,,,,1421.5131327999989,1421.5131327999989,1421.5131327999989,1421.5131327999989,1421.5131327999989,up,4.1403627000399865,10,0,0,99,0.16,-0.08,up,4.060685100033879,,,,,1419.9596853999537,1421.5131327999989,-0.16,-0.4,0.0,0.0,-0.4,-0.16,-0.16,-0.16,-0.4,1417.8807924999855,1417.8807924999855,1417.8807924999855,1417.8807924999855,1417.8807924999855,1417.8807924999855,1417.8807924999855,1417.8807924999855,1417.874749420001,2.1704891999834217,return,2.0485445000231266,,,,,,,,,,,,,,,,,,,,,,,,,,,,,,,,,FYQNRK,train_y,blue_star,bottom_left,2025-06-10_17h40.41.483,HideSeek_v1,2022.2.5,59.98915396916282,
,4,3,4,4,0,1,62,,train_dim1_1,13,30,,,,2,0,2,0,,,,,,,,,0,0,0,0,0,12,12,12,1,0,1,0,,,,,,,,,,,,,,,,,,,,,,,,,,,,,,,,,,,,,,,,,,,,,,,,,,,,,,,,,,,,,,,,30,,,,,,,,1425.661272199999,1425.661272199999,1425.661272199999,1425.661272199999,1425.661272199999,return,0.42625640000915155,11,0,0,1,0.16,-0.08,return,0.3473699999740347,31,0,0.16,-0.08,,,,,,,,,,,,,,,,,,,,,,,,,,,,,,,,,,,,,,,,,,,,,,,,,,,,,,,,FYQNRK,train_y,blue_star,bottom_left,2025-06-10_17h40.41.483,HideSeek_v1,2022.2.5,59.98915396916282,
,2,2,2,7,0,5,66,,train_dim1_1,14,30,,,,2,0,2,0,,,,,,,,,0,0,0,0,0,13,13,13,0,0,0,0,,,,,,,,,,,,,,,,,,,,,,,,,stimuli/alien_stimuli/66.png,,,,,,,,,,,,,,,,,,,,,,,,,,,,,stimuli/alien_stimuli/62.png,62,4,15,,,,,,,30,,,,,,,,1430.705150099995,1430.705150099995,1430.705150099995,1430.705150099995,1430.705150099995,up,0.7363756999839097,11,0,0,99,0,-0.15999999999999998,up,0.6590699999942444,,,,,1429.150627599971,1430.705150099995,0.16,-0.08,0.08,0.0,-0.12,0.16,0.16,0.16,-0.08,1427.6392685999745,1427.6392685999745,1427.6392685999745,1427.6392685999745,1427.6392685999745,1427.6392685999745,1427.6392685999745,1427.6392685999745,1427.632971019973,1.6033414999837987,return,1.486718899977859,,,,,,,,,,,,,,,,,,,,,,,,,,,,,,,,,FYQNRK,train_y,blue_star,bottom_left,2025-06-10_17h40.41.483,HideSeek_v1,2022.2.5,59.98915396916282,
,2,2,2,7,0,5,66,,train_dim1_1,14,30,,,,2,0,2,0,,,,,,,,,0,0,0,0,0,13,13,13,1,0,1,0,,,,,,,,,,,,,,,,,,,,,,,,,,,,,,,,,,,,,,,,,,,,,,,,,,,,,,,,,,,,,,,,30,,,,,,,,1431.4487394999596,1431.4487394999596,1431.4487394999596,1431.4487394999596,1431.4487394999596,up,0.5761290999944322,11,0,0,99,0,-0.07999999999999997,up,0.5039214999997057,,,,,,,,,,,,,,,,,,,,,,,,,,,,,,,,,,,,,,,,,,,,,,,,,,,,,,,,,,,,FYQNRK,train_y,blue_star,bottom_left,2025-06-10_17h40.41.483,HideSeek_v1,2022.2.5,59.98915396916282,
,2,2,2,7,0,5,66,,train_dim1_1,14,30,,,,2,0,2,0,,,,,,,,,0,0,0,0,0,13,13,13,2,0,2,0,,,,,,,,,,,,,,,,,,,,,,,,,,,,,,,,,,,,,,,,,,,,,,,,,,,,,,,,,,,,,,,,30,,,,,,,,1432.032585799985,1432.032585799985,1432.032585799985,1432.032585799985,1432.032585799985,up,0.4768169999588281,11,0,0,99,0,2.7755575615628914e-17,up,0.3924253999721259,,,,,,,,,,,,,,,,,,,,,,,,,,,,,,,,,,,,,,,,,,,,,,,,,,,,,,,,,,,,FYQNRK,train_y,blue_star,bottom_left,2025-06-10_17h40.41.483,HideSeek_v1,2022.2.5,59.98915396916282,
,2,2,2,7,0,5,66,,train_dim1_1,14,30,,,,2,0,2,0,,,,,,,,,0,0,0,0,0,13,13,13,3,0,3,0,,,,,,,,,,,,,,,,,,,,,,,,,,,,,,,,,,,,,,,,,,,,,,,,,,,,,,,,,,,,,,,,30,,,,,,,,1432.5157187999575,1432.5157187999575,1432.5157187999575,1432.5157187999575,1432.5157187999575,up,0.4935074999812059,11,0,0,99,0,0.08000000000000003,up,0.41660850000334904,,,,,,,,,,,,,,,,,,,,,,,,,,,,,,,,,,,,,,,,,,,,,,,,,,,,,,,,,,,,FYQNRK,train_y,blue_star,bottom_left,2025-06-10_17h40.41.483,HideSeek_v1,2022.2.5,59.98915396916282,
,2,2,2,7,0,5,66,,train_dim1_1,14,30,,,,2,0,2,0,,,,,,,,,0,0,0,0,0,13,13,13,4,0,4,0,,,,,,,,,,,,,,,,,,,,,,,,,,,,,,,,,,,,,,,,,,,,,,,,,,,,,,,,,,,,,,,,30,,,,,,,,1433.017003899964,1433.017003899964,1433.017003899964,1433.017003899964,1433.017003899964,up,0.6100162999937311,11,0,0,99,0,0.16000000000000003,up,0.5278001999831758,,,,,,,,,,,,,,,,,,,,,,,,,,,,,,,,,,,,,,,,,,,,,,,,,,,,,,,,,,,,FYQNRK,train_y,blue_star,bottom_left,2025-06-10_17h40.41.483,HideSeek_v1,2022.2.5,59.98915396916282,
,2,2,2,7,0,5,66,,train_dim1_1,14,30,,,,2,0,2,0,,,,,,,,,0,0,0,0,0,13,13,13,5,0,5,0,,,,,,,,,,,,,,,,,,,,,,,,,,,,,,,,,,,,,,,,,,,,,,,,,,,,,,,,,,,,,,,,30,,,,,,,,1433.6340310999658,1433.6340310999658,1433.6340310999658,1433.6340310999658,1433.6340310999658,return,2.2114006000338122,12,0,0,1,0,0.16000000000000003,return,2.129486199992243,36,0,0,0.16000000000000003,,,,,,,,,,,,,,,,,,,,,,,,,,,,,,,,,,,,,,,,,,,,,,,,,,,,,,,,FYQNRK,train_y,blue_star,bottom_left,2025-06-10_17h40.41.483,HideSeek_v1,2022.2.5,59.98915396916282,
,1,4,1,7,0,3,64,,train_dim1_1,15,30,,,,2,0,2,0,,,,,,,,,0,0,0,0,0,14,14,14,0,0,0,0,,,,,,,,,,,,,,,,,,,,,,,,,stimuli/alien_stimuli/64.png,,,,,,,,,,,,,,,,,,,,,,,,,,,,,stimuli/alien_stimuli/66.png,66,2,16,,,,,,,30,,,,,,,,1439.4270452999626,1439.4270452999626,1439.4270452999626,1439.4270452999626,1439.4270452999626,up,1.3715876000351273,12,0,0,99,-0.08,0.0,up,1.2878188000177033,,,,,1437.874646399985,1439.4270452999626,0,0.16,0.4,0.0,-0.039999999999999994,0,0.0,0,0.16,1437.394930099952,1437.394930099952,1437.394930099952,1437.394930099952,1437.394930099952,1437.394930099952,1437.394930099952,1437.394930099952,1437.3909103200072,0.5697243000031449,return,0.45999569998821244,,,,,,,,,,,,,,,,,,,,,,,,,,,,,,,,,FYQNRK,train_y,blue_star,bottom_left,2025-06-10_17h40.41.483,HideSeek_v1,2022.2.5,59.98915396916282,
,1,4,1,7,0,3,64,,train_dim1_1,15,30,,,,2,0,2,0,,,,,,,,,0,0,0,0,0,14,14,14,1,0,1,0,,,,,,,,,,,,,,,,,,,,,,,,,,,,,,,,,,,,,,,,,,,,,,,,,,,,,,,,,,,,,,,,30,,,,,,,,1440.8062424999662,1440.8062424999662,1440.8062424999662,1440.8062424999662,1440.8062424999662,up,0.3761351999710314,12,0,0,99,-0.08,0.08,up,0.2984881000011228,,,,,,,,,,,,,,,,,,,,,,,,,,,,,,,,,,,,,,,,,,,,,,,,,,,,,,,,,,,,FYQNRK,train_y,blue_star,bottom_left,2025-06-10_17h40.41.483,HideSeek_v1,2022.2.5,59.98915396916282,
,1,4,1,7,0,3,64,,train_dim1_1,15,30,,,,2,0,2,0,,,,,,,,,0,0,0,0,0,14,14,14,2,0,2,0,,,,,,,,,,,,,,,,,,,,,,,,,,,,,,,,,,,,,,,,,,,,,,,,,,,,,,,,,,,,,,,,30,,,,,,,,1441.190408799972,1441.190408799972,1441.190408799972,1441.190408799972,1441.190408799972,up,0.36016869999002665,12,0,0,99,-0.08,0.16,up,0.27502599998842925,,,,,,,,,,,,,,,,,,,,,,,,,,,,,,,,,,,,,,,,,,,,,,,,,,,,,,,,,,,,FYQNRK,train_y,blue_star,bottom_left,2025-06-10_17h40.41.483,HideSeek_v1,2022.2.5,59.98915396916282,
,1,4,1,7,0,3,64,,train_dim1_1,15,30,,,,2,0,2,0,,,,,,,,,0,0,0,0,0,14,14,14,3,0,3,0,,,,,,,,,,,,,,,,,,,,,,,,,,,,,,,,,,,,,,,,,,,,,,,,,,,,,,,,,,,,,,,,30,,,,,,,,1441.5564163999516,1441.5564163999516,1441.5564163999516,1441.5564163999516,1441.5564163999516,return,0.4932777999783866,13,0,0,1,-0.08,0.16,return,0.4127312999917194,39,0,-0.08,0.16,,,,,,,,,,,,,,,,,,,,,,,,,,,,,,,,,,,,,,,,,,,,,,,,,,,,,,,,FYQNRK,train_y,blue_star,bottom_left,2025-06-10_17h40.41.483,HideSeek_v1,2022.2.5,59.98915396916282,
,4,0,4,4,0,4,65,,train_dim1_1,16,30,,,,2,0,2,0,,,,,,,,,0,0,0,0,0,15,15,15,0,0,0,0,,,,,,,,,,,,,,,,,,,,,,,,,stimuli/alien_stimuli/65.png,,,,,,,,,,,,,,,,,,,,,,,,,,,,,stimuli/alien_stimuli/64.png,64,1,17,,,,,,,30,,,,,,,,1446.0486383999814,1446.0486383999814,1446.0486383999814,1446.0486383999814,1446.0486383999814,up,0.8057469999766909,13,0,0,99,0.16,-0.32,up,0.7249696999788284,,,,,1444.4969281000085,1446.0486383999814,-0.08,0.16,0.24,0.0,0.04,-0.08,-0.08,-0.08,0.16,1443.5999975999584,1443.5999975999584,1443.5999975999584,1443.5999975999584,1443.5999975999584,1443.5999975999584,1443.5999975999584,1443.5999975999584,1443.5960636199684,0.9861919999821112,return,0.8724760999903083,,,,,,,,,,,,,,,,,,,,,,,,,,,,,,,,,FYQNRK,train_y,blue_star,bottom_left,2025-06-10_17h40.41.483,HideSeek_v1,2022.2.5,59.98915396916282,
,4,0,4,4,0,4,65,,train_dim1_1,16,30,,,,2,0,2,0,,,,,,,,,0,0,0,0,0,15,15,15,1,0,1,0,,,,,,,,,,,,,,,,,,,,,,,,,,,,,,,,,,,,,,,,,,,,,,,,,,,,,,,,,,,,,,,,30,,,,,,,,1446.861222699983,1446.861222699983,1446.861222699983,1446.861222699983,1446.861222699983,up,0.9101970000192523,13,0,0,99,0.16,-0.24,up,0.835065699997358,,,,,,,,,,,,,,,,,,,,,,,,,,,,,,,,,,,,,,,,,,,,,,,,,,,,,,,,,,,,FYQNRK,train_y,blue_star,bottom_left,2025-06-10_17h40.41.483,HideSeek_v1,2022.2.5,59.98915396916282,
,4,0,4,4,0,4,65,,train_dim1_1,16,30,,,,2,0,2,0,,,,,,,,,0,0,0,0,0,15,15,15,2,0,2,0,,,,,,,,,,,,,,,,,,,,,,,,,,,,,,,,,,,,,,,,,,,,,,,,,,,,,,,,,,,,,,,,30,,,,,,,,1447.778722899966,1447.778722899966,1447.778722899966,1447.778722899966,1447.778722899966,up,0.5433213000069372,13,0,0,99,0.16,-0.15999999999999998,up,0.47071150003466755,,,,,,,,,,,,,,,,,,,,,,,,,,,,,,,,,,,,,,,,,,,,,,,,,,,,,,,,,,,,FYQNRK,train_y,blue_star,bottom_left,2025-06-10_17h40.41.483,HideSeek_v1,2022.2.5,59.98915396916282,
,4,0,4,4,0,4,65,,train_dim1_1,16,30,,,,2,0,2,0,,,,,,,,,0,0,0,0,0,15,15,15,3,0,3,0,,,,,,,,,,,,,,,,,,,,,,,,,,,,,,,,,,,,,,,,,,,,,,,,,,,,,,,,,,,,,,,,30,,,,,,,,1448.331954399997,1448.331954399997,1448.331954399997,1448.331954399997,1448.331954399997,up,0.4435327999526635,13,0,0,99,0.16,-0.07999999999999997,up,0.36826550000114366,,,,,,,,,,,,,,,,,,,,,,,,,,,,,,,,,,,,,,,,,,,,,,,,,,,,,,,,,,,,FYQNRK,train_y,blue_star,bottom_left,2025-06-10_17h40.41.483,HideSeek_v1,2022.2.5,59.98915396916282,
,4,0,4,4,0,4,65,,train_dim1_1,16,30,,,,2,0,2,0,,,,,,,,,0,0,0,0,0,15,15,15,4,0,4,0,,,,,,,,,,,,,,,,,,,,,,,,,,,,,,,,,,,,,,,,,,,,,,,,,,,,,,,,,,,,,,,,30,,,,,,,,1448.779166399967,1448.779166399967,1448.779166399967,1448.779166399967,1448.779166399967,return,0.45997050002915785,14,0,0,1,0.16,-0.07999999999999997,return,0.38302199996542186,43,0,0.16,-0.07999999999999997,,,,,,,,,,,,,,,,,,,,,,,,,,,,,,,,,,,,,,,,,,,,,,,,,,,,,,,,FYQNRK,train_y,blue_star,bottom_left,2025-06-10_17h40.41.483,HideSeek_v1,2022.2.5,59.98915396916282,
,3,3,3,6,0,3,64,,train_dim1_1,17,30,,,,2,0,2,0,,,,,,,,,0,0,0,0,0,16,16,16,0,0,0,0,,,,,,,,,,,,,,,,,,,,,,,,,stimuli/alien_stimuli/64.png,,,,,,,,,,,,,,,,,,,,,,,,,,,,,stimuli/alien_stimuli/65.png,65,4,18,,,,,,,30,,,,,,,,1452.705395099998,1452.705395099998,1452.705395099998,1452.705395099998,1452.705395099998,up,0.954787899972871,14,0,0,99,0.08,-0.08,up,0.8750517999869771,,,,,1451.1524074999616,1452.705395099998,0.16,-0.08,0.32,0.0,-0.24000000000000002,0.16,0.16,0.16,-0.08,1450.7913475999958,1450.7913475999958,1450.7913475999958,1450.7913475999958,1450.7913475999958,1450.7913475999958,1450.7913475999958,1450.7913475999958,1450.785364720004,0.45234260003780946,return,0.34393430000636727,,,,,,,,,,,,,,,,,,,,,,,,,,,,,,,,,FYQNRK,train_y,blue_star,bottom_left,2025-06-10_17h40.41.483,HideSeek_v1,2022.2.5,59.98915396916282,
,3,3,3,6,0,3,64,,train_dim1_1,17,30,,,,2,0,2,0,,,,,,,,,0,0,0,0,0,16,16,16,1,0,1,0,,,,,,,,,,,,,,,,,,,,,,,,,,,,,,,,,,,,,,,,,,,,,,,,,,,,,,,,,,,,,,,,30,,,,,,,,1453.6666217999882,1453.6666217999882,1453.6666217999882,1453.6666217999882,1453.6666217999882,up,0.6597736999974586,14,0,0,99,0.08,0.0,up,0.5816950000007637,,,,,,,,,,,,,,,,,,,,,,,,,,,,,,,,,,,,,,,,,,,,,,,,,,,,,,,,,,,,FYQNRK,train_y,blue_star,bottom_left,2025-06-10_17h40.41.483,HideSeek_v1,2022.2.5,59.98915396916282,
,3,3,3,6,0,3,64,,train_dim1_1,17,30,,,,2,0,2,0,,,,,,,,,0,0,0,0,0,16,16,16,2,0,2,0,,,,,,,,,,,,,,,,,,,,,,,,,,,,,,,,,,,,,,,,,,,,,,,,,,,,,,,,,,,,,,,,30,,,,,,,,1454.3349566999823,1454.3349566999823,1454.3349566999823,1454.3349566999823,1454.3349566999823,up,0.35991400002967566,14,0,0,99,0.08,0.08,up,0.27998870000010356,,,,,,,,,,,,,,,,,,,,,,,,,,,,,,,,,,,,,,,,,,,,,,,,,,,,,,,,,,,,FYQNRK,train_y,blue_star,bottom_left,2025-06-10_17h40.41.483,HideSeek_v1,2022.2.5,59.98915396916282,
,3,3,3,6,0,3,64,,train_dim1_1,17,30,,,,2,0,2,0,,,,,,,,,0,0,0,0,0,16,16,16,3,0,3,0,,,,,,,,,,,,,,,,,,,,,,,,,,,,,,,,,,,,,,,,,,,,,,,,,,,,,,,,,,,,,,,,30,,,,,,,,1454.700593799993,1454.700593799993,1454.700593799993,1454.700593799993,1454.700593799993,return,0.4433604000369087,15,0,0,1,0.08,0.08,return,0.36726299999281764,46,0,0.08,0.08,,,,,,,,,,,,,,,,,,,,,,,,,,,,,,,,,,,,,,,,,,,,,,,,,,,,,,,,FYQNRK,train_y,blue_star,bottom_left,2025-06-10_17h40.41.483,HideSeek_v1,2022.2.5,59.98915396916282,
,2,1,2,1,0,0,61,,train_dim1_1,18,30,,,,2,0,2,0,,,,,,,,,0,0,0,0,0,17,17,17,0,0,0,0,,,,,,,,,,,,,,,,,,,,,,,,,stimuli/alien_stimuli/61.png,,,,,,,,,,,,,,,,,,,,,,,,,,,,,stimuli/alien_stimuli/64.png,64,3,19,,,,,,,30,,,,,,,,1458.8135885999654,1458.8135885999654,1458.8135885999654,1458.8135885999654,1458.8135885999654,return,1.3518476999597624,16,0,0,1,0,-0.32,return,1.2746915000025183,46,0,0,-0.32,1457.2576709999703,1458.8135885999654,0.08,0.08,0.24,0.0,-0.04,0.08,0.08,0.08,0.08,1456.696234299976,1456.696234299976,1456.696234299976,1456.696234299976,1456.696234299976,1456.696234299976,1456.696234299976,1456.696234299976,1456.6903205199865,0.6527612000354566,return,0.5387133000185713,,,,,,,,,,,,,,,,,,,,,,,,,,,,,,,,,FYQNRK,train_y,blue_star,bottom_left,2025-06-10_17h40.41.483,HideSeek_v1,2022.2.5,59.98915396916282,
,0,4,0,5,0,1,62,,train_dim1_1,19,30,,,,2,0,2,0,,,,,,,,,0,0,0,0,0,18,18,18,0,0,0,0,,,,,,,,,,,,,,,,,,,,,,,,,stimuli/alien_stimuli/62.png,,,,,,,,,,,,,,,,,,,,,,,,,,,,,stimuli/alien_stimuli/61.png,61,2,20,,,,,,,30,,,,,,,,1464.8490521999775,1464.8490521999775,1464.8490521999775,1464.8490521999775,1464.8490521999775,up,1.5050519999931566,16,0,0,99,-0.16,0.0,up,1.4198446999653243,,,,,1463.295745099953,1464.8490521999775,0,-0.32,0.0,0.0,-0.32,0,0.0,0,-0.32,1461.717851399968,1461.717851399968,1461.717851399968,1461.717851399968,1461.717851399968,1461.717851399968,1461.717851399968,1461.717851399968,1461.7112222200026,1.669917199993506,return,1.5567873999825679,,,,,,,,,,,,,,,,,,,,,,,,,,,,,,,,,FYQNRK,train_y,blue_star,bottom_left,2025-06-10_17h40.41.483,HideSeek_v1,2022.2.5,59.98915396916282,
,0,4,0,5,0,1,62,,train_dim1_1,19,30,,,,2,0,2,0,,,,,,,,,0,0,0,0,0,18,18,18,1,0,1,0,,,,,,,,,,,,,,,,,,,,,,,,,,,,,,,,,,,,,,,,,,,,,,,,,,,,,,,,,,,,,,,,30,,,,,,,,1466.3608542999718,1466.3608542999718,1466.3608542999718,1466.3608542999718,1466.3608542999718,return,0.5764767000218853,17,0,0,1,-0.16,0.0,return,0.5055102999904193,47,0,-0.16,0.0,,,,,,,,,,,,,,,,,,,,,,,,,,,,,,,,,,,,,,,,,,,,,,,,,,,,,,,,FYQNRK,train_y,blue_star,bottom_left,2025-06-10_17h40.41.483,HideSeek_v1,2022.2.5,59.98915396916282,
,2,0,2,5,0,5,66,,train_dim1_1,20,30,,,,2,0,2,0,,,,,,,,,0,0,0,0,0,19,19,19,0,0,0,0,,,,,,,,,,,,,,,,,,,,,,,,,stimuli/alien_stimuli/66.png,,,,,,,,,,,,,,,,,,,,,,,,,,,,,stimuli/alien_stimuli/62.png,62,0,21,,,,,,,30,,,,,,,,1470.8385501999874,1470.8385501999874,1470.8385501999874,1470.8385501999874,1470.8385501999874,up,0.9365324999671429,17,0,0,99,0,-0.32,up,0.8596720999921672,,,,,1469.2839272999554,1470.8385501999874,-0.16,0,0.08,0.0,-0.04,-0.16,-0.16,-0.16,0,1468.4894514000043,1468.4894514000043,1468.4894514000043,1468.4894514000043,1468.4894514000043,1468.4894514000043,1468.4894514000043,1468.4894514000043,1468.4831386200035,0.8867679999675602,return,0.7781080999993719,,,,,,,,,,,,,,,,,,,,,,,,,,,,,,,,,FYQNRK,train_y,blue_star,bottom_left,2025-06-10_17h40.41.483,HideSeek_v1,2022.2.5,59.98915396916282,
,2,0,2,5,0,5,66,,train_dim1_1,20,30,,,,2,0,2,0,,,,,,,,,0,0,0,0,0,19,19,19,1,0,1,0,,,,,,,,,,,,,,,,,,,,,,,,,,,,,,,,,,,,,,,,,,,,,,,,,,,,,,,,,,,,,,,,30,,,,,,,,1471.7819514999865,1471.7819514999865,1471.7819514999865,1471.7819514999865,1471.7819514999865,up,0.6932235999847762,17,0,0,99,0,-0.24,up,0.6079180999659002,,,,,,,,,,,,,,,,,,,,,,,,,,,,,,,,,,,,,,,,,,,,,,,,,,,,,,,,,,,,FYQNRK,train_y,blue_star,bottom_left,2025-06-10_17h40.41.483,HideSeek_v1,2022.2.5,59.98915396916282,
,2,0,2,5,0,5,66,,train_dim1_1,20,30,,,,2,0,2,0,,,,,,,,,0,0,0,0,0,19,19,19,2,0,2,0,,,,,,,,,,,,,,,,,,,,,,,,,,,,,,,,,,,,,,,,,,,,,,,,,,,,,,,,,,,,,,,,30,,,,,,,,1472.4824268000084,1472.4824268000084,1472.4824268000084,1472.4824268000084,1472.4824268000084,up,0.6600655000074767,17,0,0,99,0,-0.15999999999999998,up,0.5764653999940492,,,,,,,,,,,,,,,,,,,,,,,,,,,,,,,,,,,,,,,,,,,,,,,,,,,,,,,,,,,,FYQNRK,train_y,blue_star,bottom_left,2025-06-10_17h40.41.483,HideSeek_v1,2022.2.5,59.98915396916282,
,2,0,2,5,0,5,66,,train_dim1_1,20,30,,,,2,0,2,0,,,,,,,,,0,0,0,0,0,19,19,19,3,0,3,0,,,,,,,,,,,,,,,,,,,,,,,,,,,,,,,,,,,,,,,,,,,,,,,,,,,,,,,,,,,,,,,,30,,,,,,,,1473.1496828999952,1473.1496828999952,1473.1496828999952,1473.1496828999952,1473.1496828999952,up,0.6935426999698393,17,0,0,99,0,-0.07999999999999997,up,0.6139025000156835,,,,,,,,,,,,,,,,,,,,,,,,,,,,,,,,,,,,,,,,,,,,,,,,,,,,,,,,,,,,FYQNRK,train_y,blue_star,bottom_left,2025-06-10_17h40.41.483,HideSeek_v1,2022.2.5,59.98915396916282,
,2,0,2,5,0,5,66,,train_dim1_1,20,30,,,,2,0,2,0,,,,,,,,,0,0,0,0,0,19,19,19,4,0,4,0,,,,,,,,,,,,,,,,,,,,,,,,,,,,,,,,,,,,,,,,,,,,,,,,,,,,,,,,,,,,,,,,30,,,,,,,,1473.8506975999917,1473.8506975999917,1473.8506975999917,1473.8506975999917,1473.8506975999917,up,0.5768063999712467,17,0,0,99,0,2.7755575615628914e-17,up,0.505269999965094,,,,,,,,,,,,,,,,,,,,,,,,,,,,,,,,,,,,,,,,,,,,,,,,,,,,,,,,,,,,FYQNRK,train_y,blue_star,bottom_left,2025-06-10_17h40.41.483,HideSeek_v1,2022.2.5,59.98915396916282,
,2,0,2,5,0,5,66,,train_dim1_1,20,30,,,,2,0,2,0,,,,,,,,,0,0,0,0,0,19,19,19,5,0,5,0,,,,,,,,,,,,,,,,,,,,,,,,,,,,,,,,,,,,,,,,,,,,,,,,,,,,,,,,,,,,,,,,30,,,,,,,,1474.4351467000088,1474.4351467000088,1474.4351467000088,1474.4351467000088,1474.4351467000088,return,0.626821200014092,18,0,0,1,0,2.7755575615628914e-17,return,0.5391261000186205,52,0,0,2.7755575615628914e-17,,,,,,,,,,,,,,,,,,,,,,,,,,,,,,,,,,,,,,,,,,,,,,,,,,,,,,,,FYQNRK,train_y,blue_star,bottom_left,2025-06-10_17h40.41.483,HideSeek_v1,2022.2.5,59.98915396916282,
,2,4,2,8,0,4,65,,train_dim1_1,21,30,,,,2,0,2,0,,,,,,,,,0,0,0,0,0,20,20,20,0,0,0,0,,,,,,,,,,,,,,,,,,,,,,,,,stimuli/alien_stimuli/65.png,,,,,,,,,,,,,,,,,,,,,,,,,,,,,stimuli/alien_stimuli/66.png,66,2,22,,,,,,,30,,,,,,,,1478.7771081999526,1478.7771081999526,1478.7771081999526,1478.7771081999526,1478.7771081999526,up,0.7042116000084206,18,0,0,99,0,0.0,up,0.6296839999849908,,,,,1477.2237627999857,1478.7771081999526,0,0,0.4,0.0,-0.2,0,0.0,0,0,1476.6138203999726,1476.6138203999726,1476.6138203999726,1476.6138203999726,1476.6138203999726,1476.6138203999726,1476.6138203999726,1476.6138203999726,1476.6070210199919,0.7026595000061207,return,0.5926477999892086,,,,,,,,,,,,,,,,,,,,,,,,,,,,,,,,,FYQNRK,train_y,blue_star,bottom_left,2025-06-10_17h40.41.483,HideSeek_v1,2022.2.5,59.98915396916282,
,2,4,2,8,0,4,65,,train_dim1_1,21,30,,,,2,0,2,0,,,,,,,,,0,0,0,0,0,20,20,20,1,0,1,0,,,,,,,,,,,,,,,,,,,,,,,,,,,,,,,,,,,,,,,,,,,,,,,,,,,,,,,,,,,,,,,,30,,,,,,,,1479.4892384999548,1479.4892384999548,1479.4892384999548,1479.4892384999548,1479.4892384999548,up,0.3594334999797866,18,0,0,99,0,0.08,up,0.2852600999758579,,,,,,,,,,,,,,,,,,,,,,,,,,,,,,,,,,,,,,,,,,,,,,,,,,,,,,,,,,,,FYQNRK,train_y,blue_star,bottom_left,2025-06-10_17h40.41.483,HideSeek_v1,2022.2.5,59.98915396916282,
,2,4,2,8,0,4,65,,train_dim1_1,21,30,,,,2,0,2,0,,,,,,,,,0,0,0,0,0,20,20,20,2,0,2,0,,,,,,,,,,,,,,,,,,,,,,,,,,,,,,,,,,,,,,,,,,,,,,,,,,,,,,,,,,,,,,,,30,,,,,,,,1479.8550085999887,1479.8550085999887,1479.8550085999887,1479.8550085999887,1479.8550085999887,up,0.3599133999668993,18,0,0,99,0,0.16,up,0.2785359999979846,,,,,,,,,,,,,,,,,,,,,,,,,,,,,,,,,,,,,,,,,,,,,,,,,,,,,,,,,,,,FYQNRK,train_y,blue_star,bottom_left,2025-06-10_17h40.41.483,HideSeek_v1,2022.2.5,59.98915396916282,
,2,4,2,8,0,4,65,,train_dim1_1,21,30,,,,2,0,2,0,,,,,,,,,0,0,0,0,0,20,20,20,3,0,3,0,,,,,,,,,,,,,,,,,,,,,,,,,,,,,,,,,,,,,,,,,,,,,,,,,,,,,,,,,,,,,,,,30,,,,,,,,1480.222155699972,1480.222155699972,1480.222155699972,1480.222155699972,1480.222155699972,up,0.34302949998527765,18,0,0,99,0,0.24,up,0.25984800001606345,,,,,,,,,,,,,,,,,,,,,,,,,,,,,,,,,,,,,,,,,,,,,,,,,,,,,,,,,,,,FYQNRK,train_y,blue_star,bottom_left,2025-06-10_17h40.41.483,HideSeek_v1,2022.2.5,59.98915396916282,
,2,4,2,8,0,4,65,,train_dim1_1,21,30,,,,2,0,2,0,,,,,,,,,0,0,0,0,0,20,20,20,4,0,4,0,,,,,,,,,,,,,,,,,,,,,,,,,,,,,,,,,,,,,,,,,,,,,,,,,,,,,,,,,,,,,,,,30,,,,,,,,1480.5727840999607,1480.5727840999607,1480.5727840999607,1480.5727840999607,1480.5727840999607,return,0.560581199999433,19,0,0,1,0,0.24,return,0.48752910003531724,56,0,0,0.24,,,,,,,,,,,,,,,,,,,,,,,,,,,,,,,,,,,,,,,,,,,,,,,,,,,,,,,,FYQNRK,train_y,blue_star,bottom_left,2025-06-10_17h40.41.483,HideSeek_v1,2022.2.5,59.98915396916282,
,0,2,0,5,0,3,64,,train_dim1_1,22,30,,,,2,0,2,0,,,,,,,,,0,0,0,0,0,21,21,21,0,0,0,0,,,,,,,,,,,,,,,,,,,,,,,,,stimuli/alien_stimuli/64.png,,,,,,,,,,,,,,,,,,,,,,,,,,,,,stimuli/alien_stimuli/65.png,65,2,23,,,,,,,30,,,,,,,,1485.031444299966,1485.031444299966,1485.031444299966,1485.031444299966,1485.031444299966,up,0.9713493000017479,19,0,0,99,-0.16,-0.15999999999999998,up,0.8964600000181235,,,,,1483.4791737999767,1485.031444299966,0,0.24,0.32,0.0,0.07999999999999999,0,0.0,0,0.24,1482.6832166999811,1482.6832166999811,1482.6832166999811,1482.6832166999811,1482.6832166999811,1482.6832166999811,1482.6832166999811,1482.6832166999811,1482.6785551199805,0.8863159999600612,return,0.7787693000282161,,,,,,,,,,,,,,,,,,,,,,,,,,,,,,,,,FYQNRK,train_y,blue_star,bottom_left,2025-06-10_17h40.41.483,HideSeek_v1,2022.2.5,59.98915396916282,
,0,2,0,5,0,3,64,,train_dim1_1,22,30,,,,2,0,2,0,,,,,,,,,0,0,0,0,0,21,21,21,1,0,1,0,,,,,,,,,,,,,,,,,,,,,,,,,,,,,,,,,,,,,,,,,,,,,,,,,,,,,,,,,,,,,,,,30,,,,,,,,1486.0104546999792,1486.0104546999792,1486.0104546999792,1486.0104546999792,1486.0104546999792,up,0.4261512000230141,19,0,0,99,-0.16,-0.07999999999999997,up,0.34965320001356304,,,,,,,,,,,,,,,,,,,,,,,,,,,,,,,,,,,,,,,,,,,,,,,,,,,,,,,,,,,,FYQNRK,train_y,blue_star,bottom_left,2025-06-10_17h40.41.483,HideSeek_v1,2022.2.5,59.98915396916282,
,0,2,0,5,0,3,64,,train_dim1_1,22,30,,,,2,0,2,0,,,,,,,,,0,0,0,0,0,21,21,21,2,0,2,0,,,,,,,,,,,,,,,,,,,,,,,,,,,,,,,,,,,,,,,,,,,,,,,,,,,,,,,,,,,,,,,,30,,,,,,,,1486.4447425999679,1486.4447425999679,1486.4447425999679,1486.4447425999679,1486.4447425999679,up,0.44321570004103705,19,0,0,99,-0.16,2.7755575615628914e-17,up,0.36043290002271533,,,,,,,,,,,,,,,,,,,,,,,,,,,,,,,,,,,,,,,,,,,,,,,,,,,,,,,,,,,,FYQNRK,train_y,blue_star,bottom_left,2025-06-10_17h40.41.483,HideSeek_v1,2022.2.5,59.98915396916282,
,0,2,0,5,0,3,64,,train_dim1_1,22,30,,,,2,0,2,0,,,,,,,,,0,0,0,0,0,21,21,21,3,0,3,0,,,,,,,,,,,,,,,,,,,,,,,,,,,,,,,,,,,,,,,,,,,,,,,,,,,,,,,,,,,,,,,,30,,,,,,,,1486.893440099957,1486.893440099957,1486.893440099957,1486.893440099957,1486.893440099957,return,0.4764803000143729,20,0,0,1,-0.16,2.7755575615628914e-17,up,0.4119654000387527,59,0,-0.16,2.7755575615628914e-17,,,,,,,,,,,,,,,,,,,,,,,,,,,,,,,,,,,,,,,,,,,,,,,,,,,,,,,,FYQNRK,train_y,blue_star,bottom_left,2025-06-10_17h40.41.483,HideSeek_v1,2022.2.5,59.98915396916282,
,0,3,0,3,0,0,61,,train_dim1_1,23,30,,,,2,0,2,0,,,,,,,,,0,0,0,0,0,22,22,22,0,0,0,0,,,,,,,,,,,,,,,,,,,,,,,,,stimuli/alien_stimuli/61.png,,,,,,,,,,,,,,,,,,,,,,,,,,,,,stimuli/alien_stimuli/64.png,64,0,24,,,,,,,30,,,,,,,,1491.0694086999865,1491.0694086999865,1491.0694086999865,1491.0694086999865,1491.0694086999865,up,3.724597599997651,20,0,0,99,-0.16,-0.08,up,3.6369154999847524,,,,,1489.517514200008,1491.0694086999865,-0.16,0,0.24,0.0,-0.12,-0.16,-0.16,-0.16,0,1488.9220755999559,1488.9220755999559,1488.9220755999559,1488.9220755999559,1488.9220755999559,1488.9220755999559,1488.9220755999559,1488.9220755999559,1488.917049819976,0.6857403999892995,return,0.5745458999881521,,,,,,,,,,,,,,,,,,,,,,,,,,,,,,,,,FYQNRK,train_y,blue_star,bottom_left,2025-06-10_17h40.41.483,HideSeek_v1,2022.2.5,59.98915396916282,
,0,3,0,3,0,0,61,,train_dim1_1,23,30,,,,2,0,2,0,,,,,,,,,0,0,0,0,0,22,22,22,1,0,1,0,,,,,,,,,,,,,,,,,,,,,,,,,,,,,,,,,,,,,,,,,,,,,,,,,,,,,,,,,,,,,,,,30,,,,,,,,1494.8016465999535,1494.8016465999535,1494.8016465999535,1494.8016465999535,1494.8016465999535,return,0.9432729000109248,20,1,0,0,-0.16,-0.08,return,0.858886000001803,60,0,-0.16,-0.08,,,,,,,,,,,,,,,,,,,,,,,,,,,,,,,,,,,,,,,,,,,,,,,,,,,,,,,,FYQNRK,train_y,blue_star,bottom_left,2025-06-10_17h40.41.483,HideSeek_v1,2022.2.5,59.98915396916282,
,3,2,3,7,0,5,66,,train_dim1_1,24,30,,,,2,0,2,0,,,,,,,,,0,0,0,0,0,23,23,23,0,0,0,0,,,,,,,,,,,,,,,,,,,,,,,,,stimuli/alien_stimuli/66.png,,,,,,,,,,,,,,,,,,,,,,,,,,,,,stimuli/alien_stimuli/61.png,61,0,25,,,,,,,30,,,,,,,,1499.6617704999517,1499.6617704999517,1499.6617704999517,1499.6617704999517,1499.6617704999517,up,0.9865708999568596,20,1,0,99,0.08,-0.15999999999999998,up,0.9111819000099786,,,,,1498.1078146999935,1499.6617704999517,-0.16,-0.16,0.0,0.0,-0.16,-0.16,-0.16,-0.16,-0.16,1497.2982235999661,1497.2982235999661,1497.2982235999661,1497.2982235999661,1497.2982235999661,1497.2982235999661,1497.2982235999661,1497.2982235999661,1497.2905678199836,0.9026891000103205,return,0.7837567999958992,,,,,,,,,,,,,,,,,,,,,,,,,,,,,,,,,FYQNRK,train_y,blue_star,bottom_left,2025-06-10_17h40.41.483,HideSeek_v1,2022.2.5,59.98915396916282,
,3,2,3,7,0,5,66,,train_dim1_1,24,30,,,,2,0,2,0,,,,,,,,,0,0,0,0,0,23,23,23,1,0,1,0,,,,,,,,,,,,,,,,,,,,,,,,,,,,,,,,,,,,,,,,,,,,,,,,,,,,,,,,,,,,,,,,30,,,,,,,,1500.6564025999978,1500.6564025999978,1500.6564025999978,1500.6564025999978,1500.6564025999978,up,0.39284260000567883,20,1,0,99,0.08,-0.07999999999999997,up,0.31365319999167696,,,,,,,,,,,,,,,,,,,,,,,,,,,,,,,,,,,,,,,,,,,,,,,,,,,,,,,,,,,,FYQNRK,train_y,blue_star,bottom_left,2025-06-10_17h40.41.483,HideSeek_v1,2022.2.5,59.98915396916282,
,3,2,3,7,0,5,66,,train_dim1_1,24,30,,,,2,0,2,0,,,,,,,,,0,0,0,0,0,23,23,23,2,0,2,0,,,,,,,,,,,,,,,,,,,,,,,,,,,,,,,,,,,,,,,,,,,,,,,,,,,,,,,,,,,,,,,,30,,,,,,,,1501.055650299997,1501.055650299997,1501.055650299997,1501.055650299997,1501.055650299997,up,0.3600360000273213,20,1,0,99,0.08,2.7755575615628914e-17,up,0.2839236999861896,,,,,,,,,,,,,,,,,,,,,,,,,,,,,,,,,,,,,,,,,,,,,,,,,,,,,,,,,,,,FYQNRK,train_y,blue_star,bottom_left,2025-06-10_17h40.41.483,HideSeek_v1,2022.2.5,59.98915396916282,
,3,2,3,7,0,5,66,,train_dim1_1,24,30,,,,2,0,2,0,,,,,,,,,0,0,0,0,0,23,23,23,3,0,3,0,,,,,,,,,,,,,,,,,,,,,,,,,,,,,,,,,,,,,,,,,,,,,,,,,,,,,,,,,,,,,,,,30,,,,,,,,1501.423688699957,1501.423688699957,1501.423688699957,1501.423688699957,1501.423688699957,up,0.3600427000201307,20,1,0,99,0.08,0.08000000000000003,up,0.2736103999777697,,,,,,,,,,,,,,,,,,,,,,,,,,,,,,,,,,,,,,,,,,,,,,,,,,,,,,,,,,,,FYQNRK,train_y,blue_star,bottom_left,2025-06-10_17h40.41.483,HideSeek_v1,2022.2.5,59.98915396916282,
,3,2,3,7,0,5,66,,train_dim1_1,24,30,,,,2,0,2,0,,,,,,,,,0,0,0,0,0,23,23,23,4,0,4,0,,,,,,,,,,,,,,,,,,,,,,,,,,,,,,,,,,,,,,,,,,,,,,,,,,,,,,,,,,,,,,,,30,,,,,,,,1501.7925149999792,1501.7925149999792,1501.7925149999792,1501.7925149999792,1501.7925149999792,up,0.40930480003589764,20,1,0,99,0.08,0.16000000000000003,up,0.33512030000565574,,,,,,,,,,,,,,,,,,,,,,,,,,,,,,,,,,,,,,,,,,,,,,,,,,,,,,,,,,,,FYQNRK,train_y,blue_star,bottom_left,2025-06-10_17h40.41.483,HideSeek_v1,2022.2.5,59.98915396916282,
,3,2,3,7,0,5,66,,train_dim1_1,24,30,,,,2,0,2,0,,,,,,,,,0,0,0,0,0,23,23,23,5,0,5,0,,,,,,,,,,,,,,,,,,,,,,,,,,,,,,,,,,,,,,,,,,,,,,,,,,,,,,,,,,,,,,,,30,,,,,,,,1502.2071771000046,1502.2071771000046,1502.2071771000046,1502.2071771000046,1502.2071771000046,return,0.6266733999946155,21,0,0,1,0.08,0.16000000000000003,return,0.5495023999828845,65,0,0.08,0.16000000000000003,,,,,,,,,,,,,,,,,,,,,,,,,,,,,,,,,,,,,,,,,,,,,,,,,,,,,,,,FYQNRK,train_y,blue_star,bottom_left,2025-06-10_17h40.41.483,HideSeek_v1,2022.2.5,59.98915396916282,
,3,3,3,4,0,1,62,,train_dim1_1,25,30,,,,2,0,2,0,,,,,,,,,0,0,0,0,0,24,24,24,0,0,0,0,,,,,,,,,,,,,,,,,,,,,,,,,stimuli/alien_stimuli/62.png,,,,,,,,,,,,,,,,,,,,,,,,,,,,,stimuli/alien_stimuli/66.png,66,3,26,,,,,,,30,,,,,,,,1506.583611399983,1506.583611399983,1506.583611399983,1506.583611399983,1506.583611399983,up,0.8709727999521419,21,0,0,99,0.08,-0.08,up,0.7839580999570899,,,,,1505.0303544999915,1506.583611399983,0.08,0.16,0.4,0.0,-0.039999999999999994,0.08,0.08,0.08,0.16,1504.384730699996,1504.384730699996,1504.384730699996,1504.384730699996,1504.384730699996,1504.384730699996,1504.384730699996,1504.384730699996,1504.3797987199737,0.7360186000005342,return,0.6140676999930292,,,,,,,,,,,,,,,,,,,,,,,,,,,,,,,,,FYQNRK,train_y,blue_star,bottom_left,2025-06-10_17h40.41.483,HideSeek_v1,2022.2.5,59.98915396916282,
,3,3,3,4,0,1,62,,train_dim1_1,25,30,,,,2,0,2,0,,,,,,,,,0,0,0,0,0,24,24,24,1,0,1,0,,,,,,,,,,,,,,,,,,,,,,,,,,,,,,,,,,,,,,,,,,,,,,,,,,,,,,,,,,,,,,,,30,,,,,,,,1507.461857599963,1507.461857599963,1507.461857599963,1507.461857599963,1507.461857599963,down,1.9606853000004776,21,0,0,99,0.08,-0.16,down,1.8793709000456147,,,,,,,,,,,,,,,,,,,,,,,,,,,,,,,,,,,,,,,,,,,,,,,,,,,,,,,,,,,,FYQNRK,train_y,blue_star,bottom_left,2025-06-10_17h40.41.483,HideSeek_v1,2022.2.5,59.98915396916282,
,3,3,3,4,0,1,62,,train_dim1_1,25,30,,,,2,0,2,0,,,,,,,,,0,0,0,0,0,24,24,24,2,0,2,0,,,,,,,,,,,,,,,,,,,,,,,,,,,,,,,,,,,,,,,,,,,,,,,,,,,,,,,,,,,,,,,,30,,,,,,,,1509.4307151999674,1509.4307151999674,1509.4307151999674,1509.4307151999674,1509.4307151999674,up,2.427819000033196,21,0,0,99,0.08,-0.08,up,2.351407599984668,,,,,,,,,,,,,,,,,,,,,,,,,,,,,,,,,,,,,,,,,,,,,,,,,,,,,,,,,,,,FYQNRK,train_y,blue_star,bottom_left,2025-06-10_17h40.41.483,HideSeek_v1,2022.2.5,59.98915396916282,
,3,3,3,4,0,1,62,,train_dim1_1,25,30,,,,2,0,2,0,,,,,,,,,0,0,0,0,0,24,24,24,3,0,3,0,,,,,,,,,,,,,,,,,,,,,,,,,,,,,,,,,,,,,,,,,,,,,,,,,,,,,,,,,,,,,,,,30,,,,,,,,1511.8662282999721,1511.8662282999721,1511.8662282999721,1511.8662282999721,1511.8662282999721,return,0.5763876999844797,22,0,0,1,0.08,-0.08,return,0.49624090001452714,66,0,0.08,-0.08,,,,,,,,,,,,,,,,,,,,,,,,,,,,,,,,,,,,,,,,,,,,,,,,,,,,,,,,FYQNRK,train_y,blue_star,bottom_left,2025-06-10_17h40.41.483,HideSeek_v1,2022.2.5,59.98915396916282,
,4,4,4,7,0,3,64,,train_dim1_1,26,30,,,,2,0,2,0,,,,,,,,,0,0,0,0,0,25,25,25,0,0,0,0,,,,,,,,,,,,,,,,,,,,,,,,,stimuli/alien_stimuli/64.png,,,,,,,,,,,,,,,,,,,,,,,,,,,,,stimuli/alien_stimuli/62.png,62,3,27,,,,,,,30,,,,,,,,1516.139830900007,1516.139830900007,1516.139830900007,1516.139830900007,1516.139830900007,up,0.7721145999967121,22,0,0,99,0.16,0.0,up,0.7001144000096247,,,,,1514.5882756999927,1516.139830900007,0.08,-0.08,0.08,0.0,-0.12,0.08,0.08,0.08,-0.08,1513.9944656000007,1513.9944656000007,1513.9944656000007,1513.9944656000007,1513.9944656000007,1513.9944656000007,1513.9944656000007,1513.9944656000007,1513.98789661997,0.6861398000037298,return,0.5689066000049934,,,,,,,,,,,,,,,,,,,,,,,,,,,,,,,,,FYQNRK,train_y,blue_star,bottom_left,2025-06-10_17h40.41.483,HideSeek_v1,2022.2.5,59.98915396916282,
,4,4,4,7,0,3,64,,train_dim1_1,26,30,,,,2,0,2,0,,,,,,,,,0,0,0,0,0,25,25,25,1,0,1,0,,,,,,,,,,,,,,,,,,,,,,,,,,,,,,,,,,,,,,,,,,,,,,,,,,,,,,,,,,,,,,,,30,,,,,,,,1516.9200318999938,1516.9200318999938,1516.9200318999938,1516.9200318999938,1516.9200318999938,up,0.4095853000180796,22,0,0,99,0.16,0.08,up,0.3352252999902703,,,,,,,,,,,,,,,,,,,,,,,,,,,,,,,,,,,,,,,,,,,,,,,,,,,,,,,,,,,,FYQNRK,train_y,blue_star,bottom_left,2025-06-10_17h40.41.483,HideSeek_v1,2022.2.5,59.98915396916282,
,4,4,4,7,0,3,64,,train_dim1_1,26,30,,,,2,0,2,0,,,,,,,,,0,0,0,0,0,25,25,25,2,0,2,0,,,,,,,,,,,,,,,,,,,,,,,,,,,,,,,,,,,,,,,,,,,,,,,,,,,,,,,,,,,,,,,,30,,,,,,,,1517.336364399991,1517.336364399991,1517.336364399991,1517.336364399991,1517.336364399991,up,0.35943529999349266,22,0,0,99,0.16,0.16,up,0.2784309000126086,,,,,,,,,,,,,,,,,,,,,,,,,,,,,,,,,,,,,,,,,,,,,,,,,,,,,,,,,,,,FYQNRK,train_y,blue_star,bottom_left,2025-06-10_17h40.41.483,HideSeek_v1,2022.2.5,59.98915396916282,
,4,4,4,7,0,3,64,,train_dim1_1,26,30,,,,2,0,2,0,,,,,,,,,0,0,0,0,0,25,25,25,3,0,3,0,,,,,,,,,,,,,,,,,,,,,,,,,,,,,,,,,,,,,,,,,,,,,,,,,,,,,,,,,,,,,,,,30,,,,,,,,1517.703543599986,1517.703543599986,1517.703543599986,1517.703543599986,1517.703543599986,return,0.42675250000320375,23,0,0,1,0.16,0.16,return,0.3530856999568641,69,0,0.16,0.16,,,,,,,,,,,,,,,,,,,,,,,,,,,,,,,,,,,,,,,,,,,,,,,,,,,,,,,,FYQNRK,train_y,blue_star,bottom_left,2025-06-10_17h40.41.483,HideSeek_v1,2022.2.5,59.98915396916282,
,3,4,3,9,0,5,66,,train_dim1_1,27,30,,,,2,0,2,0,,,,,,,,,0,0,0,0,0,26,26,26,0,0,0,0,,,,,,,,,,,,,,,,,,,,,,,,,stimuli/alien_stimuli/66.png,,,,,,,,,,,,,,,,,,,,,,,,,,,,,stimuli/alien_stimuli/64.png,64,4,28,,,,,,,30,,,,,,,,1522.0468205999932,1522.0468205999932,1522.0468205999932,1522.0468205999932,1522.0468205999932,up,0.6204611000139266,23,0,0,99,0.08,0.0,up,0.5480104999733157,,,,,1520.4933003999759,1522.0468205999932,0.16,0.16,0.24,0.0,0.04,0.16,0.16,0.16,0.16,1519.6821753999684,1519.6821753999684,1519.6821753999684,1519.6821753999684,1519.6821753999684,1519.6821753999684,1519.6821753999684,1519.6821753999684,1519.6760002199676,0.9029739999677986,return,0.7946315000299364,,,,,,,,,,,,,,,,,,,,,,,,,,,,,,,,,FYQNRK,train_y,blue_star,bottom_left,2025-06-10_17h40.41.483,HideSeek_v1,2022.2.5,59.98915396916282,
,3,4,3,9,0,5,66,,train_dim1_1,27,30,,,,2,0,2,0,,,,,,,,,0,0,0,0,0,26,26,26,1,0,1,0,,,,,,,,,,,,,,,,,,,,,,,,,,,,,,,,,,,,,,,,,,,,,,,,,,,,,,,,,,,,,,,,30,,,,,,,,1522.6737966999644,1522.6737966999644,1522.6737966999644,1522.6737966999644,1522.6737966999644,up,0.47644870000658557,23,0,0,99,0.08,0.08,up,0.3959949999698438,,,,,,,,,,,,,,,,,,,,,,,,,,,,,,,,,,,,,,,,,,,,,,,,,,,,,,,,,,,,FYQNRK,train_y,blue_star,bottom_left,2025-06-10_17h40.41.483,HideSeek_v1,2022.2.5,59.98915396916282,
,3,4,3,9,0,5,66,,train_dim1_1,27,30,,,,2,0,2,0,,,,,,,,,0,0,0,0,0,26,26,26,2,0,2,0,,,,,,,,,,,,,,,,,,,,,,,,,,,,,,,,,,,,,,,,,,,,,,,,,,,,,,,,,,,,,,,,30,,,,,,,,1523.158390800003,1523.158390800003,1523.158390800003,1523.158390800003,1523.158390800003,up,0.4097714999807067,23,0,0,99,0.08,0.16,up,0.3296880999696441,,,,,,,,,,,,,,,,,,,,,,,,,,,,,,,,,,,,,,,,,,,,,,,,,,,,,,,,,,,,FYQNRK,train_y,blue_star,bottom_left,2025-06-10_17h40.41.483,HideSeek_v1,2022.2.5,59.98915396916282,
,3,4,3,9,0,5,66,,train_dim1_1,27,30,,,,2,0,2,0,,,,,,,,,0,0,0,0,0,26,26,26,3,0,3,0,,,,,,,,,,,,,,,,,,,,,,,,,,,,,,,,,,,,,,,,,,,,,,,,,,,,,,,,,,,,,,,,30,,,,,,,,1523.575589999964,1523.575589999964,1523.575589999964,1523.575589999964,1523.575589999964,up,0.4102083999896422,23,0,0,99,0.08,0.24,up,0.33457110001472756,,,,,,,,,,,,,,,,,,,,,,,,,,,,,,,,,,,,,,,,,,,,,,,,,,,,,,,,,,,,FYQNRK,train_y,blue_star,bottom_left,2025-06-10_17h40.41.483,HideSeek_v1,2022.2.5,59.98915396916282,
,3,4,3,9,0,5,66,,train_dim1_1,27,30,,,,2,0,2,0,,,,,,,,,0,0,0,0,0,26,26,26,4,0,4,0,,,,,,,,,,,,,,,,,,,,,,,,,,,,,,,,,,,,,,,,,,,,,,,,,,,,,,,,,,,,,,,,30,,,,,,,,1523.9934718000004,1523.9934718000004,1523.9934718000004,1523.9934718000004,1523.9934718000004,up,0.4101875000051223,23,0,0,99,0.08,0.32,up,0.33151059999363497,,,,,,,,,,,,,,,,,,,,,,,,,,,,,,,,,,,,,,,,,,,,,,,,,,,,,,,,,,,,FYQNRK,train_y,blue_star,bottom_left,2025-06-10_17h40.41.483,HideSeek_v1,2022.2.5,59.98915396916282,
,3,4,3,9,0,5,66,,train_dim1_1,27,30,,,,2,0,2,0,,,,,,,,,0,0,0,0,0,26,26,26,5,0,5,0,,,,,,,,,,,,,,,,,,,,,,,,,,,,,,,,,,,,,,,,,,,,,,,,,,,,,,,,,,,,,,,,30,,,,,,,,1524.4094241999555,1524.4094241999555,1524.4094241999555,1524.4094241999555,1524.4094241999555,return,2.5784807999734767,24,0,0,1,0.08,0.32,return,2.4977468000142835,74,0,0.08,0.32,,,,,,,,,,,,,,,,,,,,,,,,,,,,,,,,,,,,,,,,,,,,,,,,,,,,,,,,FYQNRK,train_y,blue_star,bottom_left,2025-06-10_17h40.41.483,HideSeek_v1,2022.2.5,59.98915396916282,
,4,1,4,1,0,0,61,,train_dim1_1,28,30,,,,2,0,2,0,,,,,,,,,0,0,0,0,0,27,27,27,0,0,0,0,,,,,,,,,,,,,,,,,,,,,,,,,stimuli/alien_stimuli/61.png,,,,,,,,,,,,,,,,,,,,,,,,,,,,,stimuli/alien_stimuli/66.png,66,3,29,,,,,,,30,,,,,,,,1530.7213315999834,1530.7213315999834,1530.7213315999834,1530.7213315999834,1530.7213315999834,return,1.854668700019829,25,0,0,1,0.16,-0.32,return,1.7670264999615029,74,0,0.16,-0.32,1529.1670722999843,1530.7213315999834,0.08,0.32,0.4,0.0,0.12,0.08,0.08,0.08,0.32,1528.541199899977,1528.541199899977,1528.541199899977,1528.541199899977,1528.541199899977,1528.541199899977,1528.541199899977,1528.541199899977,1528.5332656199694,0.7193872999632731,return,0.6053413999616168,,,,,,,,,,,,,,,,,,,,,,,,,,,,,,,,,FYQNRK,train_y,blue_star,bottom_left,2025-06-10_17h40.41.483,HideSeek_v1,2022.2.5,59.98915396916282,
,2,2,2,3,0,1,62,,train_dim1_1,29,30,,,,2,0,2,0,,,,,,,,,0,0,0,0,0,28,28,28,0,0,0,0,,,,,,,,,,,,,,,,,,,,,,,,,stimuli/alien_stimuli/62.png,,,,,,,,,,,,,,,,,,,,,,,,,,,,,stimuli/alien_stimuli/61.png,61,4,30,,,,,,,30,,,,,,,,1536.3101136999903,1536.3101136999903,1536.3101136999903,1536.3101136999903,1536.3101136999903,up,0.9541389999794774,25,0,0,99,0,-0.15999999999999998,up,0.8805605999659747,,,,,1534.7552104999777,1536.3101136999903,0.16,-0.32,0.0,0.0,-0.32,0.16,0.16,0.16,-0.32,1534.1280078999698,1534.1280078999698,1534.1280078999698,1534.1280078999698,1534.1280078999698,1534.1280078999698,1534.1280078999698,1534.1280078999698,1534.1211780199897,0.7194802999729291,return,0.5970452000037767,,,,,,,,,,,,,,,,,,,,,,,,,,,,,,,,,FYQNRK,train_y,blue_star,bottom_left,2025-06-10_17h40.41.483,HideSeek_v1,2022.2.5,59.98915396916282,
,2,2,2,3,0,1,62,,train_dim1_1,29,30,,,,2,0,2,0,,,,,,,,,0,0,0,0,0,28,28,28,1,0,1,0,,,,,,,,,,,,,,,,,,,,,,,,,,,,,,,,,,,,,,,,,,,,,,,,,,,,,,,,,,,,,,,,30,,,,,,,,1537.2711519000004,1537.2711519000004,1537.2711519000004,1537.2711519000004,1537.2711519000004,return,0.5925342999980785,26,0,0,1,0,-0.15999999999999998,return,0.5169544999953359,75,0,0,-0.15999999999999998,,,,,,,,,,,,,,,,,,,,,,,,,,,,,,,,,,,,,,,,,,,,,,,,,,,,,,,,FYQNRK,train_y,blue_star,bottom_left,2025-06-10_17h40.41.483,HideSeek_v1,2022.2.5,59.98915396916282,
,0,1,0,5,0,4,65,,train_dim1_1,30,30,,,,2,0,2,0,,,,,,,,,0,0,0,0,0,29,29,29,0,0,0,0,,,,,,,,,,,,,,,,,,,,,,,,,stimuli/alien_stimuli/65.png,,,,,,,,,,,,,,,,,,,,,,,,,,,,,stimuli/alien_stimuli/62.png,62,2,31,,,,,,,30,,,,,,,,1541.5799414999783,1541.5799414999783,1541.5799414999783,1541.5799414999783,1541.5799414999783,up,0.8537496000062674,26,0,0,99,-0.16,-0.24,up,0.776759399974253,,,,,1540.0261803999892,1541.5799414999783,0,-0.16,0.08,0.0,-0.2,0,0.0,0,-0.16,1539.4178388,1539.4178388,1539.4178388,1539.4178388,1539.4178388,1539.4178388,1539.4178388,1539.4178388,1539.4089332199887,0.7027225000201724,return,0.5882950999657623,,,,,,,,,,,,,,,,,,,,,,,,,,,,,,,,,FYQNRK,train_y,blue_star,bottom_left,2025-06-10_17h40.41.483,HideSeek_v1,2022.2.5,59.98915396916282,
,0,1,0,5,0,4,65,,train_dim1_1,30,30,,,,2,0,2,0,,,,,,,,,0,0,0,0,0,29,29,29,1,0,1,0,,,,,,,,,,,,,,,,,,,,,,,,,,,,,,,,,,,,,,,,,,,,,,,,,,,,,,,,,,,,,,,,30,,,,,,,,1542.4411799999652,1542.4411799999652,1542.4411799999652,1542.4411799999652,1542.4411799999652,up,0.39279230003012344,26,0,0,99,-0.16,-0.15999999999999998,up,0.30544289998942986,,,,,,,,,,,,,,,,,,,,,,,,,,,,,,,,,,,,,,,,,,,,,,,,,,,,,,,,,,,,FYQNRK,train_y,blue_star,bottom_left,2025-06-10_17h40.41.483,HideSeek_v1,2022.2.5,59.98915396916282,
,0,1,0,5,0,4,65,,train_dim1_1,30,30,,,,2,0,2,0,,,,,,,,,0,0,0,0,0,29,29,29,2,0,2,0,,,,,,,,,,,,,,,,,,,,,,,,,,,,,,,,,,,,,,,,,,,,,,,,,,,,,,,,,,,,,,,,30,,,,,,,,1542.8408743999898,1542.8408743999898,1542.8408743999898,1542.8408743999898,1542.8408743999898,up,0.47659090004162863,26,0,0,99,-0.16,-0.07999999999999997,up,0.39018669998040423,,,,,,,,,,,,,,,,,,,,,,,,,,,,,,,,,,,,,,,,,,,,,,,,,,,,,,,,,,,,FYQNRK,train_y,blue_star,bottom_left,2025-06-10_17h40.41.483,HideSeek_v1,2022.2.5,59.98915396916282,
,0,1,0,5,0,4,65,,train_dim1_1,30,30,,,,2,0,2,0,,,,,,,,,0,0,0,0,0,29,29,29,3,0,3,0,,,,,,,,,,,,,,,,,,,,,,,,,,,,,,,,,,,,,,,,,,,,,,,,,,,,,,,,,,,,,,,,30,,,,,,,,1543.3263192999875,1543.3263192999875,1543.3263192999875,1543.3263192999875,1543.3263192999875,up,0.3765472999657504,26,0,0,99,-0.16,2.7755575615628914e-17,up,0.3030548000242561,,,,,,,,,,,,,,,,,,,,,,,,,,,,,,,,,,,,,,,,,,,,,,,,,,,,,,,,,,,,FYQNRK,train_y,blue_star,bottom_left,2025-06-10_17h40.41.483,HideSeek_v1,2022.2.5,59.98915396916282,
,0,1,0,5,0,4,65,,train_dim1_1,30,30,,,,2,0,2,0,,,,,,,,,0,0,0,0,0,29,29,29,4,0,4,0,,,,,,,,,,,,,,,,,,,,,,,,,,,,,,,,,,,,,,,,,,,,,,,,,,,,,,,,,,,,,,,,30,,,,,,,,1543.708348599961,1543.708348599961,1543.708348599961,1543.708348599961,1543.708348599961,return,0.610169899999164,27,0,0,1,-0.16,2.7755575615628914e-17,return,0.5306679999921471,79,0,-0.16,2.7755575615628914e-17,,,,,,,,,,,,,,,,,,,,,,,,,,,,,,,,,,,,,,,,,,,,,,,,,,,,,,,,FYQNRK,train_y,blue_star,bottom_left,2025-06-10_17h40.41.483,HideSeek_v1,2022.2.5,59.98915396916282,
,,,,,,,,,,,30,,,,2,0,2,0,,,,,,,,,,,,,,,,,,,,,,,,,,,,,,,,,,,,,,,,,,,,,,,,,,,,,,,,,,,,,,,,,,,,,,,,,,stimuli/alien_stimuli/65.png,65,0,32,21,0.7,1.125,1,1,1,30,0,conditions/schedules/train_y_first/blue_star_00/bottom_left/inputTrain_2.1.xlsx,99,1,2,1,0,,,,,,,,,,,1,,,,,,,,,1546.6147688999772,1548.1719194999896,-0.16,0,0.32,0.0,-0.16,-0.16,-0.16,-0.16,0,1545.8718014999758,1545.8718014999758,1545.8718014999758,1545.8718014999758,1545.8718014999758,1545.8718014999758,1545.8718014999758,1545.8718014999758,1545.8645312200183,0.8366589999641292,return,0.7131039999658242,0,0.9,0,1,27,,,,,,,,,,,,,,,,,,,,,,,,,,,,FYQNRK,train_y,blue_star,bottom_left,2025-06-10_17h40.41.483,HideSeek_v1,2022.2.5,59.98915396916282,
,,,,,,,,,,,,,,,3,0,3,0,0,0,0,0,,,,,,,,,,,,,,,,,,,,,,,,,,,,,,,conditions/schedules/train_y_first/blue_star_00/bottom_left/instructions/Slide17.png,conditions/schedules/train_y_first/blue_star_00/bottom_left/instructions/Audio17.wav,1548.1719194999896,1548.166309880011,17,"[6.856075000017881, 18.43155520001892, 16.785489499976393, 19.523160699987784, 4.474510499974713, 5.052934900042601, 5.768659800000023, 11.907948600011878, 5.881147400010377, 7.569446499983314, 10.43714719999116, 13.953159800032154, 19.753691099991556, 17.316049300017767, 43.744697400019504, 21.410738600010518, 42.509808800008614]","[0.014210699999239296, 0.014130599971394986, 0.0736256999662146, 0.05376300000352785, 0.09873890003655106, 0.0640824000001885, 0.06466119998367503, 0.031228800013195723, 0.09614029998192564, 0.06195599999045953, 0.03299730003345758, 13.95316630002344, 0.013954900030512363, 17.316056600015145, 0.000202000024728477, 21.410745900007896, 42.50981580000371]",0,,,,,,,,,,,,,,,,,,,,,,,,,,,,,,,,,,,,,,,,,,,,,,,,,,,,,,,,,,,,,,,,,,,,,,,,,,,,,,,,,,,,,,,,,,,,,,,,,,,,,,,,,,,,,,,,,,,,,,,,,,,,FYQNRK,train_y,blue_star,bottom_left,2025-06-10_17h40.41.483,HideSeek_v1,2022.2.5,59.98915396916282,
,,,,,,,,,,,,,,,3,0,3,0,1,0,1,0,,,,,,,,,,,,,,,,,,,,,,,,,,,,,,,conditions/schedules/train_y_first/blue_star_00/bottom_left/instructions/Slide18.png,conditions/schedules/train_y_first/blue_star_00/bottom_left/instructions/Audio18.wav,1590.7418336999835,1590.7346608799764,18,"[6.856075000017881, 18.43155520001892, 16.785489499976393, 19.523160699987784, 4.474510499974713, 5.052934900042601, 5.768659800000023, 11.907948600011878, 5.881147400010377, 7.569446499983314, 10.43714719999116, 13.953159800032154, 19.753691099991556, 17.316049300017767, 43.744697400019504, 21.410738600010518, 42.509808800008614, 5.911547399999108]","[0.014210699999239296, 0.014130599971394986, 0.0736256999662146, 0.05376300000352785, 0.09873890003655106, 0.0640824000001885, 0.06466119998367503, 0.031228800013195723, 0.09614029998192564, 0.06195599999045953, 0.03299730003345758, 13.95316630002344, 0.013954900030512363, 17.316056600015145, 0.000202000024728477, 21.410745900007896, 0.013416399946436286, 5.9115542999934405]",0,,,,,,,,,,,,,,,,,,,,,,,,,,,,,,,,,,,,,,,,,,,,,,,,,,,,,,,,,,,,,,,,,,,,,,,,,,,,,,,,,,,,,,,,,,,,,,,,,,,,,,,,,,,,,,,,,,,,,,,,,,,,FYQNRK,train_y,blue_star,bottom_left,2025-06-10_17h40.41.483,HideSeek_v1,2022.2.5,59.98915396916282,
,,,,,,,,,,,,,,,3,0,3,0,2,0,2,0,,,,,,,,,,,,,,,,,,,,,,,,,,,,,,,conditions/schedules/train_y_first/blue_star_00/bottom_left/instructions/Slide19.png,conditions/schedules/train_y_first/blue_star_00/bottom_left/instructions/Audio19.wav,1596.7077781999833,1596.706483979977,19,"[6.856075000017881, 18.43155520001892, 16.785489499976393, 19.523160699987784, 4.474510499974713, 5.052934900042601, 5.768659800000023, 11.907948600011878, 5.881147400010377, 7.569446499983314, 10.43714719999116, 13.953159800032154, 19.753691099991556, 17.316049300017767, 43.744697400019504, 21.410738600010518, 42.509808800008614, 5.911547399999108, 9.553700700053014]","[0.014210699999239296, 0.014130599971394986, 0.0736256999662146, 0.05376300000352785, 0.09873890003655106, 0.0640824000001885, 0.06466119998367503, 0.031228800013195723, 0.09614029998192564, 0.06195599999045953, 0.03299730003345758, 13.95316630002344, 0.013954900030512363, 17.316056600015145, 0.000202000024728477, 21.410745900007896, 0.013416399946436286, 0.046330800047144294, 9.553707700048108]",0,,,,,,,,,,,,,,,,,,,,,,,,,,,,,,,,,,,,,,,,,,,,,,,,,,,,,,,,,,,,,,,,,,,,,,,,,,,,,,,,,,,,,,,,,,,,,,,,,,,,,,,,,,,,,,,,,,,,,,,,,,,,FYQNRK,train_y,blue_star,bottom_left,2025-06-10_17h40.41.483,HideSeek_v1,2022.2.5,59.98915396916282,
,,,,,,,,,,,,,,,3,0,3,0,3,0,3,0,,,,,,,,,,,,,,,,,,,,,,,,,,,,,,,conditions/schedules/train_y_first/blue_star_00/bottom_left/instructions/Slide20.png,conditions/schedules/train_y_first/blue_star_00/bottom_left/instructions/Audio20.wav,1606.3159652999602,1606.3143090799915,20,"[6.856075000017881, 18.43155520001892, 16.785489499976393, 19.523160699987784, 4.474510499974713, 5.052934900042601, 5.768659800000023, 11.907948600011878, 5.881147400010377, 7.569446499983314, 10.43714719999116, 13.953159800032154, 19.753691099991556, 17.316049300017767, 43.744697400019504, 21.410738600010518, 42.509808800008614, 5.911547399999108, 9.553700700053014, 17.326730099972337]","[0.014210699999239296, 0.014130599971394986, 0.0736256999662146, 0.05376300000352785, 0.09873890003655106, 0.0640824000001885, 0.06466119998367503, 0.031228800013195723, 0.09614029998192564, 0.06195599999045953, 0.03299730003345758, 13.95316630002344, 0.013954900030512363, 17.316056600015145, 0.000202000024728477, 21.410745900007896, 0.013416399946436286, 0.046330800047144294, 0.04681669996352866, 17.326736599963624]",0,,,,,,,,,,,,,,,,,,,,,,,,,,,,,,,,,,,,,,,,,,,,,,,,,,,,,,,,,,,,,,,,,,,,,,,,,,,,,,,,,,,,,,,,,,,,,,,,,,,,,,,,,,,,,,,,,,,,,,,,,,,,FYQNRK,train_y,blue_star,bottom_left,2025-06-10_17h40.41.483,HideSeek_v1,2022.2.5,59.98915396916282,
1,4,0,9,0,5,0,11,2,instr_dim1_2,,,,,,3,0,3,0,,,,,0,0,0,0,,,,,,,,,,,,,,,,,,,,,,,,,,,,,,,,,,,,,stimuli/alien_stimuli/11.png,conditions/schedules/train_y_first/blue_star_00/bottom_left/inputInstr_2.xlsx,stimuli/alien_stimuli/11.png,1623.7472840999835,1623.7472840999835,1623.7472840999835,1623.7472840999835,1623.745518890023,return,4.014632600010373,"[-0.16, -0.08, 0, 0.08, 0.16, 0.24, 0.32, 0.4, 0.48, 0.56]","[-0.4, -0.32, -0.24, -0.16, -0.08, 0, 0.08, 0.16, 0.24, 0.32]",0,0,9,4,0.0,0.4,1627.9239055999788,1627.9239055999788,1627.9239055999788,1627.9239055999788,1627.9239055999788,1627.9239055999788,1627.9239055999788,1627.9158631299854,4.821556699986104,return,4.657672900008038,stimuli/alien_stimuli/11.png,11,4,1,,,,,,,,,,,,,,,,,,,,,,,,,,,,,,,,,,,,,,,,,,,,,,,,,,,,,,,,,,,,,,,,,,,,,,,,,,,,,,,,,,,,,,,,,FYQNRK,train_y,blue_star,bottom_left,2025-06-10_17h40.41.483,HideSeek_v1,2022.2.5,59.98915396916282,
,,,,,,,,,,,30,,,,3,0,3,0,,,,,,,,,,,,,,,,,,,,,,,,,,,,,,,,,,,,,,,,,,,,,,,,,,,,,,,,,,,,,,,,,,,,,,,,,,,,,,21,0.7,1.125,1,99,2,30,0,conditions/schedules/train_y_first/blue_star_00/bottom_left/inputTrain_2.1.xlsx,99,1,2,1,0,,,,,,,,,,,,,,,,,,,,,,,,,,,,,,,,,,,,,,,,,,,,,,,,,,,,,,,,,,,,,,,,,,,,,,,,,,,FYQNRK,train_y,blue_star,bottom_left,2025-06-10_17h40.41.483,HideSeek_v1,2022.2.5,59.98915396916282,
,,,,,,,,,,,,,,,4,0,4,0,0,0,0,0,,,,,,,,,,,,,,,,,,,,,,,,,,,,,,,conditions/schedules/train_y_first/blue_star_00/bottom_left/instructions/Slide21.png,conditions/schedules/train_y_first/blue_star_00/bottom_left/instructions/Audio21.wav,1632.7343087999616,1632.7363763300002,21,"[6.856075000017881, 18.43155520001892, 16.785489499976393, 19.523160699987784, 4.474510499974713, 5.052934900042601, 5.768659800000023, 11.907948600011878, 5.881147400010377, 7.569446499983314, 10.43714719999116, 13.953159800032154, 19.753691099991556, 17.316049300017767, 43.744697400019504, 21.410738600010518, 42.509808800008614, 5.911547399999108, 9.553700700053014, 17.326730099972337, 2.4015043000108562]","[0.014210699999239296, 0.014130599971394986, 0.0736256999662146, 0.05376300000352785, 0.09873890003655106, 0.0640824000001885, 0.06466119998367503, 0.031228800013195723, 0.09614029998192564, 0.06195599999045953, 0.03299730003345758, 13.95316630002344, 0.013954900030512363, 17.316056600015145, 0.000202000024728477, 21.410745900007896, 0.013416399946436286, 0.046330800047144294, 0.04681669996352866, 17.326736599963624, 2.4015112000051886]",0,,,,,,,,,,,,,,,,,,,,,,,,,,,,,,,,,,,,,,,,,,,,,,,,,,,,,,,,,,,,,,,,,,,,,,,,,,,,,,,,,,,,,,,,,,,,,,,,,,,,,,,,,,,,,,,,,,,,,,,,,,,,FYQNRK,train_y,blue_star,bottom_left,2025-06-10_17h40.41.483,HideSeek_v1,2022.2.5,59.98915396916282,
2,3,2,3,2,0,0,61,2,instr_dim1_2,,,,,,4,0,4,0,,,,,0,0,0,0,,,,,,,,,,,,,,,,,,,,,,,,,,,,,,,,,,,,,stimuli/alien_stimuli/61.png,conditions/schedules/train_y_first/blue_star_00/bottom_left/inputInstr_2.xlsx,stimuli/alien_stimuli/61.png,1635.221264599997,1635.221264599997,1635.221264599997,1635.221264599997,1635.2219021200085,return,3.249411199998576,"[-0.16, -0.08, 0, 0.08, 0.16, 0.24, 0.32, 0.4, 0.48, 0.56]","[-0.4, -0.32, -0.24, -0.16, -0.08, 0, 0.08, 0.16, 0.24, 0.32]",2,2,3,3,0.0,0.0,1638.620446899964,1638.620446899964,1638.620446899964,1638.620446899964,1638.620446899964,1638.620446899964,1638.620446899964,1638.6079816600075,5.688652899989393,return,5.535819199983962,stimuli/alien_stimuli/61.png,61,3,2,,,,,,,,,,,,,,,,,,,,,,,,,,,,,,,,,,,,,,,,,,,,,,,,,,,,,,,,,,,,,,,,,,,,,,,,,,,,,,,,,,,,,,,,,FYQNRK,train_y,blue_star,bottom_left,2025-06-10_17h40.41.483,HideSeek_v1,2022.2.5,59.98915396916282,
,,,,,,,,,,,30,,,,4,0,4,0,,,,,,,,,,,,,,,,,,,,,,,,,,,,,,,,,,,,,,,,,,,,,,,,,,,,,,,,,,,,,,,,,,,,,,,,,,,,,,21,0.7,1.125,1,99,2,30,0,conditions/schedules/train_y_first/blue_star_00/bottom_left/inputTrain_2.1.xlsx,99,1,2,1,0,,,,,,,,,,,,,,,,,,,,,,,,,,,,,,,,,,,,,,,,,,,,,,,,,,,,,,,,,,,,,,,,,,,,,,,,,,,FYQNRK,train_y,blue_star,bottom_left,2025-06-10_17h40.41.483,HideSeek_v1,2022.2.5,59.98915396916282,
,,,,,,,,,,,,,,,5,0,5,0,0,0,0,0,,,,,,,,,,,,,,,,,,,,,,,,,,,,,,,conditions/schedules/train_y_first/blue_star_00/bottom_left/instructions/Slide22.png,conditions/schedules/train_y_first/blue_star_00/bottom_left/instructions/Audio22.wav,1644.314705799974,1644.3125703300232,22,"[6.856075000017881, 18.43155520001892, 16.785489499976393, 19.523160699987784, 4.474510499974713, 5.052934900042601, 5.768659800000023, 11.907948600011878, 5.881147400010377, 7.569446499983314, 10.43714719999116, 13.953159800032154, 19.753691099991556, 17.316049300017767, 43.744697400019504, 21.410738600010518, 42.509808800008614, 5.911547399999108, 9.553700700053014, 17.326730099972337, 2.4015043000108562, 33.20614430005662]","[0.014210699999239296, 0.014130599971394986, 0.0736256999662146, 0.05376300000352785, 0.09873890003655106, 0.0640824000001885, 0.06466119998367503, 0.031228800013195723, 0.09614029998192564, 0.06195599999045953, 0.03299730003345758, 13.95316630002344, 0.013954900030512363, 17.316056600015145, 0.000202000024728477, 21.410745900007896, 0.013416399946436286, 0.046330800047144294, 0.04681669996352866, 17.326736599963624, 2.4015112000051886, 33.206151200050954]",0,,,,,,,,,,,,,,,,,,,,,,,,,,,,,,,,,,,,,,,,,,,,,,,,,,,,,,,,,,,,,,,,,,,,,,,,,,,,,,,,,,,,,,,,,,,,,,,,,,,,,,,,,,,,,,,,,,,,,,,,,,,,FYQNRK,train_y,blue_star,bottom_left,2025-06-10_17h40.41.483,HideSeek_v1,2022.2.5,59.98915396916282,
,2,1,5,1,3,0,31,,train_dim1_2,1,30,,,,5,0,5,0,,,,,,,,,0,0,0,0,0,0,0,0,0,0,0,0,,,,,,,,,,,,,,,,,,,,,,,,,stimuli/alien_stimuli/31.png,,,,,,,,,,,,,,,,,,,,,,,,,,,,,,,,,,,,,,,30,,,,,,,,1677.620706799964,1677.620706799964,1677.620706799964,1677.620706799964,1677.620706799964,up,4.16384829999879,0,0,0,99,0,-0.24,up,4.06904819997726,,,,,,,,,,,,,,,,,,,,,,,,,,,,,,,,,,,,,,,,,,,,,,,,,,,,,,,,,,,,FYQNRK,train_y,blue_star,bottom_left,2025-06-10_17h40.41.483,HideSeek_v1,2022.2.5,59.98915396916282,
,2,1,5,1,3,0,31,,train_dim1_2,1,30,,,,5,0,5,0,,,,,,,,,0,0,0,0,0,0,0,0,1,0,1,0,,,,,,,,,,,,,,,,,,,,,,,,,,,,,,,,,,,,,,,,,,,,,,,,,,,,,,,,,,,,,,,,30,,,,,,,,1681.7751402999857,1681.7751402999857,1681.7751402999857,1681.7751402999857,1681.7751402999857,up,0.559454399975948,0,0,0,99,0,-0.15999999999999998,up,0.48654830001760274,,,,,,,,,,,,,,,,,,,,,,,,,,,,,,,,,,,,,,,,,,,,,,,,,,,,,,,,,,,,FYQNRK,train_y,blue_star,bottom_left,2025-06-10_17h40.41.483,HideSeek_v1,2022.2.5,59.98915396916282,
,2,1,5,1,3,0,31,,train_dim1_2,1,30,,,,5,0,5,0,,,,,,,,,0,0,0,0,0,0,0,0,2,0,2,0,,,,,,,,,,,,,,,,,,,,,,,,,,,,,,,,,,,,,,,,,,,,,,,,,,,,,,,,,,,,,,,,30,,,,,,,,1682.340362899995,1682.340362899995,1682.340362899995,1682.340362899995,1682.340362899995,up,0.4600621999707073,0,0,0,99,0,-0.07999999999999997,up,0.3803648999892175,,,,,,,,,,,,,,,,,,,,,,,,,,,,,,,,,,,,,,,,,,,,,,,,,,,,,,,,,,,,FYQNRK,train_y,blue_star,bottom_left,2025-06-10_17h40.41.483,HideSeek_v1,2022.2.5,59.98915396916282,
,2,1,5,1,3,0,31,,train_dim1_2,1,30,,,,5,0,5,0,,,,,,,,,0,0,0,0,0,0,0,0,3,0,3,0,,,,,,,,,,,,,,,,,,,,,,,,,,,,,,,,,,,,,,,,,,,,,,,,,,,,,,,,,,,,,,,,30,,,,,,,,1682.8145062999683,1682.8145062999683,1682.8145062999683,1682.8145062999683,1682.8145062999683,return,0.5933840000070632,0,0,0,0,0,-0.07999999999999997,return,0.507387200021185,82,0,0,-0.07999999999999997,,,,,,,,,,,,,,,,,,,,,,,,,,,,,,,,,,,,,,,,,,,,,,,,,,,,,,,,FYQNRK,train_y,blue_star,bottom_left,2025-06-10_17h40.41.483,HideSeek_v1,2022.2.5,59.98915396916282,
,2,4,7,4,5,0,11,,train_dim1_2,2,30,,,,5,0,5,0,,,,,,,,,0,0,0,0,0,1,1,1,0,0,0,0,,,,,,,,,,,,,,,,,,,,,,,,,stimuli/alien_stimuli/11.png,,,,,,,,,,,,,,,,,,,,,,,,,,,,,stimuli/alien_stimuli/31.png,31,2,3,,,,,,,30,,,,,,,,1689.3462675999617,1689.3462675999617,1689.3462675999617,1689.3462675999617,1689.3462675999617,right,1.5869905999861658,0,0,0,99,0.08,-0.08,right,1.497592400002759,,,,,1687.7821442999993,1689.3462675999617,0.24,-0.32,0.0,0.24,-0.32,0.24,0.12,0.24,-0.32,1684.9820797999855,1684.9820797999855,1684.9820797999855,1684.9820797999855,1684.9820797999855,1684.9820797999855,1684.9820797999855,1684.9820797999855,1684.9631945899919,2.9210047000087798,return,2.7779320999979973,,,,,,,,,,,,,,,,,,,,,,,,,,,,,,,,,FYQNRK,train_y,blue_star,bottom_left,2025-06-10_17h40.41.483,HideSeek_v1,2022.2.5,59.98915396916282,
,2,4,7,4,5,0,11,,train_dim1_2,2,30,,,,5,0,5,0,,,,,,,,,0,0,0,0,0,1,1,1,1,0,1,0,,,,,,,,,,,,,,,,,,,,,,,,,,,,,,,,,,,,,,,,,,,,,,,,,,,,,,,,,,,,,,,,30,,,,,,,,1690.935125399963,1690.935125399963,1690.935125399963,1690.935125399963,1690.935125399963,right,0.5766382999718189,0,0,0,99,0.16,-0.08,right,0.4914962000329979,,,,,,,,,,,,,,,,,,,,,,,,,,,,,,,,,,,,,,,,,,,,,,,,,,,,,,,,,,,,FYQNRK,train_y,blue_star,bottom_left,2025-06-10_17h40.41.483,HideSeek_v1,2022.2.5,59.98915396916282,
,2,4,7,4,5,0,11,,train_dim1_2,2,30,,,,5,0,5,0,,,,,,,,,0,0,0,0,0,1,1,1,2,0,2,0,,,,,,,,,,,,,,,,,,,,,,,,,,,,,,,,,,,,,,,,,,,,,,,,,,,,,,,,,,,,,,,,30,,,,,,,,1691.5191134999623,1691.5191134999623,1691.5191134999623,1691.5191134999623,1691.5191134999623,right,1.2097339000320062,0,0,0,99,0.24,-0.08,right,1.1325437999912538,,,,,,,,,,,,,,,,,,,,,,,,,,,,,,,,,,,,,,,,,,,,,,,,,,,,,,,,,,,,FYQNRK,train_y,blue_star,bottom_left,2025-06-10_17h40.41.483,HideSeek_v1,2022.2.5,59.98915396916282,
,2,4,7,4,5,0,11,,train_dim1_2,2,30,,,,5,0,5,0,,,,,,,,,0,0,0,0,0,1,1,1,3,0,3,0,,,,,,,,,,,,,,,,,,,,,,,,,,,,,,,,,,,,,,,,,,,,,,,,,,,,,,,,,,,,,,,,30,,,,,,,,1692.7353192999726,1692.7353192999726,1692.7353192999726,1692.7353192999726,1692.7353192999726,right,0.727011900045909,0,0,0,99,0.32,-0.08,right,0.6435008000116795,,,,,,,,,,,,,,,,,,,,,,,,,,,,,,,,,,,,,,,,,,,,,,,,,,,,,,,,,,,,FYQNRK,train_y,blue_star,bottom_left,2025-06-10_17h40.41.483,HideSeek_v1,2022.2.5,59.98915396916282,
,2,4,7,4,5,0,11,,train_dim1_2,2,30,,,,5,0,5,0,,,,,,,,,0,0,0,0,0,1,1,1,4,0,4,0,,,,,,,,,,,,,,,,,,,,,,,,,,,,,,,,,,,,,,,,,,,,,,,,,,,,,,,,,,,,,,,,30,,,,,,,,1693.469500200008,1693.469500200008,1693.469500200008,1693.469500200008,1693.469500200008,right,1.0940089999930933,0,0,0,99,0.4,-0.08,right,1.0028172000311315,,,,,,,,,,,,,,,,,,,,,,,,,,,,,,,,,,,,,,,,,,,,,,,,,,,,,,,,,,,,FYQNRK,train_y,blue_star,bottom_left,2025-06-10_17h40.41.483,HideSeek_v1,2022.2.5,59.98915396916282,
,2,4,7,4,5,0,11,,train_dim1_2,2,30,,,,5,0,5,0,,,,,,,,,0,0,0,0,0,1,1,1,5,0,5,0,,,,,,,,,,,,,,,,,,,,,,,,,,,,,,,,,,,,,,,,,,,,,,,,,,,,,,,,,,,,,,,,30,,,,,,,,1694.5710375999915,1694.5710375999915,1694.5710375999915,1694.5710375999915,1694.5710375999915,return,0.5766949999961071,1,0,0,1,0.4,-0.08,return,0.4998679999844171,82,5,0.4,-0.08,,,,,,,,,,,,,,,,,,,,,,,,,,,,,,,,,,,,,,,,,,,,,,,,,,,,,,,,FYQNRK,train_y,blue_star,bottom_left,2025-06-10_17h40.41.483,HideSeek_v1,2022.2.5,59.98915396916282,
,4,4,8,4,4,0,21,,train_dim1_2,3,30,,,,5,0,5,0,,,,,,,,,0,0,0,0,0,2,2,2,0,0,0,0,,,,,,,,,,,,,,,,,,,,,,,,,stimuli/alien_stimuli/21.png,,,,,,,,,,,,,,,,,,,,,,,,,,,,,stimuli/alien_stimuli/11.png,11,2,4,,,,,,,30,,,,,,,,1699.2395470999763,1699.2395470999763,1699.2395470999763,1699.2395470999763,1699.2395470999763,right,3.139559499977622,1,0,0,99,0.24,-0.08,right,3.038880700012669,,,,,1697.6571138,1699.2395470999763,0.4,-0.08,0.0,0.4,-0.08,0.4,0.2,0.4,-0.08,1696.7294528000057,1696.7294528000057,1696.7294528000057,1696.7294528000057,1696.7294528000057,1696.7294528000057,1696.7294528000057,1696.7294528000057,1696.723052160011,1.0525149999884889,return,0.905895399977453,,,,,,,,,,,,,,,,,,,,,,,,,,,,,,,,,FYQNRK,train_y,blue_star,bottom_left,2025-06-10_17h40.41.483,HideSeek_v1,2022.2.5,59.98915396916282,
