trialInstr,x_fixStart,y_fixStart,x_corrSteps,y_corrSteps,x_nrSteps,y_nrSteps,alienID,trialLength,version,trialTrain,praclen,testlen,trial_label,break_on_off,beforeExpLoop.thisRepN,beforeExpLoop.thisTrialN,beforeExpLoop.thisN,beforeExpLoop.thisIndex,mini_instr_trials.thisRepN,mini_instr_trials.thisTrialN,mini_instr_trials.thisN,mini_instr_trials.thisIndex,instrLoop.thisRepN,instrLoop.thisTrialN,instrLoop.thisN,instrLoop.thisIndex,repeat_prac.thisRepN,repeat_prac.thisTrialN,repeat_prac.thisN,repeat_prac.thisIndex,trainLoop.thisRepN,trainLoop.thisTrialN,trainLoop.thisN,trainLoop.thisIndex,moveLoop_train.thisRepN,moveLoop_train.thisTrialN,moveLoop_train.thisN,moveLoop_train.thisIndex,experiment.thisRepN,experiment.thisTrialN,experiment.thisN,experiment.thisIndex,moveLoop_test.thisRepN,moveLoop_test.thisTrialN,moveLoop_test.thisN,moveLoop_test.thisIndex,mini_instr2_trials.thisRepN,mini_instr2_trials.thisTrialN,mini_instr2_trials.thisN,mini_instr2_trials.thisIndex,start_all_time,url,slideStim,audioStim,slides.started,sounds.started,nextButton.numClicks,nextButton.timesOn,nextButton.timesOff,prev_but.numClicks,prev_but.timesOn,prev_but.timesOff,alienStim,instrFile,alienStim_instr,gridImage_instr.started,startPos_3.started,key_instr.started,alienImage_3.started,sounds_1.started,key_instr.keys,key_instr.rt,all_x,all_y,FBy_corrSteps,FBy_fixStart,FBx_corrSteps,FBx_fixStart,FBy_pathSize_check,FBx_pathSize_check,gridImage_9.started,alienImageFB_3.started,startPosFB_3.started,keyFB_3.started,pathLine_ydir_2.started,pathLine_xdir_2.started,alienFace_3.started,sounds_2.started,RTFB_instr,keyFB_3.keys,keyFB_3.rt,draw_alienStim,draw_alienID,test_x,nrepcount,perfthres,percthres,earlierperf,earlystop,nextPrac,fileidx,praclen,saveACC_train,pracFile,nextPrac_train,addNrep,fileidx_endr,repExp,showearly,gridImage_4.started,startPos.started,movePos.started,key_resp.started,alienImage.started,buttonPress_train,RTchoice_train,cumAcctrain,aCorr,saveACC_choice,corrAns,x_movePos_end,y_movePos_end,key_resp.keys,key_resp.rt,wLy_dir,wLx_dir,x_movePos,y_movePos,text_2.started,text_2.stopped,aft_x_corrPos,aft_y_corrPos,y_pathSize_check,x_pathSize_check,y_pathdirY,x_pathdirY,x_pathdirX,x_corrPos,y_corrPos,gridImage_6.started,alienImageFB_2.started,startPosFB_2.started,movePosFB_2.started,keyFB_2.started,pathLine_xdir.started,pathLine_ydir.started,alienFace.started,sounds_4.started,RT_FBtrain,keyFB_2.keys,keyFB_2.rt,saveACC_pre,ACC,within_saveACC_train,earlystop_wloop,cumAcctrain_check,gridImage_3.started,alienImage_test.started,startPos_test.started,movePos_test.started,key_resp_test.started,wLy_dir_test,wLx_dir_test,buttonPress_test,RTchoice_test,cumAcctest,corrAns_test,key_resp_test.keys,key_resp_test.rt,text_3.started,text_3.stopped,total_time,end_all_time,key_resp_3.keys,slides_2.started,sounds_3.started,nextButton_2.numClicks,nextButton_2.timesOn,nextButton_2.timesOff,prev_but_2.numClicks,prev_but_2.timesOn,prev_but_2.timesOff,bye.started,participant,train_first,00_coordinate,starting corner,date,expName,psychopyVersion,frameRate,
,,,,,,,,,,,,,,,0,0,0,0,0,0,0,0,,,,,,,,,,,,,,,,,,,,,,,,,,,,,start_all_time,testround,conditions/schedules/train_y_first/blue_star_00/top_right/instructions/Slide1.png,conditions/schedules/train_y_first/blue_star_00/top_right/instructions/Audio1.wav,2096.0747366999276,2096.021993407281,1,[6.4841776001267135],[6.484189299866557],0,,,,,,,,,,,,,,,,,,,,,,,,,,,,,,,,,,,,,,,,,,,,,,,,,,,,,,,,,,,,,,,,,,,,,,,,,,,,,,,,,,,,,,,,,,,,,,,,,,,,,,,,,,,,,,,,,,,,,,,,,,,,G21ZJZ,train_y,blue_star,top_right,2025-04-29_15h30.50.818,HideSeek_v1,2022.2.5,59.44087535522214,
,,,,,,,,,,,,,,,0,0,0,0,1,0,1,0,,,,,,,,,,,,,,,,,,,,,,,,,,,,,,,conditions/schedules/train_y_first/blue_star_00/top_right/instructions/Slide2.png,conditions/schedules/train_y_first/blue_star_00/top_right/instructions/Audio2.wav,2102.5783188003115,2102.5799515002873,2,"[6.4841776001267135, 18.53168909996748]","[0.00021189963445067406, 18.531696299556643]",0,,,,,,,,,,,,,,,,,,,,,,,,,,,,,,,,,,,,,,,,,,,,,,,,,,,,,,,,,,,,,,,,,,,,,,,,,,,,,,,,,,,,,,,,,,,,,,,,,,,,,,,,,,,,,,,,,,,,,,,,,,,,G21ZJZ,train_y,blue_star,top_right,2025-04-29_15h30.50.818,HideSeek_v1,2022.2.5,59.44087535522214,
,,,,,,,,,,,,,,,0,0,0,0,2,0,2,0,,,,,,,,,,,,,,,,,,,,,,,,,,,,,,,conditions/schedules/train_y_first/blue_star_00/top_right/instructions/Slide3.png,conditions/schedules/train_y_first/blue_star_00/top_right/instructions/Audio3.wav,2121.183151999954,2121.1789099003654,3,"[6.4841776001267135, 18.53168909996748, 20.926866500172764]","[0.00021189963445067406, 0.013855400029569864, 20.926873200107366]",0,,,,,,,,,,,,,,,,,,,,,,,,,,,,,,,,,,,,,,,,,,,,,,,,,,,,,,,,,,,,,,,,,,,,,,,,,,,,,,,,,,,,,,,,,,,,,,,,,,,,,,,,,,,,,,,,,,,,,,,,,,,,G21ZJZ,train_y,blue_star,top_right,2025-04-29_15h30.50.818,HideSeek_v1,2022.2.5,59.44087535522214,
,,,,,,,,,,,,,,,0,0,0,0,3,0,3,0,,,,,,,,,,,,,,,,,,,,,,,,,,,,,,,conditions/schedules/train_y_first/blue_star_00/top_right/instructions/Slide4.png,conditions/schedules/train_y_first/blue_star_00/top_right/instructions/Audio4.wav,2142.1886971001513,2142.179519600002,4,"[6.4841776001267135, 18.53168909996748, 20.926866500172764, 19.288309599738568]","[0.00021189963445067406, 0.013855400029569864, 0.00022109970450401306, 19.288316200021654]",0,,,,,,,,,,,,,,,,,,,,,,,,,,,,,,,,,,,,,,,,,,,,,,,,,,,,,,,,,,,,,,,,,,,,,,,,,,,,,,,,,,,,,,,,,,,,,,,,,,,,,,,,,,,,,,,,,,,,,,,,,,,,G21ZJZ,train_y,blue_star,top_right,2025-04-29_15h30.50.818,HideSeek_v1,2022.2.5,59.44087535522214,
,,,,,,,,,,,,,,,0,0,0,0,4,0,4,0,,,,,,,,,,,,,,,,,,,,,,,,,,,,,,,conditions/schedules/train_y_first/blue_star_00/top_right/instructions/Slide5.png,conditions/schedules/train_y_first/blue_star_00/top_right/instructions/Audio5.wav,2161.5415356000885,2161.529174940381,5,"[6.4841776001267135, 18.53168909996748, 20.926866500172764, 19.288309599738568, 4.355491099879146]","[0.00021189963445067406, 0.013855400029569864, 0.00022109970450401306, 0.10146600008010864, 4.355499099940062]",0,,,,,,,,,,,,,,,,,,,,,,,,,,,,,,,,,,,,,,,,,,,,,,,,,,,,,,,,,,,,,,,,,,,,,,,,,,,,,,,,,,,,,,,,,,,,,,,,,,,,,,,,,,,,,,,,,,,,,,,,,,,,G21ZJZ,train_y,blue_star,top_right,2025-04-29_15h30.50.818,HideSeek_v1,2022.2.5,59.44087535522214,
,,,,,,,,,,,,,,,0,0,0,0,5,0,5,0,,,,,,,,,,,,,,,,,,,,,,,,,,,,,,,conditions/schedules/train_y_first/blue_star_00/top_right/instructions/Slide6.png,conditions/schedules/train_y_first/blue_star_00/top_right/instructions/Audio6.wav,2165.9474371001124,2165.9494269403626,6,"[6.4841776001267135, 18.53168909996748, 20.926866500172764, 19.288309599738568, 4.355491099879146, 4.570061199832708]","[0.00021189963445067406, 0.013855400029569864, 0.00022109970450401306, 0.10146600008010864, 0.03272989997640252, 4.570068399887532]",0,,,,,,,,,,,,,,,,,,,,,,,,,,,,,,,,,,,,,,,,,,,,,,,,,,,,,,,,,,,,,,,,,,,,,,,,,,,,,,,,,,,,,,,,,,,,,,,,,,,,,,,,,,,,,,,,,,,,,,,,,,,,G21ZJZ,train_y,blue_star,top_right,2025-04-29_15h30.50.818,HideSeek_v1,2022.2.5,59.44087535522214,
,,,,,,,,,,,,,,,0,0,0,0,6,0,6,0,,,,,,,,,,,,,,,,,,,,,,,,,,,,,,,conditions/schedules/train_y_first/blue_star_00/top_right/instructions/Slide7.png,conditions/schedules/train_y_first/blue_star_00/top_right/instructions/Audio7.wav,2170.5683005000465,2170.56969534019,7,"[6.4841776001267135, 18.53168909996748, 20.926866500172764, 19.288309599738568, 4.355491099879146, 4.570061199832708, 6.287330999970436]","[0.00021189963445067406, 0.013855400029569864, 0.00022109970450401306, 0.10146600008010864, 0.03272989997640252, 0.04855460021644831, 6.287337600253522]",0,,,,,,,,,,,,,,,,,,,,,,,,,,,,,,,,,,,,,,,,,,,,,,,,,,,,,,,,,,,,,,,,,,,,,,,,,,,,,,,,,,,,,,,,,,,,,,,,,,,,,,,,,,,,,,,,,,,,,,,,,,,,G21ZJZ,train_y,blue_star,top_right,2025-04-29_15h30.50.818,HideSeek_v1,2022.2.5,59.44087535522214,
,,,,,,,,,,,,,,,0,0,0,0,7,0,7,0,,,,,,,,,,,,,,,,,,,,,,,,,,,,,,,conditions/schedules/train_y_first/blue_star_00/top_right/instructions/Slide8.png,conditions/schedules/train_y_first/blue_star_00/top_right/instructions/Audio8.wav,2176.909045400098,2176.9084570400414,8,"[6.4841776001267135, 18.53168909996748, 20.926866500172764, 19.288309599738568, 4.355491099879146, 4.570061199832708, 6.287330999970436, 12.340364900417626]","[0.00021189963445067406, 0.013855400029569864, 0.00022109970450401306, 0.10146600008010864, 0.03272989997640252, 0.04855460021644831, 0.04691260028630495, 12.340371500235051]",0,,,,,,,,,,,,,,,,,,,,,,,,,,,,,,,,,,,,,,,,,,,,,,,,,,,,,,,,,,,,,,,,,,,,,,,,,,,,,,,,,,,,,,,,,,,,,,,,,,,,,,,,,,,,,,,,,,,,,,,,,,,,G21ZJZ,train_y,blue_star,top_right,2025-04-29_15h30.50.818,HideSeek_v1,2022.2.5,59.44087535522214,
,,,,,,,,,,,,,,,0,0,0,0,8,0,8,0,,,,,,,,,,,,,,,,,,,,,,,,,,,,,,,conditions/schedules/train_y_first/blue_star_00/top_right/instructions/Slide9.png,conditions/schedules/train_y_first/blue_star_00/top_right/instructions/Audio9.wav,2189.313451600261,2189.3018995399584,9,"[6.4841776001267135, 18.53168909996748, 20.926866500172764, 19.288309599738568, 4.355491099879146, 4.570061199832708, 6.287330999970436, 12.340364900417626, 6.057663700077683]","[0.00021189963445067406, 0.013855400029569864, 0.00022109970450401306, 0.10146600008010864, 0.03272989997640252, 0.04855460021644831, 0.04691260028630495, 0.03609579987823963, 6.057670299895108]",0,,,,,,,,,,,,,,,,,,,,,,,,,,,,,,,,,,,,,,,,,,,,,,,,,,,,,,,,,,,,,,,,,,,,,,,,,,,,,,,,,,,,,,,,,,,,,,,,,,,,,,,,,,,,,,,,,,,,,,,,,,,,G21ZJZ,train_y,blue_star,top_right,2025-04-29_15h30.50.818,HideSeek_v1,2022.2.5,59.44087535522214,
,,,,,,,,,,,,,,,0,0,0,0,9,0,9,0,,,,,,,,,,,,,,,,,,,,,,,,,,,,,,,conditions/schedules/train_y_first/blue_star_00/top_right/instructions/Slide10.png,conditions/schedules/train_y_first/blue_star_00/top_right/instructions/Audio10.wav,2195.4181663999334,2195.4070989802944,10,"[6.4841776001267135, 18.53168909996748, 20.926866500172764, 19.288309599738568, 4.355491099879146, 4.570061199832708, 6.287330999970436, 12.340364900417626, 6.057663700077683, 6.841749100014567]","[0.00021189963445067406, 0.013855400029569864, 0.00022109970450401306, 0.10146600008010864, 0.03272989997640252, 0.04855460021644831, 0.04691260028630495, 0.03609579987823963, 0.05306100007146597, 6.841755399946123]",0,,,,,,,,,,,,,,,,,,,,,,,,,,,,,,,,,,,,,,,,,,,,,,,,,,,,,,,,,,,,,,,,,,,,,,,,,,,,,,,,,,,,,,,,,,,,,,,,,,,,,,,,,,,,,,,,,,,,,,,,,,,,G21ZJZ,train_y,blue_star,top_right,2025-04-29_15h30.50.818,HideSeek_v1,2022.2.5,59.44087535522214,
,,,,,,,,,,,,,,,0,0,0,0,10,0,10,0,,,,,,,,,,,,,,,,,,,,,,,,,,,,,,,conditions/schedules/train_y_first/blue_star_00/top_right/instructions/Slide11.png,conditions/schedules/train_y_first/blue_star_00/top_right/instructions/Audio11.wav,2202.2997624999844,2202.296228080196,11,"[6.4841776001267135, 18.53168909996748, 20.926866500172764, 19.288309599738568, 4.355491099879146, 4.570061199832708, 6.287330999970436, 12.340364900417626, 6.057663700077683, 6.841749100014567, 10.719475500285625]","[0.00021189963445067406, 0.013855400029569864, 0.00022109970450401306, 0.10146600008010864, 0.03272989997640252, 0.04855460021644831, 0.04691260028630495, 0.03609579987823963, 0.05306100007146597, 0.06228730035945773, 10.719482500106096]",0,,,,,,,,,,,,,,,,,,,,,,,,,,,,,,,,,,,,,,,,,,,,,,,,,,,,,,,,,,,,,,,,,,,,,,,,,,,,,,,,,,,,,,,,,,,,,,,,,,,,,,,,,,,,,,,,,,,,,,,,,,,,G21ZJZ,train_y,blue_star,top_right,2025-04-29_15h30.50.818,HideSeek_v1,2022.2.5,59.44087535522214,
,,,,,,,,,,,,,,,0,0,0,0,11,0,11,0,,,,,,,,,,,,,,,,,,,,,,,,,,,,,,,conditions/schedules/train_y_first/blue_star_00/top_right/instructions/Slide12.png,conditions/schedules/train_y_first/blue_star_00/top_right/instructions/Audio12.wav,2213.1173709002323,2213.105187860131,12,"[6.4841776001267135, 18.53168909996748, 20.926866500172764, 19.288309599738568, 4.355491099879146, 4.570061199832708, 6.287330999970436, 12.340364900417626, 6.057663700077683, 6.841749100014567, 10.719475500285625, 13.83222009986639]","[0.00021189963445067406, 0.013855400029569864, 0.00022109970450401306, 0.10146600008010864, 0.03272989997640252, 0.04855460021644831, 0.04691260028630495, 0.03609579987823963, 0.05306100007146597, 0.06228730035945773, 0.037486199755221605, 13.832227099686861]",0,,,,,,,,,,,,,,,,,,,,,,,,,,,,,,,,,,,,,,,,,,,,,,,,,,,,,,,,,,,,,,,,,,,,,,,,,,,,,,,,,,,,,,,,,,,,,,,,,,,,,,,,,,,,,,,,,,,,,,,,,,,,G21ZJZ,train_y,blue_star,top_right,2025-04-29_15h30.50.818,HideSeek_v1,2022.2.5,59.44087535522214,
1,5,8,5,3,0,-5,66,2,instr_dim1_1,,,,,,0,0,0,0,,,,,0,0,0,0,,,,,,,,,,,,,,,,,,,,,,,,,,,,,,,,,,,,,stimuli/alien_stimuli/66.png,conditions/schedules/train_y_first/blue_star_00/top_right/inputInstr_1.xlsx,stimuli/alien_stimuli/66.png,2227.048386100214,2227.048386100214,2227.048386100214,2227.048386100214,2227.0501395201773,return,8.773833999875933,"[-0.16, -0.08, 0, 0.08, 0.16, 0.24, 0.32, 0.4, 0.48, 0.56]","[-0.4, -0.32, -0.24, -0.16, -0.08, 0, 0.08, 0.16, 0.24, 0.32]",3,8,5,5,0.4,0.0,2235.9670025003143,2235.9670025003143,2235.9670025003143,2235.9670025003143,2235.9670025003143,2235.9670025003143,2235.9670025003143,2235.957371880207,11.443708799779415,return,11.298582999967039,stimuli/alien_stimuli/66.png,66,5,1,,,,,,,,,,,,,,,,,,,,,,,,,,,,,,,,,,,,,,,,,,,,,,,,,,,,,,,,,,,,,,,,,,,,,,,,,,,,,,,,,,,,,,,,,G21ZJZ,train_y,blue_star,top_right,2025-04-29_15h30.50.818,HideSeek_v1,2022.2.5,59.44087535522214,
,,,,,,,,,,,30,,,,0,0,0,0,,,,,,,,,,,,,,,,,,,,,,,,,,,,,,,,,,,,,,,,,,,,,,,,,,,,,,,,,,,,,,,,,,,,,,,,,,,,,,21,0.7,0,0,99,1,30,0,conditions/schedules/train_y_first/blue_star_00/top_right/inputTrain_1.1.xlsx,99,1,1,1,0,,,,,,,,,,,,,,,,,,,,,,,,,,,,,,,,,,,,,,,,,,,,,,,,,,,,,,,,,,,,,,,,,,,,,,,,,,,G21ZJZ,train_y,blue_star,top_right,2025-04-29_15h30.50.818,HideSeek_v1,2022.2.5,59.44087535522214,
,,,,,,,,,,,,,,,1,0,1,0,0,0,0,0,,,,,,,,,,,,,,,,,,,,,,,,,,,,,,,conditions/schedules/train_y_first/blue_star_00/top_right/instructions/Slide13.png,conditions/schedules/train_y_first/blue_star_00/top_right/instructions/Audio13.wav,2247.4285758999176,2247.4169555403755,13,"[6.4841776001267135, 18.53168909996748, 20.926866500172764, 19.288309599738568, 4.355491099879146, 4.570061199832708, 6.287330999970436, 12.340364900417626, 6.057663700077683, 6.841749100014567, 10.719475500285625, 13.83222009986639, 17.717409300152212]","[0.00021189963445067406, 0.013855400029569864, 0.00022109970450401306, 0.10146600008010864, 0.03272989997640252, 0.04855460021644831, 0.04691260028630495, 0.03609579987823963, 0.05306100007146597, 0.06228730035945773, 0.037486199755221605, 13.832227099686861, 17.717416000086814]",0,,,,,,,,,,,,,,,,,,,,,,,,,,,,,,,,,,,,,,,,,,,,,,,,,,,,,,,,,,,,,,,,,,,,,,,,,,,,,,,,,,,,,,,,,,,,,,,,,,,,,,,,,,,,,,,,,,,,,,,,,,,,G21ZJZ,train_y,blue_star,top_right,2025-04-29_15h30.50.818,HideSeek_v1,2022.2.5,59.44087535522214,
,,,,,,,,,,,,,,,1,0,1,0,1,0,1,0,,,,,,,,,,,,,,,,,,,,,,,,,,,,,,,conditions/schedules/train_y_first/blue_star_00/top_right/instructions/Slide14.png,conditions/schedules/train_y_first/blue_star_00/top_right/instructions/Audio14.wav,2265.2204940998927,2265.2154584003147,14,"[6.4841776001267135, 18.53168909996748, 20.926866500172764, 19.288309599738568, 4.355491099879146, 4.570061199832708, 6.287330999970436, 12.340364900417626, 6.057663700077683, 6.841749100014567, 10.719475500285625, 13.83222009986639, 17.717409300152212, 29.583193299826235]","[0.00021189963445067406, 0.013855400029569864, 0.00022109970450401306, 0.10146600008010864, 0.03272989997640252, 0.04855460021644831, 0.04691260028630495, 0.03609579987823963, 0.05306100007146597, 0.06228730035945773, 0.037486199755221605, 13.832227099686861, 0.17527339980006218, 29.58320049988106]",0,,,,,,,,,,,,,,,,,,,,,,,,,,,,,,,,,,,,,,,,,,,,,,,,,,,,,,,,,,,,,,,,,,,,,,,,,,,,,,,,,,,,,,,,,,,,,,,,,,,,,,,,,,,,,,,,,,,,,,,,,,,,G21ZJZ,train_y,blue_star,top_right,2025-04-29_15h30.50.818,HideSeek_v1,2022.2.5,59.44087535522214,
2,7,8,7,8,0,0,61,2,instr_dim1_1,,,,,,1,0,1,0,,,,,0,0,0,0,,,,,,,,,,,,,,,,,,,,,,,,,,,,,,,,,,,,,stimuli/alien_stimuli/61.png,conditions/schedules/train_y_first/blue_star_00/top_right/inputInstr_1.xlsx,stimuli/alien_stimuli/61.png,2294.8960287002847,2294.8960287002847,2294.8960287002847,2294.8960287002847,2294.889635560382,return,6.517887799534947,"[-0.16, -0.08, 0, 0.08, 0.16, 0.24, 0.32, 0.4, 0.48, 0.56]","[-0.4, -0.32, -0.24, -0.16, -0.08, 0, 0.08, 0.16, 0.24, 0.32]",8,8,7,7,0.0,0.0,2301.565543100238,2301.565543100238,2301.565543100238,2301.565543100238,2301.565543100238,2301.565543100238,2301.565543100238,2301.561678280495,8.708361399825662,return,8.565133200027049,stimuli/alien_stimuli/61.png,61,7,2,,,,,,,,,,,,,,,,,,,,,,,,,,,,,,,,,,,,,,,,,,,,,,,,,,,,,,,,,,,,,,,,,,,,,,,,,,,,,,,,,,,,,,,,,G21ZJZ,train_y,blue_star,top_right,2025-04-29_15h30.50.818,HideSeek_v1,2022.2.5,59.44087535522214,
,,,,,,,,,,,30,,,,1,0,1,0,,,,,,,,,,,,,,,,,,,,,,,,,,,,,,,,,,,,,,,,,,,,,,,,,,,,,,,,,,,,,,,,,,,,,,,,,,,,,,21,0.7,0,0,99,1,30,0,conditions/schedules/train_y_first/blue_star_00/top_right/inputTrain_1.1.xlsx,99,1,1,1,0,,,,,,,,,,,,,,,,,,,,,,,,,,,,,,,,,,,,,,,,,,,,,,,,,,,,,,,,,,,,,,,,,,,,,,,,,,,G21ZJZ,train_y,blue_star,top_right,2025-04-29_15h30.50.818,HideSeek_v1,2022.2.5,59.44087535522214,
,,,,,,,,,,,,,,,2,0,2,0,0,0,0,0,,,,,,,,,,,,,,,,,,,,,,,,,,,,,,,conditions/schedules/train_y_first/blue_star_00/top_right/instructions/Slide15.png,conditions/schedules/train_y_first/blue_star_00/top_right/instructions/Audio15.wav,2310.289233600255,2310.2856006402985,15,"[6.4841776001267135, 18.53168909996748, 20.926866500172764, 19.288309599738568, 4.355491099879146, 4.570061199832708, 6.287330999970436, 12.340364900417626, 6.057663700077683, 6.841749100014567, 10.719475500285625, 13.83222009986639, 17.717409300152212, 29.583193299826235, 42.946546600200236]","[0.00021189963445067406, 0.013855400029569864, 0.00022109970450401306, 0.10146600008010864, 0.03272989997640252, 0.04855460021644831, 0.04691260028630495, 0.03609579987823963, 0.05306100007146597, 0.06228730035945773, 0.037486199755221605, 13.832227099686861, 0.17527339980006218, 29.58320049988106, 42.94655290013179]",0,,,,,,,,,,,,,,,,,,,,,,,,,,,,,,,,,,,,,,,,,,,,,,,,,,,,,,,,,,,,,,,,,,,,,,,,,,,,,,,,,,,,,,,,,,,,,,,,,,,,,,,,,,,,,,,,,,,,,,,,,,,,G21ZJZ,train_y,blue_star,top_right,2025-04-29_15h30.50.818,HideSeek_v1,2022.2.5,59.44087535522214,
,,,,,,,,,,,,,,,2,0,2,0,1,0,1,0,,,,,,,,,,,,,,,,,,,,,,,,,,,,,,,conditions/schedules/train_y_first/blue_star_00/top_right/instructions/Slide16.png,conditions/schedules/train_y_first/blue_star_00/top_right/instructions/Audio16.wav,2353.3085731999017,2353.305771399988,16,"[6.4841776001267135, 18.53168909996748, 20.926866500172764, 19.288309599738568, 4.355491099879146, 4.570061199832708, 6.287330999970436, 12.340364900417626, 6.057663700077683, 6.841749100014567, 10.719475500285625, 13.83222009986639, 17.717409300152212, 29.583193299826235, 42.946546600200236, 22.529732800088823]","[0.00021189963445067406, 0.013855400029569864, 0.00022109970450401306, 0.10146600008010864, 0.03272989997640252, 0.04855460021644831, 0.04691260028630495, 0.03609579987823963, 0.05306100007146597, 0.06228730035945773, 0.037486199755221605, 13.832227099686861, 0.17527339980006218, 29.58320049988106, 0.0002586999908089638, 22.5297396001406]",0,,,,,,,,,,,,,,,,,,,,,,,,,,,,,,,,,,,,,,,,,,,,,,,,,,,,,,,,,,,,,,,,,,,,,,,,,,,,,,,,,,,,,,,,,,,,,,,,,,,,,,,,,,,,,,,,,,,,,,,,,,,,G21ZJZ,train_y,blue_star,top_right,2025-04-29_15h30.50.818,HideSeek_v1,2022.2.5,59.44087535522214,
,5,5,5,1,0,-4,65,,train_dim1_1,1,30,,,,2,0,2,0,,,,,,,,,0,0,0,0,0,0,0,0,0,0,0,0,,,,,,,,,,,,,,,,,,,,,,,,,stimuli/alien_stimuli/65.png,,,,,,,,,,,,,,,,,,,,,,,,,,,,,,,,,,,,,,,30,,,,,,,,2375.9391049002297,2375.9391049002297,2375.9391049002297,2375.9391049002297,2375.9391049002297,down,12.421492799650878,0,0,0,99,0.24,-0.08,down,12.329123599920422,,,,,,,,,,,,,,,,,,,,,,,,,,,,,,,,,,,,,,,,,,,,,,,,,,,,,,,,,,,,G21ZJZ,train_y,blue_star,top_right,2025-04-29_15h30.50.818,HideSeek_v1,2022.2.5,59.44087535522214,
,5,5,5,1,0,-4,65,,train_dim1_1,1,30,,,,2,0,2,0,,,,,,,,,0,0,0,0,0,0,0,0,1,0,1,0,,,,,,,,,,,,,,,,,,,,,,,,,,,,,,,,,,,,,,,,,,,,,,,,,,,,,,,,,,,,,,,,30,,,,,,,,2388.3661974002607,2388.3661974002607,2388.3661974002607,2388.3661974002607,2388.3661974002607,down,0.9599774000234902,0,0,0,99,0.24,-0.16,down,0.853524699807167,,,,,,,,,,,,,,,,,,,,,,,,,,,,,,,,,,,,,,,,,,,,,,,,,,,,,,,,,,,,G21ZJZ,train_y,blue_star,top_right,2025-04-29_15h30.50.818,HideSeek_v1,2022.2.5,59.44087535522214,
,5,5,5,1,0,-4,65,,train_dim1_1,1,30,,,,2,0,2,0,,,,,,,,,0,0,0,0,0,0,0,0,2,0,2,0,,,,,,,,,,,,,,,,,,,,,,,,,,,,,,,,,,,,,,,,,,,,,,,,,,,,,,,,,,,,,,,,30,,,,,,,,2389.314226699993,2389.314226699993,2389.314226699993,2389.314226699993,2389.314226699993,down,3.295337100047618,0,0,0,99,0.24,-0.24,down,3.2186109996400774,,,,,,,,,,,,,,,,,,,,,,,,,,,,,,,,,,,,,,,,,,,,,,,,,,,,,,,,,,,,G21ZJZ,train_y,blue_star,top_right,2025-04-29_15h30.50.818,HideSeek_v1,2022.2.5,59.44087535522214,
,5,5,5,1,0,-4,65,,train_dim1_1,1,30,,,,2,0,2,0,,,,,,,,,0,0,0,0,0,0,0,0,3,0,3,0,,,,,,,,,,,,,,,,,,,,,,,,,,,,,,,,,,,,,,,,,,,,,,,,,,,,,,,,,,,,,,,,30,,,,,,,,2392.6168140000664,2392.6168140000664,2392.6168140000664,2392.6168140000664,2392.6168140000664,down,4.163546199910343,0,0,0,99,0.24,-0.32,down,4.0831967000849545,,,,,,,,,,,,,,,,,,,,,,,,,,,,,,,,,,,,,,,,,,,,,,,,,,,,,,,,,,,,G21ZJZ,train_y,blue_star,top_right,2025-04-29_15h30.50.818,HideSeek_v1,2022.2.5,59.44087535522214,
,5,5,5,1,0,-4,65,,train_dim1_1,1,30,,,,2,0,2,0,,,,,,,,,0,0,0,0,0,0,0,0,4,0,4,0,,,,,,,,,,,,,,,,,,,,,,,,,,,,,,,,,,,,,,,,,,,,,,,,,,,,,,,,,,,,,,,,30,,,,,,,,2396.7879588999785,2396.7879588999785,2396.7879588999785,2396.7879588999785,2396.7879588999785,return,6.314722899813205,1,0,0,1,0.24,-0.32,return,6.2306122998707,-4,0,0.24,-0.32,,,,,,,,,,,,,,,,,,,,,,,,,,,,,,,,,,,,,,,,,,,,,,,,,,,,,,,,G21ZJZ,train_y,blue_star,top_right,2025-04-29_15h30.50.818,HideSeek_v1,2022.2.5,59.44087535522214,
,8,7,8,2,0,-5,66,,train_dim1_1,2,30,,,,2,0,2,0,,,,,,,,,0,0,0,0,0,1,1,1,0,0,0,0,,,,,,,,,,,,,,,,,,,,,,,,,stimuli/alien_stimuli/66.png,,,,,,,,,,,,,,,,,,,,,,,,,,,,,stimuli/alien_stimuli/65.png,65,5,3,,,,,,,30,,,,,,,,2424.3856585002504,2424.3856585002504,2424.3856585002504,2424.3856585002504,2424.3856585002504,left,5.675762100145221,1,0,0,99,0.39999999999999997,0.16,left,5.577981899958104,,,,,2422.812483599875,2424.3856585002504,0.24,-0.32,0.32,0.0,-0.16,0.24,0.24,0.24,-0.32,2404.688213699963,2404.688213699963,2404.688213699963,2404.688213699963,2404.688213699963,2404.688213699963,2404.688213699963,2404.688213699963,2404.681031380221,18.2504441998899,return,18.09376489976421,,,,,,,,,,,,,,,,,,,,,,,,,,,,,,,,,G21ZJZ,train_y,blue_star,top_right,2025-04-29_15h30.50.818,HideSeek_v1,2022.2.5,59.44087535522214,
,8,7,8,2,0,-5,66,,train_dim1_1,2,30,,,,2,0,2,0,,,,,,,,,0,0,0,0,0,1,1,1,1,0,1,0,,,,,,,,,,,,,,,,,,,,,,,,,,,,,,,,,,,,,,,,,,,,,,,,,,,,,,,,,,,,,,,,30,,,,,,,,2430.0492720999755,2430.0492720999755,2430.0492720999755,2430.0492720999755,2430.0492720999755,left,0.9429772002622485,1,0,0,99,0.31999999999999995,0.16,left,0.8551735999062657,,,,,,,,,,,,,,,,,,,,,,,,,,,,,,,,,,,,,,,,,,,,,,,,,,,,,,,,,,,,G21ZJZ,train_y,blue_star,top_right,2025-04-29_15h30.50.818,HideSeek_v1,2022.2.5,59.44087535522214,
,8,7,8,2,0,-5,66,,train_dim1_1,2,30,,,,2,0,2,0,,,,,,,,,0,0,0,0,0,1,1,1,2,0,2,0,,,,,,,,,,,,,,,,,,,,,,,,,,,,,,,,,,,,,,,,,,,,,,,,,,,,,,,,,,,,,,,,30,,,,,,,,2430.998840900138,2430.998840900138,2430.998840900138,2430.998840900138,2430.998840900138,left,1.0438073999248445,1,0,0,99,0.23999999999999994,0.16,left,0.9611146999523044,,,,,,,,,,,,,,,,,,,,,,,,,,,,,,,,,,,,,,,,,,,,,,,,,,,,,,,,,,,,G21ZJZ,train_y,blue_star,top_right,2025-04-29_15h30.50.818,HideSeek_v1,2022.2.5,59.44087535522214,
,8,7,8,2,0,-5,66,,train_dim1_1,2,30,,,,2,0,2,0,,,,,,,,,0,0,0,0,0,1,1,1,3,0,3,0,,,,,,,,,,,,,,,,,,,,,,,,,,,,,,,,,,,,,,,,,,,,,,,,,,,,,,,,,,,,,,,,30,,,,,,,,2432.050433100201,2432.050433100201,2432.050433100201,2432.050433100201,2432.050433100201,left,0.9435266000218689,1,0,0,99,0.15999999999999992,0.16,left,0.8687551999464631,,,,,,,,,,,,,,,,,,,,,,,,,,,,,,,,,,,,,,,,,,,,,,,,,,,,,,,,,,,,G21ZJZ,train_y,blue_star,top_right,2025-04-29_15h30.50.818,HideSeek_v1,2022.2.5,59.44087535522214,
,8,7,8,2,0,-5,66,,train_dim1_1,2,30,,,,2,0,2,0,,,,,,,,,0,0,0,0,0,1,1,1,4,0,4,0,,,,,,,,,,,,,,,,,,,,,,,,,,,,,,,,,,,,,,,,,,,,,,,,,,,,,,,,,,,,,,,,30,,,,,,,,2433.002603800036,2433.002603800036,2433.002603800036,2433.002603800036,2433.002603800036,down,2.4600885999388993,1,0,0,99,0.15999999999999992,0.08,down,2.3809120999649167,,,,,,,,,,,,,,,,,,,,,,,,,,,,,,,,,,,,,,,,,,,,,,,,,,,,,,,,,,,,G21ZJZ,train_y,blue_star,top_right,2025-04-29_15h30.50.818,HideSeek_v1,2022.2.5,59.44087535522214,
,8,7,8,2,0,-5,66,,train_dim1_1,2,30,,,,2,0,2,0,,,,,,,,,0,0,0,0,0,1,1,1,5,0,5,0,,,,,,,,,,,,,,,,,,,,,,,,,,,,,,,,,,,,,,,,,,,,,,,,,,,,,,,,,,,,,,,,30,,,,,,,,2435.4701852998696,2435.4701852998696,2435.4701852998696,2435.4701852998696,2435.4701852998696,down,1.39348219987005,1,0,0,99,0.15999999999999992,0.0,down,1.3079920997843146,,,,,,,,,,,,,,,,,,,,,,,,,,,,,,,,,,,,,,,,,,,,,,,,,,,,,,,,,,,,G21ZJZ,train_y,blue_star,top_right,2025-04-29_15h30.50.818,HideSeek_v1,2022.2.5,59.44087535522214,
,8,7,8,2,0,-5,66,,train_dim1_1,2,30,,,,2,0,2,0,,,,,,,,,0,0,0,0,0,1,1,1,6,0,6,0,,,,,,,,,,,,,,,,,,,,,,,,,,,,,,,,,,,,,,,,,,,,,,,,,,,,,,,,,,,,,,,,30,,,,,,,,2436.8708732002415,2436.8708732002415,2436.8708732002415,2436.8708732002415,2436.8708732002415,left,4.780224799644202,1,0,0,99,0.07999999999999992,0.0,left,4.692170299589634,,,,,,,,,,,,,,,,,,,,,,,,,,,,,,,,,,,,,,,,,,,,,,,,,,,,,,,,,,,,G21ZJZ,train_y,blue_star,top_right,2025-04-29_15h30.50.818,HideSeek_v1,2022.2.5,59.44087535522214,
,8,7,8,2,0,-5,66,,train_dim1_1,2,30,,,,2,0,2,0,,,,,,,,,0,0,0,0,0,1,1,1,7,0,7,0,,,,,,,,,,,,,,,,,,,,,,,,,,,,,,,,,,,,,,,,,,,,,,,,,,,,,,,,,,,,,,,,30,,,,,,,,2441.6594483000226,2441.6594483000226,2441.6594483000226,2441.6594483000226,2441.6594483000226,down,3.945594400167465,1,0,0,99,0.07999999999999992,-0.08,down,3.869685399811715,,,,,,,,,,,,,,,,,,,,,,,,,,,,,,,,,,,,,,,,,,,,,,,,,,,,,,,,,,,,G21ZJZ,train_y,blue_star,top_right,2025-04-29_15h30.50.818,HideSeek_v1,2022.2.5,59.44087535522214,
,8,7,8,2,0,-5,66,,train_dim1_1,2,30,,,,2,0,2,0,,,,,,,,,0,0,0,0,0,1,1,1,8,0,8,0,,,,,,,,,,,,,,,,,,,,,,,,,,,,,,,,,,,,,,,,,,,,,,,,,,,,,,,,,,,,,,,,30,,,,,,,,2445.6108301999047,2445.6108301999047,2445.6108301999047,2445.6108301999047,2445.6108301999047,return,1.4438756997697055,1,0,0,0,0.07999999999999992,-0.08,return,1.3640232998877764,-7,-5,0.07999999999999992,-0.08,,,,,,,,,,,,,,,,,,,,,,,,,,,,,,,,,,,,,,,,,,,,,,,,,,,,,,,,G21ZJZ,train_y,blue_star,top_right,2025-04-29_15h30.50.818,HideSeek_v1,2022.2.5,59.44087535522214,
,7,8,7,5,0,-3,64,,train_dim1_1,3,30,,,,2,0,2,0,,,,,,,,,0,0,0,0,0,2,2,2,0,0,0,0,,,,,,,,,,,,,,,,,,,,,,,,,stimuli/alien_stimuli/64.png,,,,,,,,,,,,,,,,,,,,,,,,,,,,,stimuli/alien_stimuli/66.png,66,8,4,,,,,,,30,,,,,,,,2472.9216344002634,2472.9216344002634,2472.9216344002634,2472.9216344002634,2472.9216344002634,left,8.40773469954729,1,0,0,99,0.32,0.24,left,8.308447899762541,,,,,2471.3527756999247,2472.9216344002634,0.48,-0.24,0.4,0.0,-0.039999999999999994,0.48,0.48,0.48,-0.24,2448.6289631002583,2448.6289631002583,2448.6289631002583,2448.6289631002583,2448.6289631002583,2448.6289631002583,2448.6289631002583,2448.6289631002583,2448.6170479202174,22.838090599980205,return,22.698827299755067,,,,,,,,,,,,,,,,,,,,,,,,,,,,,,,,,G21ZJZ,train_y,blue_star,top_right,2025-04-29_15h30.50.818,HideSeek_v1,2022.2.5,59.44087535522214,
,7,8,7,5,0,-3,64,,train_dim1_1,3,30,,,,2,0,2,0,,,,,,,,,0,0,0,0,0,2,2,2,1,0,1,0,,,,,,,,,,,,,,,,,,,,,,,,,,,,,,,,,,,,,,,,,,,,,,,,,,,,,,,,,,,,,,,,30,,,,,,,,2481.3384291999973,2481.3384291999973,2481.3384291999973,2481.3384291999973,2481.3384291999973,left,0.776541099883616,1,0,0,99,0.24,0.24,left,0.6764329997822642,,,,,,,,,,,,,,,,,,,,,,,,,,,,,,,,,,,,,,,,,,,,,,,,,,,,,,,,,,,,G21ZJZ,train_y,blue_star,top_right,2025-04-29_15h30.50.818,HideSeek_v1,2022.2.5,59.44087535522214,
,7,8,7,5,0,-3,64,,train_dim1_1,3,30,,,,2,0,2,0,,,,,,,,,0,0,0,0,0,2,2,2,2,0,2,0,,,,,,,,,,,,,,,,,,,,,,,,,,,,,,,,,,,,,,,,,,,,,,,,,,,,,,,,,,,,,,,,30,,,,,,,,2482.109124999959,2482.109124999959,2482.109124999959,2482.109124999959,2482.109124999959,left,0.7427143999375403,1,0,0,99,0.15999999999999998,0.24,left,0.6650977996177971,,,,,,,,,,,,,,,,,,,,,,,,,,,,,,,,,,,,,,,,,,,,,,,,,,,,,,,,,,,,G21ZJZ,train_y,blue_star,top_right,2025-04-29_15h30.50.818,HideSeek_v1,2022.2.5,59.44087535522214,
,7,8,7,5,0,-3,64,,train_dim1_1,3,30,,,,2,0,2,0,,,,,,,,,0,0,0,0,0,2,2,2,3,0,3,0,,,,,,,,,,,,,,,,,,,,,,,,,,,,,,,,,,,,,,,,,,,,,,,,,,,,,,,,,,,,,,,,30,,,,,,,,2482.858012800105,2482.858012800105,2482.858012800105,2482.858012800105,2482.858012800105,left,0.7104156999848783,1,0,0,99,0.07999999999999997,0.24,left,0.6263025999069214,,,,,,,,,,,,,,,,,,,,,,,,,,,,,,,,,,,,,,,,,,,,,,,,,,,,,,,,,,,,G21ZJZ,train_y,blue_star,top_right,2025-04-29_15h30.50.818,HideSeek_v1,2022.2.5,59.44087535522214,
,7,8,7,5,0,-3,64,,train_dim1_1,3,30,,,,2,0,2,0,,,,,,,,,0,0,0,0,0,2,2,2,4,0,4,0,,,,,,,,,,,,,,,,,,,,,,,,,,,,,,,,,,,,,,,,,,,,,,,,,,,,,,,,,,,,,,,,30,,,,,,,,2483.575014700182,2483.575014700182,2483.575014700182,2483.575014700182,2483.575014700182,return,1.2439272999763489,1,0,0,0,0.07999999999999997,0.24,return,1.1604694998823106,-7,-9,0.07999999999999997,0.24,,,,,,,,,,,,,,,,,,,,,,,,,,,,,,,,,,,,,,,,,,,,,,,,,,,,,,,,G21ZJZ,train_y,blue_star,top_right,2025-04-29_15h30.50.818,HideSeek_v1,2022.2.5,59.44087535522214,
,5,6,5,5,0,-1,62,,train_dim1_1,4,30,,,,2,0,2,0,,,,,,,,,0,0,0,0,0,3,3,3,0,0,0,0,,,,,,,,,,,,,,,,,,,,,,,,,stimuli/alien_stimuli/62.png,,,,,,,,,,,,,,,,,,,,,,,,,,,,,stimuli/alien_stimuli/64.png,64,7,5,,,,,,,30,,,,,,,,2493.0252565001138,2493.0252565001138,2493.0252565001138,2493.0252565001138,2493.0252565001138,down,1.9218740002252162,1,0,0,99,0.24,0.0,down,1.8326042997650802,,,,,2491.4694473999552,2493.0252565001138,0.4,0,0.24,0.0,0.12,0.4,0.4,0.4,0,2486.390131900087,2486.390131900087,2486.390131900087,2486.390131900087,2486.390131900087,2486.390131900087,2486.390131900087,2486.390131900087,2486.381995620066,5.190018499735743,return,5.054046599660069,,,,,,,,,,,,,,,,,,,,,,,,,,,,,,,,,G21ZJZ,train_y,blue_star,top_right,2025-04-29_15h30.50.818,HideSeek_v1,2022.2.5,59.44087535522214,
,5,6,5,5,0,-1,62,,train_dim1_1,4,30,,,,2,0,2,0,,,,,,,,,0,0,0,0,0,3,3,3,1,0,1,0,,,,,,,,,,,,,,,,,,,,,,,,,,,,,,,,,,,,,,,,,,,,,,,,,,,,,,,,,,,,,,,,30,,,,,,,,2494.952584600076,2494.952584600076,2494.952584600076,2494.952584600076,2494.952584600076,down,0.7096651000902057,1,0,0,99,0.24,-0.08,down,0.635564399883151,,,,,,,,,,,,,,,,,,,,,,,,,,,,,,,,,,,,,,,,,,,,,,,,,,,,,,,,,,,,G21ZJZ,train_y,blue_star,top_right,2025-04-29_15h30.50.818,HideSeek_v1,2022.2.5,59.44087535522214,
,5,6,5,5,0,-1,62,,train_dim1_1,4,30,,,,2,0,2,0,,,,,,,,,0,0,0,0,0,3,3,3,2,0,2,0,,,,,,,,,,,,,,,,,,,,,,,,,,,,,,,,,,,,,,,,,,,,,,,,,,,,,,,,,,,,,,,,30,,,,,,,,2495.671015500091,2495.671015500091,2495.671015500091,2495.671015500091,2495.671015500091,down,1.2750044004060328,1,0,0,99,0.24,-0.16,down,1.2016926994547248,,,,,,,,,,,,,,,,,,,,,,,,,,,,,,,,,,,,,,,,,,,,,,,,,,,,,,,,,,,,G21ZJZ,train_y,blue_star,top_right,2025-04-29_15h30.50.818,HideSeek_v1,2022.2.5,59.44087535522214,
,5,6,5,5,0,-1,62,,train_dim1_1,4,30,,,,2,0,2,0,,,,,,,,,0,0,0,0,0,3,3,3,3,0,3,0,,,,,,,,,,,,,,,,,,,,,,,,,,,,,,,,,,,,,,,,,,,,,,,,,,,,,,,,,,,,,,,,30,,,,,,,,2496.954810800031,2496.954810800031,2496.954810800031,2496.954810800031,2496.954810800031,down,0.7929103001952171,1,0,0,99,0.24,-0.24,down,0.7210332998074591,,,,,,,,,,,,,,,,,,,,,,,,,,,,,,,,,,,,,,,,,,,,,,,,,,,,,,,,,,,,G21ZJZ,train_y,blue_star,top_right,2025-04-29_15h30.50.818,HideSeek_v1,2022.2.5,59.44087535522214,
,5,6,5,5,0,-1,62,,train_dim1_1,4,30,,,,2,0,2,0,,,,,,,,,0,0,0,0,0,3,3,3,4,0,4,0,,,,,,,,,,,,,,,,,,,,,,,,,,,,,,,,,,,,,,,,,,,,,,,,,,,,,,,,,,,,,,,,30,,,,,,,,2497.7544422000647,2497.7544422000647,2497.7544422000647,2497.7544422000647,2497.7544422000647,return,0.9271031999960542,1,0,0,0,0.24,-0.24,return,0.8499161996878684,-11,-9,0.24,-0.24,,,,,,,,,,,,,,,,,,,,,,,,,,,,,,,,,,,,,,,,,,,,,,,,,,,,,,,,G21ZJZ,train_y,blue_star,top_right,2025-04-29_15h30.50.818,HideSeek_v1,2022.2.5,59.44087535522214,
,8,8,8,8,0,0,61,,train_dim1_1,5,30,,,,2,0,2,0,,,,,,,,,0,0,0,0,0,4,4,4,0,0,0,0,,,,,,,,,,,,,,,,,,,,,,,,,stimuli/alien_stimuli/61.png,,,,,,,,,,,,,,,,,,,,,,,,,,,,,stimuli/alien_stimuli/62.png,62,5,6,,,,,,,30,,,,,,,,2506.319478600286,2506.319478600286,2506.319478600286,2506.319478600286,2506.319478600286,down,6.157913299743086,1,0,0,99,0.48,0.15999999999999998,down,6.071670199744403,,,,,2504.764053000137,2506.319478600286,0.24,0,0.08,0.0,0.04,0.24,0.24,0.24,0,2500.2502196999267,2500.2502196999267,2500.2502196999267,2500.2502196999267,2500.2502196999267,2500.2502196999267,2500.2502196999267,2500.2502196999267,2500.2436877203636,4.622864200267941,return,4.495441499631852,,,,,,,,,,,,,,,,,,,,,,,,,,,,,,,,,G21ZJZ,train_y,blue_star,top_right,2025-04-29_15h30.50.818,HideSeek_v1,2022.2.5,59.44087535522214,
,8,8,8,8,0,0,61,,train_dim1_1,5,30,,,,2,0,2,0,,,,,,,,,0,0,0,0,0,4,4,4,1,0,1,0,,,,,,,,,,,,,,,,,,,,,,,,,,,,,,,,,,,,,,,,,,,,,,,,,,,,,,,,,,,,,,,,30,,,,,,,,2512.4854676001705,2512.4854676001705,2512.4854676001705,2512.4854676001705,2512.4854676001705,down,1.1254190001636744,1,0,0,99,0.48,0.07999999999999997,down,1.0370136997662485,,,,,,,,,,,,,,,,,,,,,,,,,,,,,,,,,,,,,,,,,,,,,,,,,,,,,,,,,,,,G21ZJZ,train_y,blue_star,top_right,2025-04-29_15h30.50.818,HideSeek_v1,2022.2.5,59.44087535522214,
,8,8,8,8,0,0,61,,train_dim1_1,5,30,,,,2,0,2,0,,,,,,,,,0,0,0,0,0,4,4,4,2,0,2,0,,,,,,,,,,,,,,,,,,,,,,,,,,,,,,,,,,,,,,,,,,,,,,,,,,,,,,,,,,,,,,,,30,,,,,,,,2513.6182834999636,2513.6182834999636,2513.6182834999636,2513.6182834999636,2513.6182834999636,down,0.8432161998935044,1,0,0,99,0.48,-2.7755575615628914e-17,down,0.7642760998569429,,,,,,,,,,,,,,,,,,,,,,,,,,,,,,,,,,,,,,,,,,,,,,,,,,,,,,,,,,,,G21ZJZ,train_y,blue_star,top_right,2025-04-29_15h30.50.818,HideSeek_v1,2022.2.5,59.44087535522214,
,8,8,8,8,0,0,61,,train_dim1_1,5,30,,,,2,0,2,0,,,,,,,,,0,0,0,0,0,4,4,4,3,0,3,0,,,,,,,,,,,,,,,,,,,,,,,,,,,,,,,,,,,,,,,,,,,,,,,,,,,,,,,,,,,,,,,,30,,,,,,,,2514.471595299896,2514.471595299896,2514.471595299896,2514.471595299896,2514.471595299896,down,1.5928294002078474,1,0,0,99,0.48,-0.08000000000000003,down,1.5161949996836483,,,,,,,,,,,,,,,,,,,,,,,,,,,,,,,,,,,,,,,,,,,,,,,,,,,,,,,,,,,,G21ZJZ,train_y,blue_star,top_right,2025-04-29_15h30.50.818,HideSeek_v1,2022.2.5,59.44087535522214,
,8,8,8,8,0,0,61,,train_dim1_1,5,30,,,,2,0,2,0,,,,,,,,,0,0,0,0,0,4,4,4,4,0,4,0,,,,,,,,,,,,,,,,,,,,,,,,,,,,,,,,,,,,,,,,,,,,,,,,,,,,,,,,,,,,,,,,30,,,,,,,,2516.071977000218,2516.071977000218,2516.071977000218,2516.071977000218,2516.071977000218,return,1.1090978002175689,1,0,0,0,0.48,-0.08000000000000003,return,1.0309875993989408,-15,-9,0.48,-0.08000000000000003,,,,,,,,,,,,,,,,,,,,,,,,,,,,,,,,,,,,,,,,,,,,,,,,,,,,,,,,G21ZJZ,train_y,blue_star,top_right,2025-04-29_15h30.50.818,HideSeek_v1,2022.2.5,59.44087535522214,
,6,9,6,8,0,-1,62,,train_dim1_1,6,30,,,,2,0,2,0,,,,,,,,,0,0,0,0,0,5,5,5,0,0,0,0,,,,,,,,,,,,,,,,,,,,,,,,,stimuli/alien_stimuli/62.png,,,,,,,,,,,,,,,,,,,,,,,,,,,,,stimuli/alien_stimuli/61.png,61,8,7,,,,,,,30,,,,,,,,2525.618507400155,2525.618507400155,2525.618507400155,2525.618507400155,2525.618507400155,down,6.808760500047356,1,0,0,99,0.32,0.24,down,6.730740000028163,,,,,2524.0633525000885,2525.618507400155,0.48,0.24,0.0,0.0,0.24,0.48,0.48,0.48,0.24,2518.745386000257,2518.745386000257,2518.745386000257,2518.745386000257,2518.745386000257,2518.745386000257,2518.745386000257,2518.745386000257,2518.742753120465,5.423017899971455,return,5.298679099883884,,,,,,,,,,,,,,,,,,,,,,,,,,,,,,,,,G21ZJZ,train_y,blue_star,top_right,2025-04-29_15h30.50.818,HideSeek_v1,2022.2.5,59.44087535522214,
,6,9,6,8,0,-1,62,,train_dim1_1,6,30,,,,2,0,2,0,,,,,,,,,0,0,0,0,0,5,5,5,1,0,1,0,,,,,,,,,,,,,,,,,,,,,,,,,,,,,,,,,,,,,,,,,,,,,,,,,,,,,,,,,,,,,,,,30,,,,,,,,2532.435727099888,2532.435727099888,2532.435727099888,2532.435727099888,2532.435727099888,down,0.9419050002470613,1,0,0,99,0.32,0.15999999999999998,down,0.8604359999299049,,,,,,,,,,,,,,,,,,,,,,,,,,,,,,,,,,,,,,,,,,,,,,,,,,,,,,,,,,,,G21ZJZ,train_y,blue_star,top_right,2025-04-29_15h30.50.818,HideSeek_v1,2022.2.5,59.44087535522214,
,6,9,6,8,0,-1,62,,train_dim1_1,6,30,,,,2,0,2,0,,,,,,,,,0,0,0,0,0,5,5,5,2,0,2,0,,,,,,,,,,,,,,,,,,,,,,,,,,,,,,,,,,,,,,,,,,,,,,,,,,,,,,,,,,,,,,,,30,,,,,,,,2533.386591800023,2533.386591800023,2533.386591800023,2533.386591800023,2533.386591800023,down,2.325856300070882,1,0,0,99,0.32,0.07999999999999997,down,2.246666199527681,,,,,,,,,,,,,,,,,,,,,,,,,,,,,,,,,,,,,,,,,,,,,,,,,,,,,,,,,,,,G21ZJZ,train_y,blue_star,top_right,2025-04-29_15h30.50.818,HideSeek_v1,2022.2.5,59.44087535522214,
,6,9,6,8,0,-1,62,,train_dim1_1,6,30,,,,2,0,2,0,,,,,,,,,0,0,0,0,0,5,5,5,3,0,3,0,,,,,,,,,,,,,,,,,,,,,,,,,,,,,,,,,,,,,,,,,,,,,,,,,,,,,,,,,,,,,,,,30,,,,,,,,2535.719098099973,2535.719098099973,2535.719098099973,2535.719098099973,2535.719098099973,return,1.4107675999403,1,0,0,0,0.32,0.07999999999999997,return,1.3329157000407577,-18,-9,0.32,0.07999999999999997,,,,,,,,,,,,,,,,,,,,,,,,,,,,,,,,,,,,,,,,,,,,,,,,,,,,,,,,G21ZJZ,train_y,blue_star,top_right,2025-04-29_15h30.50.818,HideSeek_v1,2022.2.5,59.44087535522214,
,6,8,6,5,0,-3,64,,train_dim1_1,7,30,,,,2,0,2,0,,,,,,,,,0,0,0,0,0,6,6,6,0,0,0,0,,,,,,,,,,,,,,,,,,,,,,,,,stimuli/alien_stimuli/64.png,,,,,,,,,,,,,,,,,,,,,,,,,,,,,stimuli/alien_stimuli/62.png,62,6,8,,,,,,,30,,,,,,,,2544.3151239003055,2544.3151239003055,2544.3151239003055,2544.3151239003055,2544.3151239003055,down,3.073648900259286,1,0,0,99,0.32,0.15999999999999998,down,3.0002716998569667,,,,,2542.7623995998874,2544.3151239003055,0.32,0.24,0.08,0.0,0.28,0.32,0.32,0.32,0.24,2538.7038126001135,2538.7038126001135,2538.7038126001135,2538.7038126001135,2538.7038126001135,2538.7038126001135,2538.7038126001135,2538.7038126001135,2538.692040720349,4.172708700411022,return,4.040122199803591,,,,,,,,,,,,,,,,,,,,,,,,,,,,,,,,,G21ZJZ,train_y,blue_star,top_right,2025-04-29_15h30.50.818,HideSeek_v1,2022.2.5,59.44087535522214,
,6,8,6,5,0,-3,64,,train_dim1_1,7,30,,,,2,0,2,0,,,,,,,,,0,0,0,0,0,6,6,6,1,0,1,0,,,,,,,,,,,,,,,,,,,,,,,,,,,,,,,,,,,,,,,,,,,,,,,,,,,,,,,,,,,,,,,,30,,,,,,,,2547.3958835001104,2547.3958835001104,2547.3958835001104,2547.3958835001104,2547.3958835001104,down,0.9099189001135528,1,0,0,99,0.32,0.07999999999999997,down,0.8365139998495579,,,,,,,,,,,,,,,,,,,,,,,,,,,,,,,,,,,,,,,,,,,,,,,,,,,,,,,,,,,,G21ZJZ,train_y,blue_star,top_right,2025-04-29_15h30.50.818,HideSeek_v1,2022.2.5,59.44087535522214,
,6,8,6,5,0,-3,64,,train_dim1_1,7,30,,,,2,0,2,0,,,,,,,,,0,0,0,0,0,6,6,6,2,0,2,0,,,,,,,,,,,,,,,,,,,,,,,,,,,,,,,,,,,,,,,,,,,,,,,,,,,,,,,,,,,,,,,,30,,,,,,,,2548.313248500228,2548.313248500228,2548.313248500228,2548.313248500228,2548.313248500228,down,1.2266068998724222,1,0,0,99,0.32,-2.7755575615628914e-17,down,1.142649999819696,,,,,,,,,,,,,,,,,,,,,,,,,,,,,,,,,,,,,,,,,,,,,,,,,,,,,,,,,,,,G21ZJZ,train_y,blue_star,top_right,2025-04-29_15h30.50.818,HideSeek_v1,2022.2.5,59.44087535522214,
,6,8,6,5,0,-3,64,,train_dim1_1,7,30,,,,2,0,2,0,,,,,,,,,0,0,0,0,0,6,6,6,3,0,3,0,,,,,,,,,,,,,,,,,,,,,,,,,,,,,,,,,,,,,,,,,,,,,,,,,,,,,,,,,,,,,,,,30,,,,,,,,2549.5466785999015,2549.5466785999015,2549.5466785999015,2549.5466785999015,2549.5466785999015,down,2.9957853998057544,1,0,0,99,0.32,-0.08000000000000003,down,2.9212922998704016,,,,,,,,,,,,,,,,,,,,,,,,,,,,,,,,,,,,,,,,,,,,,,,,,,,,,,,,,,,,G21ZJZ,train_y,blue_star,top_right,2025-04-29_15h30.50.818,HideSeek_v1,2022.2.5,59.44087535522214,
,6,8,6,5,0,-3,64,,train_dim1_1,7,30,,,,2,0,2,0,,,,,,,,,0,0,0,0,0,6,6,6,4,0,4,0,,,,,,,,,,,,,,,,,,,,,,,,,,,,,,,,,,,,,,,,,,,,,,,,,,,,,,,,,,,,,,,,30,,,,,,,,2552.5491618001834,2552.5491618001834,2552.5491618001834,2552.5491618001834,2552.5491618001834,return,1.4607762000523508,1,1,0,0,0.32,-0.08000000000000003,return,1.3818262997083366,-22,-9,0.32,-0.08000000000000003,,,,,,,,,,,,,,,,,,,,,,,,,,,,,,,,,,,,,,,,,,,,,,,,,,,,,,,,G21ZJZ,train_y,blue_star,top_right,2025-04-29_15h30.50.818,HideSeek_v1,2022.2.5,59.44087535522214,
,9,7,9,7,0,0,61,,train_dim1_1,8,30,,,,2,0,2,0,,,,,,,,,0,0,0,0,0,7,7,7,0,0,0,0,,,,,,,,,,,,,,,,,,,,,,,,,stimuli/alien_stimuli/61.png,,,,,,,,,,,,,,,,,,,,,,,,,,,,,stimuli/alien_stimuli/64.png,64,6,9,,,,,,,30,,,,,,,,2576.261485100258,2576.261485100258,2576.261485100258,2576.261485100258,2576.261485100258,down,10.962257000152022,1,1,0,99,0.56,0.08,down,10.858540299814194,,,,,2574.689136700239,2576.261485100258,0.32,0,0.24,0.0,0.12,0.32,0.32,0.32,0,2555.585637500044,2555.585637500044,2555.585637500044,2555.585637500044,2555.585637500044,2555.585637500044,2555.585637500044,2555.585637500044,2555.5728146204256,19.21811780007556,return,19.08017640002072,,,,,,,,,,,,,,,,,,,,,,,,,,,,,,,,,G21ZJZ,train_y,blue_star,top_right,2025-04-29_15h30.50.818,HideSeek_v1,2022.2.5,59.44087535522214,
,9,7,9,7,0,0,61,,train_dim1_1,8,30,,,,2,0,2,0,,,,,,,,,0,0,0,0,0,7,7,7,1,0,1,0,,,,,,,,,,,,,,,,,,,,,,,,,,,,,,,,,,,,,,,,,,,,,,,,,,,,,,,,,,,,,,,,30,,,,,,,,2587.229676499963,2587.229676499963,2587.229676499963,2587.229676499963,2587.229676499963,return,1.3270817999728024,1,1,0,0,0.56,0.08,return,1.232101499568671,-23,-9,0.56,0.08,,,,,,,,,,,,,,,,,,,,,,,,,,,,,,,,,,,,,,,,,,,,,,,,,,,,,,,,G21ZJZ,train_y,blue_star,top_right,2025-04-29_15h30.50.818,HideSeek_v1,2022.2.5,59.44087535522214,
,9,8,9,4,0,-4,65,,train_dim1_1,9,30,,,,2,0,2,0,,,,,,,,,0,0,0,0,0,8,8,8,0,0,0,0,,,,,,,,,,,,,,,,,,,,,,,,,stimuli/alien_stimuli/65.png,,,,,,,,,,,,,,,,,,,,,,,,,,,,,stimuli/alien_stimuli/61.png,61,9,10,,,,,,,30,,,,,,,,2611.021199699957,2611.021199699957,2611.021199699957,2611.021199699957,2611.021199699957,down,3.825109700206667,1,1,0,99,0.56,0.15999999999999998,down,3.72125449962914,,,,,2609.4507328001782,2611.021199699957,0.56,0.16,0.0,0.0,0.16,0.56,0.56,0.56,0.16,2590.113800600171,2590.113800600171,2590.113800600171,2590.113800600171,2590.113800600171,2590.113800600171,2590.113800600171,2590.113800600171,2590.1013593201988,19.45174270030111,return,19.3200168996118,,,,,,,,,,,,,,,,,,,,,,,,,,,,,,,,,G21ZJZ,train_y,blue_star,top_right,2025-04-29_15h30.50.818,HideSeek_v1,2022.2.5,59.44087535522214,
,9,8,9,4,0,-4,65,,train_dim1_1,9,30,,,,2,0,2,0,,,,,,,,,0,0,0,0,0,8,8,8,1,0,1,0,,,,,,,,,,,,,,,,,,,,,,,,,,,,,,,,,,,,,,,,,,,,,,,,,,,,,,,,,,,,,,,,30,,,,,,,,2614.8372626001947,2614.8372626001947,2614.8372626001947,2614.8372626001947,2614.8372626001947,down,0.6424430999904871,1,1,0,99,0.56,0.07999999999999997,down,0.558631899766624,,,,,,,,,,,,,,,,,,,,,,,,,,,,,,,,,,,,,,,,,,,,,,,,,,,,,,,,,,,,G21ZJZ,train_y,blue_star,top_right,2025-04-29_15h30.50.818,HideSeek_v1,2022.2.5,59.44087535522214,
,9,8,9,4,0,-4,65,,train_dim1_1,9,30,,,,2,0,2,0,,,,,,,,,0,0,0,0,0,8,8,8,2,0,2,0,,,,,,,,,,,,,,,,,,,,,,,,,,,,,,,,,,,,,,,,,,,,,,,,,,,,,,,,,,,,,,,,30,,,,,,,,2615.485781800002,2615.485781800002,2615.485781800002,2615.485781800002,2615.485781800002,down,0.9271422000601888,1,1,0,99,0.56,-2.7755575615628914e-17,down,0.8386307000182569,,,,,,,,,,,,,,,,,,,,,,,,,,,,,,,,,,,,,,,,,,,,,,,,,,,,,,,,,,,,G21ZJZ,train_y,blue_star,top_right,2025-04-29_15h30.50.818,HideSeek_v1,2022.2.5,59.44087535522214,
,9,8,9,4,0,-4,65,,train_dim1_1,9,30,,,,2,0,2,0,,,,,,,,,0,0,0,0,0,8,8,8,3,0,3,0,,,,,,,,,,,,,,,,,,,,,,,,,,,,,,,,,,,,,,,,,,,,,,,,,,,,,,,,,,,,,,,,30,,,,,,,,2616.4198432001285,2616.4198432001285,2616.4198432001285,2616.4198432001285,2616.4198432001285,down,0.8765551000833511,1,1,0,99,0.56,-0.08000000000000003,down,0.7989360997453332,,,,,,,,,,,,,,,,,,,,,,,,,,,,,,,,,,,,,,,,,,,,,,,,,,,,,,,,,,,,G21ZJZ,train_y,blue_star,top_right,2025-04-29_15h30.50.818,HideSeek_v1,2022.2.5,59.44087535522214,
,9,8,9,4,0,-4,65,,train_dim1_1,9,30,,,,2,0,2,0,,,,,,,,,0,0,0,0,0,8,8,8,4,0,4,0,,,,,,,,,,,,,,,,,,,,,,,,,,,,,,,,,,,,,,,,,,,,,,,,,,,,,,,,,,,,,,,,30,,,,,,,,2617.3037272999063,2617.3037272999063,2617.3037272999063,2617.3037272999063,2617.3037272999063,down,0.6934887003153563,1,1,0,99,0.56,-0.16000000000000003,down,0.6064775995910168,,,,,,,,,,,,,,,,,,,,,,,,,,,,,,,,,,,,,,,,,,,,,,,,,,,,,,,,,,,,G21ZJZ,train_y,blue_star,top_right,2025-04-29_15h30.50.818,HideSeek_v1,2022.2.5,59.44087535522214,
,9,8,9,4,0,-4,65,,train_dim1_1,9,30,,,,2,0,2,0,,,,,,,,,0,0,0,0,0,8,8,8,5,0,5,0,,,,,,,,,,,,,,,,,,,,,,,,,,,,,,,,,,,,,,,,,,,,,,,,,,,,,,,,,,,,,,,,30,,,,,,,,2618.003824000247,2618.003824000247,2618.003824000247,2618.003824000247,2618.003824000247,return,1.1608583997003734,1,1,0,0,0.56,-0.16000000000000003,return,1.08677089959383,-28,-9,0.56,-0.16000000000000003,,,,,,,,,,,,,,,,,,,,,,,,,,,,,,,,,,,,,,,,,,,,,,,,,,,,,,,,G21ZJZ,train_y,blue_star,top_right,2025-04-29_15h30.50.818,HideSeek_v1,2022.2.5,59.44087535522214,
,7,7,7,2,0,-5,66,,train_dim1_1,10,30,,,,2,0,2,0,,,,,,,,,0,0,0,0,0,9,9,9,0,0,0,0,,,,,,,,,,,,,,,,,,,,,,,,,stimuli/alien_stimuli/66.png,,,,,,,,,,,,,,,,,,,,,,,,,,,,,stimuli/alien_stimuli/65.png,65,9,11,,,,,,,30,,,,,,,,2625.5841188998893,2625.5841188998893,2625.5841188998893,2625.5841188998893,2625.5841188998893,down,4.790532999671996,1,1,0,99,0.4,0.08,down,4.710129699669778,,,,,2624.0297598000616,2625.5841188998893,0.56,-0.08,0.32,0.0,0.07999999999999999,0.56,0.56,0.56,-0.08,2620.7392970002256,2620.7392970002256,2620.7392970002256,2620.7392970002256,2620.7392970002256,2620.7392970002256,2620.7392970002256,2620.7392970002256,2620.7272077201396,3.404877900145948,return,3.2741920999251306,,,,,,,,,,,,,,,,,,,,,,,,,,,,,,,,,G21ZJZ,train_y,blue_star,top_right,2025-04-29_15h30.50.818,HideSeek_v1,2022.2.5,59.44087535522214,
,7,7,7,2,0,-5,66,,train_dim1_1,10,30,,,,2,0,2,0,,,,,,,,,0,0,0,0,0,9,9,9,1,0,1,0,,,,,,,,,,,,,,,,,,,,,,,,,,,,,,,,,,,,,,,,,,,,,,,,,,,,,,,,,,,,,,,,30,,,,,,,,2630.3828845000826,2630.3828845000826,2630.3828845000826,2630.3828845000826,2630.3828845000826,down,0.7591340998187661,1,1,0,99,0.4,0.0,down,0.6768537000752985,,,,,,,,,,,,,,,,,,,,,,,,,,,,,,,,,,,,,,,,,,,,,,,,,,,,,,,,,,,,G21ZJZ,train_y,blue_star,top_right,2025-04-29_15h30.50.818,HideSeek_v1,2022.2.5,59.44087535522214,
,7,7,7,2,0,-5,66,,train_dim1_1,10,30,,,,2,0,2,0,,,,,,,,,0,0,0,0,0,9,9,9,2,0,2,0,,,,,,,,,,,,,,,,,,,,,,,,,,,,,,,,,,,,,,,,,,,,,,,,,,,,,,,,,,,,,,,,30,,,,,,,,2631.1482982998714,2631.1482982998714,2631.1482982998714,2631.1482982998714,2631.1482982998714,down,0.5934438998810947,1,1,0,99,0.4,-0.08,down,0.5138754001818597,,,,,,,,,,,,,,,,,,,,,,,,,,,,,,,,,,,,,,,,,,,,,,,,,,,,,,,,,,,,G21ZJZ,train_y,blue_star,top_right,2025-04-29_15h30.50.818,HideSeek_v1,2022.2.5,59.44087535522214,
,7,7,7,2,0,-5,66,,train_dim1_1,10,30,,,,2,0,2,0,,,,,,,,,0,0,0,0,0,9,9,9,3,0,3,0,,,,,,,,,,,,,,,,,,,,,,,,,,,,,,,,,,,,,,,,,,,,,,,,,,,,,,,,,,,,,,,,30,,,,,,,,2631.7492681001313,2631.7492681001313,2631.7492681001313,2631.7492681001313,2631.7492681001313,down,0.6101091001182795,1,1,0,99,0.4,-0.16,down,0.5299728997051716,,,,,,,,,,,,,,,,,,,,,,,,,,,,,,,,,,,,,,,,,,,,,,,,,,,,,,,,,,,,G21ZJZ,train_y,blue_star,top_right,2025-04-29_15h30.50.818,HideSeek_v1,2022.2.5,59.44087535522214,
,7,7,7,2,0,-5,66,,train_dim1_1,10,30,,,,2,0,2,0,,,,,,,,,0,0,0,0,0,9,9,9,4,0,4,0,,,,,,,,,,,,,,,,,,,,,,,,,,,,,,,,,,,,,,,,,,,,,,,,,,,,,,,,,,,,,,,,30,,,,,,,,2632.36568230018,2632.36568230018,2632.36568230018,2632.36568230018,2632.36568230018,down,1.1938497996889055,1,1,0,99,0.4,-0.24,down,1.1168359997682273,,,,,,,,,,,,,,,,,,,,,,,,,,,,,,,,,,,,,,,,,,,,,,,,,,,,,,,,,,,,G21ZJZ,train_y,blue_star,top_right,2025-04-29_15h30.50.818,HideSeek_v1,2022.2.5,59.44087535522214,
,7,7,7,2,0,-5,66,,train_dim1_1,10,30,,,,2,0,2,0,,,,,,,,,0,0,0,0,0,9,9,9,5,0,5,0,,,,,,,,,,,,,,,,,,,,,,,,,,,,,,,,,,,,,,,,,,,,,,,,,,,,,,,,,,,,,,,,30,,,,,,,,2633.567309100181,2633.567309100181,2633.567309100181,2633.567309100181,2633.567309100181,down,1.2106710998341441,1,1,0,99,0.4,-0.32,down,1.136370999738574,,,,,,,,,,,,,,,,,,,,,,,,,,,,,,,,,,,,,,,,,,,,,,,,,,,,,,,,,,,,G21ZJZ,train_y,blue_star,top_right,2025-04-29_15h30.50.818,HideSeek_v1,2022.2.5,59.44087535522214,
,7,7,7,2,0,-5,66,,train_dim1_1,10,30,,,,2,0,2,0,,,,,,,,,0,0,0,0,0,9,9,9,6,0,6,0,,,,,,,,,,,,,,,,,,,,,,,,,,,,,,,,,,,,,,,,,,,,,,,,,,,,,,,,,,,,,,,,30,,,,,,,,2634.7842164998874,2634.7842164998874,2634.7842164998874,2634.7842164998874,2634.7842164998874,return,1.0438920999877155,1,1,0,0,0.4,-0.32,return,0.9714349997229874,-34,-9,0.4,-0.32,,,,,,,,,,,,,,,,,,,,,,,,,,,,,,,,,,,,,,,,,,,,,,,,,,,,,,,,G21ZJZ,train_y,blue_star,top_right,2025-04-29_15h30.50.818,HideSeek_v1,2022.2.5,59.44087535522214,
,9,6,9,2,0,-4,65,,train_dim1_1,11,30,,,,2,0,2,0,,,,,,,,,0,0,0,0,0,10,10,10,0,0,0,0,,,,,,,,,,,,,,,,,,,,,,,,,stimuli/alien_stimuli/65.png,,,,,,,,,,,,,,,,,,,,,,,,,,,,,stimuli/alien_stimuli/66.png,66,7,12,,,,,,,30,,,,,,,,2647.693751499988,2647.693751499988,2647.693751499988,2647.693751499988,2647.693751499988,down,5.468415499664843,1,1,0,99,0.56,0.0,down,5.363599599804729,,,,,2646.1144941998646,2647.693751499988,0.4,-0.24,0.4,0.0,-0.039999999999999994,0.4,0.4,0.4,-0.24,2637.4026943002827,2637.4026943002827,2637.4026943002827,2637.4026943002827,2637.4026943002827,2637.4026943002827,2637.4026943002827,2637.4026943002827,2637.3906935200557,8.825924000237137,return,8.68952489970252,,,,,,,,,,,,,,,,,,,,,,,,,,,,,,,,,G21ZJZ,train_y,blue_star,top_right,2025-04-29_15h30.50.818,HideSeek_v1,2022.2.5,59.44087535522214,
,9,6,9,2,0,-4,65,,train_dim1_1,11,30,,,,2,0,2,0,,,,,,,,,0,0,0,0,0,10,10,10,1,0,1,0,,,,,,,,,,,,,,,,,,,,,,,,,,,,,,,,,,,,,,,,,,,,,,,,,,,,,,,,,,,,,,,,30,,,,,,,,2653.1516734999605,2653.1516734999605,2653.1516734999605,2653.1516734999605,2653.1516734999605,down,0.7765432000160217,1,1,0,99,0.56,-0.08,down,0.6928605996072292,,,,,,,,,,,,,,,,,,,,,,,,,,,,,,,,,,,,,,,,,,,,,,,,,,,,,,,,,,,,G21ZJZ,train_y,blue_star,top_right,2025-04-29_15h30.50.818,HideSeek_v1,2022.2.5,59.44087535522214,
,9,6,9,2,0,-4,65,,train_dim1_1,11,30,,,,2,0,2,0,,,,,,,,,0,0,0,0,0,10,10,10,2,0,2,0,,,,,,,,,,,,,,,,,,,,,,,,,,,,,,,,,,,,,,,,,,,,,,,,,,,,,,,,,,,,,,,,30,,,,,,,,2653.933658000082,2653.933658000082,2653.933658000082,2653.933658000082,2653.933658000082,down,0.8602897999808192,1,1,0,99,0.56,-0.16,down,0.7759128999896348,,,,,,,,,,,,,,,,,,,,,,,,,,,,,,,,,,,,,,,,,,,,,,,,,,,,,,,,,,,,G21ZJZ,train_y,blue_star,top_right,2025-04-29_15h30.50.818,HideSeek_v1,2022.2.5,59.44087535522214,
,9,6,9,2,0,-4,65,,train_dim1_1,11,30,,,,2,0,2,0,,,,,,,,,0,0,0,0,0,10,10,10,3,0,3,0,,,,,,,,,,,,,,,,,,,,,,,,,,,,,,,,,,,,,,,,,,,,,,,,,,,,,,,,,,,,,,,,30,,,,,,,,2654.8013617000543,2654.8013617000543,2654.8013617000543,2654.8013617000543,2654.8013617000543,down,0.6595692001283169,1,1,0,99,0.56,-0.24,down,0.5814483999274671,,,,,,,,,,,,,,,,,,,,,,,,,,,,,,,,,,,,,,,,,,,,,,,,,,,,,,,,,,,,G21ZJZ,train_y,blue_star,top_right,2025-04-29_15h30.50.818,HideSeek_v1,2022.2.5,59.44087535522214,
,9,6,9,2,0,-4,65,,train_dim1_1,11,30,,,,2,0,2,0,,,,,,,,,0,0,0,0,0,10,10,10,4,0,4,0,,,,,,,,,,,,,,,,,,,,,,,,,,,,,,,,,,,,,,,,,,,,,,,,,,,,,,,,,,,,,,,,30,,,,,,,,2655.468951100018,2655.468951100018,2655.468951100018,2655.468951100018,2655.468951100018,return,0.8104150001890957,2,0,0,1,0.56,-0.24,return,0.7340853996574879,-38,-9,0.56,-0.24,,,,,,,,,,,,,,,,,,,,,,,,,,,,,,,,,,,,,,,,,,,,,,,,,,,,,,,,G21ZJZ,train_y,blue_star,top_right,2025-04-29_15h30.50.818,HideSeek_v1,2022.2.5,59.44087535522214,
,5,5,5,5,0,0,61,,train_dim1_1,12,30,,,,2,0,2,0,,,,,,,,,0,0,0,0,0,11,11,11,0,0,0,0,,,,,,,,,,,,,,,,,,,,,,,,,stimuli/alien_stimuli/61.png,,,,,,,,,,,,,,,,,,,,,,,,,,,,,stimuli/alien_stimuli/65.png,65,9,13,,,,,,,30,,,,,,,,2663.1013235002756,2663.1013235002756,2663.1013235002756,2663.1013235002756,2663.1013235002756,return,8.64093460002914,3,0,0,1,0.24,0,return,8.555341699626297,-38,-9,0.24,0,2661.5440727001987,2663.1013235002756,0.56,-0.24,0.32,0.0,-0.07999999999999999,0.56,0.56,0.56,-0.24,2657.8451617001556,2657.8451617001556,2657.8451617001556,2657.8451617001556,2657.8451617001556,2657.8451617001556,2657.8451617001556,2657.8451617001556,2657.8410938203797,3.8049440002068877,return,3.675592000130564,,,,,,,,,,,,,,,,,,,,,,,,,,,,,,,,,G21ZJZ,train_y,blue_star,top_right,2025-04-29_15h30.50.818,HideSeek_v1,2022.2.5,59.44087535522214,
,9,8,9,7,0,-1,62,,train_dim1_1,13,30,,,,2,0,2,0,,,,,,,,,0,0,0,0,0,12,12,12,0,0,0,0,,,,,,,,,,,,,,,,,,,,,,,,,stimuli/alien_stimuli/62.png,,,,,,,,,,,,,,,,,,,,,,,,,,,,,stimuli/alien_stimuli/61.png,61,5,14,,,,,,,30,,,,,,,,2678.0776034998707,2678.0776034998707,2678.0776034998707,2678.0776034998707,2678.0776034998707,down,2.789280400145799,3,0,0,99,0.56,0.15999999999999998,down,2.7150400998070836,,,,,2676.523233700078,2678.0776034998707,0.24,0,0.0,0.0,0.0,0.24,0.24,0.24,0,2673.3315828000195,2673.3315828000195,2673.3315828000195,2673.3315828000195,2673.3315828000195,2673.3315828000195,2673.3315828000195,2673.3315828000195,2673.3205111803486,3.322012299671769,return,3.172697899863124,,,,,,,,,,,,,,,,,,,,,,,,,,,,,,,,,G21ZJZ,train_y,blue_star,top_right,2025-04-29_15h30.50.818,HideSeek_v1,2022.2.5,59.44087535522214,
,9,8,9,7,0,-1,62,,train_dim1_1,13,30,,,,2,0,2,0,,,,,,,,,0,0,0,0,0,12,12,12,1,0,1,0,,,,,,,,,,,,,,,,,,,,,,,,,,,,,,,,,,,,,,,,,,,,,,,,,,,,,,,,,,,,,,,,30,,,,,,,,2680.873003100045,2680.873003100045,2680.873003100045,2680.873003100045,2680.873003100045,return,0.7762258001603186,4,0,0,1,0.56,0.15999999999999998,return,0.6912506995722651,-39,-9,0.56,0.15999999999999998,,,,,,,,,,,,,,,,,,,,,,,,,,,,,,,,,,,,,,,,,,,,,,,,,,,,,,,,G21ZJZ,train_y,blue_star,top_right,2025-04-29_15h30.50.818,HideSeek_v1,2022.2.5,59.44087535522214,
,7,7,7,2,0,-5,66,,train_dim1_1,14,30,,,,2,0,2,0,,,,,,,,,0,0,0,0,0,13,13,13,0,0,0,0,,,,,,,,,,,,,,,,,,,,,,,,,stimuli/alien_stimuli/66.png,,,,,,,,,,,,,,,,,,,,,,,,,,,,,stimuli/alien_stimuli/62.png,62,9,15,,,,,,,30,,,,,,,,2686.5005363998935,2686.5005363998935,2686.5005363998935,2686.5005363998935,2686.5005363998935,down,4.206858099903911,4,0,0,99,0.4,0.08,down,4.133359899744391,,,,,2684.947160900105,2686.5005363998935,0.56,0.16,0.08,0.0,0.2,0.56,0.56,0.56,0.16,2683.2049897001125,2683.2049897001125,2683.2049897001125,2683.2049897001125,2683.2049897001125,2683.2049897001125,2683.2049897001125,2683.2049897001125,2683.195492560323,1.8370177000761032,return,1.7132158000022173,,,,,,,,,,,,,,,,,,,,,,,,,,,,,,,,,G21ZJZ,train_y,blue_star,top_right,2025-04-29_15h30.50.818,HideSeek_v1,2022.2.5,59.44087535522214,
,7,7,7,2,0,-5,66,,train_dim1_1,14,30,,,,2,0,2,0,,,,,,,,,0,0,0,0,0,13,13,13,1,0,1,0,,,,,,,,,,,,,,,,,,,,,,,,,,,,,,,,,,,,,,,,,,,,,,,,,,,,,,,,,,,,,,,,30,,,,,,,,2690.7156873000786,2690.7156873000786,2690.7156873000786,2690.7156873000786,2690.7156873000786,down,0.6596037000417709,4,0,0,99,0.4,0.0,down,0.5819367999210954,,,,,,,,,,,,,,,,,,,,,,,,,,,,,,,,,,,,,,,,,,,,,,,,,,,,,,,,,,,,G21ZJZ,train_y,blue_star,top_right,2025-04-29_15h30.50.818,HideSeek_v1,2022.2.5,59.44087535522214,
,7,7,7,2,0,-5,66,,train_dim1_1,14,30,,,,2,0,2,0,,,,,,,,,0,0,0,0,0,13,13,13,2,0,2,0,,,,,,,,,,,,,,,,,,,,,,,,,,,,,,,,,,,,,,,,,,,,,,,,,,,,,,,,,,,,,,,,30,,,,,,,,2691.3815959002823,2691.3815959002823,2691.3815959002823,2691.3815959002823,2691.3815959002823,down,0.593781600240618,4,0,0,99,0.4,-0.08,down,0.5202373000793159,,,,,,,,,,,,,,,,,,,,,,,,,,,,,,,,,,,,,,,,,,,,,,,,,,,,,,,,,,,,G21ZJZ,train_y,blue_star,top_right,2025-04-29_15h30.50.818,HideSeek_v1,2022.2.5,59.44087535522214,
,7,7,7,2,0,-5,66,,train_dim1_1,14,30,,,,2,0,2,0,,,,,,,,,0,0,0,0,0,13,13,13,3,0,3,0,,,,,,,,,,,,,,,,,,,,,,,,,,,,,,,,,,,,,,,,,,,,,,,,,,,,,,,,,,,,,,,,30,,,,,,,,2691.981330399867,2691.981330399867,2691.981330399867,2691.981330399867,2691.981330399867,down,0.6601523999124765,4,0,0,99,0.4,-0.16,down,0.5828947997651994,,,,,,,,,,,,,,,,,,,,,,,,,,,,,,,,,,,,,,,,,,,,,,,,,,,,,,,,,,,,G21ZJZ,train_y,blue_star,top_right,2025-04-29_15h30.50.818,HideSeek_v1,2022.2.5,59.44087535522214,
,7,7,7,2,0,-5,66,,train_dim1_1,14,30,,,,2,0,2,0,,,,,,,,,0,0,0,0,0,13,13,13,4,0,4,0,,,,,,,,,,,,,,,,,,,,,,,,,,,,,,,,,,,,,,,,,,,,,,,,,,,,,,,,,,,,,,,,30,,,,,,,,2692.6490410999395,2692.6490410999395,2692.6490410999395,2692.6490410999395,2692.6490410999395,return,1.4942932999692857,4,1,0,0,0.4,-0.16,return,1.415475799702108,-43,-9,0.4,-0.16,,,,,,,,,,,,,,,,,,,,,,,,,,,,,,,,,,,,,,,,,,,,,,,,,,,,,,,,G21ZJZ,train_y,blue_star,top_right,2025-04-29_15h30.50.818,HideSeek_v1,2022.2.5,59.44087535522214,
,6,9,6,6,0,-3,64,,train_dim1_1,15,30,,,,2,0,2,0,,,,,,,,,0,0,0,0,0,14,14,14,0,0,0,0,,,,,,,,,,,,,,,,,,,,,,,,,stimuli/alien_stimuli/64.png,,,,,,,,,,,,,,,,,,,,,,,,,,,,,stimuli/alien_stimuli/66.png,66,7,16,,,,,,,30,,,,,,,,2701.5823936001398,2701.5823936001398,2701.5823936001398,2701.5823936001398,2701.5823936001398,down,3.438768300227821,4,1,0,99,0.32,0.24,down,3.3532018000259995,,,,,2700.0260461000726,2701.5823936001398,0.4,-0.24,0.4,0.0,-0.039999999999999994,0.4,0.4,0.4,-0.24,2695.715429900214,2695.715429900214,2695.715429900214,2695.715429900214,2695.715429900214,2695.715429900214,2695.715429900214,2695.715429900214,2695.705867620045,4.422247999813408,return,4.280513700097799,,,,,,,,,,,,,,,,,,,,,,,,,,,,,,,,,G21ZJZ,train_y,blue_star,top_right,2025-04-29_15h30.50.818,HideSeek_v1,2022.2.5,59.44087535522214,
,6,9,6,6,0,-3,64,,train_dim1_1,15,30,,,,2,0,2,0,,,,,,,,,0,0,0,0,0,14,14,14,1,0,1,0,,,,,,,,,,,,,,,,,,,,,,,,,,,,,,,,,,,,,,,,,,,,,,,,,,,,,,,,,,,,,,,,30,,,,,,,,2705.0266296002083,2705.0266296002083,2705.0266296002083,2705.0266296002083,2705.0266296002083,down,0.4763180003501475,4,1,0,99,0.32,0.15999999999999998,down,0.39465799974277616,,,,,,,,,,,,,,,,,,,,,,,,,,,,,,,,,,,,,,,,,,,,,,,,,,,,,,,,,,,,G21ZJZ,train_y,blue_star,top_right,2025-04-29_15h30.50.818,HideSeek_v1,2022.2.5,59.44087535522214,
,6,9,6,6,0,-3,64,,train_dim1_1,15,30,,,,2,0,2,0,,,,,,,,,0,0,0,0,0,14,14,14,2,0,2,0,,,,,,,,,,,,,,,,,,,,,,,,,,,,,,,,,,,,,,,,,,,,,,,,,,,,,,,,,,,,,,,,30,,,,,,,,2705.5103901000693,2705.5103901000693,2705.5103901000693,2705.5103901000693,2705.5103901000693,down,0.49325119983404875,4,1,0,99,0.32,0.07999999999999997,down,0.4200252997688949,,,,,,,,,,,,,,,,,,,,,,,,,,,,,,,,,,,,,,,,,,,,,,,,,,,,,,,,,,,,G21ZJZ,train_y,blue_star,top_right,2025-04-29_15h30.50.818,HideSeek_v1,2022.2.5,59.44087535522214,
,6,9,6,6,0,-3,64,,train_dim1_1,15,30,,,,2,0,2,0,,,,,,,,,0,0,0,0,0,14,14,14,3,0,3,0,,,,,,,,,,,,,,,,,,,,,,,,,,,,,,,,,,,,,,,,,,,,,,,,,,,,,,,,,,,,,,,,30,,,,,,,,2706.0105737000704,2706.0105737000704,2706.0105737000704,2706.0105737000704,2706.0105737000704,return,1.026955499779433,5,0,0,1,0.32,0.07999999999999997,return,0.9426568998023868,-46,-9,0.32,0.07999999999999997,,,,,,,,,,,,,,,,,,,,,,,,,,,,,,,,,,,,,,,,,,,,,,,,,,,,,,,,G21ZJZ,train_y,blue_star,top_right,2025-04-29_15h30.50.818,HideSeek_v1,2022.2.5,59.44087535522214,
,9,5,9,1,0,-4,65,,train_dim1_1,16,30,,,,2,0,2,0,,,,,,,,,0,0,0,0,0,15,15,15,0,0,0,0,,,,,,,,,,,,,,,,,,,,,,,,,stimuli/alien_stimuli/65.png,,,,,,,,,,,,,,,,,,,,,,,,,,,,,stimuli/alien_stimuli/64.png,64,6,17,,,,,,,30,,,,,,,,2712.709530199878,2712.709530199878,2712.709530199878,2712.709530199878,2712.709530199878,down,3.5394382998347282,5,0,0,99,0.56,-0.08,down,3.462342199869454,,,,,2711.1351026999764,2712.709530199878,0.32,0.08,0.24,0.0,0.2,0.32,0.32,0.32,0.08,2708.6119961999357,2708.6119961999357,2708.6119961999357,2708.6119961999357,2708.6119961999357,2708.6119961999357,2708.6119961999357,2708.6119961999357,2708.599911420466,2.6379637997597456,return,2.5045246998779476,,,,,,,,,,,,,,,,,,,,,,,,,,,,,,,,,G21ZJZ,train_y,blue_star,top_right,2025-04-29_15h30.50.818,HideSeek_v1,2022.2.5,59.44087535522214,
,9,5,9,1,0,-4,65,,train_dim1_1,16,30,,,,2,0,2,0,,,,,,,,,0,0,0,0,0,15,15,15,1,0,1,0,,,,,,,,,,,,,,,,,,,,,,,,,,,,,,,,,,,,,,,,,,,,,,,,,,,,,,,,,,,,,,,,30,,,,,,,,2716.254237399902,2716.254237399902,2716.254237399902,2716.254237399902,2716.254237399902,down,0.958710600156337,5,0,0,99,0.56,-0.16,down,0.8759281998500228,,,,,,,,,,,,,,,,,,,,,,,,,,,,,,,,,,,,,,,,,,,,,,,,,,,,,,,,,,,,G21ZJZ,train_y,blue_star,top_right,2025-04-29_15h30.50.818,HideSeek_v1,2022.2.5,59.44087535522214,
,9,5,9,1,0,-4,65,,train_dim1_1,16,30,,,,2,0,2,0,,,,,,,,,0,0,0,0,0,15,15,15,2,0,2,0,,,,,,,,,,,,,,,,,,,,,,,,,,,,,,,,,,,,,,,,,,,,,,,,,,,,,,,,,,,,,,,,30,,,,,,,,2717.2198721002787,2717.2198721002787,2717.2198721002787,2717.2198721002787,2717.2198721002787,down,0.9103693999350071,5,0,0,99,0.56,-0.24,down,0.8352951998822391,,,,,,,,,,,,,,,,,,,,,,,,,,,,,,,,,,,,,,,,,,,,,,,,,,,,,,,,,,,,G21ZJZ,train_y,blue_star,top_right,2025-04-29_15h30.50.818,HideSeek_v1,2022.2.5,59.44087535522214,
,9,5,9,1,0,-4,65,,train_dim1_1,16,30,,,,2,0,2,0,,,,,,,,,0,0,0,0,0,15,15,15,3,0,3,0,,,,,,,,,,,,,,,,,,,,,,,,,,,,,,,,,,,,,,,,,,,,,,,,,,,,,,,,,,,,,,,,30,,,,,,,,2718.1381748998538,2718.1381748998538,2718.1381748998538,2718.1381748998538,2718.1381748998538,down,0.6097165998071432,5,0,0,99,0.56,-0.32,down,0.5271700997836888,,,,,,,,,,,,,,,,,,,,,,,,,,,,,,,,,,,,,,,,,,,,,,,,,,,,,,,,,,,,G21ZJZ,train_y,blue_star,top_right,2025-04-29_15h30.50.818,HideSeek_v1,2022.2.5,59.44087535522214,
,9,5,9,1,0,-4,65,,train_dim1_1,16,30,,,,2,0,2,0,,,,,,,,,0,0,0,0,0,15,15,15,4,0,4,0,,,,,,,,,,,,,,,,,,,,,,,,,,,,,,,,,,,,,,,,,,,,,,,,,,,,,,,,,,,,,,,,30,,,,,,,,2718.7574811000377,2718.7574811000377,2718.7574811000377,2718.7574811000377,2718.7574811000377,down,0.9747659000568092,5,0,0,99,0.56,-0.4,down,0.8886479996144772,,,,,,,,,,,,,,,,,,,,,,,,,,,,,,,,,,,,,,,,,,,,,,,,,,,,,,,,,,,,G21ZJZ,train_y,blue_star,top_right,2025-04-29_15h30.50.818,HideSeek_v1,2022.2.5,59.44087535522214,
,9,5,9,1,0,-4,65,,train_dim1_1,16,30,,,,2,0,2,0,,,,,,,,,0,0,0,0,0,15,15,15,5,0,5,0,,,,,,,,,,,,,,,,,,,,,,,,,,,,,,,,,,,,,,,,,,,,,,,,,,,,,,,,,,,,,,,,30,,,,,,,,2719.7405869001523,2719.7405869001523,2719.7405869001523,2719.7405869001523,2719.7405869001523,return,1.2100005997344851,5,1,0,0,0.56,-0.4,return,1.1319774999283254,-51,-9,0.56,-0.4,,,,,,,,,,,,,,,,,,,,,,,,,,,,,,,,,,,,,,,,,,,,,,,,,,,,,,,,G21ZJZ,train_y,blue_star,top_right,2025-04-29_15h30.50.818,HideSeek_v1,2022.2.5,59.44087535522214,
,8,8,8,5,0,-3,64,,train_dim1_1,17,30,,,,2,0,2,0,,,,,,,,,0,0,0,0,0,16,16,16,0,0,0,0,,,,,,,,,,,,,,,,,,,,,,,,,stimuli/alien_stimuli/64.png,,,,,,,,,,,,,,,,,,,,,,,,,,,,,stimuli/alien_stimuli/65.png,65,9,18,,,,,,,30,,,,,,,,2726.870001200121,2726.870001200121,2726.870001200121,2726.870001200121,2726.870001200121,down,2.42043469985947,5,1,0,99,0.48,0.15999999999999998,down,2.3342847996391356,,,,,2725.3141795000993,2726.870001200121,0.56,-0.32,0.32,0.0,-0.16,0.56,0.56,0.56,-0.32,2722.5162702002563,2722.5162702002563,2722.5162702002563,2722.5162702002563,2722.5162702002563,2722.5162702002563,2722.5162702002563,2722.5162702002563,2722.5117664200716,2.9049038998782635,return,2.777622599620372,,,,,,,,,,,,,,,,,,,,,,,,,,,,,,,,,G21ZJZ,train_y,blue_star,top_right,2025-04-29_15h30.50.818,HideSeek_v1,2022.2.5,59.44087535522214,
,8,8,8,5,0,-3,64,,train_dim1_1,17,30,,,,2,0,2,0,,,,,,,,,0,0,0,0,0,16,16,16,1,0,1,0,,,,,,,,,,,,,,,,,,,,,,,,,,,,,,,,,,,,,,,,,,,,,,,,,,,,,,,,,,,,,,,,30,,,,,,,,2729.296518899966,2729.296518899966,2729.296518899966,2729.296518899966,2729.296518899966,down,0.4597725998610258,5,1,0,99,0.48,0.07999999999999997,down,0.3885008995421231,,,,,,,,,,,,,,,,,,,,,,,,,,,,,,,,,,,,,,,,,,,,,,,,,,,,,,,,,,,,G21ZJZ,train_y,blue_star,top_right,2025-04-29_15h30.50.818,HideSeek_v1,2022.2.5,59.44087535522214,
,8,8,8,5,0,-3,64,,train_dim1_1,17,30,,,,2,0,2,0,,,,,,,,,0,0,0,0,0,16,16,16,2,0,2,0,,,,,,,,,,,,,,,,,,,,,,,,,,,,,,,,,,,,,,,,,,,,,,,,,,,,,,,,,,,,,,,,30,,,,,,,,2729.7674401002005,2729.7674401002005,2729.7674401002005,2729.7674401002005,2729.7674401002005,down,0.4433091003447771,5,1,0,99,0.48,-2.7755575615628914e-17,down,0.36313260020688176,,,,,,,,,,,,,,,,,,,,,,,,,,,,,,,,,,,,,,,,,,,,,,,,,,,,,,,,,,,,G21ZJZ,train_y,blue_star,top_right,2025-04-29_15h30.50.818,HideSeek_v1,2022.2.5,59.44087535522214,
,8,8,8,5,0,-3,64,,train_dim1_1,17,30,,,,2,0,2,0,,,,,,,,,0,0,0,0,0,16,16,16,3,0,3,0,,,,,,,,,,,,,,,,,,,,,,,,,,,,,,,,,,,,,,,,,,,,,,,,,,,,,,,,,,,,,,,,30,,,,,,,,2730.2156507000327,2730.2156507000327,2730.2156507000327,2730.2156507000327,2730.2156507000327,return,0.7608427996747196,6,0,0,1,0.48,-2.7755575615628914e-17,return,0.6750606996938586,-54,-9,0.48,-2.7755575615628914e-17,,,,,,,,,,,,,,,,,,,,,,,,,,,,,,,,,,,,,,,,,,,,,,,,,,,,,,,,G21ZJZ,train_y,blue_star,top_right,2025-04-29_15h30.50.818,HideSeek_v1,2022.2.5,59.44087535522214,
,7,6,7,6,0,0,61,,train_dim1_1,18,30,,,,2,0,2,0,,,,,,,,,0,0,0,0,0,17,17,17,0,0,0,0,,,,,,,,,,,,,,,,,,,,,,,,,stimuli/alien_stimuli/61.png,,,,,,,,,,,,,,,,,,,,,,,,,,,,,stimuli/alien_stimuli/64.png,64,8,19,,,,,,,30,,,,,,,,2736.327314800117,2736.327314800117,2736.327314800117,2736.327314800117,2736.327314800117,return,3.50426850002259,7,0,0,1,0.4,0.08,return,3.422574599739164,-54,-9,0.4,0.08,2734.7718996000476,2736.327314800117,0.48,0,0.24,0.0,0.12,0.48,0.48,0.48,0,2732.543236800004,2732.543236800004,2732.543236800004,2732.543236800004,2732.543236800004,2732.543236800004,2732.543236800004,2732.543236800004,2732.5366173203565,2.3375128000043333,return,2.212590799666941,,,,,,,,,,,,,,,,,,,,,,,,,,,,,,,,,G21ZJZ,train_y,blue_star,top_right,2025-04-29_15h30.50.818,HideSeek_v1,2022.2.5,59.44087535522214,
,5,9,5,8,0,-1,62,,train_dim1_1,19,30,,,,2,0,2,0,,,,,,,,,0,0,0,0,0,18,18,18,0,0,0,0,,,,,,,,,,,,,,,,,,,,,,,,,stimuli/alien_stimuli/62.png,,,,,,,,,,,,,,,,,,,,,,,,,,,,,stimuli/alien_stimuli/61.png,61,7,20,,,,,,,30,,,,,,,,2744.615989500191,2744.615989500191,2744.615989500191,2744.615989500191,2744.615989500191,down,2.0544863999821246,7,0,0,99,0.24,0.24,down,1.9730675993487239,,,,,2743.06184090022,2744.615989500191,0.4,0.08,0.0,0.0,0.08,0.4,0.4,0.4,0.08,2741.385616400279,2741.385616400279,2741.385616400279,2741.385616400279,2741.385616400279,2741.385616400279,2741.385616400279,2741.385616400279,2741.3772198602555,1.770221000071615,return,1.6478615999221802,,,,,,,,,,,,,,,,,,,,,,,,,,,,,,,,,G21ZJZ,train_y,blue_star,top_right,2025-04-29_15h30.50.818,HideSeek_v1,2022.2.5,59.44087535522214,
,5,9,5,8,0,-1,62,,train_dim1_1,19,30,,,,2,0,2,0,,,,,,,,,0,0,0,0,0,18,18,18,1,0,1,0,,,,,,,,,,,,,,,,,,,,,,,,,,,,,,,,,,,,,,,,,,,,,,,,,,,,,,,,,,,,,,,,30,,,,,,,,2746.679323399905,2746.679323399905,2746.679323399905,2746.679323399905,2746.679323399905,return,0.6091809002682567,8,0,0,1,0.24,0.24,return,0.5264275996014476,-55,-9,0.24,0.24,,,,,,,,,,,,,,,,,,,,,,,,,,,,,,,,,,,,,,,,,,,,,,,,,,,,,,,,G21ZJZ,train_y,blue_star,top_right,2025-04-29_15h30.50.818,HideSeek_v1,2022.2.5,59.44087535522214,
,7,5,7,0,0,-5,66,,train_dim1_1,20,30,,,,2,0,2,0,,,,,,,,,0,0,0,0,0,19,19,19,0,0,0,0,,,,,,,,,,,,,,,,,,,,,,,,,stimuli/alien_stimuli/66.png,,,,,,,,,,,,,,,,,,,,,,,,,,,,,stimuli/alien_stimuli/62.png,62,5,21,,,,,,,30,,,,,,,,2751.8721489999443,2751.8721489999443,2751.8721489999443,2751.8721489999443,2751.8721489999443,down,3.906015600077808,8,0,0,99,0.4,-0.08,down,3.819632099941373,,,,,2750.3179542999715,2751.8721489999443,0.24,0.24,0.08,0.0,0.28,0.24,0.24,0.24,0.24,2748.8616428002715,2748.8616428002715,2748.8616428002715,2748.8616428002715,2748.8616428002715,2748.8616428002715,2748.8616428002715,2748.8616428002715,2748.850022420147,1.570125499740243,return,1.431159499567002,,,,,,,,,,,,,,,,,,,,,,,,,,,,,,,,,G21ZJZ,train_y,blue_star,top_right,2025-04-29_15h30.50.818,HideSeek_v1,2022.2.5,59.44087535522214,
,7,5,7,0,0,-5,66,,train_dim1_1,20,30,,,,2,0,2,0,,,,,,,,,0,0,0,0,0,19,19,19,1,0,1,0,,,,,,,,,,,,,,,,,,,,,,,,,,,,,,,,,,,,,,,,,,,,,,,,,,,,,,,,,,,,,,,,30,,,,,,,,2755.786861300003,2755.786861300003,2755.786861300003,2755.786861300003,2755.786861300003,down,0.4587336000986397,8,0,0,99,0.4,-0.16,down,0.3857614998705685,,,,,,,,,,,,,,,,,,,,,,,,,,,,,,,,,,,,,,,,,,,,,,,,,,,,,,,,,,,,G21ZJZ,train_y,blue_star,top_right,2025-04-29_15h30.50.818,HideSeek_v1,2022.2.5,59.44087535522214,
,7,5,7,0,0,-5,66,,train_dim1_1,20,30,,,,2,0,2,0,,,,,,,,,0,0,0,0,0,19,19,19,2,0,2,0,,,,,,,,,,,,,,,,,,,,,,,,,,,,,,,,,,,,,,,,,,,,,,,,,,,,,,,,,,,,,,,,30,,,,,,,,2756.2527723000385,2756.2527723000385,2756.2527723000385,2756.2527723000385,2756.2527723000385,down,0.5768380002118647,8,0,0,99,0.4,-0.24,down,0.4996068994514644,,,,,,,,,,,,,,,,,,,,,,,,,,,,,,,,,,,,,,,,,,,,,,,,,,,,,,,,,,,,G21ZJZ,train_y,blue_star,top_right,2025-04-29_15h30.50.818,HideSeek_v1,2022.2.5,59.44087535522214,
,7,5,7,0,0,-5,66,,train_dim1_1,20,30,,,,2,0,2,0,,,,,,,,,0,0,0,0,0,19,19,19,3,0,3,0,,,,,,,,,,,,,,,,,,,,,,,,,,,,,,,,,,,,,,,,,,,,,,,,,,,,,,,,,,,,,,,,30,,,,,,,,2756.841069899965,2756.841069899965,2756.841069899965,2756.841069899965,2756.841069899965,down,0.6234081001020968,8,0,0,99,0.4,-0.32,down,0.54140800004825,,,,,,,,,,,,,,,,,,,,,,,,,,,,,,,,,,,,,,,,,,,,,,,,,,,,,,,,,,,,G21ZJZ,train_y,blue_star,top_right,2025-04-29_15h30.50.818,HideSeek_v1,2022.2.5,59.44087535522214,
,7,5,7,0,0,-5,66,,train_dim1_1,20,30,,,,2,0,2,0,,,,,,,,,0,0,0,0,0,19,19,19,4,0,4,0,,,,,,,,,,,,,,,,,,,,,,,,,,,,,,,,,,,,,,,,,,,,,,,,,,,,,,,,,,,,,,,,30,,,,,,,,2757.470850000158,2757.470850000158,2757.470850000158,2757.470850000158,2757.470850000158,down,0.8769264998845756,8,0,0,99,0.4,-0.4,down,0.7881997996009886,,,,,,,,,,,,,,,,,,,,,,,,,,,,,,,,,,,,,,,,,,,,,,,,,,,,,,,,,,,,G21ZJZ,train_y,blue_star,top_right,2025-04-29_15h30.50.818,HideSeek_v1,2022.2.5,59.44087535522214,
,7,5,7,0,0,-5,66,,train_dim1_1,20,30,,,,2,0,2,0,,,,,,,,,0,0,0,0,0,19,19,19,5,0,5,0,,,,,,,,,,,,,,,,,,,,,,,,,,,,,,,,,,,,,,,,,,,,,,,,,,,,,,,,,,,,,,,,30,,,,,,,,2758.353925799951,2758.353925799951,2758.353925799951,2758.353925799951,2758.353925799951,return,0.9106376999989152,9,0,0,1,0.4,-0.4,return,0.8363642999902368,-60,-9,0.4,-0.4,,,,,,,,,,,,,,,,,,,,,,,,,,,,,,,,,,,,,,,,,,,,,,,,,,,,,,,,G21ZJZ,train_y,blue_star,top_right,2025-04-29_15h30.50.818,HideSeek_v1,2022.2.5,59.44087535522214,
,7,9,7,5,0,-4,65,,train_dim1_1,21,30,,,,2,0,2,0,,,,,,,,,0,0,0,0,0,20,20,20,0,0,0,0,,,,,,,,,,,,,,,,,,,,,,,,,stimuli/alien_stimuli/65.png,,,,,,,,,,,,,,,,,,,,,,,,,,,,,stimuli/alien_stimuli/66.png,66,7,22,,,,,,,30,,,,,,,,2764.5966455000453,2764.5966455000453,2764.5966455000453,2764.5966455000453,2764.5966455000453,down,3.775901799555868,9,0,0,99,0.4,0.24,down,3.700649499427527,,,,,2763.0452390001155,2764.5966455000453,0.4,-0.4,0.4,0.0,-0.2,0.4,0.4,0.4,-0.4,2760.8357981001027,2760.8357981001027,2760.8357981001027,2760.8357981001027,2760.8357981001027,2760.8357981001027,2760.8357981001027,2760.8357981001027,2760.826616220036,2.3211341998539865,return,2.191219199914485,,,,,,,,,,,,,,,,,,,,,,,,,,,,,,,,,G21ZJZ,train_y,blue_star,top_right,2025-04-29_15h30.50.818,HideSeek_v1,2022.2.5,59.44087535522214,
,7,9,7,5,0,-4,65,,train_dim1_1,21,30,,,,2,0,2,0,,,,,,,,,0,0,0,0,0,20,20,20,1,0,1,0,,,,,,,,,,,,,,,,,,,,,,,,,,,,,,,,,,,,,,,,,,,,,,,,,,,,,,,,,,,,,,,,30,,,,,,,,2768.383292300161,2768.383292300161,2768.383292300161,2768.383292300161,2768.383292300161,down,0.541257600300014,9,0,0,99,0.4,0.15999999999999998,down,0.45152750005945563,,,,,,,,,,,,,,,,,,,,,,,,,,,,,,,,,,,,,,,,,,,,,,,,,,,,,,,,,,,,G21ZJZ,train_y,blue_star,top_right,2025-04-29_15h30.50.818,HideSeek_v1,2022.2.5,59.44087535522214,
,7,9,7,5,0,-4,65,,train_dim1_1,21,30,,,,2,0,2,0,,,,,,,,,0,0,0,0,0,20,20,20,2,0,2,0,,,,,,,,,,,,,,,,,,,,,,,,,,,,,,,,,,,,,,,,,,,,,,,,,,,,,,,,,,,,,,,,30,,,,,,,,2768.929338800255,2768.929338800255,2768.929338800255,2768.929338800255,2768.929338800255,down,0.5592650999315083,9,0,0,99,0.4,0.07999999999999997,down,0.48333439975976944,,,,,,,,,,,,,,,,,,,,,,,,,,,,,,,,,,,,,,,,,,,,,,,,,,,,,,,,,,,,G21ZJZ,train_y,blue_star,top_right,2025-04-29_15h30.50.818,HideSeek_v1,2022.2.5,59.44087535522214,
,7,9,7,5,0,-4,65,,train_dim1_1,21,30,,,,2,0,2,0,,,,,,,,,0,0,0,0,0,20,20,20,3,0,3,0,,,,,,,,,,,,,,,,,,,,,,,,,,,,,,,,,,,,,,,,,,,,,,,,,,,,,,,,,,,,,,,,30,,,,,,,,2769.4968412001617,2769.4968412001617,2769.4968412001617,2769.4968412001617,2769.4968412001617,down,0.5096193999052048,9,0,0,99,0.4,-2.7755575615628914e-17,down,0.42886599991470575,,,,,,,,,,,,,,,,,,,,,,,,,,,,,,,,,,,,,,,,,,,,,,,,,,,,,,,,,,,,G21ZJZ,train_y,blue_star,top_right,2025-04-29_15h30.50.818,HideSeek_v1,2022.2.5,59.44087535522214,
,7,9,7,5,0,-4,65,,train_dim1_1,21,30,,,,2,0,2,0,,,,,,,,,0,0,0,0,0,20,20,20,4,0,4,0,,,,,,,,,,,,,,,,,,,,,,,,,,,,,,,,,,,,,,,,,,,,,,,,,,,,,,,,,,,,,,,,30,,,,,,,,2770.0126809999347,2770.0126809999347,2770.0126809999347,2770.0126809999347,2770.0126809999347,return,2.0119146001525223,10,0,0,1,0.4,-2.7755575615628914e-17,return,1.9355490999296308,-64,-9,0.4,-2.7755575615628914e-17,,,,,,,,,,,,,,,,,,,,,,,,,,,,,,,,,,,,,,,,,,,,,,,,,,,,,,,,G21ZJZ,train_y,blue_star,top_right,2025-04-29_15h30.50.818,HideSeek_v1,2022.2.5,59.44087535522214,
,5,7,5,4,0,-3,64,,train_dim1_1,22,30,,,,2,0,2,0,,,,,,,,,0,0,0,0,0,21,21,21,0,0,0,0,,,,,,,,,,,,,,,,,,,,,,,,,stimuli/alien_stimuli/64.png,,,,,,,,,,,,,,,,,,,,,,,,,,,,,stimuli/alien_stimuli/65.png,65,7,23,,,,,,,30,,,,,,,,2776.675740899984,2776.675740899984,2776.675740899984,2776.675740899984,2776.675740899984,down,1.8542287000454962,10,0,0,99,0.24,0.08,down,1.772543199826032,,,,,2775.1218706001528,2776.675740899984,0.4,0,0.32,0.0,0.16,0.4,0.4,0.4,0,2773.599662099965,2773.599662099965,2773.599662099965,2773.599662099965,2773.599662099965,2773.599662099965,2773.599662099965,2773.599662099965,2773.5872845201284,1.636722800321877,return,1.490985699929297,,,,,,,,,,,,,,,,,,,,,,,,,,,,,,,,,G21ZJZ,train_y,blue_star,top_right,2025-04-29_15h30.50.818,HideSeek_v1,2022.2.5,59.44087535522214,
,5,7,5,4,0,-3,64,,train_dim1_1,22,30,,,,2,0,2,0,,,,,,,,,0,0,0,0,0,21,21,21,1,0,1,0,,,,,,,,,,,,,,,,,,,,,,,,,,,,,,,,,,,,,,,,,,,,,,,,,,,,,,,,,,,,,,,,30,,,,,,,,2778.538498400245,2778.538498400245,2778.538498400245,2778.538498400245,2778.538498400245,down,0.4422027003020048,10,0,0,99,0.24,0.0,down,0.37117209983989596,,,,,,,,,,,,,,,,,,,,,,,,,,,,,,,,,,,,,,,,,,,,,,,,,,,,,,,,,,,,G21ZJZ,train_y,blue_star,top_right,2025-04-29_15h30.50.818,HideSeek_v1,2022.2.5,59.44087535522214,
,5,7,5,4,0,-3,64,,train_dim1_1,22,30,,,,2,0,2,0,,,,,,,,,0,0,0,0,0,21,21,21,2,0,2,0,,,,,,,,,,,,,,,,,,,,,,,,,,,,,,,,,,,,,,,,,,,,,,,,,,,,,,,,,,,,,,,,30,,,,,,,,2778.992501200177,2778.992501200177,2778.992501200177,2778.992501200177,2778.992501200177,down,0.42337979981675744,10,0,0,99,0.24,-0.08,down,0.3448911998420954,,,,,,,,,,,,,,,,,,,,,,,,,,,,,,,,,,,,,,,,,,,,,,,,,,,,,,,,,,,,G21ZJZ,train_y,blue_star,top_right,2025-04-29_15h30.50.818,HideSeek_v1,2022.2.5,59.44087535522214,
,5,7,5,4,0,-3,64,,train_dim1_1,22,30,,,,2,0,2,0,,,,,,,,,0,0,0,0,0,21,21,21,3,0,3,0,,,,,,,,,,,,,,,,,,,,,,,,,,,,,,,,,,,,,,,,,,,,,,,,,,,,,,,,,,,,,,,,30,,,,,,,,2779.420911299996,2779.420911299996,2779.420911299996,2779.420911299996,2779.420911299996,return,0.7101205997169018,11,0,0,1,0.24,-0.08,return,0.634073399938643,-67,-9,0.24,-0.08,,,,,,,,,,,,,,,,,,,,,,,,,,,,,,,,,,,,,,,,,,,,,,,,,,,,,,,,G21ZJZ,train_y,blue_star,top_right,2025-04-29_15h30.50.818,HideSeek_v1,2022.2.5,59.44087535522214,
,5,8,5,8,0,0,61,,train_dim1_1,23,30,,,,2,0,2,0,,,,,,,,,0,0,0,0,0,22,22,22,0,0,0,0,,,,,,,,,,,,,,,,,,,,,,,,,stimuli/alien_stimuli/61.png,,,,,,,,,,,,,,,,,,,,,,,,,,,,,stimuli/alien_stimuli/64.png,64,5,24,,,,,,,30,,,,,,,,2784.947953000199,2784.947953000199,2784.947953000199,2784.947953000199,2784.947953000199,return,4.259068400133401,12,0,0,1,0.24,0.24,return,4.17848699958995,-67,-9,0.24,0.24,2783.395217299927,2784.947953000199,0.24,-0.08,0.24,0.0,0.04,0.24,0.24,0.24,-0.08,2781.704201000277,2781.704201000277,2781.704201000277,2781.704201000277,2781.704201000277,2781.704201000277,2781.704201000277,2781.704201000277,2781.693935120338,1.803599000442773,return,1.6614132998511195,,,,,,,,,,,,,,,,,,,,,,,,,,,,,,,,,G21ZJZ,train_y,blue_star,top_right,2025-04-29_15h30.50.818,HideSeek_v1,2022.2.5,59.44087535522214,
,8,7,8,2,0,-5,66,,train_dim1_1,24,30,,,,2,0,2,0,,,,,,,,,0,0,0,0,0,23,23,23,0,0,0,0,,,,,,,,,,,,,,,,,,,,,,,,,stimuli/alien_stimuli/66.png,,,,,,,,,,,,,,,,,,,,,,,,,,,,,stimuli/alien_stimuli/61.png,61,5,25,,,,,,,30,,,,,,,,2793.7415366000496,2793.7415366000496,2793.7415366000496,2793.7415366000496,2793.7415366000496,down,3.070821499917656,12,0,0,99,0.48,0.08,down,2.983291999902576,,,,,2792.186092799995,2793.7415366000496,0.24,0.24,0.0,0.0,0.24,0.24,0.24,0.24,0.24,2790.7566622998565,2790.7566622998565,2790.7566622998565,2790.7566622998565,2790.7566622998565,2790.7566622998565,2790.7566622998565,2790.7566622998565,2790.7515157603657,1.5199187998659909,return,1.4062153995037079,,,,,,,,,,,,,,,,,,,,,,,,,,,,,,,,,G21ZJZ,train_y,blue_star,top_right,2025-04-29_15h30.50.818,HideSeek_v1,2022.2.5,59.44087535522214,
,8,7,8,2,0,-5,66,,train_dim1_1,24,30,,,,2,0,2,0,,,,,,,,,0,0,0,0,0,23,23,23,1,0,1,0,,,,,,,,,,,,,,,,,,,,,,,,,,,,,,,,,,,,,,,,,,,,,,,,,,,,,,,,,,,,,,,,30,,,,,,,,2796.821346099954,2796.821346099954,2796.821346099954,2796.821346099954,2796.821346099954,down,0.44219479989260435,12,0,0,99,0.48,0.0,down,0.35959429992362857,,,,,,,,,,,,,,,,,,,,,,,,,,,,,,,,,,,,,,,,,,,,,,,,,,,,,,,,,,,,G21ZJZ,train_y,blue_star,top_right,2025-04-29_15h30.50.818,HideSeek_v1,2022.2.5,59.44087535522214,
,8,7,8,2,0,-5,66,,train_dim1_1,24,30,,,,2,0,2,0,,,,,,,,,0,0,0,0,0,23,23,23,2,0,2,0,,,,,,,,,,,,,,,,,,,,,,,,,,,,,,,,,,,,,,,,,,,,,,,,,,,,,,,,,,,,,,,,30,,,,,,,,2797.2695427001454,2797.2695427001454,2797.2695427001454,2797.2695427001454,2797.2695427001454,down,0.45932469982653856,12,0,0,99,0.48,-0.08,down,0.3764347997494042,,,,,,,,,,,,,,,,,,,,,,,,,,,,,,,,,,,,,,,,,,,,,,,,,,,,,,,,,,,,G21ZJZ,train_y,blue_star,top_right,2025-04-29_15h30.50.818,HideSeek_v1,2022.2.5,59.44087535522214,
,8,7,8,2,0,-5,66,,train_dim1_1,24,30,,,,2,0,2,0,,,,,,,,,0,0,0,0,0,23,23,23,3,0,3,0,,,,,,,,,,,,,,,,,,,,,,,,,,,,,,,,,,,,,,,,,,,,,,,,,,,,,,,,,,,,,,,,30,,,,,,,,2797.7357645002194,2797.7357645002194,2797.7357645002194,2797.7357645002194,2797.7357645002194,down,0.4774664998985827,12,0,0,99,0.48,-0.16,down,0.40056739980354905,,,,,,,,,,,,,,,,,,,,,,,,,,,,,,,,,,,,,,,,,,,,,,,,,,,,,,,,,,,,G21ZJZ,train_y,blue_star,top_right,2025-04-29_15h30.50.818,HideSeek_v1,2022.2.5,59.44087535522214,
,8,7,8,2,0,-5,66,,train_dim1_1,24,30,,,,2,0,2,0,,,,,,,,,0,0,0,0,0,23,23,23,4,0,4,0,,,,,,,,,,,,,,,,,,,,,,,,,,,,,,,,,,,,,,,,,,,,,,,,,,,,,,,,,,,,,,,,30,,,,,,,,2798.2202588999644,2798.2202588999644,2798.2202588999644,2798.2202588999644,2798.2202588999644,down,0.4598113000392914,12,0,0,99,0.48,-0.24,down,0.3881493997760117,,,,,,,,,,,,,,,,,,,,,,,,,,,,,,,,,,,,,,,,,,,,,,,,,,,,,,,,,,,,G21ZJZ,train_y,blue_star,top_right,2025-04-29_15h30.50.818,HideSeek_v1,2022.2.5,59.44087535522214,
,8,7,8,2,0,-5,66,,train_dim1_1,24,30,,,,2,0,2,0,,,,,,,,,0,0,0,0,0,23,23,23,5,0,5,0,,,,,,,,,,,,,,,,,,,,,,,,,,,,,,,,,,,,,,,,,,,,,,,,,,,,,,,,,,,,,,,,30,,,,,,,,2798.6896418002434,2798.6896418002434,2798.6896418002434,2798.6896418002434,2798.6896418002434,return,0.6604471001774073,13,0,0,1,0.48,-0.24,return,0.5862170998007059,-72,-9,0.48,-0.24,,,,,,,,,,,,,,,,,,,,,,,,,,,,,,,,,,,,,,,,,,,,,,,,,,,,,,,,G21ZJZ,train_y,blue_star,top_right,2025-04-29_15h30.50.818,HideSeek_v1,2022.2.5,59.44087535522214,
,8,8,8,7,0,-1,62,,train_dim1_1,25,30,,,,2,0,2,0,,,,,,,,,0,0,0,0,0,24,24,24,0,0,0,0,,,,,,,,,,,,,,,,,,,,,,,,,stimuli/alien_stimuli/62.png,,,,,,,,,,,,,,,,,,,,,,,,,,,,,stimuli/alien_stimuli/66.png,66,8,26,,,,,,,30,,,,,,,,2803.8969824002124,2803.8969824002124,2803.8969824002124,2803.8969824002124,2803.8969824002124,down,2.9403193001635373,13,0,0,99,0.48,0.15999999999999998,down,2.85445459978655,,,,,2802.344664500095,2803.8969824002124,0.48,-0.24,0.4,0.0,-0.039999999999999994,0.48,0.48,0.48,-0.24,2800.9184266999364,2800.9184266999364,2800.9184266999364,2800.9184266999364,2800.9184266999364,2800.9184266999364,2800.9184266999364,2800.9184266999364,2800.9099860203914,1.5368290999904275,return,1.399661600124091,,,,,,,,,,,,,,,,,,,,,,,,,,,,,,,,,G21ZJZ,train_y,blue_star,top_right,2025-04-29_15h30.50.818,HideSeek_v1,2022.2.5,59.44087535522214,
,8,8,8,7,0,-1,62,,train_dim1_1,25,30,,,,2,0,2,0,,,,,,,,,0,0,0,0,0,24,24,24,1,0,1,0,,,,,,,,,,,,,,,,,,,,,,,,,,,,,,,,,,,,,,,,,,,,,,,,,,,,,,,,,,,,,,,,30,,,,,,,,2806.8461951999925,2806.8461951999925,2806.8461951999925,2806.8461951999925,2806.8461951999925,return,0.7095951000228524,14,0,0,1,0.48,0.15999999999999998,return,0.6289681997150183,-73,-9,0.48,0.15999999999999998,,,,,,,,,,,,,,,,,,,,,,,,,,,,,,,,,,,,,,,,,,,,,,,,,,,,,,,,G21ZJZ,train_y,blue_star,top_right,2025-04-29_15h30.50.818,HideSeek_v1,2022.2.5,59.44087535522214,
,9,9,9,6,0,-3,64,,train_dim1_1,26,30,,,,2,0,2,0,,,,,,,,,0,0,0,0,0,25,25,25,0,0,0,0,,,,,,,,,,,,,,,,,,,,,,,,,stimuli/alien_stimuli/64.png,,,,,,,,,,,,,,,,,,,,,,,,,,,,,stimuli/alien_stimuli/62.png,62,8,27,,,,,,,30,,,,,,,,2812.05766580021,2812.05766580021,2812.05766580021,2812.05766580021,2812.05766580021,down,2.9034736999310553,14,0,0,99,0.56,0.24,down,2.8303465000353754,,,,,2810.501173700206,2812.05766580021,0.48,0.16,0.08,0.0,0.2,0.48,0.48,0.48,0.16,2809.122717600316,2809.122717600316,2809.122717600316,2809.122717600316,2809.122717600316,2809.122717600316,2809.122717600316,2809.122717600316,2809.1168105200395,1.4865552000701427,return,1.359439299441874,,,,,,,,,,,,,,,,,,,,,,,,,,,,,,,,,G21ZJZ,train_y,blue_star,top_right,2025-04-29_15h30.50.818,HideSeek_v1,2022.2.5,59.44087535522214,
,9,9,9,6,0,-3,64,,train_dim1_1,26,30,,,,2,0,2,0,,,,,,,,,0,0,0,0,0,25,25,25,1,0,1,0,,,,,,,,,,,,,,,,,,,,,,,,,,,,,,,,,,,,,,,,,,,,,,,,,,,,,,,,,,,,,,,,30,,,,,,,,2814.9692448000424,2814.9692448000424,2814.9692448000424,2814.9692448000424,2814.9692448000424,down,0.475672900211066,14,0,0,99,0.56,0.15999999999999998,down,0.3873378997668624,,,,,,,,,,,,,,,,,,,,,,,,,,,,,,,,,,,,,,,,,,,,,,,,,,,,,,,,,,,,G21ZJZ,train_y,blue_star,top_right,2025-04-29_15h30.50.818,HideSeek_v1,2022.2.5,59.44087535522214,
,9,9,9,6,0,-3,64,,train_dim1_1,26,30,,,,2,0,2,0,,,,,,,,,0,0,0,0,0,25,25,25,2,0,2,0,,,,,,,,,,,,,,,,,,,,,,,,,,,,,,,,,,,,,,,,,,,,,,,,,,,,,,,,,,,,,,,,30,,,,,,,,2815.4508122000843,2815.4508122000843,2815.4508122000843,2815.4508122000843,2815.4508122000843,down,0.44358969992026687,14,0,0,99,0.56,0.07999999999999997,down,0.3675287999212742,,,,,,,,,,,,,,,,,,,,,,,,,,,,,,,,,,,,,,,,,,,,,,,,,,,,,,,,,,,,G21ZJZ,train_y,blue_star,top_right,2025-04-29_15h30.50.818,HideSeek_v1,2022.2.5,59.44087535522214,
,9,9,9,6,0,-3,64,,train_dim1_1,26,30,,,,2,0,2,0,,,,,,,,,0,0,0,0,0,25,25,25,3,0,3,0,,,,,,,,,,,,,,,,,,,,,,,,,,,,,,,,,,,,,,,,,,,,,,,,,,,,,,,,,,,,,,,,30,,,,,,,,2815.9015378998592,2815.9015378998592,2815.9015378998592,2815.9015378998592,2815.9015378998592,return,0.8268486000597477,15,0,0,1,0.56,0.07999999999999997,return,0.7481973995454609,-76,-9,0.56,0.07999999999999997,,,,,,,,,,,,,,,,,,,,,,,,,,,,,,,,,,,,,,,,,,,,,,,,,,,,,,,,G21ZJZ,train_y,blue_star,top_right,2025-04-29_15h30.50.818,HideSeek_v1,2022.2.5,59.44087535522214,
,8,9,8,4,0,-5,66,,train_dim1_1,27,30,,,,2,0,2,0,,,,,,,,,0,0,0,0,0,26,26,26,0,0,0,0,,,,,,,,,,,,,,,,,,,,,,,,,stimuli/alien_stimuli/66.png,,,,,,,,,,,,,,,,,,,,,,,,,,,,,stimuli/alien_stimuli/64.png,64,9,28,,,,,,,30,,,,,,,,2821.7284075003117,2821.7284075003117,2821.7284075003117,2821.7284075003117,2821.7284075003117,down,3.1075212000869215,15,0,0,99,0.48,0.24,down,3.0341082997620106,,,,,2820.1761715998873,2821.7284075003117,0.56,0.08,0.24,0.0,0.2,0.56,0.56,0.56,0.08,2818.2809055000544,2818.2809055000544,2818.2809055000544,2818.2809055000544,2818.2809055000544,2818.2809055000544,2818.2809055000544,2818.2809055000544,2818.2743573601356,1.9871983998455107,return,1.875186899676919,,,,,,,,,,,,,,,,,,,,,,,,,,,,,,,,,G21ZJZ,train_y,blue_star,top_right,2025-04-29_15h30.50.818,HideSeek_v1,2022.2.5,59.44087535522214,
,8,9,8,4,0,-5,66,,train_dim1_1,27,30,,,,2,0,2,0,,,,,,,,,0,0,0,0,0,26,26,26,1,0,1,0,,,,,,,,,,,,,,,,,,,,,,,,,,,,,,,,,,,,,,,,,,,,,,,,,,,,,,,,,,,,,,,,30,,,,,,,,2824.8433914999478,2824.8433914999478,2824.8433914999478,2824.8433914999478,2824.8433914999478,down,0.37598529970273376,15,0,0,99,0.48,0.15999999999999998,down,0.2956546996720135,,,,,,,,,,,,,,,,,,,,,,,,,,,,,,,,,,,,,,,,,,,,,,,,,,,,,,,,,,,,G21ZJZ,train_y,blue_star,top_right,2025-04-29_15h30.50.818,HideSeek_v1,2022.2.5,59.44087535522214,
,8,9,8,4,0,-5,66,,train_dim1_1,27,30,,,,2,0,2,0,,,,,,,,,0,0,0,0,0,26,26,26,2,0,2,0,,,,,,,,,,,,,,,,,,,,,,,,,,,,,,,,,,,,,,,,,,,,,,,,,,,,,,,,,,,,,,,,30,,,,,,,,2825.2269745999947,2825.2269745999947,2825.2269745999947,2825.2269745999947,2825.2269745999947,down,1.2602513004094362,15,0,0,99,0.48,0.07999999999999997,down,1.1873227995820343,,,,,,,,,,,,,,,,,,,,,,,,,,,,,,,,,,,,,,,,,,,,,,,,,,,,,,,,,,,,G21ZJZ,train_y,blue_star,top_right,2025-04-29_15h30.50.818,HideSeek_v1,2022.2.5,59.44087535522214,
,8,9,8,4,0,-5,66,,train_dim1_1,27,30,,,,2,0,2,0,,,,,,,,,0,0,0,0,0,26,26,26,3,0,3,0,,,,,,,,,,,,,,,,,,,,,,,,,,,,,,,,,,,,,,,,,,,,,,,,,,,,,,,,,,,,,,,,30,,,,,,,,2826.493717700243,2826.493717700243,2826.493717700243,2826.493717700243,2826.493717700243,down,0.5104556996375322,15,0,0,99,0.48,-2.7755575615628914e-17,down,0.42762429965659976,,,,,,,,,,,,,,,,,,,,,,,,,,,,,,,,,,,,,,,,,,,,,,,,,,,,,,,,,,,,G21ZJZ,train_y,blue_star,top_right,2025-04-29_15h30.50.818,HideSeek_v1,2022.2.5,59.44087535522214,
,8,9,8,4,0,-5,66,,train_dim1_1,27,30,,,,2,0,2,0,,,,,,,,,0,0,0,0,0,26,26,26,4,0,4,0,,,,,,,,,,,,,,,,,,,,,,,,,,,,,,,,,,,,,,,,,,,,,,,,,,,,,,,,,,,,,,,,30,,,,,,,,2827.0115837003104,2827.0115837003104,2827.0115837003104,2827.0115837003104,2827.0115837003104,down,0.4931299998424947,15,0,0,99,0.48,-0.08000000000000003,down,0.4109340994618833,,,,,,,,,,,,,,,,,,,,,,,,,,,,,,,,,,,,,,,,,,,,,,,,,,,,,,,,,,,,G21ZJZ,train_y,blue_star,top_right,2025-04-29_15h30.50.818,HideSeek_v1,2022.2.5,59.44087535522214,
,8,9,8,4,0,-5,66,,train_dim1_1,27,30,,,,2,0,2,0,,,,,,,,,0,0,0,0,0,26,26,26,5,0,5,0,,,,,,,,,,,,,,,,,,,,,,,,,,,,,,,,,,,,,,,,,,,,,,,,,,,,,,,,,,,,,,,,30,,,,,,,,2827.511473900173,2827.511473900173,2827.511473900173,2827.511473900173,2827.511473900173,return,0.6937532001174986,16,0,0,1,0.48,-0.08000000000000003,return,0.614156499505043,-81,-9,0.48,-0.08000000000000003,,,,,,,,,,,,,,,,,,,,,,,,,,,,,,,,,,,,,,,,,,,,,,,,,,,,,,,,G21ZJZ,train_y,blue_star,top_right,2025-04-29_15h30.50.818,HideSeek_v1,2022.2.5,59.44087535522214,
,9,6,9,6,0,0,61,,train_dim1_1,28,30,,,,2,0,2,0,,,,,,,,,0,0,0,0,0,27,27,27,0,0,0,0,,,,,,,,,,,,,,,,,,,,,,,,,stimuli/alien_stimuli/61.png,,,,,,,,,,,,,,,,,,,,,,,,,,,,,stimuli/alien_stimuli/66.png,66,8,29,,,,,,,30,,,,,,,,2832.772349699866,2832.772349699866,2832.772349699866,2832.772349699866,2832.772349699866,return,3.1073123002424836,17,0,0,1,0.56,0.08,return,3.0337732997722924,-81,-9,0.56,0.08,2831.2184832002968,2832.772349699866,0.48,-0.08,0.4,0.0,0.12,0.48,0.48,0.48,-0.08,2829.773109700065,2829.773109700065,2829.773109700065,2829.773109700065,2829.773109700065,2829.773109700065,2829.773109700065,2829.773109700065,2829.767129820166,1.5535385999828577,return,1.4138459996320307,,,,,,,,,,,,,,,,,,,,,,,,,,,,,,,,,G21ZJZ,train_y,blue_star,top_right,2025-04-29_15h30.50.818,HideSeek_v1,2022.2.5,59.44087535522214,
,7,7,7,6,0,-1,62,,train_dim1_1,29,30,,,,2,0,2,0,,,,,,,,,0,0,0,0,0,28,28,28,0,0,0,0,,,,,,,,,,,,,,,,,,,,,,,,,stimuli/alien_stimuli/62.png,,,,,,,,,,,,,,,,,,,,,,,,,,,,,stimuli/alien_stimuli/61.png,61,9,30,,,,,,,30,,,,,,,,2840.2825243002735,2840.2825243002735,2840.2825243002735,2840.2825243002735,2840.2825243002735,down,1.6198702999390662,17,0,0,99,0.4,0.08,down,1.5406614993698895,,,,,2838.7248559002765,2840.2825243002735,0.56,0.08,0.0,0.0,0.08,0.56,0.56,0.56,0.08,2837.438013799954,2837.438013799954,2837.438013799954,2837.438013799954,2837.438013799954,2837.438013799954,2837.438013799954,2837.438013799954,2837.4241711602544,1.3860607999376953,return,1.2653240994550288,,,,,,,,,,,,,,,,,,,,,,,,,,,,,,,,,G21ZJZ,train_y,blue_star,top_right,2025-04-29_15h30.50.818,HideSeek_v1,2022.2.5,59.44087535522214,
,7,7,7,6,0,-1,62,,train_dim1_1,29,30,,,,2,0,2,0,,,,,,,,,0,0,0,0,0,28,28,28,1,0,1,0,,,,,,,,,,,,,,,,,,,,,,,,,,,,,,,,,,,,,,,,,,,,,,,,,,,,,,,,,,,,,,,,30,,,,,,,,2841.912754500285,2841.912754500285,2841.912754500285,2841.912754500285,2841.912754500285,return,0.5222141998820007,18,0,0,1,0.4,0.08,return,0.4391640997491777,-82,-9,0.4,0.08,,,,,,,,,,,,,,,,,,,,,,,,,,,,,,,,,,,,,,,,,,,,,,,,,,,,,,,,G21ZJZ,train_y,blue_star,top_right,2025-04-29_15h30.50.818,HideSeek_v1,2022.2.5,59.44087535522214,
,5,6,5,2,0,-4,65,,train_dim1_1,30,30,,,,2,0,2,0,,,,,,,,,0,0,0,0,0,29,29,29,0,0,0,0,,,,,,,,,,,,,,,,,,,,,,,,,stimuli/alien_stimuli/65.png,,,,,,,,,,,,,,,,,,,,,,,,,,,,,stimuli/alien_stimuli/62.png,62,7,31,,,,,,,30,,,,,,,,2846.834267599974,2846.834267599974,2846.834267599974,2846.834267599974,2846.834267599974,down,4.272603900171816,18,0,0,99,0.24,0.0,down,4.19224809948355,,,,,2845.2799940998666,2846.834267599974,0.4,0.08,0.08,0.0,0.12,0.4,0.4,0.4,0.08,2843.9865732998587,2843.9865732998587,2843.9865732998587,2843.9865732998587,2843.9865732998587,2843.9865732998587,2843.9865732998587,2843.9865732998587,2843.979375560116,1.386041899677366,return,1.2682877997867763,,,,,,,,,,,,,,,,,,,,,,,,,,,,,,,,,G21ZJZ,train_y,blue_star,top_right,2025-04-29_15h30.50.818,HideSeek_v1,2022.2.5,59.44087535522214,
,5,6,5,2,0,-4,65,,train_dim1_1,30,30,,,,2,0,2,0,,,,,,,,,0,0,0,0,0,29,29,29,1,0,1,0,,,,,,,,,,,,,,,,,,,,,,,,,,,,,,,,,,,,,,,,,,,,,,,,,,,,,,,,,,,,,,,,30,,,,,,,,2851.1173161002807,2851.1173161002807,2851.1173161002807,2851.1173161002807,2851.1173161002807,down,0.8428315999917686,18,0,0,99,0.24,-0.08,down,0.7588535998947918,,,,,,,,,,,,,,,,,,,,,,,,,,,,,,,,,,,,,,,,,,,,,,,,,,,,,,,,,,,,G21ZJZ,train_y,blue_star,top_right,2025-04-29_15h30.50.818,HideSeek_v1,2022.2.5,59.44087535522214,
,5,6,5,2,0,-4,65,,train_dim1_1,30,30,,,,2,0,2,0,,,,,,,,,0,0,0,0,0,29,29,29,2,0,2,0,,,,,,,,,,,,,,,,,,,,,,,,,,,,,,,,,,,,,,,,,,,,,,,,,,,,,,,,,,,,,,,,30,,,,,,,,2851.966803499963,2851.966803499963,2851.966803499963,2851.966803499963,2851.966803499963,down,0.692607999779284,18,0,0,99,0.24,-0.16,down,0.6154187996871769,,,,,,,,,,,,,,,,,,,,,,,,,,,,,,,,,,,,,,,,,,,,,,,,,,,,,,,,,,,,G21ZJZ,train_y,blue_star,top_right,2025-04-29_15h30.50.818,HideSeek_v1,2022.2.5,59.44087535522214,
,5,6,5,2,0,-4,65,,train_dim1_1,30,30,,,,2,0,2,0,,,,,,,,,0,0,0,0,0,29,29,29,3,0,3,0,,,,,,,,,,,,,,,,,,,,,,,,,,,,,,,,,,,,,,,,,,,,,,,,,,,,,,,,,,,,,,,,30,,,,,,,,2852.66727659991,2852.66727659991,2852.66727659991,2852.66727659991,2852.66727659991,down,1.4424854000099003,18,0,0,99,0.24,-0.24,down,1.358816399704665,,,,,,,,,,,,,,,,,,,,,,,,,,,,,,,,,,,,,,,,,,,,,,,,,,,,,,,,,,,,G21ZJZ,train_y,blue_star,top_right,2025-04-29_15h30.50.818,HideSeek_v1,2022.2.5,59.44087535522214,
,5,6,5,2,0,-4,65,,train_dim1_1,30,30,,,,2,0,2,0,,,,,,,,,0,0,0,0,0,29,29,29,4,0,4,0,,,,,,,,,,,,,,,,,,,,,,,,,,,,,,,,,,,,,,,,,,,,,,,,,,,,,,,,,,,,,,,,30,,,,,,,,2854.117330200039,2854.117330200039,2854.117330200039,2854.117330200039,2854.117330200039,down,0.7432542997412384,18,0,0,99,0.24,-0.32,down,0.6635750997811556,,,,,,,,,,,,,,,,,,,,,,,,,,,,,,,,,,,,,,,,,,,,,,,,,,,,,,,,,,,,G21ZJZ,train_y,blue_star,top_right,2025-04-29_15h30.50.818,HideSeek_v1,2022.2.5,59.44087535522214,
,5,6,5,2,0,-4,65,,train_dim1_1,30,30,,,,2,0,2,0,,,,,,,,,0,0,0,0,0,29,29,29,5,0,5,0,,,,,,,,,,,,,,,,,,,,,,,,,,,,,,,,,,,,,,,,,,,,,,,,,,,,,,,,,,,,,,,,30,,,,,,,,2854.869330599904,2854.869330599904,2854.869330599904,2854.869330599904,2854.869330599904,return,0.7924226000905037,18,1,0,0,0.24,-0.32,return,0.7062093997374177,-87,-9,0.24,-0.32,,,,,,,,,,,,,,,,,,,,,,,,,,,,,,,,,,,,,,,,,,,,,,,,,,,,,,,,G21ZJZ,train_y,blue_star,top_right,2025-04-29_15h30.50.818,HideSeek_v1,2022.2.5,59.44087535522214,
,,,,,,,,,,,30,,,,2,0,2,0,,,,,,,,,,,,,,,,,,,,,,,,,,,,,,,,,,,,,,,,,,,,,,,,,,,,,,,,,,,,,,,,,,,,,,,,,,stimuli/alien_stimuli/65.png,65,5,32,21,0.7,0.75,1,1,1,30,0,conditions/schedules/train_y_first/blue_star_00/top_right/inputTrain_2.1.xlsx,99,1,2,1,0,,,,,,,,,,,0,,,,,,,,,2859.5421521002427,2861.105224600062,0.24,-0.24,0.32,0.0,-0.07999999999999999,0.24,0.24,0.24,-0.24,2857.2364763002843,2857.2364763002843,2857.2364763002843,2857.2364763002843,2857.2364763002843,2857.2364763002843,2857.2364763002843,2857.2364763002843,2857.2234321202614,2.421293899882585,return,2.289392799604684,0,0.9,0,1,18,,,,,,,,,,,,,,,,,,,,,,,,,,,,G21ZJZ,train_y,blue_star,top_right,2025-04-29_15h30.50.818,HideSeek_v1,2022.2.5,59.44087535522214,
,,,,,,,,,,,,,,,3,0,3,0,0,0,0,0,,,,,,,,,,,,,,,,,,,,,,,,,,,,,,,conditions/schedules/train_y_first/blue_star_00/top_right/instructions/Slide17.png,conditions/schedules/train_y_first/blue_star_00/top_right/instructions/Audio17.wav,2861.105224600062,2861.0934163403695,17,"[6.4841776001267135, 18.53168909996748, 20.926866500172764, 19.288309599738568, 4.355491099879146, 4.570061199832708, 6.287330999970436, 12.340364900417626, 6.057663700077683, 6.841749100014567, 10.719475500285625, 13.83222009986639, 17.717409300152212, 29.583193299826235, 42.946546600200236, 22.529732800088823, 55.66514190007001]","[0.00021189963445067406, 0.013855400029569864, 0.00022109970450401306, 0.10146600008010864, 0.03272989997640252, 0.04855460021644831, 0.04691260028630495, 0.03609579987823963, 0.05306100007146597, 0.06228730035945773, 0.037486199755221605, 13.832227099686861, 0.17527339980006218, 29.58320049988106, 0.0002586999908089638, 22.5297396001406, 55.66514870012179]",0,,,,,,,,,,,,,,,,,,,,,,,,,,,,,,,,,,,,,,,,,,,,,,,,,,,,,,,,,,,,,,,,,,,,,,,,,,,,,,,,,,,,,,,,,,,,,,,,,,,,,,,,,,,,,,,,,,,,,,,,,,,,G21ZJZ,train_y,blue_star,top_right,2025-04-29_15h30.50.818,HideSeek_v1,2022.2.5,59.44087535522214,
,,,,,,,,,,,,,,,3,0,3,0,1,0,1,0,,,,,,,,,,,,,,,,,,,,,,,,,,,,,,,conditions/schedules/train_y_first/blue_star_00/top_right/instructions/Slide18.png,conditions/schedules/train_y_first/blue_star_00/top_right/instructions/Audio18.wav,2916.83643019991,2916.822968340199,18,"[6.4841776001267135, 18.53168909996748, 20.926866500172764, 19.288309599738568, 4.355491099879146, 4.570061199832708, 6.287330999970436, 12.340364900417626, 6.057663700077683, 6.841749100014567, 10.719475500285625, 13.83222009986639, 17.717409300152212, 29.583193299826235, 42.946546600200236, 22.529732800088823, 55.66514190007001, 6.1732186996378005]","[0.00021189963445067406, 0.013855400029569864, 0.00022109970450401306, 0.10146600008010864, 0.03272989997640252, 0.04855460021644831, 0.04691260028630495, 0.03609579987823963, 0.05306100007146597, 0.06228730035945773, 0.037486199755221605, 13.832227099686861, 0.17527339980006218, 29.58320049988106, 0.0002586999908089638, 22.5297396001406, 55.66514870012179, 6.173225800041109]",0,,,,,,,,,,,,,,,,,,,,,,,,,,,,,,,,,,,,,,,,,,,,,,,,,,,,,,,,,,,,,,,,,,,,,,,,,,,,,,,,,,,,,,,,,,,,,,,,,,,,,,,,,,,,,,,,,,,,,,,,,,,,G21ZJZ,train_y,blue_star,top_right,2025-04-29_15h30.50.818,HideSeek_v1,2022.2.5,59.44087535522214,
,,,,,,,,,,,,,,,3,0,3,0,2,0,2,0,,,,,,,,,,,,,,,,,,,,,,,,,,,,,,,conditions/schedules/train_y_first/blue_star_00/top_right/instructions/Slide19.png,conditions/schedules/train_y_first/blue_star_00/top_right/instructions/Audio19.wav,2923.0802041999996,2923.0781906002667,19,"[6.4841776001267135, 18.53168909996748, 20.926866500172764, 19.288309599738568, 4.355491099879146, 4.570061199832708, 6.287330999970436, 12.340364900417626, 6.057663700077683, 6.841749100014567, 10.719475500285625, 13.83222009986639, 17.717409300152212, 29.583193299826235, 42.946546600200236, 22.529732800088823, 55.66514190007001, 6.1732186996378005, 10.370989200193435]","[0.00021189963445067406, 0.013855400029569864, 0.00022109970450401306, 0.10146600008010864, 0.03272989997640252, 0.04855460021644831, 0.04691260028630495, 0.03609579987823963, 0.05306100007146597, 0.06228730035945773, 0.037486199755221605, 13.832227099686861, 0.17527339980006218, 29.58320049988106, 0.0002586999908089638, 22.5297396001406, 55.66514870012179, 0.014158899895846844, 10.37099580001086]",0,,,,,,,,,,,,,,,,,,,,,,,,,,,,,,,,,,,,,,,,,,,,,,,,,,,,,,,,,,,,,,,,,,,,,,,,,,,,,,,,,,,,,,,,,,,,,,,,,,,,,,,,,,,,,,,,,,,,,,,,,,,,G21ZJZ,train_y,blue_star,top_right,2025-04-29_15h30.50.818,HideSeek_v1,2022.2.5,59.44087535522214,
,,,,,,,,,,,,,,,3,0,3,0,3,0,3,0,,,,,,,,,,,,,,,,,,,,,,,,,,,,,,,conditions/schedules/train_y_first/blue_star_00/top_right/instructions/Slide20.png,conditions/schedules/train_y_first/blue_star_00/top_right/instructions/Audio20.wav,2933.5189931001514,2933.5202608003747,20,"[6.4841776001267135, 18.53168909996748, 20.926866500172764, 19.288309599738568, 4.355491099879146, 4.570061199832708, 6.287330999970436, 12.340364900417626, 6.057663700077683, 6.841749100014567, 10.719475500285625, 13.83222009986639, 17.717409300152212, 29.583193299826235, 42.946546600200236, 22.529732800088823, 55.66514190007001, 6.1732186996378005, 10.370989200193435, 13.026361799798906]","[0.00021189963445067406, 0.013855400029569864, 0.00022109970450401306, 0.10146600008010864, 0.03272989997640252, 0.04855460021644831, 0.04691260028630495, 0.03609579987823963, 0.05306100007146597, 0.06228730035945773, 0.037486199755221605, 13.832227099686861, 0.17527339980006218, 29.58320049988106, 0.0002586999908089638, 22.5297396001406, 55.66514870012179, 0.014158899895846844, 0.03267550002783537, 13.026368799619377]",0,,,,,,,,,,,,,,,,,,,,,,,,,,,,,,,,,,,,,,,,,,,,,,,,,,,,,,,,,,,,,,,,,,,,,,,,,,,,,,,,,,,,,,,,,,,,,,,,,,,,,,,,,,,,,,,,,,,,,,,,,,,,G21ZJZ,train_y,blue_star,top_right,2025-04-29_15h30.50.818,HideSeek_v1,2022.2.5,59.44087535522214,
1,9,5,4,5,-5,0,11,2,instr_dim1_2,,,,,,3,0,3,0,,,,,0,0,0,0,,,,,,,,,,,,,,,,,,,,,,,,,,,,,,,,,,,,,stimuli/alien_stimuli/11.png,conditions/schedules/train_y_first/blue_star_00/top_right/inputInstr_2.xlsx,stimuli/alien_stimuli/11.png,2946.654731400311,2946.654731400311,2946.654731400311,2946.654731400311,2946.647785620158,return,6.414269399829209,"[-0.16, -0.08, 0, 0.08, 0.16, 0.24, 0.32, 0.4, 0.48, 0.56]","[-0.4, -0.32, -0.24, -0.16, -0.08, 0, 0.08, 0.16, 0.24, 0.32]",5,5,4,9,0.0,0.4,2953.2269422002137,2953.2269422002137,2953.2269422002137,2953.2269422002137,2953.2269422002137,2953.2269422002137,2953.2269422002137,2953.219777640374,9.09151180041954,return,8.924464599695057,stimuli/alien_stimuli/11.png,11,9,1,,,,,,,,,,,,,,,,,,,,,,,,,,,,,,,,,,,,,,,,,,,,,,,,,,,,,,,,,,,,,,,,,,,,,,,,,,,,,,,,,,,,,,,,,G21ZJZ,train_y,blue_star,top_right,2025-04-29_15h30.50.818,HideSeek_v1,2022.2.5,59.44087535522214,
,,,,,,,,,,,30,,,,3,0,3,0,,,,,,,,,,,,,,,,,,,,,,,,,,,,,,,,,,,,,,,,,,,,,,,,,,,,,,,,,,,,,,,,,,,,,,,,,,,,,,21,0.7,0.75,1,99,2,30,0,conditions/schedules/train_y_first/blue_star_00/top_right/inputTrain_2.1.xlsx,99,1,2,1,0,,,,,,,,,,,,,,,,,,,,,,,,,,,,,,,,,,,,,,,,,,,,,,,,,,,,,,,,,,,,,,,,,,,,,,,,,,,G21ZJZ,train_y,blue_star,top_right,2025-04-29_15h30.50.818,HideSeek_v1,2022.2.5,59.44087535522214,
,,,,,,,,,,,,,,,4,0,4,0,0,0,0,0,,,,,,,,,,,,,,,,,,,,,,,,,,,,,,,conditions/schedules/train_y_first/blue_star_00/top_right/instructions/Slide21.png,conditions/schedules/train_y_first/blue_star_00/top_right/instructions/Audio21.wav,2962.308281300124,2962.3105603404806,21,"[6.4841776001267135, 18.53168909996748, 20.926866500172764, 19.288309599738568, 4.355491099879146, 4.570061199832708, 6.287330999970436, 12.340364900417626, 6.057663700077683, 6.841749100014567, 10.719475500285625, 13.83222009986639, 17.717409300152212, 29.583193299826235, 42.946546600200236, 22.529732800088823, 55.66514190007001, 6.1732186996378005, 10.370989200193435, 13.026361799798906, 12.761080999858677]","[0.00021189963445067406, 0.013855400029569864, 0.00022109970450401306, 0.10146600008010864, 0.03272989997640252, 0.04855460021644831, 0.04691260028630495, 0.03609579987823963, 0.05306100007146597, 0.06228730035945773, 0.037486199755221605, 13.832227099686861, 0.17527339980006218, 29.58320049988106, 0.0002586999908089638, 22.5297396001406, 55.66514870012179, 0.014158899895846844, 0.03267550002783537, 13.026368799619377, 12.76108849979937]",0,,,,,,,,,,,,,,,,,,,,,,,,,,,,,,,,,,,,,,,,,,,,,,,,,,,,,,,,,,,,,,,,,,,,,,,,,,,,,,,,,,,,,,,,,,,,,,,,,,,,,,,,,,,,,,,,,,,,,,,,,,,,G21ZJZ,train_y,blue_star,top_right,2025-04-29_15h30.50.818,HideSeek_v1,2022.2.5,59.44087535522214,
2,8,7,8,7,0,0,61,2,instr_dim1_2,,,,,,4,0,4,0,,,,,0,0,0,0,,,,,,,,,,,,,,,,,,,,,,,,,,,,,,,,,,,,,stimuli/alien_stimuli/61.png,conditions/schedules/train_y_first/blue_star_00/top_right/inputInstr_2.xlsx,stimuli/alien_stimuli/61.png,2975.1676261001267,2975.1676261001267,2975.1676261001267,2975.1676261001267,2975.154691860359,return,6.299837999977171,"[-0.16, -0.08, 0, 0.08, 0.16, 0.24, 0.32, 0.4, 0.48, 0.56]","[-0.4, -0.32, -0.24, -0.16, -0.08, 0, 0.08, 0.16, 0.24, 0.32]",7,7,8,8,0.0,0.0,2981.6219537002034,2981.6219537002034,2981.6219537002034,2981.6219537002034,2981.6219537002034,2981.6219537002034,2981.6219537002034,2981.6100816804915,7.423962700180709,return,7.262629799544811,stimuli/alien_stimuli/61.png,61,8,2,,,,,,,,,,,,,,,,,,,,,,,,,,,,,,,,,,,,,,,,,,,,,,,,,,,,,,,,,,,,,,,,,,,,,,,,,,,,,,,,,,,,,,,,,G21ZJZ,train_y,blue_star,top_right,2025-04-29_15h30.50.818,HideSeek_v1,2022.2.5,59.44087535522214,
,,,,,,,,,,,30,,,,4,0,4,0,,,,,,,,,,,,,,,,,,,,,,,,,,,,,,,,,,,,,,,,,,,,,,,,,,,,,,,,,,,,,,,,,,,,,,,,,,,,,,21,0.7,0.75,1,99,2,30,0,conditions/schedules/train_y_first/blue_star_00/top_right/inputTrain_2.1.xlsx,99,1,2,1,0,,,,,,,,,,,,,,,,,,,,,,,,,,,,,,,,,,,,,,,,,,,,,,,,,,,,,,,,,,,,,,,,,,,,,,,,,,,G21ZJZ,train_y,blue_star,top_right,2025-04-29_15h30.50.818,HideSeek_v1,2022.2.5,59.44087535522214,
