trialInstr,x_fixStart,y_fixStart,x_corrSteps,y_corrSteps,x_nrSteps,y_nrSteps,alienID,trialLength,version,trialTrain,praclen,testlen,trial_label,break_on_off,beforeExpLoop.thisRepN,beforeExpLoop.thisTrialN,beforeExpLoop.thisN,beforeExpLoop.thisIndex,mini_instr_trials.thisRepN,mini_instr_trials.thisTrialN,mini_instr_trials.thisN,mini_instr_trials.thisIndex,instrLoop.thisRepN,instrLoop.thisTrialN,instrLoop.thisN,instrLoop.thisIndex,repeat_prac.thisRepN,repeat_prac.thisTrialN,repeat_prac.thisN,repeat_prac.thisIndex,trainLoop.thisRepN,trainLoop.thisTrialN,trainLoop.thisN,trainLoop.thisIndex,moveLoop_train.thisRepN,moveLoop_train.thisTrialN,moveLoop_train.thisN,moveLoop_train.thisIndex,experiment.thisRepN,experiment.thisTrialN,experiment.thisN,experiment.thisIndex,moveLoop_test.thisRepN,moveLoop_test.thisTrialN,moveLoop_test.thisN,moveLoop_test.thisIndex,mini_instr2_trials.thisRepN,mini_instr2_trials.thisTrialN,mini_instr2_trials.thisN,mini_instr2_trials.thisIndex,start_all_time,url,slideStim,audioStim,slides.started,sounds.started,nextButton.numClicks,nextButton.timesOn,nextButton.timesOff,prev_but.numClicks,prev_but.timesOn,prev_but.timesOff,alienStim,instrFile,alienStim_instr,gridImage_instr.started,startPos_3.started,key_instr.started,alienImage_3.started,sounds_1.started,key_instr.keys,key_instr.rt,all_x,all_y,FBy_corrSteps,FBy_fixStart,FBx_corrSteps,FBx_fixStart,FBy_pathSize_check,FBx_pathSize_check,gridImage_9.started,alienImageFB_3.started,startPosFB_3.started,keyFB_3.started,pathLine_ydir_2.started,pathLine_xdir_2.started,alienFace_3.started,sounds_2.started,RTFB_instr,keyFB_3.keys,keyFB_3.rt,draw_alienStim,draw_alienID,test_x,nrepcount,perfthres,percthres,earlierperf,earlystop,nextPrac,fileidx,praclen,saveACC_train,pracFile,nextPrac_train,addNrep,fileidx_endr,repExp,showearly,gridImage_4.started,startPos.started,movePos.started,key_resp.started,alienImage.started,buttonPress_train,RTchoice_train,cumAcctrain,aCorr,saveACC_choice,corrAns,x_movePos_end,y_movePos_end,key_resp.keys,key_resp.rt,wLy_dir,wLx_dir,x_movePos,y_movePos,text_2.started,text_2.stopped,aft_x_corrPos,aft_y_corrPos,y_pathSize_check,x_pathSize_check,y_pathdirY,x_pathdirY,x_pathdirX,x_corrPos,y_corrPos,gridImage_6.started,alienImageFB_2.started,startPosFB_2.started,movePosFB_2.started,keyFB_2.started,pathLine_xdir.started,pathLine_ydir.started,alienFace.started,sounds_4.started,RT_FBtrain,keyFB_2.keys,keyFB_2.rt,saveACC_pre,ACC,within_saveACC_train,earlystop_wloop,cumAcctrain_check,gridImage_3.started,alienImage_test.started,startPos_test.started,movePos_test.started,key_resp_test.started,wLy_dir_test,wLx_dir_test,buttonPress_test,RTchoice_test,cumAcctest,corrAns_test,key_resp_test.keys,key_resp_test.rt,text_3.started,text_3.stopped,total_time,end_all_time,key_resp_3.keys,slides_2.started,sounds_3.started,nextButton_2.numClicks,nextButton_2.timesOn,nextButton_2.timesOff,prev_but_2.numClicks,prev_but_2.timesOn,prev_but_2.timesOff,bye.started,participant,train_first,00_coordinate,starting corner,date,expName,psychopyVersion,frameRate,
,,,,,,,,,,,,,,,0,0,0,0,0,0,0,0,,,,,,,,,,,,,,,,,,,,,,,,,,,,,start_all_time,testround,conditions/schedules/train_x_first/red_square_00/top_right/instructions/Slide1.png,conditions/schedules/train_x_first/red_square_00/top_right/instructions/Audio1.wav,1533.6653730000253,1533.6005821514118,1,[7.456960599985905],[7.456970900006127],0,,,,,,,,,,,,,,,,,,,,,,,,,,,,,,,,,,,,,,,,,,,,,,,,,,,,,,,,,,,,,,,,,,,,,,,,,,,,,,,,,,,,,,,,,,,,,,,,,,,,,,,,,,,,,,,,,,,,,,,,,,,,G2VQ35,train_x,red_square,top_right,2025-09-02_15h09.32.055,HideSeek_v1,2022.2.5,59.95379959223911,
,,,,,,,,,,,,,,,0,0,0,0,1,0,1,0,,,,,,,,,,,,,,,,,,,,,,,,,,,,,,,conditions/schedules/train_x_first/red_square_00/top_right/instructions/Slide2.png,conditions/schedules/train_x_first/red_square_00/top_right/instructions/Audio2.wav,1541.1401580999955,1541.137917450018,2,"[7.456960599985905, 18.176723500015214]","[7.456970900006127, 18.176731700019445]",0,,,,,,,,,,,,,,,,,,,,,,,,,,,,,,,,,,,,,,,,,,,,,,,,,,,,,,,,,,,,,,,,,,,,,,,,,,,,,,,,,,,,,,,,,,,,,,,,,,,,,,,,,,,,,,,,,,,,,,,,,,,,G2VQ35,train_x,red_square,top_right,2025-09-02_15h09.32.055,HideSeek_v1,2022.2.5,59.95379959223911,
,,,,,,,,,,,,,,,0,0,0,0,2,0,2,0,,,,,,,,,,,,,,,,,,,,,,,,,,,,,,,conditions/schedules/train_x_first/red_square_00/top_right/instructions/Slide3.png,conditions/schedules/train_x_first/red_square_00/top_right/instructions/Audio3.wav,1559.3966572000063,1559.386315150041,3,"[7.456960599985905, 18.176723500015214, 16.800790200009942]","[7.456970900006127, 0.014024500036612153, 16.80079880001722]",0,,,,,,,,,,,,,,,,,,,,,,,,,,,,,,,,,,,,,,,,,,,,,,,,,,,,,,,,,,,,,,,,,,,,,,,,,,,,,,,,,,,,,,,,,,,,,,,,,,,,,,,,,,,,,,,,,,,,,,,,,,,,G2VQ35,train_x,red_square,top_right,2025-09-02_15h09.32.055,HideSeek_v1,2022.2.5,59.95379959223911,
,,,,,,,,,,,,,,,0,0,0,0,3,0,3,0,,,,,,,,,,,,,,,,,,,,,,,,,,,,,,,conditions/schedules/train_x_first/red_square_00/top_right/instructions/Slide4.png,conditions/schedules/train_x_first/red_square_00/top_right/instructions/Audio4.wav,1576.274845100008,1576.2669393500255,4,"[7.456960599985905, 18.176723500015214, 16.800790200009942, 19.906555199995637]","[7.456970900006127, 0.014024500036612153, 0.014657199964858592, 19.906563399999868]",0,,,,,,,,,,,,,,,,,,,,,,,,,,,,,,,,,,,,,,,,,,,,,,,,,,,,,,,,,,,,,,,,,,,,,,,,,,,,,,,,,,,,,,,,,,,,,,,,,,,,,,,,,,,,,,,,,,,,,,,,,,,,G2VQ35,train_x,red_square,top_right,2025-09-02_15h09.32.055,HideSeek_v1,2022.2.5,59.95379959223911,
,,,,,,,,,,,,,,,0,0,0,0,4,0,4,0,,,,,,,,,,,,,,,,,,,,,,,,,,,,,,,conditions/schedules/train_x_first/red_square_00/top_right/instructions/Slide5.png,conditions/schedules/train_x_first/red_square_00/top_right/instructions/Audio5.wav,1596.2482757000253,1596.2501346500649,5,"[7.456960599985905, 18.176723500015214, 16.800790200009942, 19.906555199995637, 5.705415700038429]","[7.456970900006127, 0.014024500036612153, 0.014657199964858592, 0.049648399988655, 5.705424899992067]",0,,,,,,,,,,,,,,,,,,,,,,,,,,,,,,,,,,,,,,,,,,,,,,,,,,,,,,,,,,,,,,,,,,,,,,,,,,,,,,,,,,,,,,,,,,,,,,,,,,,,,,,,,,,,,,,,,,,,,,,,,,,,G2VQ35,train_x,red_square,top_right,2025-09-02_15h09.32.055,HideSeek_v1,2022.2.5,59.95379959223911,
,,,,,,,,,,,,,,,0,0,0,0,5,0,5,0,,,,,,,,,,,,,,,,,,,,,,,,,,,,,,,conditions/schedules/train_x_first/red_square_00/top_right/instructions/Slide6.png,conditions/schedules/train_x_first/red_square_00/top_right/instructions/Audio6.wav,1602.0107309999876,1602.0050183200276,6,"[7.456960599985905, 18.176723500015214, 16.800790200009942, 19.906555199995637, 5.705415700038429, 5.163114199996926]","[7.456970900006127, 0.014024500036612153, 0.014657199964858592, 0.049648399988655, 0.04788849997567013, 5.163127599982545]",0,,,,,,,,,,,,,,,,,,,,,,,,,,,,,,,,,,,,,,,,,,,,,,,,,,,,,,,,,,,,,,,,,,,,,,,,,,,,,,,,,,,,,,,,,,,,,,,,,,,,,,,,,,,,,,,,,,,,,,,,,,,,G2VQ35,train_x,red_square,top_right,2025-09-02_15h09.32.055,HideSeek_v1,2022.2.5,59.95379959223911,
,,,,,,,,,,,,,,,0,0,0,0,6,0,6,0,,,,,,,,,,,,,,,,,,,,,,,,,,,,,,,conditions/schedules/train_x_first/red_square_00/top_right/instructions/Slide7.png,conditions/schedules/train_x_first/red_square_00/top_right/instructions/Audio7.wav,1607.2468149000197,1607.2427723500587,7,"[7.456960599985905, 18.176723500015214, 16.800790200009942, 19.906555199995637, 5.705415700038429, 5.163114199996926, 6.132319100026507]","[7.456970900006127, 0.014024500036612153, 0.014657199964858592, 0.049648399988655, 0.04788849997567013, 0.03271380002843216, 6.132326800026931]",0,,,,,,,,,,,,,,,,,,,,,,,,,,,,,,,,,,,,,,,,,,,,,,,,,,,,,,,,,,,,,,,,,,,,,,,,,,,,,,,,,,,,,,,,,,,,,,,,,,,,,,,,,,,,,,,,,,,,,,,,,,,,G2VQ35,train_x,red_square,top_right,2025-09-02_15h09.32.055,HideSeek_v1,2022.2.5,59.95379959223911,
,,,,,,,,,,,,,,,0,0,0,0,7,0,7,0,,,,,,,,,,,,,,,,,,,,,,,,,,,,,,,conditions/schedules/train_x_first/red_square_00/top_right/instructions/Slide8.png,conditions/schedules/train_x_first/red_square_00/top_right/instructions/Audio8.wav,1613.4322097999975,1613.4312525200423,8,"[7.456960599985905, 18.176723500015214, 16.800790200009942, 19.906555199995637, 5.705415700038429, 5.163114199996926, 6.132319100026507, 12.173413200012874]","[7.456970900006127, 0.014024500036612153, 0.014657199964858592, 0.049648399988655, 0.04788849997567013, 0.03271380002843216, 0.07969240000238642, 12.173421600018628]",0,,,,,,,,,,,,,,,,,,,,,,,,,,,,,,,,,,,,,,,,,,,,,,,,,,,,,,,,,,,,,,,,,,,,,,,,,,,,,,,,,,,,,,,,,,,,,,,,,,,,,,,,,,,,,,,,,,,,,,,,,,,,G2VQ35,train_x,red_square,top_right,2025-09-02_15h09.32.055,HideSeek_v1,2022.2.5,59.95379959223911,
,,,,,,,,,,,,,,,0,0,0,0,8,0,8,0,,,,,,,,,,,,,,,,,,,,,,,,,,,,,,,conditions/schedules/train_x_first/red_square_00/top_right/instructions/Slide9.png,conditions/schedules/train_x_first/red_square_00/top_right/instructions/Audio9.wav,1625.6711459000362,1625.6580594200407,9,"[7.456960599985905, 18.176723500015214, 16.800790200009942, 19.906555199995637, 5.705415700038429, 5.163114199996926, 6.132319100026507, 12.173413200012874, 6.640419700008351]","[7.456970900006127, 0.014024500036612153, 0.014657199964858592, 0.049648399988655, 0.04788849997567013, 0.03271380002843216, 0.07969240000238642, 0.05128409998724237, 6.640428300015628]",0,,,,,,,,,,,,,,,,,,,,,,,,,,,,,,,,,,,,,,,,,,,,,,,,,,,,,,,,,,,,,,,,,,,,,,,,,,,,,,,,,,,,,,,,,,,,,,,,,,,,,,,,,,,,,,,,,,,,,,,,,,,,G2VQ35,train_x,red_square,top_right,2025-09-02_15h09.32.055,HideSeek_v1,2022.2.5,59.95379959223911,
,,,,,,,,,,,,,,,0,0,0,0,9,0,9,0,,,,,,,,,,,,,,,,,,,,,,,,,,,,,,,conditions/schedules/train_x_first/red_square_00/top_right/instructions/Slide10.png,conditions/schedules/train_x_first/red_square_00/top_right/instructions/Audio10.wav,1632.3654270000407,1632.3636373200336,10,"[7.456960599985905, 18.176723500015214, 16.800790200009942, 19.906555199995637, 5.705415700038429, 5.163114199996926, 6.132319100026507, 12.173413200012874, 6.640419700008351, 6.968610499985516]","[7.456970900006127, 0.014024500036612153, 0.014657199964858592, 0.049648399988655, 0.04788849997567013, 0.03271380002843216, 0.07969240000238642, 0.05128409998724237, 0.09611899999435991, 6.968620200001169]",0,,,,,,,,,,,,,,,,,,,,,,,,,,,,,,,,,,,,,,,,,,,,,,,,,,,,,,,,,,,,,,,,,,,,,,,,,,,,,,,,,,,,,,,,,,,,,,,,,,,,,,,,,,,,,,,,,,,,,,,,,,,,G2VQ35,train_x,red_square,top_right,2025-09-02_15h09.32.055,HideSeek_v1,2022.2.5,59.95379959223911,
,,,,,,,,,,,,,,,0,0,0,0,10,0,10,0,,,,,,,,,,,,,,,,,,,,,,,,,,,,,,,conditions/schedules/train_x_first/red_square_00/top_right/instructions/Slide11.png,conditions/schedules/train_x_first/red_square_00/top_right/instructions/Audio11.wav,1639.388929800014,1639.3862056200508,11,"[7.456960599985905, 18.176723500015214, 16.800790200009942, 19.906555199995637, 5.705415700038429, 5.163114199996926, 6.132319100026507, 12.173413200012874, 6.640419700008351, 6.968610499985516, 10.619782199966721]","[7.456970900006127, 0.014024500036612153, 0.014657199964858592, 0.049648399988655, 0.04788849997567013, 0.03271380002843216, 0.07969240000238642, 0.05128409998724237, 0.09611899999435991, 0.04650439997203648, 10.619790399970952]",0,,,,,,,,,,,,,,,,,,,,,,,,,,,,,,,,,,,,,,,,,,,,,,,,,,,,,,,,,,,,,,,,,,,,,,,,,,,,,,,,,,,,,,,,,,,,,,,,,,,,,,,,,,,,,,,,,,,,,,,,,,,,G2VQ35,train_x,red_square,top_right,2025-09-02_15h09.32.055,HideSeek_v1,2022.2.5,59.95379959223911,
,,,,,,,,,,,,,,,0,0,0,0,11,0,11,0,,,,,,,,,,,,,,,,,,,,,,,,,,,,,,,conditions/schedules/train_x_first/red_square_00/top_right/instructions/Slide12.png,conditions/schedules/train_x_first/red_square_00/top_right/instructions/Audio12.wav,1650.0811728000408,1650.078255850036,12,"[7.456960599985905, 18.176723500015214, 16.800790200009942, 19.906555199995637, 5.705415700038429, 5.163114199996926, 6.132319100026507, 12.173413200012874, 6.640419700008351, 6.968610499985516, 10.619782199966721, 12.838959100015927]","[7.456970900006127, 0.014024500036612153, 0.014657199964858592, 0.049648399988655, 0.04788849997567013, 0.03271380002843216, 0.07969240000238642, 0.05128409998724237, 0.09611899999435991, 0.04650439997203648, 0.00021359999664127827, 12.838968300027773]",0,,,,,,,,,,,,,,,,,,,,,,,,,,,,,,,,,,,,,,,,,,,,,,,,,,,,,,,,,,,,,,,,,,,,,,,,,,,,,,,,,,,,,,,,,,,,,,,,,,,,,,,,,,,,,,,,,,,,,,,,,,,,G2VQ35,train_x,red_square,top_right,2025-09-02_15h09.32.055,HideSeek_v1,2022.2.5,59.95379959223911,
1,8,7,3,7,-5,0,66,2,instr_dim1_1,,,,,,0,0,0,0,,,,,0,0,0,0,,,,,,,,,,,,,,,,,,,,,,,,,,,,,,,,,,,,,stimuli/alien_stimuli/66.png,conditions/schedules/train_x_first/red_square_00/top_right/inputInstr_1.xlsx,stimuli/alien_stimuli/66.png,1663.0221084000077,1663.0221084000077,1663.0221084000077,1663.0221084000077,1663.022298910032,return,8.950469999981578,"[-0.16, -0.08, 0, 0.08, 0.16, 0.24, 0.32, 0.4, 0.48, 0.56]","[-0.4, -0.32, -0.24, -0.16, -0.08, 0, 0.08, 0.16, 0.24, 0.32]",7,7,3,8,0.0,0.4,1672.1232810000074,1672.1232810000074,1672.1232810000074,1672.1232810000074,1672.1232810000074,1672.1232810000074,1672.1232810000074,1672.1130170400254,7.274021299963351,return,7.125901199993677,stimuli/alien_stimuli/66.png,66,8,1,,,,,,,,,,,,,,,,,,,,,,,,,,,,,,,,,,,,,,,,,,,,,,,,,,,,,,,,,,,,,,,,,,,,,,,,,,,,,,,,,,,,,,,,,G2VQ35,train_x,red_square,top_right,2025-09-02_15h09.32.055,HideSeek_v1,2022.2.5,59.95379959223911,
,,,,,,,,,,,30,,,,0,0,0,0,,,,,,,,,,,,,,,,,,,,,,,,,,,,,,,,,,,,,,,,,,,,,,,,,,,,,,,,,,,,,,,,,,,,,,,,,,,,,,21,0.7,0,0,99,1,30,0,conditions/schedules/train_x_first/red_square_00/top_right/inputTrain_1.1.xlsx,99,1,1,1,0,,,,,,,,,,,,,,,,,,,,,,,,,,,,,,,,,,,,,,,,,,,,,,,,,,,,,,,,,,,,,,,,,,,,,,,,,,,G2VQ35,train_x,red_square,top_right,2025-09-02_15h09.32.055,HideSeek_v1,2022.2.5,59.95379959223911,
,,,,,,,,,,,,,,,1,0,1,0,0,0,0,0,,,,,,,,,,,,,,,,,,,,,,,,,,,,,,,conditions/schedules/train_x_first/red_square_00/top_right/instructions/Slide13.png,conditions/schedules/train_x_first/red_square_00/top_right/instructions/Audio13.wav,1679.4457599000307,1679.4358753300562,13,"[7.456960599985905, 18.176723500015214, 16.800790200009942, 19.906555199995637, 5.705415700038429, 5.163114199996926, 6.132319100026507, 12.173413200012874, 6.640419700008351, 6.968610499985516, 10.619782199966721, 12.838959100015927, 17.285478800011333]","[7.456970900006127, 0.014024500036612153, 0.014657199964858592, 0.049648399988655, 0.04788849997567013, 0.03271380002843216, 0.07969240000238642, 0.05128409998724237, 0.09611899999435991, 0.04650439997203648, 0.00021359999664127827, 12.838968300027773, 17.285485500004143]",0,,,,,,,,,,,,,,,,,,,,,,,,,,,,,,,,,,,,,,,,,,,,,,,,,,,,,,,,,,,,,,,,,,,,,,,,,,,,,,,,,,,,,,,,,,,,,,,,,,,,,,,,,,,,,,,,,,,,,,,,,,,,G2VQ35,train_x,red_square,top_right,2025-09-02_15h09.32.055,HideSeek_v1,2022.2.5,59.95379959223911,
,,,,,,,,,,,,,,,1,0,1,0,1,0,1,0,,,,,,,,,,,,,,,,,,,,,,,,,,,,,,,conditions/schedules/train_x_first/red_square_00/top_right/instructions/Slide14.png,conditions/schedules/train_x_first/red_square_00/top_right/instructions/Audio14.wav,1696.8084648000076,1696.8003127500124,14,"[7.456960599985905, 18.176723500015214, 16.800790200009942, 19.906555199995637, 5.705415700038429, 5.163114199996926, 6.132319100026507, 12.173413200012874, 6.640419700008351, 6.968610499985516, 10.619782199966721, 12.838959100015927, 17.285478800011333, 13.38378949998878]","[7.456970900006127, 0.014024500036612153, 0.014657199964858592, 0.049648399988655, 0.04788849997567013, 0.03271380002843216, 0.07969240000238642, 0.05128409998724237, 0.09611899999435991, 0.04650439997203648, 0.00021359999664127827, 12.838968300027773, 0.013978299975860864, 13.383800900017377]",0,,,,,,,,,,,,,,,,,,,,,,,,,,,,,,,,,,,,,,,,,,,,,,,,,,,,,,,,,,,,,,,,,,,,,,,,,,,,,,,,,,,,,,,,,,,,,,,,,,,,,,,,,,,,,,,,,,,,,,,,,,,,G2VQ35,train_x,red_square,top_right,2025-09-02_15h09.32.055,HideSeek_v1,2022.2.5,59.95379959223911,
2,9,5,9,5,0,0,16,2,instr_dim1_1,,,,,,1,0,1,0,,,,,0,0,0,0,,,,,,,,,,,,,,,,,,,,,,,,,,,,,,,,,,,,,stimuli/alien_stimuli/16.png,conditions/schedules/train_x_first/red_square_00/top_right/inputInstr_1.xlsx,stimuli/alien_stimuli/16.png,1710.302851000044,1710.302851000044,1710.302851000044,1710.302851000044,1710.2949702100186,return,6.914482399995904,"[-0.16, -0.08, 0, 0.08, 0.16, 0.24, 0.32, 0.4, 0.48, 0.56]","[-0.4, -0.32, -0.24, -0.16, -0.08, 0, 0.08, 0.16, 0.24, 0.32]",5,5,9,9,0.0,0.0,1717.3763394000125,1717.3763394000125,1717.3763394000125,1717.3763394000125,1717.3763394000125,1717.3763394000125,1717.3763394000125,1717.367327470047,6.4060152000165544,return,6.239998699980788,stimuli/alien_stimuli/16.png,16,9,2,,,,,,,,,,,,,,,,,,,,,,,,,,,,,,,,,,,,,,,,,,,,,,,,,,,,,,,,,,,,,,,,,,,,,,,,,,,,,,,,,,,,,,,,,G2VQ35,train_x,red_square,top_right,2025-09-02_15h09.32.055,HideSeek_v1,2022.2.5,59.95379959223911,
,,,,,,,,,,,30,,,,1,0,1,0,,,,,,,,,,,,,,,,,,,,,,,,,,,,,,,,,,,,,,,,,,,,,,,,,,,,,,,,,,,,,,,,,,,,,,,,,,,,,,21,0.7,0,0,99,1,30,0,conditions/schedules/train_x_first/red_square_00/top_right/inputTrain_1.1.xlsx,99,1,1,1,0,,,,,,,,,,,,,,,,,,,,,,,,,,,,,,,,,,,,,,,,,,,,,,,,,,,,,,,,,,,,,,,,,,,,,,,,,,,G2VQ35,train_x,red_square,top_right,2025-09-02_15h09.32.055,HideSeek_v1,2022.2.5,59.95379959223911,
,,,,,,,,,,,,,,,2,0,2,0,0,0,0,0,,,,,,,,,,,,,,,,,,,,,,,,,,,,,,,conditions/schedules/train_x_first/red_square_00/top_right/instructions/Slide15.png,conditions/schedules/train_x_first/red_square_00/top_right/instructions/Audio15.wav,1723.8072870000033,1723.80599373008,15,"[7.456960599985905, 18.176723500015214, 16.800790200009942, 19.906555199995637, 5.705415700038429, 5.163114199996926, 6.132319100026507, 12.173413200012874, 6.640419700008351, 6.968610499985516, 10.619782199966721, 12.838959100015927, 17.285478800011333, 13.38378949998878, 30.17109120002715]","[7.456970900006127, 0.014024500036612153, 0.014657199964858592, 0.049648399988655, 0.04788849997567013, 0.03271380002843216, 0.07969240000238642, 0.05128409998724237, 0.09611899999435991, 0.04650439997203648, 0.00021359999664127827, 12.838968300027773, 0.013978299975860864, 13.383800900017377, 30.171098200022243]",0,,,,,,,,,,,,,,,,,,,,,,,,,,,,,,,,,,,,,,,,,,,,,,,,,,,,,,,,,,,,,,,,,,,,,,,,,,,,,,,,,,,,,,,,,,,,,,,,,,,,,,,,,,,,,,,,,,,,,,,,,,,,G2VQ35,train_x,red_square,top_right,2025-09-02_15h09.32.055,HideSeek_v1,2022.2.5,59.95379959223911,
,,,,,,,,,,,,,,,2,0,2,0,1,0,1,0,,,,,,,,,,,,,,,,,,,,,,,,,,,,,,,conditions/schedules/train_x_first/red_square_00/top_right/instructions/Slide16.png,conditions/schedules/train_x_first/red_square_00/top_right/instructions/Audio16.wav,1754.0568200999987,1754.0477866500441,16,"[7.456960599985905, 18.176723500015214, 16.800790200009942, 19.906555199995637, 5.705415700038429, 5.163114199996926, 6.132319100026507, 12.173413200012874, 6.640419700008351, 6.968610499985516, 10.619782199966721, 12.838959100015927, 17.285478800011333, 13.38378949998878, 30.17109120002715, 23.77503889997024]","[7.456970900006127, 0.014024500036612153, 0.014657199964858592, 0.049648399988655, 0.04788849997567013, 0.03271380002843216, 0.07969240000238642, 0.05128409998724237, 0.09611899999435991, 0.04650439997203648, 0.00021359999664127827, 12.838968300027773, 0.013978299975860864, 13.383800900017377, 0.014314599975477904, 23.77504769997904]",0,,,,,,,,,,,,,,,,,,,,,,,,,,,,,,,,,,,,,,,,,,,,,,,,,,,,,,,,,,,,,,,,,,,,,,,,,,,,,,,,,,,,,,,,,,,,,,,,,,,,,,,,,,,,,,,,,,,,,,,,,,,,G2VQ35,train_x,red_square,top_right,2025-09-02_15h09.32.055,HideSeek_v1,2022.2.5,59.95379959223911,
,7,6,4,6,-3,0,46,,train_dim1_1,1,30,,,,2,0,2,0,,,,,,,,,0,0,0,0,0,0,0,0,0,0,0,0,,,,,,,,,,,,,,,,,,,,,,,,,stimuli/alien_stimuli/46.png,,,,,,,,,,,,,,,,,,,,,,,,,,,,,,,,,,,,,,,30,,,,,,,,1777.936872899998,1777.936872899998,1777.936872899998,1777.936872899998,1777.936872899998,right,7.096323999983724,0,0,0,99,0.48000000000000004,0.08,right,6.996369700005744,,,,,,,,,,,,,,,,,,,,,,,,,,,,,,,,,,,,,,,,,,,,,,,,,,,,,,,,,,,,G2VQ35,train_x,red_square,top_right,2025-09-02_15h09.32.055,HideSeek_v1,2022.2.5,59.95379959223911,
,7,6,4,6,-3,0,46,,train_dim1_1,1,30,,,,2,0,2,0,,,,,,,,,0,0,0,0,0,0,0,0,1,0,1,0,,,,,,,,,,,,,,,,,,,,,,,,,,,,,,,,,,,,,,,,,,,,,,,,,,,,,,,,,,,,,,,,30,,,,,,,,1785.02483140002,1785.02483140002,1785.02483140002,1785.02483140002,1785.02483140002,left,5.277045399998315,0,0,0,99,0.4,0.08,left,5.189376799971797,,,,,,,,,,,,,,,,,,,,,,,,,,,,,,,,,,,,,,,,,,,,,,,,,,,,,,,,,,,,G2VQ35,train_x,red_square,top_right,2025-09-02_15h09.32.055,HideSeek_v1,2022.2.5,59.95379959223911,
,7,6,4,6,-3,0,46,,train_dim1_1,1,30,,,,2,0,2,0,,,,,,,,,0,0,0,0,0,0,0,0,2,0,2,0,,,,,,,,,,,,,,,,,,,,,,,,,,,,,,,,,,,,,,,,,,,,,,,,,,,,,,,,,,,,,,,,30,,,,,,,,1790.3086503000231,1790.3086503000231,1790.3086503000231,1790.3086503000231,1790.3086503000231,return,3.896231800026726,0,0,0,0,0.4,0.08,return,3.81008710002061,0,0,0.4,0.08,,,,,,,,,,,,,,,,,,,,,,,,,,,,,,,,,,,,,,,,,,,,,,,,,,,,,,,,G2VQ35,train_x,red_square,top_right,2025-09-02_15h09.32.055,HideSeek_v1,2022.2.5,59.95379959223911,
,7,9,7,9,0,0,16,,train_dim1_1,2,30,,,,2,0,2,0,,,,,,,,,0,0,0,0,0,1,1,1,0,0,0,0,,,,,,,,,,,,,,,,,,,,,,,,,stimuli/alien_stimuli/16.png,,,,,,,,,,,,,,,,,,,,,,,,,,,,,stimuli/alien_stimuli/46.png,46,7,3,,,,,,,30,,,,,,,,1811.4605957000167,1811.4605957000167,1811.4605957000167,1811.4605957000167,1811.4605957000167,right,4.8557996999588795,0,0,0,99,0.48000000000000004,0.32,right,4.753934099979233,,,,,1809.8773858000059,1811.4605957000167,0.16,0.08,0.0,0.24,0.08,0.16,0.28,0.16,0.08,1795.7749346999917,1795.7749346999917,1795.7749346999917,1795.7749346999917,1795.7749346999917,1795.7749346999917,1795.7749346999917,1795.7749346999917,1795.765415310062,14.214779699977953,return,14.085201999987476,,,,,,,,,,,,,,,,,,,,,,,,,,,,,,,,,G2VQ35,train_x,red_square,top_right,2025-09-02_15h09.32.055,HideSeek_v1,2022.2.5,59.95379959223911,
,7,9,7,9,0,0,16,,train_dim1_1,2,30,,,,2,0,2,0,,,,,,,,,0,0,0,0,0,1,1,1,1,0,1,0,,,,,,,,,,,,,,,,,,,,,,,,,,,,,,,,,,,,,,,,,,,,,,,,,,,,,,,,,,,,,,,,30,,,,,,,,1816.30198009999,1816.30198009999,1816.30198009999,1816.30198009999,1816.30198009999,right,1.9941006999579258,0,0,0,99,0.56,0.32,right,1.9114120000158437,,,,,,,,,,,,,,,,,,,,,,,,,,,,,,,,,,,,,,,,,,,,,,,,,,,,,,,,,,,,G2VQ35,train_x,red_square,top_right,2025-09-02_15h09.32.055,HideSeek_v1,2022.2.5,59.95379959223911,
,7,9,7,9,0,0,16,,train_dim1_1,2,30,,,,2,0,2,0,,,,,,,,,0,0,0,0,0,1,1,1,2,0,2,0,,,,,,,,,,,,,,,,,,,,,,,,,,,,,,,,,,,,,,,,,,,,,,,,,,,,,,,,,,,,,,,,30,,,,,,,,1818.301052600029,1818.301052600029,1818.301052600029,1818.301052600029,1818.301052600029,down,2.828481299977284,0,0,0,99,0.56,0.24,down,2.7392604000051506,,,,,,,,,,,,,,,,,,,,,,,,,,,,,,,,,,,,,,,,,,,,,,,,,,,,,,,,,,,,G2VQ35,train_x,red_square,top_right,2025-09-02_15h09.32.055,HideSeek_v1,2022.2.5,59.95379959223911,
,7,9,7,9,0,0,16,,train_dim1_1,2,30,,,,2,0,2,0,,,,,,,,,0,0,0,0,0,1,1,1,3,0,3,0,,,,,,,,,,,,,,,,,,,,,,,,,,,,,,,,,,,,,,,,,,,,,,,,,,,,,,,,,,,,,,,,30,,,,,,,,1821.1407181000104,1821.1407181000104,1821.1407181000104,1821.1407181000104,1821.1407181000104,down,0.9242107000318356,0,0,0,99,0.56,0.15999999999999998,down,0.8420863000210375,,,,,,,,,,,,,,,,,,,,,,,,,,,,,,,,,,,,,,,,,,,,,,,,,,,,,,,,,,,,G2VQ35,train_x,red_square,top_right,2025-09-02_15h09.32.055,HideSeek_v1,2022.2.5,59.95379959223911,
,7,9,7,9,0,0,16,,train_dim1_1,2,30,,,,2,0,2,0,,,,,,,,,0,0,0,0,0,1,1,1,4,0,4,0,,,,,,,,,,,,,,,,,,,,,,,,,,,,,,,,,,,,,,,,,,,,,,,,,,,,,,,,,,,,,,,,30,,,,,,,,1822.0715524000116,1822.0715524000116,1822.0715524000116,1822.0715524000116,1822.0715524000116,down,1.1106540000182576,0,0,0,99,0.56,0.07999999999999997,down,1.0319404000183567,,,,,,,,,,,,,,,,,,,,,,,,,,,,,,,,,,,,,,,,,,,,,,,,,,,,,,,,,,,,G2VQ35,train_x,red_square,top_right,2025-09-02_15h09.32.055,HideSeek_v1,2022.2.5,59.95379959223911,
,7,9,7,9,0,0,16,,train_dim1_1,2,30,,,,2,0,2,0,,,,,,,,,0,0,0,0,0,1,1,1,5,0,5,0,,,,,,,,,,,,,,,,,,,,,,,,,,,,,,,,,,,,,,,,,,,,,,,,,,,,,,,,,,,,,,,,30,,,,,,,,1823.1890428999905,1823.1890428999905,1823.1890428999905,1823.1890428999905,1823.1890428999905,left,2.3279590000165626,0,0,0,99,0.48000000000000004,0.07999999999999997,left,2.2506999999750406,,,,,,,,,,,,,,,,,,,,,,,,,,,,,,,,,,,,,,,,,,,,,,,,,,,,,,,,,,,,G2VQ35,train_x,red_square,top_right,2025-09-02_15h09.32.055,HideSeek_v1,2022.2.5,59.95379959223911,
,7,9,7,9,0,0,16,,train_dim1_1,2,30,,,,2,0,2,0,,,,,,,,,0,0,0,0,0,1,1,1,6,0,6,0,,,,,,,,,,,,,,,,,,,,,,,,,,,,,,,,,,,,,,,,,,,,,,,,,,,,,,,,,,,,,,,,30,,,,,,,,1825.5263214000151,1825.5263214000151,1825.5263214000151,1825.5263214000151,1825.5263214000151,left,1.0590396999614313,0,0,0,99,0.4,0.07999999999999997,left,0.9670703000156209,,,,,,,,,,,,,,,,,,,,,,,,,,,,,,,,,,,,,,,,,,,,,,,,,,,,,,,,,,,,G2VQ35,train_x,red_square,top_right,2025-09-02_15h09.32.055,HideSeek_v1,2022.2.5,59.95379959223911,
,7,9,7,9,0,0,16,,train_dim1_1,2,30,,,,2,0,2,0,,,,,,,,,0,0,0,0,0,1,1,1,7,0,7,0,,,,,,,,,,,,,,,,,,,,,,,,,,,,,,,,,,,,,,,,,,,,,,,,,,,,,,,,,,,,,,,,30,,,,,,,,1826.591378799989,1826.591378799989,1826.591378799989,1826.591378799989,1826.591378799989,left,0.9435908000450581,0,0,0,99,0.32,0.07999999999999997,left,0.8636415000073612,,,,,,,,,,,,,,,,,,,,,,,,,,,,,,,,,,,,,,,,,,,,,,,,,,,,,,,,,,,,G2VQ35,train_x,red_square,top_right,2025-09-02_15h09.32.055,HideSeek_v1,2022.2.5,59.95379959223911,
,7,9,7,9,0,0,16,,train_dim1_1,2,30,,,,2,0,2,0,,,,,,,,,0,0,0,0,0,1,1,1,8,0,8,0,,,,,,,,,,,,,,,,,,,,,,,,,,,,,,,,,,,,,,,,,,,,,,,,,,,,,,,,,,,,,,,,30,,,,,,,,1827.5426919999882,1827.5426919999882,1827.5426919999882,1827.5426919999882,1827.5426919999882,up,1.3772224999847822,0,0,0,99,0.32,0.15999999999999998,up,1.292321799963247,,,,,,,,,,,,,,,,,,,,,,,,,,,,,,,,,,,,,,,,,,,,,,,,,,,,,,,,,,,,G2VQ35,train_x,red_square,top_right,2025-09-02_15h09.32.055,HideSeek_v1,2022.2.5,59.95379959223911,
,7,9,7,9,0,0,16,,train_dim1_1,2,30,,,,2,0,2,0,,,,,,,,,0,0,0,0,0,1,1,1,9,0,9,0,,,,,,,,,,,,,,,,,,,,,,,,,,,,,,,,,,,,,,,,,,,,,,,,,,,,,,,,,,,,,,,,30,,,,,,,,1828.9268912000116,1828.9268912000116,1828.9268912000116,1828.9268912000116,1828.9268912000116,up,0.7766312999883667,0,0,0,99,0.32,0.24,up,0.685716699983459,,,,,,,,,,,,,,,,,,,,,,,,,,,,,,,,,,,,,,,,,,,,,,,,,,,,,,,,,,,,G2VQ35,train_x,red_square,top_right,2025-09-02_15h09.32.055,HideSeek_v1,2022.2.5,59.95379959223911,
,7,9,7,9,0,0,16,,train_dim1_1,2,30,,,,2,0,2,0,,,,,,,,,0,0,0,0,0,1,1,1,10,0,10,0,,,,,,,,,,,,,,,,,,,,,,,,,,,,,,,,,,,,,,,,,,,,,,,,,,,,,,,,,,,,,,,,30,,,,,,,,1829.7119395000045,1829.7119395000045,1829.7119395000045,1829.7119395000045,1829.7119395000045,up,0.9437298999982886,0,0,0,99,0.32,0.32,up,0.8530305000022054,,,,,,,,,,,,,,,,,,,,,,,,,,,,,,,,,,,,,,,,,,,,,,,,,,,,,,,,,,,,G2VQ35,train_x,red_square,top_right,2025-09-02_15h09.32.055,HideSeek_v1,2022.2.5,59.95379959223911,
,7,9,7,9,0,0,16,,train_dim1_1,2,30,,,,2,0,2,0,,,,,,,,,0,0,0,0,0,1,1,1,11,0,11,0,,,,,,,,,,,,,,,,,,,,,,,,,,,,,,,,,,,,,,,,,,,,,,,,,,,,,,,,,,,,,,,,30,,,,,,,,1830.6624253999908,1830.6624253999908,1830.6624253999908,1830.6624253999908,1830.6624253999908,left,2.227742900024168,0,0,0,99,0.24,0.32,left,2.1465398999862373,,,,,,,,,,,,,,,,,,,,,,,,,,,,,,,,,,,,,,,,,,,,,,,,,,,,,,,,,,,,G2VQ35,train_x,red_square,top_right,2025-09-02_15h09.32.055,HideSeek_v1,2022.2.5,59.95379959223911,
,7,9,7,9,0,0,16,,train_dim1_1,2,30,,,,2,0,2,0,,,,,,,,,0,0,0,0,0,1,1,1,12,0,12,0,,,,,,,,,,,,,,,,,,,,,,,,,,,,,,,,,,,,,,,,,,,,,,,,,,,,,,,,,,,,,,,,30,,,,,,,,1832.8975476000342,1832.8975476000342,1832.8975476000342,1832.8975476000342,1832.8975476000342,return,0.8098377999849617,0,0,0,0,0.24,0.32,return,0.722419900004752,0,-2,0.24,0.32,,,,,,,,,,,,,,,,,,,,,,,,,,,,,,,,,,,,,,,,,,,,,,,,,,,,,,,,G2VQ35,train_x,red_square,top_right,2025-09-02_15h09.32.055,HideSeek_v1,2022.2.5,59.95379959223911,
,9,9,8,9,-1,0,26,,train_dim1_1,3,30,,,,2,0,2,0,,,,,,,,,0,0,0,0,0,2,2,2,0,0,0,0,,,,,,,,,,,,,,,,,,,,,,,,,stimuli/alien_stimuli/26.png,,,,,,,,,,,,,,,,,,,,,,,,,,,,,stimuli/alien_stimuli/16.png,16,7,4,,,,,,,30,,,,,,,,1841.9659172000247,1841.9659172000247,1841.9659172000247,1841.9659172000247,1841.9659172000247,right,2.674914900038857,0,0,0,99,0.64,0.32,right,2.5775489999796264,,,,,1840.4024886999978,1841.9659172000247,0.4,0.32,0.0,0.0,0.32,0.4,0.4,0.4,0.32,1835.2964753000415,1835.2964753000415,1835.2964753000415,1835.2964753000415,1835.2964753000415,1835.2964753000415,1835.2964753000415,1835.2964753000415,1835.2819305400596,5.239807500038296,return,5.076932099997066,,,,,,,,,,,,,,,,,,,,,,,,,,,,,,,,,G2VQ35,train_x,red_square,top_right,2025-09-02_15h09.32.055,HideSeek_v1,2022.2.5,59.95379959223911,
,9,9,8,9,-1,0,26,,train_dim1_1,3,30,,,,2,0,2,0,,,,,,,,,0,0,0,0,0,2,2,2,1,0,1,0,,,,,,,,,,,,,,,,,,,,,,,,,,,,,,,,,,,,,,,,,,,,,,,,,,,,,,,,,,,,,,,,30,,,,,,,,1844.640172799991,1844.640172799991,1844.640172799991,1844.640172799991,1844.640172799991,left,2.961730799986981,0,0,0,99,0.56,0.32,left,2.8805572999990545,,,,,,,,,,,,,,,,,,,,,,,,,,,,,,,,,,,,,,,,,,,,,,,,,,,,,,,,,,,,G2VQ35,train_x,red_square,top_right,2025-09-02_15h09.32.055,HideSeek_v1,2022.2.5,59.95379959223911,
,9,9,8,9,-1,0,26,,train_dim1_1,3,30,,,,2,0,2,0,,,,,,,,,0,0,0,0,0,2,2,2,2,0,2,0,,,,,,,,,,,,,,,,,,,,,,,,,,,,,,,,,,,,,,,,,,,,,,,,,,,,,,,,,,,,,,,,30,,,,,,,,1847.6094769000192,1847.6094769000192,1847.6094769000192,1847.6094769000192,1847.6094769000192,return,1.1769958999939263,0,1,0,0,0.56,0.32,return,1.0960586000001058,0,-2,0.56,0.32,,,,,,,,,,,,,,,,,,,,,,,,,,,,,,,,,,,,,,,,,,,,,,,,,,,,,,,,G2VQ35,train_x,red_square,top_right,2025-09-02_15h09.32.055,HideSeek_v1,2022.2.5,59.95379959223911,
,7,8,3,8,-4,0,56,,train_dim1_1,4,30,,,,2,0,2,0,,,,,,,,,0,0,0,0,0,3,3,3,0,0,0,0,,,,,,,,,,,,,,,,,,,,,,,,,stimuli/alien_stimuli/56.png,,,,,,,,,,,,,,,,,,,,,,,,,,,,,stimuli/alien_stimuli/26.png,26,9,5,,,,,,,30,,,,,,,,1856.0595657000085,1856.0595657000085,1856.0595657000085,1856.0595657000085,1856.0595657000085,right,3.958721600007266,0,1,0,99,0.48000000000000004,0.24,right,3.86065069999313,,,,,1854.497856400034,1856.0595657000085,0.48,0.32,0.0,0.08,0.32,0.48,0.52,0.48,0.32,1850.3722165999934,1850.3722165999934,1850.3722165999934,1850.3722165999934,1850.3722165999934,1850.3722165999934,1850.3722165999934,1850.3722165999934,1850.361066740076,4.255935399967711,return,4.107291100022849,,,,,,,,,,,,,,,,,,,,,,,,,,,,,,,,,G2VQ35,train_x,red_square,top_right,2025-09-02_15h09.32.055,HideSeek_v1,2022.2.5,59.95379959223911,
,7,8,3,8,-4,0,56,,train_dim1_1,4,30,,,,2,0,2,0,,,,,,,,,0,0,0,0,0,3,3,3,1,0,1,0,,,,,,,,,,,,,,,,,,,,,,,,,,,,,,,,,,,,,,,,,,,,,,,,,,,,,,,,,,,,,,,,30,,,,,,,,1860.0183572000242,1860.0183572000242,1860.0183572000242,1860.0183572000242,1860.0183572000242,left,2.928175100008957,0,1,0,99,0.4,0.24,left,2.8444287999882363,,,,,,,,,,,,,,,,,,,,,,,,,,,,,,,,,,,,,,,,,,,,,,,,,,,,,,,,,,,,G2VQ35,train_x,red_square,top_right,2025-09-02_15h09.32.055,HideSeek_v1,2022.2.5,59.95379959223911,
,7,8,3,8,-4,0,56,,train_dim1_1,4,30,,,,2,0,2,0,,,,,,,,,0,0,0,0,0,3,3,3,2,0,2,0,,,,,,,,,,,,,,,,,,,,,,,,,,,,,,,,,,,,,,,,,,,,,,,,,,,,,,,,,,,,,,,,30,,,,,,,,1862.9568341000122,1862.9568341000122,1862.9568341000122,1862.9568341000122,1862.9568341000122,left,2.309441399993375,0,1,0,99,0.32,0.24,left,2.2207041999790817,,,,,,,,,,,,,,,,,,,,,,,,,,,,,,,,,,,,,,,,,,,,,,,,,,,,,,,,,,,,G2VQ35,train_x,red_square,top_right,2025-09-02_15h09.32.055,HideSeek_v1,2022.2.5,59.95379959223911,
,7,8,3,8,-4,0,56,,train_dim1_1,4,30,,,,2,0,2,0,,,,,,,,,0,0,0,0,0,3,3,3,3,0,3,0,,,,,,,,,,,,,,,,,,,,,,,,,,,,,,,,,,,,,,,,,,,,,,,,,,,,,,,,,,,,,,,,30,,,,,,,,1865.272539800033,1865.272539800033,1865.272539800033,1865.272539800033,1865.272539800033,right,2.093839699984528,0,1,0,99,0.4,0.24,right,2.0075623000157066,,,,,,,,,,,,,,,,,,,,,,,,,,,,,,,,,,,,,,,,,,,,,,,,,,,,,,,,,,,,G2VQ35,train_x,red_square,top_right,2025-09-02_15h09.32.055,HideSeek_v1,2022.2.5,59.95379959223911,
,7,8,3,8,-4,0,56,,train_dim1_1,4,30,,,,2,0,2,0,,,,,,,,,0,0,0,0,0,3,3,3,4,0,4,0,,,,,,,,,,,,,,,,,,,,,,,,,,,,,,,,,,,,,,,,,,,,,,,,,,,,,,,,,,,,,,,,30,,,,,,,,1867.3737145999912,1867.3737145999912,1867.3737145999912,1867.3737145999912,1867.3737145999912,return,0.8768998000305146,0,0,0,0,0.4,0.24,return,0.795060399977956,0,-2,0.4,0.24,,,,,,,,,,,,,,,,,,,,,,,,,,,,,,,,,,,,,,,,,,,,,,,,,,,,,,,,G2VQ35,train_x,red_square,top_right,2025-09-02_15h09.32.055,HideSeek_v1,2022.2.5,59.95379959223911,
,5,7,0,7,-5,0,66,,train_dim1_1,5,30,,,,2,0,2,0,,,,,,,,,0,0,0,0,0,4,4,4,0,0,0,0,,,,,,,,,,,,,,,,,,,,,,,,,stimuli/alien_stimuli/66.png,,,,,,,,,,,,,,,,,,,,,,,,,,,,,stimuli/alien_stimuli/56.png,56,7,6,,,,,,,30,,,,,,,,1878.4787412000005,1878.4787412000005,1878.4787412000005,1878.4787412000005,1878.4787412000005,left,3.8714251999626867,0,0,0,99,0.15999999999999998,0.16,left,3.779687099973671,,,,,1876.9163924999884,1878.4787412000005,0.08,0.24,0.0,0.32,0.24,0.08,0.24000000000000002,0.08,0.24,1869.8329874000046,1869.8329874000046,1869.8329874000046,1869.8329874000046,1869.8329874000046,1869.8329874000046,1869.8329874000046,1869.8329874000046,1869.8270969400298,7.208557399979327,return,7.063798200048041,,,,,,,,,,,,,,,,,,,,,,,,,,,,,,,,,G2VQ35,train_x,red_square,top_right,2025-09-02_15h09.32.055,HideSeek_v1,2022.2.5,59.95379959223911,
,5,7,0,7,-5,0,66,,train_dim1_1,5,30,,,,2,0,2,0,,,,,,,,,0,0,0,0,0,4,4,4,1,0,1,0,,,,,,,,,,,,,,,,,,,,,,,,,,,,,,,,,,,,,,,,,,,,,,,,,,,,,,,,,,,,,,,,30,,,,,,,,1882.3515442000353,1882.3515442000353,1882.3515442000353,1882.3515442000353,1882.3515442000353,left,2.4612348999944516,0,0,0,99,0.07999999999999997,0.16,left,2.3754807999939658,,,,,,,,,,,,,,,,,,,,,,,,,,,,,,,,,,,,,,,,,,,,,,,,,,,,,,,,,,,,G2VQ35,train_x,red_square,top_right,2025-09-02_15h09.32.055,HideSeek_v1,2022.2.5,59.95379959223911,
,5,7,0,7,-5,0,66,,train_dim1_1,5,30,,,,2,0,2,0,,,,,,,,,0,0,0,0,0,4,4,4,2,0,2,0,,,,,,,,,,,,,,,,,,,,,,,,,,,,,,,,,,,,,,,,,,,,,,,,,,,,,,,,,,,,,,,,30,,,,,,,,1884.8193113000016,1884.8193113000016,1884.8193113000016,1884.8193113000016,1884.8193113000016,left,0.9100938000483438,0,0,0,99,-2.7755575615628914e-17,0.16,left,0.8276875000447035,,,,,,,,,,,,,,,,,,,,,,,,,,,,,,,,,,,,,,,,,,,,,,,,,,,,,,,,,,,,G2VQ35,train_x,red_square,top_right,2025-09-02_15h09.32.055,HideSeek_v1,2022.2.5,59.95379959223911,
,5,7,0,7,-5,0,66,,train_dim1_1,5,30,,,,2,0,2,0,,,,,,,,,0,0,0,0,0,4,4,4,3,0,3,0,,,,,,,,,,,,,,,,,,,,,,,,,,,,,,,,,,,,,,,,,,,,,,,,,,,,,,,,,,,,,,,,30,,,,,,,,1885.7367293999996,1885.7367293999996,1885.7367293999996,1885.7367293999996,1885.7367293999996,left,0.7268466000095941,0,0,0,99,-0.08000000000000003,0.16,left,0.6409588000387885,,,,,,,,,,,,,,,,,,,,,,,,,,,,,,,,,,,,,,,,,,,,,,,,,,,,,,,,,,,,G2VQ35,train_x,red_square,top_right,2025-09-02_15h09.32.055,HideSeek_v1,2022.2.5,59.95379959223911,
,5,7,0,7,-5,0,66,,train_dim1_1,5,30,,,,2,0,2,0,,,,,,,,,0,0,0,0,0,4,4,4,4,0,4,0,,,,,,,,,,,,,,,,,,,,,,,,,,,,,,,,,,,,,,,,,,,,,,,,,,,,,,,,,,,,,,,,30,,,,,,,,1886.4707521999953,1886.4707521999953,1886.4707521999953,1886.4707521999953,1886.4707521999953,return,1.077057899965439,0,1,0,0,-0.08000000000000003,0.16,return,0.9996236999868415,0,-6,-0.08000000000000003,0.16,,,,,,,,,,,,,,,,,,,,,,,,,,,,,,,,,,,,,,,,,,,,,,,,,,,,,,,,G2VQ35,train_x,red_square,top_right,2025-09-02_15h09.32.055,HideSeek_v1,2022.2.5,59.95379959223911,
,5,5,4,5,-1,0,26,,train_dim1_1,6,30,,,,2,0,2,0,,,,,,,,,0,0,0,0,0,5,5,5,0,0,0,0,,,,,,,,,,,,,,,,,,,,,,,,,stimuli/alien_stimuli/26.png,,,,,,,,,,,,,,,,,,,,,,,,,,,,,stimuli/alien_stimuli/66.png,66,5,7,,,,,,,30,,,,,,,,1903.5368457000004,1903.5368457000004,1903.5368457000004,1903.5368457000004,1903.5368457000004,left,3.2559534999891184,0,1,0,99,0.15999999999999998,0,left,3.139230399974622,,,,,1901.9537305000122,1903.5368457000004,-0.16,0.16,0.0,0.4,0.16,-0.16,0.039999999999999994,-0.16,0.16,1889.1237021000125,1889.1237021000125,1889.1237021000125,1889.1237021000125,1889.1237021000125,1889.1237021000125,1889.1237021000125,1889.1237021000125,1889.1098088100725,12.946055899956264,return,12.806162300053984,,,,,,,,,,,,,,,,,,,,,,,,,,,,,,,,,G2VQ35,train_x,red_square,top_right,2025-09-02_15h09.32.055,HideSeek_v1,2022.2.5,59.95379959223911,
,5,5,4,5,-1,0,26,,train_dim1_1,6,30,,,,2,0,2,0,,,,,,,,,0,0,0,0,0,5,5,5,1,0,1,0,,,,,,,,,,,,,,,,,,,,,,,,,,,,,,,,,,,,,,,,,,,,,,,,,,,,,,,,,,,,,,,,30,,,,,,,,1906.7757427000324,1906.7757427000324,1906.7757427000324,1906.7757427000324,1906.7757427000324,left,1.410413499979768,0,1,0,99,0.07999999999999997,0,left,1.3309057000442408,,,,,,,,,,,,,,,,,,,,,,,,,,,,,,,,,,,,,,,,,,,,,,,,,,,,,,,,,,,,G2VQ35,train_x,red_square,top_right,2025-09-02_15h09.32.055,HideSeek_v1,2022.2.5,59.95379959223911,
,5,5,4,5,-1,0,26,,train_dim1_1,6,30,,,,2,0,2,0,,,,,,,,,0,0,0,0,0,5,5,5,2,0,2,0,,,,,,,,,,,,,,,,,,,,,,,,,,,,,,,,,,,,,,,,,,,,,,,,,,,,,,,,,,,,,,,,30,,,,,,,,1908.1930107999942,1908.1930107999942,1908.1930107999942,1908.1930107999942,1908.1930107999942,left,0.5099618000094779,0,1,0,99,-2.7755575615628914e-17,0,left,0.41751510003814474,,,,,,,,,,,,,,,,,,,,,,,,,,,,,,,,,,,,,,,,,,,,,,,,,,,,,,,,,,,,G2VQ35,train_x,red_square,top_right,2025-09-02_15h09.32.055,HideSeek_v1,2022.2.5,59.95379959223911,
,5,5,4,5,-1,0,26,,train_dim1_1,6,30,,,,2,0,2,0,,,,,,,,,0,0,0,0,0,5,5,5,3,0,3,0,,,,,,,,,,,,,,,,,,,,,,,,,,,,,,,,,,,,,,,,,,,,,,,,,,,,,,,,,,,,,,,,30,,,,,,,,1908.7101168000372,1908.7101168000372,1908.7101168000372,1908.7101168000372,1908.7101168000372,left,0.4933197000063956,0,1,0,99,-0.08000000000000003,0,left,0.41303379996679723,,,,,,,,,,,,,,,,,,,,,,,,,,,,,,,,,,,,,,,,,,,,,,,,,,,,,,,,,,,,G2VQ35,train_x,red_square,top_right,2025-09-02_15h09.32.055,HideSeek_v1,2022.2.5,59.95379959223911,
,5,5,4,5,-1,0,26,,train_dim1_1,6,30,,,,2,0,2,0,,,,,,,,,0,0,0,0,0,5,5,5,4,0,4,0,,,,,,,,,,,,,,,,,,,,,,,,,,,,,,,,,,,,,,,,,,,,,,,,,,,,,,,,,,,,,,,,30,,,,,,,,1909.21040370001,1909.21040370001,1909.21040370001,1909.21040370001,1909.21040370001,left,2.31113240000559,0,1,0,99,-0.16000000000000003,0,left,2.2229789000120945,,,,,,,,,,,,,,,,,,,,,,,,,,,,,,,,,,,,,,,,,,,,,,,,,,,,,,,,,,,,G2VQ35,train_x,red_square,top_right,2025-09-02_15h09.32.055,HideSeek_v1,2022.2.5,59.95379959223911,
,5,5,4,5,-1,0,26,,train_dim1_1,6,30,,,,2,0,2,0,,,,,,,,,0,0,0,0,0,5,5,5,5,0,5,0,,,,,,,,,,,,,,,,,,,,,,,,,,,,,,,,,,,,,,,,,,,,,,,,,,,,,,,,,,,,,,,,30,,,,,,,,1911.528741599992,1911.528741599992,1911.528741599992,1911.528741599992,1911.528741599992,return,1.4775189000065438,0,0,0,0,-0.16000000000000003,0,return,1.3923004999523982,0,-11,-0.16000000000000003,0,,,,,,,,,,,,,,,,,,,,,,,,,,,,,,,,,,,,,,,,,,,,,,,,,,,,,,,,G2VQ35,train_x,red_square,top_right,2025-09-02_15h09.32.055,HideSeek_v1,2022.2.5,59.95379959223911,
,8,5,3,5,-5,0,66,,train_dim1_1,7,30,,,,2,0,2,0,,,,,,,,,0,0,0,0,0,6,6,6,0,0,0,0,,,,,,,,,,,,,,,,,,,,,,,,,stimuli/alien_stimuli/66.png,,,,,,,,,,,,,,,,,,,,,,,,,,,,,stimuli/alien_stimuli/26.png,26,5,8,,,,,,,30,,,,,,,,1919.5107308999868,1919.5107308999868,1919.5107308999868,1919.5107308999868,1919.5107308999868,left,4.308245300024282,0,0,0,99,0.39999999999999997,0,left,4.226406199974008,,,,,1917.9501827000058,1919.5107308999868,0.16,0,0.0,0.08,0.0,0.16,0.2,0.16,0,1914.5861791000352,1914.5861791000352,1914.5861791000352,1914.5861791000352,1914.5861791000352,1914.5861791000352,1914.5861791000352,1914.5861791000352,1914.5643040100285,3.488648300000932,return,3.34578319999855,,,,,,,,,,,,,,,,,,,,,,,,,,,,,,,,,G2VQ35,train_x,red_square,top_right,2025-09-02_15h09.32.055,HideSeek_v1,2022.2.5,59.95379959223911,
,8,5,3,5,-5,0,66,,train_dim1_1,7,30,,,,2,0,2,0,,,,,,,,,0,0,0,0,0,6,6,6,1,0,1,0,,,,,,,,,,,,,,,,,,,,,,,,,,,,,,,,,,,,,,,,,,,,,,,,,,,,,,,,,,,,,,,,30,,,,,,,,1923.8200066999998,1923.8200066999998,1923.8200066999998,1923.8200066999998,1923.8200066999998,left,0.5592084999661893,0,0,0,99,0.31999999999999995,0,left,0.4864606999908574,,,,,,,,,,,,,,,,,,,,,,,,,,,,,,,,,,,,,,,,,,,,,,,,,,,,,,,,,,,,G2VQ35,train_x,red_square,top_right,2025-09-02_15h09.32.055,HideSeek_v1,2022.2.5,59.95379959223911,
,8,5,3,5,-5,0,66,,train_dim1_1,7,30,,,,2,0,2,0,,,,,,,,,0,0,0,0,0,6,6,6,2,0,2,0,,,,,,,,,,,,,,,,,,,,,,,,,,,,,,,,,,,,,,,,,,,,,,,,,,,,,,,,,,,,,,,,30,,,,,,,,1924.3859038000228,1924.3859038000228,1924.3859038000228,1924.3859038000228,1924.3859038000228,left,0.5602178999688476,0,0,0,99,0.23999999999999994,0,left,0.4722168000298552,,,,,,,,,,,,,,,,,,,,,,,,,,,,,,,,,,,,,,,,,,,,,,,,,,,,,,,,,,,,G2VQ35,train_x,red_square,top_right,2025-09-02_15h09.32.055,HideSeek_v1,2022.2.5,59.95379959223911,
,8,5,3,5,-5,0,66,,train_dim1_1,7,30,,,,2,0,2,0,,,,,,,,,0,0,0,0,0,6,6,6,3,0,3,0,,,,,,,,,,,,,,,,,,,,,,,,,,,,,,,,,,,,,,,,,,,,,,,,,,,,,,,,,,,,,,,,30,,,,,,,,1924.954462900001,1924.954462900001,1924.954462900001,1924.954462900001,1924.954462900001,left,0.8095036000013351,0,0,0,99,0.15999999999999992,0,left,0.7231323999585584,,,,,,,,,,,,,,,,,,,,,,,,,,,,,,,,,,,,,,,,,,,,,,,,,,,,,,,,,,,,G2VQ35,train_x,red_square,top_right,2025-09-02_15h09.32.055,HideSeek_v1,2022.2.5,59.95379959223911,
,8,5,3,5,-5,0,66,,train_dim1_1,7,30,,,,2,0,2,0,,,,,,,,,0,0,0,0,0,6,6,6,4,0,4,0,,,,,,,,,,,,,,,,,,,,,,,,,,,,,,,,,,,,,,,,,,,,,,,,,,,,,,,,,,,,,,,,30,,,,,,,,1925.7694160999963,1925.7694160999963,1925.7694160999963,1925.7694160999963,1925.7694160999963,left,0.5929827999789268,0,0,0,99,0.07999999999999992,0,left,0.5209118000348099,,,,,,,,,,,,,,,,,,,,,,,,,,,,,,,,,,,,,,,,,,,,,,,,,,,,,,,,,,,,G2VQ35,train_x,red_square,top_right,2025-09-02_15h09.32.055,HideSeek_v1,2022.2.5,59.95379959223911,
,8,5,3,5,-5,0,66,,train_dim1_1,7,30,,,,2,0,2,0,,,,,,,,,0,0,0,0,0,6,6,6,5,0,5,0,,,,,,,,,,,,,,,,,,,,,,,,,,,,,,,,,,,,,,,,,,,,,,,,,,,,,,,,,,,,,,,,30,,,,,,,,1926.3704575000447,1926.3704575000447,1926.3704575000447,1926.3704575000447,1926.3704575000447,left,0.9422034999588504,0,0,0,99,-8.326672684688674e-17,0,left,0.8659801000030711,,,,,,,,,,,,,,,,,,,,,,,,,,,,,,,,,,,,,,,,,,,,,,,,,,,,,,,,,,,,G2VQ35,train_x,red_square,top_right,2025-09-02_15h09.32.055,HideSeek_v1,2022.2.5,59.95379959223911,
,8,5,3,5,-5,0,66,,train_dim1_1,7,30,,,,2,0,2,0,,,,,,,,,0,0,0,0,0,6,6,6,6,0,6,0,,,,,,,,,,,,,,,,,,,,,,,,,,,,,,,,,,,,,,,,,,,,,,,,,,,,,,,,,,,,,,,,30,,,,,,,,1927.3208635000046,1927.3208635000046,1927.3208635000046,1927.3208635000046,1927.3208635000046,return,0.760311099991668,0,1,0,0,-8.326672684688674e-17,0,return,0.6827197000384331,0,-17,-8.326672684688674e-17,0,,,,,,,,,,,,,,,,,,,,,,,,,,,,,,,,,,,,,,,,,,,,,,,,,,,,,,,,G2VQ35,train_x,red_square,top_right,2025-09-02_15h09.32.055,HideSeek_v1,2022.2.5,59.95379959223911,
,5,9,2,9,-3,0,46,,train_dim1_1,8,30,,,,2,0,2,0,,,,,,,,,0,0,0,0,0,7,7,7,0,0,0,0,,,,,,,,,,,,,,,,,,,,,,,,,stimuli/alien_stimuli/46.png,,,,,,,,,,,,,,,,,,,,,,,,,,,,,stimuli/alien_stimuli/66.png,66,8,9,,,,,,,30,,,,,,,,1940.9262513000285,1940.9262513000285,1940.9262513000285,1940.9262513000285,1940.9262513000285,down,2.938054500031285,0,1,0,99,0.24,0.24,down,2.8370568999671377,,,,,1939.3513942999998,1940.9262513000285,0.08,0,0.0,0.4,0.0,0.08,0.27999999999999997,0.08,0,1929.6625936999917,1929.6625936999917,1929.6625936999917,1929.6625936999917,1929.6625936999917,1929.6625936999917,1929.6625936999917,1929.6625936999917,1929.6433749100715,9.81048720004037,return,9.662974699982442,,,,,,,,,,,,,,,,,,,,,,,,,,,,,,,,,G2VQ35,train_x,red_square,top_right,2025-09-02_15h09.32.055,HideSeek_v1,2022.2.5,59.95379959223911,
,5,9,2,9,-3,0,46,,train_dim1_1,8,30,,,,2,0,2,0,,,,,,,,,0,0,0,0,0,7,7,7,1,0,1,0,,,,,,,,,,,,,,,,,,,,,,,,,,,,,,,,,,,,,,,,,,,,,,,,,,,,,,,,,,,,,,,,30,,,,,,,,1943.852628200024,1943.852628200024,1943.852628200024,1943.852628200024,1943.852628200024,down,0.5429548000101931,0,1,0,99,0.24,0.15999999999999998,down,0.4595450999913737,,,,,,,,,,,,,,,,,,,,,,,,,,,,,,,,,,,,,,,,,,,,,,,,,,,,,,,,,,,,G2VQ35,train_x,red_square,top_right,2025-09-02_15h09.32.055,HideSeek_v1,2022.2.5,59.95379959223911,
,5,9,2,9,-3,0,46,,train_dim1_1,8,30,,,,2,0,2,0,,,,,,,,,0,0,0,0,0,7,7,7,2,0,2,0,,,,,,,,,,,,,,,,,,,,,,,,,,,,,,,,,,,,,,,,,,,,,,,,,,,,,,,,,,,,,,,,30,,,,,,,,1944.4024724999908,1944.4024724999908,1944.4024724999908,1944.4024724999908,1944.4024724999908,down,3.0118824999663047,0,1,0,99,0.24,0.07999999999999997,down,2.9387372999917716,,,,,,,,,,,,,,,,,,,,,,,,,,,,,,,,,,,,,,,,,,,,,,,,,,,,,,,,,,,,G2VQ35,train_x,red_square,top_right,2025-09-02_15h09.32.055,HideSeek_v1,2022.2.5,59.95379959223911,
,5,9,2,9,-3,0,46,,train_dim1_1,8,30,,,,2,0,2,0,,,,,,,,,0,0,0,0,0,7,7,7,3,0,3,0,,,,,,,,,,,,,,,,,,,,,,,,,,,,,,,,,,,,,,,,,,,,,,,,,,,,,,,,,,,,,,,,30,,,,,,,,1947.4208826000104,1947.4208826000104,1947.4208826000104,1947.4208826000104,1947.4208826000104,down,2.294822200026829,0,1,0,99,0.24,-2.7755575615628914e-17,down,2.2105518000316806,,,,,,,,,,,,,,,,,,,,,,,,,,,,,,,,,,,,,,,,,,,,,,,,,,,,,,,,,,,,G2VQ35,train_x,red_square,top_right,2025-09-02_15h09.32.055,HideSeek_v1,2022.2.5,59.95379959223911,
,5,9,2,9,-3,0,46,,train_dim1_1,8,30,,,,2,0,2,0,,,,,,,,,0,0,0,0,0,7,7,7,4,0,4,0,,,,,,,,,,,,,,,,,,,,,,,,,,,,,,,,,,,,,,,,,,,,,,,,,,,,,,,,,,,,,,,,30,,,,,,,,1949.7234949000413,1949.7234949000413,1949.7234949000413,1949.7234949000413,1949.7234949000413,down,0.8602073999936692,0,1,0,99,0.24,-0.08000000000000003,down,0.7862414999981411,,,,,,,,,,,,,,,,,,,,,,,,,,,,,,,,,,,,,,,,,,,,,,,,,,,,,,,,,,,,G2VQ35,train_x,red_square,top_right,2025-09-02_15h09.32.055,HideSeek_v1,2022.2.5,59.95379959223911,
,5,9,2,9,-3,0,46,,train_dim1_1,8,30,,,,2,0,2,0,,,,,,,,,0,0,0,0,0,7,7,7,5,0,5,0,,,,,,,,,,,,,,,,,,,,,,,,,,,,,,,,,,,,,,,,,,,,,,,,,,,,,,,,,,,,,,,,30,,,,,,,,1950.5910019000294,1950.5910019000294,1950.5910019000294,1950.5910019000294,1950.5910019000294,down,1.3938215000089258,0,1,0,99,0.24,-0.16000000000000003,down,1.3193397999857552,,,,,,,,,,,,,,,,,,,,,,,,,,,,,,,,,,,,,,,,,,,,,,,,,,,,,,,,,,,,G2VQ35,train_x,red_square,top_right,2025-09-02_15h09.32.055,HideSeek_v1,2022.2.5,59.95379959223911,
,5,9,2,9,-3,0,46,,train_dim1_1,8,30,,,,2,0,2,0,,,,,,,,,0,0,0,0,0,7,7,7,6,0,6,0,,,,,,,,,,,,,,,,,,,,,,,,,,,,,,,,,,,,,,,,,,,,,,,,,,,,,,,,,,,,,,,,30,,,,,,,,1951.9948854999966,1951.9948854999966,1951.9948854999966,1951.9948854999966,1951.9948854999966,return,0.4236846000421792,0,0,0,0,0.24,-0.16000000000000003,return,0.34062279999488965,-6,-17,0.24,-0.16000000000000003,,,,,,,,,,,,,,,,,,,,,,,,,,,,,,,,,,,,,,,,,,,,,,,,,,,,,,,,G2VQ35,train_x,red_square,top_right,2025-09-02_15h09.32.055,HideSeek_v1,2022.2.5,59.95379959223911,
,6,5,2,5,-4,0,56,,train_dim1_1,9,30,,,,2,0,2,0,,,,,,,,,0,0,0,0,0,8,8,8,0,0,0,0,,,,,,,,,,,,,,,,,,,,,,,,,stimuli/alien_stimuli/56.png,,,,,,,,,,,,,,,,,,,,,,,,,,,,,stimuli/alien_stimuli/46.png,46,5,10,,,,,,,30,,,,,,,,1960.328012700018,1960.328012700018,1960.328012700018,1960.328012700018,1960.328012700018,left,3.5244652000255883,0,0,0,99,0.24,0,left,3.4424702000105754,,,,,1958.767635600001,1960.328012700018,0,0.32,0.0,0.24,0.32,0,0.12,0,0.32,1953.99659960001,1953.99659960001,1953.99659960001,1953.99659960001,1953.99659960001,1953.99659960001,1953.99659960001,1953.99659960001,1953.9804057100728,4.889657599967904,return,4.741003900009673,,,,,,,,,,,,,,,,,,,,,,,,,,,,,,,,,G2VQ35,train_x,red_square,top_right,2025-09-02_15h09.32.055,HideSeek_v1,2022.2.5,59.95379959223911,
,6,5,2,5,-4,0,56,,train_dim1_1,9,30,,,,2,0,2,0,,,,,,,,,0,0,0,0,0,8,8,8,1,0,1,0,,,,,,,,,,,,,,,,,,,,,,,,,,,,,,,,,,,,,,,,,,,,,,,,,,,,,,,,,,,,,,,,30,,,,,,,,1963.8533628000296,1963.8533628000296,1963.8533628000296,1963.8533628000296,1963.8533628000296,left,0.4600302999606356,0,0,0,99,0.15999999999999998,0,left,0.37032210000324994,,,,,,,,,,,,,,,,,,,,,,,,,,,,,,,,,,,,,,,,,,,,,,,,,,,,,,,,,,,,G2VQ35,train_x,red_square,top_right,2025-09-02_15h09.32.055,HideSeek_v1,2022.2.5,59.95379959223911,
,6,5,2,5,-4,0,56,,train_dim1_1,9,30,,,,2,0,2,0,,,,,,,,,0,0,0,0,0,8,8,8,2,0,2,0,,,,,,,,,,,,,,,,,,,,,,,,,,,,,,,,,,,,,,,,,,,,,,,,,,,,,,,,,,,,,,,,30,,,,,,,,1964.3208840000443,1964.3208840000443,1964.3208840000443,1964.3208840000443,1964.3208840000443,left,2.577971199993044,0,0,0,99,0.07999999999999997,0,left,2.4990468999603763,,,,,,,,,,,,,,,,,,,,,,,,,,,,,,,,,,,,,,,,,,,,,,,,,,,,,,,,,,,,G2VQ35,train_x,red_square,top_right,2025-09-02_15h09.32.055,HideSeek_v1,2022.2.5,59.95379959223911,
,6,5,2,5,-4,0,56,,train_dim1_1,9,30,,,,2,0,2,0,,,,,,,,,0,0,0,0,0,8,8,8,3,0,3,0,,,,,,,,,,,,,,,,,,,,,,,,,,,,,,,,,,,,,,,,,,,,,,,,,,,,,,,,,,,,,,,,30,,,,,,,,1966.9069113000296,1966.9069113000296,1966.9069113000296,1966.9069113000296,1966.9069113000296,return,1.6436159000149928,0,1,0,0,0.07999999999999997,0,return,1.5597246999968775,-6,-20,0.07999999999999997,0,,,,,,,,,,,,,,,,,,,,,,,,,,,,,,,,,,,,,,,,,,,,,,,,,,,,,,,,G2VQ35,train_x,red_square,top_right,2025-09-02_15h09.32.055,HideSeek_v1,2022.2.5,59.95379959223911,
,5,8,5,8,0,0,16,,train_dim1_1,10,30,,,,2,0,2,0,,,,,,,,,0,0,0,0,0,9,9,9,0,0,0,0,,,,,,,,,,,,,,,,,,,,,,,,,stimuli/alien_stimuli/16.png,,,,,,,,,,,,,,,,,,,,,,,,,,,,,stimuli/alien_stimuli/56.png,56,6,11,,,,,,,30,,,,,,,,1977.2777560999966,1977.2777560999966,1977.2777560999966,1977.2777560999966,1977.2777560999966,down,3.3588545999955386,0,1,0,99,0.24,0.15999999999999998,down,3.2623727000318468,,,,,1975.7149619000265,1977.2777560999966,0,0,0.0,0.32,0.0,0,0.16,0,0,1970.126172600023,1970.126172600023,1970.126172600023,1970.126172600023,1970.126172600023,1970.126172600023,1970.126172600023,1970.126172600023,1970.1102303100224,5.706758100015577,return,5.571835199953057,,,,,,,,,,,,,,,,,,,,,,,,,,,,,,,,,G2VQ35,train_x,red_square,top_right,2025-09-02_15h09.32.055,HideSeek_v1,2022.2.5,59.95379959223911,
,5,8,5,8,0,0,16,,train_dim1_1,10,30,,,,2,0,2,0,,,,,,,,,0,0,0,0,0,9,9,9,1,0,1,0,,,,,,,,,,,,,,,,,,,,,,,,,,,,,,,,,,,,,,,,,,,,,,,,,,,,,,,,,,,,,,,,30,,,,,,,,1980.6397464000038,1980.6397464000038,1980.6397464000038,1980.6397464000038,1980.6397464000038,down,1.4083822999964468,0,1,0,99,0.24,0.07999999999999997,down,1.3301957999938168,,,,,,,,,,,,,,,,,,,,,,,,,,,,,,,,,,,,,,,,,,,,,,,,,,,,,,,,,,,,G2VQ35,train_x,red_square,top_right,2025-09-02_15h09.32.055,HideSeek_v1,2022.2.5,59.95379959223911,
,5,8,5,8,0,0,16,,train_dim1_1,10,30,,,,2,0,2,0,,,,,,,,,0,0,0,0,0,9,9,9,2,0,2,0,,,,,,,,,,,,,,,,,,,,,,,,,,,,,,,,,,,,,,,,,,,,,,,,,,,,,,,,,,,,,,,,30,,,,,,,,1982.054808099987,1982.054808099987,1982.054808099987,1982.054808099987,1982.054808099987,down,0.8761064999853261,0,1,0,99,0.24,-2.7755575615628914e-17,down,0.7970332999830134,,,,,,,,,,,,,,,,,,,,,,,,,,,,,,,,,,,,,,,,,,,,,,,,,,,,,,,,,,,,G2VQ35,train_x,red_square,top_right,2025-09-02_15h09.32.055,HideSeek_v1,2022.2.5,59.95379959223911,
,5,8,5,8,0,0,16,,train_dim1_1,10,30,,,,2,0,2,0,,,,,,,,,0,0,0,0,0,9,9,9,3,0,3,0,,,,,,,,,,,,,,,,,,,,,,,,,,,,,,,,,,,,,,,,,,,,,,,,,,,,,,,,,,,,,,,,30,,,,,,,,1982.9375127000385,1982.9375127000385,1982.9375127000385,1982.9375127000385,1982.9375127000385,down,1.1607241000165232,0,1,0,99,0.24,-0.08000000000000003,down,1.081981499970425,,,,,,,,,,,,,,,,,,,,,,,,,,,,,,,,,,,,,,,,,,,,,,,,,,,,,,,,,,,,G2VQ35,train_x,red_square,top_right,2025-09-02_15h09.32.055,HideSeek_v1,2022.2.5,59.95379959223911,
,5,8,5,8,0,0,16,,train_dim1_1,10,30,,,,2,0,2,0,,,,,,,,,0,0,0,0,0,9,9,9,4,0,4,0,,,,,,,,,,,,,,,,,,,,,,,,,,,,,,,,,,,,,,,,,,,,,,,,,,,,,,,,,,,,,,,,30,,,,,,,,1984.107805400039,1984.107805400039,1984.107805400039,1984.107805400039,1984.107805400039,down,0.6249194000265561,0,1,0,99,0.24,-0.16000000000000003,down,0.5326070999726653,,,,,,,,,,,,,,,,,,,,,,,,,,,,,,,,,,,,,,,,,,,,,,,,,,,,,,,,,,,,G2VQ35,train_x,red_square,top_right,2025-09-02_15h09.32.055,HideSeek_v1,2022.2.5,59.95379959223911,
,5,8,5,8,0,0,16,,train_dim1_1,10,30,,,,2,0,2,0,,,,,,,,,0,0,0,0,0,9,9,9,5,0,5,0,,,,,,,,,,,,,,,,,,,,,,,,,,,,,,,,,,,,,,,,,,,,,,,,,,,,,,,,,,,,,,,,30,,,,,,,,1984.740481899993,1984.740481899993,1984.740481899993,1984.740481899993,1984.740481899993,return,1.1269835000275634,0,0,0,0,0.24,-0.16000000000000003,return,1.040934799995739,-11,-20,0.24,-0.16000000000000003,,,,,,,,,,,,,,,,,,,,,,,,,,,,,,,,,,,,,,,,,,,,,,,,,,,,,,,,G2VQ35,train_x,red_square,top_right,2025-09-02_15h09.32.055,HideSeek_v1,2022.2.5,59.95379959223911,
,7,7,4,7,-3,0,46,,train_dim1_1,11,30,,,,2,0,2,0,,,,,,,,,0,0,0,0,0,10,10,10,0,0,0,0,,,,,,,,,,,,,,,,,,,,,,,,,stimuli/alien_stimuli/46.png,,,,,,,,,,,,,,,,,,,,,,,,,,,,,stimuli/alien_stimuli/16.png,16,5,12,,,,,,,30,,,,,,,,1994.4720658000442,1994.4720658000442,1994.4720658000442,1994.4720658000442,1994.4720658000442,right,3.9254411999718286,0,0,0,99,0.48000000000000004,0.16,right,3.839244399976451,,,,,1992.9125047000125,1994.4720658000442,0.24,0.24,0.0,0.0,0.24,0.24,0.24,0.24,0.24,1987.4508940000087,1987.4508940000087,1987.4508940000087,1987.4508940000087,1987.4508940000087,1987.4508940000087,1987.4508940000087,1987.4508940000087,1987.4423431400326,5.589342899969779,return,5.44082720001461,,,,,,,,,,,,,,,,,,,,,,,,,,,,,,,,,G2VQ35,train_x,red_square,top_right,2025-09-02_15h09.32.055,HideSeek_v1,2022.2.5,59.95379959223911,
,7,7,4,7,-3,0,46,,train_dim1_1,11,30,,,,2,0,2,0,,,,,,,,,0,0,0,0,0,10,10,10,1,0,1,0,,,,,,,,,,,,,,,,,,,,,,,,,,,,,,,,,,,,,,,,,,,,,,,,,,,,,,,,,,,,,,,,30,,,,,,,,1998.3978389000404,1998.3978389000404,1998.3978389000404,1998.3978389000404,1998.3978389000404,left,1.8601522999815643,0,0,0,99,0.4,0.16,left,1.7801718999980949,,,,,,,,,,,,,,,,,,,,,,,,,,,,,,,,,,,,,,,,,,,,,,,,,,,,,,,,,,,,G2VQ35,train_x,red_square,top_right,2025-09-02_15h09.32.055,HideSeek_v1,2022.2.5,59.95379959223911,
,7,7,4,7,-3,0,46,,train_dim1_1,11,30,,,,2,0,2,0,,,,,,,,,0,0,0,0,0,10,10,10,2,0,2,0,,,,,,,,,,,,,,,,,,,,,,,,,,,,,,,,,,,,,,,,,,,,,,,,,,,,,,,,,,,,,,,,30,,,,,,,,2000.2653375000227,2000.2653375000227,2000.2653375000227,2000.2653375000227,2000.2653375000227,return,0.46007840003585443,0,0,0,0,0.4,0.16,return,0.3720483999932185,-11,-20,0.4,0.16,,,,,,,,,,,,,,,,,,,,,,,,,,,,,,,,,,,,,,,,,,,,,,,,,,,,,,,,G2VQ35,train_x,red_square,top_right,2025-09-02_15h09.32.055,HideSeek_v1,2022.2.5,59.95379959223911,
,5,5,4,5,-1,0,26,,train_dim1_1,12,30,,,,2,0,2,0,,,,,,,,,0,0,0,0,0,11,11,11,0,0,0,0,,,,,,,,,,,,,,,,,,,,,,,,,stimuli/alien_stimuli/26.png,,,,,,,,,,,,,,,,,,,,,,,,,,,,,stimuli/alien_stimuli/46.png,46,7,13,,,,,,,30,,,,,,,,2007.505079100025,2007.505079100025,2007.505079100025,2007.505079100025,2007.505079100025,left,4.0072342999628745,0,0,0,99,0.15999999999999998,0,left,3.907264999987092,,,,,2005.939989800041,2007.505079100025,0.16,0.16,0.0,0.24,0.16,0.16,0.28,0.16,0.16,2002.287957500026,2002.287957500026,2002.287957500026,2002.287957500026,2002.287957500026,2002.287957500026,2002.287957500026,2002.287957500026,2002.270352480025,3.755062200012617,return,3.6232830000226386,,,,,,,,,,,,,,,,,,,,,,,,,,,,,,,,,G2VQ35,train_x,red_square,top_right,2025-09-02_15h09.32.055,HideSeek_v1,2022.2.5,59.95379959223911,
,5,5,4,5,-1,0,26,,train_dim1_1,12,30,,,,2,0,2,0,,,,,,,,,0,0,0,0,0,11,11,11,1,0,1,0,,,,,,,,,,,,,,,,,,,,,,,,,,,,,,,,,,,,,,,,,,,,,,,,,,,,,,,,,,,,,,,,30,,,,,,,,2011.5126121999929,2011.5126121999929,2011.5126121999929,2011.5126121999929,2011.5126121999929,left,1.126425999973435,0,0,0,99,0.07999999999999997,0,left,1.0348604999599047,,,,,,,,,,,,,,,,,,,,,,,,,,,,,,,,,,,,,,,,,,,,,,,,,,,,,,,,,,,,G2VQ35,train_x,red_square,top_right,2025-09-02_15h09.32.055,HideSeek_v1,2022.2.5,59.95379959223911,
,5,5,4,5,-1,0,26,,train_dim1_1,12,30,,,,2,0,2,0,,,,,,,,,0,0,0,0,0,11,11,11,2,0,2,0,,,,,,,,,,,,,,,,,,,,,,,,,,,,,,,,,,,,,,,,,,,,,,,,,,,,,,,,,,,,,,,,30,,,,,,,,2012.6467398999957,2012.6467398999957,2012.6467398999957,2012.6467398999957,2012.6467398999957,left,0.6103820000425912,0,0,0,99,-2.7755575615628914e-17,0,left,0.5284309000126086,,,,,,,,,,,,,,,,,,,,,,,,,,,,,,,,,,,,,,,,,,,,,,,,,,,,,,,,,,,,G2VQ35,train_x,red_square,top_right,2025-09-02_15h09.32.055,HideSeek_v1,2022.2.5,59.95379959223911,
,5,5,4,5,-1,0,26,,train_dim1_1,12,30,,,,2,0,2,0,,,,,,,,,0,0,0,0,0,11,11,11,3,0,3,0,,,,,,,,,,,,,,,,,,,,,,,,,,,,,,,,,,,,,,,,,,,,,,,,,,,,,,,,,,,,,,,,30,,,,,,,,2013.2660213999916,2013.2660213999916,2013.2660213999916,2013.2660213999916,2013.2660213999916,left,0.5909921000129543,0,0,0,99,-0.08000000000000003,0,left,0.5072855000034906,,,,,,,,,,,,,,,,,,,,,,,,,,,,,,,,,,,,,,,,,,,,,,,,,,,,,,,,,,,,G2VQ35,train_x,red_square,top_right,2025-09-02_15h09.32.055,HideSeek_v1,2022.2.5,59.95379959223911,
,5,5,4,5,-1,0,26,,train_dim1_1,12,30,,,,2,0,2,0,,,,,,,,,0,0,0,0,0,11,11,11,4,0,4,0,,,,,,,,,,,,,,,,,,,,,,,,,,,,,,,,,,,,,,,,,,,,,,,,,,,,,,,,,,,,,,,,30,,,,,,,,2013.864512900007,2013.864512900007,2013.864512900007,2013.864512900007,2013.864512900007,return,1.87775819998933,0,0,0,0,-0.08000000000000003,0,return,1.7952658999711275,-11,-24,-0.08000000000000003,0,,,,,,,,,,,,,,,,,,,,,,,,,,,,,,,,,,,,,,,,,,,,,,,,,,,,,,,,G2VQ35,train_x,red_square,top_right,2025-09-02_15h09.32.055,HideSeek_v1,2022.2.5,59.95379959223911,
,5,9,1,9,-4,0,56,,train_dim1_1,13,30,,,,2,0,2,0,,,,,,,,,0,0,0,0,0,12,12,12,0,0,0,0,,,,,,,,,,,,,,,,,,,,,,,,,stimuli/alien_stimuli/56.png,,,,,,,,,,,,,,,,,,,,,,,,,,,,,stimuli/alien_stimuli/26.png,26,5,14,,,,,,,30,,,,,,,,2021.3625159999938,2021.3625159999938,2021.3625159999938,2021.3625159999938,2021.3625159999938,down,5.1882257999968715,0,0,0,99,0.24,0.24,down,5.092348699981812,,,,,2019.784849299991,2021.3625159999938,0.16,0,0.0,0.08,0.0,0.16,0.2,0.16,0,2017.321511999995,2017.321511999995,2017.321511999995,2017.321511999995,2017.321511999995,2017.321511999995,2017.321511999995,2017.321511999995,2017.2992804100677,2.587952000030782,return,2.438632100005634,,,,,,,,,,,,,,,,,,,,,,,,,,,,,,,,,G2VQ35,train_x,red_square,top_right,2025-09-02_15h09.32.055,HideSeek_v1,2022.2.5,59.95379959223911,
,5,9,1,9,-4,0,56,,train_dim1_1,13,30,,,,2,0,2,0,,,,,,,,,0,0,0,0,0,12,12,12,1,0,1,0,,,,,,,,,,,,,,,,,,,,,,,,,,,,,,,,,,,,,,,,,,,,,,,,,,,,,,,,,,,,,,,,30,,,,,,,,2026.5419048999902,2026.5419048999902,2026.5419048999902,2026.5419048999902,2026.5419048999902,up,2.343633300042711,0,0,0,99,0.24,0.32,up,2.2654368999646977,,,,,,,,,,,,,,,,,,,,,,,,,,,,,,,,,,,,,,,,,,,,,,,,,,,,,,,,,,,,G2VQ35,train_x,red_square,top_right,2025-09-02_15h09.32.055,HideSeek_v1,2022.2.5,59.95379959223911,
,5,9,1,9,-4,0,56,,train_dim1_1,13,30,,,,2,0,2,0,,,,,,,,,0,0,0,0,0,12,12,12,2,0,2,0,,,,,,,,,,,,,,,,,,,,,,,,,,,,,,,,,,,,,,,,,,,,,,,,,,,,,,,,,,,,,,,,30,,,,,,,,2028.8916817000136,2028.8916817000136,2028.8916817000136,2028.8916817000136,2028.8916817000136,return,0.5595733000081964,0,0,0,0,0.24,0.32,return,0.4691902999766171,-11,-24,0.24,0.32,,,,,,,,,,,,,,,,,,,,,,,,,,,,,,,,,,,,,,,,,,,,,,,,,,,,,,,,G2VQ35,train_x,red_square,top_right,2025-09-02_15h09.32.055,HideSeek_v1,2022.2.5,59.95379959223911,
,9,8,9,8,0,0,16,,train_dim1_1,14,30,,,,2,0,2,0,,,,,,,,,0,0,0,0,0,13,13,13,0,0,0,0,,,,,,,,,,,,,,,,,,,,,,,,,stimuli/alien_stimuli/16.png,,,,,,,,,,,,,,,,,,,,,,,,,,,,,stimuli/alien_stimuli/56.png,56,5,15,,,,,,,30,,,,,,,,2034.6898782000062,2034.6898782000062,2034.6898782000062,2034.6898782000062,2034.6898782000062,left,4.255075399996713,0,0,0,99,0.48000000000000004,0.24,left,4.161838700005319,,,,,2033.1124445000314,2034.6898782000062,-0.08,0.32,0.0,0.32,0.32,-0.08,0.07999999999999999,-0.08,0.32,2031.0167317999876,2031.0167317999876,2031.0167317999876,2031.0167317999876,2031.0167317999876,2031.0167317999876,2031.0167317999876,2031.0167317999876,2030.9942206800565,2.204313100024592,return,2.072343700041529,,,,,,,,,,,,,,,,,,,,,,,,,,,,,,,,,G2VQ35,train_x,red_square,top_right,2025-09-02_15h09.32.055,HideSeek_v1,2022.2.5,59.95379959223911,
,9,8,9,8,0,0,16,,train_dim1_1,14,30,,,,2,0,2,0,,,,,,,,,0,0,0,0,0,13,13,13,1,0,1,0,,,,,,,,,,,,,,,,,,,,,,,,,,,,,,,,,,,,,,,,,,,,,,,,,,,,,,,,,,,,,,,,30,,,,,,,,2038.9392649999936,2038.9392649999936,2038.9392649999936,2038.9392649999936,2038.9392649999936,left,0.47364109999034554,0,0,0,99,0.4,0.24,left,0.384589999972377,,,,,,,,,,,,,,,,,,,,,,,,,,,,,,,,,,,,,,,,,,,,,,,,,,,,,,,,,,,,G2VQ35,train_x,red_square,top_right,2025-09-02_15h09.32.055,HideSeek_v1,2022.2.5,59.95379959223911,
,9,8,9,8,0,0,16,,train_dim1_1,14,30,,,,2,0,2,0,,,,,,,,,0,0,0,0,0,13,13,13,2,0,2,0,,,,,,,,,,,,,,,,,,,,,,,,,,,,,,,,,,,,,,,,,,,,,,,,,,,,,,,,,,,,,,,,30,,,,,,,,2039.4191032000235,2039.4191032000235,2039.4191032000235,2039.4191032000235,2039.4191032000235,left,0.39340749999973923,0,0,0,99,0.32,0.24,left,0.314079399977345,,,,,,,,,,,,,,,,,,,,,,,,,,,,,,,,,,,,,,,,,,,,,,,,,,,,,,,,,,,,G2VQ35,train_x,red_square,top_right,2025-09-02_15h09.32.055,HideSeek_v1,2022.2.5,59.95379959223911,
,9,8,9,8,0,0,16,,train_dim1_1,14,30,,,,2,0,2,0,,,,,,,,,0,0,0,0,0,13,13,13,3,0,3,0,,,,,,,,,,,,,,,,,,,,,,,,,,,,,,,,,,,,,,,,,,,,,,,,,,,,,,,,,,,,,,,,30,,,,,,,,2039.8188607000047,2039.8188607000047,2039.8188607000047,2039.8188607000047,2039.8188607000047,return,3.028815699974075,0,0,0,0,0.32,0.24,return,2.944074700004421,-11,-27,0.32,0.24,,,,,,,,,,,,,,,,,,,,,,,,,,,,,,,,,,,,,,,,,,,,,,,,,,,,,,,,G2VQ35,train_x,red_square,top_right,2025-09-02_15h09.32.055,HideSeek_v1,2022.2.5,59.95379959223911,
,9,7,4,7,-5,0,66,,train_dim1_1,15,30,,,,2,0,2,0,,,,,,,,,0,0,0,0,0,14,14,14,0,0,0,0,,,,,,,,,,,,,,,,,,,,,,,,,stimuli/alien_stimuli/66.png,,,,,,,,,,,,,,,,,,,,,,,,,,,,,stimuli/alien_stimuli/16.png,16,9,16,,,,,,,30,,,,,,,,2051.2370681000175,2051.2370681000175,2051.2370681000175,2051.2370681000175,2051.2370681000175,right,4.139477000047918,0,0,0,99,0.64,0.16,right,4.045129999984056,,,,,2049.676181800023,2051.2370681000175,0.56,0.24,0.0,0.0,0.24,0.56,0.56,0.56,0.24,2044.4332421,2044.4332421,2044.4332421,2044.4332421,2044.4332421,2044.4332421,2044.4332421,2044.4332421,2044.4221484400448,5.37276070000371,return,5.216670299996622,,,,,,,,,,,,,,,,,,,,,,,,,,,,,,,,,G2VQ35,train_x,red_square,top_right,2025-09-02_15h09.32.055,HideSeek_v1,2022.2.5,59.95379959223911,
,9,7,4,7,-5,0,66,,train_dim1_1,15,30,,,,2,0,2,0,,,,,,,,,0,0,0,0,0,14,14,14,1,0,1,0,,,,,,,,,,,,,,,,,,,,,,,,,,,,,,,,,,,,,,,,,,,,,,,,,,,,,,,,,,,,,,,,30,,,,,,,,2055.378462099994,2055.378462099994,2055.378462099994,2055.378462099994,2055.378462099994,left,1.8274241000181064,0,0,0,99,0.56,0.16,left,1.742402800009586,,,,,,,,,,,,,,,,,,,,,,,,,,,,,,,,,,,,,,,,,,,,,,,,,,,,,,,,,,,,G2VQ35,train_x,red_square,top_right,2025-09-02_15h09.32.055,HideSeek_v1,2022.2.5,59.95379959223911,
,9,7,4,7,-5,0,66,,train_dim1_1,15,30,,,,2,0,2,0,,,,,,,,,0,0,0,0,0,14,14,14,2,0,2,0,,,,,,,,,,,,,,,,,,,,,,,,,,,,,,,,,,,,,,,,,,,,,,,,,,,,,,,,,,,,,,,,30,,,,,,,,2057.212552400015,2057.212552400015,2057.212552400015,2057.212552400015,2057.212552400015,return,0.5766892999527045,0,0,0,0,0.56,0.16,return,0.4987888000323437,-11,-27,0.56,0.16,,,,,,,,,,,,,,,,,,,,,,,,,,,,,,,,,,,,,,,,,,,,,,,,,,,,,,,,G2VQ35,train_x,red_square,top_right,2025-09-02_15h09.32.055,HideSeek_v1,2022.2.5,59.95379959223911,
,8,8,4,8,-4,0,56,,train_dim1_1,16,30,,,,2,0,2,0,,,,,,,,,0,0,0,0,0,15,15,15,0,0,0,0,,,,,,,,,,,,,,,,,,,,,,,,,stimuli/alien_stimuli/56.png,,,,,,,,,,,,,,,,,,,,,,,,,,,,,stimuli/alien_stimuli/66.png,66,9,17,,,,,,,30,,,,,,,,2067.6516924999887,2067.6516924999887,2067.6516924999887,2067.6516924999887,2067.6516924999887,right,2.9572197000379674,0,0,0,99,0.5599999999999999,0.24,right,2.8728830000036396,,,,,2066.0898427999928,2067.6516924999887,0.16,0.16,0.0,0.4,0.16,0.16,0.36000000000000004,0.16,0.16,2059.355552199995,2059.355552199995,2059.355552199995,2059.355552199995,2059.355552199995,2059.355552199995,2059.355552199995,2059.355552199995,2059.3343318800557,6.8412029999890365,return,6.717646400036756,,,,,,,,,,,,,,,,,,,,,,,,,,,,,,,,,G2VQ35,train_x,red_square,top_right,2025-09-02_15h09.32.055,HideSeek_v1,2022.2.5,59.95379959223911,
,8,8,4,8,-4,0,56,,train_dim1_1,16,30,,,,2,0,2,0,,,,,,,,,0,0,0,0,0,15,15,15,1,0,1,0,,,,,,,,,,,,,,,,,,,,,,,,,,,,,,,,,,,,,,,,,,,,,,,,,,,,,,,,,,,,,,,,30,,,,,,,,2070.6107761000167,2070.6107761000167,2070.6107761000167,2070.6107761000167,2070.6107761000167,left,4.146005199989304,0,0,0,99,0.4799999999999999,0.24,left,4.062830100010615,,,,,,,,,,,,,,,,,,,,,,,,,,,,,,,,,,,,,,,,,,,,,,,,,,,,,,,,,,,,G2VQ35,train_x,red_square,top_right,2025-09-02_15h09.32.055,HideSeek_v1,2022.2.5,59.95379959223911,
,8,8,4,8,-4,0,56,,train_dim1_1,16,30,,,,2,0,2,0,,,,,,,,,0,0,0,0,0,15,15,15,2,0,2,0,,,,,,,,,,,,,,,,,,,,,,,,,,,,,,,,,,,,,,,,,,,,,,,,,,,,,,,,,,,,,,,,30,,,,,,,,2074.763410500018,2074.763410500018,2074.763410500018,2074.763410500018,2074.763410500018,left,0.6433326999540441,0,0,0,99,0.3999999999999999,0.24,left,0.5642316000303254,,,,,,,,,,,,,,,,,,,,,,,,,,,,,,,,,,,,,,,,,,,,,,,,,,,,,,,,,,,,G2VQ35,train_x,red_square,top_right,2025-09-02_15h09.32.055,HideSeek_v1,2022.2.5,59.95379959223911,
,8,8,4,8,-4,0,56,,train_dim1_1,16,30,,,,2,0,2,0,,,,,,,,,0,0,0,0,0,15,15,15,3,0,3,0,,,,,,,,,,,,,,,,,,,,,,,,,,,,,,,,,,,,,,,,,,,,,,,,,,,,,,,,,,,,,,,,30,,,,,,,,2075.4133398000267,2075.4133398000267,2075.4133398000267,2075.4133398000267,2075.4133398000267,return,1.410762200015597,0,0,0,0,0.3999999999999999,0.24,return,1.3312353999936022,-11,-28,0.3999999999999999,0.24,,,,,,,,,,,,,,,,,,,,,,,,,,,,,,,,,,,,,,,,,,,,,,,,,,,,,,,,G2VQ35,train_x,red_square,top_right,2025-09-02_15h09.32.055,HideSeek_v1,2022.2.5,59.95379959223911,
,7,9,6,9,-1,0,26,,train_dim1_1,17,30,,,,2,0,2,0,,,,,,,,,0,0,0,0,0,16,16,16,0,0,0,0,,,,,,,,,,,,,,,,,,,,,,,,,stimuli/alien_stimuli/26.png,,,,,,,,,,,,,,,,,,,,,,,,,,,,,stimuli/alien_stimuli/56.png,56,8,18,,,,,,,30,,,,,,,,2091.4741554000066,2091.4741554000066,2091.4741554000066,2091.4741554000066,2091.4741554000066,left,6.044355699967127,0,0,0,99,0.32,0.32,left,5.926385200000368,,,,,2089.8930180000025,2091.4741554000066,0.16,0.24,0.0,0.32,0.24,0.16,0.32,0.16,0.24,2078.4004465999897,2078.4004465999897,2078.4004465999897,2078.4004465999897,2078.4004465999897,2078.4004465999897,2078.4004465999897,2078.4004465999897,2078.383388710051,11.611696799984202,return,11.467837899981532,,,,,,,,,,,,,,,,,,,,,,,,,,,,,,,,,G2VQ35,train_x,red_square,top_right,2025-09-02_15h09.32.055,HideSeek_v1,2022.2.5,59.95379959223911,
,7,9,6,9,-1,0,26,,train_dim1_1,17,30,,,,2,0,2,0,,,,,,,,,0,0,0,0,0,16,16,16,1,0,1,0,,,,,,,,,,,,,,,,,,,,,,,,,,,,,,,,,,,,,,,,,,,,,,,,,,,,,,,,,,,,,,,,30,,,,,,,,2097.5004897000035,2097.5004897000035,2097.5004897000035,2097.5004897000035,2097.5004897000035,left,0.6429017999907956,0,0,0,99,0.24,0.32,left,0.5537158999941312,,,,,,,,,,,,,,,,,,,,,,,,,,,,,,,,,,,,,,,,,,,,,,,,,,,,,,,,,,,,G2VQ35,train_x,red_square,top_right,2025-09-02_15h09.32.055,HideSeek_v1,2022.2.5,59.95379959223911,
,7,9,6,9,-1,0,26,,train_dim1_1,17,30,,,,2,0,2,0,,,,,,,,,0,0,0,0,0,16,16,16,2,0,2,0,,,,,,,,,,,,,,,,,,,,,,,,,,,,,,,,,,,,,,,,,,,,,,,,,,,,,,,,,,,,,,,,30,,,,,,,,2098.150274400017,2098.150274400017,2098.150274400017,2098.150274400017,2098.150274400017,left,0.6936030000215396,0,0,0,99,0.15999999999999998,0.32,left,0.6165524999960326,,,,,,,,,,,,,,,,,,,,,,,,,,,,,,,,,,,,,,,,,,,,,,,,,,,,,,,,,,,,G2VQ35,train_x,red_square,top_right,2025-09-02_15h09.32.055,HideSeek_v1,2022.2.5,59.95379959223911,
,7,9,6,9,-1,0,26,,train_dim1_1,17,30,,,,2,0,2,0,,,,,,,,,0,0,0,0,0,16,16,16,3,0,3,0,,,,,,,,,,,,,,,,,,,,,,,,,,,,,,,,,,,,,,,,,,,,,,,,,,,,,,,,,,,,,,,,30,,,,,,,,2098.8504170000087,2098.8504170000087,2098.8504170000087,2098.8504170000087,2098.8504170000087,left,0.6432703000027686,0,0,0,99,0.07999999999999997,0.32,left,0.5559515999630094,,,,,,,,,,,,,,,,,,,,,,,,,,,,,,,,,,,,,,,,,,,,,,,,,,,,,,,,,,,,G2VQ35,train_x,red_square,top_right,2025-09-02_15h09.32.055,HideSeek_v1,2022.2.5,59.95379959223911,
,7,9,6,9,-1,0,26,,train_dim1_1,17,30,,,,2,0,2,0,,,,,,,,,0,0,0,0,0,16,16,16,4,0,4,0,,,,,,,,,,,,,,,,,,,,,,,,,,,,,,,,,,,,,,,,,,,,,,,,,,,,,,,,,,,,,,,,30,,,,,,,,2099.5014185000327,2099.5014185000327,2099.5014185000327,2099.5014185000327,2099.5014185000327,return,1.277389499999117,0,0,0,0,0.07999999999999997,0.32,return,1.1856450000195764,-11,-32,0.07999999999999997,0.32,,,,,,,,,,,,,,,,,,,,,,,,,,,,,,,,,,,,,,,,,,,,,,,,,,,,,,,,G2VQ35,train_x,red_square,top_right,2025-09-02_15h09.32.055,HideSeek_v1,2022.2.5,59.95379959223911,
,7,6,2,6,-5,0,66,,train_dim1_1,18,30,,,,2,0,2,0,,,,,,,,,0,0,0,0,0,17,17,17,0,0,0,0,,,,,,,,,,,,,,,,,,,,,,,,,stimuli/alien_stimuli/66.png,,,,,,,,,,,,,,,,,,,,,,,,,,,,,stimuli/alien_stimuli/26.png,26,7,19,,,,,,,30,,,,,,,,2110.5688700000173,2110.5688700000173,2110.5688700000173,2110.5688700000173,2110.5688700000173,left,1.4725762999732979,0,0,0,99,0.32,0.08,left,1.393417600018438,,,,,2109.008932800032,2110.5688700000173,0.32,0.32,0.0,0.08,0.32,0.32,0.36,0.32,0.32,2102.357209900045,2102.357209900045,2102.357209900045,2102.357209900045,2102.357209900045,2102.357209900045,2102.357209900045,2102.357209900045,2102.336686510028,6.77455050003482,return,6.629044699948281,,,,,,,,,,,,,,,,,,,,,,,,,,,,,,,,,G2VQ35,train_x,red_square,top_right,2025-09-02_15h09.32.055,HideSeek_v1,2022.2.5,59.95379959223911,
,7,6,2,6,-5,0,66,,train_dim1_1,18,30,,,,2,0,2,0,,,,,,,,,0,0,0,0,0,17,17,17,1,0,1,0,,,,,,,,,,,,,,,,,,,,,,,,,,,,,,,,,,,,,,,,,,,,,,,,,,,,,,,,,,,,,,,,30,,,,,,,,2112.0408655999927,2112.0408655999927,2112.0408655999927,2112.0408655999927,2112.0408655999927,left,0.4595623000059277,0,0,0,99,0.24,0.08,left,0.37433590000728145,,,,,,,,,,,,,,,,,,,,,,,,,,,,,,,,,,,,,,,,,,,,,,,,,,,,,,,,,,,,G2VQ35,train_x,red_square,top_right,2025-09-02_15h09.32.055,HideSeek_v1,2022.2.5,59.95379959223911,
,7,6,2,6,-5,0,66,,train_dim1_1,18,30,,,,2,0,2,0,,,,,,,,,0,0,0,0,0,17,17,17,2,0,2,0,,,,,,,,,,,,,,,,,,,,,,,,,,,,,,,,,,,,,,,,,,,,,,,,,,,,,,,,,,,,,,,,30,,,,,,,,2112.511123700009,2112.511123700009,2112.511123700009,2112.511123700009,2112.511123700009,return,0.8410160999628715,0,0,0,0,0.24,0.08,return,0.7541409999830648,-11,-34,0.24,0.08,,,,,,,,,,,,,,,,,,,,,,,,,,,,,,,,,,,,,,,,,,,,,,,,,,,,,,,,G2VQ35,train_x,red_square,top_right,2025-09-02_15h09.32.055,HideSeek_v1,2022.2.5,59.95379959223911,
,5,8,2,8,-3,0,46,,train_dim1_1,19,30,,,,2,0,2,0,,,,,,,,,0,0,0,0,0,18,18,18,0,0,0,0,,,,,,,,,,,,,,,,,,,,,,,,,stimuli/alien_stimuli/46.png,,,,,,,,,,,,,,,,,,,,,,,,,,,,,stimuli/alien_stimuli/66.png,66,7,20,,,,,,,30,,,,,,,,2123.1621519000037,2123.1621519000037,2123.1621519000037,2123.1621519000037,2123.1621519000037,left,2.339412999979686,0,0,0,99,0.15999999999999998,0.24,left,2.2486535999923944,,,,,2121.6026682000374,2123.1621519000037,0,0.08,0.0,0.4,0.08,0,0.2,0,0.08,2114.9297229000367,2114.9297229000367,2114.9297229000367,2114.9297229000367,2114.9297229000367,2114.9297229000367,2114.9297229000367,2114.9297229000367,2114.9137361100466,6.791630799998529,return,6.64439339999808,,,,,,,,,,,,,,,,,,,,,,,,,,,,,,,,,G2VQ35,train_x,red_square,top_right,2025-09-02_15h09.32.055,HideSeek_v1,2022.2.5,59.95379959223911,
,5,8,2,8,-3,0,46,,train_dim1_1,19,30,,,,2,0,2,0,,,,,,,,,0,0,0,0,0,18,18,18,1,0,1,0,,,,,,,,,,,,,,,,,,,,,,,,,,,,,,,,,,,,,,,,,,,,,,,,,,,,,,,,,,,,,,,,30,,,,,,,,2125.505351800006,2125.505351800006,2125.505351800006,2125.505351800006,2125.505351800006,left,0.44285130000207573,0,0,0,99,0.07999999999999997,0.24,left,0.36381069995695725,,,,,,,,,,,,,,,,,,,,,,,,,,,,,,,,,,,,,,,,,,,,,,,,,,,,,,,,,,,,G2VQ35,train_x,red_square,top_right,2025-09-02_15h09.32.055,HideSeek_v1,2022.2.5,59.95379959223911,
,5,8,2,8,-3,0,46,,train_dim1_1,19,30,,,,2,0,2,0,,,,,,,,,0,0,0,0,0,18,18,18,2,0,2,0,,,,,,,,,,,,,,,,,,,,,,,,,,,,,,,,,,,,,,,,,,,,,,,,,,,,,,,,,,,,,,,,30,,,,,,,,2125.9547186000273,2125.9547186000273,2125.9547186000273,2125.9547186000273,2125.9547186000273,left,0.5080802000011317,0,0,0,99,-2.7755575615628914e-17,0.24,left,0.4355805999948643,,,,,,,,,,,,,,,,,,,,,,,,,,,,,,,,,,,,,,,,,,,,,,,,,,,,,,,,,,,,G2VQ35,train_x,red_square,top_right,2025-09-02_15h09.32.055,HideSeek_v1,2022.2.5,59.95379959223911,
,5,8,2,8,-3,0,46,,train_dim1_1,19,30,,,,2,0,2,0,,,,,,,,,0,0,0,0,0,18,18,18,3,0,3,0,,,,,,,,,,,,,,,,,,,,,,,,,,,,,,,,,,,,,,,,,,,,,,,,,,,,,,,,,,,,,,,,30,,,,,,,,2126.469528699992,2126.469528699992,2126.469528699992,2126.469528699992,2126.469528699992,left,0.5100910000037402,0,0,0,99,-0.08000000000000003,0.24,left,0.43250569998053834,,,,,,,,,,,,,,,,,,,,,,,,,,,,,,,,,,,,,,,,,,,,,,,,,,,,,,,,,,,,G2VQ35,train_x,red_square,top_right,2025-09-02_15h09.32.055,HideSeek_v1,2022.2.5,59.95379959223911,
,5,8,2,8,-3,0,46,,train_dim1_1,19,30,,,,2,0,2,0,,,,,,,,,0,0,0,0,0,18,18,18,4,0,4,0,,,,,,,,,,,,,,,,,,,,,,,,,,,,,,,,,,,,,,,,,,,,,,,,,,,,,,,,,,,,,,,,30,,,,,,,,2126.98642500001,2126.98642500001,2126.98642500001,2126.98642500001,2126.98642500001,left,0.610113300033845,0,0,0,99,-0.16000000000000003,0.24,left,0.5249084000242874,,,,,,,,,,,,,,,,,,,,,,,,,,,,,,,,,,,,,,,,,,,,,,,,,,,,,,,,,,,,G2VQ35,train_x,red_square,top_right,2025-09-02_15h09.32.055,HideSeek_v1,2022.2.5,59.95379959223911,
,5,8,2,8,-3,0,46,,train_dim1_1,19,30,,,,2,0,2,0,,,,,,,,,0,0,0,0,0,18,18,18,5,0,5,0,,,,,,,,,,,,,,,,,,,,,,,,,,,,,,,,,,,,,,,,,,,,,,,,,,,,,,,,,,,,,,,,30,,,,,,,,2127.6049940999947,2127.6049940999947,2127.6049940999947,2127.6049940999947,2127.6049940999947,return,0.9600323000340723,0,0,0,0,-0.16000000000000003,0.24,return,0.8850648000370711,-11,-39,-0.16000000000000003,0.24,,,,,,,,,,,,,,,,,,,,,,,,,,,,,,,,,,,,,,,,,,,,,,,,,,,,,,,,G2VQ35,train_x,red_square,top_right,2025-09-02_15h09.32.055,HideSeek_v1,2022.2.5,59.95379959223911,
,5,6,5,6,0,0,16,,train_dim1_1,20,30,,,,2,0,2,0,,,,,,,,,0,0,0,0,0,19,19,19,0,0,0,0,,,,,,,,,,,,,,,,,,,,,,,,,stimuli/alien_stimuli/16.png,,,,,,,,,,,,,,,,,,,,,,,,,,,,,stimuli/alien_stimuli/46.png,46,5,21,,,,,,,30,,,,,,,,2136.1468610000447,2136.1468610000447,2136.1468610000447,2136.1468610000447,2136.1468610000447,left,2.803939600009471,0,0,0,99,0.15999999999999998,0.08,left,2.704839699959848,,,,,2134.580154800031,2136.1468610000447,0,0.24,0.0,0.24,0.24,0,0.12,0,0.24,2130.14007329999,2130.14007329999,2130.14007329999,2130.14007329999,2130.14007329999,2130.14007329999,2130.14007329999,2130.14007329999,2130.1267809100273,4.555251300043892,return,4.419518499984406,,,,,,,,,,,,,,,,,,,,,,,,,,,,,,,,,G2VQ35,train_x,red_square,top_right,2025-09-02_15h09.32.055,HideSeek_v1,2022.2.5,59.95379959223911,
,5,6,5,6,0,0,16,,train_dim1_1,20,30,,,,2,0,2,0,,,,,,,,,0,0,0,0,0,19,19,19,1,0,1,0,,,,,,,,,,,,,,,,,,,,,,,,,,,,,,,,,,,,,,,,,,,,,,,,,,,,,,,,,,,,,,,,30,,,,,,,,2138.9537984000053,2138.9537984000053,2138.9537984000053,2138.9537984000053,2138.9537984000053,left,0.5405421999748796,0,0,0,99,0.07999999999999997,0.08,left,0.4482268000137992,,,,,,,,,,,,,,,,,,,,,,,,,,,,,,,,,,,,,,,,,,,,,,,,,,,,,,,,,,,,G2VQ35,train_x,red_square,top_right,2025-09-02_15h09.32.055,HideSeek_v1,2022.2.5,59.95379959223911,
,5,6,5,6,0,0,16,,train_dim1_1,20,30,,,,2,0,2,0,,,,,,,,,0,0,0,0,0,19,19,19,2,0,2,0,,,,,,,,,,,,,,,,,,,,,,,,,,,,,,,,,,,,,,,,,,,,,,,,,,,,,,,,,,,,,,,,30,,,,,,,,2139.5016654999927,2139.5016654999927,2139.5016654999927,2139.5016654999927,2139.5016654999927,left,1.0937871999922208,0,0,0,99,-2.7755575615628914e-17,0.08,left,1.0137522000004537,,,,,,,,,,,,,,,,,,,,,,,,,,,,,,,,,,,,,,,,,,,,,,,,,,,,,,,,,,,,G2VQ35,train_x,red_square,top_right,2025-09-02_15h09.32.055,HideSeek_v1,2022.2.5,59.95379959223911,
,5,6,5,6,0,0,16,,train_dim1_1,20,30,,,,2,0,2,0,,,,,,,,,0,0,0,0,0,19,19,19,3,0,3,0,,,,,,,,,,,,,,,,,,,,,,,,,,,,,,,,,,,,,,,,,,,,,,,,,,,,,,,,,,,,,,,,30,,,,,,,,2140.602360400022,2140.602360400022,2140.602360400022,2140.602360400022,2140.602360400022,left,0.576768999977503,0,0,0,99,-0.08000000000000003,0.08,left,0.4996219000313431,,,,,,,,,,,,,,,,,,,,,,,,,,,,,,,,,,,,,,,,,,,,,,,,,,,,,,,,,,,,G2VQ35,train_x,red_square,top_right,2025-09-02_15h09.32.055,HideSeek_v1,2022.2.5,59.95379959223911,
,5,6,5,6,0,0,16,,train_dim1_1,20,30,,,,2,0,2,0,,,,,,,,,0,0,0,0,0,19,19,19,4,0,4,0,,,,,,,,,,,,,,,,,,,,,,,,,,,,,,,,,,,,,,,,,,,,,,,,,,,,,,,,,,,,,,,,30,,,,,,,,2141.186508500017,2141.186508500017,2141.186508500017,2141.186508500017,2141.186508500017,return,3.128652299987152,0,0,0,0,-0.08000000000000003,0.08,return,3.043174899998121,-11,-43,-0.08000000000000003,0.08,,,,,,,,,,,,,,,,,,,,,,,,,,,,,,,,,,,,,,,,,,,,,,,,,,,,,,,,G2VQ35,train_x,red_square,top_right,2025-09-02_15h09.32.055,HideSeek_v1,2022.2.5,59.95379959223911,
,9,7,6,7,-3,0,46,,train_dim1_1,21,30,,,,2,0,2,0,,,,,,,,,0,0,0,0,0,20,20,20,0,0,0,0,,,,,,,,,,,,,,,,,,,,,,,,,stimuli/alien_stimuli/46.png,,,,,,,,,,,,,,,,,,,,,,,,,,,,,stimuli/alien_stimuli/16.png,16,5,22,,,,,,,30,,,,,,,,2153.937265100016,2153.937265100016,2153.937265100016,2153.937265100016,2153.937265100016,left,3.7750587000045925,0,0,0,99,0.48000000000000004,0.16,left,3.680755899986252,,,,,2152.3780239000334,2153.937265100016,0.24,0.08,0.0,0.0,0.08,0.24,0.24,0.24,0.08,2145.8946029000217,2145.8946029000217,2145.8946029000217,2145.8946029000217,2145.8946029000217,2145.8946029000217,2145.8946029000217,2145.8946029000217,2145.872678210045,6.607741300016642,return,6.461929899989627,,,,,,,,,,,,,,,,,,,,,,,,,,,,,,,,,G2VQ35,train_x,red_square,top_right,2025-09-02_15h09.32.055,HideSeek_v1,2022.2.5,59.95379959223911,
,9,7,6,7,-3,0,46,,train_dim1_1,21,30,,,,2,0,2,0,,,,,,,,,0,0,0,0,0,20,20,20,1,0,1,0,,,,,,,,,,,,,,,,,,,,,,,,,,,,,,,,,,,,,,,,,,,,,,,,,,,,,,,,,,,,,,,,30,,,,,,,,2157.7142344000167,2157.7142344000167,2157.7142344000167,2157.7142344000167,2157.7142344000167,return,1.0096748000360094,0,0,0,0,0.48000000000000004,0.16,return,0.9283219000208192,-11,-44,0.48000000000000004,0.16,,,,,,,,,,,,,,,,,,,,,,,,,,,,,,,,,,,,,,,,,,,,,,,,,,,,,,,,G2VQ35,train_x,red_square,top_right,2025-09-02_15h09.32.055,HideSeek_v1,2022.2.5,59.95379959223911,
,6,5,5,5,-1,0,26,,train_dim1_1,22,30,,,,2,0,2,0,,,,,,,,,0,0,0,0,0,21,21,21,0,0,0,0,,,,,,,,,,,,,,,,,,,,,,,,,stimuli/alien_stimuli/26.png,,,,,,,,,,,,,,,,,,,,,,,,,,,,,stimuli/alien_stimuli/46.png,46,9,23,,,,,,,30,,,,,,,,2164.983672500006,2164.983672500006,2164.983672500006,2164.983672500006,2164.983672500006,left,2.507446700008586,0,0,0,99,0.24,0,left,2.4120828000013717,,,,,2163.4206170000252,2164.983672500006,0.32,0.16,0.0,0.24,0.16,0.32,0.44000000000000006,0.32,0.16,2160.3006287000026,2160.3006287000026,2160.3006287000026,2160.3006287000026,2160.3006287000026,2160.3006287000026,2160.3006287000026,2160.3006287000026,2160.2847074100455,3.2381628999719396,return,3.0896080000093207,,,,,,,,,,,,,,,,,,,,,,,,,,,,,,,,,G2VQ35,train_x,red_square,top_right,2025-09-02_15h09.32.055,HideSeek_v1,2022.2.5,59.95379959223911,
,6,5,5,5,-1,0,26,,train_dim1_1,22,30,,,,2,0,2,0,,,,,,,,,0,0,0,0,0,21,21,21,1,0,1,0,,,,,,,,,,,,,,,,,,,,,,,,,,,,,,,,,,,,,,,,,,,,,,,,,,,,,,,,,,,,,,,,30,,,,,,,,2167.4918544000247,2167.4918544000247,2167.4918544000247,2167.4918544000247,2167.4918544000247,left,1.210356600000523,0,0,0,99,0.15999999999999998,0,left,1.1212523999856785,,,,,,,,,,,,,,,,,,,,,,,,,,,,,,,,,,,,,,,,,,,,,,,,,,,,,,,,,,,,G2VQ35,train_x,red_square,top_right,2025-09-02_15h09.32.055,HideSeek_v1,2022.2.5,59.95379959223911,
,6,5,5,5,-1,0,26,,train_dim1_1,22,30,,,,2,0,2,0,,,,,,,,,0,0,0,0,0,21,21,21,2,0,2,0,,,,,,,,,,,,,,,,,,,,,,,,,,,,,,,,,,,,,,,,,,,,,,,,,,,,,,,,,,,,,,,,30,,,,,,,,2168.709139899991,2168.709139899991,2168.709139899991,2168.709139899991,2168.709139899991,return,1.2605882000061683,0,1,0,0,0.15999999999999998,0,return,1.171063099987805,-11,-46,0.15999999999999998,0,,,,,,,,,,,,,,,,,,,,,,,,,,,,,,,,,,,,,,,,,,,,,,,,,,,,,,,,G2VQ35,train_x,red_square,top_right,2025-09-02_15h09.32.055,HideSeek_v1,2022.2.5,59.95379959223911,
,7,6,2,6,-5,0,66,,train_dim1_1,23,30,,,,2,0,2,0,,,,,,,,,0,0,0,0,0,22,22,22,0,0,0,0,,,,,,,,,,,,,,,,,,,,,,,,,stimuli/alien_stimuli/66.png,,,,,,,,,,,,,,,,,,,,,,,,,,,,,stimuli/alien_stimuli/26.png,26,6,24,,,,,,,30,,,,,,,,2177.8930552999955,2177.8930552999955,2177.8930552999955,2177.8930552999955,2177.8930552999955,left,2.3545647999853827,0,1,0,99,0.32,0.08,left,2.264716599951498,,,,,2176.331328900007,2177.8930552999955,0.24,0,0.0,0.08,0.0,0.24,0.28,0.24,0,2171.5545965000056,2171.5545965000056,2171.5545965000056,2171.5545965000056,2171.5545965000056,2171.5545965000056,2171.5545965000056,2171.5545965000056,2171.543989940034,4.906355699989945,return,4.751368500001263,,,,,,,,,,,,,,,,,,,,,,,,,,,,,,,,,G2VQ35,train_x,red_square,top_right,2025-09-02_15h09.32.055,HideSeek_v1,2022.2.5,59.95379959223911,
,7,6,2,6,-5,0,66,,train_dim1_1,23,30,,,,2,0,2,0,,,,,,,,,0,0,0,0,0,22,22,22,1,0,1,0,,,,,,,,,,,,,,,,,,,,,,,,,,,,,,,,,,,,,,,,,,,,,,,,,,,,,,,,,,,,,,,,30,,,,,,,,2180.2483514000196,2180.2483514000196,2180.2483514000196,2180.2483514000196,2180.2483514000196,left,0.8429861000040546,0,1,0,99,0.24,0.08,left,0.7550260000280105,,,,,,,,,,,,,,,,,,,,,,,,,,,,,,,,,,,,,,,,,,,,,,,,,,,,,,,,,,,,G2VQ35,train_x,red_square,top_right,2025-09-02_15h09.32.055,HideSeek_v1,2022.2.5,59.95379959223911,
,7,6,2,6,-5,0,66,,train_dim1_1,23,30,,,,2,0,2,0,,,,,,,,,0,0,0,0,0,22,22,22,2,0,2,0,,,,,,,,,,,,,,,,,,,,,,,,,,,,,,,,,,,,,,,,,,,,,,,,,,,,,,,,,,,,,,,,30,,,,,,,,2181.09998910001,2181.09998910001,2181.09998910001,2181.09998910001,2181.09998910001,left,0.8430979999830015,0,1,0,99,0.15999999999999998,0.08,left,0.7559843000490218,,,,,,,,,,,,,,,,,,,,,,,,,,,,,,,,,,,,,,,,,,,,,,,,,,,,,,,,,,,,G2VQ35,train_x,red_square,top_right,2025-09-02_15h09.32.055,HideSeek_v1,2022.2.5,59.95379959223911,
,7,6,2,6,-5,0,66,,train_dim1_1,23,30,,,,2,0,2,0,,,,,,,,,0,0,0,0,0,22,22,22,3,0,3,0,,,,,,,,,,,,,,,,,,,,,,,,,,,,,,,,,,,,,,,,,,,,,,,,,,,,,,,,,,,,,,,,30,,,,,,,,2181.950718100008,2181.950718100008,2181.950718100008,2181.950718100008,2181.950718100008,return,2.27770530001726,0,0,0,0,0.15999999999999998,0.08,return,2.193600999948103,-11,-49,0.15999999999999998,0.08,,,,,,,,,,,,,,,,,,,,,,,,,,,,,,,,,,,,,,,,,,,,,,,,,,,,,,,,G2VQ35,train_x,red_square,top_right,2025-09-02_15h09.32.055,HideSeek_v1,2022.2.5,59.95379959223911,
,9,9,5,9,-4,0,56,,train_dim1_1,24,30,,,,2,0,2,0,,,,,,,,,0,0,0,0,0,23,23,23,0,0,0,0,,,,,,,,,,,,,,,,,,,,,,,,,stimuli/alien_stimuli/56.png,,,,,,,,,,,,,,,,,,,,,,,,,,,,,stimuli/alien_stimuli/66.png,66,7,25,,,,,,,30,,,,,,,,2190.522408400022,2190.522408400022,2190.522408400022,2190.522408400022,2190.522408400022,left,1.052402599947527,0,0,0,99,0.48000000000000004,0.32,left,0.9668497999664396,,,,,2188.958537600003,2190.522408400022,0,0.08,0.0,0.4,0.08,0,0.2,0,0.08,2185.805949200003,2185.805949200003,2185.805949200003,2185.805949200003,2185.805949200003,2185.805949200003,2185.805949200003,2185.805949200003,2185.789148410043,3.2715741000138223,return,3.1262303999974392,,,,,,,,,,,,,,,,,,,,,,,,,,,,,,,,,G2VQ35,train_x,red_square,top_right,2025-09-02_15h09.32.055,HideSeek_v1,2022.2.5,59.95379959223911,
,9,9,5,9,-4,0,56,,train_dim1_1,24,30,,,,2,0,2,0,,,,,,,,,0,0,0,0,0,23,23,23,1,0,1,0,,,,,,,,,,,,,,,,,,,,,,,,,,,,,,,,,,,,,,,,,,,,,,,,,,,,,,,,,,,,,,,,30,,,,,,,,2191.5795050000306,2191.5795050000306,2191.5795050000306,2191.5795050000306,2191.5795050000306,left,0.8568420000374317,0,0,0,99,0.4,0.32,left,0.7662832000060007,,,,,,,,,,,,,,,,,,,,,,,,,,,,,,,,,,,,,,,,,,,,,,,,,,,,,,,,,,,,G2VQ35,train_x,red_square,top_right,2025-09-02_15h09.32.055,HideSeek_v1,2022.2.5,59.95379959223911,
,9,9,5,9,-4,0,56,,train_dim1_1,24,30,,,,2,0,2,0,,,,,,,,,0,0,0,0,0,23,23,23,2,0,2,0,,,,,,,,,,,,,,,,,,,,,,,,,,,,,,,,,,,,,,,,,,,,,,,,,,,,,,,,,,,,,,,,30,,,,,,,,2192.4422042000224,2192.4422042000224,2192.4422042000224,2192.4422042000224,2192.4422042000224,left,0.6435954999760725,0,0,0,99,0.32,0.32,left,0.569293899985496,,,,,,,,,,,,,,,,,,,,,,,,,,,,,,,,,,,,,,,,,,,,,,,,,,,,,,,,,,,,G2VQ35,train_x,red_square,top_right,2025-09-02_15h09.32.055,HideSeek_v1,2022.2.5,59.95379959223911,
,9,9,5,9,-4,0,56,,train_dim1_1,24,30,,,,2,0,2,0,,,,,,,,,0,0,0,0,0,23,23,23,3,0,3,0,,,,,,,,,,,,,,,,,,,,,,,,,,,,,,,,,,,,,,,,,,,,,,,,,,,,,,,,,,,,,,,,30,,,,,,,,2193.094599300006,2193.094599300006,2193.094599300006,2193.094599300006,2193.094599300006,left,0.7598597999894992,0,0,0,99,0.24,0.32,left,0.6722702999832109,,,,,,,,,,,,,,,,,,,,,,,,,,,,,,,,,,,,,,,,,,,,,,,,,,,,,,,,,,,,G2VQ35,train_x,red_square,top_right,2025-09-02_15h09.32.055,HideSeek_v1,2022.2.5,59.95379959223911,
,9,9,5,9,-4,0,56,,train_dim1_1,24,30,,,,2,0,2,0,,,,,,,,,0,0,0,0,0,23,23,23,4,0,4,0,,,,,,,,,,,,,,,,,,,,,,,,,,,,,,,,,,,,,,,,,,,,,,,,,,,,,,,,,,,,,,,,30,,,,,,,,2193.8614133000374,2193.8614133000374,2193.8614133000374,2193.8614133000374,2193.8614133000374,return,1.2765120000112802,1,0,0,1,0.24,0.32,return,1.1974767999490723,-11,-53,0.24,0.32,,,,,,,,,,,,,,,,,,,,,,,,,,,,,,,,,,,,,,,,,,,,,,,,,,,,,,,,G2VQ35,train_x,red_square,top_right,2025-09-02_15h09.32.055,HideSeek_v1,2022.2.5,59.95379959223911,
,8,5,8,5,0,0,16,,train_dim1_1,25,30,,,,2,0,2,0,,,,,,,,,0,0,0,0,0,24,24,24,0,0,0,0,,,,,,,,,,,,,,,,,,,,,,,,,stimuli/alien_stimuli/16.png,,,,,,,,,,,,,,,,,,,,,,,,,,,,,stimuli/alien_stimuli/56.png,56,9,26,,,,,,,30,,,,,,,,2201.196148500021,2201.196148500021,2201.196148500021,2201.196148500021,2201.196148500021,left,1.1067568000289612,1,0,0,99,0.39999999999999997,0,left,1.016981599968858,,,,,2199.633782299992,2201.196148500021,0.24,0.32,0.0,0.32,0.32,0.24,0.4,0.24,0.32,2196.722652700031,2196.722652700031,2196.722652700031,2196.722652700031,2196.722652700031,2196.722652700031,2196.722652700031,2196.722652700031,2196.7148215400634,3.038090599991847,return,2.8843393999850377,,,,,,,,,,,,,,,,,,,,,,,,,,,,,,,,,G2VQ35,train_x,red_square,top_right,2025-09-02_15h09.32.055,HideSeek_v1,2022.2.5,59.95379959223911,
,8,5,8,5,0,0,16,,train_dim1_1,25,30,,,,2,0,2,0,,,,,,,,,0,0,0,0,0,24,24,24,1,0,1,0,,,,,,,,,,,,,,,,,,,,,,,,,,,,,,,,,,,,,,,,,,,,,,,,,,,,,,,,,,,,,,,,30,,,,,,,,2202.3036618999904,2202.3036618999904,2202.3036618999904,2202.3036618999904,2202.3036618999904,left,0.6263974999892525,1,0,0,99,0.31999999999999995,0,left,0.5374775999807753,,,,,,,,,,,,,,,,,,,,,,,,,,,,,,,,,,,,,,,,,,,,,,,,,,,,,,,,,,,,G2VQ35,train_x,red_square,top_right,2025-09-02_15h09.32.055,HideSeek_v1,2022.2.5,59.95379959223911,
,8,5,8,5,0,0,16,,train_dim1_1,25,30,,,,2,0,2,0,,,,,,,,,0,0,0,0,0,24,24,24,2,0,2,0,,,,,,,,,,,,,,,,,,,,,,,,,,,,,,,,,,,,,,,,,,,,,,,,,,,,,,,,,,,,,,,,30,,,,,,,,2202.9377907000016,2202.9377907000016,2202.9377907000016,2202.9377907000016,2202.9377907000016,left,0.6432591000339016,1,0,0,99,0.23999999999999994,0,left,0.5532771999714896,,,,,,,,,,,,,,,,,,,,,,,,,,,,,,,,,,,,,,,,,,,,,,,,,,,,,,,,,,,,G2VQ35,train_x,red_square,top_right,2025-09-02_15h09.32.055,HideSeek_v1,2022.2.5,59.95379959223911,
,8,5,8,5,0,0,16,,train_dim1_1,25,30,,,,2,0,2,0,,,,,,,,,0,0,0,0,0,24,24,24,3,0,3,0,,,,,,,,,,,,,,,,,,,,,,,,,,,,,,,,,,,,,,,,,,,,,,,,,,,,,,,,,,,,,,,,30,,,,,,,,2203.588228000037,2203.588228000037,2203.588228000037,2203.588228000037,2203.588228000037,left,0.6101877000182867,1,0,0,99,0.15999999999999992,0,left,0.5312564999912865,,,,,,,,,,,,,,,,,,,,,,,,,,,,,,,,,,,,,,,,,,,,,,,,,,,,,,,,,,,,G2VQ35,train_x,red_square,top_right,2025-09-02_15h09.32.055,HideSeek_v1,2022.2.5,59.95379959223911,
,8,5,8,5,0,0,16,,train_dim1_1,25,30,,,,2,0,2,0,,,,,,,,,0,0,0,0,0,24,24,24,4,0,4,0,,,,,,,,,,,,,,,,,,,,,,,,,,,,,,,,,,,,,,,,,,,,,,,,,,,,,,,,,,,,,,,,30,,,,,,,,2204.2050914000138,2204.2050914000138,2204.2050914000138,2204.2050914000138,2204.2050914000138,left,0.6432187000173144,1,0,0,99,0.07999999999999992,0,left,0.5644051000126638,,,,,,,,,,,,,,,,,,,,,,,,,,,,,,,,,,,,,,,,,,,,,,,,,,,,,,,,,,,,G2VQ35,train_x,red_square,top_right,2025-09-02_15h09.32.055,HideSeek_v1,2022.2.5,59.95379959223911,
,8,5,8,5,0,0,16,,train_dim1_1,25,30,,,,2,0,2,0,,,,,,,,,0,0,0,0,0,24,24,24,5,0,5,0,,,,,,,,,,,,,,,,,,,,,,,,,,,,,,,,,,,,,,,,,,,,,,,,,,,,,,,,,,,,,,,,30,,,,,,,,2204.8563226000406,2204.8563226000406,2204.8563226000406,2204.8563226000406,2204.8563226000406,return,1.0434119999990799,1,0,0,0,0.07999999999999992,0,return,0.9529013999854214,-11,-58,0.07999999999999992,0,,,,,,,,,,,,,,,,,,,,,,,,,,,,,,,,,,,,,,,,,,,,,,,,,,,,,,,,G2VQ35,train_x,red_square,top_right,2025-09-02_15h09.32.055,HideSeek_v1,2022.2.5,59.95379959223911,
,6,6,1,6,-5,0,66,,train_dim1_1,26,30,,,,2,0,2,0,,,,,,,,,0,0,0,0,0,25,25,25,0,0,0,0,,,,,,,,,,,,,,,,,,,,,,,,,stimuli/alien_stimuli/66.png,,,,,,,,,,,,,,,,,,,,,,,,,,,,,stimuli/alien_stimuli/16.png,16,8,27,,,,,,,30,,,,,,,,2216.6089856000035,2216.6089856000035,2216.6089856000035,2216.6089856000035,2216.6089856000035,left,2.2539087000186555,1,0,0,99,0.24,0.08,left,2.1694561000331305,,,,,2215.046756500029,2216.6089856000035,0.48,0,0.0,0.0,0.0,0.48,0.48,0.48,0,2207.4652074000333,2207.4652074000333,2207.4652074000333,2207.4652074000333,2207.4652074000333,2207.4652074000333,2207.4652074000333,2207.4652074000333,2207.4571701100385,7.691923599981237,return,7.557756399968639,,,,,,,,,,,,,,,,,,,,,,,,,,,,,,,,,G2VQ35,train_x,red_square,top_right,2025-09-02_15h09.32.055,HideSeek_v1,2022.2.5,59.95379959223911,
,6,6,1,6,-5,0,66,,train_dim1_1,26,30,,,,2,0,2,0,,,,,,,,,0,0,0,0,0,25,25,25,1,0,1,0,,,,,,,,,,,,,,,,,,,,,,,,,,,,,,,,,,,,,,,,,,,,,,,,,,,,,,,,,,,,,,,,30,,,,,,,,2218.864170500019,2218.864170500019,2218.864170500019,2218.864170500019,2218.864170500019,left,0.6597887999960221,1,0,0,99,0.15999999999999998,0.08,left,0.5848948000348173,,,,,,,,,,,,,,,,,,,,,,,,,,,,,,,,,,,,,,,,,,,,,,,,,,,,,,,,,,,,G2VQ35,train_x,red_square,top_right,2025-09-02_15h09.32.055,HideSeek_v1,2022.2.5,59.95379959223911,
,6,6,1,6,-5,0,66,,train_dim1_1,26,30,,,,2,0,2,0,,,,,,,,,0,0,0,0,0,25,25,25,2,0,2,0,,,,,,,,,,,,,,,,,,,,,,,,,,,,,,,,,,,,,,,,,,,,,,,,,,,,,,,,,,,,,,,,30,,,,,,,,2219.532630300033,2219.532630300033,2219.532630300033,2219.532630300033,2219.532630300033,left,0.5745421000174247,1,0,0,99,0.07999999999999997,0.08,left,0.5006644999957643,,,,,,,,,,,,,,,,,,,,,,,,,,,,,,,,,,,,,,,,,,,,,,,,,,,,,,,,,,,,G2VQ35,train_x,red_square,top_right,2025-09-02_15h09.32.055,HideSeek_v1,2022.2.5,59.95379959223911,
,6,6,1,6,-5,0,66,,train_dim1_1,26,30,,,,2,0,2,0,,,,,,,,,0,0,0,0,0,25,25,25,3,0,3,0,,,,,,,,,,,,,,,,,,,,,,,,,,,,,,,,,,,,,,,,,,,,,,,,,,,,,,,,,,,,,,,,30,,,,,,,,2220.1169483000413,2220.1169483000413,2220.1169483000413,2220.1169483000413,2220.1169483000413,left,0.5907756999949925,1,0,0,99,-2.7755575615628914e-17,0.08,left,0.5138996000168845,,,,,,,,,,,,,,,,,,,,,,,,,,,,,,,,,,,,,,,,,,,,,,,,,,,,,,,,,,,,G2VQ35,train_x,red_square,top_right,2025-09-02_15h09.32.055,HideSeek_v1,2022.2.5,59.95379959223911,
,6,6,1,6,-5,0,66,,train_dim1_1,26,30,,,,2,0,2,0,,,,,,,,,0,0,0,0,0,25,25,25,4,0,4,0,,,,,,,,,,,,,,,,,,,,,,,,,,,,,,,,,,,,,,,,,,,,,,,,,,,,,,,,,,,,,,,,30,,,,,,,,2220.7155343000195,2220.7155343000195,2220.7155343000195,2220.7155343000195,2220.7155343000195,return,0.8266197000048123,1,1,0,0,-2.7755575615628914e-17,0.08,return,0.737834399973508,-11,-62,-2.7755575615628914e-17,0.08,,,,,,,,,,,,,,,,,,,,,,,,,,,,,,,,,,,,,,,,,,,,,,,,,,,,,,,,G2VQ35,train_x,red_square,top_right,2025-09-02_15h09.32.055,HideSeek_v1,2022.2.5,59.95379959223911,
,5,6,2,6,-3,0,46,,train_dim1_1,27,30,,,,2,0,2,0,,,,,,,,,0,0,0,0,0,26,26,26,0,0,0,0,,,,,,,,,,,,,,,,,,,,,,,,,stimuli/alien_stimuli/46.png,,,,,,,,,,,,,,,,,,,,,,,,,,,,,stimuli/alien_stimuli/66.png,66,6,28,,,,,,,30,,,,,,,,2227.848625399987,2227.848625399987,2227.848625399987,2227.848625399987,2227.848625399987,left,2.673110200033989,1,1,0,99,0.15999999999999998,0.08,left,2.5902434999588877,,,,,2226.2895805000444,2227.848625399987,-0.08,0.08,0.0,0.4,0.08,-0.08,0.12,-0.08,0.08,2223.1257397000445,2223.1257397000445,2223.1257397000445,2223.1257397000445,2223.1257397000445,2223.1257397000445,2223.1257397000445,2223.1257397000445,2223.1035979100443,3.288210699975025,return,3.1420089000021107,,,,,,,,,,,,,,,,,,,,,,,,,,,,,,,,,G2VQ35,train_x,red_square,top_right,2025-09-02_15h09.32.055,HideSeek_v1,2022.2.5,59.95379959223911,
,5,6,2,6,-3,0,46,,train_dim1_1,27,30,,,,2,0,2,0,,,,,,,,,0,0,0,0,0,26,26,26,1,0,1,0,,,,,,,,,,,,,,,,,,,,,,,,,,,,,,,,,,,,,,,,,,,,,,,,,,,,,,,,,,,,,,,,30,,,,,,,,2230.522953000036,2230.522953000036,2230.522953000036,2230.522953000036,2230.522953000036,left,0.49302920000627637,1,1,0,99,0.07999999999999997,0.08,left,0.41671439999481663,,,,,,,,,,,,,,,,,,,,,,,,,,,,,,,,,,,,,,,,,,,,,,,,,,,,,,,,,,,,G2VQ35,train_x,red_square,top_right,2025-09-02_15h09.32.055,HideSeek_v1,2022.2.5,59.95379959223911,
,5,6,2,6,-3,0,46,,train_dim1_1,27,30,,,,2,0,2,0,,,,,,,,,0,0,0,0,0,26,26,26,2,0,2,0,,,,,,,,,,,,,,,,,,,,,,,,,,,,,,,,,,,,,,,,,,,,,,,,,,,,,,,,,,,,,,,,30,,,,,,,,2231.0271333000273,2231.0271333000273,2231.0271333000273,2231.0271333000273,2231.0271333000273,left,0.6236466999980621,1,1,0,99,-2.7755575615628914e-17,0.08,left,0.5347221999545582,,,,,,,,,,,,,,,,,,,,,,,,,,,,,,,,,,,,,,,,,,,,,,,,,,,,,,,,,,,,G2VQ35,train_x,red_square,top_right,2025-09-02_15h09.32.055,HideSeek_v1,2022.2.5,59.95379959223911,
,5,6,2,6,-3,0,46,,train_dim1_1,27,30,,,,2,0,2,0,,,,,,,,,0,0,0,0,0,26,26,26,3,0,3,0,,,,,,,,,,,,,,,,,,,,,,,,,,,,,,,,,,,,,,,,,,,,,,,,,,,,,,,,,,,,,,,,30,,,,,,,,2231.657704500016,2231.657704500016,2231.657704500016,2231.657704500016,2231.657704500016,return,1.4438222000026144,2,0,0,1,-2.7755575615628914e-17,0.08,return,1.3715211999951862,-11,-65,-2.7755575615628914e-17,0.08,,,,,,,,,,,,,,,,,,,,,,,,,,,,,,,,,,,,,,,,,,,,,,,,,,,,,,,,G2VQ35,train_x,red_square,top_right,2025-09-02_15h09.32.055,HideSeek_v1,2022.2.5,59.95379959223911,
,8,6,7,6,-1,0,26,,train_dim1_1,28,30,,,,2,0,2,0,,,,,,,,,0,0,0,0,0,27,27,27,0,0,0,0,,,,,,,,,,,,,,,,,,,,,,,,,stimuli/alien_stimuli/26.png,,,,,,,,,,,,,,,,,,,,,,,,,,,,,stimuli/alien_stimuli/46.png,46,5,29,,,,,,,30,,,,,,,,2245.0018558000447,2245.0018558000447,2245.0018558000447,2245.0018558000447,2245.0018558000447,left,6.010275699954946,2,0,0,99,0.39999999999999997,0.08,left,5.903773900005035,,,,,2243.4201725000166,2245.0018558000447,0,0.08,0.0,0.24,0.08,0,0.12,0,0.08,2234.6840087000164,2234.6840087000164,2234.6840087000164,2234.6840087000164,2234.6840087000164,2234.6840087000164,2234.6840087000164,2234.6840087000164,2234.663064010051,8.85941749997437,return,8.707001900009345,,,,,,,,,,,,,,,,,,,,,,,,,,,,,,,,,G2VQ35,train_x,red_square,top_right,2025-09-02_15h09.32.055,HideSeek_v1,2022.2.5,59.95379959223911,
,8,6,7,6,-1,0,26,,train_dim1_1,28,30,,,,2,0,2,0,,,,,,,,,0,0,0,0,0,27,27,27,1,0,1,0,,,,,,,,,,,,,,,,,,,,,,,,,,,,,,,,,,,,,,,,,,,,,,,,,,,,,,,,,,,,,,,,30,,,,,,,,2250.9952466000104,2250.9952466000104,2250.9952466000104,2250.9952466000104,2250.9952466000104,left,0.7763467999757268,2,0,0,99,0.31999999999999995,0.08,left,0.6948637000168674,,,,,,,,,,,,,,,,,,,,,,,,,,,,,,,,,,,,,,,,,,,,,,,,,,,,,,,,,,,,G2VQ35,train_x,red_square,top_right,2025-09-02_15h09.32.055,HideSeek_v1,2022.2.5,59.95379959223911,
,8,6,7,6,-1,0,26,,train_dim1_1,28,30,,,,2,0,2,0,,,,,,,,,0,0,0,0,0,27,27,27,2,0,2,0,,,,,,,,,,,,,,,,,,,,,,,,,,,,,,,,,,,,,,,,,,,,,,,,,,,,,,,,,,,,,,,,30,,,,,,,,2251.77775150002,2251.77775150002,2251.77775150002,2251.77775150002,2251.77775150002,return,0.8104933999711648,2,1,0,0,0.31999999999999995,0.08,return,0.7211401999811642,-11,-67,0.31999999999999995,0.08,,,,,,,,,,,,,,,,,,,,,,,,,,,,,,,,,,,,,,,,,,,,,,,,,,,,,,,,G2VQ35,train_x,red_square,top_right,2025-09-02_15h09.32.055,HideSeek_v1,2022.2.5,59.95379959223911,
,9,5,5,5,-4,0,56,,train_dim1_1,29,30,,,,2,0,2,0,,,,,,,,,0,0,0,0,0,28,28,28,0,0,0,0,,,,,,,,,,,,,,,,,,,,,,,,,stimuli/alien_stimuli/56.png,,,,,,,,,,,,,,,,,,,,,,,,,,,,,stimuli/alien_stimuli/26.png,26,8,30,,,,,,,30,,,,,,,,2258.444362999988,2258.444362999988,2258.444362999988,2258.444362999988,2258.444362999988,right,3.0884357999893837,2,1,0,99,0.64,0,right,3.008478700008709,,,,,2256.881476700015,2258.444362999988,0.4,0.08,0.0,0.08,0.08,0.4,0.44,0.4,0.08,2254.154077000043,2254.154077000043,2254.154077000043,2254.154077000043,2254.154077000043,2254.154077000043,2254.154077000043,2254.154077000043,2254.146051010076,2.837751200015191,return,2.695420900010504,,,,,,,,,,,,,,,,,,,,,,,,,,,,,,,,,G2VQ35,train_x,red_square,top_right,2025-09-02_15h09.32.055,HideSeek_v1,2022.2.5,59.95379959223911,
,9,5,5,5,-4,0,56,,train_dim1_1,29,30,,,,2,0,2,0,,,,,,,,,0,0,0,0,0,28,28,28,1,0,1,0,,,,,,,,,,,,,,,,,,,,,,,,,,,,,,,,,,,,,,,,,,,,,,,,,,,,,,,,,,,,,,,,30,,,,,,,,2261.536250600009,2261.536250600009,2261.536250600009,2261.536250600009,2261.536250600009,left,1.2263403999968432,2,1,0,99,0.56,0,left,1.1372254000161774,,,,,,,,,,,,,,,,,,,,,,,,,,,,,,,,,,,,,,,,,,,,,,,,,,,,,,,,,,,,G2VQ35,train_x,red_square,top_right,2025-09-02_15h09.32.055,HideSeek_v1,2022.2.5,59.95379959223911,
,9,5,5,5,-4,0,56,,train_dim1_1,29,30,,,,2,0,2,0,,,,,,,,,0,0,0,0,0,28,28,28,2,0,2,0,,,,,,,,,,,,,,,,,,,,,,,,,,,,,,,,,,,,,,,,,,,,,,,,,,,,,,,,,,,,,,,,30,,,,,,,,2262.7696671999875,2262.7696671999875,2262.7696671999875,2262.7696671999875,2262.7696671999875,return,0.4932210000115447,2,0,0,0,0.56,0,return,0.4090740999672562,-11,-67,0.56,0,,,,,,,,,,,,,,,,,,,,,,,,,,,,,,,,,,,,,,,,,,,,,,,,,,,,,,,,G2VQ35,train_x,red_square,top_right,2025-09-02_15h09.32.055,HideSeek_v1,2022.2.5,59.95379959223911,
,7,7,7,7,0,0,16,,train_dim1_1,30,30,,,,2,0,2,0,,,,,,,,,0,0,0,0,0,29,29,29,0,0,0,0,,,,,,,,,,,,,,,,,,,,,,,,,stimuli/alien_stimuli/16.png,,,,,,,,,,,,,,,,,,,,,,,,,,,,,stimuli/alien_stimuli/56.png,56,9,31,,,,,,,30,,,,,,,,2276.8593125999905,2276.8593125999905,2276.8593125999905,2276.8593125999905,2276.8593125999905,right,7.092701399989892,2,0,0,99,0.48000000000000004,0.16,right,6.990342399978545,,,,,2275.280091900029,2276.8593125999905,0.24,0,0.0,0.32,0.0,0.24,0.4,0.24,0,2264.838960800029,2264.838960800029,2264.838960800029,2264.838960800029,2264.838960800029,2264.838960800029,2264.838960800029,2264.838960800029,2264.8213026100593,10.561334599973634,return,10.418444200011436,,,,,,,,,,,,,,,,,,,,,,,,,,,,,,,,,G2VQ35,train_x,red_square,top_right,2025-09-02_15h09.32.055,HideSeek_v1,2022.2.5,59.95379959223911,
,7,7,7,7,0,0,16,,train_dim1_1,30,30,,,,2,0,2,0,,,,,,,,,0,0,0,0,0,29,29,29,1,0,1,0,,,,,,,,,,,,,,,,,,,,,,,,,,,,,,,,,,,,,,,,,,,,,,,,,,,,,,,,,,,,,,,,30,,,,,,,,2283.9393671000144,2283.9393671000144,2283.9393671000144,2283.9393671000144,2283.9393671000144,left,0.876615299959667,2,0,0,99,0.4,0.16,left,0.7935269000008702,,,,,,,,,,,,,,,,,,,,,,,,,,,,,,,,,,,,,,,,,,,,,,,,,,,,,,,,,,,,G2VQ35,train_x,red_square,top_right,2025-09-02_15h09.32.055,HideSeek_v1,2022.2.5,59.95379959223911,
,7,7,7,7,0,0,16,,train_dim1_1,30,30,,,,2,0,2,0,,,,,,,,,0,0,0,0,0,29,29,29,2,0,2,0,,,,,,,,,,,,,,,,,,,,,,,,,,,,,,,,,,,,,,,,,,,,,,,,,,,,,,,,,,,,,,,,30,,,,,,,,2284.8220182000077,2284.8220182000077,2284.8220182000077,2284.8220182000077,2284.8220182000077,return,0.8269511999678798,3,0,0,1,0.4,0.16,return,0.7416857000207528,-11,-67,0.4,0.16,,,,,,,,,,,,,,,,,,,,,,,,,,,,,,,,,,,,,,,,,,,,,,,,,,,,,,,,G2VQ35,train_x,red_square,top_right,2025-09-02_15h09.32.055,HideSeek_v1,2022.2.5,59.95379959223911,
,,,,,,,,,,,30,,,,2,0,2,0,,,,,,,,,,,,,,,,,,,,,,,,,,,,,,,,,,,,,,,,,,,,,,,,,,,,,,,,,,,,,,,,,,,,,,,,,,stimuli/alien_stimuli/16.png,16,7,32,21,0.7,0.125,1,1,1,30,0,conditions/schedules/train_x_first/red_square_00/top_right/inputTrain_2.1.xlsx,99,1,2,1,0,,,,,,,,,,,1,,,,,,,,,2295.4967486000387,2297.045150400023,0.4,0.16,0.0,0.0,0.16,0.4,0.4,0.4,0.16,2287.2269281999907,2287.2269281999907,2287.2269281999907,2287.2269281999907,2287.2269281999907,2287.2269281999907,2287.2269281999907,2287.2269281999907,2287.206506010046,8.393042300012894,return,8.25112839997746,0,0.9,0,1,3,,,,,,,,,,,,,,,,,,,,,,,,,,,,G2VQ35,train_x,red_square,top_right,2025-09-02_15h09.32.055,HideSeek_v1,2022.2.5,59.95379959223911,
,,,,,,,,,,,,,,,3,0,3,0,0,0,0,0,,,,,,,,,,,,,,,,,,,,,,,,,,,,,,,conditions/schedules/train_x_first/red_square_00/top_right/instructions/Slide17.png,conditions/schedules/train_x_first/red_square_00/top_right/instructions/Audio17.wav,2297.045150400023,2297.0481793200365,17,"[7.456960599985905, 18.176723500015214, 16.800790200009942, 19.906555199995637, 5.705415700038429, 5.163114199996926, 6.132319100026507, 12.173413200012874, 6.640419700008351, 6.968610499985516, 10.619782199966721, 12.838959100015927, 17.285478800011333, 13.38378949998878, 30.17109120002715, 23.77503889997024, 42.63609829999041]","[7.456970900006127, 0.014024500036612153, 0.014657199964858592, 0.049648399988655, 0.04788849997567013, 0.03271380002843216, 0.07969240000238642, 0.05128409998724237, 0.09611899999435991, 0.04650439997203648, 0.00021359999664127827, 12.838968300027773, 0.013978299975860864, 13.383800900017377, 0.014314599975477904, 23.77504769997904, 42.63610589999007]",0,,,,,,,,,,,,,,,,,,,,,,,,,,,,,,,,,,,,,,,,,,,,,,,,,,,,,,,,,,,,,,,,,,,,,,,,,,,,,,,,,,,,,,,,,,,,,,,,,,,,,,,,,,,,,,,,,,,,,,,,,,,,G2VQ35,train_x,red_square,top_right,2025-09-02_15h09.32.055,HideSeek_v1,2022.2.5,59.95379959223911,
,,,,,,,,,,,,,,,3,0,3,0,1,0,1,0,,,,,,,,,,,,,,,,,,,,,,,,,,,,,,,conditions/schedules/train_x_first/red_square_00/top_right/instructions/Slide18.png,conditions/schedules/train_x_first/red_square_00/top_right/instructions/Audio18.wav,2339.75496640004,2339.750705750048,18,"[7.456960599985905, 18.176723500015214, 16.800790200009942, 19.906555199995637, 5.705415700038429, 5.163114199996926, 6.132319100026507, 12.173413200012874, 6.640419700008351, 6.968610499985516, 10.619782199966721, 12.838959100015927, 17.285478800011333, 13.38378949998878, 30.17109120002715, 23.77503889997024, 42.63609829999041, 7.0661158000002615]","[7.456970900006127, 0.014024500036612153, 0.014657199964858592, 0.049648399988655, 0.04788849997567013, 0.03271380002843216, 0.07969240000238642, 0.05128409998724237, 0.09611899999435991, 0.04650439997203648, 0.00021359999664127827, 12.838968300027773, 0.013978299975860864, 13.383800900017377, 0.014314599975477904, 23.77504769997904, 0.00021950004156678915, 7.066124600009061]",0,,,,,,,,,,,,,,,,,,,,,,,,,,,,,,,,,,,,,,,,,,,,,,,,,,,,,,,,,,,,,,,,,,,,,,,,,,,,,,,,,,,,,,,,,,,,,,,,,,,,,,,,,,,,,,,,,,,,,,,,,,,,G2VQ35,train_x,red_square,top_right,2025-09-02_15h09.32.055,HideSeek_v1,2022.2.5,59.95379959223911,
