trialInstr,x_fixStart,y_fixStart,x_corrSteps,y_corrSteps,x_nrSteps,y_nrSteps,alienID,trialLength,version,trialTrain,praclen,testlen,trial_label,break_on_off,beforeExpLoop.thisRepN,beforeExpLoop.thisTrialN,beforeExpLoop.thisN,beforeExpLoop.thisIndex,mini_instr_trials.thisRepN,mini_instr_trials.thisTrialN,mini_instr_trials.thisN,mini_instr_trials.thisIndex,instrLoop.thisRepN,instrLoop.thisTrialN,instrLoop.thisN,instrLoop.thisIndex,repeat_prac.thisRepN,repeat_prac.thisTrialN,repeat_prac.thisN,repeat_prac.thisIndex,trainLoop.thisRepN,trainLoop.thisTrialN,trainLoop.thisN,trainLoop.thisIndex,moveLoop_train.thisRepN,moveLoop_train.thisTrialN,moveLoop_train.thisN,moveLoop_train.thisIndex,experiment.thisRepN,experiment.thisTrialN,experiment.thisN,experiment.thisIndex,moveLoop_test.thisRepN,moveLoop_test.thisTrialN,moveLoop_test.thisN,moveLoop_test.thisIndex,mini_instr2_trials.thisRepN,mini_instr2_trials.thisTrialN,mini_instr2_trials.thisN,mini_instr2_trials.thisIndex,start_all_time,url,slideStim,audioStim,slides.started,sounds.started,nextButton.numClicks,nextButton.timesOn,nextButton.timesOff,prev_but.numClicks,prev_but.timesOn,prev_but.timesOff,alienStim,instrFile,alienStim_instr,gridImage_instr.started,startPos_3.started,key_instr.started,alienImage_3.started,sounds_1.started,key_instr.keys,key_instr.rt,all_x,all_y,FBy_corrSteps,FBy_fixStart,FBx_corrSteps,FBx_fixStart,FBy_pathSize_check,FBx_pathSize_check,gridImage_9.started,alienImageFB_3.started,startPosFB_3.started,keyFB_3.started,pathLine_ydir_2.started,pathLine_xdir_2.started,alienFace_3.started,sounds_2.started,RTFB_instr,keyFB_3.keys,keyFB_3.rt,draw_alienStim,draw_alienID,test_x,nrepcount,perfthres,percthres,earlierperf,earlystop,nextPrac,fileidx,praclen,saveACC_train,pracFile,nextPrac_train,addNrep,fileidx_endr,repExp,showearly,gridImage_4.started,startPos.started,movePos.started,key_resp.started,alienImage.started,buttonPress_train,RTchoice_train,cumAcctrain,aCorr,saveACC_choice,corrAns,x_movePos_end,y_movePos_end,key_resp.keys,key_resp.rt,wLy_dir,wLx_dir,x_movePos,y_movePos,text_2.started,text_2.stopped,aft_x_corrPos,aft_y_corrPos,y_pathSize_check,x_pathSize_check,y_pathdirY,x_pathdirY,x_pathdirX,x_corrPos,y_corrPos,gridImage_6.started,alienImageFB_2.started,startPosFB_2.started,movePosFB_2.started,keyFB_2.started,pathLine_xdir.started,pathLine_ydir.started,alienFace.started,sounds_4.started,RT_FBtrain,keyFB_2.keys,keyFB_2.rt,saveACC_pre,ACC,within_saveACC_train,earlystop_wloop,cumAcctrain_check,gridImage_3.started,alienImage_test.started,startPos_test.started,movePos_test.started,key_resp_test.started,wLy_dir_test,wLx_dir_test,buttonPress_test,RTchoice_test,cumAcctest,corrAns_test,key_resp_test.keys,key_resp_test.rt,text_3.started,text_3.stopped,total_time,end_all_time,key_resp_3.keys,slides_2.started,sounds_3.started,nextButton_2.numClicks,nextButton_2.timesOn,nextButton_2.timesOff,prev_but_2.numClicks,prev_but_2.timesOn,prev_but_2.timesOff,bye.started,participant,train_first,00_coordinate,starting corner,date,expName,psychopyVersion,frameRate,
,,,,,,,,,,,,,,,0,0,0,0,0,0,0,0,,,,,,,,,,,,,,,,,,,,,,,,,,,,,start_all_time,testround,conditions/schedules/train_x_first/red_square_00/top_right/instructions/Slide1.png,conditions/schedules/train_x_first/red_square_00/top_right/instructions/Audio1.wav,642.8611693000021,642.8179464000955,1,[4.072688500000368],[4.072695800001384],0,,,,,,,,,,,,,,,,,,,,,,,,,,,,,,,,,,,,,,,,,,,,,,,,,,,,,,,,,,,,,,,,,,,,,,,,,,,,,,,,,,,,,,,,,,,,,,,,,,,,,,,,,,,,,,,,,,,,,,,,,,,,G4CEC4,train_x,red_square,top_right,2025-03-20_17h00.01.364,HideSeek_v1,2022.2.5,59.97846773021423,
,,,,,,,,,,,,,,,0,0,0,0,1,0,1,0,,,,,,,,,,,,,,,,,,,,,,,,,,,,,,,conditions/schedules/train_x_first/red_square_00/top_right/instructions/Slide2.png,conditions/schedules/train_x_first/red_square_00/top_right/instructions/Audio2.wav,646.952567700002,646.940584300003,2,"[4.072688500000368, 18.869083699999464]","[0.00021049999850220047, 18.869091299999127]",0,,,,,,,,,,,,,,,,,,,,,,,,,,,,,,,,,,,,,,,,,,,,,,,,,,,,,,,,,,,,,,,,,,,,,,,,,,,,,,,,,,,,,,,,,,,,,,,,,,,,,,,,,,,,,,,,,,,,,,,,,,,,G4CEC4,train_x,red_square,top_right,2025-03-20_17h00.01.364,HideSeek_v1,2022.2.5,59.97846773021423,
,,,,,,,,,,,,,,,0,0,0,0,2,0,2,0,,,,,,,,,,,,,,,,,,,,,,,,,,,,,,,conditions/schedules/train_x_first/red_square_00/top_right/instructions/Slide3.png,conditions/schedules/train_x_first/red_square_00/top_right/instructions/Audio3.wav,665.8898305000002,665.8895370500013,3,"[4.072688500000368, 18.869083699999464, 16.427420700001676]","[0.00021049999850220047, 0.04699640000035288, 16.42742780000117]",0,,,,,,,,,,,,,,,,,,,,,,,,,,,,,,,,,,,,,,,,,,,,,,,,,,,,,,,,,,,,,,,,,,,,,,,,,,,,,,,,,,,,,,,,,,,,,,,,,,,,,,,,,,,,,,,,,,,,,,,,,,,,G4CEC4,train_x,red_square,top_right,2025-03-20_17h00.01.364,HideSeek_v1,2022.2.5,59.97846773021423,
,,,,,,,,,,,,,,,0,0,0,0,3,0,3,0,,,,,,,,,,,,,,,,,,,,,,,,,,,,,,,conditions/schedules/train_x_first/red_square_00/top_right/instructions/Slide4.png,conditions/schedules/train_x_first/red_square_00/top_right/instructions/Audio4.wav,682.386739900001,682.3866777500025,4,"[4.072688500000368, 18.869083699999464, 16.427420700001676, 19.647154299997055]","[0.00021049999850220047, 0.04699640000035288, 0.04787439999927301, 19.64716049999697]",0,,,,,,,,,,,,,,,,,,,,,,,,,,,,,,,,,,,,,,,,,,,,,,,,,,,,,,,,,,,,,,,,,,,,,,,,,,,,,,,,,,,,,,,,,,,,,,,,,,,,,,,,,,,,,,,,,,,,,,,,,,,,G4CEC4,train_x,red_square,top_right,2025-03-20_17h00.01.364,HideSeek_v1,2022.2.5,59.97846773021423,
,,,,,,,,,,,,,,,0,0,0,0,4,0,4,0,,,,,,,,,,,,,,,,,,,,,,,,,,,,,,,conditions/schedules/train_x_first/red_square_00/top_right/instructions/Slide5.png,conditions/schedules/train_x_first/red_square_00/top_right/instructions/Audio5.wav,702.0960096000017,702.0862696000012,5,"[4.072688500000368, 18.869083699999464, 16.427420700001676, 19.647154299997055, 4.558639099999709]","[0.00021049999850220047, 0.04699640000035288, 0.04787439999927301, 0.014321700000436977, 4.558645900000556]",0,,,,,,,,,,,,,,,,,,,,,,,,,,,,,,,,,,,,,,,,,,,,,,,,,,,,,,,,,,,,,,,,,,,,,,,,,,,,,,,,,,,,,,,,,,,,,,,,,,,,,,,,,,,,,,,,,,,,,,,,,,,,G4CEC4,train_x,red_square,top_right,2025-03-20_17h00.01.364,HideSeek_v1,2022.2.5,59.97846773021423,
,,,,,,,,,,,,,,,0,0,0,0,5,0,5,0,,,,,,,,,,,,,,,,,,,,,,,,,,,,,,,conditions/schedules/train_x_first/red_square_00/top_right/instructions/Slide6.png,conditions/schedules/train_x_first/red_square_00/top_right/instructions/Audio6.wav,706.7047396999988,706.7068782000032,6,"[4.072688500000368, 18.869083699999464, 16.427420700001676, 19.647154299997055, 4.558639099999709, 4.837276800000836]","[0.00021049999850220047, 0.04699640000035288, 0.04787439999927301, 0.014321700000436977, 0.00027860000045620836, 4.83728450000126]",0,,,,,,,,,,,,,,,,,,,,,,,,,,,,,,,,,,,,,,,,,,,,,,,,,,,,,,,,,,,,,,,,,,,,,,,,,,,,,,,,,,,,,,,,,,,,,,,,,,,,,,,,,,,,,,,,,,,,,,,,,,,,G4CEC4,train_x,red_square,top_right,2025-03-20_17h00.01.364,HideSeek_v1,2022.2.5,59.97846773021423,
,,,,,,,,,,,,,,,0,0,0,0,6,0,6,0,,,,,,,,,,,,,,,,,,,,,,,,,,,,,,,conditions/schedules/train_x_first/red_square_00/top_right/instructions/Slide7.png,conditions/schedules/train_x_first/red_square_00/top_right/instructions/Audio7.wav,711.5932635999998,711.5941440000032,7,"[4.072688500000368, 18.869083699999464, 16.427420700001676, 19.647154299997055, 4.558639099999709, 4.837276800000836, 5.48674949999986]","[0.00021049999850220047, 0.04699640000035288, 0.04787439999927301, 0.014321700000436977, 0.00027860000045620836, 0.031498100001044804, 5.486757399998169]",0,,,,,,,,,,,,,,,,,,,,,,,,,,,,,,,,,,,,,,,,,,,,,,,,,,,,,,,,,,,,,,,,,,,,,,,,,,,,,,,,,,,,,,,,,,,,,,,,,,,,,,,,,,,,,,,,,,,,,,,,,,,,G4CEC4,train_x,red_square,top_right,2025-03-20_17h00.01.364,HideSeek_v1,2022.2.5,59.97846773021423,
,,,,,,,,,,,,,,,0,0,0,0,7,0,7,0,,,,,,,,,,,,,,,,,,,,,,,,,,,,,,,conditions/schedules/train_x_first/red_square_00/top_right/instructions/Slide8.png,conditions/schedules/train_x_first/red_square_00/top_right/instructions/Audio8.wav,717.1427674000006,717.1321578000033,8,"[4.072688500000368, 18.869083699999464, 16.427420700001676, 19.647154299997055, 4.558639099999709, 4.837276800000836, 5.48674949999986, 11.763292799998453]","[0.00021049999850220047, 0.04699640000035288, 0.04787439999927301, 0.014321700000436977, 0.00027860000045620836, 0.031498100001044804, 0.014244699999835575, 11.763305399999808]",0,,,,,,,,,,,,,,,,,,,,,,,,,,,,,,,,,,,,,,,,,,,,,,,,,,,,,,,,,,,,,,,,,,,,,,,,,,,,,,,,,,,,,,,,,,,,,,,,,,,,,,,,,,,,,,,,,,,,,,,,,,,,G4CEC4,train_x,red_square,top_right,2025-03-20_17h00.01.364,HideSeek_v1,2022.2.5,59.97846773021423,
,,,,,,,,,,,,,,,0,0,0,0,8,0,8,0,,,,,,,,,,,,,,,,,,,,,,,,,,,,,,,conditions/schedules/train_x_first/red_square_00/top_right/instructions/Slide9.png,conditions/schedules/train_x_first/red_square_00/top_right/instructions/Audio9.wav,728.9639071999991,728.9584212000017,9,"[4.072688500000368, 18.869083699999464, 16.427420700001676, 19.647154299997055, 4.558639099999709, 4.837276800000836, 5.48674949999986, 11.763292799998453, 6.0304679999971995]","[0.00021049999850220047, 0.04699640000035288, 0.04787439999927301, 0.014321700000436977, 0.00027860000045620836, 0.031498100001044804, 0.014244699999835575, 0.03064760000052047, 6.030474899998808]",0,,,,,,,,,,,,,,,,,,,,,,,,,,,,,,,,,,,,,,,,,,,,,,,,,,,,,,,,,,,,,,,,,,,,,,,,,,,,,,,,,,,,,,,,,,,,,,,,,,,,,,,,,,,,,,,,,,,,,,,,,,,,G4CEC4,train_x,red_square,top_right,2025-03-20_17h00.01.364,HideSeek_v1,2022.2.5,59.97846773021423,
,,,,,,,,,,,,,,,0,0,0,0,9,0,9,0,,,,,,,,,,,,,,,,,,,,,,,,,,,,,,,conditions/schedules/train_x_first/red_square_00/top_right/instructions/Slide10.png,conditions/schedules/train_x_first/red_square_00/top_right/instructions/Audio10.wav,735.0421062999994,735.0302968499997,10,"[4.072688500000368, 18.869083699999464, 16.427420700001676, 19.647154299997055, 4.558639099999709, 4.837276800000836, 5.48674949999986, 11.763292799998453, 6.0304679999971995, 6.941926499999681]","[0.00021049999850220047, 0.04699640000035288, 0.04787439999927301, 0.014321700000436977, 0.00027860000045620836, 0.031498100001044804, 0.014244699999835575, 0.03064760000052047, 0.052915500000381144, 6.941934200000105]",0,,,,,,,,,,,,,,,,,,,,,,,,,,,,,,,,,,,,,,,,,,,,,,,,,,,,,,,,,,,,,,,,,,,,,,,,,,,,,,,,,,,,,,,,,,,,,,,,,,,,,,,,,,,,,,,,,,,,,,,,,,,,G4CEC4,train_x,red_square,top_right,2025-03-20_17h00.01.364,HideSeek_v1,2022.2.5,59.97846773021423,
,,,,,,,,,,,,,,,0,0,0,0,10,0,10,0,,,,,,,,,,,,,,,,,,,,,,,,,,,,,,,conditions/schedules/train_x_first/red_square_00/top_right/instructions/Slide11.png,conditions/schedules/train_x_first/red_square_00/top_right/instructions/Audio11.wav,742.0449996999996,742.0361846000022,11,"[4.072688500000368, 18.869083699999464, 16.427420700001676, 19.647154299997055, 4.558639099999709, 4.837276800000836, 5.48674949999986, 11.763292799998453, 6.0304679999971995, 6.941926499999681, 10.247460099999444]","[0.00021049999850220047, 0.04699640000035288, 0.04787439999927301, 0.014321700000436977, 0.00027860000045620836, 0.031498100001044804, 0.014244699999835575, 0.03064760000052047, 0.052915500000381144, 0.03554409999924246, 10.24746690000029]",0,,,,,,,,,,,,,,,,,,,,,,,,,,,,,,,,,,,,,,,,,,,,,,,,,,,,,,,,,,,,,,,,,,,,,,,,,,,,,,,,,,,,,,,,,,,,,,,,,,,,,,,,,,,,,,,,,,,,,,,,,,,,G4CEC4,train_x,red_square,top_right,2025-03-20_17h00.01.364,HideSeek_v1,2022.2.5,59.97846773021423,
,,,,,,,,,,,,,,,0,0,0,0,11,0,11,0,,,,,,,,,,,,,,,,,,,,,,,,,,,,,,,conditions/schedules/train_x_first/red_square_00/top_right/instructions/Slide12.png,conditions/schedules/train_x_first/red_square_00/top_right/instructions/Audio12.wav,752.3503307999999,752.3446741000015,12,"[4.072688500000368, 18.869083699999464, 16.427420700001676, 19.647154299997055, 4.558639099999709, 4.837276800000836, 5.48674949999986, 11.763292799998453, 6.0304679999971995, 6.941926499999681, 10.247460099999444, 12.819887199999357]","[0.00021049999850220047, 0.04699640000035288, 0.04787439999927301, 0.014321700000436977, 0.00027860000045620836, 0.031498100001044804, 0.014244699999835575, 0.03064760000052047, 0.052915500000381144, 0.03554409999924246, 0.09600599999976112, 12.819893500000035]",0,,,,,,,,,,,,,,,,,,,,,,,,,,,,,,,,,,,,,,,,,,,,,,,,,,,,,,,,,,,,,,,,,,,,,,,,,,,,,,,,,,,,,,,,,,,,,,,,,,,,,,,,,,,,,,,,,,,,,,,,,,,,G4CEC4,train_x,red_square,top_right,2025-03-20_17h00.01.364,HideSeek_v1,2022.2.5,59.97846773021423,
1,8,7,3,7,-5,0,66,2,instr_dim1_1,,,,,,0,0,0,0,,,,,0,0,0,0,,,,,,,,,,,,,,,,,,,,,,,,,,,,,,,,,,,,,stimuli/alien_stimuli/66.png,conditions/schedules/train_x_first/red_square_00/top_right/inputInstr_1.xlsx,stimuli/alien_stimuli/66.png,765.2591070999988,765.2591070999988,765.2591070999988,765.2591070999988,765.2561064000031,return,9.825607300001138,"[-0.16, -0.08, 0, 0.08, 0.16, 0.24, 0.32, 0.4, 0.48, 0.56]","[-0.4, -0.32, -0.24, -0.16, -0.08, 0, 0.08, 0.16, 0.24, 0.32]",7,7,3,8,0.0,0.4,775.236001199999,775.236001199999,775.236001199999,775.236001199999,775.236001199999,775.236001199999,775.236001199999,775.2299750000035,11.644059899997956,return,11.501483799998823,stimuli/alien_stimuli/66.png,66,8,1,,,,,,,,,,,,,,,,,,,,,,,,,,,,,,,,,,,,,,,,,,,,,,,,,,,,,,,,,,,,,,,,,,,,,,,,,,,,,,,,,,,,,,,,,G4CEC4,train_x,red_square,top_right,2025-03-20_17h00.01.364,HideSeek_v1,2022.2.5,59.97846773021423,
,,,,,,,,,,,30,,,,0,0,0,0,,,,,,,,,,,,,,,,,,,,,,,,,,,,,,,,,,,,,,,,,,,,,,,,,,,,,,,,,,,,,,,,,,,,,,,,,,,,,,21,0.7,0,0,99,1,30,0,conditions/schedules/train_x_first/red_square_00/top_right/inputTrain_1.1.xlsx,99,1,1,1,0,,,,,,,,,,,,,,,,,,,,,,,,,,,,,,,,,,,,,,,,,,,,,,,,,,,,,,,,,,,,,,,,,,,,,,,,,,,G4CEC4,train_x,red_square,top_right,2025-03-20_17h00.01.364,HideSeek_v1,2022.2.5,59.97846773021423,
,,,,,,,,,,,,,,,1,0,1,0,0,0,0,0,,,,,,,,,,,,,,,,,,,,,,,,,,,,,,,conditions/schedules/train_x_first/red_square_00/top_right/instructions/Slide13.png,conditions/schedules/train_x_first/red_square_00/top_right/instructions/Audio13.wav,786.890489100002,786.8896615500042,13,"[4.072688500000368, 18.869083699999464, 16.427420700001676, 19.647154299997055, 4.558639099999709, 4.837276800000836, 5.48674949999986, 11.763292799998453, 6.0304679999971995, 6.941926499999681, 10.247460099999444, 12.819887199999357, 18.54549279999992]","[0.00021049999850220047, 0.04699640000035288, 0.04787439999927301, 0.014321700000436977, 0.00027860000045620836, 0.031498100001044804, 0.014244699999835575, 0.03064760000052047, 0.052915500000381144, 0.03554409999924246, 0.09600599999976112, 12.819893500000035, 18.545502699998906]",0,,,,,,,,,,,,,,,,,,,,,,,,,,,,,,,,,,,,,,,,,,,,,,,,,,,,,,,,,,,,,,,,,,,,,,,,,,,,,,,,,,,,,,,,,,,,,,,,,,,,,,,,,,,,,,,,,,,,,,,,,,,,G4CEC4,train_x,red_square,top_right,2025-03-20_17h00.01.364,HideSeek_v1,2022.2.5,59.97846773021423,
,,,,,,,,,,,,,,,1,0,1,0,1,0,1,0,,,,,,,,,,,,,,,,,,,,,,,,,,,,,,,conditions/schedules/train_x_first/red_square_00/top_right/instructions/Slide14.png,conditions/schedules/train_x_first/red_square_00/top_right/instructions/Audio14.wav,805.4979724000004,805.4888824000017,14,"[4.072688500000368, 18.869083699999464, 16.427420700001676, 19.647154299997055, 4.558639099999709, 4.837276800000836, 5.48674949999986, 11.763292799998453, 6.0304679999971995, 6.941926499999681, 10.247460099999444, 12.819887199999357, 18.54549279999992, 12.715556999999535]","[0.00021049999850220047, 0.04699640000035288, 0.04787439999927301, 0.014321700000436977, 0.00027860000045620836, 0.031498100001044804, 0.014244699999835575, 0.03064760000052047, 0.052915500000381144, 0.03554409999924246, 0.09600599999976112, 12.819893500000035, 0.013889000001654495, 12.71556369999962]",0,,,,,,,,,,,,,,,,,,,,,,,,,,,,,,,,,,,,,,,,,,,,,,,,,,,,,,,,,,,,,,,,,,,,,,,,,,,,,,,,,,,,,,,,,,,,,,,,,,,,,,,,,,,,,,,,,,,,,,,,,,,,G4CEC4,train_x,red_square,top_right,2025-03-20_17h00.01.364,HideSeek_v1,2022.2.5,59.97846773021423,
2,9,5,9,5,0,0,16,2,instr_dim1_1,,,,,,1,0,1,0,,,,,0,0,0,0,,,,,,,,,,,,,,,,,,,,,,,,,,,,,,,,,,,,,stimuli/alien_stimuli/16.png,conditions/schedules/train_x_first/red_square_00/top_right/inputInstr_1.xlsx,stimuli/alien_stimuli/16.png,818.3104523000002,818.3104523000002,818.3104523000002,818.3104523000002,818.2994473000028,return,6.56795190000048,"[-0.16, -0.08, 0, 0.08, 0.16, 0.24, 0.32, 0.4, 0.48, 0.56]","[-0.4, -0.32, -0.24, -0.16, -0.08, 0, 0.08, 0.16, 0.24, 0.32]",5,5,9,9,0.0,0.0,825.0463767000001,825.0463767000001,825.0463767000001,825.0463767000001,825.0463767000001,825.0463767000001,825.0463767000001,825.0382044500028,6.823208699999668,return,6.6572116000024835,stimuli/alien_stimuli/16.png,16,9,2,,,,,,,,,,,,,,,,,,,,,,,,,,,,,,,,,,,,,,,,,,,,,,,,,,,,,,,,,,,,,,,,,,,,,,,,,,,,,,,,,,,,,,,,,G4CEC4,train_x,red_square,top_right,2025-03-20_17h00.01.364,HideSeek_v1,2022.2.5,59.97846773021423,
,,,,,,,,,,,30,,,,1,0,1,0,,,,,,,,,,,,,,,,,,,,,,,,,,,,,,,,,,,,,,,,,,,,,,,,,,,,,,,,,,,,,,,,,,,,,,,,,,,,,,21,0.7,0,0,99,1,30,0,conditions/schedules/train_x_first/red_square_00/top_right/inputTrain_1.1.xlsx,99,1,1,1,0,,,,,,,,,,,,,,,,,,,,,,,,,,,,,,,,,,,,,,,,,,,,,,,,,,,,,,,,,,,,,,,,,,,,,,,,,,,G4CEC4,train_x,red_square,top_right,2025-03-20_17h00.01.364,HideSeek_v1,2022.2.5,59.97846773021423,
,,,,,,,,,,,,,,,2,0,2,0,0,0,0,0,,,,,,,,,,,,,,,,,,,,,,,,,,,,,,,conditions/schedules/train_x_first/red_square_00/top_right/instructions/Slide15.png,conditions/schedules/train_x_first/red_square_00/top_right/instructions/Audio15.wav,831.8651272999996,831.8603894500037,15,"[4.072688500000368, 18.869083699999464, 16.427420700001676, 19.647154299997055, 4.558639099999709, 4.837276800000836, 5.48674949999986, 11.763292799998453, 6.0304679999971995, 6.941926499999681, 10.247460099999444, 12.819887199999357, 18.54549279999992, 12.715556999999535, 29.818012499999895]","[0.00021049999850220047, 0.04699640000035288, 0.04787439999927301, 0.014321700000436977, 0.00027860000045620836, 0.031498100001044804, 0.014244699999835575, 0.03064760000052047, 0.052915500000381144, 0.03554409999924246, 0.09600599999976112, 12.819893500000035, 0.013889000001654495, 12.71556369999962, 29.81802180000159]",0,,,,,,,,,,,,,,,,,,,,,,,,,,,,,,,,,,,,,,,,,,,,,,,,,,,,,,,,,,,,,,,,,,,,,,,,,,,,,,,,,,,,,,,,,,,,,,,,,,,,,,,,,,,,,,,,,,,,,,,,,,,,G4CEC4,train_x,red_square,top_right,2025-03-20_17h00.01.364,HideSeek_v1,2022.2.5,59.97846773021423,
,,,,,,,,,,,,,,,2,0,2,0,1,0,1,0,,,,,,,,,,,,,,,,,,,,,,,,,,,,,,,conditions/schedules/train_x_first/red_square_00/top_right/instructions/Slide16.png,conditions/schedules/train_x_first/red_square_00/top_right/instructions/Audio16.wav,861.7452035999995,861.7353007000028,16,"[4.072688500000368, 18.869083699999464, 16.427420700001676, 19.647154299997055, 4.558639099999709, 4.837276800000836, 5.48674949999986, 11.763292799998453, 6.0304679999971995, 6.941926499999681, 10.247460099999444, 12.819887199999357, 18.54549279999992, 12.715556999999535, 29.818012499999895, 23.14080610000019]","[0.00021049999850220047, 0.04699640000035288, 0.04787439999927301, 0.014321700000436977, 0.00027860000045620836, 0.031498100001044804, 0.014244699999835575, 0.03064760000052047, 0.052915500000381144, 0.03554409999924246, 0.09600599999976112, 12.819893500000035, 0.013889000001654495, 12.71556369999962, 0.13811490000080084, 23.140812699999515]",0,,,,,,,,,,,,,,,,,,,,,,,,,,,,,,,,,,,,,,,,,,,,,,,,,,,,,,,,,,,,,,,,,,,,,,,,,,,,,,,,,,,,,,,,,,,,,,,,,,,,,,,,,,,,,,,,,,,,,,,,,,,,G4CEC4,train_x,red_square,top_right,2025-03-20_17h00.01.364,HideSeek_v1,2022.2.5,59.97846773021423,
,7,6,4,6,-3,0,46,,train_dim1_1,1,30,,,,2,0,2,0,,,,,,,,,0,0,0,0,0,0,0,0,0,0,0,0,,,,,,,,,,,,,,,,,,,,,,,,,stimuli/alien_stimuli/46.png,,,,,,,,,,,,,,,,,,,,,,,,,,,,,,,,,,,,,,,30,,,,,,,,884.9738732000005,884.9738732000005,884.9738732000005,884.9738732000005,884.9738732000005,down,39.89398460000302,0,0,0,99,0.4,0.0,down,39.798760599998786,,,,,,,,,,,,,,,,,,,,,,,,,,,,,,,,,,,,,,,,,,,,,,,,,,,,,,,,,,,,G4CEC4,train_x,red_square,top_right,2025-03-20_17h00.01.364,HideSeek_v1,2022.2.5,59.97846773021423,
,7,6,4,6,-3,0,46,,train_dim1_1,1,30,,,,2,0,2,0,,,,,,,,,0,0,0,0,0,0,0,0,1,0,1,0,,,,,,,,,,,,,,,,,,,,,,,,,,,,,,,,,,,,,,,,,,,,,,,,,,,,,,,,,,,,,,,,30,,,,,,,,924.885803000001,924.885803000001,924.885803000001,924.885803000001,924.885803000001,down,0.808597600000212,0,0,0,99,0.4,-0.08,down,0.7157468000041263,,,,,,,,,,,,,,,,,,,,,,,,,,,,,,,,,,,,,,,,,,,,,,,,,,,,,,,,,,,,G4CEC4,train_x,red_square,top_right,2025-03-20_17h00.01.364,HideSeek_v1,2022.2.5,59.97846773021423,
,7,6,4,6,-3,0,46,,train_dim1_1,1,30,,,,2,0,2,0,,,,,,,,,0,0,0,0,0,0,0,0,2,0,2,0,,,,,,,,,,,,,,,,,,,,,,,,,,,,,,,,,,,,,,,,,,,,,,,,,,,,,,,,,,,,,,,,30,,,,,,,,925.6852093999987,925.6852093999987,925.6852093999987,925.6852093999987,925.6852093999987,down,1.2774873999987904,0,0,0,99,0.4,-0.16,down,1.2032951000001049,,,,,,,,,,,,,,,,,,,,,,,,,,,,,,,,,,,,,,,,,,,,,,,,,,,,,,,,,,,,G4CEC4,train_x,red_square,top_right,2025-03-20_17h00.01.364,HideSeek_v1,2022.2.5,59.97846773021423,
,7,6,4,6,-3,0,46,,train_dim1_1,1,30,,,,2,0,2,0,,,,,,,,,0,0,0,0,0,0,0,0,3,0,3,0,,,,,,,,,,,,,,,,,,,,,,,,,,,,,,,,,,,,,,,,,,,,,,,,,,,,,,,,,,,,,,,,30,,,,,,,,926.9699834999992,926.9699834999992,926.9699834999992,926.9699834999992,926.9699834999992,return,0.9102802999987034,0,0,0,0,0.4,-0.16,return,0.8265476000015042,-3,0,0.4,-0.16,,,,,,,,,,,,,,,,,,,,,,,,,,,,,,,,,,,,,,,,,,,,,,,,,,,,,,,,G4CEC4,train_x,red_square,top_right,2025-03-20_17h00.01.364,HideSeek_v1,2022.2.5,59.97846773021423,
,7,9,7,9,0,0,16,,train_dim1_1,2,30,,,,2,0,2,0,,,,,,,,,0,0,0,0,0,1,1,1,0,0,0,0,,,,,,,,,,,,,,,,,,,,,,,,,stimuli/alien_stimuli/16.png,,,,,,,,,,,,,,,,,,,,,,,,,,,,,stimuli/alien_stimuli/46.png,46,7,3,,,,,,,30,,,,,,,,949.9440762000013,949.9440762000013,949.9440762000013,949.9440762000013,949.9440762000013,up,5.491182800000388,0,0,0,99,0.4,0.4,up,5.403211500000907,,,,,948.3742156000008,949.9440762000013,0.16,0.08,0.0,0.24,0.08,0.16,0.28,0.16,0.08,929.4497327999998,929.4497327999998,929.4497327999998,929.4497327999998,929.4497327999998,929.4497327999998,929.4497327999998,929.4497327999998,929.4417376500028,19.03489189999891,return,18.90126230000169,,,,,,,,,,,,,,,,,,,,,,,,,,,,,,,,,G4CEC4,train_x,red_square,top_right,2025-03-20_17h00.01.364,HideSeek_v1,2022.2.5,59.97846773021423,
,7,9,7,9,0,0,16,,train_dim1_1,2,30,,,,2,0,2,0,,,,,,,,,0,0,0,0,0,1,1,1,1,0,1,0,,,,,,,,,,,,,,,,,,,,,,,,,,,,,,,,,,,,,,,,,,,,,,,,,,,,,,,,,,,,,,,,30,,,,,,,,955.4306828000008,955.4306828000008,955.4306828000008,955.4306828000008,955.4306828000008,down,1.9607503000006545,0,0,0,99,0.4,0.32,down,1.8844323000012082,,,,,,,,,,,,,,,,,,,,,,,,,,,,,,,,,,,,,,,,,,,,,,,,,,,,,,,,,,,,G4CEC4,train_x,red_square,top_right,2025-03-20_17h00.01.364,HideSeek_v1,2022.2.5,59.97846773021423,
,7,9,7,9,0,0,16,,train_dim1_1,2,30,,,,2,0,2,0,,,,,,,,,0,0,0,0,0,1,1,1,2,0,2,0,,,,,,,,,,,,,,,,,,,,,,,,,,,,,,,,,,,,,,,,,,,,,,,,,,,,,,,,,,,,,,,,30,,,,,,,,957.4001169000003,957.4001169000003,957.4001169000003,957.4001169000003,957.4001169000003,return,3.8124802999991516,1,0,0,1,0.4,0.32,return,3.7318440999988525,-3,0,0.4,0.32,,,,,,,,,,,,,,,,,,,,,,,,,,,,,,,,,,,,,,,,,,,,,,,,,,,,,,,,G4CEC4,train_x,red_square,top_right,2025-03-20_17h00.01.364,HideSeek_v1,2022.2.5,59.97846773021423,
,9,9,8,9,-1,0,26,,train_dim1_1,3,30,,,,2,0,2,0,,,,,,,,,0,0,0,0,0,2,2,2,0,0,0,0,,,,,,,,,,,,,,,,,,,,,,,,,stimuli/alien_stimuli/26.png,,,,,,,,,,,,,,,,,,,,,,,,,,,,,stimuli/alien_stimuli/16.png,16,7,4,,,,,,,30,,,,,,,,973.4650074000019,973.4650074000019,973.4650074000019,973.4650074000019,973.4650074000019,left,4.691368199997669,1,0,0,99,0.48000000000000004,0.32,left,4.598299000001134,,,,,971.8939291999995,973.4650074000019,0.4,0.32,0.0,0.0,0.32,0.4,0.4,0.4,0.32,962.7974390000018,962.7974390000018,962.7974390000018,962.7974390000018,962.7974390000018,962.7974390000018,962.7974390000018,962.7974390000018,962.7864468000022,9.226313300001493,return,9.06570279999869,,,,,,,,,,,,,,,,,,,,,,,,,,,,,,,,,G4CEC4,train_x,red_square,top_right,2025-03-20_17h00.01.364,HideSeek_v1,2022.2.5,59.97846773021423,
,9,9,8,9,-1,0,26,,train_dim1_1,3,30,,,,2,0,2,0,,,,,,,,,0,0,0,0,0,2,2,2,1,0,1,0,,,,,,,,,,,,,,,,,,,,,,,,,,,,,,,,,,,,,,,,,,,,,,,,,,,,,,,,,,,,,,,,30,,,,,,,,978.1504002000001,978.1504002000001,978.1504002000001,978.1504002000001,978.1504002000001,left,5.412676800002373,1,0,0,99,0.4,0.32,left,5.331417100002,,,,,,,,,,,,,,,,,,,,,,,,,,,,,,,,,,,,,,,,,,,,,,,,,,,,,,,,,,,,G4CEC4,train_x,red_square,top_right,2025-03-20_17h00.01.364,HideSeek_v1,2022.2.5,59.97846773021423,
,9,9,8,9,-1,0,26,,train_dim1_1,3,30,,,,2,0,2,0,,,,,,,,,0,0,0,0,0,2,2,2,2,0,2,0,,,,,,,,,,,,,,,,,,,,,,,,,,,,,,,,,,,,,,,,,,,,,,,,,,,,,,,,,,,,,,,,30,,,,,,,,983.5708932999987,983.5708932999987,983.5708932999987,983.5708932999987,983.5708932999987,return,3.3462037999997847,1,1,0,0,0.4,0.32,return,3.2685129000019515,-3,-2,0.4,0.32,,,,,,,,,,,,,,,,,,,,,,,,,,,,,,,,,,,,,,,,,,,,,,,,,,,,,,,,G4CEC4,train_x,red_square,top_right,2025-03-20_17h00.01.364,HideSeek_v1,2022.2.5,59.97846773021423,
,7,8,3,8,-4,0,56,,train_dim1_1,4,30,,,,2,0,2,0,,,,,,,,,0,0,0,0,0,3,3,3,0,0,0,0,,,,,,,,,,,,,,,,,,,,,,,,,stimuli/alien_stimuli/56.png,,,,,,,,,,,,,,,,,,,,,,,,,,,,,stimuli/alien_stimuli/26.png,26,9,5,,,,,,,30,,,,,,,,1007.2968670000009,1007.2968670000009,1007.2968670000009,1007.2968670000009,1007.2968670000009,left,3.07098330000008,1,1,0,99,0.32,0.24,left,2.977729599999293,,,,,1005.7218654999997,1007.2968670000009,0.48,0.32,0.0,0.08,0.32,0.48,0.52,0.48,0.32,988.5005778000013,988.5005778000013,988.5005778000013,988.5005778000013,988.5005778000013,988.5005778000013,988.5005778000013,988.5005778000013,988.4908826000043,17.35002290000193,return,17.19993550000072,,,,,,,,,,,,,,,,,,,,,,,,,,,,,,,,,G4CEC4,train_x,red_square,top_right,2025-03-20_17h00.01.364,HideSeek_v1,2022.2.5,59.97846773021423,
,7,8,3,8,-4,0,56,,train_dim1_1,4,30,,,,2,0,2,0,,,,,,,,,0,0,0,0,0,3,3,3,1,0,1,0,,,,,,,,,,,,,,,,,,,,,,,,,,,,,,,,,,,,,,,,,,,,,,,,,,,,,,,,,,,,,,,,30,,,,,,,,1010.3582188,1010.3582188,1010.3582188,1010.3582188,1010.3582188,left,1.0254638999977033,1,1,0,99,0.24,0.24,left,0.9489230000035604,,,,,,,,,,,,,,,,,,,,,,,,,,,,,,,,,,,,,,,,,,,,,,,,,,,,,,,,,,,,G4CEC4,train_x,red_square,top_right,2025-03-20_17h00.01.364,HideSeek_v1,2022.2.5,59.97846773021423,
,7,8,3,8,-4,0,56,,train_dim1_1,4,30,,,,2,0,2,0,,,,,,,,,0,0,0,0,0,3,3,3,2,0,2,0,,,,,,,,,,,,,,,,,,,,,,,,,,,,,,,,,,,,,,,,,,,,,,,,,,,,,,,,,,,,,,,,30,,,,,,,,1011.3911694999988,1011.3911694999988,1011.3911694999988,1011.3911694999988,1011.3911694999988,left,0.760326100000384,1,1,0,99,0.15999999999999998,0.24,left,0.68131650000214,,,,,,,,,,,,,,,,,,,,,,,,,,,,,,,,,,,,,,,,,,,,,,,,,,,,,,,,,,,,G4CEC4,train_x,red_square,top_right,2025-03-20_17h00.01.364,HideSeek_v1,2022.2.5,59.97846773021423,
,7,8,3,8,-4,0,56,,train_dim1_1,4,30,,,,2,0,2,0,,,,,,,,,0,0,0,0,0,3,3,3,3,0,3,0,,,,,,,,,,,,,,,,,,,,,,,,,,,,,,,,,,,,,,,,,,,,,,,,,,,,,,,,,,,,,,,,30,,,,,,,,1012.1580883999995,1012.1580883999995,1012.1580883999995,1012.1580883999995,1012.1580883999995,left,0.7771188000006077,1,1,0,99,0.07999999999999997,0.24,left,0.6874064000039652,,,,,,,,,,,,,,,,,,,,,,,,,,,,,,,,,,,,,,,,,,,,,,,,,,,,,,,,,,,,G4CEC4,train_x,red_square,top_right,2025-03-20_17h00.01.364,HideSeek_v1,2022.2.5,59.97846773021423,
,7,8,3,8,-4,0,56,,train_dim1_1,4,30,,,,2,0,2,0,,,,,,,,,0,0,0,0,0,3,3,3,4,0,4,0,,,,,,,,,,,,,,,,,,,,,,,,,,,,,,,,,,,,,,,,,,,,,,,,,,,,,,,,,,,,,,,,30,,,,,,,,1012.9419291000013,1012.9419291000013,1012.9419291000013,1012.9419291000013,1012.9419291000013,left,0.7104514000020572,1,1,0,99,-2.7755575615628914e-17,0.24,left,0.6276642000011634,,,,,,,,,,,,,,,,,,,,,,,,,,,,,,,,,,,,,,,,,,,,,,,,,,,,,,,,,,,,G4CEC4,train_x,red_square,top_right,2025-03-20_17h00.01.364,HideSeek_v1,2022.2.5,59.97846773021423,
,7,8,3,8,-4,0,56,,train_dim1_1,4,30,,,,2,0,2,0,,,,,,,,,0,0,0,0,0,3,3,3,5,0,5,0,,,,,,,,,,,,,,,,,,,,,,,,,,,,,,,,,,,,,,,,,,,,,,,,,,,,,,,,,,,,,,,,30,,,,,,,,1013.6600712,1013.6600712,1013.6600712,1013.6600712,1013.6600712,return,2.061259099999006,1,1,0,0,-2.7755575615628914e-17,0.24,return,1.9718646000001172,-3,-7,-2.7755575615628914e-17,0.24,,,,,,,,,,,,,,,,,,,,,,,,,,,,,,,,,,,,,,,,,,,,,,,,,,,,,,,,G4CEC4,train_x,red_square,top_right,2025-03-20_17h00.01.364,HideSeek_v1,2022.2.5,59.97846773021423,
,5,7,0,7,-5,0,66,,train_dim1_1,5,30,,,,2,0,2,0,,,,,,,,,0,0,0,0,0,4,4,4,0,0,0,0,,,,,,,,,,,,,,,,,,,,,,,,,stimuli/alien_stimuli/66.png,,,,,,,,,,,,,,,,,,,,,,,,,,,,,stimuli/alien_stimuli/56.png,56,7,6,,,,,,,30,,,,,,,,1027.1791042000004,1027.1791042000004,1027.1791042000004,1027.1791042000004,1027.1791042000004,left,4.641705000001821,1,1,0,99,0.15999999999999998,0.16,left,4.558148000000074,,,,,1025.621882899999,1027.1791042000004,0.08,0.24,0.0,0.32,0.24,0.08,0.24000000000000002,0.08,0.24,1017.2975791999997,1017.2975791999997,1017.2975791999997,1017.2975791999997,1017.2975791999997,1017.2975791999997,1017.2975791999997,1017.2975791999997,1017.2814772500028,8.442644200000359,return,8.304095600000437,,,,,,,,,,,,,,,,,,,,,,,,,,,,,,,,,G4CEC4,train_x,red_square,top_right,2025-03-20_17h00.01.364,HideSeek_v1,2022.2.5,59.97846773021423,
,5,7,0,7,-5,0,66,,train_dim1_1,5,30,,,,2,0,2,0,,,,,,,,,0,0,0,0,0,4,4,4,1,0,1,0,,,,,,,,,,,,,,,,,,,,,,,,,,,,,,,,,,,,,,,,,,,,,,,,,,,,,,,,,,,,,,,,30,,,,,,,,1031.8233488000005,1031.8233488000005,1031.8233488000005,1031.8233488000005,1031.8233488000005,left,1.2770467000009376,1,1,0,99,0.07999999999999997,0.16,left,1.2043359000017517,,,,,,,,,,,,,,,,,,,,,,,,,,,,,,,,,,,,,,,,,,,,,,,,,,,,,,,,,,,,G4CEC4,train_x,red_square,top_right,2025-03-20_17h00.01.364,HideSeek_v1,2022.2.5,59.97846773021423,
,5,7,0,7,-5,0,66,,train_dim1_1,5,30,,,,2,0,2,0,,,,,,,,,0,0,0,0,0,4,4,4,2,0,2,0,,,,,,,,,,,,,,,,,,,,,,,,,,,,,,,,,,,,,,,,,,,,,,,,,,,,,,,,,,,,,,,,30,,,,,,,,1033.1072300000014,1033.1072300000014,1033.1072300000014,1033.1072300000014,1033.1072300000014,left,0.9270274999980757,1,1,0,99,-2.7755575615628914e-17,0.16,left,0.8391794000017399,,,,,,,,,,,,,,,,,,,,,,,,,,,,,,,,,,,,,,,,,,,,,,,,,,,,,,,,,,,,G4CEC4,train_x,red_square,top_right,2025-03-20_17h00.01.364,HideSeek_v1,2022.2.5,59.97846773021423,
,5,7,0,7,-5,0,66,,train_dim1_1,5,30,,,,2,0,2,0,,,,,,,,,0,0,0,0,0,4,4,4,3,0,3,0,,,,,,,,,,,,,,,,,,,,,,,,,,,,,,,,,,,,,,,,,,,,,,,,,,,,,,,,,,,,,,,,30,,,,,,,,1034.0410823999991,1034.0410823999991,1034.0410823999991,1034.0410823999991,1034.0410823999991,left,1.193747400000575,1,1,0,99,-0.08000000000000003,0.16,left,1.1073910999984946,,,,,,,,,,,,,,,,,,,,,,,,,,,,,,,,,,,,,,,,,,,,,,,,,,,,,,,,,,,,G4CEC4,train_x,red_square,top_right,2025-03-20_17h00.01.364,HideSeek_v1,2022.2.5,59.97846773021423,
,5,7,0,7,-5,0,66,,train_dim1_1,5,30,,,,2,0,2,0,,,,,,,,,0,0,0,0,0,4,4,4,4,0,4,0,,,,,,,,,,,,,,,,,,,,,,,,,,,,,,,,,,,,,,,,,,,,,,,,,,,,,,,,,,,,,,,,30,,,,,,,,1035.2420926000013,1035.2420926000013,1035.2420926000013,1035.2420926000013,1035.2420926000013,left,1.5945069000008516,1,1,0,99,-0.16000000000000003,0.16,left,1.5189778999992996,,,,,,,,,,,,,,,,,,,,,,,,,,,,,,,,,,,,,,,,,,,,,,,,,,,,,,,,,,,,G4CEC4,train_x,red_square,top_right,2025-03-20_17h00.01.364,HideSeek_v1,2022.2.5,59.97846773021423,
,5,7,0,7,-5,0,66,,train_dim1_1,5,30,,,,2,0,2,0,,,,,,,,,0,0,0,0,0,4,4,4,5,0,5,0,,,,,,,,,,,,,,,,,,,,,,,,,,,,,,,,,,,,,,,,,,,,,,,,,,,,,,,,,,,,,,,,30,,,,,,,,1036.8488365000012,1036.8488365000012,1036.8488365000012,1036.8488365000012,1036.8488365000012,return,3.891328199999407,2,0,0,1,-0.16000000000000003,0.16,return,3.8113879000011366,-3,-12,-0.16000000000000003,0.16,,,,,,,,,,,,,,,,,,,,,,,,,,,,,,,,,,,,,,,,,,,,,,,,,,,,,,,,G4CEC4,train_x,red_square,top_right,2025-03-20_17h00.01.364,HideSeek_v1,2022.2.5,59.97846773021423,
,5,5,4,5,-1,0,26,,train_dim1_1,6,30,,,,2,0,2,0,,,,,,,,,0,0,0,0,0,5,5,5,0,0,0,0,,,,,,,,,,,,,,,,,,,,,,,,,stimuli/alien_stimuli/26.png,,,,,,,,,,,,,,,,,,,,,,,,,,,,,stimuli/alien_stimuli/66.png,66,5,7,,,,,,,30,,,,,,,,1047.0383030000012,1047.0383030000012,1047.0383030000012,1047.0383030000012,1047.0383030000012,left,6.407207899999776,2,0,0,99,0.15999999999999998,0,left,6.313629799999035,,,,,1045.4718436000003,1047.0383030000012,-0.16,0.16,0.0,0.4,0.16,-0.16,0.039999999999999994,-0.16,0.16,1042.3345249000013,1042.3345249000013,1042.3345249000013,1042.3345249000013,1042.3345249000013,1042.3345249000013,1042.3345249000013,1042.3345249000013,1042.3186837000046,3.2715355000000272,return,3.1108133000016096,,,,,,,,,,,,,,,,,,,,,,,,,,,,,,,,,G4CEC4,train_x,red_square,top_right,2025-03-20_17h00.01.364,HideSeek_v1,2022.2.5,59.97846773021423,
,5,5,4,5,-1,0,26,,train_dim1_1,6,30,,,,2,0,2,0,,,,,,,,,0,0,0,0,0,5,5,5,1,0,1,0,,,,,,,,,,,,,,,,,,,,,,,,,,,,,,,,,,,,,,,,,,,,,,,,,,,,,,,,,,,,,,,,30,,,,,,,,1053.446109299999,1053.446109299999,1053.446109299999,1053.446109299999,1053.446109299999,return,4.045374900000752,3,0,0,1,0.15999999999999998,0,return,3.9638861999992514,-3,-13,0.15999999999999998,0,,,,,,,,,,,,,,,,,,,,,,,,,,,,,,,,,,,,,,,,,,,,,,,,,,,,,,,,G4CEC4,train_x,red_square,top_right,2025-03-20_17h00.01.364,HideSeek_v1,2022.2.5,59.97846773021423,
,8,5,3,5,-5,0,66,,train_dim1_1,7,30,,,,2,0,2,0,,,,,,,,,0,0,0,0,0,6,6,6,0,0,0,0,,,,,,,,,,,,,,,,,,,,,,,,,stimuli/alien_stimuli/66.png,,,,,,,,,,,,,,,,,,,,,,,,,,,,,stimuli/alien_stimuli/26.png,26,5,8,,,,,,,30,,,,,,,,1062.7123380000012,1062.7123380000012,1062.7123380000012,1062.7123380000012,1062.7123380000012,left,1.9869271999996272,3,0,0,99,0.39999999999999997,0,left,1.8770416000006662,,,,,1061.134636900002,1062.7123380000012,0.16,0,0.0,0.08,0.0,0.16,0.2,0.16,0,1059.0923685999987,1059.0923685999987,1059.0923685999987,1059.0923685999987,1059.0923685999987,1059.0923685999987,1059.0923685999987,1059.0923685999987,1059.0826937500049,2.1871560999970825,return,2.021372399998654,,,,,,,,,,,,,,,,,,,,,,,,,,,,,,,,,G4CEC4,train_x,red_square,top_right,2025-03-20_17h00.01.364,HideSeek_v1,2022.2.5,59.97846773021423,
,8,5,3,5,-5,0,66,,train_dim1_1,7,30,,,,2,0,2,0,,,,,,,,,0,0,0,0,0,6,6,6,1,0,1,0,,,,,,,,,,,,,,,,,,,,,,,,,,,,,,,,,,,,,,,,,,,,,,,,,,,,,,,,,,,,,,,,30,,,,,,,,1064.6832885000003,1064.6832885000003,1064.6832885000003,1064.6832885000003,1064.6832885000003,left,0.82692440000028,3,0,0,99,0.31999999999999995,0,left,0.7547849000002316,,,,,,,,,,,,,,,,,,,,,,,,,,,,,,,,,,,,,,,,,,,,,,,,,,,,,,,,,,,,G4CEC4,train_x,red_square,top_right,2025-03-20_17h00.01.364,HideSeek_v1,2022.2.5,59.97846773021423,
,8,5,3,5,-5,0,66,,train_dim1_1,7,30,,,,2,0,2,0,,,,,,,,,0,0,0,0,0,6,6,6,2,0,2,0,,,,,,,,,,,,,,,,,,,,,,,,,,,,,,,,,,,,,,,,,,,,,,,,,,,,,,,,,,,,,,,,30,,,,,,,,1065.5174958999996,1065.5174958999996,1065.5174958999996,1065.5174958999996,1065.5174958999996,left,0.7770472999982303,3,0,0,99,0.23999999999999994,0,left,0.6943416000030993,,,,,,,,,,,,,,,,,,,,,,,,,,,,,,,,,,,,,,,,,,,,,,,,,,,,,,,,,,,,G4CEC4,train_x,red_square,top_right,2025-03-20_17h00.01.364,HideSeek_v1,2022.2.5,59.97846773021423,
,8,5,3,5,-5,0,66,,train_dim1_1,7,30,,,,2,0,2,0,,,,,,,,,0,0,0,0,0,6,6,6,3,0,3,0,,,,,,,,,,,,,,,,,,,,,,,,,,,,,,,,,,,,,,,,,,,,,,,,,,,,,,,,,,,,,,,,30,,,,,,,,1066.3011102000019,1066.3011102000019,1066.3011102000019,1066.3011102000019,1066.3011102000019,left,0.7102732000021206,3,0,0,99,0.15999999999999992,0,left,0.6294594000028155,,,,,,,,,,,,,,,,,,,,,,,,,,,,,,,,,,,,,,,,,,,,,,,,,,,,,,,,,,,,G4CEC4,train_x,red_square,top_right,2025-03-20_17h00.01.364,HideSeek_v1,2022.2.5,59.97846773021423,
,8,5,3,5,-5,0,66,,train_dim1_1,7,30,,,,2,0,2,0,,,,,,,,,0,0,0,0,0,6,6,6,4,0,4,0,,,,,,,,,,,,,,,,,,,,,,,,,,,,,,,,,,,,,,,,,,,,,,,,,,,,,,,,,,,,,,,,30,,,,,,,,1067.0186457000018,1067.0186457000018,1067.0186457000018,1067.0186457000018,1067.0186457000018,left,0.72679060000155,3,0,0,99,0.07999999999999992,0,left,0.6427862000018649,,,,,,,,,,,,,,,,,,,,,,,,,,,,,,,,,,,,,,,,,,,,,,,,,,,,,,,,,,,,G4CEC4,train_x,red_square,top_right,2025-03-20_17h00.01.364,HideSeek_v1,2022.2.5,59.97846773021423,
,8,5,3,5,-5,0,66,,train_dim1_1,7,30,,,,2,0,2,0,,,,,,,,,0,0,0,0,0,6,6,6,5,0,5,0,,,,,,,,,,,,,,,,,,,,,,,,,,,,,,,,,,,,,,,,,,,,,,,,,,,,,,,,,,,,,,,,30,,,,,,,,1067.7517264000016,1067.7517264000016,1067.7517264000016,1067.7517264000016,1067.7517264000016,return,2.5782752000013716,4,0,0,1,0.07999999999999992,0,return,2.4970910000010917,-3,-18,0.07999999999999992,0,,,,,,,,,,,,,,,,,,,,,,,,,,,,,,,,,,,,,,,,,,,,,,,,,,,,,,,,G4CEC4,train_x,red_square,top_right,2025-03-20_17h00.01.364,HideSeek_v1,2022.2.5,59.97846773021423,
,5,9,2,9,-3,0,46,,train_dim1_1,8,30,,,,2,0,2,0,,,,,,,,,0,0,0,0,0,7,7,7,0,0,0,0,,,,,,,,,,,,,,,,,,,,,,,,,stimuli/alien_stimuli/46.png,,,,,,,,,,,,,,,,,,,,,,,,,,,,,stimuli/alien_stimuli/66.png,66,8,9,,,,,,,30,,,,,,,,1078.3726110999996,1078.3726110999996,1078.3726110999996,1078.3726110999996,1078.3726110999996,left,8.06055059999926,4,0,0,99,0.15999999999999998,0.32,left,7.970585700004449,,,,,1076.814302900002,1078.3726110999996,0.08,0,0.0,0.4,0.0,0.08,0.27999999999999997,0.08,0,1071.893945300002,1071.893945300002,1071.893945300002,1071.893945300002,1071.893945300002,1071.893945300002,1071.893945300002,1071.893945300002,1071.8767637000012,5.023368900001515,return,4.898706800002401,,,,,,,,,,,,,,,,,,,,,,,,,,,,,,,,,G4CEC4,train_x,red_square,top_right,2025-03-20_17h00.01.364,HideSeek_v1,2022.2.5,59.97846773021423,
,5,9,2,9,-3,0,46,,train_dim1_1,8,30,,,,2,0,2,0,,,,,,,,,0,0,0,0,0,7,7,7,1,0,1,0,,,,,,,,,,,,,,,,,,,,,,,,,,,,,,,,,,,,,,,,,,,,,,,,,,,,,,,,,,,,,,,,30,,,,,,,,1086.4355333000021,1086.4355333000021,1086.4355333000021,1086.4355333000021,1086.4355333000021,left,0.5098184000016772,4,0,0,99,0.07999999999999997,0.32,left,0.4284575000019686,,,,,,,,,,,,,,,,,,,,,,,,,,,,,,,,,,,,,,,,,,,,,,,,,,,,,,,,,,,,G4CEC4,train_x,red_square,top_right,2025-03-20_17h00.01.364,HideSeek_v1,2022.2.5,59.97846773021423,
,5,9,2,9,-3,0,46,,train_dim1_1,8,30,,,,2,0,2,0,,,,,,,,,0,0,0,0,0,7,7,7,2,0,2,0,,,,,,,,,,,,,,,,,,,,,,,,,,,,,,,,,,,,,,,,,,,,,,,,,,,,,,,,,,,,,,,,30,,,,,,,,1086.9516052,1086.9516052,1086.9516052,1086.9516052,1086.9516052,left,0.4931584000005387,4,0,0,99,-2.7755575615628914e-17,0.32,left,0.41467650000049616,,,,,,,,,,,,,,,,,,,,,,,,,,,,,,,,,,,,,,,,,,,,,,,,,,,,,,,,,,,,G4CEC4,train_x,red_square,top_right,2025-03-20_17h00.01.364,HideSeek_v1,2022.2.5,59.97846773021423,
,5,9,2,9,-3,0,46,,train_dim1_1,8,30,,,,2,0,2,0,,,,,,,,,0,0,0,0,0,7,7,7,3,0,3,0,,,,,,,,,,,,,,,,,,,,,,,,,,,,,,,,,,,,,,,,,,,,,,,,,,,,,,,,,,,,,,,,30,,,,,,,,1087.4521846999996,1087.4521846999996,1087.4521846999996,1087.4521846999996,1087.4521846999996,left,0.4936202000026242,4,0,0,99,-0.08000000000000003,0.32,left,0.4071823000012955,,,,,,,,,,,,,,,,,,,,,,,,,,,,,,,,,,,,,,,,,,,,,,,,,,,,,,,,,,,,G4CEC4,train_x,red_square,top_right,2025-03-20_17h00.01.364,HideSeek_v1,2022.2.5,59.97846773021423,
,5,9,2,9,-3,0,46,,train_dim1_1,8,30,,,,2,0,2,0,,,,,,,,,0,0,0,0,0,7,7,7,4,0,4,0,,,,,,,,,,,,,,,,,,,,,,,,,,,,,,,,,,,,,,,,,,,,,,,,,,,,,,,,,,,,,,,,30,,,,,,,,1087.9530708999991,1087.9530708999991,1087.9530708999991,1087.9530708999991,1087.9530708999991,return,2.1778692999978375,4,1,0,0,-0.08000000000000003,0.32,return,2.094562700000097,-3,-22,-0.08000000000000003,0.32,,,,,,,,,,,,,,,,,,,,,,,,,,,,,,,,,,,,,,,,,,,,,,,,,,,,,,,,G4CEC4,train_x,red_square,top_right,2025-03-20_17h00.01.364,HideSeek_v1,2022.2.5,59.97846773021423,
,6,5,2,5,-4,0,56,,train_dim1_1,9,30,,,,2,0,2,0,,,,,,,,,0,0,0,0,0,8,8,8,0,0,0,0,,,,,,,,,,,,,,,,,,,,,,,,,stimuli/alien_stimuli/56.png,,,,,,,,,,,,,,,,,,,,,,,,,,,,,stimuli/alien_stimuli/46.png,46,5,10,,,,,,,30,,,,,,,,1096.5923064000017,1096.5923064000017,1096.5923064000017,1096.5923064000017,1096.5923064000017,left,6.524175299997296,4,1,0,99,0.24,0,left,6.428915600001346,,,,,1095.0296640999986,1096.5923064000017,0,0.32,0.0,0.24,0.32,0,0.12,0,0.32,1091.705780700002,1091.705780700002,1091.705780700002,1091.705780700002,1091.705780700002,1091.705780700002,1091.705780700002,1091.705780700002,1091.6933443500025,3.4382243000000017,return,3.296028300002945,,,,,,,,,,,,,,,,,,,,,,,,,,,,,,,,,G4CEC4,train_x,red_square,top_right,2025-03-20_17h00.01.364,HideSeek_v1,2022.2.5,59.97846773021423,
,6,5,2,5,-4,0,56,,train_dim1_1,9,30,,,,2,0,2,0,,,,,,,,,0,0,0,0,0,8,8,8,1,0,1,0,,,,,,,,,,,,,,,,,,,,,,,,,,,,,,,,,,,,,,,,,,,,,,,,,,,,,,,,,,,,,,,,30,,,,,,,,1103.1180061000014,1103.1180061000014,1103.1180061000014,1103.1180061000014,1103.1180061000014,left,1.1765164999997069,4,1,0,99,0.15999999999999998,0,left,1.1015522999987297,,,,,,,,,,,,,,,,,,,,,,,,,,,,,,,,,,,,,,,,,,,,,,,,,,,,,,,,,,,,G4CEC4,train_x,red_square,top_right,2025-03-20_17h00.01.364,HideSeek_v1,2022.2.5,59.97846773021423,
,6,5,2,5,-4,0,56,,train_dim1_1,9,30,,,,2,0,2,0,,,,,,,,,0,0,0,0,0,8,8,8,2,0,2,0,,,,,,,,,,,,,,,,,,,,,,,,,,,,,,,,,,,,,,,,,,,,,,,,,,,,,,,,,,,,,,,,30,,,,,,,,1104.3016043999996,1104.3016043999996,1104.3016043999996,1104.3016043999996,1104.3016043999996,left,1.4273909000003187,4,1,0,99,0.07999999999999997,0,left,1.34867690000101,,,,,,,,,,,,,,,,,,,,,,,,,,,,,,,,,,,,,,,,,,,,,,,,,,,,,,,,,,,,G4CEC4,train_x,red_square,top_right,2025-03-20_17h00.01.364,HideSeek_v1,2022.2.5,59.97846773021423,
,6,5,2,5,-4,0,56,,train_dim1_1,9,30,,,,2,0,2,0,,,,,,,,,0,0,0,0,0,8,8,8,3,0,3,0,,,,,,,,,,,,,,,,,,,,,,,,,,,,,,,,,,,,,,,,,,,,,,,,,,,,,,,,,,,,,,,,30,,,,,,,,1105.739024300001,1105.739024300001,1105.739024300001,1105.739024300001,1105.739024300001,left,1.1922306000014942,4,1,0,99,-2.7755575615628914e-17,0,left,1.110619900002348,,,,,,,,,,,,,,,,,,,,,,,,,,,,,,,,,,,,,,,,,,,,,,,,,,,,,,,,,,,,G4CEC4,train_x,red_square,top_right,2025-03-20_17h00.01.364,HideSeek_v1,2022.2.5,59.97846773021423,
,6,5,2,5,-4,0,56,,train_dim1_1,9,30,,,,2,0,2,0,,,,,,,,,0,0,0,0,0,8,8,8,4,0,4,0,,,,,,,,,,,,,,,,,,,,,,,,,,,,,,,,,,,,,,,,,,,,,,,,,,,,,,,,,,,,,,,,30,,,,,,,,1106.9378180000022,1106.9378180000022,1106.9378180000022,1106.9378180000022,1106.9378180000022,return,3.1115207000002556,5,0,0,1,-2.7755575615628914e-17,0,return,3.0356636000033177,-3,-26,-2.7755575615628914e-17,0,,,,,,,,,,,,,,,,,,,,,,,,,,,,,,,,,,,,,,,,,,,,,,,,,,,,,,,,G4CEC4,train_x,red_square,top_right,2025-03-20_17h00.01.364,HideSeek_v1,2022.2.5,59.97846773021423,
,5,8,5,8,0,0,16,,train_dim1_1,10,30,,,,2,0,2,0,,,,,,,,,0,0,0,0,0,9,9,9,0,0,0,0,,,,,,,,,,,,,,,,,,,,,,,,,stimuli/alien_stimuli/16.png,,,,,,,,,,,,,,,,,,,,,,,,,,,,,stimuli/alien_stimuli/56.png,56,6,11,,,,,,,30,,,,,,,,1115.1913262000016,1115.1913262000016,1115.1913262000016,1115.1913262000016,1115.1913262000016,up,5.025104500000452,5,0,0,99,0.24,0.32,up,4.924136000001454,,,,,1113.6116266999998,1115.1913262000016,0,0,0.0,0.32,0.0,0,0.16,0,0,1111.6256820999988,1111.6256820999988,1111.6256820999988,1111.6256820999988,1111.6256820999988,1111.6256820999988,1111.6256820999988,1111.6256820999988,1111.6099399500022,2.103854799999681,return,1.959516300001269,,,,,,,,,,,,,,,,,,,,,,,,,,,,,,,,,G4CEC4,train_x,red_square,top_right,2025-03-20_17h00.01.364,HideSeek_v1,2022.2.5,59.97846773021423,
,5,8,5,8,0,0,16,,train_dim1_1,10,30,,,,2,0,2,0,,,,,,,,,0,0,0,0,0,9,9,9,1,0,1,0,,,,,,,,,,,,,,,,,,,,,,,,,,,,,,,,,,,,,,,,,,,,,,,,,,,,,,,,,,,,,,,,30,,,,,,,,1120.2014807000014,1120.2014807000014,1120.2014807000014,1120.2014807000014,1120.2014807000014,down,0.9266494000003149,5,0,0,99,0.24,0.24,down,0.8444536999995762,,,,,,,,,,,,,,,,,,,,,,,,,,,,,,,,,,,,,,,,,,,,,,,,,,,,,,,,,,,,G4CEC4,train_x,red_square,top_right,2025-03-20_17h00.01.364,HideSeek_v1,2022.2.5,59.97846773021423,
,5,8,5,8,0,0,16,,train_dim1_1,10,30,,,,2,0,2,0,,,,,,,,,0,0,0,0,0,9,9,9,2,0,2,0,,,,,,,,,,,,,,,,,,,,,,,,,,,,,,,,,,,,,,,,,,,,,,,,,,,,,,,,,,,,,,,,30,,,,,,,,1121.1353087999996,1121.1353087999996,1121.1353087999996,1121.1353087999996,1121.1353087999996,return,1.1436553999992611,6,0,0,1,0.24,0.24,return,1.0682107000029646,-3,-26,0.24,0.24,,,,,,,,,,,,,,,,,,,,,,,,,,,,,,,,,,,,,,,,,,,,,,,,,,,,,,,,G4CEC4,train_x,red_square,top_right,2025-03-20_17h00.01.364,HideSeek_v1,2022.2.5,59.97846773021423,
,7,7,4,7,-3,0,46,,train_dim1_1,11,30,,,,2,0,2,0,,,,,,,,,0,0,0,0,0,10,10,10,0,0,0,0,,,,,,,,,,,,,,,,,,,,,,,,,stimuli/alien_stimuli/46.png,,,,,,,,,,,,,,,,,,,,,,,,,,,,,stimuli/alien_stimuli/16.png,16,5,12,,,,,,,30,,,,,,,,1127.2792081000007,1127.2792081000007,1127.2792081000007,1127.2792081000007,1127.2792081000007,left,2.8224424,6,0,0,99,0.32,0.16,left,2.725026500003878,,,,,1125.7048433000018,1127.2792081000007,0.24,0.24,0.0,0.0,0.24,0.24,0.24,0.24,0.24,1123.8449419999997,1123.8449419999997,1123.8449419999997,1123.8449419999997,1123.8449419999997,1123.8449419999997,1123.8449419999997,1123.8449419999997,1123.8364628500026,1.9704624000005424,return,1.8398129000015615,,,,,,,,,,,,,,,,,,,,,,,,,,,,,,,,,G4CEC4,train_x,red_square,top_right,2025-03-20_17h00.01.364,HideSeek_v1,2022.2.5,59.97846773021423,
,7,7,4,7,-3,0,46,,train_dim1_1,11,30,,,,2,0,2,0,,,,,,,,,0,0,0,0,0,10,10,10,1,0,1,0,,,,,,,,,,,,,,,,,,,,,,,,,,,,,,,,,,,,,,,,,,,,,,,,,,,,,,,,,,,,,,,,30,,,,,,,,1130.088107200001,1130.088107200001,1130.088107200001,1130.088107200001,1130.088107200001,left,0.6766501999991306,6,0,0,99,0.24,0.16,left,0.6033900000002177,,,,,,,,,,,,,,,,,,,,,,,,,,,,,,,,,,,,,,,,,,,,,,,,,,,,,,,,,,,,G4CEC4,train_x,red_square,top_right,2025-03-20_17h00.01.364,HideSeek_v1,2022.2.5,59.97846773021423,
,7,7,4,7,-3,0,46,,train_dim1_1,11,30,,,,2,0,2,0,,,,,,,,,0,0,0,0,0,10,10,10,2,0,2,0,,,,,,,,,,,,,,,,,,,,,,,,,,,,,,,,,,,,,,,,,,,,,,,,,,,,,,,,,,,,,,,,30,,,,,,,,1130.771655299999,1130.771655299999,1130.771655299999,1130.771655299999,1130.771655299999,left,1.1105250000000524,6,0,0,99,0.15999999999999998,0.16,left,1.0330730000023323,,,,,,,,,,,,,,,,,,,,,,,,,,,,,,,,,,,,,,,,,,,,,,,,,,,,,,,,,,,,G4CEC4,train_x,red_square,top_right,2025-03-20_17h00.01.364,HideSeek_v1,2022.2.5,59.97846773021423,
,7,7,4,7,-3,0,46,,train_dim1_1,11,30,,,,2,0,2,0,,,,,,,,,0,0,0,0,0,10,10,10,3,0,3,0,,,,,,,,,,,,,,,,,,,,,,,,,,,,,,,,,,,,,,,,,,,,,,,,,,,,,,,,,,,,,,,,30,,,,,,,,1131.8898499999996,1131.8898499999996,1131.8898499999996,1131.8898499999996,1131.8898499999996,left,5.513638200001878,6,0,0,99,0.07999999999999997,0.16,left,5.4349691000024904,,,,,,,,,,,,,,,,,,,,,,,,,,,,,,,,,,,,,,,,,,,,,,,,,,,,,,,,,,,,G4CEC4,train_x,red_square,top_right,2025-03-20_17h00.01.364,HideSeek_v1,2022.2.5,59.97846773021423,
,7,7,4,7,-3,0,46,,train_dim1_1,11,30,,,,2,0,2,0,,,,,,,,,0,0,0,0,0,10,10,10,4,0,4,0,,,,,,,,,,,,,,,,,,,,,,,,,,,,,,,,,,,,,,,,,,,,,,,,,,,,,,,,,,,,,,,,30,,,,,,,,1137.4110007000018,1137.4110007000018,1137.4110007000018,1137.4110007000018,1137.4110007000018,right,3.629139500000747,6,0,0,99,0.15999999999999998,0.16,right,3.547450200003368,,,,,,,,,,,,,,,,,,,,,,,,,,,,,,,,,,,,,,,,,,,,,,,,,,,,,,,,,,,,G4CEC4,train_x,red_square,top_right,2025-03-20_17h00.01.364,HideSeek_v1,2022.2.5,59.97846773021423,
,7,7,4,7,-3,0,46,,train_dim1_1,11,30,,,,2,0,2,0,,,,,,,,,0,0,0,0,0,10,10,10,5,0,5,0,,,,,,,,,,,,,,,,,,,,,,,,,,,,,,,,,,,,,,,,,,,,,,,,,,,,,,,,,,,,,,,,30,,,,,,,,1141.047086300001,1141.047086300001,1141.047086300001,1141.047086300001,1141.047086300001,return,2.3113926999976684,7,0,0,1,0.15999999999999998,0.16,return,2.225361700002395,-3,-29,0.15999999999999998,0.16,,,,,,,,,,,,,,,,,,,,,,,,,,,,,,,,,,,,,,,,,,,,,,,,,,,,,,,,G4CEC4,train_x,red_square,top_right,2025-03-20_17h00.01.364,HideSeek_v1,2022.2.5,59.97846773021423,
,5,5,4,5,-1,0,26,,train_dim1_1,12,30,,,,2,0,2,0,,,,,,,,,0,0,0,0,0,11,11,11,0,0,0,0,,,,,,,,,,,,,,,,,,,,,,,,,stimuli/alien_stimuli/26.png,,,,,,,,,,,,,,,,,,,,,,,,,,,,,stimuli/alien_stimuli/46.png,46,7,13,,,,,,,30,,,,,,,,1148.0679657,1148.0679657,1148.0679657,1148.0679657,1148.0679657,left,2.0873460000002524,7,0,0,99,0.15999999999999998,0,left,1.9881982000006246,,,,,1146.4886331000016,1148.0679657,0.16,0.16,0.0,0.24,0.16,0.16,0.28,0.16,0.16,1144.9365251000017,1144.9365251000017,1144.9365251000017,1144.9365251000017,1144.9365251000017,1144.9365251000017,1144.9365251000017,1144.9365251000017,1144.920812150002,1.6700344999990193,return,1.524097299999994,,,,,,,,,,,,,,,,,,,,,,,,,,,,,,,,,G4CEC4,train_x,red_square,top_right,2025-03-20_17h00.01.364,HideSeek_v1,2022.2.5,59.97846773021423,
,5,5,4,5,-1,0,26,,train_dim1_1,12,30,,,,2,0,2,0,,,,,,,,,0,0,0,0,0,11,11,11,1,0,1,0,,,,,,,,,,,,,,,,,,,,,,,,,,,,,,,,,,,,,,,,,,,,,,,,,,,,,,,,,,,,,,,,30,,,,,,,,1150.1420660000003,1150.1420660000003,1150.1420660000003,1150.1420660000003,1150.1420660000003,return,1.543733999998949,8,0,0,1,0.15999999999999998,0,return,1.4583601000013005,-3,-30,0.15999999999999998,0,,,,,,,,,,,,,,,,,,,,,,,,,,,,,,,,,,,,,,,,,,,,,,,,,,,,,,,,G4CEC4,train_x,red_square,top_right,2025-03-20_17h00.01.364,HideSeek_v1,2022.2.5,59.97846773021423,
,5,9,1,9,-4,0,56,,train_dim1_1,13,30,,,,2,0,2,0,,,,,,,,,0,0,0,0,0,12,12,12,0,0,0,0,,,,,,,,,,,,,,,,,,,,,,,,,stimuli/alien_stimuli/56.png,,,,,,,,,,,,,,,,,,,,,,,,,,,,,stimuli/alien_stimuli/26.png,26,5,14,,,,,,,30,,,,,,,,1158.5425649999997,1158.5425649999997,1158.5425649999997,1158.5425649999997,1158.5425649999997,left,2.706547599998885,8,0,0,99,0.15999999999999998,0.32,left,2.618872700000793,,,,,1156.9810236000012,1158.5425649999997,0.16,0,0.0,0.08,0.0,0.16,0.2,0.16,0,1153.2543640000004,1153.2543640000004,1153.2543640000004,1153.2543640000004,1153.2543640000004,1153.2543640000004,1153.2543640000004,1153.2543640000004,1153.2446504500044,3.838674599999649,return,3.6951212999993004,,,,,,,,,,,,,,,,,,,,,,,,,,,,,,,,,G4CEC4,train_x,red_square,top_right,2025-03-20_17h00.01.364,HideSeek_v1,2022.2.5,59.97846773021423,
,5,9,1,9,-4,0,56,,train_dim1_1,13,30,,,,2,0,2,0,,,,,,,,,0,0,0,0,0,12,12,12,1,0,1,0,,,,,,,,,,,,,,,,,,,,,,,,,,,,,,,,,,,,,,,,,,,,,,,,,,,,,,,,,,,,,,,,30,,,,,,,,1161.2496460000002,1161.2496460000002,1161.2496460000002,1161.2496460000002,1161.2496460000002,left,1.243565699998726,8,0,0,99,0.07999999999999997,0.32,left,1.1571028000034858,,,,,,,,,,,,,,,,,,,,,,,,,,,,,,,,,,,,,,,,,,,,,,,,,,,,,,,,,,,,G4CEC4,train_x,red_square,top_right,2025-03-20_17h00.01.364,HideSeek_v1,2022.2.5,59.97846773021423,
,5,9,1,9,-4,0,56,,train_dim1_1,13,30,,,,2,0,2,0,,,,,,,,,0,0,0,0,0,12,12,12,2,0,2,0,,,,,,,,,,,,,,,,,,,,,,,,,,,,,,,,,,,,,,,,,,,,,,,,,,,,,,,,,,,,,,,,30,,,,,,,,1162.5000194999993,1162.5000194999993,1162.5000194999993,1162.5000194999993,1162.5000194999993,left,0.5602552000018477,8,0,0,99,-2.7755575615628914e-17,0.32,left,0.48124770000140416,,,,,,,,,,,,,,,,,,,,,,,,,,,,,,,,,,,,,,,,,,,,,,,,,,,,,,,,,,,,G4CEC4,train_x,red_square,top_right,2025-03-20_17h00.01.364,HideSeek_v1,2022.2.5,59.97846773021423,
,5,9,1,9,-4,0,56,,train_dim1_1,13,30,,,,2,0,2,0,,,,,,,,,0,0,0,0,0,12,12,12,3,0,3,0,,,,,,,,,,,,,,,,,,,,,,,,,,,,,,,,,,,,,,,,,,,,,,,,,,,,,,,,,,,,,,,,30,,,,,,,,1163.0668590999994,1163.0668590999994,1163.0668590999994,1163.0668590999994,1163.0668590999994,left,0.6267391000001226,8,0,0,99,-0.08000000000000003,0.32,left,0.5448618000009446,,,,,,,,,,,,,,,,,,,,,,,,,,,,,,,,,,,,,,,,,,,,,,,,,,,,,,,,,,,,G4CEC4,train_x,red_square,top_right,2025-03-20_17h00.01.364,HideSeek_v1,2022.2.5,59.97846773021423,
,5,9,1,9,-4,0,56,,train_dim1_1,13,30,,,,2,0,2,0,,,,,,,,,0,0,0,0,0,12,12,12,4,0,4,0,,,,,,,,,,,,,,,,,,,,,,,,,,,,,,,,,,,,,,,,,,,,,,,,,,,,,,,,,,,,,,,,30,,,,,,,,1163.7017188999998,1163.7017188999998,1163.7017188999998,1163.7017188999998,1163.7017188999998,return,2.9115882000005513,9,0,0,1,-0.08000000000000003,0.32,return,2.8251197000026878,-3,-34,-0.08000000000000003,0.32,,,,,,,,,,,,,,,,,,,,,,,,,,,,,,,,,,,,,,,,,,,,,,,,,,,,,,,,G4CEC4,train_x,red_square,top_right,2025-03-20_17h00.01.364,HideSeek_v1,2022.2.5,59.97846773021423,
,9,8,9,8,0,0,16,,train_dim1_1,14,30,,,,2,0,2,0,,,,,,,,,0,0,0,0,0,13,13,13,0,0,0,0,,,,,,,,,,,,,,,,,,,,,,,,,stimuli/alien_stimuli/16.png,,,,,,,,,,,,,,,,,,,,,,,,,,,,,stimuli/alien_stimuli/56.png,56,5,15,,,,,,,30,,,,,,,,1171.400786099999,1171.400786099999,1171.400786099999,1171.400786099999,1171.400786099999,left,1.9291072999985772,9,0,0,99,0.48000000000000004,0.24,left,1.8278961000032723,,,,,1169.809233,1171.400786099999,-0.08,0.32,0.0,0.32,0.32,-0.08,0.07999999999999999,-0.08,0.32,1168.211138900002,1168.211138900002,1168.211138900002,1168.211138900002,1168.211138900002,1168.211138900002,1168.211138900002,1168.211138900002,1168.1902128000017,1.7396417000018118,return,1.5706041000012192,,,,,,,,,,,,,,,,,,,,,,,,,,,,,,,,,G4CEC4,train_x,red_square,top_right,2025-03-20_17h00.01.364,HideSeek_v1,2022.2.5,59.97846773021423,
,9,8,9,8,0,0,16,,train_dim1_1,14,30,,,,2,0,2,0,,,,,,,,,0,0,0,0,0,13,13,13,1,0,1,0,,,,,,,,,,,,,,,,,,,,,,,,,,,,,,,,,,,,,,,,,,,,,,,,,,,,,,,,,,,,,,,,30,,,,,,,,1173.312084600002,1173.312084600002,1173.312084600002,1173.312084600002,1173.312084600002,return,2.295958900002006,9,1,0,0,0.48000000000000004,0.24,return,2.214710500004003,-3,-35,0.48000000000000004,0.24,,,,,,,,,,,,,,,,,,,,,,,,,,,,,,,,,,,,,,,,,,,,,,,,,,,,,,,,G4CEC4,train_x,red_square,top_right,2025-03-20_17h00.01.364,HideSeek_v1,2022.2.5,59.97846773021423,
,9,7,4,7,-5,0,66,,train_dim1_1,15,30,,,,2,0,2,0,,,,,,,,,0,0,0,0,0,14,14,14,0,0,0,0,,,,,,,,,,,,,,,,,,,,,,,,,stimuli/alien_stimuli/66.png,,,,,,,,,,,,,,,,,,,,,,,,,,,,,stimuli/alien_stimuli/16.png,16,9,16,,,,,,,30,,,,,,,,1181.4764490999987,1181.4764490999987,1181.4764490999987,1181.4764490999987,1181.4764490999987,left,1.6386701000010362,9,1,0,99,0.48000000000000004,0.16,left,1.5590093999999226,,,,,1179.9163611000004,1181.4764490999987,0.56,0.24,0.0,0.0,0.24,0.56,0.56,0.56,0.24,1177.179360500002,1177.179360500002,1177.179360500002,1177.179360500002,1177.179360500002,1177.179360500002,1177.179360500002,1177.179360500002,1177.164580250003,2.8538817999979074,return,2.70618530000138,,,,,,,,,,,,,,,,,,,,,,,,,,,,,,,,,G4CEC4,train_x,red_square,top_right,2025-03-20_17h00.01.364,HideSeek_v1,2022.2.5,59.97846773021423,
,9,7,4,7,-5,0,66,,train_dim1_1,15,30,,,,2,0,2,0,,,,,,,,,0,0,0,0,0,14,14,14,1,0,1,0,,,,,,,,,,,,,,,,,,,,,,,,,,,,,,,,,,,,,,,,,,,,,,,,,,,,,,,,,,,,,,,,30,,,,,,,,1183.114863900002,1183.114863900002,1183.114863900002,1183.114863900002,1183.114863900002,left,0.5264576000008674,9,1,0,99,0.4,0.16,left,0.4496599000012793,,,,,,,,,,,,,,,,,,,,,,,,,,,,,,,,,,,,,,,,,,,,,,,,,,,,,,,,,,,,G4CEC4,train_x,red_square,top_right,2025-03-20_17h00.01.364,HideSeek_v1,2022.2.5,59.97846773021423,
,9,7,4,7,-5,0,66,,train_dim1_1,15,30,,,,2,0,2,0,,,,,,,,,0,0,0,0,0,14,14,14,2,0,2,0,,,,,,,,,,,,,,,,,,,,,,,,,,,,,,,,,,,,,,,,,,,,,,,,,,,,,,,,,,,,,,,,30,,,,,,,,1183.648503100001,1183.648503100001,1183.648503100001,1183.648503100001,1183.648503100001,left,0.49344660000133445,9,1,0,99,0.32,0.16,left,0.4125512999999046,,,,,,,,,,,,,,,,,,,,,,,,,,,,,,,,,,,,,,,,,,,,,,,,,,,,,,,,,,,,G4CEC4,train_x,red_square,top_right,2025-03-20_17h00.01.364,HideSeek_v1,2022.2.5,59.97846773021423,
,9,7,4,7,-5,0,66,,train_dim1_1,15,30,,,,2,0,2,0,,,,,,,,,0,0,0,0,0,14,14,14,3,0,3,0,,,,,,,,,,,,,,,,,,,,,,,,,,,,,,,,,,,,,,,,,,,,,,,,,,,,,,,,,,,,,,,,30,,,,,,,,1184.1493229000007,1184.1493229000007,1184.1493229000007,1184.1493229000007,1184.1493229000007,left,0.5600096000016492,9,1,0,99,0.24,0.16,left,0.4762702000043646,,,,,,,,,,,,,,,,,,,,,,,,,,,,,,,,,,,,,,,,,,,,,,,,,,,,,,,,,,,,G4CEC4,train_x,red_square,top_right,2025-03-20_17h00.01.364,HideSeek_v1,2022.2.5,59.97846773021423,
,9,7,4,7,-5,0,66,,train_dim1_1,15,30,,,,2,0,2,0,,,,,,,,,0,0,0,0,0,14,14,14,4,0,4,0,,,,,,,,,,,,,,,,,,,,,,,,,,,,,,,,,,,,,,,,,,,,,,,,,,,,,,,,,,,,,,,,30,,,,,,,,1184.7167630000004,1184.7167630000004,1184.7167630000004,1184.7167630000004,1184.7167630000004,left,0.6939831000017875,9,1,0,99,0.15999999999999998,0.16,left,0.6205516000045463,,,,,,,,,,,,,,,,,,,,,,,,,,,,,,,,,,,,,,,,,,,,,,,,,,,,,,,,,,,,G4CEC4,train_x,red_square,top_right,2025-03-20_17h00.01.364,HideSeek_v1,2022.2.5,59.97846773021423,
,9,7,4,7,-5,0,66,,train_dim1_1,15,30,,,,2,0,2,0,,,,,,,,,0,0,0,0,0,14,14,14,5,0,5,0,,,,,,,,,,,,,,,,,,,,,,,,,,,,,,,,,,,,,,,,,,,,,,,,,,,,,,,,,,,,,,,,30,,,,,,,,1185.4175428999988,1185.4175428999988,1185.4175428999988,1185.4175428999988,1185.4175428999988,return,3.9461825999969733,10,0,0,1,0.15999999999999998,0.16,return,3.868281899998692,-3,-40,0.15999999999999998,0.16,,,,,,,,,,,,,,,,,,,,,,,,,,,,,,,,,,,,,,,,,,,,,,,,,,,,,,,,G4CEC4,train_x,red_square,top_right,2025-03-20_17h00.01.364,HideSeek_v1,2022.2.5,59.97846773021423,
,8,8,4,8,-4,0,56,,train_dim1_1,16,30,,,,2,0,2,0,,,,,,,,,0,0,0,0,0,15,15,15,0,0,0,0,,,,,,,,,,,,,,,,,,,,,,,,,stimuli/alien_stimuli/56.png,,,,,,,,,,,,,,,,,,,,,,,,,,,,,stimuli/alien_stimuli/66.png,66,9,17,,,,,,,30,,,,,,,,1194.373251699999,1194.373251699999,1194.373251699999,1194.373251699999,1194.373251699999,left,2.2378308000006655,10,0,0,99,0.39999999999999997,0.24,left,2.1287856999988435,,,,,1192.7943651999994,1194.373251699999,0.16,0.16,0.0,0.4,0.16,0.16,0.36000000000000004,0.16,0.16,1190.954375199999,1190.954375199999,1190.954375199999,1190.954375199999,1190.954375199999,1190.954375199999,1190.954375199999,1190.954375199999,1190.9428565000032,1.9698563999991165,return,1.811722500002361,,,,,,,,,,,,,,,,,,,,,,,,,,,,,,,,,G4CEC4,train_x,red_square,top_right,2025-03-20_17h00.01.364,HideSeek_v1,2022.2.5,59.97846773021423,
,8,8,4,8,-4,0,56,,train_dim1_1,16,30,,,,2,0,2,0,,,,,,,,,0,0,0,0,0,15,15,15,1,0,1,0,,,,,,,,,,,,,,,,,,,,,,,,,,,,,,,,,,,,,,,,,,,,,,,,,,,,,,,,,,,,,,,,30,,,,,,,,1196.602153300002,1196.602153300002,1196.602153300002,1196.602153300002,1196.602153300002,left,0.6712043000006815,10,0,0,99,0.31999999999999995,0.24,left,0.5882802000014635,,,,,,,,,,,,,,,,,,,,,,,,,,,,,,,,,,,,,,,,,,,,,,,,,,,,,,,,,,,,G4CEC4,train_x,red_square,top_right,2025-03-20_17h00.01.364,HideSeek_v1,2022.2.5,59.97846773021423,
,8,8,4,8,-4,0,56,,train_dim1_1,16,30,,,,2,0,2,0,,,,,,,,,0,0,0,0,0,15,15,15,2,0,2,0,,,,,,,,,,,,,,,,,,,,,,,,,,,,,,,,,,,,,,,,,,,,,,,,,,,,,,,,,,,,,,,,30,,,,,,,,1197.2790256000008,1197.2790256000008,1197.2790256000008,1197.2790256000008,1197.2790256000008,left,0.6104564000015671,10,0,0,99,0.23999999999999994,0.24,left,0.5250091000016255,,,,,,,,,,,,,,,,,,,,,,,,,,,,,,,,,,,,,,,,,,,,,,,,,,,,,,,,,,,,G4CEC4,train_x,red_square,top_right,2025-03-20_17h00.01.364,HideSeek_v1,2022.2.5,59.97846773021423,
,8,8,4,8,-4,0,56,,train_dim1_1,16,30,,,,2,0,2,0,,,,,,,,,0,0,0,0,0,15,15,15,3,0,3,0,,,,,,,,,,,,,,,,,,,,,,,,,,,,,,,,,,,,,,,,,,,,,,,,,,,,,,,,,,,,,,,,30,,,,,,,,1197.8955655999998,1197.8955655999998,1197.8955655999998,1197.8955655999998,1197.8955655999998,left,0.5767094999973779,10,0,0,99,0.15999999999999992,0.24,left,0.4944954000020516,,,,,,,,,,,,,,,,,,,,,,,,,,,,,,,,,,,,,,,,,,,,,,,,,,,,,,,,,,,,G4CEC4,train_x,red_square,top_right,2025-03-20_17h00.01.364,HideSeek_v1,2022.2.5,59.97846773021423,
,8,8,4,8,-4,0,56,,train_dim1_1,16,30,,,,2,0,2,0,,,,,,,,,0,0,0,0,0,15,15,15,4,0,4,0,,,,,,,,,,,,,,,,,,,,,,,,,,,,,,,,,,,,,,,,,,,,,,,,,,,,,,,,,,,,,,,,30,,,,,,,,1198.4804839999997,1198.4804839999997,1198.4804839999997,1198.4804839999997,1198.4804839999997,return,1.7111455000012938,11,0,0,1,0.15999999999999992,0.24,return,1.624905000000581,-3,-44,0.15999999999999992,0.24,,,,,,,,,,,,,,,,,,,,,,,,,,,,,,,,,,,,,,,,,,,,,,,,,,,,,,,,G4CEC4,train_x,red_square,top_right,2025-03-20_17h00.01.364,HideSeek_v1,2022.2.5,59.97846773021423,
,7,9,6,9,-1,0,26,,train_dim1_1,17,30,,,,2,0,2,0,,,,,,,,,0,0,0,0,0,16,16,16,0,0,0,0,,,,,,,,,,,,,,,,,,,,,,,,,stimuli/alien_stimuli/26.png,,,,,,,,,,,,,,,,,,,,,,,,,,,,,stimuli/alien_stimuli/56.png,56,8,18,,,,,,,30,,,,,,,,1205.1878496999998,1205.1878496999998,1205.1878496999998,1205.1878496999998,1205.1878496999998,left,1.8353078000000096,11,0,0,99,0.32,0.32,left,1.7232427000017196,,,,,1203.6029748,1205.1878496999998,0.16,0.24,0.0,0.32,0.24,0.16,0.32,0.16,0.24,1201.7656419000014,1201.7656419000014,1201.7656419000014,1201.7656419000014,1201.7656419000014,1201.7656419000014,1201.7656419000014,1201.7656419000014,1201.7513980500012,1.9536410000000615,return,1.8078118999983417,,,,,,,,,,,,,,,,,,,,,,,,,,,,,,,,,G4CEC4,train_x,red_square,top_right,2025-03-20_17h00.01.364,HideSeek_v1,2022.2.5,59.97846773021423,
,7,9,6,9,-1,0,26,,train_dim1_1,17,30,,,,2,0,2,0,,,,,,,,,0,0,0,0,0,16,16,16,1,0,1,0,,,,,,,,,,,,,,,,,,,,,,,,,,,,,,,,,,,,,,,,,,,,,,,,,,,,,,,,,,,,,,,,30,,,,,,,,1207.0084057999993,1207.0084057999993,1207.0084057999993,1207.0084057999993,1207.0084057999993,right,6.846012899997731,11,0,0,99,0.4,0.32,right,6.754587100000208,,,,,,,,,,,,,,,,,,,,,,,,,,,,,,,,,,,,,,,,,,,,,,,,,,,,,,,,,,,,G4CEC4,train_x,red_square,top_right,2025-03-20_17h00.01.364,HideSeek_v1,2022.2.5,59.97846773021423,
,7,9,6,9,-1,0,26,,train_dim1_1,17,30,,,,2,0,2,0,,,,,,,,,0,0,0,0,0,16,16,16,2,0,2,0,,,,,,,,,,,,,,,,,,,,,,,,,,,,,,,,,,,,,,,,,,,,,,,,,,,,,,,,,,,,,,,,30,,,,,,,,1213.8619648000022,1213.8619648000022,1213.8619648000022,1213.8619648000022,1213.8619648000022,return,1.6436864999996033,11,1,0,0,0.4,0.32,return,1.5624347000011767,-3,-44,0.4,0.32,,,,,,,,,,,,,,,,,,,,,,,,,,,,,,,,,,,,,,,,,,,,,,,,,,,,,,,,G4CEC4,train_x,red_square,top_right,2025-03-20_17h00.01.364,HideSeek_v1,2022.2.5,59.97846773021423,
,7,6,2,6,-5,0,66,,train_dim1_1,18,30,,,,2,0,2,0,,,,,,,,,0,0,0,0,0,17,17,17,0,0,0,0,,,,,,,,,,,,,,,,,,,,,,,,,stimuli/alien_stimuli/66.png,,,,,,,,,,,,,,,,,,,,,,,,,,,,,stimuli/alien_stimuli/26.png,26,7,19,,,,,,,30,,,,,,,,1219.9353063999988,1219.9353063999988,1219.9353063999988,1219.9353063999988,1219.9353063999988,left,1.368729000001622,11,1,0,99,0.32,0.08,left,1.2785143000000971,,,,,1218.365249999999,1219.9353063999988,0.32,0.32,0.0,0.08,0.32,0.32,0.36,0.32,0.32,1217.081528300001,1217.081528300001,1217.081528300001,1217.081528300001,1217.081528300001,1217.081528300001,1217.081528300001,1217.081528300001,1217.0641646500012,1.4030219000014768,return,1.2604348999993817,,,,,,,,,,,,,,,,,,,,,,,,,,,,,,,,,G4CEC4,train_x,red_square,top_right,2025-03-20_17h00.01.364,HideSeek_v1,2022.2.5,59.97846773021423,
,7,6,2,6,-5,0,66,,train_dim1_1,18,30,,,,2,0,2,0,,,,,,,,,0,0,0,0,0,17,17,17,1,0,1,0,,,,,,,,,,,,,,,,,,,,,,,,,,,,,,,,,,,,,,,,,,,,,,,,,,,,,,,,,,,,,,,,30,,,,,,,,1221.2967764999994,1221.2967764999994,1221.2967764999994,1221.2967764999994,1221.2967764999994,left,0.37637460000041756,11,1,0,99,0.24,0.08,left,0.29488320000018575,,,,,,,,,,,,,,,,,,,,,,,,,,,,,,,,,,,,,,,,,,,,,,,,,,,,,,,,,,,,G4CEC4,train_x,red_square,top_right,2025-03-20_17h00.01.364,HideSeek_v1,2022.2.5,59.97846773021423,
,7,6,2,6,-5,0,66,,train_dim1_1,18,30,,,,2,0,2,0,,,,,,,,,0,0,0,0,0,17,17,17,2,0,2,0,,,,,,,,,,,,,,,,,,,,,,,,,,,,,,,,,,,,,,,,,,,,,,,,,,,,,,,,,,,,,,,,30,,,,,,,,1221.6805347000009,1221.6805347000009,1221.6805347000009,1221.6805347000009,1221.6805347000009,left,0.3933065000019269,11,1,0,99,0.15999999999999998,0.08,left,0.30873220000285073,,,,,,,,,,,,,,,,,,,,,,,,,,,,,,,,,,,,,,,,,,,,,,,,,,,,,,,,,,,,G4CEC4,train_x,red_square,top_right,2025-03-20_17h00.01.364,HideSeek_v1,2022.2.5,59.97846773021423,
,7,6,2,6,-5,0,66,,train_dim1_1,18,30,,,,2,0,2,0,,,,,,,,,0,0,0,0,0,17,17,17,3,0,3,0,,,,,,,,,,,,,,,,,,,,,,,,,,,,,,,,,,,,,,,,,,,,,,,,,,,,,,,,,,,,,,,,30,,,,,,,,1222.0804241000005,1222.0804241000005,1222.0804241000005,1222.0804241000005,1222.0804241000005,left,0.45994920000157435,11,1,0,99,0.07999999999999997,0.08,left,0.3807604000030551,,,,,,,,,,,,,,,,,,,,,,,,,,,,,,,,,,,,,,,,,,,,,,,,,,,,,,,,,,,,G4CEC4,train_x,red_square,top_right,2025-03-20_17h00.01.364,HideSeek_v1,2022.2.5,59.97846773021423,
,7,6,2,6,-5,0,66,,train_dim1_1,18,30,,,,2,0,2,0,,,,,,,,,0,0,0,0,0,17,17,17,4,0,4,0,,,,,,,,,,,,,,,,,,,,,,,,,,,,,,,,,,,,,,,,,,,,,,,,,,,,,,,,,,,,,,,,30,,,,,,,,1222.547671700002,1222.547671700002,1222.547671700002,1222.547671700002,1222.547671700002,left,0.4600651000000653,11,1,0,99,-2.7755575615628914e-17,0.08,left,0.37705650000134483,,,,,,,,,,,,,,,,,,,,,,,,,,,,,,,,,,,,,,,,,,,,,,,,,,,,,,,,,,,,G4CEC4,train_x,red_square,top_right,2025-03-20_17h00.01.364,HideSeek_v1,2022.2.5,59.97846773021423,
,7,6,2,6,-5,0,66,,train_dim1_1,18,30,,,,2,0,2,0,,,,,,,,,0,0,0,0,0,17,17,17,5,0,5,0,,,,,,,,,,,,,,,,,,,,,,,,,,,,,,,,,,,,,,,,,,,,,,,,,,,,,,,,,,,,,,,,30,,,,,,,,1223.0141158000006,1223.0141158000006,1223.0141158000006,1223.0141158000006,1223.0141158000006,return,1.8108382999998867,12,0,0,1,-2.7755575615628914e-17,0.08,return,1.7275386000037543,-3,-49,-2.7755575615628914e-17,0.08,,,,,,,,,,,,,,,,,,,,,,,,,,,,,,,,,,,,,,,,,,,,,,,,,,,,,,,,G4CEC4,train_x,red_square,top_right,2025-03-20_17h00.01.364,HideSeek_v1,2022.2.5,59.97846773021423,
,5,8,2,8,-3,0,46,,train_dim1_1,19,30,,,,2,0,2,0,,,,,,,,,0,0,0,0,0,18,18,18,0,0,0,0,,,,,,,,,,,,,,,,,,,,,,,,,stimuli/alien_stimuli/46.png,,,,,,,,,,,,,,,,,,,,,,,,,,,,,stimuli/alien_stimuli/66.png,66,7,20,,,,,,,30,,,,,,,,1231.433271599999,1231.433271599999,1231.433271599999,1231.433271599999,1231.433271599999,left,1.3381527999990794,12,0,0,99,0.15999999999999998,0.24,left,1.253689500001201,,,,,1229.874874600002,1231.433271599999,0,0.08,0.0,0.4,0.08,0,0.2,0,0.08,1226.391494399999,1226.391494399999,1226.391494399999,1226.391494399999,1226.391494399999,1226.391494399999,1226.391494399999,1226.391494399999,1226.3717123000017,3.588229800003319,return,3.451141600002302,,,,,,,,,,,,,,,,,,,,,,,,,,,,,,,,,G4CEC4,train_x,red_square,top_right,2025-03-20_17h00.01.364,HideSeek_v1,2022.2.5,59.97846773021423,
,5,8,2,8,-3,0,46,,train_dim1_1,19,30,,,,2,0,2,0,,,,,,,,,0,0,0,0,0,18,18,18,1,0,1,0,,,,,,,,,,,,,,,,,,,,,,,,,,,,,,,,,,,,,,,,,,,,,,,,,,,,,,,,,,,,,,,,30,,,,,,,,1232.7730198999998,1232.7730198999998,1232.7730198999998,1232.7730198999998,1232.7730198999998,left,1.477090100001078,12,0,0,99,0.07999999999999997,0.24,left,1.3903010000030918,,,,,,,,,,,,,,,,,,,,,,,,,,,,,,,,,,,,,,,,,,,,,,,,,,,,,,,,,,,,G4CEC4,train_x,red_square,top_right,2025-03-20_17h00.01.364,HideSeek_v1,2022.2.5,59.97846773021423,
,5,8,2,8,-3,0,46,,train_dim1_1,19,30,,,,2,0,2,0,,,,,,,,,0,0,0,0,0,18,18,18,2,0,2,0,,,,,,,,,,,,,,,,,,,,,,,,,,,,,,,,,,,,,,,,,,,,,,,,,,,,,,,,,,,,,,,,30,,,,,,,,1234.2579833000018,1234.2579833000018,1234.2579833000018,1234.2579833000018,1234.2579833000018,left,0.7597099999984493,12,0,0,99,-2.7755575615628914e-17,0.24,left,0.6867566000037186,,,,,,,,,,,,,,,,,,,,,,,,,,,,,,,,,,,,,,,,,,,,,,,,,,,,,,,,,,,,G4CEC4,train_x,red_square,top_right,2025-03-20_17h00.01.364,HideSeek_v1,2022.2.5,59.97846773021423,
,5,8,2,8,-3,0,46,,train_dim1_1,19,30,,,,2,0,2,0,,,,,,,,,0,0,0,0,0,18,18,18,3,0,3,0,,,,,,,,,,,,,,,,,,,,,,,,,,,,,,,,,,,,,,,,,,,,,,,,,,,,,,,,,,,,,,,,30,,,,,,,,1235.024350300002,1235.024350300002,1235.024350300002,1235.024350300002,1235.024350300002,left,0.6100635000002512,12,0,0,99,-0.08000000000000003,0.24,left,0.5267372999987856,,,,,,,,,,,,,,,,,,,,,,,,,,,,,,,,,,,,,,,,,,,,,,,,,,,,,,,,,,,,G4CEC4,train_x,red_square,top_right,2025-03-20_17h00.01.364,HideSeek_v1,2022.2.5,59.97846773021423,
,5,8,2,8,-3,0,46,,train_dim1_1,19,30,,,,2,0,2,0,,,,,,,,,0,0,0,0,0,18,18,18,4,0,4,0,,,,,,,,,,,,,,,,,,,,,,,,,,,,,,,,,,,,,,,,,,,,,,,,,,,,,,,,,,,,,,,,30,,,,,,,,1235.6414871999987,1235.6414871999987,1235.6414871999987,1235.6414871999987,1235.6414871999987,return,5.04691449999882,12,1,0,0,-0.08000000000000003,0.24,return,4.964552600002207,-3,-53,-0.08000000000000003,0.24,,,,,,,,,,,,,,,,,,,,,,,,,,,,,,,,,,,,,,,,,,,,,,,,,,,,,,,,G4CEC4,train_x,red_square,top_right,2025-03-20_17h00.01.364,HideSeek_v1,2022.2.5,59.97846773021423,
,5,6,5,6,0,0,16,,train_dim1_1,20,30,,,,2,0,2,0,,,,,,,,,0,0,0,0,0,19,19,19,0,0,0,0,,,,,,,,,,,,,,,,,,,,,,,,,stimuli/alien_stimuli/16.png,,,,,,,,,,,,,,,,,,,,,,,,,,,,,stimuli/alien_stimuli/46.png,46,5,21,,,,,,,30,,,,,,,,1247.6846532000018,1247.6846532000018,1247.6846532000018,1247.6846532000018,1247.6846532000018,up,3.4062568999979703,12,1,0,99,0.24,0.16,up,3.311929500003316,,,,,1246.121824599999,1247.6846532000018,0,0.24,0.0,0.24,0.24,0,0.12,0,0.24,1242.2656535999995,1242.2656535999995,1242.2656535999995,1242.2656535999995,1242.2656535999995,1242.2656535999995,1242.2656535999995,1242.2656535999995,1242.251730950004,3.971657599999162,return,3.8310184000038134,,,,,,,,,,,,,,,,,,,,,,,,,,,,,,,,,G4CEC4,train_x,red_square,top_right,2025-03-20_17h00.01.364,HideSeek_v1,2022.2.5,59.97846773021423,
,5,6,5,6,0,0,16,,train_dim1_1,20,30,,,,2,0,2,0,,,,,,,,,0,0,0,0,0,19,19,19,1,0,1,0,,,,,,,,,,,,,,,,,,,,,,,,,,,,,,,,,,,,,,,,,,,,,,,,,,,,,,,,,,,,,,,,30,,,,,,,,1251.0923551000014,1251.0923551000014,1251.0923551000014,1251.0923551000014,1251.0923551000014,down,0.5431614999979502,12,1,0,99,0.24,0.08,down,0.46009739999863086,,,,,,,,,,,,,,,,,,,,,,,,,,,,,,,,,,,,,,,,,,,,,,,,,,,,,,,,,,,,G4CEC4,train_x,red_square,top_right,2025-03-20_17h00.01.364,HideSeek_v1,2022.2.5,59.97846773021423,
,5,6,5,6,0,0,16,,train_dim1_1,20,30,,,,2,0,2,0,,,,,,,,,0,0,0,0,0,19,19,19,2,0,2,0,,,,,,,,,,,,,,,,,,,,,,,,,,,,,,,,,,,,,,,,,,,,,,,,,,,,,,,,,,,,,,,,30,,,,,,,,1251.6442838000003,1251.6442838000003,1251.6442838000003,1251.6442838000003,1251.6442838000003,return,0.7268055999993521,13,0,0,1,0.24,0.08,return,0.6347098000005644,-3,-53,0.24,0.08,,,,,,,,,,,,,,,,,,,,,,,,,,,,,,,,,,,,,,,,,,,,,,,,,,,,,,,,G4CEC4,train_x,red_square,top_right,2025-03-20_17h00.01.364,HideSeek_v1,2022.2.5,59.97846773021423,
,9,7,6,7,-3,0,46,,train_dim1_1,21,30,,,,2,0,2,0,,,,,,,,,0,0,0,0,0,20,20,20,0,0,0,0,,,,,,,,,,,,,,,,,,,,,,,,,stimuli/alien_stimuli/46.png,,,,,,,,,,,,,,,,,,,,,,,,,,,,,stimuli/alien_stimuli/16.png,16,5,22,,,,,,,30,,,,,,,,1257.190430300001,1257.190430300001,1257.190430300001,1257.190430300001,1257.190430300001,left,1.6701376000019081,13,0,0,99,0.48000000000000004,0.16,left,1.571266500002821,,,,,1255.612771600001,1257.190430300001,0.24,0.08,0.0,0.0,0.08,0.24,0.24,0.24,0.08,1253.954023000002,1253.954023000002,1253.954023000002,1253.954023000002,1253.954023000002,1253.954023000002,1253.954023000002,1253.954023000002,1253.9448498000036,1.7866426000000502,return,1.632649200000742,,,,,,,,,,,,,,,,,,,,,,,,,,,,,,,,,G4CEC4,train_x,red_square,top_right,2025-03-20_17h00.01.364,HideSeek_v1,2022.2.5,59.97846773021423,
,9,7,6,7,-3,0,46,,train_dim1_1,21,30,,,,2,0,2,0,,,,,,,,,0,0,0,0,0,20,20,20,1,0,1,0,,,,,,,,,,,,,,,,,,,,,,,,,,,,,,,,,,,,,,,,,,,,,,,,,,,,,,,,,,,,,,,,30,,,,,,,,1258.8451561000002,1258.8451561000002,1258.8451561000002,1258.8451561000002,1258.8451561000002,left,0.5095054000012169,13,0,0,99,0.4,0.16,left,0.426627600001666,,,,,,,,,,,,,,,,,,,,,,,,,,,,,,,,,,,,,,,,,,,,,,,,,,,,,,,,,,,,G4CEC4,train_x,red_square,top_right,2025-03-20_17h00.01.364,HideSeek_v1,2022.2.5,59.97846773021423,
,9,7,6,7,-3,0,46,,train_dim1_1,21,30,,,,2,0,2,0,,,,,,,,,0,0,0,0,0,20,20,20,2,0,2,0,,,,,,,,,,,,,,,,,,,,,,,,,,,,,,,,,,,,,,,,,,,,,,,,,,,,,,,,,,,,,,,,30,,,,,,,,1259.3624840000011,1259.3624840000011,1259.3624840000011,1259.3624840000011,1259.3624840000011,left,0.46035249999840744,13,0,0,99,0.32,0.16,left,0.37717910000355914,,,,,,,,,,,,,,,,,,,,,,,,,,,,,,,,,,,,,,,,,,,,,,,,,,,,,,,,,,,,G4CEC4,train_x,red_square,top_right,2025-03-20_17h00.01.364,HideSeek_v1,2022.2.5,59.97846773021423,
,9,7,6,7,-3,0,46,,train_dim1_1,21,30,,,,2,0,2,0,,,,,,,,,0,0,0,0,0,20,20,20,3,0,3,0,,,,,,,,,,,,,,,,,,,,,,,,,,,,,,,,,,,,,,,,,,,,,,,,,,,,,,,,,,,,,,,,30,,,,,,,,1259.8287870000022,1259.8287870000022,1259.8287870000022,1259.8287870000022,1259.8287870000022,left,0.47661429999789107,13,0,0,99,0.24,0.16,left,0.4002433000023302,,,,,,,,,,,,,,,,,,,,,,,,,,,,,,,,,,,,,,,,,,,,,,,,,,,,,,,,,,,,G4CEC4,train_x,red_square,top_right,2025-03-20_17h00.01.364,HideSeek_v1,2022.2.5,59.97846773021423,
,9,7,6,7,-3,0,46,,train_dim1_1,21,30,,,,2,0,2,0,,,,,,,,,0,0,0,0,0,20,20,20,4,0,4,0,,,,,,,,,,,,,,,,,,,,,,,,,,,,,,,,,,,,,,,,,,,,,,,,,,,,,,,,,,,,,,,,30,,,,,,,,1260.3123502000017,1260.3123502000017,1260.3123502000017,1260.3123502000017,1260.3123502000017,return,5.6811152000009315,13,1,0,0,0.24,0.16,return,5.595861500001774,-3,-57,0.24,0.16,,,,,,,,,,,,,,,,,,,,,,,,,,,,,,,,,,,,,,,,,,,,,,,,,,,,,,,,G4CEC4,train_x,red_square,top_right,2025-03-20_17h00.01.364,HideSeek_v1,2022.2.5,59.97846773021423,
,6,5,5,5,-1,0,26,,train_dim1_1,22,30,,,,2,0,2,0,,,,,,,,,0,0,0,0,0,21,21,21,0,0,0,0,,,,,,,,,,,,,,,,,,,,,,,,,stimuli/alien_stimuli/26.png,,,,,,,,,,,,,,,,,,,,,,,,,,,,,stimuli/alien_stimuli/46.png,46,9,23,,,,,,,30,,,,,,,,1273.873012600001,1273.873012600001,1273.873012600001,1273.873012600001,1273.873012600001,left,1.5214935999974841,13,1,0,99,0.24,0,left,1.4393171000010625,,,,,1272.310099800001,1273.873012600001,0.32,0.16,0.0,0.24,0.16,0.32,0.44000000000000006,0.32,0.16,1267.5690474000003,1267.5690474000003,1267.5690474000003,1267.5690474000003,1267.5690474000003,1267.5690474000003,1267.5690474000003,1267.5690474000003,1267.557114550004,4.855098899999575,return,4.72408440000072,,,,,,,,,,,,,,,,,,,,,,,,,,,,,,,,,G4CEC4,train_x,red_square,top_right,2025-03-20_17h00.01.364,HideSeek_v1,2022.2.5,59.97846773021423,
,6,5,5,5,-1,0,26,,train_dim1_1,22,30,,,,2,0,2,0,,,,,,,,,0,0,0,0,0,21,21,21,1,0,1,0,,,,,,,,,,,,,,,,,,,,,,,,,,,,,,,,,,,,,,,,,,,,,,,,,,,,,,,,,,,,,,,,30,,,,,,,,1275.397305800001,1275.397305800001,1275.397305800001,1275.397305800001,1275.397305800001,return,0.8092101999973238,14,0,0,1,0.24,0,return,0.719060499999614,-3,-58,0.24,0,,,,,,,,,,,,,,,,,,,,,,,,,,,,,,,,,,,,,,,,,,,,,,,,,,,,,,,,G4CEC4,train_x,red_square,top_right,2025-03-20_17h00.01.364,HideSeek_v1,2022.2.5,59.97846773021423,
,7,6,2,6,-5,0,66,,train_dim1_1,23,30,,,,2,0,2,0,,,,,,,,,0,0,0,0,0,22,22,22,0,0,0,0,,,,,,,,,,,,,,,,,,,,,,,,,stimuli/alien_stimuli/66.png,,,,,,,,,,,,,,,,,,,,,,,,,,,,,stimuli/alien_stimuli/26.png,26,6,24,,,,,,,30,,,,,,,,1284.3432528000012,1284.3432528000012,1284.3432528000012,1284.3432528000012,1284.3432528000012,left,1.7725961999967694,14,0,0,99,0.32,0.08,left,1.6865519999992102,,,,,1282.7852735999986,1284.3432528000012,0.24,0,0.0,0.08,0.0,0.24,0.28,0.24,0,1277.7730293999994,1277.7730293999994,1277.7730293999994,1277.7730293999994,1277.7730293999994,1277.7730293999994,1277.7730293999994,1277.7730293999994,1277.7641887500035,5.123200199999701,return,4.98985520000133,,,,,,,,,,,,,,,,,,,,,,,,,,,,,,,,,G4CEC4,train_x,red_square,top_right,2025-03-20_17h00.01.364,HideSeek_v1,2022.2.5,59.97846773021423,
,7,6,2,6,-5,0,66,,train_dim1_1,23,30,,,,2,0,2,0,,,,,,,,,0,0,0,0,0,22,22,22,1,0,1,0,,,,,,,,,,,,,,,,,,,,,,,,,,,,,,,,,,,,,,,,,,,,,,,,,,,,,,,,,,,,,,,,30,,,,,,,,1286.1178876000013,1286.1178876000013,1286.1178876000013,1286.1178876000013,1286.1178876000013,left,0.4597393000003649,14,0,0,99,0.24,0.08,left,0.3757169000018621,,,,,,,,,,,,,,,,,,,,,,,,,,,,,,,,,,,,,,,,,,,,,,,,,,,,,,,,,,,,G4CEC4,train_x,red_square,top_right,2025-03-20_17h00.01.364,HideSeek_v1,2022.2.5,59.97846773021423,
,7,6,2,6,-5,0,66,,train_dim1_1,23,30,,,,2,0,2,0,,,,,,,,,0,0,0,0,0,22,22,22,2,0,2,0,,,,,,,,,,,,,,,,,,,,,,,,,,,,,,,,,,,,,,,,,,,,,,,,,,,,,,,,,,,,,,,,30,,,,,,,,1286.5864800000018,1286.5864800000018,1286.5864800000018,1286.5864800000018,1286.5864800000018,left,0.39131840000118245,14,0,0,99,0.15999999999999998,0.08,left,0.3064524000037636,,,,,,,,,,,,,,,,,,,,,,,,,,,,,,,,,,,,,,,,,,,,,,,,,,,,,,,,,,,,G4CEC4,train_x,red_square,top_right,2025-03-20_17h00.01.364,HideSeek_v1,2022.2.5,59.97846773021423,
,7,6,2,6,-5,0,66,,train_dim1_1,23,30,,,,2,0,2,0,,,,,,,,,0,0,0,0,0,22,22,22,3,0,3,0,,,,,,,,,,,,,,,,,,,,,,,,,,,,,,,,,,,,,,,,,,,,,,,,,,,,,,,,,,,,,,,,30,,,,,,,,1286.9837953999995,1286.9837953999995,1286.9837953999995,1286.9837953999995,1286.9837953999995,left,0.4103700999985449,14,0,0,99,0.07999999999999997,0.08,left,0.32764880000104313,,,,,,,,,,,,,,,,,,,,,,,,,,,,,,,,,,,,,,,,,,,,,,,,,,,,,,,,,,,,G4CEC4,train_x,red_square,top_right,2025-03-20_17h00.01.364,HideSeek_v1,2022.2.5,59.97846773021423,
,7,6,2,6,-5,0,66,,train_dim1_1,23,30,,,,2,0,2,0,,,,,,,,,0,0,0,0,0,22,22,22,4,0,4,0,,,,,,,,,,,,,,,,,,,,,,,,,,,,,,,,,,,,,,,,,,,,,,,,,,,,,,,,,,,,,,,,30,,,,,,,,1287.4017789999998,1287.4017789999998,1287.4017789999998,1287.4017789999998,1287.4017789999998,left,0.6102250000003551,14,0,0,99,-2.7755575615628914e-17,0.08,left,0.5233050000024377,,,,,,,,,,,,,,,,,,,,,,,,,,,,,,,,,,,,,,,,,,,,,,,,,,,,,,,,,,,,G4CEC4,train_x,red_square,top_right,2025-03-20_17h00.01.364,HideSeek_v1,2022.2.5,59.97846773021423,
,7,6,2,6,-5,0,66,,train_dim1_1,23,30,,,,2,0,2,0,,,,,,,,,0,0,0,0,0,22,22,22,5,0,5,0,,,,,,,,,,,,,,,,,,,,,,,,,,,,,,,,,,,,,,,,,,,,,,,,,,,,,,,,,,,,,,,,30,,,,,,,,1288.0196766000008,1288.0196766000008,1288.0196766000008,1288.0196766000008,1288.0196766000008,return,3.012069500000507,15,0,0,1,-2.7755575615628914e-17,0.08,return,2.9291255999996793,-3,-63,-2.7755575615628914e-17,0.08,,,,,,,,,,,,,,,,,,,,,,,,,,,,,,,,,,,,,,,,,,,,,,,,,,,,,,,,G4CEC4,train_x,red_square,top_right,2025-03-20_17h00.01.364,HideSeek_v1,2022.2.5,59.97846773021423,
,9,9,5,9,-4,0,56,,train_dim1_1,24,30,,,,2,0,2,0,,,,,,,,,0,0,0,0,0,23,23,23,0,0,0,0,,,,,,,,,,,,,,,,,,,,,,,,,stimuli/alien_stimuli/56.png,,,,,,,,,,,,,,,,,,,,,,,,,,,,,stimuli/alien_stimuli/66.png,66,7,25,,,,,,,30,,,,,,,,1296.8071808999994,1296.8071808999994,1296.8071808999994,1296.8071808999994,1296.8071808999994,left,3.3563564000032784,15,0,0,99,0.48000000000000004,0.32,left,3.2623940000012226,,,,,1295.2459544000012,1296.8071808999994,0,0.08,0.0,0.4,0.08,0,0.2,0,0.08,1292.6123676999996,1292.6123676999996,1292.6123676999996,1292.6123676999996,1292.6123676999996,1292.6123676999996,1292.6123676999996,1292.6123676999996,1292.5936040500023,2.7547769000011613,return,2.617713100004039,,,,,,,,,,,,,,,,,,,,,,,,,,,,,,,,,G4CEC4,train_x,red_square,top_right,2025-03-20_17h00.01.364,HideSeek_v1,2022.2.5,59.97846773021423,
,9,9,5,9,-4,0,56,,train_dim1_1,24,30,,,,2,0,2,0,,,,,,,,,0,0,0,0,0,23,23,23,1,0,1,0,,,,,,,,,,,,,,,,,,,,,,,,,,,,,,,,,,,,,,,,,,,,,,,,,,,,,,,,,,,,,,,,30,,,,,,,,1300.1649701999995,1300.1649701999995,1300.1649701999995,1300.1649701999995,1300.1649701999995,left,0.7101473999973678,15,0,0,99,0.4,0.32,left,0.6262711999988824,,,,,,,,,,,,,,,,,,,,,,,,,,,,,,,,,,,,,,,,,,,,,,,,,,,,,,,,,,,,G4CEC4,train_x,red_square,top_right,2025-03-20_17h00.01.364,HideSeek_v1,2022.2.5,59.97846773021423,
,9,9,5,9,-4,0,56,,train_dim1_1,24,30,,,,2,0,2,0,,,,,,,,,0,0,0,0,0,23,23,23,2,0,2,0,,,,,,,,,,,,,,,,,,,,,,,,,,,,,,,,,,,,,,,,,,,,,,,,,,,,,,,,,,,,,,,,30,,,,,,,,1300.881653200002,1300.881653200002,1300.881653200002,1300.881653200002,1300.881653200002,left,0.559943199998088,15,0,0,99,0.32,0.32,left,0.4715847000006761,,,,,,,,,,,,,,,,,,,,,,,,,,,,,,,,,,,,,,,,,,,,,,,,,,,,,,,,,,,,G4CEC4,train_x,red_square,top_right,2025-03-20_17h00.01.364,HideSeek_v1,2022.2.5,59.97846773021423,
,9,9,5,9,-4,0,56,,train_dim1_1,24,30,,,,2,0,2,0,,,,,,,,,0,0,0,0,0,23,23,23,3,0,3,0,,,,,,,,,,,,,,,,,,,,,,,,,,,,,,,,,,,,,,,,,,,,,,,,,,,,,,,,,,,,,,,,30,,,,,,,,1301.4489858000015,1301.4489858000015,1301.4489858000015,1301.4489858000015,1301.4489858000015,left,0.4767545000031532,15,0,0,99,0.24,0.32,left,0.4022909000013897,,,,,,,,,,,,,,,,,,,,,,,,,,,,,,,,,,,,,,,,,,,,,,,,,,,,,,,,,,,,G4CEC4,train_x,red_square,top_right,2025-03-20_17h00.01.364,HideSeek_v1,2022.2.5,59.97846773021423,
,9,9,5,9,-4,0,56,,train_dim1_1,24,30,,,,2,0,2,0,,,,,,,,,0,0,0,0,0,23,23,23,4,0,4,0,,,,,,,,,,,,,,,,,,,,,,,,,,,,,,,,,,,,,,,,,,,,,,,,,,,,,,,,,,,,,,,,30,,,,,,,,1301.9332434999997,1301.9332434999997,1301.9332434999997,1301.9332434999997,1301.9332434999997,return,3.9127578000006906,16,0,0,1,0.24,0.32,return,3.8334471000016492,-3,-67,0.24,0.32,,,,,,,,,,,,,,,,,,,,,,,,,,,,,,,,,,,,,,,,,,,,,,,,,,,,,,,,G4CEC4,train_x,red_square,top_right,2025-03-20_17h00.01.364,HideSeek_v1,2022.2.5,59.97846773021423,
,8,5,8,5,0,0,16,,train_dim1_1,25,30,,,,2,0,2,0,,,,,,,,,0,0,0,0,0,24,24,24,0,0,0,0,,,,,,,,,,,,,,,,,,,,,,,,,stimuli/alien_stimuli/16.png,,,,,,,,,,,,,,,,,,,,,,,,,,,,,stimuli/alien_stimuli/56.png,56,9,26,,,,,,,30,,,,,,,,1311.2182388,1311.2182388,1311.2182388,1311.2182388,1311.2182388,up,2.905695500001457,16,0,0,99,0.48,0.08,up,2.807363100000657,,,,,1309.6410213999989,1311.2182388,0.24,0.32,0.0,0.32,0.32,0.24,0.4,0.24,0.32,1307.4426232000005,1307.4426232000005,1307.4426232000005,1307.4426232000005,1307.4426232000005,1307.4426232000005,1307.4426232000005,1307.4426232000005,1307.4225082000028,2.337132999997266,return,2.1681631000028574,,,,,,,,,,,,,,,,,,,,,,,,,,,,,,,,,G4CEC4,train_x,red_square,top_right,2025-03-20_17h00.01.364,HideSeek_v1,2022.2.5,59.97846773021423,
,8,5,8,5,0,0,16,,train_dim1_1,25,30,,,,2,0,2,0,,,,,,,,,0,0,0,0,0,24,24,24,1,0,1,0,,,,,,,,,,,,,,,,,,,,,,,,,,,,,,,,,,,,,,,,,,,,,,,,,,,,,,,,,,,,,,,,30,,,,,,,,1314.113582599999,1314.113582599999,1314.113582599999,1314.113582599999,1314.113582599999,down,0.4924888000023202,16,0,0,99,0.48,0.0,down,0.40979670000160695,,,,,,,,,,,,,,,,,,,,,,,,,,,,,,,,,,,,,,,,,,,,,,,,,,,,,,,,,,,,G4CEC4,train_x,red_square,top_right,2025-03-20_17h00.01.364,HideSeek_v1,2022.2.5,59.97846773021423,
,8,5,8,5,0,0,16,,train_dim1_1,25,30,,,,2,0,2,0,,,,,,,,,0,0,0,0,0,24,24,24,2,0,2,0,,,,,,,,,,,,,,,,,,,,,,,,,,,,,,,,,,,,,,,,,,,,,,,,,,,,,,,,,,,,,,,,30,,,,,,,,1314.6116232999993,1314.6116232999993,1314.6116232999993,1314.6116232999993,1314.6116232999993,return,0.9107108999996854,17,0,0,1,0.48,0.0,return,0.8330081000021892,-3,-67,0.48,0.0,,,,,,,,,,,,,,,,,,,,,,,,,,,,,,,,,,,,,,,,,,,,,,,,,,,,,,,,G4CEC4,train_x,red_square,top_right,2025-03-20_17h00.01.364,HideSeek_v1,2022.2.5,59.97846773021423,
,6,6,1,6,-5,0,66,,train_dim1_1,26,30,,,,2,0,2,0,,,,,,,,,0,0,0,0,0,25,25,25,0,0,0,0,,,,,,,,,,,,,,,,,,,,,,,,,stimuli/alien_stimuli/66.png,,,,,,,,,,,,,,,,,,,,,,,,,,,,,stimuli/alien_stimuli/16.png,16,8,27,,,,,,,30,,,,,,,,1321.8331096000002,1321.8331096000002,1321.8331096000002,1321.8331096000002,1321.8331096000002,left,1.4324126999999862,17,0,0,99,0.24,0.08,left,1.3516137000005983,,,,,1320.2664277000003,1321.8331096000002,0.48,0,0.0,0.0,0.0,0.48,0.48,0.48,0,1317.0925577999988,1317.0925577999988,1317.0925577999988,1317.0925577999988,1317.0925577999988,1317.0925577999988,1317.0925577999988,1317.0925577999988,1317.080429850001,3.2881436999996367,return,3.1512692000032985,,,,,,,,,,,,,,,,,,,,,,,,,,,,,,,,,G4CEC4,train_x,red_square,top_right,2025-03-20_17h00.01.364,HideSeek_v1,2022.2.5,59.97846773021423,
,6,6,1,6,-5,0,66,,train_dim1_1,26,30,,,,2,0,2,0,,,,,,,,,0,0,0,0,0,25,25,25,1,0,1,0,,,,,,,,,,,,,,,,,,,,,,,,,,,,,,,,,,,,,,,,,,,,,,,,,,,,,,,,,,,,,,,,30,,,,,,,,1323.2656567000013,1323.2656567000013,1323.2656567000013,1323.2656567000013,1323.2656567000013,left,0.5600272999981826,17,0,0,99,0.15999999999999998,0.08,left,0.48477980000461685,,,,,,,,,,,,,,,,,,,,,,,,,,,,,,,,,,,,,,,,,,,,,,,,,,,,,,,,,,,,G4CEC4,train_x,red_square,top_right,2025-03-20_17h00.01.364,HideSeek_v1,2022.2.5,59.97846773021423,
,6,6,1,6,-5,0,66,,train_dim1_1,26,30,,,,2,0,2,0,,,,,,,,,0,0,0,0,0,25,25,25,2,0,2,0,,,,,,,,,,,,,,,,,,,,,,,,,,,,,,,,,,,,,,,,,,,,,,,,,,,,,,,,,,,,,,,,30,,,,,,,,1323.8317977000006,1323.8317977000006,1323.8317977000006,1323.8317977000006,1323.8317977000006,left,0.443159000002197,17,0,0,99,0.07999999999999997,0.08,left,0.35940560000017285,,,,,,,,,,,,,,,,,,,,,,,,,,,,,,,,,,,,,,,,,,,,,,,,,,,,,,,,,,,,G4CEC4,train_x,red_square,top_right,2025-03-20_17h00.01.364,HideSeek_v1,2022.2.5,59.97846773021423,
,6,6,1,6,-5,0,66,,train_dim1_1,26,30,,,,2,0,2,0,,,,,,,,,0,0,0,0,0,25,25,25,3,0,3,0,,,,,,,,,,,,,,,,,,,,,,,,,,,,,,,,,,,,,,,,,,,,,,,,,,,,,,,,,,,,,,,,30,,,,,,,,1324.2822314000005,1324.2822314000005,1324.2822314000005,1324.2822314000005,1324.2822314000005,left,0.40993150000213063,17,0,0,99,-2.7755575615628914e-17,0.08,left,0.3255838000004587,,,,,,,,,,,,,,,,,,,,,,,,,,,,,,,,,,,,,,,,,,,,,,,,,,,,,,,,,,,,G4CEC4,train_x,red_square,top_right,2025-03-20_17h00.01.364,HideSeek_v1,2022.2.5,59.97846773021423,
,6,6,1,6,-5,0,66,,train_dim1_1,26,30,,,,2,0,2,0,,,,,,,,,0,0,0,0,0,25,25,25,4,0,4,0,,,,,,,,,,,,,,,,,,,,,,,,,,,,,,,,,,,,,,,,,,,,,,,,,,,,,,,,,,,,,,,,30,,,,,,,,1324.6997728999995,1324.6997728999995,1324.6997728999995,1324.6997728999995,1324.6997728999995,left,0.4100338999996893,17,0,0,99,-0.08000000000000003,0.08,left,0.3310310999986541,,,,,,,,,,,,,,,,,,,,,,,,,,,,,,,,,,,,,,,,,,,,,,,,,,,,,,,,,,,,G4CEC4,train_x,red_square,top_right,2025-03-20_17h00.01.364,HideSeek_v1,2022.2.5,59.97846773021423,
,6,6,1,6,-5,0,66,,train_dim1_1,26,30,,,,2,0,2,0,,,,,,,,,0,0,0,0,0,25,25,25,5,0,5,0,,,,,,,,,,,,,,,,,,,,,,,,,,,,,,,,,,,,,,,,,,,,,,,,,,,,,,,,,,,,,,,,30,,,,,,,,1325.1186314000006,1325.1186314000006,1325.1186314000006,1325.1186314000006,1325.1186314000006,return,1.6444185000000289,18,0,0,1,-0.08000000000000003,0.08,return,1.5596517000012682,-3,-72,-0.08000000000000003,0.08,,,,,,,,,,,,,,,,,,,,,,,,,,,,,,,,,,,,,,,,,,,,,,,,,,,,,,,,G4CEC4,train_x,red_square,top_right,2025-03-20_17h00.01.364,HideSeek_v1,2022.2.5,59.97846773021423,
,5,6,2,6,-3,0,46,,train_dim1_1,27,30,,,,2,0,2,0,,,,,,,,,0,0,0,0,0,26,26,26,0,0,0,0,,,,,,,,,,,,,,,,,,,,,,,,,stimuli/alien_stimuli/46.png,,,,,,,,,,,,,,,,,,,,,,,,,,,,,stimuli/alien_stimuli/66.png,66,6,28,,,,,,,30,,,,,,,,1332.1517544000017,1332.1517544000017,1332.1517544000017,1332.1517544000017,1332.1517544000017,left,2.2056298999996216,18,0,0,99,0.15999999999999998,0.08,left,2.1043876000003365,,,,,1330.574713099999,1332.1517544000017,-0.08,0.08,0.0,0.4,0.08,-0.08,0.12,-0.08,0.08,1328.3243204999999,1328.3243204999999,1328.3243204999999,1328.3243204999999,1328.3243204999999,1328.3243204999999,1328.3243204999999,1328.3243204999999,1328.306560500004,2.3541747000017494,return,2.2297494000013103,,,,,,,,,,,,,,,,,,,,,,,,,,,,,,,,,G4CEC4,train_x,red_square,top_right,2025-03-20_17h00.01.364,HideSeek_v1,2022.2.5,59.97846773021423,
,5,6,2,6,-3,0,46,,train_dim1_1,27,30,,,,2,0,2,0,,,,,,,,,0,0,0,0,0,26,26,26,1,0,1,0,,,,,,,,,,,,,,,,,,,,,,,,,,,,,,,,,,,,,,,,,,,,,,,,,,,,,,,,,,,,,,,,30,,,,,,,,1334.3406920999987,1334.3406920999987,1334.3406920999987,1334.3406920999987,1334.3406920999987,left,0.5597290999976394,18,0,0,99,0.07999999999999997,0.08,left,0.4779152000010072,,,,,,,,,,,,,,,,,,,,,,,,,,,,,,,,,,,,,,,,,,,,,,,,,,,,,,,,,,,,G4CEC4,train_x,red_square,top_right,2025-03-20_17h00.01.364,HideSeek_v1,2022.2.5,59.97846773021423,
,5,6,2,6,-3,0,46,,train_dim1_1,27,30,,,,2,0,2,0,,,,,,,,,0,0,0,0,0,26,26,26,2,0,2,0,,,,,,,,,,,,,,,,,,,,,,,,,,,,,,,,,,,,,,,,,,,,,,,,,,,,,,,,,,,,,,,,30,,,,,,,,1334.9076643000008,1334.9076643000008,1334.9076643000008,1334.9076643000008,1334.9076643000008,left,0.727108600000065,18,0,0,99,-2.7755575615628914e-17,0.08,left,0.654775700000755,,,,,,,,,,,,,,,,,,,,,,,,,,,,,,,,,,,,,,,,,,,,,,,,,,,,,,,,,,,,G4CEC4,train_x,red_square,top_right,2025-03-20_17h00.01.364,HideSeek_v1,2022.2.5,59.97846773021423,
,5,6,2,6,-3,0,46,,train_dim1_1,27,30,,,,2,0,2,0,,,,,,,,,0,0,0,0,0,26,26,26,3,0,3,0,,,,,,,,,,,,,,,,,,,,,,,,,,,,,,,,,,,,,,,,,,,,,,,,,,,,,,,,,,,,,,,,30,,,,,,,,1335.6422095999988,1335.6422095999988,1335.6422095999988,1335.6422095999988,1335.6422095999988,return,6.615105900000344,19,0,0,1,-2.7755575615628914e-17,0.08,return,6.537822199999937,-3,-75,-2.7755575615628914e-17,0.08,,,,,,,,,,,,,,,,,,,,,,,,,,,,,,,,,,,,,,,,,,,,,,,,,,,,,,,,G4CEC4,train_x,red_square,top_right,2025-03-20_17h00.01.364,HideSeek_v1,2022.2.5,59.97846773021423,
,8,6,7,6,-1,0,26,,train_dim1_1,28,30,,,,2,0,2,0,,,,,,,,,0,0,0,0,0,27,27,27,0,0,0,0,,,,,,,,,,,,,,,,,,,,,,,,,stimuli/alien_stimuli/26.png,,,,,,,,,,,,,,,,,,,,,,,,,,,,,stimuli/alien_stimuli/46.png,46,5,29,,,,,,,30,,,,,,,,1347.7509046000014,1347.7509046000014,1347.7509046000014,1347.7509046000014,1347.7509046000014,left,2.72104870000112,19,0,0,99,0.39999999999999997,0.08,left,2.621981800002686,,,,,1346.1713932999992,1347.7509046000014,0,0.08,0.0,0.24,0.08,0,0.12,0,0.08,1343.8467111999998,1343.8467111999998,1343.8467111999998,1343.8467111999998,1343.8467111999998,1343.8467111999998,1343.8467111999998,1343.8467111999998,1343.8365433000015,2.4535971999976027,return,2.30899270000009,,,,,,,,,,,,,,,,,,,,,,,,,,,,,,,,,G4CEC4,train_x,red_square,top_right,2025-03-20_17h00.01.364,HideSeek_v1,2022.2.5,59.97846773021423,
,8,6,7,6,-1,0,26,,train_dim1_1,28,30,,,,2,0,2,0,,,,,,,,,0,0,0,0,0,27,27,27,1,0,1,0,,,,,,,,,,,,,,,,,,,,,,,,,,,,,,,,,,,,,,,,,,,,,,,,,,,,,,,,,,,,,,,,30,,,,,,,,1350.4596883000013,1350.4596883000013,1350.4596883000013,1350.4596883000013,1350.4596883000013,return,1.2257645000026969,20,0,0,1,0.39999999999999997,0.08,return,1.1492013999995834,-3,-76,0.39999999999999997,0.08,,,,,,,,,,,,,,,,,,,,,,,,,,,,,,,,,,,,,,,,,,,,,,,,,,,,,,,,G4CEC4,train_x,red_square,top_right,2025-03-20_17h00.01.364,HideSeek_v1,2022.2.5,59.97846773021423,
,9,5,5,5,-4,0,56,,train_dim1_1,29,30,,,,2,0,2,0,,,,,,,,,0,0,0,0,0,28,28,28,0,0,0,0,,,,,,,,,,,,,,,,,,,,,,,,,stimuli/alien_stimuli/56.png,,,,,,,,,,,,,,,,,,,,,,,,,,,,,stimuli/alien_stimuli/26.png,26,8,30,,,,,,,30,,,,,,,,1356.4150698000012,1356.4150698000012,1356.4150698000012,1356.4150698000012,1356.4150698000012,left,1.4716698999982327,20,0,0,99,0.48000000000000004,0,left,1.374518699998589,,,,,1354.8450606000006,1356.4150698000012,0.4,0.08,0.0,0.08,0.08,0.4,0.44,0.4,0.08,1353.2504520000002,1353.2504520000002,1353.2504520000002,1353.2504520000002,1353.2504520000002,1353.2504520000002,1353.2504520000002,1353.2504520000002,1353.2441455500016,1.7033061000001908,return,1.5701722000012523,,,,,,,,,,,,,,,,,,,,,,,,,,,,,,,,,G4CEC4,train_x,red_square,top_right,2025-03-20_17h00.01.364,HideSeek_v1,2022.2.5,59.97846773021423,
,9,5,5,5,-4,0,56,,train_dim1_1,29,30,,,,2,0,2,0,,,,,,,,,0,0,0,0,0,28,28,28,1,0,1,0,,,,,,,,,,,,,,,,,,,,,,,,,,,,,,,,,,,,,,,,,,,,,,,,,,,,,,,,,,,,,,,,30,,,,,,,,1357.879605500002,1357.879605500002,1357.879605500002,1357.879605500002,1357.879605500002,left,0.4925729999995383,20,0,0,99,0.4,0,left,0.4034888000023784,,,,,,,,,,,,,,,,,,,,,,,,,,,,,,,,,,,,,,,,,,,,,,,,,,,,,,,,,,,,G4CEC4,train_x,red_square,top_right,2025-03-20_17h00.01.364,HideSeek_v1,2022.2.5,59.97846773021423,
,9,5,5,5,-4,0,56,,train_dim1_1,29,30,,,,2,0,2,0,,,,,,,,,0,0,0,0,0,28,28,28,2,0,2,0,,,,,,,,,,,,,,,,,,,,,,,,,,,,,,,,,,,,,,,,,,,,,,,,,,,,,,,,,,,,,,,,30,,,,,,,,1358.3797201000016,1358.3797201000016,1358.3797201000016,1358.3797201000016,1358.3797201000016,left,0.5438560999973561,20,0,0,99,0.32,0,left,0.45372060000227066,,,,,,,,,,,,,,,,,,,,,,,,,,,,,,,,,,,,,,,,,,,,,,,,,,,,,,,,,,,,G4CEC4,train_x,red_square,top_right,2025-03-20_17h00.01.364,HideSeek_v1,2022.2.5,59.97846773021423,
,9,5,5,5,-4,0,56,,train_dim1_1,29,30,,,,2,0,2,0,,,,,,,,,0,0,0,0,0,28,28,28,3,0,3,0,,,,,,,,,,,,,,,,,,,,,,,,,,,,,,,,,,,,,,,,,,,,,,,,,,,,,,,,,,,,,,,,30,,,,,,,,1358.9301766999997,1358.9301766999997,1358.9301766999997,1358.9301766999997,1358.9301766999997,left,0.5100755000021309,20,0,0,99,0.24,0,left,0.43201980000230833,,,,,,,,,,,,,,,,,,,,,,,,,,,,,,,,,,,,,,,,,,,,,,,,,,,,,,,,,,,,G4CEC4,train_x,red_square,top_right,2025-03-20_17h00.01.364,HideSeek_v1,2022.2.5,59.97846773021423,
,9,5,5,5,-4,0,56,,train_dim1_1,29,30,,,,2,0,2,0,,,,,,,,,0,0,0,0,0,28,28,28,4,0,4,0,,,,,,,,,,,,,,,,,,,,,,,,,,,,,,,,,,,,,,,,,,,,,,,,,,,,,,,,,,,,,,,,30,,,,,,,,1359.4473921999997,1359.4473921999997,1359.4473921999997,1359.4473921999997,1359.4473921999997,return,4.212841900000058,21,0,0,1,0.24,0,return,4.123562000000675,-3,-80,0.24,0,,,,,,,,,,,,,,,,,,,,,,,,,,,,,,,,,,,,,,,,,,,,,,,,,,,,,,,,G4CEC4,train_x,red_square,top_right,2025-03-20_17h00.01.364,HideSeek_v1,2022.2.5,59.97846773021423,
,7,7,7,7,0,0,16,,train_dim1_1,30,30,,,,2,0,2,0,,,,,,,,,0,0,0,0,0,29,29,29,0,0,0,0,,,,,,,,,,,,,,,,,,,,,,,,,stimuli/alien_stimuli/16.png,,,,,,,,,,,,,,,,,,,,,,,,,,,,,stimuli/alien_stimuli/56.png,56,9,31,,,,,,,30,,,,,,,,1368.7493806999992,1368.7493806999992,1368.7493806999992,1368.7493806999992,1368.7493806999992,up,3.2901197000028333,21,0,0,99,0.4,0.24,up,3.1930983000020206,,,,,1367.171979499999,1368.7493806999992,0.24,0,0.0,0.32,0.0,0.24,0.4,0.24,0,1365.2404951999997,1365.2404951999997,1365.2404951999997,1365.2404951999997,1365.2404951999997,1365.2404951999997,1365.2404951999997,1365.2404951999997,1365.2204086500028,2.053847200000746,return,1.9043699000030756,,,,,,,,,,,,,,,,,,,,,,,,,,,,,,,,,G4CEC4,train_x,red_square,top_right,2025-03-20_17h00.01.364,HideSeek_v1,2022.2.5,59.97846773021423,
,7,7,7,7,0,0,16,,train_dim1_1,30,30,,,,2,0,2,0,,,,,,,,,0,0,0,0,0,29,29,29,1,0,1,0,,,,,,,,,,,,,,,,,,,,,,,,,,,,,,,,,,,,,,,,,,,,,,,,,,,,,,,,,,,,,,,,30,,,,,,,,1372.0259130000013,1372.0259130000013,1372.0259130000013,1372.0259130000013,1372.0259130000013,down,0.6431378000015684,21,0,0,99,0.4,0.15999999999999998,down,0.5580526000012469,,,,,,,,,,,,,,,,,,,,,,,,,,,,,,,,,,,,,,,,,,,,,,,,,,,,,,,,,,,,G4CEC4,train_x,red_square,top_right,2025-03-20_17h00.01.364,HideSeek_v1,2022.2.5,59.97846773021423,
,7,7,7,7,0,0,16,,train_dim1_1,30,30,,,,2,0,2,0,,,,,,,,,0,0,0,0,0,29,29,29,2,0,2,0,,,,,,,,,,,,,,,,,,,,,,,,,,,,,,,,,,,,,,,,,,,,,,,,,,,,,,,,,,,,,,,,30,,,,,,,,1372.6785154999998,1372.6785154999998,1372.6785154999998,1372.6785154999998,1372.6785154999998,return,1.4931518999983382,22,0,0,1,0.4,0.15999999999999998,return,1.4072639000005438,-3,-80,0.4,0.15999999999999998,,,,,,,,,,,,,,,,,,,,,,,,,,,,,,,,,,,,,,,,,,,,,,,,,,,,,,,,G4CEC4,train_x,red_square,top_right,2025-03-20_17h00.01.364,HideSeek_v1,2022.2.5,59.97846773021423,
,,,,,,,,,,,30,,,,2,0,2,0,,,,,,,,,,,,,,,,,,,,,,,,,,,,,,,,,,,,,,,,,,,,,,,,,,,,,,,,,,,,,,,,,,,,,,,,,,stimuli/alien_stimuli/16.png,16,7,32,21,0.7,0.9166666666666667,1,1,1,30,0,conditions/schedules/train_x_first/red_square_00/top_right/inputTrain_2.1.xlsx,99,1,2,1,0,,,,,,,,,,,1,,,,,,,,,1377.6978487999986,1379.2536905999987,0.4,0.16,0.0,0.0,0.16,0.4,0.4,0.4,0.16,1375.751529699999,1375.751529699999,1375.751529699999,1375.751529699999,1375.751529699999,1375.751529699999,1375.751529699999,1375.751529699999,1375.746246700002,2.070014600001741,return,1.9211404000016046,0,0.9,0,1,22,,,,,,,,,,,,,,,,,,,,,,,,,,,,G4CEC4,train_x,red_square,top_right,2025-03-20_17h00.01.364,HideSeek_v1,2022.2.5,59.97846773021423,
,,,,,,,,,,,,,,,3,0,3,0,0,0,0,0,,,,,,,,,,,,,,,,,,,,,,,,,,,,,,,conditions/schedules/train_x_first/red_square_00/top_right/instructions/Slide17.png,conditions/schedules/train_x_first/red_square_00/top_right/instructions/Audio17.wav,1379.2536905999987,1379.249095,17,"[4.072688500000368, 18.869083699999464, 16.427420700001676, 19.647154299997055, 4.558639099999709, 4.837276800000836, 5.48674949999986, 11.763292799998453, 6.0304679999971995, 6.941926499999681, 10.247460099999444, 12.819887199999357, 18.54549279999992, 12.715556999999535, 29.818012499999895, 23.14080610000019, 38.208014599997114]","[0.00021049999850220047, 0.04699640000035288, 0.04787439999927301, 0.014321700000436977, 0.00027860000045620836, 0.031498100001044804, 0.014244699999835575, 0.03064760000052047, 0.052915500000381144, 0.03554409999924246, 0.09600599999976112, 12.819893500000035, 0.013889000001654495, 12.71556369999962, 0.13811490000080084, 23.140812699999515, 38.208024399998976]",0,,,,,,,,,,,,,,,,,,,,,,,,,,,,,,,,,,,,,,,,,,,,,,,,,,,,,,,,,,,,,,,,,,,,,,,,,,,,,,,,,,,,,,,,,,,,,,,,,,,,,,,,,,,,,,,,,,,,,,,,,,,,G4CEC4,train_x,red_square,top_right,2025-03-20_17h00.01.364,HideSeek_v1,2022.2.5,59.97846773021423,
,,,,,,,,,,,,,,,3,0,3,0,1,0,1,0,,,,,,,,,,,,,,,,,,,,,,,,,,,,,,,conditions/schedules/train_x_first/red_square_00/top_right/instructions/Slide18.png,conditions/schedules/train_x_first/red_square_00/top_right/instructions/Audio18.wav,1417.5280346,1417.530674650001,18,"[4.072688500000368, 18.869083699999464, 16.427420700001676, 19.647154299997055, 4.558639099999709, 4.837276800000836, 5.48674949999986, 11.763292799998453, 6.0304679999971995, 6.941926499999681, 10.247460099999444, 12.819887199999357, 18.54549279999992, 12.715556999999535, 29.818012499999895, 23.14080610000019, 38.208014599997114, 6.289104499999667]","[0.00021049999850220047, 0.04699640000035288, 0.04787439999927301, 0.014321700000436977, 0.00027860000045620836, 0.031498100001044804, 0.014244699999835575, 0.03064760000052047, 0.052915500000381144, 0.03554409999924246, 0.09600599999976112, 12.819893500000035, 0.013889000001654495, 12.71556369999962, 0.13811490000080084, 23.140812699999515, 0.03418899999815039, 6.289111300000513]",0,,,,,,,,,,,,,,,,,,,,,,,,,,,,,,,,,,,,,,,,,,,,,,,,,,,,,,,,,,,,,,,,,,,,,,,,,,,,,,,,,,,,,,,,,,,,,,,,,,,,,,,,,,,,,,,,,,,,,,,,,,,,G4CEC4,train_x,red_square,top_right,2025-03-20_17h00.01.364,HideSeek_v1,2022.2.5,59.97846773021423,
,,,,,,,,,,,,,,,3,0,3,0,2,0,2,0,,,,,,,,,,,,,,,,,,,,,,,,,,,,,,,conditions/schedules/train_x_first/red_square_00/top_right/instructions/Slide19.png,conditions/schedules/train_x_first/red_square_00/top_right/instructions/Audio19.wav,1423.8546773000016,1423.85283865,19,"[4.072688500000368, 18.869083699999464, 16.427420700001676, 19.647154299997055, 4.558639099999709, 4.837276800000836, 5.48674949999986, 11.763292799998453, 6.0304679999971995, 6.941926499999681, 10.247460099999444, 12.819887199999357, 18.54549279999992, 12.715556999999535, 29.818012499999895, 23.14080610000019, 38.208014599997114, 6.289104499999667, 11.004189899998892]","[0.00021049999850220047, 0.04699640000035288, 0.04787439999927301, 0.014321700000436977, 0.00027860000045620836, 0.031498100001044804, 0.014244699999835575, 0.03064760000052047, 0.052915500000381144, 0.03554409999924246, 0.09600599999976112, 12.819893500000035, 0.013889000001654495, 12.71556369999962, 0.13811490000080084, 23.140812699999515, 0.03418899999815039, 0.06141860000207089, 11.00419630000033]",0,,,,,,,,,,,,,,,,,,,,,,,,,,,,,,,,,,,,,,,,,,,,,,,,,,,,,,,,,,,,,,,,,,,,,,,,,,,,,,,,,,,,,,,,,,,,,,,,,,,,,,,,,,,,,,,,,,,,,,,,,,,,G4CEC4,train_x,red_square,top_right,2025-03-20_17h00.01.364,HideSeek_v1,2022.2.5,59.97846773021423,
,,,,,,,,,,,,,,,3,0,3,0,3,0,3,0,,,,,,,,,,,,,,,,,,,,,,,,,,,,,,,conditions/schedules/train_x_first/red_square_00/top_right/instructions/Slide20.png,conditions/schedules/train_x_first/red_square_00/top_right/instructions/Audio20.wav,1434.9197578000021,1434.9119112000014,20,"[4.072688500000368, 18.869083699999464, 16.427420700001676, 19.647154299997055, 4.558639099999709, 4.837276800000836, 5.48674949999986, 11.763292799998453, 6.0304679999971995, 6.941926499999681, 10.247460099999444, 12.819887199999357, 18.54549279999992, 12.715556999999535, 29.818012499999895, 23.14080610000019, 38.208014599997114, 6.289104499999667, 11.004189899998892, 13.750908600002731]","[0.00021049999850220047, 0.04699640000035288, 0.04787439999927301, 0.014321700000436977, 0.00027860000045620836, 0.031498100001044804, 0.014244699999835575, 0.03064760000052047, 0.052915500000381144, 0.03554409999924246, 0.09600599999976112, 12.819893500000035, 0.013889000001654495, 12.71556369999962, 0.13811490000080084, 23.140812699999515, 0.03418899999815039, 0.06141860000207089, 0.035194400003092596, 13.75091539999994]",0,,,,,,,,,,,,,,,,,,,,,,,,,,,,,,,,,,,,,,,,,,,,,,,,,,,,,,,,,,,,,,,,,,,,,,,,,,,,,,,,,,,,,,,,,,,,,,,,,,,,,,,,,,,,,,,,,,,,,,,,,,,,G4CEC4,train_x,red_square,top_right,2025-03-20_17h00.01.364,HideSeek_v1,2022.2.5,59.97846773021423,
1,7,8,7,3,0,-5,11,2,instr_dim1_2,,,,,,3,0,3,0,,,,,0,0,0,0,,,,,,,,,,,,,,,,,,,,,,,,,,,,,,,,,,,,,stimuli/alien_stimuli/11.png,conditions/schedules/train_x_first/red_square_00/top_right/inputInstr_2.xlsx,stimuli/alien_stimuli/11.png,1448.764254400001,1448.764254400001,1448.764254400001,1448.764254400001,1448.7566165000019,return,7.777342500001396,"[-0.16, -0.08, 0, 0.08, 0.16, 0.24, 0.32, 0.4, 0.48, 0.56]","[-0.4, -0.32, -0.24, -0.16, -0.08, 0, 0.08, 0.16, 0.24, 0.32]",3,8,7,7,0.4,0.0,1456.683849699999,1456.683849699999,1456.683849699999,1456.683849699999,1456.683849699999,1456.683849699999,1456.683849699999,1456.6798182000036,10.976754299997992,return,10.826598800002103,stimuli/alien_stimuli/11.png,11,7,1,,,,,,,,,,,,,,,,,,,,,,,,,,,,,,,,,,,,,,,,,,,,,,,,,,,,,,,,,,,,,,,,,,,,,,,,,,,,,,,,,,,,,,,,,G4CEC4,train_x,red_square,top_right,2025-03-20_17h00.01.364,HideSeek_v1,2022.2.5,59.97846773021423,
,,,,,,,,,,,30,,,,3,0,3,0,,,,,,,,,,,,,,,,,,,,,,,,,,,,,,,,,,,,,,,,,,,,,,,,,,,,,,,,,,,,,,,,,,,,,,,,,,,,,,21,0.7,0.9166666666666667,1,99,2,30,0,conditions/schedules/train_x_first/red_square_00/top_right/inputTrain_2.1.xlsx,99,1,2,1,0,,,,,,,,,,,,,,,,,,,,,,,,,,,,,,,,,,,,,,,,,,,,,,,,,,,,,,,,,,,,,,,,,,,,,,,,,,,G4CEC4,train_x,red_square,top_right,2025-03-20_17h00.01.364,HideSeek_v1,2022.2.5,59.97846773021423,
,,,,,,,,,,,,,,,4,0,4,0,0,0,0,0,,,,,,,,,,,,,,,,,,,,,,,,,,,,,,,conditions/schedules/train_x_first/red_square_00/top_right/instructions/Slide21.png,conditions/schedules/train_x_first/red_square_00/top_right/instructions/Audio21.wav,1467.6738657999995,1467.6723608500022,21,"[4.072688500000368, 18.869083699999464, 16.427420700001676, 19.647154299997055, 4.558639099999709, 4.837276800000836, 5.48674949999986, 11.763292799998453, 6.0304679999971995, 6.941926499999681, 10.247460099999444, 12.819887199999357, 18.54549279999992, 12.715556999999535, 29.818012499999895, 23.14080610000019, 38.208014599997114, 6.289104499999667, 11.004189899998892, 13.750908600002731, 16.42618339999899]","[0.00021049999850220047, 0.04699640000035288, 0.04787439999927301, 0.014321700000436977, 0.00027860000045620836, 0.031498100001044804, 0.014244699999835575, 0.03064760000052047, 0.052915500000381144, 0.03554409999924246, 0.09600599999976112, 12.819893500000035, 0.013889000001654495, 12.71556369999962, 0.13811490000080084, 23.140812699999515, 0.03418899999815039, 0.06141860000207089, 0.035194400003092596, 13.75091539999994, 16.426193200000853]",0,,,,,,,,,,,,,,,,,,,,,,,,,,,,,,,,,,,,,,,,,,,,,,,,,,,,,,,,,,,,,,,,,,,,,,,,,,,,,,,,,,,,,,,,,,,,,,,,,,,,,,,,,,,,,,,,,,,,,,,,,,,,G4CEC4,train_x,red_square,top_right,2025-03-20_17h00.01.364,HideSeek_v1,2022.2.5,59.97846773021423,
2,5,8,5,8,0,0,16,2,instr_dim1_2,,,,,,4,0,4,0,,,,,0,0,0,0,,,,,,,,,,,,,,,,,,,,,,,,,,,,,,,,,,,,,stimuli/alien_stimuli/16.png,conditions/schedules/train_x_first/red_square_00/top_right/inputInstr_2.xlsx,stimuli/alien_stimuli/16.png,1484.190546400001,1484.190546400001,1484.190546400001,1484.190546400001,1484.186165800001,return,6.475198800002545,"[-0.16, -0.08, 0, 0.08, 0.16, 0.24, 0.32, 0.4, 0.48, 0.56]","[-0.4, -0.32, -0.24, -0.16, -0.08, 0, 0.08, 0.16, 0.24, 0.32]",8,8,5,5,0.0,0.0,1490.8198550000016,1490.8198550000016,1490.8198550000016,1490.8198550000016,1490.8198550000016,1490.8198550000016,1490.8198550000016,1490.8080695000042,1.385236199999781,return,1.229278200000408,stimuli/alien_stimuli/16.png,16,5,2,,,,,,,,,,,,,,,,,,,,,,,,,,,,,,,,,,,,,,,,,,,,,,,,,,,,,,,,,,,,,,,,,,,,,,,,,,,,,,,,,,,,,,,,,G4CEC4,train_x,red_square,top_right,2025-03-20_17h00.01.364,HideSeek_v1,2022.2.5,59.97846773021423,
