trialInstr,x_fixStart,y_fixStart,x_corrSteps,y_corrSteps,x_nrSteps,y_nrSteps,alienID,trialLength,version,trialTrain,praclen,testlen,trial_label,break_on_off,beforeExpLoop.thisRepN,beforeExpLoop.thisTrialN,beforeExpLoop.thisN,beforeExpLoop.thisIndex,mini_instr_trials.thisRepN,mini_instr_trials.thisTrialN,mini_instr_trials.thisN,mini_instr_trials.thisIndex,instrLoop.thisRepN,instrLoop.thisTrialN,instrLoop.thisN,instrLoop.thisIndex,repeat_prac.thisRepN,repeat_prac.thisTrialN,repeat_prac.thisN,repeat_prac.thisIndex,trainLoop.thisRepN,trainLoop.thisTrialN,trainLoop.thisN,trainLoop.thisIndex,moveLoop_train.thisRepN,moveLoop_train.thisTrialN,moveLoop_train.thisN,moveLoop_train.thisIndex,experiment.thisRepN,experiment.thisTrialN,experiment.thisN,experiment.thisIndex,moveLoop_test.thisRepN,moveLoop_test.thisTrialN,moveLoop_test.thisN,moveLoop_test.thisIndex,mini_instr2_trials.thisRepN,mini_instr2_trials.thisTrialN,mini_instr2_trials.thisN,mini_instr2_trials.thisIndex,start_all_time,url,slideStim,audioStim,slides.started,sounds.started,nextButton.numClicks,nextButton.timesOn,nextButton.timesOff,prev_but.numClicks,prev_but.timesOn,prev_but.timesOff,alienStim,instrFile,alienStim_instr,gridImage_instr.started,startPos_3.started,key_instr.started,alienImage_3.started,sounds_1.started,key_instr.keys,key_instr.rt,all_x,all_y,FBy_corrSteps,FBy_fixStart,FBx_corrSteps,FBx_fixStart,FBy_pathSize_check,FBx_pathSize_check,gridImage_9.started,alienImageFB_3.started,startPosFB_3.started,keyFB_3.started,pathLine_ydir_2.started,pathLine_xdir_2.started,alienFace_3.started,sounds_2.started,RTFB_instr,keyFB_3.keys,keyFB_3.rt,draw_alienStim,draw_alienID,test_x,nrepcount,perfthres,percthres,earlierperf,earlystop,nextPrac,fileidx,praclen,saveACC_train,pracFile,nextPrac_train,addNrep,fileidx_endr,repExp,showearly,gridImage_4.started,startPos.started,movePos.started,key_resp.started,alienImage.started,wLy_dir,wLx_dir,x_movePos,y_movePos,buttonPress_train,RTchoice_train,cumAcctrain,aCorr,saveACC_choice,corrAns,x_movePos_end,y_movePos_end,key_resp.keys,key_resp.rt,text_2.started,text_2.stopped,aft_x_corrPos,aft_y_corrPos,y_pathSize_check,x_pathSize_check,y_pathdirY,x_pathdirY,x_pathdirX,x_corrPos,y_corrPos,gridImage_6.started,alienImageFB_2.started,startPosFB_2.started,movePosFB_2.started,keyFB_2.started,pathLine_xdir.started,pathLine_ydir.started,alienFace.started,sounds_4.started,RT_FBtrain,keyFB_2.keys,keyFB_2.rt,saveACC_pre,ACC,within_saveACC_train,earlystop_wloop,cumAcctrain_check,gridImage_3.started,alienImage_test.started,startPos_test.started,movePos_test.started,key_resp_test.started,wLy_dir_test,wLx_dir_test,buttonPress_test,RTchoice_test,cumAcctest,corrAns_test,key_resp_test.keys,key_resp_test.rt,text_3.started,text_3.stopped,total_time,end_all_time,key_resp_3.keys,slides_2.started,sounds_3.started,nextButton_2.numClicks,nextButton_2.timesOn,nextButton_2.timesOff,prev_but_2.numClicks,prev_but_2.timesOn,prev_but_2.timesOff,bye.started,participant,train_first,00_coordinate,starting corner,date,expName,psychopyVersion,frameRate,
,,,,,,,,,,,,,,,0,0,0,0,0,0,0,0,,,,,,,,,,,,,,,,,,,,,,,,,,,,,start_all_time,testround,conditions/schedules/train_y_first/red_square_00/top_right/instructions/Slide1.png,conditions/schedules/train_y_first/red_square_00/top_right/instructions/Audio1.wav,408.85783620004077,408.80887780894994,1,[3.230918399989605],[3.230926899937913],0,,,,,,,,,,,,,,,,,,,,,,,,,,,,,,,,,,,,,,,,,,,,,,,,,,,,,,,,,,,,,,,,,,,,,,,,,,,,,,,,,,,,,,,,,,,,,,,,,,,,,,,,,,,,,,,,,,,,,,,,,,,,G8G5CJ,train_y,red_square,top_right,2025-06-07_11h09.16.642,HideSeek_v1,2022.2.5,60.02040691206893,
,,,,,,,,,,,,,,,0,0,0,0,1,0,1,0,,,,,,,,,,,,,,,,,,,,,,,,,,,,,,,conditions/schedules/train_y_first/red_square_00/top_right/instructions/Slide2.png,conditions/schedules/train_y_first/red_square_00/top_right/instructions/Audio2.wav,412.112422300037,412.1118041500449,2,"[3.230918399989605, 20.84779799997341]","[3.230926899937913, 20.847806800040416]",0,,,,,,,,,,,,,,,,,,,,,,,,,,,,,,,,,,,,,,,,,,,,,,,,,,,,,,,,,,,,,,,,,,,,,,,,,,,,,,,,,,,,,,,,,,,,,,,,,,,,,,,,,,,,,,,,,,,,,,,,,,,,G8G5CJ,train_y,red_square,top_right,2025-06-07_11h09.16.642,HideSeek_v1,2022.2.5,60.02040691206893,
,,,,,,,,,,,,,,,0,0,0,0,2,0,2,0,,,,,,,,,,,,,,,,,,,,,,,,,,,,,,,conditions/schedules/train_y_first/red_square_00/top_right/instructions/Slide3.png,conditions/schedules/train_y_first/red_square_00/top_right/instructions/Audio3.wav,433.03892290010117,433.0291682500392,3,"[3.230918399989605, 20.84779799997341, 16.50117439997848]","[3.230926899937913, 0.014205999905243516, 16.50118229992222]",0,,,,,,,,,,,,,,,,,,,,,,,,,,,,,,,,,,,,,,,,,,,,,,,,,,,,,,,,,,,,,,,,,,,,,,,,,,,,,,,,,,,,,,,,,,,,,,,,,,,,,,,,,,,,,,,,,,,,,,,,,,,,G8G5CJ,train_y,red_square,top_right,2025-06-07_11h09.16.642,HideSeek_v1,2022.2.5,60.02040691206893,
,,,,,,,,,,,,,,,0,0,0,0,3,0,3,0,,,,,,,,,,,,,,,,,,,,,,,,,,,,,,,conditions/schedules/train_y_first/red_square_00/top_right/instructions/Slide4.png,conditions/schedules/train_y_first/red_square_00/top_right/instructions/Audio4.wav,449.6147974000778,449.6088857500581,4,"[3.230918399989605, 20.84779799997341, 16.50117439997848, 19.32467799994629]","[3.230926899937913, 0.014205999905243516, 0.030597600038163364, 19.324685400002636]",0,,,,,,,,,,,,,,,,,,,,,,,,,,,,,,,,,,,,,,,,,,,,,,,,,,,,,,,,,,,,,,,,,,,,,,,,,,,,,,,,,,,,,,,,,,,,,,,,,,,,,,,,,,,,,,,,,,,,,,,,,,,,G8G5CJ,train_y,red_square,top_right,2025-06-07_11h09.16.642,HideSeek_v1,2022.2.5,60.02040691206893,
,,,,,,,,,,,,,,,0,0,0,0,4,0,4,0,,,,,,,,,,,,,,,,,,,,,,,,,,,,,,,conditions/schedules/train_y_first/red_square_00/top_right/instructions/Slide5.png,conditions/schedules/train_y_first/red_square_00/top_right/instructions/Audio5.wav,469.00339260010514,468.9918603600003,5,"[3.230918399989605, 20.84779799997341, 16.50117439997848, 19.32467799994629, 4.290291400044225]","[3.230926899937913, 0.014205999905243516, 0.030597600038163364, 0.03677460004109889, 4.290299099986441]",0,,,,,,,,,,,,,,,,,,,,,,,,,,,,,,,,,,,,,,,,,,,,,,,,,,,,,,,,,,,,,,,,,,,,,,,,,,,,,,,,,,,,,,,,,,,,,,,,,,,,,,,,,,,,,,,,,,,,,,,,,,,,G8G5CJ,train_y,red_square,top_right,2025-06-07_11h09.16.642,HideSeek_v1,2022.2.5,60.02040691206893,
,,,,,,,,,,,,,,,0,0,0,0,5,0,5,0,,,,,,,,,,,,,,,,,,,,,,,,,,,,,,,conditions/schedules/train_y_first/red_square_00/top_right/instructions/Slide6.png,conditions/schedules/train_y_first/red_square_00/top_right/instructions/Audio6.wav,473.3445345000364,473.3453286600765,6,"[3.230918399989605, 20.84779799997341, 16.50117439997848, 19.32467799994629, 4.290291400044225, 4.935895600006916]","[3.230926899937913, 0.014205999905243516, 0.030597600038163364, 0.03677460004109889, 0.00021249998826533556, 4.935902799945325]",0,,,,,,,,,,,,,,,,,,,,,,,,,,,,,,,,,,,,,,,,,,,,,,,,,,,,,,,,,,,,,,,,,,,,,,,,,,,,,,,,,,,,,,,,,,,,,,,,,,,,,,,,,,,,,,,,,,,,,,,,,,,,G8G5CJ,train_y,red_square,top_right,2025-06-07_11h09.16.642,HideSeek_v1,2022.2.5,60.02040691206893,
,,,,,,,,,,,,,,,0,0,0,0,6,0,6,0,,,,,,,,,,,,,,,,,,,,,,,,,,,,,,,conditions/schedules/train_y_first/red_square_00/top_right/instructions/Slide7.png,conditions/schedules/train_y_first/red_square_00/top_right/instructions/Audio7.wav,478.33093290007673,478.3327850600239,7,"[3.230918399989605, 20.84779799997341, 16.50117439997848, 19.32467799994629, 4.290291400044225, 4.935895600006916, 5.720726799918339]","[3.230926899937913, 0.014205999905243516, 0.030597600038163364, 0.03677460004109889, 0.00021249998826533556, 0.03265309997368604, 5.72073379997164]",0,,,,,,,,,,,,,,,,,,,,,,,,,,,,,,,,,,,,,,,,,,,,,,,,,,,,,,,,,,,,,,,,,,,,,,,,,,,,,,,,,,,,,,,,,,,,,,,,,,,,,,,,,,,,,,,,,,,,,,,,,,,,G8G5CJ,train_y,red_square,top_right,2025-06-07_11h09.16.642,HideSeek_v1,2022.2.5,60.02040691206893,
,,,,,,,,,,,,,,,0,0,0,0,7,0,7,0,,,,,,,,,,,,,,,,,,,,,,,,,,,,,,,conditions/schedules/train_y_first/red_square_00/top_right/instructions/Slide8.png,conditions/schedules/train_y_first/red_square_00/top_right/instructions/Audio8.wav,484.10447180003393,484.10422945998147,8,"[3.230918399989605, 20.84779799997341, 16.50117439997848, 19.32467799994629, 4.290291400044225, 4.935895600006916, 5.720726799918339, 11.406710000010207]","[3.230926899937913, 0.014205999905243516, 0.030597600038163364, 0.03677460004109889, 0.00021249998826533556, 0.03265309997368604, 0.09736849996261299, 11.406719299964607]",0,,,,,,,,,,,,,,,,,,,,,,,,,,,,,,,,,,,,,,,,,,,,,,,,,,,,,,,,,,,,,,,,,,,,,,,,,,,,,,,,,,,,,,,,,,,,,,,,,,,,,,,,,,,,,,,,,,,,,,,,,,,,G8G5CJ,train_y,red_square,top_right,2025-06-07_11h09.16.642,HideSeek_v1,2022.2.5,60.02040691206893,
,,,,,,,,,,,,,,,0,0,0,0,8,0,8,0,,,,,,,,,,,,,,,,,,,,,,,,,,,,,,,conditions/schedules/train_y_first/red_square_00/top_right/instructions/Slide9.png,conditions/schedules/train_y_first/red_square_00/top_right/instructions/Audio9.wav,495.5784520000452,495.58056625002064,9,"[3.230918399989605, 20.84779799997341, 16.50117439997848, 19.32467799994629, 4.290291400044225, 4.935895600006916, 5.720726799918339, 11.406710000010207, 5.654427699977532]","[3.230926899937913, 0.014205999905243516, 0.030597600038163364, 0.03677460004109889, 0.00021249998826533556, 0.03265309997368604, 0.09736849996261299, 0.05030200001783669, 5.65443479991518]",0,,,,,,,,,,,,,,,,,,,,,,,,,,,,,,,,,,,,,,,,,,,,,,,,,,,,,,,,,,,,,,,,,,,,,,,,,,,,,,,,,,,,,,,,,,,,,,,,,,,,,,,,,,,,,,,,,,,,,,,,,,,,G8G5CJ,train_y,red_square,top_right,2025-06-07_11h09.16.642,HideSeek_v1,2022.2.5,60.02040691206893,
,,,,,,,,,,,,,,,0,0,0,0,9,0,9,0,,,,,,,,,,,,,,,,,,,,,,,,,,,,,,,conditions/schedules/train_y_first/red_square_00/top_right/instructions/Slide10.png,conditions/schedules/train_y_first/red_square_00/top_right/instructions/Audio10.wav,501.2882566000335,501.2852324599866,10,"[3.230918399989605, 20.84779799997341, 16.50117439997848, 19.32467799994629, 4.290291400044225, 4.935895600006916, 5.720726799918339, 11.406710000010207, 5.654427699977532, 6.967256899923086]","[3.230926899937913, 0.014205999905243516, 0.030597600038163364, 0.03677460004109889, 0.00021249998826533556, 0.03265309997368604, 0.09736849996261299, 0.05030200001783669, 0.045975100016221404, 6.9672669999999925]",0,,,,,,,,,,,,,,,,,,,,,,,,,,,,,,,,,,,,,,,,,,,,,,,,,,,,,,,,,,,,,,,,,,,,,,,,,,,,,,,,,,,,,,,,,,,,,,,,,,,,,,,,,,,,,,,,,,,,,,,,,,,,G8G5CJ,train_y,red_square,top_right,2025-06-07_11h09.16.642,HideSeek_v1,2022.2.5,60.02040691206893,
,,,,,,,,,,,,,,,0,0,0,0,10,0,10,0,,,,,,,,,,,,,,,,,,,,,,,,,,,,,,,conditions/schedules/train_y_first/red_square_00/top_right/instructions/Slide11.png,conditions/schedules/train_y_first/red_square_00/top_right/instructions/Audio11.wav,508.30687180010136,508.30769165998794,11,"[3.230918399989605, 20.84779799997341, 16.50117439997848, 19.32467799994629, 4.290291400044225, 4.935895600006916, 5.720726799918339, 11.406710000010207, 5.654427699977532, 6.967256899923086, 9.989685700042173]","[3.230926899937913, 0.014205999905243516, 0.030597600038163364, 0.03677460004109889, 0.00021249998826533556, 0.03265309997368604, 0.09736849996261299, 0.05030200001783669, 0.045975100016221404, 0.06492010003421456, 9.98969269997906]",0,,,,,,,,,,,,,,,,,,,,,,,,,,,,,,,,,,,,,,,,,,,,,,,,,,,,,,,,,,,,,,,,,,,,,,,,,,,,,,,,,,,,,,,,,,,,,,,,,,,,,,,,,,,,,,,,,,,,,,,,,,,,G8G5CJ,train_y,red_square,top_right,2025-06-07_11h09.16.642,HideSeek_v1,2022.2.5,60.02040691206893,
,,,,,,,,,,,,,,,0,0,0,0,11,0,11,0,,,,,,,,,,,,,,,,,,,,,,,,,,,,,,,conditions/schedules/train_y_first/red_square_00/top_right/instructions/Slide12.png,conditions/schedules/train_y_first/red_square_00/top_right/instructions/Audio12.wav,518.368514800095,518.3660780499922,12,"[3.230918399989605, 20.84779799997341, 16.50117439997848, 19.32467799994629, 4.290291400044225, 4.935895600006916, 5.720726799918339, 11.406710000010207, 5.654427699977532, 6.967256899923086, 9.989685700042173, 14.240464400034398]","[3.230926899937913, 0.014205999905243516, 0.030597600038163364, 0.03677460004109889, 0.00021249998826533556, 0.03265309997368604, 0.09736849996261299, 0.05030200001783669, 0.045975100016221404, 0.06492010003421456, 0.06611630006227642, 14.240471399971284]",0,,,,,,,,,,,,,,,,,,,,,,,,,,,,,,,,,,,,,,,,,,,,,,,,,,,,,,,,,,,,,,,,,,,,,,,,,,,,,,,,,,,,,,,,,,,,,,,,,,,,,,,,,,,,,,,,,,,,,,,,,,,,G8G5CJ,train_y,red_square,top_right,2025-06-07_11h09.16.642,HideSeek_v1,2022.2.5,60.02040691206893,
1,7,8,7,3,0,-5,11,2,instr_dim1_1,,,,,,0,0,0,0,,,,,0,0,0,0,,,,,,,,,,,,,,,,,,,,,,,,,,,,,,,,,,,,,stimuli/alien_stimuli/11.png,conditions/schedules/train_y_first/red_square_00/top_right/inputInstr_1.xlsx,stimuli/alien_stimuli/11.png,532.7157870000228,532.7157870000228,532.7157870000228,532.7157870000228,532.7113066299819,return,9.866609500022605,"[-0.16, -0.08, 0, 0.08, 0.16, 0.24, 0.32, 0.4, 0.48, 0.56]","[-0.4, -0.32, -0.24, -0.16, -0.08, 0, 0.08, 0.16, 0.24, 0.32]",3,8,7,7,0.4,0.0,542.740103600081,542.740103600081,542.740103600081,542.740103600081,542.740103600081,542.740103600081,542.740103600081,542.7364134100266,8.891005600104108,return,8.72621600003913,stimuli/alien_stimuli/11.png,11,7,1,,,,,,,,,,,,,,,,,,,,,,,,,,,,,,,,,,,,,,,,,,,,,,,,,,,,,,,,,,,,,,,,,,,,,,,,,,,,,,,,,,,,,,,,,G8G5CJ,train_y,red_square,top_right,2025-06-07_11h09.16.642,HideSeek_v1,2022.2.5,60.02040691206893,
,,,,,,,,,,,30,,,,0,0,0,0,,,,,,,,,,,,,,,,,,,,,,,,,,,,,,,,,,,,,,,,,,,,,,,,,,,,,,,,,,,,,,,,,,,,,,,,,,,,,,21,0.7,0,0,99,1,30,0,conditions/schedules/train_y_first/red_square_00/top_right/inputTrain_1.1.xlsx,99,1,1,1,0,,,,,,,,,,,,,,,,,,,,,,,,,,,,,,,,,,,,,,,,,,,,,,,,,,,,,,,,,,,,,,,,,,,,,,,,,,,G8G5CJ,train_y,red_square,top_right,2025-06-07_11h09.16.642,HideSeek_v1,2022.2.5,60.02040691206893,
,,,,,,,,,,,,,,,1,0,1,0,0,0,0,0,,,,,,,,,,,,,,,,,,,,,,,,,,,,,,,conditions/schedules/train_y_first/red_square_00/top_right/instructions/Slide13.png,conditions/schedules/train_y_first/red_square_00/top_right/instructions/Audio13.wav,551.6256025000475,551.6266645099735,13,"[3.230918399989605, 20.84779799997341, 16.50117439997848, 19.32467799994629, 4.290291400044225, 4.935895600006916, 5.720726799918339, 11.406710000010207, 5.654427699977532, 6.967256899923086, 9.989685700042173, 14.240464400034398, 18.881258399924263]","[3.230926899937913, 0.014205999905243516, 0.030597600038163364, 0.03677460004109889, 0.00021249998826533556, 0.03265309997368604, 0.09736849996261299, 0.05030200001783669, 0.045975100016221404, 0.06492010003421456, 0.06611630006227642, 14.240471399971284, 18.881266999989748]",0,,,,,,,,,,,,,,,,,,,,,,,,,,,,,,,,,,,,,,,,,,,,,,,,,,,,,,,,,,,,,,,,,,,,,,,,,,,,,,,,,,,,,,,,,,,,,,,,,,,,,,,,,,,,,,,,,,,,,,,,,,,,G8G5CJ,train_y,red_square,top_right,2025-06-07_11h09.16.642,HideSeek_v1,2022.2.5,60.02040691206893,
,,,,,,,,,,,,,,,1,0,1,0,1,0,1,0,,,,,,,,,,,,,,,,,,,,,,,,,,,,,,,conditions/schedules/train_y_first/red_square_00/top_right/instructions/Slide14.png,conditions/schedules/train_y_first/red_square_00/top_right/instructions/Audio14.wav,570.5808440000983,570.5759808500297,14,"[3.230918399989605, 20.84779799997341, 16.50117439997848, 19.32467799994629, 4.290291400044225, 4.935895600006916, 5.720726799918339, 11.406710000010207, 5.654427699977532, 6.967256899923086, 9.989685700042173, 14.240464400034398, 18.881258399924263, 18.4913645000197]","[3.230926899937913, 0.014205999905243516, 0.030597600038163364, 0.03677460004109889, 0.00021249998826533556, 0.03265309997368604, 0.09736849996261299, 0.05030200001783669, 0.045975100016221404, 0.06492010003421456, 0.06611630006227642, 14.240471399971284, 0.00021730002481490374, 18.491371399955824]",0,,,,,,,,,,,,,,,,,,,,,,,,,,,,,,,,,,,,,,,,,,,,,,,,,,,,,,,,,,,,,,,,,,,,,,,,,,,,,,,,,,,,,,,,,,,,,,,,,,,,,,,,,,,,,,,,,,,,,,,,,,,,G8G5CJ,train_y,red_square,top_right,2025-06-07_11h09.16.642,HideSeek_v1,2022.2.5,60.02040691206893,
2,5,8,5,8,0,0,16,2,instr_dim1_1,,,,,,1,0,1,0,,,,,0,0,0,0,,,,,,,,,,,,,,,,,,,,,,,,,,,,,,,,,,,,,stimuli/alien_stimuli/16.png,conditions/schedules/train_y_first/red_square_00/top_right/inputInstr_1.xlsx,stimuli/alien_stimuli/16.png,589.1661663000705,589.1661663000705,589.1661663000705,589.1661663000705,589.1581961399876,return,9.412343299947679,"[-0.16, -0.08, 0, 0.08, 0.16, 0.24, 0.32, 0.4, 0.48, 0.56]","[-0.4, -0.32, -0.24, -0.16, -0.08, 0, 0.08, 0.16, 0.24, 0.32]",8,8,5,5,0.0,0.0,598.738384300028,598.738384300028,598.738384300028,598.738384300028,598.738384300028,598.738384300028,598.738384300028,598.7327333100606,7.707139599951915,return,7.535028100013733,stimuli/alien_stimuli/16.png,16,5,2,,,,,,,,,,,,,,,,,,,,,,,,,,,,,,,,,,,,,,,,,,,,,,,,,,,,,,,,,,,,,,,,,,,,,,,,,,,,,,,,,,,,,,,,,G8G5CJ,train_y,red_square,top_right,2025-06-07_11h09.16.642,HideSeek_v1,2022.2.5,60.02040691206893,
,,,,,,,,,,,30,,,,1,0,1,0,,,,,,,,,,,,,,,,,,,,,,,,,,,,,,,,,,,,,,,,,,,,,,,,,,,,,,,,,,,,,,,,,,,,,,,,,,,,,,21,0.7,0,0,99,1,30,0,conditions/schedules/train_y_first/red_square_00/top_right/inputTrain_1.1.xlsx,99,1,1,1,0,,,,,,,,,,,,,,,,,,,,,,,,,,,,,,,,,,,,,,,,,,,,,,,,,,,,,,,,,,,,,,,,,,,,,,,,,,,G8G5CJ,train_y,red_square,top_right,2025-06-07_11h09.16.642,HideSeek_v1,2022.2.5,60.02040691206893,
,,,,,,,,,,,,,,,2,0,2,0,0,0,0,0,,,,,,,,,,,,,,,,,,,,,,,,,,,,,,,conditions/schedules/train_y_first/red_square_00/top_right/instructions/Slide15.png,conditions/schedules/train_y_first/red_square_00/top_right/instructions/Audio15.wav,606.4442860001,606.4390818100422,15,"[3.230918399989605, 20.84779799997341, 16.50117439997848, 19.32467799994629, 4.290291400044225, 4.935895600006916, 5.720726799918339, 11.406710000010207, 5.654427699977532, 6.967256899923086, 9.989685700042173, 14.240464400034398, 18.881258399924263, 18.4913645000197, 42.393709199968725]","[3.230926899937913, 0.014205999905243516, 0.030597600038163364, 0.03677460004109889, 0.00021249998826533556, 0.03265309997368604, 0.09736849996261299, 0.05030200001783669, 0.045975100016221404, 0.06492010003421456, 0.06611630006227642, 14.240471399971284, 0.00021730002481490374, 18.491371399955824, 42.393717400031164]",0,,,,,,,,,,,,,,,,,,,,,,,,,,,,,,,,,,,,,,,,,,,,,,,,,,,,,,,,,,,,,,,,,,,,,,,,,,,,,,,,,,,,,,,,,,,,,,,,,,,,,,,,,,,,,,,,,,,,,,,,,,,,G8G5CJ,train_y,red_square,top_right,2025-06-07_11h09.16.642,HideSeek_v1,2022.2.5,60.02040691206893,
,,,,,,,,,,,,,,,2,0,2,0,1,0,1,0,,,,,,,,,,,,,,,,,,,,,,,,,,,,,,,conditions/schedules/train_y_first/red_square_00/top_right/instructions/Slide16.png,conditions/schedules/train_y_first/red_square_00/top_right/instructions/Audio16.wav,648.9100174000487,648.9077863499988,16,"[3.230918399989605, 20.84779799997341, 16.50117439997848, 19.32467799994629, 4.290291400044225, 4.935895600006916, 5.720726799918339, 11.406710000010207, 5.654427699977532, 6.967256899923086, 9.989685700042173, 14.240464400034398, 18.881258399924263, 18.4913645000197, 42.393709199968725, 21.69704450003337]","[3.230926899937913, 0.014205999905243516, 0.030597600038163364, 0.03677460004109889, 0.00021249998826533556, 0.03265309997368604, 0.09736849996261299, 0.05030200001783669, 0.045975100016221404, 0.06492010003421456, 0.06611630006227642, 14.240471399971284, 0.00021730002481490374, 18.491371399955824, 0.06258410005830228, 21.697051399969496]",0,,,,,,,,,,,,,,,,,,,,,,,,,,,,,,,,,,,,,,,,,,,,,,,,,,,,,,,,,,,,,,,,,,,,,,,,,,,,,,,,,,,,,,,,,,,,,,,,,,,,,,,,,,,,,,,,,,,,,,,,,,,,G8G5CJ,train_y,red_square,top_right,2025-06-07_11h09.16.642,HideSeek_v1,2022.2.5,60.02040691206893,
,5,5,5,4,0,-1,15,,train_dim1_1,1,30,,,,2,0,2,0,,,,,,,,,0,0,0,0,0,0,0,0,0,0,0,0,,,,,,,,,,,,,,,,,,,,,,,,,stimuli/alien_stimuli/15.png,,,,,,,,,,,,,,,,,,,,,,,,,,,,,,,,,,,,,,,30,,,,,,,,670.7139121000655,670.7139121000655,670.7139121000655,670.7139121000655,670.7139121000655,0,0,0.24,0,return,10.069749300018884,0,1,0,0,0.24,0,return,9.968912199954502,,,,,,,,,,,,,,,,,,,,,,,,,,,,,,,,,,,,,,,,,,,,,,,,,,,,,,,,G8G5CJ,train_y,red_square,top_right,2025-06-07_11h09.16.642,HideSeek_v1,2022.2.5,60.02040691206893,
,8,7,8,7,0,0,16,,train_dim1_1,2,30,,,,2,0,2,0,,,,,,,,,0,0,0,0,0,1,1,1,0,0,0,0,,,,,,,,,,,,,,,,,,,,,,,,,stimuli/alien_stimuli/16.png,,,,,,,,,,,,,,,,,,,,,,,,,,,,,stimuli/alien_stimuli/15.png,15,5,3,,,,,,,30,,,,,,,,710.3031173000345,710.3031173000345,710.3031173000345,710.3031173000345,710.3031173000345,0,0,0.48,0.16,return,6.393728800001554,1,0,0,1,0.48,0.16,return,6.2952799999620765,708.7403959000949,710.3031173000345,0.24,-0.08,0.08,0.0,-0.04,0.24,0.24,0.24,-0.08,682.3427223000908,682.3427223000908,682.3427223000908,682.3427223000908,682.3427223000908,682.3427223000908,682.3427223000908,682.3427223000908,682.335190219991,26.52404899999965,return,26.376486400025897,,,,,,,,,,,,,,,,,,,,,,,,,,,,,,,,,G8G5CJ,train_y,red_square,top_right,2025-06-07_11h09.16.642,HideSeek_v1,2022.2.5,60.02040691206893,
,7,8,7,5,0,-3,13,,train_dim1_1,3,30,,,,2,0,2,0,,,,,,,,,0,0,0,0,0,2,2,2,0,0,0,0,,,,,,,,,,,,,,,,,,,,,,,,,stimuli/alien_stimuli/13.png,,,,,,,,,,,,,,,,,,,,,,,,,,,,,stimuli/alien_stimuli/16.png,16,8,4,,,,,,,30,,,,,,,,738.5170761001064,738.5170761001064,738.5170761001064,738.5170761001064,738.5170761001064,,,,,down,3.408712900010869,1,0,0,99,0.4,0.15999999999999998,down,3.3071158999809995,736.9473393000662,738.5170761001064,0.48,0.16,0.0,0.0,0.16,0.48,0.48,0.48,0.16,718.2626539000776,718.2626539000776,718.2626539000776,718.2626539000776,718.2626539000776,718.2626539000776,718.2626539000776,718.2626539000776,718.2482631300111,18.801097700023092,return,18.66767659992911,,,,,,,,,,,,,,,,,,,,,,,,,,,,,,,,,G8G5CJ,train_y,red_square,top_right,2025-06-07_11h09.16.642,HideSeek_v1,2022.2.5,60.02040691206893,
,7,8,7,5,0,-3,13,,train_dim1_1,3,30,,,,2,0,2,0,,,,,,,,,0,0,0,0,0,2,2,2,1,0,1,0,,,,,,,,,,,,,,,,,,,,,,,,,,,,,,,,,,,,,,,,,,,,,,,,,,,,,,,,,,,,,,,,30,,,,,,,,741.9198126000119,741.9198126000119,741.9198126000119,741.9198126000119,741.9198126000119,,,,,down,0.9763278000755236,1,0,0,99,0.4,0.07999999999999997,down,0.8833123999647796,,,,,,,,,,,,,,,,,,,,,,,,,,,,,,,,,,,,,,,,,,,,,,,,,,,,,,,,G8G5CJ,train_y,red_square,top_right,2025-06-07_11h09.16.642,HideSeek_v1,2022.2.5,60.02040691206893,
,7,8,7,5,0,-3,13,,train_dim1_1,3,30,,,,2,0,2,0,,,,,,,,,0,0,0,0,0,2,2,2,2,0,2,0,,,,,,,,,,,,,,,,,,,,,,,,,,,,,,,,,,,,,,,,,,,,,,,,,,,,,,,,,,,,,,,,30,,,,,,,,742.9019716000184,742.9019716000184,742.9019716000184,742.9019716000184,742.9019716000184,,,,,down,0.7603300000773743,1,0,0,99,0.4,-2.7755575615628914e-17,down,0.6799219000386074,,,,,,,,,,,,,,,,,,,,,,,,,,,,,,,,,,,,,,,,,,,,,,,,,,,,,,,,G8G5CJ,train_y,red_square,top_right,2025-06-07_11h09.16.642,HideSeek_v1,2022.2.5,60.02040691206893,
,7,8,7,5,0,-3,13,,train_dim1_1,3,30,,,,2,0,2,0,,,,,,,,,0,0,0,0,0,2,2,2,3,0,3,0,,,,,,,,,,,,,,,,,,,,,,,,,,,,,,,,,,,,,,,,,,,,,,,,,,,,,,,,,,,,,,,,30,,,,,,,,743.6693706000224,743.6693706000224,743.6693706000224,743.6693706000224,743.6693706000224,,,,,down,0.8106987000210211,1,0,0,99,0.4,-0.08000000000000003,down,0.7312024000566453,,,,,,,,,,,,,,,,,,,,,,,,,,,,,,,,,,,,,,,,,,,,,,,,,,,,,,,,G8G5CJ,train_y,red_square,top_right,2025-06-07_11h09.16.642,HideSeek_v1,2022.2.5,60.02040691206893,
,7,8,7,5,0,-3,13,,train_dim1_1,3,30,,,,2,0,2,0,,,,,,,,,0,0,0,0,0,2,2,2,4,0,4,0,,,,,,,,,,,,,,,,,,,,,,,,,,,,,,,,,,,,,,,,,,,,,,,,,,,,,,,,,,,,,,,,30,,,,,,,,744.4864311000565,744.4864311000565,744.4864311000565,744.4864311000565,744.4864311000565,-4,0,0.4,-0.08000000000000003,return,1.3607093000318855,1,1,0,0,0.4,-0.08000000000000003,return,1.2832868000259623,,,,,,,,,,,,,,,,,,,,,,,,,,,,,,,,,,,,,,,,,,,,,,,,,,,,,,,,G8G5CJ,train_y,red_square,top_right,2025-06-07_11h09.16.642,HideSeek_v1,2022.2.5,60.02040691206893,
,5,6,5,2,0,-4,12,,train_dim1_1,4,30,,,,2,0,2,0,,,,,,,,,0,0,0,0,0,3,3,3,0,0,0,0,,,,,,,,,,,,,,,,,,,,,,,,,stimuli/alien_stimuli/12.png,,,,,,,,,,,,,,,,,,,,,,,,,,,,,stimuli/alien_stimuli/13.png,13,7,5,,,,,,,30,,,,,,,,758.7222943000961,758.7222943000961,758.7222943000961,758.7222943000961,758.7222943000961,,,,,down,4.759446000098251,1,1,0,99,0.24,0.0,down,4.663822999922559,757.1474126999965,758.7222943000961,0.4,0,0.24,0.0,0.12,0.4,0.4,0.4,0,747.4188642000081,747.4188642000081,747.4188642000081,747.4188642000081,747.4188642000081,747.4188642000081,747.4188642000081,747.4188642000081,747.4058149300283,9.84384369989857,return,9.711646299925633,,,,,,,,,,,,,,,,,,,,,,,,,,,,,,,,,G8G5CJ,train_y,red_square,top_right,2025-06-07_11h09.16.642,HideSeek_v1,2022.2.5,60.02040691206893,
,5,6,5,2,0,-4,12,,train_dim1_1,4,30,,,,2,0,2,0,,,,,,,,,0,0,0,0,0,3,3,3,1,0,1,0,,,,,,,,,,,,,,,,,,,,,,,,,,,,,,,,,,,,,,,,,,,,,,,,,,,,,,,,,,,,,,,,30,,,,,,,,763.4710904000094,763.4710904000094,763.4710904000094,763.4710904000094,763.4710904000094,,,,,down,1.043430299963802,1,1,0,99,0.24,-0.08,down,0.954371599946171,,,,,,,,,,,,,,,,,,,,,,,,,,,,,,,,,,,,,,,,,,,,,,,,,,,,,,,,G8G5CJ,train_y,red_square,top_right,2025-06-07_11h09.16.642,HideSeek_v1,2022.2.5,60.02040691206893,
,5,6,5,2,0,-4,12,,train_dim1_1,4,30,,,,2,0,2,0,,,,,,,,,0,0,0,0,0,3,3,3,2,0,2,0,,,,,,,,,,,,,,,,,,,,,,,,,,,,,,,,,,,,,,,,,,,,,,,,,,,,,,,,,,,,,,,,30,,,,,,,,764.5209205000428,764.5209205000428,764.5209205000428,764.5209205000428,764.5209205000428,,,,,down,0.9938408000161871,1,1,0,99,0.24,-0.16,down,0.9023901999462396,,,,,,,,,,,,,,,,,,,,,,,,,,,,,,,,,,,,,,,,,,,,,,,,,,,,,,,,G8G5CJ,train_y,red_square,top_right,2025-06-07_11h09.16.642,HideSeek_v1,2022.2.5,60.02040691206893,
,5,6,5,2,0,-4,12,,train_dim1_1,4,30,,,,2,0,2,0,,,,,,,,,0,0,0,0,0,3,3,3,3,0,3,0,,,,,,,,,,,,,,,,,,,,,,,,,,,,,,,,,,,,,,,,,,,,,,,,,,,,,,,,,,,,,,,,30,,,,,,,,765.5215491000563,765.5215491000563,765.5215491000563,765.5215491000563,765.5215491000563,,,,,down,2.344725599978119,1,1,0,99,0.24,-0.24,down,2.2671202999772504,,,,,,,,,,,,,,,,,,,,,,,,,,,,,,,,,,,,,,,,,,,,,,,,,,,,,,,,G8G5CJ,train_y,red_square,top_right,2025-06-07_11h09.16.642,HideSeek_v1,2022.2.5,60.02040691206893,
,5,6,5,2,0,-4,12,,train_dim1_1,4,30,,,,2,0,2,0,,,,,,,,,0,0,0,0,0,3,3,3,4,0,4,0,,,,,,,,,,,,,,,,,,,,,,,,,,,,,,,,,,,,,,,,,,,,,,,,,,,,,,,,,,,,,,,,30,,,,,,,,767.8734057000838,767.8734057000838,767.8734057000838,767.8734057000838,767.8734057000838,,,,,down,1.6946879000170156,1,1,0,99,0.24,-0.32,down,1.6043582999845967,,,,,,,,,,,,,,,,,,,,,,,,,,,,,,,,,,,,,,,,,,,,,,,,,,,,,,,,G8G5CJ,train_y,red_square,top_right,2025-06-07_11h09.16.642,HideSeek_v1,2022.2.5,60.02040691206893,
,5,6,5,2,0,-4,12,,train_dim1_1,4,30,,,,2,0,2,0,,,,,,,,,0,0,0,0,0,3,3,3,5,0,5,0,,,,,,,,,,,,,,,,,,,,,,,,,,,,,,,,,,,,,,,,,,,,,,,,,,,,,,,,,,,,,,,,30,,,,,,,,769.5749003000092,769.5749003000092,769.5749003000092,769.5749003000092,769.5749003000092,-9,0,0.24,-0.32,return,0.7768816000316292,1,1,0,0,0.24,-0.32,return,0.6875940000172704,,,,,,,,,,,,,,,,,,,,,,,,,,,,,,,,,,,,,,,,,,,,,,,,,,,,,,,,G8G5CJ,train_y,red_square,top_right,2025-06-07_11h09.16.642,HideSeek_v1,2022.2.5,60.02040691206893,
,8,8,8,3,0,-5,11,,train_dim1_1,5,30,,,,2,0,2,0,,,,,,,,,0,0,0,0,0,4,4,4,0,0,0,0,,,,,,,,,,,,,,,,,,,,,,,,,stimuli/alien_stimuli/11.png,,,,,,,,,,,,,,,,,,,,,,,,,,,,,stimuli/alien_stimuli/12.png,12,5,6,,,,,,,30,,,,,,,,778.0372122999979,778.0372122999979,778.0372122999979,778.0372122999979,778.0372122999979,,,,,down,3.575422399910167,1,1,0,99,0.48,0.15999999999999998,down,3.498030399903655,776.4802129000891,778.0372122999979,0.24,-0.24,0.32,0.0,-0.07999999999999999,0.24,0.24,0.24,-0.24,771.9275720000733,771.9275720000733,771.9275720000733,771.9275720000733,771.9275720000733,771.9275720000733,771.9275720000733,771.9275720000733,771.9261771200225,4.672647300059907,return,4.525417399941944,,,,,,,,,,,,,,,,,,,,,,,,,,,,,,,,,G8G5CJ,train_y,red_square,top_right,2025-06-07_11h09.16.642,HideSeek_v1,2022.2.5,60.02040691206893,
,8,8,8,3,0,-5,11,,train_dim1_1,5,30,,,,2,0,2,0,,,,,,,,,0,0,0,0,0,4,4,4,1,0,1,0,,,,,,,,,,,,,,,,,,,,,,,,,,,,,,,,,,,,,,,,,,,,,,,,,,,,,,,,,,,,,,,,30,,,,,,,,781.6187692000531,781.6187692000531,781.6187692000531,781.6187692000531,781.6187692000531,,,,,down,1.0101332000922412,1,1,0,99,0.48,0.07999999999999997,down,0.9243555000284687,,,,,,,,,,,,,,,,,,,,,,,,,,,,,,,,,,,,,,,,,,,,,,,,,,,,,,,,G8G5CJ,train_y,red_square,top_right,2025-06-07_11h09.16.642,HideSeek_v1,2022.2.5,60.02040691206893,
,8,8,8,3,0,-5,11,,train_dim1_1,5,30,,,,2,0,2,0,,,,,,,,,0,0,0,0,0,4,4,4,2,0,2,0,,,,,,,,,,,,,,,,,,,,,,,,,,,,,,,,,,,,,,,,,,,,,,,,,,,,,,,,,,,,,,,,30,,,,,,,,782.6360725000268,782.6360725000268,782.6360725000268,782.6360725000268,782.6360725000268,,,,,down,1.2272758999606594,1,1,0,99,0.48,-2.7755575615628914e-17,down,1.1488700000336394,,,,,,,,,,,,,,,,,,,,,,,,,,,,,,,,,,,,,,,,,,,,,,,,,,,,,,,,G8G5CJ,train_y,red_square,top_right,2025-06-07_11h09.16.642,HideSeek_v1,2022.2.5,60.02040691206893,
,8,8,8,3,0,-5,11,,train_dim1_1,5,30,,,,2,0,2,0,,,,,,,,,0,0,0,0,0,4,4,4,3,0,3,0,,,,,,,,,,,,,,,,,,,,,,,,,,,,,,,,,,,,,,,,,,,,,,,,,,,,,,,,,,,,,,,,30,,,,,,,,783.8704701000825,783.8704701000825,783.8704701000825,783.8704701000825,783.8704701000825,,,,,down,2.0445470000850037,1,1,0,99,0.48,-0.08000000000000003,down,1.9517004999797791,,,,,,,,,,,,,,,,,,,,,,,,,,,,,,,,,,,,,,,,,,,,,,,,,,,,,,,,G8G5CJ,train_y,red_square,top_right,2025-06-07_11h09.16.642,HideSeek_v1,2022.2.5,60.02040691206893,
,8,8,8,3,0,-5,11,,train_dim1_1,5,30,,,,2,0,2,0,,,,,,,,,0,0,0,0,0,4,4,4,4,0,4,0,,,,,,,,,,,,,,,,,,,,,,,,,,,,,,,,,,,,,,,,,,,,,,,,,,,,,,,,,,,,,,,,30,,,,,,,,785.921610700083,785.921610700083,785.921610700083,785.921610700083,785.921610700083,-13,0,0.48,-0.08000000000000003,return,0.8272017000708729,1,1,0,0,0.48,-0.08000000000000003,return,0.7430178999202326,,,,,,,,,,,,,,,,,,,,,,,,,,,,,,,,,,,,,,,,,,,,,,,,,,,,,,,,G8G5CJ,train_y,red_square,top_right,2025-06-07_11h09.16.642,HideSeek_v1,2022.2.5,60.02040691206893,
,6,9,6,5,0,-4,12,,train_dim1_1,6,30,,,,2,0,2,0,,,,,,,,,0,0,0,0,0,5,5,5,0,0,0,0,,,,,,,,,,,,,,,,,,,,,,,,,stimuli/alien_stimuli/12.png,,,,,,,,,,,,,,,,,,,,,,,,,,,,,stimuli/alien_stimuli/11.png,11,8,7,,,,,,,30,,,,,,,,795.4205975000514,795.4205975000514,795.4205975000514,795.4205975000514,795.4205975000514,,,,,down,2.3715517000528052,1,1,0,99,0.32,0.24,down,2.2833294000010937,793.8610962000675,795.4205975000514,0.48,-0.16,0.4,0.0,0.039999999999999994,0.48,0.48,0.48,-0.16,788.3187126000412,788.3187126000412,788.3187126000412,788.3187126000412,788.3187126000412,788.3187126000412,788.3187126000412,788.3187126000412,788.3062484299764,5.657210299978033,return,5.526458000065759,,,,,,,,,,,,,,,,,,,,,,,,,,,,,,,,,G8G5CJ,train_y,red_square,top_right,2025-06-07_11h09.16.642,HideSeek_v1,2022.2.5,60.02040691206893,
,6,9,6,5,0,-4,12,,train_dim1_1,6,30,,,,2,0,2,0,,,,,,,,,0,0,0,0,0,5,5,5,1,0,1,0,,,,,,,,,,,,,,,,,,,,,,,,,,,,,,,,,,,,,,,,,,,,,,,,,,,,,,,,,,,,,,,,30,,,,,,,,797.798504000064,797.798504000064,797.798504000064,797.798504000064,797.798504000064,,,,,down,0.8104197999928147,1,1,0,99,0.32,0.15999999999999998,down,0.7279224999947473,,,,,,,,,,,,,,,,,,,,,,,,,,,,,,,,,,,,,,,,,,,,,,,,,,,,,,,,G8G5CJ,train_y,red_square,top_right,2025-06-07_11h09.16.642,HideSeek_v1,2022.2.5,60.02040691206893,
,6,9,6,5,0,-4,12,,train_dim1_1,6,30,,,,2,0,2,0,,,,,,,,,0,0,0,0,0,5,5,5,2,0,2,0,,,,,,,,,,,,,,,,,,,,,,,,,,,,,,,,,,,,,,,,,,,,,,,,,,,,,,,,,,,,,,,,30,,,,,,,,798.6164835999953,798.6164835999953,798.6164835999953,798.6164835999953,798.6164835999953,,,,,down,0.8434807000448927,1,1,0,99,0.32,0.07999999999999997,down,0.7522686999291182,,,,,,,,,,,,,,,,,,,,,,,,,,,,,,,,,,,,,,,,,,,,,,,,,,,,,,,,G8G5CJ,train_y,red_square,top_right,2025-06-07_11h09.16.642,HideSeek_v1,2022.2.5,60.02040691206893,
,6,9,6,5,0,-4,12,,train_dim1_1,6,30,,,,2,0,2,0,,,,,,,,,0,0,0,0,0,5,5,5,3,0,3,0,,,,,,,,,,,,,,,,,,,,,,,,,,,,,,,,,,,,,,,,,,,,,,,,,,,,,,,,,,,,,,,,30,,,,,,,,799.466189000057,799.466189000057,799.466189000057,799.466189000057,799.466189000057,,,,,down,1.343885299982503,1,1,0,99,0.32,-2.7755575615628914e-17,down,1.2625517999986187,,,,,,,,,,,,,,,,,,,,,,,,,,,,,,,,,,,,,,,,,,,,,,,,,,,,,,,,G8G5CJ,train_y,red_square,top_right,2025-06-07_11h09.16.642,HideSeek_v1,2022.2.5,60.02040691206893,
,6,9,6,5,0,-4,12,,train_dim1_1,6,30,,,,2,0,2,0,,,,,,,,,0,0,0,0,0,5,5,5,4,0,4,0,,,,,,,,,,,,,,,,,,,,,,,,,,,,,,,,,,,,,,,,,,,,,,,,,,,,,,,,,,,,,,,,30,,,,,,,,800.8167413000483,800.8167413000483,800.8167413000483,800.8167413000483,800.8167413000483,-17,0,0.32,-2.7755575615628914e-17,return,1.6948871000204235,2,0,0,1,0.32,-2.7755575615628914e-17,return,1.6169094999786466,,,,,,,,,,,,,,,,,,,,,,,,,,,,,,,,,,,,,,,,,,,,,,,,,,,,,,,,G8G5CJ,train_y,red_square,top_right,2025-06-07_11h09.16.642,HideSeek_v1,2022.2.5,60.02040691206893,
,6,8,6,5,0,-3,13,,train_dim1_1,7,30,,,,2,0,2,0,,,,,,,,,0,0,0,0,0,6,6,6,0,0,0,0,,,,,,,,,,,,,,,,,,,,,,,,,stimuli/alien_stimuli/13.png,,,,,,,,,,,,,,,,,,,,,,,,,,,,,stimuli/alien_stimuli/12.png,12,6,8,,,,,,,30,,,,,,,,808.9453212000662,808.9453212000662,808.9453212000662,808.9453212000662,808.9453212000662,,,,,down,3.3916133999591693,2,0,0,99,0.32,0.15999999999999998,down,3.3009807999478653,807.3888379000127,808.9453212000662,0.32,0,0.32,0.0,0.16,0.32,0.32,0.32,0,804.0855517000891,804.0855517000891,804.0855517000891,804.0855517000891,804.0855517000891,804.0855517000891,804.0855517000891,804.0855517000891,804.0862069200492,3.421621400048025,return,3.2801137000788003,,,,,,,,,,,,,,,,,,,,,,,,,,,,,,,,,G8G5CJ,train_y,red_square,top_right,2025-06-07_11h09.16.642,HideSeek_v1,2022.2.5,60.02040691206893,
,6,8,6,5,0,-3,13,,train_dim1_1,7,30,,,,2,0,2,0,,,,,,,,,0,0,0,0,0,6,6,6,1,0,1,0,,,,,,,,,,,,,,,,,,,,,,,,,,,,,,,,,,,,,,,,,,,,,,,,,,,,,,,,,,,,,,,,30,,,,,,,,812.3440930000506,812.3440930000506,812.3440930000506,812.3440930000506,812.3440930000506,,,,,down,0.7761533999582753,2,0,0,99,0.32,0.07999999999999997,down,0.6850509999785572,,,,,,,,,,,,,,,,,,,,,,,,,,,,,,,,,,,,,,,,,,,,,,,,,,,,,,,,G8G5CJ,train_y,red_square,top_right,2025-06-07_11h09.16.642,HideSeek_v1,2022.2.5,60.02040691206893,
,6,8,6,5,0,-3,13,,train_dim1_1,7,30,,,,2,0,2,0,,,,,,,,,0,0,0,0,0,6,6,6,2,0,2,0,,,,,,,,,,,,,,,,,,,,,,,,,,,,,,,,,,,,,,,,,,,,,,,,,,,,,,,,,,,,,,,,30,,,,,,,,813.1275178000797,813.1275178000797,813.1275178000797,813.1275178000797,813.1275178000797,,,,,down,2.4448734000325203,2,0,0,99,0.32,-2.7755575615628914e-17,down,2.3634720999980345,,,,,,,,,,,,,,,,,,,,,,,,,,,,,,,,,,,,,,,,,,,,,,,,,,,,,,,,G8G5CJ,train_y,red_square,top_right,2025-06-07_11h09.16.642,HideSeek_v1,2022.2.5,60.02040691206893,
,6,8,6,5,0,-3,13,,train_dim1_1,7,30,,,,2,0,2,0,,,,,,,,,0,0,0,0,0,6,6,6,3,0,3,0,,,,,,,,,,,,,,,,,,,,,,,,,,,,,,,,,,,,,,,,,,,,,,,,,,,,,,,,,,,,,,,,30,,,,,,,,815.579023700091,815.579023700091,815.579023700091,815.579023700091,815.579023700091,-20,0,0.32,-2.7755575615628914e-17,return,0.8943032000679523,3,0,0,1,0.32,-2.7755575615628914e-17,return,0.8149950000224635,,,,,,,,,,,,,,,,,,,,,,,,,,,,,,,,,,,,,,,,,,,,,,,,,,,,,,,,G8G5CJ,train_y,red_square,top_right,2025-06-07_11h09.16.642,HideSeek_v1,2022.2.5,60.02040691206893,
,9,7,9,2,0,-5,11,,train_dim1_1,8,30,,,,2,0,2,0,,,,,,,,,0,0,0,0,0,7,7,7,0,0,0,0,,,,,,,,,,,,,,,,,,,,,,,,,stimuli/alien_stimuli/11.png,,,,,,,,,,,,,,,,,,,,,,,,,,,,,stimuli/alien_stimuli/13.png,13,6,9,,,,,,,30,,,,,,,,822.2240022000624,822.2240022000624,822.2240022000624,822.2240022000624,822.2240022000624,,,,,down,3.0575918999966234,3,0,0,99,0.56,0.08,down,2.979103999910876,820.6666150999954,822.2240022000624,0.32,0,0.24,0.0,0.12,0.32,0.32,0.32,0,818.0431156000122,818.0431156000122,818.0431156000122,818.0431156000122,818.0431156000122,818.0431156000122,818.0431156000122,818.0431156000122,818.0309615299805,2.7378386000636965,return,2.596944099990651,,,,,,,,,,,,,,,,,,,,,,,,,,,,,,,,,G8G5CJ,train_y,red_square,top_right,2025-06-07_11h09.16.642,HideSeek_v1,2022.2.5,60.02040691206893,
,9,7,9,2,0,-5,11,,train_dim1_1,8,30,,,,2,0,2,0,,,,,,,,,0,0,0,0,0,7,7,7,1,0,1,0,,,,,,,,,,,,,,,,,,,,,,,,,,,,,,,,,,,,,,,,,,,,,,,,,,,,,,,,,,,,,,,,30,,,,,,,,825.2887884000083,825.2887884000083,825.2887884000083,825.2887884000083,825.2887884000083,,,,,down,0.7928993999958038,3,0,0,99,0.56,0.0,down,0.7139020999893546,,,,,,,,,,,,,,,,,,,,,,,,,,,,,,,,,,,,,,,,,,,,,,,,,,,,,,,,G8G5CJ,train_y,red_square,top_right,2025-06-07_11h09.16.642,HideSeek_v1,2022.2.5,60.02040691206893,
,9,7,9,2,0,-5,11,,train_dim1_1,8,30,,,,2,0,2,0,,,,,,,,,0,0,0,0,0,7,7,7,2,0,2,0,,,,,,,,,,,,,,,,,,,,,,,,,,,,,,,,,,,,,,,,,,,,,,,,,,,,,,,,,,,,,,,,30,,,,,,,,826.0886123999953,826.0886123999953,826.0886123999953,826.0886123999953,826.0886123999953,,,,,down,0.7937895000213757,3,0,0,99,0.56,-0.08,down,0.7043937999987975,,,,,,,,,,,,,,,,,,,,,,,,,,,,,,,,,,,,,,,,,,,,,,,,,,,,,,,,G8G5CJ,train_y,red_square,top_right,2025-06-07_11h09.16.642,HideSeek_v1,2022.2.5,60.02040691206893,
,9,7,9,2,0,-5,11,,train_dim1_1,8,30,,,,2,0,2,0,,,,,,,,,0,0,0,0,0,7,7,7,3,0,3,0,,,,,,,,,,,,,,,,,,,,,,,,,,,,,,,,,,,,,,,,,,,,,,,,,,,,,,,,,,,,,,,,30,,,,,,,,826.8893275000155,826.8893275000155,826.8893275000155,826.8893275000155,826.8893275000155,,,,,down,0.8768900000723079,3,0,0,99,0.56,-0.16,down,0.7842748000985011,,,,,,,,,,,,,,,,,,,,,,,,,,,,,,,,,,,,,,,,,,,,,,,,,,,,,,,,G8G5CJ,train_y,red_square,top_right,2025-06-07_11h09.16.642,HideSeek_v1,2022.2.5,60.02040691206893,
,9,7,9,2,0,-5,11,,train_dim1_1,8,30,,,,2,0,2,0,,,,,,,,,0,0,0,0,0,7,7,7,4,0,4,0,,,,,,,,,,,,,,,,,,,,,,,,,,,,,,,,,,,,,,,,,,,,,,,,,,,,,,,,,,,,,,,,30,,,,,,,,827.7734120000387,827.7734120000387,827.7734120000387,827.7734120000387,827.7734120000387,,,,,down,0.7097297000000253,3,0,0,99,0.56,-0.24,down,0.6322865000693128,,,,,,,,,,,,,,,,,,,,,,,,,,,,,,,,,,,,,,,,,,,,,,,,,,,,,,,,G8G5CJ,train_y,red_square,top_right,2025-06-07_11h09.16.642,HideSeek_v1,2022.2.5,60.02040691206893,
,9,7,9,2,0,-5,11,,train_dim1_1,8,30,,,,2,0,2,0,,,,,,,,,0,0,0,0,0,7,7,7,5,0,5,0,,,,,,,,,,,,,,,,,,,,,,,,,,,,,,,,,,,,,,,,,,,,,,,,,,,,,,,,,,,,,,,,30,,,,,,,,828.4903103000252,828.4903103000252,828.4903103000252,828.4903103000252,828.4903103000252,-25,0,0.56,-0.24,return,0.7604954999405891,4,0,0,1,0.56,-0.24,return,0.677151000010781,,,,,,,,,,,,,,,,,,,,,,,,,,,,,,,,,,,,,,,,,,,,,,,,,,,,,,,,G8G5CJ,train_y,red_square,top_right,2025-06-07_11h09.16.642,HideSeek_v1,2022.2.5,60.02040691206893,
,9,8,9,7,0,-1,15,,train_dim1_1,9,30,,,,2,0,2,0,,,,,,,,,0,0,0,0,0,8,8,8,0,0,0,0,,,,,,,,,,,,,,,,,,,,,,,,,stimuli/alien_stimuli/15.png,,,,,,,,,,,,,,,,,,,,,,,,,,,,,stimuli/alien_stimuli/11.png,11,9,10,,,,,,,30,,,,,,,,835.7843672001036,835.7843672001036,835.7843672001036,835.7843672001036,835.7843672001036,,,,,down,4.659573399927467,4,0,0,99,0.56,0.15999999999999998,down,4.568014899967238,834.2279439000413,835.7843672001036,0.56,-0.24,0.4,0.0,-0.039999999999999994,0.56,0.56,0.56,-0.24,830.8255048000719,830.8255048000719,830.8255048000719,830.8255048000719,830.8255048000719,830.8255048000719,830.8255048000719,830.8255048000719,830.8250945200679,3.5215268000029027,return,3.3734139999141917,,,,,,,,,,,,,,,,,,,,,,,,,,,,,,,,,G8G5CJ,train_y,red_square,top_right,2025-06-07_11h09.16.642,HideSeek_v1,2022.2.5,60.02040691206893,
,9,8,9,7,0,-1,15,,train_dim1_1,9,30,,,,2,0,2,0,,,,,,,,,0,0,0,0,0,8,8,8,1,0,1,0,,,,,,,,,,,,,,,,,,,,,,,,,,,,,,,,,,,,,,,,,,,,,,,,,,,,,,,,,,,,,,,,30,,,,,,,,840.4536736001028,840.4536736001028,840.4536736001028,840.4536736001028,840.4536736001028,-26,0,0.56,0.15999999999999998,return,1.0934758000075817,5,0,0,1,0.56,0.15999999999999998,return,0.9999294000444934,,,,,,,,,,,,,,,,,,,,,,,,,,,,,,,,,,,,,,,,,,,,,,,,,,,,,,,,G8G5CJ,train_y,red_square,top_right,2025-06-07_11h09.16.642,HideSeek_v1,2022.2.5,60.02040691206893,
,7,7,7,7,0,0,16,,train_dim1_1,10,30,,,,2,0,2,0,,,,,,,,,0,0,0,0,0,9,9,9,0,0,0,0,,,,,,,,,,,,,,,,,,,,,,,,,stimuli/alien_stimuli/16.png,,,,,,,,,,,,,,,,,,,,,,,,,,,,,stimuli/alien_stimuli/15.png,15,9,11,,,,,,,30,,,,,,,,846.9490113001084,846.9490113001084,846.9490113001084,846.9490113001084,846.9490113001084,-26,0,0.4,0.16,return,3.311020400025882,6,0,0,1,0.4,0.16,return,3.224452599999495,845.3701536000008,846.9490113001084,0.56,0.16,0.08,0.0,0.2,0.56,0.56,0.56,0.16,843.116034100065,843.116034100065,843.116034100065,843.116034100065,843.116034100065,843.116034100065,843.116034100065,843.116034100065,843.1016055300599,2.371382499928586,return,2.2342434999300167,,,,,,,,,,,,,,,,,,,,,,,,,,,,,,,,,G8G5CJ,train_y,red_square,top_right,2025-06-07_11h09.16.642,HideSeek_v1,2022.2.5,60.02040691206893,
,9,6,9,5,0,-1,15,,train_dim1_1,11,30,,,,2,0,2,0,,,,,,,,,0,0,0,0,0,10,10,10,0,0,0,0,,,,,,,,,,,,,,,,,,,,,,,,,stimuli/alien_stimuli/15.png,,,,,,,,,,,,,,,,,,,,,,,,,,,,,stimuli/alien_stimuli/16.png,16,7,12,,,,,,,30,,,,,,,,855.8839366000611,855.8839366000611,855.8839366000611,855.8839366000611,855.8839366000611,,,,,down,3.074856200022623,6,0,0,99,0.56,0.0,down,2.991895299986936,854.3280589000788,855.8839366000611,0.4,0.16,0.0,0.0,0.16,0.4,0.4,0.4,0.16,851.8060045000166,851.8060045000166,851.8060045000166,851.8060045000166,851.8060045000166,851.8060045000166,851.8060045000166,851.8060045000166,851.7923671400873,2.6209252999396995,return,2.4899943000636995,,,,,,,,,,,,,,,,,,,,,,,,,,,,,,,,,G8G5CJ,train_y,red_square,top_right,2025-06-07_11h09.16.642,HideSeek_v1,2022.2.5,60.02040691206893,
,9,6,9,5,0,-1,15,,train_dim1_1,11,30,,,,2,0,2,0,,,,,,,,,0,0,0,0,0,10,10,10,1,0,1,0,,,,,,,,,,,,,,,,,,,,,,,,,,,,,,,,,,,,,,,,,,,,,,,,,,,,,,,,,,,,,,,,30,,,,,,,,858.9672955001006,858.9672955001006,858.9672955001006,858.9672955001006,858.9672955001006,-27,0,0.56,0.0,return,0.7762321999762207,7,0,0,1,0.56,0.0,return,0.6942202000645921,,,,,,,,,,,,,,,,,,,,,,,,,,,,,,,,,,,,,,,,,,,,,,,,,,,,,,,,G8G5CJ,train_y,red_square,top_right,2025-06-07_11h09.16.642,HideSeek_v1,2022.2.5,60.02040691206893,
,5,5,5,0,0,-5,11,,train_dim1_1,12,30,,,,2,0,2,0,,,,,,,,,0,0,0,0,0,11,11,11,0,0,0,0,,,,,,,,,,,,,,,,,,,,,,,,,stimuli/alien_stimuli/11.png,,,,,,,,,,,,,,,,,,,,,,,,,,,,,stimuli/alien_stimuli/15.png,15,9,13,,,,,,,30,,,,,,,,866.6270371000282,866.6270371000282,866.6270371000282,866.6270371000282,866.6270371000282,,,,,down,2.040539399953559,7,0,0,99,0.24,-0.08,down,1.9501706999726593,865.0701876000967,866.6270371000282,0.56,0,0.08,0.0,0.04,0.56,0.56,0.56,0,861.2984490999952,861.2984490999952,861.2984490999952,861.2984490999952,861.2984490999952,861.2984490999952,861.2984490999952,861.2984490999952,861.2835381400306,3.8721402999944985,return,3.7500705000711605,,,,,,,,,,,,,,,,,,,,,,,,,,,,,,,,,G8G5CJ,train_y,red_square,top_right,2025-06-07_11h09.16.642,HideSeek_v1,2022.2.5,60.02040691206893,
,5,5,5,0,0,-5,11,,train_dim1_1,12,30,,,,2,0,2,0,,,,,,,,,0,0,0,0,0,11,11,11,1,0,1,0,,,,,,,,,,,,,,,,,,,,,,,,,,,,,,,,,,,,,,,,,,,,,,,,,,,,,,,,,,,,,,,,30,,,,,,,,868.673841400072,868.673841400072,868.673841400072,868.673841400072,868.673841400072,,,,,down,0.5598708000034094,7,0,0,99,0.24,-0.16,down,0.4710740000009537,,,,,,,,,,,,,,,,,,,,,,,,,,,,,,,,,,,,,,,,,,,,,,,,,,,,,,,,G8G5CJ,train_y,red_square,top_right,2025-06-07_11h09.16.642,HideSeek_v1,2022.2.5,60.02040691206893,
,5,5,5,0,0,-5,11,,train_dim1_1,12,30,,,,2,0,2,0,,,,,,,,,0,0,0,0,0,11,11,11,2,0,2,0,,,,,,,,,,,,,,,,,,,,,,,,,,,,,,,,,,,,,,,,,,,,,,,,,,,,,,,,,,,,,,,,30,,,,,,,,869.2405143000651,869.2405143000651,869.2405143000651,869.2405143000651,869.2405143000651,,,,,down,0.5270841000601649,7,0,0,99,0.24,-0.24,down,0.4401653000386432,,,,,,,,,,,,,,,,,,,,,,,,,,,,,,,,,,,,,,,,,,,,,,,,,,,,,,,,G8G5CJ,train_y,red_square,top_right,2025-06-07_11h09.16.642,HideSeek_v1,2022.2.5,60.02040691206893,
,5,5,5,0,0,-5,11,,train_dim1_1,12,30,,,,2,0,2,0,,,,,,,,,0,0,0,0,0,11,11,11,3,0,3,0,,,,,,,,,,,,,,,,,,,,,,,,,,,,,,,,,,,,,,,,,,,,,,,,,,,,,,,,,,,,,,,,30,,,,,,,,869.7748384000733,869.7748384000733,869.7748384000733,869.7748384000733,869.7748384000733,,,,,down,1.0436068000271916,7,0,0,99,0.24,-0.32,down,0.9595775000052527,,,,,,,,,,,,,,,,,,,,,,,,,,,,,,,,,,,,,,,,,,,,,,,,,,,,,,,,G8G5CJ,train_y,red_square,top_right,2025-06-07_11h09.16.642,HideSeek_v1,2022.2.5,60.02040691206893,
,5,5,5,0,0,-5,11,,train_dim1_1,12,30,,,,2,0,2,0,,,,,,,,,0,0,0,0,0,11,11,11,4,0,4,0,,,,,,,,,,,,,,,,,,,,,,,,,,,,,,,,,,,,,,,,,,,,,,,,,,,,,,,,,,,,,,,,30,,,,,,,,870.8259645000799,870.8259645000799,870.8259645000799,870.8259645000799,870.8259645000799,,,,,down,0.4763517000246793,7,0,0,99,0.24,-0.4,down,0.38389890000689775,,,,,,,,,,,,,,,,,,,,,,,,,,,,,,,,,,,,,,,,,,,,,,,,,,,,,,,,G8G5CJ,train_y,red_square,top_right,2025-06-07_11h09.16.642,HideSeek_v1,2022.2.5,60.02040691206893,
,5,5,5,0,0,-5,11,,train_dim1_1,12,30,,,,2,0,2,0,,,,,,,,,0,0,0,0,0,11,11,11,5,0,5,0,,,,,,,,,,,,,,,,,,,,,,,,,,,,,,,,,,,,,,,,,,,,,,,,,,,,,,,,,,,,,,,,30,,,,,,,,871.3101638000226,871.3101638000226,871.3101638000226,871.3101638000226,871.3101638000226,-32,0,0.24,-0.4,return,0.9102133000269532,8,0,0,1,0.24,-0.4,return,0.8217345000011846,,,,,,,,,,,,,,,,,,,,,,,,,,,,,,,,,,,,,,,,,,,,,,,,,,,,,,,,G8G5CJ,train_y,red_square,top_right,2025-06-07_11h09.16.642,HideSeek_v1,2022.2.5,60.02040691206893,
,9,8,9,4,0,-4,12,,train_dim1_1,13,30,,,,2,0,2,0,,,,,,,,,0,0,0,0,0,12,12,12,0,0,0,0,,,,,,,,,,,,,,,,,,,,,,,,,stimuli/alien_stimuli/12.png,,,,,,,,,,,,,,,,,,,,,,,,,,,,,stimuli/alien_stimuli/11.png,11,5,14,,,,,,,30,,,,,,,,877.0854499000125,877.0854499000125,877.0854499000125,877.0854499000125,877.0854499000125,,,,,down,2.273543499992229,8,0,0,99,0.56,0.15999999999999998,down,2.188102300046012,875.5286738000577,877.0854499000125,0.24,-0.4,0.4,0.0,-0.2,0.24,0.24,0.24,-0.4,873.7908321000868,873.7908321000868,873.7908321000868,873.7908321000868,873.7908321000868,873.7908321000868,873.7908321000868,873.7908321000868,873.7769771300257,1.8538977999705821,return,1.7153017999371514,,,,,,,,,,,,,,,,,,,,,,,,,,,,,,,,,G8G5CJ,train_y,red_square,top_right,2025-06-07_11h09.16.642,HideSeek_v1,2022.2.5,60.02040691206893,
,9,8,9,4,0,-4,12,,train_dim1_1,13,30,,,,2,0,2,0,,,,,,,,,0,0,0,0,0,12,12,12,1,0,1,0,,,,,,,,,,,,,,,,,,,,,,,,,,,,,,,,,,,,,,,,,,,,,,,,,,,,,,,,,,,,,,,,30,,,,,,,,879.3673122000182,879.3673122000182,879.3673122000182,879.3673122000182,879.3673122000182,,,,,down,0.6095722999889404,8,0,0,99,0.56,0.07999999999999997,down,0.5256186000769958,,,,,,,,,,,,,,,,,,,,,,,,,,,,,,,,,,,,,,,,,,,,,,,,,,,,,,,,G8G5CJ,train_y,red_square,top_right,2025-06-07_11h09.16.642,HideSeek_v1,2022.2.5,60.02040691206893,
,9,8,9,4,0,-4,12,,train_dim1_1,13,30,,,,2,0,2,0,,,,,,,,,0,0,0,0,0,12,12,12,2,0,2,0,,,,,,,,,,,,,,,,,,,,,,,,,,,,,,,,,,,,,,,,,,,,,,,,,,,,,,,,,,,,,,,,30,,,,,,,,879.9830465000123,879.9830465000123,879.9830465000123,879.9830465000123,879.9830465000123,,,,,down,0.6268159000901505,8,0,0,99,0.56,-2.7755575615628914e-17,down,0.542276700027287,,,,,,,,,,,,,,,,,,,,,,,,,,,,,,,,,,,,,,,,,,,,,,,,,,,,,,,,G8G5CJ,train_y,red_square,top_right,2025-06-07_11h09.16.642,HideSeek_v1,2022.2.5,60.02040691206893,
,9,8,9,4,0,-4,12,,train_dim1_1,13,30,,,,2,0,2,0,,,,,,,,,0,0,0,0,0,12,12,12,3,0,3,0,,,,,,,,,,,,,,,,,,,,,,,,,,,,,,,,,,,,,,,,,,,,,,,,,,,,,,,,,,,,,,,,30,,,,,,,,880.6174102000659,880.6174102000659,880.6174102000659,880.6174102000659,880.6174102000659,,,,,down,0.5935877000447363,8,0,0,99,0.56,-0.08000000000000003,down,0.511730800033547,,,,,,,,,,,,,,,,,,,,,,,,,,,,,,,,,,,,,,,,,,,,,,,,,,,,,,,,G8G5CJ,train_y,red_square,top_right,2025-06-07_11h09.16.642,HideSeek_v1,2022.2.5,60.02040691206893,
,9,8,9,4,0,-4,12,,train_dim1_1,13,30,,,,2,0,2,0,,,,,,,,,0,0,0,0,0,12,12,12,4,0,4,0,,,,,,,,,,,,,,,,,,,,,,,,,,,,,,,,,,,,,,,,,,,,,,,,,,,,,,,,,,,,,,,,30,,,,,,,,881.2173564000987,881.2173564000987,881.2173564000987,881.2173564000987,881.2173564000987,-36,0,0.56,-0.08000000000000003,return,0.7104693999281153,9,0,0,1,0.56,-0.08000000000000003,return,0.6309753999812528,,,,,,,,,,,,,,,,,,,,,,,,,,,,,,,,,,,,,,,,,,,,,,,,,,,,,,,,G8G5CJ,train_y,red_square,top_right,2025-06-07_11h09.16.642,HideSeek_v1,2022.2.5,60.02040691206893,
,7,7,7,7,0,0,16,,train_dim1_1,14,30,,,,2,0,2,0,,,,,,,,,0,0,0,0,0,13,13,13,0,0,0,0,,,,,,,,,,,,,,,,,,,,,,,,,stimuli/alien_stimuli/16.png,,,,,,,,,,,,,,,,,,,,,,,,,,,,,stimuli/alien_stimuli/12.png,12,9,15,,,,,,,30,,,,,,,,886.3448074000189,886.3448074000189,886.3448074000189,886.3448074000189,886.3448074000189,-36,0,0.4,0.16,return,1.8716605000663549,10,0,0,1,0.4,0.16,return,1.7787574999965727,884.7861964000622,886.3448074000189,0.56,-0.08,0.32,0.0,0.07999999999999999,0.56,0.56,0.56,-0.08,883.486504200031,883.486504200031,883.486504200031,883.486504200031,883.486504200031,883.486504200031,883.486504200031,883.486504200031,883.4851132299984,1.403125899960287,return,1.267902999999933,,,,,,,,,,,,,,,,,,,,,,,,,,,,,,,,,G8G5CJ,train_y,red_square,top_right,2025-06-07_11h09.16.642,HideSeek_v1,2022.2.5,60.02040691206893,
,6,9,6,6,0,-3,13,,train_dim1_1,15,30,,,,2,0,2,0,,,,,,,,,0,0,0,0,0,14,14,14,0,0,0,0,,,,,,,,,,,,,,,,,,,,,,,,,stimuli/alien_stimuli/13.png,,,,,,,,,,,,,,,,,,,,,,,,,,,,,stimuli/alien_stimuli/16.png,16,7,16,,,,,,,30,,,,,,,,893.2828602000372,893.2828602000372,893.2828602000372,893.2828602000372,893.2828602000372,,,,,down,1.5216693000402302,10,0,0,99,0.32,0.24,down,1.441314100055024,891.7254222000483,893.2828602000372,0.4,0.16,0.0,0.0,0.16,0.4,0.4,0.4,0.16,889.7760273000458,889.7760273000458,889.7760273000458,889.7760273000458,889.7760273000458,889.7760273000458,889.7760273000458,889.7760273000458,889.7737445299747,2.053730000043288,return,1.924853999982588,,,,,,,,,,,,,,,,,,,,,,,,,,,,,,,,,G8G5CJ,train_y,red_square,top_right,2025-06-07_11h09.16.642,HideSeek_v1,2022.2.5,60.02040691206893,
,6,9,6,6,0,-3,13,,train_dim1_1,15,30,,,,2,0,2,0,,,,,,,,,0,0,0,0,0,14,14,14,1,0,1,0,,,,,,,,,,,,,,,,,,,,,,,,,,,,,,,,,,,,,,,,,,,,,,,,,,,,,,,,,,,,,,,,30,,,,,,,,894.8119635001058,894.8119635001058,894.8119635001058,894.8119635001058,894.8119635001058,,,,,down,0.7434335999423638,10,0,0,99,0.32,0.15999999999999998,down,0.6566655999049544,,,,,,,,,,,,,,,,,,,,,,,,,,,,,,,,,,,,,,,,,,,,,,,,,,,,,,,,G8G5CJ,train_y,red_square,top_right,2025-06-07_11h09.16.642,HideSeek_v1,2022.2.5,60.02040691206893,
,6,9,6,6,0,-3,13,,train_dim1_1,15,30,,,,2,0,2,0,,,,,,,,,0,0,0,0,0,14,14,14,2,0,2,0,,,,,,,,,,,,,,,,,,,,,,,,,,,,,,,,,,,,,,,,,,,,,,,,,,,,,,,,,,,,,,,,30,,,,,,,,895.5629579001106,895.5629579001106,895.5629579001106,895.5629579001106,895.5629579001106,,,,,down,0.6934877000749111,10,0,0,99,0.32,0.07999999999999997,down,0.6087636000011116,,,,,,,,,,,,,,,,,,,,,,,,,,,,,,,,,,,,,,,,,,,,,,,,,,,,,,,,G8G5CJ,train_y,red_square,top_right,2025-06-07_11h09.16.642,HideSeek_v1,2022.2.5,60.02040691206893,
,6,9,6,6,0,-3,13,,train_dim1_1,15,30,,,,2,0,2,0,,,,,,,,,0,0,0,0,0,14,14,14,3,0,3,0,,,,,,,,,,,,,,,,,,,,,,,,,,,,,,,,,,,,,,,,,,,,,,,,,,,,,,,,,,,,,,,,30,,,,,,,,896.2625192000996,896.2625192000996,896.2625192000996,896.2625192000996,896.2625192000996,-39,0,0.32,0.07999999999999997,return,0.7600210000528023,11,0,0,1,0.32,0.07999999999999997,return,0.6849158999975771,,,,,,,,,,,,,,,,,,,,,,,,,,,,,,,,,,,,,,,,,,,,,,,,,,,,,,,,G8G5CJ,train_y,red_square,top_right,2025-06-07_11h09.16.642,HideSeek_v1,2022.2.5,60.02040691206893,
,9,5,9,4,0,-1,15,,train_dim1_1,16,30,,,,2,0,2,0,,,,,,,,,0,0,0,0,0,15,15,15,0,0,0,0,,,,,,,,,,,,,,,,,,,,,,,,,stimuli/alien_stimuli/15.png,,,,,,,,,,,,,,,,,,,,,,,,,,,,,stimuli/alien_stimuli/13.png,13,6,17,,,,,,,30,,,,,,,,901.3068121999968,901.3068121999968,901.3068121999968,901.3068121999968,901.3068121999968,,,,,down,2.80670720001217,11,0,0,99,0.56,-0.08,down,2.7171665999339893,899.7488912000554,901.3068121999968,0.32,0.08,0.24,0.0,0.2,0.32,0.32,0.32,0.08,898.5785392000107,898.5785392000107,898.5785392000107,898.5785392000107,898.5785392000107,898.5785392000107,898.5785392000107,898.5785392000107,898.5641746400157,1.2702815000666305,return,1.1490028999978676,,,,,,,,,,,,,,,,,,,,,,,,,,,,,,,,,G8G5CJ,train_y,red_square,top_right,2025-06-07_11h09.16.642,HideSeek_v1,2022.2.5,60.02040691206893,
,9,5,9,4,0,-1,15,,train_dim1_1,16,30,,,,2,0,2,0,,,,,,,,,0,0,0,0,0,15,15,15,1,0,1,0,,,,,,,,,,,,,,,,,,,,,,,,,,,,,,,,,,,,,,,,,,,,,,,,,,,,,,,,,,,,,,,,30,,,,,,,,904.1211732000811,904.1211732000811,904.1211732000811,904.1211732000811,904.1211732000811,-40,0,0.56,-0.08,return,0.49290289997588843,12,0,0,1,0.56,-0.08,return,0.39969999995082617,,,,,,,,,,,,,,,,,,,,,,,,,,,,,,,,,,,,,,,,,,,,,,,,,,,,,,,,G8G5CJ,train_y,red_square,top_right,2025-06-07_11h09.16.642,HideSeek_v1,2022.2.5,60.02040691206893,
,8,8,8,5,0,-3,13,,train_dim1_1,17,30,,,,2,0,2,0,,,,,,,,,0,0,0,0,0,16,16,16,0,0,0,0,,,,,,,,,,,,,,,,,,,,,,,,,stimuli/alien_stimuli/13.png,,,,,,,,,,,,,,,,,,,,,,,,,,,,,stimuli/alien_stimuli/15.png,15,9,18,,,,,,,30,,,,,,,,910.0026721000904,910.0026721000904,910.0026721000904,910.0026721000904,910.0026721000904,,,,,down,1.467352299951017,12,0,0,99,0.48,0.15999999999999998,down,1.3786478999536484,908.4392240000889,910.0026721000904,0.56,-0.08,0.08,0.0,-0.04,0.56,0.56,0.56,-0.08,906.1878009000793,906.1878009000793,906.1878009000793,906.1878009000793,906.1878009000793,906.1878009000793,906.1878009000793,906.1878009000793,906.1872438200052,2.3709501000121236,return,2.2215157999889925,,,,,,,,,,,,,,,,,,,,,,,,,,,,,,,,,G8G5CJ,train_y,red_square,top_right,2025-06-07_11h09.16.642,HideSeek_v1,2022.2.5,60.02040691206893,
,8,8,8,5,0,-3,13,,train_dim1_1,17,30,,,,2,0,2,0,,,,,,,,,0,0,0,0,0,16,16,16,1,0,1,0,,,,,,,,,,,,,,,,,,,,,,,,,,,,,,,,,,,,,,,,,,,,,,,,,,,,,,,,,,,,,,,,30,,,,,,,,911.475935399998,911.475935399998,911.475935399998,911.475935399998,911.475935399998,,,,,down,0.5599160001147538,12,0,0,99,0.48,0.07999999999999997,down,0.4782624999061227,,,,,,,,,,,,,,,,,,,,,,,,,,,,,,,,,,,,,,,,,,,,,,,,,,,,,,,,G8G5CJ,train_y,red_square,top_right,2025-06-07_11h09.16.642,HideSeek_v1,2022.2.5,60.02040691206893,
,8,8,8,5,0,-3,13,,train_dim1_1,17,30,,,,2,0,2,0,,,,,,,,,0,0,0,0,0,16,16,16,2,0,2,0,,,,,,,,,,,,,,,,,,,,,,,,,,,,,,,,,,,,,,,,,,,,,,,,,,,,,,,,,,,,,,,,30,,,,,,,,912.0424902000232,912.0424902000232,912.0424902000232,912.0424902000232,912.0424902000232,,,,,down,0.6265394000802189,12,0,0,99,0.48,-2.7755575615628914e-17,down,0.5375849999254569,,,,,,,,,,,,,,,,,,,,,,,,,,,,,,,,,,,,,,,,,,,,,,,,,,,,,,,,G8G5CJ,train_y,red_square,top_right,2025-06-07_11h09.16.642,HideSeek_v1,2022.2.5,60.02040691206893,
,8,8,8,5,0,-3,13,,train_dim1_1,17,30,,,,2,0,2,0,,,,,,,,,0,0,0,0,0,16,16,16,3,0,3,0,,,,,,,,,,,,,,,,,,,,,,,,,,,,,,,,,,,,,,,,,,,,,,,,,,,,,,,,,,,,,,,,30,,,,,,,,912.676130100037,912.676130100037,912.676130100037,912.676130100037,912.676130100037,-43,0,0.48,-2.7755575615628914e-17,return,1.0939576000673696,13,0,0,1,0.48,-2.7755575615628914e-17,return,1.0169564000098035,,,,,,,,,,,,,,,,,,,,,,,,,,,,,,,,,,,,,,,,,,,,,,,,,,,,,,,,G8G5CJ,train_y,red_square,top_right,2025-06-07_11h09.16.642,HideSeek_v1,2022.2.5,60.02040691206893,
,7,6,7,1,0,-5,11,,train_dim1_1,18,30,,,,2,0,2,0,,,,,,,,,0,0,0,0,0,17,17,17,0,0,0,0,,,,,,,,,,,,,,,,,,,,,,,,,stimuli/alien_stimuli/11.png,,,,,,,,,,,,,,,,,,,,,,,,,,,,,stimuli/alien_stimuli/13.png,13,8,19,,,,,,,30,,,,,,,,918.2699740000535,918.2699740000535,918.2699740000535,918.2699740000535,918.2699740000535,,,,,down,2.239965199958533,13,0,0,99,0.4,0.0,down,2.157938899938017,916.7128047000151,918.2699740000535,0.48,0,0.24,0.0,0.12,0.48,0.48,0.48,0,915.3260641000234,915.3260641000234,915.3260641000234,915.3260641000234,915.3260641000234,915.3260641000234,915.3260641000234,915.3260641000234,915.3117100399919,1.4866970999864861,return,1.3551819999702275,,,,,,,,,,,,,,,,,,,,,,,,,,,,,,,,,G8G5CJ,train_y,red_square,top_right,2025-06-07_11h09.16.642,HideSeek_v1,2022.2.5,60.02040691206893,
,7,6,7,1,0,-5,11,,train_dim1_1,18,30,,,,2,0,2,0,,,,,,,,,0,0,0,0,0,17,17,17,1,0,1,0,,,,,,,,,,,,,,,,,,,,,,,,,,,,,,,,,,,,,,,,,,,,,,,,,,,,,,,,,,,,,,,,30,,,,,,,,920.5184701000107,920.5184701000107,920.5184701000107,920.5184701000107,920.5184701000107,,,,,down,0.6258636000566185,13,0,0,99,0.4,-0.08,down,0.5395508999936283,,,,,,,,,,,,,,,,,,,,,,,,,,,,,,,,,,,,,,,,,,,,,,,,,,,,,,,,G8G5CJ,train_y,red_square,top_right,2025-06-07_11h09.16.642,HideSeek_v1,2022.2.5,60.02040691206893,
,7,6,7,1,0,-5,11,,train_dim1_1,18,30,,,,2,0,2,0,,,,,,,,,0,0,0,0,0,17,17,17,2,0,2,0,,,,,,,,,,,,,,,,,,,,,,,,,,,,,,,,,,,,,,,,,,,,,,,,,,,,,,,,,,,,,,,,30,,,,,,,,921.1507815000368,921.1507815000368,921.1507815000368,921.1507815000368,921.1507815000368,,,,,down,0.5599262999603525,13,0,0,99,0.4,-0.16,down,0.4768326000776142,,,,,,,,,,,,,,,,,,,,,,,,,,,,,,,,,,,,,,,,,,,,,,,,,,,,,,,,G8G5CJ,train_y,red_square,top_right,2025-06-07_11h09.16.642,HideSeek_v1,2022.2.5,60.02040691206893,
,7,6,7,1,0,-5,11,,train_dim1_1,18,30,,,,2,0,2,0,,,,,,,,,0,0,0,0,0,17,17,17,3,0,3,0,,,,,,,,,,,,,,,,,,,,,,,,,,,,,,,,,,,,,,,,,,,,,,,,,,,,,,,,,,,,,,,,30,,,,,,,,921.7177774000447,921.7177774000447,921.7177774000447,921.7177774000447,921.7177774000447,,,,,down,0.6270306999795139,13,0,0,99,0.4,-0.24,down,0.5429439999861643,,,,,,,,,,,,,,,,,,,,,,,,,,,,,,,,,,,,,,,,,,,,,,,,,,,,,,,,G8G5CJ,train_y,red_square,top_right,2025-06-07_11h09.16.642,HideSeek_v1,2022.2.5,60.02040691206893,
,7,6,7,1,0,-5,11,,train_dim1_1,18,30,,,,2,0,2,0,,,,,,,,,0,0,0,0,0,17,17,17,4,0,4,0,,,,,,,,,,,,,,,,,,,,,,,,,,,,,,,,,,,,,,,,,,,,,,,,,,,,,,,,,,,,,,,,30,,,,,,,,922.3519262000918,922.3519262000918,922.3519262000918,922.3519262000918,922.3519262000918,,,,,down,0.5267102000070736,13,0,0,99,0.4,-0.32,down,0.4445988000370562,,,,,,,,,,,,,,,,,,,,,,,,,,,,,,,,,,,,,,,,,,,,,,,,,,,,,,,,G8G5CJ,train_y,red_square,top_right,2025-06-07_11h09.16.642,HideSeek_v1,2022.2.5,60.02040691206893,
,7,6,7,1,0,-5,11,,train_dim1_1,18,30,,,,2,0,2,0,,,,,,,,,0,0,0,0,0,17,17,17,5,0,5,0,,,,,,,,,,,,,,,,,,,,,,,,,,,,,,,,,,,,,,,,,,,,,,,,,,,,,,,,,,,,,,,,30,,,,,,,,922.8854063000763,922.8854063000763,922.8854063000763,922.8854063000763,922.8854063000763,-48,0,0.4,-0.32,return,0.977004999993369,14,0,0,1,0.4,-0.32,return,0.89208779996261,,,,,,,,,,,,,,,,,,,,,,,,,,,,,,,,,,,,,,,,,,,,,,,,,,,,,,,,G8G5CJ,train_y,red_square,top_right,2025-06-07_11h09.16.642,HideSeek_v1,2022.2.5,60.02040691206893,
,5,9,5,5,0,-4,12,,train_dim1_1,19,30,,,,2,0,2,0,,,,,,,,,0,0,0,0,0,18,18,18,0,0,0,0,,,,,,,,,,,,,,,,,,,,,,,,,stimuli/alien_stimuli/12.png,,,,,,,,,,,,,,,,,,,,,,,,,,,,,stimuli/alien_stimuli/11.png,11,7,20,,,,,,,30,,,,,,,,928.3281318000518,928.3281318000518,928.3281318000518,928.3281318000518,928.3281318000518,,,,,down,2.2900821999646723,14,0,0,99,0.24,0.24,down,2.209393299999647,926.771355300094,928.3281318000518,0.4,-0.32,0.4,0.0,-0.12,0.4,0.4,0.4,-0.32,925.4226974000921,925.4226974000921,925.4226974000921,925.4226974000921,925.4226974000921,925.4226974000921,925.4226974000921,925.4226974000921,925.4199775300688,1.4533164999447763,return,1.3297476000152528,,,,,,,,,,,,,,,,,,,,,,,,,,,,,,,,,G8G5CJ,train_y,red_square,top_right,2025-06-07_11h09.16.642,HideSeek_v1,2022.2.5,60.02040691206893,
,5,9,5,5,0,-4,12,,train_dim1_1,19,30,,,,2,0,2,0,,,,,,,,,0,0,0,0,0,18,18,18,1,0,1,0,,,,,,,,,,,,,,,,,,,,,,,,,,,,,,,,,,,,,,,,,,,,,,,,,,,,,,,,,,,,,,,,30,,,,,,,,930.6259015999967,930.6259015999967,930.6259015999967,930.6259015999967,930.6259015999967,,,,,down,0.5597662000218406,14,0,0,99,0.24,0.15999999999999998,down,0.4748612999683246,,,,,,,,,,,,,,,,,,,,,,,,,,,,,,,,,,,,,,,,,,,,,,,,,,,,,,,,G8G5CJ,train_y,red_square,top_right,2025-06-07_11h09.16.642,HideSeek_v1,2022.2.5,60.02040691206893,
,5,9,5,5,0,-4,12,,train_dim1_1,19,30,,,,2,0,2,0,,,,,,,,,0,0,0,0,0,18,18,18,2,0,2,0,,,,,,,,,,,,,,,,,,,,,,,,,,,,,,,,,,,,,,,,,,,,,,,,,,,,,,,,,,,,,,,,30,,,,,,,,931.1925205000443,931.1925205000443,931.1925205000443,931.1925205000443,931.1925205000443,,,,,down,0.6603414999553934,14,0,0,99,0.24,0.07999999999999997,down,0.5786386999534443,,,,,,,,,,,,,,,,,,,,,,,,,,,,,,,,,,,,,,,,,,,,,,,,,,,,,,,,G8G5CJ,train_y,red_square,top_right,2025-06-07_11h09.16.642,HideSeek_v1,2022.2.5,60.02040691206893,
,5,9,5,5,0,-4,12,,train_dim1_1,19,30,,,,2,0,2,0,,,,,,,,,0,0,0,0,0,18,18,18,3,0,3,0,,,,,,,,,,,,,,,,,,,,,,,,,,,,,,,,,,,,,,,,,,,,,,,,,,,,,,,,,,,,,,,,30,,,,,,,,931.8607079000212,931.8607079000212,931.8607079000212,931.8607079000212,931.8607079000212,,,,,down,0.5436828999081627,14,0,0,99,0.24,-2.7755575615628914e-17,down,0.45618930005002767,,,,,,,,,,,,,,,,,,,,,,,,,,,,,,,,,,,,,,,,,,,,,,,,,,,,,,,,G8G5CJ,train_y,red_square,top_right,2025-06-07_11h09.16.642,HideSeek_v1,2022.2.5,60.02040691206893,
,5,9,5,5,0,-4,12,,train_dim1_1,19,30,,,,2,0,2,0,,,,,,,,,0,0,0,0,0,18,18,18,4,0,4,0,,,,,,,,,,,,,,,,,,,,,,,,,,,,,,,,,,,,,,,,,,,,,,,,,,,,,,,,,,,,,,,,30,,,,,,,,932.4195467000827,932.4195467000827,932.4195467000827,932.4195467000827,932.4195467000827,-52,0,0.24,-2.7755575615628914e-17,return,0.7599656999809667,15,0,0,1,0.24,-2.7755575615628914e-17,return,0.6631652000360191,,,,,,,,,,,,,,,,,,,,,,,,,,,,,,,,,,,,,,,,,,,,,,,,,,,,,,,,G8G5CJ,train_y,red_square,top_right,2025-06-07_11h09.16.642,HideSeek_v1,2022.2.5,60.02040691206893,
,7,5,7,5,0,0,16,,train_dim1_1,20,30,,,,2,0,2,0,,,,,,,,,0,0,0,0,0,19,19,19,0,0,0,0,,,,,,,,,,,,,,,,,,,,,,,,,stimuli/alien_stimuli/16.png,,,,,,,,,,,,,,,,,,,,,,,,,,,,,stimuli/alien_stimuli/12.png,12,5,21,,,,,,,30,,,,,,,,937.3866371000186,937.3866371000186,937.3866371000186,937.3866371000186,937.3866371000186,-52,0,0.4,0,return,1.9710971999447793,16,0,0,1,0.4,0,return,1.8913627000292763,935.8285472000716,937.3866371000186,0.24,0,0.32,0.0,0.16,0.24,0.24,0.24,0,934.7253237999976,934.7253237999976,934.7253237999976,934.7253237999976,934.7253237999976,934.7253237999976,934.7253237999976,934.7253237999976,934.7111264399952,1.2033539999974892,return,1.0826477000955492,,,,,,,,,,,,,,,,,,,,,,,,,,,,,,,,,G8G5CJ,train_y,red_square,top_right,2025-06-07_11h09.16.642,HideSeek_v1,2022.2.5,60.02040691206893,
,7,9,7,8,0,-1,15,,train_dim1_1,21,30,,,,2,0,2,0,,,,,,,,,0,0,0,0,0,20,20,20,0,0,0,0,,,,,,,,,,,,,,,,,,,,,,,,,stimuli/alien_stimuli/15.png,,,,,,,,,,,,,,,,,,,,,,,,,,,,,stimuli/alien_stimuli/16.png,16,7,22,,,,,,,30,,,,,,,,943.4062932000961,943.4062932000961,943.4062932000961,943.4062932000961,943.4062932000961,,,,,down,1.5905960999662057,16,0,0,99,0.4,0.24,down,1.5047169999452308,941.850274000084,943.4062932000961,0.4,0,0.0,0.0,0.0,0.4,0.4,0.4,0,940.9139366000891,940.9139366000891,940.9139366000891,940.9139366000891,940.9139366000891,940.9139366000891,940.9139366000891,940.9139366000891,940.9161205300363,1.036862500011921,return,0.9149348000064492,,,,,,,,,,,,,,,,,,,,,,,,,,,,,,,,,G8G5CJ,train_y,red_square,top_right,2025-06-07_11h09.16.642,HideSeek_v1,2022.2.5,60.02040691206893,
,7,9,7,8,0,-1,15,,train_dim1_1,21,30,,,,2,0,2,0,,,,,,,,,0,0,0,0,0,20,20,20,1,0,1,0,,,,,,,,,,,,,,,,,,,,,,,,,,,,,,,,,,,,,,,,,,,,,,,,,,,,,,,,,,,,,,,,30,,,,,,,,945.0044457000913,945.0044457000913,945.0044457000913,945.0044457000913,945.0044457000913,-53,0,0.4,0.24,return,0.5431178999133408,17,0,0,1,0.4,0.24,return,0.45324039994738996,,,,,,,,,,,,,,,,,,,,,,,,,,,,,,,,,,,,,,,,,,,,,,,,,,,,,,,,G8G5CJ,train_y,red_square,top_right,2025-06-07_11h09.16.642,HideSeek_v1,2022.2.5,60.02040691206893,
,5,7,5,4,0,-3,13,,train_dim1_1,22,30,,,,2,0,2,0,,,,,,,,,0,0,0,0,0,21,21,21,0,0,0,0,,,,,,,,,,,,,,,,,,,,,,,,,stimuli/alien_stimuli/13.png,,,,,,,,,,,,,,,,,,,,,,,,,,,,,stimuli/alien_stimuli/15.png,15,7,23,,,,,,,30,,,,,,,,950.345119100064,950.345119100064,950.345119100064,950.345119100064,950.345119100064,,,,,down,1.156071300036274,17,0,0,99,0.24,0.08,down,1.0792668999638408,948.7892737000948,950.345119100064,0.4,0.24,0.08,0.0,0.28,0.4,0.4,0.4,0.24,947.1010587000055,947.1010587000055,947.1010587000055,947.1010587000055,947.1010587000055,947.1010587000055,947.1010587000055,947.1010587000055,947.0879026400158,1.7872475000331178,return,1.6621470999671146,,,,,,,,,,,,,,,,,,,,,,,,,,,,,,,,,G8G5CJ,train_y,red_square,top_right,2025-06-07_11h09.16.642,HideSeek_v1,2022.2.5,60.02040691206893,
,5,7,5,4,0,-3,13,,train_dim1_1,22,30,,,,2,0,2,0,,,,,,,,,0,0,0,0,0,21,21,21,1,0,1,0,,,,,,,,,,,,,,,,,,,,,,,,,,,,,,,,,,,,,,,,,,,,,,,,,,,,,,,,,,,,,,,,30,,,,,,,,951.5092726000585,951.5092726000585,951.5092726000585,951.5092726000585,951.5092726000585,,,,,down,0.692962700035423,17,0,0,99,0.24,0.0,down,0.6030515000456944,,,,,,,,,,,,,,,,,,,,,,,,,,,,,,,,,,,,,,,,,,,,,,,,,,,,,,,,G8G5CJ,train_y,red_square,top_right,2025-06-07_11h09.16.642,HideSeek_v1,2022.2.5,60.02040691206893,
,5,7,5,4,0,-3,13,,train_dim1_1,22,30,,,,2,0,2,0,,,,,,,,,0,0,0,0,0,21,21,21,2,0,2,0,,,,,,,,,,,,,,,,,,,,,,,,,,,,,,,,,,,,,,,,,,,,,,,,,,,,,,,,,,,,,,,,30,,,,,,,,952.2092115000123,952.2092115000123,952.2092115000123,952.2092115000123,952.2092115000123,,,,,down,0.9769331000279635,17,0,0,99,0.24,-0.08,down,0.8961431999923661,,,,,,,,,,,,,,,,,,,,,,,,,,,,,,,,,,,,,,,,,,,,,,,,,,,,,,,,G8G5CJ,train_y,red_square,top_right,2025-06-07_11h09.16.642,HideSeek_v1,2022.2.5,60.02040691206893,
,5,7,5,4,0,-3,13,,train_dim1_1,22,30,,,,2,0,2,0,,,,,,,,,0,0,0,0,0,21,21,21,3,0,3,0,,,,,,,,,,,,,,,,,,,,,,,,,,,,,,,,,,,,,,,,,,,,,,,,,,,,,,,,,,,,,,,,30,,,,,,,,953.1930218000198,953.1930218000198,953.1930218000198,953.1930218000198,953.1930218000198,-56,0,0.24,-0.08,return,0.8104583999374881,18,0,0,1,0.24,-0.08,return,0.7348791999975219,,,,,,,,,,,,,,,,,,,,,,,,,,,,,,,,,,,,,,,,,,,,,,,,,,,,,,,,G8G5CJ,train_y,red_square,top_right,2025-06-07_11h09.16.642,HideSeek_v1,2022.2.5,60.02040691206893,
,5,8,5,3,0,-5,11,,train_dim1_1,23,30,,,,2,0,2,0,,,,,,,,,0,0,0,0,0,22,22,22,0,0,0,0,,,,,,,,,,,,,,,,,,,,,,,,,stimuli/alien_stimuli/11.png,,,,,,,,,,,,,,,,,,,,,,,,,,,,,stimuli/alien_stimuli/13.png,13,5,24,,,,,,,30,,,,,,,,957.8851307000732,957.8851307000732,957.8851307000732,957.8851307000732,957.8851307000732,,,,,down,1.9898788999998942,18,0,0,99,0.24,0.15999999999999998,down,1.9032423999160528,956.3290844000876,957.8851307000732,0.24,-0.08,0.24,0.0,0.04,0.24,0.24,0.24,-0.08,955.5797001000028,955.5797001000028,955.5797001000028,955.5797001000028,955.5797001000028,955.5797001000028,955.5797001000028,955.5797001000028,955.5782308199676,0.8698176000034437,return,0.7249142000218853,,,,,,,,,,,,,,,,,,,,,,,,,,,,,,,,,G8G5CJ,train_y,red_square,top_right,2025-06-07_11h09.16.642,HideSeek_v1,2022.2.5,60.02040691206893,
,5,8,5,3,0,-5,11,,train_dim1_1,23,30,,,,2,0,2,0,,,,,,,,,0,0,0,0,0,22,22,22,1,0,1,0,,,,,,,,,,,,,,,,,,,,,,,,,,,,,,,,,,,,,,,,,,,,,,,,,,,,,,,,,,,,,,,,30,,,,,,,,959.8823673001025,959.8823673001025,959.8823673001025,959.8823673001025,959.8823673001025,,,,,down,0.5598956999601796,18,0,0,99,0.24,0.07999999999999997,down,0.47141389991156757,,,,,,,,,,,,,,,,,,,,,,,,,,,,,,,,,,,,,,,,,,,,,,,,,,,,,,,,G8G5CJ,train_y,red_square,top_right,2025-06-07_11h09.16.642,HideSeek_v1,2022.2.5,60.02040691206893,
,5,8,5,3,0,-5,11,,train_dim1_1,23,30,,,,2,0,2,0,,,,,,,,,0,0,0,0,0,22,22,22,2,0,2,0,,,,,,,,,,,,,,,,,,,,,,,,,,,,,,,,,,,,,,,,,,,,,,,,,,,,,,,,,,,,,,,,30,,,,,,,,960.4497088000644,960.4497088000644,960.4497088000644,960.4497088000644,960.4497088000644,,,,,down,0.5936463000252843,18,0,0,99,0.24,-2.7755575615628914e-17,down,0.512002500006929,,,,,,,,,,,,,,,,,,,,,,,,,,,,,,,,,,,,,,,,,,,,,,,,,,,,,,,,G8G5CJ,train_y,red_square,top_right,2025-06-07_11h09.16.642,HideSeek_v1,2022.2.5,60.02040691206893,
,5,8,5,3,0,-5,11,,train_dim1_1,23,30,,,,2,0,2,0,,,,,,,,,0,0,0,0,0,22,22,22,3,0,3,0,,,,,,,,,,,,,,,,,,,,,,,,,,,,,,,,,,,,,,,,,,,,,,,,,,,,,,,,,,,,,,,,30,,,,,,,,961.0509609000292,961.0509609000292,961.0509609000292,961.0509609000292,961.0509609000292,,,,,down,0.7272681000176817,18,0,0,99,0.24,-0.08000000000000003,down,0.6410600999370217,,,,,,,,,,,,,,,,,,,,,,,,,,,,,,,,,,,,,,,,,,,,,,,,,,,,,,,,G8G5CJ,train_y,red_square,top_right,2025-06-07_11h09.16.642,HideSeek_v1,2022.2.5,60.02040691206893,
,5,8,5,3,0,-5,11,,train_dim1_1,23,30,,,,2,0,2,0,,,,,,,,,0,0,0,0,0,22,22,22,4,0,4,0,,,,,,,,,,,,,,,,,,,,,,,,,,,,,,,,,,,,,,,,,,,,,,,,,,,,,,,,,,,,,,,,30,,,,,,,,961.7832895000465,961.7832895000465,961.7832895000465,961.7832895000465,961.7832895000465,,,,,down,0.5435854999814183,18,0,0,99,0.24,-0.16000000000000003,down,0.4645245000720024,,,,,,,,,,,,,,,,,,,,,,,,,,,,,,,,,,,,,,,,,,,,,,,,,,,,,,,,G8G5CJ,train_y,red_square,top_right,2025-06-07_11h09.16.642,HideSeek_v1,2022.2.5,60.02040691206893,
,5,8,5,3,0,-5,11,,train_dim1_1,23,30,,,,2,0,2,0,,,,,,,,,0,0,0,0,0,22,22,22,5,0,5,0,,,,,,,,,,,,,,,,,,,,,,,,,,,,,,,,,,,,,,,,,,,,,,,,,,,,,,,,,,,,,,,,30,,,,,,,,962.334127600072,962.334127600072,962.334127600072,962.334127600072,962.334127600072,-61,0,0.24,-0.16000000000000003,return,0.5097287999233231,19,0,0,1,0.24,-0.16000000000000003,return,0.42163480003364384,,,,,,,,,,,,,,,,,,,,,,,,,,,,,,,,,,,,,,,,,,,,,,,,,,,,,,,,G8G5CJ,train_y,red_square,top_right,2025-06-07_11h09.16.642,HideSeek_v1,2022.2.5,60.02040691206893,
,8,7,8,7,0,0,16,,train_dim1_1,24,30,,,,2,0,2,0,,,,,,,,,0,0,0,0,0,23,23,23,0,0,0,0,,,,,,,,,,,,,,,,,,,,,,,,,stimuli/alien_stimuli/16.png,,,,,,,,,,,,,,,,,,,,,,,,,,,,,stimuli/alien_stimuli/11.png,11,5,25,,,,,,,30,,,,,,,,967.3100258000195,967.3100258000195,967.3100258000195,967.3100258000195,967.3100258000195,-61,0,0.48,0.16,return,1.5220808000303805,20,0,0,1,0.48,0.16,return,1.43072119995486,965.7537296001101,967.3100258000195,0.24,-0.16,0.4,0.0,0.039999999999999994,0.24,0.24,0.24,-0.16,964.4285056000808,964.4285056000808,964.4285056000808,964.4285056000808,964.4285056000808,964.4285056000808,964.4285056000808,964.4285056000808,964.4195564200171,1.452346699894406,return,1.296436300035566,,,,,,,,,,,,,,,,,,,,,,,,,,,,,,,,,G8G5CJ,train_y,red_square,top_right,2025-06-07_11h09.16.642,HideSeek_v1,2022.2.5,60.02040691206893,
,8,8,8,4,0,-4,12,,train_dim1_1,25,30,,,,2,0,2,0,,,,,,,,,0,0,0,0,0,24,24,24,0,0,0,0,,,,,,,,,,,,,,,,,,,,,,,,,stimuli/alien_stimuli/12.png,,,,,,,,,,,,,,,,,,,,,,,,,,,,,stimuli/alien_stimuli/16.png,16,8,26,,,,,,,30,,,,,,,,973.9009349000407,973.9009349000407,973.9009349000407,973.9009349000407,973.9009349000407,,,,,down,1.3871774999424815,20,0,0,99,0.48,0.15999999999999998,down,1.2978402000153437,972.3424483000999,973.9009349000407,0.48,0.16,0.0,0.0,0.16,0.48,0.48,0.48,0.16,970.3879864000482,970.3879864000482,970.3879864000482,970.3879864000482,970.3879864000482,970.3879864000482,970.3879864000482,970.3879864000482,970.3737347399816,2.053787100012414,return,1.9242671999381855,,,,,,,,,,,,,,,,,,,,,,,,,,,,,,,,,G8G5CJ,train_y,red_square,top_right,2025-06-07_11h09.16.642,HideSeek_v1,2022.2.5,60.02040691206893,
,8,8,8,4,0,-4,12,,train_dim1_1,25,30,,,,2,0,2,0,,,,,,,,,0,0,0,0,0,24,24,24,1,0,1,0,,,,,,,,,,,,,,,,,,,,,,,,,,,,,,,,,,,,,,,,,,,,,,,,,,,,,,,,,,,,,,,,30,,,,,,,,975.2953667000402,975.2953667000402,975.2953667000402,975.2953667000402,975.2953667000402,,,,,down,0.726296600070782,20,0,0,99,0.48,0.07999999999999997,down,0.6356694999849424,,,,,,,,,,,,,,,,,,,,,,,,,,,,,,,,,,,,,,,,,,,,,,,,,,,,,,,,G8G5CJ,train_y,red_square,top_right,2025-06-07_11h09.16.642,HideSeek_v1,2022.2.5,60.02040691206893,
,8,8,8,4,0,-4,12,,train_dim1_1,25,30,,,,2,0,2,0,,,,,,,,,0,0,0,0,0,24,24,24,2,0,2,0,,,,,,,,,,,,,,,,,,,,,,,,,,,,,,,,,,,,,,,,,,,,,,,,,,,,,,,,,,,,,,,,30,,,,,,,,976.0291535001015,976.0291535001015,976.0291535001015,976.0291535001015,976.0291535001015,,,,,down,0.8937021000310779,20,0,0,99,0.48,-2.7755575615628914e-17,down,0.8165850999066606,,,,,,,,,,,,,,,,,,,,,,,,,,,,,,,,,,,,,,,,,,,,,,,,,,,,,,,,G8G5CJ,train_y,red_square,top_right,2025-06-07_11h09.16.642,HideSeek_v1,2022.2.5,60.02040691206893,
,8,8,8,4,0,-4,12,,train_dim1_1,25,30,,,,2,0,2,0,,,,,,,,,0,0,0,0,0,24,24,24,3,0,3,0,,,,,,,,,,,,,,,,,,,,,,,,,,,,,,,,,,,,,,,,,,,,,,,,,,,,,,,,,,,,,,,,30,,,,,,,,976.9308200000087,976.9308200000087,976.9308200000087,976.9308200000087,976.9308200000087,,,,,down,1.0106442999094725,20,0,0,99,0.48,-0.08000000000000003,down,0.9300004000542685,,,,,,,,,,,,,,,,,,,,,,,,,,,,,,,,,,,,,,,,,,,,,,,,,,,,,,,,G8G5CJ,train_y,red_square,top_right,2025-06-07_11h09.16.642,HideSeek_v1,2022.2.5,60.02040691206893,
,8,8,8,4,0,-4,12,,train_dim1_1,25,30,,,,2,0,2,0,,,,,,,,,0,0,0,0,0,24,24,24,4,0,4,0,,,,,,,,,,,,,,,,,,,,,,,,,,,,,,,,,,,,,,,,,,,,,,,,,,,,,,,,,,,,,,,,30,,,,,,,,977.9478641001042,977.9478641001042,977.9478641001042,977.9478641001042,977.9478641001042,-65,0,0.48,-0.08000000000000003,return,0.6766674999380484,21,0,0,1,0.48,-0.08000000000000003,return,0.5887464999686927,,,,,,,,,,,,,,,,,,,,,,,,,,,,,,,,,,,,,,,,,,,,,,,,,,,,,,,,G8G5CJ,train_y,red_square,top_right,2025-06-07_11h09.16.642,HideSeek_v1,2022.2.5,60.02040691206893,
,9,9,9,6,0,-3,13,,train_dim1_1,26,30,,,,2,0,2,0,,,,,,,,,0,0,0,0,0,25,25,25,0,0,0,0,,,,,,,,,,,,,,,,,,,,,,,,,stimuli/alien_stimuli/13.png,,,,,,,,,,,,,,,,,,,,,,,,,,,,,stimuli/alien_stimuli/12.png,12,8,27,,,,,,,30,,,,,,,,982.9733900000574,982.9733900000574,982.9733900000574,982.9733900000574,982.9733900000574,,,,,down,1.5718341999454424,21,0,0,99,0.56,0.24,down,1.4799391999840736,981.4165380001068,982.9733900000574,0.48,-0.08,0.32,0.0,0.07999999999999999,0.48,0.48,0.48,-0.08,980.180616500089,980.180616500089,980.180616500089,980.180616500089,980.180616500089,980.180616500089,980.180616500089,980.180616500089,980.1819049299695,1.3369207000359893,return,1.204563699895516,,,,,,,,,,,,,,,,,,,,,,,,,,,,,,,,,G8G5CJ,train_y,red_square,top_right,2025-06-07_11h09.16.642,HideSeek_v1,2022.2.5,60.02040691206893,
,9,9,9,6,0,-3,13,,train_dim1_1,26,30,,,,2,0,2,0,,,,,,,,,0,0,0,0,0,25,25,25,1,0,1,0,,,,,,,,,,,,,,,,,,,,,,,,,,,,,,,,,,,,,,,,,,,,,,,,,,,,,,,,,,,,,,,,30,,,,,,,,984.5536230000434,984.5536230000434,984.5536230000434,984.5536230000434,984.5536230000434,,,,,down,0.5596610999200493,21,0,0,99,0.56,0.15999999999999998,down,0.4716498999623582,,,,,,,,,,,,,,,,,,,,,,,,,,,,,,,,,,,,,,,,,,,,,,,,,,,,,,,,G8G5CJ,train_y,red_square,top_right,2025-06-07_11h09.16.642,HideSeek_v1,2022.2.5,60.02040691206893,
,9,9,9,6,0,-3,13,,train_dim1_1,26,30,,,,2,0,2,0,,,,,,,,,0,0,0,0,0,25,25,25,2,0,2,0,,,,,,,,,,,,,,,,,,,,,,,,,,,,,,,,,,,,,,,,,,,,,,,,,,,,,,,,,,,,,,,,30,,,,,,,,985.122078100103,985.122078100103,985.122078100103,985.122078100103,985.122078100103,,,,,down,0.4740626000566408,21,0,0,99,0.56,0.07999999999999997,down,0.39858089992776513,,,,,,,,,,,,,,,,,,,,,,,,,,,,,,,,,,,,,,,,,,,,,,,,,,,,,,,,G8G5CJ,train_y,red_square,top_right,2025-06-07_11h09.16.642,HideSeek_v1,2022.2.5,60.02040691206893,
,9,9,9,6,0,-3,13,,train_dim1_1,26,30,,,,2,0,2,0,,,,,,,,,0,0,0,0,0,25,25,25,3,0,3,0,,,,,,,,,,,,,,,,,,,,,,,,,,,,,,,,,,,,,,,,,,,,,,,,,,,,,,,,,,,,,,,,30,,,,,,,,985.6028949000174,985.6028949000174,985.6028949000174,985.6028949000174,985.6028949000174,-68,0,0.56,0.07999999999999997,return,0.6268066999036819,22,0,0,1,0.56,0.07999999999999997,return,0.5434341999934986,,,,,,,,,,,,,,,,,,,,,,,,,,,,,,,,,,,,,,,,,,,,,,,,,,,,,,,,G8G5CJ,train_y,red_square,top_right,2025-06-07_11h09.16.642,HideSeek_v1,2022.2.5,60.02040691206893,
,8,9,8,9,0,0,16,,train_dim1_1,27,30,,,,2,0,2,0,,,,,,,,,0,0,0,0,0,26,26,26,0,0,0,0,,,,,,,,,,,,,,,,,,,,,,,,,stimuli/alien_stimuli/16.png,,,,,,,,,,,,,,,,,,,,,,,,,,,,,stimuli/alien_stimuli/13.png,13,9,28,,,,,,,30,,,,,,,,990.7784083000151,990.7784083000151,990.7784083000151,990.7784083000151,990.7784083000151,-68,0,0.48,0.32,return,1.6575108000542969,23,0,0,1,0.48,0.32,return,1.580106700072065,989.2228324000025,990.7784083000151,0.56,0.08,0.24,0.0,0.2,0.56,0.56,0.56,0.08,987.7855453001102,987.7855453001102,987.7855453001102,987.7855453001102,987.7855453001102,987.7855453001102,987.7855453001102,987.7855453001102,987.7714715400012,1.5369006000692025,return,1.4154876000247896,,,,,,,,,,,,,,,,,,,,,,,,,,,,,,,,,G8G5CJ,train_y,red_square,top_right,2025-06-07_11h09.16.642,HideSeek_v1,2022.2.5,60.02040691206893,
,9,6,9,1,0,-5,11,,train_dim1_1,28,30,,,,2,0,2,0,,,,,,,,,0,0,0,0,0,27,27,27,0,0,0,0,,,,,,,,,,,,,,,,,,,,,,,,,stimuli/alien_stimuli/11.png,,,,,,,,,,,,,,,,,,,,,,,,,,,,,stimuli/alien_stimuli/16.png,16,8,29,,,,,,,30,,,,,,,,997.1511651000474,997.1511651000474,997.1511651000474,997.1511651000474,997.1511651000474,,,,,down,1.405955099966377,23,0,0,99,0.56,0.0,down,1.3183372999774292,995.594819100108,997.1511651000474,0.48,0.32,0.0,0.0,0.32,0.48,0.48,0.48,0.32,993.9916211999953,993.9916211999953,993.9916211999953,993.9916211999953,993.9916211999953,993.9916211999953,993.9916211999953,993.9916211999953,993.9933936300688,1.7038415001006797,return,1.5858129999833182,,,,,,,,,,,,,,,,,,,,,,,,,,,,,,,,,G8G5CJ,train_y,red_square,top_right,2025-06-07_11h09.16.642,HideSeek_v1,2022.2.5,60.02040691206893,
,9,6,9,1,0,-5,11,,train_dim1_1,28,30,,,,2,0,2,0,,,,,,,,,0,0,0,0,0,27,27,27,1,0,1,0,,,,,,,,,,,,,,,,,,,,,,,,,,,,,,,,,,,,,,,,,,,,,,,,,,,,,,,,,,,,,,,,30,,,,,,,,998.5650682999985,998.5650682999985,998.5650682999985,998.5650682999985,998.5650682999985,,,,,down,0.5262735999422148,23,0,0,99,0.56,-0.08,down,0.44449119991622865,,,,,,,,,,,,,,,,,,,,,,,,,,,,,,,,,,,,,,,,,,,,,,,,,,,,,,,,G8G5CJ,train_y,red_square,top_right,2025-06-07_11h09.16.642,HideSeek_v1,2022.2.5,60.02040691206893,
,9,6,9,1,0,-5,11,,train_dim1_1,28,30,,,,2,0,2,0,,,,,,,,,0,0,0,0,0,27,27,27,2,0,2,0,,,,,,,,,,,,,,,,,,,,,,,,,,,,,,,,,,,,,,,,,,,,,,,,,,,,,,,,,,,,,,,,30,,,,,,,,999.0985739000607,999.0985739000607,999.0985739000607,999.0985739000607,999.0985739000607,,,,,down,0.5432170000858605,23,0,0,99,0.56,-0.16,down,0.46731860004365444,,,,,,,,,,,,,,,,,,,,,,,,,,,,,,,,,,,,,,,,,,,,,,,,,,,,,,,,G8G5CJ,train_y,red_square,top_right,2025-06-07_11h09.16.642,HideSeek_v1,2022.2.5,60.02040691206893,
,9,6,9,1,0,-5,11,,train_dim1_1,28,30,,,,2,0,2,0,,,,,,,,,0,0,0,0,0,27,27,27,3,0,3,0,,,,,,,,,,,,,,,,,,,,,,,,,,,,,,,,,,,,,,,,,,,,,,,,,,,,,,,,,,,,,,,,30,,,,,,,,999.6484998000087,999.6484998000087,999.6484998000087,999.6484998000087,999.6484998000087,,,,,down,0.7771865999093279,23,0,0,99,0.56,-0.24,down,0.6952303999569267,,,,,,,,,,,,,,,,,,,,,,,,,,,,,,,,,,,,,,,,,,,,,,,,,,,,,,,,G8G5CJ,train_y,red_square,top_right,2025-06-07_11h09.16.642,HideSeek_v1,2022.2.5,60.02040691206893,
,9,6,9,1,0,-5,11,,train_dim1_1,28,30,,,,2,0,2,0,,,,,,,,,0,0,0,0,0,27,27,27,4,0,4,0,,,,,,,,,,,,,,,,,,,,,,,,,,,,,,,,,,,,,,,,,,,,,,,,,,,,,,,,,,,,,,,,30,,,,,,,,1000.4324817000888,1000.4324817000888,1000.4324817000888,1000.4324817000888,1000.4324817000888,,,,,down,0.6269688999745995,23,0,0,99,0.56,-0.32,down,0.5380922999465838,,,,,,,,,,,,,,,,,,,,,,,,,,,,,,,,,,,,,,,,,,,,,,,,,,,,,,,,G8G5CJ,train_y,red_square,top_right,2025-06-07_11h09.16.642,HideSeek_v1,2022.2.5,60.02040691206893,
,9,6,9,1,0,-5,11,,train_dim1_1,28,30,,,,2,0,2,0,,,,,,,,,0,0,0,0,0,27,27,27,5,0,5,0,,,,,,,,,,,,,,,,,,,,,,,,,,,,,,,,,,,,,,,,,,,,,,,,,,,,,,,,,,,,,,,,30,,,,,,,,1001.0669474001043,1001.0669474001043,1001.0669474001043,1001.0669474001043,1001.0669474001043,-73,0,0.56,-0.32,return,1.1607175000244752,24,0,0,1,0.56,-0.32,return,1.0783862000098452,,,,,,,,,,,,,,,,,,,,,,,,,,,,,,,,,,,,,,,,,,,,,,,,,,,,,,,,G8G5CJ,train_y,red_square,top_right,2025-06-07_11h09.16.642,HideSeek_v1,2022.2.5,60.02040691206893,
,7,7,7,3,0,-4,12,,train_dim1_1,29,30,,,,2,0,2,0,,,,,,,,,0,0,0,0,0,28,28,28,0,0,0,0,,,,,,,,,,,,,,,,,,,,,,,,,stimuli/alien_stimuli/12.png,,,,,,,,,,,,,,,,,,,,,,,,,,,,,stimuli/alien_stimuli/11.png,11,9,30,,,,,,,30,,,,,,,,1007.096628600033,1007.096628600033,1007.096628600033,1007.096628600033,1007.096628600033,,,,,down,2.787361800088547,24,0,0,99,0.4,0.08,down,2.7052853000350296,1005.536265200004,1007.096628600033,0.56,-0.32,0.4,0.0,-0.12,0.56,0.56,0.56,-0.32,1003.7816753000952,1003.7816753000952,1003.7816753000952,1003.7816753000952,1003.7816753000952,1003.7816753000952,1003.7816753000952,1003.7816753000952,1003.7684425399872,1.853531499975361,return,1.7371371000772342,,,,,,,,,,,,,,,,,,,,,,,,,,,,,,,,,G8G5CJ,train_y,red_square,top_right,2025-06-07_11h09.16.642,HideSeek_v1,2022.2.5,60.02040691206893,
,7,7,7,3,0,-4,12,,train_dim1_1,29,30,,,,2,0,2,0,,,,,,,,,0,0,0,0,0,28,28,28,1,0,1,0,,,,,,,,,,,,,,,,,,,,,,,,,,,,,,,,,,,,,,,,,,,,,,,,,,,,,,,,,,,,,,,,30,,,,,,,,1009.8908862000098,1009.8908862000098,1009.8908862000098,1009.8908862000098,1009.8908862000098,,,,,down,0.6767729000421241,24,0,0,99,0.4,0.0,down,0.5947323000291362,,,,,,,,,,,,,,,,,,,,,,,,,,,,,,,,,,,,,,,,,,,,,,,,,,,,,,,,G8G5CJ,train_y,red_square,top_right,2025-06-07_11h09.16.642,HideSeek_v1,2022.2.5,60.02040691206893,
,7,7,7,3,0,-4,12,,train_dim1_1,29,30,,,,2,0,2,0,,,,,,,,,0,0,0,0,0,28,28,28,2,0,2,0,,,,,,,,,,,,,,,,,,,,,,,,,,,,,,,,,,,,,,,,,,,,,,,,,,,,,,,,,,,,,,,,30,,,,,,,,1010.5746287000366,1010.5746287000366,1010.5746287000366,1010.5746287000366,1010.5746287000366,,,,,down,0.8769784000469372,24,0,0,99,0.4,-0.08,down,0.7959219999611378,,,,,,,,,,,,,,,,,,,,,,,,,,,,,,,,,,,,,,,,,,,,,,,,,,,,,,,,G8G5CJ,train_y,red_square,top_right,2025-06-07_11h09.16.642,HideSeek_v1,2022.2.5,60.02040691206893,
,7,7,7,3,0,-4,12,,train_dim1_1,29,30,,,,2,0,2,0,,,,,,,,,0,0,0,0,0,28,28,28,3,0,3,0,,,,,,,,,,,,,,,,,,,,,,,,,,,,,,,,,,,,,,,,,,,,,,,,,,,,,,,,,,,,,,,,30,,,,,,,,1011.4589258000487,1011.4589258000487,1011.4589258000487,1011.4589258000487,1011.4589258000487,,,,,down,0.6101022000657395,24,0,0,99,0.4,-0.16,down,0.5203802998876199,,,,,,,,,,,,,,,,,,,,,,,,,,,,,,,,,,,,,,,,,,,,,,,,,,,,,,,,G8G5CJ,train_y,red_square,top_right,2025-06-07_11h09.16.642,HideSeek_v1,2022.2.5,60.02040691206893,
,7,7,7,3,0,-4,12,,train_dim1_1,29,30,,,,2,0,2,0,,,,,,,,,0,0,0,0,0,28,28,28,4,0,4,0,,,,,,,,,,,,,,,,,,,,,,,,,,,,,,,,,,,,,,,,,,,,,,,,,,,,,,,,,,,,,,,,30,,,,,,,,1012.0753536000848,1012.0753536000848,1012.0753536000848,1012.0753536000848,1012.0753536000848,-77,0,0.4,-0.16,return,0.49353269999846816,25,0,0,1,0.4,-0.16,return,0.40922120003961027,,,,,,,,,,,,,,,,,,,,,,,,,,,,,,,,,,,,,,,,,,,,,,,,,,,,,,,,G8G5CJ,train_y,red_square,top_right,2025-06-07_11h09.16.642,HideSeek_v1,2022.2.5,60.02040691206893,
,5,6,5,5,0,-1,15,,train_dim1_1,30,30,,,,2,0,2,0,,,,,,,,,0,0,0,0,0,29,29,29,0,0,0,0,,,,,,,,,,,,,,,,,,,,,,,,,stimuli/alien_stimuli/15.png,,,,,,,,,,,,,,,,,,,,,,,,,,,,,stimuli/alien_stimuli/12.png,12,7,31,,,,,,,30,,,,,,,,1016.9511790000834,1016.9511790000834,1016.9511790000834,1016.9511790000834,1016.9511790000834,,,,,down,3.208244899986312,25,0,0,99,0.24,0.0,down,3.126237799995579,1015.39472630003,1016.9511790000834,0.4,-0.16,0.32,0.0,0.0,0.4,0.4,0.4,-0.16,1014.1454862999963,1014.1454862999963,1014.1454862999963,1014.1454862999963,1014.1454862999963,1014.1454862999963,1014.1454862999963,1014.1454862999963,1014.1433826200199,1.3702057000482455,return,1.2263050000183284,,,,,,,,,,,,,,,,,,,,,,,,,,,,,,,,,G8G5CJ,train_y,red_square,top_right,2025-06-07_11h09.16.642,HideSeek_v1,2022.2.5,60.02040691206893,
,5,6,5,5,0,-1,15,,train_dim1_1,30,30,,,,2,0,2,0,,,,,,,,,0,0,0,0,0,29,29,29,1,0,1,0,,,,,,,,,,,,,,,,,,,,,,,,,,,,,,,,,,,,,,,,,,,,,,,,,,,,,,,,,,,,,,,,30,,,,,,,,1020.167567800032,1020.167567800032,1020.167567800032,1020.167567800032,1020.167567800032,-78,0,0.24,0.0,return,0.6426967000588775,26,0,0,1,0.24,0.0,return,0.5529878999805078,,,,,,,,,,,,,,,,,,,,,,,,,,,,,,,,,,,,,,,,,,,,,,,,,,,,,,,,G8G5CJ,train_y,red_square,top_right,2025-06-07_11h09.16.642,HideSeek_v1,2022.2.5,60.02040691206893,
,,,,,,,,,,,30,,,,2,0,2,0,,,,,,,,,,,,,,,,,,,,,,,,,,,,,,,,,,,,,,,,,,,,,,,,,,,,,,,,,,,,,,,,,,,,,,,,,,stimuli/alien_stimuli/15.png,15,5,32,21,0.7,1.0833333333333335,1,1,1,30,0,conditions/schedules/train_y_first/red_square_00/top_right/inputTrain_2.1.xlsx,99,1,2,1,0,,,,,,,,,,,,,,,1,,,,,1023.5015262000961,1025.0641565000406,0.24,0,0.08,0.0,0.04,0.24,0.24,0.24,0,1022.3658210000722,1022.3658210000722,1022.3658210000722,1022.3658210000722,1022.3658210000722,1022.3658210000722,1022.3658210000722,1022.3658210000722,1022.3668286300265,1.2367219000589103,return,1.1184102999977767,0,0.9,0,1,26,,,,,,,,,,,,,,,,,,,,,,,,,,,,G8G5CJ,train_y,red_square,top_right,2025-06-07_11h09.16.642,HideSeek_v1,2022.2.5,60.02040691206893,
,,,,,,,,,,,,,,,3,0,3,0,0,0,0,0,,,,,,,,,,,,,,,,,,,,,,,,,,,,,,,conditions/schedules/train_y_first/red_square_00/top_right/instructions/Slide17.png,conditions/schedules/train_y_first/red_square_00/top_right/instructions/Audio17.wav,1025.0641565000406,1025.0527016600593,17,"[3.230918399989605, 20.84779799997341, 16.50117439997848, 19.32467799994629, 4.290291400044225, 4.935895600006916, 5.720726799918339, 11.406710000010207, 5.654427699977532, 6.967256899923086, 9.989685700042173, 14.240464400034398, 18.881258399924263, 18.4913645000197, 42.393709199968725, 21.69704450003337, 74.48051869997289]","[3.230926899937913, 0.014205999905243516, 0.030597600038163364, 0.03677460004109889, 0.00021249998826533556, 0.03265309997368604, 0.09736849996261299, 0.05030200001783669, 0.045975100016221404, 0.06492010003421456, 0.06611630006227642, 14.240471399971284, 0.00021730002481490374, 18.491371399955824, 0.06258410005830228, 21.697051399969496, 74.48052680003457]",0,,,,,,,,,,,,,,,,,,,,,,,,,,,,,,,,,,,,,,,,,,,,,,,,,,,,,,,,,,,,,,,,,,,,,,,,,,,,,,,,,,,,,,,,,,,,,,,,,,,,,,,,,,,,,,,,,,,,,,,,,,,,G8G5CJ,train_y,red_square,top_right,2025-06-07_11h09.16.642,HideSeek_v1,2022.2.5,60.02040691206893,
,,,,,,,,,,,,,,,3,0,3,0,1,0,1,0,,,,,,,,,,,,,,,,,,,,,,,,,,,,,,,conditions/schedules/train_y_first/red_square_00/top_right/instructions/Slide18.png,conditions/schedules/train_y_first/red_square_00/top_right/instructions/Audio18.wav,1099.6116642000852,1099.6143520500045,18,"[3.230918399989605, 20.84779799997341, 16.50117439997848, 19.32467799994629, 4.290291400044225, 4.935895600006916, 5.720726799918339, 11.406710000010207, 5.654427699977532, 6.967256899923086, 9.989685700042173, 14.240464400034398, 18.881258399924263, 18.4913645000197, 42.393709199968725, 21.69704450003337, 74.48051869997289, 7.322901300038211]","[3.230926899937913, 0.014205999905243516, 0.030597600038163364, 0.03677460004109889, 0.00021249998826533556, 0.03265309997368604, 0.09736849996261299, 0.05030200001783669, 0.045975100016221404, 0.06492010003421456, 0.06611630006227642, 14.240471399971284, 0.00021730002481490374, 18.491371399955824, 0.06258410005830228, 21.697051399969496, 74.48052680003457, 7.322909599984996]",0,,,,,,,,,,,,,,,,,,,,,,,,,,,,,,,,,,,,,,,,,,,,,,,,,,,,,,,,,,,,,,,,,,,,,,,,,,,,,,,,,,,,,,,,,,,,,,,,,,,,,,,,,,,,,,,,,,,,,,,,,,,,G8G5CJ,train_y,red_square,top_right,2025-06-07_11h09.16.642,HideSeek_v1,2022.2.5,60.02040691206893,
,,,,,,,,,,,,,,,3,0,3,0,2,0,2,0,,,,,,,,,,,,,,,,,,,,,,,,,,,,,,,conditions/schedules/train_y_first/red_square_00/top_right/instructions/Slide19.png,conditions/schedules/train_y_first/red_square_00/top_right/instructions/Audio19.wav,1106.9965190000366,1106.9873820600098,19,"[3.230918399989605, 20.84779799997341, 16.50117439997848, 19.32467799994629, 4.290291400044225, 4.935895600006916, 5.720726799918339, 11.406710000010207, 5.654427699977532, 6.967256899923086, 9.989685700042173, 14.240464400034398, 18.881258399924263, 18.4913645000197, 42.393709199968725, 21.69704450003337, 74.48051869997289, 7.322901300038211, 11.263922899961472]","[3.230926899937913, 0.014205999905243516, 0.030597600038163364, 0.03677460004109889, 0.00021249998826533556, 0.03265309997368604, 0.09736849996261299, 0.05030200001783669, 0.045975100016221404, 0.06492010003421456, 0.06611630006227642, 14.240471399971284, 0.00021730002481490374, 18.491371399955824, 0.06258410005830228, 21.697051399969496, 74.48052680003457, 0.013949899934232235, 11.26393040001858]",0,,,,,,,,,,,,,,,,,,,,,,,,,,,,,,,,,,,,,,,,,,,,,,,,,,,,,,,,,,,,,,,,,,,,,,,,,,,,,,,,,,,,,,,,,,,,,,,,,,,,,,,,,,,,,,,,,,,,,,,,,,,,G8G5CJ,train_y,red_square,top_right,2025-06-07_11h09.16.642,HideSeek_v1,2022.2.5,60.02040691206893,
,,,,,,,,,,,,,,,3,0,3,0,3,0,3,0,,,,,,,,,,,,,,,,,,,,,,,,,,,,,,,conditions/schedules/train_y_first/red_square_00/top_right/instructions/Slide20.png,conditions/schedules/train_y_first/red_square_00/top_right/instructions/Audio20.wav,1118.327319300035,1118.3299020500854,20,"[3.230918399989605, 20.84779799997341, 16.50117439997848, 19.32467799994629, 4.290291400044225, 4.935895600006916, 5.720726799918339, 11.406710000010207, 5.654427699977532, 6.967256899923086, 9.989685700042173, 14.240464400034398, 18.881258399924263, 18.4913645000197, 42.393709199968725, 21.69704450003337, 74.48051869997289, 7.322901300038211, 11.263922899961472, 12.479031599941663]","[3.230926899937913, 0.014205999905243516, 0.030597600038163364, 0.03677460004109889, 0.00021249998826533556, 0.03265309997368604, 0.09736849996261299, 0.05030200001783669, 0.045975100016221404, 0.06492010003421456, 0.06611630006227642, 14.240471399971284, 0.00021730002481490374, 18.491371399955824, 0.06258410005830228, 21.697051399969496, 74.48052680003457, 0.013949899934232235, 11.26393040001858, 12.479039900004864]",0,,,,,,,,,,,,,,,,,,,,,,,,,,,,,,,,,,,,,,,,,,,,,,,,,,,,,,,,,,,,,,,,,,,,,,,,,,,,,,,,,,,,,,,,,,,,,,,,,,,,,,,,,,,,,,,,,,,,,,,,,,,,G8G5CJ,train_y,red_square,top_right,2025-06-07_11h09.16.642,HideSeek_v1,2022.2.5,60.02040691206893,
1,8,7,3,7,-5,0,66,2,instr_dim1_2,,,,,,3,0,3,0,,,,,0,0,0,0,,,,,,,,,,,,,,,,,,,,,,,,,,,,,,,,,,,,,stimuli/alien_stimuli/66.png,conditions/schedules/train_y_first/red_square_00/top_right/inputInstr_2.xlsx,stimuli/alien_stimuli/66.png,1130.9014143000823,1130.9014143000823,1130.9014143000823,1130.9014143000823,1130.8901749400188,return,2.7580612000310794,"[-0.16, -0.08, 0, 0.08, 0.16, 0.24, 0.32, 0.4, 0.48, 0.56]","[-0.4, -0.32, -0.24, -0.16, -0.08, 0, 0.08, 0.16, 0.24, 0.32]",7,7,3,8,0.0,0.4,1133.809626000002,1133.809626000002,1133.809626000002,1133.809626000002,1133.809626000002,1133.809626000002,1133.809626000002,1133.7926418199902,9.057862799963914,return,8.891746200039051,stimuli/alien_stimuli/66.png,66,8,1,,,,,,,,,,,,,,,,,,,,,,,,,,,,,,,,,,,,,,,,,,,,,,,,,,,,,,,,,,,,,,,,,,,,,,,,,,,,,,,,,,,,,,,,,G8G5CJ,train_y,red_square,top_right,2025-06-07_11h09.16.642,HideSeek_v1,2022.2.5,60.02040691206893,
,,,,,,,,,,,30,,,,3,0,3,0,,,,,,,,,,,,,,,,,,,,,,,,,,,,,,,,,,,,,,,,,,,,,,,,,,,,,,,,,,,,,,,,,,,,,,,,,,,,,,21,0.7,1.0833333333333335,1,99,2,30,0,conditions/schedules/train_y_first/red_square_00/top_right/inputTrain_2.1.xlsx,99,1,2,1,0,,,,,,,,,,,,,,,,,,,,,,,,,,,,,,,,,,,,,,,,,,,,,,,,,,,,,,,,,,,,,,,,,,,,,,,,,,,G8G5CJ,train_y,red_square,top_right,2025-06-07_11h09.16.642,HideSeek_v1,2022.2.5,60.02040691206893,
,,,,,,,,,,,,,,,4,0,4,0,0,0,0,0,,,,,,,,,,,,,,,,,,,,,,,,,,,,,,,conditions/schedules/train_y_first/red_square_00/top_right/instructions/Slide21.png,conditions/schedules/train_y_first/red_square_00/top_right/instructions/Audio21.wav,1142.8659262000583,1142.8665947100146,21,"[3.230918399989605, 20.84779799997341, 16.50117439997848, 19.32467799994629, 4.290291400044225, 4.935895600006916, 5.720726799918339, 11.406710000010207, 5.654427699977532, 6.967256899923086, 9.989685700042173, 14.240464400034398, 18.881258399924263, 18.4913645000197, 42.393709199968725, 21.69704450003337, 74.48051869997289, 7.322901300038211, 11.263922899961472, 12.479031599941663, 12.859487800044008]","[3.230926899937913, 0.014205999905243516, 0.030597600038163364, 0.03677460004109889, 0.00021249998826533556, 0.03265309997368604, 0.09736849996261299, 0.05030200001783669, 0.045975100016221404, 0.06492010003421456, 0.06611630006227642, 14.240471399971284, 0.00021730002481490374, 18.491371399955824, 0.06258410005830228, 21.697051399969496, 74.48052680003457, 0.013949899934232235, 11.26393040001858, 12.479039900004864, 12.859499200014398]",0,,,,,,,,,,,,,,,,,,,,,,,,,,,,,,,,,,,,,,,,,,,,,,,,,,,,,,,,,,,,,,,,,,,,,,,,,,,,,,,,,,,,,,,,,,,,,,,,,,,,,,,,,,,,,,,,,,,,,,,,,,,,G8G5CJ,train_y,red_square,top_right,2025-06-07_11h09.16.642,HideSeek_v1,2022.2.5,60.02040691206893,
2,9,5,9,5,0,0,16,2,instr_dim1_2,,,,,,4,0,4,0,,,,,0,0,0,0,,,,,,,,,,,,,,,,,,,,,,,,,,,,,,,,,,,,,stimuli/alien_stimuli/16.png,conditions/schedules/train_y_first/red_square_00/top_right/inputInstr_2.xlsx,stimuli/alien_stimuli/16.png,1155.8278215000173,1155.8278215000173,1155.8278215000173,1155.8278215000173,1155.828056330024,return,6.409344499930739,"[-0.16, -0.08, 0, 0.08, 0.16, 0.24, 0.32, 0.4, 0.48, 0.56]","[-0.4, -0.32, -0.24, -0.16, -0.08, 0, 0.08, 0.16, 0.24, 0.32]",5,5,9,9,0.0,0.0,1162.3914700000314,1162.3914700000314,1162.3914700000314,1162.3914700000314,1162.3914700000314,1162.3914700000314,1162.3914700000314,1162.3831013200804,9.942296300083399,return,9.783904399955645,stimuli/alien_stimuli/16.png,16,9,2,,,,,,,,,,,,,,,,,,,,,,,,,,,,,,,,,,,,,,,,,,,,,,,,,,,,,,,,,,,,,,,,,,,,,,,,,,,,,,,,,,,,,,,,,G8G5CJ,train_y,red_square,top_right,2025-06-07_11h09.16.642,HideSeek_v1,2022.2.5,60.02040691206893,
,,,,,,,,,,,30,,,,4,0,4,0,,,,,,,,,,,,,,,,,,,,,,,,,,,,,,,,,,,,,,,,,,,,,,,,,,,,,,,,,,,,,,,,,,,,,,,,,,,,,,21,0.7,1.0833333333333335,1,99,2,30,0,conditions/schedules/train_y_first/red_square_00/top_right/inputTrain_2.1.xlsx,99,1,2,1,0,,,,,,,,,,,,,,,,,,,,,,,,,,,,,,,,,,,,,,,,,,,,,,,,,,,,,,,,,,,,,,,,,,,,,,,,,,,G8G5CJ,train_y,red_square,top_right,2025-06-07_11h09.16.642,HideSeek_v1,2022.2.5,60.02040691206893,
,,,,,,,,,,,,,,,5,0,5,0,0,0,0,0,,,,,,,,,,,,,,,,,,,,,,,,,,,,,,,conditions/schedules/train_y_first/red_square_00/top_right/instructions/Slide22.png,conditions/schedules/train_y_first/red_square_00/top_right/instructions/Audio22.wav,1172.3510726999957,1172.3411310100694,22,"[3.230918399989605, 20.84779799997341, 16.50117439997848, 19.32467799994629, 4.290291400044225, 4.935895600006916, 5.720726799918339, 11.406710000010207, 5.654427699977532, 6.967256899923086, 9.989685700042173, 14.240464400034398, 18.881258399924263, 18.4913645000197, 42.393709199968725, 21.69704450003337, 74.48051869997289, 7.322901300038211, 11.263922899961472, 12.479031599941663, 12.859487800044008, 32.197526100091636]","[3.230926899937913, 0.014205999905243516, 0.030597600038163364, 0.03677460004109889, 0.00021249998826533556, 0.03265309997368604, 0.09736849996261299, 0.05030200001783669, 0.045975100016221404, 0.06492010003421456, 0.06611630006227642, 14.240471399971284, 0.00021730002481490374, 18.491371399955824, 0.06258410005830228, 21.697051399969496, 74.48052680003457, 0.013949899934232235, 11.26393040001858, 12.479039900004864, 12.859499200014398, 32.19753410003614]",0,,,,,,,,,,,,,,,,,,,,,,,,,,,,,,,,,,,,,,,,,,,,,,,,,,,,,,,,,,,,,,,,,,,,,,,,,,,,,,,,,,,,,,,,,,,,,,,,,,,,,,,,,,,,,,,,,,,,,,,,,,,,G8G5CJ,train_y,red_square,top_right,2025-06-07_11h09.16.642,HideSeek_v1,2022.2.5,60.02040691206893,
,7,6,4,6,-3,0,46,,train_dim1_2,1,30,,,,5,0,5,0,,,,,,,,,0,0,0,0,0,0,0,0,0,0,0,0,,,,,,,,,,,,,,,,,,,,,,,,,stimuli/alien_stimuli/46.png,,,,,,,,,,,,,,,,,,,,,,,,,,,,,,,,,,,,,,,30,,,,,,,,1204.6486800001003,1204.6486800001003,1204.6486800001003,1204.6486800001003,1204.6486800001003,,,,,left,5.114434099989012,0,0,0,99,0.32,0.08,left,5.012212199973874,,,,,,,,,,,,,,,,,,,,,,,,,,,,,,,,,,,,,,,,,,,,,,,,,,,,,,,,G8G5CJ,train_y,red_square,top_right,2025-06-07_11h09.16.642,HideSeek_v1,2022.2.5,60.02040691206893,
,7,6,4,6,-3,0,46,,train_dim1_2,1,30,,,,5,0,5,0,,,,,,,,,0,0,0,0,0,0,0,0,1,0,1,0,,,,,,,,,,,,,,,,,,,,,,,,,,,,,,,,,,,,,,,,,,,,,,,,,,,,,,,,,,,,,,,,30,,,,,,,,1209.755040600081,1209.755040600081,1209.755040600081,1209.755040600081,1209.755040600081,,,,,left,0.9263254000106826,0,0,0,99,0.24,0.08,left,0.8464042000705376,,,,,,,,,,,,,,,,,,,,,,,,,,,,,,,,,,,,,,,,,,,,,,,,,,,,,,,,G8G5CJ,train_y,red_square,top_right,2025-06-07_11h09.16.642,HideSeek_v1,2022.2.5,60.02040691206893,
,7,6,4,6,-3,0,46,,train_dim1_2,1,30,,,,5,0,5,0,,,,,,,,,0,0,0,0,0,0,0,0,2,0,2,0,,,,,,,,,,,,,,,,,,,,,,,,,,,,,,,,,,,,,,,,,,,,,,,,,,,,,,,,,,,,,,,,30,,,,,,,,1210.686616800027,1210.686616800027,1210.686616800027,1210.686616800027,1210.686616800027,-78,-2,0.24,0.08,return,1.7609786000102758,0,1,0,0,0.24,0.08,return,1.6804026999743655,,,,,,,,,,,,,,,,,,,,,,,,,,,,,,,,,,,,,,,,,,,,,,,,,,,,,,,,G8G5CJ,train_y,red_square,top_right,2025-06-07_11h09.16.642,HideSeek_v1,2022.2.5,60.02040691206893,
,7,9,7,9,0,0,16,,train_dim1_2,2,30,,,,5,0,5,0,,,,,,,,,0,0,0,0,0,1,1,1,0,0,0,0,,,,,,,,,,,,,,,,,,,,,,,,,stimuli/alien_stimuli/16.png,,,,,,,,,,,,,,,,,,,,,,,,,,,,,stimuli/alien_stimuli/46.png,46,7,3,,,,,,,30,,,,,,,,1218.5575871000765,1218.5575871000765,1218.5575871000765,1218.5575871000765,1218.5575871000765,-78,-2,0.4,0.32,return,2.208111000014469,1,0,0,1,0.4,0.32,return,2.1213501000311226,1216.9950924000004,1218.5575871000765,0.16,0.08,0.0,0.24,0.08,0.16,0.28,0.16,0.08,1214.0294536000583,1214.0294536000583,1214.0294536000583,1214.0294536000583,1214.0294536000583,1214.0294536000583,1214.0294536000583,1214.0294536000583,1214.0091869300695,3.0881672999821603,return,2.947125899954699,,,,,,,,,,,,,,,,,,,,,,,,,,,,,,,,,G8G5CJ,train_y,red_square,top_right,2025-06-07_11h09.16.642,HideSeek_v1,2022.2.5,60.02040691206893,
,9,9,8,9,-1,0,26,,train_dim1_2,3,30,,,,5,0,5,0,,,,,,,,,0,0,0,0,0,2,2,2,0,0,0,0,,,,,,,,,,,,,,,,,,,,,,,,,stimuli/alien_stimuli/26.png,,,,,,,,,,,,,,,,,,,,,,,,,,,,,stimuli/alien_stimuli/16.png,16,7,4,,,,,,,30,,,,,,,,1226.0327237000456,1226.0327237000456,1226.0327237000456,1226.0327237000456,1226.0327237000456,,,,,left,1.9059308000141755,1,0,0,99,0.48000000000000004,0.32,left,1.8143778999801725,1224.4681033000816,1226.0327237000456,0.4,0.32,0.0,0.0,0.32,0.4,0.4,0.4,0.32,1222.324351200019,1222.324351200019,1222.324351200019,1222.324351200019,1222.324351200019,1222.324351200019,1222.324351200019,1222.324351200019,1222.3160945299778,2.2543480000458658,return,2.1228756000055,,,,,,,,,,,,,,,,,,,,,,,,,,,,,,,,,G8G5CJ,train_y,red_square,top_right,2025-06-07_11h09.16.642,HideSeek_v1,2022.2.5,60.02040691206893,
,9,9,8,9,-1,0,26,,train_dim1_2,3,30,,,,5,0,5,0,,,,,,,,,0,0,0,0,0,2,2,2,1,0,1,0,,,,,,,,,,,,,,,,,,,,,,,,,,,,,,,,,,,,,,,,,,,,,,,,,,,,,,,,,,,,,,,,30,,,,,,,,1227.9390209000558,1227.9390209000558,1227.9390209000558,1227.9390209000558,1227.9390209000558,-78,-3,0.48000000000000004,0.32,return,1.2601906000636518,2,0,0,1,0.48000000000000004,0.32,return,1.1767814999911934,,,,,,,,,,,,,,,,,,,,,,,,,,,,,,,,,,,,,,,,,,,,,,,,,,,,,,,,G8G5CJ,train_y,red_square,top_right,2025-06-07_11h09.16.642,HideSeek_v1,2022.2.5,60.02040691206893,
,7,8,3,8,-4,0,56,,train_dim1_2,4,30,,,,5,0,5,0,,,,,,,,,0,0,0,0,0,3,3,3,0,0,0,0,,,,,,,,,,,,,,,,,,,,,,,,,stimuli/alien_stimuli/56.png,,,,,,,,,,,,,,,,,,,,,,,,,,,,,stimuli/alien_stimuli/26.png,26,9,5,,,,,,,30,,,,,,,,1234.0184031000827,1234.0184031000827,1234.0184031000827,1234.0184031000827,1234.0184031000827,,,,,left,3.1905094999819994,2,0,0,99,0.32,0.24,left,3.0776152999605983,1232.441172700026,1234.0184031000827,0.48,0.32,0.0,0.08,0.32,0.48,0.52,0.48,0.32,1230.769111600006,1230.769111600006,1230.769111600006,1230.769111600006,1230.769111600006,1230.769111600006,1230.769111600006,1230.769111600006,1230.7559875300385,1.7872869999846444,return,1.6458413999062032,,,,,,,,,,,,,,,,,,,,,,,,,,,,,,,,,G8G5CJ,train_y,red_square,top_right,2025-06-07_11h09.16.642,HideSeek_v1,2022.2.5,60.02040691206893,
,7,8,3,8,-4,0,56,,train_dim1_2,4,30,,,,5,0,5,0,,,,,,,,,0,0,0,0,0,3,3,3,1,0,1,0,,,,,,,,,,,,,,,,,,,,,,,,,,,,,,,,,,,,,,,,,,,,,,,,,,,,,,,,,,,,,,,,30,,,,,,,,1237.1942463000305,1237.1942463000305,1237.1942463000305,1237.1942463000305,1237.1942463000305,,,,,left,0.7598563999636099,2,0,0,99,0.24,0.24,left,0.669461700017564,,,,,,,,,,,,,,,,,,,,,,,,,,,,,,,,,,,,,,,,,,,,,,,,,,,,,,,,G8G5CJ,train_y,red_square,top_right,2025-06-07_11h09.16.642,HideSeek_v1,2022.2.5,60.02040691206893,
,7,8,3,8,-4,0,56,,train_dim1_2,4,30,,,,5,0,5,0,,,,,,,,,0,0,0,0,0,3,3,3,2,0,2,0,,,,,,,,,,,,,,,,,,,,,,,,,,,,,,,,,,,,,,,,,,,,,,,,,,,,,,,,,,,,,,,,30,,,,,,,,1237.961170900031,1237.961170900031,1237.961170900031,1237.961170900031,1237.961170900031,,,,,left,0.7934055000077933,2,0,0,99,0.15999999999999998,0.24,left,0.7135085000190884,,,,,,,,,,,,,,,,,,,,,,,,,,,,,,,,,,,,,,,,,,,,,,,,,,,,,,,,G8G5CJ,train_y,red_square,top_right,2025-06-07_11h09.16.642,HideSeek_v1,2022.2.5,60.02040691206893,
,7,8,3,8,-4,0,56,,train_dim1_2,4,30,,,,5,0,5,0,,,,,,,,,0,0,0,0,0,3,3,3,3,0,3,0,,,,,,,,,,,,,,,,,,,,,,,,,,,,,,,,,,,,,,,,,,,,,,,,,,,,,,,,,,,,,,,,30,,,,,,,,1238.7612769000698,1238.7612769000698,1238.7612769000698,1238.7612769000698,1238.7612769000698,,,,,left,1.5942731000250205,2,0,0,99,0.07999999999999997,0.24,left,1.507420999929309,,,,,,,,,,,,,,,,,,,,,,,,,,,,,,,,,,,,,,,,,,,,,,,,,,,,,,,,G8G5CJ,train_y,red_square,top_right,2025-06-07_11h09.16.642,HideSeek_v1,2022.2.5,60.02040691206893,
,7,8,3,8,-4,0,56,,train_dim1_2,4,30,,,,5,0,5,0,,,,,,,,,0,0,0,0,0,3,3,3,4,0,4,0,,,,,,,,,,,,,,,,,,,,,,,,,,,,,,,,,,,,,,,,,,,,,,,,,,,,,,,,,,,,,,,,30,,,,,,,,1240.3636098999996,1240.3636098999996,1240.3636098999996,1240.3636098999996,1240.3636098999996,-78,-7,0.07999999999999997,0.24,return,0.7602775000268593,3,0,0,1,0.07999999999999997,0.24,return,0.6858327999943867,,,,,,,,,,,,,,,,,,,,,,,,,,,,,,,,,,,,,,,,,,,,,,,,,,,,,,,,G8G5CJ,train_y,red_square,top_right,2025-06-07_11h09.16.642,HideSeek_v1,2022.2.5,60.02040691206893,
,5,7,0,7,-5,0,66,,train_dim1_2,5,30,,,,5,0,5,0,,,,,,,,,0,0,0,0,0,4,4,4,0,0,0,0,,,,,,,,,,,,,,,,,,,,,,,,,stimuli/alien_stimuli/66.png,,,,,,,,,,,,,,,,,,,,,,,,,,,,,stimuli/alien_stimuli/56.png,56,7,6,,,,,,,30,,,,,,,,1245.6164313000627,1245.6164313000627,1245.6164313000627,1245.6164313000627,1245.6164313000627,,,,,left,2.607732699951157,3,0,0,99,0.15999999999999998,0.16,left,2.5149022999685258,1244.0509806000628,1245.6164313000627,0.08,0.24,0.0,0.32,0.24,0.08,0.24000000000000002,0.08,0.24,1242.7057405000087,1242.7057405000087,1242.7057405000087,1242.7057405000087,1242.7057405000087,1242.7057405000087,1242.7057405000087,1242.7057405000087,1242.682846030034,1.4701896000187844,return,1.3280165999894962,,,,,,,,,,,,,,,,,,,,,,,,,,,,,,,,,G8G5CJ,train_y,red_square,top_right,2025-06-07_11h09.16.642,HideSeek_v1,2022.2.5,60.02040691206893,
,5,7,0,7,-5,0,66,,train_dim1_2,5,30,,,,5,0,5,0,,,,,,,,,0,0,0,0,0,4,4,4,1,0,1,0,,,,,,,,,,,,,,,,,,,,,,,,,,,,,,,,,,,,,,,,,,,,,,,,,,,,,,,,,,,,,,,,30,,,,,,,,1248.2176818000153,1248.2176818000153,1248.2176818000153,1248.2176818000153,1248.2176818000153,,,,,left,0.5596773000434041,3,0,0,99,0.07999999999999997,0.16,left,0.48568299994803965,,,,,,,,,,,,,,,,,,,,,,,,,,,,,,,,,,,,,,,,,,,,,,,,,,,,,,,,G8G5CJ,train_y,red_square,top_right,2025-06-07_11h09.16.642,HideSeek_v1,2022.2.5,60.02040691206893,
