trialInstr,x_fixStart,y_fixStart,x_corrSteps,y_corrSteps,x_nrSteps,y_nrSteps,alienID,trialLength,version,trialTrain,praclen,testlen,trial_label,break_on_off,beforeExpLoop.thisRepN,beforeExpLoop.thisTrialN,beforeExpLoop.thisN,beforeExpLoop.thisIndex,mini_instr_trials.thisRepN,mini_instr_trials.thisTrialN,mini_instr_trials.thisN,mini_instr_trials.thisIndex,instrLoop.thisRepN,instrLoop.thisTrialN,instrLoop.thisN,instrLoop.thisIndex,repeat_prac.thisRepN,repeat_prac.thisTrialN,repeat_prac.thisN,repeat_prac.thisIndex,trainLoop.thisRepN,trainLoop.thisTrialN,trainLoop.thisN,trainLoop.thisIndex,moveLoop_train.thisRepN,moveLoop_train.thisTrialN,moveLoop_train.thisN,moveLoop_train.thisIndex,experiment.thisRepN,experiment.thisTrialN,experiment.thisN,experiment.thisIndex,moveLoop_test.thisRepN,moveLoop_test.thisTrialN,moveLoop_test.thisN,moveLoop_test.thisIndex,mini_instr2_trials.thisRepN,mini_instr2_trials.thisTrialN,mini_instr2_trials.thisN,mini_instr2_trials.thisIndex,start_all_time,url,slideStim,audioStim,slides.started,sounds.started,nextButton.numClicks,nextButton.timesOn,nextButton.timesOff,prev_but.numClicks,prev_but.timesOn,prev_but.timesOff,alienStim,instrFile,alienStim_instr,gridImage_instr.started,startPos_3.started,key_instr.started,alienImage_3.started,sounds_1.started,key_instr.keys,key_instr.rt,all_x,all_y,FBy_corrSteps,FBy_fixStart,FBx_corrSteps,FBx_fixStart,FBy_pathSize_check,FBx_pathSize_check,gridImage_9.started,alienImageFB_3.started,startPosFB_3.started,keyFB_3.started,pathLine_ydir_2.started,pathLine_xdir_2.started,alienFace_3.started,sounds_2.started,RTFB_instr,keyFB_3.keys,keyFB_3.rt,draw_alienStim,draw_alienID,test_x,nrepcount,perfthres,percthres,earlierperf,earlystop,nextPrac,fileidx,praclen,saveACC_train,pracFile,nextPrac_train,addNrep,fileidx_endr,repExp,showearly,gridImage_4.started,startPos.started,movePos.started,key_resp.started,alienImage.started,buttonPress_train,RTchoice_train,cumAcctrain,aCorr,saveACC_choice,corrAns,x_movePos_end,y_movePos_end,key_resp.keys,key_resp.rt,wLy_dir,wLx_dir,x_movePos,y_movePos,text_2.started,text_2.stopped,aft_x_corrPos,aft_y_corrPos,y_pathSize_check,x_pathSize_check,y_pathdirY,x_pathdirY,x_pathdirX,x_corrPos,y_corrPos,gridImage_6.started,alienImageFB_2.started,startPosFB_2.started,movePosFB_2.started,keyFB_2.started,pathLine_xdir.started,pathLine_ydir.started,alienFace.started,sounds_4.started,RT_FBtrain,keyFB_2.keys,keyFB_2.rt,saveACC_pre,ACC,within_saveACC_train,earlystop_wloop,cumAcctrain_check,gridImage_3.started,alienImage_test.started,startPos_test.started,movePos_test.started,key_resp_test.started,wLy_dir_test,wLx_dir_test,buttonPress_test,RTchoice_test,cumAcctest,corrAns_test,key_resp_test.keys,key_resp_test.rt,text_3.started,text_3.stopped,total_time,end_all_time,key_resp_3.keys,slides_2.started,sounds_3.started,nextButton_2.numClicks,nextButton_2.timesOn,nextButton_2.timesOff,prev_but_2.numClicks,prev_but_2.timesOn,prev_but_2.timesOff,bye.started,participant,train_first,00_coordinate,starting corner,date,expName,psychopyVersion,frameRate,
,,,,,,,,,,,,,,,0,0,0,0,0,0,0,0,,,,,,,,,,,,,,,,,,,,,,,,,,,,,start_all_time,testround,conditions/schedules/train_x_first/blue_star_00/bottom_left/instructions/Slide1.png,conditions/schedules/train_x_first/blue_star_00/bottom_left/instructions/Audio1.wav,2030.451263999974,2030.399011540564,1,[6.857625000004191],[6.857634000014514],0,,,,,,,,,,,,,,,,,,,,,,,,,,,,,,,,,,,,,,,,,,,,,,,,,,,,,,,,,,,,,,,,,,,,,,,,,,,,,,,,,,,,,,,,,,,,,,,,,,,,,,,,,,,,,,,,,,,,,,,,,,,,GNT74G,train_x,blue_star,bottom_left,2025-09-30_17h20.07.928,HideSeek_v1,2022.2.5,59.9740072628238,
,,,,,,,,,,,,,,,0,0,0,0,1,0,1,0,,,,,,,,,,,,,,,,,,,,,,,,,,,,,,,conditions/schedules/train_x_first/blue_star_00/bottom_left/instructions/Slide2.png,conditions/schedules/train_x_first/blue_star_00/bottom_left/instructions/Audio2.wav,2037.3295412999578,2037.3262469000183,2,"[6.857625000004191, 17.877388999972027]","[0.014936799998395145, 17.877398399985395]",0,,,,,,,,,,,,,,,,,,,,,,,,,,,,,,,,,,,,,,,,,,,,,,,,,,,,,,,,,,,,,,,,,,,,,,,,,,,,,,,,,,,,,,,,,,,,,,,,,,,,,,,,,,,,,,,,,,,,,,,,,,,,GNT74G,train_x,blue_star,bottom_left,2025-09-30_17h20.07.928,HideSeek_v1,2022.2.5,59.9740072628238,
,,,,,,,,,,,,,,,0,0,0,0,2,0,2,0,,,,,,,,,,,,,,,,,,,,,,,,,,,,,,,conditions/schedules/train_x_first/blue_star_00/bottom_left/instructions/Slide3.png,conditions/schedules/train_x_first/blue_star_00/bottom_left/instructions/Audio3.wav,2055.2825110999984,2055.274210000003,3,"[6.857625000004191, 17.877388999972027, 16.38550660002511]","[0.014936799998395145, 0.05531750002410263, 16.385514300025534]",0,,,,,,,,,,,,,,,,,,,,,,,,,,,,,,,,,,,,,,,,,,,,,,,,,,,,,,,,,,,,,,,,,,,,,,,,,,,,,,,,,,,,,,,,,,,,,,,,,,,,,,,,,,,,,,,,,,,,,,,,,,,,GNT74G,train_x,blue_star,bottom_left,2025-09-30_17h20.07.928,HideSeek_v1,2022.2.5,59.9740072628238,
,,,,,,,,,,,,,,,0,0,0,0,3,0,3,0,,,,,,,,,,,,,,,,,,,,,,,,,,,,,,,conditions/schedules/train_x_first/blue_star_00/bottom_left/instructions/Slide4.png,conditions/schedules/train_x_first/blue_star_00/bottom_left/instructions/Audio4.wav,2071.7488171999576,2071.7377365999855,4,"[6.857625000004191, 17.877388999972027, 16.38550660002511, 19.336129099945538]","[0.014936799998395145, 0.05531750002410263, 0.014754699950572103, 19.33613679994596]",0,,,,,,,,,,,,,,,,,,,,,,,,,,,,,,,,,,,,,,,,,,,,,,,,,,,,,,,,,,,,,,,,,,,,,,,,,,,,,,,,,,,,,,,,,,,,,,,,,,,,,,,,,,,,,,,,,,,,,,,,,,,,GNT74G,train_x,blue_star,bottom_left,2025-09-30_17h20.07.928,HideSeek_v1,2022.2.5,59.9740072628238,
,,,,,,,,,,,,,,,0,0,0,0,4,0,4,0,,,,,,,,,,,,,,,,,,,,,,,,,,,,,,,conditions/schedules/train_x_first/blue_star_00/bottom_left/instructions/Slide5.png,conditions/schedules/train_x_first/blue_star_00/bottom_left/instructions/Audio5.wav,2091.1506111999624,2091.137297779997,5,"[6.857625000004191, 17.877388999972027, 16.38550660002511, 19.336129099945538, 5.071190699993167]","[0.014936799998395145, 0.05531750002410263, 0.014754699950572103, 0.0002120000426657498, 5.071199099998921]",0,,,,,,,,,,,,,,,,,,,,,,,,,,,,,,,,,,,,,,,,,,,,,,,,,,,,,,,,,,,,,,,,,,,,,,,,,,,,,,,,,,,,,,,,,,,,,,,,,,,,,,,,,,,,,,,,,,,,,,,,,,,,GNT74G,train_x,blue_star,bottom_left,2025-09-30_17h20.07.928,HideSeek_v1,2022.2.5,59.9740072628238,
,,,,,,,,,,,,,,,0,0,0,0,5,0,5,0,,,,,,,,,,,,,,,,,,,,,,,,,,,,,,,conditions/schedules/train_x_first/blue_star_00/bottom_left/instructions/Slide6.png,conditions/schedules/train_x_first/blue_star_00/bottom_left/instructions/Audio6.wav,2096.2740188000025,2096.2747500799946,6,"[6.857625000004191, 17.877388999972027, 16.38550660002511, 19.336129099945538, 5.071190699993167, 5.236298899981193]","[0.014936799998395145, 0.05531750002410263, 0.014754699950572103, 0.0002120000426657498, 0.04904439998790622, 5.2363068999839015]",0,,,,,,,,,,,,,,,,,,,,,,,,,,,,,,,,,,,,,,,,,,,,,,,,,,,,,,,,,,,,,,,,,,,,,,,,,,,,,,,,,,,,,,,,,,,,,,,,,,,,,,,,,,,,,,,,,,,,,,,,,,,,GNT74G,train_x,blue_star,bottom_left,2025-09-30_17h20.07.928,HideSeek_v1,2022.2.5,59.9740072628238,
,,,,,,,,,,,,,,,0,0,0,0,6,0,6,0,,,,,,,,,,,,,,,,,,,,,,,,,,,,,,,conditions/schedules/train_x_first/blue_star_00/bottom_left/instructions/Slide7.png,conditions/schedules/train_x_first/blue_star_00/bottom_left/instructions/Audio7.wav,2101.5675281999866,2101.5625790799736,7,"[6.857625000004191, 17.877388999972027, 16.38550660002511, 19.336129099945538, 5.071190699993167, 5.236298899981193, 6.114653899974655]","[0.014936799998395145, 0.05531750002410263, 0.014754699950572103, 0.0002120000426657498, 0.04904439998790622, 0.04820700001437217, 6.114661799976602]",0,,,,,,,,,,,,,,,,,,,,,,,,,,,,,,,,,,,,,,,,,,,,,,,,,,,,,,,,,,,,,,,,,,,,,,,,,,,,,,,,,,,,,,,,,,,,,,,,,,,,,,,,,,,,,,,,,,,,,,,,,,,,GNT74G,train_x,blue_star,bottom_left,2025-09-30_17h20.07.928,HideSeek_v1,2022.2.5,59.9740072628238,
,,,,,,,,,,,,,,,0,0,0,0,7,0,7,0,,,,,,,,,,,,,,,,,,,,,,,,,,,,,,,conditions/schedules/train_x_first/blue_star_00/bottom_left/instructions/Slide8.png,conditions/schedules/train_x_first/blue_star_00/bottom_left/instructions/Audio8.wav,2107.735925599991,2107.734699679981,8,"[6.857625000004191, 17.877388999972027, 16.38550660002511, 19.336129099945538, 5.071190699993167, 5.236298899981193, 6.114653899974655, 11.9885541999829]","[0.014936799998395145, 0.05531750002410263, 0.014754699950572103, 0.0002120000426657498, 0.04904439998790622, 0.04820700001437217, 0.046767399995587766, 11.98856110003544]",0,,,,,,,,,,,,,,,,,,,,,,,,,,,,,,,,,,,,,,,,,,,,,,,,,,,,,,,,,,,,,,,,,,,,,,,,,,,,,,,,,,,,,,,,,,,,,,,,,,,,,,,,,,,,,,,,,,,,,,,,,,,,GNT74G,train_x,blue_star,bottom_left,2025-09-30_17h20.07.928,HideSeek_v1,2022.2.5,59.9740072628238,
,,,,,,,,,,,,,,,0,0,0,0,8,0,8,0,,,,,,,,,,,,,,,,,,,,,,,,,,,,,,,conditions/schedules/train_x_first/blue_star_00/bottom_left/instructions/Slide9.png,conditions/schedules/train_x_first/blue_star_00/bottom_left/instructions/Audio9.wav,2119.7996060999576,2119.794288299978,9,"[6.857625000004191, 17.877388999972027, 16.38550660002511, 19.336129099945538, 5.071190699993167, 5.236298899981193, 6.114653899974655, 11.9885541999829, 5.830350999953225]","[0.014936799998395145, 0.05531750002410263, 0.014754699950572103, 0.0002120000426657498, 0.04904439998790622, 0.04820700001437217, 0.046767399995587766, 0.01441879995400086, 5.830358799954411]",0,,,,,,,,,,,,,,,,,,,,,,,,,,,,,,,,,,,,,,,,,,,,,,,,,,,,,,,,,,,,,,,,,,,,,,,,,,,,,,,,,,,,,,,,,,,,,,,,,,,,,,,,,,,,,,,,,,,,,,,,,,,,GNT74G,train_x,blue_star,bottom_left,2025-09-30_17h20.07.928,HideSeek_v1,2022.2.5,59.9740072628238,
,,,,,,,,,,,,,,,0,0,0,0,9,0,9,0,,,,,,,,,,,,,,,,,,,,,,,,,,,,,,,conditions/schedules/train_x_first/blue_star_00/bottom_left/instructions/Slide10.png,conditions/schedules/train_x_first/blue_star_00/bottom_left/instructions/Audio10.wav,2125.6679151999997,2125.665653359971,10,"[6.857625000004191, 17.877388999972027, 16.38550660002511, 19.336129099945538, 5.071190699993167, 5.236298899981193, 6.114653899974655, 11.9885541999829, 5.830350999953225, 7.117376699985471]","[0.014936799998395145, 0.05531750002410263, 0.014754699950572103, 0.0002120000426657498, 0.04904439998790622, 0.04820700001437217, 0.046767399995587766, 0.01441879995400086, 0.06278320000274107, 7.11738479998894]",0,,,,,,,,,,,,,,,,,,,,,,,,,,,,,,,,,,,,,,,,,,,,,,,,,,,,,,,,,,,,,,,,,,,,,,,,,,,,,,,,,,,,,,,,,,,,,,,,,,,,,,,,,,,,,,,,,,,,,,,,,,,,GNT74G,train_x,blue_star,bottom_left,2025-09-30_17h20.07.928,HideSeek_v1,2022.2.5,59.9740072628238,
,,,,,,,,,,,,,,,0,0,0,0,10,0,10,0,,,,,,,,,,,,,,,,,,,,,,,,,,,,,,,conditions/schedules/train_x_first/blue_star_00/bottom_left/instructions/Slide11.png,conditions/schedules/train_x_first/blue_star_00/bottom_left/instructions/Audio11.wav,2132.8409130999935,2132.8383392799647,11,"[6.857625000004191, 17.877388999972027, 16.38550660002511, 19.336129099945538, 5.071190699993167, 5.236298899981193, 6.114653899974655, 11.9885541999829, 5.830350999953225, 7.117376699985471, 10.13722350000171]","[0.014936799998395145, 0.05531750002410263, 0.014754699950572103, 0.0002120000426657498, 0.04904439998790622, 0.04820700001437217, 0.046767399995587766, 0.01441879995400086, 0.06278320000274107, 0.1329721999936737, 10.13723160000518]",0,,,,,,,,,,,,,,,,,,,,,,,,,,,,,,,,,,,,,,,,,,,,,,,,,,,,,,,,,,,,,,,,,,,,,,,,,,,,,,,,,,,,,,,,,,,,,,,,,,,,,,,,,,,,,,,,,,,,,,,,,,,,GNT74G,train_x,blue_star,bottom_left,2025-09-30_17h20.07.928,HideSeek_v1,2022.2.5,59.9740072628238,
,,,,,,,,,,,,,,,0,0,0,0,11,0,11,0,,,,,,,,,,,,,,,,,,,,,,,,,,,,,,,conditions/schedules/train_x_first/blue_star_00/bottom_left/instructions/Slide12.png,conditions/schedules/train_x_first/blue_star_00/bottom_left/instructions/Audio12.wav,2143.053951799986,2143.047080999997,12,"[6.857625000004191, 17.877388999972027, 16.38550660002511, 19.336129099945538, 5.071190699993167, 5.236298899981193, 6.114653899974655, 11.9885541999829, 5.830350999953225, 7.117376699985471, 10.13722350000171, 13.184675800031982]","[0.014936799998395145, 0.05531750002410263, 0.014754699950572103, 0.0002120000426657498, 0.04904439998790622, 0.04820700001437217, 0.046767399995587766, 0.01441879995400086, 0.06278320000274107, 0.1329721999936737, 0.03649239998776466, 13.184683900035452]",0,,,,,,,,,,,,,,,,,,,,,,,,,,,,,,,,,,,,,,,,,,,,,,,,,,,,,,,,,,,,,,,,,,,,,,,,,,,,,,,,,,,,,,,,,,,,,,,,,,,,,,,,,,,,,,,,,,,,,,,,,,,,GNT74G,train_x,blue_star,bottom_left,2025-09-30_17h20.07.928,HideSeek_v1,2022.2.5,59.9740072628238,
1,4,0,9,0,5,0,11,2,instr_dim1_1,,,,,,0,0,0,0,,,,,0,0,0,0,,,,,,,,,,,,,,,,,,,,,,,,,,,,,,,,,,,,,stimuli/alien_stimuli/11.png,conditions/schedules/train_x_first/blue_star_00/bottom_left/inputInstr_1.xlsx,stimuli/alien_stimuli/11.png,2156.3518780999584,2156.3518780999584,2156.3518780999584,2156.3518780999584,2156.3418021399875,return,10.746276699996088,"[-0.16, -0.08, 0, 0.08, 0.16, 0.24, 0.32, 0.4, 0.48, 0.56]","[-0.4, -0.32, -0.24, -0.16, -0.08, 0, 0.08, 0.16, 0.24, 0.32]",0,0,9,4,0.0,0.4,2167.2800775999785,2167.2800775999785,2167.2800775999785,2167.2800775999785,2167.2800775999785,2167.2800775999785,2167.2800775999785,2167.2677578000003,7.439957800030243,return,7.25067440001294,stimuli/alien_stimuli/11.png,11,4,1,,,,,,,,,,,,,,,,,,,,,,,,,,,,,,,,,,,,,,,,,,,,,,,,,,,,,,,,,,,,,,,,,,,,,,,,,,,,,,,,,,,,,,,,,GNT74G,train_x,blue_star,bottom_left,2025-09-30_17h20.07.928,HideSeek_v1,2022.2.5,59.9740072628238,
,,,,,,,,,,,30,,,,0,0,0,0,,,,,,,,,,,,,,,,,,,,,,,,,,,,,,,,,,,,,,,,,,,,,,,,,,,,,,,,,,,,,,,,,,,,,,,,,,,,,,21,0.7,0,0,99,1,30,0,conditions/schedules/train_x_first/blue_star_00/bottom_left/inputTrain_1.1.xlsx,99,1,1,1,0,,,,,,,,,,,,,,,,,,,,,,,,,,,,,,,,,,,,,,,,,,,,,,,,,,,,,,,,,,,,,,,,,,,,,,,,,,,GNT74G,train_x,blue_star,bottom_left,2025-09-30_17h20.07.928,HideSeek_v1,2022.2.5,59.9740072628238,
,,,,,,,,,,,,,,,1,0,1,0,0,0,0,0,,,,,,,,,,,,,,,,,,,,,,,,,,,,,,,conditions/schedules/train_x_first/blue_star_00/bottom_left/instructions/Slide13.png,conditions/schedules/train_x_first/blue_star_00/bottom_left/instructions/Audio13.wav,2174.720714299998,2174.7071137999883,13,"[6.857625000004191, 17.877388999972027, 16.38550660002511, 19.336129099945538, 5.071190699993167, 5.236298899981193, 6.114653899974655, 11.9885541999829, 5.830350999953225, 7.117376699985471, 10.13722350000171, 13.184675800031982, 17.16382270003669]","[0.014936799998395145, 0.05531750002410263, 0.014754699950572103, 0.0002120000426657498, 0.04904439998790622, 0.04820700001437217, 0.046767399995587766, 0.01441879995400086, 0.06278320000274107, 0.1329721999936737, 0.03649239998776466, 13.184683900035452, 17.163830899982713]",0,,,,,,,,,,,,,,,,,,,,,,,,,,,,,,,,,,,,,,,,,,,,,,,,,,,,,,,,,,,,,,,,,,,,,,,,,,,,,,,,,,,,,,,,,,,,,,,,,,,,,,,,,,,,,,,,,,,,,,,,,,,,GNT74G,train_x,blue_star,bottom_left,2025-09-30_17h20.07.928,HideSeek_v1,2022.2.5,59.9740072628238,
,,,,,,,,,,,,,,,1,0,1,0,1,0,1,0,,,,,,,,,,,,,,,,,,,,,,,,,,,,,,,conditions/schedules/train_x_first/blue_star_00/bottom_left/instructions/Slide14.png,conditions/schedules/train_x_first/blue_star_00/bottom_left/instructions/Audio14.wav,2191.955627899966,2191.9543246999965,14,"[6.857625000004191, 17.877388999972027, 16.38550660002511, 19.336129099945538, 5.071190699993167, 5.236298899981193, 6.114653899974655, 11.9885541999829, 5.830350999953225, 7.117376699985471, 10.13722350000171, 13.184675800031982, 17.16382270003669, 13.173436500015669]","[0.014936799998395145, 0.05531750002410263, 0.014754699950572103, 0.0002120000426657498, 0.04904439998790622, 0.04820700001437217, 0.046767399995587766, 0.01441879995400086, 0.06278320000274107, 0.1329721999936737, 0.03649239998776466, 13.184683900035452, 0.030776600004173815, 13.17344400001457]",0,,,,,,,,,,,,,,,,,,,,,,,,,,,,,,,,,,,,,,,,,,,,,,,,,,,,,,,,,,,,,,,,,,,,,,,,,,,,,,,,,,,,,,,,,,,,,,,,,,,,,,,,,,,,,,,,,,,,,,,,,,,,GNT74G,train_x,blue_star,bottom_left,2025-09-30_17h20.07.928,HideSeek_v1,2022.2.5,59.9740072628238,
2,3,2,3,2,0,0,61,2,instr_dim1_1,,,,,,1,0,1,0,,,,,0,0,0,0,,,,,,,,,,,,,,,,,,,,,,,,,,,,,,,,,,,,,stimuli/alien_stimuli/61.png,conditions/schedules/train_x_first/blue_star_00/bottom_left/inputInstr_1.xlsx,stimuli/alien_stimuli/61.png,2205.2365212999866,2205.2365212999866,2205.2365212999866,2205.2365212999866,2205.232033140014,return,8.960754900006577,"[-0.16, -0.08, 0, 0.08, 0.16, 0.24, 0.32, 0.4, 0.48, 0.56]","[-0.4, -0.32, -0.24, -0.16, -0.08, 0, 0.08, 0.16, 0.24, 0.32]",2,2,3,3,0.0,0.0,2214.368278299982,2214.368278299982,2214.368278299982,2214.368278299982,2214.368278299982,2214.368278299982,2214.368278299982,2214.3566510799924,7.4568669000291266,return,7.28632449998986,stimuli/alien_stimuli/61.png,61,3,2,,,,,,,,,,,,,,,,,,,,,,,,,,,,,,,,,,,,,,,,,,,,,,,,,,,,,,,,,,,,,,,,,,,,,,,,,,,,,,,,,,,,,,,,,GNT74G,train_x,blue_star,bottom_left,2025-09-30_17h20.07.928,HideSeek_v1,2022.2.5,59.9740072628238,
,,,,,,,,,,,30,,,,1,0,1,0,,,,,,,,,,,,,,,,,,,,,,,,,,,,,,,,,,,,,,,,,,,,,,,,,,,,,,,,,,,,,,,,,,,,,,,,,,,,,,21,0.7,0,0,99,1,30,0,conditions/schedules/train_x_first/blue_star_00/bottom_left/inputTrain_1.1.xlsx,99,1,1,1,0,,,,,,,,,,,,,,,,,,,,,,,,,,,,,,,,,,,,,,,,,,,,,,,,,,,,,,,,,,,,,,,,,,,,,,,,,,,GNT74G,train_x,blue_star,bottom_left,2025-09-30_17h20.07.928,HideSeek_v1,2022.2.5,59.9740072628238,
,,,,,,,,,,,,,,,2,0,2,0,0,0,0,0,,,,,,,,,,,,,,,,,,,,,,,,,,,,,,,conditions/schedules/train_x_first/blue_star_00/bottom_left/instructions/Slide15.png,conditions/schedules/train_x_first/blue_star_00/bottom_left/instructions/Audio15.wav,2221.835274699959,2221.829498999985,15,"[6.857625000004191, 17.877388999972027, 16.38550660002511, 19.336129099945538, 5.071190699993167, 5.236298899981193, 6.114653899974655, 11.9885541999829, 5.830350999953225, 7.117376699985471, 10.13722350000171, 13.184675800031982, 17.16382270003669, 13.173436500015669, 30.96650340000633]","[0.014936799998395145, 0.05531750002410263, 0.014754699950572103, 0.0002120000426657498, 0.04904439998790622, 0.04820700001437217, 0.046767399995587766, 0.01441879995400086, 0.06278320000274107, 0.1329721999936737, 0.03649239998776466, 13.184683900035452, 0.030776600004173815, 13.17344400001457, 30.96651129995007]",0,,,,,,,,,,,,,,,,,,,,,,,,,,,,,,,,,,,,,,,,,,,,,,,,,,,,,,,,,,,,,,,,,,,,,,,,,,,,,,,,,,,,,,,,,,,,,,,,,,,,,,,,,,,,,,,,,,,,,,,,,,,,GNT74G,train_x,blue_star,bottom_left,2025-09-30_17h20.07.928,HideSeek_v1,2022.2.5,59.9740072628238,
,,,,,,,,,,,,,,,2,0,2,0,1,0,1,0,,,,,,,,,,,,,,,,,,,,,,,,,,,,,,,conditions/schedules/train_x_first/blue_star_00/bottom_left/instructions/Slide16.png,conditions/schedules/train_x_first/blue_star_00/bottom_left/instructions/Audio16.wav,2252.8655615999596,2252.854756179999,16,"[6.857625000004191, 17.877388999972027, 16.38550660002511, 19.336129099945538, 5.071190699993167, 5.236298899981193, 6.114653899974655, 11.9885541999829, 5.830350999953225, 7.117376699985471, 10.13722350000171, 13.184675800031982, 17.16382270003669, 13.173436500015669, 30.96650340000633, 21.370963300054427]","[0.014936799998395145, 0.05531750002410263, 0.014754699950572103, 0.0002120000426657498, 0.04904439998790622, 0.04820700001437217, 0.046767399995587766, 0.01441879995400086, 0.06278320000274107, 0.1329721999936737, 0.03649239998776466, 13.184683900035452, 0.030776600004173815, 13.17344400001457, 0.014232200046535581, 21.370971199998166]",0,,,,,,,,,,,,,,,,,,,,,,,,,,,,,,,,,,,,,,,,,,,,,,,,,,,,,,,,,,,,,,,,,,,,,,,,,,,,,,,,,,,,,,,,,,,,,,,,,,,,,,,,,,,,,,,,,,,,,,,,,,,,GNT74G,train_x,blue_star,bottom_left,2025-09-30_17h20.07.928,HideSeek_v1,2022.2.5,59.9740072628238,
,2,1,5,1,3,0,31,,train_dim1_1,1,30,,,,2,0,2,0,,,,,,,,,0,0,0,0,0,0,0,0,0,0,0,0,,,,,,,,,,,,,,,,,,,,,,,,,stimuli/alien_stimuli/31.png,,,,,,,,,,,,,,,,,,,,,,,,,,,,,,,,,,,,,,,30,,,,,,,,2274.3400285999523,2274.3400285999523,2274.3400285999523,2274.3400285999523,2274.3400285999523,right,3.1631040000356734,0,0,0,99,0.08,-0.32,right,3.069029900012538,,,,,,,,,,,,,,,,,,,,,,,,,,,,,,,,,,,,,,,,,,,,,,,,,,,,,,,,,,,,GNT74G,train_x,blue_star,bottom_left,2025-09-30_17h20.07.928,HideSeek_v1,2022.2.5,59.9740072628238,
,2,1,5,1,3,0,31,,train_dim1_1,1,30,,,,2,0,2,0,,,,,,,,,0,0,0,0,0,0,0,0,1,0,1,0,,,,,,,,,,,,,,,,,,,,,,,,,,,,,,,,,,,,,,,,,,,,,,,,,,,,,,,,,,,,,,,,30,,,,,,,,2277.4931133000064,2277.4931133000064,2277.4931133000064,2277.4931133000064,2277.4931133000064,right,0.876059299975168,0,0,0,99,0.16,-0.32,right,0.7948908999678679,,,,,,,,,,,,,,,,,,,,,,,,,,,,,,,,,,,,,,,,,,,,,,,,,,,,,,,,,,,,GNT74G,train_x,blue_star,bottom_left,2025-09-30_17h20.07.928,HideSeek_v1,2022.2.5,59.9740072628238,
,2,1,5,1,3,0,31,,train_dim1_1,1,30,,,,2,0,2,0,,,,,,,,,0,0,0,0,0,0,0,0,2,0,2,0,,,,,,,,,,,,,,,,,,,,,,,,,,,,,,,,,,,,,,,,,,,,,,,,,,,,,,,,,,,,,,,,30,,,,,,,,2278.3793990999693,2278.3793990999693,2278.3793990999693,2278.3793990999693,2278.3793990999693,up,1.26062890002504,0,0,0,99,0.16,-0.24,up,1.1738895999733359,,,,,,,,,,,,,,,,,,,,,,,,,,,,,,,,,,,,,,,,,,,,,,,,,,,,,,,,,,,,GNT74G,train_x,blue_star,bottom_left,2025-09-30_17h20.07.928,HideSeek_v1,2022.2.5,59.9740072628238,
,2,1,5,1,3,0,31,,train_dim1_1,1,30,,,,2,0,2,0,,,,,,,,,0,0,0,0,0,0,0,0,3,0,3,0,,,,,,,,,,,,,,,,,,,,,,,,,,,,,,,,,,,,,,,,,,,,,,,,,,,,,,,,,,,,,,,,30,,,,,,,,2279.6422271999763,2279.6422271999763,2279.6422271999763,2279.6422271999763,2279.6422271999763,up,0.6925083000096492,0,0,0,99,0.16,-0.15999999999999998,up,0.6099580000154674,,,,,,,,,,,,,,,,,,,,,,,,,,,,,,,,,,,,,,,,,,,,,,,,,,,,,,,,,,,,GNT74G,train_x,blue_star,bottom_left,2025-09-30_17h20.07.928,HideSeek_v1,2022.2.5,59.9740072628238,
,2,1,5,1,3,0,31,,train_dim1_1,1,30,,,,2,0,2,0,,,,,,,,,0,0,0,0,0,0,0,0,4,0,4,0,,,,,,,,,,,,,,,,,,,,,,,,,,,,,,,,,,,,,,,,,,,,,,,,,,,,,,,,,,,,,,,,30,,,,,,,,2280.3441699999967,2280.3441699999967,2280.3441699999967,2280.3441699999967,2280.3441699999967,right,2.11145949998172,0,0,0,99,0.24,-0.15999999999999998,right,2.024133200000506,,,,,,,,,,,,,,,,,,,,,,,,,,,,,,,,,,,,,,,,,,,,,,,,,,,,,,,,,,,,GNT74G,train_x,blue_star,bottom_left,2025-09-30_17h20.07.928,HideSeek_v1,2022.2.5,59.9740072628238,
,2,1,5,1,3,0,31,,train_dim1_1,1,30,,,,2,0,2,0,,,,,,,,,0,0,0,0,0,0,0,0,5,0,5,0,,,,,,,,,,,,,,,,,,,,,,,,,,,,,,,,,,,,,,,,,,,,,,,,,,,,,,,,,,,,,,,,30,,,,,,,,2282.4605389999924,2282.4605389999924,2282.4605389999924,2282.4605389999924,2282.4605389999924,up,0.8099946000147611,0,0,0,99,0.24,-0.07999999999999997,up,0.7214568000053987,,,,,,,,,,,,,,,,,,,,,,,,,,,,,,,,,,,,,,,,,,,,,,,,,,,,,,,,,,,,GNT74G,train_x,blue_star,bottom_left,2025-09-30_17h20.07.928,HideSeek_v1,2022.2.5,59.9740072628238,
,2,1,5,1,3,0,31,,train_dim1_1,1,30,,,,2,0,2,0,,,,,,,,,0,0,0,0,0,0,0,0,6,0,6,0,,,,,,,,,,,,,,,,,,,,,,,,,,,,,,,,,,,,,,,,,,,,,,,,,,,,,,,,,,,,,,,,30,,,,,,,,2283.277987499954,2283.277987499954,2283.277987499954,2283.277987499954,2283.277987499954,return,0.7102298999670893,0,0,0,0,0.24,-0.07999999999999997,return,0.6282262000022456,3,3,0.24,-0.07999999999999997,,,,,,,,,,,,,,,,,,,,,,,,,,,,,,,,,,,,,,,,,,,,,,,,,,,,,,,,GNT74G,train_x,blue_star,bottom_left,2025-09-30_17h20.07.928,HideSeek_v1,2022.2.5,59.9740072628238,
,2,4,7,4,5,0,11,,train_dim1_1,2,30,,,,2,0,2,0,,,,,,,,,0,0,0,0,0,1,1,1,0,0,0,0,,,,,,,,,,,,,,,,,,,,,,,,,stimuli/alien_stimuli/11.png,,,,,,,,,,,,,,,,,,,,,,,,,,,,,stimuli/alien_stimuli/31.png,31,2,3,,,,,,,30,,,,,,,,2296.391632499988,2296.391632499988,2296.391632499988,2296.391632499988,2296.391632499988,right,1.939468999975361,0,0,0,99,0.08,-0.08,right,1.8193036000011489,,,,,2294.805859599961,2296.391632499988,0.24,-0.32,0.0,0.24,-0.32,0.24,0.12,0.24,-0.32,2285.564877800003,2285.564877800003,2285.564877800003,2285.564877800003,2285.564877800003,2285.564877800003,2285.564877800003,2285.564877800003,2285.5488837400217,9.360042899963446,return,9.2203792000073,,,,,,,,,,,,,,,,,,,,,,,,,,,,,,,,,GNT74G,train_x,blue_star,bottom_left,2025-09-30_17h20.07.928,HideSeek_v1,2022.2.5,59.9740072628238,
,2,4,7,4,5,0,11,,train_dim1_1,2,30,,,,2,0,2,0,,,,,,,,,0,0,0,0,0,1,1,1,1,0,1,0,,,,,,,,,,,,,,,,,,,,,,,,,,,,,,,,,,,,,,,,,,,,,,,,,,,,,,,,,,,,,,,,30,,,,,,,,2298.3163983999984,2298.3163983999984,2298.3163983999984,2298.3163983999984,2298.3163983999984,down,0.8245768999913707,0,0,0,99,0.08,-0.16,down,0.7312040999531746,,,,,,,,,,,,,,,,,,,,,,,,,,,,,,,,,,,,,,,,,,,,,,,,,,,,,,,,,,,,GNT74G,train_x,blue_star,bottom_left,2025-09-30_17h20.07.928,HideSeek_v1,2022.2.5,59.9740072628238,
,2,4,7,4,5,0,11,,train_dim1_1,2,30,,,,2,0,2,0,,,,,,,,,0,0,0,0,0,1,1,1,2,0,2,0,,,,,,,,,,,,,,,,,,,,,,,,,,,,,,,,,,,,,,,,,,,,,,,,,,,,,,,,,,,,,,,,30,,,,,,,,2299.1492470999947,2299.1492470999947,2299.1492470999947,2299.1492470999947,2299.1492470999947,right,1.3069767000270076,0,0,0,99,0.16,-0.16,right,1.2173889999976382,,,,,,,,,,,,,,,,,,,,,,,,,,,,,,,,,,,,,,,,,,,,,,,,,,,,,,,,,,,,GNT74G,train_x,blue_star,bottom_left,2025-09-30_17h20.07.928,HideSeek_v1,2022.2.5,59.9740072628238,
,2,4,7,4,5,0,11,,train_dim1_1,2,30,,,,2,0,2,0,,,,,,,,,0,0,0,0,0,1,1,1,3,0,3,0,,,,,,,,,,,,,,,,,,,,,,,,,,,,,,,,,,,,,,,,,,,,,,,,,,,,,,,,,,,,,,,,30,,,,,,,,2300.462896199955,2300.462896199955,2300.462896199955,2300.462896199955,2300.462896199955,return,0.7604984000208788,0,0,0,0,0.16,-0.16,return,0.6779102999716997,2,5,0.16,-0.16,,,,,,,,,,,,,,,,,,,,,,,,,,,,,,,,,,,,,,,,,,,,,,,,,,,,,,,,GNT74G,train_x,blue_star,bottom_left,2025-09-30_17h20.07.928,HideSeek_v1,2022.2.5,59.9740072628238,
,4,4,8,4,4,0,21,,train_dim1_1,3,30,,,,2,0,2,0,,,,,,,,,0,0,0,0,0,2,2,2,0,0,0,0,,,,,,,,,,,,,,,,,,,,,,,,,stimuli/alien_stimuli/21.png,,,,,,,,,,,,,,,,,,,,,,,,,,,,,stimuli/alien_stimuli/11.png,11,2,4,,,,,,,30,,,,,,,,2308.811465799983,2308.811465799983,2308.811465799983,2308.811465799983,2308.811465799983,up,1.4902977000456303,0,0,0,99,0.16,0.0,up,1.3874312000116333,,,,,2307.232896099973,2308.811465799983,0.4,-0.08,0.0,0.4,-0.08,0.4,0.2,0.4,-0.08,2302.8072444999707,2302.8072444999707,2302.8072444999707,2302.8072444999707,2302.8072444999707,2302.8072444999707,2302.8072444999707,2302.8072444999707,2302.796502959984,4.556200799997896,return,4.400922400003765,,,,,,,,,,,,,,,,,,,,,,,,,,,,,,,,,GNT74G,train_x,blue_star,bottom_left,2025-09-30_17h20.07.928,HideSeek_v1,2022.2.5,59.9740072628238,
,4,4,8,4,4,0,21,,train_dim1_1,3,30,,,,2,0,2,0,,,,,,,,,0,0,0,0,0,2,2,2,1,0,1,0,,,,,,,,,,,,,,,,,,,,,,,,,,,,,,,,,,,,,,,,,,,,,,,,,,,,,,,,,,,,,,,,30,,,,,,,,2310.2891509999754,2310.2891509999754,2310.2891509999754,2310.2891509999754,2310.2891509999754,right,0.7430716000380926,0,0,0,99,0.24,0.0,right,0.6620782999671064,,,,,,,,,,,,,,,,,,,,,,,,,,,,,,,,,,,,,,,,,,,,,,,,,,,,,,,,,,,,GNT74G,train_x,blue_star,bottom_left,2025-09-30_17h20.07.928,HideSeek_v1,2022.2.5,59.9740072628238,
,4,4,8,4,4,0,21,,train_dim1_1,3,30,,,,2,0,2,0,,,,,,,,,0,0,0,0,0,2,2,2,2,0,2,0,,,,,,,,,,,,,,,,,,,,,,,,,,,,,,,,,,,,,,,,,,,,,,,,,,,,,,,,,,,,,,,,30,,,,,,,,2311.0381006999523,2311.0381006999523,2311.0381006999523,2311.0381006999523,2311.0381006999523,right,0.6267017999780364,0,0,0,99,0.32,0.0,right,0.5336354000028223,,,,,,,,,,,,,,,,,,,,,,,,,,,,,,,,,,,,,,,,,,,,,,,,,,,,,,,,,,,,GNT74G,train_x,blue_star,bottom_left,2025-09-30_17h20.07.928,HideSeek_v1,2022.2.5,59.9740072628238,
,4,4,8,4,4,0,21,,train_dim1_1,3,30,,,,2,0,2,0,,,,,,,,,0,0,0,0,0,2,2,2,3,0,3,0,,,,,,,,,,,,,,,,,,,,,,,,,,,,,,,,,,,,,,,,,,,,,,,,,,,,,,,,,,,,,,,,30,,,,,,,,2311.672356700001,2311.672356700001,2311.672356700001,2311.672356700001,2311.672356700001,return,0.6103156000026502,0,0,0,0,0.32,0.0,return,0.5228182999999262,3,7,0.32,0.0,,,,,,,,,,,,,,,,,,,,,,,,,,,,,,,,,,,,,,,,,,,,,,,,,,,,,,,,GNT74G,train_x,blue_star,bottom_left,2025-09-30_17h20.07.928,HideSeek_v1,2022.2.5,59.9740072628238,
,2,3,3,3,1,0,51,,train_dim1_1,4,30,,,,2,0,2,0,,,,,,,,,0,0,0,0,0,3,3,3,0,0,0,0,,,,,,,,,,,,,,,,,,,,,,,,,stimuli/alien_stimuli/51.png,,,,,,,,,,,,,,,,,,,,,,,,,,,,,stimuli/alien_stimuli/21.png,21,4,5,,,,,,,30,,,,,,,,2319.2095627999515,2319.2095627999515,2319.2095627999515,2319.2095627999515,2319.2095627999515,right,4.955609299999196,0,0,0,99,0.08,-0.16,right,4.871405099984258,,,,,2317.6415436999523,2319.2095627999515,0.48,-0.08,0.0,0.32,-0.08,0.48,0.32,0.48,-0.08,2313.8822049999726,2313.8822049999726,2313.8822049999726,2313.8822049999726,2313.8822049999726,2313.8822049999726,2313.8822049999726,2313.8822049999726,2313.873194780003,3.9048627000302076,return,3.737584099988453,,,,,,,,,,,,,,,,,,,,,,,,,,,,,,,,,GNT74G,train_x,blue_star,bottom_left,2025-09-30_17h20.07.928,HideSeek_v1,2022.2.5,59.9740072628238,
,2,3,3,3,1,0,51,,train_dim1_1,4,30,,,,2,0,2,0,,,,,,,,,0,0,0,0,0,3,3,3,1,0,1,0,,,,,,,,,,,,,,,,,,,,,,,,,,,,,,,,,,,,,,,,,,,,,,,,,,,,,,,,,,,,,,,,30,,,,,,,,2324.169011299964,2324.169011299964,2324.169011299964,2324.169011299964,2324.169011299964,right,0.6767358999932185,0,0,0,99,0.16,-0.16,right,0.5930784000083804,,,,,,,,,,,,,,,,,,,,,,,,,,,,,,,,,,,,,,,,,,,,,,,,,,,,,,,,,,,,GNT74G,train_x,blue_star,bottom_left,2025-09-30_17h20.07.928,HideSeek_v1,2022.2.5,59.9740072628238,
,2,3,3,3,1,0,51,,train_dim1_1,4,30,,,,2,0,2,0,,,,,,,,,0,0,0,0,0,3,3,3,2,0,2,0,,,,,,,,,,,,,,,,,,,,,,,,,,,,,,,,,,,,,,,,,,,,,,,,,,,,,,,,,,,,,,,,30,,,,,,,,2324.85729309998,2324.85729309998,2324.85729309998,2324.85729309998,2324.85729309998,right,0.5730977000202984,0,0,0,99,0.24,-0.16,right,0.48960820003412664,,,,,,,,,,,,,,,,,,,,,,,,,,,,,,,,,,,,,,,,,,,,,,,,,,,,,,,,,,,,GNT74G,train_x,blue_star,bottom_left,2025-09-30_17h20.07.928,HideSeek_v1,2022.2.5,59.9740072628238,
,2,3,3,3,1,0,51,,train_dim1_1,4,30,,,,2,0,2,0,,,,,,,,,0,0,0,0,0,3,3,3,3,0,3,0,,,,,,,,,,,,,,,,,,,,,,,,,,,,,,,,,,,,,,,,,,,,,,,,,,,,,,,,,,,,,,,,30,,,,,,,,2325.43276289996,2325.43276289996,2325.43276289996,2325.43276289996,2325.43276289996,right,0.5767086999840103,0,0,0,99,0.32,-0.16,right,0.4861518999678083,,,,,,,,,,,,,,,,,,,,,,,,,,,,,,,,,,,,,,,,,,,,,,,,,,,,,,,,,,,,GNT74G,train_x,blue_star,bottom_left,2025-09-30_17h20.07.928,HideSeek_v1,2022.2.5,59.9740072628238,
,2,3,3,3,1,0,51,,train_dim1_1,4,30,,,,2,0,2,0,,,,,,,,,0,0,0,0,0,3,3,3,4,0,4,0,,,,,,,,,,,,,,,,,,,,,,,,,,,,,,,,,,,,,,,,,,,,,,,,,,,,,,,,,,,,,,,,30,,,,,,,,2326.025246199977,2326.025246199977,2326.025246199977,2326.025246199977,2326.025246199977,down,0.6084733000025153,0,0,0,99,0.32,-0.24,down,0.5128275000024587,,,,,,,,,,,,,,,,,,,,,,,,,,,,,,,,,,,,,,,,,,,,,,,,,,,,,,,,,,,,GNT74G,train_x,blue_star,bottom_left,2025-09-30_17h20.07.928,HideSeek_v1,2022.2.5,59.9740072628238,
,2,3,3,3,1,0,51,,train_dim1_1,4,30,,,,2,0,2,0,,,,,,,,,0,0,0,0,0,3,3,3,5,0,5,0,,,,,,,,,,,,,,,,,,,,,,,,,,,,,,,,,,,,,,,,,,,,,,,,,,,,,,,,,,,,,,,,30,,,,,,,,2326.634374699963,2326.634374699963,2326.634374699963,2326.634374699963,2326.634374699963,left,0.9435688000521623,0,0,0,99,0.24,-0.24,left,0.8637375000398606,,,,,,,,,,,,,,,,,,,,,,,,,,,,,,,,,,,,,,,,,,,,,,,,,,,,,,,,,,,,GNT74G,train_x,blue_star,bottom_left,2025-09-30_17h20.07.928,HideSeek_v1,2022.2.5,59.9740072628238,
,2,3,3,3,1,0,51,,train_dim1_1,4,30,,,,2,0,2,0,,,,,,,,,0,0,0,0,0,3,3,3,6,0,6,0,,,,,,,,,,,,,,,,,,,,,,,,,,,,,,,,,,,,,,,,,,,,,,,,,,,,,,,,,,,,,,,,30,,,,,,,,2327.5829016999924,2327.5829016999924,2327.5829016999924,2327.5829016999924,2327.5829016999924,up,1.160556499962695,0,0,0,99,0.24,-0.15999999999999998,up,1.07191919995239,,,,,,,,,,,,,,,,,,,,,,,,,,,,,,,,,,,,,,,,,,,,,,,,,,,,,,,,,,,,GNT74G,train_x,blue_star,bottom_left,2025-09-30_17h20.07.928,HideSeek_v1,2022.2.5,59.9740072628238,
,2,3,3,3,1,0,51,,train_dim1_1,4,30,,,,2,0,2,0,,,,,,,,,0,0,0,0,0,3,3,3,7,0,7,0,,,,,,,,,,,,,,,,,,,,,,,,,,,,,,,,,,,,,,,,,,,,,,,,,,,,,,,,,,,,,,,,30,,,,,,,,2328.75024329999,2328.75024329999,2328.75024329999,2328.75024329999,2328.75024329999,up,0.2097259999718517,0,0,0,99,0.24,-0.07999999999999997,up,0.1271773999906145,,,,,,,,,,,,,,,,,,,,,,,,,,,,,,,,,,,,,,,,,,,,,,,,,,,,,,,,,,,,GNT74G,train_x,blue_star,bottom_left,2025-09-30_17h20.07.928,HideSeek_v1,2022.2.5,59.9740072628238,
,2,3,3,3,1,0,51,,train_dim1_1,4,30,,,,2,0,2,0,,,,,,,,,0,0,0,0,0,3,3,3,8,0,8,0,,,,,,,,,,,,,,,,,,,,,,,,,,,,,,,,,,,,,,,,,,,,,,,,,,,,,,,,,,,,,,,,30,,,,,,,,2328.9724398999824,2328.9724398999824,2328.9724398999824,2328.9724398999824,2328.9724398999824,return,0.8575821000267752,0,0,0,0,0.24,-0.07999999999999997,return,0.7721671999897808,4,10,0.24,-0.07999999999999997,,,,,,,,,,,,,,,,,,,,,,,,,,,,,,,,,,,,,,,,,,,,,,,,,,,,,,,,GNT74G,train_x,blue_star,bottom_left,2025-09-30_17h20.07.928,HideSeek_v1,2022.2.5,59.9740072628238,
,0,2,0,2,0,0,61,,train_dim1_1,5,30,,,,2,0,2,0,,,,,,,,,0,0,0,0,0,4,4,4,0,0,0,0,,,,,,,,,,,,,,,,,,,,,,,,,stimuli/alien_stimuli/61.png,,,,,,,,,,,,,,,,,,,,,,,,,,,,,stimuli/alien_stimuli/51.png,51,2,6,,,,,,,30,,,,,,,,2336.669112499978,2336.669112499978,2336.669112499978,2336.669112499978,2336.669112499978,right,1.706309599976521,0,0,0,99,-0.08,-0.24,right,1.617959900002461,,,,,2335.1060207999544,2336.669112499978,0.08,-0.16,0.0,0.08,-0.16,0.08,0.04,0.08,-0.16,2331.414939899987,2331.414939899987,2331.414939899987,2331.414939899987,2331.414939899987,2331.414939899987,2331.414939899987,2331.414939899987,2331.4038455599916,3.8219278999604285,return,3.662647499993909,,,,,,,,,,,,,,,,,,,,,,,,,,,,,,,,,GNT74G,train_x,blue_star,bottom_left,2025-09-30_17h20.07.928,HideSeek_v1,2022.2.5,59.9740072628238,
,0,2,0,2,0,0,61,,train_dim1_1,5,30,,,,2,0,2,0,,,,,,,,,0,0,0,0,0,4,4,4,1,0,1,0,,,,,,,,,,,,,,,,,,,,,,,,,,,,,,,,,,,,,,,,,,,,,,,,,,,,,,,,,,,,,,,,30,,,,,,,,2338.3737360999803,2338.3737360999803,2338.3737360999803,2338.3737360999803,2338.3737360999803,right,0.4764409000054002,0,0,0,99,0.0,-0.24,right,0.40164500003447756,,,,,,,,,,,,,,,,,,,,,,,,,,,,,,,,,,,,,,,,,,,,,,,,,,,,,,,,,,,,GNT74G,train_x,blue_star,bottom_left,2025-09-30_17h20.07.928,HideSeek_v1,2022.2.5,59.9740072628238,
,0,2,0,2,0,0,61,,train_dim1_1,5,30,,,,2,0,2,0,,,,,,,,,0,0,0,0,0,4,4,4,2,0,2,0,,,,,,,,,,,,,,,,,,,,,,,,,,,,,,,,,,,,,,,,,,,,,,,,,,,,,,,,,,,,,,,,30,,,,,,,,2338.8603893999825,2338.8603893999825,2338.8603893999825,2338.8603893999825,2338.8603893999825,up,0.6910861000069417,0,0,0,99,0.0,-0.15999999999999998,up,0.602503500005696,,,,,,,,,,,,,,,,,,,,,,,,,,,,,,,,,,,,,,,,,,,,,,,,,,,,,,,,,,,,GNT74G,train_x,blue_star,bottom_left,2025-09-30_17h20.07.928,HideSeek_v1,2022.2.5,59.9740072628238,
,0,2,0,2,0,0,61,,train_dim1_1,5,30,,,,2,0,2,0,,,,,,,,,0,0,0,0,0,4,4,4,3,0,3,0,,,,,,,,,,,,,,,,,,,,,,,,,,,,,,,,,,,,,,,,,,,,,,,,,,,,,,,,,,,,,,,,30,,,,,,,,2339.557504599972,2339.557504599972,2339.557504599972,2339.557504599972,2339.557504599972,return,0.4599656999926083,0,0,0,0,0.0,-0.15999999999999998,return,0.381571099977009,5,12,0.0,-0.15999999999999998,,,,,,,,,,,,,,,,,,,,,,,,,,,,,,,,,,,,,,,,,,,,,,,,,,,,,,,,GNT74G,train_x,blue_star,bottom_left,2025-09-30_17h20.07.928,HideSeek_v1,2022.2.5,59.9740072628238,
,0,0,4,0,4,0,21,,train_dim1_1,6,30,,,,2,0,2,0,,,,,,,,,0,0,0,0,0,5,5,5,0,0,0,0,,,,,,,,,,,,,,,,,,,,,,,,,stimuli/alien_stimuli/21.png,,,,,,,,,,,,,,,,,,,,,,,,,,,,,stimuli/alien_stimuli/61.png,61,0,7,,,,,,,30,,,,,,,,2346.784252799989,2346.784252799989,2346.784252799989,2346.784252799989,2346.784252799989,right,1.4553516999585554,0,0,0,99,-0.08,-0.4,right,1.350605399988126,,,,,2345.2144979999866,2346.784252799989,-0.16,-0.24,0.0,0.0,-0.24,-0.16,-0.16,-0.16,-0.24,2341.586163399974,2341.586163399974,2341.586163399974,2341.586163399974,2341.586163399974,2341.586163399974,2341.586163399974,2341.586163399974,2341.57872564001,3.738389499951154,return,3.599864499992691,,,,,,,,,,,,,,,,,,,,,,,,,,,,,,,,,GNT74G,train_x,blue_star,bottom_left,2025-09-30_17h20.07.928,HideSeek_v1,2022.2.5,59.9740072628238,
,0,0,4,0,4,0,21,,train_dim1_1,6,30,,,,2,0,2,0,,,,,,,,,0,0,0,0,0,5,5,5,1,0,1,0,,,,,,,,,,,,,,,,,,,,,,,,,,,,,,,,,,,,,,,,,,,,,,,,,,,,,,,,,,,,,,,,30,,,,,,,,2348.2365913999965,2348.2365913999965,2348.2365913999965,2348.2365913999965,2348.2365913999965,up,1.210675899987109,0,0,0,99,-0.08,-0.32,up,1.1240180000313558,,,,,,,,,,,,,,,,,,,,,,,,,,,,,,,,,,,,,,,,,,,,,,,,,,,,,,,,,,,,GNT74G,train_x,blue_star,bottom_left,2025-09-30_17h20.07.928,HideSeek_v1,2022.2.5,59.9740072628238,
,0,0,4,0,4,0,21,,train_dim1_1,6,30,,,,2,0,2,0,,,,,,,,,0,0,0,0,0,5,5,5,2,0,2,0,,,,,,,,,,,,,,,,,,,,,,,,,,,,,,,,,,,,,,,,,,,,,,,,,,,,,,,,,,,,,,,,30,,,,,,,,2349.4588387999684,2349.4588387999684,2349.4588387999684,2349.4588387999684,2349.4588387999684,return,0.6225868999608792,0,0,0,0,-0.08,-0.32,return,0.5340586999664083,6,13,-0.08,-0.32,,,,,,,,,,,,,,,,,,,,,,,,,,,,,,,,,,,,,,,,,,,,,,,,,,,,,,,,GNT74G,train_x,blue_star,bottom_left,2025-09-30_17h20.07.928,HideSeek_v1,2022.2.5,59.9740072628238,
,3,0,3,0,0,0,61,,train_dim1_1,7,30,,,,2,0,2,0,,,,,,,,,0,0,0,0,0,6,6,6,0,0,0,0,,,,,,,,,,,,,,,,,,,,,,,,,stimuli/alien_stimuli/61.png,,,,,,,,,,,,,,,,,,,,,,,,,,,,,stimuli/alien_stimuli/21.png,21,0,8,,,,,,,30,,,,,,,,2356.0673027999583,2356.0673027999583,2356.0673027999583,2356.0673027999583,2356.0673027999583,up,2.5235190999810584,0,0,0,99,0.08,-0.32,up,2.426373500027694,,,,,2354.505451999954,2356.0673027999583,0.16,-0.4,0.0,0.32,-0.4,0.16,0.0,0.16,-0.4,2351.6503111000056,2351.6503111000056,2351.6503111000056,2351.6503111000056,2351.6503111000056,2351.6503111000056,2351.6503111000056,2351.6503111000056,2351.637141739996,2.9718028999632224,return,2.836756400007289,,,,,,,,,,,,,,,,,,,,,,,,,,,,,,,,,GNT74G,train_x,blue_star,bottom_left,2025-09-30_17h20.07.928,HideSeek_v1,2022.2.5,59.9740072628238,
,3,0,3,0,0,0,61,,train_dim1_1,7,30,,,,2,0,2,0,,,,,,,,,0,0,0,0,0,6,6,6,1,0,1,0,,,,,,,,,,,,,,,,,,,,,,,,,,,,,,,,,,,,,,,,,,,,,,,,,,,,,,,,,,,,,,,,30,,,,,,,,2358.5917874999577,2358.5917874999577,2358.5917874999577,2358.5917874999577,2358.5917874999577,up,0.3767580999992788,0,0,0,99,0.08,-0.24,up,0.2934207000071183,,,,,,,,,,,,,,,,,,,,,,,,,,,,,,,,,,,,,,,,,,,,,,,,,,,,,,,,,,,,GNT74G,train_x,blue_star,bottom_left,2025-09-30_17h20.07.928,HideSeek_v1,2022.2.5,59.9740072628238,
,3,0,3,0,0,0,61,,train_dim1_1,7,30,,,,2,0,2,0,,,,,,,,,0,0,0,0,0,6,6,6,2,0,2,0,,,,,,,,,,,,,,,,,,,,,,,,,,,,,,,,,,,,,,,,,,,,,,,,,,,,,,,,,,,,,,,,30,,,,,,,,2358.9755894999835,2358.9755894999835,2358.9755894999835,2358.9755894999835,2358.9755894999835,up,1.1436022000270896,0,0,0,99,0.08,-0.15999999999999998,up,1.0556680000154302,,,,,,,,,,,,,,,,,,,,,,,,,,,,,,,,,,,,,,,,,,,,,,,,,,,,,,,,,,,,GNT74G,train_x,blue_star,bottom_left,2025-09-30_17h20.07.928,HideSeek_v1,2022.2.5,59.9740072628238,
,3,0,3,0,0,0,61,,train_dim1_1,7,30,,,,2,0,2,0,,,,,,,,,0,0,0,0,0,6,6,6,3,0,3,0,,,,,,,,,,,,,,,,,,,,,,,,,,,,,,,,,,,,,,,,,,,,,,,,,,,,,,,,,,,,,,,,30,,,,,,,,2360.125546599971,2360.125546599971,2360.125546599971,2360.125546599971,2360.125546599971,up,0.4089653000119142,0,0,0,99,0.08,-0.07999999999999997,up,0.3279626999865286,,,,,,,,,,,,,,,,,,,,,,,,,,,,,,,,,,,,,,,,,,,,,,,,,,,,,,,,,,,,GNT74G,train_x,blue_star,bottom_left,2025-09-30_17h20.07.928,HideSeek_v1,2022.2.5,59.9740072628238,
,3,0,3,0,0,0,61,,train_dim1_1,7,30,,,,2,0,2,0,,,,,,,,,0,0,0,0,0,6,6,6,4,0,4,0,,,,,,,,,,,,,,,,,,,,,,,,,,,,,,,,,,,,,,,,,,,,,,,,,,,,,,,,,,,,,,,,30,,,,,,,,2360.54381199996,2360.54381199996,2360.54381199996,2360.54381199996,2360.54381199996,right,1.2273402000428177,0,0,0,99,0.16,-0.07999999999999997,right,1.1369281999650411,,,,,,,,,,,,,,,,,,,,,,,,,,,,,,,,,,,,,,,,,,,,,,,,,,,,,,,,,,,,GNT74G,train_x,blue_star,bottom_left,2025-09-30_17h20.07.928,HideSeek_v1,2022.2.5,59.9740072628238,
,3,0,3,0,0,0,61,,train_dim1_1,7,30,,,,2,0,2,0,,,,,,,,,0,0,0,0,0,6,6,6,5,0,5,0,,,,,,,,,,,,,,,,,,,,,,,,,,,,,,,,,,,,,,,,,,,,,,,,,,,,,,,,,,,,,,,,30,,,,,,,,2361.7760177999735,2361.7760177999735,2361.7760177999735,2361.7760177999735,2361.7760177999735,right,0.45992589998058975,0,0,0,99,0.24,-0.07999999999999997,right,0.38351349998265505,,,,,,,,,,,,,,,,,,,,,,,,,,,,,,,,,,,,,,,,,,,,,,,,,,,,,,,,,,,,GNT74G,train_x,blue_star,bottom_left,2025-09-30_17h20.07.928,HideSeek_v1,2022.2.5,59.9740072628238,
,3,0,3,0,0,0,61,,train_dim1_1,7,30,,,,2,0,2,0,,,,,,,,,0,0,0,0,0,6,6,6,6,0,6,0,,,,,,,,,,,,,,,,,,,,,,,,,,,,,,,,,,,,,,,,,,,,,,,,,,,,,,,,,,,,,,,,30,,,,,,,,2362.2499288999825,2362.2499288999825,2362.2499288999825,2362.2499288999825,2362.2499288999825,right,0.7266351999714971,0,0,0,99,0.32,-0.07999999999999997,right,0.6354469999787398,,,,,,,,,,,,,,,,,,,,,,,,,,,,,,,,,,,,,,,,,,,,,,,,,,,,,,,,,,,,GNT74G,train_x,blue_star,bottom_left,2025-09-30_17h20.07.928,HideSeek_v1,2022.2.5,59.9740072628238,
,3,0,3,0,0,0,61,,train_dim1_1,7,30,,,,2,0,2,0,,,,,,,,,0,0,0,0,0,6,6,6,7,0,7,0,,,,,,,,,,,,,,,,,,,,,,,,,,,,,,,,,,,,,,,,,,,,,,,,,,,,,,,,,,,,,,,,30,,,,,,,,2362.977305499953,2362.977305499953,2362.977305499953,2362.977305499953,2362.977305499953,right,0.226300899987109,0,0,0,99,0.4,-0.07999999999999997,right,0.13846769998781383,,,,,,,,,,,,,,,,,,,,,,,,,,,,,,,,,,,,,,,,,,,,,,,,,,,,,,,,,,,,GNT74G,train_x,blue_star,bottom_left,2025-09-30_17h20.07.928,HideSeek_v1,2022.2.5,59.9740072628238,
,3,0,3,0,0,0,61,,train_dim1_1,7,30,,,,2,0,2,0,,,,,,,,,0,0,0,0,0,6,6,6,8,0,8,0,,,,,,,,,,,,,,,,,,,,,,,,,,,,,,,,,,,,,,,,,,,,,,,,,,,,,,,,,,,,,,,,30,,,,,,,,2363.2185275999946,2363.2185275999946,2363.2185275999946,2363.2185275999946,2363.2185275999946,down,0.8770587999606505,0,0,0,99,0.4,-0.15999999999999998,down,0.7824867999879643,,,,,,,,,,,,,,,,,,,,,,,,,,,,,,,,,,,,,,,,,,,,,,,,,,,,,,,,,,,,GNT74G,train_x,blue_star,bottom_left,2025-09-30_17h20.07.928,HideSeek_v1,2022.2.5,59.9740072628238,
,3,0,3,0,0,0,61,,train_dim1_1,7,30,,,,2,0,2,0,,,,,,,,,0,0,0,0,0,6,6,6,9,0,9,0,,,,,,,,,,,,,,,,,,,,,,,,,,,,,,,,,,,,,,,,,,,,,,,,,,,,,,,,,,,,,,,,30,,,,,,,,2364.093861099973,2364.093861099973,2364.093861099973,2364.093861099973,2364.093861099973,down,0.1598612000234425,0,0,0,99,0.4,-0.24,down,0.07436470000538975,,,,,,,,,,,,,,,,,,,,,,,,,,,,,,,,,,,,,,,,,,,,,,,,,,,,,,,,,,,,GNT74G,train_x,blue_star,bottom_left,2025-09-30_17h20.07.928,HideSeek_v1,2022.2.5,59.9740072628238,
,3,0,3,0,0,0,61,,train_dim1_1,7,30,,,,2,0,2,0,,,,,,,,,0,0,0,0,0,6,6,6,10,0,10,0,,,,,,,,,,,,,,,,,,,,,,,,,,,,,,,,,,,,,,,,,,,,,,,,,,,,,,,,,,,,,,,,30,,,,,,,,2364.2635200999794,2364.2635200999794,2364.2635200999794,2364.2635200999794,2364.2635200999794,down,0.19318169995676726,0,0,0,99,0.4,-0.32,down,0.10704510001232848,,,,,,,,,,,,,,,,,,,,,,,,,,,,,,,,,,,,,,,,,,,,,,,,,,,,,,,,,,,,GNT74G,train_x,blue_star,bottom_left,2025-09-30_17h20.07.928,HideSeek_v1,2022.2.5,59.9740072628238,
,3,0,3,0,0,0,61,,train_dim1_1,7,30,,,,2,0,2,0,,,,,,,,,0,0,0,0,0,6,6,6,11,0,11,0,,,,,,,,,,,,,,,,,,,,,,,,,,,,,,,,,,,,,,,,,,,,,,,,,,,,,,,,,,,,,,,,30,,,,,,,,2364.4647173999692,2364.4647173999692,2364.4647173999692,2364.4647173999692,2364.4647173999692,down,0.17660609999438748,0,0,0,99,0.4,-0.4,down,0.08861320000141859,,,,,,,,,,,,,,,,,,,,,,,,,,,,,,,,,,,,,,,,,,,,,,,,,,,,,,,,,,,,GNT74G,train_x,blue_star,bottom_left,2025-09-30_17h20.07.928,HideSeek_v1,2022.2.5,59.9740072628238,
,3,0,3,0,0,0,61,,train_dim1_1,7,30,,,,2,0,2,0,,,,,,,,,0,0,0,0,0,6,6,6,12,0,12,0,,,,,,,,,,,,,,,,,,,,,,,,,,,,,,,,,,,,,,,,,,,,,,,,,,,,,,,,,,,,,,,,30,,,,,,,,2364.6462126999977,2364.6462126999977,2364.6462126999977,2364.6462126999977,2364.6462126999977,return,0.8934962999774143,0,0,0,0,0.4,-0.4,return,0.8035016000503674,6,17,0.4,-0.4,,,,,,,,,,,,,,,,,,,,,,,,,,,,,,,,,,,,,,,,,,,,,,,,,,,,,,,,GNT74G,train_x,blue_star,bottom_left,2025-09-30_17h20.07.928,HideSeek_v1,2022.2.5,59.9740072628238,
,0,4,3,4,3,0,31,,train_dim1_1,8,30,,,,2,0,2,0,,,,,,,,,0,0,0,0,0,7,7,7,0,0,0,0,,,,,,,,,,,,,,,,,,,,,,,,,stimuli/alien_stimuli/31.png,,,,,,,,,,,,,,,,,,,,,,,,,,,,,stimuli/alien_stimuli/61.png,61,3,9,,,,,,,30,,,,,,,,2372.01257099997,2372.01257099997,2372.01257099997,2372.01257099997,2372.01257099997,right,2.9247333999956027,0,0,0,99,-0.08,-0.08,right,2.8304918999783695,,,,,2370.451929699979,2372.01257099997,0.08,-0.4,0.0,0.0,-0.4,0.08,0.08,0.08,-0.4,2367.1246068999753,2367.1246068999753,2367.1246068999753,2367.1246068999753,2367.1246068999753,2367.1246068999753,2367.1246068999753,2367.1246068999753,2367.116764160001,3.455148100038059,return,3.3102139999973588,,,,,,,,,,,,,,,,,,,,,,,,,,,,,,,,,GNT74G,train_x,blue_star,bottom_left,2025-09-30_17h20.07.928,HideSeek_v1,2022.2.5,59.9740072628238,
,0,4,3,4,3,0,31,,train_dim1_1,8,30,,,,2,0,2,0,,,,,,,,,0,0,0,0,0,7,7,7,1,0,1,0,,,,,,,,,,,,,,,,,,,,,,,,,,,,,,,,,,,,,,,,,,,,,,,,,,,,,,,,,,,,,,,,30,,,,,,,,2374.9375694000046,2374.9375694000046,2374.9375694000046,2374.9375694000046,2374.9375694000046,right,0.30879530002130195,0,0,0,99,0.0,-0.08,right,0.22561070002848282,,,,,,,,,,,,,,,,,,,,,,,,,,,,,,,,,,,,,,,,,,,,,,,,,,,,,,,,,,,,GNT74G,train_x,blue_star,bottom_left,2025-09-30_17h20.07.928,HideSeek_v1,2022.2.5,59.9740072628238,
,0,4,3,4,3,0,31,,train_dim1_1,8,30,,,,2,0,2,0,,,,,,,,,0,0,0,0,0,7,7,7,2,0,2,0,,,,,,,,,,,,,,,,,,,,,,,,,,,,,,,,,,,,,,,,,,,,,,,,,,,,,,,,,,,,,,,,30,,,,,,,,2375.255327699997,2375.255327699997,2375.255327699997,2375.255327699997,2375.255327699997,right,0.2762226999620907,0,0,0,99,0.08,-0.08,right,0.19667640002444386,,,,,,,,,,,,,,,,,,,,,,,,,,,,,,,,,,,,,,,,,,,,,,,,,,,,,,,,,,,,GNT74G,train_x,blue_star,bottom_left,2025-09-30_17h20.07.928,HideSeek_v1,2022.2.5,59.9740072628238,
,0,4,3,4,3,0,31,,train_dim1_1,8,30,,,,2,0,2,0,,,,,,,,,0,0,0,0,0,7,7,7,3,0,3,0,,,,,,,,,,,,,,,,,,,,,,,,,,,,,,,,,,,,,,,,,,,,,,,,,,,,,,,,,,,,,,,,30,,,,,,,,2375.5392297999933,2375.5392297999933,2375.5392297999933,2375.5392297999933,2375.5392297999933,right,0.27615119999973103,0,0,0,99,0.16,-0.08,right,0.18650609999895096,,,,,,,,,,,,,,,,,,,,,,,,,,,,,,,,,,,,,,,,,,,,,,,,,,,,,,,,,,,,GNT74G,train_x,blue_star,bottom_left,2025-09-30_17h20.07.928,HideSeek_v1,2022.2.5,59.9740072628238,
,0,4,3,4,3,0,31,,train_dim1_1,8,30,,,,2,0,2,0,,,,,,,,,0,0,0,0,0,7,7,7,4,0,4,0,,,,,,,,,,,,,,,,,,,,,,,,,,,,,,,,,,,,,,,,,,,,,,,,,,,,,,,,,,,,,,,,30,,,,,,,,2375.8243089999887,2375.8243089999887,2375.8243089999887,2375.8243089999887,2375.8243089999887,right,0.2735485999728553,0,0,0,99,0.24,-0.08,right,0.18377160001546144,,,,,,,,,,,,,,,,,,,,,,,,,,,,,,,,,,,,,,,,,,,,,,,,,,,,,,,,,,,,GNT74G,train_x,blue_star,bottom_left,2025-09-30_17h20.07.928,HideSeek_v1,2022.2.5,59.9740072628238,
,0,4,3,4,3,0,31,,train_dim1_1,8,30,,,,2,0,2,0,,,,,,,,,0,0,0,0,0,7,7,7,5,0,5,0,,,,,,,,,,,,,,,,,,,,,,,,,,,,,,,,,,,,,,,,,,,,,,,,,,,,,,,,,,,,,,,,30,,,,,,,,2376.108004699985,2376.108004699985,2376.108004699985,2376.108004699985,2376.108004699985,right,0.24143430002732202,0,0,0,99,0.32,-0.08,right,0.15939310000976548,,,,,,,,,,,,,,,,,,,,,,,,,,,,,,,,,,,,,,,,,,,,,,,,,,,,,,,,,,,,GNT74G,train_x,blue_star,bottom_left,2025-09-30_17h20.07.928,HideSeek_v1,2022.2.5,59.9740072628238,
,0,4,3,4,3,0,31,,train_dim1_1,8,30,,,,2,0,2,0,,,,,,,,,0,0,0,0,0,7,7,7,6,0,6,0,,,,,,,,,,,,,,,,,,,,,,,,,,,,,,,,,,,,,,,,,,,,,,,,,,,,,,,,,,,,,,,,30,,,,,,,,2376.356616600009,2376.356616600009,2376.356616600009,2376.356616600009,2376.356616600009,right,0.25990649999585,0,0,0,99,0.4,-0.08,right,0.18354370002634823,,,,,,,,,,,,,,,,,,,,,,,,,,,,,,,,,,,,,,,,,,,,,,,,,,,,,,,,,,,,GNT74G,train_x,blue_star,bottom_left,2025-09-30_17h20.07.928,HideSeek_v1,2022.2.5,59.9740072628238,
,0,4,3,4,3,0,31,,train_dim1_1,8,30,,,,2,0,2,0,,,,,,,,,0,0,0,0,0,7,7,7,7,0,7,0,,,,,,,,,,,,,,,,,,,,,,,,,,,,,,,,,,,,,,,,,,,,,,,,,,,,,,,,,,,,,,,,30,,,,,,,,2376.6276992000057,2376.6276992000057,2376.6276992000057,2376.6276992000057,2376.6276992000057,down,0.623632800008636,0,0,0,99,0.4,-0.16,down,0.5440753999864683,,,,,,,,,,,,,,,,,,,,,,,,,,,,,,,,,,,,,,,,,,,,,,,,,,,,,,,,,,,,GNT74G,train_x,blue_star,bottom_left,2025-09-30_17h20.07.928,HideSeek_v1,2022.2.5,59.9740072628238,
,0,4,3,4,3,0,31,,train_dim1_1,8,30,,,,2,0,2,0,,,,,,,,,0,0,0,0,0,7,7,7,8,0,8,0,,,,,,,,,,,,,,,,,,,,,,,,,,,,,,,,,,,,,,,,,,,,,,,,,,,,,,,,,,,,,,,,30,,,,,,,,2377.255632799992,2377.255632799992,2377.255632799992,2377.255632799992,2377.255632799992,down,0.2599705999600701,0,0,0,99,0.4,-0.24,down,0.1805993999587372,,,,,,,,,,,,,,,,,,,,,,,,,,,,,,,,,,,,,,,,,,,,,,,,,,,,,,,,,,,,GNT74G,train_x,blue_star,bottom_left,2025-09-30_17h20.07.928,HideSeek_v1,2022.2.5,59.9740072628238,
,0,4,3,4,3,0,31,,train_dim1_1,8,30,,,,2,0,2,0,,,,,,,,,0,0,0,0,0,7,7,7,9,0,9,0,,,,,,,,,,,,,,,,,,,,,,,,,,,,,,,,,,,,,,,,,,,,,,,,,,,,,,,,,,,,,,,,30,,,,,,,,2377.5303598999744,2377.5303598999744,2377.5303598999744,2377.5303598999744,2377.5303598999744,down,0.29268339998088777,0,0,0,99,0.4,-0.32,down,0.19671959994593635,,,,,,,,,,,,,,,,,,,,,,,,,,,,,,,,,,,,,,,,,,,,,,,,,,,,,,,,,,,,GNT74G,train_x,blue_star,bottom_left,2025-09-30_17h20.07.928,HideSeek_v1,2022.2.5,59.9740072628238,
,0,4,3,4,3,0,31,,train_dim1_1,8,30,,,,2,0,2,0,,,,,,,,,0,0,0,0,0,7,7,7,10,0,10,0,,,,,,,,,,,,,,,,,,,,,,,,,,,,,,,,,,,,,,,,,,,,,,,,,,,,,,,,,,,,,,,,30,,,,,,,,2377.8234937999514,2377.8234937999514,2377.8234937999514,2377.8234937999514,2377.8234937999514,down,0.6763719999580644,0,0,0,99,0.4,-0.4,down,0.5994095000205562,,,,,,,,,,,,,,,,,,,,,,,,,,,,,,,,,,,,,,,,,,,,,,,,,,,,,,,,,,,,GNT74G,train_x,blue_star,bottom_left,2025-09-30_17h20.07.928,HideSeek_v1,2022.2.5,59.9740072628238,
,0,4,3,4,3,0,31,,train_dim1_1,8,30,,,,2,0,2,0,,,,,,,,,0,0,0,0,0,7,7,7,11,0,11,0,,,,,,,,,,,,,,,,,,,,,,,,,,,,,,,,,,,,,,,,,,,,,,,,,,,,,,,,,,,,,,,,30,,,,,,,,2378.5155297999736,2378.5155297999736,2378.5155297999736,2378.5155297999736,2378.5155297999736,return,0.6767476999666542,0,0,0,0,0.4,-0.4,return,0.5914465000387281,2,24,0.4,-0.4,,,,,,,,,,,,,,,,,,,,,,,,,,,,,,,,,,,,,,,,,,,,,,,,,,,,,,,,GNT74G,train_x,blue_star,bottom_left,2025-09-30_17h20.07.928,HideSeek_v1,2022.2.5,59.9740072628238,
,1,0,2,0,1,0,51,,train_dim1_1,9,30,,,,2,0,2,0,,,,,,,,,0,0,0,0,0,8,8,8,0,0,0,0,,,,,,,,,,,,,,,,,,,,,,,,,stimuli/alien_stimuli/51.png,,,,,,,,,,,,,,,,,,,,,,,,,,,,,stimuli/alien_stimuli/31.png,31,0,10,,,,,,,30,,,,,,,,2384.977127799997,2384.977127799997,2384.977127799997,2384.977127799997,2384.977127799997,return,5.62484730000142,0,1,0,0,-0.08,-0.4,return,5.537976399995387,2,24,-0.08,-0.4,2383.4129856000072,2384.977127799997,0.08,-0.08,0.0,0.24,-0.08,0.08,-0.04,0.08,-0.08,2380.764877299953,2380.764877299953,2380.764877299953,2380.764877299953,2380.764877299953,2380.764877299953,2380.764877299953,2380.764877299953,2380.74456794,2.772097200038843,return,2.616375599987805,,,,,,,,,,,,,,,,,,,,,,,,,,,,,,,,,GNT74G,train_x,blue_star,bottom_left,2025-09-30_17h20.07.928,HideSeek_v1,2022.2.5,59.9740072628238,
,0,3,5,3,5,0,11,,train_dim1_1,10,30,,,,2,0,2,0,,,,,,,,,0,0,0,0,0,9,9,9,0,0,0,0,,,,,,,,,,,,,,,,,,,,,,,,,stimuli/alien_stimuli/11.png,,,,,,,,,,,,,,,,,,,,,,,,,,,,,stimuli/alien_stimuli/51.png,51,1,11,,,,,,,30,,,,,,,,2400.8774588999804,2400.8774588999804,2400.8774588999804,2400.8774588999804,2400.8774588999804,right,2.2365911999950185,0,1,0,99,-0.08,-0.16,right,2.137893100036308,,,,,2399.3092455999576,2400.8774588999804,0,-0.4,0.0,0.08,-0.4,0,-0.04,0,-0.4,2392.1844052000088,2392.1844052000088,2392.1844052000088,2392.1844052000088,2392.1844052000088,2392.1844052000088,2392.1844052000088,2392.1844052000088,2392.1708259600096,7.25775499996962,return,7.092769900045823,,,,,,,,,,,,,,,,,,,,,,,,,,,,,,,,,GNT74G,train_x,blue_star,bottom_left,2025-09-30_17h20.07.928,HideSeek_v1,2022.2.5,59.9740072628238,
,0,3,5,3,5,0,11,,train_dim1_1,10,30,,,,2,0,2,0,,,,,,,,,0,0,0,0,0,9,9,9,1,0,1,0,,,,,,,,,,,,,,,,,,,,,,,,,,,,,,,,,,,,,,,,,,,,,,,,,,,,,,,,,,,,,,,,30,,,,,,,,2403.1175101999543,2403.1175101999543,2403.1175101999543,2403.1175101999543,2403.1175101999543,right,0.20926769997458905,0,1,0,99,0.0,-0.16,right,0.11842640000395477,,,,,,,,,,,,,,,,,,,,,,,,,,,,,,,,,,,,,,,,,,,,,,,,,,,,,,,,,,,,GNT74G,train_x,blue_star,bottom_left,2025-09-30_17h20.07.928,HideSeek_v1,2022.2.5,59.9740072628238,
,0,3,5,3,5,0,11,,train_dim1_1,10,30,,,,2,0,2,0,,,,,,,,,0,0,0,0,0,9,9,9,2,0,2,0,,,,,,,,,,,,,,,,,,,,,,,,,,,,,,,,,,,,,,,,,,,,,,,,,,,,,,,,,,,,,,,,30,,,,,,,,2403.3353036000044,2403.3353036000044,2403.3353036000044,2403.3353036000044,2403.3353036000044,right,0.2242223999928683,0,1,0,99,0.08,-0.16,right,0.1299777000094764,,,,,,,,,,,,,,,,,,,,,,,,,,,,,,,,,,,,,,,,,,,,,,,,,,,,,,,,,,,,GNT74G,train_x,blue_star,bottom_left,2025-09-30_17h20.07.928,HideSeek_v1,2022.2.5,59.9740072628238,
,0,3,5,3,5,0,11,,train_dim1_1,10,30,,,,2,0,2,0,,,,,,,,,0,0,0,0,0,9,9,9,3,0,3,0,,,,,,,,,,,,,,,,,,,,,,,,,,,,,,,,,,,,,,,,,,,,,,,,,,,,,,,,,,,,,,,,30,,,,,,,,2403.5686787999584,2403.5686787999584,2403.5686787999584,2403.5686787999584,2403.5686787999584,right,0.20960340002784505,0,1,0,99,0.16,-0.16,right,0.12581409997073933,,,,,,,,,,,,,,,,,,,,,,,,,,,,,,,,,,,,,,,,,,,,,,,,,,,,,,,,,,,,GNT74G,train_x,blue_star,bottom_left,2025-09-30_17h20.07.928,HideSeek_v1,2022.2.5,59.9740072628238,
,0,3,5,3,5,0,11,,train_dim1_1,10,30,,,,2,0,2,0,,,,,,,,,0,0,0,0,0,9,9,9,4,0,4,0,,,,,,,,,,,,,,,,,,,,,,,,,,,,,,,,,,,,,,,,,,,,,,,,,,,,,,,,,,,,,,,,30,,,,,,,,2403.7857948999736,2403.7857948999736,2403.7857948999736,2403.7857948999736,2403.7857948999736,right,0.2245392000186257,0,1,0,99,0.24,-0.16,right,0.1356859999941662,,,,,,,,,,,,,,,,,,,,,,,,,,,,,,,,,,,,,,,,,,,,,,,,,,,,,,,,,,,,GNT74G,train_x,blue_star,bottom_left,2025-09-30_17h20.07.928,HideSeek_v1,2022.2.5,59.9740072628238,
,0,3,5,3,5,0,11,,train_dim1_1,10,30,,,,2,0,2,0,,,,,,,,,0,0,0,0,0,9,9,9,5,0,5,0,,,,,,,,,,,,,,,,,,,,,,,,,,,,,,,,,,,,,,,,,,,,,,,,,,,,,,,,,,,,,,,,30,,,,,,,,2404.023331000004,2404.023331000004,2404.023331000004,2404.023331000004,2404.023331000004,right,0.22372929996345192,0,1,0,99,0.32,-0.16,right,0.13573280000127852,,,,,,,,,,,,,,,,,,,,,,,,,,,,,,,,,,,,,,,,,,,,,,,,,,,,,,,,,,,,GNT74G,train_x,blue_star,bottom_left,2025-09-30_17h20.07.928,HideSeek_v1,2022.2.5,59.9740072628238,
,0,3,5,3,5,0,11,,train_dim1_1,10,30,,,,2,0,2,0,,,,,,,,,0,0,0,0,0,9,9,9,6,0,6,0,,,,,,,,,,,,,,,,,,,,,,,,,,,,,,,,,,,,,,,,,,,,,,,,,,,,,,,,,,,,,,,,30,,,,,,,,2404.2490712999715,2404.2490712999715,2404.2490712999715,2404.2490712999715,2404.2490712999715,right,0.5094872000045143,0,1,0,99,0.4,-0.16,right,0.42751899996073917,,,,,,,,,,,,,,,,,,,,,,,,,,,,,,,,,,,,,,,,,,,,,,,,,,,,,,,,,,,,GNT74G,train_x,blue_star,bottom_left,2025-09-30_17h20.07.928,HideSeek_v1,2022.2.5,59.9740072628238,
,0,3,5,3,5,0,11,,train_dim1_1,10,30,,,,2,0,2,0,,,,,,,,,0,0,0,0,0,9,9,9,7,0,7,0,,,,,,,,,,,,,,,,,,,,,,,,,,,,,,,,,,,,,,,,,,,,,,,,,,,,,,,,,,,,,,,,30,,,,,,,,2404.769322599983,2404.769322599983,2404.769322599983,2404.769322599983,2404.769322599983,down,0.8268978000269271,0,1,0,99,0.4,-0.24,down,0.7449073000461794,,,,,,,,,,,,,,,,,,,,,,,,,,,,,,,,,,,,,,,,,,,,,,,,,,,,,,,,,,,,GNT74G,train_x,blue_star,bottom_left,2025-09-30_17h20.07.928,HideSeek_v1,2022.2.5,59.9740072628238,
,0,3,5,3,5,0,11,,train_dim1_1,10,30,,,,2,0,2,0,,,,,,,,,0,0,0,0,0,9,9,9,8,0,8,0,,,,,,,,,,,,,,,,,,,,,,,,,,,,,,,,,,,,,,,,,,,,,,,,,,,,,,,,,,,,,,,,30,,,,,,,,2405.600208299991,2405.600208299991,2405.600208299991,2405.600208299991,2405.600208299991,down,0.29323609999846667,0,1,0,99,0.4,-0.32,down,0.20240350003587082,,,,,,,,,,,,,,,,,,,,,,,,,,,,,,,,,,,,,,,,,,,,,,,,,,,,,,,,,,,,GNT74G,train_x,blue_star,bottom_left,2025-09-30_17h20.07.928,HideSeek_v1,2022.2.5,59.9740072628238,
,0,3,5,3,5,0,11,,train_dim1_1,10,30,,,,2,0,2,0,,,,,,,,,0,0,0,0,0,9,9,9,9,0,9,0,,,,,,,,,,,,,,,,,,,,,,,,,,,,,,,,,,,,,,,,,,,,,,,,,,,,,,,,,,,,,,,,30,,,,,,,,2405.899913000001,2405.899913000001,2405.899913000001,2405.899913000001,2405.899913000001,down,0.2931461000116542,0,1,0,99,0.4,-0.4,down,0.20307739998679608,,,,,,,,,,,,,,,,,,,,,,,,,,,,,,,,,,,,,,,,,,,,,,,,,,,,,,,,,,,,GNT74G,train_x,blue_star,bottom_left,2025-09-30_17h20.07.928,HideSeek_v1,2022.2.5,59.9740072628238,
,0,3,5,3,5,0,11,,train_dim1_1,10,30,,,,2,0,2,0,,,,,,,,,0,0,0,0,0,9,9,9,10,0,10,0,,,,,,,,,,,,,,,,,,,,,,,,,,,,,,,,,,,,,,,,,,,,,,,,,,,,,,,,,,,,,,,,30,,,,,,,,2406.201511399995,2406.201511399995,2406.201511399995,2406.201511399995,2406.201511399995,return,0.9938054000376724,0,0,0,0,0.4,-0.4,return,0.9079269000212662,-1,31,0.4,-0.4,,,,,,,,,,,,,,,,,,,,,,,,,,,,,,,,,,,,,,,,,,,,,,,,,,,,,,,,GNT74G,train_x,blue_star,bottom_left,2025-09-30_17h20.07.928,HideSeek_v1,2022.2.5,59.9740072628238,
,2,2,5,2,3,0,31,,train_dim1_1,11,30,,,,2,0,2,0,,,,,,,,,0,0,0,0,0,10,10,10,0,0,0,0,,,,,,,,,,,,,,,,,,,,,,,,,stimuli/alien_stimuli/31.png,,,,,,,,,,,,,,,,,,,,,,,,,,,,,stimuli/alien_stimuli/11.png,11,0,12,,,,,,,30,,,,,,,,2412.6148055999656,2412.6148055999656,2412.6148055999656,2412.6148055999656,2412.6148055999656,up,2.2366333000245504,0,0,0,99,0,-0.15999999999999998,up,2.13607080001384,,,,,2411.03578179999,2412.6148055999656,0.24,-0.16,0.0,0.4,-0.16,0.24,0.039999999999999994,0.24,-0.16,2408.7833979999996,2408.7833979999996,2408.7833979999996,2408.7833979999996,2408.7833979999996,2408.7833979999996,2408.7833979999996,2408.7833979999996,2408.7679900599874,2.3875399999669753,return,2.2229507999727502,,,,,,,,,,,,,,,,,,,,,,,,,,,,,,,,,GNT74G,train_x,blue_star,bottom_left,2025-09-30_17h20.07.928,HideSeek_v1,2022.2.5,59.9740072628238,
,2,2,5,2,3,0,31,,train_dim1_1,11,30,,,,2,0,2,0,,,,,,,,,0,0,0,0,0,10,10,10,1,0,1,0,,,,,,,,,,,,,,,,,,,,,,,,,,,,,,,,,,,,,,,,,,,,,,,,,,,,,,,,,,,,,,,,30,,,,,,,,2414.838218799967,2414.838218799967,2414.838218799967,2414.838218799967,2414.838218799967,return,0.709870399965439,0,0,0,0,0,-0.15999999999999998,return,0.6213421000284143,0,31,0,-0.15999999999999998,,,,,,,,,,,,,,,,,,,,,,,,,,,,,,,,,,,,,,,,,,,,,,,,,,,,,,,,GNT74G,train_x,blue_star,bottom_left,2025-09-30_17h20.07.928,HideSeek_v1,2022.2.5,59.9740072628238,
,0,0,4,0,4,0,21,,train_dim1_1,12,30,,,,2,0,2,0,,,,,,,,,0,0,0,0,0,11,11,11,0,0,0,0,,,,,,,,,,,,,,,,,,,,,,,,,stimuli/alien_stimuli/21.png,,,,,,,,,,,,,,,,,,,,,,,,,,,,,stimuli/alien_stimuli/31.png,31,2,13,,,,,,,30,,,,,,,,2420.8735224999837,2420.8735224999837,2420.8735224999837,2420.8735224999837,2420.8735224999837,right,1.4404254999826662,0,0,0,99,-0.08,-0.4,right,1.3319459999911487,,,,,2419.2924738999573,2420.8735224999837,0.24,-0.24,0.0,0.24,-0.24,0.24,0.12,0.24,-0.24,2417.1145920999697,2417.1145920999697,2417.1145920999697,2417.1145920999697,2417.1145920999697,2417.1145920999697,2417.1145920999697,2417.1145920999697,2417.0920531199895,2.2869475000188686,return,2.1622331999824382,,,,,,,,,,,,,,,,,,,,,,,,,,,,,,,,,GNT74G,train_x,blue_star,bottom_left,2025-09-30_17h20.07.928,HideSeek_v1,2022.2.5,59.9740072628238,
,0,0,4,0,4,0,21,,train_dim1_1,12,30,,,,2,0,2,0,,,,,,,,,0,0,0,0,0,11,11,11,1,0,1,0,,,,,,,,,,,,,,,,,,,,,,,,,,,,,,,,,,,,,,,,,,,,,,,,,,,,,,,,,,,,,,,,30,,,,,,,,2422.2997106999974,2422.2997106999974,2422.2997106999974,2422.2997106999974,2422.2997106999974,right,0.27587660000426695,0,0,0,99,0.0,-0.4,right,0.18711340002482757,,,,,,,,,,,,,,,,,,,,,,,,,,,,,,,,,,,,,,,,,,,,,,,,,,,,,,,,,,,,GNT74G,train_x,blue_star,bottom_left,2025-09-30_17h20.07.928,HideSeek_v1,2022.2.5,59.9740072628238,
,0,0,4,0,4,0,21,,train_dim1_1,12,30,,,,2,0,2,0,,,,,,,,,0,0,0,0,0,11,11,11,2,0,2,0,,,,,,,,,,,,,,,,,,,,,,,,,,,,,,,,,,,,,,,,,,,,,,,,,,,,,,,,,,,,,,,,30,,,,,,,,2422.5861748000025,2422.5861748000025,2422.5861748000025,2422.5861748000025,2422.5861748000025,up,0.9439768000156619,0,0,0,99,0.0,-0.32,up,0.854610699985642,,,,,,,,,,,,,,,,,,,,,,,,,,,,,,,,,,,,,,,,,,,,,,,,,,,,,,,,,,,,GNT74G,train_x,blue_star,bottom_left,2025-09-30_17h20.07.928,HideSeek_v1,2022.2.5,59.9740072628238,
,0,0,4,0,4,0,21,,train_dim1_1,12,30,,,,2,0,2,0,,,,,,,,,0,0,0,0,0,11,11,11,3,0,3,0,,,,,,,,,,,,,,,,,,,,,,,,,,,,,,,,,,,,,,,,,,,,,,,,,,,,,,,,,,,,,,,,30,,,,,,,,2423.534869099967,2423.534869099967,2423.534869099967,2423.534869099967,2423.534869099967,right,0.606779599969741,0,0,0,99,0.08,-0.32,right,0.5221488999668509,,,,,,,,,,,,,,,,,,,,,,,,,,,,,,,,,,,,,,,,,,,,,,,,,,,,,,,,,,,,GNT74G,train_x,blue_star,bottom_left,2025-09-30_17h20.07.928,HideSeek_v1,2022.2.5,59.9740072628238,
,0,0,4,0,4,0,21,,train_dim1_1,12,30,,,,2,0,2,0,,,,,,,,,0,0,0,0,0,11,11,11,4,0,4,0,,,,,,,,,,,,,,,,,,,,,,,,,,,,,,,,,,,,,,,,,,,,,,,,,,,,,,,,,,,,,,,,30,,,,,,,,2424.151514999976,2424.151514999976,2424.151514999976,2424.151514999976,2424.151514999976,up,0.4602022999897599,0,0,0,99,0.08,-0.24,up,0.36388319998513907,,,,,,,,,,,,,,,,,,,,,,,,,,,,,,,,,,,,,,,,,,,,,,,,,,,,,,,,,,,,GNT74G,train_x,blue_star,bottom_left,2025-09-30_17h20.07.928,HideSeek_v1,2022.2.5,59.9740072628238,
,0,0,4,0,4,0,21,,train_dim1_1,12,30,,,,2,0,2,0,,,,,,,,,0,0,0,0,0,11,11,11,5,0,5,0,,,,,,,,,,,,,,,,,,,,,,,,,,,,,,,,,,,,,,,,,,,,,,,,,,,,,,,,,,,,,,,,30,,,,,,,,2424.6151575999684,2424.6151575999684,2424.6151575999684,2424.6151575999684,2424.6151575999684,up,0.7100919000222348,0,0,0,99,0.08,-0.15999999999999998,up,0.6186019000015222,,,,,,,,,,,,,,,,,,,,,,,,,,,,,,,,,,,,,,,,,,,,,,,,,,,,,,,,,,,,GNT74G,train_x,blue_star,bottom_left,2025-09-30_17h20.07.928,HideSeek_v1,2022.2.5,59.9740072628238,
,0,0,4,0,4,0,21,,train_dim1_1,12,30,,,,2,0,2,0,,,,,,,,,0,0,0,0,0,11,11,11,6,0,6,0,,,,,,,,,,,,,,,,,,,,,,,,,,,,,,,,,,,,,,,,,,,,,,,,,,,,,,,,,,,,,,,,30,,,,,,,,2425.334081000008,2425.334081000008,2425.334081000008,2425.334081000008,2425.334081000008,up,0.5268292999826372,0,0,0,99,0.08,-0.07999999999999997,up,0.4320068000233732,,,,,,,,,,,,,,,,,,,,,,,,,,,,,,,,,,,,,,,,,,,,,,,,,,,,,,,,,,,,GNT74G,train_x,blue_star,bottom_left,2025-09-30_17h20.07.928,HideSeek_v1,2022.2.5,59.9740072628238,
,0,0,4,0,4,0,21,,train_dim1_1,12,30,,,,2,0,2,0,,,,,,,,,0,0,0,0,0,11,11,11,7,0,7,0,,,,,,,,,,,,,,,,,,,,,,,,,,,,,,,,,,,,,,,,,,,,,,,,,,,,,,,,,,,,,,,,30,,,,,,,,2425.866100799991,2425.866100799991,2425.866100799991,2425.866100799991,2425.866100799991,return,0.49330759997246787,0,0,0,0,0.08,-0.07999999999999997,return,0.4163647000095807,4,34,0.08,-0.07999999999999997,,,,,,,,,,,,,,,,,,,,,,,,,,,,,,,,,,,,,,,,,,,,,,,,,,,,,,,,GNT74G,train_x,blue_star,bottom_left,2025-09-30_17h20.07.928,HideSeek_v1,2022.2.5,59.9740072628238,
,0,4,1,4,1,0,51,,train_dim1_1,13,30,,,,2,0,2,0,,,,,,,,,0,0,0,0,0,12,12,12,0,0,0,0,,,,,,,,,,,,,,,,,,,,,,,,,stimuli/alien_stimuli/51.png,,,,,,,,,,,,,,,,,,,,,,,,,,,,,stimuli/alien_stimuli/21.png,21,0,14,,,,,,,30,,,,,,,,2431.5681688999757,2431.5681688999757,2431.5681688999757,2431.5681688999757,2431.5681688999757,right,2.3245073999860324,0,0,0,99,-0.08,-0.08,right,2.219684000010602,,,,,2429.9846444999566,2431.5681688999757,0.16,-0.4,0.0,0.32,-0.4,0.16,0.0,0.16,-0.4,2427.9288334999583,2427.9288334999583,2427.9288334999583,2427.9288334999583,2427.9288334999583,2427.9288334999583,2427.9288334999583,2427.9288334999583,2427.9170984399852,2.170788099989295,return,2.0243684999877587,,,,,,,,,,,,,,,,,,,,,,,,,,,,,,,,,GNT74G,train_x,blue_star,bottom_left,2025-09-30_17h20.07.928,HideSeek_v1,2022.2.5,59.9740072628238,
,0,4,1,4,1,0,51,,train_dim1_1,13,30,,,,2,0,2,0,,,,,,,,,0,0,0,0,0,12,12,12,1,0,1,0,,,,,,,,,,,,,,,,,,,,,,,,,,,,,,,,,,,,,,,,,,,,,,,,,,,,,,,,,,,,,,,,30,,,,,,,,2433.8719595999573,2433.8719595999573,2433.8719595999573,2433.8719595999573,2433.8719595999573,return,1.9108488999772817,1,0,0,1,-0.08,-0.08,return,1.818832399963867,4,35,-0.08,-0.08,,,,,,,,,,,,,,,,,,,,,,,,,,,,,,,,,,,,,,,,,,,,,,,,,,,,,,,,GNT74G,train_x,blue_star,bottom_left,2025-09-30_17h20.07.928,HideSeek_v1,2022.2.5,59.9740072628238,
,4,3,9,3,5,0,11,,train_dim1_1,14,30,,,,2,0,2,0,,,,,,,,,0,0,0,0,0,13,13,13,0,0,0,0,,,,,,,,,,,,,,,,,,,,,,,,,stimuli/alien_stimuli/11.png,,,,,,,,,,,,,,,,,,,,,,,,,,,,,stimuli/alien_stimuli/51.png,51,0,15,,,,,,,30,,,,,,,,2441.512068699987,2441.512068699987,2441.512068699987,2441.512068699987,2441.512068699987,down,2.923686299996916,1,0,0,99,0.16,-0.24,down,2.803847599949222,,,,,2439.9264102999587,2441.512068699987,-0.08,-0.08,0.0,0.08,-0.08,-0.08,-0.12,-0.08,-0.08,2437.350912599999,2437.350912599999,2437.350912599999,2437.350912599999,2437.350912599999,2437.350912599999,2437.350912599999,2437.350912599999,2437.341551139997,2.687868900015019,return,2.5487836999818683,,,,,,,,,,,,,,,,,,,,,,,,,,,,,,,,,GNT74G,train_x,blue_star,bottom_left,2025-09-30_17h20.07.928,HideSeek_v1,2022.2.5,59.9740072628238,
,4,3,9,3,5,0,11,,train_dim1_1,14,30,,,,2,0,2,0,,,,,,,,,0,0,0,0,0,13,13,13,1,0,1,0,,,,,,,,,,,,,,,,,,,,,,,,,,,,,,,,,,,,,,,,,,,,,,,,,,,,,,,,,,,,,,,,30,,,,,,,,2444.4163091999944,2444.4163091999944,2444.4163091999944,2444.4163091999944,2444.4163091999944,down,0.3092691999627277,1,0,0,99,0.16,-0.32,down,0.21500149997882545,,,,,,,,,,,,,,,,,,,,,,,,,,,,,,,,,,,,,,,,,,,,,,,,,,,,,,,,,,,,GNT74G,train_x,blue_star,bottom_left,2025-09-30_17h20.07.928,HideSeek_v1,2022.2.5,59.9740072628238,
,4,3,9,3,5,0,11,,train_dim1_1,14,30,,,,2,0,2,0,,,,,,,,,0,0,0,0,0,13,13,13,2,0,2,0,,,,,,,,,,,,,,,,,,,,,,,,,,,,,,,,,,,,,,,,,,,,,,,,,,,,,,,,,,,,,,,,30,,,,,,,,2444.7332107999828,2444.7332107999828,2444.7332107999828,2444.7332107999828,2444.7332107999828,down,0.5933158999541774,1,0,0,99,0.16,-0.4,down,0.5069594000233337,,,,,,,,,,,,,,,,,,,,,,,,,,,,,,,,,,,,,,,,,,,,,,,,,,,,,,,,,,,,GNT74G,train_x,blue_star,bottom_left,2025-09-30_17h20.07.928,HideSeek_v1,2022.2.5,59.9740072628238,
,4,3,9,3,5,0,11,,train_dim1_1,14,30,,,,2,0,2,0,,,,,,,,,0,0,0,0,0,13,13,13,3,0,3,0,,,,,,,,,,,,,,,,,,,,,,,,,,,,,,,,,,,,,,,,,,,,,,,,,,,,,,,,,,,,,,,,30,,,,,,,,2445.3353448999696,2445.3353448999696,2445.3353448999696,2445.3353448999696,2445.3353448999696,return,0.6908418000093661,1,0,0,0,0.16,-0.4,return,0.6017872999655083,1,35,0.16,-0.4,,,,,,,,,,,,,,,,,,,,,,,,,,,,,,,,,,,,,,,,,,,,,,,,,,,,,,,,GNT74G,train_x,blue_star,bottom_left,2025-09-30_17h20.07.928,HideSeek_v1,2022.2.5,59.9740072628238,
,4,2,4,2,0,0,61,,train_dim1_1,15,30,,,,2,0,2,0,,,,,,,,,0,0,0,0,0,14,14,14,0,0,0,0,,,,,,,,,,,,,,,,,,,,,,,,,stimuli/alien_stimuli/61.png,,,,,,,,,,,,,,,,,,,,,,,,,,,,,stimuli/alien_stimuli/11.png,11,4,16,,,,,,,30,,,,,,,,2450.9916736999876,2450.9916736999876,2450.9916736999876,2450.9916736999876,2450.9916736999876,right,3.6584287000005133,1,0,0,99,0.24,-0.24,right,3.562250800023321,,,,,2449.4174766999786,2450.9916736999876,0.56,-0.16,0.0,0.4,-0.16,0.56,0.36000000000000004,0.56,-0.16,2447.6117512999917,2447.6117512999917,2447.6117512999917,2447.6117512999917,2447.6117512999917,2447.6117512999917,2447.6117512999917,2447.6117512999917,2447.6001424599785,1.937450000026729,return,1.790043099957984,,,,,,,,,,,,,,,,,,,,,,,,,,,,,,,,,GNT74G,train_x,blue_star,bottom_left,2025-09-30_17h20.07.928,HideSeek_v1,2022.2.5,59.9740072628238,
,4,2,4,2,0,0,61,,train_dim1_1,15,30,,,,2,0,2,0,,,,,,,,,0,0,0,0,0,14,14,14,1,0,1,0,,,,,,,,,,,,,,,,,,,,,,,,,,,,,,,,,,,,,,,,,,,,,,,,,,,,,,,,,,,,,,,,30,,,,,,,,2454.6374171999632,2454.6374171999632,2454.6374171999632,2454.6374171999632,2454.6374171999632,return,0.46018609998282045,1,1,0,0,0.24,-0.24,return,0.38453970005502924,1,36,0.24,-0.24,,,,,,,,,,,,,,,,,,,,,,,,,,,,,,,,,,,,,,,,,,,,,,,,,,,,,,,,GNT74G,train_x,blue_star,bottom_left,2025-09-30_17h20.07.928,HideSeek_v1,2022.2.5,59.9740072628238,
,3,3,4,3,1,0,51,,train_dim1_1,16,30,,,,2,0,2,0,,,,,,,,,0,0,0,0,0,15,15,15,0,0,0,0,,,,,,,,,,,,,,,,,,,,,,,,,stimuli/alien_stimuli/51.png,,,,,,,,,,,,,,,,,,,,,,,,,,,,,stimuli/alien_stimuli/61.png,61,4,17,,,,,,,30,,,,,,,,2460.9395505999564,2460.9395505999564,2460.9395505999564,2460.9395505999564,2460.9395505999564,right,2.9558076999965124,1,1,0,99,0.16,-0.16,right,2.8668377999565564,,,,,2459.375967799977,2460.9395505999564,0.16,-0.24,0.0,0.0,-0.24,0.16,0.16,0.16,-0.24,2456.6702960999683,2456.6702960999683,2456.6702960999683,2456.6702960999683,2456.6702960999683,2456.6702960999683,2456.6702960999683,2456.6702960999683,2456.6575930400168,2.8216280000051484,return,2.676170999999158,,,,,,,,,,,,,,,,,,,,,,,,,,,,,,,,,GNT74G,train_x,blue_star,bottom_left,2025-09-30_17h20.07.928,HideSeek_v1,2022.2.5,59.9740072628238,
,3,3,4,3,1,0,51,,train_dim1_1,16,30,,,,2,0,2,0,,,,,,,,,0,0,0,0,0,15,15,15,1,0,1,0,,,,,,,,,,,,,,,,,,,,,,,,,,,,,,,,,,,,,,,,,,,,,,,,,,,,,,,,,,,,,,,,30,,,,,,,,2463.897712599952,2463.897712599952,2463.897712599952,2463.897712599952,2463.897712599952,return,0.34299779997672886,2,0,0,1,0.16,-0.16,return,0.26149229996372014,1,37,0.16,-0.16,,,,,,,,,,,,,,,,,,,,,,,,,,,,,,,,,,,,,,,,,,,,,,,,,,,,,,,,GNT74G,train_x,blue_star,bottom_left,2025-09-30_17h20.07.928,HideSeek_v1,2022.2.5,59.9740072628238,
,2,4,6,4,4,0,21,,train_dim1_1,17,30,,,,2,0,2,0,,,,,,,,,0,0,0,0,0,16,16,16,0,0,0,0,,,,,,,,,,,,,,,,,,,,,,,,,stimuli/alien_stimuli/21.png,,,,,,,,,,,,,,,,,,,,,,,,,,,,,stimuli/alien_stimuli/51.png,51,3,18,,,,,,,30,,,,,,,,2469.7822866999777,2469.7822866999777,2469.7822866999777,2469.7822866999777,2469.7822866999777,right,2.6244988000253215,2,0,0,99,0.08,-0.08,right,2.5108018000028096,,,,,2468.1999531000038,2469.7822866999777,0.16,-0.16,0.0,0.08,-0.16,0.16,0.12,0.16,-0.16,2465.8081716999877,2465.8081716999877,2465.8081716999877,2465.8081716999877,2465.8081716999877,2465.8081716999877,2465.8081716999877,2465.8081716999877,2465.798428439989,2.504497700021602,return,2.3692273999913596,,,,,,,,,,,,,,,,,,,,,,,,,,,,,,,,,GNT74G,train_x,blue_star,bottom_left,2025-09-30_17h20.07.928,HideSeek_v1,2022.2.5,59.9740072628238,
,2,4,6,4,4,0,21,,train_dim1_1,17,30,,,,2,0,2,0,,,,,,,,,0,0,0,0,0,16,16,16,1,0,1,0,,,,,,,,,,,,,,,,,,,,,,,,,,,,,,,,,,,,,,,,,,,,,,,,,,,,,,,,,,,,,,,,30,,,,,,,,2472.3899851999595,2472.3899851999595,2472.3899851999595,2472.3899851999595,2472.3899851999595,right,0.24236999999266118,2,0,0,99,0.16,-0.08,right,0.16292899998370558,,,,,,,,,,,,,,,,,,,,,,,,,,,,,,,,,,,,,,,,,,,,,,,,,,,,,,,,,,,,GNT74G,train_x,blue_star,bottom_left,2025-09-30_17h20.07.928,HideSeek_v1,2022.2.5,59.9740072628238,
,2,4,6,4,4,0,21,,train_dim1_1,17,30,,,,2,0,2,0,,,,,,,,,0,0,0,0,0,16,16,16,2,0,2,0,,,,,,,,,,,,,,,,,,,,,,,,,,,,,,,,,,,,,,,,,,,,,,,,,,,,,,,,,,,,,,,,30,,,,,,,,2472.6414122999995,2472.6414122999995,2472.6414122999995,2472.6414122999995,2472.6414122999995,right,0.24179639999056235,2,0,0,99,0.24,-0.08,right,0.15229410002939403,,,,,,,,,,,,,,,,,,,,,,,,,,,,,,,,,,,,,,,,,,,,,,,,,,,,,,,,,,,,GNT74G,train_x,blue_star,bottom_left,2025-09-30_17h20.07.928,HideSeek_v1,2022.2.5,59.9740072628238,
,2,4,6,4,4,0,21,,train_dim1_1,17,30,,,,2,0,2,0,,,,,,,,,0,0,0,0,0,16,16,16,3,0,3,0,,,,,,,,,,,,,,,,,,,,,,,,,,,,,,,,,,,,,,,,,,,,,,,,,,,,,,,,,,,,,,,,30,,,,,,,,2472.890689099964,2472.890689099964,2472.890689099964,2472.890689099964,2472.890689099964,right,0.22651690000202507,2,0,0,99,0.32,-0.08,right,0.14024580002296716,,,,,,,,,,,,,,,,,,,,,,,,,,,,,,,,,,,,,,,,,,,,,,,,,,,,,,,,,,,,GNT74G,train_x,blue_star,bottom_left,2025-09-30_17h20.07.928,HideSeek_v1,2022.2.5,59.9740072628238,
,2,4,6,4,4,0,21,,train_dim1_1,17,30,,,,2,0,2,0,,,,,,,,,0,0,0,0,0,16,16,16,4,0,4,0,,,,,,,,,,,,,,,,,,,,,,,,,,,,,,,,,,,,,,,,,,,,,,,,,,,,,,,,,,,,,,,,30,,,,,,,,2473.12504959997,2473.12504959997,2473.12504959997,2473.12504959997,2473.12504959997,right,0.9770652999868616,2,0,0,99,0.4,-0.08,right,0.8893585000187159,,,,,,,,,,,,,,,,,,,,,,,,,,,,,,,,,,,,,,,,,,,,,,,,,,,,,,,,,,,,GNT74G,train_x,blue_star,bottom_left,2025-09-30_17h20.07.928,HideSeek_v1,2022.2.5,59.9740072628238,
,2,4,6,4,4,0,21,,train_dim1_1,17,30,,,,2,0,2,0,,,,,,,,,0,0,0,0,0,16,16,16,5,0,5,0,,,,,,,,,,,,,,,,,,,,,,,,,,,,,,,,,,,,,,,,,,,,,,,,,,,,,,,,,,,,,,,,30,,,,,,,,2474.1113990999875,2474.1113990999875,2474.1113990999875,2474.1113990999875,2474.1113990999875,return,0.4432517999666743,2,1,0,0,0.4,-0.08,return,0.3452048000181094,1,42,0.4,-0.08,,,,,,,,,,,,,,,,,,,,,,,,,,,,,,,,,,,,,,,,,,,,,,,,,,,,,,,,GNT74G,train_x,blue_star,bottom_left,2025-09-30_17h20.07.928,HideSeek_v1,2022.2.5,59.9740072628238,
,2,1,2,1,0,0,61,,train_dim1_1,18,30,,,,2,0,2,0,,,,,,,,,0,0,0,0,0,17,17,17,0,0,0,0,,,,,,,,,,,,,,,,,,,,,,,,,stimuli/alien_stimuli/61.png,,,,,,,,,,,,,,,,,,,,,,,,,,,,,stimuli/alien_stimuli/21.png,21,2,19,,,,,,,30,,,,,,,,2479.8678259999724,2479.8678259999724,2479.8678259999724,2479.8678259999724,2479.8678259999724,return,5.225924799975473,3,0,0,1,0,-0.32,return,5.11689830000978,1,42,0,-0.32,2478.291548799956,2479.8678259999724,0.32,-0.08,0.0,0.32,-0.08,0.32,0.16,0.32,-0.08,2476.1330359999556,2476.1330359999556,2476.1330359999556,2476.1330359999556,2476.1330359999556,2476.1330359999556,2476.1330359999556,2476.1330359999556,2476.124148860003,2.287232600036077,return,2.1270307999802753,,,,,,,,,,,,,,,,,,,,,,,,,,,,,,,,,GNT74G,train_x,blue_star,bottom_left,2025-09-30_17h20.07.928,HideSeek_v1,2022.2.5,59.9740072628238,
,0,3,3,3,3,0,31,,train_dim1_1,19,30,,,,2,0,2,0,,,,,,,,,0,0,0,0,0,18,18,18,0,0,0,0,,,,,,,,,,,,,,,,,,,,,,,,,stimuli/alien_stimuli/31.png,,,,,,,,,,,,,,,,,,,,,,,,,,,,,stimuli/alien_stimuli/61.png,61,2,20,,,,,,,30,,,,,,,,2489.9409440999734,2489.9409440999734,2489.9409440999734,2489.9409440999734,2489.9409440999734,right,3.224505299993325,3,0,0,99,-0.08,-0.16,right,3.1306400999892503,,,,,2488.3665249999613,2489.9409440999734,0,-0.32,0.0,0.0,-0.32,0,0.0,0,-0.32,2486.6447517999914,2486.6447517999914,2486.6447517999914,2486.6447517999914,2486.6447517999914,2486.6447517999914,2486.6447517999914,2486.6447517999914,2486.632417439995,1.8372086000163108,return,1.690063099958934,,,,,,,,,,,,,,,,,,,,,,,,,,,,,,,,,GNT74G,train_x,blue_star,bottom_left,2025-09-30_17h20.07.928,HideSeek_v1,2022.2.5,59.9740072628238,
,0,3,3,3,3,0,31,,train_dim1_1,19,30,,,,2,0,2,0,,,,,,,,,0,0,0,0,0,18,18,18,1,0,1,0,,,,,,,,,,,,,,,,,,,,,,,,,,,,,,,,,,,,,,,,,,,,,,,,,,,,,,,,,,,,,,,,30,,,,,,,,2493.153577399964,2493.153577399964,2493.153577399964,2493.153577399964,2493.153577399964,right,0.3260271999752149,3,0,0,99,0.0,-0.16,right,0.2517056000069715,,,,,,,,,,,,,,,,,,,,,,,,,,,,,,,,,,,,,,,,,,,,,,,,,,,,,,,,,,,,GNT74G,train_x,blue_star,bottom_left,2025-09-30_17h20.07.928,HideSeek_v1,2022.2.5,59.9740072628238,
,0,3,3,3,3,0,31,,train_dim1_1,19,30,,,,2,0,2,0,,,,,,,,,0,0,0,0,0,18,18,18,2,0,2,0,,,,,,,,,,,,,,,,,,,,,,,,,,,,,,,,,,,,,,,,,,,,,,,,,,,,,,,,,,,,,,,,30,,,,,,,,2493.4862017999985,2493.4862017999985,2493.4862017999985,2493.4862017999985,2493.4862017999985,return,0.45996750000631437,3,1,0,0,0.0,-0.16,return,0.372080700006336,1,44,0.0,-0.16,,,,,,,,,,,,,,,,,,,,,,,,,,,,,,,,,,,,,,,,,,,,,,,,,,,,,,,,GNT74G,train_x,blue_star,bottom_left,2025-09-30_17h20.07.928,HideSeek_v1,2022.2.5,59.9740072628238,
,0,1,5,1,5,0,11,,train_dim1_1,20,30,,,,2,0,2,0,,,,,,,,,0,0,0,0,0,19,19,19,0,0,0,0,,,,,,,,,,,,,,,,,,,,,,,,,stimuli/alien_stimuli/11.png,,,,,,,,,,,,,,,,,,,,,,,,,,,,,stimuli/alien_stimuli/31.png,31,0,21,,,,,,,30,,,,,,,,2498.7732493999647,2498.7732493999647,2498.7732493999647,2498.7732493999647,2498.7732493999647,right,1.8364319000393152,3,1,0,99,-0.08,-0.32,right,1.7307522000046447,,,,,2497.1905747999554,2498.7732493999647,0.08,-0.16,0.0,0.24,-0.16,0.08,-0.04,0.08,-0.16,2495.5101767999586,2495.5101767999586,2495.5101767999586,2495.5101767999586,2495.5101767999586,2495.5101767999586,2495.5101767999586,2495.5101767999586,2495.489665519993,1.786905699991621,return,1.6534018999664113,,,,,,,,,,,,,,,,,,,,,,,,,,,,,,,,,GNT74G,train_x,blue_star,bottom_left,2025-09-30_17h20.07.928,HideSeek_v1,2022.2.5,59.9740072628238,
,0,1,5,1,5,0,11,,train_dim1_1,20,30,,,,2,0,2,0,,,,,,,,,0,0,0,0,0,19,19,19,1,0,1,0,,,,,,,,,,,,,,,,,,,,,,,,,,,,,,,,,,,,,,,,,,,,,,,,,,,,,,,,,,,,,,,,30,,,,,,,,2500.5956442999886,2500.5956442999886,2500.5956442999886,2500.5956442999886,2500.5956442999886,right,0.2264675999758765,3,1,0,99,0.0,-0.32,right,0.13339740002993494,,,,,,,,,,,,,,,,,,,,,,,,,,,,,,,,,,,,,,,,,,,,,,,,,,,,,,,,,,,,GNT74G,train_x,blue_star,bottom_left,2025-09-30_17h20.07.928,HideSeek_v1,2022.2.5,59.9740072628238,
,0,1,5,1,5,0,11,,train_dim1_1,20,30,,,,2,0,2,0,,,,,,,,,0,0,0,0,0,19,19,19,2,0,2,0,,,,,,,,,,,,,,,,,,,,,,,,,,,,,,,,,,,,,,,,,,,,,,,,,,,,,,,,,,,,,,,,30,,,,,,,,2500.833972099994,2500.833972099994,2500.833972099994,2500.833972099994,2500.833972099994,right,0.22542600001906976,3,1,0,99,0.08,-0.32,right,0.13242400001036003,,,,,,,,,,,,,,,,,,,,,,,,,,,,,,,,,,,,,,,,,,,,,,,,,,,,,,,,,,,,GNT74G,train_x,blue_star,bottom_left,2025-09-30_17h20.07.928,HideSeek_v1,2022.2.5,59.9740072628238,
,0,1,5,1,5,0,11,,train_dim1_1,20,30,,,,2,0,2,0,,,,,,,,,0,0,0,0,0,19,19,19,3,0,3,0,,,,,,,,,,,,,,,,,,,,,,,,,,,,,,,,,,,,,,,,,,,,,,,,,,,,,,,,,,,,,,,,30,,,,,,,,2501.0660947999568,2501.0660947999568,2501.0660947999568,2501.0660947999568,2501.0660947999568,right,0.7921137000084855,3,1,0,99,0.16,-0.32,right,0.7057456999900751,,,,,,,,,,,,,,,,,,,,,,,,,,,,,,,,,,,,,,,,,,,,,,,,,,,,,,,,,,,,GNT74G,train_x,blue_star,bottom_left,2025-09-30_17h20.07.928,HideSeek_v1,2022.2.5,59.9740072628238,
,0,1,5,1,5,0,11,,train_dim1_1,20,30,,,,2,0,2,0,,,,,,,,,0,0,0,0,0,19,19,19,4,0,4,0,,,,,,,,,,,,,,,,,,,,,,,,,,,,,,,,,,,,,,,,,,,,,,,,,,,,,,,,,,,,,,,,30,,,,,,,,2501.863381800009,2501.863381800009,2501.863381800009,2501.863381800009,2501.863381800009,right,0.3600792000070214,3,1,0,99,0.24,-0.32,right,0.2718052000273019,,,,,,,,,,,,,,,,,,,,,,,,,,,,,,,,,,,,,,,,,,,,,,,,,,,,,,,,,,,,GNT74G,train_x,blue_star,bottom_left,2025-09-30_17h20.07.928,HideSeek_v1,2022.2.5,59.9740072628238,
,0,1,5,1,5,0,11,,train_dim1_1,20,30,,,,2,0,2,0,,,,,,,,,0,0,0,0,0,19,19,19,5,0,5,0,,,,,,,,,,,,,,,,,,,,,,,,,,,,,,,,,,,,,,,,,,,,,,,,,,,,,,,,,,,,,,,,30,,,,,,,,2502.231440100004,2502.231440100004,2502.231440100004,2502.231440100004,2502.231440100004,right,0.3932574999635108,3,1,0,99,0.32,-0.32,right,0.30863260000478476,,,,,,,,,,,,,,,,,,,,,,,,,,,,,,,,,,,,,,,,,,,,,,,,,,,,,,,,,,,,GNT74G,train_x,blue_star,bottom_left,2025-09-30_17h20.07.928,HideSeek_v1,2022.2.5,59.9740072628238,
,0,1,5,1,5,0,11,,train_dim1_1,20,30,,,,2,0,2,0,,,,,,,,,0,0,0,0,0,19,19,19,6,0,6,0,,,,,,,,,,,,,,,,,,,,,,,,,,,,,,,,,,,,,,,,,,,,,,,,,,,,,,,,,,,,,,,,30,,,,,,,,2502.6298611999955,2502.6298611999955,2502.6298611999955,2502.6298611999955,2502.6298611999955,return,1.3104961999924853,3,1,0,0,0.32,-0.32,return,1.2211085999733768,1,50,0.32,-0.32,,,,,,,,,,,,,,,,,,,,,,,,,,,,,,,,,,,,,,,,,,,,,,,,,,,,,,,,GNT74G,train_x,blue_star,bottom_left,2025-09-30_17h20.07.928,HideSeek_v1,2022.2.5,59.9740072628238,
,4,2,7,2,3,0,31,,train_dim1_1,21,30,,,,2,0,2,0,,,,,,,,,0,0,0,0,0,20,20,20,0,0,0,0,,,,,,,,,,,,,,,,,,,,,,,,,stimuli/alien_stimuli/31.png,,,,,,,,,,,,,,,,,,,,,,,,,,,,,stimuli/alien_stimuli/11.png,11,0,22,,,,,,,30,,,,,,,,2509.0220249999547,2509.0220249999547,2509.0220249999547,2509.0220249999547,2509.0220249999547,right,4.108522699971218,3,1,0,99,0.24,-0.24,right,4.007672799983993,,,,,2507.4492320999852,2509.0220249999547,0.24,-0.32,0.0,0.4,-0.32,0.24,0.039999999999999994,0.24,-0.32,2505.508065400005,2505.508065400005,2505.508065400005,2505.508065400005,2505.508065400005,2505.508065400005,2505.508065400005,2505.508065400005,2505.4983475399667,2.053764100011904,return,1.9179955000290647,,,,,,,,,,,,,,,,,,,,,,,,,,,,,,,,,GNT74G,train_x,blue_star,bottom_left,2025-09-30_17h20.07.928,HideSeek_v1,2022.2.5,59.9740072628238,
,4,2,7,2,3,0,31,,train_dim1_1,21,30,,,,2,0,2,0,,,,,,,,,0,0,0,0,0,20,20,20,1,0,1,0,,,,,,,,,,,,,,,,,,,,,,,,,,,,,,,,,,,,,,,,,,,,,,,,,,,,,,,,,,,,,,,,30,,,,,,,,2513.118540299998,2513.118540299998,2513.118540299998,2513.118540299998,2513.118540299998,right,0.30939130001934245,3,1,0,99,0.32,-0.24,right,0.22569599997950718,,,,,,,,,,,,,,,,,,,,,,,,,,,,,,,,,,,,,,,,,,,,,,,,,,,,,,,,,,,,GNT74G,train_x,blue_star,bottom_left,2025-09-30_17h20.07.928,HideSeek_v1,2022.2.5,59.9740072628238,
,4,2,7,2,3,0,31,,train_dim1_1,21,30,,,,2,0,2,0,,,,,,,,,0,0,0,0,0,20,20,20,2,0,2,0,,,,,,,,,,,,,,,,,,,,,,,,,,,,,,,,,,,,,,,,,,,,,,,,,,,,,,,,,,,,,,,,30,,,,,,,,2513.4385595999775,2513.4385595999775,2513.4385595999775,2513.4385595999775,2513.4385595999775,right,0.34317789995111525,3,1,0,99,0.4,-0.24,right,0.26154749997658655,,,,,,,,,,,,,,,,,,,,,,,,,,,,,,,,,,,,,,,,,,,,,,,,,,,,,,,,,,,,GNT74G,train_x,blue_star,bottom_left,2025-09-30_17h20.07.928,HideSeek_v1,2022.2.5,59.9740072628238,
,4,2,7,2,3,0,31,,train_dim1_1,21,30,,,,2,0,2,0,,,,,,,,,0,0,0,0,0,20,20,20,3,0,3,0,,,,,,,,,,,,,,,,,,,,,,,,,,,,,,,,,,,,,,,,,,,,,,,,,,,,,,,,,,,,,,,,30,,,,,,,,2513.7856016999576,2513.7856016999576,2513.7856016999576,2513.7856016999576,2513.7856016999576,return,0.7266168000060134,4,0,0,1,0.4,-0.24,return,0.6430505000171252,1,53,0.4,-0.24,,,,,,,,,,,,,,,,,,,,,,,,,,,,,,,,,,,,,,,,,,,,,,,,,,,,,,,,GNT74G,train_x,blue_star,bottom_left,2025-09-30_17h20.07.928,HideSeek_v1,2022.2.5,59.9740072628238,
,1,0,5,0,4,0,21,,train_dim1_1,22,30,,,,2,0,2,0,,,,,,,,,0,0,0,0,0,21,21,21,0,0,0,0,,,,,,,,,,,,,,,,,,,,,,,,,stimuli/alien_stimuli/21.png,,,,,,,,,,,,,,,,,,,,,,,,,,,,,stimuli/alien_stimuli/31.png,31,4,23,,,,,,,30,,,,,,,,2520.197381999984,2520.197381999984,2520.197381999984,2520.197381999984,2520.197381999984,right,2.4040297000319697,4,0,0,99,0.0,-0.4,right,2.296829600003548,,,,,2518.6083287000074,2520.197381999984,0.4,-0.24,0.0,0.24,-0.24,0.4,0.28,0.4,-0.24,2516.095835699991,2516.095835699991,2516.095835699991,2516.095835699991,2516.095835699991,2516.095835699991,2516.095835699991,2516.095835699991,2516.073562839988,2.637355699960608,return,2.4889290999853984,,,,,,,,,,,,,,,,,,,,,,,,,,,,,,,,,GNT74G,train_x,blue_star,bottom_left,2025-09-30_17h20.07.928,HideSeek_v1,2022.2.5,59.9740072628238,
,1,0,5,0,4,0,21,,train_dim1_1,22,30,,,,2,0,2,0,,,,,,,,,0,0,0,0,0,21,21,21,1,0,1,0,,,,,,,,,,,,,,,,,,,,,,,,,,,,,,,,,,,,,,,,,,,,,,,,,,,,,,,,,,,,,,,,30,,,,,,,,2522.5837065000087,2522.5837065000087,2522.5837065000087,2522.5837065000087,2522.5837065000087,right,0.2576571999816224,4,0,0,99,0.08,-0.4,right,0.17149350000545382,,,,,,,,,,,,,,,,,,,,,,,,,,,,,,,,,,,,,,,,,,,,,,,,,,,,,,,,,,,,GNT74G,train_x,blue_star,bottom_left,2025-09-30_17h20.07.928,HideSeek_v1,2022.2.5,59.9740072628238,
,1,0,5,0,4,0,21,,train_dim1_1,22,30,,,,2,0,2,0,,,,,,,,,0,0,0,0,0,21,21,21,2,0,2,0,,,,,,,,,,,,,,,,,,,,,,,,,,,,,,,,,,,,,,,,,,,,,,,,,,,,,,,,,,,,,,,,30,,,,,,,,2522.8460882999934,2522.8460882999934,2522.8460882999934,2522.8460882999934,2522.8460882999934,right,0.27649779996136203,4,0,0,99,0.16,-0.4,right,0.1874629000085406,,,,,,,,,,,,,,,,,,,,,,,,,,,,,,,,,,,,,,,,,,,,,,,,,,,,,,,,,,,,GNT74G,train_x,blue_star,bottom_left,2025-09-30_17h20.07.928,HideSeek_v1,2022.2.5,59.9740072628238,
,1,0,5,0,4,0,21,,train_dim1_1,22,30,,,,2,0,2,0,,,,,,,,,0,0,0,0,0,21,21,21,3,0,3,0,,,,,,,,,,,,,,,,,,,,,,,,,,,,,,,,,,,,,,,,,,,,,,,,,,,,,,,,,,,,,,,,30,,,,,,,,2523.1325730999815,2523.1325730999815,2523.1325730999815,2523.1325730999815,2523.1325730999815,right,0.3096265000058338,4,0,0,99,0.24,-0.4,right,0.22150370001327246,,,,,,,,,,,,,,,,,,,,,,,,,,,,,,,,,,,,,,,,,,,,,,,,,,,,,,,,,,,,GNT74G,train_x,blue_star,bottom_left,2025-09-30_17h20.07.928,HideSeek_v1,2022.2.5,59.9740072628238,
,1,0,5,0,4,0,21,,train_dim1_1,22,30,,,,2,0,2,0,,,,,,,,,0,0,0,0,0,21,21,21,4,0,4,0,,,,,,,,,,,,,,,,,,,,,,,,,,,,,,,,,,,,,,,,,,,,,,,,,,,,,,,,,,,,,,,,30,,,,,,,,2523.449422399979,2523.449422399979,2523.449422399979,2523.449422399979,2523.449422399979,right,0.2933867999818176,4,0,0,99,0.32,-0.4,right,0.20917739998549223,,,,,,,,,,,,,,,,,,,,,,,,,,,,,,,,,,,,,,,,,,,,,,,,,,,,,,,,,,,,GNT74G,train_x,blue_star,bottom_left,2025-09-30_17h20.07.928,HideSeek_v1,2022.2.5,59.9740072628238,
,1,0,5,0,4,0,21,,train_dim1_1,22,30,,,,2,0,2,0,,,,,,,,,0,0,0,0,0,21,21,21,5,0,5,0,,,,,,,,,,,,,,,,,,,,,,,,,,,,,,,,,,,,,,,,,,,,,,,,,,,,,,,,,,,,,,,,30,,,,,,,,2523.748285699985,2523.748285699985,2523.748285699985,2523.748285699985,2523.748285699985,right,0.7431152000208385,4,0,0,99,0.4,-0.4,right,0.6557911000563763,,,,,,,,,,,,,,,,,,,,,,,,,,,,,,,,,,,,,,,,,,,,,,,,,,,,,,,,,,,,GNT74G,train_x,blue_star,bottom_left,2025-09-30_17h20.07.928,HideSeek_v1,2022.2.5,59.9740072628238,
,1,0,5,0,4,0,21,,train_dim1_1,22,30,,,,2,0,2,0,,,,,,,,,0,0,0,0,0,21,21,21,6,0,6,0,,,,,,,,,,,,,,,,,,,,,,,,,,,,,,,,,,,,,,,,,,,,,,,,,,,,,,,,,,,,,,,,30,,,,,,,,2524.4992238999694,2524.4992238999694,2524.4992238999694,2524.4992238999694,2524.4992238999694,return,0.8268821000237949,4,0,0,0,0.4,-0.4,return,0.7465134999947622,1,59,0.4,-0.4,,,,,,,,,,,,,,,,,,,,,,,,,,,,,,,,,,,,,,,,,,,,,,,,,,,,,,,,GNT74G,train_x,blue_star,bottom_left,2025-09-30_17h20.07.928,HideSeek_v1,2022.2.5,59.9740072628238,
,2,1,2,1,0,0,61,,train_dim1_1,23,30,,,,2,0,2,0,,,,,,,,,0,0,0,0,0,22,22,22,0,0,0,0,,,,,,,,,,,,,,,,,,,,,,,,,stimuli/alien_stimuli/61.png,,,,,,,,,,,,,,,,,,,,,,,,,,,,,stimuli/alien_stimuli/21.png,21,1,24,,,,,,,30,,,,,,,,2530.3275823000004,2530.3275823000004,2530.3275823000004,2530.3275823000004,2530.3275823000004,return,3.5419249000260606,5,0,0,1,0,-0.32,return,3.442488000029698,1,59,0,-0.32,2528.749814199982,2530.3275823000004,0.24,-0.4,0.0,0.32,-0.4,0.24,0.07999999999999999,0.24,-0.4,2526.9196658,2526.9196658,2526.9196658,2526.9196658,2526.9196658,2526.9196658,2526.9196658,2526.9196658,2526.8993036599827,1.9703919000457972,return,1.8114593000500463,,,,,,,,,,,,,,,,,,,,,,,,,,,,,,,,,GNT74G,train_x,blue_star,bottom_left,2025-09-30_17h20.07.928,HideSeek_v1,2022.2.5,59.9740072628238,
,4,4,5,4,1,0,51,,train_dim1_1,24,30,,,,2,0,2,0,,,,,,,,,0,0,0,0,0,23,23,23,0,0,0,0,,,,,,,,,,,,,,,,,,,,,,,,,stimuli/alien_stimuli/51.png,,,,,,,,,,,,,,,,,,,,,,,,,,,,,stimuli/alien_stimuli/61.png,61,2,25,,,,,,,30,,,,,,,,2538.8138968999847,2538.8138968999847,2538.8138968999847,2538.8138968999847,2538.8138968999847,right,2.0563497999683022,5,0,0,99,0.24,-0.08,right,1.9619962999713607,,,,,2537.240341399971,2538.8138968999847,0,-0.32,0.0,0.0,-0.32,0,0.0,0,-0.32,2535.4102443999727,2535.4102443999727,2535.4102443999727,2535.4102443999727,2535.4102443999727,2535.4102443999727,2535.4102443999727,2535.4102443999727,2535.389478719991,1.9369807000039145,return,1.8000312000513077,,,,,,,,,,,,,,,,,,,,,,,,,,,,,,,,,GNT74G,train_x,blue_star,bottom_left,2025-09-30_17h20.07.928,HideSeek_v1,2022.2.5,59.9740072628238,
,4,4,5,4,1,0,51,,train_dim1_1,24,30,,,,2,0,2,0,,,,,,,,,0,0,0,0,0,23,23,23,1,0,1,0,,,,,,,,,,,,,,,,,,,,,,,,,,,,,,,,,,,,,,,,,,,,,,,,,,,,,,,,,,,,,,,,30,,,,,,,,2540.8620311999694,2540.8620311999694,2540.8620311999694,2540.8620311999694,2540.8620311999694,return,0.3425093999831006,6,0,0,1,0.24,-0.08,return,0.26073889998951927,1,60,0.24,-0.08,,,,,,,,,,,,,,,,,,,,,,,,,,,,,,,,,,,,,,,,,,,,,,,,,,,,,,,,GNT74G,train_x,blue_star,bottom_left,2025-09-30_17h20.07.928,HideSeek_v1,2022.2.5,59.9740072628238,
,3,0,8,0,5,0,11,,train_dim1_1,25,30,,,,2,0,2,0,,,,,,,,,0,0,0,0,0,24,24,24,0,0,0,0,,,,,,,,,,,,,,,,,,,,,,,,,stimuli/alien_stimuli/11.png,,,,,,,,,,,,,,,,,,,,,,,,,,,,,stimuli/alien_stimuli/51.png,51,4,26,,,,,,,30,,,,,,,,2546.860787499987,2546.860787499987,2546.860787499987,2546.860787499987,2546.860787499987,right,16.8532538000145,6,0,0,99,0.16,-0.4,right,16.747311700019054,,,,,2545.2807349999784,2546.860787499987,0.24,-0.08,0.0,0.08,-0.08,0.24,0.2,0.24,-0.08,2542.7748558999738,2542.7748558999738,2542.7748558999738,2542.7748558999738,2542.7748558999738,2542.7748558999738,2542.7748558999738,2542.7748558999738,2542.7622898400177,2.6209261000039987,return,2.4848917999770492,,,,,,,,,,,,,,,,,,,,,,,,,,,,,,,,,GNT74G,train_x,blue_star,bottom_left,2025-09-30_17h20.07.928,HideSeek_v1,2022.2.5,59.9740072628238,
,3,0,8,0,5,0,11,,train_dim1_1,25,30,,,,2,0,2,0,,,,,,,,,0,0,0,0,0,24,24,24,1,0,1,0,,,,,,,,,,,,,,,,,,,,,,,,,,,,,,,,,,,,,,,,,,,,,,,,,,,,,,,,,,,,,,,,30,,,,,,,,2563.705146699969,2563.705146699969,2563.705146699969,2563.705146699969,2563.705146699969,right,0.2311854000436142,6,0,0,99,0.24,-0.4,right,0.1371993999928236,,,,,,,,,,,,,,,,,,,,,,,,,,,,,,,,,,,,,,,,,,,,,,,,,,,,,,,,,,,,GNT74G,train_x,blue_star,bottom_left,2025-09-30_17h20.07.928,HideSeek_v1,2022.2.5,59.9740072628238,
,3,0,8,0,5,0,11,,train_dim1_1,25,30,,,,2,0,2,0,,,,,,,,,0,0,0,0,0,24,24,24,2,0,2,0,,,,,,,,,,,,,,,,,,,,,,,,,,,,,,,,,,,,,,,,,,,,,,,,,,,,,,,,,,,,,,,,30,,,,,,,,2563.9431632999913,2563.9431632999913,2563.9431632999913,2563.9431632999913,2563.9431632999913,right,0.23214279999956489,6,0,0,99,0.32,-0.4,right,0.15060150000499561,,,,,,,,,,,,,,,,,,,,,,,,,,,,,,,,,,,,,,,,,,,,,,,,,,,,,,,,,,,,GNT74G,train_x,blue_star,bottom_left,2025-09-30_17h20.07.928,HideSeek_v1,2022.2.5,59.9740072628238,
,3,0,8,0,5,0,11,,train_dim1_1,25,30,,,,2,0,2,0,,,,,,,,,0,0,0,0,0,24,24,24,3,0,3,0,,,,,,,,,,,,,,,,,,,,,,,,,,,,,,,,,,,,,,,,,,,,,,,,,,,,,,,,,,,,,,,,30,,,,,,,,2564.1862305999966,2564.1862305999966,2564.1862305999966,2564.1862305999966,2564.1862305999966,right,0.27340349997393787,6,0,0,99,0.4,-0.4,right,0.17785719997482374,,,,,,,,,,,,,,,,,,,,,,,,,,,,,,,,,,,,,,,,,,,,,,,,,,,,,,,,,,,,GNT74G,train_x,blue_star,bottom_left,2025-09-30_17h20.07.928,HideSeek_v1,2022.2.5,59.9740072628238,
,3,0,8,0,5,0,11,,train_dim1_1,25,30,,,,2,0,2,0,,,,,,,,,0,0,0,0,0,24,24,24,4,0,4,0,,,,,,,,,,,,,,,,,,,,,,,,,,,,,,,,,,,,,,,,,,,,,,,,,,,,,,,,,,,,,,,,30,,,,,,,,2564.4644934999524,2564.4644934999524,2564.4644934999524,2564.4644934999524,2564.4644934999524,return,0.6770241999765858,6,1,0,0,0.4,-0.4,return,0.5846079000039026,1,64,0.4,-0.4,,,,,,,,,,,,,,,,,,,,,,,,,,,,,,,,,,,,,,,,,,,,,,,,,,,,,,,,GNT74G,train_x,blue_star,bottom_left,2025-09-30_17h20.07.928,HideSeek_v1,2022.2.5,59.9740072628238,
,1,1,1,1,0,0,61,,train_dim1_1,26,30,,,,2,0,2,0,,,,,,,,,0,0,0,0,0,25,25,25,0,0,0,0,,,,,,,,,,,,,,,,,,,,,,,,,stimuli/alien_stimuli/61.png,,,,,,,,,,,,,,,,,,,,,,,,,,,,,stimuli/alien_stimuli/11.png,11,3,27,,,,,,,30,,,,,,,,2569.857964899973,2569.857964899973,2569.857964899973,2569.857964899973,2569.857964899973,return,1.806897799950093,7,0,0,1,-0.08,-0.32,return,1.6974953999742866,1,64,-0.08,-0.32,2568.2828081999905,2569.857964899973,0.48,-0.4,0.0,0.4,-0.4,0.48,0.27999999999999997,0.48,-0.4,2566.7279411999625,2566.7279411999625,2566.7279411999625,2566.7279411999625,2566.7279411999625,2566.7279411999625,2566.7279411999625,2566.7279411999625,2566.7157873599904,1.6870125000132248,return,1.5357255000271834,,,,,,,,,,,,,,,,,,,,,,,,,,,,,,,,,GNT74G,train_x,blue_star,bottom_left,2025-09-30_17h20.07.928,HideSeek_v1,2022.2.5,59.9740072628238,
,0,1,3,1,3,0,31,,train_dim1_1,27,30,,,,2,0,2,0,,,,,,,,,0,0,0,0,0,26,26,26,0,0,0,0,,,,,,,,,,,,,,,,,,,,,,,,,stimuli/alien_stimuli/31.png,,,,,,,,,,,,,,,,,,,,,,,,,,,,,stimuli/alien_stimuli/61.png,61,1,28,,,,,,,30,,,,,,,,2576.039661399962,2576.039661399962,2576.039661399962,2576.039661399962,2576.039661399962,up,2.856500199995935,7,0,0,99,-0.16,-0.24,up,2.760507399972994,,,,,2574.4713397999876,2576.039661399962,-0.08,-0.32,0.0,0.0,-0.32,-0.08,-0.08,-0.08,-0.32,2573.212892199983,2573.212892199983,2573.212892199983,2573.212892199983,2573.212892199983,2573.212892199983,2573.212892199983,2573.212892199983,2573.204731839988,1.3696858999901451,return,1.2402300999965519,,,,,,,,,,,,,,,,,,,,,,,,,,,,,,,,,GNT74G,train_x,blue_star,bottom_left,2025-09-30_17h20.07.928,HideSeek_v1,2022.2.5,59.9740072628238,
,0,1,3,1,3,0,31,,train_dim1_1,27,30,,,,2,0,2,0,,,,,,,,,0,0,0,0,0,26,26,26,1,0,1,0,,,,,,,,,,,,,,,,,,,,,,,,,,,,,,,,,,,,,,,,,,,,,,,,,,,,,,,,,,,,,,,,30,,,,,,,,2578.900048199983,2578.900048199983,2578.900048199983,2578.900048199983,2578.900048199983,right,0.6364979000063613,7,0,0,99,-0.08,-0.24,right,0.5587426999700256,,,,,,,,,,,,,,,,,,,,,,,,,,,,,,,,,,,,,,,,,,,,,,,,,,,,,,,,,,,,GNT74G,train_x,blue_star,bottom_left,2025-09-30_17h20.07.928,HideSeek_v1,2022.2.5,59.9740072628238,
,0,1,3,1,3,0,31,,train_dim1_1,27,30,,,,2,0,2,0,,,,,,,,,0,0,0,0,0,26,26,26,2,0,2,0,,,,,,,,,,,,,,,,,,,,,,,,,,,,,,,,,,,,,,,,,,,,,,,,,,,,,,,,,,,,,,,,30,,,,,,,,2579.5424995999783,2579.5424995999783,2579.5424995999783,2579.5424995999783,2579.5424995999783,right,0.3268690000404604,7,0,0,99,0.0,-0.24,right,0.2466573000419885,,,,,,,,,,,,,,,,,,,,,,,,,,,,,,,,,,,,,,,,,,,,,,,,,,,,,,,,,,,,GNT74G,train_x,blue_star,bottom_left,2025-09-30_17h20.07.928,HideSeek_v1,2022.2.5,59.9740072628238,
,0,1,3,1,3,0,31,,train_dim1_1,27,30,,,,2,0,2,0,,,,,,,,,0,0,0,0,0,26,26,26,3,0,3,0,,,,,,,,,,,,,,,,,,,,,,,,,,,,,,,,,,,,,,,,,,,,,,,,,,,,,,,,,,,,,,,,30,,,,,,,,2579.874748500006,2579.874748500006,2579.874748500006,2579.874748500006,2579.874748500006,right,0.27616509998915717,7,0,0,99,0.08,-0.24,right,0.1972966999746859,,,,,,,,,,,,,,,,,,,,,,,,,,,,,,,,,,,,,,,,,,,,,,,,,,,,,,,,,,,,GNT74G,train_x,blue_star,bottom_left,2025-09-30_17h20.07.928,HideSeek_v1,2022.2.5,59.9740072628238,
,0,1,3,1,3,0,31,,train_dim1_1,27,30,,,,2,0,2,0,,,,,,,,,0,0,0,0,0,26,26,26,4,0,4,0,,,,,,,,,,,,,,,,,,,,,,,,,,,,,,,,,,,,,,,,,,,,,,,,,,,,,,,,,,,,,,,,30,,,,,,,,2580.160209900001,2580.160209900001,2580.160209900001,2580.160209900001,2580.160209900001,right,0.32626519998302683,7,0,0,99,0.16,-0.24,right,0.2447956000105478,,,,,,,,,,,,,,,,,,,,,,,,,,,,,,,,,,,,,,,,,,,,,,,,,,,,,,,,,,,,GNT74G,train_x,blue_star,bottom_left,2025-09-30_17h20.07.928,HideSeek_v1,2022.2.5,59.9740072628238,
,0,1,3,1,3,0,31,,train_dim1_1,27,30,,,,2,0,2,0,,,,,,,,,0,0,0,0,0,26,26,26,5,0,5,0,,,,,,,,,,,,,,,,,,,,,,,,,,,,,,,,,,,,,,,,,,,,,,,,,,,,,,,,,,,,,,,,30,,,,,,,,2580.492148099991,2580.492148099991,2580.492148099991,2580.492148099991,2580.492148099991,right,0.3434000000124797,7,0,0,99,0.24,-0.24,right,0.25701940001454204,,,,,,,,,,,,,,,,,,,,,,,,,,,,,,,,,,,,,,,,,,,,,,,,,,,,,,,,,,,,GNT74G,train_x,blue_star,bottom_left,2025-09-30_17h20.07.928,HideSeek_v1,2022.2.5,59.9740072628238,
,0,1,3,1,3,0,31,,train_dim1_1,27,30,,,,2,0,2,0,,,,,,,,,0,0,0,0,0,26,26,26,6,0,6,0,,,,,,,,,,,,,,,,,,,,,,,,,,,,,,,,,,,,,,,,,,,,,,,,,,,,,,,,,,,,,,,,30,,,,,,,,2580.8418990999926,2580.8418990999926,2580.8418990999926,2580.8418990999926,2580.8418990999926,return,0.9437026000232436,7,0,0,0,0.24,-0.24,return,0.8616772000095807,2,69,0.24,-0.24,,,,,,,,,,,,,,,,,,,,,,,,,,,,,,,,,,,,,,,,,,,,,,,,,,,,,,,,GNT74G,train_x,blue_star,bottom_left,2025-09-30_17h20.07.928,HideSeek_v1,2022.2.5,59.9740072628238,
,3,1,7,1,4,0,21,,train_dim1_1,28,30,,,,2,0,2,0,,,,,,,,,0,0,0,0,0,27,27,27,0,0,0,0,,,,,,,,,,,,,,,,,,,,,,,,,stimuli/alien_stimuli/21.png,,,,,,,,,,,,,,,,,,,,,,,,,,,,,stimuli/alien_stimuli/31.png,31,0,29,,,,,,,30,,,,,,,,2587.020862699952,2587.020862699952,2587.020862699952,2587.020862699952,2587.020862699952,right,1.9910031000035815,7,0,0,99,0.16,-0.32,right,1.8806536000338383,,,,,2585.4471862000064,2587.020862699952,0.08,-0.32,0.0,0.24,-0.32,0.08,-0.04,0.08,-0.32,2583.3703575999825,2583.3703575999825,2583.3703575999825,2583.3703575999825,2583.3703575999825,2583.3703575999825,2583.3703575999825,2583.3703575999825,2583.3630318599867,2.203916099970229,return,2.0449771999847144,,,,,,,,,,,,,,,,,,,,,,,,,,,,,,,,,GNT74G,train_x,blue_star,bottom_left,2025-09-30_17h20.07.928,HideSeek_v1,2022.2.5,59.9740072628238,
,3,1,7,1,4,0,21,,train_dim1_1,28,30,,,,2,0,2,0,,,,,,,,,0,0,0,0,0,27,27,27,1,0,1,0,,,,,,,,,,,,,,,,,,,,,,,,,,,,,,,,,,,,,,,,,,,,,,,,,,,,,,,,,,,,,,,,30,,,,,,,,2589.0021355999634,2589.0021355999634,2589.0021355999634,2589.0021355999634,2589.0021355999634,right,0.22574069997062907,7,0,0,99,0.24,-0.32,right,0.1439278000034392,,,,,,,,,,,,,,,,,,,,,,,,,,,,,,,,,,,,,,,,,,,,,,,,,,,,,,,,,,,,GNT74G,train_x,blue_star,bottom_left,2025-09-30_17h20.07.928,HideSeek_v1,2022.2.5,59.9740072628238,
,3,1,7,1,4,0,21,,train_dim1_1,28,30,,,,2,0,2,0,,,,,,,,,0,0,0,0,0,27,27,27,2,0,2,0,,,,,,,,,,,,,,,,,,,,,,,,,,,,,,,,,,,,,,,,,,,,,,,,,,,,,,,,,,,,,,,,30,,,,,,,,2589.2435164999915,2589.2435164999915,2589.2435164999915,2589.2435164999915,2589.2435164999915,right,0.22687369998311624,7,0,0,99,0.32,-0.32,right,0.13910780003061518,,,,,,,,,,,,,,,,,,,,,,,,,,,,,,,,,,,,,,,,,,,,,,,,,,,,,,,,,,,,GNT74G,train_x,blue_star,bottom_left,2025-09-30_17h20.07.928,HideSeek_v1,2022.2.5,59.9740072628238,
,3,1,7,1,4,0,21,,train_dim1_1,28,30,,,,2,0,2,0,,,,,,,,,0,0,0,0,0,27,27,27,3,0,3,0,,,,,,,,,,,,,,,,,,,,,,,,,,,,,,,,,,,,,,,,,,,,,,,,,,,,,,,,,,,,,,,,30,,,,,,,,2589.4714368999703,2589.4714368999703,2589.4714368999703,2589.4714368999703,2589.4714368999703,right,0.24296130001312122,7,0,0,99,0.4,-0.32,right,0.15910079999594018,,,,,,,,,,,,,,,,,,,,,,,,,,,,,,,,,,,,,,,,,,,,,,,,,,,,,,,,,,,,GNT74G,train_x,blue_star,bottom_left,2025-09-30_17h20.07.928,HideSeek_v1,2022.2.5,59.9740072628238,
,3,1,7,1,4,0,21,,train_dim1_1,28,30,,,,2,0,2,0,,,,,,,,,0,0,0,0,0,27,27,27,4,0,4,0,,,,,,,,,,,,,,,,,,,,,,,,,,,,,,,,,,,,,,,,,,,,,,,,,,,,,,,,,,,,,,,,30,,,,,,,,2589.7204792999546,2589.7204792999546,2589.7204792999546,2589.7204792999546,2589.7204792999546,return,0.8605548000195995,8,0,0,1,0.4,-0.32,return,0.7748862999724224,2,73,0.4,-0.32,,,,,,,,,,,,,,,,,,,,,,,,,,,,,,,,,,,,,,,,,,,,,,,,,,,,,,,,GNT74G,train_x,blue_star,bottom_left,2025-09-30_17h20.07.928,HideSeek_v1,2022.2.5,59.9740072628238,
,4,0,5,0,1,0,51,,train_dim1_1,29,30,,,,2,0,2,0,,,,,,,,,0,0,0,0,0,28,28,28,0,0,0,0,,,,,,,,,,,,,,,,,,,,,,,,,stimuli/alien_stimuli/51.png,,,,,,,,,,,,,,,,,,,,,,,,,,,,,stimuli/alien_stimuli/21.png,21,3,30,,,,,,,30,,,,,,,,2595.0663979999954,2595.0663979999954,2595.0663979999954,2595.0663979999954,2595.0663979999954,right,1.7566265999921598,8,0,0,99,0.24,-0.4,right,1.6529135000309907,,,,,2593.4873136999668,2595.0663979999954,0.4,-0.32,0.0,0.32,-0.32,0.4,0.24000000000000002,0.4,-0.32,2592.145701500005,2592.145701500005,2592.145701500005,2592.145701500005,2592.145701500005,2592.145701500005,2592.145701500005,2592.145701500005,2592.136902939982,1.453503799973987,return,1.32576739997603,,,,,,,,,,,,,,,,,,,,,,,,,,,,,,,,,GNT74G,train_x,blue_star,bottom_left,2025-09-30_17h20.07.928,HideSeek_v1,2022.2.5,59.9740072628238,
,4,0,5,0,1,0,51,,train_dim1_1,29,30,,,,2,0,2,0,,,,,,,,,0,0,0,0,0,28,28,28,1,0,1,0,,,,,,,,,,,,,,,,,,,,,,,,,,,,,,,,,,,,,,,,,,,,,,,,,,,,,,,,,,,,,,,,30,,,,,,,,2596.8085613999865,2596.8085613999865,2596.8085613999865,2596.8085613999865,2596.8085613999865,return,0.2762201000005007,9,0,0,1,0.24,-0.4,return,0.1918479999876581,2,74,0.24,-0.4,,,,,,,,,,,,,,,,,,,,,,,,,,,,,,,,,,,,,,,,,,,,,,,,,,,,,,,,GNT74G,train_x,blue_star,bottom_left,2025-09-30_17h20.07.928,HideSeek_v1,2022.2.5,59.9740072628238,
,2,2,7,2,5,0,11,,train_dim1_1,30,30,,,,2,0,2,0,,,,,,,,,0,0,0,0,0,29,29,29,0,0,0,0,,,,,,,,,,,,,,,,,,,,,,,,,stimuli/alien_stimuli/11.png,,,,,,,,,,,,,,,,,,,,,,,,,,,,,stimuli/alien_stimuli/51.png,51,4,31,,,,,,,30,,,,,,,,2604.0091786999837,2604.0091786999837,2604.0091786999837,2604.0091786999837,2604.0091786999837,right,2.0242207999690436,9,0,0,99,0.08,-0.24,right,1.9364513999898918,,,,,2602.444442499953,2604.0091786999837,0.24,-0.4,0.0,0.08,-0.4,0.24,0.2,0.24,-0.4,2598.649141300004,2598.649141300004,2598.649141300004,2598.649141300004,2598.649141300004,2598.649141300004,2598.649141300004,2598.649141300004,2598.6420032399938,3.9055088000022806,return,3.7640905000152998,,,,,,,,,,,,,,,,,,,,,,,,,,,,,,,,,GNT74G,train_x,blue_star,bottom_left,2025-09-30_17h20.07.928,HideSeek_v1,2022.2.5,59.9740072628238,
,2,2,7,2,5,0,11,,train_dim1_1,30,30,,,,2,0,2,0,,,,,,,,,0,0,0,0,0,29,29,29,1,0,1,0,,,,,,,,,,,,,,,,,,,,,,,,,,,,,,,,,,,,,,,,,,,,,,,,,,,,,,,,,,,,,,,,30,,,,,,,,2606.0375951000024,2606.0375951000024,2606.0375951000024,2606.0375951000024,2606.0375951000024,right,0.2079665000201203,9,0,0,99,0.16,-0.24,right,0.11851090000709519,,,,,,,,,,,,,,,,,,,,,,,,,,,,,,,,,,,,,,,,,,,,,,,,,,,,,,,,,,,,GNT74G,train_x,blue_star,bottom_left,2025-09-30_17h20.07.928,HideSeek_v1,2022.2.5,59.9740072628238,
,2,2,7,2,5,0,11,,train_dim1_1,30,30,,,,2,0,2,0,,,,,,,,,0,0,0,0,0,29,29,29,2,0,2,0,,,,,,,,,,,,,,,,,,,,,,,,,,,,,,,,,,,,,,,,,,,,,,,,,,,,,,,,,,,,,,,,30,,,,,,,,2606.2498555000057,2606.2498555000057,2606.2498555000057,2606.2498555000057,2606.2498555000057,right,0.1931697999825701,9,0,0,99,0.24,-0.24,right,0.10955459997057915,,,,,,,,,,,,,,,,,,,,,,,,,,,,,,,,,,,,,,,,,,,,,,,,,,,,,,,,,,,,GNT74G,train_x,blue_star,bottom_left,2025-09-30_17h20.07.928,HideSeek_v1,2022.2.5,59.9740072628238,
,2,2,7,2,5,0,11,,train_dim1_1,30,30,,,,2,0,2,0,,,,,,,,,0,0,0,0,0,29,29,29,3,0,3,0,,,,,,,,,,,,,,,,,,,,,,,,,,,,,,,,,,,,,,,,,,,,,,,,,,,,,,,,,,,,,,,,30,,,,,,,,2606.4518324999954,2606.4518324999954,2606.4518324999954,2606.4518324999954,2606.4518324999954,right,0.19292150001274422,9,0,0,99,0.32,-0.24,right,0.09772839996730909,,,,,,,,,,,,,,,,,,,,,,,,,,,,,,,,,,,,,,,,,,,,,,,,,,,,,,,,,,,,GNT74G,train_x,blue_star,bottom_left,2025-09-30_17h20.07.928,HideSeek_v1,2022.2.5,59.9740072628238,
,2,2,7,2,5,0,11,,train_dim1_1,30,30,,,,2,0,2,0,,,,,,,,,0,0,0,0,0,29,29,29,4,0,4,0,,,,,,,,,,,,,,,,,,,,,,,,,,,,,,,,,,,,,,,,,,,,,,,,,,,,,,,,,,,,,,,,30,,,,,,,,2606.651153899962,2606.651153899962,2606.651153899962,2606.651153899962,2606.651153899962,right,0.17662509996443987,9,0,0,99,0.4,-0.24,right,0.08245270000770688,,,,,,,,,,,,,,,,,,,,,,,,,,,,,,,,,,,,,,,,,,,,,,,,,,,,,,,,,,,,GNT74G,train_x,blue_star,bottom_left,2025-09-30_17h20.07.928,HideSeek_v1,2022.2.5,59.9740072628238,
,2,2,7,2,5,0,11,,train_dim1_1,30,30,,,,2,0,2,0,,,,,,,,,0,0,0,0,0,29,29,29,5,0,5,0,,,,,,,,,,,,,,,,,,,,,,,,,,,,,,,,,,,,,,,,,,,,,,,,,,,,,,,,,,,,,,,,30,,,,,,,,2606.836046099954,2606.836046099954,2606.836046099954,2606.836046099954,2606.836046099954,return,0.75938809994841,10,0,0,1,0.4,-0.24,return,0.6657882999861613,2,79,0.4,-0.24,,,,,,,,,,,,,,,,,,,,,,,,,,,,,,,,,,,,,,,,,,,,,,,,,,,,,,,,GNT74G,train_x,blue_star,bottom_left,2025-09-30_17h20.07.928,HideSeek_v1,2022.2.5,59.9740072628238,
,,,,,,,,,,,30,,,,2,0,2,0,,,,,,,,,,,,,,,,,,,,,,,,,,,,,,,,,,,,,,,,,,,,,,,,,,,,,,,,,,,,,,,,,,,,,,,,,,stimuli/alien_stimuli/11.png,11,2,32,21,0.7,0.41666666666666674,1,1,1,30,0,conditions/schedules/train_x_first/blue_star_00/bottom_left/inputTrain_2.1.xlsx,99,1,2,1,0,,,,,,,,,,,1,,,,,,,,,2611.068690699991,2612.6280866999878,0.4,-0.24,0.0,0.4,-0.24,0.4,0.2,0.4,-0.24,2609.191095999966,2609.191095999966,2609.191095999966,2609.191095999966,2609.191095999966,2609.191095999966,2609.191095999966,2609.191095999966,2609.18471327998,2.0203433000133373,return,1.8543744999915361,0,0.9,0,1,10,,,,,,,,,,,,,,,,,,,,,,,,,,,,GNT74G,train_x,blue_star,bottom_left,2025-09-30_17h20.07.928,HideSeek_v1,2022.2.5,59.9740072628238,
