trialInstr,x_fixStart,y_fixStart,x_corrSteps,y_corrSteps,x_nrSteps,y_nrSteps,alienID,trialLength,version,trialTrain,praclen,testlen,trial_label,break_on_off,beforeExpLoop.thisRepN,beforeExpLoop.thisTrialN,beforeExpLoop.thisN,beforeExpLoop.thisIndex,mini_instr_trials.thisRepN,mini_instr_trials.thisTrialN,mini_instr_trials.thisN,mini_instr_trials.thisIndex,instrLoop.thisRepN,instrLoop.thisTrialN,instrLoop.thisN,instrLoop.thisIndex,repeat_prac.thisRepN,repeat_prac.thisTrialN,repeat_prac.thisN,repeat_prac.thisIndex,trainLoop.thisRepN,trainLoop.thisTrialN,trainLoop.thisN,trainLoop.thisIndex,moveLoop_train.thisRepN,moveLoop_train.thisTrialN,moveLoop_train.thisN,moveLoop_train.thisIndex,experiment.thisRepN,experiment.thisTrialN,experiment.thisN,experiment.thisIndex,moveLoop_test.thisRepN,moveLoop_test.thisTrialN,moveLoop_test.thisN,moveLoop_test.thisIndex,mini_instr2_trials.thisRepN,mini_instr2_trials.thisTrialN,mini_instr2_trials.thisN,mini_instr2_trials.thisIndex,start_all_time,url,slideStim,audioStim,slides.started,sounds.started,nextButton.numClicks,nextButton.timesOn,nextButton.timesOff,prev_but.numClicks,prev_but.timesOn,prev_but.timesOff,alienStim,instrFile,alienStim_instr,gridImage_instr.started,startPos_3.started,key_instr.started,alienImage_3.started,sounds_1.started,key_instr.keys,key_instr.rt,all_x,all_y,FBy_corrSteps,FBy_fixStart,FBx_corrSteps,FBx_fixStart,FBy_pathSize_check,FBx_pathSize_check,gridImage_9.started,alienImageFB_3.started,startPosFB_3.started,keyFB_3.started,pathLine_ydir_2.started,pathLine_xdir_2.started,alienFace_3.started,sounds_2.started,RTFB_instr,keyFB_3.keys,keyFB_3.rt,draw_alienStim,draw_alienID,test_x,nrepcount,perfthres,percthres,earlierperf,earlystop,nextPrac,fileidx,praclen,saveACC_train,pracFile,nextPrac_train,addNrep,fileidx_endr,repExp,showearly,gridImage_4.started,startPos.started,movePos.started,key_resp.started,alienImage.started,buttonPress_train,RTchoice_train,cumAcctrain,aCorr,saveACC_choice,corrAns,x_movePos_end,y_movePos_end,key_resp.keys,key_resp.rt,wLy_dir,wLx_dir,x_movePos,y_movePos,text_2.started,text_2.stopped,aft_x_corrPos,aft_y_corrPos,y_pathSize_check,x_pathSize_check,y_pathdirY,x_pathdirY,x_pathdirX,x_corrPos,y_corrPos,gridImage_6.started,alienImageFB_2.started,startPosFB_2.started,movePosFB_2.started,keyFB_2.started,pathLine_xdir.started,pathLine_ydir.started,alienFace.started,sounds_4.started,RT_FBtrain,keyFB_2.keys,keyFB_2.rt,saveACC_pre,ACC,within_saveACC_train,earlystop_wloop,cumAcctrain_check,gridImage_3.started,alienImage_test.started,startPos_test.started,movePos_test.started,key_resp_test.started,wLy_dir_test,wLx_dir_test,buttonPress_test,RTchoice_test,cumAcctest,corrAns_test,key_resp_test.keys,key_resp_test.rt,text_3.started,text_3.stopped,total_time,end_all_time,key_resp_3.keys,slides_2.started,sounds_3.started,nextButton_2.numClicks,nextButton_2.timesOn,nextButton_2.timesOff,prev_but_2.numClicks,prev_but_2.timesOn,prev_but_2.timesOff,bye.started,participant,train_first,00_coordinate,starting corner,date,expName,psychopyVersion,frameRate,
,,,,,,,,,,,,,,,0,0,0,0,0,0,0,0,,,,,,,,,,,,,,,,,,,,,,,,,,,,,start_all_time,testround,conditions/schedules/train_x_first/red_square_00/top_right/instructions/Slide1.png,conditions/schedules/train_x_first/red_square_00/top_right/instructions/Audio1.wav,1622.7802226000058,1622.7223177596288,1,[4.461722299980465],[4.461732199997641],0,,,,,,,,,,,,,,,,,,,,,,,,,,,,,,,,,,,,,,,,,,,,,,,,,,,,,,,,,,,,,,,,,,,,,,,,,,,,,,,,,,,,,,,,,,,,,,,,,,,,,,,,,,,,,,,,,,,,,,,,,,,,GR39LD,train_x,red_square,top_right,2025-07-11_17h40.03.199,HideSeek_v1,2022.2.5,59.8965586365434,
,,,,,,,,,,,,,,,0,0,0,0,1,0,1,0,,,,,,,,,,,,,,,,,,,,,,,,,,,,,,,conditions/schedules/train_x_first/red_square_00/top_right/instructions/Slide2.png,conditions/schedules/train_x_first/red_square_00/top_right/instructions/Audio2.wav,1627.2568066999956,1627.2589298499952,2,"[4.461722299980465, 19.014725900022313]","[4.461732199997641, 19.014732900017407]",0,,,,,,,,,,,,,,,,,,,,,,,,,,,,,,,,,,,,,,,,,,,,,,,,,,,,,,,,,,,,,,,,,,,,,,,,,,,,,,,,,,,,,,,,,,,,,,,,,,,,,,,,,,,,,,,,,,,,,,,,,,,,GR39LD,train_x,red_square,top_right,2025-07-11_17h40.03.199,HideSeek_v1,2022.2.5,59.8965586365434,
,,,,,,,,,,,,,,,0,0,0,0,2,0,2,0,,,,,,,,,,,,,,,,,,,,,,,,,,,,,,,conditions/schedules/train_x_first/red_square_00/top_right/instructions/Slide3.png,conditions/schedules/train_x_first/red_square_00/top_right/instructions/Audio3.wav,1646.3399241000006,1646.3403341499943,3,"[4.461722299980465, 19.014725900022313, 16.946069999976316]","[4.461732199997641, 0.03176149999490008, 16.94607679999899]",0,,,,,,,,,,,,,,,,,,,,,,,,,,,,,,,,,,,,,,,,,,,,,,,,,,,,,,,,,,,,,,,,,,,,,,,,,,,,,,,,,,,,,,,,,,,,,,,,,,,,,,,,,,,,,,,,,,,,,,,,,,,,GR39LD,train_x,red_square,top_right,2025-07-11_17h40.03.199,HideSeek_v1,2022.2.5,59.8965586365434,
,,,,,,,,,,,,,,,0,0,0,0,3,0,3,0,,,,,,,,,,,,,,,,,,,,,,,,,,,,,,,conditions/schedules/train_x_first/red_square_00/top_right/instructions/Slide4.png,conditions/schedules/train_x_first/red_square_00/top_right/instructions/Audio4.wav,1663.367826600006,1663.354861350017,4,"[4.461722299980465, 19.014725900022313, 16.946069999976316, 18.98623830001452]","[4.461732199997641, 0.03176149999490008, 0.014548500010278076, 18.986246000014944]",0,,,,,,,,,,,,,,,,,,,,,,,,,,,,,,,,,,,,,,,,,,,,,,,,,,,,,,,,,,,,,,,,,,,,,,,,,,,,,,,,,,,,,,,,,,,,,,,,,,,,,,,,,,,,,,,,,,,,,,,,,,,,GR39LD,train_x,red_square,top_right,2025-07-11_17h40.03.199,HideSeek_v1,2022.2.5,59.8965586365434,
,,,,,,,,,,,,,,,0,0,0,0,4,0,4,0,,,,,,,,,,,,,,,,,,,,,,,,,,,,,,,conditions/schedules/train_x_first/red_square_00/top_right/instructions/Slide5.png,conditions/schedules/train_x_first/red_square_00/top_right/instructions/Audio5.wav,1682.4201151000161,1682.4206687499973,5,"[4.461722299980465, 19.014725900022313, 16.946069999976316, 18.98623830001452, 4.085214299993822]","[4.461732199997641, 0.03176149999490008, 0.014548500010278076, 0.014224499987903982, 4.085221000015736]",0,,,,,,,,,,,,,,,,,,,,,,,,,,,,,,,,,,,,,,,,,,,,,,,,,,,,,,,,,,,,,,,,,,,,,,,,,,,,,,,,,,,,,,,,,,,,,,,,,,,,,,,,,,,,,,,,,,,,,,,,,,,,GR39LD,train_x,red_square,top_right,2025-07-11_17h40.03.199,HideSeek_v1,2022.2.5,59.8965586365434,
,,,,,,,,,,,,,,,0,0,0,0,5,0,5,0,,,,,,,,,,,,,,,,,,,,,,,,,,,,,,,conditions/schedules/train_x_first/red_square_00/top_right/instructions/Slide6.png,conditions/schedules/train_x_first/red_square_00/top_right/instructions/Audio6.wav,1686.5562061000091,1686.5576197199932,6,"[4.461722299980465, 19.014725900022313, 16.946069999976316, 18.98623830001452, 4.085214299993822, 5.236439799977234]","[4.461732199997641, 0.03176149999490008, 0.014548500010278076, 0.014224499987903982, 0.03239939999184571, 5.236446599999908]",0,,,,,,,,,,,,,,,,,,,,,,,,,,,,,,,,,,,,,,,,,,,,,,,,,,,,,,,,,,,,,,,,,,,,,,,,,,,,,,,,,,,,,,,,,,,,,,,,,,,,,,,,,,,,,,,,,,,,,,,,,,,,GR39LD,train_x,red_square,top_right,2025-07-11_17h40.03.199,HideSeek_v1,2022.2.5,59.8965586365434,
,,,,,,,,,,,,,,,0,0,0,0,6,0,6,0,,,,,,,,,,,,,,,,,,,,,,,,,,,,,,,conditions/schedules/train_x_first/red_square_00/top_right/instructions/Slide7.png,conditions/schedules/train_x_first/red_square_00/top_right/instructions/Audio7.wav,1691.843671300012,1691.8451076199942,7,"[4.461722299980465, 19.014725900022313, 16.946069999976316, 18.98623830001452, 4.085214299993822, 5.236439799977234, 5.203529800026445]","[4.461732199997641, 0.03176149999490008, 0.014548500010278076, 0.014224499987903982, 0.03239939999184571, 0.049053700000513345, 5.2035359000146855]",0,,,,,,,,,,,,,,,,,,,,,,,,,,,,,,,,,,,,,,,,,,,,,,,,,,,,,,,,,,,,,,,,,,,,,,,,,,,,,,,,,,,,,,,,,,,,,,,,,,,,,,,,,,,,,,,,,,,,,,,,,,,,GR39LD,train_x,red_square,top_right,2025-07-11_17h40.03.199,HideSeek_v1,2022.2.5,59.8965586365434,
,,,,,,,,,,,,,,,0,0,0,0,7,0,7,0,,,,,,,,,,,,,,,,,,,,,,,,,,,,,,,conditions/schedules/train_x_first/red_square_00/top_right/instructions/Slide8.png,conditions/schedules/train_x_first/red_square_00/top_right/instructions/Audio8.wav,1697.12047720002,1697.116408649992,8,"[4.461722299980465, 19.014725900022313, 16.946069999976316, 18.98623830001452, 4.085214299993822, 5.236439799977234, 5.203529800026445, 11.603383399982704]","[4.461732199997641, 0.03176149999490008, 0.014548500010278076, 0.014224499987903982, 0.03239939999184571, 0.049053700000513345, 0.014488399989204481, 11.603390099975513]",0,,,,,,,,,,,,,,,,,,,,,,,,,,,,,,,,,,,,,,,,,,,,,,,,,,,,,,,,,,,,,,,,,,,,,,,,,,,,,,,,,,,,,,,,,,,,,,,,,,,,,,,,,,,,,,,,,,,,,,,,,,,,GR39LD,train_x,red_square,top_right,2025-07-11_17h40.03.199,HideSeek_v1,2022.2.5,59.8965586365434,
,,,,,,,,,,,,,,,0,0,0,0,8,0,8,0,,,,,,,,,,,,,,,,,,,,,,,,,,,,,,,conditions/schedules/train_x_first/red_square_00/top_right/instructions/Slide9.png,conditions/schedules/train_x_first/red_square_00/top_right/instructions/Audio9.wav,1708.7956434000225,1708.792642750006,9,"[4.461722299980465, 19.014725900022313, 16.946069999976316, 18.98623830001452, 4.085214299993822, 5.236439799977234, 5.203529800026445, 11.603383399982704, 5.532255199999781]","[4.461732199997641, 0.03176149999490008, 0.014548500010278076, 0.014224499987903982, 0.03239939999184571, 0.049053700000513345, 0.014488399989204481, 0.03068239998538047, 5.532262699998682]",0,,,,,,,,,,,,,,,,,,,,,,,,,,,,,,,,,,,,,,,,,,,,,,,,,,,,,,,,,,,,,,,,,,,,,,,,,,,,,,,,,,,,,,,,,,,,,,,,,,,,,,,,,,,,,,,,,,,,,,,,,,,,GR39LD,train_x,red_square,top_right,2025-07-11_17h40.03.199,HideSeek_v1,2022.2.5,59.8965586365434,
,,,,,,,,,,,,,,,0,0,0,0,9,0,9,0,,,,,,,,,,,,,,,,,,,,,,,,,,,,,,,conditions/schedules/train_x_first/red_square_00/top_right/instructions/Slide10.png,conditions/schedules/train_x_first/red_square_00/top_right/instructions/Audio10.wav,1714.3666013000184,1714.3640012900025,10,"[4.461722299980465, 19.014725900022313, 16.946069999976316, 18.98623830001452, 4.085214299993822, 5.236439799977234, 5.203529800026445, 11.603383399982704, 5.532255199999781, 6.6669956000114325]","[4.461732199997641, 0.03176149999490008, 0.014548500010278076, 0.014224499987903982, 0.03239939999184571, 0.049053700000513345, 0.014488399989204481, 0.03068239998538047, 0.04663210001308471, 6.667002500005765]",0,,,,,,,,,,,,,,,,,,,,,,,,,,,,,,,,,,,,,,,,,,,,,,,,,,,,,,,,,,,,,,,,,,,,,,,,,,,,,,,,,,,,,,,,,,,,,,,,,,,,,,,,,,,,,,,,,,,,,,,,,,,,GR39LD,train_x,red_square,top_right,2025-07-11_17h40.03.199,HideSeek_v1,2022.2.5,59.8965586365434,
,,,,,,,,,,,,,,,0,0,0,0,10,0,10,0,,,,,,,,,,,,,,,,,,,,,,,,,,,,,,,conditions/schedules/train_x_first/red_square_00/top_right/instructions/Slide11.png,conditions/schedules/train_x_first/red_square_00/top_right/instructions/Audio11.wav,1721.107411200006,1721.1028141499992,11,"[4.461722299980465, 19.014725900022313, 16.946069999976316, 18.98623830001452, 4.085214299993822, 5.236439799977234, 5.203529800026445, 11.603383399982704, 5.532255199999781, 6.6669956000114325, 9.267991400003666]","[4.461732199997641, 0.03176149999490008, 0.014548500010278076, 0.014224499987903982, 0.03239939999184571, 0.049053700000513345, 0.014488399989204481, 0.03068239998538047, 0.04663210001308471, 0.03116579999914393, 9.267999000003329]",0,,,,,,,,,,,,,,,,,,,,,,,,,,,,,,,,,,,,,,,,,,,,,,,,,,,,,,,,,,,,,,,,,,,,,,,,,,,,,,,,,,,,,,,,,,,,,,,,,,,,,,,,,,,,,,,,,,,,,,,,,,,,GR39LD,train_x,red_square,top_right,2025-07-11_17h40.03.199,HideSeek_v1,2022.2.5,59.8965586365434,
,,,,,,,,,,,,,,,0,0,0,0,11,0,11,0,,,,,,,,,,,,,,,,,,,,,,,,,,,,,,,conditions/schedules/train_x_first/red_square_00/top_right/instructions/Slide12.png,conditions/schedules/train_x_first/red_square_00/top_right/instructions/Audio12.wav,1730.429055900022,1730.4271617199936,12,"[4.461722299980465, 19.014725900022313, 16.946069999976316, 18.98623830001452, 4.085214299993822, 5.236439799977234, 5.203529800026445, 11.603383399982704, 5.532255199999781, 6.6669956000114325, 9.267991400003666, 12.3396955000062]","[4.461732199997641, 0.03176149999490008, 0.014548500010278076, 0.014224499987903982, 0.03239939999184571, 0.049053700000513345, 0.014488399989204481, 0.03068239998538047, 0.04663210001308471, 0.03116579999914393, 0.06352930000866763, 12.33970360000967]",0,,,,,,,,,,,,,,,,,,,,,,,,,,,,,,,,,,,,,,,,,,,,,,,,,,,,,,,,,,,,,,,,,,,,,,,,,,,,,,,,,,,,,,,,,,,,,,,,,,,,,,,,,,,,,,,,,,,,,,,,,,,,GR39LD,train_x,red_square,top_right,2025-07-11_17h40.03.199,HideSeek_v1,2022.2.5,59.8965586365434,
1,8,7,3,7,-5,0,66,2,instr_dim1_1,,,,,,0,0,0,0,,,,,0,0,0,0,,,,,,,,,,,,,,,,,,,,,,,,,,,,,,,,,,,,,stimuli/alien_stimuli/66.png,conditions/schedules/train_x_first/red_square_00/top_right/inputInstr_1.xlsx,stimuli/alien_stimuli/66.png,1742.8682808000012,1742.8682808000012,1742.8682808000012,1742.8682808000012,1742.854364580015,return,11.446151299984194,"[-0.16, -0.08, 0, 0.08, 0.16, 0.24, 0.32, 0.4, 0.48, 0.56]","[-0.4, -0.32, -0.24, -0.16, -0.08, 0, 0.08, 0.16, 0.24, 0.32]",7,7,3,8,0.0,0.4,1754.4799429000122,1754.4799429000122,1754.4799429000122,1754.4799429000122,1754.4799429000122,1754.4799429000122,1754.4799429000122,1754.4639374400024,10.042627300019376,return,9.884082099975785,stimuli/alien_stimuli/66.png,66,8,1,,,,,,,,,,,,,,,,,,,,,,,,,,,,,,,,,,,,,,,,,,,,,,,,,,,,,,,,,,,,,,,,,,,,,,,,,,,,,,,,,,,,,,,,,GR39LD,train_x,red_square,top_right,2025-07-11_17h40.03.199,HideSeek_v1,2022.2.5,59.8965586365434,
,,,,,,,,,,,30,,,,0,0,0,0,,,,,,,,,,,,,,,,,,,,,,,,,,,,,,,,,,,,,,,,,,,,,,,,,,,,,,,,,,,,,,,,,,,,,,,,,,,,,,21,0.7,0,0,99,1,30,0,conditions/schedules/train_x_first/red_square_00/top_right/inputTrain_1.1.xlsx,99,1,1,1,0,,,,,,,,,,,,,,,,,,,,,,,,,,,,,,,,,,,,,,,,,,,,,,,,,,,,,,,,,,,,,,,,,,,,,,,,,,,GR39LD,train_x,red_square,top_right,2025-07-11_17h40.03.199,HideSeek_v1,2022.2.5,59.8965586365434,
,,,,,,,,,,,,,,,1,0,1,0,0,0,0,0,,,,,,,,,,,,,,,,,,,,,,,,,,,,,,,conditions/schedules/train_x_first/red_square_00/top_right/instructions/Slide13.png,conditions/schedules/train_x_first/red_square_00/top_right/instructions/Audio13.wav,1764.5175483000057,1764.5056721400063,13,"[4.461722299980465, 19.014725900022313, 16.946069999976316, 18.98623830001452, 4.085214299993822, 5.236439799977234, 5.203529800026445, 11.603383399982704, 5.532255199999781, 6.6669956000114325, 9.267991400003666, 12.3396955000062, 17.299737099994672]","[4.461732199997641, 0.03176149999490008, 0.014548500010278076, 0.014224499987903982, 0.03239939999184571, 0.049053700000513345, 0.014488399989204481, 0.03068239998538047, 0.04663210001308471, 0.03116579999914393, 0.06352930000866763, 12.33970360000967, 17.29974369998672]",0,,,,,,,,,,,,,,,,,,,,,,,,,,,,,,,,,,,,,,,,,,,,,,,,,,,,,,,,,,,,,,,,,,,,,,,,,,,,,,,,,,,,,,,,,,,,,,,,,,,,,,,,,,,,,,,,,,,,,,,,,,,,GR39LD,train_x,red_square,top_right,2025-07-11_17h40.03.199,HideSeek_v1,2022.2.5,59.8965586365434,
,,,,,,,,,,,,,,,1,0,1,0,1,0,1,0,,,,,,,,,,,,,,,,,,,,,,,,,,,,,,,conditions/schedules/train_x_first/red_square_00/top_right/instructions/Slide14.png,conditions/schedules/train_x_first/red_square_00/top_right/instructions/Audio14.wav,1781.8873586000118,1781.8865657500137,14,"[4.461722299980465, 19.014725900022313, 16.946069999976316, 18.98623830001452, 4.085214299993822, 5.236439799977234, 5.203529800026445, 11.603383399982704, 5.532255199999781, 6.6669956000114325, 9.267991400003666, 12.3396955000062, 17.299737099994672, 13.791766800015466]","[4.461732199997641, 0.03176149999490008, 0.014548500010278076, 0.014224499987903982, 0.03239939999184571, 0.049053700000513345, 0.014488399989204481, 0.03068239998538047, 0.04663210001308471, 0.03116579999914393, 0.06352930000866763, 12.33970360000967, 17.29974369998672, 13.791773500008276]",0,,,,,,,,,,,,,,,,,,,,,,,,,,,,,,,,,,,,,,,,,,,,,,,,,,,,,,,,,,,,,,,,,,,,,,,,,,,,,,,,,,,,,,,,,,,,,,,,,,,,,,,,,,,,,,,,,,,,,,,,,,,,GR39LD,train_x,red_square,top_right,2025-07-11_17h40.03.199,HideSeek_v1,2022.2.5,59.8965586365434,
2,9,5,9,5,0,0,16,2,instr_dim1_1,,,,,,1,0,1,0,,,,,0,0,0,0,,,,,,,,,,,,,,,,,,,,,,,,,,,,,,,,,,,,,stimuli/alien_stimuli/16.png,conditions/schedules/train_x_first/red_square_00/top_right/inputInstr_1.xlsx,stimuli/alien_stimuli/16.png,1795.7877133000002,1795.7877133000002,1795.7877133000002,1795.7877133000002,1795.7818474099886,return,7.071949400007725,"[-0.16, -0.08, 0, 0.08, 0.16, 0.24, 0.32, 0.4, 0.48, 0.56]","[-0.4, -0.32, -0.24, -0.16, -0.08, 0, 0.08, 0.16, 0.24, 0.32]",5,5,9,9,0.0,0.0,1803.0252948999987,1803.0252948999987,1803.0252948999987,1803.0252948999987,1803.0252948999987,1803.0252948999987,1803.0252948999987,1803.0045283399988,9.024926499987487,return,8.868933099991409,stimuli/alien_stimuli/16.png,16,9,2,,,,,,,,,,,,,,,,,,,,,,,,,,,,,,,,,,,,,,,,,,,,,,,,,,,,,,,,,,,,,,,,,,,,,,,,,,,,,,,,,,,,,,,,,GR39LD,train_x,red_square,top_right,2025-07-11_17h40.03.199,HideSeek_v1,2022.2.5,59.8965586365434,
,,,,,,,,,,,30,,,,1,0,1,0,,,,,,,,,,,,,,,,,,,,,,,,,,,,,,,,,,,,,,,,,,,,,,,,,,,,,,,,,,,,,,,,,,,,,,,,,,,,,,21,0.7,0,0,99,1,30,0,conditions/schedules/train_x_first/red_square_00/top_right/inputTrain_1.1.xlsx,99,1,1,1,0,,,,,,,,,,,,,,,,,,,,,,,,,,,,,,,,,,,,,,,,,,,,,,,,,,,,,,,,,,,,,,,,,,,,,,,,,,,GR39LD,train_x,red_square,top_right,2025-07-11_17h40.03.199,HideSeek_v1,2022.2.5,59.8965586365434,
,,,,,,,,,,,,,,,2,0,2,0,0,0,0,0,,,,,,,,,,,,,,,,,,,,,,,,,,,,,,,conditions/schedules/train_x_first/red_square_00/top_right/instructions/Slide15.png,conditions/schedules/train_x_first/red_square_00/top_right/instructions/Audio15.wav,1812.048138400016,1812.0451498699929,15,"[4.461722299980465, 19.014725900022313, 16.946069999976316, 18.98623830001452, 4.085214299993822, 5.236439799977234, 5.203529800026445, 11.603383399982704, 5.532255199999781, 6.6669956000114325, 9.267991400003666, 12.3396955000062, 17.299737099994672, 13.791766800015466, 30.38686929998221]","[4.461732199997641, 0.03176149999490008, 0.014548500010278076, 0.014224499987903982, 0.03239939999184571, 0.049053700000513345, 0.014488399989204481, 0.03068239998538047, 0.04663210001308471, 0.03116579999914393, 0.06352930000866763, 12.33970360000967, 17.29974369998672, 13.791773500008276, 30.3868758000026]",0,,,,,,,,,,,,,,,,,,,,,,,,,,,,,,,,,,,,,,,,,,,,,,,,,,,,,,,,,,,,,,,,,,,,,,,,,,,,,,,,,,,,,,,,,,,,,,,,,,,,,,,,,,,,,,,,,,,,,,,,,,,,GR39LD,train_x,red_square,top_right,2025-07-11_17h40.03.199,HideSeek_v1,2022.2.5,59.8965586365434,
,,,,,,,,,,,,,,,2,0,2,0,1,0,1,0,,,,,,,,,,,,,,,,,,,,,,,,,,,,,,,conditions/schedules/train_x_first/red_square_00/top_right/instructions/Slide16.png,conditions/schedules/train_x_first/red_square_00/top_right/instructions/Audio16.wav,1842.4965989000048,1842.4873495199952,16,"[4.461722299980465, 19.014725900022313, 16.946069999976316, 18.98623830001452, 4.085214299993822, 5.236439799977234, 5.203529800026445, 11.603383399982704, 5.532255199999781, 6.6669956000114325, 9.267991400003666, 12.3396955000062, 17.299737099994672, 13.791766800015466, 30.38686929998221, 21.222139399993466]","[4.461732199997641, 0.03176149999490008, 0.014548500010278076, 0.014224499987903982, 0.03239939999184571, 0.049053700000513345, 0.014488399989204481, 0.03068239998538047, 0.04663210001308471, 0.03116579999914393, 0.06352930000866763, 12.33970360000967, 17.29974369998672, 13.791773500008276, 0.013994299981277436, 21.222145499981707]",0,,,,,,,,,,,,,,,,,,,,,,,,,,,,,,,,,,,,,,,,,,,,,,,,,,,,,,,,,,,,,,,,,,,,,,,,,,,,,,,,,,,,,,,,,,,,,,,,,,,,,,,,,,,,,,,,,,,,,,,,,,,,GR39LD,train_x,red_square,top_right,2025-07-11_17h40.03.199,HideSeek_v1,2022.2.5,59.8965586365434,
,7,6,4,6,-3,0,46,,train_dim1_1,1,30,,,,2,0,2,0,,,,,,,,,0,0,0,0,0,0,0,0,0,0,0,0,,,,,,,,,,,,,,,,,,,,,,,,,stimuli/alien_stimuli/46.png,,,,,,,,,,,,,,,,,,,,,,,,,,,,,,,,,,,,,,,30,,,,,,,,1863.819216200005,1863.819216200005,1863.819216200005,1863.819216200005,1863.819216200005,down,6.483476900000824,0,0,0,99,0.4,0.0,down,6.386648799991235,,,,,,,,,,,,,,,,,,,,,,,,,,,,,,,,,,,,,,,,,,,,,,,,,,,,,,,,,,,,GR39LD,train_x,red_square,top_right,2025-07-11_17h40.03.199,HideSeek_v1,2022.2.5,59.8965586365434,
,7,6,4,6,-3,0,46,,train_dim1_1,1,30,,,,2,0,2,0,,,,,,,,,0,0,0,0,0,0,0,0,1,0,1,0,,,,,,,,,,,,,,,,,,,,,,,,,,,,,,,,,,,,,,,,,,,,,,,,,,,,,,,,,,,,,,,,30,,,,,,,,1870.2912275000126,1870.2912275000126,1870.2912275000126,1870.2912275000126,1870.2912275000126,down,0.910296499991091,0,0,0,99,0.4,-0.08,down,0.8217844000027981,,,,,,,,,,,,,,,,,,,,,,,,,,,,,,,,,,,,,,,,,,,,,,,,,,,,,,,,,,,,GR39LD,train_x,red_square,top_right,2025-07-11_17h40.03.199,HideSeek_v1,2022.2.5,59.8965586365434,
,7,6,4,6,-3,0,46,,train_dim1_1,1,30,,,,2,0,2,0,,,,,,,,,0,0,0,0,0,0,0,0,2,0,2,0,,,,,,,,,,,,,,,,,,,,,,,,,,,,,,,,,,,,,,,,,,,,,,,,,,,,,,,,,,,,,,,,30,,,,,,,,1871.2083884000021,1871.2083884000021,1871.2083884000021,1871.2083884000021,1871.2083884000021,down,1.4274773999932222,0,0,0,99,0.4,-0.16,down,1.3506388000096194,,,,,,,,,,,,,,,,,,,,,,,,,,,,,,,,,,,,,,,,,,,,,,,,,,,,,,,,,,,,GR39LD,train_x,red_square,top_right,2025-07-11_17h40.03.199,HideSeek_v1,2022.2.5,59.8965586365434,
,7,6,4,6,-3,0,46,,train_dim1_1,1,30,,,,2,0,2,0,,,,,,,,,0,0,0,0,0,0,0,0,3,0,3,0,,,,,,,,,,,,,,,,,,,,,,,,,,,,,,,,,,,,,,,,,,,,,,,,,,,,,,,,,,,,,,,,30,,,,,,,,1872.6428398000135,1872.6428398000135,1872.6428398000135,1872.6428398000135,1872.6428398000135,return,1.1107334999833256,0,0,0,0,0.4,-0.16,return,1.0264200999808963,-3,0,0.4,-0.16,,,,,,,,,,,,,,,,,,,,,,,,,,,,,,,,,,,,,,,,,,,,,,,,,,,,,,,,GR39LD,train_x,red_square,top_right,2025-07-11_17h40.03.199,HideSeek_v1,2022.2.5,59.8965586365434,
,7,9,7,9,0,0,16,,train_dim1_1,2,30,,,,2,0,2,0,,,,,,,,,0,0,0,0,0,1,1,1,0,0,0,0,,,,,,,,,,,,,,,,,,,,,,,,,stimuli/alien_stimuli/16.png,,,,,,,,,,,,,,,,,,,,,,,,,,,,,stimuli/alien_stimuli/46.png,46,7,3,,,,,,,30,,,,,,,,1889.5405892000126,1889.5405892000126,1889.5405892000126,1889.5405892000126,1889.5405892000126,return,19.42101520000142,1,0,0,1,0.4,0.32,return,19.313482300000032,-3,0,0.4,0.32,1887.9587975000031,1889.5405892000126,0.16,0.08,0.0,0.24,0.08,0.16,0.28,0.16,0.08,1875.3257108000107,1875.3257108000107,1875.3257108000107,1875.3257108000107,1875.3257108000107,1875.3257108000107,1875.3257108000107,1875.3257108000107,1875.3143956100075,12.746729299979052,return,12.602170400001341,,,,,,,,,,,,,,,,,,,,,,,,,,,,,,,,,GR39LD,train_x,red_square,top_right,2025-07-11_17h40.03.199,HideSeek_v1,2022.2.5,59.8965586365434,
,9,9,8,9,-1,0,26,,train_dim1_1,3,30,,,,2,0,2,0,,,,,,,,,0,0,0,0,0,2,2,2,0,0,0,0,,,,,,,,,,,,,,,,,,,,,,,,,stimuli/alien_stimuli/26.png,,,,,,,,,,,,,,,,,,,,,,,,,,,,,stimuli/alien_stimuli/16.png,16,7,4,,,,,,,30,,,,,,,,1935.7854584000015,1935.7854584000015,1935.7854584000015,1935.7854584000015,1935.7854584000015,left,4.676139199989848,1,0,0,99,0.48000000000000004,0.32,left,4.570447799982503,,,,,1934.2135598000023,1935.7854584000015,0.4,0.32,0.0,0.0,0.32,0.4,0.4,0.4,0.32,1910.5392103000195,1910.5392103000195,1910.5392103000195,1910.5392103000195,1910.5392103000195,1910.5392103000195,1910.5392103000195,1910.5392103000195,1910.5271515699949,23.82216910002171,return,23.654032699996606,,,,,,,,,,,,,,,,,,,,,,,,,,,,,,,,,GR39LD,train_x,red_square,top_right,2025-07-11_17h40.03.199,HideSeek_v1,2022.2.5,59.8965586365434,
,9,9,8,9,-1,0,26,,train_dim1_1,3,30,,,,2,0,2,0,,,,,,,,,0,0,0,0,0,2,2,2,1,0,1,0,,,,,,,,,,,,,,,,,,,,,,,,,,,,,,,,,,,,,,,,,,,,,,,,,,,,,,,,,,,,,,,,30,,,,,,,,1940.4543265000102,1940.4543265000102,1940.4543265000102,1940.4543265000102,1940.4543265000102,left,0.6931764000037219,1,0,0,99,0.4,0.32,left,0.6046307000215165,,,,,,,,,,,,,,,,,,,,,,,,,,,,,,,,,,,,,,,,,,,,,,,,,,,,,,,,,,,,GR39LD,train_x,red_square,top_right,2025-07-11_17h40.03.199,HideSeek_v1,2022.2.5,59.8965586365434,
,9,9,8,9,-1,0,26,,train_dim1_1,3,30,,,,2,0,2,0,,,,,,,,,0,0,0,0,0,2,2,2,2,0,2,0,,,,,,,,,,,,,,,,,,,,,,,,,,,,,,,,,,,,,,,,,,,,,,,,,,,,,,,,,,,,,,,,30,,,,,,,,1941.1542547999998,1941.1542547999998,1941.1542547999998,1941.1542547999998,1941.1542547999998,down,0.6766723000037018,1,0,0,99,0.4,0.24,down,0.5935385999910068,,,,,,,,,,,,,,,,,,,,,,,,,,,,,,,,,,,,,,,,,,,,,,,,,,,,,,,,,,,,GR39LD,train_x,red_square,top_right,2025-07-11_17h40.03.199,HideSeek_v1,2022.2.5,59.8965586365434,
,9,9,8,9,-1,0,26,,train_dim1_1,3,30,,,,2,0,2,0,,,,,,,,,0,0,0,0,0,2,2,2,3,0,3,0,,,,,,,,,,,,,,,,,,,,,,,,,,,,,,,,,,,,,,,,,,,,,,,,,,,,,,,,,,,,,,,,30,,,,,,,,1941.837190100021,1941.837190100021,1941.837190100021,1941.837190100021,1941.837190100021,return,0.6768248000007588,1,0,0,0,0.4,0.24,return,0.5908647000032943,-4,-2,0.4,0.24,,,,,,,,,,,,,,,,,,,,,,,,,,,,,,,,,,,,,,,,,,,,,,,,,,,,,,,,GR39LD,train_x,red_square,top_right,2025-07-11_17h40.03.199,HideSeek_v1,2022.2.5,59.8965586365434,
,7,8,3,8,-4,0,56,,train_dim1_1,4,30,,,,2,0,2,0,,,,,,,,,0,0,0,0,0,3,3,3,0,0,0,0,,,,,,,,,,,,,,,,,,,,,,,,,stimuli/alien_stimuli/56.png,,,,,,,,,,,,,,,,,,,,,,,,,,,,,stimuli/alien_stimuli/26.png,26,9,5,,,,,,,30,,,,,,,,1961.5707694000157,1961.5707694000157,1961.5707694000157,1961.5707694000157,1961.5707694000157,left,3.692097399994964,1,0,0,99,0.32,0.24,left,3.589729500003159,,,,,1960.001626000012,1961.5707694000157,0.48,0.32,0.0,0.08,0.32,0.48,0.52,0.48,0.32,1944.0992788000149,1944.0992788000149,1944.0992788000149,1944.0992788000149,1944.0992788000149,1944.0992788000149,1944.0992788000149,1944.0992788000149,1944.0883377400053,16.032017800025642,return,15.87036229998921,,,,,,,,,,,,,,,,,,,,,,,,,,,,,,,,,GR39LD,train_x,red_square,top_right,2025-07-11_17h40.03.199,HideSeek_v1,2022.2.5,59.8965586365434,
,7,8,3,8,-4,0,56,,train_dim1_1,4,30,,,,2,0,2,0,,,,,,,,,0,0,0,0,0,3,3,3,1,0,1,0,,,,,,,,,,,,,,,,,,,,,,,,,,,,,,,,,,,,,,,,,,,,,,,,,,,,,,,,,,,,,,,,30,,,,,,,,1965.2549206000112,1965.2549206000112,1965.2549206000112,1965.2549206000112,1965.2549206000112,left,0.8934057999867946,1,0,0,99,0.24,0.24,left,0.803105200000573,,,,,,,,,,,,,,,,,,,,,,,,,,,,,,,,,,,,,,,,,,,,,,,,,,,,,,,,,,,,GR39LD,train_x,red_square,top_right,2025-07-11_17h40.03.199,HideSeek_v1,2022.2.5,59.8965586365434,
,7,8,3,8,-4,0,56,,train_dim1_1,4,30,,,,2,0,2,0,,,,,,,,,0,0,0,0,0,3,3,3,2,0,2,0,,,,,,,,,,,,,,,,,,,,,,,,,,,,,,,,,,,,,,,,,,,,,,,,,,,,,,,,,,,,,,,,30,,,,,,,,1966.1553188000107,1966.1553188000107,1966.1553188000107,1966.1553188000107,1966.1553188000107,left,0.794075799989514,1,0,0,99,0.15999999999999998,0.24,left,0.7157251999888103,,,,,,,,,,,,,,,,,,,,,,,,,,,,,,,,,,,,,,,,,,,,,,,,,,,,,,,,,,,,GR39LD,train_x,red_square,top_right,2025-07-11_17h40.03.199,HideSeek_v1,2022.2.5,59.8965586365434,
,7,8,3,8,-4,0,56,,train_dim1_1,4,30,,,,2,0,2,0,,,,,,,,,0,0,0,0,0,3,3,3,3,0,3,0,,,,,,,,,,,,,,,,,,,,,,,,,,,,,,,,,,,,,,,,,,,,,,,,,,,,,,,,,,,,,,,,30,,,,,,,,1966.9596834999975,1966.9596834999975,1966.9596834999975,1966.9596834999975,1966.9596834999975,left,0.9569531000161078,1,0,0,99,0.07999999999999997,0.24,left,0.8689449999947101,,,,,,,,,,,,,,,,,,,,,,,,,,,,,,,,,,,,,,,,,,,,,,,,,,,,,,,,,,,,GR39LD,train_x,red_square,top_right,2025-07-11_17h40.03.199,HideSeek_v1,2022.2.5,59.8965586365434,
,7,8,3,8,-4,0,56,,train_dim1_1,4,30,,,,2,0,2,0,,,,,,,,,0,0,0,0,0,3,3,3,4,0,4,0,,,,,,,,,,,,,,,,,,,,,,,,,,,,,,,,,,,,,,,,,,,,,,,,,,,,,,,,,,,,,,,,30,,,,,,,,1967.9236134999956,1967.9236134999956,1967.9236134999956,1967.9236134999956,1967.9236134999956,left,0.72725709999213,1,0,0,99,-2.7755575615628914e-17,0.24,left,0.6398590999888256,,,,,,,,,,,,,,,,,,,,,,,,,,,,,,,,,,,,,,,,,,,,,,,,,,,,,,,,,,,,GR39LD,train_x,red_square,top_right,2025-07-11_17h40.03.199,HideSeek_v1,2022.2.5,59.8965586365434,
,7,8,3,8,-4,0,56,,train_dim1_1,4,30,,,,2,0,2,0,,,,,,,,,0,0,0,0,0,3,3,3,5,0,5,0,,,,,,,,,,,,,,,,,,,,,,,,,,,,,,,,,,,,,,,,,,,,,,,,,,,,,,,,,,,,,,,,30,,,,,,,,1968.657519100001,1968.657519100001,1968.657519100001,1968.657519100001,1968.657519100001,return,8.850260699982755,1,1,0,0,-2.7755575615628914e-17,0.24,return,8.77017010000418,-4,-7,-2.7755575615628914e-17,0.24,,,,,,,,,,,,,,,,,,,,,,,,,,,,,,,,,,,,,,,,,,,,,,,,,,,,,,,,GR39LD,train_x,red_square,top_right,2025-07-11_17h40.03.199,HideSeek_v1,2022.2.5,59.8965586365434,
,5,7,0,7,-5,0,66,,train_dim1_1,5,30,,,,2,0,2,0,,,,,,,,,0,0,0,0,0,4,4,4,0,0,0,0,,,,,,,,,,,,,,,,,,,,,,,,,stimuli/alien_stimuli/66.png,,,,,,,,,,,,,,,,,,,,,,,,,,,,,stimuli/alien_stimuli/56.png,56,7,6,,,,,,,30,,,,,,,,2006.2680215,2006.2680215,2006.2680215,2006.2680215,2006.2680215,left,12.316515000013169,1,1,0,99,0.15999999999999998,0.16,left,12.201048699993407,,,,,2004.6887692000018,2006.2680215,0.08,0.24,0.0,0.32,0.24,0.08,0.24000000000000002,0.08,0.24,1979.1077278000012,1979.1077278000012,1979.1077278000012,1979.1077278000012,1979.1077278000012,1979.1077278000012,1979.1077278000012,1979.1077278000012,1979.1009218699853,25.723392300016712,return,25.552975400001742,,,,,,,,,,,,,,,,,,,,,,,,,,,,,,,,,GR39LD,train_x,red_square,top_right,2025-07-11_17h40.03.199,HideSeek_v1,2022.2.5,59.8965586365434,
,5,7,0,7,-5,0,66,,train_dim1_1,5,30,,,,2,0,2,0,,,,,,,,,0,0,0,0,0,4,4,4,1,0,1,0,,,,,,,,,,,,,,,,,,,,,,,,,,,,,,,,,,,,,,,,,,,,,,,,,,,,,,,,,,,,,,,,30,,,,,,,,2018.5844983000134,2018.5844983000134,2018.5844983000134,2018.5844983000134,2018.5844983000134,left,0.37625989998923615,1,1,0,99,0.07999999999999997,0.16,left,0.27771369999391027,,,,,,,,,,,,,,,,,,,,,,,,,,,,,,,,,,,,,,,,,,,,,,,,,,,,,,,,,,,,GR39LD,train_x,red_square,top_right,2025-07-11_17h40.03.199,HideSeek_v1,2022.2.5,59.8965586365434,
,5,7,0,7,-5,0,66,,train_dim1_1,5,30,,,,2,0,2,0,,,,,,,,,0,0,0,0,0,4,4,4,2,0,2,0,,,,,,,,,,,,,,,,,,,,,,,,,,,,,,,,,,,,,,,,,,,,,,,,,,,,,,,,,,,,,,,,30,,,,,,,,2018.9476865000033,2018.9476865000033,2018.9476865000033,2018.9476865000033,2018.9476865000033,left,0.4433308999869041,1,1,0,99,-2.7755575615628914e-17,0.16,left,0.36875580000923946,,,,,,,,,,,,,,,,,,,,,,,,,,,,,,,,,,,,,,,,,,,,,,,,,,,,,,,,,,,,GR39LD,train_x,red_square,top_right,2025-07-11_17h40.03.199,HideSeek_v1,2022.2.5,59.8965586365434,
,5,7,0,7,-5,0,66,,train_dim1_1,5,30,,,,2,0,2,0,,,,,,,,,0,0,0,0,0,4,4,4,3,0,3,0,,,,,,,,,,,,,,,,,,,,,,,,,,,,,,,,,,,,,,,,,,,,,,,,,,,,,,,,,,,,,,,,30,,,,,,,,2019.397693900013,2019.397693900013,2019.397693900013,2019.397693900013,2019.397693900013,left,0.693340600002557,1,1,0,99,-0.08000000000000003,0.16,left,0.6136190000106581,,,,,,,,,,,,,,,,,,,,,,,,,,,,,,,,,,,,,,,,,,,,,,,,,,,,,,,,,,,,GR39LD,train_x,red_square,top_right,2025-07-11_17h40.03.199,HideSeek_v1,2022.2.5,59.8965586365434,
,5,7,0,7,-5,0,66,,train_dim1_1,5,30,,,,2,0,2,0,,,,,,,,,0,0,0,0,0,4,4,4,4,0,4,0,,,,,,,,,,,,,,,,,,,,,,,,,,,,,,,,,,,,,,,,,,,,,,,,,,,,,,,,,,,,,,,,30,,,,,,,,2020.099239800009,2020.099239800009,2020.099239800009,2020.099239800009,2020.099239800009,left,0.9771470999985468,1,1,0,99,-0.16000000000000003,0.16,left,0.894832200021483,,,,,,,,,,,,,,,,,,,,,,,,,,,,,,,,,,,,,,,,,,,,,,,,,,,,,,,,,,,,GR39LD,train_x,red_square,top_right,2025-07-11_17h40.03.199,HideSeek_v1,2022.2.5,59.8965586365434,
,5,7,0,7,-5,0,66,,train_dim1_1,5,30,,,,2,0,2,0,,,,,,,,,0,0,0,0,0,4,4,4,5,0,5,0,,,,,,,,,,,,,,,,,,,,,,,,,,,,,,,,,,,,,,,,,,,,,,,,,,,,,,,,,,,,,,,,30,,,,,,,,2021.083315099997,2021.083315099997,2021.083315099997,2021.083315099997,2021.083315099997,return,1.1939387999882456,2,0,0,1,-0.16000000000000003,0.16,return,1.1100100000039674,-4,-12,-0.16000000000000003,0.16,,,,,,,,,,,,,,,,,,,,,,,,,,,,,,,,,,,,,,,,,,,,,,,,,,,,,,,,GR39LD,train_x,red_square,top_right,2025-07-11_17h40.03.199,HideSeek_v1,2022.2.5,59.8965586365434,
,5,5,4,5,-1,0,26,,train_dim1_1,6,30,,,,2,0,2,0,,,,,,,,,0,0,0,0,0,5,5,5,0,0,0,0,,,,,,,,,,,,,,,,,,,,,,,,,stimuli/alien_stimuli/26.png,,,,,,,,,,,,,,,,,,,,,,,,,,,,,stimuli/alien_stimuli/66.png,66,5,7,,,,,,,30,,,,,,,,2036.8698756000085,2036.8698756000085,2036.8698756000085,2036.8698756000085,2036.8698756000085,return,3.542276399995899,2,1,0,0,0.24,0,return,3.438174600014463,-4,-12,0.24,0,2035.2975288000016,2036.8698756000085,-0.16,0.16,0.0,0.4,0.16,-0.16,0.039999999999999994,-0.16,0.16,2023.8398880000168,2023.8398880000168,2023.8398880000168,2023.8398880000168,2023.8398880000168,2023.8398880000168,2023.8398880000168,2023.8398880000168,2023.821378780011,11.561776900023688,return,11.439454300008947,,,,,,,,,,,,,,,,,,,,,,,,,,,,,,,,,GR39LD,train_x,red_square,top_right,2025-07-11_17h40.03.199,HideSeek_v1,2022.2.5,59.8965586365434,
,8,5,3,5,-5,0,66,,train_dim1_1,7,30,,,,2,0,2,0,,,,,,,,,0,0,0,0,0,6,6,6,0,0,0,0,,,,,,,,,,,,,,,,,,,,,,,,,stimuli/alien_stimuli/66.png,,,,,,,,,,,,,,,,,,,,,,,,,,,,,stimuli/alien_stimuli/26.png,26,5,8,,,,,,,30,,,,,,,,2054.2254689999972,2054.2254689999972,2054.2254689999972,2054.2254689999972,2054.2254689999972,left,6.91156399997999,2,1,0,99,0.39999999999999997,0,left,6.824586700007785,,,,,2052.662159300002,2054.2254689999972,0.16,0,0.0,0.08,0.0,0.16,0.2,0.16,0,2041.9788827000011,2041.9788827000011,2041.9788827000011,2041.9788827000011,2041.9788827000011,2041.9788827000011,2041.9788827000011,2041.9788827000011,2041.9698560399877,10.810769800009439,return,10.652003900002455,,,,,,,,,,,,,,,,,,,,,,,,,,,,,,,,,GR39LD,train_x,red_square,top_right,2025-07-11_17h40.03.199,HideSeek_v1,2022.2.5,59.8965586365434,
,8,5,3,5,-5,0,66,,train_dim1_1,7,30,,,,2,0,2,0,,,,,,,,,0,0,0,0,0,6,6,6,1,0,1,0,,,,,,,,,,,,,,,,,,,,,,,,,,,,,,,,,,,,,,,,,,,,,,,,,,,,,,,,,,,,,,,,30,,,,,,,,2061.1334208000044,2061.1334208000044,2061.1334208000044,2061.1334208000044,2061.1334208000044,left,1.0935290000052191,2,1,0,99,0.31999999999999995,0,left,1.005671799997799,,,,,,,,,,,,,,,,,,,,,,,,,,,,,,,,,,,,,,,,,,,,,,,,,,,,,,,,,,,,GR39LD,train_x,red_square,top_right,2025-07-11_17h40.03.199,HideSeek_v1,2022.2.5,59.8965586365434,
,8,5,3,5,-5,0,66,,train_dim1_1,7,30,,,,2,0,2,0,,,,,,,,,0,0,0,0,0,6,6,6,2,0,2,0,,,,,,,,,,,,,,,,,,,,,,,,,,,,,,,,,,,,,,,,,,,,,,,,,,,,,,,,,,,,,,,,30,,,,,,,,2062.233356700017,2062.233356700017,2062.233356700017,2062.233356700017,2062.233356700017,left,1.027683899999829,2,1,0,99,0.23999999999999994,0,left,0.9491755000199191,,,,,,,,,,,,,,,,,,,,,,,,,,,,,,,,,,,,,,,,,,,,,,,,,,,,,,,,,,,,GR39LD,train_x,red_square,top_right,2025-07-11_17h40.03.199,HideSeek_v1,2022.2.5,59.8965586365434,
,8,5,3,5,-5,0,66,,train_dim1_1,7,30,,,,2,0,2,0,,,,,,,,,0,0,0,0,0,6,6,6,3,0,3,0,,,,,,,,,,,,,,,,,,,,,,,,,,,,,,,,,,,,,,,,,,,,,,,,,,,,,,,,,,,,,,,,30,,,,,,,,2063.267912500014,2063.267912500014,2063.267912500014,2063.267912500014,2063.267912500014,left,1.2602522999804933,2,1,0,99,0.15999999999999992,0,left,1.1750915000156965,,,,,,,,,,,,,,,,,,,,,,,,,,,,,,,,,,,,,,,,,,,,,,,,,,,,,,,,,,,,GR39LD,train_x,red_square,top_right,2025-07-11_17h40.03.199,HideSeek_v1,2022.2.5,59.8965586365434,
,8,5,3,5,-5,0,66,,train_dim1_1,7,30,,,,2,0,2,0,,,,,,,,,0,0,0,0,0,6,6,6,4,0,4,0,,,,,,,,,,,,,,,,,,,,,,,,,,,,,,,,,,,,,,,,,,,,,,,,,,,,,,,,,,,,,,,,30,,,,,,,,2064.53454600001,2064.53454600001,2064.53454600001,2064.53454600001,2064.53454600001,left,1.0438271999883,2,1,0,99,0.07999999999999992,0,left,0.9670975999906659,,,,,,,,,,,,,,,,,,,,,,,,,,,,,,,,,,,,,,,,,,,,,,,,,,,,,,,,,,,,GR39LD,train_x,red_square,top_right,2025-07-11_17h40.03.199,HideSeek_v1,2022.2.5,59.8965586365434,
,8,5,3,5,-5,0,66,,train_dim1_1,7,30,,,,2,0,2,0,,,,,,,,,0,0,0,0,0,6,6,6,5,0,5,0,,,,,,,,,,,,,,,,,,,,,,,,,,,,,,,,,,,,,,,,,,,,,,,,,,,,,,,,,,,,,,,,30,,,,,,,,2065.5858404000173,2065.5858404000173,2065.5858404000173,2065.5858404000173,2065.5858404000173,left,0.9105810000037309,2,1,0,99,-8.326672684688674e-17,0,left,0.8303872999968007,,,,,,,,,,,,,,,,,,,,,,,,,,,,,,,,,,,,,,,,,,,,,,,,,,,,,,,,,,,,GR39LD,train_x,red_square,top_right,2025-07-11_17h40.03.199,HideSeek_v1,2022.2.5,59.8965586365434,
,8,5,3,5,-5,0,66,,train_dim1_1,7,30,,,,2,0,2,0,,,,,,,,,0,0,0,0,0,6,6,6,6,0,6,0,,,,,,,,,,,,,,,,,,,,,,,,,,,,,,,,,,,,,,,,,,,,,,,,,,,,,,,,,,,,,,,,30,,,,,,,,2066.5030057000113,2066.5030057000113,2066.5030057000113,2066.5030057000113,2066.5030057000113,return,0.6936229999992065,2,1,0,0,-8.326672684688674e-17,0,return,0.6197715000016615,-4,-18,-8.326672684688674e-17,0,,,,,,,,,,,,,,,,,,,,,,,,,,,,,,,,,,,,,,,,,,,,,,,,,,,,,,,,GR39LD,train_x,red_square,top_right,2025-07-11_17h40.03.199,HideSeek_v1,2022.2.5,59.8965586365434,
,5,9,2,9,-3,0,46,,train_dim1_1,8,30,,,,2,0,2,0,,,,,,,,,0,0,0,0,0,7,7,7,0,0,0,0,,,,,,,,,,,,,,,,,,,,,,,,,stimuli/alien_stimuli/46.png,,,,,,,,,,,,,,,,,,,,,,,,,,,,,stimuli/alien_stimuli/66.png,66,8,9,,,,,,,30,,,,,,,,2084.148989600013,2084.148989600013,2084.148989600013,2084.148989600013,2084.148989600013,left,11.081787200004328,2,1,0,99,0.15999999999999998,0.32,left,10.992024700011825,,,,,2082.5869867000147,2084.148989600013,0.08,0,0.0,0.4,0.0,0.08,0.27999999999999997,0.08,0,2068.7780948000145,2068.7780948000145,2068.7780948000145,2068.7780948000145,2068.7780948000145,2068.7780948000145,2068.7780948000145,2068.7780948000145,2068.7586905100006,13.930388200009475,return,13.783776900003431,,,,,,,,,,,,,,,,,,,,,,,,,,,,,,,,,GR39LD,train_x,red_square,top_right,2025-07-11_17h40.03.199,HideSeek_v1,2022.2.5,59.8965586365434,
,5,9,2,9,-3,0,46,,train_dim1_1,8,30,,,,2,0,2,0,,,,,,,,,0,0,0,0,0,7,7,7,1,0,1,0,,,,,,,,,,,,,,,,,,,,,,,,,,,,,,,,,,,,,,,,,,,,,,,,,,,,,,,,,,,,,,,,30,,,,,,,,2095.229145200021,2095.229145200021,2095.229145200021,2095.229145200021,2095.229145200021,left,0.8100448000186589,2,1,0,99,0.07999999999999997,0.32,left,0.7299711999949068,,,,,,,,,,,,,,,,,,,,,,,,,,,,,,,,,,,,,,,,,,,,,,,,,,,,,,,,,,,,GR39LD,train_x,red_square,top_right,2025-07-11_17h40.03.199,HideSeek_v1,2022.2.5,59.8965586365434,
,5,9,2,9,-3,0,46,,train_dim1_1,8,30,,,,2,0,2,0,,,,,,,,,0,0,0,0,0,7,7,7,2,0,2,0,,,,,,,,,,,,,,,,,,,,,,,,,,,,,,,,,,,,,,,,,,,,,,,,,,,,,,,,,,,,,,,,30,,,,,,,,2096.0450221000065,2096.0450221000065,2096.0450221000065,2096.0450221000065,2096.0450221000065,left,0.7934908000170253,2,1,0,99,-2.7755575615628914e-17,0.32,left,0.7137383000226691,,,,,,,,,,,,,,,,,,,,,,,,,,,,,,,,,,,,,,,,,,,,,,,,,,,,,,,,,,,,GR39LD,train_x,red_square,top_right,2025-07-11_17h40.03.199,HideSeek_v1,2022.2.5,59.8965586365434,
,5,9,2,9,-3,0,46,,train_dim1_1,8,30,,,,2,0,2,0,,,,,,,,,0,0,0,0,0,7,7,7,3,0,3,0,,,,,,,,,,,,,,,,,,,,,,,,,,,,,,,,,,,,,,,,,,,,,,,,,,,,,,,,,,,,,,,,30,,,,,,,,2096.845762300014,2096.845762300014,2096.845762300014,2096.845762300014,2096.845762300014,left,5.264097399980528,2,1,0,99,-0.08000000000000003,0.32,left,5.190447699977085,,,,,,,,,,,,,,,,,,,,,,,,,,,,,,,,,,,,,,,,,,,,,,,,,,,,,,,,,,,,GR39LD,train_x,red_square,top_right,2025-07-11_17h40.03.199,HideSeek_v1,2022.2.5,59.8965586365434,
,5,9,2,9,-3,0,46,,train_dim1_1,8,30,,,,2,0,2,0,,,,,,,,,0,0,0,0,0,7,7,7,4,0,4,0,,,,,,,,,,,,,,,,,,,,,,,,,,,,,,,,,,,,,,,,,,,,,,,,,,,,,,,,,,,,,,,,30,,,,,,,,2102.117501300003,2102.117501300003,2102.117501300003,2102.117501300003,2102.117501300003,return,1.7612451000022702,2,1,0,0,-0.08000000000000003,0.32,return,1.6860232999897562,-4,-22,-0.08000000000000003,0.32,,,,,,,,,,,,,,,,,,,,,,,,,,,,,,,,,,,,,,,,,,,,,,,,,,,,,,,,GR39LD,train_x,red_square,top_right,2025-07-11_17h40.03.199,HideSeek_v1,2022.2.5,59.8965586365434,
,6,5,2,5,-4,0,56,,train_dim1_1,9,30,,,,2,0,2,0,,,,,,,,,0,0,0,0,0,8,8,8,0,0,0,0,,,,,,,,,,,,,,,,,,,,,,,,,stimuli/alien_stimuli/56.png,,,,,,,,,,,,,,,,,,,,,,,,,,,,,stimuli/alien_stimuli/46.png,46,5,10,,,,,,,30,,,,,,,,2112.9717616999988,2112.9717616999988,2112.9717616999988,2112.9717616999988,2112.9717616999988,left,15.285600699979113,2,1,0,99,0.24,0,left,15.199819300003583,,,,,2111.410963400005,2112.9717616999988,0,0.32,0.0,0.24,0.32,0,0.12,0,0.32,2105.4574520000024,2105.4574520000024,2105.4574520000024,2105.4574520000024,2105.4574520000024,2105.4574520000024,2105.4574520000024,2105.4574520000024,2105.4394048099903,6.0741362999833655,return,5.935294299997622,,,,,,,,,,,,,,,,,,,,,,,,,,,,,,,,,GR39LD,train_x,red_square,top_right,2025-07-11_17h40.03.199,HideSeek_v1,2022.2.5,59.8965586365434,
,6,5,2,5,-4,0,56,,train_dim1_1,9,30,,,,2,0,2,0,,,,,,,,,0,0,0,0,0,8,8,8,1,0,1,0,,,,,,,,,,,,,,,,,,,,,,,,,,,,,,,,,,,,,,,,,,,,,,,,,,,,,,,,,,,,,,,,30,,,,,,,,2128.262392100005,2128.262392100005,2128.262392100005,2128.262392100005,2128.262392100005,left,0.49286850000498816,2,1,0,99,0.15999999999999998,0,left,0.41225179997854866,,,,,,,,,,,,,,,,,,,,,,,,,,,,,,,,,,,,,,,,,,,,,,,,,,,,,,,,,,,,GR39LD,train_x,red_square,top_right,2025-07-11_17h40.03.199,HideSeek_v1,2022.2.5,59.8965586365434,
,6,5,2,5,-4,0,56,,train_dim1_1,9,30,,,,2,0,2,0,,,,,,,,,0,0,0,0,0,8,8,8,2,0,2,0,,,,,,,,,,,,,,,,,,,,,,,,,,,,,,,,,,,,,,,,,,,,,,,,,,,,,,,,,,,,,,,,30,,,,,,,,2128.758916300023,2128.758916300023,2128.758916300023,2128.758916300023,2128.758916300023,left,0.6103875999979209,2,1,0,99,0.07999999999999997,0,left,0.5315194000140764,,,,,,,,,,,,,,,,,,,,,,,,,,,,,,,,,,,,,,,,,,,,,,,,,,,,,,,,,,,,GR39LD,train_x,red_square,top_right,2025-07-11_17h40.03.199,HideSeek_v1,2022.2.5,59.8965586365434,
,6,5,2,5,-4,0,56,,train_dim1_1,9,30,,,,2,0,2,0,,,,,,,,,0,0,0,0,0,8,8,8,3,0,3,0,,,,,,,,,,,,,,,,,,,,,,,,,,,,,,,,,,,,,,,,,,,,,,,,,,,,,,,,,,,,,,,,30,,,,,,,,2129.3750341999985,2129.3750341999985,2129.3750341999985,2129.3750341999985,2129.3750341999985,left,0.6768421000160743,2,1,0,99,-2.7755575615628914e-17,0,left,0.5882064000179525,,,,,,,,,,,,,,,,,,,,,,,,,,,,,,,,,,,,,,,,,,,,,,,,,,,,,,,,,,,,GR39LD,train_x,red_square,top_right,2025-07-11_17h40.03.199,HideSeek_v1,2022.2.5,59.8965586365434,
,6,5,2,5,-4,0,56,,train_dim1_1,9,30,,,,2,0,2,0,,,,,,,,,0,0,0,0,0,8,8,8,4,0,4,0,,,,,,,,,,,,,,,,,,,,,,,,,,,,,,,,,,,,,,,,,,,,,,,,,,,,,,,,,,,,,,,,30,,,,,,,,2130.0590965000156,2130.0590965000156,2130.0590965000156,2130.0590965000156,2130.0590965000156,left,0.6268724999972619,2,1,0,99,-0.08000000000000003,0,left,0.5462301000079606,,,,,,,,,,,,,,,,,,,,,,,,,,,,,,,,,,,,,,,,,,,,,,,,,,,,,,,,,,,,GR39LD,train_x,red_square,top_right,2025-07-11_17h40.03.199,HideSeek_v1,2022.2.5,59.8965586365434,
,6,5,2,5,-4,0,56,,train_dim1_1,9,30,,,,2,0,2,0,,,,,,,,,0,0,0,0,0,8,8,8,5,0,5,0,,,,,,,,,,,,,,,,,,,,,,,,,,,,,,,,,,,,,,,,,,,,,,,,,,,,,,,,,,,,,,,,30,,,,,,,,2130.693606200017,2130.693606200017,2130.693606200017,2130.693606200017,2130.693606200017,return,1.0438663999957498,2,1,0,0,-0.08000000000000003,0,return,0.9525603000074625,-4,-27,-0.08000000000000003,0,,,,,,,,,,,,,,,,,,,,,,,,,,,,,,,,,,,,,,,,,,,,,,,,,,,,,,,,GR39LD,train_x,red_square,top_right,2025-07-11_17h40.03.199,HideSeek_v1,2022.2.5,59.8965586365434,
,5,8,5,8,0,0,16,,train_dim1_1,10,30,,,,2,0,2,0,,,,,,,,,0,0,0,0,0,9,9,9,0,0,0,0,,,,,,,,,,,,,,,,,,,,,,,,,stimuli/alien_stimuli/16.png,,,,,,,,,,,,,,,,,,,,,,,,,,,,,stimuli/alien_stimuli/56.png,56,6,11,,,,,,,30,,,,,,,,2143.3979941,2143.3979941,2143.3979941,2143.3979941,2143.3979941,left,4.70994630001951,2,1,0,99,0.15999999999999998,0.24,left,4.614739499986172,,,,,2141.8363136000116,2143.3979941,0,0,0.0,0.32,0.0,0,0.16,0,0,2133.316019400023,2133.316019400023,2133.316019400023,2133.316019400023,2133.316019400023,2133.316019400023,2133.316019400023,2133.316019400023,2133.2957892100067,8.64267070000642,return,8.499022700008936,,,,,,,,,,,,,,,,,,,,,,,,,,,,,,,,,GR39LD,train_x,red_square,top_right,2025-07-11_17h40.03.199,HideSeek_v1,2022.2.5,59.8965586365434,
,5,8,5,8,0,0,16,,train_dim1_1,10,30,,,,2,0,2,0,,,,,,,,,0,0,0,0,0,9,9,9,1,0,1,0,,,,,,,,,,,,,,,,,,,,,,,,,,,,,,,,,,,,,,,,,,,,,,,,,,,,,,,,,,,,,,,,30,,,,,,,,2148.111258500023,2148.111258500023,2148.111258500023,2148.111258500023,2148.111258500023,left,0.47644289999152534,2,1,0,99,0.07999999999999997,0.24,left,0.3914181000145618,,,,,,,,,,,,,,,,,,,,,,,,,,,,,,,,,,,,,,,,,,,,,,,,,,,,,,,,,,,,GR39LD,train_x,red_square,top_right,2025-07-11_17h40.03.199,HideSeek_v1,2022.2.5,59.8965586365434,
,5,8,5,8,0,0,16,,train_dim1_1,10,30,,,,2,0,2,0,,,,,,,,,0,0,0,0,0,9,9,9,2,0,2,0,,,,,,,,,,,,,,,,,,,,,,,,,,,,,,,,,,,,,,,,,,,,,,,,,,,,,,,,,,,,,,,,30,,,,,,,,2148.594010700006,2148.594010700006,2148.594010700006,2148.594010700006,2148.594010700006,return,2.745558800001163,2,0,0,0,0.07999999999999997,0.24,return,2.660906500008423,-4,-29,0.07999999999999997,0.24,,,,,,,,,,,,,,,,,,,,,,,,,,,,,,,,,,,,,,,,,,,,,,,,,,,,,,,,GR39LD,train_x,red_square,top_right,2025-07-11_17h40.03.199,HideSeek_v1,2022.2.5,59.8965586365434,
,7,7,4,7,-3,0,46,,train_dim1_1,11,30,,,,2,0,2,0,,,,,,,,,0,0,0,0,0,10,10,10,0,0,0,0,,,,,,,,,,,,,,,,,,,,,,,,,stimuli/alien_stimuli/46.png,,,,,,,,,,,,,,,,,,,,,,,,,,,,,stimuli/alien_stimuli/16.png,16,5,12,,,,,,,30,,,,,,,,2160.4600691000232,2160.4600691000232,2160.4600691000232,2160.4600691000232,2160.4600691000232,left,5.192768299981253,2,0,0,99,0.32,0.16,left,5.107546599989291,,,,,2158.9004385000153,2160.4600691000232,0.24,0.24,0.0,0.0,0.24,0.24,0.24,0.24,0.24,2152.923213400005,2152.923213400005,2152.923213400005,2152.923213400005,2152.923213400005,2152.923213400005,2152.923213400005,2152.923213400005,2152.9123300399983,6.107502300001215,return,5.96148080000421,,,,,,,,,,,,,,,,,,,,,,,,,,,,,,,,,GR39LD,train_x,red_square,top_right,2025-07-11_17h40.03.199,HideSeek_v1,2022.2.5,59.8965586365434,
,7,7,4,7,-3,0,46,,train_dim1_1,11,30,,,,2,0,2,0,,,,,,,,,0,0,0,0,0,10,10,10,1,0,1,0,,,,,,,,,,,,,,,,,,,,,,,,,,,,,,,,,,,,,,,,,,,,,,,,,,,,,,,,,,,,,,,,30,,,,,,,,2165.6542135000054,2165.6542135000054,2165.6542135000054,2165.6542135000054,2165.6542135000054,left,0.6929887000005692,2,0,0,99,0.24,0.16,left,0.6125478000030853,,,,,,,,,,,,,,,,,,,,,,,,,,,,,,,,,,,,,,,,,,,,,,,,,,,,,,,,,,,,GR39LD,train_x,red_square,top_right,2025-07-11_17h40.03.199,HideSeek_v1,2022.2.5,59.8965586365434,
,7,7,4,7,-3,0,46,,train_dim1_1,11,30,,,,2,0,2,0,,,,,,,,,0,0,0,0,0,10,10,10,2,0,2,0,,,,,,,,,,,,,,,,,,,,,,,,,,,,,,,,,,,,,,,,,,,,,,,,,,,,,,,,,,,,,,,,30,,,,,,,,2166.3534598000115,2166.3534598000115,2166.3534598000115,2166.3534598000115,2166.3534598000115,left,0.6603436000004876,2,0,0,99,0.15999999999999998,0.16,left,0.5828972000163049,,,,,,,,,,,,,,,,,,,,,,,,,,,,,,,,,,,,,,,,,,,,,,,,,,,,,,,,,,,,GR39LD,train_x,red_square,top_right,2025-07-11_17h40.03.199,HideSeek_v1,2022.2.5,59.8965586365434,
,7,7,4,7,-3,0,46,,train_dim1_1,11,30,,,,2,0,2,0,,,,,,,,,0,0,0,0,0,10,10,10,3,0,3,0,,,,,,,,,,,,,,,,,,,,,,,,,,,,,,,,,,,,,,,,,,,,,,,,,,,,,,,,,,,,,,,,30,,,,,,,,2167.0206641000113,2167.0206641000113,2167.0206641000113,2167.0206641000113,2167.0206641000113,left,0.8437138999870513,2,0,0,99,0.07999999999999997,0.16,left,0.7625914000091143,,,,,,,,,,,,,,,,,,,,,,,,,,,,,,,,,,,,,,,,,,,,,,,,,,,,,,,,,,,,GR39LD,train_x,red_square,top_right,2025-07-11_17h40.03.199,HideSeek_v1,2022.2.5,59.8965586365434,
,7,7,4,7,-3,0,46,,train_dim1_1,11,30,,,,2,0,2,0,,,,,,,,,0,0,0,0,0,10,10,10,4,0,4,0,,,,,,,,,,,,,,,,,,,,,,,,,,,,,,,,,,,,,,,,,,,,,,,,,,,,,,,,,,,,,,,,30,,,,,,,,2167.87343420001,2167.87343420001,2167.87343420001,2167.87343420001,2167.87343420001,left,5.4622236999857705,2,0,0,99,-2.7755575615628914e-17,0.16,left,5.384907300001942,,,,,,,,,,,,,,,,,,,,,,,,,,,,,,,,,,,,,,,,,,,,,,,,,,,,,,,,,,,,GR39LD,train_x,red_square,top_right,2025-07-11_17h40.03.199,HideSeek_v1,2022.2.5,59.8965586365434,
,7,7,4,7,-3,0,46,,train_dim1_1,11,30,,,,2,0,2,0,,,,,,,,,0,0,0,0,0,10,10,10,5,0,5,0,,,,,,,,,,,,,,,,,,,,,,,,,,,,,,,,,,,,,,,,,,,,,,,,,,,,,,,,,,,,,,,,30,,,,,,,,2173.3437104000186,2173.3437104000186,2173.3437104000186,2173.3437104000186,2173.3437104000186,return,2.577845200023148,2,0,0,0,-2.7755575615628914e-17,0.16,return,2.4955119999940507,-4,-34,-2.7755575615628914e-17,0.16,,,,,,,,,,,,,,,,,,,,,,,,,,,,,,,,,,,,,,,,,,,,,,,,,,,,,,,,GR39LD,train_x,red_square,top_right,2025-07-11_17h40.03.199,HideSeek_v1,2022.2.5,59.8965586365434,
,5,5,4,5,-1,0,26,,train_dim1_1,12,30,,,,2,0,2,0,,,,,,,,,0,0,0,0,0,11,11,11,0,0,0,0,,,,,,,,,,,,,,,,,,,,,,,,,stimuli/alien_stimuli/26.png,,,,,,,,,,,,,,,,,,,,,,,,,,,,,stimuli/alien_stimuli/46.png,46,7,13,,,,,,,30,,,,,,,,2190.6612719999976,2190.6612719999976,2190.6612719999976,2190.6612719999976,2190.6612719999976,left,2.825020599993877,2,0,0,99,0.15999999999999998,0,left,2.7276119999878574,,,,,2189.0922739000234,2190.6612719999976,0.16,0.16,0.0,0.24,0.16,0.16,0.28,0.16,0.16,2177.501095400017,2177.501095400017,2177.501095400017,2177.501095400017,2177.501095400017,2177.501095400017,2177.501095400017,2177.501095400017,2177.4825941100107,11.71208930001012,return,11.57276319997618,,,,,,,,,,,,,,,,,,,,,,,,,,,,,,,,,GR39LD,train_x,red_square,top_right,2025-07-11_17h40.03.199,HideSeek_v1,2022.2.5,59.8965586365434,
,5,5,4,5,-1,0,26,,train_dim1_1,12,30,,,,2,0,2,0,,,,,,,,,0,0,0,0,0,11,11,11,1,0,1,0,,,,,,,,,,,,,,,,,,,,,,,,,,,,,,,,,,,,,,,,,,,,,,,,,,,,,,,,,,,,,,,,30,,,,,,,,2193.4809173000103,2193.4809173000103,2193.4809173000103,2193.4809173000103,2193.4809173000103,return,0.976686600013636,3,0,0,1,0.15999999999999998,0,return,0.8895871000131592,-4,-35,0.15999999999999998,0,,,,,,,,,,,,,,,,,,,,,,,,,,,,,,,,,,,,,,,,,,,,,,,,,,,,,,,,GR39LD,train_x,red_square,top_right,2025-07-11_17h40.03.199,HideSeek_v1,2022.2.5,59.8965586365434,
,5,9,1,9,-4,0,56,,train_dim1_1,13,30,,,,2,0,2,0,,,,,,,,,0,0,0,0,0,12,12,12,0,0,0,0,,,,,,,,,,,,,,,,,,,,,,,,,stimuli/alien_stimuli/56.png,,,,,,,,,,,,,,,,,,,,,,,,,,,,,stimuli/alien_stimuli/26.png,26,5,14,,,,,,,30,,,,,,,,2213.1073464000074,2213.1073464000074,2213.1073464000074,2213.1073464000074,2213.1073464000074,down,7.095043999986956,3,0,0,99,0.24,0.24,down,7.010044199996628,,,,,2211.544301600021,2213.1073464000074,0.16,0,0.0,0.08,0.0,0.16,0.2,0.16,0,2196.0416972000094,2196.0416972000094,2196.0416972000094,2196.0416972000094,2196.0416972000094,2196.0416972000094,2196.0416972000094,2196.0416972000094,2196.0313543399857,15.631575099978363,return,15.477369900007034,,,,,,,,,,,,,,,,,,,,,,,,,,,,,,,,,GR39LD,train_x,red_square,top_right,2025-07-11_17h40.03.199,HideSeek_v1,2022.2.5,59.8965586365434,
,5,9,1,9,-4,0,56,,train_dim1_1,13,30,,,,2,0,2,0,,,,,,,,,0,0,0,0,0,12,12,12,1,0,1,0,,,,,,,,,,,,,,,,,,,,,,,,,,,,,,,,,,,,,,,,,,,,,,,,,,,,,,,,,,,,,,,,30,,,,,,,,2220.201414100011,2220.201414100011,2220.201414100011,2220.201414100011,2220.201414100011,down,1.860864299989771,3,0,0,99,0.24,0.15999999999999998,down,1.7785175000026356,,,,,,,,,,,,,,,,,,,,,,,,,,,,,,,,,,,,,,,,,,,,,,,,,,,,,,,,,,,,GR39LD,train_x,red_square,top_right,2025-07-11_17h40.03.199,HideSeek_v1,2022.2.5,59.8965586365434,
,5,9,1,9,-4,0,56,,train_dim1_1,13,30,,,,2,0,2,0,,,,,,,,,0,0,0,0,0,12,12,12,2,0,2,0,,,,,,,,,,,,,,,,,,,,,,,,,,,,,,,,,,,,,,,,,,,,,,,,,,,,,,,,,,,,,,,,30,,,,,,,,2222.0687741000147,2222.0687741000147,2222.0687741000147,2222.0687741000147,2222.0687741000147,down,1.2107368000142742,3,0,0,99,0.24,0.07999999999999997,down,1.1216104999766685,,,,,,,,,,,,,,,,,,,,,,,,,,,,,,,,,,,,,,,,,,,,,,,,,,,,,,,,,,,,GR39LD,train_x,red_square,top_right,2025-07-11_17h40.03.199,HideSeek_v1,2022.2.5,59.8965586365434,
,5,9,1,9,-4,0,56,,train_dim1_1,13,30,,,,2,0,2,0,,,,,,,,,0,0,0,0,0,12,12,12,3,0,3,0,,,,,,,,,,,,,,,,,,,,,,,,,,,,,,,,,,,,,,,,,,,,,,,,,,,,,,,,,,,,,,,,30,,,,,,,,2223.28628640002,2223.28628640002,2223.28628640002,2223.28628640002,2223.28628640002,down,1.0606019000115339,3,0,0,99,0.24,-2.7755575615628914e-17,down,0.9861819999932777,,,,,,,,,,,,,,,,,,,,,,,,,,,,,,,,,,,,,,,,,,,,,,,,,,,,,,,,,,,,GR39LD,train_x,red_square,top_right,2025-07-11_17h40.03.199,HideSeek_v1,2022.2.5,59.8965586365434,
,5,9,1,9,-4,0,56,,train_dim1_1,13,30,,,,2,0,2,0,,,,,,,,,0,0,0,0,0,12,12,12,4,0,4,0,,,,,,,,,,,,,,,,,,,,,,,,,,,,,,,,,,,,,,,,,,,,,,,,,,,,,,,,,,,,,,,,30,,,,,,,,2224.35469930002,2224.35469930002,2224.35469930002,2224.35469930002,2224.35469930002,down,1.310767399991164,3,0,0,99,0.24,-0.08000000000000003,down,1.2259803999913856,,,,,,,,,,,,,,,,,,,,,,,,,,,,,,,,,,,,,,,,,,,,,,,,,,,,,,,,,,,,GR39LD,train_x,red_square,top_right,2025-07-11_17h40.03.199,HideSeek_v1,2022.2.5,59.8965586365434,
,5,9,1,9,-4,0,56,,train_dim1_1,13,30,,,,2,0,2,0,,,,,,,,,0,0,0,0,0,12,12,12,5,0,5,0,,,,,,,,,,,,,,,,,,,,,,,,,,,,,,,,,,,,,,,,,,,,,,,,,,,,,,,,,,,,,,,,30,,,,,,,,2225.6728421000007,2225.6728421000007,2225.6728421000007,2225.6728421000007,2225.6728421000007,return,14.905164900003001,3,0,0,0,0.24,-0.08000000000000003,return,14.823815000010654,-9,-35,0.24,-0.08000000000000003,,,,,,,,,,,,,,,,,,,,,,,,,,,,,,,,,,,,,,,,,,,,,,,,,,,,,,,,GR39LD,train_x,red_square,top_right,2025-07-11_17h40.03.199,HideSeek_v1,2022.2.5,59.8965586365434,
,9,8,9,8,0,0,16,,train_dim1_1,14,30,,,,2,0,2,0,,,,,,,,,0,0,0,0,0,13,13,13,0,0,0,0,,,,,,,,,,,,,,,,,,,,,,,,,stimuli/alien_stimuli/16.png,,,,,,,,,,,,,,,,,,,,,,,,,,,,,stimuli/alien_stimuli/56.png,56,5,15,,,,,,,30,,,,,,,,2256.1811545000237,2256.1811545000237,2256.1811545000237,2256.1811545000237,2256.1811545000237,left,2.406599899986759,3,0,0,99,0.48000000000000004,0.24,left,2.308360900002299,,,,,2254.6133993999974,2256.1811545000237,-0.08,0.32,0.0,0.32,0.32,-0.08,0.07999999999999999,-0.08,0.32,2242.1761012000206,2242.1761012000206,2242.1761012000206,2242.1761012000206,2242.1761012000206,2242.1761012000206,2242.1761012000206,2242.1761012000206,2242.1530357400075,12.57920809998177,return,12.415963900013594,,,,,,,,,,,,,,,,,,,,,,,,,,,,,,,,,GR39LD,train_x,red_square,top_right,2025-07-11_17h40.03.199,HideSeek_v1,2022.2.5,59.8965586365434,
,9,8,9,8,0,0,16,,train_dim1_1,14,30,,,,2,0,2,0,,,,,,,,,0,0,0,0,0,13,13,13,1,0,1,0,,,,,,,,,,,,,,,,,,,,,,,,,,,,,,,,,,,,,,,,,,,,,,,,,,,,,,,,,,,,,,,,30,,,,,,,,2258.583888399997,2258.583888399997,2258.583888399997,2258.583888399997,2258.583888399997,return,1.260674499993911,3,1,0,0,0.48000000000000004,0.24,return,1.1739586000039708,-9,-36,0.48000000000000004,0.24,,,,,,,,,,,,,,,,,,,,,,,,,,,,,,,,,,,,,,,,,,,,,,,,,,,,,,,,GR39LD,train_x,red_square,top_right,2025-07-11_17h40.03.199,HideSeek_v1,2022.2.5,59.8965586365434,
,9,7,4,7,-5,0,66,,train_dim1_1,15,30,,,,2,0,2,0,,,,,,,,,0,0,0,0,0,14,14,14,0,0,0,0,,,,,,,,,,,,,,,,,,,,,,,,,stimuli/alien_stimuli/66.png,,,,,,,,,,,,,,,,,,,,,,,,,,,,,stimuli/alien_stimuli/16.png,16,9,16,,,,,,,30,,,,,,,,2269.7669214000052,2269.7669214000052,2269.7669214000052,2269.7669214000052,2269.7669214000052,left,3.6418572000111453,3,1,0,99,0.48000000000000004,0.16,left,3.5506594000034966,,,,,2268.2080989000096,2269.7669214000052,0.56,0.24,0.0,0.0,0.24,0.56,0.56,0.56,0.24,2261.4281973000034,2261.4281973000034,2261.4281973000034,2261.4281973000034,2261.4281973000034,2261.4281973000034,2261.4281973000034,2261.4281973000034,2261.4190727400014,6.908203899976797,return,6.76163799999631,,,,,,,,,,,,,,,,,,,,,,,,,,,,,,,,,GR39LD,train_x,red_square,top_right,2025-07-11_17h40.03.199,HideSeek_v1,2022.2.5,59.8965586365434,
,9,7,4,7,-5,0,66,,train_dim1_1,15,30,,,,2,0,2,0,,,,,,,,,0,0,0,0,0,14,14,14,1,0,1,0,,,,,,,,,,,,,,,,,,,,,,,,,,,,,,,,,,,,,,,,,,,,,,,,,,,,,,,,,,,,,,,,30,,,,,,,,2273.4095164000173,2273.4095164000173,2273.4095164000173,2273.4095164000173,2273.4095164000173,left,1.5604638999793679,3,1,0,99,0.4,0.16,left,1.4747757999866735,,,,,,,,,,,,,,,,,,,,,,,,,,,,,,,,,,,,,,,,,,,,,,,,,,,,,,,,,,,,GR39LD,train_x,red_square,top_right,2025-07-11_17h40.03.199,HideSeek_v1,2022.2.5,59.8965586365434,
,9,7,4,7,-5,0,66,,train_dim1_1,15,30,,,,2,0,2,0,,,,,,,,,0,0,0,0,0,14,14,14,2,0,2,0,,,,,,,,,,,,,,,,,,,,,,,,,,,,,,,,,,,,,,,,,,,,,,,,,,,,,,,,,,,,,,,,30,,,,,,,,2274.976647400006,2274.976647400006,2274.976647400006,2274.976647400006,2274.976647400006,left,0.8270612999913283,3,1,0,99,0.32,0.16,left,0.7457173000148032,,,,,,,,,,,,,,,,,,,,,,,,,,,,,,,,,,,,,,,,,,,,,,,,,,,,,,,,,,,,GR39LD,train_x,red_square,top_right,2025-07-11_17h40.03.199,HideSeek_v1,2022.2.5,59.8965586365434,
,9,7,4,7,-5,0,66,,train_dim1_1,15,30,,,,2,0,2,0,,,,,,,,,0,0,0,0,0,14,14,14,3,0,3,0,,,,,,,,,,,,,,,,,,,,,,,,,,,,,,,,,,,,,,,,,,,,,,,,,,,,,,,,,,,,,,,,30,,,,,,,,2275.8113769000047,2275.8113769000047,2275.8113769000047,2275.8113769000047,2275.8113769000047,left,0.8435927999962587,3,1,0,99,0.24,0.16,left,0.7570930999936536,,,,,,,,,,,,,,,,,,,,,,,,,,,,,,,,,,,,,,,,,,,,,,,,,,,,,,,,,,,,GR39LD,train_x,red_square,top_right,2025-07-11_17h40.03.199,HideSeek_v1,2022.2.5,59.8965586365434,
,9,7,4,7,-5,0,66,,train_dim1_1,15,30,,,,2,0,2,0,,,,,,,,,0,0,0,0,0,14,14,14,4,0,4,0,,,,,,,,,,,,,,,,,,,,,,,,,,,,,,,,,,,,,,,,,,,,,,,,,,,,,,,,,,,,,,,,30,,,,,,,,2276.66148770001,2276.66148770001,2276.66148770001,2276.66148770001,2276.66148770001,left,0.7603264000208583,3,1,0,99,0.15999999999999998,0.16,left,0.6831472000048961,,,,,,,,,,,,,,,,,,,,,,,,,,,,,,,,,,,,,,,,,,,,,,,,,,,,,,,,,,,,GR39LD,train_x,red_square,top_right,2025-07-11_17h40.03.199,HideSeek_v1,2022.2.5,59.8965586365434,
,9,7,4,7,-5,0,66,,train_dim1_1,15,30,,,,2,0,2,0,,,,,,,,,0,0,0,0,0,14,14,14,5,0,5,0,,,,,,,,,,,,,,,,,,,,,,,,,,,,,,,,,,,,,,,,,,,,,,,,,,,,,,,,,,,,,,,,30,,,,,,,,2277.4291986000026,2277.4291986000026,2277.4291986000026,2277.4291986000026,2277.4291986000026,left,1.1771293000201695,3,1,0,99,0.07999999999999997,0.16,left,1.0957896999898367,,,,,,,,,,,,,,,,,,,,,,,,,,,,,,,,,,,,,,,,,,,,,,,,,,,,,,,,,,,,GR39LD,train_x,red_square,top_right,2025-07-11_17h40.03.199,HideSeek_v1,2022.2.5,59.8965586365434,
,9,7,4,7,-5,0,66,,train_dim1_1,15,30,,,,2,0,2,0,,,,,,,,,0,0,0,0,0,14,14,14,6,0,6,0,,,,,,,,,,,,,,,,,,,,,,,,,,,,,,,,,,,,,,,,,,,,,,,,,,,,,,,,,,,,,,,,30,,,,,,,,2278.613039000018,2278.613039000018,2278.613039000018,2278.613039000018,2278.613039000018,return,2.3452947000041604,3,1,0,0,0.07999999999999997,0.16,return,2.2621674000110943,-9,-42,0.07999999999999997,0.16,,,,,,,,,,,,,,,,,,,,,,,,,,,,,,,,,,,,,,,,,,,,,,,,,,,,,,,,GR39LD,train_x,red_square,top_right,2025-07-11_17h40.03.199,HideSeek_v1,2022.2.5,59.8965586365434,
,8,8,4,8,-4,0,56,,train_dim1_1,16,30,,,,2,0,2,0,,,,,,,,,0,0,0,0,0,15,15,15,0,0,0,0,,,,,,,,,,,,,,,,,,,,,,,,,stimuli/alien_stimuli/56.png,,,,,,,,,,,,,,,,,,,,,,,,,,,,,stimuli/alien_stimuli/66.png,66,9,17,,,,,,,30,,,,,,,,2288.469823499996,2288.469823499996,2288.469823499996,2288.469823499996,2288.469823499996,left,4.091545800009044,3,1,0,99,0.39999999999999997,0.24,left,4.0040830000070855,,,,,2286.9070283000183,2288.469823499996,0.16,0.16,0.0,0.4,0.16,0.16,0.36000000000000004,0.16,0.16,2282.5431780000217,2282.5431780000217,2282.5431780000217,2282.5431780000217,2282.5431780000217,2282.5431780000217,2282.5431780000217,2282.5431780000217,2282.5201591099876,4.4889404000132345,return,4.332121100014774,,,,,,,,,,,,,,,,,,,,,,,,,,,,,,,,,GR39LD,train_x,red_square,top_right,2025-07-11_17h40.03.199,HideSeek_v1,2022.2.5,59.8965586365434,
,8,8,4,8,-4,0,56,,train_dim1_1,16,30,,,,2,0,2,0,,,,,,,,,0,0,0,0,0,15,15,15,1,0,1,0,,,,,,,,,,,,,,,,,,,,,,,,,,,,,,,,,,,,,,,,,,,,,,,,,,,,,,,,,,,,,,,,30,,,,,,,,2292.5621231000114,2292.5621231000114,2292.5621231000114,2292.5621231000114,2292.5621231000114,left,0.4595413000206463,3,1,0,99,0.31999999999999995,0.24,left,0.38219350000144914,,,,,,,,,,,,,,,,,,,,,,,,,,,,,,,,,,,,,,,,,,,,,,,,,,,,,,,,,,,,GR39LD,train_x,red_square,top_right,2025-07-11_17h40.03.199,HideSeek_v1,2022.2.5,59.8965586365434,
,8,8,4,8,-4,0,56,,train_dim1_1,16,30,,,,2,0,2,0,,,,,,,,,0,0,0,0,0,15,15,15,2,0,2,0,,,,,,,,,,,,,,,,,,,,,,,,,,,,,,,,,,,,,,,,,,,,,,,,,,,,,,,,,,,,,,,,30,,,,,,,,2293.027138000005,2293.027138000005,2293.027138000005,2293.027138000005,2293.027138000005,left,0.4600695000262931,3,1,0,99,0.23999999999999994,0.24,left,0.37514450002345257,,,,,,,,,,,,,,,,,,,,,,,,,,,,,,,,,,,,,,,,,,,,,,,,,,,,,,,,,,,,GR39LD,train_x,red_square,top_right,2025-07-11_17h40.03.199,HideSeek_v1,2022.2.5,59.8965586365434,
,8,8,4,8,-4,0,56,,train_dim1_1,16,30,,,,2,0,2,0,,,,,,,,,0,0,0,0,0,15,15,15,3,0,3,0,,,,,,,,,,,,,,,,,,,,,,,,,,,,,,,,,,,,,,,,,,,,,,,,,,,,,,,,,,,,,,,,30,,,,,,,,2293.495274100016,2293.495274100016,2293.495274100016,2293.495274100016,2293.495274100016,left,0.47678430000087246,3,1,0,99,0.15999999999999992,0.24,left,0.392222499998752,,,,,,,,,,,,,,,,,,,,,,,,,,,,,,,,,,,,,,,,,,,,,,,,,,,,,,,,,,,,GR39LD,train_x,red_square,top_right,2025-07-11_17h40.03.199,HideSeek_v1,2022.2.5,59.8965586365434,
,8,8,4,8,-4,0,56,,train_dim1_1,16,30,,,,2,0,2,0,,,,,,,,,0,0,0,0,0,15,15,15,4,0,4,0,,,,,,,,,,,,,,,,,,,,,,,,,,,,,,,,,,,,,,,,,,,,,,,,,,,,,,,,,,,,,,,,30,,,,,,,,2293.9795677000075,2293.9795677000075,2293.9795677000075,2293.9795677000075,2293.9795677000075,left,0.4934614999801852,3,1,0,99,0.07999999999999992,0.24,left,0.41602879998390563,,,,,,,,,,,,,,,,,,,,,,,,,,,,,,,,,,,,,,,,,,,,,,,,,,,,,,,,,,,,GR39LD,train_x,red_square,top_right,2025-07-11_17h40.03.199,HideSeek_v1,2022.2.5,59.8965586365434,
,8,8,4,8,-4,0,56,,train_dim1_1,16,30,,,,2,0,2,0,,,,,,,,,0,0,0,0,0,15,15,15,5,0,5,0,,,,,,,,,,,,,,,,,,,,,,,,,,,,,,,,,,,,,,,,,,,,,,,,,,,,,,,,,,,,,,,,30,,,,,,,,2294.4795104000077,2294.4795104000077,2294.4795104000077,2294.4795104000077,2294.4795104000077,left,0.47652779999771155,3,1,0,99,-8.326672684688674e-17,0.24,left,0.3860888000053819,,,,,,,,,,,,,,,,,,,,,,,,,,,,,,,,,,,,,,,,,,,,,,,,,,,,,,,,,,,,GR39LD,train_x,red_square,top_right,2025-07-11_17h40.03.199,HideSeek_v1,2022.2.5,59.8965586365434,
,8,8,4,8,-4,0,56,,train_dim1_1,16,30,,,,2,0,2,0,,,,,,,,,0,0,0,0,0,15,15,15,6,0,6,0,,,,,,,,,,,,,,,,,,,,,,,,,,,,,,,,,,,,,,,,,,,,,,,,,,,,,,,,,,,,,,,,30,,,,,,,,2294.9630695000233,2294.9630695000233,2294.9630695000233,2294.9630695000233,2294.9630695000233,return,1.2607024000026286,3,0,0,0,-8.326672684688674e-17,0.24,return,1.1788563000154682,-9,-48,-8.326672684688674e-17,0.24,,,,,,,,,,,,,,,,,,,,,,,,,,,,,,,,,,,,,,,,,,,,,,,,,,,,,,,,GR39LD,train_x,red_square,top_right,2025-07-11_17h40.03.199,HideSeek_v1,2022.2.5,59.8965586365434,
,7,9,6,9,-1,0,26,,train_dim1_1,17,30,,,,2,0,2,0,,,,,,,,,0,0,0,0,0,16,16,16,0,0,0,0,,,,,,,,,,,,,,,,,,,,,,,,,stimuli/alien_stimuli/26.png,,,,,,,,,,,,,,,,,,,,,,,,,,,,,stimuli/alien_stimuli/56.png,56,8,18,,,,,,,30,,,,,,,,2310.6597007000237,2310.6597007000237,2310.6597007000237,2310.6597007000237,2310.6597007000237,left,3.040897099999711,3,0,0,99,0.32,0.32,left,2.9486471000127494,,,,,2309.09221480001,2310.6597007000237,0.16,0.24,0.0,0.32,0.24,0.16,0.32,0.16,0.24,2297.797339700017,2297.797339700017,2297.797339700017,2297.797339700017,2297.797339700017,2297.797339700017,2297.797339700017,2297.797339700017,2297.7827331100098,11.411697500006994,return,11.276043499994557,,,,,,,,,,,,,,,,,,,,,,,,,,,,,,,,,GR39LD,train_x,red_square,top_right,2025-07-11_17h40.03.199,HideSeek_v1,2022.2.5,59.8965586365434,
,7,9,6,9,-1,0,26,,train_dim1_1,17,30,,,,2,0,2,0,,,,,,,,,0,0,0,0,0,16,16,16,1,0,1,0,,,,,,,,,,,,,,,,,,,,,,,,,,,,,,,,,,,,,,,,,,,,,,,,,,,,,,,,,,,,,,,,30,,,,,,,,2313.697423900012,2313.697423900012,2313.697423900012,2313.697423900012,2313.697423900012,return,0.6095940000086557,4,0,0,1,0.32,0.32,return,0.5237375000142492,-9,-49,0.32,0.32,,,,,,,,,,,,,,,,,,,,,,,,,,,,,,,,,,,,,,,,,,,,,,,,,,,,,,,,GR39LD,train_x,red_square,top_right,2025-07-11_17h40.03.199,HideSeek_v1,2022.2.5,59.8965586365434,
,7,6,2,6,-5,0,66,,train_dim1_1,18,30,,,,2,0,2,0,,,,,,,,,0,0,0,0,0,17,17,17,0,0,0,0,,,,,,,,,,,,,,,,,,,,,,,,,stimuli/alien_stimuli/66.png,,,,,,,,,,,,,,,,,,,,,,,,,,,,,stimuli/alien_stimuli/26.png,26,7,19,,,,,,,30,,,,,,,,2321.010303200019,2321.010303200019,2321.010303200019,2321.010303200019,2321.010303200019,left,4.5251410999917425,4,0,0,99,0.32,0.08,left,4.440841500007082,,,,,2319.4505525999994,2321.010303200019,0.32,0.32,0.0,0.08,0.32,0.32,0.36,0.32,0.32,2315.889941500005,2315.889941500005,2315.889941500005,2315.889941500005,2315.889941500005,2315.889941500005,2315.889941500005,2315.889941500005,2315.881102039991,3.68923660001019,return,3.5383579999906942,,,,,,,,,,,,,,,,,,,,,,,,,,,,,,,,,GR39LD,train_x,red_square,top_right,2025-07-11_17h40.03.199,HideSeek_v1,2022.2.5,59.8965586365434,
,7,6,2,6,-5,0,66,,train_dim1_1,18,30,,,,2,0,2,0,,,,,,,,,0,0,0,0,0,17,17,17,1,0,1,0,,,,,,,,,,,,,,,,,,,,,,,,,,,,,,,,,,,,,,,,,,,,,,,,,,,,,,,,,,,,,,,,30,,,,,,,,2325.5360270000238,2325.5360270000238,2325.5360270000238,2325.5360270000238,2325.5360270000238,left,1.5106563000008464,4,0,0,99,0.24,0.08,left,1.4325510000053328,,,,,,,,,,,,,,,,,,,,,,,,,,,,,,,,,,,,,,,,,,,,,,,,,,,,,,,,,,,,GR39LD,train_x,red_square,top_right,2025-07-11_17h40.03.199,HideSeek_v1,2022.2.5,59.8965586365434,
,7,6,2,6,-5,0,66,,train_dim1_1,18,30,,,,2,0,2,0,,,,,,,,,0,0,0,0,0,17,17,17,2,0,2,0,,,,,,,,,,,,,,,,,,,,,,,,,,,,,,,,,,,,,,,,,,,,,,,,,,,,,,,,,,,,,,,,30,,,,,,,,2327.0539910000225,2327.0539910000225,2327.0539910000225,2327.0539910000225,2327.0539910000225,left,1.260904599999776,4,0,0,99,0.15999999999999998,0.08,left,1.1776664999779314,,,,,,,,,,,,,,,,,,,,,,,,,,,,,,,,,,,,,,,,,,,,,,,,,,,,,,,,,,,,GR39LD,train_x,red_square,top_right,2025-07-11_17h40.03.199,HideSeek_v1,2022.2.5,59.8965586365434,
,7,6,2,6,-5,0,66,,train_dim1_1,18,30,,,,2,0,2,0,,,,,,,,,0,0,0,0,0,17,17,17,3,0,3,0,,,,,,,,,,,,,,,,,,,,,,,,,,,,,,,,,,,,,,,,,,,,,,,,,,,,,,,,,,,,,,,,30,,,,,,,,2328.321292800014,2328.321292800014,2328.321292800014,2328.321292800014,2328.321292800014,left,5.647863899997901,4,0,0,99,0.07999999999999997,0.08,left,5.57006860000547,,,,,,,,,,,,,,,,,,,,,,,,,,,,,,,,,,,,,,,,,,,,,,,,,,,,,,,,,,,,GR39LD,train_x,red_square,top_right,2025-07-11_17h40.03.199,HideSeek_v1,2022.2.5,59.8965586365434,
,7,6,2,6,-5,0,66,,train_dim1_1,18,30,,,,2,0,2,0,,,,,,,,,0,0,0,0,0,17,17,17,4,0,4,0,,,,,,,,,,,,,,,,,,,,,,,,,,,,,,,,,,,,,,,,,,,,,,,,,,,,,,,,,,,,,,,,30,,,,,,,,2333.9766175000113,2333.9766175000113,2333.9766175000113,2333.9766175000113,2333.9766175000113,left,1.444173399999272,4,0,0,99,-2.7755575615628914e-17,0.08,left,1.366159900004277,,,,,,,,,,,,,,,,,,,,,,,,,,,,,,,,,,,,,,,,,,,,,,,,,,,,,,,,,,,,GR39LD,train_x,red_square,top_right,2025-07-11_17h40.03.199,HideSeek_v1,2022.2.5,59.8965586365434,
,7,6,2,6,-5,0,66,,train_dim1_1,18,30,,,,2,0,2,0,,,,,,,,,0,0,0,0,0,17,17,17,5,0,5,0,,,,,,,,,,,,,,,,,,,,,,,,,,,,,,,,,,,,,,,,,,,,,,,,,,,,,,,,,,,,,,,,30,,,,,,,,2335.4271042000037,2335.4271042000037,2335.4271042000037,2335.4271042000037,2335.4271042000037,left,2.3449862000124995,4,0,0,99,-0.08000000000000003,0.08,left,2.264562399999704,,,,,,,,,,,,,,,,,,,,,,,,,,,,,,,,,,,,,,,,,,,,,,,,,,,,,,,,,,,,GR39LD,train_x,red_square,top_right,2025-07-11_17h40.03.199,HideSeek_v1,2022.2.5,59.8965586365434,
,7,6,2,6,-5,0,66,,train_dim1_1,18,30,,,,2,0,2,0,,,,,,,,,0,0,0,0,0,17,17,17,6,0,6,0,,,,,,,,,,,,,,,,,,,,,,,,,,,,,,,,,,,,,,,,,,,,,,,,,,,,,,,,,,,,,,,,30,,,,,,,,2337.7789680999995,2337.7789680999995,2337.7789680999995,2337.7789680999995,2337.7789680999995,left,1.3276690999919083,4,0,0,99,-0.16000000000000003,0.08,left,1.245219000003999,,,,,,,,,,,,,,,,,,,,,,,,,,,,,,,,,,,,,,,,,,,,,,,,,,,,,,,,,,,,GR39LD,train_x,red_square,top_right,2025-07-11_17h40.03.199,HideSeek_v1,2022.2.5,59.8965586365434,
,7,6,2,6,-5,0,66,,train_dim1_1,18,30,,,,2,0,2,0,,,,,,,,,0,0,0,0,0,17,17,17,7,0,7,0,,,,,,,,,,,,,,,,,,,,,,,,,,,,,,,,,,,,,,,,,,,,,,,,,,,,,,,,,,,,,,,,30,,,,,,,,2339.113325400016,2339.113325400016,2339.113325400016,2339.113325400016,2339.113325400016,right,1.12703689999762,4,0,0,99,-0.08000000000000003,0.08,right,1.0463965999952052,,,,,,,,,,,,,,,,,,,,,,,,,,,,,,,,,,,,,,,,,,,,,,,,,,,,,,,,,,,,GR39LD,train_x,red_square,top_right,2025-07-11_17h40.03.199,HideSeek_v1,2022.2.5,59.8965586365434,
,7,6,2,6,-5,0,66,,train_dim1_1,18,30,,,,2,0,2,0,,,,,,,,,0,0,0,0,0,17,17,17,8,0,8,0,,,,,,,,,,,,,,,,,,,,,,,,,,,,,,,,,,,,,,,,,,,,,,,,,,,,,,,,,,,,,,,,30,,,,,,,,2340.2475191999984,2340.2475191999984,2340.2475191999984,2340.2475191999984,2340.2475191999984,return,2.0615669999970123,4,1,0,0,-0.08000000000000003,0.08,return,1.9888065000122879,-9,-55,-0.08000000000000003,0.08,,,,,,,,,,,,,,,,,,,,,,,,,,,,,,,,,,,,,,,,,,,,,,,,,,,,,,,,GR39LD,train_x,red_square,top_right,2025-07-11_17h40.03.199,HideSeek_v1,2022.2.5,59.8965586365434,
,5,8,2,8,-3,0,46,,train_dim1_1,19,30,,,,2,0,2,0,,,,,,,,,0,0,0,0,0,18,18,18,0,0,0,0,,,,,,,,,,,,,,,,,,,,,,,,,stimuli/alien_stimuli/46.png,,,,,,,,,,,,,,,,,,,,,,,,,,,,,stimuli/alien_stimuli/66.png,66,7,20,,,,,,,30,,,,,,,,2378.425888800004,2378.425888800004,2378.425888800004,2378.425888800004,2378.425888800004,down,8.413033599994378,4,1,0,99,0.24,0.15999999999999998,down,8.32588499999838,,,,,2376.865151200007,2378.425888800004,0,0.08,0.0,0.4,0.08,0,0.2,0,0.08,2343.893846000021,2343.893846000021,2343.893846000021,2343.893846000021,2343.893846000021,2343.893846000021,2343.893846000021,2343.893846000021,2343.887649639993,33.09627690000343,return,32.95001760000014,,,,,,,,,,,,,,,,,,,,,,,,,,,,,,,,,GR39LD,train_x,red_square,top_right,2025-07-11_17h40.03.199,HideSeek_v1,2022.2.5,59.8965586365434,
,5,8,2,8,-3,0,46,,train_dim1_1,19,30,,,,2,0,2,0,,,,,,,,,0,0,0,0,0,18,18,18,1,0,1,0,,,,,,,,,,,,,,,,,,,,,,,,,,,,,,,,,,,,,,,,,,,,,,,,,,,,,,,,,,,,,,,,30,,,,,,,,2386.8394076999975,2386.8394076999975,2386.8394076999975,2386.8394076999975,2386.8394076999975,left,1.6603721000137739,4,1,0,99,0.15999999999999998,0.15999999999999998,left,1.5700729999807663,,,,,,,,,,,,,,,,,,,,,,,,,,,,,,,,,,,,,,,,,,,,,,,,,,,,,,,,,,,,GR39LD,train_x,red_square,top_right,2025-07-11_17h40.03.199,HideSeek_v1,2022.2.5,59.8965586365434,
,5,8,2,8,-3,0,46,,train_dim1_1,19,30,,,,2,0,2,0,,,,,,,,,0,0,0,0,0,18,18,18,2,0,2,0,,,,,,,,,,,,,,,,,,,,,,,,,,,,,,,,,,,,,,,,,,,,,,,,,,,,,,,,,,,,,,,,30,,,,,,,,2388.5057136999967,2388.5057136999967,2388.5057136999967,2388.5057136999967,2388.5057136999967,up,1.3272774000070058,4,1,0,99,0.15999999999999998,0.24,up,1.2426520000153687,,,,,,,,,,,,,,,,,,,,,,,,,,,,,,,,,,,,,,,,,,,,,,,,,,,,,,,,,,,,GR39LD,train_x,red_square,top_right,2025-07-11_17h40.03.199,HideSeek_v1,2022.2.5,59.8965586365434,
,5,8,2,8,-3,0,46,,train_dim1_1,19,30,,,,2,0,2,0,,,,,,,,,0,0,0,0,0,18,18,18,3,0,3,0,,,,,,,,,,,,,,,,,,,,,,,,,,,,,,,,,,,,,,,,,,,,,,,,,,,,,,,,,,,,,,,,30,,,,,,,,2389.8404477000004,2389.8404477000004,2389.8404477000004,2389.8404477000004,2389.8404477000004,left,2.1612046000082046,4,1,0,99,0.07999999999999997,0.24,left,2.080987199995434,,,,,,,,,,,,,,,,,,,,,,,,,,,,,,,,,,,,,,,,,,,,,,,,,,,,,,,,,,,,GR39LD,train_x,red_square,top_right,2025-07-11_17h40.03.199,HideSeek_v1,2022.2.5,59.8965586365434,
,5,8,2,8,-3,0,46,,train_dim1_1,19,30,,,,2,0,2,0,,,,,,,,,0,0,0,0,0,18,18,18,4,0,4,0,,,,,,,,,,,,,,,,,,,,,,,,,,,,,,,,,,,,,,,,,,,,,,,,,,,,,,,,,,,,,,,,30,,,,,,,,2392.0077920000185,2392.0077920000185,2392.0077920000185,2392.0077920000185,2392.0077920000185,left,0.677005100005772,4,1,0,99,-2.7755575615628914e-17,0.24,left,0.6030954000016209,,,,,,,,,,,,,,,,,,,,,,,,,,,,,,,,,,,,,,,,,,,,,,,,,,,,,,,,,,,,GR39LD,train_x,red_square,top_right,2025-07-11_17h40.03.199,HideSeek_v1,2022.2.5,59.8965586365434,
,5,8,2,8,-3,0,46,,train_dim1_1,19,30,,,,2,0,2,0,,,,,,,,,0,0,0,0,0,18,18,18,5,0,5,0,,,,,,,,,,,,,,,,,,,,,,,,,,,,,,,,,,,,,,,,,,,,,,,,,,,,,,,,,,,,,,,,30,,,,,,,,2392.6911784000113,2392.6911784000113,2392.6911784000113,2392.6911784000113,2392.6911784000113,left,0.7936651000054553,4,1,0,99,-0.08000000000000003,0.24,left,0.7058748000126798,,,,,,,,,,,,,,,,,,,,,,,,,,,,,,,,,,,,,,,,,,,,,,,,,,,,,,,,,,,,GR39LD,train_x,red_square,top_right,2025-07-11_17h40.03.199,HideSeek_v1,2022.2.5,59.8965586365434,
,5,8,2,8,-3,0,46,,train_dim1_1,19,30,,,,2,0,2,0,,,,,,,,,0,0,0,0,0,18,18,18,6,0,6,0,,,,,,,,,,,,,,,,,,,,,,,,,,,,,,,,,,,,,,,,,,,,,,,,,,,,,,,,,,,,,,,,30,,,,,,,,2393.4922189000063,2393.4922189000063,2393.4922189000063,2393.4922189000063,2393.4922189000063,left,0.9607865000143647,4,1,0,99,-0.16000000000000003,0.24,left,0.8831537000078242,,,,,,,,,,,,,,,,,,,,,,,,,,,,,,,,,,,,,,,,,,,,,,,,,,,,,,,,,,,,GR39LD,train_x,red_square,top_right,2025-07-11_17h40.03.199,HideSeek_v1,2022.2.5,59.8965586365434,
,5,8,2,8,-3,0,46,,train_dim1_1,19,30,,,,2,0,2,0,,,,,,,,,0,0,0,0,0,18,18,18,7,0,7,0,,,,,,,,,,,,,,,,,,,,,,,,,,,,,,,,,,,,,,,,,,,,,,,,,,,,,,,,,,,,,,,,30,,,,,,,,2394.4593391000235,2394.4593391000235,2394.4593391000235,2394.4593391000235,2394.4593391000235,return,1.2608208000019658,4,0,0,0,-0.16000000000000003,0.24,return,1.18053990000044,-9,-60,-0.16000000000000003,0.24,,,,,,,,,,,,,,,,,,,,,,,,,,,,,,,,,,,,,,,,,,,,,,,,,,,,,,,,GR39LD,train_x,red_square,top_right,2025-07-11_17h40.03.199,HideSeek_v1,2022.2.5,59.8965586365434,
,5,6,5,6,0,0,16,,train_dim1_1,20,30,,,,2,0,2,0,,,,,,,,,0,0,0,0,0,19,19,19,0,0,0,0,,,,,,,,,,,,,,,,,,,,,,,,,stimuli/alien_stimuli/16.png,,,,,,,,,,,,,,,,,,,,,,,,,,,,,stimuli/alien_stimuli/46.png,46,5,21,,,,,,,30,,,,,,,,2406.8505335000227,2406.8505335000227,2406.8505335000227,2406.8505335000227,2406.8505335000227,return,3.29155449999962,5,0,0,1,0.24,0.08,return,3.1936270000005607,-9,-60,0.24,0.08,2405.288842800015,2406.8505335000227,0,0.24,0.0,0.24,0.24,0,0.12,0,0.24,2397.3015730000043,2397.3015730000043,2397.3015730000043,2397.3015730000043,2397.3015730000043,2397.3015730000043,2397.3015730000043,2397.3015730000043,2397.282092609993,8.10918010000023,return,7.9554676999978255,,,,,,,,,,,,,,,,,,,,,,,,,,,,,,,,,GR39LD,train_x,red_square,top_right,2025-07-11_17h40.03.199,HideSeek_v1,2022.2.5,59.8965586365434,
,9,7,6,7,-3,0,46,,train_dim1_1,21,30,,,,2,0,2,0,,,,,,,,,0,0,0,0,0,20,20,20,0,0,0,0,,,,,,,,,,,,,,,,,,,,,,,,,stimuli/alien_stimuli/46.png,,,,,,,,,,,,,,,,,,,,,,,,,,,,,stimuli/alien_stimuli/16.png,16,5,22,,,,,,,30,,,,,,,,2416.671279800008,2416.671279800008,2416.671279800008,2416.671279800008,2416.671279800008,left,3.408385500020813,5,0,0,99,0.48000000000000004,0.16,left,3.3192070000222884,,,,,2415.113711700018,2416.671279800008,0.24,0.08,0.0,0.0,0.08,0.24,0.24,0.24,0.08,2411.7208733000152,2411.7208733000152,2411.7208733000152,2411.7208733000152,2411.7208733000152,2411.7208733000152,2411.7208733000152,2411.7208733000152,2411.7109135399983,3.521954399999231,return,3.370345899980748,,,,,,,,,,,,,,,,,,,,,,,,,,,,,,,,,GR39LD,train_x,red_square,top_right,2025-07-11_17h40.03.199,HideSeek_v1,2022.2.5,59.8965586365434,
,9,7,6,7,-3,0,46,,train_dim1_1,21,30,,,,2,0,2,0,,,,,,,,,0,0,0,0,0,20,20,20,1,0,1,0,,,,,,,,,,,,,,,,,,,,,,,,,,,,,,,,,,,,,,,,,,,,,,,,,,,,,,,,,,,,,,,,30,,,,,,,,2420.0815485000203,2420.0815485000203,2420.0815485000203,2420.0815485000203,2420.0815485000203,left,0.5431722000066657,5,0,0,99,0.4,0.16,left,0.4654154000163544,,,,,,,,,,,,,,,,,,,,,,,,,,,,,,,,,,,,,,,,,,,,,,,,,,,,,,,,,,,,GR39LD,train_x,red_square,top_right,2025-07-11_17h40.03.199,HideSeek_v1,2022.2.5,59.8965586365434,
,9,7,6,7,-3,0,46,,train_dim1_1,21,30,,,,2,0,2,0,,,,,,,,,0,0,0,0,0,20,20,20,2,0,2,0,,,,,,,,,,,,,,,,,,,,,,,,,,,,,,,,,,,,,,,,,,,,,,,,,,,,,,,,,,,,,,,,30,,,,,,,,2420.6313165000174,2420.6313165000174,2420.6313165000174,2420.6313165000174,2420.6313165000174,left,0.927047599980142,5,0,0,99,0.32,0.16,left,0.8476814000168815,,,,,,,,,,,,,,,,,,,,,,,,,,,,,,,,,,,,,,,,,,,,,,,,,,,,,,,,,,,,GR39LD,train_x,red_square,top_right,2025-07-11_17h40.03.199,HideSeek_v1,2022.2.5,59.8965586365434,
,9,7,6,7,-3,0,46,,train_dim1_1,21,30,,,,2,0,2,0,,,,,,,,,0,0,0,0,0,20,20,20,3,0,3,0,,,,,,,,,,,,,,,,,,,,,,,,,,,,,,,,,,,,,,,,,,,,,,,,,,,,,,,,,,,,,,,,30,,,,,,,,2421.565670700016,2421.565670700016,2421.565670700016,2421.565670700016,2421.565670700016,return,2.1115491000236943,6,0,0,1,0.32,0.16,return,2.029827499995008,-9,-63,0.32,0.16,,,,,,,,,,,,,,,,,,,,,,,,,,,,,,,,,,,,,,,,,,,,,,,,,,,,,,,,GR39LD,train_x,red_square,top_right,2025-07-11_17h40.03.199,HideSeek_v1,2022.2.5,59.8965586365434,
,6,5,5,5,-1,0,26,,train_dim1_1,22,30,,,,2,0,2,0,,,,,,,,,0,0,0,0,0,21,21,21,0,0,0,0,,,,,,,,,,,,,,,,,,,,,,,,,stimuli/alien_stimuli/26.png,,,,,,,,,,,,,,,,,,,,,,,,,,,,,stimuli/alien_stimuli/46.png,46,9,23,,,,,,,30,,,,,,,,2431.722533699998,2431.722533699998,2431.722533699998,2431.722533699998,2431.722533699998,left,8.044714600022417,6,0,0,99,0.24,0,left,7.948309800005518,,,,,2430.1596196000173,2431.722533699998,0.32,0.16,0.0,0.24,0.16,0.32,0.44000000000000006,0.32,0.16,2425.2564486000047,2425.2564486000047,2425.2564486000047,2425.2564486000047,2425.2564486000047,2425.2564486000047,2425.2564486000047,2425.2564486000047,2425.238689810006,5.022870900022099,return,4.870766100008041,,,,,,,,,,,,,,,,,,,,,,,,,,,,,,,,,GR39LD,train_x,red_square,top_right,2025-07-11_17h40.03.199,HideSeek_v1,2022.2.5,59.8965586365434,
,6,5,5,5,-1,0,26,,train_dim1_1,22,30,,,,2,0,2,0,,,,,,,,,0,0,0,0,0,21,21,21,1,0,1,0,,,,,,,,,,,,,,,,,,,,,,,,,,,,,,,,,,,,,,,,,,,,,,,,,,,,,,,,,,,,,,,,30,,,,,,,,2439.7695379000215,2439.7695379000215,2439.7695379000215,2439.7695379000215,2439.7695379000215,left,0.4262768999906257,6,0,0,99,0.15999999999999998,0,left,0.33444569999119267,,,,,,,,,,,,,,,,,,,,,,,,,,,,,,,,,,,,,,,,,,,,,,,,,,,,,,,,,,,,GR39LD,train_x,red_square,top_right,2025-07-11_17h40.03.199,HideSeek_v1,2022.2.5,59.8965586365434,
,6,5,5,5,-1,0,26,,train_dim1_1,22,30,,,,2,0,2,0,,,,,,,,,0,0,0,0,0,21,21,21,2,0,2,0,,,,,,,,,,,,,,,,,,,,,,,,,,,,,,,,,,,,,,,,,,,,,,,,,,,,,,,,,,,,,,,,30,,,,,,,,2440.2024445999996,2440.2024445999996,2440.2024445999996,2440.2024445999996,2440.2024445999996,return,0.3769163999822922,6,1,0,0,0.15999999999999998,0,return,0.30013570000301115,-9,-65,0.15999999999999998,0,,,,,,,,,,,,,,,,,,,,,,,,,,,,,,,,,,,,,,,,,,,,,,,,,,,,,,,,GR39LD,train_x,red_square,top_right,2025-07-11_17h40.03.199,HideSeek_v1,2022.2.5,59.8965586365434,
,7,6,2,6,-5,0,66,,train_dim1_1,23,30,,,,2,0,2,0,,,,,,,,,0,0,0,0,0,22,22,22,0,0,0,0,,,,,,,,,,,,,,,,,,,,,,,,,stimuli/alien_stimuli/66.png,,,,,,,,,,,,,,,,,,,,,,,,,,,,,stimuli/alien_stimuli/26.png,26,6,24,,,,,,,30,,,,,,,,2445.6488713000144,2445.6488713000144,2445.6488713000144,2445.6488713000144,2445.6488713000144,left,3.4752831000078004,6,1,0,99,0.32,0.08,left,3.3649053999979515,,,,,2444.0709022000083,2445.6488713000144,0.24,0,0.0,0.08,0.0,0.24,0.28,0.24,0,2442.167658200022,2442.167658200022,2442.167658200022,2442.167658200022,2442.167658200022,2442.167658200022,2442.167658200022,2442.167658200022,2442.153064439993,2.0367006000014953,return,1.8840091000020038,,,,,,,,,,,,,,,,,,,,,,,,,,,,,,,,,GR39LD,train_x,red_square,top_right,2025-07-11_17h40.03.199,HideSeek_v1,2022.2.5,59.8965586365434,
,7,6,2,6,-5,0,66,,train_dim1_1,23,30,,,,2,0,2,0,,,,,,,,,0,0,0,0,0,22,22,22,1,0,1,0,,,,,,,,,,,,,,,,,,,,,,,,,,,,,,,,,,,,,,,,,,,,,,,,,,,,,,,,,,,,,,,,30,,,,,,,,2449.1067139000224,2449.1067139000224,2449.1067139000224,2449.1067139000224,2449.1067139000224,left,0.44214719999581575,6,1,0,99,0.24,0.08,left,0.3645546000043396,,,,,,,,,,,,,,,,,,,,,,,,,,,,,,,,,,,,,,,,,,,,,,,,,,,,,,,,,,,,GR39LD,train_x,red_square,top_right,2025-07-11_17h40.03.199,HideSeek_v1,2022.2.5,59.8965586365434,
,7,6,2,6,-5,0,66,,train_dim1_1,23,30,,,,2,0,2,0,,,,,,,,,0,0,0,0,0,22,22,22,2,0,2,0,,,,,,,,,,,,,,,,,,,,,,,,,,,,,,,,,,,,,,,,,,,,,,,,,,,,,,,,,,,,,,,,30,,,,,,,,2449.5556336000154,2449.5556336000154,2449.5556336000154,2449.5556336000154,2449.5556336000154,left,0.47640559999854304,6,1,0,99,0.15999999999999998,0.08,left,0.4001064000185579,,,,,,,,,,,,,,,,,,,,,,,,,,,,,,,,,,,,,,,,,,,,,,,,,,,,,,,,,,,,GR39LD,train_x,red_square,top_right,2025-07-11_17h40.03.199,HideSeek_v1,2022.2.5,59.8965586365434,
,7,6,2,6,-5,0,66,,train_dim1_1,23,30,,,,2,0,2,0,,,,,,,,,0,0,0,0,0,22,22,22,3,0,3,0,,,,,,,,,,,,,,,,,,,,,,,,,,,,,,,,,,,,,,,,,,,,,,,,,,,,,,,,,,,,,,,,30,,,,,,,,2450.038846100011,2450.038846100011,2450.038846100011,2450.038846100011,2450.038846100011,left,0.52674199998728,6,1,0,99,0.07999999999999997,0.08,left,0.4508323000045493,,,,,,,,,,,,,,,,,,,,,,,,,,,,,,,,,,,,,,,,,,,,,,,,,,,,,,,,,,,,GR39LD,train_x,red_square,top_right,2025-07-11_17h40.03.199,HideSeek_v1,2022.2.5,59.8965586365434,
,7,6,2,6,-5,0,66,,train_dim1_1,23,30,,,,2,0,2,0,,,,,,,,,0,0,0,0,0,22,22,22,4,0,4,0,,,,,,,,,,,,,,,,,,,,,,,,,,,,,,,,,,,,,,,,,,,,,,,,,,,,,,,,,,,,,,,,30,,,,,,,,2450.572975500021,2450.572975500021,2450.572975500021,2450.572975500021,2450.572975500021,left,0.7269091000198387,6,1,0,99,-2.7755575615628914e-17,0.08,left,0.6454265000065789,,,,,,,,,,,,,,,,,,,,,,,,,,,,,,,,,,,,,,,,,,,,,,,,,,,,,,,,,,,,GR39LD,train_x,red_square,top_right,2025-07-11_17h40.03.199,HideSeek_v1,2022.2.5,59.8965586365434,
,7,6,2,6,-5,0,66,,train_dim1_1,23,30,,,,2,0,2,0,,,,,,,,,0,0,0,0,0,22,22,22,5,0,5,0,,,,,,,,,,,,,,,,,,,,,,,,,,,,,,,,,,,,,,,,,,,,,,,,,,,,,,,,,,,,,,,,30,,,,,,,,2451.3084200000158,2451.3084200000158,2451.3084200000158,2451.3084200000158,2451.3084200000158,left,7.14908010000363,6,1,0,99,-0.08000000000000003,0.08,left,7.0616855999978725,,,,,,,,,,,,,,,,,,,,,,,,,,,,,,,,,,,,,,,,,,,,,,,,,,,,,,,,,,,,GR39LD,train_x,red_square,top_right,2025-07-11_17h40.03.199,HideSeek_v1,2022.2.5,59.8965586365434,
,7,6,2,6,-5,0,66,,train_dim1_1,23,30,,,,2,0,2,0,,,,,,,,,0,0,0,0,0,22,22,22,6,0,6,0,,,,,,,,,,,,,,,,,,,,,,,,,,,,,,,,,,,,,,,,,,,,,,,,,,,,,,,,,,,,,,,,30,,,,,,,,2458.4712656000047,2458.4712656000047,2458.4712656000047,2458.4712656000047,2458.4712656000047,left,0.25964450000901707,6,1,0,99,-0.16000000000000003,0.08,left,0.1787862000055611,,,,,,,,,,,,,,,,,,,,,,,,,,,,,,,,,,,,,,,,,,,,,,,,,,,,,,,,,,,,GR39LD,train_x,red_square,top_right,2025-07-11_17h40.03.199,HideSeek_v1,2022.2.5,59.8965586365434,
,7,6,2,6,-5,0,66,,train_dim1_1,23,30,,,,2,0,2,0,,,,,,,,,0,0,0,0,0,22,22,22,7,0,7,0,,,,,,,,,,,,,,,,,,,,,,,,,,,,,,,,,,,,,,,,,,,,,,,,,,,,,,,,,,,,,,,,30,,,,,,,,2458.7306772000156,2458.7306772000156,2458.7306772000156,2458.7306772000156,2458.7306772000156,return,3.179115399980219,6,0,0,0,-0.16000000000000003,0.08,return,3.094559899996966,-9,-72,-0.16000000000000003,0.08,,,,,,,,,,,,,,,,,,,,,,,,,,,,,,,,,,,,,,,,,,,,,,,,,,,,,,,,GR39LD,train_x,red_square,top_right,2025-07-11_17h40.03.199,HideSeek_v1,2022.2.5,59.8965586365434,
,9,9,5,9,-4,0,56,,train_dim1_1,24,30,,,,2,0,2,0,,,,,,,,,0,0,0,0,0,23,23,23,0,0,0,0,,,,,,,,,,,,,,,,,,,,,,,,,stimuli/alien_stimuli/56.png,,,,,,,,,,,,,,,,,,,,,,,,,,,,,stimuli/alien_stimuli/66.png,66,7,25,,,,,,,30,,,,,,,,2476.8773614999955,2476.8773614999955,2476.8773614999955,2476.8773614999955,2476.8773614999955,left,4.008115300006466,6,0,0,99,0.48000000000000004,0.32,left,3.9191369999898598,,,,,2475.313694600016,2476.8773614999955,0,0.08,0.0,0.4,0.08,0,0.2,0,0.08,2463.493828900013,2463.493828900013,2463.493828900013,2463.493828900013,2463.493828900013,2463.493828900013,2463.493828900013,2463.493828900013,2463.470662809993,11.945455600012792,return,11.789067500008969,,,,,,,,,,,,,,,,,,,,,,,,,,,,,,,,,GR39LD,train_x,red_square,top_right,2025-07-11_17h40.03.199,HideSeek_v1,2022.2.5,59.8965586365434,
,9,9,5,9,-4,0,56,,train_dim1_1,24,30,,,,2,0,2,0,,,,,,,,,0,0,0,0,0,23,23,23,1,0,1,0,,,,,,,,,,,,,,,,,,,,,,,,,,,,,,,,,,,,,,,,,,,,,,,,,,,,,,,,,,,,,,,,30,,,,,,,,2480.8836330000195,2480.8836330000195,2480.8836330000195,2480.8836330000195,2480.8836330000195,left,1.744287199981045,6,0,0,99,0.4,0.32,left,1.6624249999877065,,,,,,,,,,,,,,,,,,,,,,,,,,,,,,,,,,,,,,,,,,,,,,,,,,,,,,,,,,,,GR39LD,train_x,red_square,top_right,2025-07-11_17h40.03.199,HideSeek_v1,2022.2.5,59.8965586365434,
,9,9,5,9,-4,0,56,,train_dim1_1,24,30,,,,2,0,2,0,,,,,,,,,0,0,0,0,0,23,23,23,2,0,2,0,,,,,,,,,,,,,,,,,,,,,,,,,,,,,,,,,,,,,,,,,,,,,,,,,,,,,,,,,,,,,,,,30,,,,,,,,2482.6357651000144,2482.6357651000144,2482.6357651000144,2482.6357651000144,2482.6357651000144,left,1.127361299993936,6,0,0,99,0.32,0.32,left,1.0470583999995142,,,,,,,,,,,,,,,,,,,,,,,,,,,,,,,,,,,,,,,,,,,,,,,,,,,,,,,,,,,,GR39LD,train_x,red_square,top_right,2025-07-11_17h40.03.199,HideSeek_v1,2022.2.5,59.8965586365434,
,9,9,5,9,-4,0,56,,train_dim1_1,24,30,,,,2,0,2,0,,,,,,,,,0,0,0,0,0,23,23,23,3,0,3,0,,,,,,,,,,,,,,,,,,,,,,,,,,,,,,,,,,,,,,,,,,,,,,,,,,,,,,,,,,,,,,,,30,,,,,,,,2483.7709765000036,2483.7709765000036,2483.7709765000036,2483.7709765000036,2483.7709765000036,return,3.0455465000122786,6,1,0,0,0.32,0.32,return,2.9535379000008106,-9,-75,0.32,0.32,,,,,,,,,,,,,,,,,,,,,,,,,,,,,,,,,,,,,,,,,,,,,,,,,,,,,,,,GR39LD,train_x,red_square,top_right,2025-07-11_17h40.03.199,HideSeek_v1,2022.2.5,59.8965586365434,
,8,5,8,5,0,0,16,,train_dim1_1,25,30,,,,2,0,2,0,,,,,,,,,0,0,0,0,0,24,24,24,0,0,0,0,,,,,,,,,,,,,,,,,,,,,,,,,stimuli/alien_stimuli/16.png,,,,,,,,,,,,,,,,,,,,,,,,,,,,,stimuli/alien_stimuli/56.png,56,9,26,,,,,,,30,,,,,,,,2495.240830099996,2495.240830099996,2495.240830099996,2495.240830099996,2495.240830099996,return,2.958047699998133,7,0,0,1,0.48,0,return,2.8619468999968376,-9,-75,0.48,0,2493.678945200023,2495.240830099996,0.24,0.32,0.0,0.32,0.32,0.24,0.4,0.24,0.32,2488.398738100019,2488.398738100019,2488.398738100019,2488.398738100019,2488.398738100019,2488.398738100019,2488.398738100019,2488.398738100019,2488.3914074399977,5.406780599994818,return,5.259381000010762,,,,,,,,,,,,,,,,,,,,,,,,,,,,,,,,,GR39LD,train_x,red_square,top_right,2025-07-11_17h40.03.199,HideSeek_v1,2022.2.5,59.8965586365434,
,6,6,1,6,-5,0,66,,train_dim1_1,26,30,,,,2,0,2,0,,,,,,,,,0,0,0,0,0,25,25,25,0,0,0,0,,,,,,,,,,,,,,,,,,,,,,,,,stimuli/alien_stimuli/66.png,,,,,,,,,,,,,,,,,,,,,,,,,,,,,stimuli/alien_stimuli/16.png,16,8,27,,,,,,,30,,,,,,,,2504.2952364000084,2504.2952364000084,2504.2952364000084,2504.2952364000084,2504.2952364000084,left,3.591026900016004,7,0,0,99,0.24,0.08,left,3.497849400009727,,,,,2502.7365338999953,2504.2952364000084,0.48,0,0.0,0.0,0.0,0.48,0.48,0.48,0,2499.777830200008,2499.777830200008,2499.777830200008,2499.777830200008,2499.777830200008,2499.777830200008,2499.777830200008,2499.777830200008,2499.7674015400003,3.088068499986548,return,2.93698040000163,,,,,,,,,,,,,,,,,,,,,,,,,,,,,,,,,GR39LD,train_x,red_square,top_right,2025-07-11_17h40.03.199,HideSeek_v1,2022.2.5,59.8965586365434,
,6,6,1,6,-5,0,66,,train_dim1_1,26,30,,,,2,0,2,0,,,,,,,,,0,0,0,0,0,25,25,25,1,0,1,0,,,,,,,,,,,,,,,,,,,,,,,,,,,,,,,,,,,,,,,,,,,,,,,,,,,,,,,,,,,,,,,,30,,,,,,,,2507.8871403000085,2507.8871403000085,2507.8871403000085,2507.8871403000085,2507.8871403000085,left,0.759913099987898,7,0,0,99,0.15999999999999998,0.08,left,0.6850528999930248,,,,,,,,,,,,,,,,,,,,,,,,,,,,,,,,,,,,,,,,,,,,,,,,,,,,,,,,,,,,GR39LD,train_x,red_square,top_right,2025-07-11_17h40.03.199,HideSeek_v1,2022.2.5,59.8965586365434,
,6,6,1,6,-5,0,66,,train_dim1_1,26,30,,,,2,0,2,0,,,,,,,,,0,0,0,0,0,25,25,25,2,0,2,0,,,,,,,,,,,,,,,,,,,,,,,,,,,,,,,,,,,,,,,,,,,,,,,,,,,,,,,,,,,,,,,,30,,,,,,,,2508.6556913999957,2508.6556913999957,2508.6556913999957,2508.6556913999957,2508.6556913999957,left,0.7768767999950796,7,0,0,99,0.07999999999999997,0.08,left,0.6964467000216246,,,,,,,,,,,,,,,,,,,,,,,,,,,,,,,,,,,,,,,,,,,,,,,,,,,,,,,,,,,,GR39LD,train_x,red_square,top_right,2025-07-11_17h40.03.199,HideSeek_v1,2022.2.5,59.8965586365434,
,6,6,1,6,-5,0,66,,train_dim1_1,26,30,,,,2,0,2,0,,,,,,,,,0,0,0,0,0,25,25,25,3,0,3,0,,,,,,,,,,,,,,,,,,,,,,,,,,,,,,,,,,,,,,,,,,,,,,,,,,,,,,,,,,,,,,,,30,,,,,,,,2509.4380779000057,2509.4380779000057,2509.4380779000057,2509.4380779000057,2509.4380779000057,left,0.7103905999974813,7,0,0,99,-2.7755575615628914e-17,0.08,left,0.6376784000021871,,,,,,,,,,,,,,,,,,,,,,,,,,,,,,,,,,,,,,,,,,,,,,,,,,,,,,,,,,,,GR39LD,train_x,red_square,top_right,2025-07-11_17h40.03.199,HideSeek_v1,2022.2.5,59.8965586365434,
,6,6,1,6,-5,0,66,,train_dim1_1,26,30,,,,2,0,2,0,,,,,,,,,0,0,0,0,0,25,25,25,4,0,4,0,,,,,,,,,,,,,,,,,,,,,,,,,,,,,,,,,,,,,,,,,,,,,,,,,,,,,,,,,,,,,,,,30,,,,,,,,2510.1567409000127,2510.1567409000127,2510.1567409000127,2510.1567409000127,2510.1567409000127,left,1.043264600011753,7,0,0,99,-0.08000000000000003,0.08,left,0.967801499995403,,,,,,,,,,,,,,,,,,,,,,,,,,,,,,,,,,,,,,,,,,,,,,,,,,,,,,,,,,,,GR39LD,train_x,red_square,top_right,2025-07-11_17h40.03.199,HideSeek_v1,2022.2.5,59.8965586365434,
,6,6,1,6,-5,0,66,,train_dim1_1,26,30,,,,2,0,2,0,,,,,,,,,0,0,0,0,0,25,25,25,5,0,5,0,,,,,,,,,,,,,,,,,,,,,,,,,,,,,,,,,,,,,,,,,,,,,,,,,,,,,,,,,,,,,,,,30,,,,,,,,2511.2063284000033,2511.2063284000033,2511.2063284000033,2511.2063284000033,2511.2063284000033,left,0.8438321999856271,7,0,0,99,-0.16000000000000003,0.08,left,0.7677840999967884,,,,,,,,,,,,,,,,,,,,,,,,,,,,,,,,,,,,,,,,,,,,,,,,,,,,,,,,,,,,GR39LD,train_x,red_square,top_right,2025-07-11_17h40.03.199,HideSeek_v1,2022.2.5,59.8965586365434,
,6,6,1,6,-5,0,66,,train_dim1_1,26,30,,,,2,0,2,0,,,,,,,,,0,0,0,0,0,25,25,25,6,0,6,0,,,,,,,,,,,,,,,,,,,,,,,,,,,,,,,,,,,,,,,,,,,,,,,,,,,,,,,,,,,,,,,,30,,,,,,,,2512.0569565000187,2512.0569565000187,2512.0569565000187,2512.0569565000187,2512.0569565000187,right,3.2289747999748215,7,0,0,99,-0.08000000000000003,0.08,right,3.1522635000001173,,,,,,,,,,,,,,,,,,,,,,,,,,,,,,,,,,,,,,,,,,,,,,,,,,,,,,,,,,,,GR39LD,train_x,red_square,top_right,2025-07-11_17h40.03.199,HideSeek_v1,2022.2.5,59.8965586365434,
,6,6,1,6,-5,0,66,,train_dim1_1,26,30,,,,2,0,2,0,,,,,,,,,0,0,0,0,0,25,25,25,7,0,7,0,,,,,,,,,,,,,,,,,,,,,,,,,,,,,,,,,,,,,,,,,,,,,,,,,,,,,,,,,,,,,,,,30,,,,,,,,2515.293998100009,2515.293998100009,2515.293998100009,2515.293998100009,2515.293998100009,return,1.0939470000157598,8,0,0,1,-0.08000000000000003,0.08,return,1.0090137000079267,-9,-80,-0.08000000000000003,0.08,,,,,,,,,,,,,,,,,,,,,,,,,,,,,,,,,,,,,,,,,,,,,,,,,,,,,,,,GR39LD,train_x,red_square,top_right,2025-07-11_17h40.03.199,HideSeek_v1,2022.2.5,59.8965586365434,
,5,6,2,6,-3,0,46,,train_dim1_1,27,30,,,,2,0,2,0,,,,,,,,,0,0,0,0,0,26,26,26,0,0,0,0,,,,,,,,,,,,,,,,,,,,,,,,,stimuli/alien_stimuli/46.png,,,,,,,,,,,,,,,,,,,,,,,,,,,,,stimuli/alien_stimuli/66.png,66,6,28,,,,,,,30,,,,,,,,2522.0579340000113,2522.0579340000113,2522.0579340000113,2522.0579340000113,2522.0579340000113,left,7.528534400014905,8,0,0,99,0.15999999999999998,0.08,left,7.429234099981841,,,,,2520.484723200003,2522.0579340000113,-0.08,0.08,0.0,0.4,0.08,-0.08,0.12,-0.08,0.08,2517.9699945000175,2517.9699945000175,2517.9699945000175,2517.9699945000175,2517.9699945000175,2517.9699945000175,2517.9699945000175,2517.9699945000175,2517.949274109994,2.6379239000089,return,2.4959300000045914,,,,,,,,,,,,,,,,,,,,,,,,,,,,,,,,,GR39LD,train_x,red_square,top_right,2025-07-11_17h40.03.199,HideSeek_v1,2022.2.5,59.8965586365434,
,5,6,2,6,-3,0,46,,train_dim1_1,27,30,,,,2,0,2,0,,,,,,,,,0,0,0,0,0,26,26,26,1,0,1,0,,,,,,,,,,,,,,,,,,,,,,,,,,,,,,,,,,,,,,,,,,,,,,,,,,,,,,,,,,,,,,,,30,,,,,,,,2529.573644899996,2529.573644899996,2529.573644899996,2529.573644899996,2529.573644899996,left,0.44309870002325624,8,0,0,99,0.07999999999999997,0.08,left,0.35670579998986796,,,,,,,,,,,,,,,,,,,,,,,,,,,,,,,,,,,,,,,,,,,,,,,,,,,,,,,,,,,,GR39LD,train_x,red_square,top_right,2025-07-11_17h40.03.199,HideSeek_v1,2022.2.5,59.8965586365434,
,5,6,2,6,-3,0,46,,train_dim1_1,27,30,,,,2,0,2,0,,,,,,,,,0,0,0,0,0,26,26,26,2,0,2,0,,,,,,,,,,,,,,,,,,,,,,,,,,,,,,,,,,,,,,,,,,,,,,,,,,,,,,,,,,,,,,,,30,,,,,,,,2530.0241316000174,2530.0241316000174,2530.0241316000174,2530.0241316000174,2530.0241316000174,left,0.8436152999929618,8,0,0,99,-2.7755575615628914e-17,0.08,left,0.7557058999955188,,,,,,,,,,,,,,,,,,,,,,,,,,,,,,,,,,,,,,,,,,,,,,,,,,,,,,,,,,,,GR39LD,train_x,red_square,top_right,2025-07-11_17h40.03.199,HideSeek_v1,2022.2.5,59.8965586365434,
,5,6,2,6,-3,0,46,,train_dim1_1,27,30,,,,2,0,2,0,,,,,,,,,0,0,0,0,0,26,26,26,3,0,3,0,,,,,,,,,,,,,,,,,,,,,,,,,,,,,,,,,,,,,,,,,,,,,,,,,,,,,,,,,,,,,,,,30,,,,,,,,2530.8740151000093,2530.8740151000093,2530.8740151000093,2530.8740151000093,2530.8740151000093,left,0.6434125000087079,8,0,0,99,-0.08000000000000003,0.08,left,0.5644247000163887,,,,,,,,,,,,,,,,,,,,,,,,,,,,,,,,,,,,,,,,,,,,,,,,,,,,,,,,,,,,GR39LD,train_x,red_square,top_right,2025-07-11_17h40.03.199,HideSeek_v1,2022.2.5,59.8965586365434,
,5,6,2,6,-3,0,46,,train_dim1_1,27,30,,,,2,0,2,0,,,,,,,,,0,0,0,0,0,26,26,26,4,0,4,0,,,,,,,,,,,,,,,,,,,,,,,,,,,,,,,,,,,,,,,,,,,,,,,,,,,,,,,,,,,,,,,,30,,,,,,,,2531.523908000003,2531.523908000003,2531.523908000003,2531.523908000003,2531.523908000003,return,0.6769462999945972,8,1,0,0,-0.08000000000000003,0.08,return,0.5916252000024542,-9,-84,-0.08000000000000003,0.08,,,,,,,,,,,,,,,,,,,,,,,,,,,,,,,,,,,,,,,,,,,,,,,,,,,,,,,,GR39LD,train_x,red_square,top_right,2025-07-11_17h40.03.199,HideSeek_v1,2022.2.5,59.8965586365434,
,8,6,7,6,-1,0,26,,train_dim1_1,28,30,,,,2,0,2,0,,,,,,,,,0,0,0,0,0,27,27,27,0,0,0,0,,,,,,,,,,,,,,,,,,,,,,,,,stimuli/alien_stimuli/26.png,,,,,,,,,,,,,,,,,,,,,,,,,,,,,stimuli/alien_stimuli/46.png,46,5,29,,,,,,,30,,,,,,,,2541.230128199997,2541.230128199997,2541.230128199997,2541.230128199997,2541.230128199997,left,4.942447599984007,8,1,0,99,0.39999999999999997,0.08,left,4.85164559999248,,,,,2539.6671219000127,2541.230128199997,0,0.08,0.0,0.24,0.08,0,0.12,0,0.08,2533.782398600015,2533.782398600015,2533.782398600015,2533.782398600015,2533.782398600015,2533.782398600015,2533.782398600015,2533.782398600015,2533.7623694099866,6.007213400007458,return,5.854404600017006,,,,,,,,,,,,,,,,,,,,,,,,,,,,,,,,,GR39LD,train_x,red_square,top_right,2025-07-11_17h40.03.199,HideSeek_v1,2022.2.5,59.8965586365434,
,8,6,7,6,-1,0,26,,train_dim1_1,28,30,,,,2,0,2,0,,,,,,,,,0,0,0,0,0,27,27,27,1,0,1,0,,,,,,,,,,,,,,,,,,,,,,,,,,,,,,,,,,,,,,,,,,,,,,,,,,,,,,,,,,,,,,,,30,,,,,,,,2546.1750751000072,2546.1750751000072,2546.1750751000072,2546.1750751000072,2546.1750751000072,return,0.543177800020203,9,0,0,1,0.39999999999999997,0.08,return,0.4611827000044286,-9,-85,0.39999999999999997,0.08,,,,,,,,,,,,,,,,,,,,,,,,,,,,,,,,,,,,,,,,,,,,,,,,,,,,,,,,GR39LD,train_x,red_square,top_right,2025-07-11_17h40.03.199,HideSeek_v1,2022.2.5,59.8965586365434,
,9,5,5,5,-4,0,56,,train_dim1_1,29,30,,,,2,0,2,0,,,,,,,,,0,0,0,0,0,28,28,28,0,0,0,0,,,,,,,,,,,,,,,,,,,,,,,,,stimuli/alien_stimuli/56.png,,,,,,,,,,,,,,,,,,,,,,,,,,,,,stimuli/alien_stimuli/26.png,26,8,30,,,,,,,30,,,,,,,,2552.8370916999993,2552.8370916999993,2552.8370916999993,2552.8370916999993,2552.8370916999993,left,6.644911499985028,9,0,0,99,0.48000000000000004,0,left,6.563215999980457,,,,,2551.2770628000144,2552.8370916999993,0.4,0.08,0.0,0.08,0.08,0.4,0.44,0.4,0.08,2548.2985237000103,2548.2985237000103,2548.2985237000103,2548.2985237000103,2548.2985237000103,2548.2985237000103,2548.2985237000103,2548.2985237000103,2548.2912438399976,3.1044187000079546,return,2.9523840000038035,,,,,,,,,,,,,,,,,,,,,,,,,,,,,,,,,GR39LD,train_x,red_square,top_right,2025-07-11_17h40.03.199,HideSeek_v1,2022.2.5,59.8965586365434,
,9,5,5,5,-4,0,56,,train_dim1_1,29,30,,,,2,0,2,0,,,,,,,,,0,0,0,0,0,28,28,28,1,0,1,0,,,,,,,,,,,,,,,,,,,,,,,,,,,,,,,,,,,,,,,,,,,,,,,,,,,,,,,,,,,,,,,,30,,,,,,,,2559.485261499998,2559.485261499998,2559.485261499998,2559.485261499998,2559.485261499998,left,0.5093156000075396,9,0,0,99,0.4,0,left,0.41857849998632446,,,,,,,,,,,,,,,,,,,,,,,,,,,,,,,,,,,,,,,,,,,,,,,,,,,,,,,,,,,,GR39LD,train_x,red_square,top_right,2025-07-11_17h40.03.199,HideSeek_v1,2022.2.5,59.8965586365434,
,9,5,5,5,-4,0,56,,train_dim1_1,29,30,,,,2,0,2,0,,,,,,,,,0,0,0,0,0,28,28,28,2,0,2,0,,,,,,,,,,,,,,,,,,,,,,,,,,,,,,,,,,,,,,,,,,,,,,,,,,,,,,,,,,,,,,,,30,,,,,,,,2560.000484999997,2560.000484999997,2560.000484999997,2560.000484999997,2560.000484999997,left,0.5603247000253759,9,0,0,99,0.32,0,left,0.4848870999994688,,,,,,,,,,,,,,,,,,,,,,,,,,,,,,,,,,,,,,,,,,,,,,,,,,,,,,,,,,,,GR39LD,train_x,red_square,top_right,2025-07-11_17h40.03.199,HideSeek_v1,2022.2.5,59.8965586365434,
,9,5,5,5,-4,0,56,,train_dim1_1,29,30,,,,2,0,2,0,,,,,,,,,0,0,0,0,0,28,28,28,3,0,3,0,,,,,,,,,,,,,,,,,,,,,,,,,,,,,,,,,,,,,,,,,,,,,,,,,,,,,,,,,,,,,,,,30,,,,,,,,2560.5674090000102,2560.5674090000102,2560.5674090000102,2560.5674090000102,2560.5674090000102,left,0.6436663999920711,9,0,0,99,0.24,0,left,0.5628140000044368,,,,,,,,,,,,,,,,,,,,,,,,,,,,,,,,,,,,,,,,,,,,,,,,,,,,,,,,,,,,GR39LD,train_x,red_square,top_right,2025-07-11_17h40.03.199,HideSeek_v1,2022.2.5,59.8965586365434,
,9,5,5,5,-4,0,56,,train_dim1_1,29,30,,,,2,0,2,0,,,,,,,,,0,0,0,0,0,28,28,28,4,0,4,0,,,,,,,,,,,,,,,,,,,,,,,,,,,,,,,,,,,,,,,,,,,,,,,,,,,,,,,,,,,,,,,,30,,,,,,,,2561.2179694000224,2561.2179694000224,2561.2179694000224,2561.2179694000224,2561.2179694000224,return,0.9603255999973044,10,0,0,1,0.24,0,return,0.8728214000002481,-9,-89,0.24,0,,,,,,,,,,,,,,,,,,,,,,,,,,,,,,,,,,,,,,,,,,,,,,,,,,,,,,,,GR39LD,train_x,red_square,top_right,2025-07-11_17h40.03.199,HideSeek_v1,2022.2.5,59.8965586365434,
,7,7,7,7,0,0,16,,train_dim1_1,30,30,,,,2,0,2,0,,,,,,,,,0,0,0,0,0,29,29,29,0,0,0,0,,,,,,,,,,,,,,,,,,,,,,,,,stimuli/alien_stimuli/16.png,,,,,,,,,,,,,,,,,,,,,,,,,,,,,stimuli/alien_stimuli/56.png,56,9,31,,,,,,,30,,,,,,,,2569.404461600003,2569.404461600003,2569.404461600003,2569.404461600003,2569.404461600003,left,2.273745600017719,10,0,0,99,0.32,0.16,left,2.1841391999914777,,,,,2567.8408087000134,2569.404461600003,0.24,0,0.0,0.32,0.0,0.24,0.4,0.24,0,2563.757846200024,2563.757846200024,2563.757846200024,2563.757846200024,2563.757846200024,2563.757846200024,2563.757846200024,2563.757846200024,2563.737305810003,4.205689700000221,return,4.0570713999914005,,,,,,,,,,,,,,,,,,,,,,,,,,,,,,,,,GR39LD,train_x,red_square,top_right,2025-07-11_17h40.03.199,HideSeek_v1,2022.2.5,59.8965586365434,
,7,7,7,7,0,0,16,,train_dim1_1,30,30,,,,2,0,2,0,,,,,,,,,0,0,0,0,0,29,29,29,1,0,1,0,,,,,,,,,,,,,,,,,,,,,,,,,,,,,,,,,,,,,,,,,,,,,,,,,,,,,,,,,,,,,,,,30,,,,,,,,2571.678283300018,2571.678283300018,2571.678283300018,2571.678283300018,2571.678283300018,return,0.6263621000107378,10,1,0,0,0.32,0.16,return,0.5378411000128835,-9,-90,0.32,0.16,,,,,,,,,,,,,,,,,,,,,,,,,,,,,,,,,,,,,,,,,,,,,,,,,,,,,,,,GR39LD,train_x,red_square,top_right,2025-07-11_17h40.03.199,HideSeek_v1,2022.2.5,59.8965586365434,
,,,,,,,,,,,30,,,,2,0,2,0,,,,,,,,,,,,,,,,,,,,,,,,,,,,,,,,,,,,,,,,,,,,,,,,,,,,,,,,,,,,,,,,,,,,,,,,,,stimuli/alien_stimuli/16.png,16,7,32,21,0.7,0.41666666666666674,1,1,1,30,0,conditions/schedules/train_x_first/red_square_00/top_right/inputTrain_2.1.xlsx,99,1,2,1,0,,,,,,,,,,,0,,,,,,,,,2582.5863656,2584.130338500021,0.4,0.16,0.0,0.0,0.16,0.4,0.4,0.4,0.16,2573.8736307000217,2573.8736307000217,2573.8736307000217,2573.8736307000217,2573.8736307000217,2573.8736307000217,2573.8736307000217,2573.8736307000217,2573.862481510002,8.82601990000694,return,8.686052800010657,0,0.9,0,1,10,,,,,,,,,,,,,,,,,,,,,,,,,,,,GR39LD,train_x,red_square,top_right,2025-07-11_17h40.03.199,HideSeek_v1,2022.2.5,59.8965586365434,
,,,,,,,,,,,,,,,3,0,3,0,0,0,0,0,,,,,,,,,,,,,,,,,,,,,,,,,,,,,,,conditions/schedules/train_x_first/red_square_00/top_right/instructions/Slide17.png,conditions/schedules/train_x_first/red_square_00/top_right/instructions/Audio17.wav,2584.130338500021,2584.120853689997,17,"[4.461722299980465, 19.014725900022313, 16.946069999976316, 18.98623830001452, 4.085214299993822, 5.236439799977234, 5.203529800026445, 11.603383399982704, 5.532255199999781, 6.6669956000114325, 9.267991400003666, 12.3396955000062, 17.299737099994672, 13.791766800015466, 30.38686929998221, 21.222139399993466, 52.31580749998102]","[4.461732199997641, 0.03176149999490008, 0.014548500010278076, 0.014224499987903982, 0.03239939999184571, 0.049053700000513345, 0.014488399989204481, 0.03068239998538047, 0.04663210001308471, 0.03116579999914393, 0.06352930000866763, 12.33970360000967, 17.29974369998672, 13.791773500008276, 0.013994299981277436, 21.222145499981707, 52.31581429997459]",0,,,,,,,,,,,,,,,,,,,,,,,,,,,,,,,,,,,,,,,,,,,,,,,,,,,,,,,,,,,,,,,,,,,,,,,,,,,,,,,,,,,,,,,,,,,,,,,,,,,,,,,,,,,,,,,,,,,,,,,,,,,,GR39LD,train_x,red_square,top_right,2025-07-11_17h40.03.199,HideSeek_v1,2022.2.5,59.8965586365434,
,,,,,,,,,,,,,,,3,0,3,0,1,0,1,0,,,,,,,,,,,,,,,,,,,,,,,,,,,,,,,conditions/schedules/train_x_first/red_square_00/top_right/instructions/Slide18.png,conditions/schedules/train_x_first/red_square_00/top_right/instructions/Audio18.wav,2636.5137517999974,2636.5153254500037,18,"[4.461722299980465, 19.014725900022313, 16.946069999976316, 18.98623830001452, 4.085214299993822, 5.236439799977234, 5.203529800026445, 11.603383399982704, 5.532255199999781, 6.6669956000114325, 9.267991400003666, 12.3396955000062, 17.299737099994672, 13.791766800015466, 30.38686929998221, 21.222139399993466, 52.31580749998102, 5.686896899977]","[4.461732199997641, 0.03176149999490008, 0.014548500010278076, 0.014224499987903982, 0.03239939999184571, 0.049053700000513345, 0.014488399989204481, 0.03068239998538047, 0.04663210001308471, 0.03116579999914393, 0.06352930000866763, 12.33970360000967, 17.29974369998672, 13.791773500008276, 0.013994299981277436, 21.222145499981707, 0.03222090000053868, 5.6869030999951065]",0,,,,,,,,,,,,,,,,,,,,,,,,,,,,,,,,,,,,,,,,,,,,,,,,,,,,,,,,,,,,,,,,,,,,,,,,,,,,,,,,,,,,,,,,,,,,,,,,,,,,,,,,,,,,,,,,,,,,,,,,,,,,GR39LD,train_x,red_square,top_right,2025-07-11_17h40.03.199,HideSeek_v1,2022.2.5,59.8965586365434,
,,,,,,,,,,,,,,,3,0,3,0,2,0,2,0,,,,,,,,,,,,,,,,,,,,,,,,,,,,,,,conditions/schedules/train_x_first/red_square_00/top_right/instructions/Slide19.png,conditions/schedules/train_x_first/red_square_00/top_right/instructions/Audio19.wav,2642.2390263999987,2642.2362405899944,19,"[4.461722299980465, 19.014725900022313, 16.946069999976316, 18.98623830001452, 4.085214299993822, 5.236439799977234, 5.203529800026445, 11.603383399982704, 5.532255199999781, 6.6669956000114325, 9.267991400003666, 12.3396955000062, 17.299737099994672, 13.791766800015466, 30.38686929998221, 21.222139399993466, 52.31580749998102, 5.686896899977, 9.58613690000493]","[4.461732199997641, 0.03176149999490008, 0.014548500010278076, 0.014224499987903982, 0.03239939999184571, 0.049053700000513345, 0.014488399989204481, 0.03068239998538047, 0.04663210001308471, 0.03116579999914393, 0.06352930000866763, 12.33970360000967, 17.29974369998672, 13.791773500008276, 0.013994299981277436, 21.222145499981707, 0.03222090000053868, 0.0647766999900341, 9.586144200002309]",0,,,,,,,,,,,,,,,,,,,,,,,,,,,,,,,,,,,,,,,,,,,,,,,,,,,,,,,,,,,,,,,,,,,,,,,,,,,,,,,,,,,,,,,,,,,,,,,,,,,,,,,,,,,,,,,,,,,,,,,,,,,,GR39LD,train_x,red_square,top_right,2025-07-11_17h40.03.199,HideSeek_v1,2022.2.5,59.8965586365434,
