trialInstr,x_fixStart,y_fixStart,x_corrSteps,y_corrSteps,x_nrSteps,y_nrSteps,alienID,trialLength,version,trialTrain,praclen,testlen,trial_label,break_on_off,beforeExpLoop.thisRepN,beforeExpLoop.thisTrialN,beforeExpLoop.thisN,beforeExpLoop.thisIndex,mini_instr_trials.thisRepN,mini_instr_trials.thisTrialN,mini_instr_trials.thisN,mini_instr_trials.thisIndex,instrLoop.thisRepN,instrLoop.thisTrialN,instrLoop.thisN,instrLoop.thisIndex,repeat_prac.thisRepN,repeat_prac.thisTrialN,repeat_prac.thisN,repeat_prac.thisIndex,trainLoop.thisRepN,trainLoop.thisTrialN,trainLoop.thisN,trainLoop.thisIndex,moveLoop_train.thisRepN,moveLoop_train.thisTrialN,moveLoop_train.thisN,moveLoop_train.thisIndex,experiment.thisRepN,experiment.thisTrialN,experiment.thisN,experiment.thisIndex,moveLoop_test.thisRepN,moveLoop_test.thisTrialN,moveLoop_test.thisN,moveLoop_test.thisIndex,mini_instr2_trials.thisRepN,mini_instr2_trials.thisTrialN,mini_instr2_trials.thisN,mini_instr2_trials.thisIndex,start_all_time,url,slideStim,audioStim,slides.started,sounds.started,nextButton.numClicks,nextButton.timesOn,nextButton.timesOff,prev_but.numClicks,prev_but.timesOn,prev_but.timesOff,alienStim,instrFile,alienStim_instr,gridImage_instr.started,startPos_3.started,key_instr.started,alienImage_3.started,sounds_1.started,key_instr.keys,key_instr.rt,all_x,all_y,FBy_corrSteps,FBy_fixStart,FBx_corrSteps,FBx_fixStart,FBy_pathSize_check,FBx_pathSize_check,gridImage_9.started,alienImageFB_3.started,startPosFB_3.started,keyFB_3.started,pathLine_ydir_2.started,pathLine_xdir_2.started,alienFace_3.started,sounds_2.started,RTFB_instr,keyFB_3.keys,keyFB_3.rt,draw_alienStim,draw_alienID,test_x,nrepcount,perfthres,percthres,earlierperf,earlystop,nextPrac,fileidx,praclen,saveACC_train,pracFile,nextPrac_train,addNrep,fileidx_endr,repExp,showearly,gridImage_4.started,startPos.started,movePos.started,key_resp.started,alienImage.started,buttonPress_train,RTchoice_train,cumAcctrain,aCorr,saveACC_choice,corrAns,x_movePos_end,y_movePos_end,key_resp.keys,key_resp.rt,wLy_dir,wLx_dir,x_movePos,y_movePos,text_2.started,text_2.stopped,aft_x_corrPos,aft_y_corrPos,y_pathSize_check,x_pathSize_check,y_pathdirY,x_pathdirY,x_pathdirX,x_corrPos,y_corrPos,gridImage_6.started,alienImageFB_2.started,startPosFB_2.started,movePosFB_2.started,keyFB_2.started,pathLine_xdir.started,pathLine_ydir.started,alienFace.started,sounds_4.started,RT_FBtrain,keyFB_2.keys,keyFB_2.rt,saveACC_pre,ACC,within_saveACC_train,earlystop_wloop,cumAcctrain_check,gridImage_3.started,alienImage_test.started,startPos_test.started,movePos_test.started,key_resp_test.started,wLy_dir_test,wLx_dir_test,buttonPress_test,RTchoice_test,cumAcctest,corrAns_test,key_resp_test.keys,key_resp_test.rt,text_3.started,text_3.stopped,total_time,end_all_time,key_resp_3.keys,slides_2.started,sounds_3.started,nextButton_2.numClicks,nextButton_2.timesOn,nextButton_2.timesOff,prev_but_2.numClicks,prev_but_2.timesOn,prev_but_2.timesOff,bye.started,participant,train_first,00_coordinate,starting corner,date,expName,psychopyVersion,frameRate,
,,,,,,,,,,,,,,,0,0,0,0,0,0,0,0,,,,,,,,,,,,,,,,,,,,,,,,,,,,,start_all_time,testround,conditions/schedules/train_y_first/red_square_00/bottom_left/instructions/Slide1.png,conditions/schedules/train_y_first/red_square_00/bottom_left/instructions/Audio1.wav,787.4969299999066,787.4462988544722,1,[9.287792100105435],[9.287801299942657],0,,,,,,,,,,,,,,,,,,,,,,,,,,,,,,,,,,,,,,,,,,,,,,,,,,,,,,,,,,,,,,,,,,,,,,,,,,,,,,,,,,,,,,,,,,,,,,,,,,,,,,,,,,,,,,,,,,,,,,,,,,,,GUNLJP,train_y,red_square,bottom_left,2025-04-02_15h05.00.790,HideSeek_v1,2022.2.5,59.96872027280253,
,,,,,,,,,,,,,,,0,0,0,0,1,0,1,0,,,,,,,,,,,,,,,,,,,,,,,,,,,,,,,conditions/schedules/train_y_first/red_square_00/bottom_left/instructions/Slide2.png,conditions/schedules/train_y_first/red_square_00/bottom_left/instructions/Audio2.wav,796.8030862000305,796.8037175999489,2,"[9.287792100105435, 18.346626300131902]","[0.01415079995058477, 18.346633200068027]",0,,,,,,,,,,,,,,,,,,,,,,,,,,,,,,,,,,,,,,,,,,,,,,,,,,,,,,,,,,,,,,,,,,,,,,,,,,,,,,,,,,,,,,,,,,,,,,,,,,,,,,,,,,,,,,,,,,,,,,,,,,,,GUNLJP,train_y,red_square,bottom_left,2025-04-02_15h05.00.790,HideSeek_v1,2022.2.5,59.96872027280253,
,,,,,,,,,,,,,,,0,0,0,0,2,0,2,0,,,,,,,,,,,,,,,,,,,,,,,,,,,,,,,conditions/schedules/train_y_first/red_square_00/bottom_left/instructions/Slide3.png,conditions/schedules/train_y_first/red_square_00/bottom_left/instructions/Audio3.wav,815.2295168000273,815.2189274998382,3,"[9.287792100105435, 18.346626300131902, 16.800999799976125]","[0.01415079995058477, 0.013814799953252077, 16.80100669991225]",0,,,,,,,,,,,,,,,,,,,,,,,,,,,,,,,,,,,,,,,,,,,,,,,,,,,,,,,,,,,,,,,,,,,,,,,,,,,,,,,,,,,,,,,,,,,,,,,,,,,,,,,,,,,,,,,,,,,,,,,,,,,,GUNLJP,train_y,red_square,bottom_left,2025-04-02_15h05.00.790,HideSeek_v1,2022.2.5,59.96872027280253,
,,,,,,,,,,,,,,,0,0,0,0,3,0,3,0,,,,,,,,,,,,,,,,,,,,,,,,,,,,,,,conditions/schedules/train_y_first/red_square_00/bottom_left/instructions/Slide4.png,conditions/schedules/train_y_first/red_square_00/bottom_left/instructions/Audio4.wav,832.1073332999367,832.0998856998049,4,"[9.287792100105435, 18.346626300131902, 16.800999799976125, 19.572818000102416]","[0.01415079995058477, 0.013814799953252077, 0.03596560005098581, 19.572824399918318]",0,,,,,,,,,,,,,,,,,,,,,,,,,,,,,,,,,,,,,,,,,,,,,,,,,,,,,,,,,,,,,,,,,,,,,,,,,,,,,,,,,,,,,,,,,,,,,,,,,,,,,,,,,,,,,,,,,,,,,,,,,,,,GUNLJP,train_y,red_square,bottom_left,2025-04-02_15h05.00.790,HideSeek_v1,2022.2.5,59.96872027280253,
,,,,,,,,,,,,,,,0,0,0,0,4,0,4,0,,,,,,,,,,,,,,,,,,,,,,,,,,,,,,,conditions/schedules/train_y_first/red_square_00/bottom_left/instructions/Slide5.png,conditions/schedules/train_y_first/red_square_00/bottom_left/instructions/Audio5.wav,851.7500720999669,851.7494899998419,5,"[9.287792100105435, 18.346626300131902, 16.800999799976125, 19.572818000102416, 4.900793400127441]","[0.01415079995058477, 0.013814799953252077, 0.03596560005098581, 0.03015240002423525, 4.900800799950957]",0,,,,,,,,,,,,,,,,,,,,,,,,,,,,,,,,,,,,,,,,,,,,,,,,,,,,,,,,,,,,,,,,,,,,,,,,,,,,,,,,,,,,,,,,,,,,,,,,,,,,,,,,,,,,,,,,,,,,,,,,,,,,GUNLJP,train_y,red_square,bottom_left,2025-04-02_15h05.00.790,HideSeek_v1,2022.2.5,59.96872027280253,
,,,,,,,,,,,,,,,0,0,0,0,5,0,5,0,,,,,,,,,,,,,,,,,,,,,,,,,,,,,,,conditions/schedules/train_y_first/red_square_00/bottom_left/instructions/Slide6.png,conditions/schedules/train_y_first/red_square_00/bottom_left/instructions/Audio6.wav,856.7017427999526,856.703567239875,6,"[9.287792100105435, 18.346626300131902, 16.800999799976125, 19.572818000102416, 4.900793400127441, 4.903228099923581]","[0.01415079995058477, 0.013814799953252077, 0.03596560005098581, 0.03015240002423525, 0.049691000021994114, 4.903234799858183]",0,,,,,,,,,,,,,,,,,,,,,,,,,,,,,,,,,,,,,,,,,,,,,,,,,,,,,,,,,,,,,,,,,,,,,,,,,,,,,,,,,,,,,,,,,,,,,,,,,,,,,,,,,,,,,,,,,,,,,,,,,,,,GUNLJP,train_y,red_square,bottom_left,2025-04-02_15h05.00.790,HideSeek_v1,2022.2.5,59.96872027280253,
,,,,,,,,,,,,,,,0,0,0,0,6,0,6,0,,,,,,,,,,,,,,,,,,,,,,,,,,,,,,,conditions/schedules/train_y_first/red_square_00/bottom_left/instructions/Slide7.png,conditions/schedules/train_y_first/red_square_00/bottom_left/instructions/Audio7.wav,861.6771770999767,861.6744243998546,7,"[9.287792100105435, 18.346626300131902, 16.800999799976125, 19.572818000102416, 4.900793400127441, 4.903228099923581, 5.849301300011575]","[0.01415079995058477, 0.013814799953252077, 0.03596560005098581, 0.03015240002423525, 0.049691000021994114, 0.013934199931100011, 5.849307899829]",0,,,,,,,,,,,,,,,,,,,,,,,,,,,,,,,,,,,,,,,,,,,,,,,,,,,,,,,,,,,,,,,,,,,,,,,,,,,,,,,,,,,,,,,,,,,,,,,,,,,,,,,,,,,,,,,,,,,,,,,,,,,,GUNLJP,train_y,red_square,bottom_left,2025-04-02_15h05.00.790,HideSeek_v1,2022.2.5,59.96872027280253,
,,,,,,,,,,,,,,,0,0,0,0,7,0,7,0,,,,,,,,,,,,,,,,,,,,,,,,,,,,,,,conditions/schedules/train_y_first/red_square_00/bottom_left/instructions/Slide8.png,conditions/schedules/train_y_first/red_square_00/bottom_left/instructions/Audio8.wav,867.5810638999101,867.5793325399981,8,"[9.287792100105435, 18.346626300131902, 16.800999799976125, 19.572818000102416, 4.900793400127441, 4.903228099923581, 5.849301300011575, 11.605159299913794]","[0.01415079995058477, 0.013814799953252077, 0.03596560005098581, 0.03015240002423525, 0.049691000021994114, 0.013934199931100011, 0.031182599952444434, 11.605166699970141]",0,,,,,,,,,,,,,,,,,,,,,,,,,,,,,,,,,,,,,,,,,,,,,,,,,,,,,,,,,,,,,,,,,,,,,,,,,,,,,,,,,,,,,,,,,,,,,,,,,,,,,,,,,,,,,,,,,,,,,,,,,,,,GUNLJP,train_y,red_square,bottom_left,2025-04-02_15h05.00.790,HideSeek_v1,2022.2.5,59.96872027280253,
,,,,,,,,,,,,,,,0,0,0,0,8,0,8,0,,,,,,,,,,,,,,,,,,,,,,,,,,,,,,,conditions/schedules/train_y_first/red_square_00/bottom_left/instructions/Slide9.png,conditions/schedules/train_y_first/red_square_00/bottom_left/instructions/Audio9.wav,879.2573102999013,879.2553869998083,9,"[9.287792100105435, 18.346626300131902, 16.800999799976125, 19.572818000102416, 4.900793400127441, 4.903228099923581, 5.849301300011575, 11.605159299913794, 6.501133699901402]","[0.01415079995058477, 0.013814799953252077, 0.03596560005098581, 0.03015240002423525, 0.049691000021994114, 0.013934199931100011, 0.031182599952444434, 0.030289999907836318, 6.501140899956226]",0,,,,,,,,,,,,,,,,,,,,,,,,,,,,,,,,,,,,,,,,,,,,,,,,,,,,,,,,,,,,,,,,,,,,,,,,,,,,,,,,,,,,,,,,,,,,,,,,,,,,,,,,,,,,,,,,,,,,,,,,,,,,GUNLJP,train_y,red_square,bottom_left,2025-04-02_15h05.00.790,HideSeek_v1,2022.2.5,59.96872027280253,
,,,,,,,,,,,,,,,0,0,0,0,9,0,9,0,,,,,,,,,,,,,,,,,,,,,,,,,,,,,,,conditions/schedules/train_y_first/red_square_00/bottom_left/instructions/Slide10.png,conditions/schedules/train_y_first/red_square_00/bottom_left/instructions/Audio10.wav,885.805421799887,885.7942872798536,10,"[9.287792100105435, 18.346626300131902, 16.800999799976125, 19.572818000102416, 4.900793400127441, 4.903228099923581, 5.849301300011575, 11.605159299913794, 6.501133699901402, 6.592201800085604]","[0.01415079995058477, 0.013814799953252077, 0.03596560005098581, 0.03015240002423525, 0.049691000021994114, 0.013934199931100011, 0.031182599952444434, 0.030289999907836318, 0.05349510000087321, 6.592209100024775]",0,,,,,,,,,,,,,,,,,,,,,,,,,,,,,,,,,,,,,,,,,,,,,,,,,,,,,,,,,,,,,,,,,,,,,,,,,,,,,,,,,,,,,,,,,,,,,,,,,,,,,,,,,,,,,,,,,,,,,,,,,,,,GUNLJP,train_y,red_square,bottom_left,2025-04-02_15h05.00.790,HideSeek_v1,2022.2.5,59.96872027280253,
,,,,,,,,,,,,,,,0,0,0,0,10,0,10,0,,,,,,,,,,,,,,,,,,,,,,,,,,,,,,,conditions/schedules/train_y_first/red_square_00/bottom_left/instructions/Slide11.png,conditions/schedules/train_y_first/red_square_00/bottom_left/instructions/Audio11.wav,892.4359679000918,892.4330964799971,11,"[9.287792100105435, 18.346626300131902, 16.800999799976125, 19.572818000102416, 4.900793400127441, 4.903228099923581, 5.849301300011575, 11.605159299913794, 6.501133699901402, 6.592201800085604, 10.553509499877691]","[0.01415079995058477, 0.013814799953252077, 0.03596560005098581, 0.03015240002423525, 0.049691000021994114, 0.013934199931100011, 0.031182599952444434, 0.030289999907836318, 0.05349510000087321, 0.07842959999106824, 10.553517099935561]",0,,,,,,,,,,,,,,,,,,,,,,,,,,,,,,,,,,,,,,,,,,,,,,,,,,,,,,,,,,,,,,,,,,,,,,,,,,,,,,,,,,,,,,,,,,,,,,,,,,,,,,,,,,,,,,,,,,,,,,,,,,,,GUNLJP,train_y,red_square,bottom_left,2025-04-02_15h05.00.790,HideSeek_v1,2022.2.5,59.96872027280253,
,,,,,,,,,,,,,,,0,0,0,0,11,0,11,0,,,,,,,,,,,,,,,,,,,,,,,,,,,,,,,conditions/schedules/train_y_first/red_square_00/bottom_left/instructions/Slide12.png,conditions/schedules/train_y_first/red_square_00/bottom_left/instructions/Audio12.wav,903.0625217999332,903.0586578999646,12,"[9.287792100105435, 18.346626300131902, 16.800999799976125, 19.572818000102416, 4.900793400127441, 4.903228099923581, 5.849301300011575, 11.605159299913794, 6.501133699901402, 6.592201800085604, 10.553509499877691, 13.321113999933004]","[0.01415079995058477, 0.013814799953252077, 0.03596560005098581, 0.03015240002423525, 0.049691000021994114, 0.013934199931100011, 0.031182599952444434, 0.030289999907836318, 0.05349510000087321, 0.07842959999106824, 0.03106499998830259, 13.321123199770227]",0,,,,,,,,,,,,,,,,,,,,,,,,,,,,,,,,,,,,,,,,,,,,,,,,,,,,,,,,,,,,,,,,,,,,,,,,,,,,,,,,,,,,,,,,,,,,,,,,,,,,,,,,,,,,,,,,,,,,,,,,,,,,GUNLJP,train_y,red_square,bottom_left,2025-04-02_15h05.00.790,HideSeek_v1,2022.2.5,59.96872027280253,
1,2,3,2,8,0,5,11,2,instr_dim1_1,,,,,,0,0,0,0,,,,,0,0,0,0,,,,,,,,,,,,,,,,,,,,,,,,,,,,,,,,,,,,,stimuli/alien_stimuli/11.png,conditions/schedules/train_y_first/red_square_00/bottom_left/inputInstr_1.xlsx,stimuli/alien_stimuli/11.png,916.4883481999859,916.4883481999859,916.4883481999859,916.4883481999859,916.4863917197567,return,8.594874999951571,"[-0.16, -0.08, 0, 0.08, 0.16, 0.24, 0.32, 0.4, 0.48, 0.56]","[-0.4, -0.32, -0.24, -0.16, -0.08, 0, 0.08, 0.16, 0.24, 0.32]",8,3,2,2,0.4,0.0,925.2458407999948,925.2458407999948,925.2458407999948,925.2458407999948,925.2458407999948,925.2458407999948,925.2458407999948,925.2437061399222,8.124392399797216,return,7.959401699947193,stimuli/alien_stimuli/11.png,11,2,1,,,,,,,,,,,,,,,,,,,,,,,,,,,,,,,,,,,,,,,,,,,,,,,,,,,,,,,,,,,,,,,,,,,,,,,,,,,,,,,,,,,,,,,,,GUNLJP,train_y,red_square,bottom_left,2025-04-02_15h05.00.790,HideSeek_v1,2022.2.5,59.96872027280253,
,,,,,,,,,,,30,,,,0,0,0,0,,,,,,,,,,,,,,,,,,,,,,,,,,,,,,,,,,,,,,,,,,,,,,,,,,,,,,,,,,,,,,,,,,,,,,,,,,,,,,21,0.7,0,0,99,1,30,0,conditions/schedules/train_y_first/red_square_00/bottom_left/inputTrain_1.1.xlsx,99,1,1,1,0,,,,,,,,,,,,,,,,,,,,,,,,,,,,,,,,,,,,,,,,,,,,,,,,,,,,,,,,,,,,,,,,,,,,,,,,,,,GUNLJP,train_y,red_square,bottom_left,2025-04-02_15h05.00.790,HideSeek_v1,2022.2.5,59.96872027280253,
,,,,,,,,,,,,,,,1,0,1,0,0,0,0,0,,,,,,,,,,,,,,,,,,,,,,,,,,,,,,,conditions/schedules/train_y_first/red_square_00/bottom_left/instructions/Slide13.png,conditions/schedules/train_y_first/red_square_00/bottom_left/instructions/Audio13.wav,933.3662298999261,933.3672331398819,13,"[9.287792100105435, 18.346626300131902, 16.800999799976125, 19.572818000102416, 4.900793400127441, 4.903228099923581, 5.849301300011575, 11.605159299913794, 6.501133699901402, 6.592201800085604, 10.553509499877691, 13.321113999933004, 17.762195700081065]","[0.01415079995058477, 0.013814799953252077, 0.03596560005098581, 0.03015240002423525, 0.049691000021994114, 0.013934199931100011, 0.031182599952444434, 0.030289999907836318, 0.05349510000087321, 0.07842959999106824, 0.03106499998830259, 13.321123199770227, 17.762202800018713]",0,,,,,,,,,,,,,,,,,,,,,,,,,,,,,,,,,,,,,,,,,,,,,,,,,,,,,,,,,,,,,,,,,,,,,,,,,,,,,,,,,,,,,,,,,,,,,,,,,,,,,,,,,,,,,,,,,,,,,,,,,,,,GUNLJP,train_y,red_square,bottom_left,2025-04-02_15h05.00.790,HideSeek_v1,2022.2.5,59.96872027280253,
,,,,,,,,,,,,,,,1,0,1,0,1,0,1,0,,,,,,,,,,,,,,,,,,,,,,,,,,,,,,,conditions/schedules/train_y_first/red_square_00/bottom_left/instructions/Slide14.png,conditions/schedules/train_y_first/red_square_00/bottom_left/instructions/Audio14.wav,951.2051508000586,951.19809109997,14,"[9.287792100105435, 18.346626300131902, 16.800999799976125, 19.572818000102416, 4.900793400127441, 4.903228099923581, 5.849301300011575, 11.605159299913794, 6.501133699901402, 6.592201800085604, 10.553509499877691, 13.321113999933004, 17.762195700081065, 16.21999349980615]","[0.01415079995058477, 0.013814799953252077, 0.03596560005098581, 0.03015240002423525, 0.049691000021994114, 0.013934199931100011, 0.031182599952444434, 0.030289999907836318, 0.05349510000087321, 0.07842959999106824, 0.03106499998830259, 13.321123199770227, 0.013093499932438135, 16.219999599969015]",0,,,,,,,,,,,,,,,,,,,,,,,,,,,,,,,,,,,,,,,,,,,,,,,,,,,,,,,,,,,,,,,,,,,,,,,,,,,,,,,,,,,,,,,,,,,,,,,,,,,,,,,,,,,,,,,,,,,,,,,,,,,,GUNLJP,train_y,red_square,bottom_left,2025-04-02_15h05.00.790,HideSeek_v1,2022.2.5,59.96872027280253,
2,0,3,0,3,0,0,16,2,instr_dim1_1,,,,,,1,0,1,0,,,,,0,0,0,0,,,,,,,,,,,,,,,,,,,,,,,,,,,,,,,,,,,,,stimuli/alien_stimuli/16.png,conditions/schedules/train_y_first/red_square_00/bottom_left/inputInstr_1.xlsx,stimuli/alien_stimuli/16.png,967.5279021000024,967.5279021000024,967.5279021000024,967.5279021000024,967.5289053198417,return,6.955078899860382,"[-0.16, -0.08, 0, 0.08, 0.16, 0.24, 0.32, 0.4, 0.48, 0.56]","[-0.4, -0.32, -0.24, -0.16, -0.08, 0, 0.08, 0.16, 0.24, 0.32]",3,3,0,0,0.0,0.0,974.6224090999458,974.6224090999458,974.6224090999458,974.6224090999458,974.6224090999458,974.6224090999458,974.6224090999458,974.6181156799663,9.124953399877995,return,8.974951299838722,stimuli/alien_stimuli/16.png,16,0,2,,,,,,,,,,,,,,,,,,,,,,,,,,,,,,,,,,,,,,,,,,,,,,,,,,,,,,,,,,,,,,,,,,,,,,,,,,,,,,,,,,,,,,,,,GUNLJP,train_y,red_square,bottom_left,2025-04-02_15h05.00.790,HideSeek_v1,2022.2.5,59.96872027280253,
,,,,,,,,,,,30,,,,1,0,1,0,,,,,,,,,,,,,,,,,,,,,,,,,,,,,,,,,,,,,,,,,,,,,,,,,,,,,,,,,,,,,,,,,,,,,,,,,,,,,,21,0.7,0,0,99,1,30,0,conditions/schedules/train_y_first/red_square_00/bottom_left/inputTrain_1.1.xlsx,99,1,1,1,0,,,,,,,,,,,,,,,,,,,,,,,,,,,,,,,,,,,,,,,,,,,,,,,,,,,,,,,,,,,,,,,,,,,,,,,,,,,GUNLJP,train_y,red_square,bottom_left,2025-04-02_15h05.00.790,HideSeek_v1,2022.2.5,59.96872027280253,
,,,,,,,,,,,,,,,2,0,2,0,0,0,0,0,,,,,,,,,,,,,,,,,,,,,,,,,,,,,,,conditions/schedules/train_y_first/red_square_00/bottom_left/instructions/Slide15.png,conditions/schedules/train_y_first/red_square_00/bottom_left/instructions/Audio15.wav,983.7658289000392,983.7589520399459,15,"[9.287792100105435, 18.346626300131902, 16.800999799976125, 19.572818000102416, 4.900793400127441, 4.903228099923581, 5.849301300011575, 11.605159299913794, 6.501133699901402, 6.592201800085604, 10.553509499877691, 13.321113999933004, 17.762195700081065, 16.21999349980615, 42.59302520006895]","[0.01415079995058477, 0.013814799953252077, 0.03596560005098581, 0.03015240002423525, 0.049691000021994114, 0.013934199931100011, 0.031182599952444434, 0.030289999907836318, 0.05349510000087321, 0.07842959999106824, 0.03106499998830259, 13.321123199770227, 0.013093499932438135, 16.219999599969015, 42.593032700009644]",0,,,,,,,,,,,,,,,,,,,,,,,,,,,,,,,,,,,,,,,,,,,,,,,,,,,,,,,,,,,,,,,,,,,,,,,,,,,,,,,,,,,,,,,,,,,,,,,,,,,,,,,,,,,,,,,,,,,,,,,,,,,,GUNLJP,train_y,red_square,bottom_left,2025-04-02_15h05.00.790,HideSeek_v1,2022.2.5,59.96872027280253,
,,,,,,,,,,,,,,,2,0,2,0,1,0,1,0,,,,,,,,,,,,,,,,,,,,,,,,,,,,,,,conditions/schedules/train_y_first/red_square_00/bottom_left/instructions/Slide16.png,conditions/schedules/train_y_first/red_square_00/bottom_left/instructions/Audio16.wav,1026.4317952001002,1026.4279699998442,16,"[9.287792100105435, 18.346626300131902, 16.800999799976125, 19.572818000102416, 4.900793400127441, 4.903228099923581, 5.849301300011575, 11.605159299913794, 6.501133699901402, 6.592201800085604, 10.553509499877691, 13.321113999933004, 17.762195700081065, 16.21999349980615, 42.59302520006895, 22.32879659999162]","[0.01415079995058477, 0.013814799953252077, 0.03596560005098581, 0.03015240002423525, 0.049691000021994114, 0.013934199931100011, 0.031182599952444434, 0.030289999907836318, 0.05349510000087321, 0.07842959999106824, 0.03106499998830259, 13.321123199770227, 0.013093499932438135, 16.219999599969015, 42.593032700009644, 22.328803000040352]",0,,,,,,,,,,,,,,,,,,,,,,,,,,,,,,,,,,,,,,,,,,,,,,,,,,,,,,,,,,,,,,,,,,,,,,,,,,,,,,,,,,,,,,,,,,,,,,,,,,,,,,,,,,,,,,,,,,,,,,,,,,,,GUNLJP,train_y,red_square,bottom_left,2025-04-02_15h05.00.790,HideSeek_v1,2022.2.5,59.96872027280253,
,0,0,0,1,0,1,15,,train_dim1_1,1,30,,,,2,0,2,0,,,,,,,,,0,0,0,0,0,0,0,0,0,0,0,0,,,,,,,,,,,,,,,,,,,,,,,,,stimuli/alien_stimuli/15.png,,,,,,,,,,,,,,,,,,,,,,,,,,,,,,,,,,,,,,,30,,,,,,,,1048.8660766000394,1048.8660766000394,1048.8660766000394,1048.8660766000394,1048.8660766000394,right,5.08279459993355,0,0,0,99,-0.08,-0.4,right,4.977965299971402,,,,,,,,,,,,,,,,,,,,,,,,,,,,,,,,,,,,,,,,,,,,,,,,,,,,,,,,,,,,GUNLJP,train_y,red_square,bottom_left,2025-04-02_15h05.00.790,HideSeek_v1,2022.2.5,59.96872027280253,
,0,0,0,1,0,1,15,,train_dim1_1,1,30,,,,2,0,2,0,,,,,,,,,0,0,0,0,0,0,0,0,1,0,1,0,,,,,,,,,,,,,,,,,,,,,,,,,,,,,,,,,,,,,,,,,,,,,,,,,,,,,,,,,,,,,,,,30,,,,,,,,1053.9367692999076,1053.9367692999076,1053.9367692999076,1053.9367692999076,1053.9367692999076,left,1.960351400077343,0,0,0,99,-0.16,-0.4,left,1.8815774999093264,,,,,,,,,,,,,,,,,,,,,,,,,,,,,,,,,,,,,,,,,,,,,,,,,,,,,,,,,,,,GUNLJP,train_y,red_square,bottom_left,2025-04-02_15h05.00.790,HideSeek_v1,2022.2.5,59.96872027280253,
,0,0,0,1,0,1,15,,train_dim1_1,1,30,,,,2,0,2,0,,,,,,,,,0,0,0,0,0,0,0,0,2,0,2,0,,,,,,,,,,,,,,,,,,,,,,,,,,,,,,,,,,,,,,,,,,,,,,,,,,,,,,,,,,,,,,,,30,,,,,,,,1055.9030454999302,1055.9030454999302,1055.9030454999302,1055.9030454999302,1055.9030454999302,up,0.7936186001170427,0,0,0,99,-0.16,-0.32,up,0.7086445998866111,,,,,,,,,,,,,,,,,,,,,,,,,,,,,,,,,,,,,,,,,,,,,,,,,,,,,,,,,,,,GUNLJP,train_y,red_square,bottom_left,2025-04-02_15h05.00.790,HideSeek_v1,2022.2.5,59.96872027280253,
,0,0,0,1,0,1,15,,train_dim1_1,1,30,,,,2,0,2,0,,,,,,,,,0,0,0,0,0,0,0,0,3,0,3,0,,,,,,,,,,,,,,,,,,,,,,,,,,,,,,,,,,,,,,,,,,,,,,,,,,,,,,,,,,,,,,,,30,,,,,,,,1056.7030289999675,1056.7030289999675,1056.7030289999675,1056.7030289999675,1056.7030289999675,up,2.0947791999205947,0,0,0,99,-0.16,-0.24,up,2.008806799771264,,,,,,,,,,,,,,,,,,,,,,,,,,,,,,,,,,,,,,,,,,,,,,,,,,,,,,,,,,,,GUNLJP,train_y,red_square,bottom_left,2025-04-02_15h05.00.790,HideSeek_v1,2022.2.5,59.96872027280253,
,0,0,0,1,0,1,15,,train_dim1_1,1,30,,,,2,0,2,0,,,,,,,,,0,0,0,0,0,0,0,0,4,0,4,0,,,,,,,,,,,,,,,,,,,,,,,,,,,,,,,,,,,,,,,,,,,,,,,,,,,,,,,,,,,,,,,,30,,,,,,,,1058.8051006000023,1058.8051006000023,1058.8051006000023,1058.8051006000023,1058.8051006000023,up,1.1441049000713974,0,0,0,99,-0.16,-0.15999999999999998,up,1.0529529000632465,,,,,,,,,,,,,,,,,,,,,,,,,,,,,,,,,,,,,,,,,,,,,,,,,,,,,,,,,,,,GUNLJP,train_y,red_square,bottom_left,2025-04-02_15h05.00.790,HideSeek_v1,2022.2.5,59.96872027280253,
,0,0,0,1,0,1,15,,train_dim1_1,1,30,,,,2,0,2,0,,,,,,,,,0,0,0,0,0,0,0,0,5,0,5,0,,,,,,,,,,,,,,,,,,,,,,,,,,,,,,,,,,,,,,,,,,,,,,,,,,,,,,,,,,,,,,,,30,,,,,,,,1059.956055100076,1059.956055100076,1059.956055100076,1059.956055100076,1059.956055100076,up,0.8772925999946892,0,0,0,99,-0.16,-0.07999999999999997,up,0.8001367999240756,,,,,,,,,,,,,,,,,,,,,,,,,,,,,,,,,,,,,,,,,,,,,,,,,,,,,,,,,,,,GUNLJP,train_y,red_square,bottom_left,2025-04-02_15h05.00.790,HideSeek_v1,2022.2.5,59.96872027280253,
,0,0,0,1,0,1,15,,train_dim1_1,1,30,,,,2,0,2,0,,,,,,,,,0,0,0,0,0,0,0,0,6,0,6,0,,,,,,,,,,,,,,,,,,,,,,,,,,,,,,,,,,,,,,,,,,,,,,,,,,,,,,,,,,,,,,,,30,,,,,,,,1060.8409311999567,1060.8409311999567,1060.8409311999567,1060.8409311999567,1060.8409311999567,up,3.6121620000340044,0,0,0,99,-0.16,2.7755575615628914e-17,up,3.5275178998708725,,,,,,,,,,,,,,,,,,,,,,,,,,,,,,,,,,,,,,,,,,,,,,,,,,,,,,,,,,,,GUNLJP,train_y,red_square,bottom_left,2025-04-02_15h05.00.790,HideSeek_v1,2022.2.5,59.96872027280253,
,0,0,0,1,0,1,15,,train_dim1_1,1,30,,,,2,0,2,0,,,,,,,,,0,0,0,0,0,0,0,0,7,0,7,0,,,,,,,,,,,,,,,,,,,,,,,,,,,,,,,,,,,,,,,,,,,,,,,,,,,,,,,,,,,,,,,,30,,,,,,,,1064.4606268999632,1064.4606268999632,1064.4606268999632,1064.4606268999632,1064.4606268999632,return,0.8771067999769002,0,0,0,0,-0.16,2.7755575615628914e-17,return,0.7888770997524261,5,0,-0.16,2.7755575615628914e-17,,,,,,,,,,,,,,,,,,,,,,,,,,,,,,,,,,,,,,,,,,,,,,,,,,,,,,,,GUNLJP,train_y,red_square,bottom_left,2025-04-02_15h05.00.790,HideSeek_v1,2022.2.5,59.96872027280253,
,3,2,3,2,0,0,16,,train_dim1_1,2,30,,,,2,0,2,0,,,,,,,,,0,0,0,0,0,1,1,1,0,0,0,0,,,,,,,,,,,,,,,,,,,,,,,,,stimuli/alien_stimuli/16.png,,,,,,,,,,,,,,,,,,,,,,,,,,,,,stimuli/alien_stimuli/15.png,15,0,3,,,,,,,30,,,,,,,,1093.024662300013,1093.024662300013,1093.024662300013,1093.024662300013,1093.024662300013,return,4.043131900019944,1,0,0,1,0.08,-0.24,return,3.935228099813685,5,0,0.08,-0.24,1091.4486118999775,1093.024662300013,-0.16,-0.32,0.08,0.0,-0.36,-0.16,-0.16,-0.16,-0.32,1066.9162647998892,1066.9162647998892,1066.9162647998892,1066.9162647998892,1066.9162647998892,1066.9162647998892,1066.9162647998892,1066.9162647998892,1066.911444379855,24.656103699933738,return,24.515345599735156,,,,,,,,,,,,,,,,,,,,,,,,,,,,,,,,,GUNLJP,train_y,red_square,bottom_left,2025-04-02_15h05.00.790,HideSeek_v1,2022.2.5,59.96872027280253,
,2,3,2,6,0,3,13,,train_dim1_1,3,30,,,,2,0,2,0,,,,,,,,,0,0,0,0,0,2,2,2,0,0,0,0,,,,,,,,,,,,,,,,,,,,,,,,,stimuli/alien_stimuli/13.png,,,,,,,,,,,,,,,,,,,,,,,,,,,,,stimuli/alien_stimuli/16.png,16,3,4,,,,,,,30,,,,,,,,1113.508758699987,1113.508758699987,1113.508758699987,1113.508758699987,1113.508758699987,up,2.0739881999325007,1,0,0,99,0,-0.08,up,1.9661394997965544,,,,,1111.9320906999055,1113.508758699987,0.08,-0.24,0.0,0.0,-0.24,0.08,0.08,0.08,-0.24,1098.6178335999139,1098.6178335999139,1098.6178335999139,1098.6178335999139,1098.6178335999139,1098.6178335999139,1098.6178335999139,1098.6178335999139,1098.604391119769,13.429944300092757,return,13.297419099835679,,,,,,,,,,,,,,,,,,,,,,,,,,,,,,,,,GUNLJP,train_y,red_square,bottom_left,2025-04-02_15h05.00.790,HideSeek_v1,2022.2.5,59.96872027280253,
,2,3,2,6,0,3,13,,train_dim1_1,3,30,,,,2,0,2,0,,,,,,,,,0,0,0,0,0,2,2,2,1,0,1,0,,,,,,,,,,,,,,,,,,,,,,,,,,,,,,,,,,,,,,,,,,,,,,,,,,,,,,,,,,,,,,,,30,,,,,,,,1115.568991200067,1115.568991200067,1115.568991200067,1115.568991200067,1115.568991200067,up,0.5261315999086946,1,0,0,99,0,0.0,up,0.4408704999368638,,,,,,,,,,,,,,,,,,,,,,,,,,,,,,,,,,,,,,,,,,,,,,,,,,,,,,,,,,,,GUNLJP,train_y,red_square,bottom_left,2025-04-02_15h05.00.790,HideSeek_v1,2022.2.5,59.96872027280253,
,2,3,2,6,0,3,13,,train_dim1_1,3,30,,,,2,0,2,0,,,,,,,,,0,0,0,0,0,2,2,2,2,0,2,0,,,,,,,,,,,,,,,,,,,,,,,,,,,,,,,,,,,,,,,,,,,,,,,,,,,,,,,,,,,,,,,,30,,,,,,,,1116.1024776999839,1116.1024776999839,1116.1024776999839,1116.1024776999839,1116.1024776999839,up,0.44357339991256595,1,0,0,99,0,0.08,up,0.36583589971996844,,,,,,,,,,,,,,,,,,,,,,,,,,,,,,,,,,,,,,,,,,,,,,,,,,,,,,,,,,,,GUNLJP,train_y,red_square,bottom_left,2025-04-02_15h05.00.790,HideSeek_v1,2022.2.5,59.96872027280253,
,2,3,2,6,0,3,13,,train_dim1_1,3,30,,,,2,0,2,0,,,,,,,,,0,0,0,0,0,2,2,2,3,0,3,0,,,,,,,,,,,,,,,,,,,,,,,,,,,,,,,,,,,,,,,,,,,,,,,,,,,,,,,,,,,,,,,,30,,,,,,,,1116.5523324999958,1116.5523324999958,1116.5523324999958,1116.5523324999958,1116.5523324999958,up,0.4600985001306981,1,0,0,99,0,0.16,up,0.3824986997060478,,,,,,,,,,,,,,,,,,,,,,,,,,,,,,,,,,,,,,,,,,,,,,,,,,,,,,,,,,,,GUNLJP,train_y,red_square,bottom_left,2025-04-02_15h05.00.790,HideSeek_v1,2022.2.5,59.96872027280253,
,2,3,2,6,0,3,13,,train_dim1_1,3,30,,,,2,0,2,0,,,,,,,,,0,0,0,0,0,2,2,2,4,0,4,0,,,,,,,,,,,,,,,,,,,,,,,,,,,,,,,,,,,,,,,,,,,,,,,,,,,,,,,,,,,,,,,,30,,,,,,,,1117.0194538000505,1117.0194538000505,1117.0194538000505,1117.0194538000505,1117.0194538000505,up,0.44348150002770126,1,0,0,99,0,0.24,up,0.3629449997097254,,,,,,,,,,,,,,,,,,,,,,,,,,,,,,,,,,,,,,,,,,,,,,,,,,,,,,,,,,,,GUNLJP,train_y,red_square,bottom_left,2025-04-02_15h05.00.790,HideSeek_v1,2022.2.5,59.96872027280253,
,2,3,2,6,0,3,13,,train_dim1_1,3,30,,,,2,0,2,0,,,,,,,,,0,0,0,0,0,2,2,2,5,0,5,0,,,,,,,,,,,,,,,,,,,,,,,,,,,,,,,,,,,,,,,,,,,,,,,,,,,,,,,,,,,,,,,,30,,,,,,,,1117.4700074000284,1117.4700074000284,1117.4700074000284,1117.4700074000284,1117.4700074000284,return,0.4766849000006914,1,0,0,0,0,0.24,return,0.4014045000076294,10,0,0,0.24,,,,,,,,,,,,,,,,,,,,,,,,,,,,,,,,,,,,,,,,,,,,,,,,,,,,,,,,GUNLJP,train_y,red_square,bottom_left,2025-04-02_15h05.00.790,HideSeek_v1,2022.2.5,59.96872027280253,
,0,1,0,5,0,4,12,,train_dim1_1,4,30,,,,2,0,2,0,,,,,,,,,0,0,0,0,0,3,3,3,0,0,0,0,,,,,,,,,,,,,,,,,,,,,,,,,stimuli/alien_stimuli/12.png,,,,,,,,,,,,,,,,,,,,,,,,,,,,,stimuli/alien_stimuli/13.png,13,2,5,,,,,,,30,,,,,,,,1129.4857499999925,1129.4857499999925,1129.4857499999925,1129.4857499999925,1129.4857499999925,up,3.809295700164512,1,0,0,99,-0.16,-0.24,up,3.721317899879068,,,,,1127.9289633999579,1129.4857499999925,0,0.08,0.24,0.0,-0.04,0,0.0,0,0.08,1119.5217353000771,1119.5217353000771,1119.5217353000771,1119.5217353000771,1119.5217353000771,1119.5217353000771,1119.5217353000771,1119.5217353000771,1119.5218655799051,8.526086500147358,return,8.381334399804473,,,,,,,,,,,,,,,,,,,,,,,,,,,,,,,,,GUNLJP,train_y,red_square,bottom_left,2025-04-02_15h05.00.790,HideSeek_v1,2022.2.5,59.96872027280253,
,0,1,0,5,0,4,12,,train_dim1_1,4,30,,,,2,0,2,0,,,,,,,,,0,0,0,0,0,3,3,3,1,0,1,0,,,,,,,,,,,,,,,,,,,,,,,,,,,,,,,,,,,,,,,,,,,,,,,,,,,,,,,,,,,,,,,,30,,,,,,,,1133.3005913000088,1133.3005913000088,1133.3005913000088,1133.3005913000088,1133.3005913000088,down,2.1111534000374377,1,0,0,99,-0.16,-0.32,down,2.021378999808803,,,,,,,,,,,,,,,,,,,,,,,,,,,,,,,,,,,,,,,,,,,,,,,,,,,,,,,,,,,,GUNLJP,train_y,red_square,bottom_left,2025-04-02_15h05.00.790,HideSeek_v1,2022.2.5,59.96872027280253,
,0,1,0,5,0,4,12,,train_dim1_1,4,30,,,,2,0,2,0,,,,,,,,,0,0,0,0,0,3,3,3,2,0,2,0,,,,,,,,,,,,,,,,,,,,,,,,,,,,,,,,,,,,,,,,,,,,,,,,,,,,,,,,,,,,,,,,30,,,,,,,,1135.418339899974,1135.418339899974,1135.418339899974,1135.418339899974,1135.418339899974,right,0.9603564999997616,1,0,0,99,-0.08,-0.32,right,0.8790878998115659,,,,,,,,,,,,,,,,,,,,,,,,,,,,,,,,,,,,,,,,,,,,,,,,,,,,,,,,,,,,GUNLJP,train_y,red_square,bottom_left,2025-04-02_15h05.00.790,HideSeek_v1,2022.2.5,59.96872027280253,
,0,1,0,5,0,4,12,,train_dim1_1,4,30,,,,2,0,2,0,,,,,,,,,0,0,0,0,0,3,3,3,3,0,3,0,,,,,,,,,,,,,,,,,,,,,,,,,,,,,,,,,,,,,,,,,,,,,,,,,,,,,,,,,,,,,,,,30,,,,,,,,1136.3867778999265,1136.3867778999265,1136.3867778999265,1136.3867778999265,1136.3867778999265,left,1.1942068999633193,1,0,0,99,-0.16,-0.32,left,1.1118598999455571,,,,,,,,,,,,,,,,,,,,,,,,,,,,,,,,,,,,,,,,,,,,,,,,,,,,,,,,,,,,GUNLJP,train_y,red_square,bottom_left,2025-04-02_15h05.00.790,HideSeek_v1,2022.2.5,59.96872027280253,
,0,1,0,5,0,4,12,,train_dim1_1,4,30,,,,2,0,2,0,,,,,,,,,0,0,0,0,0,3,3,3,4,0,4,0,,,,,,,,,,,,,,,,,,,,,,,,,,,,,,,,,,,,,,,,,,,,,,,,,,,,,,,,,,,,,,,,30,,,,,,,,1137.5870097000152,1137.5870097000152,1137.5870097000152,1137.5870097000152,1137.5870097000152,up,0.5268243998289108,1,0,0,99,-0.16,-0.24,up,0.4420350000727922,,,,,,,,,,,,,,,,,,,,,,,,,,,,,,,,,,,,,,,,,,,,,,,,,,,,,,,,,,,,GUNLJP,train_y,red_square,bottom_left,2025-04-02_15h05.00.790,HideSeek_v1,2022.2.5,59.96872027280253,
,0,1,0,5,0,4,12,,train_dim1_1,4,30,,,,2,0,2,0,,,,,,,,,0,0,0,0,0,3,3,3,5,0,5,0,,,,,,,,,,,,,,,,,,,,,,,,,,,,,,,,,,,,,,,,,,,,,,,,,,,,,,,,,,,,,,,,30,,,,,,,,1138.1220631001052,1138.1220631001052,1138.1220631001052,1138.1220631001052,1138.1220631001052,up,0.8936829001177102,1,0,0,99,-0.16,-0.15999999999999998,up,0.8013487998396158,,,,,,,,,,,,,,,,,,,,,,,,,,,,,,,,,,,,,,,,,,,,,,,,,,,,,,,,,,,,GUNLJP,train_y,red_square,bottom_left,2025-04-02_15h05.00.790,HideSeek_v1,2022.2.5,59.96872027280253,
,0,1,0,5,0,4,12,,train_dim1_1,4,30,,,,2,0,2,0,,,,,,,,,0,0,0,0,0,3,3,3,6,0,6,0,,,,,,,,,,,,,,,,,,,,,,,,,,,,,,,,,,,,,,,,,,,,,,,,,,,,,,,,,,,,,,,,30,,,,,,,,1139.02177449991,1139.02177449991,1139.02177449991,1139.02177449991,1139.02177449991,up,0.5935007999651134,1,0,0,99,-0.16,-0.07999999999999997,up,0.5073520997539163,,,,,,,,,,,,,,,,,,,,,,,,,,,,,,,,,,,,,,,,,,,,,,,,,,,,,,,,,,,,GUNLJP,train_y,red_square,bottom_left,2025-04-02_15h05.00.790,HideSeek_v1,2022.2.5,59.96872027280253,
,0,1,0,5,0,4,12,,train_dim1_1,4,30,,,,2,0,2,0,,,,,,,,,0,0,0,0,0,3,3,3,7,0,7,0,,,,,,,,,,,,,,,,,,,,,,,,,,,,,,,,,,,,,,,,,,,,,,,,,,,,,,,,,,,,,,,,30,,,,,,,,1139.6233669000212,1139.6233669000212,1139.6233669000212,1139.6233669000212,1139.6233669000212,up,0.4932333999313414,1,0,0,99,-0.16,2.7755575615628914e-17,up,0.40194319980219007,,,,,,,,,,,,,,,,,,,,,,,,,,,,,,,,,,,,,,,,,,,,,,,,,,,,,,,,,,,,GUNLJP,train_y,red_square,bottom_left,2025-04-02_15h05.00.790,HideSeek_v1,2022.2.5,59.96872027280253,
,0,1,0,5,0,4,12,,train_dim1_1,4,30,,,,2,0,2,0,,,,,,,,,0,0,0,0,0,3,3,3,8,0,8,0,,,,,,,,,,,,,,,,,,,,,,,,,,,,,,,,,,,,,,,,,,,,,,,,,,,,,,,,,,,,,,,,30,,,,,,,,1140.123070300091,1140.123070300091,1140.123070300091,1140.123070300091,1140.123070300091,up,0.37673320015892386,1,0,0,99,-0.16,0.08000000000000003,up,0.2993624000810087,,,,,,,,,,,,,,,,,,,,,,,,,,,,,,,,,,,,,,,,,,,,,,,,,,,,,,,,,,,,GUNLJP,train_y,red_square,bottom_left,2025-04-02_15h05.00.790,HideSeek_v1,2022.2.5,59.96872027280253,
,0,1,0,5,0,4,12,,train_dim1_1,4,30,,,,2,0,2,0,,,,,,,,,0,0,0,0,0,3,3,3,9,0,9,0,,,,,,,,,,,,,,,,,,,,,,,,,,,,,,,,,,,,,,,,,,,,,,,,,,,,,,,,,,,,,,,,30,,,,,,,,1140.5060572999064,1140.5060572999064,1140.5060572999064,1140.5060572999064,1140.5060572999064,return,0.34324989980086684,1,1,0,0,-0.16,0.08000000000000003,return,0.2545595997944474,15,0,-0.16,0.08000000000000003,,,,,,,,,,,,,,,,,,,,,,,,,,,,,,,,,,,,,,,,,,,,,,,,,,,,,,,,GUNLJP,train_y,red_square,bottom_left,2025-04-02_15h05.00.790,HideSeek_v1,2022.2.5,59.96872027280253,
,3,3,3,8,0,5,11,,train_dim1_1,5,30,,,,2,0,2,0,,,,,,,,,0,0,0,0,0,4,4,4,0,0,0,0,,,,,,,,,,,,,,,,,,,,,,,,,stimuli/alien_stimuli/11.png,,,,,,,,,,,,,,,,,,,,,,,,,,,,,stimuli/alien_stimuli/12.png,12,0,6,,,,,,,30,,,,,,,,1158.5283814000431,1158.5283814000431,1158.5283814000431,1158.5283814000431,1158.5283814000431,up,2.4246533000841737,1,1,0,99,0.08,-0.08,up,2.3208836000412703,,,,,1156.9528312999755,1158.5283814000431,-0.16,0,0.32,0.0,-0.16,-0.16,-0.16,-0.16,0,1142.4261147999205,1142.4261147999205,1142.4261147999205,1142.4261147999205,1142.4261147999205,1142.4261147999205,1142.4261147999205,1142.4261147999205,1142.424146479834,14.64791540009901,return,14.508635999867693,,,,,,,,,,,,,,,,,,,,,,,,,,,,,,,,,GUNLJP,train_y,red_square,bottom_left,2025-04-02_15h05.00.790,HideSeek_v1,2022.2.5,59.96872027280253,
,3,3,3,8,0,5,11,,train_dim1_1,5,30,,,,2,0,2,0,,,,,,,,,0,0,0,0,0,4,4,4,1,0,1,0,,,,,,,,,,,,,,,,,,,,,,,,,,,,,,,,,,,,,,,,,,,,,,,,,,,,,,,,,,,,,,,,30,,,,,,,,1160.941724699922,1160.941724699922,1160.941724699922,1160.941724699922,1160.941724699922,up,1.360486099962145,1,1,0,99,0.08,0.0,up,1.2675593998283148,,,,,,,,,,,,,,,,,,,,,,,,,,,,,,,,,,,,,,,,,,,,,,,,,,,,,,,,,,,,GUNLJP,train_y,red_square,bottom_left,2025-04-02_15h05.00.790,HideSeek_v1,2022.2.5,59.96872027280253,
,3,3,3,8,0,5,11,,train_dim1_1,5,30,,,,2,0,2,0,,,,,,,,,0,0,0,0,0,4,4,4,2,0,2,0,,,,,,,,,,,,,,,,,,,,,,,,,,,,,,,,,,,,,,,,,,,,,,,,,,,,,,,,,,,,,,,,30,,,,,,,,1162.3074036000762,1162.3074036000762,1162.3074036000762,1162.3074036000762,1162.3074036000762,up,1.3772962999064475,1,1,0,99,0.08,0.08,up,1.301414999878034,,,,,,,,,,,,,,,,,,,,,,,,,,,,,,,,,,,,,,,,,,,,,,,,,,,,,,,,,,,,GUNLJP,train_y,red_square,bottom_left,2025-04-02_15h05.00.790,HideSeek_v1,2022.2.5,59.96872027280253,
,3,3,3,8,0,5,11,,train_dim1_1,5,30,,,,2,0,2,0,,,,,,,,,0,0,0,0,0,4,4,4,3,0,3,0,,,,,,,,,,,,,,,,,,,,,,,,,,,,,,,,,,,,,,,,,,,,,,,,,,,,,,,,,,,,,,,,30,,,,,,,,1163.6928445000667,1163.6928445000667,1163.6928445000667,1163.6928445000667,1163.6928445000667,return,0.6436914000660181,1,0,0,0,0.08,0.08,return,0.5505191998090595,18,0,0.08,0.08,,,,,,,,,,,,,,,,,,,,,,,,,,,,,,,,,,,,,,,,,,,,,,,,,,,,,,,,GUNLJP,train_y,red_square,bottom_left,2025-04-02_15h05.00.790,HideSeek_v1,2022.2.5,59.96872027280253,
,1,4,1,8,0,4,12,,train_dim1_1,6,30,,,,2,0,2,0,,,,,,,,,0,0,0,0,0,5,5,5,0,0,0,0,,,,,,,,,,,,,,,,,,,,,,,,,stimuli/alien_stimuli/12.png,,,,,,,,,,,,,,,,,,,,,,,,,,,,,stimuli/alien_stimuli/11.png,11,3,7,,,,,,,30,,,,,,,,1172.9542415000033,1172.9542415000033,1172.9542415000033,1172.9542415000033,1172.9542415000033,up,1.4737759998533875,1,0,0,99,-0.08,0.0,up,1.3945691999979317,,,,,1171.3981133000925,1172.9542415000033,0.08,0.24,0.4,0.0,0.039999999999999994,0.08,0.08,0.08,0.24,1165.9087306000292,1165.9087306000292,1165.9087306000292,1165.9087306000292,1165.9087306000292,1165.9087306000292,1165.9087306000292,1165.9087306000292,1165.9103917797563,5.607019999995828,return,5.468889499781653,,,,,,,,,,,,,,,,,,,,,,,,,,,,,,,,,GUNLJP,train_y,red_square,bottom_left,2025-04-02_15h05.00.790,HideSeek_v1,2022.2.5,59.96872027280253,
,1,4,1,8,0,4,12,,train_dim1_1,6,30,,,,2,0,2,0,,,,,,,,,0,0,0,0,0,5,5,5,1,0,1,0,,,,,,,,,,,,,,,,,,,,,,,,,,,,,,,,,,,,,,,,,,,,,,,,,,,,,,,,,,,,,,,,30,,,,,,,,1174.4347492000088,1174.4347492000088,1174.4347492000088,1174.4347492000088,1174.4347492000088,up,0.409529099939391,1,0,0,99,-0.08,0.08,up,0.32463559973984957,,,,,,,,,,,,,,,,,,,,,,,,,,,,,,,,,,,,,,,,,,,,,,,,,,,,,,,,,,,,GUNLJP,train_y,red_square,bottom_left,2025-04-02_15h05.00.790,HideSeek_v1,2022.2.5,59.96872027280253,
,1,4,1,8,0,4,12,,train_dim1_1,6,30,,,,2,0,2,0,,,,,,,,,0,0,0,0,0,5,5,5,2,0,2,0,,,,,,,,,,,,,,,,,,,,,,,,,,,,,,,,,,,,,,,,,,,,,,,,,,,,,,,,,,,,,,,,30,,,,,,,,1174.8521734999958,1174.8521734999958,1174.8521734999958,1174.8521734999958,1174.8521734999958,up,0.34321950003504753,1,0,0,99,-0.08,0.16,up,0.2638154998421669,,,,,,,,,,,,,,,,,,,,,,,,,,,,,,,,,,,,,,,,,,,,,,,,,,,,,,,,,,,,GUNLJP,train_y,red_square,bottom_left,2025-04-02_15h05.00.790,HideSeek_v1,2022.2.5,59.96872027280253,
,1,4,1,8,0,4,12,,train_dim1_1,6,30,,,,2,0,2,0,,,,,,,,,0,0,0,0,0,5,5,5,3,0,3,0,,,,,,,,,,,,,,,,,,,,,,,,,,,,,,,,,,,,,,,,,,,,,,,,,,,,,,,,,,,,,,,,30,,,,,,,,1175.2020805999637,1175.2020805999637,1175.2020805999637,1175.2020805999637,1175.2020805999637,return,0.6267512999475002,1,1,0,0,-0.08,0.16,return,0.5479194999206811,21,0,-0.08,0.16,,,,,,,,,,,,,,,,,,,,,,,,,,,,,,,,,,,,,,,,,,,,,,,,,,,,,,,,GUNLJP,train_y,red_square,bottom_left,2025-04-02_15h05.00.790,HideSeek_v1,2022.2.5,59.96872027280253,
,1,3,1,6,0,3,13,,train_dim1_1,7,30,,,,2,0,2,0,,,,,,,,,0,0,0,0,0,6,6,6,0,0,0,0,,,,,,,,,,,,,,,,,,,,,,,,,stimuli/alien_stimuli/13.png,,,,,,,,,,,,,,,,,,,,,,,,,,,,,stimuli/alien_stimuli/12.png,12,1,8,,,,,,,30,,,,,,,,1179.9603222000878,1179.9603222000878,1179.9603222000878,1179.9603222000878,1179.9603222000878,up,1.7401616000570357,1,1,0,99,-0.08,-0.08,up,1.6629311998840421,,,,,1178.4040051000193,1179.9603222000878,-0.08,0.24,0.32,0.0,0.07999999999999999,-0.08,-0.08,-0.08,0.24,1177.4037452999037,1177.4037452999037,1177.4037452999037,1177.4037452999037,1177.4037452999037,1177.4037452999037,1177.4037452999037,1177.4037452999037,1177.4032450799366,1.1196510998997837,return,0.9821140998974442,,,,,,,,,,,,,,,,,,,,,,,,,,,,,,,,,GUNLJP,train_y,red_square,bottom_left,2025-04-02_15h05.00.790,HideSeek_v1,2022.2.5,59.96872027280253,
,1,3,1,6,0,3,13,,train_dim1_1,7,30,,,,2,0,2,0,,,,,,,,,0,0,0,0,0,6,6,6,1,0,1,0,,,,,,,,,,,,,,,,,,,,,,,,,,,,,,,,,,,,,,,,,,,,,,,,,,,,,,,,,,,,,,,,30,,,,,,,,1181.7079717000015,1181.7079717000015,1181.7079717000015,1181.7079717000015,1181.7079717000015,up,0.2756167999468744,1,1,0,99,-0.08,0.0,up,0.18862679996527731,,,,,,,,,,,,,,,,,,,,,,,,,,,,,,,,,,,,,,,,,,,,,,,,,,,,,,,,,,,,GUNLJP,train_y,red_square,bottom_left,2025-04-02_15h05.00.790,HideSeek_v1,2022.2.5,59.96872027280253,
,1,3,1,6,0,3,13,,train_dim1_1,7,30,,,,2,0,2,0,,,,,,,,,0,0,0,0,0,6,6,6,2,0,2,0,,,,,,,,,,,,,,,,,,,,,,,,,,,,,,,,,,,,,,,,,,,,,,,,,,,,,,,,,,,,,,,,30,,,,,,,,1181.9910277999006,1181.9910277999006,1181.9910277999006,1181.9910277999006,1181.9910277999006,up,0.29308489989489317,1,1,0,99,-0.08,0.08,up,0.2122573999222368,,,,,,,,,,,,,,,,,,,,,,,,,,,,,,,,,,,,,,,,,,,,,,,,,,,,,,,,,,,,GUNLJP,train_y,red_square,bottom_left,2025-04-02_15h05.00.790,HideSeek_v1,2022.2.5,59.96872027280253,
,1,3,1,6,0,3,13,,train_dim1_1,7,30,,,,2,0,2,0,,,,,,,,,0,0,0,0,0,6,6,6,3,0,3,0,,,,,,,,,,,,,,,,,,,,,,,,,,,,,,,,,,,,,,,,,,,,,,,,,,,,,,,,,,,,,,,,30,,,,,,,,1182.2911197000649,1182.2911197000649,1182.2911197000649,1182.2911197000649,1182.2911197000649,up,0.2766352999024093,1,1,0,99,-0.08,0.16,up,0.19267439981922507,,,,,,,,,,,,,,,,,,,,,,,,,,,,,,,,,,,,,,,,,,,,,,,,,,,,,,,,,,,,GUNLJP,train_y,red_square,bottom_left,2025-04-02_15h05.00.790,HideSeek_v1,2022.2.5,59.96872027280253,
,1,3,1,6,0,3,13,,train_dim1_1,7,30,,,,2,0,2,0,,,,,,,,,0,0,0,0,0,6,6,6,4,0,4,0,,,,,,,,,,,,,,,,,,,,,,,,,,,,,,,,,,,,,,,,,,,,,,,,,,,,,,,,,,,,,,,,30,,,,,,,,1182.5745129999705,1182.5745129999705,1182.5745129999705,1182.5745129999705,1182.5745129999705,up,0.27644400019198656,1,1,0,99,-0.08,0.24,up,0.19232669984921813,,,,,,,,,,,,,,,,,,,,,,,,,,,,,,,,,,,,,,,,,,,,,,,,,,,,,,,,,,,,GUNLJP,train_y,red_square,bottom_left,2025-04-02_15h05.00.790,HideSeek_v1,2022.2.5,59.96872027280253,
,1,3,1,6,0,3,13,,train_dim1_1,7,30,,,,2,0,2,0,,,,,,,,,0,0,0,0,0,6,6,6,5,0,5,0,,,,,,,,,,,,,,,,,,,,,,,,,,,,,,,,,,,,,,,,,,,,,,,,,,,,,,,,,,,,,,,,30,,,,,,,,1182.8577078001108,1182.8577078001108,1182.8577078001108,1182.8577078001108,1182.8577078001108,return,1.3273181000258774,1,0,0,0,-0.08,0.24,return,1.2499342998489738,26,0,-0.08,0.24,,,,,,,,,,,,,,,,,,,,,,,,,,,,,,,,,,,,,,,,,,,,,,,,,,,,,,,,GUNLJP,train_y,red_square,bottom_left,2025-04-02_15h05.00.790,HideSeek_v1,2022.2.5,59.96872027280253,
,4,2,4,7,0,5,11,,train_dim1_1,8,30,,,,2,0,2,0,,,,,,,,,0,0,0,0,0,7,7,7,0,0,0,0,,,,,,,,,,,,,,,,,,,,,,,,,stimuli/alien_stimuli/11.png,,,,,,,,,,,,,,,,,,,,,,,,,,,,,stimuli/alien_stimuli/13.png,13,1,9,,,,,,,30,,,,,,,,1188.3008133999538,1188.3008133999538,1188.3008133999538,1188.3008133999538,1188.3008133999538,up,2.0565262001473457,1,0,0,99,0.16,-0.15999999999999998,up,1.9685002998448908,,,,,1186.7442403000314,1188.3008133999538,-0.08,0.08,0.24,0.0,-0.04,-0.08,-0.08,-0.08,0.08,1185.7391675000545,1185.7391675000545,1185.7391675000545,1185.7391675000545,1185.7391675000545,1185.7391675000545,1185.7391675000545,1185.7391675000545,1185.726842659805,1.1031567000318319,return,0.9751154000405222,,,,,,,,,,,,,,,,,,,,,,,,,,,,,,,,,GUNLJP,train_y,red_square,bottom_left,2025-04-02_15h05.00.790,HideSeek_v1,2022.2.5,59.96872027280253,
,4,2,4,7,0,5,11,,train_dim1_1,8,30,,,,2,0,2,0,,,,,,,,,0,0,0,0,0,7,7,7,1,0,1,0,,,,,,,,,,,,,,,,,,,,,,,,,,,,,,,,,,,,,,,,,,,,,,,,,,,,,,,,,,,,,,,,30,,,,,,,,1190.3648039000109,1190.3648039000109,1190.3648039000109,1190.3648039000109,1190.3648039000109,up,0.3095603999681771,1,0,0,99,0.16,-0.07999999999999997,up,0.2303023999556899,,,,,,,,,,,,,,,,,,,,,,,,,,,,,,,,,,,,,,,,,,,,,,,,,,,,,,,,,,,,GUNLJP,train_y,red_square,bottom_left,2025-04-02_15h05.00.790,HideSeek_v1,2022.2.5,59.96872027280253,
,4,2,4,7,0,5,11,,train_dim1_1,8,30,,,,2,0,2,0,,,,,,,,,0,0,0,0,0,7,7,7,2,0,2,0,,,,,,,,,,,,,,,,,,,,,,,,,,,,,,,,,,,,,,,,,,,,,,,,,,,,,,,,,,,,,,,,30,,,,,,,,1190.684905800037,1190.684905800037,1190.684905800037,1190.684905800037,1190.684905800037,up,0.39318879996426404,1,0,0,99,0.16,2.7755575615628914e-17,up,0.2985606000293046,,,,,,,,,,,,,,,,,,,,,,,,,,,,,,,,,,,,,,,,,,,,,,,,,,,,,,,,,,,,GUNLJP,train_y,red_square,bottom_left,2025-04-02_15h05.00.790,HideSeek_v1,2022.2.5,59.96872027280253,
,4,2,4,7,0,5,11,,train_dim1_1,8,30,,,,2,0,2,0,,,,,,,,,0,0,0,0,0,7,7,7,3,0,3,0,,,,,,,,,,,,,,,,,,,,,,,,,,,,,,,,,,,,,,,,,,,,,,,,,,,,,,,,,,,,,,,,30,,,,,,,,1191.0823488000315,1191.0823488000315,1191.0823488000315,1191.0823488000315,1191.0823488000315,up,1.5608122001867741,1,0,0,99,0.16,0.08000000000000003,up,1.4828215998131782,,,,,,,,,,,,,,,,,,,,,,,,,,,,,,,,,,,,,,,,,,,,,,,,,,,,,,,,,,,,GUNLJP,train_y,red_square,bottom_left,2025-04-02_15h05.00.790,HideSeek_v1,2022.2.5,59.96872027280253,
,4,2,4,7,0,5,11,,train_dim1_1,8,30,,,,2,0,2,0,,,,,,,,,0,0,0,0,0,7,7,7,4,0,4,0,,,,,,,,,,,,,,,,,,,,,,,,,,,,,,,,,,,,,,,,,,,,,,,,,,,,,,,,,,,,,,,,30,,,,,,,,1192.6486875999253,1192.6486875999253,1192.6486875999253,1192.6486875999253,1192.6486875999253,return,0.6602016999386251,1,1,0,0,0.16,0.08000000000000003,return,0.5842079997528344,30,0,0.16,0.08000000000000003,,,,,,,,,,,,,,,,,,,,,,,,,,,,,,,,,,,,,,,,,,,,,,,,,,,,,,,,GUNLJP,train_y,red_square,bottom_left,2025-04-02_15h05.00.790,HideSeek_v1,2022.2.5,59.96872027280253,
,4,3,4,4,0,1,15,,train_dim1_1,9,30,,,,2,0,2,0,,,,,,,,,0,0,0,0,0,8,8,8,0,0,0,0,,,,,,,,,,,,,,,,,,,,,,,,,stimuli/alien_stimuli/15.png,,,,,,,,,,,,,,,,,,,,,,,,,,,,,stimuli/alien_stimuli/11.png,11,4,10,,,,,,,30,,,,,,,,1197.641416999977,1197.641416999977,1197.641416999977,1197.641416999977,1197.641416999977,return,2.1079232001211494,1,1,0,0,0.16,-0.16,return,2.0312671998981386,30,0,0.16,-0.16,1196.0853943000548,1197.641416999977,0.16,0.16,0.4,0.0,-0.039999999999999994,0.16,0.16,0.16,0.16,1194.8838289999403,1194.8838289999403,1194.8838289999403,1194.8838289999403,1194.8838289999403,1194.8838289999403,1194.8838289999403,1194.8838289999403,1194.8846434798559,1.3195189000107348,return,1.1753686999436468,,,,,,,,,,,,,,,,,,,,,,,,,,,,,,,,,GUNLJP,train_y,red_square,bottom_left,2025-04-02_15h05.00.790,HideSeek_v1,2022.2.5,59.96872027280253,
,2,2,2,2,0,0,16,,train_dim1_1,10,30,,,,2,0,2,0,,,,,,,,,0,0,0,0,0,9,9,9,0,0,0,0,,,,,,,,,,,,,,,,,,,,,,,,,stimuli/alien_stimuli/16.png,,,,,,,,,,,,,,,,,,,,,,,,,,,,,stimuli/alien_stimuli/15.png,15,4,11,,,,,,,30,,,,,,,,1204.2807505999226,1204.2807505999226,1204.2807505999226,1204.2807505999226,1204.2807505999226,return,1.9906898001208901,2,0,0,1,0,-0.24,return,1.9111307999119163,30,0,0,-0.24,1202.7241775000002,1204.2807505999226,0.16,-0.08,0.08,0.0,-0.12,0.16,0.16,0.16,-0.08,1201.304595099995,1201.304595099995,1201.304595099995,1201.304595099995,1201.304595099995,1201.304595099995,1201.304595099995,1201.304595099995,1201.3064474198968,1.519954999908805,return,1.3995149000547826,,,,,,,,,,,,,,,,,,,,,,,,,,,,,,,,,GUNLJP,train_y,red_square,bottom_left,2025-04-02_15h05.00.790,HideSeek_v1,2022.2.5,59.96872027280253,
,4,1,4,2,0,1,15,,train_dim1_1,11,30,,,,2,0,2,0,,,,,,,,,0,0,0,0,0,10,10,10,0,0,0,0,,,,,,,,,,,,,,,,,,,,,,,,,stimuli/alien_stimuli/15.png,,,,,,,,,,,,,,,,,,,,,,,,,,,,,stimuli/alien_stimuli/16.png,16,2,12,,,,,,,30,,,,,,,,1211.5024685000535,1211.5024685000535,1211.5024685000535,1211.5024685000535,1211.5024685000535,return,2.5084176000673324,2,1,0,0,0.16,-0.32,return,2.4291370999999344,30,0,0.16,-0.32,1209.9468944000546,1211.5024685000535,0,-0.24,0.0,0.0,-0.24,0,0.0,0,-0.24,1207.8256194000132,1207.8256194000132,1207.8256194000132,1207.8256194000132,1207.8256194000132,1207.8256194000132,1207.8256194000132,1207.8256194000132,1207.8118895597756,2.2205046000890434,return,2.0979528999887407,,,,,,,,,,,,,,,,,,,,,,,,,,,,,,,,,GUNLJP,train_y,red_square,bottom_left,2025-04-02_15h05.00.790,HideSeek_v1,2022.2.5,59.96872027280253,
,0,0,0,5,0,5,11,,train_dim1_1,12,30,,,,2,0,2,0,,,,,,,,,0,0,0,0,0,11,11,11,0,0,0,0,,,,,,,,,,,,,,,,,,,,,,,,,stimuli/alien_stimuli/11.png,,,,,,,,,,,,,,,,,,,,,,,,,,,,,stimuli/alien_stimuli/15.png,15,4,13,,,,,,,30,,,,,,,,1217.8075059000403,1217.8075059000403,1217.8075059000403,1217.8075059000403,1217.8075059000403,up,1.3565758999902755,2,1,0,99,-0.16,-0.32,up,1.2708241997752339,,,,,1216.2522587999701,1217.8075059000403,0.16,-0.24,0.08,0.0,-0.28,0.16,0.16,0.16,-0.24,1215.5661742999218,1215.5661742999218,1215.5661742999218,1215.5661742999218,1215.5661742999218,1215.5661742999218,1215.5661742999218,1215.5661742999218,1215.551615459891,0.7861884001176804,return,0.6690682999324054,,,,,,,,,,,,,,,,,,,,,,,,,,,,,,,,,GUNLJP,train_y,red_square,bottom_left,2025-04-02_15h05.00.790,HideSeek_v1,2022.2.5,59.96872027280253,
,0,0,0,5,0,5,11,,train_dim1_1,12,30,,,,2,0,2,0,,,,,,,,,0,0,0,0,0,11,11,11,1,0,1,0,,,,,,,,,,,,,,,,,,,,,,,,,,,,,,,,,,,,,,,,,,,,,,,,,,,,,,,,,,,,,,,,30,,,,,,,,1219.17238610005,1219.17238610005,1219.17238610005,1219.17238610005,1219.17238610005,up,0.376574199879542,2,1,0,99,-0.16,-0.24,up,0.2920989999547601,,,,,,,,,,,,,,,,,,,,,,,,,,,,,,,,,,,,,,,,,,,,,,,,,,,,,,,,,,,,GUNLJP,train_y,red_square,bottom_left,2025-04-02_15h05.00.790,HideSeek_v1,2022.2.5,59.96872027280253,
,0,0,0,5,0,5,11,,train_dim1_1,12,30,,,,2,0,2,0,,,,,,,,,0,0,0,0,0,11,11,11,2,0,2,0,,,,,,,,,,,,,,,,,,,,,,,,,,,,,,,,,,,,,,,,,,,,,,,,,,,,,,,,,,,,,,,,30,,,,,,,,1219.5564407000784,1219.5564407000784,1219.5564407000784,1219.5564407000784,1219.5564407000784,up,0.3267016999889165,2,1,0,99,-0.16,-0.15999999999999998,up,0.23389439983293414,,,,,,,,,,,,,,,,,,,,,,,,,,,,,,,,,,,,,,,,,,,,,,,,,,,,,,,,,,,,GUNLJP,train_y,red_square,bottom_left,2025-04-02_15h05.00.790,HideSeek_v1,2022.2.5,59.96872027280253,
,0,0,0,5,0,5,11,,train_dim1_1,12,30,,,,2,0,2,0,,,,,,,,,0,0,0,0,0,11,11,11,3,0,3,0,,,,,,,,,,,,,,,,,,,,,,,,,,,,,,,,,,,,,,,,,,,,,,,,,,,,,,,,,,,,,,,,30,,,,,,,,1219.8892745000776,1219.8892745000776,1219.8892745000776,1219.8892745000776,1219.8892745000776,up,0.3432987001724541,2,1,0,99,-0.16,-0.07999999999999997,up,0.2664081999100745,,,,,,,,,,,,,,,,,,,,,,,,,,,,,,,,,,,,,,,,,,,,,,,,,,,,,,,,,,,,GUNLJP,train_y,red_square,bottom_left,2025-04-02_15h05.00.790,HideSeek_v1,2022.2.5,59.96872027280253,
,0,0,0,5,0,5,11,,train_dim1_1,12,30,,,,2,0,2,0,,,,,,,,,0,0,0,0,0,11,11,11,4,0,4,0,,,,,,,,,,,,,,,,,,,,,,,,,,,,,,,,,,,,,,,,,,,,,,,,,,,,,,,,,,,,,,,,30,,,,,,,,1220.2395911000203,1220.2395911000203,1220.2395911000203,1220.2395911000203,1220.2395911000203,return,0.292963300133124,2,1,0,0,-0.16,-0.07999999999999997,return,0.21450440003536642,34,0,-0.16,-0.07999999999999997,,,,,,,,,,,,,,,,,,,,,,,,,,,,,,,,,,,,,,,,,,,,,,,,,,,,,,,,GUNLJP,train_y,red_square,bottom_left,2025-04-02_15h05.00.790,HideSeek_v1,2022.2.5,59.96872027280253,
,4,3,4,7,0,4,12,,train_dim1_1,13,30,,,,2,0,2,0,,,,,,,,,0,0,0,0,0,12,12,12,0,0,0,0,,,,,,,,,,,,,,,,,,,,,,,,,stimuli/alien_stimuli/12.png,,,,,,,,,,,,,,,,,,,,,,,,,,,,,stimuli/alien_stimuli/11.png,11,0,14,,,,,,,30,,,,,,,,1225.002053400036,1225.002053400036,1225.002053400036,1225.002053400036,1225.002053400036,up,1.289690600009635,2,1,0,99,0.16,-0.08,up,1.1979463000316173,,,,,1223.4416300999,1225.002053400036,-0.16,0,0.4,0.0,-0.2,-0.16,-0.16,-0.16,0,1222.0866914999206,1222.0866914999206,1222.0866914999206,1222.0866914999206,1222.0866914999206,1222.0866914999206,1222.0866914999206,1222.0866914999206,1222.0736378599424,1.4531108001247048,return,1.32339599984698,,,,,,,,,,,,,,,,,,,,,,,,,,,,,,,,,GUNLJP,train_y,red_square,bottom_left,2025-04-02_15h05.00.790,HideSeek_v1,2022.2.5,59.96872027280253,
,4,3,4,7,0,4,12,,train_dim1_1,13,30,,,,2,0,2,0,,,,,,,,,0,0,0,0,0,12,12,12,1,0,1,0,,,,,,,,,,,,,,,,,,,,,,,,,,,,,,,,,,,,,,,,,,,,,,,,,,,,,,,,,,,,,,,,30,,,,,,,,1226.295131900115,1226.295131900115,1226.295131900115,1226.295131900115,1226.295131900115,up,0.36007210006937385,2,1,0,99,0.16,0.0,up,0.2724136000033468,,,,,,,,,,,,,,,,,,,,,,,,,,,,,,,,,,,,,,,,,,,,,,,,,,,,,,,,,,,,GUNLJP,train_y,red_square,bottom_left,2025-04-02_15h05.00.790,HideSeek_v1,2022.2.5,59.96872027280253,
,4,3,4,7,0,4,12,,train_dim1_1,13,30,,,,2,0,2,0,,,,,,,,,0,0,0,0,0,12,12,12,2,0,2,0,,,,,,,,,,,,,,,,,,,,,,,,,,,,,,,,,,,,,,,,,,,,,,,,,,,,,,,,,,,,,,,,30,,,,,,,,1226.6665119999088,1226.6665119999088,1226.6665119999088,1226.6665119999088,1226.6665119999088,up,0.30524399993009865,2,1,0,99,0.16,0.08,up,0.22741409996524453,,,,,,,,,,,,,,,,,,,,,,,,,,,,,,,,,,,,,,,,,,,,,,,,,,,,,,,,,,,,GUNLJP,train_y,red_square,bottom_left,2025-04-02_15h05.00.790,HideSeek_v1,2022.2.5,59.96872027280253,
,4,3,4,7,0,4,12,,train_dim1_1,13,30,,,,2,0,2,0,,,,,,,,,0,0,0,0,0,12,12,12,3,0,3,0,,,,,,,,,,,,,,,,,,,,,,,,,,,,,,,,,,,,,,,,,,,,,,,,,,,,,,,,,,,,,,,,30,,,,,,,,1226.9783999999054,1226.9783999999054,1226.9783999999054,1226.9783999999054,1226.9783999999054,return,0.29331719991751015,2,1,0,0,0.16,0.08,return,0.21238249982707202,37,0,0.16,0.08,,,,,,,,,,,,,,,,,,,,,,,,,,,,,,,,,,,,,,,,,,,,,,,,,,,,,,,,GUNLJP,train_y,red_square,bottom_left,2025-04-02_15h05.00.790,HideSeek_v1,2022.2.5,59.96872027280253,
,2,2,2,2,0,0,16,,train_dim1_1,14,30,,,,2,0,2,0,,,,,,,,,0,0,0,0,0,13,13,13,0,0,0,0,,,,,,,,,,,,,,,,,,,,,,,,,stimuli/alien_stimuli/16.png,,,,,,,,,,,,,,,,,,,,,,,,,,,,,stimuli/alien_stimuli/12.png,12,4,15,,,,,,,30,,,,,,,,1231.0680146999657,1231.0680146999657,1231.0680146999657,1231.0680146999657,1231.0680146999657,up,1.49054369982332,2,1,0,99,0,-0.15999999999999998,up,1.4050328999292105,,,,,1229.5132442000322,1231.0680146999657,0.16,0.16,0.32,0.0,0.0,0.16,0.16,0.16,0.16,1228.826512800064,1228.826512800064,1228.826512800064,1228.826512800064,1228.826512800064,1228.826512800064,1228.826512800064,1228.826512800064,1228.812486659782,0.7865013999398798,return,0.659694799920544,,,,,,,,,,,,,,,,,,,,,,,,,,,,,,,,,GUNLJP,train_y,red_square,bottom_left,2025-04-02_15h05.00.790,HideSeek_v1,2022.2.5,59.96872027280253,
,2,2,2,2,0,0,16,,train_dim1_1,14,30,,,,2,0,2,0,,,,,,,,,0,0,0,0,0,13,13,13,1,0,1,0,,,,,,,,,,,,,,,,,,,,,,,,,,,,,,,,,,,,,,,,,,,,,,,,,,,,,,,,,,,,,,,,30,,,,,,,,1232.5664103999734,1232.5664103999734,1232.5664103999734,1232.5664103999734,1232.5664103999734,up,0.2764169001020491,2,1,0,99,0,-0.07999999999999997,up,0.19944419991225004,,,,,,,,,,,,,,,,,,,,,,,,,,,,,,,,,,,,,,,,,,,,,,,,,,,,,,,,,,,,GUNLJP,train_y,red_square,bottom_left,2025-04-02_15h05.00.790,HideSeek_v1,2022.2.5,59.96872027280253,
,2,2,2,2,0,0,16,,train_dim1_1,14,30,,,,2,0,2,0,,,,,,,,,0,0,0,0,0,13,13,13,2,0,2,0,,,,,,,,,,,,,,,,,,,,,,,,,,,,,,,,,,,,,,,,,,,,,,,,,,,,,,,,,,,,,,,,30,,,,,,,,1232.8497703999747,1232.8497703999747,1232.8497703999747,1232.8497703999747,1232.8497703999747,down,1.89436489995569,2,1,0,99,0,-0.15999999999999998,down,1.817668299889192,,,,,,,,,,,,,,,,,,,,,,,,,,,,,,,,,,,,,,,,,,,,,,,,,,,,,,,,,,,,GUNLJP,train_y,red_square,bottom_left,2025-04-02_15h05.00.790,HideSeek_v1,2022.2.5,59.96872027280253,
,2,2,2,2,0,0,16,,train_dim1_1,14,30,,,,2,0,2,0,,,,,,,,,0,0,0,0,0,13,13,13,3,0,3,0,,,,,,,,,,,,,,,,,,,,,,,,,,,,,,,,,,,,,,,,,,,,,,,,,,,,,,,,,,,,,,,,30,,,,,,,,1234.7511779000051,1234.7511779000051,1234.7511779000051,1234.7511779000051,1234.7511779000051,down,0.3599982999730855,2,1,0,99,0,-0.24,down,0.2783156998921186,,,,,,,,,,,,,,,,,,,,,,,,,,,,,,,,,,,,,,,,,,,,,,,,,,,,,,,,,,,,GUNLJP,train_y,red_square,bottom_left,2025-04-02_15h05.00.790,HideSeek_v1,2022.2.5,59.96872027280253,
,2,2,2,2,0,0,16,,train_dim1_1,14,30,,,,2,0,2,0,,,,,,,,,0,0,0,0,0,13,13,13,4,0,4,0,,,,,,,,,,,,,,,,,,,,,,,,,,,,,,,,,,,,,,,,,,,,,,,,,,,,,,,,,,,,,,,,30,,,,,,,,1235.118004299933,1235.118004299933,1235.118004299933,1235.118004299933,1235.118004299933,return,0.37660719989798963,3,0,0,1,0,-0.24,return,0.2856066997628659,37,0,0,-0.24,,,,,,,,,,,,,,,,,,,,,,,,,,,,,,,,,,,,,,,,,,,,,,,,,,,,,,,,GUNLJP,train_y,red_square,bottom_left,2025-04-02_15h05.00.790,HideSeek_v1,2022.2.5,59.96872027280253,
,1,4,1,7,0,3,13,,train_dim1_1,15,30,,,,2,0,2,0,,,,,,,,,0,0,0,0,0,14,14,14,0,0,0,0,,,,,,,,,,,,,,,,,,,,,,,,,stimuli/alien_stimuli/13.png,,,,,,,,,,,,,,,,,,,,,,,,,,,,,stimuli/alien_stimuli/16.png,16,2,16,,,,,,,30,,,,,,,,1239.931625300087,1239.931625300087,1239.931625300087,1239.931625300087,1239.931625300087,up,1.6675818001385778,3,0,0,99,-0.08,0.0,up,1.591748199891299,,,,,1238.3707131000701,1239.931625300087,0,-0.24,0.0,0.0,-0.24,0,0.0,0,-0.24,1237.0485654999502,1237.0485654999502,1237.0485654999502,1237.0485654999502,1237.0485654999502,1237.0485654999502,1237.0485654999502,1237.0485654999502,1237.0359945598059,1.4200271000154316,return,1.3050020998343825,,,,,,,,,,,,,,,,,,,,,,,,,,,,,,,,,GUNLJP,train_y,red_square,bottom_left,2025-04-02_15h05.00.790,HideSeek_v1,2022.2.5,59.96872027280253,
,1,4,1,7,0,3,13,,train_dim1_1,15,30,,,,2,0,2,0,,,,,,,,,0,0,0,0,0,14,14,14,1,0,1,0,,,,,,,,,,,,,,,,,,,,,,,,,,,,,,,,,,,,,,,,,,,,,,,,,,,,,,,,,,,,,,,,30,,,,,,,,1241.6067681999411,1241.6067681999411,1241.6067681999411,1241.6067681999411,1241.6067681999411,up,0.6598598000127822,3,0,0,99,-0.08,0.08,up,0.5718646997120231,,,,,,,,,,,,,,,,,,,,,,,,,,,,,,,,,,,,,,,,,,,,,,,,,,,,,,,,,,,,GUNLJP,train_y,red_square,bottom_left,2025-04-02_15h05.00.790,HideSeek_v1,2022.2.5,59.96872027280253,
,1,4,1,7,0,3,13,,train_dim1_1,15,30,,,,2,0,2,0,,,,,,,,,0,0,0,0,0,14,14,14,2,0,2,0,,,,,,,,,,,,,,,,,,,,,,,,,,,,,,,,,,,,,,,,,,,,,,,,,,,,,,,,,,,,,,,,30,,,,,,,,1242.273990900023,1242.273990900023,1242.273990900023,1242.273990900023,1242.273990900023,up,0.42702220007777214,3,0,0,99,-0.08,0.16,up,0.3432281999848783,,,,,,,,,,,,,,,,,,,,,,,,,,,,,,,,,,,,,,,,,,,,,,,,,,,,,,,,,,,,GUNLJP,train_y,red_square,bottom_left,2025-04-02_15h05.00.790,HideSeek_v1,2022.2.5,59.96872027280253,
,1,4,1,7,0,3,13,,train_dim1_1,15,30,,,,2,0,2,0,,,,,,,,,0,0,0,0,0,14,14,14,3,0,3,0,,,,,,,,,,,,,,,,,,,,,,,,,,,,,,,,,,,,,,,,,,,,,,,,,,,,,,,,,,,,,,,,30,,,,,,,,1242.7071871999651,1242.7071871999651,1242.7071871999651,1242.7071871999651,1242.7071871999651,return,0.30981609993614256,4,0,0,1,-0.08,0.16,return,0.22973679983988404,40,0,-0.08,0.16,,,,,,,,,,,,,,,,,,,,,,,,,,,,,,,,,,,,,,,,,,,,,,,,,,,,,,,,GUNLJP,train_y,red_square,bottom_left,2025-04-02_15h05.00.790,HideSeek_v1,2022.2.5,59.96872027280253,
,4,0,4,1,0,1,15,,train_dim1_1,16,30,,,,2,0,2,0,,,,,,,,,0,0,0,0,0,15,15,15,0,0,0,0,,,,,,,,,,,,,,,,,,,,,,,,,stimuli/alien_stimuli/15.png,,,,,,,,,,,,,,,,,,,,,,,,,,,,,stimuli/alien_stimuli/13.png,13,1,17,,,,,,,30,,,,,,,,1247.133149100002,1247.133149100002,1247.133149100002,1247.133149100002,1247.133149100002,up,1.1734317000955343,4,0,0,99,0.16,-0.32,up,1.0938905000220984,,,,,1245.5767544999253,1247.133149100002,-0.08,0.16,0.24,0.0,0.04,-0.08,-0.08,-0.08,0.16,1244.5888976000715,1244.5888976000715,1244.5888976000715,1244.5888976000715,1244.5888976000715,1244.5888976000715,1244.5888976000715,1244.5888976000715,1244.5754866198172,1.1038531998638064,return,0.968313799938187,,,,,,,,,,,,,,,,,,,,,,,,,,,,,,,,,GUNLJP,train_y,red_square,bottom_left,2025-04-02_15h05.00.790,HideSeek_v1,2022.2.5,59.96872027280253,
,4,0,4,1,0,1,15,,train_dim1_1,16,30,,,,2,0,2,0,,,,,,,,,0,0,0,0,0,15,15,15,1,0,1,0,,,,,,,,,,,,,,,,,,,,,,,,,,,,,,,,,,,,,,,,,,,,,,,,,,,,,,,,,,,,,,,,30,,,,,,,,1248.3142277000006,1248.3142277000006,1248.3142277000006,1248.3142277000006,1248.3142277000006,down,0.776443799957633,4,0,0,99,0.16,-0.4,down,0.6876921998336911,,,,,,,,,,,,,,,,,,,,,,,,,,,,,,,,,,,,,,,,,,,,,,,,,,,,,,,,,,,,GUNLJP,train_y,red_square,bottom_left,2025-04-02_15h05.00.790,HideSeek_v1,2022.2.5,59.96872027280253,
,4,0,4,1,0,1,15,,train_dim1_1,16,30,,,,2,0,2,0,,,,,,,,,0,0,0,0,0,15,15,15,2,0,2,0,,,,,,,,,,,,,,,,,,,,,,,,,,,,,,,,,,,,,,,,,,,,,,,,,,,,,,,,,,,,,,,,30,,,,,,,,1249.097414799966,1249.097414799966,1249.097414799966,1249.097414799966,1249.097414799966,return,0.19307660008780658,4,1,0,0,0.16,-0.4,return,0.11546569992788136,40,0,0.16,-0.4,,,,,,,,,,,,,,,,,,,,,,,,,,,,,,,,,,,,,,,,,,,,,,,,,,,,,,,,GUNLJP,train_y,red_square,bottom_left,2025-04-02_15h05.00.790,HideSeek_v1,2022.2.5,59.96872027280253,
,3,3,3,6,0,3,13,,train_dim1_1,17,30,,,,2,0,2,0,,,,,,,,,0,0,0,0,0,16,16,16,0,0,0,0,,,,,,,,,,,,,,,,,,,,,,,,,stimuli/alien_stimuli/13.png,,,,,,,,,,,,,,,,,,,,,,,,,,,,,stimuli/alien_stimuli/15.png,15,4,18,,,,,,,30,,,,,,,,1253.0876430999488,1253.0876430999488,1253.0876430999488,1253.0876430999488,1253.0876430999488,up,1.3404451999813318,4,1,0,99,0.08,-0.08,up,1.2482647998258471,,,,,1251.5315787999425,1253.0876430999488,0.16,-0.32,0.08,0.0,-0.36,0.16,0.16,0.16,-0.32,1250.8451549001038,1250.8451549001038,1250.8451549001038,1250.8451549001038,1250.8451549001038,1250.8451549001038,1250.8451549001038,1250.8451549001038,1250.8308766598814,0.7862801000010222,return,0.6655039999168366,,,,,,,,,,,,,,,,,,,,,,,,,,,,,,,,,GUNLJP,train_y,red_square,bottom_left,2025-04-02_15h05.00.790,HideSeek_v1,2022.2.5,59.96872027280253,
,3,3,3,6,0,3,13,,train_dim1_1,17,30,,,,2,0,2,0,,,,,,,,,0,0,0,0,0,16,16,16,1,0,1,0,,,,,,,,,,,,,,,,,,,,,,,,,,,,,,,,,,,,,,,,,,,,,,,,,,,,,,,,,,,,,,,,30,,,,,,,,1254.4377492999192,1254.4377492999192,1254.4377492999192,1254.4377492999192,1254.4377492999192,up,0.3234431999735534,4,1,0,99,0.08,0.0,up,0.24476679996587336,,,,,,,,,,,,,,,,,,,,,,,,,,,,,,,,,,,,,,,,,,,,,,,,,,,,,,,,,,,,GUNLJP,train_y,red_square,bottom_left,2025-04-02_15h05.00.790,HideSeek_v1,2022.2.5,59.96872027280253,
,3,3,3,6,0,3,13,,train_dim1_1,17,30,,,,2,0,2,0,,,,,,,,,0,0,0,0,0,16,16,16,2,0,2,0,,,,,,,,,,,,,,,,,,,,,,,,,,,,,,,,,,,,,,,,,,,,,,,,,,,,,,,,,,,,,,,,30,,,,,,,,1254.7674893001094,1254.7674893001094,1254.7674893001094,1254.7674893001094,1254.7674893001094,up,0.34367100009694695,4,1,0,99,0.08,0.08,up,0.2623795000836253,,,,,,,,,,,,,,,,,,,,,,,,,,,,,,,,,,,,,,,,,,,,,,,,,,,,,,,,,,,,GUNLJP,train_y,red_square,bottom_left,2025-04-02_15h05.00.790,HideSeek_v1,2022.2.5,59.96872027280253,
,3,3,3,6,0,3,13,,train_dim1_1,17,30,,,,2,0,2,0,,,,,,,,,0,0,0,0,0,16,16,16,3,0,3,0,,,,,,,,,,,,,,,,,,,,,,,,,,,,,,,,,,,,,,,,,,,,,,,,,,,,,,,,,,,,,,,,30,,,,,,,,1255.1182244000956,1255.1182244000956,1255.1182244000956,1255.1182244000956,1255.1182244000956,up,1.1938251999672502,4,1,0,99,0.08,0.16,up,1.1155337998643517,,,,,,,,,,,,,,,,,,,,,,,,,,,,,,,,,,,,,,,,,,,,,,,,,,,,,,,,,,,,GUNLJP,train_y,red_square,bottom_left,2025-04-02_15h05.00.790,HideSeek_v1,2022.2.5,59.96872027280253,
,3,3,3,6,0,3,13,,train_dim1_1,17,30,,,,2,0,2,0,,,,,,,,,0,0,0,0,0,16,16,16,4,0,4,0,,,,,,,,,,,,,,,,,,,,,,,,,,,,,,,,,,,,,,,,,,,,,,,,,,,,,,,,,,,,,,,,30,,,,,,,,1256.3184970000293,1256.3184970000293,1256.3184970000293,1256.3184970000293,1256.3184970000293,return,0.2100235999096185,4,1,0,0,0.08,0.16,return,0.1316056998912245,44,0,0.08,0.16,,,,,,,,,,,,,,,,,,,,,,,,,,,,,,,,,,,,,,,,,,,,,,,,,,,,,,,,GUNLJP,train_y,red_square,bottom_left,2025-04-02_15h05.00.790,HideSeek_v1,2022.2.5,59.96872027280253,
,2,1,2,6,0,5,11,,train_dim1_1,18,30,,,,2,0,2,0,,,,,,,,,0,0,0,0,0,17,17,17,0,0,0,0,,,,,,,,,,,,,,,,,,,,,,,,,stimuli/alien_stimuli/11.png,,,,,,,,,,,,,,,,,,,,,,,,,,,,,stimuli/alien_stimuli/13.png,13,3,19,,,,,,,30,,,,,,,,1273.760966300033,1273.760966300033,1273.760966300033,1273.760966300033,1273.760966300033,up,2.420923499856144,4,1,0,99,0,-0.24,up,2.3144644999410957,,,,,1272.182030200027,1273.760966300033,0.08,0.08,0.24,0.0,-0.04,0.08,0.08,0.08,0.08,1258.085055799922,1258.085055799922,1258.085055799922,1258.085055799922,1258.085055799922,1258.085055799922,1258.085055799922,1258.085055799922,1258.070163659798,14.19744829996489,return,14.075660799862817,,,,,,,,,,,,,,,,,,,,,,,,,,,,,,,,,GUNLJP,train_y,red_square,bottom_left,2025-04-02_15h05.00.790,HideSeek_v1,2022.2.5,59.96872027280253,
,2,1,2,6,0,5,11,,train_dim1_1,18,30,,,,2,0,2,0,,,,,,,,,0,0,0,0,0,17,17,17,1,0,1,0,,,,,,,,,,,,,,,,,,,,,,,,,,,,,,,,,,,,,,,,,,,,,,,,,,,,,,,,,,,,,,,,30,,,,,,,,1276.1699020001106,1276.1699020001106,1276.1699020001106,1276.1699020001106,1276.1699020001106,up,1.5770672999788076,4,1,0,99,0,-0.15999999999999998,up,1.4893808998167515,,,,,,,,,,,,,,,,,,,,,,,,,,,,,,,,,,,,,,,,,,,,,,,,,,,,,,,,,,,,GUNLJP,train_y,red_square,bottom_left,2025-04-02_15h05.00.790,HideSeek_v1,2022.2.5,59.96872027280253,
,2,1,2,6,0,5,11,,train_dim1_1,18,30,,,,2,0,2,0,,,,,,,,,0,0,0,0,0,17,17,17,2,0,2,0,,,,,,,,,,,,,,,,,,,,,,,,,,,,,,,,,,,,,,,,,,,,,,,,,,,,,,,,,,,,,,,,30,,,,,,,,1277.7531183999963,1277.7531183999963,1277.7531183999963,1277.7531183999963,1277.7531183999963,up,1.2939545998815447,4,1,0,99,0,-0.07999999999999997,up,1.211323499912396,,,,,,,,,,,,,,,,,,,,,,,,,,,,,,,,,,,,,,,,,,,,,,,,,,,,,,,,,,,,GUNLJP,train_y,red_square,bottom_left,2025-04-02_15h05.00.790,HideSeek_v1,2022.2.5,59.96872027280253,
,2,1,2,6,0,5,11,,train_dim1_1,18,30,,,,2,0,2,0,,,,,,,,,0,0,0,0,0,17,17,17,3,0,3,0,,,,,,,,,,,,,,,,,,,,,,,,,,,,,,,,,,,,,,,,,,,,,,,,,,,,,,,,,,,,,,,,30,,,,,,,,1279.054189800052,1279.054189800052,1279.054189800052,1279.054189800052,1279.054189800052,return,3.0456433000508696,4,0,0,0,0,-0.07999999999999997,return,2.9692671997472644,47,0,0,-0.07999999999999997,,,,,,,,,,,,,,,,,,,,,,,,,,,,,,,,,,,,,,,,,,,,,,,,,,,,,,,,GUNLJP,train_y,red_square,bottom_left,2025-04-02_15h05.00.790,HideSeek_v1,2022.2.5,59.96872027280253,
,0,4,0,8,0,4,12,,train_dim1_1,19,30,,,,2,0,2,0,,,,,,,,,0,0,0,0,0,18,18,18,0,0,0,0,,,,,,,,,,,,,,,,,,,,,,,,,stimuli/alien_stimuli/12.png,,,,,,,,,,,,,,,,,,,,,,,,,,,,,stimuli/alien_stimuli/11.png,11,2,20,,,,,,,30,,,,,,,,1285.8982059000991,1285.8982059000991,1285.8982059000991,1285.8982059000991,1285.8982059000991,up,1.406946999952197,4,0,0,99,-0.16,0.0,up,1.329260799800977,,,,,1284.3421306998935,1285.8982059000991,0,0.08,0.4,0.0,-0.12,0,0.0,0,0.08,1283.6766518999357,1283.6766518999357,1283.6766518999357,1283.6766518999357,1283.6766518999357,1283.6766518999357,1283.6766518999357,1283.6766518999357,1283.6753512799276,0.7856097999028862,return,0.63318010000512,,,,,,,,,,,,,,,,,,,,,,,,,,,,,,,,,GUNLJP,train_y,red_square,bottom_left,2025-04-02_15h05.00.790,HideSeek_v1,2022.2.5,59.96872027280253,
,0,4,0,8,0,4,12,,train_dim1_1,19,30,,,,2,0,2,0,,,,,,,,,0,0,0,0,0,18,18,18,1,0,1,0,,,,,,,,,,,,,,,,,,,,,,,,,,,,,,,,,,,,,,,,,,,,,,,,,,,,,,,,,,,,,,,,30,,,,,,,,1287.3128825998865,1287.3128825998865,1287.3128825998865,1287.3128825998865,1287.3128825998865,up,1.1768860002048314,4,0,0,99,-0.16,0.08,up,1.0910861999727786,,,,,,,,,,,,,,,,,,,,,,,,,,,,,,,,,,,,,,,,,,,,,,,,,,,,,,,,,,,,GUNLJP,train_y,red_square,bottom_left,2025-04-02_15h05.00.790,HideSeek_v1,2022.2.5,59.96872027280253,
,0,4,0,8,0,4,12,,train_dim1_1,19,30,,,,2,0,2,0,,,,,,,,,0,0,0,0,0,18,18,18,2,0,2,0,,,,,,,,,,,,,,,,,,,,,,,,,,,,,,,,,,,,,,,,,,,,,,,,,,,,,,,,,,,,,,,,30,,,,,,,,1288.4956829999574,1288.4956829999574,1288.4956829999574,1288.4956829999574,1288.4956829999574,up,2.2450614999979734,4,0,0,99,-0.16,0.16,up,2.162810199894011,,,,,,,,,,,,,,,,,,,,,,,,,,,,,,,,,,,,,,,,,,,,,,,,,,,,,,,,,,,,GUNLJP,train_y,red_square,bottom_left,2025-04-02_15h05.00.790,HideSeek_v1,2022.2.5,59.96872027280253,
,0,4,0,8,0,4,12,,train_dim1_1,19,30,,,,2,0,2,0,,,,,,,,,0,0,0,0,0,18,18,18,3,0,3,0,,,,,,,,,,,,,,,,,,,,,,,,,,,,,,,,,,,,,,,,,,,,,,,,,,,,,,,,,,,,,,,,30,,,,,,,,1290.7484941999428,1290.7484941999428,1290.7484941999428,1290.7484941999428,1290.7484941999428,return,1.4775757000315934,4,1,0,0,-0.16,0.16,return,1.396748999832198,50,0,-0.16,0.16,,,,,,,,,,,,,,,,,,,,,,,,,,,,,,,,,,,,,,,,,,,,,,,,,,,,,,,,GUNLJP,train_y,red_square,bottom_left,2025-04-02_15h05.00.790,HideSeek_v1,2022.2.5,59.96872027280253,
,2,0,2,0,0,0,16,,train_dim1_1,20,30,,,,2,0,2,0,,,,,,,,,0,0,0,0,0,19,19,19,0,0,0,0,,,,,,,,,,,,,,,,,,,,,,,,,stimuli/alien_stimuli/16.png,,,,,,,,,,,,,,,,,,,,,,,,,,,,,stimuli/alien_stimuli/12.png,12,0,21,,,,,,,30,,,,,,,,1296.4072994000744,1296.4072994000744,1296.4072994000744,1296.4072994000744,1296.4072994000744,up,1.3891898000147194,4,1,0,99,0,-0.32,up,1.3100139999296516,,,,,1294.8505744000431,1296.4072994000744,-0.16,0.24,0.32,0.0,0.07999999999999999,-0.16,-0.16,-0.16,0.24,1293.7797614000738,1293.7797614000738,1293.7797614000738,1293.7797614000738,1293.7797614000738,1293.7797614000738,1293.7797614000738,1293.7797614000738,1293.766548659932,1.1695711000356823,return,1.0419594997074455,,,,,,,,,,,,,,,,,,,,,,,,,,,,,,,,,GUNLJP,train_y,red_square,bottom_left,2025-04-02_15h05.00.790,HideSeek_v1,2022.2.5,59.96872027280253,
,2,0,2,0,0,0,16,,train_dim1_1,20,30,,,,2,0,2,0,,,,,,,,,0,0,0,0,0,19,19,19,1,0,1,0,,,,,,,,,,,,,,,,,,,,,,,,,,,,,,,,,,,,,,,,,,,,,,,,,,,,,,,,,,,,,,,,30,,,,,,,,1297.8042427999899,1297.8042427999899,1297.8042427999899,1297.8042427999899,1297.8042427999899,return,0.7433718000538647,4,1,0,0,0,-0.32,return,0.6648454996757209,51,0,0,-0.32,,,,,,,,,,,,,,,,,,,,,,,,,,,,,,,,,,,,,,,,,,,,,,,,,,,,,,,,GUNLJP,train_y,red_square,bottom_left,2025-04-02_15h05.00.790,HideSeek_v1,2022.2.5,59.96872027280253,
,2,4,2,5,0,1,15,,train_dim1_1,21,30,,,,2,0,2,0,,,,,,,,,0,0,0,0,0,20,20,20,0,0,0,0,,,,,,,,,,,,,,,,,,,,,,,,,stimuli/alien_stimuli/15.png,,,,,,,,,,,,,,,,,,,,,,,,,,,,,stimuli/alien_stimuli/16.png,16,2,22,,,,,,,30,,,,,,,,1302.8631778000854,1302.8631778000854,1302.8631778000854,1302.8631778000854,1302.8631778000854,up,0.5887555000372231,4,1,0,99,0,0.0,up,0.49774009990505874,,,,,1301.3062346999068,1302.8631778000854,0,-0.4,0.0,0.0,-0.4,0,0.0,0,-0.4,1300.1018574000336,1300.1018574000336,1300.1018574000336,1300.1018574000336,1300.1018574000336,1300.1018574000336,1300.1018574000336,1300.1018574000336,1300.0888933598064,1.3033466001506895,return,1.186771099921316,,,,,,,,,,,,,,,,,,,,,,,,,,,,,,,,,GUNLJP,train_y,red_square,bottom_left,2025-04-02_15h05.00.790,HideSeek_v1,2022.2.5,59.96872027280253,
,2,4,2,5,0,1,15,,train_dim1_1,21,30,,,,2,0,2,0,,,,,,,,,0,0,0,0,0,20,20,20,1,0,1,0,,,,,,,,,,,,,,,,,,,,,,,,,,,,,,,,,,,,,,,,,,,,,,,,,,,,,,,,,,,,,,,,30,,,,,,,,1303.4590179000515,1303.4590179000515,1303.4590179000515,1303.4590179000515,1303.4590179000515,return,0.5097099000122398,5,0,0,1,0,0.0,return,0.41843890002928674,52,0,0,0.0,,,,,,,,,,,,,,,,,,,,,,,,,,,,,,,,,,,,,,,,,,,,,,,,,,,,,,,,GUNLJP,train_y,red_square,bottom_left,2025-04-02_15h05.00.790,HideSeek_v1,2022.2.5,59.96872027280253,
,0,2,0,5,0,3,13,,train_dim1_1,22,30,,,,2,0,2,0,,,,,,,,,0,0,0,0,0,21,21,21,0,0,0,0,,,,,,,,,,,,,,,,,,,,,,,,,stimuli/alien_stimuli/13.png,,,,,,,,,,,,,,,,,,,,,,,,,,,,,stimuli/alien_stimuli/15.png,15,2,23,,,,,,,30,,,,,,,,1307.7988897999749,1307.7988897999749,1307.7988897999749,1307.7988897999749,1307.7988897999749,up,1.1565636000595987,5,0,0,99,-0.16,-0.15999999999999998,up,1.0744646997191012,,,,,1306.2434821000788,1307.7988897999749,0,0,0.08,0.0,-0.04,0,0.0,0,0,1305.5240537999198,1305.5240537999198,1305.5240537999198,1305.5240537999198,1305.5240537999198,1305.5240537999198,1305.5240537999198,1305.5240537999198,1305.5096905599814,0.8191859999205917,return,0.6874769998248667,,,,,,,,,,,,,,,,,,,,,,,,,,,,,,,,,GUNLJP,train_y,red_square,bottom_left,2025-04-02_15h05.00.790,HideSeek_v1,2022.2.5,59.96872027280253,
,0,2,0,5,0,3,13,,train_dim1_1,22,30,,,,2,0,2,0,,,,,,,,,0,0,0,0,0,21,21,21,1,0,1,0,,,,,,,,,,,,,,,,,,,,,,,,,,,,,,,,,,,,,,,,,,,,,,,,,,,,,,,,,,,,,,,,30,,,,,,,,1308.963299700059,1308.963299700059,1308.963299700059,1308.963299700059,1308.963299700059,up,0.2929201000370085,5,0,0,99,-0.16,-0.07999999999999997,up,0.21208649990148842,,,,,,,,,,,,,,,,,,,,,,,,,,,,,,,,,,,,,,,,,,,,,,,,,,,,,,,,,,,,GUNLJP,train_y,red_square,bottom_left,2025-04-02_15h05.00.790,HideSeek_v1,2022.2.5,59.96872027280253,
,0,2,0,5,0,3,13,,train_dim1_1,22,30,,,,2,0,2,0,,,,,,,,,0,0,0,0,0,21,21,21,2,0,2,0,,,,,,,,,,,,,,,,,,,,,,,,,,,,,,,,,,,,,,,,,,,,,,,,,,,,,,,,,,,,,,,,30,,,,,,,,1309.2621748000383,1309.2621748000383,1309.2621748000383,1309.2621748000383,1309.2621748000383,up,0.2766323001123965,5,0,0,99,-0.16,2.7755575615628914e-17,up,0.19657530006952584,,,,,,,,,,,,,,,,,,,,,,,,,,,,,,,,,,,,,,,,,,,,,,,,,,,,,,,,,,,,GUNLJP,train_y,red_square,bottom_left,2025-04-02_15h05.00.790,HideSeek_v1,2022.2.5,59.96872027280253,
,0,2,0,5,0,3,13,,train_dim1_1,22,30,,,,2,0,2,0,,,,,,,,,0,0,0,0,0,21,21,21,3,0,3,0,,,,,,,,,,,,,,,,,,,,,,,,,,,,,,,,,,,,,,,,,,,,,,,,,,,,,,,,,,,,,,,,30,,,,,,,,1309.5460091999266,1309.5460091999266,1309.5460091999266,1309.5460091999266,1309.5460091999266,return,0.6935314000584185,6,0,0,1,-0.16,2.7755575615628914e-17,return,0.6126393000595272,55,0,-0.16,2.7755575615628914e-17,,,,,,,,,,,,,,,,,,,,,,,,,,,,,,,,,,,,,,,,,,,,,,,,,,,,,,,,GUNLJP,train_y,red_square,bottom_left,2025-04-02_15h05.00.790,HideSeek_v1,2022.2.5,59.96872027280253,
,0,3,0,8,0,5,11,,train_dim1_1,23,30,,,,2,0,2,0,,,,,,,,,0,0,0,0,0,22,22,22,0,0,0,0,,,,,,,,,,,,,,,,,,,,,,,,,stimuli/alien_stimuli/11.png,,,,,,,,,,,,,,,,,,,,,,,,,,,,,stimuli/alien_stimuli/13.png,13,0,24,,,,,,,30,,,,,,,,1314.1207157999743,1314.1207157999743,1314.1207157999743,1314.1207157999743,1314.1207157999743,up,0.9069668999873102,6,0,0,99,-0.16,-0.08,up,0.8185795997269452,,,,,1312.565727100009,1314.1207157999743,-0.16,0,0.24,0.0,-0.12,-0.16,-0.16,-0.16,0,1311.7943828001153,1311.7943828001153,1311.7943828001153,1311.7943828001153,1311.7943828001153,1311.7943828001153,1311.7943828001153,1311.7943828001153,1311.7813863598742,0.8702366000507027,return,0.7549344999715686,,,,,,,,,,,,,,,,,,,,,,,,,,,,,,,,,GUNLJP,train_y,red_square,bottom_left,2025-04-02_15h05.00.790,HideSeek_v1,2022.2.5,59.96872027280253,
,0,3,0,8,0,5,11,,train_dim1_1,23,30,,,,2,0,2,0,,,,,,,,,0,0,0,0,0,22,22,22,1,0,1,0,,,,,,,,,,,,,,,,,,,,,,,,,,,,,,,,,,,,,,,,,,,,,,,,,,,,,,,,,,,,,,,,30,,,,,,,,1315.0357802999206,1315.0357802999206,1315.0357802999206,1315.0357802999206,1315.0357802999206,up,0.24277069978415966,6,0,0,99,-0.16,0.0,up,0.16299009998328984,,,,,,,,,,,,,,,,,,,,,,,,,,,,,,,,,,,,,,,,,,,,,,,,,,,,,,,,,,,,GUNLJP,train_y,red_square,bottom_left,2025-04-02_15h05.00.790,HideSeek_v1,2022.2.5,59.96872027280253,
,0,3,0,8,0,5,11,,train_dim1_1,23,30,,,,2,0,2,0,,,,,,,,,0,0,0,0,0,22,22,22,2,0,2,0,,,,,,,,,,,,,,,,,,,,,,,,,,,,,,,,,,,,,,,,,,,,,,,,,,,,,,,,,,,,,,,,30,,,,,,,,1315.285189999966,1315.285189999966,1315.285189999966,1315.285189999966,1315.285189999966,up,0.2598605998791754,6,0,0,99,-0.16,0.08,up,0.18138829991221428,,,,,,,,,,,,,,,,,,,,,,,,,,,,,,,,,,,,,,,,,,,,,,,,,,,,,,,,,,,,GUNLJP,train_y,red_square,bottom_left,2025-04-02_15h05.00.790,HideSeek_v1,2022.2.5,59.96872027280253,
,0,3,0,8,0,5,11,,train_dim1_1,23,30,,,,2,0,2,0,,,,,,,,,0,0,0,0,0,22,22,22,3,0,3,0,,,,,,,,,,,,,,,,,,,,,,,,,,,,,,,,,,,,,,,,,,,,,,,,,,,,,,,,,,,,,,,,30,,,,,,,,1315.552046299912,1315.552046299912,1315.552046299912,1315.552046299912,1315.552046299912,up,0.29312609997577965,6,0,0,99,-0.16,0.16,up,0.20946560008451343,,,,,,,,,,,,,,,,,,,,,,,,,,,,,,,,,,,,,,,,,,,,,,,,,,,,,,,,,,,,GUNLJP,train_y,red_square,bottom_left,2025-04-02_15h05.00.790,HideSeek_v1,2022.2.5,59.96872027280253,
,0,3,0,8,0,5,11,,train_dim1_1,23,30,,,,2,0,2,0,,,,,,,,,0,0,0,0,0,22,22,22,4,0,4,0,,,,,,,,,,,,,,,,,,,,,,,,,,,,,,,,,,,,,,,,,,,,,,,,,,,,,,,,,,,,,,,,30,,,,,,,,1315.8526733000763,1315.8526733000763,1315.8526733000763,1315.8526733000763,1315.8526733000763,down,1.5606062000151724,6,0,0,99,-0.16,0.08,down,1.4759707998018712,,,,,,,,,,,,,,,,,,,,,,,,,,,,,,,,,,,,,,,,,,,,,,,,,,,,,,,,,,,,GUNLJP,train_y,red_square,bottom_left,2025-04-02_15h05.00.790,HideSeek_v1,2022.2.5,59.96872027280253,
,0,3,0,8,0,5,11,,train_dim1_1,23,30,,,,2,0,2,0,,,,,,,,,0,0,0,0,0,22,22,22,5,0,5,0,,,,,,,,,,,,,,,,,,,,,,,,,,,,,,,,,,,,,,,,,,,,,,,,,,,,,,,,,,,,,,,,30,,,,,,,,1317.419887600001,1317.419887600001,1317.419887600001,1317.419887600001,1317.419887600001,up,0.9105227999389172,6,0,0,99,-0.16,0.16,up,0.8192693998571485,,,,,,,,,,,,,,,,,,,,,,,,,,,,,,,,,,,,,,,,,,,,,,,,,,,,,,,,,,,,GUNLJP,train_y,red_square,bottom_left,2025-04-02_15h05.00.790,HideSeek_v1,2022.2.5,59.96872027280253,
,0,3,0,8,0,5,11,,train_dim1_1,23,30,,,,2,0,2,0,,,,,,,,,0,0,0,0,0,22,22,22,6,0,6,0,,,,,,,,,,,,,,,,,,,,,,,,,,,,,,,,,,,,,,,,,,,,,,,,,,,,,,,,,,,,,,,,30,,,,,,,,1318.3371528999414,1318.3371528999414,1318.3371528999414,1318.3371528999414,1318.3371528999414,return,0.5767320001032203,6,1,0,0,-0.16,0.16,return,0.4853863997850567,59,0,-0.16,0.16,,,,,,,,,,,,,,,,,,,,,,,,,,,,,,,,,,,,,,,,,,,,,,,,,,,,,,,,GUNLJP,train_y,red_square,bottom_left,2025-04-02_15h05.00.790,HideSeek_v1,2022.2.5,59.96872027280253,
,3,2,3,2,0,0,16,,train_dim1_1,24,30,,,,2,0,2,0,,,,,,,,,0,0,0,0,0,23,23,23,0,0,0,0,,,,,,,,,,,,,,,,,,,,,,,,,stimuli/alien_stimuli/16.png,,,,,,,,,,,,,,,,,,,,,,,,,,,,,stimuli/alien_stimuli/11.png,11,0,25,,,,,,,30,,,,,,,,1323.2114752999041,1323.2114752999041,1323.2114752999041,1323.2114752999041,1323.2114752999041,up,1.724335600156337,6,1,0,99,0.08,-0.15999999999999998,up,1.6444569998420775,,,,,1321.6563474999275,1323.2114752999041,-0.16,0.24,0.4,0.0,0.039999999999999994,-0.16,-0.16,-0.16,0.24,1320.469195799902,1320.469195799902,1320.469195799902,1320.469195799902,1320.469195799902,1320.469195799902,1320.469195799902,1320.469195799902,1320.455483059911,1.2865308998152614,return,1.1576852998696268,,,,,,,,,,,,,,,,,,,,,,,,,,,,,,,,,GUNLJP,train_y,red_square,bottom_left,2025-04-02_15h05.00.790,HideSeek_v1,2022.2.5,59.96872027280253,
,3,2,3,2,0,0,16,,train_dim1_1,24,30,,,,2,0,2,0,,,,,,,,,0,0,0,0,0,23,23,23,1,0,1,0,,,,,,,,,,,,,,,,,,,,,,,,,,,,,,,,,,,,,,,,,,,,,,,,,,,,,,,,,,,,,,,,30,,,,,,,,1324.9431686999742,1324.9431686999742,1324.9431686999742,1324.9431686999742,1324.9431686999742,down,2.378412999911234,6,1,0,99,0.08,-0.24,down,2.289503499865532,,,,,,,,,,,,,,,,,,,,,,,,,,,,,,,,,,,,,,,,,,,,,,,,,,,,,,,,,,,,GUNLJP,train_y,red_square,bottom_left,2025-04-02_15h05.00.790,HideSeek_v1,2022.2.5,59.96872027280253,
,3,2,3,2,0,0,16,,train_dim1_1,24,30,,,,2,0,2,0,,,,,,,,,0,0,0,0,0,23,23,23,2,0,2,0,,,,,,,,,,,,,,,,,,,,,,,,,,,,,,,,,,,,,,,,,,,,,,,,,,,,,,,,,,,,,,,,30,,,,,,,,1327.3290001000278,1327.3290001000278,1327.3290001000278,1327.3290001000278,1327.3290001000278,return,0.9265881997998804,7,0,0,1,0.08,-0.24,return,0.8369076999370009,59,0,0.08,-0.24,,,,,,,,,,,,,,,,,,,,,,,,,,,,,,,,,,,,,,,,,,,,,,,,,,,,,,,,GUNLJP,train_y,red_square,bottom_left,2025-04-02_15h05.00.790,HideSeek_v1,2022.2.5,59.96872027280253,
,3,3,3,7,0,4,12,,train_dim1_1,25,30,,,,2,0,2,0,,,,,,,,,0,0,0,0,0,24,24,24,0,0,0,0,,,,,,,,,,,,,,,,,,,,,,,,,stimuli/alien_stimuli/12.png,,,,,,,,,,,,,,,,,,,,,,,,,,,,,stimuli/alien_stimuli/16.png,16,3,26,,,,,,,30,,,,,,,,1331.9201378000434,1331.9201378000434,1331.9201378000434,1331.9201378000434,1331.9201378000434,up,0.9065038000699133,7,0,0,99,0.08,-0.08,up,0.8247501999139786,,,,,1330.3635313000996,1331.9201378000434,0.08,-0.24,0.0,0.0,-0.24,0.08,0.08,0.08,-0.24,1329.8302225999068,1329.8302225999068,1329.8302225999068,1329.8302225999068,1329.8302225999068,1329.8302225999068,1329.8302225999068,1329.8302225999068,1329.8298005798367,0.652840199880302,return,0.5121450999286026,,,,,,,,,,,,,,,,,,,,,,,,,,,,,,,,,GUNLJP,train_y,red_square,bottom_left,2025-04-02_15h05.00.790,HideSeek_v1,2022.2.5,59.96872027280253,
,3,3,3,7,0,4,12,,train_dim1_1,25,30,,,,2,0,2,0,,,,,,,,,0,0,0,0,0,24,24,24,1,0,1,0,,,,,,,,,,,,,,,,,,,,,,,,,,,,,,,,,,,,,,,,,,,,,,,,,,,,,,,,,,,,,,,,30,,,,,,,,1332.8340817000717,1332.8340817000717,1332.8340817000717,1332.8340817000717,1332.8340817000717,up,0.42632440011948347,7,0,0,99,0.08,0.0,up,0.34446119982749224,,,,,,,,,,,,,,,,,,,,,,,,,,,,,,,,,,,,,,,,,,,,,,,,,,,,,,,,,,,,GUNLJP,train_y,red_square,bottom_left,2025-04-02_15h05.00.790,HideSeek_v1,2022.2.5,59.96872027280253,
,3,3,3,7,0,4,12,,train_dim1_1,25,30,,,,2,0,2,0,,,,,,,,,0,0,0,0,0,24,24,24,2,0,2,0,,,,,,,,,,,,,,,,,,,,,,,,,,,,,,,,,,,,,,,,,,,,,,,,,,,,,,,,,,,,,,,,30,,,,,,,,1333.266660900088,1333.266660900088,1333.266660900088,1333.266660900088,1333.266660900088,up,0.3933807001449168,7,0,0,99,0.08,0.08,up,0.3110766999889165,,,,,,,,,,,,,,,,,,,,,,,,,,,,,,,,,,,,,,,,,,,,,,,,,,,,,,,,,,,,GUNLJP,train_y,red_square,bottom_left,2025-04-02_15h05.00.790,HideSeek_v1,2022.2.5,59.96872027280253,
,3,3,3,7,0,4,12,,train_dim1_1,25,30,,,,2,0,2,0,,,,,,,,,0,0,0,0,0,24,24,24,3,0,3,0,,,,,,,,,,,,,,,,,,,,,,,,,,,,,,,,,,,,,,,,,,,,,,,,,,,,,,,,,,,,,,,,30,,,,,,,,1333.666743400041,1333.666743400041,1333.666743400041,1333.666743400041,1333.666743400041,up,0.47682709991931915,7,0,0,99,0.08,0.16,up,0.38820049981586635,,,,,,,,,,,,,,,,,,,,,,,,,,,,,,,,,,,,,,,,,,,,,,,,,,,,,,,,,,,,GUNLJP,train_y,red_square,bottom_left,2025-04-02_15h05.00.790,HideSeek_v1,2022.2.5,59.96872027280253,
,3,3,3,7,0,4,12,,train_dim1_1,25,30,,,,2,0,2,0,,,,,,,,,0,0,0,0,0,24,24,24,4,0,4,0,,,,,,,,,,,,,,,,,,,,,,,,,,,,,,,,,,,,,,,,,,,,,,,,,,,,,,,,,,,,,,,,30,,,,,,,,1334.1520763998851,1334.1520763998851,1334.1520763998851,1334.1520763998851,1334.1520763998851,return,0.7768205001484603,8,0,0,1,0.08,0.16,return,0.6888114998582751,63,0,0.08,0.16,,,,,,,,,,,,,,,,,,,,,,,,,,,,,,,,,,,,,,,,,,,,,,,,,,,,,,,,GUNLJP,train_y,red_square,bottom_left,2025-04-02_15h05.00.790,HideSeek_v1,2022.2.5,59.96872027280253,
,4,4,4,7,0,3,13,,train_dim1_1,26,30,,,,2,0,2,0,,,,,,,,,0,0,0,0,0,25,25,25,0,0,0,0,,,,,,,,,,,,,,,,,,,,,,,,,stimuli/alien_stimuli/13.png,,,,,,,,,,,,,,,,,,,,,,,,,,,,,stimuli/alien_stimuli/12.png,12,3,27,,,,,,,30,,,,,,,,1338.7412284999155,1338.7412284999155,1338.7412284999155,1338.7412284999155,1338.7412284999155,up,1.0067622000351548,8,0,0,99,0.16,0.0,up,0.921182399848476,,,,,1337.1859605999198,1338.7412284999155,0.08,0.16,0.32,0.0,0.0,0.08,0.08,0.08,0.16,1336.4818979001138,1336.4818979001138,1336.4818979001138,1336.4818979001138,1336.4818979001138,1336.4818979001138,1336.4818979001138,1336.4818979001138,1336.4683422598057,0.8030666999984533,return,0.6725509997922927,,,,,,,,,,,,,,,,,,,,,,,,,,,,,,,,,GUNLJP,train_y,red_square,bottom_left,2025-04-02_15h05.00.790,HideSeek_v1,2022.2.5,59.96872027280253,
,4,4,4,7,0,3,13,,train_dim1_1,26,30,,,,2,0,2,0,,,,,,,,,0,0,0,0,0,25,25,25,1,0,1,0,,,,,,,,,,,,,,,,,,,,,,,,,,,,,,,,,,,,,,,,,,,,,,,,,,,,,,,,,,,,,,,,30,,,,,,,,1339.7549552998971,1339.7549552998971,1339.7549552998971,1339.7549552998971,1339.7549552998971,up,0.3763391999527812,8,0,0,99,0.16,0.08,up,0.2992443998809904,,,,,,,,,,,,,,,,,,,,,,,,,,,,,,,,,,,,,,,,,,,,,,,,,,,,,,,,,,,,GUNLJP,train_y,red_square,bottom_left,2025-04-02_15h05.00.790,HideSeek_v1,2022.2.5,59.96872027280253,
,4,4,4,7,0,3,13,,train_dim1_1,26,30,,,,2,0,2,0,,,,,,,,,0,0,0,0,0,25,25,25,2,0,2,0,,,,,,,,,,,,,,,,,,,,,,,,,,,,,,,,,,,,,,,,,,,,,,,,,,,,,,,,,,,,,,,,30,,,,,,,,1340.1389603998978,1340.1389603998978,1340.1389603998978,1340.1389603998978,1340.1389603998978,up,1.2772087000776082,8,0,0,99,0.16,0.16,up,1.1959510997403413,,,,,,,,,,,,,,,,,,,,,,,,,,,,,,,,,,,,,,,,,,,,,,,,,,,,,,,,,,,,GUNLJP,train_y,red_square,bottom_left,2025-04-02_15h05.00.790,HideSeek_v1,2022.2.5,59.96872027280253,
,4,4,4,7,0,3,13,,train_dim1_1,26,30,,,,2,0,2,0,,,,,,,,,0,0,0,0,0,25,25,25,3,0,3,0,,,,,,,,,,,,,,,,,,,,,,,,,,,,,,,,,,,,,,,,,,,,,,,,,,,,,,,,,,,,,,,,30,,,,,,,,1341.4234980999026,1341.4234980999026,1341.4234980999026,1341.4234980999026,1341.4234980999026,return,0.3933293998707086,9,0,0,1,0.16,0.16,return,0.30239099985919893,66,0,0.16,0.16,,,,,,,,,,,,,,,,,,,,,,,,,,,,,,,,,,,,,,,,,,,,,,,,,,,,,,,,GUNLJP,train_y,red_square,bottom_left,2025-04-02_15h05.00.790,HideSeek_v1,2022.2.5,59.96872027280253,
,3,4,3,4,0,0,16,,train_dim1_1,27,30,,,,2,0,2,0,,,,,,,,,0,0,0,0,0,26,26,26,0,0,0,0,,,,,,,,,,,,,,,,,,,,,,,,,stimuli/alien_stimuli/16.png,,,,,,,,,,,,,,,,,,,,,,,,,,,,,stimuli/alien_stimuli/13.png,13,4,28,,,,,,,30,,,,,,,,1345.346633499954,1345.346633499954,1345.346633499954,1345.346633499954,1345.346633499954,up,1.223770499927923,9,0,0,99,0.08,0.0,up,1.1363951999228448,,,,,1343.791728100041,1345.346633499954,0.16,0.16,0.24,0.0,0.04,0.16,0.16,0.16,0.16,1343.3695183000527,1343.3695183000527,1343.3695183000527,1343.3695183000527,1343.3695183000527,1343.3695183000527,1343.3695183000527,1343.3695183000527,1343.3577367598657,0.5195011999458075,return,0.39746370003558695,,,,,,,,,,,,,,,,,,,,,,,,,,,,,,,,,GUNLJP,train_y,red_square,bottom_left,2025-04-02_15h05.00.790,HideSeek_v1,2022.2.5,59.96872027280253,
,3,4,3,4,0,0,16,,train_dim1_1,27,30,,,,2,0,2,0,,,,,,,,,0,0,0,0,0,26,26,26,1,0,1,0,,,,,,,,,,,,,,,,,,,,,,,,,,,,,,,,,,,,,,,,,,,,,,,,,,,,,,,,,,,,,,,,30,,,,,,,,1346.5780400999356,1346.5780400999356,1346.5780400999356,1346.5780400999356,1346.5780400999356,return,0.3093020000960678,9,1,0,0,0.08,0.0,return,0.22600100003182888,67,0,0.08,0.0,,,,,,,,,,,,,,,,,,,,,,,,,,,,,,,,,,,,,,,,,,,,,,,,,,,,,,,,GUNLJP,train_y,red_square,bottom_left,2025-04-02_15h05.00.790,HideSeek_v1,2022.2.5,59.96872027280253,
,4,1,4,6,0,5,11,,train_dim1_1,28,30,,,,2,0,2,0,,,,,,,,,0,0,0,0,0,27,27,27,0,0,0,0,,,,,,,,,,,,,,,,,,,,,,,,,stimuli/alien_stimuli/11.png,,,,,,,,,,,,,,,,,,,,,,,,,,,,,stimuli/alien_stimuli/16.png,16,3,29,,,,,,,30,,,,,,,,1351.502325499896,1351.502325499896,1351.502325499896,1351.502325499896,1351.502325499896,up,0.7232679999433458,9,1,0,99,0.16,-0.24,up,0.641221399884671,,,,,1349.9464493999258,1351.502325499896,0.08,-0.08,0.0,0.0,-0.08,0.08,0.08,0.08,-0.08,1348.4415267999284,1348.4415267999284,1348.4415267999284,1348.4415267999284,1348.4415267999284,1348.4415267999284,1348.4415267999284,1348.4415267999284,1348.4286000598688,1.6033497999887913,return,1.480793599737808,,,,,,,,,,,,,,,,,,,,,,,,,,,,,,,,,GUNLJP,train_y,red_square,bottom_left,2025-04-02_15h05.00.790,HideSeek_v1,2022.2.5,59.96872027280253,
,4,1,4,6,0,5,11,,train_dim1_1,28,30,,,,2,0,2,0,,,,,,,,,0,0,0,0,0,27,27,27,1,0,1,0,,,,,,,,,,,,,,,,,,,,,,,,,,,,,,,,,,,,,,,,,,,,,,,,,,,,,,,,,,,,,,,,30,,,,,,,,1352.233018500032,1352.233018500032,1352.233018500032,1352.233018500032,1352.233018500032,up,0.9599973999429494,9,1,0,99,0.16,-0.15999999999999998,up,0.8825445999391377,,,,,,,,,,,,,,,,,,,,,,,,,,,,,,,,,,,,,,,,,,,,,,,,,,,,,,,,,,,,GUNLJP,train_y,red_square,bottom_left,2025-04-02_15h05.00.790,HideSeek_v1,2022.2.5,59.96872027280253,
,4,1,4,6,0,5,11,,train_dim1_1,28,30,,,,2,0,2,0,,,,,,,,,0,0,0,0,0,27,27,27,2,0,2,0,,,,,,,,,,,,,,,,,,,,,,,,,,,,,,,,,,,,,,,,,,,,,,,,,,,,,,,,,,,,,,,,30,,,,,,,,1353.200065500103,1353.200065500103,1353.200065500103,1353.200065500103,1353.200065500103,up,0.5099371001124382,9,1,0,99,0.16,-0.07999999999999997,up,0.43255179980769753,,,,,,,,,,,,,,,,,,,,,,,,,,,,,,,,,,,,,,,,,,,,,,,,,,,,,,,,,,,,GUNLJP,train_y,red_square,bottom_left,2025-04-02_15h05.00.790,HideSeek_v1,2022.2.5,59.96872027280253,
,4,1,4,6,0,5,11,,train_dim1_1,28,30,,,,2,0,2,0,,,,,,,,,0,0,0,0,0,27,27,27,3,0,3,0,,,,,,,,,,,,,,,,,,,,,,,,,,,,,,,,,,,,,,,,,,,,,,,,,,,,,,,,,,,,,,,,30,,,,,,,,1353.7166114998981,1353.7166114998981,1353.7166114998981,1353.7166114998981,1353.7166114998981,up,0.42670660000294447,9,1,0,99,0.16,2.7755575615628914e-17,up,0.34984579985029995,,,,,,,,,,,,,,,,,,,,,,,,,,,,,,,,,,,,,,,,,,,,,,,,,,,,,,,,,,,,GUNLJP,train_y,red_square,bottom_left,2025-04-02_15h05.00.790,HideSeek_v1,2022.2.5,59.96872027280253,
,4,1,4,6,0,5,11,,train_dim1_1,28,30,,,,2,0,2,0,,,,,,,,,0,0,0,0,0,27,27,27,4,0,4,0,,,,,,,,,,,,,,,,,,,,,,,,,,,,,,,,,,,,,,,,,,,,,,,,,,,,,,,,,,,,,,,,30,,,,,,,,1354.1510350001045,1354.1510350001045,1354.1510350001045,1354.1510350001045,1354.1510350001045,return,0.31001540017314255,9,1,0,0,0.16,2.7755575615628914e-17,return,0.22291649994440377,71,0,0.16,2.7755575615628914e-17,,,,,,,,,,,,,,,,,,,,,,,,,,,,,,,,,,,,,,,,,,,,,,,,,,,,,,,,GUNLJP,train_y,red_square,bottom_left,2025-04-02_15h05.00.790,HideSeek_v1,2022.2.5,59.96872027280253,
,2,2,2,6,0,4,12,,train_dim1_1,29,30,,,,2,0,2,0,,,,,,,,,0,0,0,0,0,28,28,28,0,0,0,0,,,,,,,,,,,,,,,,,,,,,,,,,stimuli/alien_stimuli/12.png,,,,,,,,,,,,,,,,,,,,,,,,,,,,,stimuli/alien_stimuli/11.png,11,4,30,,,,,,,30,,,,,,,,1358.2933891001157,1358.2933891001157,1358.2933891001157,1358.2933891001157,1358.2933891001157,up,1.4548295999411494,9,1,0,99,0,-0.15999999999999998,up,1.3661299999803305,,,,,1356.735508600017,1358.2933891001157,0.16,0.08,0.4,0.0,-0.12,0.16,0.16,0.16,0.08,1356.014300599927,1356.014300599927,1356.014300599927,1356.014300599927,1356.014300599927,1356.014300599927,1356.014300599927,1356.014300599927,1356.001836259896,0.8194919000379741,return,0.6998687000013888,,,,,,,,,,,,,,,,,,,,,,,,,,,,,,,,,GUNLJP,train_y,red_square,bottom_left,2025-04-02_15h05.00.790,HideSeek_v1,2022.2.5,59.96872027280253,
,2,2,2,6,0,4,12,,train_dim1_1,29,30,,,,2,0,2,0,,,,,,,,,0,0,0,0,0,28,28,28,1,0,1,0,,,,,,,,,,,,,,,,,,,,,,,,,,,,,,,,,,,,,,,,,,,,,,,,,,,,,,,,,,,,,,,,30,,,,,,,,1359.7563122999854,1359.7563122999854,1359.7563122999854,1359.7563122999854,1359.7563122999854,up,0.39318659994751215,9,1,0,99,0,-0.07999999999999997,up,0.3022286999039352,,,,,,,,,,,,,,,,,,,,,,,,,,,,,,,,,,,,,,,,,,,,,,,,,,,,,,,,,,,,GUNLJP,train_y,red_square,bottom_left,2025-04-02_15h05.00.790,HideSeek_v1,2022.2.5,59.96872027280253,
,2,2,2,6,0,4,12,,train_dim1_1,29,30,,,,2,0,2,0,,,,,,,,,0,0,0,0,0,28,28,28,2,0,2,0,,,,,,,,,,,,,,,,,,,,,,,,,,,,,,,,,,,,,,,,,,,,,,,,,,,,,,,,,,,,,,,,30,,,,,,,,1360.1558288999368,1360.1558288999368,1360.1558288999368,1360.1558288999368,1360.1558288999368,up,0.3763951000291854,9,1,0,99,0,2.7755575615628914e-17,up,0.2957858997397125,,,,,,,,,,,,,,,,,,,,,,,,,,,,,,,,,,,,,,,,,,,,,,,,,,,,,,,,,,,,GUNLJP,train_y,red_square,bottom_left,2025-04-02_15h05.00.790,HideSeek_v1,2022.2.5,59.96872027280253,
,2,2,2,6,0,4,12,,train_dim1_1,29,30,,,,2,0,2,0,,,,,,,,,0,0,0,0,0,28,28,28,3,0,3,0,,,,,,,,,,,,,,,,,,,,,,,,,,,,,,,,,,,,,,,,,,,,,,,,,,,,,,,,,,,,,,,,30,,,,,,,,1360.5401131000835,1360.5401131000835,1360.5401131000835,1360.5401131000835,1360.5401131000835,up,0.45988540002144873,9,1,0,99,0,0.08000000000000003,up,0.3667825998272747,,,,,,,,,,,,,,,,,,,,,,,,,,,,,,,,,,,,,,,,,,,,,,,,,,,,,,,,,,,,GUNLJP,train_y,red_square,bottom_left,2025-04-02_15h05.00.790,HideSeek_v1,2022.2.5,59.96872027280253,
,2,2,2,6,0,4,12,,train_dim1_1,29,30,,,,2,0,2,0,,,,,,,,,0,0,0,0,0,28,28,28,4,0,4,0,,,,,,,,,,,,,,,,,,,,,,,,,,,,,,,,,,,,,,,,,,,,,,,,,,,,,,,,,,,,,,,,30,,,,,,,,1361.006211800035,1361.006211800035,1361.006211800035,1361.006211800035,1361.006211800035,return,0.30998439993709326,10,0,0,1,0,0.08000000000000003,return,0.2235810998827219,75,0,0,0.08000000000000003,,,,,,,,,,,,,,,,,,,,,,,,,,,,,,,,,,,,,,,,,,,,,,,,,,,,,,,,GUNLJP,train_y,red_square,bottom_left,2025-04-02_15h05.00.790,HideSeek_v1,2022.2.5,59.96872027280253,
,0,1,0,2,0,1,15,,train_dim1_1,30,30,,,,2,0,2,0,,,,,,,,,0,0,0,0,0,29,29,29,0,0,0,0,,,,,,,,,,,,,,,,,,,,,,,,,stimuli/alien_stimuli/15.png,,,,,,,,,,,,,,,,,,,,,,,,,,,,,stimuli/alien_stimuli/12.png,12,2,31,,,,,,,30,,,,,,,,1364.963937500026,1364.963937500026,1364.963937500026,1364.963937500026,1364.963937500026,up,0.9402616999577731,10,0,0,99,-0.16,-0.24,up,0.8530701000709087,,,,,1363.4076274998952,1364.963937500026,0,0.08,0.32,0.0,-0.07999999999999999,0,0.0,0,0.08,1362.8711665999144,1362.8711665999144,1362.8711665999144,1362.8711665999144,1362.8711665999144,1362.8711665999144,1362.8711665999144,1362.8711665999144,1362.8573321598117,0.6360338998492807,return,0.5129335997626185,,,,,,,,,,,,,,,,,,,,,,,,,,,,,,,,,GUNLJP,train_y,red_square,bottom_left,2025-04-02_15h05.00.790,HideSeek_v1,2022.2.5,59.96872027280253,
,0,1,0,2,0,1,15,,train_dim1_1,30,30,,,,2,0,2,0,,,,,,,,,0,0,0,0,0,29,29,29,1,0,1,0,,,,,,,,,,,,,,,,,,,,,,,,,,,,,,,,,,,,,,,,,,,,,,,,,,,,,,,,,,,,,,,,30,,,,,,,,1365.9111238999758,1365.9111238999758,1365.9111238999758,1365.9111238999758,1365.9111238999758,return,1.4436484999023378,11,0,0,1,-0.16,-0.24,return,1.3610275997780263,76,0,-0.16,-0.24,,,,,,,,,,,,,,,,,,,,,,,,,,,,,,,,,,,,,,,,,,,,,,,,,,,,,,,,GUNLJP,train_y,red_square,bottom_left,2025-04-02_15h05.00.790,HideSeek_v1,2022.2.5,59.96872027280253,
,,,,,,,,,,,30,,,,2,0,2,0,,,,,,,,,,,,,,,,,,,,,,,,,,,,,,,,,,,,,,,,,,,,,,,,,,,,,,,,,,,,,,,,,,,,,,,,,,stimuli/alien_stimuli/15.png,15,0,32,21,0.7,0.45833333333333337,1,1,1,30,0,conditions/schedules/train_y_first/red_square_00/bottom_left/inputTrain_2.1.xlsx,99,1,2,1,0,,,,,,,,,,,1,,,,,,,,,1369.6628596000373,1371.2190855999943,-0.16,-0.24,0.08,0.0,-0.28,-0.16,-0.16,-0.16,-0.24,1368.9098590000067,1368.9098590000067,1368.9098590000067,1368.9098590000067,1368.9098590000067,1368.9098590000067,1368.9098590000067,1368.9098590000067,1368.8955858599395,0.8528790001291782,return,0.7266114999074489,0,0.9,0,1,11,,,,,,,,,,,,,,,,,,,,,,,,,,,,GUNLJP,train_y,red_square,bottom_left,2025-04-02_15h05.00.790,HideSeek_v1,2022.2.5,59.96872027280253,
,,,,,,,,,,,,,,,3,0,3,0,0,0,0,0,,,,,,,,,,,,,,,,,,,,,,,,,,,,,,,conditions/schedules/train_y_first/red_square_00/bottom_left/instructions/Slide17.png,conditions/schedules/train_y_first/red_square_00/bottom_left/instructions/Audio17.wav,1371.2190855999943,1371.2141325398813,17,"[9.287792100105435, 18.346626300131902, 16.800999799976125, 19.572818000102416, 4.900793400127441, 4.903228099923581, 5.849301300011575, 11.605159299913794, 6.501133699901402, 6.592201800085604, 10.553509499877691, 13.321113999933004, 17.762195700081065, 16.21999349980615, 42.59302520006895, 22.32879659999162, 33.470864299917594]","[0.01415079995058477, 0.013814799953252077, 0.03596560005098581, 0.03015240002423525, 0.049691000021994114, 0.013934199931100011, 0.031182599952444434, 0.030289999907836318, 0.05349510000087321, 0.07842959999106824, 0.03106499998830259, 13.321123199770227, 0.013093499932438135, 16.219999599969015, 42.593032700009644, 22.328803000040352, 33.4708753998857]",0,,,,,,,,,,,,,,,,,,,,,,,,,,,,,,,,,,,,,,,,,,,,,,,,,,,,,,,,,,,,,,,,,,,,,,,,,,,,,,,,,,,,,,,,,,,,,,,,,,,,,,,,,,,,,,,,,,,,,,,,,,,,GUNLJP,train_y,red_square,bottom_left,2025-04-02_15h05.00.790,HideSeek_v1,2022.2.5,59.96872027280253,
,,,,,,,,,,,,,,,3,0,3,0,1,0,1,0,,,,,,,,,,,,,,,,,,,,,,,,,,,,,,,conditions/schedules/train_y_first/red_square_00/bottom_left/instructions/Slide18.png,conditions/schedules/train_y_first/red_square_00/bottom_left/instructions/Audio18.wav,1404.7625257000327,1404.7589975998271,18,"[9.287792100105435, 18.346626300131902, 16.800999799976125, 19.572818000102416, 4.900793400127441, 4.903228099923581, 5.849301300011575, 11.605159299913794, 6.501133699901402, 6.592201800085604, 10.553509499877691, 13.321113999933004, 17.762195700081065, 16.21999349980615, 42.59302520006895, 22.32879659999162, 33.470864299917594, 6.5159614000003785]","[0.01415079995058477, 0.013814799953252077, 0.03596560005098581, 0.03015240002423525, 0.049691000021994114, 0.013934199931100011, 0.031182599952444434, 0.030289999907836318, 0.05349510000087321, 0.07842959999106824, 0.03106499998830259, 13.321123199770227, 0.013093499932438135, 16.219999599969015, 42.593032700009644, 22.328803000040352, 33.4708753998857, 6.515967599814758]",0,,,,,,,,,,,,,,,,,,,,,,,,,,,,,,,,,,,,,,,,,,,,,,,,,,,,,,,,,,,,,,,,,,,,,,,,,,,,,,,,,,,,,,,,,,,,,,,,,,,,,,,,,,,,,,,,,,,,,,,,,,,,GUNLJP,train_y,red_square,bottom_left,2025-04-02_15h05.00.790,HideSeek_v1,2022.2.5,59.96872027280253,
,,,,,,,,,,,,,,,3,0,3,0,2,0,2,0,,,,,,,,,,,,,,,,,,,,,,,,,,,,,,,conditions/schedules/train_y_first/red_square_00/bottom_left/instructions/Slide19.png,conditions/schedules/train_y_first/red_square_00/bottom_left/instructions/Audio19.wav,1411.3321002998855,1411.3308132399804,19,"[9.287792100105435, 18.346626300131902, 16.800999799976125, 19.572818000102416, 4.900793400127441, 4.903228099923581, 5.849301300011575, 11.605159299913794, 6.501133699901402, 6.592201800085604, 10.553509499877691, 13.321113999933004, 17.762195700081065, 16.21999349980615, 42.59302520006895, 22.32879659999162, 33.470864299917594, 6.5159614000003785, 9.93819300015457]","[0.01415079995058477, 0.013814799953252077, 0.03596560005098581, 0.03015240002423525, 0.049691000021994114, 0.013934199931100011, 0.031182599952444434, 0.030289999907836318, 0.05349510000087321, 0.07842959999106824, 0.03106499998830259, 13.321123199770227, 0.013093499932438135, 16.219999599969015, 42.593032700009644, 22.328803000040352, 33.4708753998857, 0.00020940019749104977, 9.938199700089172]",0,,,,,,,,,,,,,,,,,,,,,,,,,,,,,,,,,,,,,,,,,,,,,,,,,,,,,,,,,,,,,,,,,,,,,,,,,,,,,,,,,,,,,,,,,,,,,,,,,,,,,,,,,,,,,,,,,,,,,,,,,,,,GUNLJP,train_y,red_square,bottom_left,2025-04-02_15h05.00.790,HideSeek_v1,2022.2.5,59.96872027280253,
,,,,,,,,,,,,,,,3,0,3,0,3,0,3,0,,,,,,,,,,,,,,,,,,,,,,,,,,,,,,,conditions/schedules/train_y_first/red_square_00/bottom_left/instructions/Slide20.png,conditions/schedules/train_y_first/red_square_00/bottom_left/instructions/Audio20.wav,1421.3241783999838,1421.3226404399145,20,"[9.287792100105435, 18.346626300131902, 16.800999799976125, 19.572818000102416, 4.900793400127441, 4.903228099923581, 5.849301300011575, 11.605159299913794, 6.501133699901402, 6.592201800085604, 10.553509499877691, 13.321113999933004, 17.762195700081065, 16.21999349980615, 42.59302520006895, 22.32879659999162, 33.470864299917594, 6.5159614000003785, 9.93819300015457, 12.506468999898061]","[0.01415079995058477, 0.013814799953252077, 0.03596560005098581, 0.03015240002423525, 0.049691000021994114, 0.013934199931100011, 0.031182599952444434, 0.030289999907836318, 0.05349510000087321, 0.07842959999106824, 0.03106499998830259, 13.321123199770227, 0.013093499932438135, 16.219999599969015, 42.593032700009644, 22.328803000040352, 33.4708753998857, 0.00020940019749104977, 0.00021459977142512798, 12.506476199952886]",0,,,,,,,,,,,,,,,,,,,,,,,,,,,,,,,,,,,,,,,,,,,,,,,,,,,,,,,,,,,,,,,,,,,,,,,,,,,,,,,,,,,,,,,,,,,,,,,,,,,,,,,,,,,,,,,,,,,,,,,,,,,,GUNLJP,train_y,red_square,bottom_left,2025-04-02_15h05.00.790,HideSeek_v1,2022.2.5,59.96872027280253,
1,3,2,8,2,5,0,66,2,instr_dim1_2,,,,,,3,0,3,0,,,,,0,0,0,0,,,,,,,,,,,,,,,,,,,,,,,,,,,,,,,,,,,,,stimuli/alien_stimuli/66.png,conditions/schedules/train_y_first/red_square_00/bottom_left/inputInstr_2.xlsx,stimuli/alien_stimuli/66.png,1433.930300399894,1433.930300399894,1433.930300399894,1433.930300399894,1433.9164249599446,return,5.375816399930045,"[-0.16, -0.08, 0, 0.08, 0.16, 0.24, 0.32, 0.4, 0.48, 0.56]","[-0.4, -0.32, -0.24, -0.16, -0.08, 0, 0.08, 0.16, 0.24, 0.32]",2,2,8,3,0.0,0.4,1439.4701892000157,1439.4701892000157,1439.4701892000157,1439.4701892000157,1439.4701892000157,1439.4701892000157,1439.4701892000157,1439.4542279799005,7.423879100009799,return,7.259419499896467,stimuli/alien_stimuli/66.png,66,3,1,,,,,,,,,,,,,,,,,,,,,,,,,,,,,,,,,,,,,,,,,,,,,,,,,,,,,,,,,,,,,,,,,,,,,,,,,,,,,,,,,,,,,,,,,GUNLJP,train_y,red_square,bottom_left,2025-04-02_15h05.00.790,HideSeek_v1,2022.2.5,59.96872027280253,
,,,,,,,,,,,30,,,,3,0,3,0,,,,,,,,,,,,,,,,,,,,,,,,,,,,,,,,,,,,,,,,,,,,,,,,,,,,,,,,,,,,,,,,,,,,,,,,,,,,,,21,0.7,0.45833333333333337,1,99,2,30,0,conditions/schedules/train_y_first/red_square_00/bottom_left/inputTrain_2.1.xlsx,99,1,2,1,0,,,,,,,,,,,,,,,,,,,,,,,,,,,,,,,,,,,,,,,,,,,,,,,,,,,,,,,,,,,,,,,,,,,,,,,,,,,GUNLJP,train_y,red_square,bottom_left,2025-04-02_15h05.00.790,HideSeek_v1,2022.2.5,59.96872027280253,
,,,,,,,,,,,,,,,4,0,4,0,0,0,0,0,,,,,,,,,,,,,,,,,,,,,,,,,,,,,,,conditions/schedules/train_y_first/red_square_00/bottom_left/instructions/Slide21.png,conditions/schedules/train_y_first/red_square_00/bottom_left/instructions/Audio21.wav,1446.8926220000722,1446.8938180398661,21,"[9.287792100105435, 18.346626300131902, 16.800999799976125, 19.572818000102416, 4.900793400127441, 4.903228099923581, 5.849301300011575, 11.605159299913794, 6.501133699901402, 6.592201800085604, 10.553509499877691, 13.321113999933004, 17.762195700081065, 16.21999349980615, 42.59302520006895, 22.32879659999162, 33.470864299917594, 6.5159614000003785, 9.93819300015457, 12.506468999898061, 12.425101599888876]","[0.01415079995058477, 0.013814799953252077, 0.03596560005098581, 0.03015240002423525, 0.049691000021994114, 0.013934199931100011, 0.031182599952444434, 0.030289999907836318, 0.05349510000087321, 0.07842959999106824, 0.03106499998830259, 13.321123199770227, 0.013093499932438135, 16.219999599969015, 42.593032700009644, 22.328803000040352, 33.4708753998857, 0.00020940019749104977, 0.00021459977142512798, 12.506476199952886, 12.42510939994827]",0,,,,,,,,,,,,,,,,,,,,,,,,,,,,,,,,,,,,,,,,,,,,,,,,,,,,,,,,,,,,,,,,,,,,,,,,,,,,,,,,,,,,,,,,,,,,,,,,,,,,,,,,,,,,,,,,,,,,,,,,,,,,GUNLJP,train_y,red_square,bottom_left,2025-04-02_15h05.00.790,HideSeek_v1,2022.2.5,59.96872027280253,
2,4,0,4,0,0,0,16,2,instr_dim1_2,,,,,,4,0,4,0,,,,,0,0,0,0,,,,,,,,,,,,,,,,,,,,,,,,,,,,,,,,,,,,,stimuli/alien_stimuli/16.png,conditions/schedules/train_y_first/red_square_00/bottom_left/inputInstr_2.xlsx,stimuli/alien_stimuli/16.png,1459.425921099959,1459.425921099959,1459.425921099959,1459.425921099959,1459.4207120198757,return,3.8692740998230875,"[-0.16, -0.08, 0, 0.08, 0.16, 0.24, 0.32, 0.4, 0.48, 0.56]","[-0.4, -0.32, -0.24, -0.16, -0.08, 0, 0.08, 0.16, 0.24, 0.32]",0,0,4,4,0.0,0.0,1463.4634352999274,1463.4634352999274,1463.4634352999274,1463.4634352999274,1463.4634352999274,1463.4634352999274,1463.4634352999274,1463.4408717799467,6.723002299899235,return,6.552875299938023,stimuli/alien_stimuli/16.png,16,4,2,,,,,,,,,,,,,,,,,,,,,,,,,,,,,,,,,,,,,,,,,,,,,,,,,,,,,,,,,,,,,,,,,,,,,,,,,,,,,,,,,,,,,,,,,GUNLJP,train_y,red_square,bottom_left,2025-04-02_15h05.00.790,HideSeek_v1,2022.2.5,59.96872027280253,
,,,,,,,,,,,30,,,,4,0,4,0,,,,,,,,,,,,,,,,,,,,,,,,,,,,,,,,,,,,,,,,,,,,,,,,,,,,,,,,,,,,,,,,,,,,,,,,,,,,,,21,0.7,0.45833333333333337,1,99,2,30,0,conditions/schedules/train_y_first/red_square_00/bottom_left/inputTrain_2.1.xlsx,99,1,2,1,0,,,,,,,,,,,,,,,,,,,,,,,,,,,,,,,,,,,,,,,,,,,,,,,,,,,,,,,,,,,,,,,,,,,,,,,,,,,GUNLJP,train_y,red_square,bottom_left,2025-04-02_15h05.00.790,HideSeek_v1,2022.2.5,59.96872027280253,
,,,,,,,,,,,,,,,5,0,5,0,0,0,0,0,,,,,,,,,,,,,,,,,,,,,,,,,,,,,,,conditions/schedules/train_y_first/red_square_00/bottom_left/instructions/Slide22.png,conditions/schedules/train_y_first/red_square_00/bottom_left/instructions/Audio22.wav,1470.1839586000424,1470.1795653397683,22,"[9.287792100105435, 18.346626300131902, 16.800999799976125, 19.572818000102416, 4.900793400127441, 4.903228099923581, 5.849301300011575, 11.605159299913794, 6.501133699901402, 6.592201800085604, 10.553509499877691, 13.321113999933004, 17.762195700081065, 16.21999349980615, 42.59302520006895, 22.32879659999162, 33.470864299917594, 6.5159614000003785, 9.93819300015457, 12.506468999898061, 12.425101599888876, 28.867657200200483]","[0.01415079995058477, 0.013814799953252077, 0.03596560005098581, 0.03015240002423525, 0.049691000021994114, 0.013934199931100011, 0.031182599952444434, 0.030289999907836318, 0.05349510000087321, 0.07842959999106824, 0.03106499998830259, 13.321123199770227, 0.013093499932438135, 16.219999599969015, 42.593032700009644, 22.328803000040352, 33.4708753998857, 0.00020940019749104977, 0.00021459977142512798, 12.506476199952886, 12.42510939994827, 28.86766540003009]",0,,,,,,,,,,,,,,,,,,,,,,,,,,,,,,,,,,,,,,,,,,,,,,,,,,,,,,,,,,,,,,,,,,,,,,,,,,,,,,,,,,,,,,,,,,,,,,,,,,,,,,,,,,,,,,,,,,,,,,,,,,,,GUNLJP,train_y,red_square,bottom_left,2025-04-02_15h05.00.790,HideSeek_v1,2022.2.5,59.96872027280253,
,2,1,5,1,3,0,46,,train_dim1_2,1,30,,,,5,0,5,0,,,,,,,,,0,0,0,0,0,0,0,0,0,0,0,0,,,,,,,,,,,,,,,,,,,,,,,,,stimuli/alien_stimuli/46.png,,,,,,,,,,,,,,,,,,,,,,,,,,,,,,,,,,,,,,,30,,,,,,,,1499.1523013000842,1499.1523013000842,1499.1523013000842,1499.1523013000842,1499.1523013000842,right,4.380825800122693,0,0,0,99,0.08,-0.32,right,4.280810999684036,,,,,,,,,,,,,,,,,,,,,,,,,,,,,,,,,,,,,,,,,,,,,,,,,,,,,,,,,,,,GUNLJP,train_y,red_square,bottom_left,2025-04-02_15h05.00.790,HideSeek_v1,2022.2.5,59.96872027280253,
,2,1,5,1,3,0,46,,train_dim1_2,1,30,,,,5,0,5,0,,,,,,,,,0,0,0,0,0,0,0,0,1,0,1,0,,,,,,,,,,,,,,,,,,,,,,,,,,,,,,,,,,,,,,,,,,,,,,,,,,,,,,,,,,,,,,,,30,,,,,,,,1503.5225965001155,1503.5225965001155,1503.5225965001155,1503.5225965001155,1503.5225965001155,right,0.44276229990646243,0,0,0,99,0.16,-0.32,right,0.3668567999266088,,,,,,,,,,,,,,,,,,,,,,,,,,,,,,,,,,,,,,,,,,,,,,,,,,,,,,,,,,,,GUNLJP,train_y,red_square,bottom_left,2025-04-02_15h05.00.790,HideSeek_v1,2022.2.5,59.96872027280253,
