trialInstr,x_fixStart,y_fixStart,x_corrSteps,y_corrSteps,x_nrSteps,y_nrSteps,alienID,trialLength,version,trialTrain,praclen,testlen,trial_label,break_on_off,beforeExpLoop.thisRepN,beforeExpLoop.thisTrialN,beforeExpLoop.thisN,beforeExpLoop.thisIndex,mini_instr_trials.thisRepN,mini_instr_trials.thisTrialN,mini_instr_trials.thisN,mini_instr_trials.thisIndex,instrLoop.thisRepN,instrLoop.thisTrialN,instrLoop.thisN,instrLoop.thisIndex,repeat_prac.thisRepN,repeat_prac.thisTrialN,repeat_prac.thisN,repeat_prac.thisIndex,trainLoop.thisRepN,trainLoop.thisTrialN,trainLoop.thisN,trainLoop.thisIndex,moveLoop_train.thisRepN,moveLoop_train.thisTrialN,moveLoop_train.thisN,moveLoop_train.thisIndex,experiment.thisRepN,experiment.thisTrialN,experiment.thisN,experiment.thisIndex,moveLoop_test.thisRepN,moveLoop_test.thisTrialN,moveLoop_test.thisN,moveLoop_test.thisIndex,mini_instr2_trials.thisRepN,mini_instr2_trials.thisTrialN,mini_instr2_trials.thisN,mini_instr2_trials.thisIndex,start_all_time,url,slideStim,audioStim,slides.started,sounds.started,nextButton.numClicks,nextButton.timesOn,nextButton.timesOff,prev_but.numClicks,prev_but.timesOn,prev_but.timesOff,alienStim,instrFile,alienStim_instr,gridImage_instr.started,startPos_3.started,key_instr.started,alienImage_3.started,sounds_1.started,key_instr.keys,key_instr.rt,all_x,all_y,FBy_corrSteps,FBy_fixStart,FBx_corrSteps,FBx_fixStart,FBy_pathSize_check,FBx_pathSize_check,gridImage_9.started,alienImageFB_3.started,startPosFB_3.started,keyFB_3.started,pathLine_ydir_2.started,pathLine_xdir_2.started,alienFace_3.started,sounds_2.started,RTFB_instr,keyFB_3.keys,keyFB_3.rt,draw_alienStim,draw_alienID,test_x,nrepcount,perfthres,percthres,earlierperf,earlystop,nextPrac,fileidx,praclen,saveACC_train,pracFile,nextPrac_train,addNrep,fileidx_endr,repExp,showearly,gridImage_4.started,startPos.started,movePos.started,key_resp.started,alienImage.started,buttonPress_train,RTchoice_train,cumAcctrain,aCorr,saveACC_choice,corrAns,x_movePos_end,y_movePos_end,key_resp.keys,key_resp.rt,wLy_dir,wLx_dir,x_movePos,y_movePos,text_2.started,text_2.stopped,aft_x_corrPos,aft_y_corrPos,y_pathSize_check,x_pathSize_check,y_pathdirY,x_pathdirY,x_pathdirX,x_corrPos,y_corrPos,gridImage_6.started,alienImageFB_2.started,startPosFB_2.started,movePosFB_2.started,keyFB_2.started,pathLine_xdir.started,pathLine_ydir.started,alienFace.started,sounds_4.started,RT_FBtrain,keyFB_2.keys,keyFB_2.rt,saveACC_pre,ACC,within_saveACC_train,earlystop_wloop,cumAcctrain_check,gridImage_3.started,alienImage_test.started,startPos_test.started,movePos_test.started,key_resp_test.started,wLy_dir_test,wLx_dir_test,buttonPress_test,RTchoice_test,cumAcctest,corrAns_test,key_resp_test.keys,key_resp_test.rt,text_3.started,text_3.stopped,total_time,end_all_time,key_resp_3.keys,slides_2.started,sounds_3.started,nextButton_2.numClicks,nextButton_2.timesOn,nextButton_2.timesOff,prev_but_2.numClicks,prev_but_2.timesOn,prev_but_2.timesOff,bye.started,participant,train_first,00_coordinate,starting corner,date,expName,psychopyVersion,frameRate,
,,,,,,,,,,,,,,,0,0,0,0,0,0,0,0,,,,,,,,,,,,,,,,,,,,,,,,,,,,,start_all_time,testround,conditions/schedules/train_x_first/red_square_00/top_left/instructions/Slide1.png,conditions/schedules/train_x_first/red_square_00/top_left/instructions/Audio1.wav,27.89981319999788,27.836213390027478,1,[3.5230678000007174],[3.5230751000017335],0,,,,,,,,,,,,,,,,,,,,,,,,,,,,,,,,,,,,,,,,,,,,,,,,,,,,,,,,,,,,,,,,,,,,,,,,,,,,,,,,,,,,,,,,,,,,,,,,,,,,,,,,,,,,,,,,,,,,,,,,,,,,GVTY1K,train_x,red_square,top_left,2025-03-20_15h15.37.684,HideSeek_v1,2022.2.5,60.2092633152775,
,,,,,,,,,,,,,,,0,0,0,0,1,0,1,0,,,,,,,,,,,,,,,,,,,,,,,,,,,,,,,conditions/schedules/train_x_first/red_square_00/top_left/instructions/Slide2.png,conditions/schedules/train_x_first/red_square_00/top_left/instructions/Audio2.wav,31.437264799998957,31.43677254999966,2,"[3.5230678000007174, 18.79599059999964]","[3.5230751000017335, 18.795996700002433]",0,,,,,,,,,,,,,,,,,,,,,,,,,,,,,,,,,,,,,,,,,,,,,,,,,,,,,,,,,,,,,,,,,,,,,,,,,,,,,,,,,,,,,,,,,,,,,,,,,,,,,,,,,,,,,,,,,,,,,,,,,,,,GVTY1K,train_x,red_square,top_left,2025-03-20_15h15.37.684,HideSeek_v1,2022.2.5,60.2092633152775,
,,,,,,,,,,,,,,,0,0,0,0,2,0,2,0,,,,,,,,,,,,,,,,,,,,,,,,,,,,,,,conditions/schedules/train_x_first/red_square_00/top_left/instructions/Slide3.png,conditions/schedules/train_x_first/red_square_00/top_left/instructions/Audio3.wav,50.30477009999959,50.30246535000151,3,"[3.5230678000007174, 18.79599059999964, 16.525584799997887]","[3.5230751000017335, 0.00021829999968758784, 16.525591300000087]",0,,,,,,,,,,,,,,,,,,,,,,,,,,,,,,,,,,,,,,,,,,,,,,,,,,,,,,,,,,,,,,,,,,,,,,,,,,,,,,,,,,,,,,,,,,,,,,,,,,,,,,,,,,,,,,,,,,,,,,,,,,,,GVTY1K,train_x,red_square,top_left,2025-03-20_15h15.37.684,HideSeek_v1,2022.2.5,60.2092633152775,
,,,,,,,,,,,,,,,0,0,0,0,3,0,3,0,,,,,,,,,,,,,,,,,,,,,,,,,,,,,,,conditions/schedules/train_x_first/red_square_00/top_left/instructions/Slide4.png,conditions/schedules/train_x_first/red_square_00/top_left/instructions/Audio4.wav,66.90608390000125,66.89944914999978,4,"[3.5230678000007174, 18.79599059999964, 16.525584799997887, 19.507299400000193]","[3.5230751000017335, 0.00021829999968758784, 0.07455699999991339, 19.50730620000104]",0,,,,,,,,,,,,,,,,,,,,,,,,,,,,,,,,,,,,,,,,,,,,,,,,,,,,,,,,,,,,,,,,,,,,,,,,,,,,,,,,,,,,,,,,,,,,,,,,,,,,,,,,,,,,,,,,,,,,,,,,,,,,GVTY1K,train_x,red_square,top_left,2025-03-20_15h15.37.684,HideSeek_v1,2022.2.5,60.2092633152775,
,,,,,,,,,,,,,,,0,0,0,0,4,0,4,0,,,,,,,,,,,,,,,,,,,,,,,,,,,,,,,conditions/schedules/train_x_first/red_square_00/top_left/instructions/Slide5.png,conditions/schedules/train_x_first/red_square_00/top_left/instructions/Audio5.wav,86.469552999999,86.46566983999874,5,"[3.5230678000007174, 18.79599059999964, 16.525584799997887, 19.507299400000193, 4.681120799999917]","[3.5230751000017335, 0.00021829999968758784, 0.07455699999991339, 0.014309599999251077, 4.681132099998649]",0,,,,,,,,,,,,,,,,,,,,,,,,,,,,,,,,,,,,,,,,,,,,,,,,,,,,,,,,,,,,,,,,,,,,,,,,,,,,,,,,,,,,,,,,,,,,,,,,,,,,,,,,,,,,,,,,,,,,,,,,,,,,GVTY1K,train_x,red_square,top_left,2025-03-20_15h15.37.684,HideSeek_v1,2022.2.5,60.2092633152775,
,,,,,,,,,,,,,,,0,0,0,0,5,0,5,0,,,,,,,,,,,,,,,,,,,,,,,,,,,,,,,conditions/schedules/train_x_first/red_square_00/top_left/instructions/Slide6.png,conditions/schedules/train_x_first/red_square_00/top_left/instructions/Audio6.wav,91.20070499999929,91.20297163999858,6,"[3.5230678000007174, 18.79599059999964, 16.525584799997887, 19.507299400000193, 4.681120799999917, 4.970472299999528]","[3.5230751000017335, 0.00021829999968758784, 0.07455699999991339, 0.014309599999251077, 0.06640569999945001, 4.970478700000967]",0,,,,,,,,,,,,,,,,,,,,,,,,,,,,,,,,,,,,,,,,,,,,,,,,,,,,,,,,,,,,,,,,,,,,,,,,,,,,,,,,,,,,,,,,,,,,,,,,,,,,,,,,,,,,,,,,,,,,,,,,,,,,GVTY1K,train_x,red_square,top_left,2025-03-20_15h15.37.684,HideSeek_v1,2022.2.5,60.2092633152775,
,,,,,,,,,,,,,,,0,0,0,0,6,0,6,0,,,,,,,,,,,,,,,,,,,,,,,,,,,,,,,conditions/schedules/train_x_first/red_square_00/top_left/instructions/Slide7.png,conditions/schedules/train_x_first/red_square_00/top_left/instructions/Audio7.wav,96.22092390000034,96.20751173000134,7,"[3.5230678000007174, 18.79599059999964, 16.525584799997887, 19.507299400000193, 4.681120799999917, 4.970472299999528, 5.60503719999906]","[3.5230751000017335, 0.00021829999968758784, 0.07455699999991339, 0.014309599999251077, 0.06640569999945001, 0.05009480000080657, 5.605045100001007]",0,,,,,,,,,,,,,,,,,,,,,,,,,,,,,,,,,,,,,,,,,,,,,,,,,,,,,,,,,,,,,,,,,,,,,,,,,,,,,,,,,,,,,,,,,,,,,,,,,,,,,,,,,,,,,,,,,,,,,,,,,,,,GVTY1K,train_x,red_square,top_left,2025-03-20_15h15.37.684,HideSeek_v1,2022.2.5,60.2092633152775,
,,,,,,,,,,,,,,,0,0,0,0,7,0,7,0,,,,,,,,,,,,,,,,,,,,,,,,,,,,,,,conditions/schedules/train_x_first/red_square_00/top_left/instructions/Slide8.png,conditions/schedules/train_x_first/red_square_00/top_left/instructions/Audio8.wav,101.8942621999995,101.89532974999929,8,"[3.5230678000007174, 18.79599059999964, 16.525584799997887, 19.507299400000193, 4.681120799999917, 4.970472299999528, 5.60503719999906, 11.75843470000109]","[3.5230751000017335, 0.00021829999968758784, 0.07455699999991339, 0.014309599999251077, 0.06640569999945001, 0.05009480000080657, 0.04857760000231792, 11.758441400001175]",0,,,,,,,,,,,,,,,,,,,,,,,,,,,,,,,,,,,,,,,,,,,,,,,,,,,,,,,,,,,,,,,,,,,,,,,,,,,,,,,,,,,,,,,,,,,,,,,,,,,,,,,,,,,,,,,,,,,,,,,,,,,,GVTY1K,train_x,red_square,top_left,2025-03-20_15h15.37.684,HideSeek_v1,2022.2.5,60.2092633152775,
,,,,,,,,,,,,,,,0,0,0,0,8,0,8,0,,,,,,,,,,,,,,,,,,,,,,,,,,,,,,,conditions/schedules/train_x_first/red_square_00/top_left/instructions/Slide9.png,conditions/schedules/train_x_first/red_square_00/top_left/instructions/Audio9.wav,113.70292289999998,113.7049667400017,9,"[3.5230678000007174, 18.79599059999964, 16.525584799997887, 19.507299400000193, 4.681120799999917, 4.970472299999528, 5.60503719999906, 11.75843470000109, 6.38808429999699]","[3.5230751000017335, 0.00021829999968758784, 0.07455699999991339, 0.014309599999251077, 0.06640569999945001, 0.05009480000080657, 0.04857760000231792, 0.0140235999970173, 6.388090899999952]",0,,,,,,,,,,,,,,,,,,,,,,,,,,,,,,,,,,,,,,,,,,,,,,,,,,,,,,,,,,,,,,,,,,,,,,,,,,,,,,,,,,,,,,,,,,,,,,,,,,,,,,,,,,,,,,,,,,,,,,,,,,,,GVTY1K,train_x,red_square,top_left,2025-03-20_15h15.37.684,HideSeek_v1,2022.2.5,60.2092633152775,
,,,,,,,,,,,,,,,0,0,0,0,9,0,9,0,,,,,,,,,,,,,,,,,,,,,,,,,,,,,,,conditions/schedules/train_x_first/red_square_00/top_left/instructions/Slide10.png,conditions/schedules/train_x_first/red_square_00/top_left/instructions/Audio10.wav,120.14156039999943,120.14379524000033,10,"[3.5230678000007174, 18.79599059999964, 16.525584799997887, 19.507299400000193, 4.681120799999917, 4.970472299999528, 5.60503719999906, 11.75843470000109, 6.38808429999699, 20.78361969999969]","[3.5230751000017335, 0.00021829999968758784, 0.07455699999991339, 0.014309599999251077, 0.06640569999945001, 0.05009480000080657, 0.04857760000231792, 0.0140235999970173, 0.049593699997785734, 20.783626699998422]",0,,,,,,,,,,,,,,,,,,,,,,,,,,,,,,,,,,,,,,,,,,,,,,,,,,,,,,,,,,,,,,,,,,,,,,,,,,,,,,,,,,,,,,,,,,,,,,,,,,,,,,,,,,,,,,,,,,,,,,,,,,,,GVTY1K,train_x,red_square,top_left,2025-03-20_15h15.37.684,HideSeek_v1,2022.2.5,60.2092633152775,
,,,,,,,,,,,,,,,0,0,0,0,10,0,10,0,,,,,,,,,,,,,,,,,,,,,,,,,,,,,,,conditions/schedules/train_x_first/red_square_00/top_left/instructions/Slide11.png,conditions/schedules/train_x_first/red_square_00/top_left/instructions/Audio11.wav,140.9867962999997,140.97775613999985,11,"[3.5230678000007174, 18.79599059999964, 16.525584799997887, 19.507299400000193, 4.681120799999917, 4.970472299999528, 5.60503719999906, 11.75843470000109, 6.38808429999699, 20.78361969999969, 10.46375380000245]","[3.5230751000017335, 0.00021829999968758784, 0.07455699999991339, 0.014309599999251077, 0.06640569999945001, 0.05009480000080657, 0.04857760000231792, 0.0140235999970173, 0.049593699997785734, 20.783626699998422, 10.463760200000252]",0,,,,,,,,,,,,,,,,,,,,,,,,,,,,,,,,,,,,,,,,,,,,,,,,,,,,,,,,,,,,,,,,,,,,,,,,,,,,,,,,,,,,,,,,,,,,,,,,,,,,,,,,,,,,,,,,,,,,,,,,,,,,GVTY1K,train_x,red_square,top_left,2025-03-20_15h15.37.684,HideSeek_v1,2022.2.5,60.2092633152775,
,,,,,,,,,,,,,,,0,0,0,0,11,0,11,0,,,,,,,,,,,,,,,,,,,,,,,,,,,,,,,conditions/schedules/train_x_first/red_square_00/top_left/instructions/Slide12.png,conditions/schedules/train_x_first/red_square_00/top_left/instructions/Audio12.wav,151.51914559999932,151.51972215000023,12,"[3.5230678000007174, 18.79599059999964, 16.525584799997887, 19.507299400000193, 4.681120799999917, 4.970472299999528, 5.60503719999906, 11.75843470000109, 6.38808429999699, 20.78361969999969, 10.46375380000245, 12.474763299996994]","[3.5230751000017335, 0.00021829999968758784, 0.07455699999991339, 0.014309599999251077, 0.06640569999945001, 0.05009480000080657, 0.04857760000231792, 0.0140235999970173, 0.049593699997785734, 20.783626699998422, 0.013719599999603815, 12.474769699998433]",0,,,,,,,,,,,,,,,,,,,,,,,,,,,,,,,,,,,,,,,,,,,,,,,,,,,,,,,,,,,,,,,,,,,,,,,,,,,,,,,,,,,,,,,,,,,,,,,,,,,,,,,,,,,,,,,,,,,,,,,,,,,,GVTY1K,train_x,red_square,top_left,2025-03-20_15h15.37.684,HideSeek_v1,2022.2.5,60.2092633152775,
1,3,7,8,7,5,0,66,2,instr_dim1_1,,,,,,0,0,0,0,,,,,0,0,0,0,,,,,,,,,,,,,,,,,,,,,,,,,,,,,,,,,,,,,stimuli/alien_stimuli/66.png,conditions/schedules/train_x_first/red_square_00/top_left/inputInstr_1.xlsx,stimuli/alien_stimuli/66.png,164.08775139999852,164.08775139999852,164.08775139999852,164.08775139999852,164.0801652599992,return,9.458156699998653,"[-0.16, -0.08, 0, 0.08, 0.16, 0.24, 0.32, 0.4, 0.48, 0.56]","[-0.4, -0.32, -0.24, -0.16, -0.08, 0, 0.08, 0.16, 0.24, 0.32]",7,7,8,3,0.0,0.4,173.69444160000057,173.69444160000057,173.69444160000057,173.69444160000057,173.69444160000057,173.69444160000057,173.69444160000057,173.68804088000107,6.97335799999928,return,6.826321500000631,stimuli/alien_stimuli/66.png,66,3,1,,,,,,,,,,,,,,,,,,,,,,,,,,,,,,,,,,,,,,,,,,,,,,,,,,,,,,,,,,,,,,,,,,,,,,,,,,,,,,,,,,,,,,,,,GVTY1K,train_x,red_square,top_left,2025-03-20_15h15.37.684,HideSeek_v1,2022.2.5,60.2092633152775,
,,,,,,,,,,,30,,,,0,0,0,0,,,,,,,,,,,,,,,,,,,,,,,,,,,,,,,,,,,,,,,,,,,,,,,,,,,,,,,,,,,,,,,,,,,,,,,,,,,,,,21,0.7,0,0,99,1,30,0,conditions/schedules/train_x_first/red_square_00/top_left/inputTrain_1.1.xlsx,99,1,1,1,0,,,,,,,,,,,,,,,,,,,,,,,,,,,,,,,,,,,,,,,,,,,,,,,,,,,,,,,,,,,,,,,,,,,,,,,,,,,GVTY1K,train_x,red_square,top_left,2025-03-20_15h15.37.684,HideSeek_v1,2022.2.5,60.2092633152775,
,,,,,,,,,,,,,,,1,0,1,0,0,0,0,0,,,,,,,,,,,,,,,,,,,,,,,,,,,,,,,conditions/schedules/train_x_first/red_square_00/top_left/instructions/Slide13.png,conditions/schedules/train_x_first/red_square_00/top_left/instructions/Audio13.wav,180.68593789999795,180.67714239000017,13,"[3.5230678000007174, 18.79599059999964, 16.525584799997887, 19.507299400000193, 4.681120799999917, 4.970472299999528, 5.60503719999906, 11.75843470000109, 6.38808429999699, 20.78361969999969, 10.46375380000245, 12.474763299996994, 18.28777099999934]","[3.5230751000017335, 0.00021829999968758784, 0.07455699999991339, 0.014309599999251077, 0.06640569999945001, 0.05009480000080657, 0.04857760000231792, 0.0140235999970173, 0.049593699997785734, 20.783626699998422, 0.013719599999603815, 12.474769699998433, 18.28777849999824]",0,,,,,,,,,,,,,,,,,,,,,,,,,,,,,,,,,,,,,,,,,,,,,,,,,,,,,,,,,,,,,,,,,,,,,,,,,,,,,,,,,,,,,,,,,,,,,,,,,,,,,,,,,,,,,,,,,,,,,,,,,,,,GVTY1K,train_x,red_square,top_left,2025-03-20_15h15.37.684,HideSeek_v1,2022.2.5,60.2092633152775,
,,,,,,,,,,,,,,,1,0,1,0,1,0,1,0,,,,,,,,,,,,,,,,,,,,,,,,,,,,,,,conditions/schedules/train_x_first/red_square_00/top_left/instructions/Slide14.png,conditions/schedules/train_x_first/red_square_00/top_left/instructions/Audio14.wav,199.03612609999982,199.0265869399984,14,"[3.5230678000007174, 18.79599059999964, 16.525584799997887, 19.507299400000193, 4.681120799999917, 4.970472299999528, 5.60503719999906, 11.75843470000109, 6.38808429999699, 20.78361969999969, 10.46375380000245, 12.474763299996994, 18.28777099999934, 12.697776900000463]","[3.5230751000017335, 0.00021829999968758784, 0.07455699999991339, 0.014309599999251077, 0.06640569999945001, 0.05009480000080657, 0.04857760000231792, 0.0140235999970173, 0.049593699997785734, 20.783626699998422, 0.013719599999603815, 12.474769699998433, 0.014011400002345908, 12.697783300001902]",0,,,,,,,,,,,,,,,,,,,,,,,,,,,,,,,,,,,,,,,,,,,,,,,,,,,,,,,,,,,,,,,,,,,,,,,,,,,,,,,,,,,,,,,,,,,,,,,,,,,,,,,,,,,,,,,,,,,,,,,,,,,,GVTY1K,train_x,red_square,top_left,2025-03-20_15h15.37.684,HideSeek_v1,2022.2.5,60.2092633152775,
2,4,5,4,5,0,0,16,2,instr_dim1_1,,,,,,1,0,1,0,,,,,0,0,0,0,,,,,,,,,,,,,,,,,,,,,,,,,,,,,,,,,,,,,stimuli/alien_stimuli/16.png,conditions/schedules/train_x_first/red_square_00/top_left/inputInstr_1.xlsx,stimuli/alien_stimuli/16.png,211.8334646000003,211.8334646000003,211.8334646000003,211.8334646000003,211.81993945999858,return,8.179297799997585,"[-0.16, -0.08, 0, 0.08, 0.16, 0.24, 0.32, 0.4, 0.48, 0.56]","[-0.4, -0.32, -0.24, -0.16, -0.08, 0, 0.08, 0.16, 0.24, 0.32]",5,5,4,4,0.0,0.0,220.1828413000003,220.1828413000003,220.1828413000003,220.1828413000003,220.1828413000003,220.1828413000003,220.1828413000003,220.16001837999866,7.507374400000117,return,7.345725399998628,stimuli/alien_stimuli/16.png,16,4,2,,,,,,,,,,,,,,,,,,,,,,,,,,,,,,,,,,,,,,,,,,,,,,,,,,,,,,,,,,,,,,,,,,,,,,,,,,,,,,,,,,,,,,,,,GVTY1K,train_x,red_square,top_left,2025-03-20_15h15.37.684,HideSeek_v1,2022.2.5,60.2092633152775,
,,,,,,,,,,,30,,,,1,0,1,0,,,,,,,,,,,,,,,,,,,,,,,,,,,,,,,,,,,,,,,,,,,,,,,,,,,,,,,,,,,,,,,,,,,,,,,,,,,,,,21,0.7,0,0,99,1,30,0,conditions/schedules/train_x_first/red_square_00/top_left/inputTrain_1.1.xlsx,99,1,1,1,0,,,,,,,,,,,,,,,,,,,,,,,,,,,,,,,,,,,,,,,,,,,,,,,,,,,,,,,,,,,,,,,,,,,,,,,,,,,GVTY1K,train_x,red_square,top_left,2025-03-20_15h15.37.684,HideSeek_v1,2022.2.5,60.2092633152775,
,,,,,,,,,,,,,,,2,0,2,0,0,0,0,0,,,,,,,,,,,,,,,,,,,,,,,,,,,,,,,conditions/schedules/train_x_first/red_square_00/top_left/instructions/Slide15.png,conditions/schedules/train_x_first/red_square_00/top_left/instructions/Audio15.wav,227.686931799999,227.6829644900001,15,"[3.5230678000007174, 18.79599059999964, 16.525584799997887, 19.507299400000193, 4.681120799999917, 4.970472299999528, 5.60503719999906, 11.75843470000109, 6.38808429999699, 20.78361969999969, 10.46375380000245, 12.474763299996994, 18.28777099999934, 12.697776900000463, 30.135308899996744]","[3.5230751000017335, 0.00021829999968758784, 0.07455699999991339, 0.014309599999251077, 0.06640569999945001, 0.05009480000080657, 0.04857760000231792, 0.0140235999970173, 0.049593699997785734, 20.783626699998422, 0.013719599999603815, 12.474769699998433, 0.014011400002345908, 12.697783300001902, 30.135316599997168]",0,,,,,,,,,,,,,,,,,,,,,,,,,,,,,,,,,,,,,,,,,,,,,,,,,,,,,,,,,,,,,,,,,,,,,,,,,,,,,,,,,,,,,,,,,,,,,,,,,,,,,,,,,,,,,,,,,,,,,,,,,,,,GVTY1K,train_x,red_square,top_left,2025-03-20_15h15.37.684,HideSeek_v1,2022.2.5,60.2092633152775,
,,,,,,,,,,,,,,,2,0,2,0,1,0,1,0,,,,,,,,,,,,,,,,,,,,,,,,,,,,,,,conditions/schedules/train_x_first/red_square_00/top_left/instructions/Slide16.png,conditions/schedules/train_x_first/red_square_00/top_left/instructions/Audio16.wav,257.8878885999984,257.87481914000017,16,"[3.5230678000007174, 18.79599059999964, 16.525584799997887, 19.507299400000193, 4.681120799999917, 4.970472299999528, 5.60503719999906, 11.75843470000109, 6.38808429999699, 20.78361969999969, 10.46375380000245, 12.474763299996994, 18.28777099999934, 12.697776900000463, 30.135308899996744, 22.1365074000023]","[3.5230751000017335, 0.00021829999968758784, 0.07455699999991339, 0.014309599999251077, 0.06640569999945001, 0.05009480000080657, 0.04857760000231792, 0.0140235999970173, 0.049593699997785734, 20.783626699998422, 0.013719599999603815, 12.474769699998433, 0.014011400002345908, 12.697783300001902, 0.03484459999890532, 22.13651369999934]",0,,,,,,,,,,,,,,,,,,,,,,,,,,,,,,,,,,,,,,,,,,,,,,,,,,,,,,,,,,,,,,,,,,,,,,,,,,,,,,,,,,,,,,,,,,,,,,,,,,,,,,,,,,,,,,,,,,,,,,,,,,,,GVTY1K,train_x,red_square,top_left,2025-03-20_15h15.37.684,HideSeek_v1,2022.2.5,60.2092633152775,
,2,6,5,6,3,0,46,,train_dim1_1,1,30,,,,2,0,2,0,,,,,,,,,0,0,0,0,0,0,0,0,0,0,0,0,,,,,,,,,,,,,,,,,,,,,,,,,stimuli/alien_stimuli/46.png,,,,,,,,,,,,,,,,,,,,,,,,,,,,,,,,,,,,,,,30,,,,,,,,280.1107807999979,280.1107807999979,280.1107807999979,280.1107807999979,280.1107807999979,right,5.966080199999851,0,0,0,99,0.08,0.08,right,5.887005699998554,,,,,,,,,,,,,,,,,,,,,,,,,,,,,,,,,,,,,,,,,,,,,,,,,,,,,,,,,,,,GVTY1K,train_x,red_square,top_left,2025-03-20_15h15.37.684,HideSeek_v1,2022.2.5,60.2092633152775,
,2,6,5,6,3,0,46,,train_dim1_1,1,30,,,,2,0,2,0,,,,,,,,,0,0,0,0,0,0,0,0,1,0,1,0,,,,,,,,,,,,,,,,,,,,,,,,,,,,,,,,,,,,,,,,,,,,,,,,,,,,,,,,,,,,,,,,30,,,,,,,,286.07768560000113,286.07768560000113,286.07768560000113,286.07768560000113,286.07768560000113,right,3.711982300003001,0,0,0,99,0.16,0.08,right,3.6382110999984434,,,,,,,,,,,,,,,,,,,,,,,,,,,,,,,,,,,,,,,,,,,,,,,,,,,,,,,,,,,,GVTY1K,train_x,red_square,top_left,2025-03-20_15h15.37.684,HideSeek_v1,2022.2.5,60.2092633152775,
,2,6,5,6,3,0,46,,train_dim1_1,1,30,,,,2,0,2,0,,,,,,,,,0,0,0,0,0,0,0,0,2,0,2,0,,,,,,,,,,,,,,,,,,,,,,,,,,,,,,,,,,,,,,,,,,,,,,,,,,,,,,,,,,,,,,,,30,,,,,,,,289.79780449999816,289.79780449999816,289.79780449999816,289.79780449999816,289.79780449999816,down,3.929782300001534,0,0,0,99,0.16,0.0,down,3.841113199996471,,,,,,,,,,,,,,,,,,,,,,,,,,,,,,,,,,,,,,,,,,,,,,,,,,,,,,,,,,,,GVTY1K,train_x,red_square,top_left,2025-03-20_15h15.37.684,HideSeek_v1,2022.2.5,60.2092633152775,
,2,6,5,6,3,0,46,,train_dim1_1,1,30,,,,2,0,2,0,,,,,,,,,0,0,0,0,0,0,0,0,3,0,3,0,,,,,,,,,,,,,,,,,,,,,,,,,,,,,,,,,,,,,,,,,,,,,,,,,,,,,,,,,,,,,,,,30,,,,,,,,293.7340961000009,293.7340961000009,293.7340961000009,293.7340961000009,293.7340961000009,return,0.9436088000002201,0,0,0,0,0.16,0.0,return,0.8555421999953978,-1,2,0.16,0.0,,,,,,,,,,,,,,,,,,,,,,,,,,,,,,,,,,,,,,,,,,,,,,,,,,,,,,,,GVTY1K,train_x,red_square,top_left,2025-03-20_15h15.37.684,HideSeek_v1,2022.2.5,60.2092633152775,
,2,9,2,9,0,0,16,,train_dim1_1,2,30,,,,2,0,2,0,,,,,,,,,0,0,0,0,0,1,1,1,0,0,0,0,,,,,,,,,,,,,,,,,,,,,,,,,stimuli/alien_stimuli/16.png,,,,,,,,,,,,,,,,,,,,,,,,,,,,,stimuli/alien_stimuli/46.png,46,2,3,,,,,,,30,,,,,,,,321.07868849999795,321.07868849999795,321.07868849999795,321.07868849999795,321.07868849999795,down,3.0242614000017056,0,0,0,99,0,0.24,down,2.925809299998946,,,,,319.509129099999,321.07868849999795,0.24,0.08,0.0,0.24,0.08,0.24,0.12,0.24,0.08,296.24460159999944,296.24460159999944,296.24460159999944,296.24460159999944,296.24460159999944,296.24460159999944,296.24460159999944,296.24460159999944,296.23983677000035,23.37163370000053,return,23.24551269999938,,,,,,,,,,,,,,,,,,,,,,,,,,,,,,,,,GVTY1K,train_x,red_square,top_left,2025-03-20_15h15.37.684,HideSeek_v1,2022.2.5,60.2092633152775,
,2,9,2,9,0,0,16,,train_dim1_1,2,30,,,,2,0,2,0,,,,,,,,,0,0,0,0,0,1,1,1,1,0,1,0,,,,,,,,,,,,,,,,,,,,,,,,,,,,,,,,,,,,,,,,,,,,,,,,,,,,,,,,,,,,,,,,30,,,,,,,,324.0977915000003,324.0977915000003,324.0977915000003,324.0977915000003,324.0977915000003,down,1.310078300000896,0,0,0,99,0,0.15999999999999998,down,1.2223274999996647,,,,,,,,,,,,,,,,,,,,,,,,,,,,,,,,,,,,,,,,,,,,,,,,,,,,,,,,,,,,GVTY1K,train_x,red_square,top_left,2025-03-20_15h15.37.684,HideSeek_v1,2022.2.5,60.2092633152775,
,2,9,2,9,0,0,16,,train_dim1_1,2,30,,,,2,0,2,0,,,,,,,,,0,0,0,0,0,1,1,1,2,0,2,0,,,,,,,,,,,,,,,,,,,,,,,,,,,,,,,,,,,,,,,,,,,,,,,,,,,,,,,,,,,,,,,,30,,,,,,,,325.4148763999983,325.4148763999983,325.4148763999983,325.4148763999983,325.4148763999983,down,1.2271451999986311,0,0,0,99,0,0.07999999999999997,down,1.1483083999992232,,,,,,,,,,,,,,,,,,,,,,,,,,,,,,,,,,,,,,,,,,,,,,,,,,,,,,,,,,,,GVTY1K,train_x,red_square,top_left,2025-03-20_15h15.37.684,HideSeek_v1,2022.2.5,60.2092633152775,
,2,9,2,9,0,0,16,,train_dim1_1,2,30,,,,2,0,2,0,,,,,,,,,0,0,0,0,0,1,1,1,3,0,3,0,,,,,,,,,,,,,,,,,,,,,,,,,,,,,,,,,,,,,,,,,,,,,,,,,,,,,,,,,,,,,,,,30,,,,,,,,326.649897700001,326.649897700001,326.649897700001,326.649897700001,326.649897700001,up,1.5607161000007181,0,0,0,99,0,0.15999999999999998,up,1.4766170000002603,,,,,,,,,,,,,,,,,,,,,,,,,,,,,,,,,,,,,,,,,,,,,,,,,,,,,,,,,,,,GVTY1K,train_x,red_square,top_left,2025-03-20_15h15.37.684,HideSeek_v1,2022.2.5,60.2092633152775,
,2,9,2,9,0,0,16,,train_dim1_1,2,30,,,,2,0,2,0,,,,,,,,,0,0,0,0,0,1,1,1,4,0,4,0,,,,,,,,,,,,,,,,,,,,,,,,,,,,,,,,,,,,,,,,,,,,,,,,,,,,,,,,,,,,,,,,30,,,,,,,,328.2170377000002,328.2170377000002,328.2170377000002,328.2170377000002,328.2170377000002,up,0.359701600002154,0,0,0,99,0,0.24,up,0.2682509000005666,,,,,,,,,,,,,,,,,,,,,,,,,,,,,,,,,,,,,,,,,,,,,,,,,,,,,,,,,,,,GVTY1K,train_x,red_square,top_left,2025-03-20_15h15.37.684,HideSeek_v1,2022.2.5,60.2092633152775,
,2,9,2,9,0,0,16,,train_dim1_1,2,30,,,,2,0,2,0,,,,,,,,,0,0,0,0,0,1,1,1,5,0,5,0,,,,,,,,,,,,,,,,,,,,,,,,,,,,,,,,,,,,,,,,,,,,,,,,,,,,,,,,,,,,,,,,30,,,,,,,,328.58374410000033,328.58374410000033,328.58374410000033,328.58374410000033,328.58374410000033,up,0.39329240000006394,0,0,0,99,0,0.32,up,0.31081540000013774,,,,,,,,,,,,,,,,,,,,,,,,,,,,,,,,,,,,,,,,,,,,,,,,,,,,,,,,,,,,GVTY1K,train_x,red_square,top_left,2025-03-20_15h15.37.684,HideSeek_v1,2022.2.5,60.2092633152775,
,2,9,2,9,0,0,16,,train_dim1_1,2,30,,,,2,0,2,0,,,,,,,,,0,0,0,0,0,1,1,1,6,0,6,0,,,,,,,,,,,,,,,,,,,,,,,,,,,,,,,,,,,,,,,,,,,,,,,,,,,,,,,,,,,,,,,,30,,,,,,,,328.98357119999855,328.98357119999855,328.98357119999855,328.98357119999855,328.98357119999855,return,0.8437221999993199,1,0,0,1,0,0.32,return,0.7630894999965676,-1,2,0,0.32,,,,,,,,,,,,,,,,,,,,,,,,,,,,,,,,,,,,,,,,,,,,,,,,,,,,,,,,GVTY1K,train_x,red_square,top_left,2025-03-20_15h15.37.684,HideSeek_v1,2022.2.5,60.2092633152775,
,4,9,5,9,1,0,26,,train_dim1_1,3,30,,,,2,0,2,0,,,,,,,,,0,0,0,0,0,2,2,2,0,0,0,0,,,,,,,,,,,,,,,,,,,,,,,,,stimuli/alien_stimuli/26.png,,,,,,,,,,,,,,,,,,,,,,,,,,,,,stimuli/alien_stimuli/16.png,16,2,4,,,,,,,30,,,,,,,,341.6567322999981,341.6567322999981,341.6567322999981,341.6567322999981,341.6567322999981,down,7.995216999999684,1,0,0,99,0.16,0.24,down,7.906520699998509,,,,,340.0929486999994,341.6567322999981,0,0.32,0.0,0.0,0.32,0,0.0,0,0.32,331.41569529999833,331.41569529999833,331.41569529999833,331.41569529999833,331.41569529999833,331.41569529999833,331.41569529999833,331.41569529999833,331.4026359799995,8.809284700000717,return,8.650246699999116,,,,,,,,,,,,,,,,,,,,,,,,,,,,,,,,,GVTY1K,train_x,red_square,top_left,2025-03-20_15h15.37.684,HideSeek_v1,2022.2.5,60.2092633152775,
,4,9,5,9,1,0,26,,train_dim1_1,3,30,,,,2,0,2,0,,,,,,,,,0,0,0,0,0,2,2,2,1,0,1,0,,,,,,,,,,,,,,,,,,,,,,,,,,,,,,,,,,,,,,,,,,,,,,,,,,,,,,,,,,,,,,,,30,,,,,,,,349.65256099999897,349.65256099999897,349.65256099999897,349.65256099999897,349.65256099999897,return,4.278944599998795,1,0,0,0,0.16,0.24,return,4.186427799999365,-2,2,0.16,0.24,,,,,,,,,,,,,,,,,,,,,,,,,,,,,,,,,,,,,,,,,,,,,,,,,,,,,,,,GVTY1K,train_x,red_square,top_left,2025-03-20_15h15.37.684,HideSeek_v1,2022.2.5,60.2092633152775,
,2,8,6,8,4,0,56,,train_dim1_1,4,30,,,,2,0,2,0,,,,,,,,,0,0,0,0,0,3,3,3,0,0,0,0,,,,,,,,,,,,,,,,,,,,,,,,,stimuli/alien_stimuli/56.png,,,,,,,,,,,,,,,,,,,,,,,,,,,,,stimuli/alien_stimuli/26.png,26,4,5,,,,,,,30,,,,,,,,370.72097759999815,370.72097759999815,370.72097759999815,370.72097759999815,370.72097759999815,right,18.70428990000073,1,0,0,99,0.08,0.24,right,18.60257830000046,,,,,369.1504563999988,370.72097759999815,0.24,0.32,0.0,0.08,0.32,0.24,0.2,0.24,0.32,355.5197698999982,355.5197698999982,355.5197698999982,355.5197698999982,355.5197698999982,355.5197698999982,355.5197698999982,355.5197698999982,355.50587668000156,13.763797400002659,return,13.609943599996768,,,,,,,,,,,,,,,,,,,,,,,,,,,,,,,,,GVTY1K,train_x,red_square,top_left,2025-03-20_15h15.37.684,HideSeek_v1,2022.2.5,60.2092633152775,
,2,8,6,8,4,0,56,,train_dim1_1,4,30,,,,2,0,2,0,,,,,,,,,0,0,0,0,0,3,3,3,1,0,1,0,,,,,,,,,,,,,,,,,,,,,,,,,,,,,,,,,,,,,,,,,,,,,,,,,,,,,,,,,,,,,,,,30,,,,,,,,389.42887110000083,389.42887110000083,389.42887110000083,389.42887110000083,389.42887110000083,right,0.6764168000008794,1,0,0,99,0.16,0.24,right,0.589899399998103,,,,,,,,,,,,,,,,,,,,,,,,,,,,,,,,,,,,,,,,,,,,,,,,,,,,,,,,,,,,GVTY1K,train_x,red_square,top_left,2025-03-20_15h15.37.684,HideSeek_v1,2022.2.5,60.2092633152775,
,2,8,6,8,4,0,56,,train_dim1_1,4,30,,,,2,0,2,0,,,,,,,,,0,0,0,0,0,3,3,3,2,0,2,0,,,,,,,,,,,,,,,,,,,,,,,,,,,,,,,,,,,,,,,,,,,,,,,,,,,,,,,,,,,,,,,,30,,,,,,,,390.0993669999989,390.0993669999989,390.0993669999989,390.0993669999989,390.0993669999989,right,0.8101835000015853,1,0,0,99,0.24,0.24,right,0.7211216999967291,,,,,,,,,,,,,,,,,,,,,,,,,,,,,,,,,,,,,,,,,,,,,,,,,,,,,,,,,,,,GVTY1K,train_x,red_square,top_left,2025-03-20_15h15.37.684,HideSeek_v1,2022.2.5,60.2092633152775,
,2,8,6,8,4,0,56,,train_dim1_1,4,30,,,,2,0,2,0,,,,,,,,,0,0,0,0,0,3,3,3,3,0,3,0,,,,,,,,,,,,,,,,,,,,,,,,,,,,,,,,,,,,,,,,,,,,,,,,,,,,,,,,,,,,,,,,30,,,,,,,,390.91585199999827,390.91585199999827,390.91585199999827,390.91585199999827,390.91585199999827,right,1.1440669000003254,1,0,0,99,0.32,0.24,right,1.055257600000914,,,,,,,,,,,,,,,,,,,,,,,,,,,,,,,,,,,,,,,,,,,,,,,,,,,,,,,,,,,,GVTY1K,train_x,red_square,top_left,2025-03-20_15h15.37.684,HideSeek_v1,2022.2.5,60.2092633152775,
,2,8,6,8,4,0,56,,train_dim1_1,4,30,,,,2,0,2,0,,,,,,,,,0,0,0,0,0,3,3,3,4,0,4,0,,,,,,,,,,,,,,,,,,,,,,,,,,,,,,,,,,,,,,,,,,,,,,,,,,,,,,,,,,,,,,,,30,,,,,,,,392.06762040000103,392.06762040000103,392.06762040000103,392.06762040000103,392.06762040000103,return,1.6301318000005267,2,0,0,1,0.32,0.24,return,1.5513919000004535,-2,6,0.32,0.24,,,,,,,,,,,,,,,,,,,,,,,,,,,,,,,,,,,,,,,,,,,,,,,,,,,,,,,,GVTY1K,train_x,red_square,top_left,2025-03-20_15h15.37.684,HideSeek_v1,2022.2.5,60.2092633152775,
,0,7,5,7,5,0,66,,train_dim1_1,5,30,,,,2,0,2,0,,,,,,,,,0,0,0,0,0,4,4,4,0,0,0,0,,,,,,,,,,,,,,,,,,,,,,,,,stimuli/alien_stimuli/66.png,,,,,,,,,,,,,,,,,,,,,,,,,,,,,stimuli/alien_stimuli/56.png,56,2,6,,,,,,,30,,,,,,,,401.2677678,401.2677678,401.2677678,401.2677678,401.2677678,right,2.7236096000015095,2,0,0,99,-0.08,0.16,right,2.6442900999973062,,,,,399.70917949999784,401.2677678,0.32,0.24,0.0,0.32,0.24,0.32,0.16,0.32,0.24,395.28150259999893,395.28150259999893,395.28150259999893,395.28150259999893,395.28150259999893,395.28150259999893,395.28150259999893,395.28150259999893,395.2722718700021,4.539532599999802,return,4.39945429999716,,,,,,,,,,,,,,,,,,,,,,,,,,,,,,,,,GVTY1K,train_x,red_square,top_left,2025-03-20_15h15.37.684,HideSeek_v1,2022.2.5,60.2092633152775,
,0,7,5,7,5,0,66,,train_dim1_1,5,30,,,,2,0,2,0,,,,,,,,,0,0,0,0,0,4,4,4,1,0,1,0,,,,,,,,,,,,,,,,,,,,,,,,,,,,,,,,,,,,,,,,,,,,,,,,,,,,,,,,,,,,,,,,30,,,,,,,,403.9916556999997,403.9916556999997,403.9916556999997,403.9916556999997,403.9916556999997,right,0.7764581000010367,2,0,0,99,0.0,0.16,right,0.6995492999958515,,,,,,,,,,,,,,,,,,,,,,,,,,,,,,,,,,,,,,,,,,,,,,,,,,,,,,,,,,,,GVTY1K,train_x,red_square,top_left,2025-03-20_15h15.37.684,HideSeek_v1,2022.2.5,60.2092633152775,
,0,7,5,7,5,0,66,,train_dim1_1,5,30,,,,2,0,2,0,,,,,,,,,0,0,0,0,0,4,4,4,2,0,2,0,,,,,,,,,,,,,,,,,,,,,,,,,,,,,,,,,,,,,,,,,,,,,,,,,,,,,,,,,,,,,,,,30,,,,,,,,404.7760061000008,404.7760061000008,404.7760061000008,404.7760061000008,404.7760061000008,right,0.6936105000022508,2,0,0,99,0.08,0.16,right,0.6081859999976587,,,,,,,,,,,,,,,,,,,,,,,,,,,,,,,,,,,,,,,,,,,,,,,,,,,,,,,,,,,,GVTY1K,train_x,red_square,top_left,2025-03-20_15h15.37.684,HideSeek_v1,2022.2.5,60.2092633152775,
,0,7,5,7,5,0,66,,train_dim1_1,5,30,,,,2,0,2,0,,,,,,,,,0,0,0,0,0,4,4,4,3,0,3,0,,,,,,,,,,,,,,,,,,,,,,,,,,,,,,,,,,,,,,,,,,,,,,,,,,,,,,,,,,,,,,,,30,,,,,,,,405.47585909999907,405.47585909999907,405.47585909999907,405.47585909999907,405.47585909999907,right,0.8101155999975163,2,0,0,99,0.16,0.16,right,0.7374146999973163,,,,,,,,,,,,,,,,,,,,,,,,,,,,,,,,,,,,,,,,,,,,,,,,,,,,,,,,,,,,GVTY1K,train_x,red_square,top_left,2025-03-20_15h15.37.684,HideSeek_v1,2022.2.5,60.2092633152775,
,0,7,5,7,5,0,66,,train_dim1_1,5,30,,,,2,0,2,0,,,,,,,,,0,0,0,0,0,4,4,4,4,0,4,0,,,,,,,,,,,,,,,,,,,,,,,,,,,,,,,,,,,,,,,,,,,,,,,,,,,,,,,,,,,,,,,,30,,,,,,,,406.2942715999998,406.2942715999998,406.2942715999998,406.2942715999998,406.2942715999998,right,0.6101306000018667,2,0,0,99,0.24,0.16,right,0.5285838000017975,,,,,,,,,,,,,,,,,,,,,,,,,,,,,,,,,,,,,,,,,,,,,,,,,,,,,,,,,,,,GVTY1K,train_x,red_square,top_left,2025-03-20_15h15.37.684,HideSeek_v1,2022.2.5,60.2092633152775,
,0,7,5,7,5,0,66,,train_dim1_1,5,30,,,,2,0,2,0,,,,,,,,,0,0,0,0,0,4,4,4,5,0,5,0,,,,,,,,,,,,,,,,,,,,,,,,,,,,,,,,,,,,,,,,,,,,,,,,,,,,,,,,,,,,,,,,30,,,,,,,,406.91024969999853,406.91024969999853,406.91024969999853,406.91024969999853,406.91024969999853,return,1.1106299999992189,3,0,0,1,0.24,0.16,return,1.026912600002106,-2,11,0.24,0.16,,,,,,,,,,,,,,,,,,,,,,,,,,,,,,,,,,,,,,,,,,,,,,,,,,,,,,,,GVTY1K,train_x,red_square,top_left,2025-03-20_15h15.37.684,HideSeek_v1,2022.2.5,60.2092633152775,
,0,5,1,5,1,0,26,,train_dim1_1,6,30,,,,2,0,2,0,,,,,,,,,0,0,0,0,0,5,5,5,0,0,0,0,,,,,,,,,,,,,,,,,,,,,,,,,stimuli/alien_stimuli/26.png,,,,,,,,,,,,,,,,,,,,,,,,,,,,,stimuli/alien_stimuli/66.png,66,0,7,,,,,,,30,,,,,,,,413.66151900000114,413.66151900000114,413.66151900000114,413.66151900000114,413.66151900000114,return,2.9407444999997097,3,1,0,0,-0.16,0,return,2.8297308000001067,-2,11,-0.16,0,412.0861072999978,413.66151900000114,0.24,0.16,0.0,0.4,0.16,0.24,0.039999999999999994,0.24,0.16,409.60038519999944,409.60038519999944,409.60038519999944,409.60038519999944,409.60038519999944,409.60038519999944,409.60038519999944,409.60038519999944,409.58400017000133,2.6042656999998144,return,2.4655687999984366,,,,,,,,,,,,,,,,,,,,,,,,,,,,,,,,,GVTY1K,train_x,red_square,top_left,2025-03-20_15h15.37.684,HideSeek_v1,2022.2.5,60.2092633152775,
,3,5,8,5,5,0,66,,train_dim1_1,7,30,,,,2,0,2,0,,,,,,,,,0,0,0,0,0,6,6,6,0,0,0,0,,,,,,,,,,,,,,,,,,,,,,,,,stimuli/alien_stimuli/66.png,,,,,,,,,,,,,,,,,,,,,,,,,,,,,stimuli/alien_stimuli/26.png,26,0,8,,,,,,,30,,,,,,,,430.3705994000011,430.3705994000011,430.3705994000011,430.3705994000011,430.3705994000011,right,4.259422999999515,3,1,0,99,0.16,0,right,4.158084299997427,,,,,428.8000805999982,430.3705994000011,-0.08,0,0.0,0.08,0.0,-0.08,-0.12,-0.08,0,418.1512565999983,418.1512565999983,418.1512565999983,418.1512565999983,418.1512565999983,418.1512565999983,418.1512565999983,418.1512565999983,418.1412651700008,10.760970100000122,return,10.620761099999072,,,,,,,,,,,,,,,,,,,,,,,,,,,,,,,,,GVTY1K,train_x,red_square,top_left,2025-03-20_15h15.37.684,HideSeek_v1,2022.2.5,60.2092633152775,
,3,5,8,5,5,0,66,,train_dim1_1,7,30,,,,2,0,2,0,,,,,,,,,0,0,0,0,0,6,6,6,1,0,1,0,,,,,,,,,,,,,,,,,,,,,,,,,,,,,,,,,,,,,,,,,,,,,,,,,,,,,,,,,,,,,,,,30,,,,,,,,434.6182179999996,434.6182179999996,434.6182179999996,434.6182179999996,434.6182179999996,right,1.093409299999621,3,1,0,99,0.24,0,right,1.0060002999998687,,,,,,,,,,,,,,,,,,,,,,,,,,,,,,,,,,,,,,,,,,,,,,,,,,,,,,,,,,,,GVTY1K,train_x,red_square,top_left,2025-03-20_15h15.37.684,HideSeek_v1,2022.2.5,60.2092633152775,
,3,5,8,5,5,0,66,,train_dim1_1,7,30,,,,2,0,2,0,,,,,,,,,0,0,0,0,0,6,6,6,2,0,2,0,,,,,,,,,,,,,,,,,,,,,,,,,,,,,,,,,,,,,,,,,,,,,,,,,,,,,,,,,,,,,,,,30,,,,,,,,435.7181677999979,435.7181677999979,435.7181677999979,435.7181677999979,435.7181677999979,right,0.9270747000009578,3,1,0,99,0.32,0,right,0.8469759999970847,,,,,,,,,,,,,,,,,,,,,,,,,,,,,,,,,,,,,,,,,,,,,,,,,,,,,,,,,,,,GVTY1K,train_x,red_square,top_left,2025-03-20_15h15.37.684,HideSeek_v1,2022.2.5,60.2092633152775,
,3,5,8,5,5,0,66,,train_dim1_1,7,30,,,,2,0,2,0,,,,,,,,,0,0,0,0,0,6,6,6,3,0,3,0,,,,,,,,,,,,,,,,,,,,,,,,,,,,,,,,,,,,,,,,,,,,,,,,,,,,,,,,,,,,,,,,30,,,,,,,,436.65193519999957,436.65193519999957,436.65193519999957,436.65193519999957,436.65193519999957,right,0.9270639999995183,3,1,0,99,0.4,0,right,0.854162699997687,,,,,,,,,,,,,,,,,,,,,,,,,,,,,,,,,,,,,,,,,,,,,,,,,,,,,,,,,,,,GVTY1K,train_x,red_square,top_left,2025-03-20_15h15.37.684,HideSeek_v1,2022.2.5,60.2092633152775,
,3,5,8,5,5,0,66,,train_dim1_1,7,30,,,,2,0,2,0,,,,,,,,,0,0,0,0,0,6,6,6,4,0,4,0,,,,,,,,,,,,,,,,,,,,,,,,,,,,,,,,,,,,,,,,,,,,,,,,,,,,,,,,,,,,,,,,30,,,,,,,,437.58603120000043,437.58603120000043,437.58603120000043,437.58603120000043,437.58603120000043,right,0.9105845999984012,3,1,0,99,0.48000000000000004,0,right,0.8318012999952771,,,,,,,,,,,,,,,,,,,,,,,,,,,,,,,,,,,,,,,,,,,,,,,,,,,,,,,,,,,,GVTY1K,train_x,red_square,top_left,2025-03-20_15h15.37.684,HideSeek_v1,2022.2.5,60.2092633152775,
,3,5,8,5,5,0,66,,train_dim1_1,7,30,,,,2,0,2,0,,,,,,,,,0,0,0,0,0,6,6,6,5,0,5,0,,,,,,,,,,,,,,,,,,,,,,,,,,,,,,,,,,,,,,,,,,,,,,,,,,,,,,,,,,,,,,,,30,,,,,,,,438.50335039999845,438.50335039999845,438.50335039999845,438.50335039999845,438.50335039999845,return,1.1438433000002988,4,0,0,1,0.48000000000000004,0,return,1.064859999998589,-2,16,0.48000000000000004,0,,,,,,,,,,,,,,,,,,,,,,,,,,,,,,,,,,,,,,,,,,,,,,,,,,,,,,,,GVTY1K,train_x,red_square,top_left,2025-03-20_15h15.37.684,HideSeek_v1,2022.2.5,60.2092633152775,
,0,9,3,9,3,0,46,,train_dim1_1,8,30,,,,2,0,2,0,,,,,,,,,0,0,0,0,0,7,7,7,0,0,0,0,,,,,,,,,,,,,,,,,,,,,,,,,stimuli/alien_stimuli/46.png,,,,,,,,,,,,,,,,,,,,,,,,,,,,,stimuli/alien_stimuli/66.png,66,3,9,,,,,,,30,,,,,,,,446.70486209999945,446.70486209999945,446.70486209999945,446.70486209999945,446.70486209999945,right,6.126791200000298,4,0,0,99,-0.08,0.32,right,6.036900799997966,,,,,445.146998799999,446.70486209999945,0.48,0,0.0,0.4,0.0,0.48,0.27999999999999997,0.48,0,441.2317081000001,441.2317081000001,441.2317081000001,441.2317081000001,441.2317081000001,441.2317081000001,441.2317081000001,441.2317081000001,441.21040506999964,4.038971400001174,return,3.884738999997353,,,,,,,,,,,,,,,,,,,,,,,,,,,,,,,,,GVTY1K,train_x,red_square,top_left,2025-03-20_15h15.37.684,HideSeek_v1,2022.2.5,60.2092633152775,
,0,9,3,9,3,0,46,,train_dim1_1,8,30,,,,2,0,2,0,,,,,,,,,0,0,0,0,0,7,7,7,1,0,1,0,,,,,,,,,,,,,,,,,,,,,,,,,,,,,,,,,,,,,,,,,,,,,,,,,,,,,,,,,,,,,,,,30,,,,,,,,452.833088899999,452.833088899999,452.833088899999,452.833088899999,452.833088899999,right,0.576611899999989,4,0,0,99,0.0,0.32,right,0.49518689999968046,,,,,,,,,,,,,,,,,,,,,,,,,,,,,,,,,,,,,,,,,,,,,,,,,,,,,,,,,,,,GVTY1K,train_x,red_square,top_left,2025-03-20_15h15.37.684,HideSeek_v1,2022.2.5,60.2092633152775,
,0,9,3,9,3,0,46,,train_dim1_1,8,30,,,,2,0,2,0,,,,,,,,,0,0,0,0,0,7,7,7,2,0,2,0,,,,,,,,,,,,,,,,,,,,,,,,,,,,,,,,,,,,,,,,,,,,,,,,,,,,,,,,,,,,,,,,30,,,,,,,,453.41796859999886,453.41796859999886,453.41796859999886,453.41796859999886,453.41796859999886,return,0.9936052000011841,4,1,0,0,0.0,0.32,return,0.9150129999979981,-2,18,0.0,0.32,,,,,,,,,,,,,,,,,,,,,,,,,,,,,,,,,,,,,,,,,,,,,,,,,,,,,,,,GVTY1K,train_x,red_square,top_left,2025-03-20_15h15.37.684,HideSeek_v1,2022.2.5,60.2092633152775,
,1,5,5,5,4,0,56,,train_dim1_1,9,30,,,,2,0,2,0,,,,,,,,,0,0,0,0,0,8,8,8,0,0,0,0,,,,,,,,,,,,,,,,,,,,,,,,,stimuli/alien_stimuli/56.png,,,,,,,,,,,,,,,,,,,,,,,,,,,,,stimuli/alien_stimuli/46.png,46,0,10,,,,,,,30,,,,,,,,467.61541990000114,467.61541990000114,467.61541990000114,467.61541990000114,467.61541990000114,right,2.6081873000002815,4,1,0,99,0.0,0,right,2.504528699999355,,,,,466.0477647999978,467.61541990000114,0.08,0.32,0.0,0.24,0.32,0.08,-0.04,0.08,0.32,455.9704066999984,455.9704066999984,455.9704066999984,455.9704066999984,455.9704066999984,455.9704066999984,455.9704066999984,455.9704066999984,455.9560384600016,10.17729319999853,return,10.046775300001173,,,,,,,,,,,,,,,,,,,,,,,,,,,,,,,,,GVTY1K,train_x,red_square,top_left,2025-03-20_15h15.37.684,HideSeek_v1,2022.2.5,60.2092633152775,
,1,5,5,5,4,0,56,,train_dim1_1,9,30,,,,2,0,2,0,,,,,,,,,0,0,0,0,0,8,8,8,1,0,1,0,,,,,,,,,,,,,,,,,,,,,,,,,,,,,,,,,,,,,,,,,,,,,,,,,,,,,,,,,,,,,,,,30,,,,,,,,470.2155204999981,470.2155204999981,470.2155204999981,470.2155204999981,470.2155204999981,right,0.726375400001416,4,1,0,99,0.08,0,right,0.650181099998008,,,,,,,,,,,,,,,,,,,,,,,,,,,,,,,,,,,,,,,,,,,,,,,,,,,,,,,,,,,,GVTY1K,train_x,red_square,top_left,2025-03-20_15h15.37.684,HideSeek_v1,2022.2.5,60.2092633152775,
,1,5,5,5,4,0,56,,train_dim1_1,9,30,,,,2,0,2,0,,,,,,,,,0,0,0,0,0,8,8,8,2,0,2,0,,,,,,,,,,,,,,,,,,,,,,,,,,,,,,,,,,,,,,,,,,,,,,,,,,,,,,,,,,,,,,,,30,,,,,,,,470.9500642999992,470.9500642999992,470.9500642999992,470.9500642999992,470.9500642999992,right,0.7602758000030008,4,1,0,99,0.16,0,right,0.6852239999971061,,,,,,,,,,,,,,,,,,,,,,,,,,,,,,,,,,,,,,,,,,,,,,,,,,,,,,,,,,,,GVTY1K,train_x,red_square,top_left,2025-03-20_15h15.37.684,HideSeek_v1,2022.2.5,60.2092633152775,
,1,5,5,5,4,0,56,,train_dim1_1,9,30,,,,2,0,2,0,,,,,,,,,0,0,0,0,0,8,8,8,3,0,3,0,,,,,,,,,,,,,,,,,,,,,,,,,,,,,,,,,,,,,,,,,,,,,,,,,,,,,,,,,,,,,,,,30,,,,,,,,471.7168430999991,471.7168430999991,471.7168430999991,471.7168430999991,471.7168430999991,right,0.6936205999991216,4,1,0,99,0.24,0,right,0.6101959999978135,,,,,,,,,,,,,,,,,,,,,,,,,,,,,,,,,,,,,,,,,,,,,,,,,,,,,,,,,,,,GVTY1K,train_x,red_square,top_left,2025-03-20_15h15.37.684,HideSeek_v1,2022.2.5,60.2092633152775,
,1,5,5,5,4,0,56,,train_dim1_1,9,30,,,,2,0,2,0,,,,,,,,,0,0,0,0,0,8,8,8,4,0,4,0,,,,,,,,,,,,,,,,,,,,,,,,,,,,,,,,,,,,,,,,,,,,,,,,,,,,,,,,,,,,,,,,30,,,,,,,,472.41925719999927,472.41925719999927,472.41925719999927,472.41925719999927,472.41925719999927,return,1.177305899997009,5,0,0,1,0.24,0,return,1.0921334000013303,-2,22,0.24,0,,,,,,,,,,,,,,,,,,,,,,,,,,,,,,,,,,,,,,,,,,,,,,,,,,,,,,,,GVTY1K,train_x,red_square,top_left,2025-03-20_15h15.37.684,HideSeek_v1,2022.2.5,60.2092633152775,
,0,8,0,8,0,0,16,,train_dim1_1,10,30,,,,2,0,2,0,,,,,,,,,0,0,0,0,0,9,9,9,0,0,0,0,,,,,,,,,,,,,,,,,,,,,,,,,stimuli/alien_stimuli/16.png,,,,,,,,,,,,,,,,,,,,,,,,,,,,,stimuli/alien_stimuli/56.png,56,1,11,,,,,,,30,,,,,,,,479.3876654000014,479.3876654000014,479.3876654000014,479.3876654000014,479.3876654000014,return,1.7218129000029876,6,0,0,1,-0.16,0.24,return,1.635798999999679,-2,22,-0.16,0.24,477.82415649999894,479.3876654000014,0.24,0,0.0,0.32,0.0,0.24,0.07999999999999999,0.24,0,475.17270859999917,475.17270859999917,475.17270859999917,475.17270859999917,475.17270859999917,475.17270859999917,475.17270859999917,475.17270859999917,475.15518467000186,2.7712580999977945,return,2.625784799998655,,,,,,,,,,,,,,,,,,,,,,,,,,,,,,,,,GVTY1K,train_x,red_square,top_left,2025-03-20_15h15.37.684,HideSeek_v1,2022.2.5,60.2092633152775,
,2,7,5,7,3,0,46,,train_dim1_1,11,30,,,,2,0,2,0,,,,,,,,,0,0,0,0,0,10,10,10,0,0,0,0,,,,,,,,,,,,,,,,,,,,,,,,,stimuli/alien_stimuli/46.png,,,,,,,,,,,,,,,,,,,,,,,,,,,,,stimuli/alien_stimuli/16.png,16,0,12,,,,,,,30,,,,,,,,485.8723189000011,485.8723189000011,485.8723189000011,485.8723189000011,485.8723189000011,right,2.539190100000269,6,0,0,99,0.08,0.16,right,2.4574150999978883,,,,,484.312691799998,485.8723189000011,-0.16,0.24,0.0,0.0,0.24,-0.16,-0.16,-0.16,0.24,482.6917637000006,482.6917637000006,482.6917637000006,482.6917637000006,482.6917637000006,482.6917637000006,482.6917637000006,482.6917637000006,482.67830738000197,1.7536591999996745,return,1.5966857000021264,,,,,,,,,,,,,,,,,,,,,,,,,,,,,,,,,GVTY1K,train_x,red_square,top_left,2025-03-20_15h15.37.684,HideSeek_v1,2022.2.5,60.2092633152775,
,2,7,5,7,3,0,46,,train_dim1_1,11,30,,,,2,0,2,0,,,,,,,,,0,0,0,0,0,10,10,10,1,0,1,0,,,,,,,,,,,,,,,,,,,,,,,,,,,,,,,,,,,,,,,,,,,,,,,,,,,,,,,,,,,,,,,,30,,,,,,,,488.4115391000014,488.4115391000014,488.4115391000014,488.4115391000014,488.4115391000014,right,0.4762374000019918,6,0,0,99,0.16,0.16,right,0.39078819999849657,,,,,,,,,,,,,,,,,,,,,,,,,,,,,,,,,,,,,,,,,,,,,,,,,,,,,,,,,,,,GVTY1K,train_x,red_square,top_left,2025-03-20_15h15.37.684,HideSeek_v1,2022.2.5,60.2092633152775,
,2,7,5,7,3,0,46,,train_dim1_1,11,30,,,,2,0,2,0,,,,,,,,,0,0,0,0,0,10,10,10,2,0,2,0,,,,,,,,,,,,,,,,,,,,,,,,,,,,,,,,,,,,,,,,,,,,,,,,,,,,,,,,,,,,,,,,30,,,,,,,,488.89520690000063,488.89520690000063,488.89520690000063,488.89520690000063,488.89520690000063,right,0.42669799999930547,6,0,0,99,0.24,0.16,right,0.35136920000149985,,,,,,,,,,,,,,,,,,,,,,,,,,,,,,,,,,,,,,,,,,,,,,,,,,,,,,,,,,,,GVTY1K,train_x,red_square,top_left,2025-03-20_15h15.37.684,HideSeek_v1,2022.2.5,60.2092633152775,
,2,7,5,7,3,0,46,,train_dim1_1,11,30,,,,2,0,2,0,,,,,,,,,0,0,0,0,0,10,10,10,3,0,3,0,,,,,,,,,,,,,,,,,,,,,,,,,,,,,,,,,,,,,,,,,,,,,,,,,,,,,,,,,,,,,,,,30,,,,,,,,489.329279900001,489.329279900001,489.329279900001,489.329279900001,489.329279900001,return,1.0437435999992886,7,0,0,1,0.24,0.16,return,0.9654627999989316,-2,25,0.24,0.16,,,,,,,,,,,,,,,,,,,,,,,,,,,,,,,,,,,,,,,,,,,,,,,,,,,,,,,,GVTY1K,train_x,red_square,top_left,2025-03-20_15h15.37.684,HideSeek_v1,2022.2.5,60.2092633152775,
,0,5,1,5,1,0,26,,train_dim1_1,12,30,,,,2,0,2,0,,,,,,,,,0,0,0,0,0,11,11,11,0,0,0,0,,,,,,,,,,,,,,,,,,,,,,,,,stimuli/alien_stimuli/26.png,,,,,,,,,,,,,,,,,,,,,,,,,,,,,stimuli/alien_stimuli/46.png,46,2,13,,,,,,,30,,,,,,,,495.4071370999991,495.4071370999991,495.4071370999991,495.4071370999991,495.4071370999991,return,1.255178999999771,7,1,0,0,-0.16,0,return,1.163286099996185,-2,25,-0.16,0,493.8373618000005,495.4071370999991,0.24,0.16,0.0,0.24,0.16,0.24,0.12,0.24,0.16,491.93645910000123,491.93645910000123,491.93645910000123,491.93645910000123,491.93645910000123,491.93645910000123,491.93645910000123,491.93645910000123,491.9192255599999,2.003690199999255,return,1.8727628999986337,,,,,,,,,,,,,,,,,,,,,,,,,,,,,,,,,GVTY1K,train_x,red_square,top_left,2025-03-20_15h15.37.684,HideSeek_v1,2022.2.5,60.2092633152775,
,0,9,4,9,4,0,45,,train_dim1_1,13,30,,,,2,0,2,0,,,,,,,,,0,0,0,0,0,12,12,12,0,0,0,0,,,,,,,,,,,,,,,,,,,,,,,,,stimuli/alien_stimuli/45.png,,,,,,,,,,,,,,,,,,,,,,,,,,,,,stimuli/alien_stimuli/26.png,26,0,14,,,,,,,30,,,,,,,,503.7506566000011,503.7506566000011,503.7506566000011,503.7506566000011,503.7506566000011,right,2.757457899999281,7,1,0,99,-0.08,0.32,right,2.675553900000523,,,,,502.19430849999844,503.7506566000011,-0.08,0,0.0,0.08,0.0,-0.08,-0.12,-0.08,0,498.21410560000004,498.21410560000004,498.21410560000004,498.21410560000004,498.21410560000004,498.21410560000004,498.21410560000004,498.21410560000004,498.20765296999855,4.088807799998904,return,3.949135999999271,,,,,,,,,,,,,,,,,,,,,,,,,,,,,,,,,GVTY1K,train_x,red_square,top_left,2025-03-20_15h15.37.684,HideSeek_v1,2022.2.5,60.2092633152775,
,0,9,4,9,4,0,45,,train_dim1_1,13,30,,,,2,0,2,0,,,,,,,,,0,0,0,0,0,12,12,12,1,0,1,0,,,,,,,,,,,,,,,,,,,,,,,,,,,,,,,,,,,,,,,,,,,,,,,,,,,,,,,,,,,,,,,,30,,,,,,,,506.50840799999787,506.50840799999787,506.50840799999787,506.50840799999787,506.50840799999787,right,0.6598904000020411,7,1,0,99,0.0,0.32,right,0.5856523000002198,,,,,,,,,,,,,,,,,,,,,,,,,,,,,,,,,,,,,,,,,,,,,,,,,,,,,,,,,,,,GVTY1K,train_x,red_square,top_left,2025-03-20_15h15.37.684,HideSeek_v1,2022.2.5,60.2092633152775,
,0,9,4,9,4,0,45,,train_dim1_1,13,30,,,,2,0,2,0,,,,,,,,,0,0,0,0,0,12,12,12,2,0,2,0,,,,,,,,,,,,,,,,,,,,,,,,,,,,,,,,,,,,,,,,,,,,,,,,,,,,,,,,,,,,,,,,30,,,,,,,,507.1753486999987,507.1753486999987,507.1753486999987,507.1753486999987,507.1753486999987,right,1.9445030999995652,7,1,0,99,0.08,0.32,right,1.8647946999990381,,,,,,,,,,,,,,,,,,,,,,,,,,,,,,,,,,,,,,,,,,,,,,,,,,,,,,,,,,,,GVTY1K,train_x,red_square,top_left,2025-03-20_15h15.37.684,HideSeek_v1,2022.2.5,60.2092633152775,
,0,9,4,9,4,0,45,,train_dim1_1,13,30,,,,2,0,2,0,,,,,,,,,0,0,0,0,0,12,12,12,3,0,3,0,,,,,,,,,,,,,,,,,,,,,,,,,,,,,,,,,,,,,,,,,,,,,,,,,,,,,,,,,,,,,,,,30,,,,,,,,509.12689079999836,509.12689079999836,509.12689079999836,509.12689079999836,509.12689079999836,right,0.42655849999937345,7,1,0,99,0.16,0.32,right,0.35322919999816804,,,,,,,,,,,,,,,,,,,,,,,,,,,,,,,,,,,,,,,,,,,,,,,,,,,,,,,,,,,,GVTY1K,train_x,red_square,top_left,2025-03-20_15h15.37.684,HideSeek_v1,2022.2.5,60.2092633152775,
,0,9,4,9,4,0,45,,train_dim1_1,13,30,,,,2,0,2,0,,,,,,,,,0,0,0,0,0,12,12,12,4,0,4,0,,,,,,,,,,,,,,,,,,,,,,,,,,,,,,,,,,,,,,,,,,,,,,,,,,,,,,,,,,,,,,,,30,,,,,,,,509.5614475000002,509.5614475000002,509.5614475000002,509.5614475000002,509.5614475000002,return,1.877756000001682,8,0,0,1,0.16,0.32,return,1.8067596000000776,-2,29,0.16,0.32,,,,,,,,,,,,,,,,,,,,,,,,,,,,,,,,,,,,,,,,,,,,,,,,,,,,,,,,GVTY1K,train_x,red_square,top_left,2025-03-20_15h15.37.684,HideSeek_v1,2022.2.5,60.2092633152775,
,4,8,4,8,0,0,16,,train_dim1_1,14,30,,,,2,0,2,0,,,,,,,,,0,0,0,0,0,13,13,13,0,0,0,0,,,,,,,,,,,,,,,,,,,,,,,,,stimuli/alien_stimuli/16.png,,,,,,,,,,,,,,,,,,,,,,,,,,,,,stimuli/alien_stimuli/45.png,45,0,15,,,,,,,30,,,,,,,,516.3405966999999,516.3405966999999,516.3405966999999,516.3405966999999,516.3405966999999,return,1.735706299998128,9,0,0,1,0.16,0.24,return,1.6286193999985699,-2,29,0.16,0.24,514.7547928999993,516.3405966999999,0.16,0.32,0.0,0.32,0.32,0.16,0.0,0.16,0.32,513.0182147999985,513.0182147999985,513.0182147999985,513.0182147999985,513.0182147999985,513.0182147999985,513.0182147999985,513.0182147999985,513.0033581700004,1.853923599999689,return,1.7198145000002114,,,,,,,,,,,,,,,,,,,,,,,,,,,,,,,,,GVTY1K,train_x,red_square,top_left,2025-03-20_15h15.37.684,HideSeek_v1,2022.2.5,60.2092633152775,
,4,7,9,7,5,0,66,,train_dim1_1,15,30,,,,2,0,2,0,,,,,,,,,0,0,0,0,0,14,14,14,0,0,0,0,,,,,,,,,,,,,,,,,,,,,,,,,stimuli/alien_stimuli/66.png,,,,,,,,,,,,,,,,,,,,,,,,,,,,,stimuli/alien_stimuli/16.png,16,4,16,,,,,,,30,,,,,,,,523.4562518999992,523.4562518999992,523.4562518999992,523.4562518999992,523.4562518999992,right,4.8563379000006535,9,0,0,99,0.24,0.16,right,4.764967399998568,,,,,521.8940559000002,523.4562518999992,0.16,0.24,0.0,0.0,0.24,0.16,0.16,0.16,0.24,519.6156121999993,519.6156121999993,519.6156121999993,519.6156121999993,519.6156121999993,519.6156121999993,519.6156121999993,519.6156121999993,519.6089096700011,2.3873128999985056,return,2.255615599999146,,,,,,,,,,,,,,,,,,,,,,,,,,,,,,,,,GVTY1K,train_x,red_square,top_left,2025-03-20_15h15.37.684,HideSeek_v1,2022.2.5,60.2092633152775,
,4,7,9,7,5,0,66,,train_dim1_1,15,30,,,,2,0,2,0,,,,,,,,,0,0,0,0,0,14,14,14,1,0,1,0,,,,,,,,,,,,,,,,,,,,,,,,,,,,,,,,,,,,,,,,,,,,,,,,,,,,,,,,,,,,,,,,30,,,,,,,,528.313048,528.313048,528.313048,528.313048,528.313048,right,0.52635569999984,9,0,0,99,0.32,0.16,right,0.44905799999833107,,,,,,,,,,,,,,,,,,,,,,,,,,,,,,,,,,,,,,,,,,,,,,,,,,,,,,,,,,,,GVTY1K,train_x,red_square,top_left,2025-03-20_15h15.37.684,HideSeek_v1,2022.2.5,60.2092633152775,
,4,7,9,7,5,0,66,,train_dim1_1,15,30,,,,2,0,2,0,,,,,,,,,0,0,0,0,0,14,14,14,2,0,2,0,,,,,,,,,,,,,,,,,,,,,,,,,,,,,,,,,,,,,,,,,,,,,,,,,,,,,,,,,,,,,,,,30,,,,,,,,528.8458581000014,528.8458581000014,528.8458581000014,528.8458581000014,528.8458581000014,right,0.6100651000015205,9,0,0,99,0.4,0.16,right,0.5279113999968104,,,,,,,,,,,,,,,,,,,,,,,,,,,,,,,,,,,,,,,,,,,,,,,,,,,,,,,,,,,,GVTY1K,train_x,red_square,top_left,2025-03-20_15h15.37.684,HideSeek_v1,2022.2.5,60.2092633152775,
,4,7,9,7,5,0,66,,train_dim1_1,15,30,,,,2,0,2,0,,,,,,,,,0,0,0,0,0,14,14,14,3,0,3,0,,,,,,,,,,,,,,,,,,,,,,,,,,,,,,,,,,,,,,,,,,,,,,,,,,,,,,,,,,,,,,,,30,,,,,,,,529.4628484999994,529.4628484999994,529.4628484999994,529.4628484999994,529.4628484999994,right,0.5266124000008858,9,0,0,99,0.48000000000000004,0.16,right,0.4403462000009313,,,,,,,,,,,,,,,,,,,,,,,,,,,,,,,,,,,,,,,,,,,,,,,,,,,,,,,,,,,,GVTY1K,train_x,red_square,top_left,2025-03-20_15h15.37.684,HideSeek_v1,2022.2.5,60.2092633152775,
,4,7,9,7,5,0,66,,train_dim1_1,15,30,,,,2,0,2,0,,,,,,,,,0,0,0,0,0,14,14,14,4,0,4,0,,,,,,,,,,,,,,,,,,,,,,,,,,,,,,,,,,,,,,,,,,,,,,,,,,,,,,,,,,,,,,,,30,,,,,,,,529.9979673999987,529.9979673999987,529.9979673999987,529.9979673999987,529.9979673999987,right,0.5435331999979098,9,0,0,99,0.56,0.16,right,0.4598670999985188,,,,,,,,,,,,,,,,,,,,,,,,,,,,,,,,,,,,,,,,,,,,,,,,,,,,,,,,,,,,GVTY1K,train_x,red_square,top_left,2025-03-20_15h15.37.684,HideSeek_v1,2022.2.5,60.2092633152775,
,4,7,9,7,5,0,66,,train_dim1_1,15,30,,,,2,0,2,0,,,,,,,,,0,0,0,0,0,14,14,14,5,0,5,0,,,,,,,,,,,,,,,,,,,,,,,,,,,,,,,,,,,,,,,,,,,,,,,,,,,,,,,,,,,,,,,,30,,,,,,,,530.5466062000014,530.5466062000014,530.5466062000014,530.5466062000014,530.5466062000014,return,1.0271413000009488,10,0,0,1,0.56,0.16,return,0.9509750999968674,-2,34,0.56,0.16,,,,,,,,,,,,,,,,,,,,,,,,,,,,,,,,,,,,,,,,,,,,,,,,,,,,,,,,GVTY1K,train_x,red_square,top_left,2025-03-20_15h15.37.684,HideSeek_v1,2022.2.5,60.2092633152775,
,3,8,7,8,4,0,56,,train_dim1_1,16,30,,,,2,0,2,0,,,,,,,,,0,0,0,0,0,15,15,15,0,0,0,0,,,,,,,,,,,,,,,,,,,,,,,,,stimuli/alien_stimuli/56.png,,,,,,,,,,,,,,,,,,,,,,,,,,,,,stimuli/alien_stimuli/66.png,66,4,17,,,,,,,30,,,,,,,,536.0080634000005,536.0080634000005,536.0080634000005,536.0080634000005,536.0080634000005,right,2.474069200001395,10,0,0,99,0.16,0.24,right,2.3676728999962506,,,,,534.4377571000005,536.0080634000005,0.56,0.16,0.0,0.4,0.16,0.56,0.36000000000000004,0.56,0.16,533.1362251999999,533.1362251999999,533.1362251999999,533.1362251999999,533.1362251999999,533.1362251999999,533.1362251999999,533.1362251999999,533.1200715599996,1.4032984000004944,return,1.2721128999983193,,,,,,,,,,,,,,,,,,,,,,,,,,,,,,,,,GVTY1K,train_x,red_square,top_left,2025-03-20_15h15.37.684,HideSeek_v1,2022.2.5,60.2092633152775,
,3,8,7,8,4,0,56,,train_dim1_1,16,30,,,,2,0,2,0,,,,,,,,,0,0,0,0,0,15,15,15,1,0,1,0,,,,,,,,,,,,,,,,,,,,,,,,,,,,,,,,,,,,,,,,,,,,,,,,,,,,,,,,,,,,,,,,30,,,,,,,,538.4731697999996,538.4731697999996,538.4731697999996,538.4731697999996,538.4731697999996,right,0.44283229999928153,10,0,0,99,0.24,0.24,right,0.358937999997579,,,,,,,,,,,,,,,,,,,,,,,,,,,,,,,,,,,,,,,,,,,,,,,,,,,,,,,,,,,,GVTY1K,train_x,red_square,top_left,2025-03-20_15h15.37.684,HideSeek_v1,2022.2.5,60.2092633152775,
,3,8,7,8,4,0,56,,train_dim1_1,16,30,,,,2,0,2,0,,,,,,,,,0,0,0,0,0,15,15,15,2,0,2,0,,,,,,,,,,,,,,,,,,,,,,,,,,,,,,,,,,,,,,,,,,,,,,,,,,,,,,,,,,,,,,,,30,,,,,,,,538.9231032999996,538.9231032999996,538.9231032999996,538.9231032999996,538.9231032999996,right,0.7935341999982484,10,0,0,99,0.32,0.24,right,0.7142854999983683,,,,,,,,,,,,,,,,,,,,,,,,,,,,,,,,,,,,,,,,,,,,,,,,,,,,,,,,,,,,GVTY1K,train_x,red_square,top_left,2025-03-20_15h15.37.684,HideSeek_v1,2022.2.5,60.2092633152775,
,3,8,7,8,4,0,56,,train_dim1_1,16,30,,,,2,0,2,0,,,,,,,,,0,0,0,0,0,15,15,15,3,0,3,0,,,,,,,,,,,,,,,,,,,,,,,,,,,,,,,,,,,,,,,,,,,,,,,,,,,,,,,,,,,,,,,,30,,,,,,,,539.7237592999991,539.7237592999991,539.7237592999991,539.7237592999991,539.7237592999991,right,1.0605407999973977,10,0,0,99,0.4,0.24,right,0.9754438000018126,,,,,,,,,,,,,,,,,,,,,,,,,,,,,,,,,,,,,,,,,,,,,,,,,,,,,,,,,,,,GVTY1K,train_x,red_square,top_left,2025-03-20_15h15.37.684,HideSeek_v1,2022.2.5,60.2092633152775,
,3,8,7,8,4,0,56,,train_dim1_1,16,30,,,,2,0,2,0,,,,,,,,,0,0,0,0,0,15,15,15,4,0,4,0,,,,,,,,,,,,,,,,,,,,,,,,,,,,,,,,,,,,,,,,,,,,,,,,,,,,,,,,,,,,,,,,30,,,,,,,,540.7908667999982,540.7908667999982,540.7908667999982,540.7908667999982,540.7908667999982,return,0.826835600000777,11,0,0,1,0.4,0.24,return,0.7392485000018496,-2,38,0.4,0.24,,,,,,,,,,,,,,,,,,,,,,,,,,,,,,,,,,,,,,,,,,,,,,,,,,,,,,,,GVTY1K,train_x,red_square,top_left,2025-03-20_15h15.37.684,HideSeek_v1,2022.2.5,60.2092633152775,
,2,9,3,9,1,0,26,,train_dim1_1,17,30,,,,2,0,2,0,,,,,,,,,0,0,0,0,0,16,16,16,0,0,0,0,,,,,,,,,,,,,,,,,,,,,,,,,stimuli/alien_stimuli/26.png,,,,,,,,,,,,,,,,,,,,,,,,,,,,,stimuli/alien_stimuli/56.png,56,3,18,,,,,,,30,,,,,,,,546.4731776999979,546.4731776999979,546.4731776999979,546.4731776999979,546.4731776999979,right,1.955770399999892,11,0,0,99,0.08,0.32,right,1.847038199997769,,,,,544.8963570999986,546.4731776999979,0.4,0.24,0.0,0.32,0.24,0.4,0.24000000000000002,0.4,0.24,543.1825761,543.1825761,543.1825761,543.1825761,543.1825761,543.1825761,543.1825761,543.1825761,543.1618136600016,1.8201196000009077,return,1.686716799998976,,,,,,,,,,,,,,,,,,,,,,,,,,,,,,,,,GVTY1K,train_x,red_square,top_left,2025-03-20_15h15.37.684,HideSeek_v1,2022.2.5,60.2092633152775,
,2,9,3,9,1,0,26,,train_dim1_1,17,30,,,,2,0,2,0,,,,,,,,,0,0,0,0,0,16,16,16,1,0,1,0,,,,,,,,,,,,,,,,,,,,,,,,,,,,,,,,,,,,,,,,,,,,,,,,,,,,,,,,,,,,,,,,30,,,,,,,,548.4158595000008,548.4158595000008,548.4158595000008,548.4158595000008,548.4158595000008,return,1.2438865000003716,12,0,0,1,0.08,0.32,return,1.1557957000004535,-2,39,0.08,0.32,,,,,,,,,,,,,,,,,,,,,,,,,,,,,,,,,,,,,,,,,,,,,,,,,,,,,,,,GVTY1K,train_x,red_square,top_left,2025-03-20_15h15.37.684,HideSeek_v1,2022.2.5,60.2092633152775,
,2,6,7,6,5,0,66,,train_dim1_1,18,30,,,,2,0,2,0,,,,,,,,,0,0,0,0,0,17,17,17,0,0,0,0,,,,,,,,,,,,,,,,,,,,,,,,,stimuli/alien_stimuli/66.png,,,,,,,,,,,,,,,,,,,,,,,,,,,,,stimuli/alien_stimuli/26.png,26,2,19,,,,,,,30,,,,,,,,554.6694528999979,554.6694528999979,554.6694528999979,554.6694528999979,554.6694528999979,right,2.2719542999984697,12,0,0,99,0.08,0.08,right,2.1737085999993724,,,,,553.1031681999993,554.6694528999979,0.08,0.32,0.0,0.08,0.32,0.08,0.04,0.08,0.32,551.2246229999982,551.2246229999982,551.2246229999982,551.2246229999982,551.2246229999982,551.2246229999982,551.2246229999982,551.2246229999982,551.2184566700012,1.986875799997506,return,1.8545250999995915,,,,,,,,,,,,,,,,,,,,,,,,,,,,,,,,,GVTY1K,train_x,red_square,top_left,2025-03-20_15h15.37.684,HideSeek_v1,2022.2.5,60.2092633152775,
,2,6,7,6,5,0,66,,train_dim1_1,18,30,,,,2,0,2,0,,,,,,,,,0,0,0,0,0,17,17,17,1,0,1,0,,,,,,,,,,,,,,,,,,,,,,,,,,,,,,,,,,,,,,,,,,,,,,,,,,,,,,,,,,,,,,,,30,,,,,,,,556.935303899998,556.935303899998,556.935303899998,556.935303899998,556.935303899998,right,0.4429869999985385,12,0,0,99,0.16,0.08,right,0.35666390000187675,,,,,,,,,,,,,,,,,,,,,,,,,,,,,,,,,,,,,,,,,,,,,,,,,,,,,,,,,,,,GVTY1K,train_x,red_square,top_left,2025-03-20_15h15.37.684,HideSeek_v1,2022.2.5,60.2092633152775,
,2,6,7,6,5,0,66,,train_dim1_1,18,30,,,,2,0,2,0,,,,,,,,,0,0,0,0,0,17,17,17,2,0,2,0,,,,,,,,,,,,,,,,,,,,,,,,,,,,,,,,,,,,,,,,,,,,,,,,,,,,,,,,,,,,,,,,30,,,,,,,,557.3867165999982,557.3867165999982,557.3867165999982,557.3867165999982,557.3867165999982,right,0.44368179999946733,12,0,0,99,0.24,0.08,right,0.3664712999961921,,,,,,,,,,,,,,,,,,,,,,,,,,,,,,,,,,,,,,,,,,,,,,,,,,,,,,,,,,,,GVTY1K,train_x,red_square,top_left,2025-03-20_15h15.37.684,HideSeek_v1,2022.2.5,60.2092633152775,
,2,6,7,6,5,0,66,,train_dim1_1,18,30,,,,2,0,2,0,,,,,,,,,0,0,0,0,0,17,17,17,3,0,3,0,,,,,,,,,,,,,,,,,,,,,,,,,,,,,,,,,,,,,,,,,,,,,,,,,,,,,,,,,,,,,,,,30,,,,,,,,557.836557300001,557.836557300001,557.836557300001,557.836557300001,557.836557300001,right,2.094619399998919,12,0,0,99,0.32,0.08,right,2.0221975999993447,,,,,,,,,,,,,,,,,,,,,,,,,,,,,,,,,,,,,,,,,,,,,,,,,,,,,,,,,,,,GVTY1K,train_x,red_square,top_left,2025-03-20_15h15.37.684,HideSeek_v1,2022.2.5,60.2092633152775,
,2,6,7,6,5,0,66,,train_dim1_1,18,30,,,,2,0,2,0,,,,,,,,,0,0,0,0,0,17,17,17,4,0,4,0,,,,,,,,,,,,,,,,,,,,,,,,,,,,,,,,,,,,,,,,,,,,,,,,,,,,,,,,,,,,,,,,30,,,,,,,,559.938035799998,559.938035799998,559.938035799998,559.938035799998,559.938035799998,right,1.1102059999975609,12,0,0,99,0.4,0.08,right,1.0286745999983395,,,,,,,,,,,,,,,,,,,,,,,,,,,,,,,,,,,,,,,,,,,,,,,,,,,,,,,,,,,,GVTY1K,train_x,red_square,top_left,2025-03-20_15h15.37.684,HideSeek_v1,2022.2.5,60.2092633152775,
,2,6,7,6,5,0,66,,train_dim1_1,18,30,,,,2,0,2,0,,,,,,,,,0,0,0,0,0,17,17,17,5,0,5,0,,,,,,,,,,,,,,,,,,,,,,,,,,,,,,,,,,,,,,,,,,,,,,,,,,,,,,,,,,,,,,,,30,,,,,,,,561.0558381999981,561.0558381999981,561.0558381999981,561.0558381999981,561.0558381999981,return,0.8273370999995677,13,0,0,1,0.4,0.08,return,0.7557702999984031,-2,44,0.4,0.08,,,,,,,,,,,,,,,,,,,,,,,,,,,,,,,,,,,,,,,,,,,,,,,,,,,,,,,,GVTY1K,train_x,red_square,top_left,2025-03-20_15h15.37.684,HideSeek_v1,2022.2.5,60.2092633152775,
,0,8,3,8,3,0,46,,train_dim1_1,19,30,,,,2,0,2,0,,,,,,,,,0,0,0,0,0,18,18,18,0,0,0,0,,,,,,,,,,,,,,,,,,,,,,,,,stimuli/alien_stimuli/46.png,,,,,,,,,,,,,,,,,,,,,,,,,,,,,stimuli/alien_stimuli/66.png,66,2,20,,,,,,,30,,,,,,,,567.8908792000002,567.8908792000002,567.8908792000002,567.8908792000002,567.8908792000002,right,1.8378802000006544,13,0,0,99,-0.08,0.24,right,1.7493479999975534,,,,,566.330879000001,567.8908792000002,0.4,0.08,0.0,0.4,0.08,0.4,0.2,0.4,0.08,563.4654201000012,563.4654201000012,563.4654201000012,563.4654201000012,563.4654201000012,563.4654201000012,563.4654201000012,563.4654201000012,563.4452169700012,2.987924600001861,return,2.8351955999969505,,,,,,,,,,,,,,,,,,,,,,,,,,,,,,,,,GVTY1K,train_x,red_square,top_left,2025-03-20_15h15.37.684,HideSeek_v1,2022.2.5,60.2092633152775,
,0,8,3,8,3,0,46,,train_dim1_1,19,30,,,,2,0,2,0,,,,,,,,,0,0,0,0,0,18,18,18,1,0,1,0,,,,,,,,,,,,,,,,,,,,,,,,,,,,,,,,,,,,,,,,,,,,,,,,,,,,,,,,,,,,,,,,30,,,,,,,,569.7303046999987,569.7303046999987,569.7303046999987,569.7303046999987,569.7303046999987,right,0.6263982000018586,13,0,0,99,0.0,0.24,right,0.5440168999994057,,,,,,,,,,,,,,,,,,,,,,,,,,,,,,,,,,,,,,,,,,,,,,,,,,,,,,,,,,,,GVTY1K,train_x,red_square,top_left,2025-03-20_15h15.37.684,HideSeek_v1,2022.2.5,60.2092633152775,
,0,8,3,8,3,0,46,,train_dim1_1,19,30,,,,2,0,2,0,,,,,,,,,0,0,0,0,0,18,18,18,2,0,2,0,,,,,,,,,,,,,,,,,,,,,,,,,,,,,,,,,,,,,,,,,,,,,,,,,,,,,,,,,,,,,,,,30,,,,,,,,570.3655389000014,570.3655389000014,570.3655389000014,570.3655389000014,570.3655389000014,return,1.725610699999379,13,1,0,0,0.0,0.24,return,1.6494265000001178,-2,46,0.0,0.24,,,,,,,,,,,,,,,,,,,,,,,,,,,,,,,,,,,,,,,,,,,,,,,,,,,,,,,,GVTY1K,train_x,red_square,top_left,2025-03-20_15h15.37.684,HideSeek_v1,2022.2.5,60.2092633152775,
,0,6,0,6,0,0,16,,train_dim1_1,20,30,,,,2,0,2,0,,,,,,,,,0,0,0,0,0,19,19,19,0,0,0,0,,,,,,,,,,,,,,,,,,,,,,,,,stimuli/alien_stimuli/16.png,,,,,,,,,,,,,,,,,,,,,,,,,,,,,stimuli/alien_stimuli/46.png,46,0,21,,,,,,,30,,,,,,,,577.5081231000004,577.5081231000004,577.5081231000004,577.5081231000004,577.5081231000004,return,1.5384646000020439,14,0,0,1,-0.16,0.08,return,1.4402164999992237,-2,46,-0.16,0.08,575.9389217999997,577.5081231000004,0.08,0.24,0.0,0.24,0.24,0.08,-0.04,0.08,0.24,573.6539859000004,573.6539859000004,573.6539859000004,573.6539859000004,573.6539859000004,573.6539859000004,573.6539859000004,573.6539859000004,573.6371011599992,2.387473000002501,return,2.25901569999769,,,,,,,,,,,,,,,,,,,,,,,,,,,,,,,,,GVTY1K,train_x,red_square,top_left,2025-03-20_15h15.37.684,HideSeek_v1,2022.2.5,60.2092633152775,
,4,7,7,7,3,0,46,,train_dim1_1,21,30,,,,2,0,2,0,,,,,,,,,0,0,0,0,0,20,20,20,0,0,0,0,,,,,,,,,,,,,,,,,,,,,,,,,stimuli/alien_stimuli/46.png,,,,,,,,,,,,,,,,,,,,,,,,,,,,,stimuli/alien_stimuli/16.png,16,0,22,,,,,,,30,,,,,,,,583.5197798000008,583.5197798000008,583.5197798000008,583.5197798000008,583.5197798000008,right,2.055795100000978,14,0,0,99,0.24,0.16,right,1.9726447999964876,,,,,581.9606726999991,583.5197798000008,-0.16,0.08,0.0,0.0,0.08,-0.16,-0.16,-0.16,0.08,580.5976037,580.5976037,580.5976037,580.5976037,580.5976037,580.5976037,580.5976037,580.5976037,580.5761627600011,1.4700158000014198,return,1.3315429999966,,,,,,,,,,,,,,,,,,,,,,,,,,,,,,,,,GVTY1K,train_x,red_square,top_left,2025-03-20_15h15.37.684,HideSeek_v1,2022.2.5,60.2092633152775,
,4,7,7,7,3,0,46,,train_dim1_1,21,30,,,,2,0,2,0,,,,,,,,,0,0,0,0,0,20,20,20,1,0,1,0,,,,,,,,,,,,,,,,,,,,,,,,,,,,,,,,,,,,,,,,,,,,,,,,,,,,,,,,,,,,,,,,30,,,,,,,,585.5764321999995,585.5764321999995,585.5764321999995,585.5764321999995,585.5764321999995,right,0.5764579000024241,14,0,0,99,0.32,0.16,right,0.5038984999991953,,,,,,,,,,,,,,,,,,,,,,,,,,,,,,,,,,,,,,,,,,,,,,,,,,,,,,,,,,,,GVTY1K,train_x,red_square,top_left,2025-03-20_15h15.37.684,HideSeek_v1,2022.2.5,60.2092633152775,
,4,7,7,7,3,0,46,,train_dim1_1,21,30,,,,2,0,2,0,,,,,,,,,0,0,0,0,0,20,20,20,2,0,2,0,,,,,,,,,,,,,,,,,,,,,,,,,,,,,,,,,,,,,,,,,,,,,,,,,,,,,,,,,,,,,,,,30,,,,,,,,586.1594014000002,586.1594014000002,586.1594014000002,586.1594014000002,586.1594014000002,right,0.7602578999976686,14,0,0,99,0.4,0.16,right,0.6844842999962566,,,,,,,,,,,,,,,,,,,,,,,,,,,,,,,,,,,,,,,,,,,,,,,,,,,,,,,,,,,,GVTY1K,train_x,red_square,top_left,2025-03-20_15h15.37.684,HideSeek_v1,2022.2.5,60.2092633152775,
,4,7,7,7,3,0,46,,train_dim1_1,21,30,,,,2,0,2,0,,,,,,,,,0,0,0,0,0,20,20,20,3,0,3,0,,,,,,,,,,,,,,,,,,,,,,,,,,,,,,,,,,,,,,,,,,,,,,,,,,,,,,,,,,,,,,,,30,,,,,,,,586.9274269999987,586.9274269999987,586.9274269999987,586.9274269999987,586.9274269999987,return,2.4950815999982296,15,0,0,1,0.4,0.16,return,2.4131530999984534,-2,49,0.4,0.16,,,,,,,,,,,,,,,,,,,,,,,,,,,,,,,,,,,,,,,,,,,,,,,,,,,,,,,,GVTY1K,train_x,red_square,top_left,2025-03-20_15h15.37.684,HideSeek_v1,2022.2.5,60.2092633152775,
,1,5,2,5,1,0,26,,train_dim1_1,22,30,,,,2,0,2,0,,,,,,,,,0,0,0,0,0,21,21,21,0,0,0,0,,,,,,,,,,,,,,,,,,,,,,,,,stimuli/alien_stimuli/26.png,,,,,,,,,,,,,,,,,,,,,,,,,,,,,stimuli/alien_stimuli/46.png,46,4,23,,,,,,,30,,,,,,,,593.6110168999985,593.6110168999985,593.6110168999985,593.6110168999985,593.6110168999985,right,1.5397761999993236,15,0,0,99,0.0,0,right,1.4389851999985694,,,,,592.0358431999994,593.6110168999985,0.4,0.16,0.0,0.24,0.16,0.4,0.28,0.4,0.16,590.999471799998,590.999471799998,590.999471799998,590.999471799998,590.999471799998,590.999471799998,590.999471799998,590.999471799998,590.9847114700019,1.1532146999998076,return,1.0080853999970714,,,,,,,,,,,,,,,,,,,,,,,,,,,,,,,,,GVTY1K,train_x,red_square,top_left,2025-03-20_15h15.37.684,HideSeek_v1,2022.2.5,60.2092633152775,
,1,5,2,5,1,0,26,,train_dim1_1,22,30,,,,2,0,2,0,,,,,,,,,0,0,0,0,0,21,21,21,1,0,1,0,,,,,,,,,,,,,,,,,,,,,,,,,,,,,,,,,,,,,,,,,,,,,,,,,,,,,,,,,,,,,,,,30,,,,,,,,595.1380838000005,595.1380838000005,595.1380838000005,595.1380838000005,595.1380838000005,return,0.5096694999992906,16,0,0,1,0.0,0,return,0.42936460000055376,-2,50,0.0,0,,,,,,,,,,,,,,,,,,,,,,,,,,,,,,,,,,,,,,,,,,,,,,,,,,,,,,,,GVTY1K,train_x,red_square,top_left,2025-03-20_15h15.37.684,HideSeek_v1,2022.2.5,60.2092633152775,
,2,6,7,6,5,0,66,,train_dim1_1,23,30,,,,2,0,2,0,,,,,,,,,0,0,0,0,0,22,22,22,0,0,0,0,,,,,,,,,,,,,,,,,,,,,,,,,stimuli/alien_stimuli/66.png,,,,,,,,,,,,,,,,,,,,,,,,,,,,,stimuli/alien_stimuli/26.png,26,1,24,,,,,,,30,,,,,,,,600.0000548999997,600.0000548999997,600.0000548999997,600.0000548999997,600.0000548999997,right,1.2714152000007743,16,0,0,99,0.08,0.08,right,1.1941377999974065,,,,,598.4408995999984,600.0000548999997,0,0,0.0,0.08,0.0,0,-0.04,0,0,597.211479900001,597.211479900001,597.211479900001,597.211479900001,597.211479900001,597.211479900001,597.211479900001,597.211479900001,597.1900049600015,1.3365708000019367,return,1.2052129999974568,,,,,,,,,,,,,,,,,,,,,,,,,,,,,,,,,GVTY1K,train_x,red_square,top_left,2025-03-20_15h15.37.684,HideSeek_v1,2022.2.5,60.2092633152775,
,2,6,7,6,5,0,66,,train_dim1_1,23,30,,,,2,0,2,0,,,,,,,,,0,0,0,0,0,22,22,22,1,0,1,0,,,,,,,,,,,,,,,,,,,,,,,,,,,,,,,,,,,,,,,,,,,,,,,,,,,,,,,,,,,,,,,,30,,,,,,,,601.2730703999987,601.2730703999987,601.2730703999987,601.2730703999987,601.2730703999987,right,0.49300400000356603,16,0,0,99,0.16,0.08,right,0.4069248999985575,,,,,,,,,,,,,,,,,,,,,,,,,,,,,,,,,,,,,,,,,,,,,,,,,,,,,,,,,,,,GVTY1K,train_x,red_square,top_left,2025-03-20_15h15.37.684,HideSeek_v1,2022.2.5,60.2092633152775,
,2,6,7,6,5,0,66,,train_dim1_1,23,30,,,,2,0,2,0,,,,,,,,,0,0,0,0,0,22,22,22,2,0,2,0,,,,,,,,,,,,,,,,,,,,,,,,,,,,,,,,,,,,,,,,,,,,,,,,,,,,,,,,,,,,,,,,30,,,,,,,,601.7721268999994,601.7721268999994,601.7721268999994,601.7721268999994,601.7721268999994,right,0.5266233000002103,16,0,0,99,0.24,0.08,right,0.4411715999995067,,,,,,,,,,,,,,,,,,,,,,,,,,,,,,,,,,,,,,,,,,,,,,,,,,,,,,,,,,,,GVTY1K,train_x,red_square,top_left,2025-03-20_15h15.37.684,HideSeek_v1,2022.2.5,60.2092633152775,
,2,6,7,6,5,0,66,,train_dim1_1,23,30,,,,2,0,2,0,,,,,,,,,0,0,0,0,0,22,22,22,3,0,3,0,,,,,,,,,,,,,,,,,,,,,,,,,,,,,,,,,,,,,,,,,,,,,,,,,,,,,,,,,,,,,,,,30,,,,,,,,602.3060882999998,602.3060882999998,602.3060882999998,602.3060882999998,602.3060882999998,right,0.9770781000006536,16,0,0,99,0.32,0.08,right,0.9011874999996508,,,,,,,,,,,,,,,,,,,,,,,,,,,,,,,,,,,,,,,,,,,,,,,,,,,,,,,,,,,,GVTY1K,train_x,red_square,top_left,2025-03-20_15h15.37.684,HideSeek_v1,2022.2.5,60.2092633152775,
,2,6,7,6,5,0,66,,train_dim1_1,23,30,,,,2,0,2,0,,,,,,,,,0,0,0,0,0,22,22,22,4,0,4,0,,,,,,,,,,,,,,,,,,,,,,,,,,,,,,,,,,,,,,,,,,,,,,,,,,,,,,,,,,,,,,,,30,,,,,,,,603.2903963999997,603.2903963999997,603.2903963999997,603.2903963999997,603.2903963999997,right,0.5101504999984172,16,0,0,99,0.4,0.08,right,0.4277598000007856,,,,,,,,,,,,,,,,,,,,,,,,,,,,,,,,,,,,,,,,,,,,,,,,,,,,,,,,,,,,GVTY1K,train_x,red_square,top_left,2025-03-20_15h15.37.684,HideSeek_v1,2022.2.5,60.2092633152775,
,2,6,7,6,5,0,66,,train_dim1_1,23,30,,,,2,0,2,0,,,,,,,,,0,0,0,0,0,22,22,22,5,0,5,0,,,,,,,,,,,,,,,,,,,,,,,,,,,,,,,,,,,,,,,,,,,,,,,,,,,,,,,,,,,,,,,,30,,,,,,,,603.807256,603.807256,603.807256,603.807256,603.807256,return,0.5267377000018314,17,0,0,1,0.4,0.08,return,0.44591740000032587,-2,55,0.4,0.08,,,,,,,,,,,,,,,,,,,,,,,,,,,,,,,,,,,,,,,,,,,,,,,,,,,,,,,,GVTY1K,train_x,red_square,top_left,2025-03-20_15h15.37.684,HideSeek_v1,2022.2.5,60.2092633152775,
,4,9,8,9,4,0,56,,train_dim1_1,24,30,,,,2,0,2,0,,,,,,,,,0,0,0,0,0,23,23,23,0,0,0,0,,,,,,,,,,,,,,,,,,,,,,,,,stimuli/alien_stimuli/56.png,,,,,,,,,,,,,,,,,,,,,,,,,,,,,stimuli/alien_stimuli/66.png,66,2,25,,,,,,,30,,,,,,,,609.4360292999991,609.4360292999991,609.4360292999991,609.4360292999991,609.4360292999991,right,1.223646700000245,17,0,0,99,0.24,0.32,right,1.1204298000011477,,,,,607.8656922000009,609.4360292999991,0.4,0.08,0.0,0.4,0.08,0.4,0.2,0.4,0.08,605.8952954999986,605.8952954999986,605.8952954999986,605.8952954999986,605.8952954999986,605.8952954999986,605.8952954999986,605.8952954999986,605.8805111599984,2.0708935000002384,return,1.9526236999990942,,,,,,,,,,,,,,,,,,,,,,,,,,,,,,,,,GVTY1K,train_x,red_square,top_left,2025-03-20_15h15.37.684,HideSeek_v1,2022.2.5,60.2092633152775,
,4,9,8,9,4,0,56,,train_dim1_1,24,30,,,,2,0,2,0,,,,,,,,,0,0,0,0,0,23,23,23,1,0,1,0,,,,,,,,,,,,,,,,,,,,,,,,,,,,,,,,,,,,,,,,,,,,,,,,,,,,,,,,,,,,,,,,30,,,,,,,,610.6495151999989,610.6495151999989,610.6495151999989,610.6495151999989,610.6495151999989,right,0.49282879999736906,17,0,0,99,0.32,0.32,right,0.41102369999862276,,,,,,,,,,,,,,,,,,,,,,,,,,,,,,,,,,,,,,,,,,,,,,,,,,,,,,,,,,,,GVTY1K,train_x,red_square,top_left,2025-03-20_15h15.37.684,HideSeek_v1,2022.2.5,60.2092633152775,
,4,9,8,9,4,0,56,,train_dim1_1,24,30,,,,2,0,2,0,,,,,,,,,0,0,0,0,0,23,23,23,2,0,2,0,,,,,,,,,,,,,,,,,,,,,,,,,,,,,,,,,,,,,,,,,,,,,,,,,,,,,,,,,,,,,,,,30,,,,,,,,611.1495818000003,611.1495818000003,611.1495818000003,611.1495818000003,611.1495818000003,right,0.6268243999984406,17,0,0,99,0.4,0.32,right,0.5401966999997967,,,,,,,,,,,,,,,,,,,,,,,,,,,,,,,,,,,,,,,,,,,,,,,,,,,,,,,,,,,,GVTY1K,train_x,red_square,top_left,2025-03-20_15h15.37.684,HideSeek_v1,2022.2.5,60.2092633152775,
,4,9,8,9,4,0,56,,train_dim1_1,24,30,,,,2,0,2,0,,,,,,,,,0,0,0,0,0,23,23,23,3,0,3,0,,,,,,,,,,,,,,,,,,,,,,,,,,,,,,,,,,,,,,,,,,,,,,,,,,,,,,,,,,,,,,,,30,,,,,,,,611.782946700001,611.782946700001,611.782946700001,611.782946700001,611.782946700001,right,0.676685999998881,17,0,0,99,0.48000000000000004,0.32,right,0.5981044000000111,,,,,,,,,,,,,,,,,,,,,,,,,,,,,,,,,,,,,,,,,,,,,,,,,,,,,,,,,,,,GVTY1K,train_x,red_square,top_left,2025-03-20_15h15.37.684,HideSeek_v1,2022.2.5,60.2092633152775,
,4,9,8,9,4,0,56,,train_dim1_1,24,30,,,,2,0,2,0,,,,,,,,,0,0,0,0,0,23,23,23,4,0,4,0,,,,,,,,,,,,,,,,,,,,,,,,,,,,,,,,,,,,,,,,,,,,,,,,,,,,,,,,,,,,,,,,30,,,,,,,,612.4668362999982,612.4668362999982,612.4668362999982,612.4668362999982,612.4668362999982,return,0.477044899998873,18,0,0,1,0.48000000000000004,0.32,return,0.4013760999987426,-2,59,0.48000000000000004,0.32,,,,,,,,,,,,,,,,,,,,,,,,,,,,,,,,,,,,,,,,,,,,,,,,,,,,,,,,GVTY1K,train_x,red_square,top_left,2025-03-20_15h15.37.684,HideSeek_v1,2022.2.5,60.2092633152775,
,3,5,3,5,0,0,16,,train_dim1_1,25,30,,,,2,0,2,0,,,,,,,,,0,0,0,0,0,24,24,24,0,0,0,0,,,,,,,,,,,,,,,,,,,,,,,,,stimuli/alien_stimuli/16.png,,,,,,,,,,,,,,,,,,,,,,,,,,,,,stimuli/alien_stimuli/56.png,56,4,26,,,,,,,30,,,,,,,,617.4331252999982,617.4331252999982,617.4331252999982,617.4331252999982,617.4331252999982,return,0.9878416999999899,19,0,0,1,0.08,0,return,0.881035399997927,-2,59,0.08,0,615.8553699000004,617.4331252999982,0.48,0.32,0.0,0.32,0.32,0.48,0.32,0.48,0.32,614.5077911999979,614.5077911999979,614.5077911999979,614.5077911999979,614.5077911999979,614.5077911999979,614.5077911999979,614.5077911999979,614.4876766599998,1.4536109000000579,return,1.3317829000006896,,,,,,,,,,,,,,,,,,,,,,,,,,,,,,,,,GVTY1K,train_x,red_square,top_left,2025-03-20_15h15.37.684,HideSeek_v1,2022.2.5,60.2092633152775,
,1,6,6,6,5,0,66,,train_dim1_1,26,30,,,,2,0,2,0,,,,,,,,,0,0,0,0,0,25,25,25,0,0,0,0,,,,,,,,,,,,,,,,,,,,,,,,,stimuli/alien_stimuli/66.png,,,,,,,,,,,,,,,,,,,,,,,,,,,,,stimuli/alien_stimuli/16.png,16,3,27,,,,,,,30,,,,,,,,622.8535779999984,622.8535779999984,622.8535779999984,622.8535779999984,622.8535779999984,right,1.2862961999999243,19,0,0,99,0.0,0.08,right,1.2046359999985725,,,,,621.2932142999998,622.8535779999984,0.08,0,0.0,0.0,0.0,0.08,0.08,0.08,0,619.9645462000008,619.9645462000008,619.9645462000008,619.9645462000008,619.9645462000008,619.9645462000008,619.9645462000008,619.9645462000008,619.9589090699988,1.4365834999989602,return,1.3029607999997097,,,,,,,,,,,,,,,,,,,,,,,,,,,,,,,,,GVTY1K,train_x,red_square,top_left,2025-03-20_15h15.37.684,HideSeek_v1,2022.2.5,60.2092633152775,
,1,6,6,6,5,0,66,,train_dim1_1,26,30,,,,2,0,2,0,,,,,,,,,0,0,0,0,0,25,25,25,1,0,1,0,,,,,,,,,,,,,,,,,,,,,,,,,,,,,,,,,,,,,,,,,,,,,,,,,,,,,,,,,,,,,,,,30,,,,,,,,624.1409324999986,624.1409324999986,624.1409324999986,624.1409324999986,624.1409324999986,right,0.4096286999993026,19,0,0,99,0.08,0.08,right,0.32829299999866635,,,,,,,,,,,,,,,,,,,,,,,,,,,,,,,,,,,,,,,,,,,,,,,,,,,,,,,,,,,,GVTY1K,train_x,red_square,top_left,2025-03-20_15h15.37.684,HideSeek_v1,2022.2.5,60.2092633152775,
,1,6,6,6,5,0,66,,train_dim1_1,26,30,,,,2,0,2,0,,,,,,,,,0,0,0,0,0,25,25,25,2,0,2,0,,,,,,,,,,,,,,,,,,,,,,,,,,,,,,,,,,,,,,,,,,,,,,,,,,,,,,,,,,,,,,,,30,,,,,,,,624.5595733000009,624.5595733000009,624.5595733000009,624.5595733000009,624.5595733000009,right,0.47660780000296654,19,0,0,99,0.16,0.08,right,0.3907499999986612,,,,,,,,,,,,,,,,,,,,,,,,,,,,,,,,,,,,,,,,,,,,,,,,,,,,,,,,,,,,GVTY1K,train_x,red_square,top_left,2025-03-20_15h15.37.684,HideSeek_v1,2022.2.5,60.2092633152775,
,1,6,6,6,5,0,66,,train_dim1_1,26,30,,,,2,0,2,0,,,,,,,,,0,0,0,0,0,25,25,25,3,0,3,0,,,,,,,,,,,,,,,,,,,,,,,,,,,,,,,,,,,,,,,,,,,,,,,,,,,,,,,,,,,,,,,,30,,,,,,,,625.0420907999978,625.0420907999978,625.0420907999978,625.0420907999978,625.0420907999978,right,0.7935303000012937,19,0,0,99,0.24,0.08,right,0.7136776999977883,,,,,,,,,,,,,,,,,,,,,,,,,,,,,,,,,,,,,,,,,,,,,,,,,,,,,,,,,,,,GVTY1K,train_x,red_square,top_left,2025-03-20_15h15.37.684,HideSeek_v1,2022.2.5,60.2092633152775,
,1,6,6,6,5,0,66,,train_dim1_1,26,30,,,,2,0,2,0,,,,,,,,,0,0,0,0,0,25,25,25,4,0,4,0,,,,,,,,,,,,,,,,,,,,,,,,,,,,,,,,,,,,,,,,,,,,,,,,,,,,,,,,,,,,,,,,30,,,,,,,,625.8434945000008,625.8434945000008,625.8434945000008,625.8434945000008,625.8434945000008,right,0.5096634999972594,19,0,0,99,0.32,0.08,right,0.427731899999344,,,,,,,,,,,,,,,,,,,,,,,,,,,,,,,,,,,,,,,,,,,,,,,,,,,,,,,,,,,,GVTY1K,train_x,red_square,top_left,2025-03-20_15h15.37.684,HideSeek_v1,2022.2.5,60.2092633152775,
,1,6,6,6,5,0,66,,train_dim1_1,26,30,,,,2,0,2,0,,,,,,,,,0,0,0,0,0,25,25,25,5,0,5,0,,,,,,,,,,,,,,,,,,,,,,,,,,,,,,,,,,,,,,,,,,,,,,,,,,,,,,,,,,,,,,,,30,,,,,,,,626.3598697999987,626.3598697999987,626.3598697999987,626.3598697999987,626.3598697999987,return,0.5268312000007427,20,0,0,1,0.32,0.08,return,0.44592479999846546,-2,64,0.32,0.08,,,,,,,,,,,,,,,,,,,,,,,,,,,,,,,,,,,,,,,,,,,,,,,,,,,,,,,,GVTY1K,train_x,red_square,top_left,2025-03-20_15h15.37.684,HideSeek_v1,2022.2.5,60.2092633152775,
,0,6,3,6,3,0,46,,train_dim1_1,27,30,,,,2,0,2,0,,,,,,,,,0,0,0,0,0,26,26,26,0,0,0,0,,,,,,,,,,,,,,,,,,,,,,,,,stimuli/alien_stimuli/46.png,,,,,,,,,,,,,,,,,,,,,,,,,,,,,stimuli/alien_stimuli/66.png,66,1,28,,,,,,,30,,,,,,,,632.2391422000001,632.2391422000001,632.2391422000001,632.2391422000001,632.2391422000001,right,1.6380257999990135,20,0,0,99,-0.08,0.08,right,1.5446871999993164,,,,,630.6676966999985,632.2391422000001,0.32,0.08,0.0,0.4,0.08,0.32,0.12,0.32,0.08,628.4493535000001,628.4493535000001,628.4493535000001,628.4493535000001,628.4493535000001,628.4493535000001,628.4493535000001,628.4493535000001,628.4325388600016,2.3207891000020027,return,2.1872163000007276,,,,,,,,,,,,,,,,,,,,,,,,,,,,,,,,,GVTY1K,train_x,red_square,top_left,2025-03-20_15h15.37.684,HideSeek_v1,2022.2.5,60.2092633152775,
,0,6,3,6,3,0,46,,train_dim1_1,27,30,,,,2,0,2,0,,,,,,,,,0,0,0,0,0,26,26,26,1,0,1,0,,,,,,,,,,,,,,,,,,,,,,,,,,,,,,,,,,,,,,,,,,,,,,,,,,,,,,,,,,,,,,,,30,,,,,,,,633.866582300001,633.866582300001,633.866582300001,633.866582300001,633.866582300001,right,1.7772263000006205,20,0,0,99,0.0,0.08,right,1.692533999997977,,,,,,,,,,,,,,,,,,,,,,,,,,,,,,,,,,,,,,,,,,,,,,,,,,,,,,,,,,,,GVTY1K,train_x,red_square,top_left,2025-03-20_15h15.37.684,HideSeek_v1,2022.2.5,60.2092633152775,
,0,6,3,6,3,0,46,,train_dim1_1,27,30,,,,2,0,2,0,,,,,,,,,0,0,0,0,0,26,26,26,2,0,2,0,,,,,,,,,,,,,,,,,,,,,,,,,,,,,,,,,,,,,,,,,,,,,,,,,,,,,,,,,,,,,,,,30,,,,,,,,635.6500708999993,635.6500708999993,635.6500708999993,635.6500708999993,635.6500708999993,right,1.6778482000008808,20,0,0,99,0.08,0.08,right,1.594818599998689,,,,,,,,,,,,,,,,,,,,,,,,,,,,,,,,,,,,,,,,,,,,,,,,,,,,,,,,,,,,GVTY1K,train_x,red_square,top_left,2025-03-20_15h15.37.684,HideSeek_v1,2022.2.5,60.2092633152775,
,0,6,3,6,3,0,46,,train_dim1_1,27,30,,,,2,0,2,0,,,,,,,,,0,0,0,0,0,26,26,26,3,0,3,0,,,,,,,,,,,,,,,,,,,,,,,,,,,,,,,,,,,,,,,,,,,,,,,,,,,,,,,,,,,,,,,,30,,,,,,,,637.3358617999984,637.3358617999984,637.3358617999984,637.3358617999984,637.3358617999984,return,0.9103387999966799,21,0,0,1,0.08,0.08,return,0.8339741000017966,-2,67,0.08,0.08,,,,,,,,,,,,,,,,,,,,,,,,,,,,,,,,,,,,,,,,,,,,,,,,,,,,,,,,GVTY1K,train_x,red_square,top_left,2025-03-20_15h15.37.684,HideSeek_v1,2022.2.5,60.2092633152775,
,3,6,4,6,1,0,26,,train_dim1_1,28,30,,,,2,0,2,0,,,,,,,,,0,0,0,0,0,27,27,27,0,0,0,0,,,,,,,,,,,,,,,,,,,,,,,,,stimuli/alien_stimuli/26.png,,,,,,,,,,,,,,,,,,,,,,,,,,,,,stimuli/alien_stimuli/46.png,46,0,29,,,,,,,30,,,,,,,,642.3034256999999,642.3034256999999,642.3034256999999,642.3034256999999,642.3034256999999,right,1.4562526000008802,21,0,0,99,0.16,0.08,right,1.3544812999971327,,,,,640.7260901000009,642.3034256999999,0.08,0.08,0.0,0.24,0.08,0.08,-0.04,0.08,0.08,639.820773899999,639.820773899999,639.820773899999,639.820773899999,639.820773899999,639.820773899999,639.820773899999,639.820773899999,639.8086449700018,1.0196880000003148,return,0.8803403999991133,,,,,,,,,,,,,,,,,,,,,,,,,,,,,,,,,GVTY1K,train_x,red_square,top_left,2025-03-20_15h15.37.684,HideSeek_v1,2022.2.5,60.2092633152775,
,3,6,4,6,1,0,26,,train_dim1_1,28,30,,,,2,0,2,0,,,,,,,,,0,0,0,0,0,27,27,27,1,0,1,0,,,,,,,,,,,,,,,,,,,,,,,,,,,,,,,,,,,,,,,,,,,,,,,,,,,,,,,,,,,,,,,,30,,,,,,,,643.7449895999998,643.7449895999998,643.7449895999998,643.7449895999998,643.7449895999998,return,1.0599576000022353,22,0,0,1,0.16,0.08,return,0.9794776999988244,-2,68,0.16,0.08,,,,,,,,,,,,,,,,,,,,,,,,,,,,,,,,,,,,,,,,,,,,,,,,,,,,,,,,GVTY1K,train_x,red_square,top_left,2025-03-20_15h15.37.684,HideSeek_v1,2022.2.5,60.2092633152775,
,4,5,8,5,4,0,56,,train_dim1_1,29,30,,,,2,0,2,0,,,,,,,,,0,0,0,0,0,28,28,28,0,0,0,0,,,,,,,,,,,,,,,,,,,,,,,,,stimuli/alien_stimuli/56.png,,,,,,,,,,,,,,,,,,,,,,,,,,,,,stimuli/alien_stimuli/26.png,26,3,30,,,,,,,30,,,,,,,,648.9252586000002,648.9252586000002,648.9252586000002,648.9252586000002,648.9252586000002,right,1.2226804999991145,22,0,0,99,0.24,0,right,1.1281618999964849,,,,,647.3654126000001,648.9252586000002,0.16,0.08,0.0,0.08,0.08,0.16,0.12,0.16,0.08,646.3698559000004,646.3698559000004,646.3698559000004,646.3698559000004,646.3698559000004,646.3698559000004,646.3698559000004,646.3698559000004,646.3639292699986,1.1036657000004197,return,0.9765880000013567,,,,,,,,,,,,,,,,,,,,,,,,,,,,,,,,,GVTY1K,train_x,red_square,top_left,2025-03-20_15h15.37.684,HideSeek_v1,2022.2.5,60.2092633152775,
,4,5,8,5,4,0,56,,train_dim1_1,29,30,,,,2,0,2,0,,,,,,,,,0,0,0,0,0,28,28,28,1,0,1,0,,,,,,,,,,,,,,,,,,,,,,,,,,,,,,,,,,,,,,,,,,,,,,,,,,,,,,,,,,,,,,,,30,,,,,,,,650.1480001999989,650.1480001999989,650.1480001999989,650.1480001999989,650.1480001999989,right,0.4596651000028942,22,0,0,99,0.32,0,right,0.3870720999984769,,,,,,,,,,,,,,,,,,,,,,,,,,,,,,,,,,,,,,,,,,,,,,,,,,,,,,,,,,,,GVTY1K,train_x,red_square,top_left,2025-03-20_15h15.37.684,HideSeek_v1,2022.2.5,60.2092633152775,
,4,5,8,5,4,0,56,,train_dim1_1,29,30,,,,2,0,2,0,,,,,,,,,0,0,0,0,0,28,28,28,2,0,2,0,,,,,,,,,,,,,,,,,,,,,,,,,,,,,,,,,,,,,,,,,,,,,,,,,,,,,,,,,,,,,,,,30,,,,,,,,650.615653599998,650.615653599998,650.615653599998,650.615653599998,650.615653599998,right,0.5435385999990103,22,0,0,99,0.4,0,right,0.45848389999810024,,,,,,,,,,,,,,,,,,,,,,,,,,,,,,,,,,,,,,,,,,,,,,,,,,,,,,,,,,,,GVTY1K,train_x,red_square,top_left,2025-03-20_15h15.37.684,HideSeek_v1,2022.2.5,60.2092633152775,
,4,5,8,5,4,0,56,,train_dim1_1,29,30,,,,2,0,2,0,,,,,,,,,0,0,0,0,0,28,28,28,3,0,3,0,,,,,,,,,,,,,,,,,,,,,,,,,,,,,,,,,,,,,,,,,,,,,,,,,,,,,,,,,,,,,,,,30,,,,,,,,651.1662919999981,651.1662919999981,651.1662919999981,651.1662919999981,651.1662919999981,right,0.6937354000001505,22,0,0,99,0.48000000000000004,0,right,0.6187784999965515,,,,,,,,,,,,,,,,,,,,,,,,,,,,,,,,,,,,,,,,,,,,,,,,,,,,,,,,,,,,GVTY1K,train_x,red_square,top_left,2025-03-20_15h15.37.684,HideSeek_v1,2022.2.5,60.2092633152775,
,4,5,8,5,4,0,56,,train_dim1_1,29,30,,,,2,0,2,0,,,,,,,,,0,0,0,0,0,28,28,28,4,0,4,0,,,,,,,,,,,,,,,,,,,,,,,,,,,,,,,,,,,,,,,,,,,,,,,,,,,,,,,,,,,,,,,,30,,,,,,,,651.8675794999981,651.8675794999981,651.8675794999981,651.8675794999981,651.8675794999981,return,0.44275050000214833,23,0,0,1,0.48000000000000004,0,return,0.36447509999925387,-2,72,0.48000000000000004,0,,,,,,,,,,,,,,,,,,,,,,,,,,,,,,,,,,,,,,,,,,,,,,,,,,,,,,,,GVTY1K,train_x,red_square,top_left,2025-03-20_15h15.37.684,HideSeek_v1,2022.2.5,60.2092633152775,
,2,7,2,7,0,0,16,,train_dim1_1,30,30,,,,2,0,2,0,,,,,,,,,0,0,0,0,0,29,29,29,0,0,0,0,,,,,,,,,,,,,,,,,,,,,,,,,stimuli/alien_stimuli/16.png,,,,,,,,,,,,,,,,,,,,,,,,,,,,,stimuli/alien_stimuli/56.png,56,4,31,,,,,,,30,,,,,,,,656.2316767999982,656.2316767999982,656.2316767999982,656.2316767999982,656.2316767999982,right,1.0398548000011942,23,0,0,99,0.08,0.16,right,0.9507331999957387,,,,,654.6709544000005,656.2316767999982,0.48,0,0.0,0.32,0.0,0.48,0.32,0.48,0,653.8743403999979,653.8743403999979,653.8743403999979,653.8743403999979,653.8743403999979,653.8743403999979,653.8743403999979,653.8743403999979,653.8536258600004,0.9028208999989147,return,0.7714819999964675,,,,,,,,,,,,,,,,,,,,,,,,,,,,,,,,,GVTY1K,train_x,red_square,top_left,2025-03-20_15h15.37.684,HideSeek_v1,2022.2.5,60.2092633152775,
,2,7,2,7,0,0,16,,train_dim1_1,30,30,,,,2,0,2,0,,,,,,,,,0,0,0,0,0,29,29,29,1,0,1,0,,,,,,,,,,,,,,,,,,,,,,,,,,,,,,,,,,,,,,,,,,,,,,,,,,,,,,,,,,,,,,,,30,,,,,,,,657.2729388000007,657.2729388000007,657.2729388000007,657.2729388000007,657.2729388000007,left,1.4438095999976213,23,0,0,99,0.0,0.16,left,1.3677323999982036,,,,,,,,,,,,,,,,,,,,,,,,,,,,,,,,,,,,,,,,,,,,,,,,,,,,,,,,,,,,GVTY1K,train_x,red_square,top_left,2025-03-20_15h15.37.684,HideSeek_v1,2022.2.5,60.2092633152775,
,2,7,2,7,0,0,16,,train_dim1_1,30,30,,,,2,0,2,0,,,,,,,,,0,0,0,0,0,29,29,29,2,0,2,0,,,,,,,,,,,,,,,,,,,,,,,,,,,,,,,,,,,,,,,,,,,,,,,,,,,,,,,,,,,,,,,,30,,,,,,,,658.7237008000011,658.7237008000011,658.7237008000011,658.7237008000011,658.7237008000011,return,0.6099226000005729,24,0,0,1,0.0,0.16,return,0.5342517999997654,-2,72,0.0,0.16,,,,,,,,,,,,,,,,,,,,,,,,,,,,,,,,,,,,,,,,,,,,,,,,,,,,,,,,GVTY1K,train_x,red_square,top_left,2025-03-20_15h15.37.684,HideSeek_v1,2022.2.5,60.2092633152775,
,,,,,,,,,,,30,,,,2,0,2,0,,,,,,,,,,,,,,,,,,,,,,,,,,,,,,,,,,,,,,,,,,,,,,,,,,,,,,,,,,,,,,,,,,,,,,,,,,stimuli/alien_stimuli/16.png,16,2,32,21,0.7,1.0,1,1,1,30,0,conditions/schedules/train_x_first/red_square_00/top_left/inputTrain_2.1.xlsx,99,1,2,1,0,,,,,,,,,,,1,,,,,,,,,662.7943233000005,664.3367968999992,0,0.16,0.0,0.0,0.16,0,0.0,0,0.16,660.8983965999978,660.8983965999978,660.8983965999978,660.8983965999978,660.8983965999978,660.8983965999978,660.8983965999978,660.8983965999978,660.8928319699985,2.0038182999996934,return,1.8658873999993375,0,0.9,0,1,24,,,,,,,,,,,,,,,,,,,,,,,,,,,,GVTY1K,train_x,red_square,top_left,2025-03-20_15h15.37.684,HideSeek_v1,2022.2.5,60.2092633152775,
,,,,,,,,,,,,,,,3,0,3,0,0,0,0,0,,,,,,,,,,,,,,,,,,,,,,,,,,,,,,,conditions/schedules/train_x_first/red_square_00/top_left/instructions/Slide17.png,conditions/schedules/train_x_first/red_square_00/top_left/instructions/Audio17.wav,664.3367968999992,664.3288331299995,17,"[3.5230678000007174, 18.79599059999964, 16.525584799997887, 19.507299400000193, 4.681120799999917, 4.970472299999528, 5.60503719999906, 11.75843470000109, 6.38808429999699, 20.78361969999969, 10.46375380000245, 12.474763299996994, 18.28777099999934, 12.697776900000463, 30.135308899996744, 22.1365074000023, 41.65687379999872]","[3.5230751000017335, 0.00021829999968758784, 0.07455699999991339, 0.014309599999251077, 0.06640569999945001, 0.05009480000080657, 0.04857760000231792, 0.0140235999970173, 0.049593699997785734, 20.783626699998422, 0.013719599999603815, 12.474769699998433, 0.014011400002345908, 12.697783300001902, 0.03484459999890532, 22.13651369999934, 41.6568812000005]",0,,,,,,,,,,,,,,,,,,,,,,,,,,,,,,,,,,,,,,,,,,,,,,,,,,,,,,,,,,,,,,,,,,,,,,,,,,,,,,,,,,,,,,,,,,,,,,,,,,,,,,,,,,,,,,,,,,,,,,,,,,,,GVTY1K,train_x,red_square,top_left,2025-03-20_15h15.37.684,HideSeek_v1,2022.2.5,60.2092633152775,
,,,,,,,,,,,,,,,3,0,3,0,1,0,1,0,,,,,,,,,,,,,,,,,,,,,,,,,,,,,,,conditions/schedules/train_x_first/red_square_00/top_left/instructions/Slide18.png,conditions/schedules/train_x_first/red_square_00/top_left/instructions/Audio18.wav,706.0608346000008,706.0472439399992,18,"[3.5230678000007174, 18.79599059999964, 16.525584799997887, 19.507299400000193, 4.681120799999917, 4.970472299999528, 5.60503719999906, 11.75843470000109, 6.38808429999699, 20.78361969999969, 10.46375380000245, 12.474763299996994, 18.28777099999934, 12.697776900000463, 30.135308899996744, 22.1365074000023, 41.65687379999872, 6.489228599999478]","[3.5230751000017335, 0.00021829999968758784, 0.07455699999991339, 0.014309599999251077, 0.06640569999945001, 0.05009480000080657, 0.04857760000231792, 0.0140235999970173, 0.049593699997785734, 20.783626699998422, 0.013719599999603815, 12.474769699998433, 0.014011400002345908, 12.697783300001902, 0.03484459999890532, 22.13651369999934, 0.00023999999757506885, 6.48923559999821]",0,,,,,,,,,,,,,,,,,,,,,,,,,,,,,,,,,,,,,,,,,,,,,,,,,,,,,,,,,,,,,,,,,,,,,,,,,,,,,,,,,,,,,,,,,,,,,,,,,,,,,,,,,,,,,,,,,,,,,,,,,,,,GVTY1K,train_x,red_square,top_left,2025-03-20_15h15.37.684,HideSeek_v1,2022.2.5,60.2092633152775,
,,,,,,,,,,,,,,,3,0,3,0,2,0,2,0,,,,,,,,,,,,,,,,,,,,,,,,,,,,,,,conditions/schedules/train_x_first/red_square_00/top_left/instructions/Slide19.png,conditions/schedules/train_x_first/red_square_00/top_left/instructions/Audio19.wav,712.5881305000003,712.5858258299999,19,"[3.5230678000007174, 18.79599059999964, 16.525584799997887, 19.507299400000193, 4.681120799999917, 4.970472299999528, 5.60503719999906, 11.75843470000109, 6.38808429999699, 20.78361969999969, 10.46375380000245, 12.474763299996994, 18.28777099999934, 12.697776900000463, 30.135308899996744, 22.1365074000023, 41.65687379999872, 6.489228599999478, 10.6708452999992]","[3.5230751000017335, 0.00021829999968758784, 0.07455699999991339, 0.014309599999251077, 0.06640569999945001, 0.05009480000080657, 0.04857760000231792, 0.0140235999970173, 0.049593699997785734, 20.783626699998422, 0.013719599999603815, 12.474769699998433, 0.014011400002345908, 12.697783300001902, 0.03484459999890532, 22.13651369999934, 0.00023999999757506885, 0.03022209999835468, 10.670851899998524]",0,,,,,,,,,,,,,,,,,,,,,,,,,,,,,,,,,,,,,,,,,,,,,,,,,,,,,,,,,,,,,,,,,,,,,,,,,,,,,,,,,,,,,,,,,,,,,,,,,,,,,,,,,,,,,,,,,,,,,,,,,,,,GVTY1K,train_x,red_square,top_left,2025-03-20_15h15.37.684,HideSeek_v1,2022.2.5,60.2092633152775,
,,,,,,,,,,,,,,,3,0,3,0,3,0,3,0,,,,,,,,,,,,,,,,,,,,,,,,,,,,,,,conditions/schedules/train_x_first/red_square_00/top_left/instructions/Slide20.png,conditions/schedules/train_x_first/red_square_00/top_left/instructions/Audio20.wav,723.3178007999995,723.3115958400005,20,"[3.5230678000007174, 18.79599059999964, 16.525584799997887, 19.507299400000193, 4.681120799999917, 4.970472299999528, 5.60503719999906, 11.75843470000109, 6.38808429999699, 20.78361969999969, 10.46375380000245, 12.474763299996994, 18.28777099999934, 12.697776900000463, 30.135308899996744, 22.1365074000023, 41.65687379999872, 6.489228599999478, 10.6708452999992, 13.635748699998658]","[3.5230751000017335, 0.00021829999968758784, 0.07455699999991339, 0.014309599999251077, 0.06640569999945001, 0.05009480000080657, 0.04857760000231792, 0.0140235999970173, 0.049593699997785734, 20.783626699998422, 0.013719599999603815, 12.474769699998433, 0.014011400002345908, 12.697783300001902, 0.03484459999890532, 22.13651369999934, 0.00023999999757506885, 0.03022209999835468, 0.05798819999836269, 13.635755100000097]",0,,,,,,,,,,,,,,,,,,,,,,,,,,,,,,,,,,,,,,,,,,,,,,,,,,,,,,,,,,,,,,,,,,,,,,,,,,,,,,,,,,,,,,,,,,,,,,,,,,,,,,,,,,,,,,,,,,,,,,,,,,,,GVTY1K,train_x,red_square,top_left,2025-03-20_15h15.37.684,HideSeek_v1,2022.2.5,60.2092633152775,
1,2,8,2,3,0,-5,11,2,instr_dim1_2,,,,,,3,0,3,0,,,,,0,0,0,0,,,,,,,,,,,,,,,,,,,,,,,,,,,,,,,,,,,,,stimuli/alien_stimuli/11.png,conditions/schedules/train_x_first/red_square_00/top_left/inputInstr_2.xlsx,stimuli/alien_stimuli/11.png,737.0447763000011,737.0447763000011,737.0447763000011,737.0447763000011,737.0394315599995,return,14.472289099998306,"[-0.16, -0.08, 0, 0.08, 0.16, 0.24, 0.32, 0.4, 0.48, 0.56]","[-0.4, -0.32, -0.24, -0.16, -0.08, 0, 0.08, 0.16, 0.24, 0.32]",3,8,2,2,0.4,0.0,751.6677158999992,751.6677158999992,751.6677158999992,751.6677158999992,751.6677158999992,751.6677158999992,751.6677158999992,751.6685190899999,6.639228399999411,return,6.480087200001435,stimuli/alien_stimuli/11.png,11,2,1,,,,,,,,,,,,,,,,,,,,,,,,,,,,,,,,,,,,,,,,,,,,,,,,,,,,,,,,,,,,,,,,,,,,,,,,,,,,,,,,,,,,,,,,,GVTY1K,train_x,red_square,top_left,2025-03-20_15h15.37.684,HideSeek_v1,2022.2.5,60.2092633152775,
,,,,,,,,,,,30,,,,3,0,3,0,,,,,,,,,,,,,,,,,,,,,,,,,,,,,,,,,,,,,,,,,,,,,,,,,,,,,,,,,,,,,,,,,,,,,,,,,,,,,,21,0.7,1.0,1,99,2,30,0,conditions/schedules/train_x_first/red_square_00/top_left/inputTrain_2.1.xlsx,99,1,2,1,0,,,,,,,,,,,,,,,,,,,,,,,,,,,,,,,,,,,,,,,,,,,,,,,,,,,,,,,,,,,,,,,,,,,,,,,,,,,GVTY1K,train_x,red_square,top_left,2025-03-20_15h15.37.684,HideSeek_v1,2022.2.5,60.2092633152775,
,,,,,,,,,,,,,,,4,0,4,0,0,0,0,0,,,,,,,,,,,,,,,,,,,,,,,,,,,,,,,conditions/schedules/train_x_first/red_square_00/top_left/instructions/Slide21.png,conditions/schedules/train_x_first/red_square_00/top_left/instructions/Audio21.wav,758.3051522999995,758.3070237900002,21,"[3.5230678000007174, 18.79599059999964, 16.525584799997887, 19.507299400000193, 4.681120799999917, 4.970472299999528, 5.60503719999906, 11.75843470000109, 6.38808429999699, 20.78361969999969, 10.46375380000245, 12.474763299996994, 18.28777099999934, 12.697776900000463, 30.135308899996744, 22.1365074000023, 41.65687379999872, 6.489228599999478, 10.6708452999992, 13.635748699998658, 17.896917400001257]","[3.5230751000017335, 0.00021829999968758784, 0.07455699999991339, 0.014309599999251077, 0.06640569999945001, 0.05009480000080657, 0.04857760000231792, 0.0140235999970173, 0.049593699997785734, 20.783626699998422, 0.013719599999603815, 12.474769699998433, 0.014011400002345908, 12.697783300001902, 0.03484459999890532, 22.13651369999934, 0.00023999999757506885, 0.03022209999835468, 0.05798819999836269, 13.635755100000097, 17.896924600001512]",0,,,,,,,,,,,,,,,,,,,,,,,,,,,,,,,,,,,,,,,,,,,,,,,,,,,,,,,,,,,,,,,,,,,,,,,,,,,,,,,,,,,,,,,,,,,,,,,,,,,,,,,,,,,,,,,,,,,,,,,,,,,,GVTY1K,train_x,red_square,top_left,2025-03-20_15h15.37.684,HideSeek_v1,2022.2.5,60.2092633152775,
2,0,8,0,8,0,0,16,2,instr_dim1_2,,,,,,4,0,4,0,,,,,0,0,0,0,,,,,,,,,,,,,,,,,,,,,,,,,,,,,,,,,,,,,stimuli/alien_stimuli/16.png,conditions/schedules/train_x_first/red_square_00/top_left/inputInstr_2.xlsx,stimuli/alien_stimuli/16.png,776.293579000001,776.293579000001,776.293579000001,776.293579000001,776.2887172599992,return,0.6331117999980052,"[-0.16, -0.08, 0, 0.08, 0.16, 0.24, 0.32, 0.4, 0.48, 0.56]","[-0.4, -0.32, -0.24, -0.16, -0.08, 0, 0.08, 0.16, 0.24, 0.32]",8,8,0,0,0.0,0.0,777.0831997999994,777.0831997999994,777.0831997999994,777.0831997999994,777.0831997999994,777.0831997999994,777.0831997999994,777.0727100800017,7.106891600000381,return,6.951026899998396,stimuli/alien_stimuli/16.png,16,0,2,,,,,,,,,,,,,,,,,,,,,,,,,,,,,,,,,,,,,,,,,,,,,,,,,,,,,,,,,,,,,,,,,,,,,,,,,,,,,,,,,,,,,,,,,GVTY1K,train_x,red_square,top_left,2025-03-20_15h15.37.684,HideSeek_v1,2022.2.5,60.2092633152775,
,,,,,,,,,,,30,,,,4,0,4,0,,,,,,,,,,,,,,,,,,,,,,,,,,,,,,,,,,,,,,,,,,,,,,,,,,,,,,,,,,,,,,,,,,,,,,,,,,,,,,21,0.7,1.0,1,99,2,30,0,conditions/schedules/train_x_first/red_square_00/top_left/inputTrain_2.1.xlsx,99,1,2,1,0,,,,,,,,,,,,,,,,,,,,,,,,,,,,,,,,,,,,,,,,,,,,,,,,,,,,,,,,,,,,,,,,,,,,,,,,,,,GVTY1K,train_x,red_square,top_left,2025-03-20_15h15.37.684,HideSeek_v1,2022.2.5,60.2092633152775,
,,,,,,,,,,,,,,,5,0,5,0,0,0,0,0,,,,,,,,,,,,,,,,,,,,,,,,,,,,,,,conditions/schedules/train_x_first/red_square_00/top_left/instructions/Slide22.png,conditions/schedules/train_x_first/red_square_00/top_left/instructions/Audio22.wav,784.1991134999989,784.1953032899993,22,"[3.5230678000007174, 18.79599059999964, 16.525584799997887, 19.507299400000193, 4.681120799999917, 4.970472299999528, 5.60503719999906, 11.75843470000109, 6.38808429999699, 20.78361969999969, 10.46375380000245, 12.474763299996994, 18.28777099999934, 12.697776900000463, 30.135308899996744, 22.1365074000023, 41.65687379999872, 6.489228599999478, 10.6708452999992, 13.635748699998658, 17.896917400001257, 42.97913719999997]","[3.5230751000017335, 0.00021829999968758784, 0.07455699999991339, 0.014309599999251077, 0.06640569999945001, 0.05009480000080657, 0.04857760000231792, 0.0140235999970173, 0.049593699997785734, 20.783626699998422, 0.013719599999603815, 12.474769699998433, 0.014011400002345908, 12.697783300001902, 0.03484459999890532, 22.13651369999934, 0.00023999999757506885, 0.03022209999835468, 0.05798819999836269, 13.635755100000097, 17.896924600001512, 42.97914420000234]",0,,,,,,,,,,,,,,,,,,,,,,,,,,,,,,,,,,,,,,,,,,,,,,,,,,,,,,,,,,,,,,,,,,,,,,,,,,,,,,,,,,,,,,,,,,,,,,,,,,,,,,,,,,,,,,,,,,,,,,,,,,,,GVTY1K,train_x,red_square,top_left,2025-03-20_15h15.37.684,HideSeek_v1,2022.2.5,60.2092633152775,
,0,5,0,4,0,-1,15,,train_dim1_2,1,30,,,,5,0,5,0,,,,,,,,,0,0,0,0,0,0,0,0,0,0,0,0,,,,,,,,,,,,,,,,,,,,,,,,,stimuli/alien_stimuli/15.png,,,,,,,,,,,,,,,,,,,,,,,,,,,,,,,,,,,,,,,30,,,,,,,,827.2773154999995,827.2773154999995,827.2773154999995,827.2773154999995,827.2773154999995,return,2.2629179999967164,0,1,0,0,-0.16,0,return,2.170651299999008,-2,72,-0.16,0,,,,,,,,,,,,,,,,,,,,,,,,,,,,,,,,,,,,,,,,,,,,,,,,,,,,,,,,GVTY1K,train_x,red_square,top_left,2025-03-20_15h15.37.684,HideSeek_v1,2022.2.5,60.2092633152775,
,3,7,3,7,0,0,16,,train_dim1_2,2,30,,,,5,0,5,0,,,,,,,,,0,0,0,0,0,1,1,1,0,0,0,0,,,,,,,,,,,,,,,,,,,,,,,,,stimuli/alien_stimuli/16.png,,,,,,,,,,,,,,,,,,,,,,,,,,,,,stimuli/alien_stimuli/15.png,15,0,3,,,,,,,30,,,,,,,,834.9080017999986,834.9080017999986,834.9080017999986,834.9080017999986,834.9080017999986,return,1.9075757999999041,1,0,0,1,0.08,0.16,return,1.820837199997186,-2,72,0.08,0.16,833.3529546999998,834.9080017999986,-0.16,-0.08,0.08,0.0,-0.04,-0.16,-0.16,-0.16,-0.08,831.0959853999993,831.0959853999993,831.0959853999993,831.0959853999993,831.0959853999993,831.0959853999993,831.0959853999993,831.0959853999993,831.0841985699985,2.3708986999990884,return,2.227995799999917,,,,,,,,,,,,,,,,,,,,,,,,,,,,,,,,,GVTY1K,train_x,red_square,top_left,2025-03-20_15h15.37.684,HideSeek_v1,2022.2.5,60.2092633152775,
,2,8,2,5,0,-3,13,,train_dim1_2,3,30,,,,5,0,5,0,,,,,,,,,0,0,0,0,0,2,2,2,0,0,0,0,,,,,,,,,,,,,,,,,,,,,,,,,stimuli/alien_stimuli/13.png,,,,,,,,,,,,,,,,,,,,,,,,,,,,,stimuli/alien_stimuli/16.png,16,3,4,,,,,,,30,,,,,,,,842.0498475999993,842.0498475999993,842.0498475999993,842.0498475999993,842.0498475999993,right,2.0555681999976514,1,0,0,99,0.08,0.24,right,1.9783311999999569,,,,,840.4919764000006,842.0498475999993,0.08,0.16,0.0,0.0,0.16,0.08,0.08,0.08,0.16,838.369174899999,838.369174899999,838.369174899999,838.369174899999,838.369174899999,838.369174899999,838.369174899999,838.369174899999,838.3568966600003,2.220825299998978,return,2.097530499999266,,,,,,,,,,,,,,,,,,,,,,,,,,,,,,,,,GVTY1K,train_x,red_square,top_left,2025-03-20_15h15.37.684,HideSeek_v1,2022.2.5,60.2092633152775,
,2,8,2,5,0,-3,13,,train_dim1_2,3,30,,,,5,0,5,0,,,,,,,,,0,0,0,0,0,2,2,2,1,0,1,0,,,,,,,,,,,,,,,,,,,,,,,,,,,,,,,,,,,,,,,,,,,,,,,,,,,,,,,,,,,,,,,,30,,,,,,,,844.1111506999987,844.1111506999987,844.1111506999987,844.1111506999987,844.1111506999987,right,0.5263688999984879,1,0,0,99,0.16,0.24,right,0.4415069999959087,,,,,,,,,,,,,,,,,,,,,,,,,,,,,,,,,,,,,,,,,,,,,,,,,,,,,,,,,,,,GVTY1K,train_x,red_square,top_left,2025-03-20_15h15.37.684,HideSeek_v1,2022.2.5,60.2092633152775,
,2,8,2,5,0,-3,13,,train_dim1_2,3,30,,,,5,0,5,0,,,,,,,,,0,0,0,0,0,2,2,2,2,0,2,0,,,,,,,,,,,,,,,,,,,,,,,,,,,,,,,,,,,,,,,,,,,,,,,,,,,,,,,,,,,,,,,,30,,,,,,,,844.6443094999995,844.6443094999995,844.6443094999995,844.6443094999995,844.6443094999995,right,0.4431942000010167,1,0,0,99,0.24,0.24,right,0.3531909999983327,,,,,,,,,,,,,,,,,,,,,,,,,,,,,,,,,,,,,,,,,,,,,,,,,,,,,,,,,,,,GVTY1K,train_x,red_square,top_left,2025-03-20_15h15.37.684,HideSeek_v1,2022.2.5,60.2092633152775,
,2,8,2,5,0,-3,13,,train_dim1_2,3,30,,,,5,0,5,0,,,,,,,,,0,0,0,0,0,2,2,2,3,0,3,0,,,,,,,,,,,,,,,,,,,,,,,,,,,,,,,,,,,,,,,,,,,,,,,,,,,,,,,,,,,,,,,,30,,,,,,,,845.0965312000008,845.0965312000008,845.0965312000008,845.0965312000008,845.0965312000008,right,2.0278464000002714,1,0,0,99,0.32,0.24,right,1.9355713999975706,,,,,,,,,,,,,,,,,,,,,,,,,,,,,,,,,,,,,,,,,,,,,,,,,,,,,,,,,,,,GVTY1K,train_x,red_square,top_left,2025-03-20_15h15.37.684,HideSeek_v1,2022.2.5,60.2092633152775,
,2,8,2,5,0,-3,13,,train_dim1_2,3,30,,,,5,0,5,0,,,,,,,,,0,0,0,0,0,2,2,2,4,0,4,0,,,,,,,,,,,,,,,,,,,,,,,,,,,,,,,,,,,,,,,,,,,,,,,,,,,,,,,,,,,,,,,,30,,,,,,,,847.1297922999984,847.1297922999984,847.1297922999984,847.1297922999984,847.1297922999984,return,0.5102421999981743,1,0,0,0,0.32,0.24,return,0.4210872000003292,-2,76,0.32,0.24,,,,,,,,,,,,,,,,,,,,,,,,,,,,,,,,,,,,,,,,,,,,,,,,,,,,,,,,GVTY1K,train_x,red_square,top_left,2025-03-20_15h15.37.684,HideSeek_v1,2022.2.5,60.2092633152775,
,0,6,0,2,0,-4,12,,train_dim1_2,4,30,,,,5,0,5,0,,,,,,,,,0,0,0,0,0,3,3,3,0,0,0,0,,,,,,,,,,,,,,,,,,,,,,,,,stimuli/alien_stimuli/12.png,,,,,,,,,,,,,,,,,,,,,,,,,,,,,stimuli/alien_stimuli/13.png,13,2,5,,,,,,,30,,,,,,,,853.2597903999995,853.2597903999995,853.2597903999995,853.2597903999995,853.2597903999995,right,2.5904756000018097,1,0,0,99,-0.08,0.08,right,2.4993168999972113,,,,,851.7011254999998,853.2597903999995,0,0,0.24,0.0,0.12,0,0.0,0,0,849.2102344000014,849.2102344000014,849.2102344000014,849.2102344000014,849.2102344000014,849.2102344000014,849.2102344000014,849.2102344000014,849.1991900700009,2.604757499997504,return,2.473775399997976,,,,,,,,,,,,,,,,,,,,,,,,,,,,,,,,,GVTY1K,train_x,red_square,top_left,2025-03-20_15h15.37.684,HideSeek_v1,2022.2.5,60.2092633152775,
,0,6,0,2,0,-4,12,,train_dim1_2,4,30,,,,5,0,5,0,,,,,,,,,0,0,0,0,0,3,3,3,1,0,1,0,,,,,,,,,,,,,,,,,,,,,,,,,,,,,,,,,,,,,,,,,,,,,,,,,,,,,,,,,,,,,,,,30,,,,,,,,855.8552119999986,855.8552119999986,855.8552119999986,855.8552119999986,855.8552119999986,right,0.5095703000006324,1,0,0,99,0.0,0.08,right,0.42385229999854346,,,,,,,,,,,,,,,,,,,,,,,,,,,,,,,,,,,,,,,,,,,,,,,,,,,,,,,,,,,,GVTY1K,train_x,red_square,top_left,2025-03-20_15h15.37.684,HideSeek_v1,2022.2.5,60.2092633152775,
,0,6,0,2,0,-4,12,,train_dim1_2,4,30,,,,5,0,5,0,,,,,,,,,0,0,0,0,0,3,3,3,2,0,2,0,,,,,,,,,,,,,,,,,,,,,,,,,,,,,,,,,,,,,,,,,,,,,,,,,,,,,,,,,,,,,,,,30,,,,,,,,856.3736805999979,856.3736805999979,856.3736805999979,856.3736805999979,856.3736805999979,right,0.5933646000012232,1,0,0,99,0.08,0.08,right,0.5046493999980157,,,,,,,,,,,,,,,,,,,,,,,,,,,,,,,,,,,,,,,,,,,,,,,,,,,,,,,,,,,,GVTY1K,train_x,red_square,top_left,2025-03-20_15h15.37.684,HideSeek_v1,2022.2.5,60.2092633152775,
,0,6,0,2,0,-4,12,,train_dim1_2,4,30,,,,5,0,5,0,,,,,,,,,0,0,0,0,0,3,3,3,3,0,3,0,,,,,,,,,,,,,,,,,,,,,,,,,,,,,,,,,,,,,,,,,,,,,,,,,,,,,,,,,,,,,,,,30,,,,,,,,856.9727759999987,856.9727759999987,856.9727759999987,856.9727759999987,856.9727759999987,right,0.6101650999989943,1,0,0,99,0.16,0.08,right,0.5270105999989028,,,,,,,,,,,,,,,,,,,,,,,,,,,,,,,,,,,,,,,,,,,,,,,,,,,,,,,,,,,,GVTY1K,train_x,red_square,top_left,2025-03-20_15h15.37.684,HideSeek_v1,2022.2.5,60.2092633152775,
,0,6,0,2,0,-4,12,,train_dim1_2,4,30,,,,5,0,5,0,,,,,,,,,0,0,0,0,0,3,3,3,4,0,4,0,,,,,,,,,,,,,,,,,,,,,,,,,,,,,,,,,,,,,,,,,,,,,,,,,,,,,,,,,,,,,,,,30,,,,,,,,857.5898147999978,857.5898147999978,857.5898147999978,857.5898147999978,857.5898147999978,right,0.6266533999987587,1,0,0,99,0.24,0.08,right,0.5467521999999008,,,,,,,,,,,,,,,,,,,,,,,,,,,,,,,,,,,,,,,,,,,,,,,,,,,,,,,,,,,,GVTY1K,train_x,red_square,top_left,2025-03-20_15h15.37.684,HideSeek_v1,2022.2.5,60.2092633152775,
,0,6,0,2,0,-4,12,,train_dim1_2,4,30,,,,5,0,5,0,,,,,,,,,0,0,0,0,0,3,3,3,5,0,5,0,,,,,,,,,,,,,,,,,,,,,,,,,,,,,,,,,,,,,,,,,,,,,,,,,,,,,,,,,,,,,,,,30,,,,,,,,858.2242929999993,858.2242929999993,858.2242929999993,858.2242929999993,858.2242929999993,return,0.7770683000017016,1,0,0,0,0.24,0.08,return,0.6990220000006957,-2,81,0.24,0.08,,,,,,,,,,,,,,,,,,,,,,,,,,,,,,,,,,,,,,,,,,,,,,,,,,,,,,,,GVTY1K,train_x,red_square,top_left,2025-03-20_15h15.37.684,HideSeek_v1,2022.2.5,60.2092633152775,
