trialInstr,x_fixStart,y_fixStart,x_corrSteps,y_corrSteps,x_nrSteps,y_nrSteps,alienID,trialLength,version,trialTrain,praclen,testlen,trial_label,break_on_off,beforeExpLoop.thisRepN,beforeExpLoop.thisTrialN,beforeExpLoop.thisN,beforeExpLoop.thisIndex,mini_instr_trials.thisRepN,mini_instr_trials.thisTrialN,mini_instr_trials.thisN,mini_instr_trials.thisIndex,instrLoop.thisRepN,instrLoop.thisTrialN,instrLoop.thisN,instrLoop.thisIndex,repeat_prac.thisRepN,repeat_prac.thisTrialN,repeat_prac.thisN,repeat_prac.thisIndex,trainLoop.thisRepN,trainLoop.thisTrialN,trainLoop.thisN,trainLoop.thisIndex,moveLoop_train.thisRepN,moveLoop_train.thisTrialN,moveLoop_train.thisN,moveLoop_train.thisIndex,experiment.thisRepN,experiment.thisTrialN,experiment.thisN,experiment.thisIndex,moveLoop_test.thisRepN,moveLoop_test.thisTrialN,moveLoop_test.thisN,moveLoop_test.thisIndex,mini_instr2_trials.thisRepN,mini_instr2_trials.thisTrialN,mini_instr2_trials.thisN,mini_instr2_trials.thisIndex,start_all_time,url,slideStim,audioStim,slides.started,sounds.started,nextButton.numClicks,nextButton.timesOn,nextButton.timesOff,prev_but.numClicks,prev_but.timesOn,prev_but.timesOff,alienStim,instrFile,alienStim_instr,gridImage_instr.started,startPos_3.started,key_instr.started,alienImage_3.started,sounds_1.started,key_instr.keys,key_instr.rt,all_x,all_y,FBy_corrSteps,FBy_fixStart,FBx_corrSteps,FBx_fixStart,FBy_pathSize_check,FBx_pathSize_check,gridImage_9.started,alienImageFB_3.started,startPosFB_3.started,keyFB_3.started,pathLine_ydir_2.started,pathLine_xdir_2.started,alienFace_3.started,sounds_2.started,RTFB_instr,keyFB_3.keys,keyFB_3.rt,draw_alienStim,draw_alienID,test_x,nrepcount,perfthres,percthres,earlierperf,earlystop,nextPrac,fileidx,praclen,saveACC_train,pracFile,nextPrac_train,addNrep,fileidx_endr,repExp,showearly,gridImage_4.started,startPos.started,movePos.started,key_resp.started,alienImage.started,buttonPress_train,RTchoice_train,cumAcctrain,aCorr,saveACC_choice,corrAns,x_movePos_end,y_movePos_end,key_resp.keys,key_resp.rt,wLy_dir,wLx_dir,x_movePos,y_movePos,text_2.started,text_2.stopped,aft_x_corrPos,aft_y_corrPos,y_pathSize_check,x_pathSize_check,y_pathdirY,x_pathdirY,x_pathdirX,x_corrPos,y_corrPos,gridImage_6.started,alienImageFB_2.started,startPosFB_2.started,movePosFB_2.started,keyFB_2.started,pathLine_xdir.started,pathLine_ydir.started,alienFace.started,sounds_4.started,RT_FBtrain,keyFB_2.keys,keyFB_2.rt,saveACC_pre,ACC,within_saveACC_train,earlystop_wloop,cumAcctrain_check,gridImage_3.started,alienImage_test.started,startPos_test.started,movePos_test.started,key_resp_test.started,wLy_dir_test,wLx_dir_test,buttonPress_test,RTchoice_test,cumAcctest,corrAns_test,key_resp_test.keys,key_resp_test.rt,text_3.started,text_3.stopped,total_time,end_all_time,key_resp_3.keys,slides_2.started,sounds_3.started,nextButton_2.numClicks,nextButton_2.timesOn,nextButton_2.timesOff,prev_but_2.numClicks,prev_but_2.timesOn,prev_but_2.timesOff,bye.started,participant,train_first,00_coordinate,starting corner,date,expName,psychopyVersion,frameRate,
,,,,,,,,,,,,,,,0,0,0,0,0,0,0,0,,,,,,,,,,,,,,,,,,,,,,,,,,,,,start_all_time,testround,conditions/schedules/train_x_first/red_square_00/bottom_right/instructions/Slide1.png,conditions/schedules/train_x_first/red_square_00/bottom_right/instructions/Audio1.wav,836.2509854999371,836.1873370411573,1,[9.767794999992475],[9.767804099945351],0,,,,,,,,,,,,,,,,,,,,,,,,,,,,,,,,,,,,,,,,,,,,,,,,,,,,,,,,,,,,,,,,,,,,,,,,,,,,,,,,,,,,,,,,,,,,,,,,,,,,,,,,,,,,,,,,,,,,,,,,,,,,GYWY7N,train_x,red_square,bottom_right,2025-07-16_18h11.58.709,HideSeek_v1,2022.2.5,59.970230788128646,
,,,,,,,,,,,,,,,0,0,0,0,1,0,1,0,,,,,,,,,,,,,,,,,,,,,,,,,,,,,,,conditions/schedules/train_x_first/red_square_00/bottom_right/instructions/Slide2.png,conditions/schedules/train_x_first/red_square_00/bottom_right/instructions/Audio2.wav,846.0323358000023,846.028628650005,2,"[9.767794999992475, 19.460487299948]","[0.04518299992196262, 19.460498499916866]",0,,,,,,,,,,,,,,,,,,,,,,,,,,,,,,,,,,,,,,,,,,,,,,,,,,,,,,,,,,,,,,,,,,,,,,,,,,,,,,,,,,,,,,,,,,,,,,,,,,,,,,,,,,,,,,,,,,,,,,,,,,,,GYWY7N,train_x,red_square,bottom_right,2025-07-16_18h11.58.709,HideSeek_v1,2022.2.5,59.970230788128646,
,,,,,,,,,,,,,,,0,0,0,0,2,0,2,0,,,,,,,,,,,,,,,,,,,,,,,,,,,,,,,conditions/schedules/train_x_first/red_square_00/bottom_right/instructions/Slide3.png,conditions/schedules/train_x_first/red_square_00/bottom_right/instructions/Audio3.wav,865.5652757999487,865.5618647499941,3,"[9.767794999992475, 19.460487299948, 17.608379799989052]","[0.04518299992196262, 0.06318499997723848, 17.608387799933553]",0,,,,,,,,,,,,,,,,,,,,,,,,,,,,,,,,,,,,,,,,,,,,,,,,,,,,,,,,,,,,,,,,,,,,,,,,,,,,,,,,,,,,,,,,,,,,,,,,,,,,,,,,,,,,,,,,,,,,,,,,,,,,GYWY7N,train_x,red_square,bottom_right,2025-07-16_18h11.58.709,HideSeek_v1,2022.2.5,59.970230788128646,
,,,,,,,,,,,,,,,0,0,0,0,3,0,3,0,,,,,,,,,,,,,,,,,,,,,,,,,,,,,,,conditions/schedules/train_x_first/red_square_00/bottom_right/instructions/Slide4.png,conditions/schedules/train_x_first/red_square_00/bottom_right/instructions/Audio4.wav,883.264441999956,883.2587345399894,4,"[9.767794999992475, 19.460487299948, 17.608379799989052, 19.958077699993737]","[0.04518299992196262, 0.06318499997723848, 0.00029989995528012514, 19.958088099956512]",0,,,,,,,,,,,,,,,,,,,,,,,,,,,,,,,,,,,,,,,,,,,,,,,,,,,,,,,,,,,,,,,,,,,,,,,,,,,,,,,,,,,,,,,,,,,,,,,,,,,,,,,,,,,,,,,,,,,,,,,,,,,,GYWY7N,train_x,red_square,bottom_right,2025-07-16_18h11.58.709,HideSeek_v1,2022.2.5,59.970230788128646,
,,,,,,,,,,,,,,,0,0,0,0,4,0,4,0,,,,,,,,,,,,,,,,,,,,,,,,,,,,,,,conditions/schedules/train_x_first/red_square_00/bottom_right/instructions/Slide5.png,conditions/schedules/train_x_first/red_square_00/bottom_right/instructions/Audio5.wav,903.2888188998913,903.2916275499156,5,"[9.767794999992475, 19.460487299948, 17.608379799989052, 19.958077699993737, 6.404378199949861]","[0.04518299992196262, 0.06318499997723848, 0.00029989995528012514, 0.00031919998582452536, 6.404393299948424]",0,,,,,,,,,,,,,,,,,,,,,,,,,,,,,,,,,,,,,,,,,,,,,,,,,,,,,,,,,,,,,,,,,,,,,,,,,,,,,,,,,,,,,,,,,,,,,,,,,,,,,,,,,,,,,,,,,,,,,,,,,,,,GYWY7N,train_x,red_square,bottom_right,2025-07-16_18h11.58.709,HideSeek_v1,2022.2.5,59.970230788128646,
,,,,,,,,,,,,,,,0,0,0,0,5,0,5,0,,,,,,,,,,,,,,,,,,,,,,,,,,,,,,,conditions/schedules/train_x_first/red_square_00/bottom_right/instructions/Slide6.png,conditions/schedules/train_x_first/red_square_00/bottom_right/instructions/Audio6.wav,909.767634299933,909.7636974499328,6,"[9.767794999992475, 19.460487299948, 17.608379799989052, 19.958077699993737, 6.404378199949861, 6.149202300002798]","[0.04518299992196262, 0.06318499997723848, 0.00029989995528012514, 0.00031919998582452536, 0.029016899992711842, 6.149210599949583]",0,,,,,,,,,,,,,,,,,,,,,,,,,,,,,,,,,,,,,,,,,,,,,,,,,,,,,,,,,,,,,,,,,,,,,,,,,,,,,,,,,,,,,,,,,,,,,,,,,,,,,,,,,,,,,,,,,,,,,,,,,,,,GYWY7N,train_x,red_square,bottom_right,2025-07-16_18h11.58.709,HideSeek_v1,2022.2.5,59.970230788128646,
,,,,,,,,,,,,,,,0,0,0,0,6,0,6,0,,,,,,,,,,,,,,,,,,,,,,,,,,,,,,,conditions/schedules/train_x_first/red_square_00/bottom_right/instructions/Slide7.png,conditions/schedules/train_x_first/red_square_00/bottom_right/instructions/Audio7.wav,915.9742097998969,915.9696377599379,7,"[9.767794999992475, 19.460487299948, 17.608379799989052, 19.958077699993737, 6.404378199949861, 6.149202300002798, 5.9317845000186935]","[0.04518299992196262, 0.06318499997723848, 0.00029989995528012514, 0.00031919998582452536, 0.029016899992711842, 0.060740499990060925, 5.931794499978423]",0,,,,,,,,,,,,,,,,,,,,,,,,,,,,,,,,,,,,,,,,,,,,,,,,,,,,,,,,,,,,,,,,,,,,,,,,,,,,,,,,,,,,,,,,,,,,,,,,,,,,,,,,,,,,,,,,,,,,,,,,,,,,GYWY7N,train_x,red_square,bottom_right,2025-07-16_18h11.58.709,HideSeek_v1,2022.2.5,59.970230788128646,
,,,,,,,,,,,,,,,0,0,0,0,7,0,7,0,,,,,,,,,,,,,,,,,,,,,,,,,,,,,,,conditions/schedules/train_x_first/red_square_00/bottom_right/instructions/Slide8.png,conditions/schedules/train_x_first/red_square_00/bottom_right/instructions/Audio8.wav,921.9625774999149,921.9573227599961,8,"[9.767794999992475, 19.460487299948, 17.608379799989052, 19.958077699993737, 6.404378199949861, 6.149202300002798, 5.9317845000186935, 11.969809499918483]","[0.04518299992196262, 0.06318499997723848, 0.00029989995528012514, 0.00031919998582452536, 0.029016899992711842, 0.060740499990060925, 0.06085659994278103, 11.96981819998473]",0,,,,,,,,,,,,,,,,,,,,,,,,,,,,,,,,,,,,,,,,,,,,,,,,,,,,,,,,,,,,,,,,,,,,,,,,,,,,,,,,,,,,,,,,,,,,,,,,,,,,,,,,,,,,,,,,,,,,,,,,,,,,GYWY7N,train_x,red_square,bottom_right,2025-07-16_18h11.58.709,HideSeek_v1,2022.2.5,59.970230788128646,
,,,,,,,,,,,,,,,0,0,0,0,8,0,8,0,,,,,,,,,,,,,,,,,,,,,,,,,,,,,,,conditions/schedules/train_x_first/red_square_00/bottom_right/instructions/Slide9.png,conditions/schedules/train_x_first/red_square_00/bottom_right/instructions/Audio9.wav,934.0056445999071,934.0013182499679,9,"[9.767794999992475, 19.460487299948, 17.608379799989052, 19.958077699993737, 6.404378199949861, 6.149202300002798, 5.9317845000186935, 11.969809499918483, 7.165168599924073]","[0.04518299992196262, 0.06318499997723848, 0.00029989995528012514, 0.00031919998582452536, 0.029016899992711842, 0.060740499990060925, 0.06085659994278103, 0.029358699917793274, 7.165177099988796]",0,,,,,,,,,,,,,,,,,,,,,,,,,,,,,,,,,,,,,,,,,,,,,,,,,,,,,,,,,,,,,,,,,,,,,,,,,,,,,,,,,,,,,,,,,,,,,,,,,,,,,,,,,,,,,,,,,,,,,,,,,,,,GYWY7N,train_x,red_square,bottom_right,2025-07-16_18h11.58.709,HideSeek_v1,2022.2.5,59.970230788128646,
,,,,,,,,,,,,,,,0,0,0,0,9,0,9,0,,,,,,,,,,,,,,,,,,,,,,,,,,,,,,,conditions/schedules/train_x_first/red_square_00/bottom_right/instructions/Slide10.png,conditions/schedules/train_x_first/red_square_00/bottom_right/instructions/Audio10.wav,941.2136142998934,941.2073657699628,10,"[9.767794999992475, 19.460487299948, 17.608379799989052, 19.958077699993737, 6.404378199949861, 6.149202300002798, 5.9317845000186935, 11.969809499918483, 7.165168599924073, 7.4628012999892235]","[0.04518299992196262, 0.06318499997723848, 0.00029989995528012514, 0.00031919998582452536, 0.029016899992711842, 0.060740499990060925, 0.06085659994278103, 0.029358699917793274, 0.09225260000675917, 7.46280899993144]",0,,,,,,,,,,,,,,,,,,,,,,,,,,,,,,,,,,,,,,,,,,,,,,,,,,,,,,,,,,,,,,,,,,,,,,,,,,,,,,,,,,,,,,,,,,,,,,,,,,,,,,,,,,,,,,,,,,,,,,,,,,,,GYWY7N,train_x,red_square,bottom_right,2025-07-16_18h11.58.709,HideSeek_v1,2022.2.5,59.970230788128646,
,,,,,,,,,,,,,,,0,0,0,0,10,0,10,0,,,,,,,,,,,,,,,,,,,,,,,,,,,,,,,conditions/schedules/train_x_first/red_square_00/bottom_right/instructions/Slide11.png,conditions/schedules/train_x_first/red_square_00/bottom_right/instructions/Audio11.wav,948.7382789999247,948.7306128599215,11,"[9.767794999992475, 19.460487299948, 17.608379799989052, 19.958077699993737, 6.404378199949861, 6.149202300002798, 5.9317845000186935, 11.969809499918483, 7.165168599924073, 7.4628012999892235, 9.963896700064652]","[0.04518299992196262, 0.06318499997723848, 0.00029989995528012514, 0.00031919998582452536, 0.029016899992711842, 0.060740499990060925, 0.06085659994278103, 0.029358699917793274, 0.09225260000675917, 0.054451300064101815, 9.96390520001296]",0,,,,,,,,,,,,,,,,,,,,,,,,,,,,,,,,,,,,,,,,,,,,,,,,,,,,,,,,,,,,,,,,,,,,,,,,,,,,,,,,,,,,,,,,,,,,,,,,,,,,,,,,,,,,,,,,,,,,,,,,,,,,GYWY7N,train_x,red_square,bottom_right,2025-07-16_18h11.58.709,HideSeek_v1,2022.2.5,59.970230788128646,
,,,,,,,,,,,,,,,0,0,0,0,11,0,11,0,,,,,,,,,,,,,,,,,,,,,,,,,,,,,,,conditions/schedules/train_x_first/red_square_00/bottom_right/instructions/Slide12.png,conditions/schedules/train_x_first/red_square_00/bottom_right/instructions/Audio12.wav,958.7772804999258,958.7723191499244,12,"[9.767794999992475, 19.460487299948, 17.608379799989052, 19.958077699993737, 6.404378199949861, 6.149202300002798, 5.9317845000186935, 11.969809499918483, 7.165168599924073, 7.4628012999892235, 9.963896700064652, 13.18660210003145]","[0.04518299992196262, 0.06318499997723848, 0.00029989995528012514, 0.00031919998582452536, 0.029016899992711842, 0.060740499990060925, 0.06085659994278103, 0.029358699917793274, 0.09225260000675917, 0.054451300064101815, 0.03773089998867363, 13.186611699988134]",0,,,,,,,,,,,,,,,,,,,,,,,,,,,,,,,,,,,,,,,,,,,,,,,,,,,,,,,,,,,,,,,,,,,,,,,,,,,,,,,,,,,,,,,,,,,,,,,,,,,,,,,,,,,,,,,,,,,,,,,,,,,,GYWY7N,train_x,red_square,bottom_right,2025-07-16_18h11.58.709,HideSeek_v1,2022.2.5,59.970230788128646,
1,8,2,3,2,-5,0,66,2,instr_dim1_1,,,,,,0,0,0,0,,,,,0,0,0,0,,,,,,,,,,,,,,,,,,,,,,,,,,,,,,,,,,,,,stimuli/alien_stimuli/66.png,conditions/schedules/train_x_first/red_square_00/bottom_right/inputInstr_1.xlsx,stimuli/alien_stimuli/66.png,972.0729549999814,972.0729549999814,972.0729549999814,972.0729549999814,972.0662482299842,return,9.625359799945727,"[-0.16, -0.08, 0, 0.08, 0.16, 0.24, 0.32, 0.4, 0.48, 0.56]","[-0.4, -0.32, -0.24, -0.16, -0.08, 0, 0.08, 0.16, 0.24, 0.32]",2,2,3,8,0.0,0.4,981.8437781999819,981.8437781999819,981.8437781999819,981.8437781999819,981.8437781999819,981.8437781999819,981.8437781999819,981.840484820027,19.61741459998302,return,19.471324400044978,stimuli/alien_stimuli/66.png,66,8,1,,,,,,,,,,,,,,,,,,,,,,,,,,,,,,,,,,,,,,,,,,,,,,,,,,,,,,,,,,,,,,,,,,,,,,,,,,,,,,,,,,,,,,,,,GYWY7N,train_x,red_square,bottom_right,2025-07-16_18h11.58.709,HideSeek_v1,2022.2.5,59.970230788128646,
,,,,,,,,,,,30,,,,0,0,0,0,,,,,,,,,,,,,,,,,,,,,,,,,,,,,,,,,,,,,,,,,,,,,,,,,,,,,,,,,,,,,,,,,,,,,,,,,,,,,,21,0.7,0,0,99,1,30,0,conditions/schedules/train_x_first/red_square_00/bottom_right/inputTrain_1.1.xlsx,99,1,1,1,0,,,,,,,,,,,,,,,,,,,,,,,,,,,,,,,,,,,,,,,,,,,,,,,,,,,,,,,,,,,,,,,,,,,,,,,,,,,GYWY7N,train_x,red_square,bottom_right,2025-07-16_18h11.58.709,HideSeek_v1,2022.2.5,59.970230788128646,
,,,,,,,,,,,,,,,1,0,1,0,0,0,0,0,,,,,,,,,,,,,,,,,,,,,,,,,,,,,,,conditions/schedules/train_x_first/red_square_00/bottom_right/instructions/Slide13.png,conditions/schedules/train_x_first/red_square_00/bottom_right/instructions/Audio13.wav,1001.5048978999257,1001.5072591899894,13,"[9.767794999992475, 19.460487299948, 17.608379799989052, 19.958077699993737, 6.404378199949861, 6.149202300002798, 5.9317845000186935, 11.969809499918483, 7.165168599924073, 7.4628012999892235, 9.963896700064652, 13.18660210003145, 20.816326799918897]","[0.04518299992196262, 0.06318499997723848, 0.00029989995528012514, 0.00031919998582452536, 0.029016899992711842, 0.060740499990060925, 0.06085659994278103, 0.029358699917793274, 0.09225260000675917, 0.054451300064101815, 0.03773089998867363, 13.186611699988134, 20.816336199990474]",0,,,,,,,,,,,,,,,,,,,,,,,,,,,,,,,,,,,,,,,,,,,,,,,,,,,,,,,,,,,,,,,,,,,,,,,,,,,,,,,,,,,,,,,,,,,,,,,,,,,,,,,,,,,,,,,,,,,,,,,,,,,,GYWY7N,train_x,red_square,bottom_right,2025-07-16_18h11.58.709,HideSeek_v1,2022.2.5,59.970230788128646,
,,,,,,,,,,,,,,,1,0,1,0,1,0,1,0,,,,,,,,,,,,,,,,,,,,,,,,,,,,,,,conditions/schedules/train_x_first/red_square_00/bottom_right/instructions/Slide14.png,conditions/schedules/train_x_first/red_square_00/bottom_right/instructions/Audio14.wav,1022.3982308999402,1022.391792349983,14,"[9.767794999992475, 19.460487299948, 17.608379799989052, 19.958077699993737, 6.404378199949861, 6.149202300002798, 5.9317845000186935, 11.969809499918483, 7.165168599924073, 7.4628012999892235, 9.963896700064652, 13.18660210003145, 20.816326799918897, 13.401848600013182]","[0.04518299992196262, 0.06318499997723848, 0.00029989995528012514, 0.00031919998582452536, 0.029016899992711842, 0.060740499990060925, 0.06085659994278103, 0.029358699917793274, 0.09225260000675917, 0.054451300064101815, 0.03773089998867363, 13.186611699988134, 0.05699319997802377, 13.40185680007562]",0,,,,,,,,,,,,,,,,,,,,,,,,,,,,,,,,,,,,,,,,,,,,,,,,,,,,,,,,,,,,,,,,,,,,,,,,,,,,,,,,,,,,,,,,,,,,,,,,,,,,,,,,,,,,,,,,,,,,,,,,,,,,GYWY7N,train_x,red_square,bottom_right,2025-07-16_18h11.58.709,HideSeek_v1,2022.2.5,59.970230788128646,
2,9,0,9,0,0,0,16,2,instr_dim1_1,,,,,,1,0,1,0,,,,,0,0,0,0,,,,,,,,,,,,,,,,,,,,,,,,,,,,,,,,,,,,,stimuli/alien_stimuli/16.png,conditions/schedules/train_x_first/red_square_00/bottom_right/inputInstr_1.xlsx,stimuli/alien_stimuli/16.png,1035.911419599899,1035.911419599899,1035.911419599899,1035.911419599899,1035.9030426299896,return,4.553522099973634,"[-0.16, -0.08, 0, 0.08, 0.16, 0.24, 0.32, 0.4, 0.48, 0.56]","[-0.4, -0.32, -0.24, -0.16, -0.08, 0, 0.08, 0.16, 0.24, 0.32]",0,0,9,9,0.0,0.0,1040.6414751999546,1040.6414751999546,1040.6414751999546,1040.6414751999546,1040.6414751999546,1040.6414751999546,1040.6414751999546,1040.6236624099313,7.840302699944004,return,7.65496030007489,stimuli/alien_stimuli/16.png,16,9,2,,,,,,,,,,,,,,,,,,,,,,,,,,,,,,,,,,,,,,,,,,,,,,,,,,,,,,,,,,,,,,,,,,,,,,,,,,,,,,,,,,,,,,,,,GYWY7N,train_x,red_square,bottom_right,2025-07-16_18h11.58.709,HideSeek_v1,2022.2.5,59.970230788128646,
,,,,,,,,,,,30,,,,1,0,1,0,,,,,,,,,,,,,,,,,,,,,,,,,,,,,,,,,,,,,,,,,,,,,,,,,,,,,,,,,,,,,,,,,,,,,,,,,,,,,,21,0.7,0,0,99,1,30,0,conditions/schedules/train_x_first/red_square_00/bottom_right/inputTrain_1.1.xlsx,99,1,1,1,0,,,,,,,,,,,,,,,,,,,,,,,,,,,,,,,,,,,,,,,,,,,,,,,,,,,,,,,,,,,,,,,,,,,,,,,,,,,GYWY7N,train_x,red_square,bottom_right,2025-07-16_18h11.58.709,HideSeek_v1,2022.2.5,59.970230788128646,
,,,,,,,,,,,,,,,2,0,2,0,0,0,0,0,,,,,,,,,,,,,,,,,,,,,,,,,,,,,,,conditions/schedules/train_x_first/red_square_00/bottom_right/instructions/Slide15.png,conditions/schedules/train_x_first/red_square_00/bottom_right/instructions/Audio15.wav,1048.4776866999455,1048.4796435999451,15,"[9.767794999992475, 19.460487299948, 17.608379799989052, 19.958077699993737, 6.404378199949861, 6.149202300002798, 5.9317845000186935, 11.969809499918483, 7.165168599924073, 7.4628012999892235, 9.963896700064652, 13.18660210003145, 20.816326799918897, 13.401848600013182, 31.674600999918766]","[0.04518299992196262, 0.06318499997723848, 0.00029989995528012514, 0.00031919998582452536, 0.029016899992711842, 0.060740499990060925, 0.06085659994278103, 0.029358699917793274, 0.09225260000675917, 0.054451300064101815, 0.03773089998867363, 13.186611699988134, 0.05699319997802377, 13.40185680007562, 31.674608999979682]",0,,,,,,,,,,,,,,,,,,,,,,,,,,,,,,,,,,,,,,,,,,,,,,,,,,,,,,,,,,,,,,,,,,,,,,,,,,,,,,,,,,,,,,,,,,,,,,,,,,,,,,,,,,,,,,,,,,,,,,,,,,,,GYWY7N,train_x,red_square,bottom_right,2025-07-16_18h11.58.709,HideSeek_v1,2022.2.5,59.970230788128646,
,,,,,,,,,,,,,,,2,0,2,0,1,0,1,0,,,,,,,,,,,,,,,,,,,,,,,,,,,,,,,conditions/schedules/train_x_first/red_square_00/bottom_right/instructions/Slide16.png,conditions/schedules/train_x_first/red_square_00/bottom_right/instructions/Audio16.wav,1080.2350200999063,1080.2229569499614,16,"[9.767794999992475, 19.460487299948, 17.608379799989052, 19.958077699993737, 6.404378199949861, 6.149202300002798, 5.9317845000186935, 11.969809499918483, 7.165168599924073, 7.4628012999892235, 9.963896700064652, 13.18660210003145, 20.816326799918897, 13.401848600013182, 31.674600999918766, 22.886335999937728]","[0.04518299992196262, 0.06318499997723848, 0.00029989995528012514, 0.00031919998582452536, 0.029016899992711842, 0.060740499990060925, 0.06085659994278103, 0.029358699917793274, 0.09225260000675917, 0.054451300064101815, 0.03773089998867363, 13.186611699988134, 0.05699319997802377, 13.40185680007562, 0.013066599960438907, 22.88635089993477]",0,,,,,,,,,,,,,,,,,,,,,,,,,,,,,,,,,,,,,,,,,,,,,,,,,,,,,,,,,,,,,,,,,,,,,,,,,,,,,,,,,,,,,,,,,,,,,,,,,,,,,,,,,,,,,,,,,,,,,,,,,,,,GYWY7N,train_x,red_square,bottom_right,2025-07-16_18h11.58.709,HideSeek_v1,2022.2.5,59.970230788128646,
,7,1,4,1,-3,0,46,,train_dim1_1,1,30,,,,2,0,2,0,,,,,,,,,0,0,0,0,0,0,0,0,0,0,0,0,,,,,,,,,,,,,,,,,,,,,,,,,stimuli/alien_stimuli/46.png,,,,,,,,,,,,,,,,,,,,,,,,,,,,,,,,,,,,,,,30,,,,,,,,1103.2262770999223,1103.2262770999223,1103.2262770999223,1103.2262770999223,1103.2262770999223,right,6.51216010004282,0,0,0,99,0.48000000000000004,-0.32,right,6.418246100074612,,,,,,,,,,,,,,,,,,,,,,,,,,,,,,,,,,,,,,,,,,,,,,,,,,,,,,,,,,,,GYWY7N,train_x,red_square,bottom_right,2025-07-16_18h11.58.709,HideSeek_v1,2022.2.5,59.970230788128646,
,7,1,4,1,-3,0,46,,train_dim1_1,1,30,,,,2,0,2,0,,,,,,,,,0,0,0,0,0,0,0,0,1,0,1,0,,,,,,,,,,,,,,,,,,,,,,,,,,,,,,,,,,,,,,,,,,,,,,,,,,,,,,,,,,,,,,,,30,,,,,,,,1109.7299385999795,1109.7299385999795,1109.7299385999795,1109.7299385999795,1109.7299385999795,left,3.0948882999364287,0,0,0,99,0.4,-0.32,left,3.014417099999264,,,,,,,,,,,,,,,,,,,,,,,,,,,,,,,,,,,,,,,,,,,,,,,,,,,,,,,,,,,,GYWY7N,train_x,red_square,bottom_right,2025-07-16_18h11.58.709,HideSeek_v1,2022.2.5,59.970230788128646,
,7,1,4,1,-3,0,46,,train_dim1_1,1,30,,,,2,0,2,0,,,,,,,,,0,0,0,0,0,0,0,0,2,0,2,0,,,,,,,,,,,,,,,,,,,,,,,,,,,,,,,,,,,,,,,,,,,,,,,,,,,,,,,,,,,,,,,,30,,,,,,,,1112.8328913999721,1112.8328913999721,1112.8328913999721,1112.8328913999721,1112.8328913999721,return,1.2602225999580696,0,0,0,0,0.4,-0.32,return,1.1722421000013128,0,0,0.4,-0.32,,,,,,,,,,,,,,,,,,,,,,,,,,,,,,,,,,,,,,,,,,,,,,,,,,,,,,,,GYWY7N,train_x,red_square,bottom_right,2025-07-16_18h11.58.709,HideSeek_v1,2022.2.5,59.970230788128646,
,7,4,7,4,0,0,16,,train_dim1_1,2,30,,,,2,0,2,0,,,,,,,,,0,0,0,0,0,1,1,1,0,0,0,0,,,,,,,,,,,,,,,,,,,,,,,,,stimuli/alien_stimuli/16.png,,,,,,,,,,,,,,,,,,,,,,,,,,,,,stimuli/alien_stimuli/46.png,46,7,3,,,,,,,30,,,,,,,,1133.6065384999383,1133.6065384999383,1133.6065384999383,1133.6065384999383,1133.6065384999383,up,6.108601100044325,0,0,0,99,0.4,0.0,up,5.9873842999804765,,,,,1132.014543099911,1133.6065384999383,0.16,-0.32,0.0,0.24,-0.32,0.16,0.28,0.16,-0.32,1115.671432999894,1115.671432999894,1115.671432999894,1115.671432999894,1115.671432999894,1115.671432999894,1115.671432999894,1115.671432999894,1115.6697021199623,16.46670119999908,return,16.328249100013636,,,,,,,,,,,,,,,,,,,,,,,,,,,,,,,,,GYWY7N,train_x,red_square,bottom_right,2025-07-16_18h11.58.709,HideSeek_v1,2022.2.5,59.970230788128646,
,7,4,7,4,0,0,16,,train_dim1_1,2,30,,,,2,0,2,0,,,,,,,,,0,0,0,0,0,1,1,1,1,0,1,0,,,,,,,,,,,,,,,,,,,,,,,,,,,,,,,,,,,,,,,,,,,,,,,,,,,,,,,,,,,,,,,,30,,,,,,,,1139.6945913999807,1139.6945913999807,1139.6945913999807,1139.6945913999807,1139.6945913999807,up,1.4437076000031084,0,0,0,99,0.4,0.08,up,1.3585746999597177,,,,,,,,,,,,,,,,,,,,,,,,,,,,,,,,,,,,,,,,,,,,,,,,,,,,,,,,,,,,GYWY7N,train_x,red_square,bottom_right,2025-07-16_18h11.58.709,HideSeek_v1,2022.2.5,59.970230788128646,
,7,4,7,4,0,0,16,,train_dim1_1,2,30,,,,2,0,2,0,,,,,,,,,0,0,0,0,0,1,1,1,2,0,2,0,,,,,,,,,,,,,,,,,,,,,,,,,,,,,,,,,,,,,,,,,,,,,,,,,,,,,,,,,,,,,,,,30,,,,,,,,1141.1447713999078,1141.1447713999078,1141.1447713999078,1141.1447713999078,1141.1447713999078,up,0.5774161999579519,0,0,0,99,0.4,0.16,up,0.4945140000199899,,,,,,,,,,,,,,,,,,,,,,,,,,,,,,,,,,,,,,,,,,,,,,,,,,,,,,,,,,,,GYWY7N,train_x,red_square,bottom_right,2025-07-16_18h11.58.709,HideSeek_v1,2022.2.5,59.970230788128646,
,7,4,7,4,0,0,16,,train_dim1_1,2,30,,,,2,0,2,0,,,,,,,,,0,0,0,0,0,1,1,1,3,0,3,0,,,,,,,,,,,,,,,,,,,,,,,,,,,,,,,,,,,,,,,,,,,,,,,,,,,,,,,,,,,,,,,,30,,,,,,,,1141.7282802999252,1141.7282802999252,1141.7282802999252,1141.7282802999252,1141.7282802999252,return,1.5598913000430912,0,0,0,0,0.4,0.16,return,1.4710370000684634,3,0,0.4,0.16,,,,,,,,,,,,,,,,,,,,,,,,,,,,,,,,,,,,,,,,,,,,,,,,,,,,,,,,GYWY7N,train_x,red_square,bottom_right,2025-07-16_18h11.58.709,HideSeek_v1,2022.2.5,59.970230788128646,
,9,4,8,4,-1,0,26,,train_dim1_1,3,30,,,,2,0,2,0,,,,,,,,,0,0,0,0,0,2,2,2,0,0,0,0,,,,,,,,,,,,,,,,,,,,,,,,,stimuli/alien_stimuli/26.png,,,,,,,,,,,,,,,,,,,,,,,,,,,,,stimuli/alien_stimuli/16.png,16,7,4,,,,,,,30,,,,,,,,1152.1279050000012,1152.1279050000012,1152.1279050000012,1152.1279050000012,1152.1279050000012,down,1.6905973000684753,0,0,0,99,0.56,-0.16,down,1.6004933998920023,,,,,1150.5626447999384,1152.1279050000012,0.4,-0.08,0.0,0.0,-0.08,0.4,0.4,0.4,-0.08,1144.873675199924,1144.873675199924,1144.873675199924,1144.873675199924,1144.873675199924,1144.873675199924,1144.873675199924,1144.873675199924,1144.8600481199799,5.824119199998677,return,5.670661300071515,,,,,,,,,,,,,,,,,,,,,,,,,,,,,,,,,GYWY7N,train_x,red_square,bottom_right,2025-07-16_18h11.58.709,HideSeek_v1,2022.2.5,59.970230788128646,
,9,4,8,4,-1,0,26,,train_dim1_1,3,30,,,,2,0,2,0,,,,,,,,,0,0,0,0,0,2,2,2,1,0,1,0,,,,,,,,,,,,,,,,,,,,,,,,,,,,,,,,,,,,,,,,,,,,,,,,,,,,,,,,,,,,,,,,30,,,,,,,,1153.8216762999073,1153.8216762999073,1153.8216762999073,1153.8216762999073,1153.8216762999073,left,2.8274221000028774,0,0,0,99,0.48000000000000004,-0.16,left,2.7422667000209913,,,,,,,,,,,,,,,,,,,,,,,,,,,,,,,,,,,,,,,,,,,,,,,,,,,,,,,,,,,,GYWY7N,train_x,red_square,bottom_right,2025-07-16_18h11.58.709,HideSeek_v1,2022.2.5,59.970230788128646,
,9,4,8,4,-1,0,26,,train_dim1_1,3,30,,,,2,0,2,0,,,,,,,,,0,0,0,0,0,2,2,2,2,0,2,0,,,,,,,,,,,,,,,,,,,,,,,,,,,,,,,,,,,,,,,,,,,,,,,,,,,,,,,,,,,,,,,,30,,,,,,,,1156.6569071999984,1156.6569071999984,1156.6569071999984,1156.6569071999984,1156.6569071999984,return,0.9933208000147715,0,1,0,0,0.48000000000000004,-0.16,return,0.9053274999605492,2,-1,0.48000000000000004,-0.16,,,,,,,,,,,,,,,,,,,,,,,,,,,,,,,,,,,,,,,,,,,,,,,,,,,,,,,,GYWY7N,train_x,red_square,bottom_right,2025-07-16_18h11.58.709,HideSeek_v1,2022.2.5,59.970230788128646,
,7,3,3,3,-4,0,56,,train_dim1_1,4,30,,,,2,0,2,0,,,,,,,,,0,0,0,0,0,3,3,3,0,0,0,0,,,,,,,,,,,,,,,,,,,,,,,,,stimuli/alien_stimuli/56.png,,,,,,,,,,,,,,,,,,,,,,,,,,,,,stimuli/alien_stimuli/26.png,26,9,5,,,,,,,30,,,,,,,,1169.1931792999385,1169.1931792999385,1169.1931792999385,1169.1931792999385,1169.1931792999385,left,1.2228240000549704,0,1,0,99,0.32,-0.16,left,1.1274809999158606,,,,,1167.6289951999206,1169.1931792999385,0.48,-0.08,0.0,0.08,-0.08,0.48,0.52,0.48,-0.08,1159.238377199974,1159.238377199974,1159.238377199974,1159.238377199974,1159.238377199974,1159.238377199974,1159.238377199974,1159.238377199974,1159.2219556199386,8.527827800018713,return,8.366764700040221,,,,,,,,,,,,,,,,,,,,,,,,,,,,,,,,,GYWY7N,train_x,red_square,bottom_right,2025-07-16_18h11.58.709,HideSeek_v1,2022.2.5,59.970230788128646,
,7,3,3,3,-4,0,56,,train_dim1_1,4,30,,,,2,0,2,0,,,,,,,,,0,0,0,0,0,3,3,3,1,0,1,0,,,,,,,,,,,,,,,,,,,,,,,,,,,,,,,,,,,,,,,,,,,,,,,,,,,,,,,,,,,,,,,,30,,,,,,,,1170.4155937999021,1170.4155937999021,1170.4155937999021,1170.4155937999021,1170.4155937999021,left,0.2085536998929456,0,1,0,99,0.24,-0.16,left,0.11979310004971921,,,,,,,,,,,,,,,,,,,,,,,,,,,,,,,,,,,,,,,,,,,,,,,,,,,,,,,,,,,,GYWY7N,train_x,red_square,bottom_right,2025-07-16_18h11.58.709,HideSeek_v1,2022.2.5,59.970230788128646,
,7,3,3,3,-4,0,56,,train_dim1_1,4,30,,,,2,0,2,0,,,,,,,,,0,0,0,0,0,3,3,3,2,0,2,0,,,,,,,,,,,,,,,,,,,,,,,,,,,,,,,,,,,,,,,,,,,,,,,,,,,,,,,,,,,,,,,,30,,,,,,,,1170.6328262999887,1170.6328262999887,1170.6328262999887,1170.6328262999887,1170.6328262999887,left,0.1761315999319777,0,1,0,99,0.15999999999999998,-0.16,left,0.0904601999791339,,,,,,,,,,,,,,,,,,,,,,,,,,,,,,,,,,,,,,,,,,,,,,,,,,,,,,,,,,,,GYWY7N,train_x,red_square,bottom_right,2025-07-16_18h11.58.709,HideSeek_v1,2022.2.5,59.970230788128646,
,7,3,3,3,-4,0,56,,train_dim1_1,4,30,,,,2,0,2,0,,,,,,,,,0,0,0,0,0,3,3,3,3,0,3,0,,,,,,,,,,,,,,,,,,,,,,,,,,,,,,,,,,,,,,,,,,,,,,,,,,,,,,,,,,,,,,,,30,,,,,,,,1170.8161555998959,1170.8161555998959,1170.8161555998959,1170.8161555998959,1170.8161555998959,left,0.15896320005413145,0,1,0,99,0.07999999999999997,-0.16,left,0.07892940007150173,,,,,,,,,,,,,,,,,,,,,,,,,,,,,,,,,,,,,,,,,,,,,,,,,,,,,,,,,,,,GYWY7N,train_x,red_square,bottom_right,2025-07-16_18h11.58.709,HideSeek_v1,2022.2.5,59.970230788128646,
,7,3,3,3,-4,0,56,,train_dim1_1,4,30,,,,2,0,2,0,,,,,,,,,0,0,0,0,0,3,3,3,4,0,4,0,,,,,,,,,,,,,,,,,,,,,,,,,,,,,,,,,,,,,,,,,,,,,,,,,,,,,,,,,,,,,,,,30,,,,,,,,1170.9853483999614,1170.9853483999614,1170.9853483999614,1170.9853483999614,1170.9853483999614,right,0.8257025999482721,0,1,0,99,0.15999999999999998,-0.16,right,0.7405137999448925,,,,,,,,,,,,,,,,,,,,,,,,,,,,,,,,,,,,,,,,,,,,,,,,,,,,,,,,,,,,GYWY7N,train_x,red_square,bottom_right,2025-07-16_18h11.58.709,HideSeek_v1,2022.2.5,59.970230788128646,
,7,3,3,3,-4,0,56,,train_dim1_1,4,30,,,,2,0,2,0,,,,,,,,,0,0,0,0,0,3,3,3,5,0,5,0,,,,,,,,,,,,,,,,,,,,,,,,,,,,,,,,,,,,,,,,,,,,,,,,,,,,,,,,,,,,,,,,30,,,,,,,,1171.8241949999938,1171.8241949999938,1171.8241949999938,1171.8241949999938,1171.8241949999938,right,0.3428042000159621,0,1,0,99,0.24,-0.16,right,0.24873559991829097,,,,,,,,,,,,,,,,,,,,,,,,,,,,,,,,,,,,,,,,,,,,,,,,,,,,,,,,,,,,GYWY7N,train_x,red_square,bottom_right,2025-07-16_18h11.58.709,HideSeek_v1,2022.2.5,59.970230788128646,
,7,3,3,3,-4,0,56,,train_dim1_1,4,30,,,,2,0,2,0,,,,,,,,,0,0,0,0,0,3,3,3,6,0,6,0,,,,,,,,,,,,,,,,,,,,,,,,,,,,,,,,,,,,,,,,,,,,,,,,,,,,,,,,,,,,,,,,30,,,,,,,,1172.1686540999217,1172.1686540999217,1172.1686540999217,1172.1686540999217,1172.1686540999217,up,1.392872600001283,0,1,0,99,0.24,-0.08,up,1.3091875000391155,,,,,,,,,,,,,,,,,,,,,,,,,,,,,,,,,,,,,,,,,,,,,,,,,,,,,,,,,,,,GYWY7N,train_x,red_square,bottom_right,2025-07-16_18h11.58.709,HideSeek_v1,2022.2.5,59.970230788128646,
,7,3,3,3,-4,0,56,,train_dim1_1,4,30,,,,2,0,2,0,,,,,,,,,0,0,0,0,0,3,3,3,7,0,7,0,,,,,,,,,,,,,,,,,,,,,,,,,,,,,,,,,,,,,,,,,,,,,,,,,,,,,,,,,,,,,,,,30,,,,,,,,1173.5714634999167,1173.5714634999167,1173.5714634999167,1173.5714634999167,1173.5714634999167,return,0.8075439999811351,0,0,0,0,0.24,-0.08,return,0.7200589999556541,3,-3,0.24,-0.08,,,,,,,,,,,,,,,,,,,,,,,,,,,,,,,,,,,,,,,,,,,,,,,,,,,,,,,,GYWY7N,train_x,red_square,bottom_right,2025-07-16_18h11.58.709,HideSeek_v1,2022.2.5,59.970230788128646,
,5,2,0,2,-5,0,66,,train_dim1_1,5,30,,,,2,0,2,0,,,,,,,,,0,0,0,0,0,4,4,4,0,0,0,0,,,,,,,,,,,,,,,,,,,,,,,,,stimuli/alien_stimuli/66.png,,,,,,,,,,,,,,,,,,,,,,,,,,,,,stimuli/alien_stimuli/56.png,56,7,6,,,,,,,30,,,,,,,,1180.1190916999476,1180.1190916999476,1180.1190916999476,1180.1190916999476,1180.1190916999476,right,1.253126399940811,0,0,0,99,0.32,-0.24,right,1.1530162000562996,,,,,1178.5373440999538,1180.1190916999476,0.08,-0.16,0.0,0.32,-0.16,0.08,0.24000000000000002,0.08,-0.16,1175.9566581998952,1175.9566581998952,1175.9566581998952,1175.9566581998952,1175.9566581998952,1175.9566581998952,1175.9566581998952,1175.9566581998952,1175.9520495199365,2.7048459999496117,return,2.557858199928887,,,,,,,,,,,,,,,,,,,,,,,,,,,,,,,,,GYWY7N,train_x,red_square,bottom_right,2025-07-16_18h11.58.709,HideSeek_v1,2022.2.5,59.970230788128646,
,5,2,0,2,-5,0,66,,train_dim1_1,5,30,,,,2,0,2,0,,,,,,,,,0,0,0,0,0,4,4,4,1,0,1,0,,,,,,,,,,,,,,,,,,,,,,,,,,,,,,,,,,,,,,,,,,,,,,,,,,,,,,,,,,,,,,,,30,,,,,,,,1181.3622503998922,1181.3622503998922,1181.3622503998922,1181.3622503998922,1181.3622503998922,up,2.3788746000500396,0,0,0,99,0.32,-0.15999999999999998,up,2.2921332999831066,,,,,,,,,,,,,,,,,,,,,,,,,,,,,,,,,,,,,,,,,,,,,,,,,,,,,,,,,,,,GYWY7N,train_x,red_square,bottom_right,2025-07-16_18h11.58.709,HideSeek_v1,2022.2.5,59.970230788128646,
,5,2,0,2,-5,0,66,,train_dim1_1,5,30,,,,2,0,2,0,,,,,,,,,0,0,0,0,0,4,4,4,2,0,2,0,,,,,,,,,,,,,,,,,,,,,,,,,,,,,,,,,,,,,,,,,,,,,,,,,,,,,,,,,,,,,,,,30,,,,,,,,1183.7408365999581,1183.7408365999581,1183.7408365999581,1183.7408365999581,1183.7408365999581,left,0.45987769996281713,0,0,0,99,0.24,-0.15999999999999998,left,0.3816678000148386,,,,,,,,,,,,,,,,,,,,,,,,,,,,,,,,,,,,,,,,,,,,,,,,,,,,,,,,,,,,GYWY7N,train_x,red_square,bottom_right,2025-07-16_18h11.58.709,HideSeek_v1,2022.2.5,59.970230788128646,
,5,2,0,2,-5,0,66,,train_dim1_1,5,30,,,,2,0,2,0,,,,,,,,,0,0,0,0,0,4,4,4,3,0,3,0,,,,,,,,,,,,,,,,,,,,,,,,,,,,,,,,,,,,,,,,,,,,,,,,,,,,,,,,,,,,,,,,30,,,,,,,,1184.2088364999508,1184.2088364999508,1184.2088364999508,1184.2088364999508,1184.2088364999508,return,1.0618354000616819,0,0,0,0,0.24,-0.15999999999999998,return,0.9805616000667214,4,-3,0.24,-0.15999999999999998,,,,,,,,,,,,,,,,,,,,,,,,,,,,,,,,,,,,,,,,,,,,,,,,,,,,,,,,GYWY7N,train_x,red_square,bottom_right,2025-07-16_18h11.58.709,HideSeek_v1,2022.2.5,59.970230788128646,
,5,0,4,0,-1,0,26,,train_dim1_1,6,30,,,,2,0,2,0,,,,,,,,,0,0,0,0,0,5,5,5,0,0,0,0,,,,,,,,,,,,,,,,,,,,,,,,,stimuli/alien_stimuli/26.png,,,,,,,,,,,,,,,,,,,,,,,,,,,,,stimuli/alien_stimuli/66.png,66,5,7,,,,,,,30,,,,,,,,1191.2305672999937,1191.2305672999937,1191.2305672999937,1191.2305672999937,1191.2305672999937,left,0.5547978000249714,0,0,0,99,0.15999999999999998,-0.4,left,0.4659496999811381,,,,,1189.6637619999237,1191.2305672999937,-0.16,-0.24,0.0,0.4,-0.24,-0.16,0.039999999999999994,-0.16,-0.24,1186.845972299925,1186.845972299925,1186.845972299925,1186.845972299925,1186.845972299925,1186.845972299925,1186.845972299925,1186.845972299925,1186.8271621299673,2.941387700033374,return,2.795005299965851,,,,,,,,,,,,,,,,,,,,,,,,,,,,,,,,,GYWY7N,train_x,red_square,bottom_right,2025-07-16_18h11.58.709,HideSeek_v1,2022.2.5,59.970230788128646,
,5,0,4,0,-1,0,26,,train_dim1_1,6,30,,,,2,0,2,0,,,,,,,,,0,0,0,0,0,5,5,5,1,0,1,0,,,,,,,,,,,,,,,,,,,,,,,,,,,,,,,,,,,,,,,,,,,,,,,,,,,,,,,,,,,,,,,,30,,,,,,,,1191.7851261999458,1191.7851261999458,1191.7851261999458,1191.7851261999458,1191.7851261999458,left,0.2264556000009179,0,0,0,99,0.07999999999999997,-0.4,left,0.14595789997838438,,,,,,,,,,,,,,,,,,,,,,,,,,,,,,,,,,,,,,,,,,,,,,,,,,,,,,,,,,,,GYWY7N,train_x,red_square,bottom_right,2025-07-16_18h11.58.709,HideSeek_v1,2022.2.5,59.970230788128646,
,5,0,4,0,-1,0,26,,train_dim1_1,6,30,,,,2,0,2,0,,,,,,,,,0,0,0,0,0,5,5,5,2,0,2,0,,,,,,,,,,,,,,,,,,,,,,,,,,,,,,,,,,,,,,,,,,,,,,,,,,,,,,,,,,,,,,,,30,,,,,,,,1192.0189892998897,1192.0189892998897,1192.0189892998897,1192.0189892998897,1192.0189892998897,left,0.2593404999934137,0,0,0,99,-2.7755575615628914e-17,-0.4,left,0.16944470000453293,,,,,,,,,,,,,,,,,,,,,,,,,,,,,,,,,,,,,,,,,,,,,,,,,,,,,,,,,,,,GYWY7N,train_x,red_square,bottom_right,2025-07-16_18h11.58.709,HideSeek_v1,2022.2.5,59.970230788128646,
,5,0,4,0,-1,0,26,,train_dim1_1,6,30,,,,2,0,2,0,,,,,,,,,0,0,0,0,0,5,5,5,3,0,3,0,,,,,,,,,,,,,,,,,,,,,,,,,,,,,,,,,,,,,,,,,,,,,,,,,,,,,,,,,,,,,,,,30,,,,,,,,1192.2862279999536,1192.2862279999536,1192.2862279999536,1192.2862279999536,1192.2862279999536,left,0.19420210004318506,0,0,0,99,-0.08000000000000003,-0.4,left,0.1019094999646768,,,,,,,,,,,,,,,,,,,,,,,,,,,,,,,,,,,,,,,,,,,,,,,,,,,,,,,,,,,,GYWY7N,train_x,red_square,bottom_right,2025-07-16_18h11.58.709,HideSeek_v1,2022.2.5,59.970230788128646,
,5,0,4,0,-1,0,26,,train_dim1_1,6,30,,,,2,0,2,0,,,,,,,,,0,0,0,0,0,5,5,5,4,0,4,0,,,,,,,,,,,,,,,,,,,,,,,,,,,,,,,,,,,,,,,,,,,,,,,,,,,,,,,,,,,,,,,,30,,,,,,,,1192.4867395999609,1192.4867395999609,1192.4867395999609,1192.4867395999609,1192.4867395999609,up,0.6754632000811398,0,0,0,99,-0.08000000000000003,-0.32,right,0.6029569000238553,,,,,,,,,,,,,,,,,,,,,,,,,,,,,,,,,,,,,,,,,,,,,,,,,,,,,,,,,,,,GYWY7N,train_x,red_square,bottom_right,2025-07-16_18h11.58.709,HideSeek_v1,2022.2.5,59.970230788128646,
,5,0,4,0,-1,0,26,,train_dim1_1,6,30,,,,2,0,2,0,,,,,,,,,0,0,0,0,0,5,5,5,5,0,5,0,,,,,,,,,,,,,,,,,,,,,,,,,,,,,,,,,,,,,,,,,,,,,,,,,,,,,,,,,,,,,,,,30,,,,,,,,1193.170598299941,1193.170598299941,1193.170598299941,1193.170598299941,1193.170598299941,right,0.3931369000347331,0,0,0,99,-2.7755575615628914e-17,-0.32,right,0.3015334999654442,,,,,,,,,,,,,,,,,,,,,,,,,,,,,,,,,,,,,,,,,,,,,,,,,,,,,,,,,,,,GYWY7N,train_x,red_square,bottom_right,2025-07-16_18h11.58.709,HideSeek_v1,2022.2.5,59.970230788128646,
,5,0,4,0,-1,0,26,,train_dim1_1,6,30,,,,2,0,2,0,,,,,,,,,0,0,0,0,0,5,5,5,6,0,6,0,,,,,,,,,,,,,,,,,,,,,,,,,,,,,,,,,,,,,,,,,,,,,,,,,,,,,,,,,,,,,,,,30,,,,,,,,1193.5696995999897,1193.5696995999897,1193.5696995999897,1193.5696995999897,1193.5696995999897,up,0.42648110003210604,0,0,0,99,-2.7755575615628914e-17,-0.24,up,0.333979899995029,,,,,,,,,,,,,,,,,,,,,,,,,,,,,,,,,,,,,,,,,,,,,,,,,,,,,,,,,,,,GYWY7N,train_x,red_square,bottom_right,2025-07-16_18h11.58.709,HideSeek_v1,2022.2.5,59.970230788128646,
,5,0,4,0,-1,0,26,,train_dim1_1,6,30,,,,2,0,2,0,,,,,,,,,0,0,0,0,0,5,5,5,7,0,7,0,,,,,,,,,,,,,,,,,,,,,,,,,,,,,,,,,,,,,,,,,,,,,,,,,,,,,,,,,,,,,,,,30,,,,,,,,1194.0045329999411,1194.0045329999411,1194.0045329999411,1194.0045329999411,1194.0045329999411,right,0.2932390000205487,0,0,0,99,0.07999999999999997,-0.24,right,0.19834919995628297,,,,,,,,,,,,,,,,,,,,,,,,,,,,,,,,,,,,,,,,,,,,,,,,,,,,,,,,,,,,GYWY7N,train_x,red_square,bottom_right,2025-07-16_18h11.58.709,HideSeek_v1,2022.2.5,59.970230788128646,
,5,0,4,0,-1,0,26,,train_dim1_1,6,30,,,,2,0,2,0,,,,,,,,,0,0,0,0,0,5,5,5,8,0,8,0,,,,,,,,,,,,,,,,,,,,,,,,,,,,,,,,,,,,,,,,,,,,,,,,,,,,,,,,,,,,,,,,30,,,,,,,,1194.3220524999779,1194.3220524999779,1194.3220524999779,1194.3220524999779,1194.3220524999779,right,0.2754318999359384,0,0,0,99,0.15999999999999998,-0.24,right,0.17264020000584424,,,,,,,,,,,,,,,,,,,,,,,,,,,,,,,,,,,,,,,,,,,,,,,,,,,,,,,,,,,,GYWY7N,train_x,red_square,bottom_right,2025-07-16_18h11.58.709,HideSeek_v1,2022.2.5,59.970230788128646,
,5,0,4,0,-1,0,26,,train_dim1_1,6,30,,,,2,0,2,0,,,,,,,,,0,0,0,0,0,5,5,5,9,0,9,0,,,,,,,,,,,,,,,,,,,,,,,,,,,,,,,,,,,,,,,,,,,,,,,,,,,,,,,,,,,,,,,,30,,,,,,,,1194.588125399896,1194.588125399896,1194.588125399896,1194.588125399896,1194.588125399896,return,2.4451509000500664,0,0,0,0,0.15999999999999998,-0.24,return,2.3587806000141427,6,-4,0.15999999999999998,-0.24,,,,,,,,,,,,,,,,,,,,,,,,,,,,,,,,,,,,,,,,,,,,,,,,,,,,,,,,GYWY7N,train_x,red_square,bottom_right,2025-07-16_18h11.58.709,HideSeek_v1,2022.2.5,59.970230788128646,
,8,0,3,0,-5,0,66,,train_dim1_1,7,30,,,,2,0,2,0,,,,,,,,,0,0,0,0,0,6,6,6,0,0,0,0,,,,,,,,,,,,,,,,,,,,,,,,,stimuli/alien_stimuli/66.png,,,,,,,,,,,,,,,,,,,,,,,,,,,,,stimuli/alien_stimuli/26.png,26,5,8,,,,,,,30,,,,,,,,1202.3008113999385,1202.3008113999385,1202.3008113999385,1202.3008113999385,1202.3008113999385,up,1.5889890999533236,0,0,0,99,0.48,-0.32,up,1.491034199949354,,,,,1200.7223179999273,1202.3008113999385,0.16,-0.4,0.0,0.08,-0.4,0.16,0.2,0.16,-0.4,1198.6180046999361,1198.6180046999361,1198.6180046999361,1198.6180046999361,1198.6180046999361,1198.6180046999361,1198.6180046999361,1198.6180046999361,1198.6044955199584,2.2382216999540105,return,2.0836055000545457,,,,,,,,,,,,,,,,,,,,,,,,,,,,,,,,,GYWY7N,train_x,red_square,bottom_right,2025-07-16_18h11.58.709,HideSeek_v1,2022.2.5,59.970230788128646,
,8,0,3,0,-5,0,66,,train_dim1_1,7,30,,,,2,0,2,0,,,,,,,,,0,0,0,0,0,6,6,6,1,0,1,0,,,,,,,,,,,,,,,,,,,,,,,,,,,,,,,,,,,,,,,,,,,,,,,,,,,,,,,,,,,,,,,,30,,,,,,,,1203.8775900999317,1203.8775900999317,1203.8775900999317,1203.8775900999317,1203.8775900999317,left,0.8271384999388829,0,0,0,99,0.39999999999999997,-0.32,left,0.7428910000016913,,,,,,,,,,,,,,,,,,,,,,,,,,,,,,,,,,,,,,,,,,,,,,,,,,,,,,,,,,,,GYWY7N,train_x,red_square,bottom_right,2025-07-16_18h11.58.709,HideSeek_v1,2022.2.5,59.970230788128646,
,8,0,3,0,-5,0,66,,train_dim1_1,7,30,,,,2,0,2,0,,,,,,,,,0,0,0,0,0,6,6,6,2,0,2,0,,,,,,,,,,,,,,,,,,,,,,,,,,,,,,,,,,,,,,,,,,,,,,,,,,,,,,,,,,,,,,,,30,,,,,,,,1204.708292700001,1204.708292700001,1204.708292700001,1204.708292700001,1204.708292700001,left,1.2764915999723598,0,0,0,99,0.31999999999999995,-0.32,left,1.1870368999661878,,,,,,,,,,,,,,,,,,,,,,,,,,,,,,,,,,,,,,,,,,,,,,,,,,,,,,,,,,,,GYWY7N,train_x,red_square,bottom_right,2025-07-16_18h11.58.709,HideSeek_v1,2022.2.5,59.970230788128646,
,8,0,3,0,-5,0,66,,train_dim1_1,7,30,,,,2,0,2,0,,,,,,,,,0,0,0,0,0,6,6,6,3,0,3,0,,,,,,,,,,,,,,,,,,,,,,,,,,,,,,,,,,,,,,,,,,,,,,,,,,,,,,,,,,,,,,,,30,,,,,,,,1205.9962817999767,1205.9962817999767,1205.9962817999767,1205.9962817999767,1205.9962817999767,return,0.740652299951762,0,0,0,0,0.31999999999999995,-0.32,return,0.6633454000111669,7,-6,0.31999999999999995,-0.32,,,,,,,,,,,,,,,,,,,,,,,,,,,,,,,,,,,,,,,,,,,,,,,,,,,,,,,,GYWY7N,train_x,red_square,bottom_right,2025-07-16_18h11.58.709,HideSeek_v1,2022.2.5,59.970230788128646,
,5,4,2,4,-3,0,46,,train_dim1_1,8,30,,,,2,0,2,0,,,,,,,,,0,0,0,0,0,7,7,7,0,0,0,0,,,,,,,,,,,,,,,,,,,,,,,,,stimuli/alien_stimuli/46.png,,,,,,,,,,,,,,,,,,,,,,,,,,,,,stimuli/alien_stimuli/66.png,66,8,9,,,,,,,30,,,,,,,,1211.2115285999607,1211.2115285999607,1211.2115285999607,1211.2115285999607,1211.2115285999607,left,0.9715079000452533,0,0,0,99,0.15999999999999998,-0.08,left,0.8598955000052229,,,,,1209.6325430999277,1211.2115285999607,0.08,-0.4,0.0,0.4,-0.4,0.08,0.27999999999999997,0.08,-0.4,1208.301879299921,1208.301879299921,1208.301879299921,1208.301879299921,1208.301879299921,1208.301879299921,1208.301879299921,1208.301879299921,1208.2953781299757,1.441853899974376,return,1.3061027999501675,,,,,,,,,,,,,,,,,,,,,,,,,,,,,,,,,GYWY7N,train_x,red_square,bottom_right,2025-07-16_18h11.58.709,HideSeek_v1,2022.2.5,59.970230788128646,
,5,4,2,4,-3,0,46,,train_dim1_1,8,30,,,,2,0,2,0,,,,,,,,,0,0,0,0,0,7,7,7,1,0,1,0,,,,,,,,,,,,,,,,,,,,,,,,,,,,,,,,,,,,,,,,,,,,,,,,,,,,,,,,,,,,,,,,30,,,,,,,,1212.165524299955,1212.165524299955,1212.165524299955,1212.165524299955,1212.165524299955,down,0.6093022000277415,0,0,0,99,0.15999999999999998,-0.16,down,0.52047460002359,,,,,,,,,,,,,,,,,,,,,,,,,,,,,,,,,,,,,,,,,,,,,,,,,,,,,,,,,,,,GYWY7N,train_x,red_square,bottom_right,2025-07-16_18h11.58.709,HideSeek_v1,2022.2.5,59.970230788128646,
,5,4,2,4,-3,0,46,,train_dim1_1,8,30,,,,2,0,2,0,,,,,,,,,0,0,0,0,0,7,7,7,2,0,2,0,,,,,,,,,,,,,,,,,,,,,,,,,,,,,,,,,,,,,,,,,,,,,,,,,,,,,,,,,,,,,,,,30,,,,,,,,1212.7822606998961,1212.7822606998961,1212.7822606998961,1212.7822606998961,1212.7822606998961,down,0.31017379998229444,0,0,0,99,0.15999999999999998,-0.24,down,0.2254638000158593,,,,,,,,,,,,,,,,,,,,,,,,,,,,,,,,,,,,,,,,,,,,,,,,,,,,,,,,,,,,GYWY7N,train_x,red_square,bottom_right,2025-07-16_18h11.58.709,HideSeek_v1,2022.2.5,59.970230788128646,
,5,4,2,4,-3,0,46,,train_dim1_1,8,30,,,,2,0,2,0,,,,,,,,,0,0,0,0,0,7,7,7,3,0,3,0,,,,,,,,,,,,,,,,,,,,,,,,,,,,,,,,,,,,,,,,,,,,,,,,,,,,,,,,,,,,,,,,30,,,,,,,,1213.0995259999763,1213.0995259999763,1213.0995259999763,1213.0995259999763,1213.0995259999763,down,0.40900330001022667,0,0,0,99,0.15999999999999998,-0.32,down,0.32202390010934323,,,,,,,,,,,,,,,,,,,,,,,,,,,,,,,,,,,,,,,,,,,,,,,,,,,,,,,,,,,,GYWY7N,train_x,red_square,bottom_right,2025-07-16_18h11.58.709,HideSeek_v1,2022.2.5,59.970230788128646,
,5,4,2,4,-3,0,46,,train_dim1_1,8,30,,,,2,0,2,0,,,,,,,,,0,0,0,0,0,7,7,7,4,0,4,0,,,,,,,,,,,,,,,,,,,,,,,,,,,,,,,,,,,,,,,,,,,,,,,,,,,,,,,,,,,,,,,,30,,,,,,,,1213.5159792999038,1213.5159792999038,1213.5159792999038,1213.5159792999038,1213.5159792999038,right,0.593142900033854,0,0,0,99,0.24,-0.32,right,0.5029413000447676,,,,,,,,,,,,,,,,,,,,,,,,,,,,,,,,,,,,,,,,,,,,,,,,,,,,,,,,,,,,GYWY7N,train_x,red_square,bottom_right,2025-07-16_18h11.58.709,HideSeek_v1,2022.2.5,59.970230788128646,
,5,4,2,4,-3,0,46,,train_dim1_1,8,30,,,,2,0,2,0,,,,,,,,,0,0,0,0,0,7,7,7,5,0,5,0,,,,,,,,,,,,,,,,,,,,,,,,,,,,,,,,,,,,,,,,,,,,,,,,,,,,,,,,,,,,,,,,30,,,,,,,,1214.1158625999233,1214.1158625999233,1214.1158625999233,1214.1158625999233,1214.1158625999233,return,1.1774966000812128,0,0,0,0,0.24,-0.32,return,1.0934855999657884,4,-6,0.24,-0.32,,,,,,,,,,,,,,,,,,,,,,,,,,,,,,,,,,,,,,,,,,,,,,,,,,,,,,,,GYWY7N,train_x,red_square,bottom_right,2025-07-16_18h11.58.709,HideSeek_v1,2022.2.5,59.970230788128646,
,6,0,2,0,-4,0,56,,train_dim1_1,9,30,,,,2,0,2,0,,,,,,,,,0,0,0,0,0,8,8,8,0,0,0,0,,,,,,,,,,,,,,,,,,,,,,,,,stimuli/alien_stimuli/56.png,,,,,,,,,,,,,,,,,,,,,,,,,,,,,stimuli/alien_stimuli/46.png,46,5,10,,,,,,,30,,,,,,,,1221.218282799935,1221.218282799935,1221.218282799935,1221.218282799935,1221.218282799935,left,0.8883964000269771,0,0,0,99,0.24,-0.4,left,0.7913275000173599,,,,,1219.6550216999603,1221.218282799935,0,-0.08,0.0,0.24,-0.08,0,0.12,0,-0.08,1216.8602378999349,1216.8602378999349,1216.8602378999349,1216.8602378999349,1216.8602378999349,1216.8602378999349,1216.8602378999349,1216.8602378999349,1216.854225229984,2.9045226000016555,return,2.769122799974866,,,,,,,,,,,,,,,,,,,,,,,,,,,,,,,,,GYWY7N,train_x,red_square,bottom_right,2025-07-16_18h11.58.709,HideSeek_v1,2022.2.5,59.970230788128646,
,6,0,2,0,-4,0,56,,train_dim1_1,9,30,,,,2,0,2,0,,,,,,,,,0,0,0,0,0,8,8,8,1,0,1,0,,,,,,,,,,,,,,,,,,,,,,,,,,,,,,,,,,,,,,,,,,,,,,,,,,,,,,,,,,,,,,,,30,,,,,,,,1222.110457999981,1222.110457999981,1222.110457999981,1222.110457999981,1222.110457999981,left,0.6424304000101984,0,0,0,99,0.15999999999999998,-0.4,left,0.5487674999749288,,,,,,,,,,,,,,,,,,,,,,,,,,,,,,,,,,,,,,,,,,,,,,,,,,,,,,,,,,,,GYWY7N,train_x,red_square,bottom_right,2025-07-16_18h11.58.709,HideSeek_v1,2022.2.5,59.970230788128646,
,6,0,2,0,-4,0,56,,train_dim1_1,9,30,,,,2,0,2,0,,,,,,,,,0,0,0,0,0,8,8,8,2,0,2,0,,,,,,,,,,,,,,,,,,,,,,,,,,,,,,,,,,,,,,,,,,,,,,,,,,,,,,,,,,,,,,,,30,,,,,,,,1222.757710399921,1222.757710399921,1222.757710399921,1222.757710399921,1222.757710399921,left,0.8265465999720618,0,0,0,99,0.07999999999999997,-0.4,left,0.7352534000528976,,,,,,,,,,,,,,,,,,,,,,,,,,,,,,,,,,,,,,,,,,,,,,,,,,,,,,,,,,,,GYWY7N,train_x,red_square,bottom_right,2025-07-16_18h11.58.709,HideSeek_v1,2022.2.5,59.970230788128646,
,6,0,2,0,-4,0,56,,train_dim1_1,9,30,,,,2,0,2,0,,,,,,,,,0,0,0,0,0,8,8,8,3,0,3,0,,,,,,,,,,,,,,,,,,,,,,,,,,,,,,,,,,,,,,,,,,,,,,,,,,,,,,,,,,,,,,,,30,,,,,,,,1223.5951160999248,1223.5951160999248,1223.5951160999248,1223.5951160999248,1223.5951160999248,return,0.510938800056465,0,1,0,0,0.07999999999999997,-0.4,return,0.4277282999828458,4,-9,0.07999999999999997,-0.4,,,,,,,,,,,,,,,,,,,,,,,,,,,,,,,,,,,,,,,,,,,,,,,,,,,,,,,,GYWY7N,train_x,red_square,bottom_right,2025-07-16_18h11.58.709,HideSeek_v1,2022.2.5,59.970230788128646,
,5,3,5,3,0,0,16,,train_dim1_1,10,30,,,,2,0,2,0,,,,,,,,,0,0,0,0,0,9,9,9,0,0,0,0,,,,,,,,,,,,,,,,,,,,,,,,,stimuli/alien_stimuli/16.png,,,,,,,,,,,,,,,,,,,,,,,,,,,,,stimuli/alien_stimuli/56.png,56,6,11,,,,,,,30,,,,,,,,1229.1993666999042,1229.1993666999042,1229.1993666999042,1229.1993666999042,1229.1993666999042,right,1.4185054999543354,0,1,0,99,0.32,-0.16,right,1.3015843000030145,,,,,1227.6116840000032,1229.1993666999042,0,-0.4,0.0,0.32,-0.4,0,0.16,0,-0.4,1225.6678531999933,1225.6678531999933,1225.6678531999933,1225.6678531999933,1225.6678531999933,1225.6678531999933,1225.6678531999933,1225.6678531999933,1225.6603353299897,2.0545702999224886,return,1.9167016999563202,,,,,,,,,,,,,,,,,,,,,,,,,,,,,,,,,GYWY7N,train_x,red_square,bottom_right,2025-07-16_18h11.58.709,HideSeek_v1,2022.2.5,59.970230788128646,
,5,3,5,3,0,0,16,,train_dim1_1,10,30,,,,2,0,2,0,,,,,,,,,0,0,0,0,0,9,9,9,1,0,1,0,,,,,,,,,,,,,,,,,,,,,,,,,,,,,,,,,,,,,,,,,,,,,,,,,,,,,,,,,,,,,,,,30,,,,,,,,1230.6045447998913,1230.6045447998913,1230.6045447998913,1230.6045447998913,1230.6045447998913,right,0.7778815999627113,0,1,0,99,0.4,-0.16,right,0.6823873999528587,,,,,,,,,,,,,,,,,,,,,,,,,,,,,,,,,,,,,,,,,,,,,,,,,,,,,,,,,,,,GYWY7N,train_x,red_square,bottom_right,2025-07-16_18h11.58.709,HideSeek_v1,2022.2.5,59.970230788128646,
,5,3,5,3,0,0,16,,train_dim1_1,10,30,,,,2,0,2,0,,,,,,,,,0,0,0,0,0,9,9,9,2,0,2,0,,,,,,,,,,,,,,,,,,,,,,,,,,,,,,,,,,,,,,,,,,,,,,,,,,,,,,,,,,,,,,,,30,,,,,,,,1231.3872314000037,1231.3872314000037,1231.3872314000037,1231.3872314000037,1231.3872314000037,right,0.7250194000080228,0,1,0,99,0.48000000000000004,-0.16,right,0.641327099991031,,,,,,,,,,,,,,,,,,,,,,,,,,,,,,,,,,,,,,,,,,,,,,,,,,,,,,,,,,,,GYWY7N,train_x,red_square,bottom_right,2025-07-16_18h11.58.709,HideSeek_v1,2022.2.5,59.970230788128646,
,5,3,5,3,0,0,16,,train_dim1_1,10,30,,,,2,0,2,0,,,,,,,,,0,0,0,0,0,9,9,9,3,0,3,0,,,,,,,,,,,,,,,,,,,,,,,,,,,,,,,,,,,,,,,,,,,,,,,,,,,,,,,,,,,,,,,,30,,,,,,,,1232.1189970999258,1232.1189970999258,1232.1189970999258,1232.1189970999258,1232.1189970999258,right,2.69485369999893,0,1,0,99,0.56,-0.16,right,2.614624600042589,,,,,,,,,,,,,,,,,,,,,,,,,,,,,,,,,,,,,,,,,,,,,,,,,,,,,,,,,,,,GYWY7N,train_x,red_square,bottom_right,2025-07-16_18h11.58.709,HideSeek_v1,2022.2.5,59.970230788128646,
,5,3,5,3,0,0,16,,train_dim1_1,10,30,,,,2,0,2,0,,,,,,,,,0,0,0,0,0,9,9,9,4,0,4,0,,,,,,,,,,,,,,,,,,,,,,,,,,,,,,,,,,,,,,,,,,,,,,,,,,,,,,,,,,,,,,,,30,,,,,,,,1234.8219261999475,1234.8219261999475,1234.8219261999475,1234.8219261999475,1234.8219261999475,left,0.9434199000243098,0,1,0,99,0.48000000000000004,-0.16,left,0.8546488999854773,,,,,,,,,,,,,,,,,,,,,,,,,,,,,,,,,,,,,,,,,,,,,,,,,,,,,,,,,,,,GYWY7N,train_x,red_square,bottom_right,2025-07-16_18h11.58.709,HideSeek_v1,2022.2.5,59.970230788128646,
,5,3,5,3,0,0,16,,train_dim1_1,10,30,,,,2,0,2,0,,,,,,,,,0,0,0,0,0,9,9,9,5,0,5,0,,,,,,,,,,,,,,,,,,,,,,,,,,,,,,,,,,,,,,,,,,,,,,,,,,,,,,,,,,,,,,,,30,,,,,,,,1235.7732422999106,1235.7732422999106,1235.7732422999106,1235.7732422999106,1235.7732422999106,return,1.5772720000240952,0,0,0,0,0.48000000000000004,-0.16,return,1.4860865999944508,4,-6,0.48000000000000004,-0.16,,,,,,,,,,,,,,,,,,,,,,,,,,,,,,,,,,,,,,,,,,,,,,,,,,,,,,,,GYWY7N,train_x,red_square,bottom_right,2025-07-16_18h11.58.709,HideSeek_v1,2022.2.5,59.970230788128646,
,7,2,4,2,-3,0,46,,train_dim1_1,11,30,,,,2,0,2,0,,,,,,,,,0,0,0,0,0,10,10,10,0,0,0,0,,,,,,,,,,,,,,,,,,,,,,,,,stimuli/alien_stimuli/46.png,,,,,,,,,,,,,,,,,,,,,,,,,,,,,stimuli/alien_stimuli/16.png,16,5,12,,,,,,,30,,,,,,,,1242.6769391999114,1242.6769391999114,1242.6769391999114,1242.6769391999114,1242.6769391999114,down,0.6733138000126928,0,0,0,99,0.4,-0.32,down,0.569347899989225,,,,,1241.1063505999045,1242.6769391999114,0.24,-0.16,0.0,0.0,-0.16,0.24,0.24,0.24,-0.16,1238.9173969998956,1238.9173969998956,1238.9173969998956,1238.9173969998956,1238.9173969998956,1238.9173969998956,1238.9173969998956,1238.9173969998956,1238.9044878299346,2.304943999974057,return,2.1698765999171883,,,,,,,,,,,,,,,,,,,,,,,,,,,,,,,,,GYWY7N,train_x,red_square,bottom_right,2025-07-16_18h11.58.709,HideSeek_v1,2022.2.5,59.970230788128646,
,7,2,4,2,-3,0,46,,train_dim1_1,11,30,,,,2,0,2,0,,,,,,,,,0,0,0,0,0,10,10,10,1,0,1,0,,,,,,,,,,,,,,,,,,,,,,,,,,,,,,,,,,,,,,,,,,,,,,,,,,,,,,,,,,,,,,,,30,,,,,,,,1243.3412538999692,1243.3412538999692,1243.3412538999692,1243.3412538999692,1243.3412538999692,up,0.7933483000379056,0,0,0,99,0.4,-0.24,up,0.7111855999100953,,,,,,,,,,,,,,,,,,,,,,,,,,,,,,,,,,,,,,,,,,,,,,,,,,,,,,,,,,,,GYWY7N,train_x,red_square,bottom_right,2025-07-16_18h11.58.709,HideSeek_v1,2022.2.5,59.970230788128646,
,7,2,4,2,-3,0,46,,train_dim1_1,11,30,,,,2,0,2,0,,,,,,,,,0,0,0,0,0,10,10,10,2,0,2,0,,,,,,,,,,,,,,,,,,,,,,,,,,,,,,,,,,,,,,,,,,,,,,,,,,,,,,,,,,,,,,,,30,,,,,,,,1244.1445838999934,1244.1445838999934,1244.1445838999934,1244.1445838999934,1244.1445838999934,up,0.29189560003578663,0,0,0,99,0.4,-0.15999999999999998,up,0.2124811999965459,,,,,,,,,,,,,,,,,,,,,,,,,,,,,,,,,,,,,,,,,,,,,,,,,,,,,,,,,,,,GYWY7N,train_x,red_square,bottom_right,2025-07-16_18h11.58.709,HideSeek_v1,2022.2.5,59.970230788128646,
,7,2,4,2,-3,0,46,,train_dim1_1,11,30,,,,2,0,2,0,,,,,,,,,0,0,0,0,0,10,10,10,3,0,3,0,,,,,,,,,,,,,,,,,,,,,,,,,,,,,,,,,,,,,,,,,,,,,,,,,,,,,,,,,,,,,,,,30,,,,,,,,1244.4454936999828,1244.4454936999828,1244.4454936999828,1244.4454936999828,1244.4454936999828,up,0.24377339996863157,0,0,0,99,0.4,-0.07999999999999997,up,0.15806389995850623,,,,,,,,,,,,,,,,,,,,,,,,,,,,,,,,,,,,,,,,,,,,,,,,,,,,,,,,,,,,GYWY7N,train_x,red_square,bottom_right,2025-07-16_18h11.58.709,HideSeek_v1,2022.2.5,59.970230788128646,
,7,2,4,2,-3,0,46,,train_dim1_1,11,30,,,,2,0,2,0,,,,,,,,,0,0,0,0,0,10,10,10,4,0,4,0,,,,,,,,,,,,,,,,,,,,,,,,,,,,,,,,,,,,,,,,,,,,,,,,,,,,,,,,,,,,,,,,30,,,,,,,,1244.6919003999792,1244.6919003999792,1244.6919003999792,1244.6919003999792,1244.6919003999792,up,0.2594471999909729,0,0,0,99,0.4,2.7755575615628914e-17,up,0.17544540006201714,,,,,,,,,,,,,,,,,,,,,,,,,,,,,,,,,,,,,,,,,,,,,,,,,,,,,,,,,,,,GYWY7N,train_x,red_square,bottom_right,2025-07-16_18h11.58.709,HideSeek_v1,2022.2.5,59.970230788128646,
,7,2,4,2,-3,0,46,,train_dim1_1,11,30,,,,2,0,2,0,,,,,,,,,0,0,0,0,0,10,10,10,5,0,5,0,,,,,,,,,,,,,,,,,,,,,,,,,,,,,,,,,,,,,,,,,,,,,,,,,,,,,,,,,,,,,,,,30,,,,,,,,1244.9590070999693,1244.9590070999693,1244.9590070999693,1244.9590070999693,1244.9590070999693,up,0.29274409997742623,0,0,0,99,0.4,0.08000000000000003,up,0.21135550003964454,,,,,,,,,,,,,,,,,,,,,,,,,,,,,,,,,,,,,,,,,,,,,,,,,,,,,,,,,,,,GYWY7N,train_x,red_square,bottom_right,2025-07-16_18h11.58.709,HideSeek_v1,2022.2.5,59.970230788128646,
,7,2,4,2,-3,0,46,,train_dim1_1,11,30,,,,2,0,2,0,,,,,,,,,0,0,0,0,0,10,10,10,6,0,6,0,,,,,,,,,,,,,,,,,,,,,,,,,,,,,,,,,,,,,,,,,,,,,,,,,,,,,,,,,,,,,,,,30,,,,,,,,1245.268430899945,1245.268430899945,1245.268430899945,1245.268430899945,1245.268430899945,left,0.7091547000454739,0,0,0,99,0.32,0.08000000000000003,left,0.6220317999832332,,,,,,,,,,,,,,,,,,,,,,,,,,,,,,,,,,,,,,,,,,,,,,,,,,,,,,,,,,,,GYWY7N,train_x,red_square,bottom_right,2025-07-16_18h11.58.709,HideSeek_v1,2022.2.5,59.970230788128646,
,7,2,4,2,-3,0,46,,train_dim1_1,11,30,,,,2,0,2,0,,,,,,,,,0,0,0,0,0,10,10,10,7,0,7,0,,,,,,,,,,,,,,,,,,,,,,,,,,,,,,,,,,,,,,,,,,,,,,,,,,,,,,,,,,,,,,,,30,,,,,,,,1245.9831854999065,1245.9831854999065,1245.9831854999065,1245.9831854999065,1245.9831854999065,down,0.49289789993781596,0,0,0,99,0.32,2.7755575615628914e-17,down,0.40496410010382533,,,,,,,,,,,,,,,,,,,,,,,,,,,,,,,,,,,,,,,,,,,,,,,,,,,,,,,,,,,,GYWY7N,train_x,red_square,bottom_right,2025-07-16_18h11.58.709,HideSeek_v1,2022.2.5,59.970230788128646,
,7,2,4,2,-3,0,46,,train_dim1_1,11,30,,,,2,0,2,0,,,,,,,,,0,0,0,0,0,10,10,10,8,0,8,0,,,,,,,,,,,,,,,,,,,,,,,,,,,,,,,,,,,,,,,,,,,,,,,,,,,,,,,,,,,,,,,,30,,,,,,,,1246.4766690999968,1246.4766690999968,1246.4766690999968,1246.4766690999968,1246.4766690999968,return,0.6273300000466406,0,0,0,0,0.32,2.7755575615628914e-17,return,0.549825599999167,7,-7,0.32,2.7755575615628914e-17,,,,,,,,,,,,,,,,,,,,,,,,,,,,,,,,,,,,,,,,,,,,,,,,,,,,,,,,GYWY7N,train_x,red_square,bottom_right,2025-07-16_18h11.58.709,HideSeek_v1,2022.2.5,59.970230788128646,
,5,0,4,0,-1,0,26,,train_dim1_1,12,30,,,,2,0,2,0,,,,,,,,,0,0,0,0,0,11,11,11,0,0,0,0,,,,,,,,,,,,,,,,,,,,,,,,,stimuli/alien_stimuli/26.png,,,,,,,,,,,,,,,,,,,,,,,,,,,,,stimuli/alien_stimuli/46.png,46,7,13,,,,,,,30,,,,,,,,1251.331671699998,1251.331671699998,1251.331671699998,1251.331671699998,1251.331671699998,return,0.45538140006829053,0,1,0,0,0.24,-0.4,return,0.34418000001460314,7,-7,0.24,-0.4,1249.7472664999077,1251.331671699998,0.16,-0.24,0.0,0.24,-0.24,0.16,0.28,0.16,-0.24,1248.6682502999902,1248.6682502999902,1248.6682502999902,1248.6682502999902,1248.6682502999902,1248.6682502999902,1248.6682502999902,1248.6682502999902,1248.6629022299776,1.1882208000170067,return,1.0613597000483423,,,,,,,,,,,,,,,,,,,,,,,,,,,,,,,,,GYWY7N,train_x,red_square,bottom_right,2025-07-16_18h11.58.709,HideSeek_v1,2022.2.5,59.970230788128646,
,5,4,1,4,-4,0,56,,train_dim1_1,13,30,,,,2,0,2,0,,,,,,,,,0,0,0,0,0,12,12,12,0,0,0,0,,,,,,,,,,,,,,,,,,,,,,,,,stimuli/alien_stimuli/56.png,,,,,,,,,,,,,,,,,,,,,,,,,,,,,stimuli/alien_stimuli/26.png,26,5,14,,,,,,,30,,,,,,,,1259.919601499918,1259.919601499918,1259.919601499918,1259.919601499918,1259.919601499918,left,0.7550672000506893,0,1,0,99,0.15999999999999998,-0.08,left,0.6570046000415459,,,,,1258.3556897999952,1259.919601499918,0.16,-0.4,0.0,0.08,-0.4,0.16,0.2,0.16,-0.4,1253.326474799891,1253.326474799891,1253.326474799891,1253.326474799891,1253.326474799891,1253.326474799891,1253.326474799891,1253.326474799891,1253.3156789299564,5.14260290004313,return,5.010380299994722,,,,,,,,,,,,,,,,,,,,,,,,,,,,,,,,,GYWY7N,train_x,red_square,bottom_right,2025-07-16_18h11.58.709,HideSeek_v1,2022.2.5,59.970230788128646,
,5,4,1,4,-4,0,56,,train_dim1_1,13,30,,,,2,0,2,0,,,,,,,,,0,0,0,0,0,12,12,12,1,0,1,0,,,,,,,,,,,,,,,,,,,,,,,,,,,,,,,,,,,,,,,,,,,,,,,,,,,,,,,,,,,,,,,,30,,,,,,,,1260.6781983999535,1260.6781983999535,1260.6781983999535,1260.6781983999535,1260.6781983999535,left,0.37487389997113496,0,1,0,99,0.07999999999999997,-0.08,left,0.2870703999651596,,,,,,,,,,,,,,,,,,,,,,,,,,,,,,,,,,,,,,,,,,,,,,,,,,,,,,,,,,,,GYWY7N,train_x,red_square,bottom_right,2025-07-16_18h11.58.709,HideSeek_v1,2022.2.5,59.970230788128646,
,5,4,1,4,-4,0,56,,train_dim1_1,13,30,,,,2,0,2,0,,,,,,,,,0,0,0,0,0,12,12,12,2,0,2,0,,,,,,,,,,,,,,,,,,,,,,,,,,,,,,,,,,,,,,,,,,,,,,,,,,,,,,,,,,,,,,,,30,,,,,,,,1261.0616938999156,1261.0616938999156,1261.0616938999156,1261.0616938999156,1261.0616938999156,right,0.4097988000139594,0,1,0,99,0.15999999999999998,-0.08,right,0.3276588999433443,,,,,,,,,,,,,,,,,,,,,,,,,,,,,,,,,,,,,,,,,,,,,,,,,,,,,,,,,,,,GYWY7N,train_x,red_square,bottom_right,2025-07-16_18h11.58.709,HideSeek_v1,2022.2.5,59.970230788128646,
,5,4,1,4,-4,0,56,,train_dim1_1,13,30,,,,2,0,2,0,,,,,,,,,0,0,0,0,0,12,12,12,3,0,3,0,,,,,,,,,,,,,,,,,,,,,,,,,,,,,,,,,,,,,,,,,,,,,,,,,,,,,,,,,,,,,,,,30,,,,,,,,1261.4771259999834,1261.4771259999834,1261.4771259999834,1261.4771259999834,1261.4771259999834,left,0.9434531000442803,0,1,0,99,0.07999999999999997,-0.08,left,0.8514972999691963,,,,,,,,,,,,,,,,,,,,,,,,,,,,,,,,,,,,,,,,,,,,,,,,,,,,,,,,,,,,GYWY7N,train_x,red_square,bottom_right,2025-07-16_18h11.58.709,HideSeek_v1,2022.2.5,59.970230788128646,
,5,4,1,4,-4,0,56,,train_dim1_1,13,30,,,,2,0,2,0,,,,,,,,,0,0,0,0,0,12,12,12,4,0,4,0,,,,,,,,,,,,,,,,,,,,,,,,,,,,,,,,,,,,,,,,,,,,,,,,,,,,,,,,,,,,,,,,30,,,,,,,,1262.4262284999713,1262.4262284999713,1262.4262284999713,1262.4262284999713,1262.4262284999713,left,0.2273473999230191,0,1,0,99,-2.7755575615628914e-17,-0.08,left,0.1373547000112012,,,,,,,,,,,,,,,,,,,,,,,,,,,,,,,,,,,,,,,,,,,,,,,,,,,,,,,,,,,,GYWY7N,train_x,red_square,bottom_right,2025-07-16_18h11.58.709,HideSeek_v1,2022.2.5,59.970230788128646,
,5,4,1,4,-4,0,56,,train_dim1_1,13,30,,,,2,0,2,0,,,,,,,,,0,0,0,0,0,12,12,12,5,0,5,0,,,,,,,,,,,,,,,,,,,,,,,,,,,,,,,,,,,,,,,,,,,,,,,,,,,,,,,,,,,,,,,,30,,,,,,,,1262.662874499918,1262.662874499918,1262.662874499918,1262.662874499918,1262.662874499918,left,1.091857000021264,0,1,0,99,-0.08000000000000003,-0.08,left,1.0016094000311568,,,,,,,,,,,,,,,,,,,,,,,,,,,,,,,,,,,,,,,,,,,,,,,,,,,,,,,,,,,,GYWY7N,train_x,red_square,bottom_right,2025-07-16_18h11.58.709,HideSeek_v1,2022.2.5,59.970230788128646,
,5,4,1,4,-4,0,56,,train_dim1_1,13,30,,,,2,0,2,0,,,,,,,,,0,0,0,0,0,12,12,12,6,0,6,0,,,,,,,,,,,,,,,,,,,,,,,,,,,,,,,,,,,,,,,,,,,,,,,,,,,,,,,,,,,,,,,,30,,,,,,,,1263.7610115999123,1263.7610115999123,1263.7610115999123,1263.7610115999123,1263.7610115999123,return,0.4260271000675857,1,0,0,1,-0.08000000000000003,-0.08,return,0.3483393000205979,7,-11,-0.08000000000000003,-0.08,,,,,,,,,,,,,,,,,,,,,,,,,,,,,,,,,,,,,,,,,,,,,,,,,,,,,,,,GYWY7N,train_x,red_square,bottom_right,2025-07-16_18h11.58.709,HideSeek_v1,2022.2.5,59.970230788128646,
,9,3,9,3,0,0,16,,train_dim1_1,14,30,,,,2,0,2,0,,,,,,,,,0,0,0,0,0,13,13,13,0,0,0,0,,,,,,,,,,,,,,,,,,,,,,,,,stimuli/alien_stimuli/16.png,,,,,,,,,,,,,,,,,,,,,,,,,,,,,stimuli/alien_stimuli/56.png,56,5,15,,,,,,,30,,,,,,,,1268.9125474999892,1268.9125474999892,1268.9125474999892,1268.9125474999892,1268.9125474999892,left,2.603775899973698,1,0,0,99,0.48000000000000004,-0.16,left,2.4924792000092566,,,,,1267.3275045999326,1268.9125474999892,-0.08,-0.08,0.0,0.32,-0.08,-0.08,0.07999999999999999,-0.08,-0.08,1265.768774600001,1265.768774600001,1265.768774600001,1265.768774600001,1265.768774600001,1265.768774600001,1265.768774600001,1265.768774600001,1265.762023220025,1.686812900006771,return,1.5285763000138104,,,,,,,,,,,,,,,,,,,,,,,,,,,,,,,,,GYWY7N,train_x,red_square,bottom_right,2025-07-16_18h11.58.709,HideSeek_v1,2022.2.5,59.970230788128646,
,9,3,9,3,0,0,16,,train_dim1_1,14,30,,,,2,0,2,0,,,,,,,,,0,0,0,0,0,13,13,13,1,0,1,0,,,,,,,,,,,,,,,,,,,,,,,,,,,,,,,,,,,,,,,,,,,,,,,,,,,,,,,,,,,,,,,,30,,,,,,,,1271.5031016999856,1271.5031016999856,1271.5031016999856,1271.5031016999856,1271.5031016999856,left,0.4275841999333352,1,0,0,99,0.4,-0.16,left,0.3393094999482855,,,,,,,,,,,,,,,,,,,,,,,,,,,,,,,,,,,,,,,,,,,,,,,,,,,,,,,,,,,,GYWY7N,train_x,red_square,bottom_right,2025-07-16_18h11.58.709,HideSeek_v1,2022.2.5,59.970230788128646,
,9,3,9,3,0,0,16,,train_dim1_1,14,30,,,,2,0,2,0,,,,,,,,,0,0,0,0,0,13,13,13,2,0,2,0,,,,,,,,,,,,,,,,,,,,,,,,,,,,,,,,,,,,,,,,,,,,,,,,,,,,,,,,,,,,,,,,30,,,,,,,,1271.9370022999356,1271.9370022999356,1271.9370022999356,1271.9370022999356,1271.9370022999356,left,0.3254559999331832,1,0,0,99,0.32,-0.16,left,0.23892320005688816,,,,,,,,,,,,,,,,,,,,,,,,,,,,,,,,,,,,,,,,,,,,,,,,,,,,,,,,,,,,GYWY7N,train_x,red_square,bottom_right,2025-07-16_18h11.58.709,HideSeek_v1,2022.2.5,59.970230788128646,
,9,3,9,3,0,0,16,,train_dim1_1,14,30,,,,2,0,2,0,,,,,,,,,0,0,0,0,0,13,13,13,3,0,3,0,,,,,,,,,,,,,,,,,,,,,,,,,,,,,,,,,,,,,,,,,,,,,,,,,,,,,,,,,,,,,,,,30,,,,,,,,1272.2705465999898,1272.2705465999898,1272.2705465999898,1272.2705465999898,1272.2705465999898,right,0.8939140000147745,1,0,0,99,0.4,-0.16,right,0.8049238999374211,,,,,,,,,,,,,,,,,,,,,,,,,,,,,,,,,,,,,,,,,,,,,,,,,,,,,,,,,,,,GYWY7N,train_x,red_square,bottom_right,2025-07-16_18h11.58.709,HideSeek_v1,2022.2.5,59.970230788128646,
,9,3,9,3,0,0,16,,train_dim1_1,14,30,,,,2,0,2,0,,,,,,,,,0,0,0,0,0,13,13,13,4,0,4,0,,,,,,,,,,,,,,,,,,,,,,,,,,,,,,,,,,,,,,,,,,,,,,,,,,,,,,,,,,,,,,,,30,,,,,,,,1273.169669899973,1273.169669899973,1273.169669899973,1273.169669899973,1273.169669899973,right,0.35981049994006753,1,0,0,99,0.48000000000000004,-0.16,right,0.269138399977237,,,,,,,,,,,,,,,,,,,,,,,,,,,,,,,,,,,,,,,,,,,,,,,,,,,,,,,,,,,,GYWY7N,train_x,red_square,bottom_right,2025-07-16_18h11.58.709,HideSeek_v1,2022.2.5,59.970230788128646,
,9,3,9,3,0,0,16,,train_dim1_1,14,30,,,,2,0,2,0,,,,,,,,,0,0,0,0,0,13,13,13,5,0,5,0,,,,,,,,,,,,,,,,,,,,,,,,,,,,,,,,,,,,,,,,,,,,,,,,,,,,,,,,,,,,,,,,30,,,,,,,,1273.5384607999586,1273.5384607999586,1273.5384607999586,1273.5384607999586,1273.5384607999586,right,0.27767590002622455,1,0,0,99,0.56,-0.16,right,0.18469270004425198,,,,,,,,,,,,,,,,,,,,,,,,,,,,,,,,,,,,,,,,,,,,,,,,,,,,,,,,,,,,GYWY7N,train_x,red_square,bottom_right,2025-07-16_18h11.58.709,HideSeek_v1,2022.2.5,59.970230788128646,
,9,3,9,3,0,0,16,,train_dim1_1,14,30,,,,2,0,2,0,,,,,,,,,0,0,0,0,0,13,13,13,6,0,6,0,,,,,,,,,,,,,,,,,,,,,,,,,,,,,,,,,,,,,,,,,,,,,,,,,,,,,,,,,,,,,,,,30,,,,,,,,1273.8221577999648,1273.8221577999648,1273.8221577999648,1273.8221577999648,1273.8221577999648,down,0.7915479000657797,1,0,0,99,0.56,-0.24,down,0.7010259999660775,,,,,,,,,,,,,,,,,,,,,,,,,,,,,,,,,,,,,,,,,,,,,,,,,,,,,,,,,,,,GYWY7N,train_x,red_square,bottom_right,2025-07-16_18h11.58.709,HideSeek_v1,2022.2.5,59.970230788128646,
,9,3,9,3,0,0,16,,train_dim1_1,14,30,,,,2,0,2,0,,,,,,,,,0,0,0,0,0,13,13,13,7,0,7,0,,,,,,,,,,,,,,,,,,,,,,,,,,,,,,,,,,,,,,,,,,,,,,,,,,,,,,,,,,,,,,,,30,,,,,,,,1274.6210519999731,1274.6210519999731,1274.6210519999731,1274.6210519999731,1274.6210519999731,down,0.3098376999842003,1,0,0,99,0.56,-0.32,down,0.22855060000438243,,,,,,,,,,,,,,,,,,,,,,,,,,,,,,,,,,,,,,,,,,,,,,,,,,,,,,,,,,,,GYWY7N,train_x,red_square,bottom_right,2025-07-16_18h11.58.709,HideSeek_v1,2022.2.5,59.970230788128646,
,9,3,9,3,0,0,16,,train_dim1_1,14,30,,,,2,0,2,0,,,,,,,,,0,0,0,0,0,13,13,13,8,0,8,0,,,,,,,,,,,,,,,,,,,,,,,,,,,,,,,,,,,,,,,,,,,,,,,,,,,,,,,,,,,,,,,,30,,,,,,,,1274.9384161999915,1274.9384161999915,1274.9384161999915,1274.9384161999915,1274.9384161999915,return,0.7765883000101894,1,0,0,0,0.56,-0.32,return,0.6827484000241384,5,-11,0.56,-0.32,,,,,,,,,,,,,,,,,,,,,,,,,,,,,,,,,,,,,,,,,,,,,,,,,,,,,,,,GYWY7N,train_x,red_square,bottom_right,2025-07-16_18h11.58.709,HideSeek_v1,2022.2.5,59.970230788128646,
,9,2,4,2,-5,0,66,,train_dim1_1,15,30,,,,2,0,2,0,,,,,,,,,0,0,0,0,0,14,14,14,0,0,0,0,,,,,,,,,,,,,,,,,,,,,,,,,stimuli/alien_stimuli/66.png,,,,,,,,,,,,,,,,,,,,,,,,,,,,,stimuli/alien_stimuli/16.png,16,9,16,,,,,,,30,,,,,,,,1280.650102399988,1280.650102399988,1280.650102399988,1280.650102399988,1280.650102399988,left,1.8387067000148818,1,0,0,99,0.48000000000000004,-0.24,left,1.737024400033988,,,,,1279.072617399972,1280.650102399988,0.56,-0.16,0.0,0.0,-0.16,0.56,0.56,0.56,-0.16,1277.2974488999462,1277.2974488999462,1277.2974488999462,1277.2974488999462,1277.2974488999462,1277.2974488999462,1277.2974488999462,1277.2974488999462,1277.2879478199873,1.9046281999908388,return,1.7467120999936014,,,,,,,,,,,,,,,,,,,,,,,,,,,,,,,,,GYWY7N,train_x,red_square,bottom_right,2025-07-16_18h11.58.709,HideSeek_v1,2022.2.5,59.970230788128646,
,9,2,4,2,-5,0,66,,train_dim1_1,15,30,,,,2,0,2,0,,,,,,,,,0,0,0,0,0,14,14,14,1,0,1,0,,,,,,,,,,,,,,,,,,,,,,,,,,,,,,,,,,,,,,,,,,,,,,,,,,,,,,,,,,,,,,,,30,,,,,,,,1282.473523799912,1282.473523799912,1282.473523799912,1282.473523799912,1282.473523799912,left,0.42586379998829216,1,0,0,99,0.4,-0.24,left,0.33739040000364184,,,,,,,,,,,,,,,,,,,,,,,,,,,,,,,,,,,,,,,,,,,,,,,,,,,,,,,,,,,,GYWY7N,train_x,red_square,bottom_right,2025-07-16_18h11.58.709,HideSeek_v1,2022.2.5,59.970230788128646,
,9,2,4,2,-5,0,66,,train_dim1_1,15,30,,,,2,0,2,0,,,,,,,,,0,0,0,0,0,14,14,14,2,0,2,0,,,,,,,,,,,,,,,,,,,,,,,,,,,,,,,,,,,,,,,,,,,,,,,,,,,,,,,,,,,,,,,,30,,,,,,,,1282.9071669999976,1282.9071669999976,1282.9071669999976,1282.9071669999976,1282.9071669999976,up,0.7432906000176445,1,0,0,99,0.4,-0.15999999999999998,up,0.6555554999504238,,,,,,,,,,,,,,,,,,,,,,,,,,,,,,,,,,,,,,,,,,,,,,,,,,,,,,,,,,,,GYWY7N,train_x,red_square,bottom_right,2025-07-16_18h11.58.709,HideSeek_v1,2022.2.5,59.970230788128646,
,9,2,4,2,-5,0,66,,train_dim1_1,15,30,,,,2,0,2,0,,,,,,,,,0,0,0,0,0,14,14,14,3,0,3,0,,,,,,,,,,,,,,,,,,,,,,,,,,,,,,,,,,,,,,,,,,,,,,,,,,,,,,,,,,,,,,,,30,,,,,,,,1283.6579398999456,1283.6579398999456,1283.6579398999456,1283.6579398999456,1283.6579398999456,up,0.2784549000207335,1,0,0,99,0.4,-0.07999999999999997,up,0.18871909996960312,,,,,,,,,,,,,,,,,,,,,,,,,,,,,,,,,,,,,,,,,,,,,,,,,,,,,,,,,,,,GYWY7N,train_x,red_square,bottom_right,2025-07-16_18h11.58.709,HideSeek_v1,2022.2.5,59.970230788128646,
,9,2,4,2,-5,0,66,,train_dim1_1,15,30,,,,2,0,2,0,,,,,,,,,0,0,0,0,0,14,14,14,4,0,4,0,,,,,,,,,,,,,,,,,,,,,,,,,,,,,,,,,,,,,,,,,,,,,,,,,,,,,,,,,,,,,,,,30,,,,,,,,1283.945334799937,1283.945334799937,1283.945334799937,1283.945334799937,1283.945334799937,right,2.0417578000342473,1,0,0,99,0.48000000000000004,-0.07999999999999997,right,1.9557317000580952,,,,,,,,,,,,,,,,,,,,,,,,,,,,,,,,,,,,,,,,,,,,,,,,,,,,,,,,,,,,GYWY7N,train_x,red_square,bottom_right,2025-07-16_18h11.58.709,HideSeek_v1,2022.2.5,59.970230788128646,
,9,2,4,2,-5,0,66,,train_dim1_1,15,30,,,,2,0,2,0,,,,,,,,,0,0,0,0,0,14,14,14,5,0,5,0,,,,,,,,,,,,,,,,,,,,,,,,,,,,,,,,,,,,,,,,,,,,,,,,,,,,,,,,,,,,,,,,30,,,,,,,,1285.9986788999522,1285.9986788999522,1285.9986788999522,1285.9986788999522,1285.9986788999522,return,0.7410160000436008,1,0,0,0,0.48000000000000004,-0.07999999999999997,return,0.6557834000559524,7,-12,0.48000000000000004,-0.07999999999999997,,,,,,,,,,,,,,,,,,,,,,,,,,,,,,,,,,,,,,,,,,,,,,,,,,,,,,,,GYWY7N,train_x,red_square,bottom_right,2025-07-16_18h11.58.709,HideSeek_v1,2022.2.5,59.970230788128646,
,8,3,4,3,-4,0,56,,train_dim1_1,16,30,,,,2,0,2,0,,,,,,,,,0,0,0,0,0,15,15,15,0,0,0,0,,,,,,,,,,,,,,,,,,,,,,,,,stimuli/alien_stimuli/56.png,,,,,,,,,,,,,,,,,,,,,,,,,,,,,stimuli/alien_stimuli/66.png,66,9,17,,,,,,,30,,,,,,,,1291.1288639999693,1291.1288639999693,1291.1288639999693,1291.1288639999693,1291.1288639999693,left,0.8701699000084773,1,0,0,99,0.39999999999999997,-0.16,left,0.7670853000599891,,,,,1289.5471445999574,1291.1288639999693,0.16,-0.24,0.0,0.4,-0.24,0.16,0.36000000000000004,0.16,-0.24,1288.3277463999111,1288.3277463999111,1288.3277463999111,1288.3277463999111,1288.3277463999111,1288.3277463999111,1288.3277463999111,1288.3277463999111,1288.3147116199368,1.3510601000161842,return,1.1914129999931902,,,,,,,,,,,,,,,,,,,,,,,,,,,,,,,,,GYWY7N,train_x,red_square,bottom_right,2025-07-16_18h11.58.709,HideSeek_v1,2022.2.5,59.970230788128646,
,8,3,4,3,-4,0,56,,train_dim1_1,16,30,,,,2,0,2,0,,,,,,,,,0,0,0,0,0,15,15,15,1,0,1,0,,,,,,,,,,,,,,,,,,,,,,,,,,,,,,,,,,,,,,,,,,,,,,,,,,,,,,,,,,,,,,,,30,,,,,,,,1291.9853474999545,1291.9853474999545,1291.9853474999545,1291.9853474999545,1291.9853474999545,left,0.5762480000266805,1,0,0,99,0.31999999999999995,-0.16,left,0.48687929997686297,,,,,,,,,,,,,,,,,,,,,,,,,,,,,,,,,,,,,,,,,,,,,,,,,,,,,,,,,,,,GYWY7N,train_x,red_square,bottom_right,2025-07-16_18h11.58.709,HideSeek_v1,2022.2.5,59.970230788128646,
,8,3,4,3,-4,0,56,,train_dim1_1,16,30,,,,2,0,2,0,,,,,,,,,0,0,0,0,0,15,15,15,2,0,2,0,,,,,,,,,,,,,,,,,,,,,,,,,,,,,,,,,,,,,,,,,,,,,,,,,,,,,,,,,,,,,,,,30,,,,,,,,1292.568122399971,1292.568122399971,1292.568122399971,1292.568122399971,1292.568122399971,right,0.6935603000456467,1,0,0,99,0.39999999999999997,-0.16,right,0.610110400011763,,,,,,,,,,,,,,,,,,,,,,,,,,,,,,,,,,,,,,,,,,,,,,,,,,,,,,,,,,,,GYWY7N,train_x,red_square,bottom_right,2025-07-16_18h11.58.709,HideSeek_v1,2022.2.5,59.970230788128646,
,8,3,4,3,-4,0,56,,train_dim1_1,16,30,,,,2,0,2,0,,,,,,,,,0,0,0,0,0,15,15,15,3,0,3,0,,,,,,,,,,,,,,,,,,,,,,,,,,,,,,,,,,,,,,,,,,,,,,,,,,,,,,,,,,,,,,,,30,,,,,,,,1293.2712709999178,1293.2712709999178,1293.2712709999178,1293.2712709999178,1293.2712709999178,right,0.22649719996843487,1,0,0,99,0.48,-0.16,right,0.14461459999438375,,,,,,,,,,,,,,,,,,,,,,,,,,,,,,,,,,,,,,,,,,,,,,,,,,,,,,,,,,,,GYWY7N,train_x,red_square,bottom_right,2025-07-16_18h11.58.709,HideSeek_v1,2022.2.5,59.970230788128646,
,8,3,4,3,-4,0,56,,train_dim1_1,16,30,,,,2,0,2,0,,,,,,,,,0,0,0,0,0,15,15,15,4,0,4,0,,,,,,,,,,,,,,,,,,,,,,,,,,,,,,,,,,,,,,,,,,,,,,,,,,,,,,,,,,,,,,,,30,,,,,,,,1293.504159099888,1293.504159099888,1293.504159099888,1293.504159099888,1293.504159099888,down,0.4094903999939561,1,0,0,99,0.48,-0.24,down,0.3182645000051707,,,,,,,,,,,,,,,,,,,,,,,,,,,,,,,,,,,,,,,,,,,,,,,,,,,,,,,,,,,,GYWY7N,train_x,red_square,bottom_right,2025-07-16_18h11.58.709,HideSeek_v1,2022.2.5,59.970230788128646,
,8,3,4,3,-4,0,56,,train_dim1_1,16,30,,,,2,0,2,0,,,,,,,,,0,0,0,0,0,15,15,15,5,0,5,0,,,,,,,,,,,,,,,,,,,,,,,,,,,,,,,,,,,,,,,,,,,,,,,,,,,,,,,,,,,,,,,,30,,,,,,,,1293.9182114999276,1293.9182114999276,1293.9182114999276,1293.9182114999276,1293.9182114999276,down,0.22563570004422218,1,0,0,99,0.48,-0.32,down,0.13727720000315458,,,,,,,,,,,,,,,,,,,,,,,,,,,,,,,,,,,,,,,,,,,,,,,,,,,,,,,,,,,,GYWY7N,train_x,red_square,bottom_right,2025-07-16_18h11.58.709,HideSeek_v1,2022.2.5,59.970230788128646,
,8,3,4,3,-4,0,56,,train_dim1_1,16,30,,,,2,0,2,0,,,,,,,,,0,0,0,0,0,15,15,15,6,0,6,0,,,,,,,,,,,,,,,,,,,,,,,,,,,,,,,,,,,,,,,,,,,,,,,,,,,,,,,,,,,,,,,,30,,,,,,,,1294.1514903999632,1294.1514903999632,1294.1514903999632,1294.1514903999632,1294.1514903999632,down,0.22629500005859882,1,0,0,99,0.48,-0.4,down,0.14822450000792742,,,,,,,,,,,,,,,,,,,,,,,,,,,,,,,,,,,,,,,,,,,,,,,,,,,,,,,,,,,,GYWY7N,train_x,red_square,bottom_right,2025-07-16_18h11.58.709,HideSeek_v1,2022.2.5,59.970230788128646,
,8,3,4,3,-4,0,56,,train_dim1_1,16,30,,,,2,0,2,0,,,,,,,,,0,0,0,0,0,15,15,15,7,0,7,0,,,,,,,,,,,,,,,,,,,,,,,,,,,,,,,,,,,,,,,,,,,,,,,,,,,,,,,,,,,,,,,,30,,,,,,,,1294.3856298999162,1294.3856298999162,1294.3856298999162,1294.3856298999162,1294.3856298999162,return,0.8443160000024363,1,0,0,0,0.48,-0.4,return,0.7538682000013068,4,-12,0.48,-0.4,,,,,,,,,,,,,,,,,,,,,,,,,,,,,,,,,,,,,,,,,,,,,,,,,,,,,,,,GYWY7N,train_x,red_square,bottom_right,2025-07-16_18h11.58.709,HideSeek_v1,2022.2.5,59.970230788128646,
,7,4,6,4,-1,0,26,,train_dim1_1,17,30,,,,2,0,2,0,,,,,,,,,0,0,0,0,0,16,16,16,0,0,0,0,,,,,,,,,,,,,,,,,,,,,,,,,stimuli/alien_stimuli/26.png,,,,,,,,,,,,,,,,,,,,,,,,,,,,,stimuli/alien_stimuli/56.png,56,8,18,,,,,,,30,,,,,,,,1299.6400343999267,1299.6400343999267,1299.6400343999267,1299.6400343999267,1299.6400343999267,left,1.072781299939379,1,0,0,99,0.32,-0.08,left,0.9639275999506935,,,,,1298.054106800002,1299.6400343999267,0.16,-0.16,0.0,0.32,-0.16,0.16,0.32,0.16,-0.16,1296.807141999947,1296.807141999947,1296.807141999947,1296.807141999947,1296.807141999947,1296.807141999947,1296.807141999947,1296.807141999947,1296.8018652200233,1.3726103999651968,return,1.2164631000487134,,,,,,,,,,,,,,,,,,,,,,,,,,,,,,,,,GYWY7N,train_x,red_square,bottom_right,2025-07-16_18h11.58.709,HideSeek_v1,2022.2.5,59.970230788128646,
,7,4,6,4,-1,0,26,,train_dim1_1,17,30,,,,2,0,2,0,,,,,,,,,0,0,0,0,0,16,16,16,1,0,1,0,,,,,,,,,,,,,,,,,,,,,,,,,,,,,,,,,,,,,,,,,,,,,,,,,,,,,,,,,,,,,,,,30,,,,,,,,1300.6985894999234,1300.6985894999234,1300.6985894999234,1300.6985894999234,1300.6985894999234,left,0.40256489999592304,1,0,0,99,0.24,-0.08,left,0.3112187000224367,,,,,,,,,,,,,,,,,,,,,,,,,,,,,,,,,,,,,,,,,,,,,,,,,,,,,,,,,,,,GYWY7N,train_x,red_square,bottom_right,2025-07-16_18h11.58.709,HideSeek_v1,2022.2.5,59.970230788128646,
,7,4,6,4,-1,0,26,,train_dim1_1,17,30,,,,2,0,2,0,,,,,,,,,0,0,0,0,0,16,16,16,2,0,2,0,,,,,,,,,,,,,,,,,,,,,,,,,,,,,,,,,,,,,,,,,,,,,,,,,,,,,,,,,,,,,,,,30,,,,,,,,1301.1103727999143,1301.1103727999143,1301.1103727999143,1301.1103727999143,1301.1103727999143,left,0.4597774000139907,1,0,0,99,0.15999999999999998,-0.08,left,0.37399819993879646,,,,,,,,,,,,,,,,,,,,,,,,,,,,,,,,,,,,,,,,,,,,,,,,,,,,,,,,,,,,GYWY7N,train_x,red_square,bottom_right,2025-07-16_18h11.58.709,HideSeek_v1,2022.2.5,59.970230788128646,
,7,4,6,4,-1,0,26,,train_dim1_1,17,30,,,,2,0,2,0,,,,,,,,,0,0,0,0,0,16,16,16,3,0,3,0,,,,,,,,,,,,,,,,,,,,,,,,,,,,,,,,,,,,,,,,,,,,,,,,,,,,,,,,,,,,,,,,30,,,,,,,,1301.5766512999544,1301.5766512999544,1301.5766512999544,1301.5766512999544,1301.5766512999544,return,1.110013300087303,1,0,0,0,0.15999999999999998,-0.08,return,1.0189262999920174,4,-15,0.15999999999999998,-0.08,,,,,,,,,,,,,,,,,,,,,,,,,,,,,,,,,,,,,,,,,,,,,,,,,,,,,,,,GYWY7N,train_x,red_square,bottom_right,2025-07-16_18h11.58.709,HideSeek_v1,2022.2.5,59.970230788128646,
,7,1,2,1,-5,0,66,,train_dim1_1,18,30,,,,2,0,2,0,,,,,,,,,0,0,0,0,0,17,17,17,0,0,0,0,,,,,,,,,,,,,,,,,,,,,,,,,stimuli/alien_stimuli/66.png,,,,,,,,,,,,,,,,,,,,,,,,,,,,,stimuli/alien_stimuli/26.png,26,7,19,,,,,,,30,,,,,,,,1307.1544599999906,1307.1544599999906,1307.1544599999906,1307.1544599999906,1307.1544599999906,right,0.8559074000222608,1,0,0,99,0.48000000000000004,-0.32,right,0.7489994999486953,,,,,1305.5771180999,1307.1544599999906,0.32,-0.08,0.0,0.08,-0.08,0.32,0.36,0.32,-0.08,1304.254377199919,1304.254377199919,1304.254377199919,1304.254377199919,1304.254377199919,1304.254377199919,1304.254377199919,1304.254377199919,1304.2416902300201,1.4392024000408128,return,1.2917063999921083,,,,,,,,,,,,,,,,,,,,,,,,,,,,,,,,,GYWY7N,train_x,red_square,bottom_right,2025-07-16_18h11.58.709,HideSeek_v1,2022.2.5,59.970230788128646,
,7,1,2,1,-5,0,66,,train_dim1_1,18,30,,,,2,0,2,0,,,,,,,,,0,0,0,0,0,17,17,17,1,0,1,0,,,,,,,,,,,,,,,,,,,,,,,,,,,,,,,,,,,,,,,,,,,,,,,,,,,,,,,,,,,,,,,,30,,,,,,,,1307.994608399924,1307.994608399924,1307.994608399924,1307.994608399924,1307.994608399924,up,0.909222999936901,1,0,0,99,0.48000000000000004,-0.24,up,0.8211270000319928,,,,,,,,,,,,,,,,,,,,,,,,,,,,,,,,,,,,,,,,,,,,,,,,,,,,,,,,,,,,GYWY7N,train_x,red_square,bottom_right,2025-07-16_18h11.58.709,HideSeek_v1,2022.2.5,59.970230788128646,
,7,1,2,1,-5,0,66,,train_dim1_1,18,30,,,,2,0,2,0,,,,,,,,,0,0,0,0,0,17,17,17,2,0,2,0,,,,,,,,,,,,,,,,,,,,,,,,,,,,,,,,,,,,,,,,,,,,,,,,,,,,,,,,,,,,,,,,30,,,,,,,,1308.9110161999706,1308.9110161999706,1308.9110161999706,1308.9110161999706,1308.9110161999706,up,0.44314180000219494,1,0,0,99,0.48000000000000004,-0.15999999999999998,up,0.3612393999937922,,,,,,,,,,,,,,,,,,,,,,,,,,,,,,,,,,,,,,,,,,,,,,,,,,,,,,,,,,,,GYWY7N,train_x,red_square,bottom_right,2025-07-16_18h11.58.709,HideSeek_v1,2022.2.5,59.970230788128646,
,7,1,2,1,-5,0,66,,train_dim1_1,18,30,,,,2,0,2,0,,,,,,,,,0,0,0,0,0,17,17,17,3,0,3,0,,,,,,,,,,,,,,,,,,,,,,,,,,,,,,,,,,,,,,,,,,,,,,,,,,,,,,,,,,,,,,,,30,,,,,,,,1309.3628036999144,1309.3628036999144,1309.3628036999144,1309.3628036999144,1309.3628036999144,up,0.3594969999976456,1,0,0,99,0.48000000000000004,-0.07999999999999997,up,0.2833367999410257,,,,,,,,,,,,,,,,,,,,,,,,,,,,,,,,,,,,,,,,,,,,,,,,,,,,,,,,,,,,GYWY7N,train_x,red_square,bottom_right,2025-07-16_18h11.58.709,HideSeek_v1,2022.2.5,59.970230788128646,
,7,1,2,1,-5,0,66,,train_dim1_1,18,30,,,,2,0,2,0,,,,,,,,,0,0,0,0,0,17,17,17,4,0,4,0,,,,,,,,,,,,,,,,,,,,,,,,,,,,,,,,,,,,,,,,,,,,,,,,,,,,,,,,,,,,,,,,30,,,,,,,,1309.7309954999946,1309.7309954999946,1309.7309954999946,1309.7309954999946,1309.7309954999946,left,0.6430645000655204,1,0,0,99,0.4,-0.07999999999999997,left,0.5560293999733403,,,,,,,,,,,,,,,,,,,,,,,,,,,,,,,,,,,,,,,,,,,,,,,,,,,,,,,,,,,,GYWY7N,train_x,red_square,bottom_right,2025-07-16_18h11.58.709,HideSeek_v1,2022.2.5,59.970230788128646,
,7,1,2,1,-5,0,66,,train_dim1_1,18,30,,,,2,0,2,0,,,,,,,,,0,0,0,0,0,17,17,17,5,0,5,0,,,,,,,,,,,,,,,,,,,,,,,,,,,,,,,,,,,,,,,,,,,,,,,,,,,,,,,,,,,,,,,,30,,,,,,,,1310.3803870999254,1310.3803870999254,1310.3803870999254,1310.3803870999254,1310.3803870999254,return,0.9765153999906033,1,0,0,0,0.4,-0.07999999999999997,return,0.8896532999351621,7,-15,0.4,-0.07999999999999997,,,,,,,,,,,,,,,,,,,,,,,,,,,,,,,,,,,,,,,,,,,,,,,,,,,,,,,,GYWY7N,train_x,red_square,bottom_right,2025-07-16_18h11.58.709,HideSeek_v1,2022.2.5,59.970230788128646,
,5,3,2,3,-3,0,46,,train_dim1_1,19,30,,,,2,0,2,0,,,,,,,,,0,0,0,0,0,18,18,18,0,0,0,0,,,,,,,,,,,,,,,,,,,,,,,,,stimuli/alien_stimuli/46.png,,,,,,,,,,,,,,,,,,,,,,,,,,,,,stimuli/alien_stimuli/66.png,66,7,20,,,,,,,30,,,,,,,,1315.543673499953,1315.543673499953,1315.543673499953,1315.543673499953,1315.543673499953,left,0.6043924000114202,1,0,0,99,0.15999999999999998,-0.16,left,0.5025141999358311,,,,,1313.967322499957,1315.543673499953,0,-0.32,0.0,0.4,-0.32,0,0.2,0,-0.32,1312.9243722999236,1312.9243722999236,1312.9243722999236,1312.9243722999236,1312.9243722999236,1312.9243722999236,1312.9243722999236,1312.9243722999236,1312.9157336300004,1.1548206999432296,return,1.0135909999953583,,,,,,,,,,,,,,,,,,,,,,,,,,,,,,,,,GYWY7N,train_x,red_square,bottom_right,2025-07-16_18h11.58.709,HideSeek_v1,2022.2.5,59.970230788128646,
,5,3,2,3,-3,0,46,,train_dim1_1,19,30,,,,2,0,2,0,,,,,,,,,0,0,0,0,0,18,18,18,1,0,1,0,,,,,,,,,,,,,,,,,,,,,,,,,,,,,,,,,,,,,,,,,,,,,,,,,,,,,,,,,,,,,,,,30,,,,,,,,1316.1353109999327,1316.1353109999327,1316.1353109999327,1316.1353109999327,1316.1353109999327,left,0.6925956999184564,1,0,0,99,0.07999999999999997,-0.16,left,0.6116554000182077,,,,,,,,,,,,,,,,,,,,,,,,,,,,,,,,,,,,,,,,,,,,,,,,,,,,,,,,,,,,GYWY7N,train_x,red_square,bottom_right,2025-07-16_18h11.58.709,HideSeek_v1,2022.2.5,59.970230788128646,
,5,3,2,3,-3,0,46,,train_dim1_1,19,30,,,,2,0,2,0,,,,,,,,,0,0,0,0,0,18,18,18,2,0,2,0,,,,,,,,,,,,,,,,,,,,,,,,,,,,,,,,,,,,,,,,,,,,,,,,,,,,,,,,,,,,,,,,30,,,,,,,,1316.8350308999652,1316.8350308999652,1316.8350308999652,1316.8350308999652,1316.8350308999652,left,0.3268227999797091,1,0,0,99,-2.7755575615628914e-17,-0.16,left,0.24807490000966936,,,,,,,,,,,,,,,,,,,,,,,,,,,,,,,,,,,,,,,,,,,,,,,,,,,,,,,,,,,,GYWY7N,train_x,red_square,bottom_right,2025-07-16_18h11.58.709,HideSeek_v1,2022.2.5,59.970230788128646,
,5,3,2,3,-3,0,46,,train_dim1_1,19,30,,,,2,0,2,0,,,,,,,,,0,0,0,0,0,18,18,18,3,0,3,0,,,,,,,,,,,,,,,,,,,,,,,,,,,,,,,,,,,,,,,,,,,,,,,,,,,,,,,,,,,,,,,,30,,,,,,,,1317.169700599974,1317.169700599974,1317.169700599974,1317.169700599974,1317.169700599974,left,0.5932313998928294,1,0,0,99,-0.08000000000000003,-0.16,left,0.5116258000489324,,,,,,,,,,,,,,,,,,,,,,,,,,,,,,,,,,,,,,,,,,,,,,,,,,,,,,,,,,,,GYWY7N,train_x,red_square,bottom_right,2025-07-16_18h11.58.709,HideSeek_v1,2022.2.5,59.970230788128646,
,5,3,2,3,-3,0,46,,train_dim1_1,19,30,,,,2,0,2,0,,,,,,,,,0,0,0,0,0,18,18,18,4,0,4,0,,,,,,,,,,,,,,,,,,,,,,,,,,,,,,,,,,,,,,,,,,,,,,,,,,,,,,,,,,,,,,,,30,,,,,,,,1317.7721926999511,1317.7721926999511,1317.7721926999511,1317.7721926999511,1317.7721926999511,return,0.7266743000363931,1,1,0,0,-0.08000000000000003,-0.16,return,0.6475209000054747,7,-19,-0.08000000000000003,-0.16,,,,,,,,,,,,,,,,,,,,,,,,,,,,,,,,,,,,,,,,,,,,,,,,,,,,,,,,GYWY7N,train_x,red_square,bottom_right,2025-07-16_18h11.58.709,HideSeek_v1,2022.2.5,59.970230788128646,
,5,1,5,1,0,0,16,,train_dim1_1,20,30,,,,2,0,2,0,,,,,,,,,0,0,0,0,0,19,19,19,0,0,0,0,,,,,,,,,,,,,,,,,,,,,,,,,stimuli/alien_stimuli/16.png,,,,,,,,,,,,,,,,,,,,,,,,,,,,,stimuli/alien_stimuli/46.png,46,5,21,,,,,,,30,,,,,,,,1323.1868730999995,1323.1868730999995,1323.1868730999995,1323.1868730999995,1323.1868730999995,return,1.741943100001663,2,0,0,1,0.24,-0.32,return,1.625588099937886,7,-19,0.24,-0.32,1321.6077506999718,1323.1868730999995,0,-0.16,0.0,0.24,-0.16,0,0.12,0,-0.16,1320.0613813999807,1320.0613813999807,1320.0613813999807,1320.0613813999807,1320.0613813999807,1320.0613813999807,1320.0613813999807,1320.0613813999807,1320.0556497299576,1.6534888000460342,return,1.51921910000965,,,,,,,,,,,,,,,,,,,,,,,,,,,,,,,,,GYWY7N,train_x,red_square,bottom_right,2025-07-16_18h11.58.709,HideSeek_v1,2022.2.5,59.970230788128646,
,9,2,6,2,-3,0,46,,train_dim1_1,21,30,,,,2,0,2,0,,,,,,,,,0,0,0,0,0,20,20,20,0,0,0,0,,,,,,,,,,,,,,,,,,,,,,,,,stimuli/alien_stimuli/46.png,,,,,,,,,,,,,,,,,,,,,,,,,,,,,stimuli/alien_stimuli/16.png,16,5,22,,,,,,,30,,,,,,,,1329.462927299901,1329.462927299901,1329.462927299901,1329.462927299901,1329.462927299901,left,0.8722692000446841,2,0,0,99,0.48000000000000004,-0.24,left,0.7728534999769181,,,,,1327.8961822999408,1329.462927299901,0.24,-0.32,0.0,0.0,-0.32,0.24,0.24,0.24,-0.32,1326.4772241999162,1326.4772241999162,1326.4772241999162,1326.4772241999162,1326.4772241999162,1326.4772241999162,1326.4772241999162,1326.4772241999162,1326.4628241300115,1.5360909000737593,return,1.393804999999702,,,,,,,,,,,,,,,,,,,,,,,,,,,,,,,,,GYWY7N,train_x,red_square,bottom_right,2025-07-16_18h11.58.709,HideSeek_v1,2022.2.5,59.970230788128646,
,9,2,6,2,-3,0,46,,train_dim1_1,21,30,,,,2,0,2,0,,,,,,,,,0,0,0,0,0,20,20,20,1,0,1,0,,,,,,,,,,,,,,,,,,,,,,,,,,,,,,,,,,,,,,,,,,,,,,,,,,,,,,,,,,,,,,,,30,,,,,,,,1330.3327589998953,1330.3327589998953,1330.3327589998953,1330.3327589998953,1330.3327589998953,left,0.29154030000790954,2,0,0,99,0.4,-0.24,left,0.20824710000306368,,,,,,,,,,,,,,,,,,,,,,,,,,,,,,,,,,,,,,,,,,,,,,,,,,,,,,,,,,,,GYWY7N,train_x,red_square,bottom_right,2025-07-16_18h11.58.709,HideSeek_v1,2022.2.5,59.970230788128646,
,9,2,6,2,-3,0,46,,train_dim1_1,21,30,,,,2,0,2,0,,,,,,,,,0,0,0,0,0,20,20,20,2,0,2,0,,,,,,,,,,,,,,,,,,,,,,,,,,,,,,,,,,,,,,,,,,,,,,,,,,,,,,,,,,,,,,,,30,,,,,,,,1330.6307207999052,1330.6307207999052,1330.6307207999052,1330.6307207999052,1330.6307207999052,left,0.32586240000091493,2,0,0,99,0.32,-0.24,left,0.2453224000055343,,,,,,,,,,,,,,,,,,,,,,,,,,,,,,,,,,,,,,,,,,,,,,,,,,,,,,,,,,,,GYWY7N,train_x,red_square,bottom_right,2025-07-16_18h11.58.709,HideSeek_v1,2022.2.5,59.970230788128646,
,9,2,6,2,-3,0,46,,train_dim1_1,21,30,,,,2,0,2,0,,,,,,,,,0,0,0,0,0,20,20,20,3,0,3,0,,,,,,,,,,,,,,,,,,,,,,,,,,,,,,,,,,,,,,,,,,,,,,,,,,,,,,,,,,,,,,,,30,,,,,,,,1330.963659000001,1330.963659000001,1330.963659000001,1330.963659000001,1330.963659000001,left,1.4437261999119073,2,0,0,99,0.24,-0.24,left,1.3538834999781102,,,,,,,,,,,,,,,,,,,,,,,,,,,,,,,,,,,,,,,,,,,,,,,,,,,,,,,,,,,,GYWY7N,train_x,red_square,bottom_right,2025-07-16_18h11.58.709,HideSeek_v1,2022.2.5,59.970230788128646,
,9,2,6,2,-3,0,46,,train_dim1_1,21,30,,,,2,0,2,0,,,,,,,,,0,0,0,0,0,20,20,20,4,0,4,0,,,,,,,,,,,,,,,,,,,,,,,,,,,,,,,,,,,,,,,,,,,,,,,,,,,,,,,,,,,,,,,,30,,,,,,,,1332.4143942999654,1332.4143942999654,1332.4143942999654,1332.4143942999654,1332.4143942999654,left,0.1770429000025615,2,0,0,99,0.15999999999999998,-0.24,left,0.10005709994584322,,,,,,,,,,,,,,,,,,,,,,,,,,,,,,,,,,,,,,,,,,,,,,,,,,,,,,,,,,,,GYWY7N,train_x,red_square,bottom_right,2025-07-16_18h11.58.709,HideSeek_v1,2022.2.5,59.970230788128646,
,9,2,6,2,-3,0,46,,train_dim1_1,21,30,,,,2,0,2,0,,,,,,,,,0,0,0,0,0,20,20,20,5,0,5,0,,,,,,,,,,,,,,,,,,,,,,,,,,,,,,,,,,,,,,,,,,,,,,,,,,,,,,,,,,,,,,,,30,,,,,,,,1332.6076020000037,1332.6076020000037,1332.6076020000037,1332.6076020000037,1332.6076020000037,right,0.7091173999942839,2,0,0,99,0.24,-0.24,right,0.6129348000977188,,,,,,,,,,,,,,,,,,,,,,,,,,,,,,,,,,,,,,,,,,,,,,,,,,,,,,,,,,,,GYWY7N,train_x,red_square,bottom_right,2025-07-16_18h11.58.709,HideSeek_v1,2022.2.5,59.970230788128646,
,9,2,6,2,-3,0,46,,train_dim1_1,21,30,,,,2,0,2,0,,,,,,,,,0,0,0,0,0,20,20,20,6,0,6,0,,,,,,,,,,,,,,,,,,,,,,,,,,,,,,,,,,,,,,,,,,,,,,,,,,,,,,,,,,,,,,,,30,,,,,,,,1333.3172797999578,1333.3172797999578,1333.3172797999578,1333.3172797999578,1333.3172797999578,return,0.5600073999958113,2,1,0,0,0.24,-0.24,return,0.47843720007222146,7,-23,0.24,-0.24,,,,,,,,,,,,,,,,,,,,,,,,,,,,,,,,,,,,,,,,,,,,,,,,,,,,,,,,GYWY7N,train_x,red_square,bottom_right,2025-07-16_18h11.58.709,HideSeek_v1,2022.2.5,59.970230788128646,
,6,0,5,0,-1,0,26,,train_dim1_1,22,30,,,,2,0,2,0,,,,,,,,,0,0,0,0,0,21,21,21,0,0,0,0,,,,,,,,,,,,,,,,,,,,,,,,,stimuli/alien_stimuli/26.png,,,,,,,,,,,,,,,,,,,,,,,,,,,,,stimuli/alien_stimuli/46.png,46,9,23,,,,,,,30,,,,,,,,1338.413683099905,1338.413683099905,1338.413683099905,1338.413683099905,1338.413683099905,left,2.753991200006567,2,1,0,99,0.24,-0.4,left,2.6305692000314593,,,,,1336.7861956999404,1338.413683099905,0.32,-0.24,0.0,0.24,-0.24,0.32,0.44000000000000006,0.32,-0.24,1335.4379963999381,1335.4379963999381,1335.4379963999381,1335.4379963999381,1335.4379963999381,1335.4379963999381,1335.4379963999381,1335.4379963999381,1335.4186314399353,1.4550505999941379,return,1.3241730000590906,,,,,,,,,,,,,,,,,,,,,,,,,,,,,,,,,GYWY7N,train_x,red_square,bottom_right,2025-07-16_18h11.58.709,HideSeek_v1,2022.2.5,59.970230788128646,
,6,0,5,0,-1,0,26,,train_dim1_1,22,30,,,,2,0,2,0,,,,,,,,,0,0,0,0,0,21,21,21,1,0,1,0,,,,,,,,,,,,,,,,,,,,,,,,,,,,,,,,,,,,,,,,,,,,,,,,,,,,,,,,,,,,,,,,30,,,,,,,,1341.1437895999989,1341.1437895999989,1341.1437895999989,1341.1437895999989,1341.1437895999989,left,0.19151560007594526,2,1,0,99,0.15999999999999998,-0.4,left,0.10492800001520663,,,,,,,,,,,,,,,,,,,,,,,,,,,,,,,,,,,,,,,,,,,,,,,,,,,,,,,,,,,,GYWY7N,train_x,red_square,bottom_right,2025-07-16_18h11.58.709,HideSeek_v1,2022.2.5,59.970230788128646,
,6,0,5,0,-1,0,26,,train_dim1_1,22,30,,,,2,0,2,0,,,,,,,,,0,0,0,0,0,21,21,21,2,0,2,0,,,,,,,,,,,,,,,,,,,,,,,,,,,,,,,,,,,,,,,,,,,,,,,,,,,,,,,,,,,,,,,,30,,,,,,,,1341.3442605999298,1341.3442605999298,1341.3442605999298,1341.3442605999298,1341.3442605999298,left,0.21019589994102716,2,1,0,99,0.07999999999999997,-0.4,left,0.12181799998506904,,,,,,,,,,,,,,,,,,,,,,,,,,,,,,,,,,,,,,,,,,,,,,,,,,,,,,,,,,,,GYWY7N,train_x,red_square,bottom_right,2025-07-16_18h11.58.709,HideSeek_v1,2022.2.5,59.970230788128646,
,6,0,5,0,-1,0,26,,train_dim1_1,22,30,,,,2,0,2,0,,,,,,,,,0,0,0,0,0,21,21,21,3,0,3,0,,,,,,,,,,,,,,,,,,,,,,,,,,,,,,,,,,,,,,,,,,,,,,,,,,,,,,,,,,,,,,,,30,,,,,,,,1341.5607442999026,1341.5607442999026,1341.5607442999026,1341.5607442999026,1341.5607442999026,left,0.6597490001004189,2,1,0,99,-2.7755575615628914e-17,-0.4,left,0.5798952999757603,,,,,,,,,,,,,,,,,,,,,,,,,,,,,,,,,,,,,,,,,,,,,,,,,,,,,,,,,,,,GYWY7N,train_x,red_square,bottom_right,2025-07-16_18h11.58.709,HideSeek_v1,2022.2.5,59.970230788128646,
,6,0,5,0,-1,0,26,,train_dim1_1,22,30,,,,2,0,2,0,,,,,,,,,0,0,0,0,0,21,21,21,4,0,4,0,,,,,,,,,,,,,,,,,,,,,,,,,,,,,,,,,,,,,,,,,,,,,,,,,,,,,,,,,,,,,,,,30,,,,,,,,1342.2286962999497,1342.2286962999497,1342.2286962999497,1342.2286962999497,1342.2286962999497,return,1.0766227999702096,2,0,0,0,-2.7755575615628914e-17,-0.4,return,0.9951072999974713,7,-27,-2.7755575615628914e-17,-0.4,,,,,,,,,,,,,,,,,,,,,,,,,,,,,,,,,,,,,,,,,,,,,,,,,,,,,,,,GYWY7N,train_x,red_square,bottom_right,2025-07-16_18h11.58.709,HideSeek_v1,2022.2.5,59.970230788128646,
,7,1,2,1,-5,0,66,,train_dim1_1,23,30,,,,2,0,2,0,,,,,,,,,0,0,0,0,0,22,22,22,0,0,0,0,,,,,,,,,,,,,,,,,,,,,,,,,stimuli/alien_stimuli/66.png,,,,,,,,,,,,,,,,,,,,,,,,,,,,,stimuli/alien_stimuli/26.png,26,6,24,,,,,,,30,,,,,,,,1347.4255524999462,1347.4255524999462,1347.4255524999462,1347.4255524999462,1347.4255524999462,up,2.6063900999724865,2,0,0,99,0.4,-0.24,up,2.5012358999811113,,,,,1345.845515999943,1347.4255524999462,0.24,-0.4,0.0,0.08,-0.4,0.24,0.28,0.24,-0.4,1344.8749850000022,1344.8749850000022,1344.8749850000022,1344.8749850000022,1344.8749850000022,1344.8749850000022,1344.8749850000022,1344.8749850000022,1344.8592125300083,1.0887866999255493,return,0.9420814999612048,,,,,,,,,,,,,,,,,,,,,,,,,,,,,,,,,GYWY7N,train_x,red_square,bottom_right,2025-07-16_18h11.58.709,HideSeek_v1,2022.2.5,59.970230788128646,
,7,1,2,1,-5,0,66,,train_dim1_1,23,30,,,,2,0,2,0,,,,,,,,,0,0,0,0,0,22,22,22,1,0,1,0,,,,,,,,,,,,,,,,,,,,,,,,,,,,,,,,,,,,,,,,,,,,,,,,,,,,,,,,,,,,,,,,30,,,,,,,,1350.0160118999192,1350.0160118999192,1350.0160118999192,1350.0160118999192,1350.0160118999192,up,0.2616470999782905,2,0,0,99,0.4,-0.15999999999999998,up,0.1688780999975279,,,,,,,,,,,,,,,,,,,,,,,,,,,,,,,,,,,,,,,,,,,,,,,,,,,,,,,,,,,,GYWY7N,train_x,red_square,bottom_right,2025-07-16_18h11.58.709,HideSeek_v1,2022.2.5,59.970230788128646,
,7,1,2,1,-5,0,66,,train_dim1_1,23,30,,,,2,0,2,0,,,,,,,,,0,0,0,0,0,22,22,22,2,0,2,0,,,,,,,,,,,,,,,,,,,,,,,,,,,,,,,,,,,,,,,,,,,,,,,,,,,,,,,,,,,,,,,,30,,,,,,,,1350.283763299929,1350.283763299929,1350.283763299929,1350.283763299929,1350.283763299929,up,0.20659539999905974,2,0,0,99,0.4,-0.07999999999999997,up,0.1275444000493735,,,,,,,,,,,,,,,,,,,,,,,,,,,,,,,,,,,,,,,,,,,,,,,,,,,,,,,,,,,,GYWY7N,train_x,red_square,bottom_right,2025-07-16_18h11.58.709,HideSeek_v1,2022.2.5,59.970230788128646,
,7,1,2,1,-5,0,66,,train_dim1_1,23,30,,,,2,0,2,0,,,,,,,,,0,0,0,0,0,22,22,22,3,0,3,0,,,,,,,,,,,,,,,,,,,,,,,,,,,,,,,,,,,,,,,,,,,,,,,,,,,,,,,,,,,,,,,,30,,,,,,,,1350.4967718999833,1350.4967718999833,1350.4967718999833,1350.4967718999833,1350.4967718999833,up,0.15922789997421205,2,0,0,99,0.4,2.7755575615628914e-17,up,0.08106530003715307,,,,,,,,,,,,,,,,,,,,,,,,,,,,,,,,,,,,,,,,,,,,,,,,,,,,,,,,,,,,GYWY7N,train_x,red_square,bottom_right,2025-07-16_18h11.58.709,HideSeek_v1,2022.2.5,59.970230788128646,
,7,1,2,1,-5,0,66,,train_dim1_1,23,30,,,,2,0,2,0,,,,,,,,,0,0,0,0,0,22,22,22,4,0,4,0,,,,,,,,,,,,,,,,,,,,,,,,,,,,,,,,,,,,,,,,,,,,,,,,,,,,,,,,,,,,,,,,30,,,,,,,,1350.662649899954,1350.662649899954,1350.662649899954,1350.662649899954,1350.662649899954,down,1.0941100000636652,2,0,0,99,0.4,-0.07999999999999997,down,1.0137813000474125,,,,,,,,,,,,,,,,,,,,,,,,,,,,,,,,,,,,,,,,,,,,,,,,,,,,,,,,,,,,GYWY7N,train_x,red_square,bottom_right,2025-07-16_18h11.58.709,HideSeek_v1,2022.2.5,59.970230788128646,
,7,1,2,1,-5,0,66,,train_dim1_1,23,30,,,,2,0,2,0,,,,,,,,,0,0,0,0,0,22,22,22,5,0,5,0,,,,,,,,,,,,,,,,,,,,,,,,,,,,,,,,,,,,,,,,,,,,,,,,,,,,,,,,,,,,,,,,30,,,,,,,,1351.7634238000028,1351.7634238000028,1351.7634238000028,1351.7634238000028,1351.7634238000028,return,0.34288579993881285,2,0,0,0,0.4,-0.07999999999999997,return,0.2673979999963194,10,-27,0.4,-0.07999999999999997,,,,,,,,,,,,,,,,,,,,,,,,,,,,,,,,,,,,,,,,,,,,,,,,,,,,,,,,GYWY7N,train_x,red_square,bottom_right,2025-07-16_18h11.58.709,HideSeek_v1,2022.2.5,59.970230788128646,
,9,4,5,4,-4,0,56,,train_dim1_1,24,30,,,,2,0,2,0,,,,,,,,,0,0,0,0,0,23,23,23,0,0,0,0,,,,,,,,,,,,,,,,,,,,,,,,,stimuli/alien_stimuli/56.png,,,,,,,,,,,,,,,,,,,,,,,,,,,,,stimuli/alien_stimuli/66.png,66,7,25,,,,,,,30,,,,,,,,1356.2502515999367,1356.2502515999367,1356.2502515999367,1356.2502515999367,1356.2502515999367,return,1.8895008000545204,2,0,0,0,0.56,-0.08,return,1.804321000003256,10,-27,0.56,-0.08,1354.684267799952,1356.2502515999367,0,-0.32,0.0,0.4,-0.32,0,0.2,0,-0.32,1353.6725043999031,1353.6725043999031,1353.6725043999031,1353.6725043999031,1353.6725043999031,1353.6725043999031,1353.6725043999031,1353.6725043999031,1353.66651723003,1.1212278000311926,return,0.9896183999953791,,,,,,,,,,,,,,,,,,,,,,,,,,,,,,,,,GYWY7N,train_x,red_square,bottom_right,2025-07-16_18h11.58.709,HideSeek_v1,2022.2.5,59.970230788128646,
,8,0,8,0,0,0,16,,train_dim1_1,25,30,,,,2,0,2,0,,,,,,,,,0,0,0,0,0,24,24,24,0,0,0,0,,,,,,,,,,,,,,,,,,,,,,,,,stimuli/alien_stimuli/16.png,,,,,,,,,,,,,,,,,,,,,,,,,,,,,stimuli/alien_stimuli/56.png,56,9,26,,,,,,,30,,,,,,,,1362.1707668999443,1362.1707668999443,1362.1707668999443,1362.1707668999443,1362.1707668999443,left,0.5713901000563055,2,0,0,99,0.39999999999999997,-0.4,left,0.482921399991028,,,,,1360.606787399971,1362.1707668999443,0.24,-0.08,0.0,0.32,-0.08,0.24,0.4,0.24,-0.08,1359.6958401999436,1359.6958401999436,1359.6958401999436,1359.6958401999436,1359.6958401999436,1359.6958401999436,1359.6958401999436,1359.6958401999436,1359.6886458299587,1.0230583000229672,return,0.8796303999843076,,,,,,,,,,,,,,,,,,,,,,,,,,,,,,,,,GYWY7N,train_x,red_square,bottom_right,2025-07-16_18h11.58.709,HideSeek_v1,2022.2.5,59.970230788128646,
,8,0,8,0,0,0,16,,train_dim1_1,25,30,,,,2,0,2,0,,,,,,,,,0,0,0,0,0,24,24,24,1,0,1,0,,,,,,,,,,,,,,,,,,,,,,,,,,,,,,,,,,,,,,,,,,,,,,,,,,,,,,,,,,,,,,,,30,,,,,,,,1362.746297899983,1362.746297899983,1362.746297899983,1362.746297899983,1362.746297899983,left,0.4427387999603525,2,0,0,99,0.31999999999999995,-0.4,left,0.3479345999658108,,,,,,,,,,,,,,,,,,,,,,,,,,,,,,,,,,,,,,,,,,,,,,,,,,,,,,,,,,,,GYWY7N,train_x,red_square,bottom_right,2025-07-16_18h11.58.709,HideSeek_v1,2022.2.5,59.970230788128646,
,8,0,8,0,0,0,16,,train_dim1_1,25,30,,,,2,0,2,0,,,,,,,,,0,0,0,0,0,24,24,24,2,0,2,0,,,,,,,,,,,,,,,,,,,,,,,,,,,,,,,,,,,,,,,,,,,,,,,,,,,,,,,,,,,,,,,,30,,,,,,,,1363.1967962998897,1363.1967962998897,1363.1967962998897,1363.1967962998897,1363.1967962998897,left,0.4273760999785736,2,0,0,99,0.23999999999999994,-0.4,left,0.33176819991786033,,,,,,,,,,,,,,,,,,,,,,,,,,,,,,,,,,,,,,,,,,,,,,,,,,,,,,,,,,,,GYWY7N,train_x,red_square,bottom_right,2025-07-16_18h11.58.709,HideSeek_v1,2022.2.5,59.970230788128646,
,8,0,8,0,0,0,16,,train_dim1_1,25,30,,,,2,0,2,0,,,,,,,,,0,0,0,0,0,24,24,24,3,0,3,0,,,,,,,,,,,,,,,,,,,,,,,,,,,,,,,,,,,,,,,,,,,,,,,,,,,,,,,,,,,,,,,,30,,,,,,,,1363.635675599915,1363.635675599915,1363.635675599915,1363.635675599915,1363.635675599915,right,1.675738999969326,2,0,0,99,0.31999999999999995,-0.4,right,1.5868789999512956,,,,,,,,,,,,,,,,,,,,,,,,,,,,,,,,,,,,,,,,,,,,,,,,,,,,,,,,,,,,GYWY7N,train_x,red_square,bottom_right,2025-07-16_18h11.58.709,HideSeek_v1,2022.2.5,59.970230788128646,
,8,0,8,0,0,0,16,,train_dim1_1,25,30,,,,2,0,2,0,,,,,,,,,0,0,0,0,0,24,24,24,4,0,4,0,,,,,,,,,,,,,,,,,,,,,,,,,,,,,,,,,,,,,,,,,,,,,,,,,,,,,,,,,,,,,,,,30,,,,,,,,1365.3179130998906,1365.3179130998906,1365.3179130998906,1365.3179130998906,1365.3179130998906,right,0.29299310001078993,2,0,0,99,0.39999999999999997,-0.4,right,0.2063768000807613,,,,,,,,,,,,,,,,,,,,,,,,,,,,,,,,,,,,,,,,,,,,,,,,,,,,,,,,,,,,GYWY7N,train_x,red_square,bottom_right,2025-07-16_18h11.58.709,HideSeek_v1,2022.2.5,59.970230788128646,
,8,0,8,0,0,0,16,,train_dim1_1,25,30,,,,2,0,2,0,,,,,,,,,0,0,0,0,0,24,24,24,5,0,5,0,,,,,,,,,,,,,,,,,,,,,,,,,,,,,,,,,,,,,,,,,,,,,,,,,,,,,,,,,,,,,,,,30,,,,,,,,1365.6197323999368,1365.6197323999368,1365.6197323999368,1365.6197323999368,1365.6197323999368,right,0.30697429995052516,2,0,0,99,0.48,-0.4,right,0.21761789999436587,,,,,,,,,,,,,,,,,,,,,,,,,,,,,,,,,,,,,,,,,,,,,,,,,,,,,,,,,,,,GYWY7N,train_x,red_square,bottom_right,2025-07-16_18h11.58.709,HideSeek_v1,2022.2.5,59.970230788128646,
,8,0,8,0,0,0,16,,train_dim1_1,25,30,,,,2,0,2,0,,,,,,,,,0,0,0,0,0,24,24,24,6,0,6,0,,,,,,,,,,,,,,,,,,,,,,,,,,,,,,,,,,,,,,,,,,,,,,,,,,,,,,,,,,,,,,,,30,,,,,,,,1365.9333839999745,1365.9333839999745,1365.9333839999745,1365.9333839999745,1365.9333839999745,up,3.4453323000343516,2,0,0,99,0.48,-0.32,up,3.35917359997984,,,,,,,,,,,,,,,,,,,,,,,,,,,,,,,,,,,,,,,,,,,,,,,,,,,,,,,,,,,,GYWY7N,train_x,red_square,bottom_right,2025-07-16_18h11.58.709,HideSeek_v1,2022.2.5,59.970230788128646,
,8,0,8,0,0,0,16,,train_dim1_1,25,30,,,,2,0,2,0,,,,,,,,,0,0,0,0,0,24,24,24,7,0,7,0,,,,,,,,,,,,,,,,,,,,,,,,,,,,,,,,,,,,,,,,,,,,,,,,,,,,,,,,,,,,,,,,30,,,,,,,,1369.392666599946,1369.392666599946,1369.392666599946,1369.392666599946,1369.392666599946,up,0.3416058999719098,2,0,0,99,0.48,-0.24,up,0.24003860005177557,,,,,,,,,,,,,,,,,,,,,,,,,,,,,,,,,,,,,,,,,,,,,,,,,,,,,,,,,,,,GYWY7N,train_x,red_square,bottom_right,2025-07-16_18h11.58.709,HideSeek_v1,2022.2.5,59.970230788128646,
,8,0,8,0,0,0,16,,train_dim1_1,25,30,,,,2,0,2,0,,,,,,,,,0,0,0,0,0,24,24,24,8,0,8,0,,,,,,,,,,,,,,,,,,,,,,,,,,,,,,,,,,,,,,,,,,,,,,,,,,,,,,,,,,,,,,,,30,,,,,,,,1369.7384263999993,1369.7384263999993,1369.7384263999993,1369.7384263999993,1369.7384263999993,up,0.3433406000258401,2,0,0,99,0.48,-0.15999999999999998,up,0.25240160000976175,,,,,,,,,,,,,,,,,,,,,,,,,,,,,,,,,,,,,,,,,,,,,,,,,,,,,,,,,,,,GYWY7N,train_x,red_square,bottom_right,2025-07-16_18h11.58.709,HideSeek_v1,2022.2.5,59.970230788128646,
,8,0,8,0,0,0,16,,train_dim1_1,25,30,,,,2,0,2,0,,,,,,,,,0,0,0,0,0,24,24,24,9,0,9,0,,,,,,,,,,,,,,,,,,,,,,,,,,,,,,,,,,,,,,,,,,,,,,,,,,,,,,,,,,,,,,,,30,,,,,,,,1370.0850542999106,1370.0850542999106,1370.0850542999106,1370.0850542999106,1370.0850542999106,return,2.0449465999845415,2,0,0,0,0.48,-0.15999999999999998,return,1.9505611000349745,13,-27,0.48,-0.15999999999999998,,,,,,,,,,,,,,,,,,,,,,,,,,,,,,,,,,,,,,,,,,,,,,,,,,,,,,,,GYWY7N,train_x,red_square,bottom_right,2025-07-16_18h11.58.709,HideSeek_v1,2022.2.5,59.970230788128646,
,6,1,1,1,-5,0,66,,train_dim1_1,26,30,,,,2,0,2,0,,,,,,,,,0,0,0,0,0,25,25,25,0,0,0,0,,,,,,,,,,,,,,,,,,,,,,,,,stimuli/alien_stimuli/66.png,,,,,,,,,,,,,,,,,,,,,,,,,,,,,stimuli/alien_stimuli/16.png,16,8,27,,,,,,,30,,,,,,,,1376.146813999978,1376.146813999978,1376.146813999978,1376.146813999978,1376.146813999978,right,1.405864299973473,2,0,0,99,0.4,-0.32,right,1.29530130000785,,,,,1374.5687638999661,1376.146813999978,0.48,-0.4,0.0,0.0,-0.4,0.48,0.48,0.48,-0.4,1373.7063587999437,1373.7063587999437,1373.7063587999437,1373.7063587999437,1373.7063587999437,1373.7063587999437,1373.7063587999437,1373.7063587999437,1373.7001327200094,0.9898973000235856,return,0.84000769990962,,,,,,,,,,,,,,,,,,,,,,,,,,,,,,,,,GYWY7N,train_x,red_square,bottom_right,2025-07-16_18h11.58.709,HideSeek_v1,2022.2.5,59.970230788128646,
,6,1,1,1,-5,0,66,,train_dim1_1,26,30,,,,2,0,2,0,,,,,,,,,0,0,0,0,0,25,25,25,1,0,1,0,,,,,,,,,,,,,,,,,,,,,,,,,,,,,,,,,,,,,,,,,,,,,,,,,,,,,,,,,,,,,,,,30,,,,,,,,1377.5356178999646,1377.5356178999646,1377.5356178999646,1377.5356178999646,1377.5356178999646,right,0.2616620999760926,2,0,0,99,0.48000000000000004,-0.32,right,0.1757937999209389,,,,,,,,,,,,,,,,,,,,,,,,,,,,,,,,,,,,,,,,,,,,,,,,,,,,,,,,,,,,GYWY7N,train_x,red_square,bottom_right,2025-07-16_18h11.58.709,HideSeek_v1,2022.2.5,59.970230788128646,
,6,1,1,1,-5,0,66,,train_dim1_1,26,30,,,,2,0,2,0,,,,,,,,,0,0,0,0,0,25,25,25,2,0,2,0,,,,,,,,,,,,,,,,,,,,,,,,,,,,,,,,,,,,,,,,,,,,,,,,,,,,,,,,,,,,,,,,30,,,,,,,,1377.8065411999123,1377.8065411999123,1377.8065411999123,1377.8065411999123,1377.8065411999123,right,0.6409586999798194,2,0,0,99,0.56,-0.32,right,0.5577343000331894,,,,,,,,,,,,,,,,,,,,,,,,,,,,,,,,,,,,,,,,,,,,,,,,,,,,,,,,,,,,GYWY7N,train_x,red_square,bottom_right,2025-07-16_18h11.58.709,HideSeek_v1,2022.2.5,59.970230788128646,
,6,1,1,1,-5,0,66,,train_dim1_1,26,30,,,,2,0,2,0,,,,,,,,,0,0,0,0,0,25,25,25,3,0,3,0,,,,,,,,,,,,,,,,,,,,,,,,,,,,,,,,,,,,,,,,,,,,,,,,,,,,,,,,,,,,,,,,30,,,,,,,,1378.4529829999665,1378.4529829999665,1378.4529829999665,1378.4529829999665,1378.4529829999665,return,0.5428511999780312,2,0,0,0,0.56,-0.32,return,0.4667061000363901,13,-24,0.56,-0.32,,,,,,,,,,,,,,,,,,,,,,,,,,,,,,,,,,,,,,,,,,,,,,,,,,,,,,,,GYWY7N,train_x,red_square,bottom_right,2025-07-16_18h11.58.709,HideSeek_v1,2022.2.5,59.970230788128646,
,5,1,2,1,-3,0,46,,train_dim1_1,27,30,,,,2,0,2,0,,,,,,,,,0,0,0,0,0,26,26,26,0,0,0,0,,,,,,,,,,,,,,,,,,,,,,,,,stimuli/alien_stimuli/46.png,,,,,,,,,,,,,,,,,,,,,,,,,,,,,stimuli/alien_stimuli/66.png,66,6,28,,,,,,,30,,,,,,,,1383.092264499981,1383.092264499981,1383.092264499981,1383.092264499981,1383.092264499981,down,0.6519952999660745,2,0,0,99,0.24,-0.4,down,0.5508022999856621,,,,,1381.5239481999306,1383.092264499981,-0.08,-0.32,0.0,0.4,-0.32,-0.08,0.12,-0.08,-0.32,1380.5690873999847,1380.5690873999847,1380.5690873999847,1380.5690873999847,1380.5690873999847,1380.5690873999847,1380.5690873999847,1380.5690873999847,1380.5562293299472,1.071018400019966,return,0.9388132999883965,,,,,,,,,,,,,,,,,,,,,,,,,,,,,,,,,GYWY7N,train_x,red_square,bottom_right,2025-07-16_18h11.58.709,HideSeek_v1,2022.2.5,59.970230788128646,
,5,1,2,1,-3,0,46,,train_dim1_1,27,30,,,,2,0,2,0,,,,,,,,,0,0,0,0,0,26,26,26,1,0,1,0,,,,,,,,,,,,,,,,,,,,,,,,,,,,,,,,,,,,,,,,,,,,,,,,,,,,,,,,,,,,,,,,30,,,,,,,,1383.741463299957,1383.741463299957,1383.741463299957,1383.741463299957,1383.741463299957,up,0.8604679999407381,2,0,0,99,0.24,-0.32,up,0.7823617999674752,,,,,,,,,,,,,,,,,,,,,,,,,,,,,,,,,,,,,,,,,,,,,,,,,,,,,,,,,,,,GYWY7N,train_x,red_square,bottom_right,2025-07-16_18h11.58.709,HideSeek_v1,2022.2.5,59.970230788128646,
,5,1,2,1,-3,0,46,,train_dim1_1,27,30,,,,2,0,2,0,,,,,,,,,0,0,0,0,0,26,26,26,2,0,2,0,,,,,,,,,,,,,,,,,,,,,,,,,,,,,,,,,,,,,,,,,,,,,,,,,,,,,,,,,,,,,,,,30,,,,,,,,1384.6124356999062,1384.6124356999062,1384.6124356999062,1384.6124356999062,1384.6124356999062,up,0.22603530006017536,2,0,0,99,0.24,-0.24,up,0.14363199996296316,,,,,,,,,,,,,,,,,,,,,,,,,,,,,,,,,,,,,,,,,,,,,,,,,,,,,,,,,,,,GYWY7N,train_x,red_square,bottom_right,2025-07-16_18h11.58.709,HideSeek_v1,2022.2.5,59.970230788128646,
,5,1,2,1,-3,0,46,,train_dim1_1,27,30,,,,2,0,2,0,,,,,,,,,0,0,0,0,0,26,26,26,3,0,3,0,,,,,,,,,,,,,,,,,,,,,,,,,,,,,,,,,,,,,,,,,,,,,,,,,,,,,,,,,,,,,,,,30,,,,,,,,1384.8420830999967,1384.8420830999967,1384.8420830999967,1384.8420830999967,1384.8420830999967,up,0.17533449991606176,2,0,0,99,0.24,-0.15999999999999998,up,0.09958010003902018,,,,,,,,,,,,,,,,,,,,,,,,,,,,,,,,,,,,,,,,,,,,,,,,,,,,,,,,,,,,GYWY7N,train_x,red_square,bottom_right,2025-07-16_18h11.58.709,HideSeek_v1,2022.2.5,59.970230788128646,
