trialInstr,x_fixStart,y_fixStart,x_corrSteps,y_corrSteps,x_nrSteps,y_nrSteps,alienID,trialLength,version,trialTrain,praclen,testlen,trial_label,break_on_off,beforeExpLoop.thisRepN,beforeExpLoop.thisTrialN,beforeExpLoop.thisN,beforeExpLoop.thisIndex,mini_instr_trials.thisRepN,mini_instr_trials.thisTrialN,mini_instr_trials.thisN,mini_instr_trials.thisIndex,instrLoop.thisRepN,instrLoop.thisTrialN,instrLoop.thisN,instrLoop.thisIndex,repeat_prac.thisRepN,repeat_prac.thisTrialN,repeat_prac.thisN,repeat_prac.thisIndex,trainLoop.thisRepN,trainLoop.thisTrialN,trainLoop.thisN,trainLoop.thisIndex,moveLoop_train.thisRepN,moveLoop_train.thisTrialN,moveLoop_train.thisN,moveLoop_train.thisIndex,experiment.thisRepN,experiment.thisTrialN,experiment.thisN,experiment.thisIndex,moveLoop_test.thisRepN,moveLoop_test.thisTrialN,moveLoop_test.thisN,moveLoop_test.thisIndex,mini_instr2_trials.thisRepN,mini_instr2_trials.thisTrialN,mini_instr2_trials.thisN,mini_instr2_trials.thisIndex,start_all_time,url,slideStim,audioStim,slides.started,sounds.started,nextButton.numClicks,nextButton.timesOn,nextButton.timesOff,prev_but.numClicks,prev_but.timesOn,prev_but.timesOff,alienStim,instrFile,alienStim_instr,gridImage_instr.started,startPos_3.started,key_instr.started,alienImage_3.started,sounds_1.started,key_instr.keys,key_instr.rt,all_x,all_y,FBy_corrSteps,FBy_fixStart,FBx_corrSteps,FBx_fixStart,FBy_pathSize_check,FBx_pathSize_check,gridImage_9.started,alienImageFB_3.started,startPosFB_3.started,keyFB_3.started,pathLine_ydir_2.started,pathLine_xdir_2.started,alienFace_3.started,sounds_2.started,RTFB_instr,keyFB_3.keys,keyFB_3.rt,draw_alienStim,draw_alienID,test_x,nrepcount,perfthres,percthres,earlierperf,earlystop,nextPrac,fileidx,praclen,saveACC_train,pracFile,nextPrac_train,addNrep,fileidx_endr,repExp,showearly,gridImage_4.started,startPos.started,movePos.started,key_resp.started,alienImage.started,buttonPress_train,RTchoice_train,cumAcctrain,aCorr,saveACC_choice,corrAns,x_movePos_end,y_movePos_end,key_resp.keys,key_resp.rt,wLy_dir,wLx_dir,x_movePos,y_movePos,text_2.started,text_2.stopped,aft_x_corrPos,aft_y_corrPos,y_pathSize_check,x_pathSize_check,y_pathdirY,x_pathdirY,x_pathdirX,x_corrPos,y_corrPos,gridImage_6.started,alienImageFB_2.started,startPosFB_2.started,movePosFB_2.started,keyFB_2.started,pathLine_xdir.started,pathLine_ydir.started,alienFace.started,sounds_4.started,RT_FBtrain,keyFB_2.keys,keyFB_2.rt,saveACC_pre,ACC,within_saveACC_train,earlystop_wloop,cumAcctrain_check,gridImage_3.started,alienImage_test.started,startPos_test.started,movePos_test.started,key_resp_test.started,wLy_dir_test,wLx_dir_test,buttonPress_test,RTchoice_test,cumAcctest,corrAns_test,key_resp_test.keys,key_resp_test.rt,text_3.started,text_3.stopped,total_time,end_all_time,key_resp_3.keys,slides_2.started,sounds_3.started,nextButton_2.numClicks,nextButton_2.timesOn,nextButton_2.timesOff,prev_but_2.numClicks,prev_but_2.timesOn,prev_but_2.timesOff,bye.started,participant,train_first,00_coordinate,starting corner,date,expName,psychopyVersion,frameRate,
,,,,,,,,,,,,,,,0,0,0,0,0,0,0,0,,,,,,,,,,,,,,,,,,,,,,,,,,,,,start_all_time,testround,conditions/schedules/train_x_first/red_square_00/bottom_right/instructions/Slide1.png,conditions/schedules/train_x_first/red_square_00/bottom_right/instructions/Audio1.wav,414.09645489999093,414.0371564188972,1,[2.706911899964325],[2.706950300023891],0,,,,,,,,,,,,,,,,,,,,,,,,,,,,,,,,,,,,,,,,,,,,,,,,,,,,,,,,,,,,,,,,,,,,,,,,,,,,,,,,,,,,,,,,,,,,,,,,,,,,,,,,,,,,,,,,,,,,,,,,,,,,H4FHKE,train_x,red_square,bottom_right,2025-09-05_13h08.59.897,HideSeek_v1,2022.2.5,60.448308859584195,
,,,,,,,,,,,,,,,0,0,0,0,1,0,1,0,,,,,,,,,,,,,,,,,,,,,,,,,,,,,,,conditions/schedules/train_x_first/red_square_00/bottom_right/instructions/Slide2.png,conditions/schedules/train_x_first/red_square_00/bottom_right/instructions/Audio2.wav,416.8396654999815,416.82973025995307,2,"[2.706911899964325, 18.836655299994163]","[2.706950300023891, 18.83666210004594]",0,,,,,,,,,,,,,,,,,,,,,,,,,,,,,,,,,,,,,,,,,,,,,,,,,,,,,,,,,,,,,,,,,,,,,,,,,,,,,,,,,,,,,,,,,,,,,,,,,,,,,,,,,,,,,,,,,,,,,,,,,,,,H4FHKE,train_x,red_square,bottom_right,2025-09-05_13h08.59.897,HideSeek_v1,2022.2.5,60.448308859584195,
,,,,,,,,,,,,,,,0,0,0,0,2,0,2,0,,,,,,,,,,,,,,,,,,,,,,,,,,,,,,,conditions/schedules/train_x_first/red_square_00/bottom_right/instructions/Slide3.png,conditions/schedules/train_x_first/red_square_00/bottom_right/instructions/Audio3.wav,435.75639009999577,435.74520404991927,3,"[2.706911899964325, 18.836655299994163, 16.567834199988283]","[2.706950300023891, 18.83666210004594, 16.56784080003854]",0,,,,,,,,,,,,,,,,,,,,,,,,,,,,,,,,,,,,,,,,,,,,,,,,,,,,,,,,,,,,,,,,,,,,,,,,,,,,,,,,,,,,,,,,,,,,,,,,,,,,,,,,,,,,,,,,,,,,,,,,,,,,H4FHKE,train_x,red_square,bottom_right,2025-09-05_13h08.59.897,HideSeek_v1,2022.2.5,60.448308859584195,
,,,,,,,,,,,,,,,0,0,0,0,3,0,3,0,,,,,,,,,,,,,,,,,,,,,,,,,,,,,,,conditions/schedules/train_x_first/red_square_00/bottom_right/instructions/Slide4.png,conditions/schedules/train_x_first/red_square_00/bottom_right/instructions/Audio4.wav,452.40394589991774,452.3924614498974,4,"[2.706911899964325, 18.836655299994163, 16.567834199988283, 19.202439699904062]","[2.706950300023891, 18.83666210004594, 0.03631140000652522, 19.202446199953556]",0,,,,,,,,,,,,,,,,,,,,,,,,,,,,,,,,,,,,,,,,,,,,,,,,,,,,,,,,,,,,,,,,,,,,,,,,,,,,,,,,,,,,,,,,,,,,,,,,,,,,,,,,,,,,,,,,,,,,,,,,,,,,H4FHKE,train_x,red_square,bottom_right,2025-09-05_13h08.59.897,HideSeek_v1,2022.2.5,60.448308859584195,
,,,,,,,,,,,,,,,0,0,0,0,4,0,4,0,,,,,,,,,,,,,,,,,,,,,,,,,,,,,,,conditions/schedules/train_x_first/red_square_00/bottom_right/instructions/Slide5.png,conditions/schedules/train_x_first/red_square_00/bottom_right/instructions/Audio5.wav,471.6740785998991,471.6750174499466,5,"[2.706911899964325, 18.836655299994163, 16.567834199988283, 19.202439699904062, 3.785329300095327]","[2.706950300023891, 18.83666210004594, 0.03631140000652522, 0.00021700002253055573, 3.7853361000306904]",0,,,,,,,,,,,,,,,,,,,,,,,,,,,,,,,,,,,,,,,,,,,,,,,,,,,,,,,,,,,,,,,,,,,,,,,,,,,,,,,,,,,,,,,,,,,,,,,,,,,,,,,,,,,,,,,,,,,,,,,,,,,,H4FHKE,train_x,red_square,bottom_right,2025-09-05_13h08.59.897,HideSeek_v1,2022.2.5,60.448308859584195,
,,,,,,,,,,,,,,,0,0,0,0,5,0,5,0,,,,,,,,,,,,,,,,,,,,,,,,,,,,,,,conditions/schedules/train_x_first/red_square_00/bottom_right/instructions/Slide6.png,conditions/schedules/train_x_first/red_square_00/bottom_right/instructions/Audio6.wav,475.5099159999518,475.51185053994413,6,"[2.706911899964325, 18.836655299994163, 16.567834199988283, 19.202439699904062, 3.785329300095327, 4.17002700001467]","[2.706950300023891, 18.83666210004594, 0.03631140000652522, 0.00021700002253055573, 0.05071390001103282, 4.170033400063403]",0,,,,,,,,,,,,,,,,,,,,,,,,,,,,,,,,,,,,,,,,,,,,,,,,,,,,,,,,,,,,,,,,,,,,,,,,,,,,,,,,,,,,,,,,,,,,,,,,,,,,,,,,,,,,,,,,,,,,,,,,,,,,H4FHKE,train_x,red_square,bottom_right,2025-09-05_13h08.59.897,HideSeek_v1,2022.2.5,60.448308859584195,
,,,,,,,,,,,,,,,0,0,0,0,6,0,6,0,,,,,,,,,,,,,,,,,,,,,,,,,,,,,,,conditions/schedules/train_x_first/red_square_00/bottom_right/instructions/Slide7.png,conditions/schedules/train_x_first/red_square_00/bottom_right/instructions/Audio7.wav,479.7344218000071,479.7319296399364,7,"[2.706911899964325, 18.836655299994163, 16.567834199988283, 19.202439699904062, 3.785329300095327, 4.17002700001467, 4.782696700072847]","[2.706950300023891, 18.83666210004594, 0.03631140000652522, 0.00021700002253055573, 0.05071390001103282, 0.030545700108632445, 4.78270280000288]",0,,,,,,,,,,,,,,,,,,,,,,,,,,,,,,,,,,,,,,,,,,,,,,,,,,,,,,,,,,,,,,,,,,,,,,,,,,,,,,,,,,,,,,,,,,,,,,,,,,,,,,,,,,,,,,,,,,,,,,,,,,,,H4FHKE,train_x,red_square,bottom_right,2025-09-05_13h08.59.897,HideSeek_v1,2022.2.5,60.448308859584195,
,,,,,,,,,,,,,,,0,0,0,0,7,0,7,0,,,,,,,,,,,,,,,,,,,,,,,,,,,,,,,conditions/schedules/train_x_first/red_square_00/bottom_right/instructions/Slide8.png,conditions/schedules/train_x_first/red_square_00/bottom_right/instructions/Audio8.wav,484.570156199974,484.5694491399918,8,"[2.706911899964325, 18.836655299994163, 16.567834199988283, 19.202439699904062, 3.785329300095327, 4.17002700001467, 4.782696700072847, 11.073284299927764]","[2.706950300023891, 18.83666210004594, 0.03631140000652522, 0.00021700002253055573, 0.05071390001103282, 0.030545700108632445, 0.0637885999167338, 11.073291499982588]",0,,,,,,,,,,,,,,,,,,,,,,,,,,,,,,,,,,,,,,,,,,,,,,,,,,,,,,,,,,,,,,,,,,,,,,,,,,,,,,,,,,,,,,,,,,,,,,,,,,,,,,,,,,,,,,,,,,,,,,,,,,,,H4FHKE,train_x,red_square,bottom_right,2025-09-05_13h08.59.897,HideSeek_v1,2022.2.5,60.448308859584195,
,,,,,,,,,,,,,,,0,0,0,0,8,0,8,0,,,,,,,,,,,,,,,,,,,,,,,,,,,,,,,conditions/schedules/train_x_first/red_square_00/bottom_right/instructions/Slide9.png,conditions/schedules/train_x_first/red_square_00/bottom_right/instructions/Audio9.wav,495.7155124999117,495.7118559498922,9,"[2.706911899964325, 18.836655299994163, 16.567834199988283, 19.202439699904062, 3.785329300095327, 4.17002700001467, 4.782696700072847, 11.073284299927764, 5.132187599898316]","[2.706950300023891, 18.83666210004594, 0.03631140000652522, 0.00021700002253055573, 0.05071390001103282, 0.030545700108632445, 0.0637885999167338, 0.06435119989328086, 5.132193699944764]",0,,,,,,,,,,,,,,,,,,,,,,,,,,,,,,,,,,,,,,,,,,,,,,,,,,,,,,,,,,,,,,,,,,,,,,,,,,,,,,,,,,,,,,,,,,,,,,,,,,,,,,,,,,,,,,,,,,,,,,,,,,,,H4FHKE,train_x,red_square,bottom_right,2025-09-05_13h08.59.897,HideSeek_v1,2022.2.5,60.448308859584195,
,,,,,,,,,,,,,,,0,0,0,0,9,0,9,0,,,,,,,,,,,,,,,,,,,,,,,,,,,,,,,conditions/schedules/train_x_first/red_square_00/bottom_right/instructions/Slide10.png,conditions/schedules/train_x_first/red_square_00/bottom_right/instructions/Audio10.wav,500.88885779993143,500.8832631299156,10,"[2.706911899964325, 18.836655299994163, 16.567834199988283, 19.202439699904062, 3.785329300095327, 4.17002700001467, 4.782696700072847, 11.073284299927764, 5.132187599898316, 6.380542999948375]","[2.706950300023891, 18.83666210004594, 0.03631140000652522, 0.00021700002253055573, 0.05071390001103282, 0.030545700108632445, 0.0637885999167338, 0.06435119989328086, 0.08103299990762025, 6.380549299996346]",0,,,,,,,,,,,,,,,,,,,,,,,,,,,,,,,,,,,,,,,,,,,,,,,,,,,,,,,,,,,,,,,,,,,,,,,,,,,,,,,,,,,,,,,,,,,,,,,,,,,,,,,,,,,,,,,,,,,,,,,,,,,,H4FHKE,train_x,red_square,bottom_right,2025-09-05_13h08.59.897,HideSeek_v1,2022.2.5,60.448308859584195,
,,,,,,,,,,,,,,,0,0,0,0,10,0,10,0,,,,,,,,,,,,,,,,,,,,,,,,,,,,,,,conditions/schedules/train_x_first/red_square_00/bottom_right/instructions/Slide11.png,conditions/schedules/train_x_first/red_square_00/bottom_right/instructions/Audio11.wav,507.3500524999108,507.33814894995885,11,"[2.706911899964325, 18.836655299994163, 16.567834199988283, 19.202439699904062, 3.785329300095327, 4.17002700001467, 4.782696700072847, 11.073284299927764, 5.132187599898316, 6.380542999948375, 9.010120599996299]","[2.706950300023891, 18.83666210004594, 0.03631140000652522, 0.00021700002253055573, 0.05071390001103282, 0.030545700108632445, 0.0637885999167338, 0.06435119989328086, 0.08103299990762025, 0.0861468999646604, 9.0101272999309]",0,,,,,,,,,,,,,,,,,,,,,,,,,,,,,,,,,,,,,,,,,,,,,,,,,,,,,,,,,,,,,,,,,,,,,,,,,,,,,,,,,,,,,,,,,,,,,,,,,,,,,,,,,,,,,,,,,,,,,,,,,,,,H4FHKE,train_x,red_square,bottom_right,2025-09-05_13h08.59.897,HideSeek_v1,2022.2.5,60.448308859584195,
,,,,,,,,,,,,,,,0,0,0,0,11,0,11,0,,,,,,,,,,,,,,,,,,,,,,,,,,,,,,,conditions/schedules/train_x_first/red_square_00/bottom_right/instructions/Slide12.png,conditions/schedules/train_x_first/red_square_00/bottom_right/instructions/Audio12.wav,516.435200799955,516.4285977499676,12,"[2.706911899964325, 18.836655299994163, 16.567834199988283, 19.202439699904062, 3.785329300095327, 4.17002700001467, 4.782696700072847, 11.073284299927764, 5.132187599898316, 6.380542999948375, 9.010120599996299, 12.385686599998735]","[2.706950300023891, 18.83666210004594, 0.03631140000652522, 0.00021700002253055573, 0.05071390001103282, 0.030545700108632445, 0.0637885999167338, 0.06435119989328086, 0.08103299990762025, 0.0861468999646604, 0.08127460000105202, 12.385693299933337]",0,,,,,,,,,,,,,,,,,,,,,,,,,,,,,,,,,,,,,,,,,,,,,,,,,,,,,,,,,,,,,,,,,,,,,,,,,,,,,,,,,,,,,,,,,,,,,,,,,,,,,,,,,,,,,,,,,,,,,,,,,,,,H4FHKE,train_x,red_square,bottom_right,2025-09-05_13h08.59.897,HideSeek_v1,2022.2.5,60.448308859584195,
1,8,2,3,2,-5,0,66,2,instr_dim1_1,,,,,,0,0,0,0,,,,,0,0,0,0,,,,,,,,,,,,,,,,,,,,,,,,,,,,,,,,,,,,,stimuli/alien_stimuli/66.png,conditions/schedules/train_x_first/red_square_00/bottom_right/inputInstr_1.xlsx,stimuli/alien_stimuli/66.png,528.9252520999871,528.9252520999871,528.9252520999871,528.9252520999871,528.9222494699643,return,10.539399900007993,"[-0.16, -0.08, 0, 0.08, 0.16, 0.24, 0.32, 0.4, 0.48, 0.56]","[-0.4, -0.32, -0.24, -0.16, -0.08, 0, 0.08, 0.16, 0.24, 0.32]",2,2,3,8,0.0,0.4,539.6200810999144,539.6200810999144,539.6200810999144,539.6200810999144,539.6200810999144,539.6200810999144,539.6200810999144,539.6140683899284,11.24359359999653,return,11.078621400054544,stimuli/alien_stimuli/66.png,66,8,1,,,,,,,,,,,,,,,,,,,,,,,,,,,,,,,,,,,,,,,,,,,,,,,,,,,,,,,,,,,,,,,,,,,,,,,,,,,,,,,,,,,,,,,,,H4FHKE,train_x,red_square,bottom_right,2025-09-05_13h08.59.897,HideSeek_v1,2022.2.5,60.448308859584195,
,,,,,,,,,,,30,,,,0,0,0,0,,,,,,,,,,,,,,,,,,,,,,,,,,,,,,,,,,,,,,,,,,,,,,,,,,,,,,,,,,,,,,,,,,,,,,,,,,,,,,21,0.7,0,0,99,1,30,0,conditions/schedules/train_x_first/red_square_00/bottom_right/inputTrain_1.1.xlsx,99,1,1,1,0,,,,,,,,,,,,,,,,,,,,,,,,,,,,,,,,,,,,,,,,,,,,,,,,,,,,,,,,,,,,,,,,,,,,,,,,,,,H4FHKE,train_x,red_square,bottom_right,2025-09-05_13h08.59.897,HideSeek_v1,2022.2.5,60.448308859584195,
,,,,,,,,,,,,,,,1,0,1,0,0,0,0,0,,,,,,,,,,,,,,,,,,,,,,,,,,,,,,,conditions/schedules/train_x_first/red_square_00/bottom_right/instructions/Slide13.png,conditions/schedules/train_x_first/red_square_00/bottom_right/instructions/Audio13.wav,550.8763767000055,550.873426499893,13,"[2.706911899964325, 18.836655299994163, 16.567834199988283, 19.202439699904062, 3.785329300095327, 4.17002700001467, 4.782696700072847, 11.073284299927764, 5.132187599898316, 6.380542999948375, 9.010120599996299, 12.385686599998735, 17.06031279999297]","[2.706950300023891, 18.83666210004594, 0.03631140000652522, 0.00021700002253055573, 0.05071390001103282, 0.030545700108632445, 0.0637885999167338, 0.06435119989328086, 0.08103299990762025, 0.0861468999646604, 0.08127460000105202, 12.385693299933337, 17.06032040005084]",0,,,,,,,,,,,,,,,,,,,,,,,,,,,,,,,,,,,,,,,,,,,,,,,,,,,,,,,,,,,,,,,,,,,,,,,,,,,,,,,,,,,,,,,,,,,,,,,,,,,,,,,,,,,,,,,,,,,,,,,,,,,,H4FHKE,train_x,red_square,bottom_right,2025-09-05_13h08.59.897,HideSeek_v1,2022.2.5,60.448308859584195,
,,,,,,,,,,,,,,,1,0,1,0,1,0,1,0,,,,,,,,,,,,,,,,,,,,,,,,,,,,,,,conditions/schedules/train_x_first/red_square_00/bottom_right/instructions/Slide14.png,conditions/schedules/train_x_first/red_square_00/bottom_right/instructions/Audio14.wav,568.0068044000072,568.0051588499337,14,"[2.706911899964325, 18.836655299994163, 16.567834199988283, 19.202439699904062, 3.785329300095327, 4.17002700001467, 4.782696700072847, 11.073284299927764, 5.132187599898316, 6.380542999948375, 9.010120599996299, 12.385686599998735, 17.06031279999297, 13.490295100025833]","[2.706950300023891, 18.83666210004594, 0.03631140000652522, 0.00021700002253055573, 0.05071390001103282, 0.030545700108632445, 0.0637885999167338, 0.06435119989328086, 0.08103299990762025, 0.0861468999646604, 0.08127460000105202, 12.385693299933337, 0.03085470001678914, 13.490301799960434]",0,,,,,,,,,,,,,,,,,,,,,,,,,,,,,,,,,,,,,,,,,,,,,,,,,,,,,,,,,,,,,,,,,,,,,,,,,,,,,,,,,,,,,,,,,,,,,,,,,,,,,,,,,,,,,,,,,,,,,,,,,,,,H4FHKE,train_x,red_square,bottom_right,2025-09-05_13h08.59.897,HideSeek_v1,2022.2.5,60.448308859584195,
2,9,0,9,0,0,0,16,2,instr_dim1_1,,,,,,1,0,1,0,,,,,0,0,0,0,,,,,,,,,,,,,,,,,,,,,,,,,,,,,,,,,,,,,stimuli/alien_stimuli/16.png,conditions/schedules/train_x_first/red_square_00/bottom_right/inputInstr_1.xlsx,stimuli/alien_stimuli/16.png,581.6223754999228,581.6223754999228,581.6223754999228,581.6223754999228,581.6152763799764,return,7.255401900038123,"[-0.16, -0.08, 0, 0.08, 0.16, 0.24, 0.32, 0.4, 0.48, 0.56]","[-0.4, -0.32, -0.24, -0.16, -0.08, 0, 0.08, 0.16, 0.24, 0.32]",0,0,9,9,0.0,0.0,589.0457525999518,589.0457525999518,589.0457525999518,589.0457525999518,589.0457525999518,589.0457525999518,589.0457525999518,589.0385138899437,9.075164300040342,return,8.903966199955903,stimuli/alien_stimuli/16.png,16,9,2,,,,,,,,,,,,,,,,,,,,,,,,,,,,,,,,,,,,,,,,,,,,,,,,,,,,,,,,,,,,,,,,,,,,,,,,,,,,,,,,,,,,,,,,,H4FHKE,train_x,red_square,bottom_right,2025-09-05_13h08.59.897,HideSeek_v1,2022.2.5,60.448308859584195,
,,,,,,,,,,,30,,,,1,0,1,0,,,,,,,,,,,,,,,,,,,,,,,,,,,,,,,,,,,,,,,,,,,,,,,,,,,,,,,,,,,,,,,,,,,,,,,,,,,,,,21,0.7,0,0,99,1,30,0,conditions/schedules/train_x_first/red_square_00/bottom_right/inputTrain_1.1.xlsx,99,1,1,1,0,,,,,,,,,,,,,,,,,,,,,,,,,,,,,,,,,,,,,,,,,,,,,,,,,,,,,,,,,,,,,,,,,,,,,,,,,,,H4FHKE,train_x,red_square,bottom_right,2025-09-05_13h08.59.897,HideSeek_v1,2022.2.5,60.448308859584195,
,,,,,,,,,,,,,,,2,0,2,0,0,0,0,0,,,,,,,,,,,,,,,,,,,,,,,,,,,,,,,conditions/schedules/train_x_first/red_square_00/bottom_right/instructions/Slide15.png,conditions/schedules/train_x_first/red_square_00/bottom_right/instructions/Audio15.wav,598.1453115999466,598.1459079099004,15,"[2.706911899964325, 18.836655299994163, 16.567834199988283, 19.202439699904062, 3.785329300095327, 4.17002700001467, 4.782696700072847, 11.073284299927764, 5.132187599898316, 6.380542999948375, 9.010120599996299, 12.385686599998735, 17.06031279999297, 13.490295100025833, 30.875780700007454]","[2.706950300023891, 18.83666210004594, 0.03631140000652522, 0.00021700002253055573, 0.05071390001103282, 0.030545700108632445, 0.0637885999167338, 0.06435119989328086, 0.08103299990762025, 0.0861468999646604, 0.08127460000105202, 12.385693299933337, 0.03085470001678914, 13.490301799960434, 30.875788099947385]",0,,,,,,,,,,,,,,,,,,,,,,,,,,,,,,,,,,,,,,,,,,,,,,,,,,,,,,,,,,,,,,,,,,,,,,,,,,,,,,,,,,,,,,,,,,,,,,,,,,,,,,,,,,,,,,,,,,,,,,,,,,,,H4FHKE,train_x,red_square,bottom_right,2025-09-05_13h08.59.897,HideSeek_v1,2022.2.5,60.448308859584195,
,,,,,,,,,,,,,,,2,0,2,0,1,0,1,0,,,,,,,,,,,,,,,,,,,,,,,,,,,,,,,conditions/schedules/train_x_first/red_square_00/bottom_right/instructions/Slide16.png,conditions/schedules/train_x_first/red_square_00/bottom_right/instructions/Audio16.wav,629.0856531999307,629.0722681399202,16,"[2.706911899964325, 18.836655299994163, 16.567834199988283, 19.202439699904062, 3.785329300095327, 4.17002700001467, 4.782696700072847, 11.073284299927764, 5.132187599898316, 6.380542999948375, 9.010120599996299, 12.385686599998735, 17.06031279999297, 13.490295100025833, 30.875780700007454, 22.08613349997904]","[2.706950300023891, 18.83666210004594, 0.03631140000652522, 0.00021700002253055573, 0.05071390001103282, 0.030545700108632445, 0.0637885999167338, 0.06435119989328086, 0.08103299990762025, 0.0861468999646604, 0.08127460000105202, 12.385693299933337, 0.03085470001678914, 13.490301799960434, 0.06962969992309809, 22.08613989991136]",0,,,,,,,,,,,,,,,,,,,,,,,,,,,,,,,,,,,,,,,,,,,,,,,,,,,,,,,,,,,,,,,,,,,,,,,,,,,,,,,,,,,,,,,,,,,,,,,,,,,,,,,,,,,,,,,,,,,,,,,,,,,,H4FHKE,train_x,red_square,bottom_right,2025-09-05_13h08.59.897,HideSeek_v1,2022.2.5,60.448308859584195,
,7,1,4,1,-3,0,46,,train_dim1_1,1,30,,,,2,0,2,0,,,,,,,,,0,0,0,0,0,0,0,0,0,0,0,0,,,,,,,,,,,,,,,,,,,,,,,,,stimuli/alien_stimuli/46.png,,,,,,,,,,,,,,,,,,,,,,,,,,,,,,,,,,,,,,,30,,,,,,,,651.2867187999655,651.2867187999655,651.2867187999655,651.2867187999655,651.2867187999655,up,11.59067549998872,0,0,0,99,0.4,-0.24,up,11.490143099916168,,,,,,,,,,,,,,,,,,,,,,,,,,,,,,,,,,,,,,,,,,,,,,,,,,,,,,,,,,,,H4FHKE,train_x,red_square,bottom_right,2025-09-05_13h08.59.897,HideSeek_v1,2022.2.5,60.448308859584195,
,7,1,4,1,-3,0,46,,train_dim1_1,1,30,,,,2,0,2,0,,,,,,,,,0,0,0,0,0,0,0,0,1,0,1,0,,,,,,,,,,,,,,,,,,,,,,,,,,,,,,,,,,,,,,,,,,,,,,,,,,,,,,,,,,,,,,,,30,,,,,,,,662.8833856999408,662.8833856999408,662.8833856999408,662.8833856999408,662.8833856999408,up,10.968121699988842,0,0,0,99,0.4,-0.15999999999999998,up,10.861221499973908,,,,,,,,,,,,,,,,,,,,,,,,,,,,,,,,,,,,,,,,,,,,,,,,,,,,,,,,,,,,H4FHKE,train_x,red_square,bottom_right,2025-09-05_13h08.59.897,HideSeek_v1,2022.2.5,60.448308859584195,
,7,1,4,1,-3,0,46,,train_dim1_1,1,30,,,,2,0,2,0,,,,,,,,,0,0,0,0,0,0,0,0,2,0,2,0,,,,,,,,,,,,,,,,,,,,,,,,,,,,,,,,,,,,,,,,,,,,,,,,,,,,,,,,,,,,,,,,30,,,,,,,,673.8623934999341,673.8623934999341,673.8623934999341,673.8623934999341,673.8623934999341,right,3.009215799975209,0,0,0,99,0.48000000000000004,-0.15999999999999998,right,2.901607400039211,,,,,,,,,,,,,,,,,,,,,,,,,,,,,,,,,,,,,,,,,,,,,,,,,,,,,,,,,,,,H4FHKE,train_x,red_square,bottom_right,2025-09-05_13h08.59.897,HideSeek_v1,2022.2.5,60.448308859584195,
,7,1,4,1,-3,0,46,,train_dim1_1,1,30,,,,2,0,2,0,,,,,,,,,0,0,0,0,0,0,0,0,3,0,3,0,,,,,,,,,,,,,,,,,,,,,,,,,,,,,,,,,,,,,,,,,,,,,,,,,,,,,,,,,,,,,,,,30,,,,,,,,676.8608606999042,676.8608606999042,676.8608606999042,676.8608606999042,676.8608606999042,up,2.111497199977748,0,0,0,99,0.48000000000000004,-0.07999999999999997,up,2.029705599998124,,,,,,,,,,,,,,,,,,,,,,,,,,,,,,,,,,,,,,,,,,,,,,,,,,,,,,,,,,,,H4FHKE,train_x,red_square,bottom_right,2025-09-05_13h08.59.897,HideSeek_v1,2022.2.5,60.448308859584195,
,7,1,4,1,-3,0,46,,train_dim1_1,1,30,,,,2,0,2,0,,,,,,,,,0,0,0,0,0,0,0,0,4,0,4,0,,,,,,,,,,,,,,,,,,,,,,,,,,,,,,,,,,,,,,,,,,,,,,,,,,,,,,,,,,,,,,,,30,,,,,,,,678.9772866999265,678.9772866999265,678.9772866999265,678.9772866999265,678.9772866999265,up,2.1783295000204816,0,0,0,99,0.48000000000000004,2.7755575615628914e-17,up,2.0920165999559686,,,,,,,,,,,,,,,,,,,,,,,,,,,,,,,,,,,,,,,,,,,,,,,,,,,,,,,,,,,,H4FHKE,train_x,red_square,bottom_right,2025-09-05_13h08.59.897,HideSeek_v1,2022.2.5,60.448308859584195,
,7,1,4,1,-3,0,46,,train_dim1_1,1,30,,,,2,0,2,0,,,,,,,,,0,0,0,0,0,0,0,0,5,0,5,0,,,,,,,,,,,,,,,,,,,,,,,,,,,,,,,,,,,,,,,,,,,,,,,,,,,,,,,,,,,,,,,,30,,,,,,,,681.165961099905,681.165961099905,681.165961099905,681.165961099905,681.165961099905,return,0.9576801999937743,0,0,0,0,0.48000000000000004,2.7755575615628914e-17,return,0.8844910999760032,4,1,0.48000000000000004,2.7755575615628914e-17,,,,,,,,,,,,,,,,,,,,,,,,,,,,,,,,,,,,,,,,,,,,,,,,,,,,,,,,H4FHKE,train_x,red_square,bottom_right,2025-09-05_13h08.59.897,HideSeek_v1,2022.2.5,60.448308859584195,
,7,4,7,4,0,0,16,,train_dim1_1,2,30,,,,2,0,2,0,,,,,,,,,0,0,0,0,0,1,1,1,0,0,0,0,,,,,,,,,,,,,,,,,,,,,,,,,stimuli/alien_stimuli/16.png,,,,,,,,,,,,,,,,,,,,,,,,,,,,,stimuli/alien_stimuli/46.png,46,7,3,,,,,,,30,,,,,,,,705.4272654999513,705.4272654999513,705.4272654999513,705.4272654999513,705.4272654999513,down,17.002635100041516,0,0,0,99,0.4,-0.16,down,16.891011400031857,,,,,703.8517274999758,705.4272654999513,0.16,-0.32,0.0,0.24,-0.32,0.16,0.28,0.16,-0.32,683.6995430999668,683.6995430999668,683.6995430999668,683.6995430999668,683.6995430999668,683.6995430999668,683.6995430999668,683.6995430999668,683.6839786699857,20.26932039996609,return,20.129424500046298,,,,,,,,,,,,,,,,,,,,,,,,,,,,,,,,,H4FHKE,train_x,red_square,bottom_right,2025-09-05_13h08.59.897,HideSeek_v1,2022.2.5,60.448308859584195,
,7,4,7,4,0,0,16,,train_dim1_1,2,30,,,,2,0,2,0,,,,,,,,,0,0,0,0,0,1,1,1,1,0,1,0,,,,,,,,,,,,,,,,,,,,,,,,,,,,,,,,,,,,,,,,,,,,,,,,,,,,,,,,,,,,,,,,30,,,,,,,,722.4332430999493,722.4332430999493,722.4332430999493,722.4332430999493,722.4332430999493,down,7.465425199945457,0,0,0,99,0.4,-0.24,down,7.367877499898896,,,,,,,,,,,,,,,,,,,,,,,,,,,,,,,,,,,,,,,,,,,,,,,,,,,,,,,,,,,,H4FHKE,train_x,red_square,bottom_right,2025-09-05_13h08.59.897,HideSeek_v1,2022.2.5,60.448308859584195,
,7,4,7,4,0,0,16,,train_dim1_1,2,30,,,,2,0,2,0,,,,,,,,,0,0,0,0,0,1,1,1,2,0,2,0,,,,,,,,,,,,,,,,,,,,,,,,,,,,,,,,,,,,,,,,,,,,,,,,,,,,,,,,,,,,,,,,30,,,,,,,,729.9062120999442,729.9062120999442,729.9062120999442,729.9062120999442,729.9062120999442,up,6.964653899893165,0,0,0,99,0.4,-0.15999999999999998,up,6.870160900056362,,,,,,,,,,,,,,,,,,,,,,,,,,,,,,,,,,,,,,,,,,,,,,,,,,,,,,,,,,,,H4FHKE,train_x,red_square,bottom_right,2025-09-05_13h08.59.897,HideSeek_v1,2022.2.5,60.448308859584195,
,7,4,7,4,0,0,16,,train_dim1_1,2,30,,,,2,0,2,0,,,,,,,,,0,0,0,0,0,1,1,1,3,0,3,0,,,,,,,,,,,,,,,,,,,,,,,,,,,,,,,,,,,,,,,,,,,,,,,,,,,,,,,,,,,,,,,,30,,,,,,,,736.8634289999027,736.8634289999027,736.8634289999027,736.8634289999027,736.8634289999027,up,0.42676189995836467,0,0,0,99,0.4,-0.07999999999999997,up,0.3421073000645265,,,,,,,,,,,,,,,,,,,,,,,,,,,,,,,,,,,,,,,,,,,,,,,,,,,,,,,,,,,,H4FHKE,train_x,red_square,bottom_right,2025-09-05_13h08.59.897,HideSeek_v1,2022.2.5,60.448308859584195,
,7,4,7,4,0,0,16,,train_dim1_1,2,30,,,,2,0,2,0,,,,,,,,,0,0,0,0,0,1,1,1,4,0,4,0,,,,,,,,,,,,,,,,,,,,,,,,,,,,,,,,,,,,,,,,,,,,,,,,,,,,,,,,,,,,,,,,30,,,,,,,,737.2976880999049,737.2976880999049,737.2976880999049,737.2976880999049,737.2976880999049,up,2.3283153999364004,0,0,0,99,0.4,2.7755575615628914e-17,up,2.2419130000052974,,,,,,,,,,,,,,,,,,,,,,,,,,,,,,,,,,,,,,,,,,,,,,,,,,,,,,,,,,,,H4FHKE,train_x,red_square,bottom_right,2025-09-05_13h08.59.897,HideSeek_v1,2022.2.5,60.448308859584195,
,7,4,7,4,0,0,16,,train_dim1_1,2,30,,,,2,0,2,0,,,,,,,,,0,0,0,0,0,1,1,1,5,0,5,0,,,,,,,,,,,,,,,,,,,,,,,,,,,,,,,,,,,,,,,,,,,,,,,,,,,,,,,,,,,,,,,,30,,,,,,,,739.6316755999578,739.6316755999578,739.6316755999578,739.6316755999578,739.6316755999578,left,3.0117501999484375,0,0,0,99,0.32,2.7755575615628914e-17,left,2.9285777000477538,,,,,,,,,,,,,,,,,,,,,,,,,,,,,,,,,,,,,,,,,,,,,,,,,,,,,,,,,,,,H4FHKE,train_x,red_square,bottom_right,2025-09-05_13h08.59.897,HideSeek_v1,2022.2.5,60.448308859584195,
,7,4,7,4,0,0,16,,train_dim1_1,2,30,,,,2,0,2,0,,,,,,,,,0,0,0,0,0,1,1,1,6,0,6,0,,,,,,,,,,,,,,,,,,,,,,,,,,,,,,,,,,,,,,,,,,,,,,,,,,,,,,,,,,,,,,,,30,,,,,,,,742.6508101999061,742.6508101999061,742.6508101999061,742.6508101999061,742.6508101999061,left,1.5110446000471711,0,0,0,99,0.24,2.7755575615628914e-17,left,1.4296892000129446,,,,,,,,,,,,,,,,,,,,,,,,,,,,,,,,,,,,,,,,,,,,,,,,,,,,,,,,,,,,H4FHKE,train_x,red_square,bottom_right,2025-09-05_13h08.59.897,HideSeek_v1,2022.2.5,60.448308859584195,
,7,4,7,4,0,0,16,,train_dim1_1,2,30,,,,2,0,2,0,,,,,,,,,0,0,0,0,0,1,1,1,7,0,7,0,,,,,,,,,,,,,,,,,,,,,,,,,,,,,,,,,,,,,,,,,,,,,,,,,,,,,,,,,,,,,,,,30,,,,,,,,744.1686420999467,744.1686420999467,744.1686420999467,744.1686420999467,744.1686420999467,up,0.5764529999578372,0,0,0,99,0.24,0.08000000000000003,up,0.48819830000866205,,,,,,,,,,,,,,,,,,,,,,,,,,,,,,,,,,,,,,,,,,,,,,,,,,,,,,,,,,,,H4FHKE,train_x,red_square,bottom_right,2025-09-05_13h08.59.897,HideSeek_v1,2022.2.5,60.448308859584195,
,7,4,7,4,0,0,16,,train_dim1_1,2,30,,,,2,0,2,0,,,,,,,,,0,0,0,0,0,1,1,1,8,0,8,0,,,,,,,,,,,,,,,,,,,,,,,,,,,,,,,,,,,,,,,,,,,,,,,,,,,,,,,,,,,,,,,,30,,,,,,,,744.7600251999684,744.7600251999684,744.7600251999684,744.7600251999684,744.7600251999684,return,2.125982999918051,0,0,0,0,0.24,0.08000000000000003,return,2.0337971000699326,6,-1,0.24,0.08000000000000003,,,,,,,,,,,,,,,,,,,,,,,,,,,,,,,,,,,,,,,,,,,,,,,,,,,,,,,,H4FHKE,train_x,red_square,bottom_right,2025-09-05_13h08.59.897,HideSeek_v1,2022.2.5,60.448308859584195,
,9,4,8,4,-1,0,26,,train_dim1_1,3,30,,,,2,0,2,0,,,,,,,,,0,0,0,0,0,2,2,2,0,0,0,0,,,,,,,,,,,,,,,,,,,,,,,,,stimuli/alien_stimuli/26.png,,,,,,,,,,,,,,,,,,,,,,,,,,,,,stimuli/alien_stimuli/16.png,16,7,4,,,,,,,30,,,,,,,,757.745963399997,757.745963399997,757.745963399997,757.745963399997,757.745963399997,left,2.5212993000168353,0,0,0,99,0.48000000000000004,-0.08,left,2.432193999993615,,,,,756.1785468999296,757.745963399997,0.4,-0.08,0.0,0.0,-0.08,0.4,0.4,0.4,-0.08,748.4688971999567,748.4688971999567,748.4688971999567,748.4688971999567,748.4688971999567,748.4688971999567,748.4688971999567,748.4688971999567,748.4552516798722,7.8412793999304995,return,7.6801106000784785,,,,,,,,,,,,,,,,,,,,,,,,,,,,,,,,,H4FHKE,train_x,red_square,bottom_right,2025-09-05_13h08.59.897,HideSeek_v1,2022.2.5,60.448308859584195,
,9,4,8,4,-1,0,26,,train_dim1_1,3,30,,,,2,0,2,0,,,,,,,,,0,0,0,0,0,2,2,2,1,0,1,0,,,,,,,,,,,,,,,,,,,,,,,,,,,,,,,,,,,,,,,,,,,,,,,,,,,,,,,,,,,,,,,,30,,,,,,,,760.2703049998963,760.2703049998963,760.2703049998963,760.2703049998963,760.2703049998963,left,0.4413792999694124,0,0,0,99,0.4,-0.08,left,0.35776739998254925,,,,,,,,,,,,,,,,,,,,,,,,,,,,,,,,,,,,,,,,,,,,,,,,,,,,,,,,,,,,H4FHKE,train_x,red_square,bottom_right,2025-09-05_13h08.59.897,HideSeek_v1,2022.2.5,60.448308859584195,
,9,4,8,4,-1,0,26,,train_dim1_1,3,30,,,,2,0,2,0,,,,,,,,,0,0,0,0,0,2,2,2,2,0,2,0,,,,,,,,,,,,,,,,,,,,,,,,,,,,,,,,,,,,,,,,,,,,,,,,,,,,,,,,,,,,,,,,30,,,,,,,,760.7333234999096,760.7333234999096,760.7333234999096,760.7333234999096,760.7333234999096,left,2.5588986000511795,0,0,0,99,0.32,-0.08,left,2.4567492000060156,,,,,,,,,,,,,,,,,,,,,,,,,,,,,,,,,,,,,,,,,,,,,,,,,,,,,,,,,,,,H4FHKE,train_x,red_square,bottom_right,2025-09-05_13h08.59.897,HideSeek_v1,2022.2.5,60.448308859584195,
,9,4,8,4,-1,0,26,,train_dim1_1,3,30,,,,2,0,2,0,,,,,,,,,0,0,0,0,0,2,2,2,3,0,3,0,,,,,,,,,,,,,,,,,,,,,,,,,,,,,,,,,,,,,,,,,,,,,,,,,,,,,,,,,,,,,,,,30,,,,,,,,763.2847774999682,763.2847774999682,763.2847774999682,763.2847774999682,763.2847774999682,right,1.577763200039044,0,0,0,99,0.4,-0.08,right,1.4853812999790534,,,,,,,,,,,,,,,,,,,,,,,,,,,,,,,,,,,,,,,,,,,,,,,,,,,,,,,,,,,,H4FHKE,train_x,red_square,bottom_right,2025-09-05_13h08.59.897,HideSeek_v1,2022.2.5,60.448308859584195,
,9,4,8,4,-1,0,26,,train_dim1_1,3,30,,,,2,0,2,0,,,,,,,,,0,0,0,0,0,2,2,2,4,0,4,0,,,,,,,,,,,,,,,,,,,,,,,,,,,,,,,,,,,,,,,,,,,,,,,,,,,,,,,,,,,,,,,,30,,,,,,,,764.8690188999753,764.8690188999753,764.8690188999753,764.8690188999753,764.8690188999753,left,0.9771538999630138,0,0,0,99,0.32,-0.08,left,0.885951199918054,,,,,,,,,,,,,,,,,,,,,,,,,,,,,,,,,,,,,,,,,,,,,,,,,,,,,,,,,,,,H4FHKE,train_x,red_square,bottom_right,2025-09-05_13h08.59.897,HideSeek_v1,2022.2.5,60.448308859584195,
,9,4,8,4,-1,0,26,,train_dim1_1,3,30,,,,2,0,2,0,,,,,,,,,0,0,0,0,0,2,2,2,5,0,5,0,,,,,,,,,,,,,,,,,,,,,,,,,,,,,,,,,,,,,,,,,,,,,,,,,,,,,,,,,,,,,,,,30,,,,,,,,765.8536585998954,765.8536585998954,765.8536585998954,765.8536585998954,765.8536585998954,left,0.2760998000157997,0,0,0,99,0.24,-0.08,left,0.1948778999503702,,,,,,,,,,,,,,,,,,,,,,,,,,,,,,,,,,,,,,,,,,,,,,,,,,,,,,,,,,,,H4FHKE,train_x,red_square,bottom_right,2025-09-05_13h08.59.897,HideSeek_v1,2022.2.5,60.448308859584195,
,9,4,8,4,-1,0,26,,train_dim1_1,3,30,,,,2,0,2,0,,,,,,,,,0,0,0,0,0,2,2,2,6,0,6,0,,,,,,,,,,,,,,,,,,,,,,,,,,,,,,,,,,,,,,,,,,,,,,,,,,,,,,,,,,,,,,,,30,,,,,,,,766.1372615,766.1372615,766.1372615,766.1372615,766.1372615,return,0.5602844000095502,0,0,0,0,0.24,-0.08,return,0.47816299996338785,6,-5,0.24,-0.08,,,,,,,,,,,,,,,,,,,,,,,,,,,,,,,,,,,,,,,,,,,,,,,,,,,,,,,,H4FHKE,train_x,red_square,bottom_right,2025-09-05_13h08.59.897,HideSeek_v1,2022.2.5,60.448308859584195,
,7,3,3,3,-4,0,56,,train_dim1_1,4,30,,,,2,0,2,0,,,,,,,,,0,0,0,0,0,3,3,3,0,0,0,0,,,,,,,,,,,,,,,,,,,,,,,,,stimuli/alien_stimuli/56.png,,,,,,,,,,,,,,,,,,,,,,,,,,,,,stimuli/alien_stimuli/26.png,26,9,5,,,,,,,30,,,,,,,,775.3368746999186,775.3368746999186,775.3368746999186,775.3368746999186,775.3368746999186,up,3.2755079000489786,0,0,0,99,0.4,-0.08,up,3.1888449999969453,,,,,773.776336299954,775.3368746999186,0.48,-0.08,0.0,0.08,-0.08,0.48,0.52,0.48,-0.08,768.287167100003,768.287167100003,768.287167100003,768.287167100003,768.287167100003,768.287167100003,768.287167100003,768.287167100003,768.2706164799165,5.623431700048968,return,5.463068300043233,,,,,,,,,,,,,,,,,,,,,,,,,,,,,,,,,H4FHKE,train_x,red_square,bottom_right,2025-09-05_13h08.59.897,HideSeek_v1,2022.2.5,60.448308859584195,
,7,3,3,3,-4,0,56,,train_dim1_1,4,30,,,,2,0,2,0,,,,,,,,,0,0,0,0,0,3,3,3,1,0,1,0,,,,,,,,,,,,,,,,,,,,,,,,,,,,,,,,,,,,,,,,,,,,,,,,,,,,,,,,,,,,,,,,30,,,,,,,,778.6135377999162,778.6135377999162,778.6135377999162,778.6135377999162,778.6135377999162,down,2.394699100055732,0,0,0,99,0.4,-0.16,down,2.3127004000125453,,,,,,,,,,,,,,,,,,,,,,,,,,,,,,,,,,,,,,,,,,,,,,,,,,,,,,,,,,,,H4FHKE,train_x,red_square,bottom_right,2025-09-05_13h08.59.897,HideSeek_v1,2022.2.5,60.448308859584195,
,7,3,3,3,-4,0,56,,train_dim1_1,4,30,,,,2,0,2,0,,,,,,,,,0,0,0,0,0,3,3,3,2,0,2,0,,,,,,,,,,,,,,,,,,,,,,,,,,,,,,,,,,,,,,,,,,,,,,,,,,,,,,,,,,,,,,,,30,,,,,,,,781.0141707999865,781.0141707999865,781.0141707999865,781.0141707999865,781.0141707999865,down,0.32688590011093765,0,0,0,99,0.4,-0.24,down,0.2498267999617383,,,,,,,,,,,,,,,,,,,,,,,,,,,,,,,,,,,,,,,,,,,,,,,,,,,,,,,,,,,,H4FHKE,train_x,red_square,bottom_right,2025-09-05_13h08.59.897,HideSeek_v1,2022.2.5,60.448308859584195,
,7,3,3,3,-4,0,56,,train_dim1_1,4,30,,,,2,0,2,0,,,,,,,,,0,0,0,0,0,3,3,3,3,0,3,0,,,,,,,,,,,,,,,,,,,,,,,,,,,,,,,,,,,,,,,,,,,,,,,,,,,,,,,,,,,,,,,,30,,,,,,,,781.3476201999001,781.3476201999001,781.3476201999001,781.3476201999001,781.3476201999001,down,1.7275513999629766,0,0,0,99,0.4,-0.32,down,1.6527136000804603,,,,,,,,,,,,,,,,,,,,,,,,,,,,,,,,,,,,,,,,,,,,,,,,,,,,,,,,,,,,H4FHKE,train_x,red_square,bottom_right,2025-09-05_13h08.59.897,HideSeek_v1,2022.2.5,60.448308859584195,
,7,3,3,3,-4,0,56,,train_dim1_1,4,30,,,,2,0,2,0,,,,,,,,,0,0,0,0,0,3,3,3,4,0,4,0,,,,,,,,,,,,,,,,,,,,,,,,,,,,,,,,,,,,,,,,,,,,,,,,,,,,,,,,,,,,,,,,30,,,,,,,,783.0835636999691,783.0835636999691,783.0835636999691,783.0835636999691,783.0835636999691,left,0.40910610009450465,0,0,0,99,0.32,-0.32,left,0.31876020005438477,,,,,,,,,,,,,,,,,,,,,,,,,,,,,,,,,,,,,,,,,,,,,,,,,,,,,,,,,,,,H4FHKE,train_x,red_square,bottom_right,2025-09-05_13h08.59.897,HideSeek_v1,2022.2.5,60.448308859584195,
,7,3,3,3,-4,0,56,,train_dim1_1,4,30,,,,2,0,2,0,,,,,,,,,0,0,0,0,0,3,3,3,5,0,5,0,,,,,,,,,,,,,,,,,,,,,,,,,,,,,,,,,,,,,,,,,,,,,,,,,,,,,,,,,,,,,,,,30,,,,,,,,783.4993141999003,783.4993141999003,783.4993141999003,783.4993141999003,783.4993141999003,left,1.0605076999636367,0,0,0,99,0.24,-0.32,left,0.9747733999975026,,,,,,,,,,,,,,,,,,,,,,,,,,,,,,,,,,,,,,,,,,,,,,,,,,,,,,,,,,,,H4FHKE,train_x,red_square,bottom_right,2025-09-05_13h08.59.897,HideSeek_v1,2022.2.5,60.448308859584195,
,7,3,3,3,-4,0,56,,train_dim1_1,4,30,,,,2,0,2,0,,,,,,,,,0,0,0,0,0,3,3,3,6,0,6,0,,,,,,,,,,,,,,,,,,,,,,,,,,,,,,,,,,,,,,,,,,,,,,,,,,,,,,,,,,,,,,,,30,,,,,,,,784.5669718999416,784.5669718999416,784.5669718999416,784.5669718999416,784.5669718999416,return,4.980422000051476,0,0,0,0,0.24,-0.32,return,4.890657700016163,4,-7,0.24,-0.32,,,,,,,,,,,,,,,,,,,,,,,,,,,,,,,,,,,,,,,,,,,,,,,,,,,,,,,,H4FHKE,train_x,red_square,bottom_right,2025-09-05_13h08.59.897,HideSeek_v1,2022.2.5,60.448308859584195,
,5,2,0,2,-5,0,66,,train_dim1_1,5,30,,,,2,0,2,0,,,,,,,,,0,0,0,0,0,4,4,4,0,0,0,0,,,,,,,,,,,,,,,,,,,,,,,,,stimuli/alien_stimuli/66.png,,,,,,,,,,,,,,,,,,,,,,,,,,,,,stimuli/alien_stimuli/56.png,56,7,6,,,,,,,30,,,,,,,,795.5028788999189,795.5028788999189,795.5028788999189,795.5028788999189,795.5028788999189,left,4.074119299999438,0,0,0,99,0.15999999999999998,-0.24,left,3.981224299990572,,,,,793.9430364998989,795.5028788999189,0.08,-0.16,0.0,0.32,-0.16,0.08,0.24000000000000002,0.08,-0.16,791.1261969999177,791.1261969999177,791.1261969999177,791.1261969999177,791.1261969999177,791.1261969999177,791.1261969999177,791.1261969999177,791.1064028699766,2.937864499981515,return,2.793973699910566,,,,,,,,,,,,,,,,,,,,,,,,,,,,,,,,,H4FHKE,train_x,red_square,bottom_right,2025-09-05_13h08.59.897,HideSeek_v1,2022.2.5,60.448308859584195,
,5,2,0,2,-5,0,66,,train_dim1_1,5,30,,,,2,0,2,0,,,,,,,,,0,0,0,0,0,4,4,4,1,0,1,0,,,,,,,,,,,,,,,,,,,,,,,,,,,,,,,,,,,,,,,,,,,,,,,,,,,,,,,,,,,,,,,,30,,,,,,,,799.5849258999806,799.5849258999806,799.5849258999806,799.5849258999806,799.5849258999806,left,0.7072434000438079,0,0,0,99,0.07999999999999997,-0.24,left,0.6325724999187514,,,,,,,,,,,,,,,,,,,,,,,,,,,,,,,,,,,,,,,,,,,,,,,,,,,,,,,,,,,,H4FHKE,train_x,red_square,bottom_right,2025-09-05_13h08.59.897,HideSeek_v1,2022.2.5,60.448308859584195,
,5,2,0,2,-5,0,66,,train_dim1_1,5,30,,,,2,0,2,0,,,,,,,,,0,0,0,0,0,4,4,4,2,0,2,0,,,,,,,,,,,,,,,,,,,,,,,,,,,,,,,,,,,,,,,,,,,,,,,,,,,,,,,,,,,,,,,,30,,,,,,,,800.3029495999217,800.3029495999217,800.3029495999217,800.3029495999217,800.3029495999217,left,1.3379827999742702,0,0,0,99,-2.7755575615628914e-17,-0.24,left,1.2486341000767425,,,,,,,,,,,,,,,,,,,,,,,,,,,,,,,,,,,,,,,,,,,,,,,,,,,,,,,,,,,,H4FHKE,train_x,red_square,bottom_right,2025-09-05_13h08.59.897,HideSeek_v1,2022.2.5,60.448308859584195,
,5,2,0,2,-5,0,66,,train_dim1_1,5,30,,,,2,0,2,0,,,,,,,,,0,0,0,0,0,4,4,4,3,0,3,0,,,,,,,,,,,,,,,,,,,,,,,,,,,,,,,,,,,,,,,,,,,,,,,,,,,,,,,,,,,,,,,,30,,,,,,,,801.645460599917,801.645460599917,801.645460599917,801.645460599917,801.645460599917,left,17.057073700008914,0,0,0,99,-0.08000000000000003,-0.24,left,16.98425610002596,,,,,,,,,,,,,,,,,,,,,,,,,,,,,,,,,,,,,,,,,,,,,,,,,,,,,,,,,,,,H4FHKE,train_x,red_square,bottom_right,2025-09-05_13h08.59.897,HideSeek_v1,2022.2.5,60.448308859584195,
,5,2,0,2,-5,0,66,,train_dim1_1,5,30,,,,2,0,2,0,,,,,,,,,0,0,0,0,0,4,4,4,4,0,4,0,,,,,,,,,,,,,,,,,,,,,,,,,,,,,,,,,,,,,,,,,,,,,,,,,,,,,,,,,,,,,,,,30,,,,,,,,818.7287609999767,818.7287609999767,818.7287609999767,818.7287609999767,818.7287609999767,return,0.4092702999478206,0,1,0,0,-0.08000000000000003,-0.24,return,0.3139909999445081,4,-11,-0.08000000000000003,-0.24,,,,,,,,,,,,,,,,,,,,,,,,,,,,,,,,,,,,,,,,,,,,,,,,,,,,,,,,H4FHKE,train_x,red_square,bottom_right,2025-09-05_13h08.59.897,HideSeek_v1,2022.2.5,60.448308859584195,
,5,0,4,0,-1,0,26,,train_dim1_1,6,30,,,,2,0,2,0,,,,,,,,,0,0,0,0,0,5,5,5,0,0,0,0,,,,,,,,,,,,,,,,,,,,,,,,,stimuli/alien_stimuli/26.png,,,,,,,,,,,,,,,,,,,,,,,,,,,,,stimuli/alien_stimuli/66.png,66,5,7,,,,,,,30,,,,,,,,830.38800669997,830.38800669997,830.38800669997,830.38800669997,830.38800669997,up,5.727030499954708,0,1,0,99,0.24,-0.32,up,5.639387300005183,,,,,828.8218822999625,830.38800669997,-0.16,-0.24,0.0,0.4,-0.24,-0.16,0.039999999999999994,-0.16,-0.24,820.6973874999676,820.6973874999676,820.6973874999676,820.6973874999676,820.6973874999676,820.6973874999676,820.6973874999676,820.6973874999676,820.6809700698941,8.242652200045995,return,8.10383959999308,,,,,,,,,,,,,,,,,,,,,,,,,,,,,,,,,H4FHKE,train_x,red_square,bottom_right,2025-09-05_13h08.59.897,HideSeek_v1,2022.2.5,60.448308859584195,
,5,0,4,0,-1,0,26,,train_dim1_1,6,30,,,,2,0,2,0,,,,,,,,,0,0,0,0,0,5,5,5,1,0,1,0,,,,,,,,,,,,,,,,,,,,,,,,,,,,,,,,,,,,,,,,,,,,,,,,,,,,,,,,,,,,,,,,30,,,,,,,,836.1121138999006,836.1121138999006,836.1121138999006,836.1121138999006,836.1121138999006,up,0.409626999986358,0,1,0,99,0.24,-0.24,up,0.31749250006396323,,,,,,,,,,,,,,,,,,,,,,,,,,,,,,,,,,,,,,,,,,,,,,,,,,,,,,,,,,,,H4FHKE,train_x,red_square,bottom_right,2025-09-05_13h08.59.897,HideSeek_v1,2022.2.5,60.448308859584195,
,5,0,4,0,-1,0,26,,train_dim1_1,6,30,,,,2,0,2,0,,,,,,,,,0,0,0,0,0,5,5,5,2,0,2,0,,,,,,,,,,,,,,,,,,,,,,,,,,,,,,,,,,,,,,,,,,,,,,,,,,,,,,,,,,,,,,,,30,,,,,,,,836.52846089995,836.52846089995,836.52846089995,836.52846089995,836.52846089995,left,1.7275954999495298,0,1,0,99,0.15999999999999998,-0.24,left,1.6470834000501782,,,,,,,,,,,,,,,,,,,,,,,,,,,,,,,,,,,,,,,,,,,,,,,,,,,,,,,,,,,,H4FHKE,train_x,red_square,bottom_right,2025-09-05_13h08.59.897,HideSeek_v1,2022.2.5,60.448308859584195,
,5,0,4,0,-1,0,26,,train_dim1_1,6,30,,,,2,0,2,0,,,,,,,,,0,0,0,0,0,5,5,5,3,0,3,0,,,,,,,,,,,,,,,,,,,,,,,,,,,,,,,,,,,,,,,,,,,,,,,,,,,,,,,,,,,,,,,,30,,,,,,,,838.2628744998947,838.2628744998947,838.2628744998947,838.2628744998947,838.2628744998947,right,3.57989459997043,0,1,0,99,0.24,-0.24,right,3.50104649993591,,,,,,,,,,,,,,,,,,,,,,,,,,,,,,,,,,,,,,,,,,,,,,,,,,,,,,,,,,,,H4FHKE,train_x,red_square,bottom_right,2025-09-05_13h08.59.897,HideSeek_v1,2022.2.5,60.448308859584195,
,5,0,4,0,-1,0,26,,train_dim1_1,6,30,,,,2,0,2,0,,,,,,,,,0,0,0,0,0,5,5,5,4,0,4,0,,,,,,,,,,,,,,,,,,,,,,,,,,,,,,,,,,,,,,,,,,,,,,,,,,,,,,,,,,,,,,,,30,,,,,,,,841.854254799895,841.854254799895,841.854254799895,841.854254799895,841.854254799895,down,1.188681000028737,0,1,0,99,0.24,-0.32,down,1.1098168999888003,,,,,,,,,,,,,,,,,,,,,,,,,,,,,,,,,,,,,,,,,,,,,,,,,,,,,,,,,,,,H4FHKE,train_x,red_square,bottom_right,2025-09-05_13h08.59.897,HideSeek_v1,2022.2.5,60.448308859584195,
,5,0,4,0,-1,0,26,,train_dim1_1,6,30,,,,2,0,2,0,,,,,,,,,0,0,0,0,0,5,5,5,5,0,5,0,,,,,,,,,,,,,,,,,,,,,,,,,,,,,,,,,,,,,,,,,,,,,,,,,,,,,,,,,,,,,,,,30,,,,,,,,843.0514306999976,843.0514306999976,843.0514306999976,843.0514306999976,843.0514306999976,down,0.2599155999487266,0,1,0,99,0.24,-0.4,down,0.16678410000167787,,,,,,,,,,,,,,,,,,,,,,,,,,,,,,,,,,,,,,,,,,,,,,,,,,,,,,,,,,,,H4FHKE,train_x,red_square,bottom_right,2025-09-05_13h08.59.897,HideSeek_v1,2022.2.5,60.448308859584195,
,5,0,4,0,-1,0,26,,train_dim1_1,6,30,,,,2,0,2,0,,,,,,,,,0,0,0,0,0,5,5,5,6,0,6,0,,,,,,,,,,,,,,,,,,,,,,,,,,,,,,,,,,,,,,,,,,,,,,,,,,,,,,,,,,,,,,,,30,,,,,,,,843.3225666999351,843.3225666999351,843.3225666999351,843.3225666999351,843.3225666999351,up,1.4942020000889897,0,1,0,99,0.24,-0.32,up,1.398812900064513,,,,,,,,,,,,,,,,,,,,,,,,,,,,,,,,,,,,,,,,,,,,,,,,,,,,,,,,,,,,H4FHKE,train_x,red_square,bottom_right,2025-09-05_13h08.59.897,HideSeek_v1,2022.2.5,60.448308859584195,
,5,0,4,0,-1,0,26,,train_dim1_1,6,30,,,,2,0,2,0,,,,,,,,,0,0,0,0,0,5,5,5,7,0,7,0,,,,,,,,,,,,,,,,,,,,,,,,,,,,,,,,,,,,,,,,,,,,,,,,,,,,,,,,,,,,,,,,30,,,,,,,,844.8188602000009,844.8188602000009,844.8188602000009,844.8188602000009,844.8188602000009,up,0.36014810006599873,0,1,0,99,0.24,-0.24,up,0.28111819992773235,,,,,,,,,,,,,,,,,,,,,,,,,,,,,,,,,,,,,,,,,,,,,,,,,,,,,,,,,,,,H4FHKE,train_x,red_square,bottom_right,2025-09-05_13h08.59.897,HideSeek_v1,2022.2.5,60.448308859584195,
,5,0,4,0,-1,0,26,,train_dim1_1,6,30,,,,2,0,2,0,,,,,,,,,0,0,0,0,0,5,5,5,8,0,8,0,,,,,,,,,,,,,,,,,,,,,,,,,,,,,,,,,,,,,,,,,,,,,,,,,,,,,,,,,,,,,,,,30,,,,,,,,845.1863576999167,845.1863576999167,845.1863576999167,845.1863576999167,845.1863576999167,down,2.228186900028959,0,1,0,99,0.24,-0.32,down,2.1362477999646217,,,,,,,,,,,,,,,,,,,,,,,,,,,,,,,,,,,,,,,,,,,,,,,,,,,,,,,,,,,,H4FHKE,train_x,red_square,bottom_right,2025-09-05_13h08.59.897,HideSeek_v1,2022.2.5,60.448308859584195,
,5,0,4,0,-1,0,26,,train_dim1_1,6,30,,,,2,0,2,0,,,,,,,,,0,0,0,0,0,5,5,5,9,0,9,0,,,,,,,,,,,,,,,,,,,,,,,,,,,,,,,,,,,,,,,,,,,,,,,,,,,,,,,,,,,,,,,,30,,,,,,,,847.4215677999891,847.4215677999891,847.4215677999891,847.4215677999891,847.4215677999891,left,0.7599399000173435,0,1,0,99,0.15999999999999998,-0.32,left,0.6753841999452561,,,,,,,,,,,,,,,,,,,,,,,,,,,,,,,,,,,,,,,,,,,,,,,,,,,,,,,,,,,,H4FHKE,train_x,red_square,bottom_right,2025-09-05_13h08.59.897,HideSeek_v1,2022.2.5,60.448308859584195,
,5,0,4,0,-1,0,26,,train_dim1_1,6,30,,,,2,0,2,0,,,,,,,,,0,0,0,0,0,5,5,5,10,0,10,0,,,,,,,,,,,,,,,,,,,,,,,,,,,,,,,,,,,,,,,,,,,,,,,,,,,,,,,,,,,,,,,,30,,,,,,,,848.1881814999506,848.1881814999506,848.1881814999506,848.1881814999506,848.1881814999506,left,0.3767091000918299,0,1,0,99,0.07999999999999997,-0.32,left,0.28778540005441755,,,,,,,,,,,,,,,,,,,,,,,,,,,,,,,,,,,,,,,,,,,,,,,,,,,,,,,,,,,,H4FHKE,train_x,red_square,bottom_right,2025-09-05_13h08.59.897,HideSeek_v1,2022.2.5,60.448308859584195,
,5,0,4,0,-1,0,26,,train_dim1_1,6,30,,,,2,0,2,0,,,,,,,,,0,0,0,0,0,5,5,5,11,0,11,0,,,,,,,,,,,,,,,,,,,,,,,,,,,,,,,,,,,,,,,,,,,,,,,,,,,,,,,,,,,,,,,,30,,,,,,,,848.5736674999353,848.5736674999353,848.5736674999353,848.5736674999353,848.5736674999353,left,0.42484620003961027,0,1,0,99,-2.7755575615628914e-17,-0.32,left,0.3384174000239,,,,,,,,,,,,,,,,,,,,,,,,,,,,,,,,,,,,,,,,,,,,,,,,,,,,,,,,,,,,H4FHKE,train_x,red_square,bottom_right,2025-09-05_13h08.59.897,HideSeek_v1,2022.2.5,60.448308859584195,
,5,0,4,0,-1,0,26,,train_dim1_1,6,30,,,,2,0,2,0,,,,,,,,,0,0,0,0,0,5,5,5,12,0,12,0,,,,,,,,,,,,,,,,,,,,,,,,,,,,,,,,,,,,,,,,,,,,,,,,,,,,,,,,,,,,,,,,30,,,,,,,,849.0062322999584,849.0062322999584,849.0062322999584,849.0062322999584,849.0062322999584,return,0.6602707999991253,0,0,0,0,-2.7755575615628914e-17,-0.32,return,0.5764918000204489,5,-14,-2.7755575615628914e-17,-0.32,,,,,,,,,,,,,,,,,,,,,,,,,,,,,,,,,,,,,,,,,,,,,,,,,,,,,,,,H4FHKE,train_x,red_square,bottom_right,2025-09-05_13h08.59.897,HideSeek_v1,2022.2.5,60.448308859584195,
,8,0,3,0,-5,0,66,,train_dim1_1,7,30,,,,2,0,2,0,,,,,,,,,0,0,0,0,0,6,6,6,0,0,0,0,,,,,,,,,,,,,,,,,,,,,,,,,stimuli/alien_stimuli/66.png,,,,,,,,,,,,,,,,,,,,,,,,,,,,,stimuli/alien_stimuli/26.png,26,5,8,,,,,,,30,,,,,,,,856.8738799999701,856.8738799999701,856.8738799999701,856.8738799999701,856.8738799999701,left,2.7536813999759033,0,0,0,99,0.39999999999999997,-0.4,left,2.6699480999959633,,,,,855.3105533999624,856.8738799999701,0.16,-0.4,0.0,0.08,-0.4,0.16,0.2,0.16,-0.4,851.2475848000031,851.2475848000031,851.2475848000031,851.2475848000031,851.2475848000031,851.2475848000031,851.2475848000031,851.2475848000031,851.2396302799461,4.1890100000891834,return,4.046048799995333,,,,,,,,,,,,,,,,,,,,,,,,,,,,,,,,,H4FHKE,train_x,red_square,bottom_right,2025-09-05_13h08.59.897,HideSeek_v1,2022.2.5,60.448308859584195,
,8,0,3,0,-5,0,66,,train_dim1_1,7,30,,,,2,0,2,0,,,,,,,,,0,0,0,0,0,6,6,6,1,0,1,0,,,,,,,,,,,,,,,,,,,,,,,,,,,,,,,,,,,,,,,,,,,,,,,,,,,,,,,,,,,,,,,,30,,,,,,,,859.6308970999671,859.6308970999671,859.6308970999671,859.6308970999671,859.6308970999671,left,0.4597275999840349,0,0,0,99,0.31999999999999995,-0.4,left,0.37956140004098415,,,,,,,,,,,,,,,,,,,,,,,,,,,,,,,,,,,,,,,,,,,,,,,,,,,,,,,,,,,,H4FHKE,train_x,red_square,bottom_right,2025-09-05_13h08.59.897,HideSeek_v1,2022.2.5,60.448308859584195,
,8,0,3,0,-5,0,66,,train_dim1_1,7,30,,,,2,0,2,0,,,,,,,,,0,0,0,0,0,6,6,6,2,0,2,0,,,,,,,,,,,,,,,,,,,,,,,,,,,,,,,,,,,,,,,,,,,,,,,,,,,,,,,,,,,,,,,,30,,,,,,,,860.094312399975,860.094312399975,860.094312399975,860.094312399975,860.094312399975,left,0.6268682000227273,0,0,0,99,0.23999999999999994,-0.4,left,0.5450863000005484,,,,,,,,,,,,,,,,,,,,,,,,,,,,,,,,,,,,,,,,,,,,,,,,,,,,,,,,,,,,H4FHKE,train_x,red_square,bottom_right,2025-09-05_13h08.59.897,HideSeek_v1,2022.2.5,60.448308859584195,
,8,0,3,0,-5,0,66,,train_dim1_1,7,30,,,,2,0,2,0,,,,,,,,,0,0,0,0,0,6,6,6,3,0,3,0,,,,,,,,,,,,,,,,,,,,,,,,,,,,,,,,,,,,,,,,,,,,,,,,,,,,,,,,,,,,,,,,30,,,,,,,,860.7284165999154,860.7284165999154,860.7284165999154,860.7284165999154,860.7284165999154,left,0.5764448998961598,0,0,0,99,0.15999999999999992,-0.4,left,0.49873959994874895,,,,,,,,,,,,,,,,,,,,,,,,,,,,,,,,,,,,,,,,,,,,,,,,,,,,,,,,,,,,H4FHKE,train_x,red_square,bottom_right,2025-09-05_13h08.59.897,HideSeek_v1,2022.2.5,60.448308859584195,
,8,0,3,0,-5,0,66,,train_dim1_1,7,30,,,,2,0,2,0,,,,,,,,,0,0,0,0,0,6,6,6,4,0,4,0,,,,,,,,,,,,,,,,,,,,,,,,,,,,,,,,,,,,,,,,,,,,,,,,,,,,,,,,,,,,,,,,30,,,,,,,,861.3123948998982,861.3123948998982,861.3123948998982,861.3123948998982,861.3123948998982,left,0.6100026000058278,0,0,0,99,0.07999999999999992,-0.4,left,0.5221856998978183,,,,,,,,,,,,,,,,,,,,,,,,,,,,,,,,,,,,,,,,,,,,,,,,,,,,,,,,,,,,H4FHKE,train_x,red_square,bottom_right,2025-09-05_13h08.59.897,HideSeek_v1,2022.2.5,60.448308859584195,
,8,0,3,0,-5,0,66,,train_dim1_1,7,30,,,,2,0,2,0,,,,,,,,,0,0,0,0,0,6,6,6,5,0,5,0,,,,,,,,,,,,,,,,,,,,,,,,,,,,,,,,,,,,,,,,,,,,,,,,,,,,,,,,,,,,,,,,30,,,,,,,,861.9321268999483,861.9321268999483,861.9321268999483,861.9321268999483,861.9321268999483,return,0.6748775999294594,1,0,0,1,0.07999999999999992,-0.4,return,0.6009658999973908,5,-19,0.07999999999999992,-0.4,,,,,,,,,,,,,,,,,,,,,,,,,,,,,,,,,,,,,,,,,,,,,,,,,,,,,,,,H4FHKE,train_x,red_square,bottom_right,2025-09-05_13h08.59.897,HideSeek_v1,2022.2.5,60.448308859584195,
,5,4,2,4,-3,0,46,,train_dim1_1,8,30,,,,2,0,2,0,,,,,,,,,0,0,0,0,0,7,7,7,0,0,0,0,,,,,,,,,,,,,,,,,,,,,,,,,stimuli/alien_stimuli/46.png,,,,,,,,,,,,,,,,,,,,,,,,,,,,,stimuli/alien_stimuli/66.png,66,8,9,,,,,,,30,,,,,,,,868.3655988998944,868.3655988998944,868.3655988998944,868.3655988998944,868.3655988998944,return,7.191592699964531,1,0,0,0,0.24,-0.08,return,7.105507200001739,5,-19,0.24,-0.08,866.8033457999118,868.3655988998944,0.08,-0.4,0.0,0.4,-0.4,0.08,0.27999999999999997,0.08,-0.4,864.183461299981,864.183461299981,864.183461299981,864.183461299981,864.183461299981,864.183461299981,864.183461299981,864.183461299981,864.1670151699218,2.737760000047274,return,2.6018112000310794,,,,,,,,,,,,,,,,,,,,,,,,,,,,,,,,,H4FHKE,train_x,red_square,bottom_right,2025-09-05_13h08.59.897,HideSeek_v1,2022.2.5,60.448308859584195,
,6,0,2,0,-4,0,56,,train_dim1_1,9,30,,,,2,0,2,0,,,,,,,,,0,0,0,0,0,8,8,8,0,0,0,0,,,,,,,,,,,,,,,,,,,,,,,,,stimuli/alien_stimuli/56.png,,,,,,,,,,,,,,,,,,,,,,,,,,,,,stimuli/alien_stimuli/46.png,46,5,10,,,,,,,30,,,,,,,,882.0451285999734,882.0451285999734,882.0451285999734,882.0451285999734,882.0451285999734,return,2.0865400000475347,1,0,0,0,0.32,-0.4,return,2.002245199983008,5,-19,0.32,-0.4,880.4815148999915,882.0451285999734,0,-0.08,0.0,0.24,-0.08,0,0.12,0,-0.08,877.1462262999266,877.1462262999266,877.1462262999266,877.1462262999266,877.1462262999266,877.1462262999266,877.1462262999266,877.1462262999266,877.1278232699842,3.4556418999563903,return,3.3183018000563607,,,,,,,,,,,,,,,,,,,,,,,,,,,,,,,,,H4FHKE,train_x,red_square,bottom_right,2025-09-05_13h08.59.897,HideSeek_v1,2022.2.5,60.448308859584195,
,5,3,5,3,0,0,16,,train_dim1_1,10,30,,,,2,0,2,0,,,,,,,,,0,0,0,0,0,9,9,9,0,0,0,0,,,,,,,,,,,,,,,,,,,,,,,,,stimuli/alien_stimuli/16.png,,,,,,,,,,,,,,,,,,,,,,,,,,,,,stimuli/alien_stimuli/56.png,56,6,11,,,,,,,30,,,,,,,,889.0496660999488,889.0496660999488,889.0496660999488,889.0496660999488,889.0496660999488,return,2.172394199995324,2,0,0,1,0.24,-0.16,return,2.0584154999814928,5,-19,0.24,-0.16,887.4705228999956,889.0496660999488,0,-0.4,0.0,0.32,-0.4,0,0.16,0,-0.4,885.6887502999743,885.6887502999743,885.6887502999743,885.6887502999743,885.6887502999743,885.6887502999743,885.6887502999743,885.6887502999743,885.6681321599754,1.8875648999819532,return,1.7517587000038475,,,,,,,,,,,,,,,,,,,,,,,,,,,,,,,,,H4FHKE,train_x,red_square,bottom_right,2025-09-05_13h08.59.897,HideSeek_v1,2022.2.5,60.448308859584195,
,7,2,4,2,-3,0,46,,train_dim1_1,11,30,,,,2,0,2,0,,,,,,,,,0,0,0,0,0,10,10,10,0,0,0,0,,,,,,,,,,,,,,,,,,,,,,,,,stimuli/alien_stimuli/46.png,,,,,,,,,,,,,,,,,,,,,,,,,,,,,stimuli/alien_stimuli/16.png,16,5,12,,,,,,,30,,,,,,,,897.1556771999458,897.1556771999458,897.1556771999458,897.1556771999458,897.1556771999458,left,1.5700402000220492,2,0,0,99,0.32,-0.24,left,1.4799691999796778,,,,,895.5940591999097,897.1556771999458,0.24,-0.16,0.0,0.0,-0.16,0.24,0.24,0.24,-0.16,892.7670225999318,892.7670225999318,892.7670225999318,892.7670225999318,892.7670225999318,892.7670225999318,892.7670225999318,892.7670225999318,892.7574608699069,2.93778709997423,return,2.7965250000124797,,,,,,,,,,,,,,,,,,,,,,,,,,,,,,,,,H4FHKE,train_x,red_square,bottom_right,2025-09-05_13h08.59.897,HideSeek_v1,2022.2.5,60.448308859584195,
,7,2,4,2,-3,0,46,,train_dim1_1,11,30,,,,2,0,2,0,,,,,,,,,0,0,0,0,0,10,10,10,1,0,1,0,,,,,,,,,,,,,,,,,,,,,,,,,,,,,,,,,,,,,,,,,,,,,,,,,,,,,,,,,,,,,,,,30,,,,,,,,898.7267080999445,898.7267080999445,898.7267080999445,898.7267080999445,898.7267080999445,left,0.3929441999644041,2,0,0,99,0.24,-0.24,left,0.3067787999752909,,,,,,,,,,,,,,,,,,,,,,,,,,,,,,,,,,,,,,,,,,,,,,,,,,,,,,,,,,,,H4FHKE,train_x,red_square,bottom_right,2025-09-05_13h08.59.897,HideSeek_v1,2022.2.5,60.448308859584195,
,7,2,4,2,-3,0,46,,train_dim1_1,11,30,,,,2,0,2,0,,,,,,,,,0,0,0,0,0,10,10,10,2,0,2,0,,,,,,,,,,,,,,,,,,,,,,,,,,,,,,,,,,,,,,,,,,,,,,,,,,,,,,,,,,,,,,,,30,,,,,,,,899.1283126999624,899.1283126999624,899.1283126999624,899.1283126999624,899.1283126999624,left,0.3599460000405088,2,0,0,99,0.15999999999999998,-0.24,left,0.2852984999772161,,,,,,,,,,,,,,,,,,,,,,,,,,,,,,,,,,,,,,,,,,,,,,,,,,,,,,,,,,,,H4FHKE,train_x,red_square,bottom_right,2025-09-05_13h08.59.897,HideSeek_v1,2022.2.5,60.448308859584195,
,7,2,4,2,-3,0,46,,train_dim1_1,11,30,,,,2,0,2,0,,,,,,,,,0,0,0,0,0,10,10,10,3,0,3,0,,,,,,,,,,,,,,,,,,,,,,,,,,,,,,,,,,,,,,,,,,,,,,,,,,,,,,,,,,,,,,,,30,,,,,,,,899.4941089999629,899.4941089999629,899.4941089999629,899.4941089999629,899.4941089999629,left,0.45998909999616444,2,0,0,99,0.07999999999999997,-0.24,left,0.3822199000278488,,,,,,,,,,,,,,,,,,,,,,,,,,,,,,,,,,,,,,,,,,,,,,,,,,,,,,,,,,,,H4FHKE,train_x,red_square,bottom_right,2025-09-05_13h08.59.897,HideSeek_v1,2022.2.5,60.448308859584195,
,7,2,4,2,-3,0,46,,train_dim1_1,11,30,,,,2,0,2,0,,,,,,,,,0,0,0,0,0,10,10,10,4,0,4,0,,,,,,,,,,,,,,,,,,,,,,,,,,,,,,,,,,,,,,,,,,,,,,,,,,,,,,,,,,,,,,,,30,,,,,,,,899.9615220999112,899.9615220999112,899.9615220999112,899.9615220999112,899.9615220999112,left,0.5266575000714511,2,0,0,99,-2.7755575615628914e-17,-0.24,left,0.44040900003165007,,,,,,,,,,,,,,,,,,,,,,,,,,,,,,,,,,,,,,,,,,,,,,,,,,,,,,,,,,,,H4FHKE,train_x,red_square,bottom_right,2025-09-05_13h08.59.897,HideSeek_v1,2022.2.5,60.448308859584195,
,7,2,4,2,-3,0,46,,train_dim1_1,11,30,,,,2,0,2,0,,,,,,,,,0,0,0,0,0,10,10,10,5,0,5,0,,,,,,,,,,,,,,,,,,,,,,,,,,,,,,,,,,,,,,,,,,,,,,,,,,,,,,,,,,,,,,,,30,,,,,,,,900.4943155999063,900.4943155999063,900.4943155999063,900.4943155999063,900.4943155999063,return,0.7270782999694347,2,0,0,0,-2.7755575615628914e-17,-0.24,return,0.6510492000961676,5,-24,-2.7755575615628914e-17,-0.24,,,,,,,,,,,,,,,,,,,,,,,,,,,,,,,,,,,,,,,,,,,,,,,,,,,,,,,,H4FHKE,train_x,red_square,bottom_right,2025-09-05_13h08.59.897,HideSeek_v1,2022.2.5,60.448308859584195,
,5,0,4,0,-1,0,26,,train_dim1_1,12,30,,,,2,0,2,0,,,,,,,,,0,0,0,0,0,11,11,11,0,0,0,0,,,,,,,,,,,,,,,,,,,,,,,,,stimuli/alien_stimuli/26.png,,,,,,,,,,,,,,,,,,,,,,,,,,,,,stimuli/alien_stimuli/46.png,46,7,13,,,,,,,30,,,,,,,,906.9363338999683,906.9363338999683,906.9363338999683,906.9363338999683,906.9363338999683,return,3.171911000041291,2,1,0,0,0.24,-0.4,return,3.066924300044775,5,-24,0.24,-0.4,905.3520804999862,906.9363338999683,0.16,-0.24,0.0,0.24,-0.24,0.16,0.28,0.16,-0.24,902.7873571999371,902.7873571999371,902.7873571999371,902.7873571999371,902.7873571999371,902.7873571999371,902.7873571999371,902.7873571999371,902.7658618598944,2.671247399994172,return,2.548211699933745,,,,,,,,,,,,,,,,,,,,,,,,,,,,,,,,,H4FHKE,train_x,red_square,bottom_right,2025-09-05_13h08.59.897,HideSeek_v1,2022.2.5,60.448308859584195,
,5,4,1,4,-4,0,56,,train_dim1_1,13,30,,,,2,0,2,0,,,,,,,,,0,0,0,0,0,12,12,12,0,0,0,0,,,,,,,,,,,,,,,,,,,,,,,,,stimuli/alien_stimuli/56.png,,,,,,,,,,,,,,,,,,,,,,,,,,,,,stimuli/alien_stimuli/26.png,26,5,14,,,,,,,30,,,,,,,,915.9699164999183,915.9699164999183,915.9699164999183,915.9699164999183,915.9699164999183,left,1.5903686999808997,2,1,0,99,0.15999999999999998,-0.08,left,1.5050257000839338,,,,,914.409622099949,915.9699164999183,0.16,-0.4,0.0,0.08,-0.4,0.16,0.2,0.16,-0.4,911.6488873999333,911.6488873999333,911.6488873999333,911.6488873999333,911.6488873999333,911.6488873999333,911.6488873999333,911.6488873999333,911.6396949699265,2.8713186000240967,return,2.736233300063759,,,,,,,,,,,,,,,,,,,,,,,,,,,,,,,,,H4FHKE,train_x,red_square,bottom_right,2025-09-05_13h08.59.897,HideSeek_v1,2022.2.5,60.448308859584195,
,5,4,1,4,-4,0,56,,train_dim1_1,13,30,,,,2,0,2,0,,,,,,,,,0,0,0,0,0,12,12,12,1,0,1,0,,,,,,,,,,,,,,,,,,,,,,,,,,,,,,,,,,,,,,,,,,,,,,,,,,,,,,,,,,,,,,,,30,,,,,,,,917.5613311999477,917.5613311999477,917.5613311999477,917.5613311999477,917.5613311999477,left,0.34285549994092435,2,1,0,99,0.07999999999999997,-0.08,left,0.26194190001115203,,,,,,,,,,,,,,,,,,,,,,,,,,,,,,,,,,,,,,,,,,,,,,,,,,,,,,,,,,,,H4FHKE,train_x,red_square,bottom_right,2025-09-05_13h08.59.897,HideSeek_v1,2022.2.5,60.448308859584195,
,5,4,1,4,-4,0,56,,train_dim1_1,13,30,,,,2,0,2,0,,,,,,,,,0,0,0,0,0,12,12,12,2,0,2,0,,,,,,,,,,,,,,,,,,,,,,,,,,,,,,,,,,,,,,,,,,,,,,,,,,,,,,,,,,,,,,,,30,,,,,,,,917.9111583000049,917.9111583000049,917.9111583000049,917.9111583000049,917.9111583000049,left,0.27659209992270917,2,1,0,99,-2.7755575615628914e-17,-0.08,left,0.19911729998420924,,,,,,,,,,,,,,,,,,,,,,,,,,,,,,,,,,,,,,,,,,,,,,,,,,,,,,,,,,,,H4FHKE,train_x,red_square,bottom_right,2025-09-05_13h08.59.897,HideSeek_v1,2022.2.5,60.448308859584195,
,5,4,1,4,-4,0,56,,train_dim1_1,13,30,,,,2,0,2,0,,,,,,,,,0,0,0,0,0,12,12,12,3,0,3,0,,,,,,,,,,,,,,,,,,,,,,,,,,,,,,,,,,,,,,,,,,,,,,,,,,,,,,,,,,,,,,,,30,,,,,,,,918.1952991998987,918.1952991998987,918.1952991998987,918.1952991998987,918.1952991998987,left,0.3766898999456316,2,1,0,99,-0.08000000000000003,-0.08,left,0.2972732000052929,,,,,,,,,,,,,,,,,,,,,,,,,,,,,,,,,,,,,,,,,,,,,,,,,,,,,,,,,,,,H4FHKE,train_x,red_square,bottom_right,2025-09-05_13h08.59.897,HideSeek_v1,2022.2.5,60.448308859584195,
,5,4,1,4,-4,0,56,,train_dim1_1,13,30,,,,2,0,2,0,,,,,,,,,0,0,0,0,0,12,12,12,4,0,4,0,,,,,,,,,,,,,,,,,,,,,,,,,,,,,,,,,,,,,,,,,,,,,,,,,,,,,,,,,,,,,,,,30,,,,,,,,918.5788347999332,918.5788347999332,918.5788347999332,918.5788347999332,918.5788347999332,return,0.7264980999752879,3,0,0,1,-0.08000000000000003,-0.08,return,0.6444511999143288,5,-28,-0.08000000000000003,-0.08,,,,,,,,,,,,,,,,,,,,,,,,,,,,,,,,,,,,,,,,,,,,,,,,,,,,,,,,H4FHKE,train_x,red_square,bottom_right,2025-09-05_13h08.59.897,HideSeek_v1,2022.2.5,60.448308859584195,
,9,3,9,3,0,0,16,,train_dim1_1,14,30,,,,2,0,2,0,,,,,,,,,0,0,0,0,0,13,13,13,0,0,0,0,,,,,,,,,,,,,,,,,,,,,,,,,stimuli/alien_stimuli/16.png,,,,,,,,,,,,,,,,,,,,,,,,,,,,,stimuli/alien_stimuli/56.png,56,5,15,,,,,,,30,,,,,,,,924.2764942999929,924.2764942999929,924.2764942999929,924.2764942999929,924.2764942999929,return,1.1723913999740034,4,0,0,1,0.56,-0.16,return,1.065227200044319,5,-28,0.56,-0.16,922.6997640999034,924.2764942999929,-0.08,-0.08,0.0,0.32,-0.08,-0.08,0.07999999999999999,-0.08,-0.08,920.8696217999095,920.8696217999095,920.8696217999095,920.8696217999095,920.8696217999095,920.8696217999095,920.8696217999095,920.8696217999095,920.8640701699187,1.9370823999634013,return,1.8028281999286264,,,,,,,,,,,,,,,,,,,,,,,,,,,,,,,,,H4FHKE,train_x,red_square,bottom_right,2025-09-05_13h08.59.897,HideSeek_v1,2022.2.5,60.448308859584195,
,9,2,4,2,-5,0,66,,train_dim1_1,15,30,,,,2,0,2,0,,,,,,,,,0,0,0,0,0,14,14,14,0,0,0,0,,,,,,,,,,,,,,,,,,,,,,,,,stimuli/alien_stimuli/66.png,,,,,,,,,,,,,,,,,,,,,,,,,,,,,stimuli/alien_stimuli/16.png,16,9,16,,,,,,,30,,,,,,,,930.2686898999382,930.2686898999382,930.2686898999382,930.2686898999382,930.2686898999382,left,1.437140200054273,4,0,0,99,0.48000000000000004,-0.24,left,1.328421999933198,,,,,928.6880589999491,930.2686898999382,0.56,-0.16,0.0,0.0,-0.16,0.56,0.56,0.56,-0.16,927.0115384999663,927.0115384999663,927.0115384999663,927.0115384999663,927.0115384999663,927.0115384999663,927.0115384999663,927.0115384999663,927.0023989698966,1.7875271999510005,return,1.6550423000007868,,,,,,,,,,,,,,,,,,,,,,,,,,,,,,,,,H4FHKE,train_x,red_square,bottom_right,2025-09-05_13h08.59.897,HideSeek_v1,2022.2.5,60.448308859584195,
,9,2,4,2,-5,0,66,,train_dim1_1,15,30,,,,2,0,2,0,,,,,,,,,0,0,0,0,0,14,14,14,1,0,1,0,,,,,,,,,,,,,,,,,,,,,,,,,,,,,,,,,,,,,,,,,,,,,,,,,,,,,,,,,,,,,,,,30,,,,,,,,931.6874261999037,931.6874261999037,931.6874261999037,931.6874261999037,931.6874261999037,left,0.4095528000034392,4,0,0,99,0.4,-0.24,left,0.3283522001001984,,,,,,,,,,,,,,,,,,,,,,,,,,,,,,,,,,,,,,,,,,,,,,,,,,,,,,,,,,,,H4FHKE,train_x,red_square,bottom_right,2025-09-05_13h08.59.897,HideSeek_v1,2022.2.5,60.448308859584195,
,9,2,4,2,-5,0,66,,train_dim1_1,15,30,,,,2,0,2,0,,,,,,,,,0,0,0,0,0,14,14,14,2,0,2,0,,,,,,,,,,,,,,,,,,,,,,,,,,,,,,,,,,,,,,,,,,,,,,,,,,,,,,,,,,,,,,,,30,,,,,,,,932.1034461999079,932.1034461999079,932.1034461999079,932.1034461999079,932.1034461999079,left,0.47665430000051856,4,0,0,99,0.32,-0.24,left,0.3967691999860108,,,,,,,,,,,,,,,,,,,,,,,,,,,,,,,,,,,,,,,,,,,,,,,,,,,,,,,,,,,,H4FHKE,train_x,red_square,bottom_right,2025-09-05_13h08.59.897,HideSeek_v1,2022.2.5,60.448308859584195,
,9,2,4,2,-5,0,66,,train_dim1_1,15,30,,,,2,0,2,0,,,,,,,,,0,0,0,0,0,14,14,14,3,0,3,0,,,,,,,,,,,,,,,,,,,,,,,,,,,,,,,,,,,,,,,,,,,,,,,,,,,,,,,,,,,,,,,,30,,,,,,,,932.5875154999085,932.5875154999085,932.5875154999085,932.5875154999085,932.5875154999085,left,0.4932968000648543,4,0,0,99,0.24,-0.24,left,0.4127771999919787,,,,,,,,,,,,,,,,,,,,,,,,,,,,,,,,,,,,,,,,,,,,,,,,,,,,,,,,,,,,H4FHKE,train_x,red_square,bottom_right,2025-09-05_13h08.59.897,HideSeek_v1,2022.2.5,60.448308859584195,
,9,2,4,2,-5,0,66,,train_dim1_1,15,30,,,,2,0,2,0,,,,,,,,,0,0,0,0,0,14,14,14,4,0,4,0,,,,,,,,,,,,,,,,,,,,,,,,,,,,,,,,,,,,,,,,,,,,,,,,,,,,,,,,,,,,,,,,30,,,,,,,,933.0875490999315,933.0875490999315,933.0875490999315,933.0875490999315,933.0875490999315,left,0.5435175999300554,4,0,0,99,0.15999999999999998,-0.24,left,0.46463050006423146,,,,,,,,,,,,,,,,,,,,,,,,,,,,,,,,,,,,,,,,,,,,,,,,,,,,,,,,,,,,H4FHKE,train_x,red_square,bottom_right,2025-09-05_13h08.59.897,HideSeek_v1,2022.2.5,60.448308859584195,
,9,2,4,2,-5,0,66,,train_dim1_1,15,30,,,,2,0,2,0,,,,,,,,,0,0,0,0,0,14,14,14,5,0,5,0,,,,,,,,,,,,,,,,,,,,,,,,,,,,,,,,,,,,,,,,,,,,,,,,,,,,,,,,,,,,,,,,30,,,,,,,,933.6390506000025,933.6390506000025,933.6390506000025,933.6390506000025,933.6390506000025,return,1.6607909000013024,5,0,0,1,0.15999999999999998,-0.24,return,1.585959899937734,5,-33,0.15999999999999998,-0.24,,,,,,,,,,,,,,,,,,,,,,,,,,,,,,,,,,,,,,,,,,,,,,,,,,,,,,,,H4FHKE,train_x,red_square,bottom_right,2025-09-05_13h08.59.897,HideSeek_v1,2022.2.5,60.448308859584195,
,8,3,4,3,-4,0,56,,train_dim1_1,16,30,,,,2,0,2,0,,,,,,,,,0,0,0,0,0,15,15,15,0,0,0,0,,,,,,,,,,,,,,,,,,,,,,,,,stimuli/alien_stimuli/56.png,,,,,,,,,,,,,,,,,,,,,,,,,,,,,stimuli/alien_stimuli/66.png,66,9,17,,,,,,,30,,,,,,,,940.5542104999768,940.5542104999768,940.5542104999768,940.5542104999768,940.5542104999768,left,1.524242899962701,5,0,0,99,0.39999999999999997,-0.16,left,1.4204268999164924,,,,,938.9800676999148,940.5542104999768,0.16,-0.24,0.0,0.4,-0.24,0.16,0.36000000000000004,0.16,-0.24,936.8632632999215,936.8632632999215,936.8632632999215,936.8632632999215,936.8632632999215,936.8632632999215,936.8632632999215,936.8632632999215,936.844125459902,2.221060200012289,return,2.0966065999818966,,,,,,,,,,,,,,,,,,,,,,,,,,,,,,,,,H4FHKE,train_x,red_square,bottom_right,2025-09-05_13h08.59.897,HideSeek_v1,2022.2.5,60.448308859584195,
,8,3,4,3,-4,0,56,,train_dim1_1,16,30,,,,2,0,2,0,,,,,,,,,0,0,0,0,0,15,15,15,1,0,1,0,,,,,,,,,,,,,,,,,,,,,,,,,,,,,,,,,,,,,,,,,,,,,,,,,,,,,,,,,,,,,,,,30,,,,,,,,942.0683728998993,942.0683728998993,942.0683728998993,942.0683728998993,942.0683728998993,left,0.44002540002111346,5,0,0,99,0.31999999999999995,-0.16,left,0.3595582999987528,,,,,,,,,,,,,,,,,,,,,,,,,,,,,,,,,,,,,,,,,,,,,,,,,,,,,,,,,,,,H4FHKE,train_x,red_square,bottom_right,2025-09-05_13h08.59.897,HideSeek_v1,2022.2.5,60.448308859584195,
,8,3,4,3,-4,0,56,,train_dim1_1,16,30,,,,2,0,2,0,,,,,,,,,0,0,0,0,0,15,15,15,2,0,2,0,,,,,,,,,,,,,,,,,,,,,,,,,,,,,,,,,,,,,,,,,,,,,,,,,,,,,,,,,,,,,,,,30,,,,,,,,942.5158845999977,942.5158845999977,942.5158845999977,942.5158845999977,942.5158845999977,left,0.4436421000864357,5,0,0,99,0.23999999999999994,-0.16,left,0.35729149996768683,,,,,,,,,,,,,,,,,,,,,,,,,,,,,,,,,,,,,,,,,,,,,,,,,,,,,,,,,,,,H4FHKE,train_x,red_square,bottom_right,2025-09-05_13h08.59.897,HideSeek_v1,2022.2.5,60.448308859584195,
,8,3,4,3,-4,0,56,,train_dim1_1,16,30,,,,2,0,2,0,,,,,,,,,0,0,0,0,0,15,15,15,3,0,3,0,,,,,,,,,,,,,,,,,,,,,,,,,,,,,,,,,,,,,,,,,,,,,,,,,,,,,,,,,,,,,,,,30,,,,,,,,942.9664877000032,942.9664877000032,942.9664877000032,942.9664877000032,942.9664877000032,left,0.42651829996611923,5,0,0,99,0.15999999999999992,-0.16,left,0.34380299993790686,,,,,,,,,,,,,,,,,,,,,,,,,,,,,,,,,,,,,,,,,,,,,,,,,,,,,,,,,,,,H4FHKE,train_x,red_square,bottom_right,2025-09-05_13h08.59.897,HideSeek_v1,2022.2.5,60.448308859584195,
,8,3,4,3,-4,0,56,,train_dim1_1,16,30,,,,2,0,2,0,,,,,,,,,0,0,0,0,0,15,15,15,4,0,4,0,,,,,,,,,,,,,,,,,,,,,,,,,,,,,,,,,,,,,,,,,,,,,,,,,,,,,,,,,,,,,,,,30,,,,,,,,943.4001540999161,943.4001540999161,943.4001540999161,943.4001540999161,943.4001540999161,left,0.6099922999273986,5,0,0,99,0.07999999999999992,-0.16,left,0.5187617000192404,,,,,,,,,,,,,,,,,,,,,,,,,,,,,,,,,,,,,,,,,,,,,,,,,,,,,,,,,,,,H4FHKE,train_x,red_square,bottom_right,2025-09-05_13h08.59.897,HideSeek_v1,2022.2.5,60.448308859584195,
,8,3,4,3,-4,0,56,,train_dim1_1,16,30,,,,2,0,2,0,,,,,,,,,0,0,0,0,0,15,15,15,5,0,5,0,,,,,,,,,,,,,,,,,,,,,,,,,,,,,,,,,,,,,,,,,,,,,,,,,,,,,,,,,,,,,,,,30,,,,,,,,944.0167028999422,944.0167028999422,944.0167028999422,944.0167028999422,944.0167028999422,return,0.5769644000101835,5,1,0,0,0.07999999999999992,-0.16,return,0.49190810008440167,5,-38,0.07999999999999992,-0.16,,,,,,,,,,,,,,,,,,,,,,,,,,,,,,,,,,,,,,,,,,,,,,,,,,,,,,,,H4FHKE,train_x,red_square,bottom_right,2025-09-05_13h08.59.897,HideSeek_v1,2022.2.5,60.448308859584195,
,7,4,6,4,-1,0,26,,train_dim1_1,17,30,,,,2,0,2,0,,,,,,,,,0,0,0,0,0,16,16,16,0,0,0,0,,,,,,,,,,,,,,,,,,,,,,,,,stimuli/alien_stimuli/26.png,,,,,,,,,,,,,,,,,,,,,,,,,,,,,stimuli/alien_stimuli/56.png,56,8,18,,,,,,,30,,,,,,,,950.5352015999379,950.5352015999379,950.5352015999379,950.5352015999379,950.5352015999379,left,1.8892515000188723,5,1,0,99,0.32,-0.08,left,1.7952379999915138,,,,,948.9716210999759,950.5352015999379,0.16,-0.16,0.0,0.32,-0.16,0.16,0.32,0.16,-0.16,946.1594970999286,946.1594970999286,946.1594970999286,946.1594970999286,946.1594970999286,946.1594970999286,946.1594970999286,946.1594970999286,946.1515231698868,2.921089700073935,return,2.7808413000311702,,,,,,,,,,,,,,,,,,,,,,,,,,,,,,,,,H4FHKE,train_x,red_square,bottom_right,2025-09-05_13h08.59.897,HideSeek_v1,2022.2.5,60.448308859584195,
,7,4,6,4,-1,0,26,,train_dim1_1,17,30,,,,2,0,2,0,,,,,,,,,0,0,0,0,0,16,16,16,1,0,1,0,,,,,,,,,,,,,,,,,,,,,,,,,,,,,,,,,,,,,,,,,,,,,,,,,,,,,,,,,,,,,,,,30,,,,,,,,952.4250625999412,952.4250625999412,952.4250625999412,952.4250625999412,952.4250625999412,return,0.7433113999431953,6,0,0,1,0.32,-0.08,return,0.6676442000316456,5,-39,0.32,-0.08,,,,,,,,,,,,,,,,,,,,,,,,,,,,,,,,,,,,,,,,,,,,,,,,,,,,,,,,H4FHKE,train_x,red_square,bottom_right,2025-09-05_13h08.59.897,HideSeek_v1,2022.2.5,60.448308859584195,
,7,1,2,1,-5,0,66,,train_dim1_1,18,30,,,,2,0,2,0,,,,,,,,,0,0,0,0,0,17,17,17,0,0,0,0,,,,,,,,,,,,,,,,,,,,,,,,,stimuli/alien_stimuli/66.png,,,,,,,,,,,,,,,,,,,,,,,,,,,,,stimuli/alien_stimuli/26.png,26,7,19,,,,,,,30,,,,,,,,957.8203178999247,957.8203178999247,957.8203178999247,957.8203178999247,957.8203178999247,left,1.48935380007606,6,0,0,99,0.32,-0.32,left,1.409458399983123,,,,,956.2610525999917,957.8203178999247,0.32,-0.08,0.0,0.08,-0.08,0.32,0.36,0.32,-0.08,954.7451118999161,954.7451118999161,954.7451118999161,954.7451118999161,954.7451118999161,954.7451118999161,954.7451118999161,954.7451118999161,954.7252933699056,1.6376293000066653,return,1.49527269997634,,,,,,,,,,,,,,,,,,,,,,,,,,,,,,,,,H4FHKE,train_x,red_square,bottom_right,2025-09-05_13h08.59.897,HideSeek_v1,2022.2.5,60.448308859584195,
,7,1,2,1,-5,0,66,,train_dim1_1,18,30,,,,2,0,2,0,,,,,,,,,0,0,0,0,0,17,17,17,1,0,1,0,,,,,,,,,,,,,,,,,,,,,,,,,,,,,,,,,,,,,,,,,,,,,,,,,,,,,,,,,,,,,,,,30,,,,,,,,959.3100409999024,959.3100409999024,959.3100409999024,959.3100409999024,959.3100409999024,left,0.2927297999849543,6,0,0,99,0.24,-0.32,left,0.21680989989545196,,,,,,,,,,,,,,,,,,,,,,,,,,,,,,,,,,,,,,,,,,,,,,,,,,,,,,,,,,,,H4FHKE,train_x,red_square,bottom_right,2025-09-05_13h08.59.897,HideSeek_v1,2022.2.5,60.448308859584195,
,7,1,2,1,-5,0,66,,train_dim1_1,18,30,,,,2,0,2,0,,,,,,,,,0,0,0,0,0,17,17,17,2,0,2,0,,,,,,,,,,,,,,,,,,,,,,,,,,,,,,,,,,,,,,,,,,,,,,,,,,,,,,,,,,,,,,,,30,,,,,,,,959.6106160999043,959.6106160999043,959.6106160999043,959.6106160999043,959.6106160999043,left,0.29338060005102307,6,0,0,99,0.15999999999999998,-0.32,left,0.21712389995809644,,,,,,,,,,,,,,,,,,,,,,,,,,,,,,,,,,,,,,,,,,,,,,,,,,,,,,,,,,,,H4FHKE,train_x,red_square,bottom_right,2025-09-05_13h08.59.897,HideSeek_v1,2022.2.5,60.448308859584195,
,7,1,2,1,-5,0,66,,train_dim1_1,18,30,,,,2,0,2,0,,,,,,,,,0,0,0,0,0,17,17,17,3,0,3,0,,,,,,,,,,,,,,,,,,,,,,,,,,,,,,,,,,,,,,,,,,,,,,,,,,,,,,,,,,,,,,,,30,,,,,,,,959.9117970999796,959.9117970999796,959.9117970999796,959.9117970999796,959.9117970999796,left,0.3766186999855563,6,0,0,99,0.07999999999999997,-0.32,left,0.29471569997258484,,,,,,,,,,,,,,,,,,,,,,,,,,,,,,,,,,,,,,,,,,,,,,,,,,,,,,,,,,,,H4FHKE,train_x,red_square,bottom_right,2025-09-05_13h08.59.897,HideSeek_v1,2022.2.5,60.448308859584195,
,7,1,2,1,-5,0,66,,train_dim1_1,18,30,,,,2,0,2,0,,,,,,,,,0,0,0,0,0,17,17,17,4,0,4,0,,,,,,,,,,,,,,,,,,,,,,,,,,,,,,,,,,,,,,,,,,,,,,,,,,,,,,,,,,,,,,,,30,,,,,,,,960.2953083999455,960.2953083999455,960.2953083999455,960.2953083999455,960.2953083999455,return,0.6768344000447541,6,1,0,0,0.07999999999999997,-0.32,return,0.5983944999752566,5,-43,0.07999999999999997,-0.32,,,,,,,,,,,,,,,,,,,,,,,,,,,,,,,,,,,,,,,,,,,,,,,,,,,,,,,,H4FHKE,train_x,red_square,bottom_right,2025-09-05_13h08.59.897,HideSeek_v1,2022.2.5,60.448308859584195,
,5,3,2,3,-3,0,46,,train_dim1_1,19,30,,,,2,0,2,0,,,,,,,,,0,0,0,0,0,18,18,18,0,0,0,0,,,,,,,,,,,,,,,,,,,,,,,,,stimuli/alien_stimuli/46.png,,,,,,,,,,,,,,,,,,,,,,,,,,,,,stimuli/alien_stimuli/66.png,66,7,20,,,,,,,30,,,,,,,,965.7386872000061,965.7386872000061,965.7386872000061,965.7386872000061,965.7386872000061,return,2.5566199999302626,6,0,0,0,0.24,-0.16,return,2.4532942000078037,5,-43,0.24,-0.16,964.1674845999805,965.7386872000061,0,-0.32,0.0,0.4,-0.32,0,0.2,0,-0.32,962.5333168999059,962.5333168999059,962.5333168999059,962.5333168999059,962.5333168999059,962.5333168999059,962.5333168999059,962.5333168999059,962.515336559969,1.7373114000074565,return,1.6184999999823049,,,,,,,,,,,,,,,,,,,,,,,,,,,,,,,,,H4FHKE,train_x,red_square,bottom_right,2025-09-05_13h08.59.897,HideSeek_v1,2022.2.5,60.448308859584195,
,5,1,5,1,0,0,16,,train_dim1_1,20,30,,,,2,0,2,0,,,,,,,,,0,0,0,0,0,19,19,19,0,0,0,0,,,,,,,,,,,,,,,,,,,,,,,,,stimuli/alien_stimuli/16.png,,,,,,,,,,,,,,,,,,,,,,,,,,,,,stimuli/alien_stimuli/46.png,46,5,21,,,,,,,30,,,,,,,,972.6880869999295,972.6880869999295,972.6880869999295,972.6880869999295,972.6880869999295,left,1.9543841000413522,6,0,0,99,0.15999999999999998,-0.32,left,1.8639190000249073,,,,,971.1233523999108,972.6880869999295,0,-0.16,0.0,0.24,-0.16,0,0.12,0,-0.16,969.8411993999034,969.8411993999034,969.8411993999034,969.8411993999034,969.8411993999034,969.8411993999034,969.8411993999034,969.8411993999034,969.8215298599098,1.3866689000278711,return,1.257589300046675,,,,,,,,,,,,,,,,,,,,,,,,,,,,,,,,,H4FHKE,train_x,red_square,bottom_right,2025-09-05_13h08.59.897,HideSeek_v1,2022.2.5,60.448308859584195,
,5,1,5,1,0,0,16,,train_dim1_1,20,30,,,,2,0,2,0,,,,,,,,,0,0,0,0,0,19,19,19,1,0,1,0,,,,,,,,,,,,,,,,,,,,,,,,,,,,,,,,,,,,,,,,,,,,,,,,,,,,,,,,,,,,,,,,30,,,,,,,,974.6472638999112,974.6472638999112,974.6472638999112,974.6472638999112,974.6472638999112,return,0.6069240999640897,6,1,0,0,0.15999999999999998,-0.32,return,0.5227181001100689,5,-44,0.15999999999999998,-0.32,,,,,,,,,,,,,,,,,,,,,,,,,,,,,,,,,,,,,,,,,,,,,,,,,,,,,,,,H4FHKE,train_x,red_square,bottom_right,2025-09-05_13h08.59.897,HideSeek_v1,2022.2.5,60.448308859584195,
,9,2,6,2,-3,0,46,,train_dim1_1,21,30,,,,2,0,2,0,,,,,,,,,0,0,0,0,0,20,20,20,0,0,0,0,,,,,,,,,,,,,,,,,,,,,,,,,stimuli/alien_stimuli/46.png,,,,,,,,,,,,,,,,,,,,,,,,,,,,,stimuli/alien_stimuli/16.png,16,5,22,,,,,,,30,,,,,,,,981.4897667999612,981.4897667999612,981.4897667999612,981.4897667999612,981.4897667999612,left,1.8567730999784544,6,1,0,99,0.48000000000000004,-0.24,left,1.7619970999658108,,,,,979.9307255999884,981.4897667999612,0.24,-0.32,0.0,0.0,-0.32,0.24,0.24,0.24,-0.32,976.8181677999673,976.8181677999673,976.8181677999673,976.8181677999673,976.8181677999673,976.8181677999673,976.8181677999673,976.8181677999673,976.8104123699595,3.221497099963017,return,3.080746699939482,,,,,,,,,,,,,,,,,,,,,,,,,,,,,,,,,H4FHKE,train_x,red_square,bottom_right,2025-09-05_13h08.59.897,HideSeek_v1,2022.2.5,60.448308859584195,
,9,2,6,2,-3,0,46,,train_dim1_1,21,30,,,,2,0,2,0,,,,,,,,,0,0,0,0,0,20,20,20,1,0,1,0,,,,,,,,,,,,,,,,,,,,,,,,,,,,,,,,,,,,,,,,,,,,,,,,,,,,,,,,,,,,,,,,30,,,,,,,,983.3481724999147,983.3481724999147,983.3481724999147,983.3481724999147,983.3481724999147,left,0.22618410002905875,6,1,0,99,0.4,-0.24,left,0.14976410008966923,,,,,,,,,,,,,,,,,,,,,,,,,,,,,,,,,,,,,,,,,,,,,,,,,,,,,,,,,,,,H4FHKE,train_x,red_square,bottom_right,2025-09-05_13h08.59.897,HideSeek_v1,2022.2.5,60.448308859584195,
,9,2,6,2,-3,0,46,,train_dim1_1,21,30,,,,2,0,2,0,,,,,,,,,0,0,0,0,0,20,20,20,2,0,2,0,,,,,,,,,,,,,,,,,,,,,,,,,,,,,,,,,,,,,,,,,,,,,,,,,,,,,,,,,,,,,,,,30,,,,,,,,983.5800995999016,983.5800995999016,983.5800995999016,983.5800995999016,983.5800995999016,left,0.27602389990352094,6,1,0,99,0.32,-0.24,left,0.18946849997155368,,,,,,,,,,,,,,,,,,,,,,,,,,,,,,,,,,,,,,,,,,,,,,,,,,,,,,,,,,,,H4FHKE,train_x,red_square,bottom_right,2025-09-05_13h08.59.897,HideSeek_v1,2022.2.5,60.448308859584195,
,9,2,6,2,-3,0,46,,train_dim1_1,21,30,,,,2,0,2,0,,,,,,,,,0,0,0,0,0,20,20,20,3,0,3,0,,,,,,,,,,,,,,,,,,,,,,,,,,,,,,,,,,,,,,,,,,,,,,,,,,,,,,,,,,,,,,,,30,,,,,,,,983.8640535000013,983.8640535000013,983.8640535000013,983.8640535000013,983.8640535000013,left,0.3604141999967396,6,1,0,99,0.24,-0.24,left,0.278818599996157,,,,,,,,,,,,,,,,,,,,,,,,,,,,,,,,,,,,,,,,,,,,,,,,,,,,,,,,,,,,H4FHKE,train_x,red_square,bottom_right,2025-09-05_13h08.59.897,HideSeek_v1,2022.2.5,60.448308859584195,
,9,2,6,2,-3,0,46,,train_dim1_1,21,30,,,,2,0,2,0,,,,,,,,,0,0,0,0,0,20,20,20,4,0,4,0,,,,,,,,,,,,,,,,,,,,,,,,,,,,,,,,,,,,,,,,,,,,,,,,,,,,,,,,,,,,,,,,30,,,,,,,,984.234028399922,984.234028399922,984.234028399922,984.234028399922,984.234028399922,left,0.3401664999546483,6,1,0,99,0.15999999999999998,-0.24,left,0.2574719999684021,,,,,,,,,,,,,,,,,,,,,,,,,,,,,,,,,,,,,,,,,,,,,,,,,,,,,,,,,,,,H4FHKE,train_x,red_square,bottom_right,2025-09-05_13h08.59.897,HideSeek_v1,2022.2.5,60.448308859584195,
,9,2,6,2,-3,0,46,,train_dim1_1,21,30,,,,2,0,2,0,,,,,,,,,0,0,0,0,0,20,20,20,5,0,5,0,,,,,,,,,,,,,,,,,,,,,,,,,,,,,,,,,,,,,,,,,,,,,,,,,,,,,,,,,,,,,,,,30,,,,,,,,984.5810470998986,984.5810470998986,984.5810470998986,984.5810470998986,984.5810470998986,left,0.5270095000742003,6,1,0,99,0.07999999999999997,-0.24,left,0.43852500000502914,,,,,,,,,,,,,,,,,,,,,,,,,,,,,,,,,,,,,,,,,,,,,,,,,,,,,,,,,,,,H4FHKE,train_x,red_square,bottom_right,2025-09-05_13h08.59.897,HideSeek_v1,2022.2.5,60.448308859584195,
,9,2,6,2,-3,0,46,,train_dim1_1,21,30,,,,2,0,2,0,,,,,,,,,0,0,0,0,0,20,20,20,6,0,6,0,,,,,,,,,,,,,,,,,,,,,,,,,,,,,,,,,,,,,,,,,,,,,,,,,,,,,,,,,,,,,,,,30,,,,,,,,985.1159561999375,985.1159561999375,985.1159561999375,985.1159561999375,985.1159561999375,return,0.7601292000617832,6,0,0,0,0.07999999999999997,-0.24,return,0.6750759999267757,5,-50,0.07999999999999997,-0.24,,,,,,,,,,,,,,,,,,,,,,,,,,,,,,,,,,,,,,,,,,,,,,,,,,,,,,,,H4FHKE,train_x,red_square,bottom_right,2025-09-05_13h08.59.897,HideSeek_v1,2022.2.5,60.448308859584195,
,6,0,5,0,-1,0,26,,train_dim1_1,22,30,,,,2,0,2,0,,,,,,,,,0,0,0,0,0,21,21,21,0,0,0,0,,,,,,,,,,,,,,,,,,,,,,,,,stimuli/alien_stimuli/26.png,,,,,,,,,,,,,,,,,,,,,,,,,,,,,stimuli/alien_stimuli/46.png,46,9,23,,,,,,,30,,,,,,,,991.0657855999889,991.0657855999889,991.0657855999889,991.0657855999889,991.0657855999889,left,1.406855099950917,6,0,0,99,0.24,-0.4,left,1.300110499956645,,,,,989.4885752999689,991.0657855999889,0.32,-0.24,0.0,0.24,-0.24,0.32,0.44000000000000006,0.32,-0.24,987.4529905999079,987.4529905999079,987.4529905999079,987.4529905999079,987.4529905999079,987.4529905999079,987.4529905999079,987.4529905999079,987.4358126699808,2.1544812000356615,return,2.0198983000591397,,,,,,,,,,,,,,,,,,,,,,,,,,,,,,,,,H4FHKE,train_x,red_square,bottom_right,2025-09-05_13h08.59.897,HideSeek_v1,2022.2.5,60.448308859584195,
,6,0,5,0,-1,0,26,,train_dim1_1,22,30,,,,2,0,2,0,,,,,,,,,0,0,0,0,0,21,21,21,1,0,1,0,,,,,,,,,,,,,,,,,,,,,,,,,,,,,,,,,,,,,,,,,,,,,,,,,,,,,,,,,,,,,,,,30,,,,,,,,992.4584636999061,992.4584636999061,992.4584636999061,992.4584636999061,992.4584636999061,return,0.9435235999990255,7,0,0,1,0.24,-0.4,return,0.8521502000512555,5,-51,0.24,-0.4,,,,,,,,,,,,,,,,,,,,,,,,,,,,,,,,,,,,,,,,,,,,,,,,,,,,,,,,H4FHKE,train_x,red_square,bottom_right,2025-09-05_13h08.59.897,HideSeek_v1,2022.2.5,60.448308859584195,
,7,1,2,1,-5,0,66,,train_dim1_1,23,30,,,,2,0,2,0,,,,,,,,,0,0,0,0,0,22,22,22,0,0,0,0,,,,,,,,,,,,,,,,,,,,,,,,,stimuli/alien_stimuli/66.png,,,,,,,,,,,,,,,,,,,,,,,,,,,,,stimuli/alien_stimuli/26.png,26,6,24,,,,,,,30,,,,,,,,997.693014999968,997.693014999968,997.693014999968,997.693014999968,997.693014999968,left,1.3369882999686524,7,0,0,99,0.32,-0.32,left,1.231625400017947,,,,,996.1106516999425,997.693014999968,0.24,-0.4,0.0,0.08,-0.4,0.24,0.28,0.24,-0.4,994.9679535999894,994.9679535999894,994.9679535999894,994.9679535999894,994.9679535999894,994.9679535999894,994.9679535999894,994.9679535999894,994.9589001698769,1.252883999957703,return,1.1178172999061644,,,,,,,,,,,,,,,,,,,,,,,,,,,,,,,,,H4FHKE,train_x,red_square,bottom_right,2025-09-05_13h08.59.897,HideSeek_v1,2022.2.5,60.448308859584195,
,7,1,2,1,-5,0,66,,train_dim1_1,23,30,,,,2,0,2,0,,,,,,,,,0,0,0,0,0,22,22,22,1,0,1,0,,,,,,,,,,,,,,,,,,,,,,,,,,,,,,,,,,,,,,,,,,,,,,,,,,,,,,,,,,,,,,,,30,,,,,,,,999.0104549999814,999.0104549999814,999.0104549999814,999.0104549999814,999.0104549999814,left,0.3591313000069931,7,0,0,99,0.24,-0.32,left,0.28118489996995777,,,,,,,,,,,,,,,,,,,,,,,,,,,,,,,,,,,,,,,,,,,,,,,,,,,,,,,,,,,,H4FHKE,train_x,red_square,bottom_right,2025-09-05_13h08.59.897,HideSeek_v1,2022.2.5,60.448308859584195,
,7,1,2,1,-5,0,66,,train_dim1_1,23,30,,,,2,0,2,0,,,,,,,,,0,0,0,0,0,22,22,22,2,0,2,0,,,,,,,,,,,,,,,,,,,,,,,,,,,,,,,,,,,,,,,,,,,,,,,,,,,,,,,,,,,,,,,,30,,,,,,,,999.3769710999914,999.3769710999914,999.3769710999914,999.3769710999914,999.3769710999914,left,0.27656230004504323,7,0,0,99,0.15999999999999998,-0.32,left,0.19812949991319329,,,,,,,,,,,,,,,,,,,,,,,,,,,,,,,,,,,,,,,,,,,,,,,,,,,,,,,,,,,,H4FHKE,train_x,red_square,bottom_right,2025-09-05_13h08.59.897,HideSeek_v1,2022.2.5,60.448308859584195,
,7,1,2,1,-5,0,66,,train_dim1_1,23,30,,,,2,0,2,0,,,,,,,,,0,0,0,0,0,22,22,22,3,0,3,0,,,,,,,,,,,,,,,,,,,,,,,,,,,,,,,,,,,,,,,,,,,,,,,,,,,,,,,,,,,,,,,,30,,,,,,,,999.6635199999437,999.6635199999437,999.6635199999437,999.6635199999437,999.6635199999437,left,0.30716960004065186,7,0,0,99,0.07999999999999997,-0.32,left,0.2212761000264436,,,,,,,,,,,,,,,,,,,,,,,,,,,,,,,,,,,,,,,,,,,,,,,,,,,,,,,,,,,,H4FHKE,train_x,red_square,bottom_right,2025-09-05_13h08.59.897,HideSeek_v1,2022.2.5,60.448308859584195,
,7,1,2,1,-5,0,66,,train_dim1_1,23,30,,,,2,0,2,0,,,,,,,,,0,0,0,0,0,22,22,22,4,0,4,0,,,,,,,,,,,,,,,,,,,,,,,,,,,,,,,,,,,,,,,,,,,,,,,,,,,,,,,,,,,,,,,,30,,,,,,,,999.9765145999845,999.9765145999845,999.9765145999845,999.9765145999845,999.9765145999845,left,0.3933060000417754,7,0,0,99,-2.7755575615628914e-17,-0.32,left,0.310661300085485,,,,,,,,,,,,,,,,,,,,,,,,,,,,,,,,,,,,,,,,,,,,,,,,,,,,,,,,,,,,H4FHKE,train_x,red_square,bottom_right,2025-09-05_13h08.59.897,HideSeek_v1,2022.2.5,60.448308859584195,
,7,1,2,1,-5,0,66,,train_dim1_1,23,30,,,,2,0,2,0,,,,,,,,,0,0,0,0,0,22,22,22,5,0,5,0,,,,,,,,,,,,,,,,,,,,,,,,,,,,,,,,,,,,,,,,,,,,,,,,,,,,,,,,,,,,,,,,30,,,,,,,,1000.3776894999901,1000.3776894999901,1000.3776894999901,1000.3776894999901,1000.3776894999901,return,0.6438589000608772,8,0,0,1,-2.7755575615628914e-17,-0.32,return,0.5640643000369892,5,-56,-2.7755575615628914e-17,-0.32,,,,,,,,,,,,,,,,,,,,,,,,,,,,,,,,,,,,,,,,,,,,,,,,,,,,,,,,H4FHKE,train_x,red_square,bottom_right,2025-09-05_13h08.59.897,HideSeek_v1,2022.2.5,60.448308859584195,
,9,4,5,4,-4,0,56,,train_dim1_1,24,30,,,,2,0,2,0,,,,,,,,,0,0,0,0,0,23,23,23,0,0,0,0,,,,,,,,,,,,,,,,,,,,,,,,,stimuli/alien_stimuli/56.png,,,,,,,,,,,,,,,,,,,,,,,,,,,,,stimuli/alien_stimuli/66.png,66,7,25,,,,,,,30,,,,,,,,1005.3754874999868,1005.3754874999868,1005.3754874999868,1005.3754874999868,1005.3754874999868,left,3.1583673000568524,8,0,0,99,0.48000000000000004,-0.08,left,3.053644100087695,,,,,1003.8004325999646,1005.3754874999868,0,-0.32,0.0,0.4,-0.32,0,0.2,0,-0.32,1002.583994399989,1002.583994399989,1002.583994399989,1002.583994399989,1002.583994399989,1002.583994399989,1002.583994399989,1002.583994399989,1002.5652137598954,1.3199552999576554,return,1.18878590001259,,,,,,,,,,,,,,,,,,,,,,,,,,,,,,,,,H4FHKE,train_x,red_square,bottom_right,2025-09-05_13h08.59.897,HideSeek_v1,2022.2.5,60.448308859584195,
,9,4,5,4,-4,0,56,,train_dim1_1,24,30,,,,2,0,2,0,,,,,,,,,0,0,0,0,0,23,23,23,1,0,1,0,,,,,,,,,,,,,,,,,,,,,,,,,,,,,,,,,,,,,,,,,,,,,,,,,,,,,,,,,,,,,,,,30,,,,,,,,1008.5209098999621,1008.5209098999621,1008.5209098999621,1008.5209098999621,1008.5209098999621,left,0.4262122999643907,8,0,0,99,0.4,-0.08,left,0.345543900039047,,,,,,,,,,,,,,,,,,,,,,,,,,,,,,,,,,,,,,,,,,,,,,,,,,,,,,,,,,,,H4FHKE,train_x,red_square,bottom_right,2025-09-05_13h08.59.897,HideSeek_v1,2022.2.5,60.448308859584195,
,9,4,5,4,-4,0,56,,train_dim1_1,24,30,,,,2,0,2,0,,,,,,,,,0,0,0,0,0,23,23,23,2,0,2,0,,,,,,,,,,,,,,,,,,,,,,,,,,,,,,,,,,,,,,,,,,,,,,,,,,,,,,,,,,,,,,,,30,,,,,,,,1008.9569344999036,1008.9569344999036,1008.9569344999036,1008.9569344999036,1008.9569344999036,left,0.4072726999875158,8,0,0,99,0.32,-0.08,left,0.322046099929139,,,,,,,,,,,,,,,,,,,,,,,,,,,,,,,,,,,,,,,,,,,,,,,,,,,,,,,,,,,,H4FHKE,train_x,red_square,bottom_right,2025-09-05_13h08.59.897,HideSeek_v1,2022.2.5,60.448308859584195,
,9,4,5,4,-4,0,56,,train_dim1_1,24,30,,,,2,0,2,0,,,,,,,,,0,0,0,0,0,23,23,23,3,0,3,0,,,,,,,,,,,,,,,,,,,,,,,,,,,,,,,,,,,,,,,,,,,,,,,,,,,,,,,,,,,,,,,,30,,,,,,,,1009.3694167999784,1009.3694167999784,1009.3694167999784,1009.3694167999784,1009.3694167999784,left,0.4099910999648273,8,0,0,99,0.24,-0.08,left,0.33273989998269826,,,,,,,,,,,,,,,,,,,,,,,,,,,,,,,,,,,,,,,,,,,,,,,,,,,,,,,,,,,,H4FHKE,train_x,red_square,bottom_right,2025-09-05_13h08.59.897,HideSeek_v1,2022.2.5,60.448308859584195,
,9,4,5,4,-4,0,56,,train_dim1_1,24,30,,,,2,0,2,0,,,,,,,,,0,0,0,0,0,23,23,23,4,0,4,0,,,,,,,,,,,,,,,,,,,,,,,,,,,,,,,,,,,,,,,,,,,,,,,,,,,,,,,,,,,,,,,,30,,,,,,,,1009.7876604999183,1009.7876604999183,1009.7876604999183,1009.7876604999183,1009.7876604999183,right,1.5275384999113157,8,0,0,99,0.32,-0.08,right,1.4438227000646293,,,,,,,,,,,,,,,,,,,,,,,,,,,,,,,,,,,,,,,,,,,,,,,,,,,,,,,,,,,,H4FHKE,train_x,red_square,bottom_right,2025-09-05_13h08.59.897,HideSeek_v1,2022.2.5,60.448308859584195,
,9,4,5,4,-4,0,56,,train_dim1_1,24,30,,,,2,0,2,0,,,,,,,,,0,0,0,0,0,23,23,23,5,0,5,0,,,,,,,,,,,,,,,,,,,,,,,,,,,,,,,,,,,,,,,,,,,,,,,,,,,,,,,,,,,,,,,,30,,,,,,,,1011.3227356999414,1011.3227356999414,1011.3227356999414,1011.3227356999414,1011.3227356999414,return,0.8769657999509946,8,1,0,0,0.32,-0.08,return,0.7918177000246942,5,-59,0.32,-0.08,,,,,,,,,,,,,,,,,,,,,,,,,,,,,,,,,,,,,,,,,,,,,,,,,,,,,,,,H4FHKE,train_x,red_square,bottom_right,2025-09-05_13h08.59.897,HideSeek_v1,2022.2.5,60.448308859584195,
,8,0,8,0,0,0,16,,train_dim1_1,25,30,,,,2,0,2,0,,,,,,,,,0,0,0,0,0,24,24,24,0,0,0,0,,,,,,,,,,,,,,,,,,,,,,,,,stimuli/alien_stimuli/16.png,,,,,,,,,,,,,,,,,,,,,,,,,,,,,stimuli/alien_stimuli/56.png,56,9,26,,,,,,,30,,,,,,,,1017.3663319000043,1017.3663319000043,1017.3663319000043,1017.3663319000043,1017.3663319000043,left,1.907094300026074,8,1,0,99,0.39999999999999997,-0.4,left,1.8120081000961363,,,,,1015.7938227999257,1017.3663319000043,0.24,-0.08,0.0,0.32,-0.08,0.24,0.4,0.24,-0.08,1013.7827534999233,1013.7827534999233,1013.7827534999233,1013.7827534999233,1013.7827534999233,1013.7827534999233,1013.7827534999233,1013.7827534999233,1013.7741813799366,2.1373679999960586,return,1.9838209999725223,,,,,,,,,,,,,,,,,,,,,,,,,,,,,,,,,H4FHKE,train_x,red_square,bottom_right,2025-09-05_13h08.59.897,HideSeek_v1,2022.2.5,60.448308859584195,
,8,0,8,0,0,0,16,,train_dim1_1,25,30,,,,2,0,2,0,,,,,,,,,0,0,0,0,0,24,24,24,1,0,1,0,,,,,,,,,,,,,,,,,,,,,,,,,,,,,,,,,,,,,,,,,,,,,,,,,,,,,,,,,,,,,,,,30,,,,,,,,1019.2666857999284,1019.2666857999284,1019.2666857999284,1019.2666857999284,1019.2666857999284,return,0.2595189999556169,8,1,0,0,0.39999999999999997,-0.4,return,0.1728027000790462,5,-60,0.39999999999999997,-0.4,,,,,,,,,,,,,,,,,,,,,,,,,,,,,,,,,,,,,,,,,,,,,,,,,,,,,,,,H4FHKE,train_x,red_square,bottom_right,2025-09-05_13h08.59.897,HideSeek_v1,2022.2.5,60.448308859584195,
,6,1,1,1,-5,0,66,,train_dim1_1,26,30,,,,2,0,2,0,,,,,,,,,0,0,0,0,0,25,25,25,0,0,0,0,,,,,,,,,,,,,,,,,,,,,,,,,stimuli/alien_stimuli/66.png,,,,,,,,,,,,,,,,,,,,,,,,,,,,,stimuli/alien_stimuli/16.png,16,8,27,,,,,,,30,,,,,,,,1024.5444109999808,1024.5444109999808,1024.5444109999808,1024.5444109999808,1024.5444109999808,left,1.1703856000676751,8,1,0,99,0.24,-0.32,left,1.0804309999803081,,,,,1022.9830149000045,1024.5444109999808,0.48,-0.4,0.0,0.0,-0.4,0.48,0.48,0.48,-0.4,1021.0886319999117,1021.0886319999117,1021.0886319999117,1021.0886319999117,1021.0886319999117,1021.0886319999117,1021.0886319999117,1021.0886319999117,1021.080492269888,2.003850100096315,return,1.8758035000646487,,,,,,,,,,,,,,,,,,,,,,,,,,,,,,,,,H4FHKE,train_x,red_square,bottom_right,2025-09-05_13h08.59.897,HideSeek_v1,2022.2.5,60.448308859584195,
,6,1,1,1,-5,0,66,,train_dim1_1,26,30,,,,2,0,2,0,,,,,,,,,0,0,0,0,0,25,25,25,1,0,1,0,,,,,,,,,,,,,,,,,,,,,,,,,,,,,,,,,,,,,,,,,,,,,,,,,,,,,,,,,,,,,,,,30,,,,,,,,1025.7154277999653,1025.7154277999653,1025.7154277999653,1025.7154277999653,1025.7154277999653,left,0.3928829999640584,8,1,0,99,0.15999999999999998,-0.32,left,0.318196399952285,,,,,,,,,,,,,,,,,,,,,,,,,,,,,,,,,,,,,,,,,,,,,,,,,,,,,,,,,,,,H4FHKE,train_x,red_square,bottom_right,2025-09-05_13h08.59.897,HideSeek_v1,2022.2.5,60.448308859584195,
,6,1,1,1,-5,0,66,,train_dim1_1,26,30,,,,2,0,2,0,,,,,,,,,0,0,0,0,0,25,25,25,2,0,2,0,,,,,,,,,,,,,,,,,,,,,,,,,,,,,,,,,,,,,,,,,,,,,,,,,,,,,,,,,,,,,,,,30,,,,,,,,1026.1153711999068,1026.1153711999068,1026.1153711999068,1026.1153711999068,1026.1153711999068,left,0.34341450000647455,8,1,0,99,0.07999999999999997,-0.32,left,0.26107600005343556,,,,,,,,,,,,,,,,,,,,,,,,,,,,,,,,,,,,,,,,,,,,,,,,,,,,,,,,,,,,H4FHKE,train_x,red_square,bottom_right,2025-09-05_13h08.59.897,HideSeek_v1,2022.2.5,60.448308859584195,
,6,1,1,1,-5,0,66,,train_dim1_1,26,30,,,,2,0,2,0,,,,,,,,,0,0,0,0,0,25,25,25,3,0,3,0,,,,,,,,,,,,,,,,,,,,,,,,,,,,,,,,,,,,,,,,,,,,,,,,,,,,,,,,,,,,,,,,30,,,,,,,,1026.464798699948,1026.464798699948,1026.464798699948,1026.464798699948,1026.464798699948,left,0.39326080004684627,8,1,0,99,-2.7755575615628914e-17,-0.32,left,0.32089920004364103,,,,,,,,,,,,,,,,,,,,,,,,,,,,,,,,,,,,,,,,,,,,,,,,,,,,,,,,,,,,H4FHKE,train_x,red_square,bottom_right,2025-09-05_13h08.59.897,HideSeek_v1,2022.2.5,60.448308859584195,
,6,1,1,1,-5,0,66,,train_dim1_1,26,30,,,,2,0,2,0,,,,,,,,,0,0,0,0,0,25,25,25,4,0,4,0,,,,,,,,,,,,,,,,,,,,,,,,,,,,,,,,,,,,,,,,,,,,,,,,,,,,,,,,,,,,,,,,30,,,,,,,,1026.8664799999679,1026.8664799999679,1026.8664799999679,1026.8664799999679,1026.8664799999679,left,1.4107638999121264,8,1,0,99,-0.08000000000000003,-0.32,left,1.3301502000540495,,,,,,,,,,,,,,,,,,,,,,,,,,,,,,,,,,,,,,,,,,,,,,,,,,,,,,,,,,,,H4FHKE,train_x,red_square,bottom_right,2025-09-05_13h08.59.897,HideSeek_v1,2022.2.5,60.448308859584195,
,6,1,1,1,-5,0,66,,train_dim1_1,26,30,,,,2,0,2,0,,,,,,,,,0,0,0,0,0,25,25,25,5,0,5,0,,,,,,,,,,,,,,,,,,,,,,,,,,,,,,,,,,,,,,,,,,,,,,,,,,,,,,,,,,,,,,,,30,,,,,,,,1028.284348599962,1028.284348599962,1028.284348599962,1028.284348599962,1028.284348599962,return,0.5929745000321418,9,0,0,1,-0.08000000000000003,-0.32,return,0.5138903999468312,5,-65,-0.08000000000000003,-0.32,,,,,,,,,,,,,,,,,,,,,,,,,,,,,,,,,,,,,,,,,,,,,,,,,,,,,,,,H4FHKE,train_x,red_square,bottom_right,2025-09-05_13h08.59.897,HideSeek_v1,2022.2.5,60.448308859584195,
,5,1,2,1,-3,0,46,,train_dim1_1,27,30,,,,2,0,2,0,,,,,,,,,0,0,0,0,0,26,26,26,0,0,0,0,,,,,,,,,,,,,,,,,,,,,,,,,stimuli/alien_stimuli/46.png,,,,,,,,,,,,,,,,,,,,,,,,,,,,,stimuli/alien_stimuli/66.png,66,6,28,,,,,,,30,,,,,,,,1033.350000699982,1033.350000699982,1033.350000699982,1033.350000699982,1033.350000699982,left,2.471156199928373,9,0,0,99,0.15999999999999998,-0.32,left,2.3764148999471217,,,,,1031.7736738999374,1033.350000699982,-0.08,-0.32,0.0,0.4,-0.32,-0.08,0.12,-0.08,-0.32,1030.4399065999314,1030.4399065999314,1030.4399065999314,1030.4399065999314,1030.4399065999314,1030.4399065999314,1030.4399065999314,1030.4399065999314,1030.4217513599433,1.4369185999967158,return,1.3087589999195188,,,,,,,,,,,,,,,,,,,,,,,,,,,,,,,,,H4FHKE,train_x,red_square,bottom_right,2025-09-05_13h08.59.897,HideSeek_v1,2022.2.5,60.448308859584195,
,5,1,2,1,-3,0,46,,train_dim1_1,27,30,,,,2,0,2,0,,,,,,,,,0,0,0,0,0,26,26,26,1,0,1,0,,,,,,,,,,,,,,,,,,,,,,,,,,,,,,,,,,,,,,,,,,,,,,,,,,,,,,,,,,,,,,,,30,,,,,,,,1035.8102387998952,1035.8102387998952,1035.8102387998952,1035.8102387998952,1035.8102387998952,left,0.5241341000655666,9,0,0,99,0.07999999999999997,-0.32,left,0.4379573999904096,,,,,,,,,,,,,,,,,,,,,,,,,,,,,,,,,,,,,,,,,,,,,,,,,,,,,,,,,,,,H4FHKE,train_x,red_square,bottom_right,2025-09-05_13h08.59.897,HideSeek_v1,2022.2.5,60.448308859584195,
,5,1,2,1,-3,0,46,,train_dim1_1,27,30,,,,2,0,2,0,,,,,,,,,0,0,0,0,0,26,26,26,2,0,2,0,,,,,,,,,,,,,,,,,,,,,,,,,,,,,,,,,,,,,,,,,,,,,,,,,,,,,,,,,,,,,,,,30,,,,,,,,1036.344261799939,1036.344261799939,1036.344261799939,1036.344261799939,1036.344261799939,left,0.4070714999688789,9,0,0,99,-2.7755575615628914e-17,-0.32,left,0.3283018000656739,,,,,,,,,,,,,,,,,,,,,,,,,,,,,,,,,,,,,,,,,,,,,,,,,,,,,,,,,,,,H4FHKE,train_x,red_square,bottom_right,2025-09-05_13h08.59.897,HideSeek_v1,2022.2.5,60.448308859584195,
,5,1,2,1,-3,0,46,,train_dim1_1,27,30,,,,2,0,2,0,,,,,,,,,0,0,0,0,0,26,26,26,3,0,3,0,,,,,,,,,,,,,,,,,,,,,,,,,,,,,,,,,,,,,,,,,,,,,,,,,,,,,,,,,,,,,,,,30,,,,,,,,1036.759660599986,1036.759660599986,1036.759660599986,1036.759660599986,1036.759660599986,return,1.2940826999256387,10,0,0,1,-2.7755575615628914e-17,-0.32,return,1.2141825999133289,5,-68,-2.7755575615628914e-17,-0.32,,,,,,,,,,,,,,,,,,,,,,,,,,,,,,,,,,,,,,,,,,,,,,,,,,,,,,,,H4FHKE,train_x,red_square,bottom_right,2025-09-05_13h08.59.897,HideSeek_v1,2022.2.5,60.448308859584195,
,8,1,7,1,-1,0,26,,train_dim1_1,28,30,,,,2,0,2,0,,,,,,,,,0,0,0,0,0,27,27,27,0,0,0,0,,,,,,,,,,,,,,,,,,,,,,,,,stimuli/alien_stimuli/26.png,,,,,,,,,,,,,,,,,,,,,,,,,,,,,stimuli/alien_stimuli/46.png,46,5,29,,,,,,,30,,,,,,,,1042.1492285999702,1042.1492285999702,1042.1492285999702,1042.1492285999702,1042.1492285999702,return,2.904727099929005,10,1,0,0,0.48,-0.32,return,2.801816300023347,5,-68,0.48,-0.32,1040.5638724999735,1042.1492285999702,0,-0.32,0.0,0.24,-0.32,0,0.12,0,-0.32,1039.6144032999873,1039.6144032999873,1039.6144032999873,1039.6144032999873,1039.6144032999873,1039.6144032999873,1039.6144032999873,1039.6144032999873,1039.5959833599627,1.0533070000819862,return,0.9333563999971375,,,,,,,,,,,,,,,,,,,,,,,,,,,,,,,,,H4FHKE,train_x,red_square,bottom_right,2025-09-05_13h08.59.897,HideSeek_v1,2022.2.5,60.448308859584195,
,9,0,5,0,-4,0,56,,train_dim1_1,29,30,,,,2,0,2,0,,,,,,,,,0,0,0,0,0,28,28,28,0,0,0,0,,,,,,,,,,,,,,,,,,,,,,,,,stimuli/alien_stimuli/56.png,,,,,,,,,,,,,,,,,,,,,,,,,,,,,stimuli/alien_stimuli/26.png,26,8,30,,,,,,,30,,,,,,,,1049.467341199983,1049.467341199983,1049.467341199983,1049.467341199983,1049.467341199983,left,1.786964699975215,10,1,0,99,0.48000000000000004,-0.4,left,1.6942379999672994,,,,,1047.9035052999388,1049.467341199983,0.4,-0.32,0.0,0.08,-0.32,0.4,0.44,0.4,-0.32,1046.5934105999768,1046.5934105999768,1046.5934105999768,1046.5934105999768,1046.5934105999768,1046.5934105999768,1046.5934105999768,1046.5934105999768,1046.5849722698913,1.419994099996984,return,1.2796994999516755,,,,,,,,,,,,,,,,,,,,,,,,,,,,,,,,,H4FHKE,train_x,red_square,bottom_right,2025-09-05_13h08.59.897,HideSeek_v1,2022.2.5,60.448308859584195,
,9,0,5,0,-4,0,56,,train_dim1_1,29,30,,,,2,0,2,0,,,,,,,,,0,0,0,0,0,28,28,28,1,0,1,0,,,,,,,,,,,,,,,,,,,,,,,,,,,,,,,,,,,,,,,,,,,,,,,,,,,,,,,,,,,,,,,,30,,,,,,,,1051.254909299896,1051.254909299896,1051.254909299896,1051.254909299896,1051.254909299896,left,0.2929536000592634,10,1,0,99,0.4,-0.4,left,0.2141020999988541,,,,,,,,,,,,,,,,,,,,,,,,,,,,,,,,,,,,,,,,,,,,,,,,,,,,,,,,,,,,H4FHKE,train_x,red_square,bottom_right,2025-09-05_13h08.59.897,HideSeek_v1,2022.2.5,60.448308859584195,
,9,0,5,0,-4,0,56,,train_dim1_1,29,30,,,,2,0,2,0,,,,,,,,,0,0,0,0,0,28,28,28,2,0,2,0,,,,,,,,,,,,,,,,,,,,,,,,,,,,,,,,,,,,,,,,,,,,,,,,,,,,,,,,,,,,,,,,30,,,,,,,,1051.555510599981,1051.555510599981,1051.555510599981,1051.555510599981,1051.555510599981,left,0.34318399999756366,10,1,0,99,0.32,-0.4,left,0.2667920000385493,,,,,,,,,,,,,,,,,,,,,,,,,,,,,,,,,,,,,,,,,,,,,,,,,,,,,,,,,,,,H4FHKE,train_x,red_square,bottom_right,2025-09-05_13h08.59.897,HideSeek_v1,2022.2.5,60.448308859584195,
,9,0,5,0,-4,0,56,,train_dim1_1,29,30,,,,2,0,2,0,,,,,,,,,0,0,0,0,0,28,28,28,3,0,3,0,,,,,,,,,,,,,,,,,,,,,,,,,,,,,,,,,,,,,,,,,,,,,,,,,,,,,,,,,,,,,,,,30,,,,,,,,1051.9087122000055,1051.9087122000055,1051.9087122000055,1051.9087122000055,1051.9087122000055,left,0.3734325000550598,10,1,0,99,0.24,-0.4,left,0.28486879996489733,,,,,,,,,,,,,,,,,,,,,,,,,,,,,,,,,,,,,,,,,,,,,,,,,,,,,,,,,,,,H4FHKE,train_x,red_square,bottom_right,2025-09-05_13h08.59.897,HideSeek_v1,2022.2.5,60.448308859584195,
,9,0,5,0,-4,0,56,,train_dim1_1,29,30,,,,2,0,2,0,,,,,,,,,0,0,0,0,0,28,28,28,4,0,4,0,,,,,,,,,,,,,,,,,,,,,,,,,,,,,,,,,,,,,,,,,,,,,,,,,,,,,,,,,,,,,,,,30,,,,,,,,1052.2902476999443,1052.2902476999443,1052.2902476999443,1052.2902476999443,1052.2902476999443,left,0.3435182999819517,10,1,0,99,0.15999999999999998,-0.4,left,0.2573234000010416,,,,,,,,,,,,,,,,,,,,,,,,,,,,,,,,,,,,,,,,,,,,,,,,,,,,,,,,,,,,H4FHKE,train_x,red_square,bottom_right,2025-09-05_13h08.59.897,HideSeek_v1,2022.2.5,60.448308859584195,
,9,0,5,0,-4,0,56,,train_dim1_1,29,30,,,,2,0,2,0,,,,,,,,,0,0,0,0,0,28,28,28,5,0,5,0,,,,,,,,,,,,,,,,,,,,,,,,,,,,,,,,,,,,,,,,,,,,,,,,,,,,,,,,,,,,,,,,30,,,,,,,,1052.6423510999884,1052.6423510999884,1052.6423510999884,1052.6423510999884,1052.6423510999884,right,1.9583186999661848,10,1,0,99,0.24,-0.4,right,1.8779665000038221,,,,,,,,,,,,,,,,,,,,,,,,,,,,,,,,,,,,,,,,,,,,,,,,,,,,,,,,,,,,H4FHKE,train_x,red_square,bottom_right,2025-09-05_13h08.59.897,HideSeek_v1,2022.2.5,60.448308859584195,
,9,0,5,0,-4,0,56,,train_dim1_1,29,30,,,,2,0,2,0,,,,,,,,,0,0,0,0,0,28,28,28,6,0,6,0,,,,,,,,,,,,,,,,,,,,,,,,,,,,,,,,,,,,,,,,,,,,,,,,,,,,,,,,,,,,,,,,30,,,,,,,,1054.6086420000065,1054.6086420000065,1054.6086420000065,1054.6086420000065,1054.6086420000065,right,0.5766656999476254,10,1,0,99,0.32,-0.4,right,0.4994381000287831,,,,,,,,,,,,,,,,,,,,,,,,,,,,,,,,,,,,,,,,,,,,,,,,,,,,,,,,,,,,H4FHKE,train_x,red_square,bottom_right,2025-09-05_13h08.59.897,HideSeek_v1,2022.2.5,60.448308859584195,
,9,0,5,0,-4,0,56,,train_dim1_1,29,30,,,,2,0,2,0,,,,,,,,,0,0,0,0,0,28,28,28,7,0,7,0,,,,,,,,,,,,,,,,,,,,,,,,,,,,,,,,,,,,,,,,,,,,,,,,,,,,,,,,,,,,,,,,30,,,,,,,,1055.1955163999228,1055.1955163999228,1055.1955163999228,1055.1955163999228,1055.1955163999228,left,1.5743726000655442,10,1,0,99,0.24,-0.4,left,1.4937972000334412,,,,,,,,,,,,,,,,,,,,,,,,,,,,,,,,,,,,,,,,,,,,,,,,,,,,,,,,,,,,H4FHKE,train_x,red_square,bottom_right,2025-09-05_13h08.59.897,HideSeek_v1,2022.2.5,60.448308859584195,
,9,0,5,0,-4,0,56,,train_dim1_1,29,30,,,,2,0,2,0,,,,,,,,,0,0,0,0,0,28,28,28,8,0,8,0,,,,,,,,,,,,,,,,,,,,,,,,,,,,,,,,,,,,,,,,,,,,,,,,,,,,,,,,,,,,,,,,30,,,,,,,,1056.7767199999653,1056.7767199999653,1056.7767199999653,1056.7767199999653,1056.7767199999653,return,1.5108030999545008,11,0,0,1,0.24,-0.4,return,1.427801699959673,5,-72,0.24,-0.4,,,,,,,,,,,,,,,,,,,,,,,,,,,,,,,,,,,,,,,,,,,,,,,,,,,,,,,,H4FHKE,train_x,red_square,bottom_right,2025-09-05_13h08.59.897,HideSeek_v1,2022.2.5,60.448308859584195,
,7,2,7,2,0,0,16,,train_dim1_1,30,30,,,,2,0,2,0,,,,,,,,,0,0,0,0,0,29,29,29,0,0,0,0,,,,,,,,,,,,,,,,,,,,,,,,,stimuli/alien_stimuli/16.png,,,,,,,,,,,,,,,,,,,,,,,,,,,,,stimuli/alien_stimuli/56.png,56,9,31,,,,,,,30,,,,,,,,1062.3567166998982,1062.3567166998982,1062.3567166998982,1062.3567166998982,1062.3567166998982,left,1.6729500000365078,11,0,0,99,0.32,-0.24,left,1.5765244000358507,,,,,1060.7810143999523,1062.3567166998982,0.24,-0.4,0.0,0.32,-0.4,0.24,0.4,0.24,-0.4,1059.8695483999327,1059.8695483999327,1059.8695483999327,1059.8695483999327,1059.8695483999327,1059.8695483999327,1059.8695483999327,1059.8695483999327,1059.8624766799621,1.0363930000457913,return,0.88963829993736,,,,,,,,,,,,,,,,,,,,,,,,,,,,,,,,,H4FHKE,train_x,red_square,bottom_right,2025-09-05_13h08.59.897,HideSeek_v1,2022.2.5,60.448308859584195,
,7,2,7,2,0,0,16,,train_dim1_1,30,30,,,,2,0,2,0,,,,,,,,,0,0,0,0,0,29,29,29,1,0,1,0,,,,,,,,,,,,,,,,,,,,,,,,,,,,,,,,,,,,,,,,,,,,,,,,,,,,,,,,,,,,,,,,30,,,,,,,,1064.0203656000085,1064.0203656000085,1064.0203656000085,1064.0203656000085,1064.0203656000085,return,0.24106150004081428,11,1,0,0,0.32,-0.24,return,0.1642954999115318,5,-73,0.32,-0.24,,,,,,,,,,,,,,,,,,,,,,,,,,,,,,,,,,,,,,,,,,,,,,,,,,,,,,,,H4FHKE,train_x,red_square,bottom_right,2025-09-05_13h08.59.897,HideSeek_v1,2022.2.5,60.448308859584195,
,,,,,,,,,,,30,,,,2,0,2,0,,,,,,,,,,,,,,,,,,,,,,,,,,,,,,,,,,,,,,,,,,,,,,,,,,,,,,,,,,,,,,,,,,,,,,,,,,stimuli/alien_stimuli/16.png,16,7,32,21,0.7,0.45833333333333337,1,1,1,30,0,conditions/schedules/train_x_first/red_square_00/bottom_right/inputTrain_2.1.xlsx,99,1,2,1,0,,,,,,,,,,,0,,,,,,,,,1067.4699198999442,1069.01283459994,0.4,-0.24,0.0,0.0,-0.24,0.4,0.4,0.4,-0.24,1065.8263893999392,1065.8263893999392,1065.8263893999392,1065.8263893999392,1065.8263893999392,1065.8263893999392,1065.8263893999392,1065.8263893999392,1065.8176174698747,1.7539030999178067,return,1.62201290007215,0,0.9,0,1,11,,,,,,,,,,,,,,,,,,,,,,,,,,,,H4FHKE,train_x,red_square,bottom_right,2025-09-05_13h08.59.897,HideSeek_v1,2022.2.5,60.448308859584195,
,,,,,,,,,,,,,,,3,0,3,0,0,0,0,0,,,,,,,,,,,,,,,,,,,,,,,,,,,,,,,conditions/schedules/train_x_first/red_square_00/bottom_right/instructions/Slide17.png,conditions/schedules/train_x_first/red_square_00/bottom_right/instructions/Audio17.wav,1069.01283459994,1069.0041903299862,17,"[2.706911899964325, 18.836655299994163, 16.567834199988283, 19.202439699904062, 3.785329300095327, 4.17002700001467, 4.782696700072847, 11.073284299927764, 5.132187599898316, 6.380542999948375, 9.010120599996299, 12.385686599998735, 17.06031279999297, 13.490295100025833, 30.875780700007454, 22.08613349997904, 63.608608600101434]","[2.706950300023891, 18.83666210004594, 0.03631140000652522, 0.00021700002253055573, 0.05071390001103282, 0.030545700108632445, 0.0637885999167338, 0.06435119989328086, 0.08103299990762025, 0.0861468999646604, 0.08127460000105202, 12.385693299933337, 0.03085470001678914, 13.490301799960434, 0.06962969992309809, 22.08613989991136, 63.608616000041366]",0,,,,,,,,,,,,,,,,,,,,,,,,,,,,,,,,,,,,,,,,,,,,,,,,,,,,,,,,,,,,,,,,,,,,,,,,,,,,,,,,,,,,,,,,,,,,,,,,,,,,,,,,,,,,,,,,,,,,,,,,,,,,H4FHKE,train_x,red_square,bottom_right,2025-09-05_13h08.59.897,HideSeek_v1,2022.2.5,60.448308859584195,
,,,,,,,,,,,,,,,3,0,3,0,1,0,1,0,,,,,,,,,,,,,,,,,,,,,,,,,,,,,,,conditions/schedules/train_x_first/red_square_00/bottom_right/instructions/Slide18.png,conditions/schedules/train_x_first/red_square_00/bottom_right/instructions/Audio18.wav,1132.7003202999476,1132.690149449918,18,"[2.706911899964325, 18.836655299994163, 16.567834199988283, 19.202439699904062, 3.785329300095327, 4.17002700001467, 4.782696700072847, 11.073284299927764, 5.132187599898316, 6.380542999948375, 9.010120599996299, 12.385686599998735, 17.06031279999297, 13.490295100025833, 30.875780700007454, 22.08613349997904, 63.608608600101434, 6.092793600051664]","[2.706950300023891, 18.83666210004594, 0.03631140000652522, 0.00021700002253055573, 0.05071390001103282, 0.030545700108632445, 0.0637885999167338, 0.06435119989328086, 0.08103299990762025, 0.0861468999646604, 0.08127460000105202, 12.385693299933337, 0.03085470001678914, 13.490301799960434, 0.06962969992309809, 22.08613989991136, 63.608616000041366, 6.092800099984743]",0,,,,,,,,,,,,,,,,,,,,,,,,,,,,,,,,,,,,,,,,,,,,,,,,,,,,,,,,,,,,,,,,,,,,,,,,,,,,,,,,,,,,,,,,,,,,,,,,,,,,,,,,,,,,,,,,,,,,,,,,,,,,H4FHKE,train_x,red_square,bottom_right,2025-09-05_13h08.59.897,HideSeek_v1,2022.2.5,60.448308859584195,
,,,,,,,,,,,,,,,3,0,3,0,2,0,2,0,,,,,,,,,,,,,,,,,,,,,,,,,,,,,,,conditions/schedules/train_x_first/red_square_00/bottom_right/instructions/Slide19.png,conditions/schedules/train_x_first/red_square_00/bottom_right/instructions/Audio19.wav,1138.8340244999854,1138.8286566299503,19,"[2.706911899964325, 18.836655299994163, 16.567834199988283, 19.202439699904062, 3.785329300095327, 4.17002700001467, 4.782696700072847, 11.073284299927764, 5.132187599898316, 6.380542999948375, 9.010120599996299, 12.385686599998735, 17.06031279999297, 13.490295100025833, 30.875780700007454, 22.08613349997904, 63.608608600101434, 6.092793600051664, 10.968500000075437]","[2.706950300023891, 18.83666210004594, 0.03631140000652522, 0.00021700002253055573, 0.05071390001103282, 0.030545700108632445, 0.0637885999167338, 0.06435119989328086, 0.08103299990762025, 0.0861468999646604, 0.08127460000105202, 12.385693299933337, 0.03085470001678914, 13.490301799960434, 0.06962969992309809, 22.08613989991136, 63.608616000041366, 0.04802530002780259, 10.968506900011562]",0,,,,,,,,,,,,,,,,,,,,,,,,,,,,,,,,,,,,,,,,,,,,,,,,,,,,,,,,,,,,,,,,,,,,,,,,,,,,,,,,,,,,,,,,,,,,,,,,,,,,,,,,,,,,,,,,,,,,,,,,,,,,H4FHKE,train_x,red_square,bottom_right,2025-09-05_13h08.59.897,HideSeek_v1,2022.2.5,60.448308859584195,
