trialInstr,x_fixStart,y_fixStart,x_corrSteps,y_corrSteps,x_nrSteps,y_nrSteps,alienID,trialLength,version,trialTrain,praclen,testlen,trial_label,break_on_off,beforeExpLoop.thisRepN,beforeExpLoop.thisTrialN,beforeExpLoop.thisN,beforeExpLoop.thisIndex,mini_instr_trials.thisRepN,mini_instr_trials.thisTrialN,mini_instr_trials.thisN,mini_instr_trials.thisIndex,instrLoop.thisRepN,instrLoop.thisTrialN,instrLoop.thisN,instrLoop.thisIndex,repeat_prac.thisRepN,repeat_prac.thisTrialN,repeat_prac.thisN,repeat_prac.thisIndex,trainLoop.thisRepN,trainLoop.thisTrialN,trainLoop.thisN,trainLoop.thisIndex,moveLoop_train.thisRepN,moveLoop_train.thisTrialN,moveLoop_train.thisN,moveLoop_train.thisIndex,experiment.thisRepN,experiment.thisTrialN,experiment.thisN,experiment.thisIndex,moveLoop_test.thisRepN,moveLoop_test.thisTrialN,moveLoop_test.thisN,moveLoop_test.thisIndex,mini_instr2_trials.thisRepN,mini_instr2_trials.thisTrialN,mini_instr2_trials.thisN,mini_instr2_trials.thisIndex,start_all_time,url,slideStim,audioStim,slides.started,sounds.started,nextButton.numClicks,nextButton.timesOn,nextButton.timesOff,prev_but.numClicks,prev_but.timesOn,prev_but.timesOff,alienStim,instrFile,alienStim_instr,gridImage_instr.started,startPos_3.started,key_instr.started,alienImage_3.started,sounds_1.started,key_instr.keys,key_instr.rt,all_x,all_y,FBy_corrSteps,FBy_fixStart,FBx_corrSteps,FBx_fixStart,FBy_pathSize_check,FBx_pathSize_check,gridImage_9.started,alienImageFB_3.started,startPosFB_3.started,keyFB_3.started,pathLine_ydir_2.started,pathLine_xdir_2.started,alienFace_3.started,sounds_2.started,RTFB_instr,keyFB_3.keys,keyFB_3.rt,draw_alienStim,draw_alienID,test_x,nrepcount,perfthres,percthres,earlierperf,earlystop,nextPrac,fileidx,praclen,saveACC_train,pracFile,nextPrac_train,addNrep,fileidx_endr,repExp,showearly,gridImage_4.started,startPos.started,movePos.started,key_resp.started,alienImage.started,wLy_dir,wLx_dir,x_movePos,y_movePos,buttonPress_train,RTchoice_train,cumAcctrain,aCorr,saveACC_choice,corrAns,x_movePos_end,y_movePos_end,key_resp.keys,key_resp.rt,text_2.started,text_2.stopped,aft_x_corrPos,aft_y_corrPos,y_pathSize_check,x_pathSize_check,y_pathdirY,x_pathdirY,x_pathdirX,x_corrPos,y_corrPos,gridImage_6.started,alienImageFB_2.started,startPosFB_2.started,movePosFB_2.started,keyFB_2.started,pathLine_xdir.started,pathLine_ydir.started,alienFace.started,sounds_4.started,RT_FBtrain,keyFB_2.keys,keyFB_2.rt,saveACC_pre,ACC,within_saveACC_train,earlystop_wloop,cumAcctrain_check,gridImage_3.started,alienImage_test.started,startPos_test.started,movePos_test.started,key_resp_test.started,wLy_dir_test,wLx_dir_test,buttonPress_test,RTchoice_test,cumAcctest,corrAns_test,key_resp_test.keys,key_resp_test.rt,text_3.started,text_3.stopped,total_time,end_all_time,key_resp_3.keys,slides_2.started,sounds_3.started,nextButton_2.numClicks,nextButton_2.timesOn,nextButton_2.timesOff,prev_but_2.numClicks,prev_but_2.timesOn,prev_but_2.timesOff,bye.started,participant,train_first,00_coordinate,starting corner,date,expName,psychopyVersion,frameRate,
,,,,,,,,,,,,,,,0,0,0,0,0,0,0,0,,,,,,,,,,,,,,,,,,,,,,,,,,,,,start_all_time,testround,conditions/schedules/train_y_first/red_square_00/bottom_left/instructions/Slide1.png,conditions/schedules/train_y_first/red_square_00/bottom_left/instructions/Audio1.wav,70.82710700000007,70.77506356998738,1,[5.005765500000052],[5.005772099999376],0,,,,,,,,,,,,,,,,,,,,,,,,,,,,,,,,,,,,,,,,,,,,,,,,,,,,,,,,,,,,,,,,,,,,,,,,,,,,,,,,,,,,,,,,,,,,,,,,,,,,,,,,,,,,,,,,,,,,,,,,,,,,HCV5VL,train_y,red_square,bottom_left,2025-01-22_15h03.18.742,HideSeek_v1,2022.2.5,59.98080614230113,
,,,,,,,,,,,,,,,0,0,0,0,1,0,1,0,,,,,,,,,,,,,,,,,,,,,,,,,,,,,,,conditions/schedules/train_y_first/red_square_00/bottom_left/instructions/Slide2.png,conditions/schedules/train_y_first/red_square_00/bottom_left/instructions/Audio2.wav,75.8507666000005,75.83833338000004,2,"[5.005765500000052, 18.700582100000247]","[0.00027850000060425373, 18.70058969999991]",0,,,,,,,,,,,,,,,,,,,,,,,,,,,,,,,,,,,,,,,,,,,,,,,,,,,,,,,,,,,,,,,,,,,,,,,,,,,,,,,,,,,,,,,,,,,,,,,,,,,,,,,,,,,,,,,,,,,,,,,,,,,,HCV5VL,train_y,red_square,bottom_left,2025-01-22_15h03.18.742,HideSeek_v1,2022.2.5,59.98080614230113,
,,,,,,,,,,,,,,,0,0,0,0,2,0,2,0,,,,,,,,,,,,,,,,,,,,,,,,,,,,,,,conditions/schedules/train_y_first/red_square_00/bottom_left/instructions/Slide3.png,conditions/schedules/train_y_first/red_square_00/bottom_left/instructions/Audio3.wav,94.62932940000064,94.61984774999974,3,"[5.005765500000052, 18.700582100000247, 336.61873639999976]","[0.00027850000060425373, 0.0002162000000680564, 336.6187437999997]",0,,,,,,,,,,,,,,,,,,,,,,,,,,,,,,,,,,,,,,,,,,,,,,,,,,,,,,,,,,,,,,,,,,,,,,,,,,,,,,,,,,,,,,,,,,,,,,,,,,,,,,,,,,,,,,,,,,,,,,,,,,,,HCV5VL,train_y,red_square,bottom_left,2025-01-22_15h03.18.742,HideSeek_v1,2022.2.5,59.98080614230113,
,,,,,,,,,,,,,,,0,0,0,0,3,0,3,0,,,,,,,,,,,,,,,,,,,,,,,,,,,,,,,conditions/schedules/train_y_first/red_square_00/bottom_left/instructions/Slide4.png,conditions/schedules/train_y_first/red_square_00/bottom_left/instructions/Audio4.wav,431.32947969999987,431.33214651999987,4,"[5.005765500000052, 18.700582100000247, 336.61873639999976, 20.000608499999544]","[0.00027850000060425373, 0.0002162000000680564, 0.0002040999997916515, 20.000615399999333]",0,,,,,,,,,,,,,,,,,,,,,,,,,,,,,,,,,,,,,,,,,,,,,,,,,,,,,,,,,,,,,,,,,,,,,,,,,,,,,,,,,,,,,,,,,,,,,,,,,,,,,,,,,,,,,,,,,,,,,,,,,,,,HCV5VL,train_y,red_square,bottom_left,2025-01-22_15h03.18.742,HideSeek_v1,2022.2.5,59.98080614230113,
,,,,,,,,,,,,,,,0,0,0,0,4,0,4,0,,,,,,,,,,,,,,,,,,,,,,,,,,,,,,,conditions/schedules/train_y_first/red_square_00/bottom_left/instructions/Slide5.png,conditions/schedules/train_y_first/red_square_00/bottom_left/instructions/Audio5.wav,451.39506249999977,451.38258688000025,5,"[5.005765500000052, 18.700582100000247, 336.61873639999976, 20.000608499999544, 7.00759139999991]","[0.00027850000060425373, 0.0002162000000680564, 0.0002040999997916515, 20.000615399999333, 7.007598000000144]",0,,,,,,,,,,,,,,,,,,,,,,,,,,,,,,,,,,,,,,,,,,,,,,,,,,,,,,,,,,,,,,,,,,,,,,,,,,,,,,,,,,,,,,,,,,,,,,,,,,,,,,,,,,,,,,,,,,,,,,,,,,,,HCV5VL,train_y,red_square,bottom_left,2025-01-22_15h03.18.742,HideSeek_v1,2022.2.5,59.98080614230113,
,,,,,,,,,,,,,,,0,0,0,0,5,0,5,0,,,,,,,,,,,,,,,,,,,,,,,,,,,,,,,conditions/schedules/train_y_first/red_square_00/bottom_left/instructions/Slide6.png,conditions/schedules/train_y_first/red_square_00/bottom_left/instructions/Audio6.wav,458.4528414000006,458.4551173799999,6,"[5.005765500000052, 18.700582100000247, 336.61873639999976, 20.000608499999544, 7.00759139999991, 4.720242099999268]","[0.00027850000060425373, 0.0002162000000680564, 0.0002040999997916515, 20.000615399999333, 0.014062799999919662, 4.720248899999206]",0,,,,,,,,,,,,,,,,,,,,,,,,,,,,,,,,,,,,,,,,,,,,,,,,,,,,,,,,,,,,,,,,,,,,,,,,,,,,,,,,,,,,,,,,,,,,,,,,,,,,,,,,,,,,,,,,,,,,,,,,,,,,HCV5VL,train_y,red_square,bottom_left,2025-01-22_15h03.18.742,HideSeek_v1,2022.2.5,59.98080614230113,
,,,,,,,,,,,,,,,0,0,0,0,6,0,6,0,,,,,,,,,,,,,,,,,,,,,,,,,,,,,,,conditions/schedules/train_y_first/red_square_00/bottom_left/instructions/Slide7.png,conditions/schedules/train_y_first/red_square_00/bottom_left/instructions/Audio7.wav,463.22389960000055,463.22577408000035,7,"[5.005765500000052, 18.700582100000247, 336.61873639999976, 20.000608499999544, 7.00759139999991, 4.720242099999268, 5.770436799999516]","[0.00027850000060425373, 0.0002162000000680564, 0.0002040999997916515, 20.000615399999333, 0.014062799999919662, 0.04954619999989518, 5.770443599999453]",0,,,,,,,,,,,,,,,,,,,,,,,,,,,,,,,,,,,,,,,,,,,,,,,,,,,,,,,,,,,,,,,,,,,,,,,,,,,,,,,,,,,,,,,,,,,,,,,,,,,,,,,,,,,,,,,,,,,,,,,,,,,,HCV5VL,train_y,red_square,bottom_left,2025-01-22_15h03.18.742,HideSeek_v1,2022.2.5,59.98080614230113,
,,,,,,,,,,,,,,,0,0,0,0,7,0,7,0,,,,,,,,,,,,,,,,,,,,,,,,,,,,,,,conditions/schedules/train_y_first/red_square_00/bottom_left/instructions/Slide8.png,conditions/schedules/train_y_first/red_square_00/bottom_left/instructions/Audio8.wav,469.0468324000003,469.04706187999983,8,"[5.005765500000052, 18.700582100000247, 336.61873639999976, 20.000608499999544, 7.00759139999991, 4.720242099999268, 5.770436799999516, 11.773994500000299]","[0.00027850000060425373, 0.0002162000000680564, 0.0002040999997916515, 20.000615399999333, 0.014062799999919662, 0.04954619999989518, 0.0002096999996865634, 11.774000999999771]",0,,,,,,,,,,,,,,,,,,,,,,,,,,,,,,,,,,,,,,,,,,,,,,,,,,,,,,,,,,,,,,,,,,,,,,,,,,,,,,,,,,,,,,,,,,,,,,,,,,,,,,,,,,,,,,,,,,,,,,,,,,,,HCV5VL,train_y,red_square,bottom_left,2025-01-22_15h03.18.742,HideSeek_v1,2022.2.5,59.98080614230113,
,,,,,,,,,,,,,,,0,0,0,0,8,0,8,0,,,,,,,,,,,,,,,,,,,,,,,,,,,,,,,conditions/schedules/train_y_first/red_square_00/bottom_left/instructions/Slide9.png,conditions/schedules/train_y_first/red_square_00/bottom_left/instructions/Audio9.wav,480.88576420000027,480.8739200799999,9,"[5.005765500000052, 18.700582100000247, 336.61873639999976, 20.000608499999544, 7.00759139999991, 4.720242099999268, 5.770436799999516, 11.773994500000299, 6.405490500000269]","[0.00027850000060425373, 0.0002162000000680564, 0.0002040999997916515, 20.000615399999333, 0.014062799999919662, 0.04954619999989518, 0.0002096999996865634, 0.013020100000176171, 6.405498099999932]",0,,,,,,,,,,,,,,,,,,,,,,,,,,,,,,,,,,,,,,,,,,,,,,,,,,,,,,,,,,,,,,,,,,,,,,,,,,,,,,,,,,,,,,,,,,,,,,,,,,,,,,,,,,,,,,,,,,,,,,,,,,,,HCV5VL,train_y,red_square,bottom_left,2025-01-22_15h03.18.742,HideSeek_v1,2022.2.5,59.98080614230113,
,,,,,,,,,,,,,,,0,0,0,0,9,0,9,0,,,,,,,,,,,,,,,,,,,,,,,,,,,,,,,conditions/schedules/train_y_first/red_square_00/bottom_left/instructions/Slide10.png,conditions/schedules/train_y_first/red_square_00/bottom_left/instructions/Audio10.wav,487.34439830000065,487.3450137799999,10,"[5.005765500000052, 18.700582100000247, 336.61873639999976, 20.000608499999544, 7.00759139999991, 4.720242099999268, 5.770436799999516, 11.773994500000299, 6.405490500000269, 7.103661299999658]","[0.00027850000060425373, 0.0002162000000680564, 0.0002040999997916515, 20.000615399999333, 0.014062799999919662, 0.04954619999989518, 0.0002096999996865634, 0.013020100000176171, 0.03060300000015559, 7.1036684000000605]",0,,,,,,,,,,,,,,,,,,,,,,,,,,,,,,,,,,,,,,,,,,,,,,,,,,,,,,,,,,,,,,,,,,,,,,,,,,,,,,,,,,,,,,,,,,,,,,,,,,,,,,,,,,,,,,,,,,,,,,,,,,,,HCV5VL,train_y,red_square,bottom_left,2025-01-22_15h03.18.742,HideSeek_v1,2022.2.5,59.98080614230113,
,,,,,,,,,,,,,,,0,0,0,0,10,0,10,0,,,,,,,,,,,,,,,,,,,,,,,,,,,,,,,conditions/schedules/train_y_first/red_square_00/bottom_left/instructions/Slide11.png,conditions/schedules/train_y_first/red_square_00/bottom_left/instructions/Audio11.wav,494.4858562999998,494.4846614099998,11,"[5.005765500000052, 18.700582100000247, 336.61873639999976, 20.000608499999544, 7.00759139999991, 4.720242099999268, 5.770436799999516, 11.773994500000299, 6.405490500000269, 7.103661299999658, 10.221095599999899]","[0.00027850000060425373, 0.0002162000000680564, 0.0002040999997916515, 20.000615399999333, 0.014062799999919662, 0.04954619999989518, 0.0002096999996865634, 0.013020100000176171, 0.03060300000015559, 0.07930420000047889, 10.221103900000344]",0,,,,,,,,,,,,,,,,,,,,,,,,,,,,,,,,,,,,,,,,,,,,,,,,,,,,,,,,,,,,,,,,,,,,,,,,,,,,,,,,,,,,,,,,,,,,,,,,,,,,,,,,,,,,,,,,,,,,,,,,,,,,HCV5VL,train_y,red_square,bottom_left,2025-01-22_15h03.18.742,HideSeek_v1,2022.2.5,59.98080614230113,
,,,,,,,,,,,,,,,0,0,0,0,11,0,11,0,,,,,,,,,,,,,,,,,,,,,,,,,,,,,,,conditions/schedules/train_y_first/red_square_00/bottom_left/instructions/Slide12.png,conditions/schedules/train_y_first/red_square_00/bottom_left/instructions/Audio12.wav,504.77564580000035,504.7765358499996,12,"[5.005765500000052, 18.700582100000247, 336.61873639999976, 20.000608499999544, 7.00759139999991, 4.720242099999268, 5.770436799999516, 11.773994500000299, 6.405490500000269, 7.103661299999658, 10.221095599999899, 14.0596544]","[0.00027850000060425373, 0.0002162000000680564, 0.0002040999997916515, 20.000615399999333, 0.014062799999919662, 0.04954619999989518, 0.0002096999996865634, 0.013020100000176171, 0.03060300000015559, 0.07930420000047889, 0.00022639999951934442, 14.059661700000106]",0,,,,,,,,,,,,,,,,,,,,,,,,,,,,,,,,,,,,,,,,,,,,,,,,,,,,,,,,,,,,,,,,,,,,,,,,,,,,,,,,,,,,,,,,,,,,,,,,,,,,,,,,,,,,,,,,,,,,,,,,,,,,HCV5VL,train_y,red_square,bottom_left,2025-01-22_15h03.18.742,HideSeek_v1,2022.2.5,59.98080614230113,
1,2,3,2,8,0,5,11,2,instr_dim1_1,,,,,,0,0,0,0,,,,,0,0,0,0,,,,,,,,,,,,,,,,,,,,,,,,,,,,,,,,,,,,,stimuli/alien_stimuli/11.png,conditions/schedules/train_y_first/red_square_00/bottom_left/inputInstr_1.xlsx,stimuli/alien_stimuli/11.png,518.9362643000004,518.9362643000004,518.9362643000004,518.9362643000004,518.9383606900001,return,11.090878699998939,"[-0.16, -0.08, 0, 0.08, 0.16, 0.24, 0.32, 0.4, 0.48, 0.56]","[-0.4, -0.32, -0.24, -0.16, -0.08, 0, 0.08, 0.16, 0.24, 0.32]",8,3,2,2,0.4,0.0,530.1835434000004,530.1835434000004,530.1835434000004,530.1835434000004,530.1835434000004,530.1835434000004,530.1835434000004,530.18123813,8.357201700000587,return,8.194534199998998,stimuli/alien_stimuli/11.png,11,2,1,,,,,,,,,,,,,,,,,,,,,,,,,,,,,,,,,,,,,,,,,,,,,,,,,,,,,,,,,,,,,,,,,,,,,,,,,,,,,,,,,,,,,,,,,HCV5VL,train_y,red_square,bottom_left,2025-01-22_15h03.18.742,HideSeek_v1,2022.2.5,59.98080614230113,
,,,,,,,,,,,30,,,,0,0,0,0,,,,,,,,,,,,,,,,,,,,,,,,,,,,,,,,,,,,,,,,,,,,,,,,,,,,,,,,,,,,,,,,,,,,,,,,,,,,,,21,0.7,0,0,99,1,30,0,conditions/schedules/train_y_first/red_square_00/bottom_left/inputTrain_1.1.xlsx,99,1,1,1,0,,,,,,,,,,,,,,,,,,,,,,,,,,,,,,,,,,,,,,,,,,,,,,,,,,,,,,,,,,,,,,,,,,,,,,,,,,,HCV5VL,train_y,red_square,bottom_left,2025-01-22_15h03.18.742,HideSeek_v1,2022.2.5,59.98080614230113,
,,,,,,,,,,,,,,,1,0,1,0,0,0,0,0,,,,,,,,,,,,,,,,,,,,,,,,,,,,,,,conditions/schedules/train_y_first/red_square_00/bottom_left/instructions/Slide13.png,conditions/schedules/train_y_first/red_square_00/bottom_left/instructions/Audio13.wav,538.5354372000002,538.5380099299995,13,"[5.005765500000052, 18.700582100000247, 336.61873639999976, 20.000608499999544, 7.00759139999991, 4.720242099999268, 5.770436799999516, 11.773994500000299, 6.405490500000269, 7.103661299999658, 10.221095599999899, 14.0596544, 17.430883699999868]","[0.00027850000060425373, 0.0002162000000680564, 0.0002040999997916515, 20.000615399999333, 0.014062799999919662, 0.04954619999989518, 0.0002096999996865634, 0.013020100000176171, 0.03060300000015559, 0.07930420000047889, 0.00022639999951934442, 14.059661700000106, 17.430890999999974]",0,,,,,,,,,,,,,,,,,,,,,,,,,,,,,,,,,,,,,,,,,,,,,,,,,,,,,,,,,,,,,,,,,,,,,,,,,,,,,,,,,,,,,,,,,,,,,,,,,,,,,,,,,,,,,,,,,,,,,,,,,,,,HCV5VL,train_y,red_square,bottom_left,2025-01-22_15h03.18.742,HideSeek_v1,2022.2.5,59.98080614230113,
,,,,,,,,,,,,,,,1,0,1,0,1,0,1,0,,,,,,,,,,,,,,,,,,,,,,,,,,,,,,,conditions/schedules/train_y_first/red_square_00/bottom_left/instructions/Slide14.png,conditions/schedules/train_y_first/red_square_00/bottom_left/instructions/Audio14.wav,556.0380083,556.0357501499998,14,"[5.005765500000052, 18.700582100000247, 336.61873639999976, 20.000608499999544, 7.00759139999991, 4.720242099999268, 5.770436799999516, 11.773994500000299, 6.405490500000269, 7.103661299999658, 10.221095599999899, 14.0596544, 17.430883699999868, 16.409039400000438]","[0.00027850000060425373, 0.0002162000000680564, 0.0002040999997916515, 20.000615399999333, 0.014062799999919662, 0.04954619999989518, 0.0002096999996865634, 0.013020100000176171, 0.03060300000015559, 0.07930420000047889, 0.00022639999951934442, 14.059661700000106, 0.03052430000025197, 16.40905010000006]",0,,,,,,,,,,,,,,,,,,,,,,,,,,,,,,,,,,,,,,,,,,,,,,,,,,,,,,,,,,,,,,,,,,,,,,,,,,,,,,,,,,,,,,,,,,,,,,,,,,,,,,,,,,,,,,,,,,,,,,,,,,,,HCV5VL,train_y,red_square,bottom_left,2025-01-22_15h03.18.742,HideSeek_v1,2022.2.5,59.98080614230113,
2,0,3,0,3,0,0,16,2,instr_dim1_1,,,,,,1,0,1,0,,,,,0,0,0,0,,,,,,,,,,,,,,,,,,,,,,,,,,,,,,,,,,,,,stimuli/alien_stimuli/16.png,conditions/schedules/train_y_first/red_square_00/bottom_left/inputInstr_1.xlsx,stimuli/alien_stimuli/16.png,572.5466655,572.5466655,572.5466655,572.5466655,572.5494231900002,return,6.728027699999075,"[-0.16, -0.08, 0, 0.08, 0.16, 0.24, 0.32, 0.4, 0.48, 0.56]","[-0.4, -0.32, -0.24, -0.16, -0.08, 0, 0.08, 0.16, 0.24, 0.32]",3,3,0,0,0.0,0.0,579.4462964000004,579.4462964000004,579.4462964000004,579.4462964000004,579.4462964000004,579.4462964000004,579.4462964000004,579.4384130299999,7.674183200000698,return,7.502914299999247,stimuli/alien_stimuli/16.png,16,0,2,,,,,,,,,,,,,,,,,,,,,,,,,,,,,,,,,,,,,,,,,,,,,,,,,,,,,,,,,,,,,,,,,,,,,,,,,,,,,,,,,,,,,,,,,HCV5VL,train_y,red_square,bottom_left,2025-01-22_15h03.18.742,HideSeek_v1,2022.2.5,59.98080614230113,
,,,,,,,,,,,30,,,,1,0,1,0,,,,,,,,,,,,,,,,,,,,,,,,,,,,,,,,,,,,,,,,,,,,,,,,,,,,,,,,,,,,,,,,,,,,,,,,,,,,,,21,0.7,0,0,99,1,30,0,conditions/schedules/train_y_first/red_square_00/bottom_left/inputTrain_1.1.xlsx,99,1,1,1,0,,,,,,,,,,,,,,,,,,,,,,,,,,,,,,,,,,,,,,,,,,,,,,,,,,,,,,,,,,,,,,,,,,,,,,,,,,,HCV5VL,train_y,red_square,bottom_left,2025-01-22_15h03.18.742,HideSeek_v1,2022.2.5,59.98080614230113,
,,,,,,,,,,,,,,,2,0,2,0,0,0,0,0,,,,,,,,,,,,,,,,,,,,,,,,,,,,,,,conditions/schedules/train_y_first/red_square_00/bottom_left/instructions/Slide15.png,conditions/schedules/train_y_first/red_square_00/bottom_left/instructions/Audio15.wav,587.1131974,587.1115717300003,15,"[5.005765500000052, 18.700582100000247, 336.61873639999976, 20.000608499999544, 7.00759139999991, 4.720242099999268, 5.770436799999516, 11.773994500000299, 6.405490500000269, 7.103661299999658, 10.221095599999899, 14.0596544, 17.430883699999868, 16.409039400000438, 43.23157960000026]","[0.00027850000060425373, 0.0002162000000680564, 0.0002040999997916515, 20.000615399999333, 0.014062799999919662, 0.04954619999989518, 0.0002096999996865634, 0.013020100000176171, 0.03060300000015559, 0.07930420000047889, 0.00022639999951934442, 14.059661700000106, 0.03052430000025197, 16.40905010000006, 43.231586900000366]",0,,,,,,,,,,,,,,,,,,,,,,,,,,,,,,,,,,,,,,,,,,,,,,,,,,,,,,,,,,,,,,,,,,,,,,,,,,,,,,,,,,,,,,,,,,,,,,,,,,,,,,,,,,,,,,,,,,,,,,,,,,,,HCV5VL,train_y,red_square,bottom_left,2025-01-22_15h03.18.742,HideSeek_v1,2022.2.5,59.98080614230113,
,,,,,,,,,,,,,,,2,0,2,0,1,0,1,0,,,,,,,,,,,,,,,,,,,,,,,,,,,,,,,conditions/schedules/train_y_first/red_square_00/bottom_left/instructions/Slide16.png,conditions/schedules/train_y_first/red_square_00/bottom_left/instructions/Audio16.wav,630.4138825,630.4142384499996,16,"[5.005765500000052, 18.700582100000247, 336.61873639999976, 20.000608499999544, 7.00759139999991, 4.720242099999268, 5.770436799999516, 11.773994500000299, 6.405490500000269, 7.103661299999658, 10.221095599999899, 14.0596544, 17.430883699999868, 16.409039400000438, 43.23157960000026, 22.933456700000534]","[0.00027850000060425373, 0.0002162000000680564, 0.0002040999997916515, 20.000615399999333, 0.014062799999919662, 0.04954619999989518, 0.0002096999996865634, 0.013020100000176171, 0.03060300000015559, 0.07930420000047889, 0.00022639999951934442, 14.059661700000106, 0.03052430000025197, 16.40905010000006, 0.013879600000109349, 22.933463600000323]",0,,,,,,,,,,,,,,,,,,,,,,,,,,,,,,,,,,,,,,,,,,,,,,,,,,,,,,,,,,,,,,,,,,,,,,,,,,,,,,,,,,,,,,,,,,,,,,,,,,,,,,,,,,,,,,,,,,,,,,,,,,,,HCV5VL,train_y,red_square,bottom_left,2025-01-22_15h03.18.742,HideSeek_v1,2022.2.5,59.98080614230113,
,0,0,0,1,0,1,15,,train_dim1_1,1,30,,,,2,0,2,0,,,,,,,,,0,0,0,0,0,0,0,0,0,0,0,0,,,,,,,,,,,,,,,,,,,,,,,,,stimuli/alien_stimuli/15.png,,,,,,,,,,,,,,,,,,,,,,,,,,,,,,,,,,,,,,,30,,,,,,,,653.4505361000001,653.4505361000001,653.4505361000001,653.4505361000001,653.4505361000001,0,0,-0.16,-0.4,return,5.916758899999877,0,1,0,0,-0.16,-0.4,return,5.8097429999997985,,,,,,,,,,,,,,,,,,,,,,,,,,,,,,,,,,,,,,,,,,,,,,,,,,,,,,,,HCV5VL,train_y,red_square,bottom_left,2025-01-22_15h03.18.742,HideSeek_v1,2022.2.5,59.98080614230113,
,3,2,3,2,0,0,16,,train_dim1_1,2,30,,,,2,0,2,0,,,,,,,,,0,0,0,0,0,1,1,1,0,0,0,0,,,,,,,,,,,,,,,,,,,,,,,,,stimuli/alien_stimuli/16.png,,,,,,,,,,,,,,,,,,,,,,,,,,,,,stimuli/alien_stimuli/15.png,15,0,3,,,,,,,30,,,,,,,,686.2011910000001,686.2011910000001,686.2011910000001,686.2011910000001,686.2011910000001,,,,,up,4.358113100000082,0,1,0,99,0.08,-0.15999999999999998,up,4.246830299998692,684.6254403000003,686.2011910000001,-0.16,-0.32,0.08,0.0,-0.36,-0.16,-0.16,-0.16,-0.32,660.9275838000003,660.9275838000003,660.9275838000003,660.9275838000003,660.9275838000003,660.9275838000003,660.9275838000003,660.9275838000003,660.9227548599998,23.821865800000523,return,23.67174679999971,,,,,,,,,,,,,,,,,,,,,,,,,,,,,,,,,HCV5VL,train_y,red_square,bottom_left,2025-01-22_15h03.18.742,HideSeek_v1,2022.2.5,59.98080614230113,
,3,2,3,2,0,0,16,,train_dim1_1,2,30,,,,2,0,2,0,,,,,,,,,0,0,0,0,0,1,1,1,1,0,1,0,,,,,,,,,,,,,,,,,,,,,,,,,,,,,,,,,,,,,,,,,,,,,,,,,,,,,,,,,,,,,,,,30,,,,,,,,690.5481312000002,690.5481312000002,690.5481312000002,690.5481312000002,690.5481312000002,1,0,0.08,-0.15999999999999998,return,1.8439359000003606,0,1,0,0,0.08,-0.15999999999999998,return,1.7630970000000161,,,,,,,,,,,,,,,,,,,,,,,,,,,,,,,,,,,,,,,,,,,,,,,,,,,,,,,,HCV5VL,train_y,red_square,bottom_left,2025-01-22_15h03.18.742,HideSeek_v1,2022.2.5,59.98080614230113,
,2,3,2,6,0,3,13,,train_dim1_1,3,30,,,,2,0,2,0,,,,,,,,,0,0,0,0,0,2,2,2,0,0,0,0,,,,,,,,,,,,,,,,,,,,,,,,,stimuli/alien_stimuli/13.png,,,,,,,,,,,,,,,,,,,,,,,,,,,,,stimuli/alien_stimuli/16.png,16,3,4,,,,,,,30,,,,,,,,702.7645788999998,702.7645788999998,702.7645788999998,702.7645788999998,702.7645788999998,,,,,up,4.907140000000254,0,1,0,99,0,-0.08,up,4.823651799999425,701.2059946999998,702.7645788999998,0.08,-0.24,0.0,0.0,-0.24,0.08,0.08,0.08,-0.24,693.9549843000004,693.9549843000004,693.9549843000004,693.9549843000004,693.9549843000004,693.9549843000004,693.9549843000004,693.9549843000004,693.9500654900003,7.358238099999653,return,7.233342899999116,,,,,,,,,,,,,,,,,,,,,,,,,,,,,,,,,HCV5VL,train_y,red_square,bottom_left,2025-01-22_15h03.18.742,HideSeek_v1,2022.2.5,59.98080614230113,
,2,3,2,6,0,3,13,,train_dim1_1,3,30,,,,2,0,2,0,,,,,,,,,0,0,0,0,0,2,2,2,1,0,1,0,,,,,,,,,,,,,,,,,,,,,,,,,,,,,,,,,,,,,,,,,,,,,,,,,,,,,,,,,,,,,,,,30,,,,,,,,707.6790747000005,707.6790747000005,707.6790747000005,707.6790747000005,707.6790747000005,,,,,up,0.6599228999994011,0,1,0,99,0,0.0,up,0.5746867999996539,,,,,,,,,,,,,,,,,,,,,,,,,,,,,,,,,,,,,,,,,,,,,,,,,,,,,,,,HCV5VL,train_y,red_square,bottom_left,2025-01-22_15h03.18.742,HideSeek_v1,2022.2.5,59.98080614230113,
,2,3,2,6,0,3,13,,train_dim1_1,3,30,,,,2,0,2,0,,,,,,,,,0,0,0,0,0,2,2,2,2,0,2,0,,,,,,,,,,,,,,,,,,,,,,,,,,,,,,,,,,,,,,,,,,,,,,,,,,,,,,,,,,,,,,,,30,,,,,,,,708.3446689000002,708.3446689000002,708.3446689000002,708.3446689000002,708.3446689000002,,,,,up,0.7434257999993861,0,1,0,99,0,0.08,up,0.6627217999994173,,,,,,,,,,,,,,,,,,,,,,,,,,,,,,,,,,,,,,,,,,,,,,,,,,,,,,,,HCV5VL,train_y,red_square,bottom_left,2025-01-22_15h03.18.742,HideSeek_v1,2022.2.5,59.98080614230113,
,2,3,2,6,0,3,13,,train_dim1_1,3,30,,,,2,0,2,0,,,,,,,,,0,0,0,0,0,2,2,2,3,0,3,0,,,,,,,,,,,,,,,,,,,,,,,,,,,,,,,,,,,,,,,,,,,,,,,,,,,,,,,,,,,,,,,,30,,,,,,,,709.0951750000004,709.0951750000004,709.0951750000004,709.0951750000004,709.0951750000004,,,,,up,0.7104968999992707,0,1,0,99,0,0.16,up,0.6199330999997983,,,,,,,,,,,,,,,,,,,,,,,,,,,,,,,,,,,,,,,,,,,,,,,,,,,,,,,,HCV5VL,train_y,red_square,bottom_left,2025-01-22_15h03.18.742,HideSeek_v1,2022.2.5,59.98080614230113,
,2,3,2,6,0,3,13,,train_dim1_1,3,30,,,,2,0,2,0,,,,,,,,,0,0,0,0,0,2,2,2,4,0,4,0,,,,,,,,,,,,,,,,,,,,,,,,,,,,,,,,,,,,,,,,,,,,,,,,,,,,,,,,,,,,,,,,30,,,,,,,,709.8123924000001,709.8123924000001,709.8123924000001,709.8123924000001,709.8123924000001,,,,,up,0.7269971000005171,0,1,0,99,0,0.24,up,0.6463048999994498,,,,,,,,,,,,,,,,,,,,,,,,,,,,,,,,,,,,,,,,,,,,,,,,,,,,,,,,HCV5VL,train_y,red_square,bottom_left,2025-01-22_15h03.18.742,HideSeek_v1,2022.2.5,59.98080614230113,
,2,3,2,6,0,3,13,,train_dim1_1,3,30,,,,2,0,2,0,,,,,,,,,0,0,0,0,0,2,2,2,5,0,5,0,,,,,,,,,,,,,,,,,,,,,,,,,,,,,,,,,,,,,,,,,,,,,,,,,,,,,,,,,,,,,,,,30,,,,,,,,710.5463713999998,710.5463713999998,710.5463713999998,710.5463713999998,710.5463713999998,6,0,0,0.24,return,1.3445151999994778,0,0,0,0,0,0.24,return,1.2621747999992294,,,,,,,,,,,,,,,,,,,,,,,,,,,,,,,,,,,,,,,,,,,,,,,,,,,,,,,,HCV5VL,train_y,red_square,bottom_left,2025-01-22_15h03.18.742,HideSeek_v1,2022.2.5,59.98080614230113,
,0,1,0,5,0,4,12,,train_dim1_1,4,30,,,,2,0,2,0,,,,,,,,,0,0,0,0,0,3,3,3,0,0,0,0,,,,,,,,,,,,,,,,,,,,,,,,,stimuli/alien_stimuli/12.png,,,,,,,,,,,,,,,,,,,,,,,,,,,,,stimuli/alien_stimuli/13.png,13,2,5,,,,,,,30,,,,,,,,725.8778276000003,725.8778276000003,725.8778276000003,725.8778276000003,725.8778276000003,,,,,up,9.961565900000096,0,0,0,99,-0.16,-0.24,up,9.87311039999895,724.3083918000002,725.8778276000003,0,0.08,0.24,0.0,-0.04,0,0.0,0,0.08,713.4671310000003,713.4671310000003,713.4671310000003,713.4671310000003,713.4671310000003,713.4671310000003,713.4671310000003,713.4671310000003,713.4663030600001,10.961100699999406,return,10.81639129999985,,,,,,,,,,,,,,,,,,,,,,,,,,,,,,,,,HCV5VL,train_y,red_square,bottom_left,2025-01-22_15h03.18.742,HideSeek_v1,2022.2.5,59.98080614230113,
,0,1,0,5,0,4,12,,train_dim1_1,4,30,,,,2,0,2,0,,,,,,,,,0,0,0,0,0,3,3,3,1,0,1,0,,,,,,,,,,,,,,,,,,,,,,,,,,,,,,,,,,,,,,,,,,,,,,,,,,,,,,,,,,,,,,,,30,,,,,,,,735.8543444000006,735.8543444000006,735.8543444000006,735.8543444000006,735.8543444000006,,,,,up,0.526557999999568,0,0,0,99,-0.16,-0.15999999999999998,up,0.4304748999993535,,,,,,,,,,,,,,,,,,,,,,,,,,,,,,,,,,,,,,,,,,,,,,,,,,,,,,,,HCV5VL,train_y,red_square,bottom_left,2025-01-22_15h03.18.742,HideSeek_v1,2022.2.5,59.98080614230113,
,0,1,0,5,0,4,12,,train_dim1_1,4,30,,,,2,0,2,0,,,,,,,,,0,0,0,0,0,3,3,3,2,0,2,0,,,,,,,,,,,,,,,,,,,,,,,,,,,,,,,,,,,,,,,,,,,,,,,,,,,,,,,,,,,,,,,,30,,,,,,,,736.3692029000003,736.3692029000003,736.3692029000003,736.3692029000003,736.3692029000003,,,,,up,0.6099163999997472,0,0,0,99,-0.16,-0.07999999999999997,up,0.5321240000002945,,,,,,,,,,,,,,,,,,,,,,,,,,,,,,,,,,,,,,,,,,,,,,,,,,,,,,,,HCV5VL,train_y,red_square,bottom_left,2025-01-22_15h03.18.742,HideSeek_v1,2022.2.5,59.98080614230113,
,0,1,0,5,0,4,12,,train_dim1_1,4,30,,,,2,0,2,0,,,,,,,,,0,0,0,0,0,3,3,3,3,0,3,0,,,,,,,,,,,,,,,,,,,,,,,,,,,,,,,,,,,,,,,,,,,,,,,,,,,,,,,,,,,,,,,,30,,,,,,,,736.9860254000005,736.9860254000005,736.9860254000005,736.9860254000005,736.9860254000005,9,0,-0.16,-0.07999999999999997,return,2.8788322000000335,0,1,0,0,-0.16,-0.07999999999999997,return,2.7913027999993574,,,,,,,,,,,,,,,,,,,,,,,,,,,,,,,,,,,,,,,,,,,,,,,,,,,,,,,,HCV5VL,train_y,red_square,bottom_left,2025-01-22_15h03.18.742,HideSeek_v1,2022.2.5,59.98080614230113,
,3,3,3,8,0,5,11,,train_dim1_1,5,30,,,,2,0,2,0,,,,,,,,,0,0,0,0,0,4,4,4,0,0,0,0,,,,,,,,,,,,,,,,,,,,,,,,,stimuli/alien_stimuli/11.png,,,,,,,,,,,,,,,,,,,,,,,,,,,,,stimuli/alien_stimuli/12.png,12,0,6,,,,,,,30,,,,,,,,757.2159271,757.2159271,757.2159271,757.2159271,757.2159271,,,,,up,2.9900996999995186,0,1,0,99,0.08,-0.08,up,2.8956749999997555,755.6511307999999,757.2159271,-0.16,0,0.32,0.0,-0.16,-0.16,-0.16,-0.16,0,741.4258660000005,741.4258660000005,741.4258660000005,741.4258660000005,741.4258660000005,741.4258660000005,741.4258660000005,741.4258660000005,741.4228211899999,14.330825200000618,return,14.206279999999424,,,,,,,,,,,,,,,,,,,,,,,,,,,,,,,,,HCV5VL,train_y,red_square,bottom_left,2025-01-22_15h03.18.742,HideSeek_v1,2022.2.5,59.98080614230113,
,3,3,3,8,0,5,11,,train_dim1_1,5,30,,,,2,0,2,0,,,,,,,,,0,0,0,0,0,4,4,4,1,0,1,0,,,,,,,,,,,,,,,,,,,,,,,,,,,,,,,,,,,,,,,,,,,,,,,,,,,,,,,,,,,,,,,,30,,,,,,,,760.2055338999999,760.2055338999999,760.2055338999999,760.2055338999999,760.2055338999999,,,,,up,0.8101206000001184,0,1,0,99,0.08,0.0,up,0.7290335999996387,,,,,,,,,,,,,,,,,,,,,,,,,,,,,,,,,,,,,,,,,,,,,,,,,,,,,,,,HCV5VL,train_y,red_square,bottom_left,2025-01-22_15h03.18.742,HideSeek_v1,2022.2.5,59.98080614230113,
,3,3,3,8,0,5,11,,train_dim1_1,5,30,,,,2,0,2,0,,,,,,,,,0,0,0,0,0,4,4,4,2,0,2,0,,,,,,,,,,,,,,,,,,,,,,,,,,,,,,,,,,,,,,,,,,,,,,,,,,,,,,,,,,,,,,,,30,,,,,,,,761.0222399000004,761.0222399000004,761.0222399000004,761.0222399000004,761.0222399000004,,,,,up,1.1104574000000866,0,1,0,99,0.08,0.08,up,1.025710999999319,,,,,,,,,,,,,,,,,,,,,,,,,,,,,,,,,,,,,,,,,,,,,,,,,,,,,,,,HCV5VL,train_y,red_square,bottom_left,2025-01-22_15h03.18.742,HideSeek_v1,2022.2.5,59.98080614230113,
,3,3,3,8,0,5,11,,train_dim1_1,5,30,,,,2,0,2,0,,,,,,,,,0,0,0,0,0,4,4,4,3,0,3,0,,,,,,,,,,,,,,,,,,,,,,,,,,,,,,,,,,,,,,,,,,,,,,,,,,,,,,,,,,,,,,,,30,,,,,,,,762.1401599999999,762.1401599999999,762.1401599999999,762.1401599999999,762.1401599999999,12,0,0.08,0.08,return,1.7442596000000776,0,0,0,0,0.08,0.08,return,1.6579500999996526,,,,,,,,,,,,,,,,,,,,,,,,,,,,,,,,,,,,,,,,,,,,,,,,,,,,,,,,HCV5VL,train_y,red_square,bottom_left,2025-01-22_15h03.18.742,HideSeek_v1,2022.2.5,59.98080614230113,
,1,4,1,8,0,4,12,,train_dim1_1,6,30,,,,2,0,2,0,,,,,,,,,0,0,0,0,0,5,5,5,0,0,0,0,,,,,,,,,,,,,,,,,,,,,,,,,stimuli/alien_stimuli/12.png,,,,,,,,,,,,,,,,,,,,,,,,,,,,,stimuli/alien_stimuli/11.png,11,3,7,,,,,,,30,,,,,,,,772.7052278000001,772.7052278000001,772.7052278000001,772.7052278000001,772.7052278000001,,,,,up,1.8885000000000218,0,0,0,99,-0.08,0.0,up,1.8122127999995428,771.1472856999999,772.7052278000001,0.08,0.24,0.4,0.0,0.039999999999999994,0.08,0.08,0.08,0.24,765.4597167000002,765.4597167000002,765.4597167000002,765.4597167000002,765.4597167000002,765.4597167000002,765.4597167000002,765.4597167000002,765.4594689599995,5.80738029999975,return,5.671948799998972,,,,,,,,,,,,,,,,,,,,,,,,,,,,,,,,,HCV5VL,train_y,red_square,bottom_left,2025-01-22_15h03.18.742,HideSeek_v1,2022.2.5,59.98080614230113,
,1,4,1,8,0,4,12,,train_dim1_1,6,30,,,,2,0,2,0,,,,,,,,,0,0,0,0,0,5,5,5,1,0,1,0,,,,,,,,,,,,,,,,,,,,,,,,,,,,,,,,,,,,,,,,,,,,,,,,,,,,,,,,,,,,,,,,30,,,,,,,,774.6051535000006,774.6051535000006,774.6051535000006,774.6051535000006,774.6051535000006,,,,,up,0.45655919999990147,0,0,0,99,-0.08,0.08,up,0.3656206999994538,,,,,,,,,,,,,,,,,,,,,,,,,,,,,,,,,,,,,,,,,,,,,,,,,,,,,,,,HCV5VL,train_y,red_square,bottom_left,2025-01-22_15h03.18.742,HideSeek_v1,2022.2.5,59.98080614230113,
,1,4,1,8,0,4,12,,train_dim1_1,6,30,,,,2,0,2,0,,,,,,,,,0,0,0,0,0,5,5,5,2,0,2,0,,,,,,,,,,,,,,,,,,,,,,,,,,,,,,,,,,,,,,,,,,,,,,,,,,,,,,,,,,,,,,,,30,,,,,,,,775.0673314000005,775.0673314000005,775.0673314000005,775.0673314000005,775.0673314000005,,,,,up,0.4104993999999351,0,0,0,99,-0.08,0.16,up,0.3251476999994338,,,,,,,,,,,,,,,,,,,,,,,,,,,,,,,,,,,,,,,,,,,,,,,,,,,,,,,,HCV5VL,train_y,red_square,bottom_left,2025-01-22_15h03.18.742,HideSeek_v1,2022.2.5,59.98080614230113,
,1,4,1,8,0,4,12,,train_dim1_1,6,30,,,,2,0,2,0,,,,,,,,,0,0,0,0,0,5,5,5,3,0,3,0,,,,,,,,,,,,,,,,,,,,,,,,,,,,,,,,,,,,,,,,,,,,,,,,,,,,,,,,,,,,,,,,30,,,,,,,,775.4856841000001,775.4856841000001,775.4856841000001,775.4856841000001,775.4856841000001,,,,,up,0.4091977999996743,0,0,0,99,-0.08,0.24,up,0.3249132999999347,,,,,,,,,,,,,,,,,,,,,,,,,,,,,,,,,,,,,,,,,,,,,,,,,,,,,,,,HCV5VL,train_y,red_square,bottom_left,2025-01-22_15h03.18.742,HideSeek_v1,2022.2.5,59.98080614230113,
,1,4,1,8,0,4,12,,train_dim1_1,6,30,,,,2,0,2,0,,,,,,,,,0,0,0,0,0,5,5,5,4,0,4,0,,,,,,,,,,,,,,,,,,,,,,,,,,,,,,,,,,,,,,,,,,,,,,,,,,,,,,,,,,,,,,,,30,,,,,,,,775.9019091999999,775.9019091999999,775.9019091999999,775.9019091999999,775.9019091999999,,,,,up,0.40988039999956527,0,0,0,99,-0.08,0.32,up,0.3256100999988121,,,,,,,,,,,,,,,,,,,,,,,,,,,,,,,,,,,,,,,,,,,,,,,,,,,,,,,,HCV5VL,train_y,red_square,bottom_left,2025-01-22_15h03.18.742,HideSeek_v1,2022.2.5,59.98080614230113,
,1,4,1,8,0,4,12,,train_dim1_1,6,30,,,,2,0,2,0,,,,,,,,,0,0,0,0,0,5,5,5,5,0,5,0,,,,,,,,,,,,,,,,,,,,,,,,,,,,,,,,,,,,,,,,,,,,,,,,,,,,,,,,,,,,,,,,30,,,,,,,,776.3188678000006,776.3188678000006,776.3188678000006,776.3188678000006,776.3188678000006,17,0,-0.08,0.32,return,0.9938410000004296,0,1,0,0,-0.08,0.32,return,0.908158999999614,,,,,,,,,,,,,,,,,,,,,,,,,,,,,,,,,,,,,,,,,,,,,,,,,,,,,,,,HCV5VL,train_y,red_square,bottom_left,2025-01-22_15h03.18.742,HideSeek_v1,2022.2.5,59.98080614230113,
,1,3,1,6,0,3,13,,train_dim1_1,7,30,,,,2,0,2,0,,,,,,,,,0,0,0,0,0,6,6,6,0,0,0,0,,,,,,,,,,,,,,,,,,,,,,,,,stimuli/alien_stimuli/13.png,,,,,,,,,,,,,,,,,,,,,,,,,,,,,stimuli/alien_stimuli/12.png,12,1,8,,,,,,,30,,,,,,,,797.6416937000004,797.6416937000004,797.6416937000004,797.6416937000004,797.6416937000004,,,,,up,8.859121500000583,0,1,0,99,-0.08,-0.08,up,8.761471299999357,796.0678357000006,797.6416937000004,-0.08,0.24,0.32,0.0,0.07999999999999999,-0.08,-0.08,-0.08,0.24,778.8892382000004,778.8892382000004,778.8892382000004,778.8892382000004,778.8892382000004,778.8892382000004,778.8892382000004,778.8892382000004,778.8874445600001,17.29935519999981,return,17.14722139999867,,,,,,,,,,,,,,,,,,,,,,,,,,,,,,,,,HCV5VL,train_y,red_square,bottom_left,2025-01-22_15h03.18.742,HideSeek_v1,2022.2.5,59.98080614230113,
,1,3,1,6,0,3,13,,train_dim1_1,7,30,,,,2,0,2,0,,,,,,,,,0,0,0,0,0,6,6,6,1,0,1,0,,,,,,,,,,,,,,,,,,,,,,,,,,,,,,,,,,,,,,,,,,,,,,,,,,,,,,,,,,,,,,,,30,,,,,,,,806.4942414000006,806.4942414000006,806.4942414000006,806.4942414000006,806.4942414000006,,,,,up,0.7422471999998379,0,1,0,99,-0.08,0.0,up,0.6599971999994523,,,,,,,,,,,,,,,,,,,,,,,,,,,,,,,,,,,,,,,,,,,,,,,,,,,,,,,,HCV5VL,train_y,red_square,bottom_left,2025-01-22_15h03.18.742,HideSeek_v1,2022.2.5,59.98080614230113,
,1,3,1,6,0,3,13,,train_dim1_1,7,30,,,,2,0,2,0,,,,,,,,,0,0,0,0,0,6,6,6,2,0,2,0,,,,,,,,,,,,,,,,,,,,,,,,,,,,,,,,,,,,,,,,,,,,,,,,,,,,,,,,,,,,,,,,30,,,,,,,,807.2432368,807.2432368,807.2432368,807.2432368,807.2432368,,,,,up,1.0608026999998401,0,1,0,99,-0.08,0.08,up,0.9798870999993596,,,,,,,,,,,,,,,,,,,,,,,,,,,,,,,,,,,,,,,,,,,,,,,,,,,,,,,,HCV5VL,train_y,red_square,bottom_left,2025-01-22_15h03.18.742,HideSeek_v1,2022.2.5,59.98080614230113,
,1,3,1,6,0,3,13,,train_dim1_1,7,30,,,,2,0,2,0,,,,,,,,,0,0,0,0,0,6,6,6,3,0,3,0,,,,,,,,,,,,,,,,,,,,,,,,,,,,,,,,,,,,,,,,,,,,,,,,,,,,,,,,,,,,,,,,30,,,,,,,,808.3111439000004,808.3111439000004,808.3111439000004,808.3111439000004,808.3111439000004,20,0,-0.08,0.08,return,2.478452500000458,1,0,0,1,-0.08,0.08,return,2.3867966999987402,,,,,,,,,,,,,,,,,,,,,,,,,,,,,,,,,,,,,,,,,,,,,,,,,,,,,,,,HCV5VL,train_y,red_square,bottom_left,2025-01-22_15h03.18.742,HideSeek_v1,2022.2.5,59.98080614230113,
,4,2,4,7,0,5,11,,train_dim1_1,8,30,,,,2,0,2,0,,,,,,,,,0,0,0,0,0,7,7,7,0,0,0,0,,,,,,,,,,,,,,,,,,,,,,,,,stimuli/alien_stimuli/11.png,,,,,,,,,,,,,,,,,,,,,,,,,,,,,stimuli/alien_stimuli/13.png,13,1,9,,,,,,,30,,,,,,,,819.9104567000004,819.9104567000004,819.9104567000004,819.9104567000004,819.9104567000004,,,,,up,1.9888975000003484,1,0,0,99,0.16,-0.15999999999999998,up,1.8968586999990293,818.3530394,819.9104567000004,-0.08,0.08,0.24,0.0,-0.04,-0.08,-0.08,-0.08,0.08,812.3594671000001,812.3594671000001,812.3594671000001,812.3594671000001,812.3594671000001,812.3594671000001,812.3594671000001,812.3594671000001,812.34842759,6.107026399999995,return,5.976570799999536,,,,,,,,,,,,,,,,,,,,,,,,,,,,,,,,,HCV5VL,train_y,red_square,bottom_left,2025-01-22_15h03.18.742,HideSeek_v1,2022.2.5,59.98080614230113,
,4,2,4,7,0,5,11,,train_dim1_1,8,30,,,,2,0,2,0,,,,,,,,,0,0,0,0,0,7,7,7,1,0,1,0,,,,,,,,,,,,,,,,,,,,,,,,,,,,,,,,,,,,,,,,,,,,,,,,,,,,,,,,,,,,,,,,30,,,,,,,,821.9085641000001,821.9085641000001,821.9085641000001,821.9085641000001,821.9085641000001,,,,,up,0.42564479999964533,1,0,0,99,0.16,-0.07999999999999997,up,0.3433079999995243,,,,,,,,,,,,,,,,,,,,,,,,,,,,,,,,,,,,,,,,,,,,,,,,,,,,,,,,HCV5VL,train_y,red_square,bottom_left,2025-01-22_15h03.18.742,HideSeek_v1,2022.2.5,59.98080614230113,
,4,2,4,7,0,5,11,,train_dim1_1,8,30,,,,2,0,2,0,,,,,,,,,0,0,0,0,0,7,7,7,2,0,2,0,,,,,,,,,,,,,,,,,,,,,,,,,,,,,,,,,,,,,,,,,,,,,,,,,,,,,,,,,,,,,,,,30,,,,,,,,822.3395547,822.3395547,822.3395547,822.3395547,822.3395547,,,,,up,0.46007169999938924,1,0,0,99,0.16,2.7755575615628914e-17,up,0.3822093999997378,,,,,,,,,,,,,,,,,,,,,,,,,,,,,,,,,,,,,,,,,,,,,,,,,,,,,,,,HCV5VL,train_y,red_square,bottom_left,2025-01-22_15h03.18.742,HideSeek_v1,2022.2.5,59.98080614230113,
,4,2,4,7,0,5,11,,train_dim1_1,8,30,,,,2,0,2,0,,,,,,,,,0,0,0,0,0,7,7,7,3,0,3,0,,,,,,,,,,,,,,,,,,,,,,,,,,,,,,,,,,,,,,,,,,,,,,,,,,,,,,,,,,,,,,,,30,,,,,,,,822.8067833000005,822.8067833000005,822.8067833000005,822.8067833000005,822.8067833000005,,,,,up,0.5268562999999631,1,0,0,99,0.16,0.08000000000000003,up,0.45080249999955413,,,,,,,,,,,,,,,,,,,,,,,,,,,,,,,,,,,,,,,,,,,,,,,,,,,,,,,,HCV5VL,train_y,red_square,bottom_left,2025-01-22_15h03.18.742,HideSeek_v1,2022.2.5,59.98080614230113,
,4,2,4,7,0,5,11,,train_dim1_1,8,30,,,,2,0,2,0,,,,,,,,,0,0,0,0,0,7,7,7,4,0,4,0,,,,,,,,,,,,,,,,,,,,,,,,,,,,,,,,,,,,,,,,,,,,,,,,,,,,,,,,,,,,,,,,30,,,,,,,,823.3401592,823.3401592,823.3401592,823.3401592,823.3401592,24,0,0.16,0.08000000000000003,return,4.279404499999146,1,1,0,0,0.16,0.08000000000000003,return,4.188131199999589,,,,,,,,,,,,,,,,,,,,,,,,,,,,,,,,,,,,,,,,,,,,,,,,,,,,,,,,HCV5VL,train_y,red_square,bottom_left,2025-01-22_15h03.18.742,HideSeek_v1,2022.2.5,59.98080614230113,
,4,3,4,4,0,1,15,,train_dim1_1,9,30,,,,2,0,2,0,,,,,,,,,0,0,0,0,0,8,8,8,0,0,0,0,,,,,,,,,,,,,,,,,,,,,,,,,stimuli/alien_stimuli/15.png,,,,,,,,,,,,,,,,,,,,,,,,,,,,,stimuli/alien_stimuli/11.png,11,4,10,,,,,,,30,,,,,,,,836.6246485000001,836.6246485000001,836.6246485000001,836.6246485000001,836.6246485000001,24,0,0.16,-0.16,return,5.492886300000464,1,1,0,0,0.16,-0.16,return,5.399247299998933,835.0670985000006,836.6246485000001,0.16,0.16,0.4,0.0,-0.039999999999999994,0.16,0.16,0.16,0.16,829.1878868000003,829.1878868000003,829.1878868000003,829.1878868000003,829.1878868000003,829.1878868000003,829.1878868000003,829.1878868000003,829.17904009,5.990507000000434,return,5.862838699999884,,,,,,,,,,,,,,,,,,,,,,,,,,,,,,,,,HCV5VL,train_y,red_square,bottom_left,2025-01-22_15h03.18.742,HideSeek_v1,2022.2.5,59.98080614230113,
,2,2,2,2,0,0,16,,train_dim1_1,10,30,,,,2,0,2,0,,,,,,,,,0,0,0,0,0,9,9,9,0,0,0,0,,,,,,,,,,,,,,,,,,,,,,,,,stimuli/alien_stimuli/16.png,,,,,,,,,,,,,,,,,,,,,,,,,,,,,stimuli/alien_stimuli/15.png,15,4,11,,,,,,,30,,,,,,,,848.6035237000006,848.6035237000006,848.6035237000006,848.6035237000006,848.6035237000006,,,,,up,4.971651599999859,1,1,0,99,0,-0.15999999999999998,up,4.888731899999584,847.0434382000003,848.6035237000006,0.16,-0.08,0.08,0.0,-0.12,0.16,0.16,0.16,-0.08,843.6863645000003,843.6863645000003,843.6863645000003,843.6863645000003,843.6863645000003,843.6863645000003,843.6863645000003,843.6863645000003,843.6741341899997,3.471651500000007,return,3.332016499999554,,,,,,,,,,,,,,,,,,,,,,,,,,,,,,,,,HCV5VL,train_y,red_square,bottom_left,2025-01-22_15h03.18.742,HideSeek_v1,2022.2.5,59.98080614230113,
,2,2,2,2,0,0,16,,train_dim1_1,10,30,,,,2,0,2,0,,,,,,,,,0,0,0,0,0,9,9,9,1,0,1,0,,,,,,,,,,,,,,,,,,,,,,,,,,,,,,,,,,,,,,,,,,,,,,,,,,,,,,,,,,,,,,,,30,,,,,,,,853.5827393,853.5827393,853.5827393,853.5827393,853.5827393,,,,,up,0.6098869999996168,1,1,0,99,0,-0.07999999999999997,up,0.5331050999993749,,,,,,,,,,,,,,,,,,,,,,,,,,,,,,,,,,,,,,,,,,,,,,,,,,,,,,,,HCV5VL,train_y,red_square,bottom_left,2025-01-22_15h03.18.742,HideSeek_v1,2022.2.5,59.98080614230113,
,2,2,2,2,0,0,16,,train_dim1_1,10,30,,,,2,0,2,0,,,,,,,,,0,0,0,0,0,9,9,9,2,0,2,0,,,,,,,,,,,,,,,,,,,,,,,,,,,,,,,,,,,,,,,,,,,,,,,,,,,,,,,,,,,,,,,,30,,,,,,,,854.1992817999999,854.1992817999999,854.1992817999999,854.1992817999999,854.1992817999999,26,0,0,-0.07999999999999997,return,0.893724900000052,1,0,0,0,0,-0.07999999999999997,return,0.808097799999814,,,,,,,,,,,,,,,,,,,,,,,,,,,,,,,,,,,,,,,,,,,,,,,,,,,,,,,,HCV5VL,train_y,red_square,bottom_left,2025-01-22_15h03.18.742,HideSeek_v1,2022.2.5,59.98080614230113,
,4,1,4,2,0,1,15,,train_dim1_1,11,30,,,,2,0,2,0,,,,,,,,,0,0,0,0,0,10,10,10,0,0,0,0,,,,,,,,,,,,,,,,,,,,,,,,,stimuli/alien_stimuli/15.png,,,,,,,,,,,,,,,,,,,,,,,,,,,,,stimuli/alien_stimuli/16.png,16,2,12,,,,,,,30,,,,,,,,861.5945098000002,861.5945098000002,861.5945098000002,861.5945098000002,861.5945098000002,,,,,up,4.474638499999855,1,0,0,99,0.16,-0.24,up,4.3972918999998,860.0376046000001,861.5945098000002,0,-0.24,0.0,0.0,-0.24,0,0.0,0,-0.24,856.6623564000001,856.6623564000001,856.6623564000001,856.6623564000001,856.6623564000001,856.6623564000001,856.6623564000001,856.6623564000001,856.6516600900004,3.4885598000000755,return,3.3535952999991423,,,,,,,,,,,,,,,,,,,,,,,,,,,,,,,,,HCV5VL,train_y,red_square,bottom_left,2025-01-22_15h03.18.742,HideSeek_v1,2022.2.5,59.98080614230113,
,4,1,4,2,0,1,15,,train_dim1_1,11,30,,,,2,0,2,0,,,,,,,,,0,0,0,0,0,10,10,10,1,0,1,0,,,,,,,,,,,,,,,,,,,,,,,,,,,,,,,,,,,,,,,,,,,,,,,,,,,,,,,,,,,,,,,,30,,,,,,,,866.0781216000005,866.0781216000005,866.0781216000005,866.0781216000005,866.0781216000005,27,0,0.16,-0.24,return,0.8430885000007038,2,0,0,1,0.16,-0.24,return,0.7569350999992821,,,,,,,,,,,,,,,,,,,,,,,,,,,,,,,,,,,,,,,,,,,,,,,,,,,,,,,,HCV5VL,train_y,red_square,bottom_left,2025-01-22_15h03.18.742,HideSeek_v1,2022.2.5,59.98080614230113,
,0,0,0,5,0,5,11,,train_dim1_1,12,30,,,,2,0,2,0,,,,,,,,,0,0,0,0,0,11,11,11,0,0,0,0,,,,,,,,,,,,,,,,,,,,,,,,,stimuli/alien_stimuli/11.png,,,,,,,,,,,,,,,,,,,,,,,,,,,,,stimuli/alien_stimuli/15.png,15,4,13,,,,,,,30,,,,,,,,872.1523580000003,872.1523580000003,872.1523580000003,872.1523580000003,872.1523580000003,,,,,up,4.442395699999906,2,0,0,99,-0.16,-0.32,up,4.355242399999042,870.5961926,872.1523580000003,0.16,-0.24,0.08,0.0,-0.28,0.16,0.16,0.16,-0.24,868.4740376999998,868.4740376999998,868.4740376999998,868.4740376999998,868.4740376999998,868.4740376999998,868.4740376999998,868.4740376999998,868.4615030200005,2.220396000000619,return,2.0938187000001562,,,,,,,,,,,,,,,,,,,,,,,,,,,,,,,,,HCV5VL,train_y,red_square,bottom_left,2025-01-22_15h03.18.742,HideSeek_v1,2022.2.5,59.98080614230113,
,0,0,0,5,0,5,11,,train_dim1_1,12,30,,,,2,0,2,0,,,,,,,,,0,0,0,0,0,11,11,11,1,0,1,0,,,,,,,,,,,,,,,,,,,,,,,,,,,,,,,,,,,,,,,,,,,,,,,,,,,,,,,,,,,,,,,,30,,,,,,,,876.6021812999998,876.6021812999998,876.6021812999998,876.6021812999998,876.6021812999998,,,,,up,0.4931246000005558,2,0,0,99,-0.16,-0.24,up,0.41150680000009743,,,,,,,,,,,,,,,,,,,,,,,,,,,,,,,,,,,,,,,,,,,,,,,,,,,,,,,,HCV5VL,train_y,red_square,bottom_left,2025-01-22_15h03.18.742,HideSeek_v1,2022.2.5,59.98080614230113,
,0,0,0,5,0,5,11,,train_dim1_1,12,30,,,,2,0,2,0,,,,,,,,,0,0,0,0,0,11,11,11,2,0,2,0,,,,,,,,,,,,,,,,,,,,,,,,,,,,,,,,,,,,,,,,,,,,,,,,,,,,,,,,,,,,,,,,30,,,,,,,,877.1015037000006,877.1015037000006,877.1015037000006,877.1015037000006,877.1015037000006,,,,,up,0.4933717000003526,2,0,0,99,-0.16,-0.15999999999999998,up,0.4023334999992585,,,,,,,,,,,,,,,,,,,,,,,,,,,,,,,,,,,,,,,,,,,,,,,,,,,,,,,,HCV5VL,train_y,red_square,bottom_left,2025-01-22_15h03.18.742,HideSeek_v1,2022.2.5,59.98080614230113,
,0,0,0,5,0,5,11,,train_dim1_1,12,30,,,,2,0,2,0,,,,,,,,,0,0,0,0,0,11,11,11,3,0,3,0,,,,,,,,,,,,,,,,,,,,,,,,,,,,,,,,,,,,,,,,,,,,,,,,,,,,,,,,,,,,,,,,30,,,,,,,,877.6026295000001,877.6026295000001,877.6026295000001,877.6026295000001,877.6026295000001,,,,,up,0.4933155999997325,2,0,0,99,-0.16,-0.07999999999999997,up,0.41495259999919654,,,,,,,,,,,,,,,,,,,,,,,,,,,,,,,,,,,,,,,,,,,,,,,,,,,,,,,,HCV5VL,train_y,red_square,bottom_left,2025-01-22_15h03.18.742,HideSeek_v1,2022.2.5,59.98080614230113,
,0,0,0,5,0,5,11,,train_dim1_1,12,30,,,,2,0,2,0,,,,,,,,,0,0,0,0,0,11,11,11,4,0,4,0,,,,,,,,,,,,,,,,,,,,,,,,,,,,,,,,,,,,,,,,,,,,,,,,,,,,,,,,,,,,,,,,30,,,,,,,,878.1018952000004,878.1018952000004,878.1018952000004,878.1018952000004,878.1018952000004,31,0,-0.16,-0.07999999999999997,return,2.061352099999567,2,1,0,0,-0.16,-0.07999999999999997,return,1.9823839999999109,,,,,,,,,,,,,,,,,,,,,,,,,,,,,,,,,,,,,,,,,,,,,,,,,,,,,,,,HCV5VL,train_y,red_square,bottom_left,2025-01-22_15h03.18.742,HideSeek_v1,2022.2.5,59.98080614230113,
,4,3,4,7,0,4,12,,train_dim1_1,13,30,,,,2,0,2,0,,,,,,,,,0,0,0,0,0,12,12,12,0,0,0,0,,,,,,,,,,,,,,,,,,,,,,,,,stimuli/alien_stimuli/12.png,,,,,,,,,,,,,,,,,,,,,,,,,,,,,stimuli/alien_stimuli/11.png,11,0,14,,,,,,,30,,,,,,,,885.7684046000004,885.7684046000004,885.7684046000004,885.7684046000004,885.7684046000004,,,,,up,3.1208388999993986,2,1,0,99,0.16,-0.08,up,3.035968199999843,884.2075264000005,885.7684046000004,-0.16,0,0.4,0.0,-0.2,-0.16,-0.16,-0.16,0,881.7337630000002,881.7337630000002,881.7337630000002,881.7337630000002,881.7337630000002,881.7337630000002,881.7337630000002,881.7337630000002,881.72235249,2.58776300000045,return,2.4560481999997137,,,,,,,,,,,,,,,,,,,,,,,,,,,,,,,,,HCV5VL,train_y,red_square,bottom_left,2025-01-22_15h03.18.742,HideSeek_v1,2022.2.5,59.98080614230113,
,4,3,4,7,0,4,12,,train_dim1_1,13,30,,,,2,0,2,0,,,,,,,,,0,0,0,0,0,12,12,12,1,0,1,0,,,,,,,,,,,,,,,,,,,,,,,,,,,,,,,,,,,,,,,,,,,,,,,,,,,,,,,,,,,,,,,,30,,,,,,,,888.8971391000005,888.8971391000005,888.8971391000005,888.8971391000005,888.8971391000005,,,,,up,0.3095929999999498,2,1,0,99,0.16,0.0,up,0.23198719999982131,,,,,,,,,,,,,,,,,,,,,,,,,,,,,,,,,,,,,,,,,,,,,,,,,,,,,,,,HCV5VL,train_y,red_square,bottom_left,2025-01-22_15h03.18.742,HideSeek_v1,2022.2.5,59.98080614230113,
,4,3,4,7,0,4,12,,train_dim1_1,13,30,,,,2,0,2,0,,,,,,,,,0,0,0,0,0,12,12,12,2,0,2,0,,,,,,,,,,,,,,,,,,,,,,,,,,,,,,,,,,,,,,,,,,,,,,,,,,,,,,,,,,,,,,,,30,,,,,,,,889.2121328000003,889.2121328000003,889.2121328000003,889.2121328000003,889.2121328000003,,,,,up,0.32647869999982504,2,1,0,99,0.16,0.08,up,0.2451848999999129,,,,,,,,,,,,,,,,,,,,,,,,,,,,,,,,,,,,,,,,,,,,,,,,,,,,,,,,HCV5VL,train_y,red_square,bottom_left,2025-01-22_15h03.18.742,HideSeek_v1,2022.2.5,59.98080614230113,
,4,3,4,7,0,4,12,,train_dim1_1,13,30,,,,2,0,2,0,,,,,,,,,0,0,0,0,0,12,12,12,3,0,3,0,,,,,,,,,,,,,,,,,,,,,,,,,,,,,,,,,,,,,,,,,,,,,,,,,,,,,,,,,,,,,,,,30,,,,,,,,889.5462523000006,889.5462523000006,889.5462523000006,889.5462523000006,889.5462523000006,,,,,up,1.3443710999999894,2,1,0,99,0.16,0.16,up,1.2550515999992058,,,,,,,,,,,,,,,,,,,,,,,,,,,,,,,,,,,,,,,,,,,,,,,,,,,,,,,,HCV5VL,train_y,red_square,bottom_left,2025-01-22_15h03.18.742,HideSeek_v1,2022.2.5,59.98080614230113,
,4,3,4,7,0,4,12,,train_dim1_1,13,30,,,,2,0,2,0,,,,,,,,,0,0,0,0,0,12,12,12,4,0,4,0,,,,,,,,,,,,,,,,,,,,,,,,,,,,,,,,,,,,,,,,,,,,,,,,,,,,,,,,,,,,,,,,30,,,,,,,,890.8966995999999,890.8966995999999,890.8966995999999,890.8966995999999,890.8966995999999,35,0,0.16,0.16,return,1.0771500000000742,3,0,0,1,0.16,0.16,return,0.9959098999988782,,,,,,,,,,,,,,,,,,,,,,,,,,,,,,,,,,,,,,,,,,,,,,,,,,,,,,,,HCV5VL,train_y,red_square,bottom_left,2025-01-22_15h03.18.742,HideSeek_v1,2022.2.5,59.98080614230113,
,2,2,2,2,0,0,16,,train_dim1_1,14,30,,,,2,0,2,0,,,,,,,,,0,0,0,0,0,13,13,13,0,0,0,0,,,,,,,,,,,,,,,,,,,,,,,,,stimuli/alien_stimuli/16.png,,,,,,,,,,,,,,,,,,,,,,,,,,,,,stimuli/alien_stimuli/12.png,12,4,15,,,,,,,30,,,,,,,,896.3217879000003,896.3217879000003,896.3217879000003,896.3217879000003,896.3217879000003,35,0,0,-0.24,return,3.174693599999955,4,0,0,1,0,-0.24,return,3.0832018999990396,894.7663524,896.3217879000003,0.16,0.16,0.32,0.0,0.0,0.16,0.16,0.16,0.16,893.5441795000006,893.5441795000006,893.5441795000006,893.5441795000006,893.5441795000006,893.5441795000006,893.5441795000006,893.5441795000006,893.5322424899996,1.3369173999999475,return,1.1964465999999447,,,,,,,,,,,,,,,,,,,,,,,,,,,,,,,,,HCV5VL,train_y,red_square,bottom_left,2025-01-22_15h03.18.742,HideSeek_v1,2022.2.5,59.98080614230113,
,1,4,1,7,0,3,13,,train_dim1_1,15,30,,,,2,0,2,0,,,,,,,,,0,0,0,0,0,14,14,14,0,0,0,0,,,,,,,,,,,,,,,,,,,,,,,,,stimuli/alien_stimuli/13.png,,,,,,,,,,,,,,,,,,,,,,,,,,,,,stimuli/alien_stimuli/16.png,16,2,16,,,,,,,30,,,,,,,,904.3445382,904.3445382,904.3445382,904.3445382,904.3445382,,,,,right,4.993301700000302,4,0,0,99,0.0,-0.08,right,4.914985999999772,902.7897834000005,904.3445382,0,-0.24,0.0,0.0,-0.24,0,0.0,0,-0.24,901.0497034,901.0497034,901.0497034,901.0497034,901.0497034,901.0497034,901.0497034,901.0497034,901.0382107199996,1.8372435000001133,return,1.7229153999996925,,,,,,,,,,,,,,,,,,,,,,,,,,,,,,,,,HCV5VL,train_y,red_square,bottom_left,2025-01-22_15h03.18.742,HideSeek_v1,2022.2.5,59.98080614230113,
,1,4,1,7,0,3,13,,train_dim1_1,15,30,,,,2,0,2,0,,,,,,,,,0,0,0,0,0,14,14,14,1,0,1,0,,,,,,,,,,,,,,,,,,,,,,,,,,,,,,,,,,,,,,,,,,,,,,,,,,,,,,,,,,,,,,,,30,,,,,,,,909.3452385,909.3452385,909.3452385,909.3452385,909.3452385,,,,,right,1.1767479999998613,4,0,0,99,0.08,-0.08,right,1.0961641999992935,,,,,,,,,,,,,,,,,,,,,,,,,,,,,,,,,,,,,,,,,,,,,,,,,,,,,,,,HCV5VL,train_y,red_square,bottom_left,2025-01-22_15h03.18.742,HideSeek_v1,2022.2.5,59.98080614230113,
,1,4,1,7,0,3,13,,train_dim1_1,15,30,,,,2,0,2,0,,,,,,,,,0,0,0,0,0,14,14,14,2,0,2,0,,,,,,,,,,,,,,,,,,,,,,,,,,,,,,,,,,,,,,,,,,,,,,,,,,,,,,,,,,,,,,,,30,,,,,,,,910.5283760000002,910.5283760000002,910.5283760000002,910.5283760000002,910.5283760000002,,,,,right,1.0612795999995797,4,0,0,99,0.16,-0.08,right,0.9767731999991156,,,,,,,,,,,,,,,,,,,,,,,,,,,,,,,,,,,,,,,,,,,,,,,,,,,,,,,,HCV5VL,train_y,red_square,bottom_left,2025-01-22_15h03.18.742,HideSeek_v1,2022.2.5,59.98080614230113,
,1,4,1,7,0,3,13,,train_dim1_1,15,30,,,,2,0,2,0,,,,,,,,,0,0,0,0,0,14,14,14,3,0,3,0,,,,,,,,,,,,,,,,,,,,,,,,,,,,,,,,,,,,,,,,,,,,,,,,,,,,,,,,,,,,,,,,30,,,,,,,,911.5969494000001,911.5969494000001,911.5969494000001,911.5969494000001,911.5969494000001,35,3,0.16,-0.08,return,1.1099742999995215,4,0,0,0,0.16,-0.08,return,1.0230887999996412,,,,,,,,,,,,,,,,,,,,,,,,,,,,,,,,,,,,,,,,,,,,,,,,,,,,,,,,HCV5VL,train_y,red_square,bottom_left,2025-01-22_15h03.18.742,HideSeek_v1,2022.2.5,59.98080614230113,
,4,0,4,1,0,1,15,,train_dim1_1,16,30,,,,2,0,2,0,,,,,,,,,0,0,0,0,0,15,15,15,0,0,0,0,,,,,,,,,,,,,,,,,,,,,,,,,stimuli/alien_stimuli/15.png,,,,,,,,,,,,,,,,,,,,,,,,,,,,,stimuli/alien_stimuli/13.png,13,1,17,,,,,,,30,,,,,,,,920.2775920000004,920.2775920000004,920.2775920000004,920.2775920000004,920.2775920000004,,,,,up,2.9391638000006424,4,0,0,99,0.16,-0.32,up,2.8540268999995533,918.7195016000005,920.2775920000004,-0.08,0.16,0.24,0.0,0.04,-0.08,-0.08,-0.08,0.16,914.2759342999998,914.2759342999998,914.2759342999998,914.2759342999998,914.2759342999998,914.2759342999998,914.2759342999998,914.2759342999998,914.2660315900002,4.555949999999939,return,4.4122897999995985,,,,,,,,,,,,,,,,,,,,,,,,,,,,,,,,,HCV5VL,train_y,red_square,bottom_left,2025-01-22_15h03.18.742,HideSeek_v1,2022.2.5,59.98080614230113,
,4,0,4,1,0,1,15,,train_dim1_1,16,30,,,,2,0,2,0,,,,,,,,,0,0,0,0,0,15,15,15,1,0,1,0,,,,,,,,,,,,,,,,,,,,,,,,,,,,,,,,,,,,,,,,,,,,,,,,,,,,,,,,,,,,,,,,30,,,,,,,,923.2241511000002,923.2241511000002,923.2241511000002,923.2241511000002,923.2241511000002,36,3,0.16,-0.32,return,3.061794700000064,5,0,0,1,0.16,-0.32,return,2.9860433999992892,,,,,,,,,,,,,,,,,,,,,,,,,,,,,,,,,,,,,,,,,,,,,,,,,,,,,,,,HCV5VL,train_y,red_square,bottom_left,2025-01-22_15h03.18.742,HideSeek_v1,2022.2.5,59.98080614230113,
,3,3,3,6,0,3,13,,train_dim1_1,17,30,,,,2,0,2,0,,,,,,,,,0,0,0,0,0,16,16,16,0,0,0,0,,,,,,,,,,,,,,,,,,,,,,,,,stimuli/alien_stimuli/13.png,,,,,,,,,,,,,,,,,,,,,,,,,,,,,stimuli/alien_stimuli/15.png,15,4,18,,,,,,,30,,,,,,,,930.6166417000004,930.6166417000004,930.6166417000004,930.6166417000004,930.6166417000004,,,,,up,1.490020999999615,5,0,0,99,0.08,-0.08,up,1.3990663999993558,929.0613099000002,930.6166417000004,0.16,-0.32,0.08,0.0,-0.36,0.16,0.16,0.16,-0.32,927.8589829000002,927.8589829000002,927.8589829000002,927.8589829000002,927.8589829000002,927.8589829000002,927.8589829000002,927.8589829000002,927.8439437899997,1.3199523000002955,return,1.1742609999992055,,,,,,,,,,,,,,,,,,,,,,,,,,,,,,,,,HCV5VL,train_y,red_square,bottom_left,2025-01-22_15h03.18.742,HideSeek_v1,2022.2.5,59.98080614230113,
,3,3,3,6,0,3,13,,train_dim1_1,17,30,,,,2,0,2,0,,,,,,,,,0,0,0,0,0,16,16,16,1,0,1,0,,,,,,,,,,,,,,,,,,,,,,,,,,,,,,,,,,,,,,,,,,,,,,,,,,,,,,,,,,,,,,,,30,,,,,,,,932.1145759999999,932.1145759999999,932.1145759999999,932.1145759999999,932.1145759999999,,,,,up,0.49276409999947646,5,0,0,99,0.08,0.0,up,0.4032080999995742,,,,,,,,,,,,,,,,,,,,,,,,,,,,,,,,,,,,,,,,,,,,,,,,,,,,,,,,HCV5VL,train_y,red_square,bottom_left,2025-01-22_15h03.18.742,HideSeek_v1,2022.2.5,59.98080614230113,
,3,3,3,6,0,3,13,,train_dim1_1,17,30,,,,2,0,2,0,,,,,,,,,0,0,0,0,0,16,16,16,2,0,2,0,,,,,,,,,,,,,,,,,,,,,,,,,,,,,,,,,,,,,,,,,,,,,,,,,,,,,,,,,,,,,,,,30,,,,,,,,932.6150014000004,932.6150014000004,932.6150014000004,932.6150014000004,932.6150014000004,,,,,up,0.7430524999999761,5,0,0,99,0.08,0.08,up,0.6528294999998252,,,,,,,,,,,,,,,,,,,,,,,,,,,,,,,,,,,,,,,,,,,,,,,,,,,,,,,,HCV5VL,train_y,red_square,bottom_left,2025-01-22_15h03.18.742,HideSeek_v1,2022.2.5,59.98080614230113,
,3,3,3,6,0,3,13,,train_dim1_1,17,30,,,,2,0,2,0,,,,,,,,,0,0,0,0,0,16,16,16,3,0,3,0,,,,,,,,,,,,,,,,,,,,,,,,,,,,,,,,,,,,,,,,,,,,,,,,,,,,,,,,,,,,,,,,30,,,,,,,,933.3647253999998,933.3647253999998,933.3647253999998,933.3647253999998,933.3647253999998,39,3,0.08,0.08,return,1.1440894000006665,6,0,0,1,0.08,0.08,return,1.0538022999990062,,,,,,,,,,,,,,,,,,,,,,,,,,,,,,,,,,,,,,,,,,,,,,,,,,,,,,,,HCV5VL,train_y,red_square,bottom_left,2025-01-22_15h03.18.742,HideSeek_v1,2022.2.5,59.98080614230113,
,2,1,2,6,0,5,11,,train_dim1_1,18,30,,,,2,0,2,0,,,,,,,,,0,0,0,0,0,17,17,17,0,0,0,0,,,,,,,,,,,,,,,,,,,,,,,,,stimuli/alien_stimuli/11.png,,,,,,,,,,,,,,,,,,,,,,,,,,,,,stimuli/alien_stimuli/13.png,13,3,19,,,,,,,30,,,,,,,,938.6081330000006,938.6081330000006,938.6081330000006,938.6081330000006,938.6081330000006,,,,,up,1.588655700000345,6,0,0,99,0,-0.24,up,1.5072061999999278,937.0515057000002,938.6081330000006,0.08,0.08,0.24,0.0,-0.04,0.08,0.08,0.08,0.08,936.0625955000005,936.0625955000005,936.0625955000005,936.0625955000005,936.0625955000005,936.0625955000005,936.0625955000005,936.0625955000005,936.0509041199996,1.0867035999999644,return,0.9675808999991204,,,,,,,,,,,,,,,,,,,,,,,,,,,,,,,,,HCV5VL,train_y,red_square,bottom_left,2025-01-22_15h03.18.742,HideSeek_v1,2022.2.5,59.98080614230113,
,2,1,2,6,0,5,11,,train_dim1_1,18,30,,,,2,0,2,0,,,,,,,,,0,0,0,0,0,17,17,17,1,0,1,0,,,,,,,,,,,,,,,,,,,,,,,,,,,,,,,,,,,,,,,,,,,,,,,,,,,,,,,,,,,,,,,,30,,,,,,,,940.2048111000004,940.2048111000004,940.2048111000004,940.2048111000004,940.2048111000004,,,,,up,0.44271310000021913,6,0,0,99,0,-0.15999999999999998,up,0.35587999999916065,,,,,,,,,,,,,,,,,,,,,,,,,,,,,,,,,,,,,,,,,,,,,,,,,,,,,,,,HCV5VL,train_y,red_square,bottom_left,2025-01-22_15h03.18.742,HideSeek_v1,2022.2.5,59.98080614230113,
,2,1,2,6,0,5,11,,train_dim1_1,18,30,,,,2,0,2,0,,,,,,,,,0,0,0,0,0,17,17,17,2,0,2,0,,,,,,,,,,,,,,,,,,,,,,,,,,,,,,,,,,,,,,,,,,,,,,,,,,,,,,,,,,,,,,,,30,,,,,,,,940.6548717000005,940.6548717000005,940.6548717000005,940.6548717000005,940.6548717000005,,,,,up,0.4437137000004441,6,0,0,99,0,-0.07999999999999997,up,0.35893359999954555,,,,,,,,,,,,,,,,,,,,,,,,,,,,,,,,,,,,,,,,,,,,,,,,,,,,,,,,HCV5VL,train_y,red_square,bottom_left,2025-01-22_15h03.18.742,HideSeek_v1,2022.2.5,59.98080614230113,
,2,1,2,6,0,5,11,,train_dim1_1,18,30,,,,2,0,2,0,,,,,,,,,0,0,0,0,0,17,17,17,3,0,3,0,,,,,,,,,,,,,,,,,,,,,,,,,,,,,,,,,,,,,,,,,,,,,,,,,,,,,,,,,,,,,,,,30,,,,,,,,941.1046685000001,941.1046685000001,941.1046685000001,941.1046685000001,941.1046685000001,,,,,up,0.9270093000004636,6,0,0,99,0,2.7755575615628914e-17,up,0.8408917999986443,,,,,,,,,,,,,,,,,,,,,,,,,,,,,,,,,,,,,,,,,,,,,,,,,,,,,,,,HCV5VL,train_y,red_square,bottom_left,2025-01-22_15h03.18.742,HideSeek_v1,2022.2.5,59.98080614230113,
,2,1,2,6,0,5,11,,train_dim1_1,18,30,,,,2,0,2,0,,,,,,,,,0,0,0,0,0,17,17,17,4,0,4,0,,,,,,,,,,,,,,,,,,,,,,,,,,,,,,,,,,,,,,,,,,,,,,,,,,,,,,,,,,,,,,,,30,,,,,,,,942.0412485000006,942.0412485000006,942.0412485000006,942.0412485000006,942.0412485000006,,,,,up,0.47584180000012566,6,0,0,99,0,0.08000000000000003,up,0.38621839999996155,,,,,,,,,,,,,,,,,,,,,,,,,,,,,,,,,,,,,,,,,,,,,,,,,,,,,,,,HCV5VL,train_y,red_square,bottom_left,2025-01-22_15h03.18.742,HideSeek_v1,2022.2.5,59.98080614230113,
,2,1,2,6,0,5,11,,train_dim1_1,18,30,,,,2,0,2,0,,,,,,,,,0,0,0,0,0,17,17,17,5,0,5,0,,,,,,,,,,,,,,,,,,,,,,,,,,,,,,,,,,,,,,,,,,,,,,,,,,,,,,,,,,,,,,,,30,,,,,,,,942.5223219999998,942.5223219999998,942.5223219999998,942.5223219999998,942.5223219999998,44,3,0,0.08000000000000003,return,0.6600250000001324,7,0,0,1,0,0.08000000000000003,return,0.5722866999994949,,,,,,,,,,,,,,,,,,,,,,,,,,,,,,,,,,,,,,,,,,,,,,,,,,,,,,,,HCV5VL,train_y,red_square,bottom_left,2025-01-22_15h03.18.742,HideSeek_v1,2022.2.5,59.98080614230113,
,0,4,0,8,0,4,12,,train_dim1_1,19,30,,,,2,0,2,0,,,,,,,,,0,0,0,0,0,18,18,18,0,0,0,0,,,,,,,,,,,,,,,,,,,,,,,,,stimuli/alien_stimuli/12.png,,,,,,,,,,,,,,,,,,,,,,,,,,,,,stimuli/alien_stimuli/11.png,11,2,20,,,,,,,30,,,,,,,,947.2341094000003,947.2341094000003,947.2341094000003,947.2341094000003,947.2341094000003,,,,,up,2.5873051999997188,7,0,0,99,-0.16,0.0,up,2.507398899999316,945.6752868000003,947.2341094000003,0,0.08,0.4,0.0,-0.12,0,0.0,0,0.08,944.7383790000004,944.7383790000004,944.7383790000004,944.7383790000004,944.7383790000004,944.7383790000004,944.7383790000004,944.7383790000004,944.7247264199998,1.036608100000194,return,0.916708199999448,,,,,,,,,,,,,,,,,,,,,,,,,,,,,,,,,HCV5VL,train_y,red_square,bottom_left,2025-01-22_15h03.18.742,HideSeek_v1,2022.2.5,59.98080614230113,
,0,4,0,8,0,4,12,,train_dim1_1,19,30,,,,2,0,2,0,,,,,,,,,0,0,0,0,0,18,18,18,1,0,1,0,,,,,,,,,,,,,,,,,,,,,,,,,,,,,,,,,,,,,,,,,,,,,,,,,,,,,,,,,,,,,,,,30,,,,,,,,949.8297210999999,949.8297210999999,949.8297210999999,949.8297210999999,949.8297210999999,,,,,up,0.6097841999999218,7,0,0,99,-0.16,0.08,up,0.5209255999989182,,,,,,,,,,,,,,,,,,,,,,,,,,,,,,,,,,,,,,,,,,,,,,,,,,,,,,,,HCV5VL,train_y,red_square,bottom_left,2025-01-22_15h03.18.742,HideSeek_v1,2022.2.5,59.98080614230113,
,0,4,0,8,0,4,12,,train_dim1_1,19,30,,,,2,0,2,0,,,,,,,,,0,0,0,0,0,18,18,18,2,0,2,0,,,,,,,,,,,,,,,,,,,,,,,,,,,,,,,,,,,,,,,,,,,,,,,,,,,,,,,,,,,,,,,,30,,,,,,,,950.4460834000001,950.4460834000001,950.4460834000001,950.4460834000001,950.4460834000001,,,,,up,0.7435450999992099,7,0,0,99,-0.16,0.16,up,0.6556774999990012,,,,,,,,,,,,,,,,,,,,,,,,,,,,,,,,,,,,,,,,,,,,,,,,,,,,,,,,HCV5VL,train_y,red_square,bottom_left,2025-01-22_15h03.18.742,HideSeek_v1,2022.2.5,59.98080614230113,
,0,4,0,8,0,4,12,,train_dim1_1,19,30,,,,2,0,2,0,,,,,,,,,0,0,0,0,0,18,18,18,3,0,3,0,,,,,,,,,,,,,,,,,,,,,,,,,,,,,,,,,,,,,,,,,,,,,,,,,,,,,,,,,,,,,,,,30,,,,,,,,951.1970325000002,951.1970325000002,951.1970325000002,951.1970325000002,951.1970325000002,47,3,-0.16,0.16,return,1.0771717999996326,7,1,0,0,-0.16,0.16,return,0.9906866999999693,,,,,,,,,,,,,,,,,,,,,,,,,,,,,,,,,,,,,,,,,,,,,,,,,,,,,,,,HCV5VL,train_y,red_square,bottom_left,2025-01-22_15h03.18.742,HideSeek_v1,2022.2.5,59.98080614230113,
,2,0,2,0,0,0,16,,train_dim1_1,20,30,,,,2,0,2,0,,,,,,,,,0,0,0,0,0,19,19,19,0,0,0,0,,,,,,,,,,,,,,,,,,,,,,,,,stimuli/alien_stimuli/16.png,,,,,,,,,,,,,,,,,,,,,,,,,,,,,stimuli/alien_stimuli/12.png,12,0,21,,,,,,,30,,,,,,,,957.2916476999999,957.2916476999999,957.2916476999999,957.2916476999999,957.2916476999999,47,3,0,-0.4,return,2.5223478000007162,8,0,0,1,0,-0.4,return,2.4425352999996903,955.7336440999998,957.2916476999999,-0.16,0.24,0.32,0.0,0.07999999999999999,-0.16,-0.16,-0.16,0.24,953.8439562000003,953.8439562000003,953.8439562000003,953.8439562000003,953.8439562000003,953.8439562000003,953.8439562000003,953.8439562000003,953.8322522899998,2.003930699999728,return,1.8704904999995051,,,,,,,,,,,,,,,,,,,,,,,,,,,,,,,,,HCV5VL,train_y,red_square,bottom_left,2025-01-22_15h03.18.742,HideSeek_v1,2022.2.5,59.98080614230113,
,2,4,2,5,0,1,15,,train_dim1_1,21,30,,,,2,0,2,0,,,,,,,,,0,0,0,0,0,20,20,20,0,0,0,0,,,,,,,,,,,,,,,,,,,,,,,,,stimuli/alien_stimuli/15.png,,,,,,,,,,,,,,,,,,,,,,,,,,,,,stimuli/alien_stimuli/16.png,16,2,22,,,,,,,30,,,,,,,,964.6299405,964.6299405,964.6299405,964.6299405,964.6299405,,,,,up,2.339810000000398,8,0,0,99,0,0.0,up,2.257884699999522,963.0062695000006,964.6299405,0,-0.4,0.0,0.0,-0.4,0,0.0,0,-0.4,961.3827127000004,961.3827127000004,961.3827127000004,961.3827127000004,961.3827127000004,961.3827127000004,961.3827127000004,961.3827127000004,961.3718210899997,1.7371541999991678,return,1.6070857999993677,,,,,,,,,,,,,,,,,,,,,,,,,,,,,,,,,HCV5VL,train_y,red_square,bottom_left,2025-01-22_15h03.18.742,HideSeek_v1,2022.2.5,59.98080614230113,
,2,4,2,5,0,1,15,,train_dim1_1,21,30,,,,2,0,2,0,,,,,,,,,0,0,0,0,0,20,20,20,1,0,1,0,,,,,,,,,,,,,,,,,,,,,,,,,,,,,,,,,,,,,,,,,,,,,,,,,,,,,,,,,,,,,,,,30,,,,,,,,966.9769683000004,966.9769683000004,966.9769683000004,966.9769683000004,966.9769683000004,48,3,0,0.0,return,1.2101929000000382,9,0,0,1,0,0.0,return,1.1220595999993748,,,,,,,,,,,,,,,,,,,,,,,,,,,,,,,,,,,,,,,,,,,,,,,,,,,,,,,,HCV5VL,train_y,red_square,bottom_left,2025-01-22_15h03.18.742,HideSeek_v1,2022.2.5,59.98080614230113,
,0,2,0,5,0,3,13,,train_dim1_1,22,30,,,,2,0,2,0,,,,,,,,,0,0,0,0,0,21,21,21,0,0,0,0,,,,,,,,,,,,,,,,,,,,,,,,,stimuli/alien_stimuli/13.png,,,,,,,,,,,,,,,,,,,,,,,,,,,,,stimuli/alien_stimuli/15.png,15,2,23,,,,,,,30,,,,,,,,971.9345198000001,971.9345198000001,971.9345198000001,971.9345198000001,971.9345198000001,,,,,up,2.673350300000493,9,0,0,99,-0.16,-0.15999999999999998,up,2.5862332999995488,970.3793814999999,971.9345198000001,0,0,0.08,0.0,-0.04,0,0.0,0,0,969.7426633000005,969.7426633000005,969.7426633000005,969.7426633000005,969.7426633000005,969.7426633000005,969.7426633000005,969.7426633000005,969.7286979200001,0.7360973999993803,return,0.6091504999994868,,,,,,,,,,,,,,,,,,,,,,,,,,,,,,,,,HCV5VL,train_y,red_square,bottom_left,2025-01-22_15h03.18.742,HideSeek_v1,2022.2.5,59.98080614230113,
,0,2,0,5,0,3,13,,train_dim1_1,22,30,,,,2,0,2,0,,,,,,,,,0,0,0,0,0,21,21,21,1,0,1,0,,,,,,,,,,,,,,,,,,,,,,,,,,,,,,,,,,,,,,,,,,,,,,,,,,,,,,,,,,,,,,,,30,,,,,,,,974.6160424,974.6160424,974.6160424,974.6160424,974.6160424,,,,,up,6.931386200000816,9,0,0,99,-0.16,-0.07999999999999997,up,6.846900599999572,,,,,,,,,,,,,,,,,,,,,,,,,,,,,,,,,,,,,,,,,,,,,,,,,,,,,,,,HCV5VL,train_y,red_square,bottom_left,2025-01-22_15h03.18.742,HideSeek_v1,2022.2.5,59.98080614230113,
,0,2,0,5,0,3,13,,train_dim1_1,22,30,,,,2,0,2,0,,,,,,,,,0,0,0,0,0,21,21,21,2,0,2,0,,,,,,,,,,,,,,,,,,,,,,,,,,,,,,,,,,,,,,,,,,,,,,,,,,,,,,,,,,,,,,,,30,,,,,,,,981.5563748000004,981.5563748000004,981.5563748000004,981.5563748000004,981.5563748000004,,,,,up,2.811860499999966,9,0,0,99,-0.16,2.7755575615628914e-17,up,2.7319686999990154,,,,,,,,,,,,,,,,,,,,,,,,,,,,,,,,,,,,,,,,,,,,,,,,,,,,,,,,HCV5VL,train_y,red_square,bottom_left,2025-01-22_15h03.18.742,HideSeek_v1,2022.2.5,59.98080614230113,
,0,2,0,5,0,3,13,,train_dim1_1,22,30,,,,2,0,2,0,,,,,,,,,0,0,0,0,0,21,21,21,3,0,3,0,,,,,,,,,,,,,,,,,,,,,,,,,,,,,,,,,,,,,,,,,,,,,,,,,,,,,,,,,,,,,,,,30,,,,,,,,984.3736471000002,984.3736471000002,984.3736471000002,984.3736471000002,984.3736471000002,51,3,-0.16,2.7755575615628914e-17,return,1.7774519000004148,10,0,0,1,-0.16,2.7755575615628914e-17,return,1.6870382999995854,,,,,,,,,,,,,,,,,,,,,,,,,,,,,,,,,,,,,,,,,,,,,,,,,,,,,,,,HCV5VL,train_y,red_square,bottom_left,2025-01-22_15h03.18.742,HideSeek_v1,2022.2.5,59.98080614230113,
,0,3,0,8,0,5,11,,train_dim1_1,23,30,,,,2,0,2,0,,,,,,,,,0,0,0,0,0,22,22,22,0,0,0,0,,,,,,,,,,,,,,,,,,,,,,,,,stimuli/alien_stimuli/11.png,,,,,,,,,,,,,,,,,,,,,,,,,,,,,stimuli/alien_stimuli/13.png,13,0,24,,,,,,,30,,,,,,,,990.4170465000007,990.4170465000007,990.4170465000007,990.4170465000007,990.4170465000007,,,,,up,1.5728244000001723,10,0,0,99,-0.16,-0.08,up,1.4826533999994354,988.8610583,990.4170465000007,-0.16,0,0.24,0.0,-0.12,-0.16,-0.16,-0.16,0,987.7228655999997,987.7228655999997,987.7228655999997,987.7228655999997,987.7228655999997,987.7228655999997,987.7228655999997,987.7228655999997,987.7104723900002,1.2532568000005995,return,1.1214205999995102,,,,,,,,,,,,,,,,,,,,,,,,,,,,,,,,,HCV5VL,train_y,red_square,bottom_left,2025-01-22_15h03.18.742,HideSeek_v1,2022.2.5,59.98080614230113,
,0,3,0,8,0,5,11,,train_dim1_1,23,30,,,,2,0,2,0,,,,,,,,,0,0,0,0,0,22,22,22,1,0,1,0,,,,,,,,,,,,,,,,,,,,,,,,,,,,,,,,,,,,,,,,,,,,,,,,,,,,,,,,,,,,,,,,30,,,,,,,,991.999468,991.999468,991.999468,991.999468,991.999468,,,,,up,0.3257557999995697,10,0,0,99,-0.16,0.0,up,0.2484610999999859,,,,,,,,,,,,,,,,,,,,,,,,,,,,,,,,,,,,,,,,,,,,,,,,,,,,,,,,HCV5VL,train_y,red_square,bottom_left,2025-01-22_15h03.18.742,HideSeek_v1,2022.2.5,59.98080614230113,
,0,3,0,8,0,5,11,,train_dim1_1,23,30,,,,2,0,2,0,,,,,,,,,0,0,0,0,0,22,22,22,2,0,2,0,,,,,,,,,,,,,,,,,,,,,,,,,,,,,,,,,,,,,,,,,,,,,,,,,,,,,,,,,,,,,,,,30,,,,,,,,992.3325605,992.3325605,992.3325605,992.3325605,992.3325605,,,,,up,0.3423185999999987,10,0,0,99,-0.16,0.08,up,0.26319489999968937,,,,,,,,,,,,,,,,,,,,,,,,,,,,,,,,,,,,,,,,,,,,,,,,,,,,,,,,HCV5VL,train_y,red_square,bottom_left,2025-01-22_15h03.18.742,HideSeek_v1,2022.2.5,59.98080614230113,
,0,3,0,8,0,5,11,,train_dim1_1,23,30,,,,2,0,2,0,,,,,,,,,0,0,0,0,0,22,22,22,3,0,3,0,,,,,,,,,,,,,,,,,,,,,,,,,,,,,,,,,,,,,,,,,,,,,,,,,,,,,,,,,,,,,,,,30,,,,,,,,992.6819873000004,992.6819873000004,992.6819873000004,992.6819873000004,992.6819873000004,,,,,up,0.37680139999974926,10,0,0,99,-0.16,0.16,up,0.2957319999995889,,,,,,,,,,,,,,,,,,,,,,,,,,,,,,,,,,,,,,,,,,,,,,,,,,,,,,,,HCV5VL,train_y,red_square,bottom_left,2025-01-22_15h03.18.742,HideSeek_v1,2022.2.5,59.98080614230113,
,0,3,0,8,0,5,11,,train_dim1_1,23,30,,,,2,0,2,0,,,,,,,,,0,0,0,0,0,22,22,22,4,0,4,0,,,,,,,,,,,,,,,,,,,,,,,,,,,,,,,,,,,,,,,,,,,,,,,,,,,,,,,,,,,,,,,,30,,,,,,,,993.0662960999998,993.0662960999998,993.0662960999998,993.0662960999998,993.0662960999998,,,,,up,0.5432690999996339,10,0,0,99,-0.16,0.24,up,0.45074229999954696,,,,,,,,,,,,,,,,,,,,,,,,,,,,,,,,,,,,,,,,,,,,,,,,,,,,,,,,HCV5VL,train_y,red_square,bottom_left,2025-01-22_15h03.18.742,HideSeek_v1,2022.2.5,59.98080614230113,
,0,3,0,8,0,5,11,,train_dim1_1,23,30,,,,2,0,2,0,,,,,,,,,0,0,0,0,0,22,22,22,5,0,5,0,,,,,,,,,,,,,,,,,,,,,,,,,,,,,,,,,,,,,,,,,,,,,,,,,,,,,,,,,,,,,,,,30,,,,,,,,993.6168164999999,993.6168164999999,993.6168164999999,993.6168164999999,993.6168164999999,56,3,-0.16,0.24,return,2.2102446999997483,11,0,0,1,-0.16,0.24,return,2.1230565999994724,,,,,,,,,,,,,,,,,,,,,,,,,,,,,,,,,,,,,,,,,,,,,,,,,,,,,,,,HCV5VL,train_y,red_square,bottom_left,2025-01-22_15h03.18.742,HideSeek_v1,2022.2.5,59.98080614230113,
,3,2,3,2,0,0,16,,train_dim1_1,24,30,,,,2,0,2,0,,,,,,,,,0,0,0,0,0,23,23,23,0,0,0,0,,,,,,,,,,,,,,,,,,,,,,,,,stimuli/alien_stimuli/16.png,,,,,,,,,,,,,,,,,,,,,,,,,,,,,stimuli/alien_stimuli/11.png,11,0,25,,,,,,,30,,,,,,,,999.9923333000006,999.9923333000006,999.9923333000006,999.9923333000006,999.9923333000006,56,3,0.08,-0.24,return,1.2722018000004027,12,0,0,1,0.08,-0.24,return,1.1968264999995881,998.4357696000006,999.9923333000006,-0.16,0.24,0.4,0.0,0.039999999999999994,-0.16,-0.16,-0.16,0.24,997.3841686000005,997.3841686000005,997.3841686000005,997.3841686000005,997.3841686000005,997.3841686000005,997.3841686000005,997.3841686000005,997.3849782899997,1.1531325000005381,return,1.0212385999993785,,,,,,,,,,,,,,,,,,,,,,,,,,,,,,,,,HCV5VL,train_y,red_square,bottom_left,2025-01-22_15h03.18.742,HideSeek_v1,2022.2.5,59.98080614230113,
,3,3,3,7,0,4,12,,train_dim1_1,25,30,,,,2,0,2,0,,,,,,,,,0,0,0,0,0,24,24,24,0,0,0,0,,,,,,,,,,,,,,,,,,,,,,,,,stimuli/alien_stimuli/12.png,,,,,,,,,,,,,,,,,,,,,,,,,,,,,stimuli/alien_stimuli/16.png,16,3,26,,,,,,,30,,,,,,,,1006.6977873000005,1006.6977873000005,1006.6977873000005,1006.6977873000005,1006.6977873000005,,,,,up,2.2066211999999723,12,0,0,99,0.08,-0.08,up,2.1266586999990977,1005.1412582000003,1006.6977873000005,0.08,-0.24,0.0,0.0,-0.24,0.08,0.08,0.08,-0.24,1002.8179547,1002.8179547,1002.8179547,1002.8179547,1002.8179547,1002.8179547,1002.8179547,1002.8179547,1002.8060346200002,2.4210290999999415,return,2.291483399999379,,,,,,,,,,,,,,,,,,,,,,,,,,,,,,,,,HCV5VL,train_y,red_square,bottom_left,2025-01-22_15h03.18.742,HideSeek_v1,2022.2.5,59.98080614230113,
,3,3,3,7,0,4,12,,train_dim1_1,25,30,,,,2,0,2,0,,,,,,,,,0,0,0,0,0,24,24,24,1,0,1,0,,,,,,,,,,,,,,,,,,,,,,,,,,,,,,,,,,,,,,,,,,,,,,,,,,,,,,,,,,,,,,,,30,,,,,,,,1008.9106975000004,1008.9106975000004,1008.9106975000004,1008.9106975000004,1008.9106975000004,,,,,up,0.559659799999281,12,0,0,99,0.08,0.0,up,0.47239649999937683,,,,,,,,,,,,,,,,,,,,,,,,,,,,,,,,,,,,,,,,,,,,,,,,,,,,,,,,HCV5VL,train_y,red_square,bottom_left,2025-01-22_15h03.18.742,HideSeek_v1,2022.2.5,59.98080614230113,
,3,3,3,7,0,4,12,,train_dim1_1,25,30,,,,2,0,2,0,,,,,,,,,0,0,0,0,0,24,24,24,2,0,2,0,,,,,,,,,,,,,,,,,,,,,,,,,,,,,,,,,,,,,,,,,,,,,,,,,,,,,,,,,,,,,,,,30,,,,,,,,1009.4791310999999,1009.4791310999999,1009.4791310999999,1009.4791310999999,1009.4791310999999,,,,,up,0.5435575000001336,12,0,0,99,0.08,0.08,up,0.4639265999994677,,,,,,,,,,,,,,,,,,,,,,,,,,,,,,,,,,,,,,,,,,,,,,,,,,,,,,,,HCV5VL,train_y,red_square,bottom_left,2025-01-22_15h03.18.742,HideSeek_v1,2022.2.5,59.98080614230113,
,3,3,3,7,0,4,12,,train_dim1_1,25,30,,,,2,0,2,0,,,,,,,,,0,0,0,0,0,24,24,24,3,0,3,0,,,,,,,,,,,,,,,,,,,,,,,,,,,,,,,,,,,,,,,,,,,,,,,,,,,,,,,,,,,,,,,,30,,,,,,,,1010.0294401000001,1010.0294401000001,1010.0294401000001,1010.0294401000001,1010.0294401000001,,,,,up,0.49327699999957986,12,0,0,99,0.08,0.16,up,0.41280469999946945,,,,,,,,,,,,,,,,,,,,,,,,,,,,,,,,,,,,,,,,,,,,,,,,,,,,,,,,HCV5VL,train_y,red_square,bottom_left,2025-01-22_15h03.18.742,HideSeek_v1,2022.2.5,59.98080614230113,
,3,3,3,7,0,4,12,,train_dim1_1,25,30,,,,2,0,2,0,,,,,,,,,0,0,0,0,0,24,24,24,4,0,4,0,,,,,,,,,,,,,,,,,,,,,,,,,,,,,,,,,,,,,,,,,,,,,,,,,,,,,,,,,,,,,,,,30,,,,,,,,1010.5291129000007,1010.5291129000007,1010.5291129000007,1010.5291129000007,1010.5291129000007,60,3,0.08,0.16,return,0.7269899000002624,13,0,0,1,0.08,0.16,return,0.6384591999994882,,,,,,,,,,,,,,,,,,,,,,,,,,,,,,,,,,,,,,,,,,,,,,,,,,,,,,,,HCV5VL,train_y,red_square,bottom_left,2025-01-22_15h03.18.742,HideSeek_v1,2022.2.5,59.98080614230113,
,4,4,4,7,0,3,13,,train_dim1_1,26,30,,,,2,0,2,0,,,,,,,,,0,0,0,0,0,25,25,25,0,0,0,0,,,,,,,,,,,,,,,,,,,,,,,,,stimuli/alien_stimuli/13.png,,,,,,,,,,,,,,,,,,,,,,,,,,,,,stimuli/alien_stimuli/12.png,12,3,27,,,,,,,30,,,,,,,,1015.1547274000004,1015.1547274000004,1015.1547274000004,1015.1547274000004,1015.1547274000004,,,,,up,1.5565183999997316,13,0,0,99,0.16,0.0,up,1.4702007999994748,1013.5982116000005,1015.1547274000004,0.08,0.16,0.32,0.0,0.0,0.08,0.08,0.08,0.16,1012.8123528000006,1012.8123528000006,1012.8123528000006,1012.8123528000006,1012.8123528000006,1012.8123528000006,1012.8123528000006,1012.8123528000006,1012.8143380900001,0.8864401999999245,return,0.7612729999991643,,,,,,,,,,,,,,,,,,,,,,,,,,,,,,,,,HCV5VL,train_y,red_square,bottom_left,2025-01-22_15h03.18.742,HideSeek_v1,2022.2.5,59.98080614230113,
,4,4,4,7,0,3,13,,train_dim1_1,26,30,,,,2,0,2,0,,,,,,,,,0,0,0,0,0,25,25,25,1,0,1,0,,,,,,,,,,,,,,,,,,,,,,,,,,,,,,,,,,,,,,,,,,,,,,,,,,,,,,,,,,,,,,,,30,,,,,,,,1016.7172025,1016.7172025,1016.7172025,1016.7172025,1016.7172025,,,,,up,0.42635410000002594,13,0,0,99,0.16,0.08,up,0.3486871999994037,,,,,,,,,,,,,,,,,,,,,,,,,,,,,,,,,,,,,,,,,,,,,,,,,,,,,,,,HCV5VL,train_y,red_square,bottom_left,2025-01-22_15h03.18.742,HideSeek_v1,2022.2.5,59.98080614230113,
,4,4,4,7,0,3,13,,train_dim1_1,26,30,,,,2,0,2,0,,,,,,,,,0,0,0,0,0,25,25,25,2,0,2,0,,,,,,,,,,,,,,,,,,,,,,,,,,,,,,,,,,,,,,,,,,,,,,,,,,,,,,,,,,,,,,,,30,,,,,,,,1017.1500808000001,1017.1500808000001,1017.1500808000001,1017.1500808000001,1017.1500808000001,,,,,up,0.4100858000001608,13,0,0,99,0.16,0.16,up,0.32266529999924387,,,,,,,,,,,,,,,,,,,,,,,,,,,,,,,,,,,,,,,,,,,,,,,,,,,,,,,,HCV5VL,train_y,red_square,bottom_left,2025-01-22_15h03.18.742,HideSeek_v1,2022.2.5,59.98080614230113,
,4,4,4,7,0,3,13,,train_dim1_1,26,30,,,,2,0,2,0,,,,,,,,,0,0,0,0,0,25,25,25,3,0,3,0,,,,,,,,,,,,,,,,,,,,,,,,,,,,,,,,,,,,,,,,,,,,,,,,,,,,,,,,,,,,,,,,30,,,,,,,,1017.5676204000001,1017.5676204000001,1017.5676204000001,1017.5676204000001,1017.5676204000001,63,3,0.16,0.16,return,0.4763081000000966,14,0,0,1,0.16,0.16,return,0.3939191999998002,,,,,,,,,,,,,,,,,,,,,,,,,,,,,,,,,,,,,,,,,,,,,,,,,,,,,,,,HCV5VL,train_y,red_square,bottom_left,2025-01-22_15h03.18.742,HideSeek_v1,2022.2.5,59.98080614230113,
,3,4,3,4,0,0,16,,train_dim1_1,27,30,,,,2,0,2,0,,,,,,,,,0,0,0,0,0,26,26,26,0,0,0,0,,,,,,,,,,,,,,,,,,,,,,,,,stimuli/alien_stimuli/16.png,,,,,,,,,,,,,,,,,,,,,,,,,,,,,stimuli/alien_stimuli/13.png,13,4,28,,,,,,,30,,,,,,,,1022.3773508000004,1022.3773508000004,1022.3773508000004,1022.3773508000004,1022.3773508000004,63,3,0.08,-0.08,return,1.289457500000026,15,0,0,1,0.08,-0.08,return,1.1990652999993472,1020.8209473000006,1022.3773508000004,0.16,0.16,0.24,0.0,0.04,0.16,0.16,0.16,0.16,1019.5986613000005,1019.5986613000005,1019.5986613000005,1019.5986613000005,1019.5986613000005,1019.5986613000005,1019.5986613000005,1019.5986613000005,1019.5867883200001,1.3197172999998656,return,1.20325689999936,,,,,,,,,,,,,,,,,,,,,,,,,,,,,,,,,HCV5VL,train_y,red_square,bottom_left,2025-01-22_15h03.18.742,HideSeek_v1,2022.2.5,59.98080614230113,
,4,1,4,6,0,5,11,,train_dim1_1,28,30,,,,2,0,2,0,,,,,,,,,0,0,0,0,0,27,27,27,0,0,0,0,,,,,,,,,,,,,,,,,,,,,,,,,stimuli/alien_stimuli/11.png,,,,,,,,,,,,,,,,,,,,,,,,,,,,,stimuli/alien_stimuli/16.png,16,3,29,,,,,,,30,,,,,,,,1027.3145278000002,1027.3145278000002,1027.3145278000002,1027.3145278000002,1027.3145278000002,,,,,up,1.539133899999797,15,0,0,99,0.16,-0.24,up,1.4620279999999184,1025.7585868000006,1027.3145278000002,0.08,-0.08,0.0,0.0,-0.08,0.08,0.08,0.08,-0.08,1025.2211983000007,1025.2211983000007,1025.2211983000007,1025.2211983000007,1025.2211983000007,1025.2211983000007,1025.2211983000007,1025.2211983000007,1025.20797452,0.6361956000000646,return,0.5065845999997691,,,,,,,,,,,,,,,,,,,,,,,,,,,,,,,,,HCV5VL,train_y,red_square,bottom_left,2025-01-22_15h03.18.742,HideSeek_v1,2022.2.5,59.98080614230113,
,4,1,4,6,0,5,11,,train_dim1_1,28,30,,,,2,0,2,0,,,,,,,,,0,0,0,0,0,27,27,27,1,0,1,0,,,,,,,,,,,,,,,,,,,,,,,,,,,,,,,,,,,,,,,,,,,,,,,,,,,,,,,,,,,,,,,,30,,,,,,,,1028.8615583,1028.8615583,1028.8615583,1028.8615583,1028.8615583,,,,,up,0.29279089999999997,15,0,0,99,0.16,-0.15999999999999998,up,0.20866389999901003,,,,,,,,,,,,,,,,,,,,,,,,,,,,,,,,,,,,,,,,,,,,,,,,,,,,,,,,HCV5VL,train_y,red_square,bottom_left,2025-01-22_15h03.18.742,HideSeek_v1,2022.2.5,59.98080614230113,
,4,1,4,6,0,5,11,,train_dim1_1,28,30,,,,2,0,2,0,,,,,,,,,0,0,0,0,0,27,27,27,2,0,2,0,,,,,,,,,,,,,,,,,,,,,,,,,,,,,,,,,,,,,,,,,,,,,,,,,,,,,,,,,,,,,,,,30,,,,,,,,1029.1614094000006,1029.1614094000006,1029.1614094000006,1029.1614094000006,1029.1614094000006,,,,,up,0.30994710000049963,15,0,0,99,0.16,-0.07999999999999997,up,0.22478179999961867,,,,,,,,,,,,,,,,,,,,,,,,,,,,,,,,,,,,,,,,,,,,,,,,,,,,,,,,HCV5VL,train_y,red_square,bottom_left,2025-01-22_15h03.18.742,HideSeek_v1,2022.2.5,59.98080614230113,
,4,1,4,6,0,5,11,,train_dim1_1,28,30,,,,2,0,2,0,,,,,,,,,0,0,0,0,0,27,27,27,3,0,3,0,,,,,,,,,,,,,,,,,,,,,,,,,,,,,,,,,,,,,,,,,,,,,,,,,,,,,,,,,,,,,,,,30,,,,,,,,1029.4776398000004,1029.4776398000004,1029.4776398000004,1029.4776398000004,1029.4776398000004,,,,,up,0.3266505000001416,15,0,0,99,0.16,2.7755575615628914e-17,up,0.24305629999980738,,,,,,,,,,,,,,,,,,,,,,,,,,,,,,,,,,,,,,,,,,,,,,,,,,,,,,,,HCV5VL,train_y,red_square,bottom_left,2025-01-22_15h03.18.742,HideSeek_v1,2022.2.5,59.98080614230113,
,4,1,4,6,0,5,11,,train_dim1_1,28,30,,,,2,0,2,0,,,,,,,,,0,0,0,0,0,27,27,27,4,0,4,0,,,,,,,,,,,,,,,,,,,,,,,,,,,,,,,,,,,,,,,,,,,,,,,,,,,,,,,,,,,,,,,,30,,,,,,,,1029.8119888,1029.8119888,1029.8119888,1029.8119888,1029.8119888,,,,,up,0.32701670000005834,15,0,0,99,0.16,0.08000000000000003,up,0.24282319999929314,,,,,,,,,,,,,,,,,,,,,,,,,,,,,,,,,,,,,,,,,,,,,,,,,,,,,,,,HCV5VL,train_y,red_square,bottom_left,2025-01-22_15h03.18.742,HideSeek_v1,2022.2.5,59.98080614230113,
,4,1,4,6,0,5,11,,train_dim1_1,28,30,,,,2,0,2,0,,,,,,,,,0,0,0,0,0,27,27,27,5,0,5,0,,,,,,,,,,,,,,,,,,,,,,,,,,,,,,,,,,,,,,,,,,,,,,,,,,,,,,,,,,,,,,,,30,,,,,,,,1030.1455167000004,1030.1455167000004,1030.1455167000004,1030.1455167000004,1030.1455167000004,68,3,0.16,0.08000000000000003,return,0.7268445999998221,16,0,0,1,0.16,0.08000000000000003,return,0.6458197999991171,,,,,,,,,,,,,,,,,,,,,,,,,,,,,,,,,,,,,,,,,,,,,,,,,,,,,,,,HCV5VL,train_y,red_square,bottom_left,2025-01-22_15h03.18.742,HideSeek_v1,2022.2.5,59.98080614230113,
,2,2,2,6,0,4,12,,train_dim1_1,29,30,,,,2,0,2,0,,,,,,,,,0,0,0,0,0,28,28,28,0,0,0,0,,,,,,,,,,,,,,,,,,,,,,,,,stimuli/alien_stimuli/12.png,,,,,,,,,,,,,,,,,,,,,,,,,,,,,stimuli/alien_stimuli/11.png,11,4,30,,,,,,,30,,,,,,,,1034.9372129000003,1034.9372129000003,1034.9372129000003,1034.9372129000003,1034.9372129000003,,,,,up,3.7077165000000605,16,0,0,99,0,-0.15999999999999998,up,3.6279089999989083,1033.3814557000005,1034.9372129000003,0.16,0.08,0.4,0.0,-0.12,0.16,0.16,0.16,0.08,1032.4266840999999,1032.4266840999999,1032.4266840999999,1032.4266840999999,1032.4266840999999,1032.4266840999999,1032.4266840999999,1032.4266840999999,1032.4140009200003,1.0529536000003645,return,0.9367631999994046,,,,,,,,,,,,,,,,,,,,,,,,,,,,,,,,,HCV5VL,train_y,red_square,bottom_left,2025-01-22_15h03.18.742,HideSeek_v1,2022.2.5,59.98080614230113,
,2,2,2,6,0,4,12,,train_dim1_1,29,30,,,,2,0,2,0,,,,,,,,,0,0,0,0,0,28,28,28,1,0,1,0,,,,,,,,,,,,,,,,,,,,,,,,,,,,,,,,,,,,,,,,,,,,,,,,,,,,,,,,,,,,,,,,30,,,,,,,,1038.6529479,1038.6529479,1038.6529479,1038.6529479,1038.6529479,,,,,up,0.49304860000029294,16,0,0,99,0,-0.07999999999999997,up,0.41487210000013874,,,,,,,,,,,,,,,,,,,,,,,,,,,,,,,,,,,,,,,,,,,,,,,,,,,,,,,,HCV5VL,train_y,red_square,bottom_left,2025-01-22_15h03.18.742,HideSeek_v1,2022.2.5,59.98080614230113,
,2,2,2,6,0,4,12,,train_dim1_1,29,30,,,,2,0,2,0,,,,,,,,,0,0,0,0,0,28,28,28,2,0,2,0,,,,,,,,,,,,,,,,,,,,,,,,,,,,,,,,,,,,,,,,,,,,,,,,,,,,,,,,,,,,,,,,30,,,,,,,,1039.1526683000002,1039.1526683000002,1039.1526683000002,1039.1526683000002,1039.1526683000002,,,,,up,0.544014199999765,16,0,0,99,0,2.7755575615628914e-17,up,0.45234699999946315,,,,,,,,,,,,,,,,,,,,,,,,,,,,,,,,,,,,,,,,,,,,,,,,,,,,,,,,HCV5VL,train_y,red_square,bottom_left,2025-01-22_15h03.18.742,HideSeek_v1,2022.2.5,59.98080614230113,
,2,2,2,6,0,4,12,,train_dim1_1,29,30,,,,2,0,2,0,,,,,,,,,0,0,0,0,0,28,28,28,3,0,3,0,,,,,,,,,,,,,,,,,,,,,,,,,,,,,,,,,,,,,,,,,,,,,,,,,,,,,,,,,,,,,,,,30,,,,,,,,1039.7035950999998,1039.7035950999998,1039.7035950999998,1039.7035950999998,1039.7035950999998,,,,,up,0.5430976999996346,16,0,0,99,0,0.08000000000000003,up,0.45463419999941834,,,,,,,,,,,,,,,,,,,,,,,,,,,,,,,,,,,,,,,,,,,,,,,,,,,,,,,,HCV5VL,train_y,red_square,bottom_left,2025-01-22_15h03.18.742,HideSeek_v1,2022.2.5,59.98080614230113,
,2,2,2,6,0,4,12,,train_dim1_1,29,30,,,,2,0,2,0,,,,,,,,,0,0,0,0,0,28,28,28,4,0,4,0,,,,,,,,,,,,,,,,,,,,,,,,,,,,,,,,,,,,,,,,,,,,,,,,,,,,,,,,,,,,,,,,30,,,,,,,,1040.2539523000005,1040.2539523000005,1040.2539523000005,1040.2539523000005,1040.2539523000005,72,3,0,0.08000000000000003,return,0.8269540999999663,17,0,0,1,0,0.08000000000000003,return,0.749418199999127,,,,,,,,,,,,,,,,,,,,,,,,,,,,,,,,,,,,,,,,,,,,,,,,,,,,,,,,HCV5VL,train_y,red_square,bottom_left,2025-01-22_15h03.18.742,HideSeek_v1,2022.2.5,59.98080614230113,
,0,1,0,2,0,1,15,,train_dim1_1,30,30,,,,2,0,2,0,,,,,,,,,0,0,0,0,0,29,29,29,0,0,0,0,,,,,,,,,,,,,,,,,,,,,,,,,stimuli/alien_stimuli/15.png,,,,,,,,,,,,,,,,,,,,,,,,,,,,,stimuli/alien_stimuli/12.png,12,2,31,,,,,,,30,,,,,,,,1045.0465430000004,1045.0465430000004,1045.0465430000004,1045.0465430000004,1045.0465430000004,,,,,up,2.690082699999948,17,0,0,99,-0.16,-0.24,up,2.6036948999999368,1043.4898349000005,1045.0465430000004,0,0.08,0.32,0.0,-0.07999999999999999,0,0.0,0,0.08,1042.6390298000006,1042.6390298000006,1042.6390298000006,1042.6390298000006,1042.6390298000006,1042.6390298000006,1042.6390298000006,1042.6390298000006,1042.6391317899997,0.953113200000189,return,0.826922199999899,,,,,,,,,,,,,,,,,,,,,,,,,,,,,,,,,HCV5VL,train_y,red_square,bottom_left,2025-01-22_15h03.18.742,HideSeek_v1,2022.2.5,59.98080614230113,
,0,1,0,2,0,1,15,,train_dim1_1,30,30,,,,2,0,2,0,,,,,,,,,0,0,0,0,0,29,29,29,1,0,1,0,,,,,,,,,,,,,,,,,,,,,,,,,,,,,,,,,,,,,,,,,,,,,,,,,,,,,,,,,,,,,,,,30,,,,,,,,1047.7445483000001,1047.7445483000001,1047.7445483000001,1047.7445483000001,1047.7445483000001,73,3,-0.16,-0.24,return,0.8596689000005426,18,0,0,1,-0.16,-0.24,return,0.7732635999991544,,,,,,,,,,,,,,,,,,,,,,,,,,,,,,,,,,,,,,,,,,,,,,,,,,,,,,,,HCV5VL,train_y,red_square,bottom_left,2025-01-22_15h03.18.742,HideSeek_v1,2022.2.5,59.98080614230113,
,,,,,,,,,,,30,,,,2,0,2,0,,,,,,,,,,,,,,,,,,,,,,,,,,,,,,,,,,,,,,,,,,,,,,,,,,,,,,,,,,,,,,,,,,,,,,,,,,stimuli/alien_stimuli/15.png,15,0,32,21,0.7,0.75,1,1,1,30,0,conditions/schedules/train_y_first/red_square_00/bottom_left/inputTrain_2.1.xlsx,99,1,2,1,0,,,,,,,,,,,,,,,1,,,,,1050.8624489000003,1052.4181055999998,-0.16,-0.24,0.08,0.0,-0.28,-0.16,-0.16,-0.16,-0.24,1050.1575400000002,1050.1575400000002,1050.1575400000002,1050.1575400000002,1050.1575400000002,1050.1575400000002,1050.1575400000002,1050.1575400000002,1050.1454478199996,0.8026780999998664,return,0.6802248999993026,0,0.9,0,1,18,,,,,,,,,,,,,,,,,,,,,,,,,,,,HCV5VL,train_y,red_square,bottom_left,2025-01-22_15h03.18.742,HideSeek_v1,2022.2.5,59.98080614230113,
,,,,,,,,,,,,,,,3,0,3,0,0,0,0,0,,,,,,,,,,,,,,,,,,,,,,,,,,,,,,,conditions/schedules/train_y_first/red_square_00/bottom_left/instructions/Slide17.png,conditions/schedules/train_y_first/red_square_00/bottom_left/instructions/Audio17.wav,1052.4181055999998,1052.4137453800001,17,"[5.005765500000052, 18.700582100000247, 336.61873639999976, 20.000608499999544, 7.00759139999991, 4.720242099999268, 5.770436799999516, 11.773994500000299, 6.405490500000269, 7.103661299999658, 10.221095599999899, 14.0596544, 17.430883699999868, 16.409039400000438, 43.23157960000026, 22.933456700000534, 47.69973879999998]","[0.00027850000060425373, 0.0002162000000680564, 0.0002040999997916515, 20.000615399999333, 0.014062799999919662, 0.04954619999989518, 0.0002096999996865634, 0.013020100000176171, 0.03060300000015559, 0.07930420000047889, 0.00022639999951934442, 14.059661700000106, 0.03052430000025197, 16.40905010000006, 0.013879600000109349, 22.933463600000323, 47.69974600000023]",0,,,,,,,,,,,,,,,,,,,,,,,,,,,,,,,,,,,,,,,,,,,,,,,,,,,,,,,,,,,,,,,,,,,,,,,,,,,,,,,,,,,,,,,,,,,,,,,,,,,,,,,,,,,,,,,,,,,,,,,,,,,,HCV5VL,train_y,red_square,bottom_left,2025-01-22_15h03.18.742,HideSeek_v1,2022.2.5,59.98080614230113,
,,,,,,,,,,,,,,,3,0,3,0,1,0,1,0,,,,,,,,,,,,,,,,,,,,,,,,,,,,,,,conditions/schedules/train_y_first/red_square_00/bottom_left/instructions/Slide18.png,conditions/schedules/train_y_first/red_square_00/bottom_left/instructions/Audio18.wav,1100.1812587000004,1100.1702625799996,18,"[5.005765500000052, 18.700582100000247, 336.61873639999976, 20.000608499999544, 7.00759139999991, 4.720242099999268, 5.770436799999516, 11.773994500000299, 6.405490500000269, 7.103661299999658, 10.221095599999899, 14.0596544, 17.430883699999868, 16.409039400000438, 43.23157960000026, 22.933456700000534, 47.69973879999998, 6.442499400000088]","[0.00027850000060425373, 0.0002162000000680564, 0.0002040999997916515, 20.000615399999333, 0.014062799999919662, 0.04954619999989518, 0.0002096999996865634, 0.013020100000176171, 0.03060300000015559, 0.07930420000047889, 0.00022639999951934442, 14.059661700000106, 0.03052430000025197, 16.40905010000006, 0.013879600000109349, 22.933463600000323, 47.69974600000023, 6.4425068999998985]",0,,,,,,,,,,,,,,,,,,,,,,,,,,,,,,,,,,,,,,,,,,,,,,,,,,,,,,,,,,,,,,,,,,,,,,,,,,,,,,,,,,,,,,,,,,,,,,,,,,,,,,,,,,,,,,,,,,,,,,,,,,,,HCV5VL,train_y,red_square,bottom_left,2025-01-22_15h03.18.742,HideSeek_v1,2022.2.5,59.98080614230113,
,,,,,,,,,,,,,,,3,0,3,0,2,0,2,0,,,,,,,,,,,,,,,,,,,,,,,,,,,,,,,conditions/schedules/train_y_first/red_square_00/bottom_left/instructions/Slide19.png,conditions/schedules/train_y_first/red_square_00/bottom_left/instructions/Audio19.wav,1106.6778602000004,1106.6760655799997,19,"[5.005765500000052, 18.700582100000247, 336.61873639999976, 20.000608499999544, 7.00759139999991, 4.720242099999268, 5.770436799999516, 11.773994500000299, 6.405490500000269, 7.103661299999658, 10.221095599999899, 14.0596544, 17.430883699999868, 16.409039400000438, 43.23157960000026, 22.933456700000534, 47.69973879999998, 6.442499400000088, 10.453980700000102]","[0.00027850000060425373, 0.0002162000000680564, 0.0002040999997916515, 20.000615399999333, 0.014062799999919662, 0.04954619999989518, 0.0002096999996865634, 0.013020100000176171, 0.03060300000015559, 0.07930420000047889, 0.00022639999951934442, 14.059661700000106, 0.03052430000025197, 16.40905010000006, 0.013879600000109349, 22.933463600000323, 47.69974600000023, 0.047170099999675585, 10.453987300000335]",0,,,,,,,,,,,,,,,,,,,,,,,,,,,,,,,,,,,,,,,,,,,,,,,,,,,,,,,,,,,,,,,,,,,,,,,,,,,,,,,,,,,,,,,,,,,,,,,,,,,,,,,,,,,,,,,,,,,,,,,,,,,,HCV5VL,train_y,red_square,bottom_left,2025-01-22_15h03.18.742,HideSeek_v1,2022.2.5,59.98080614230113,
,,,,,,,,,,,,,,,3,0,3,0,3,0,3,0,,,,,,,,,,,,,,,,,,,,,,,,,,,,,,,conditions/schedules/train_y_first/red_square_00/bottom_left/instructions/Slide20.png,conditions/schedules/train_y_first/red_square_00/bottom_left/instructions/Audio20.wav,1117.2009374999998,1117.20106085,20,"[5.005765500000052, 18.700582100000247, 336.61873639999976, 20.000608499999544, 7.00759139999991, 4.720242099999268, 5.770436799999516, 11.773994500000299, 6.405490500000269, 7.103661299999658, 10.221095599999899, 14.0596544, 17.430883699999868, 16.409039400000438, 43.23157960000026, 22.933456700000534, 47.69973879999998, 6.442499400000088, 10.453980700000102, 12.607079200000044]","[0.00027850000060425373, 0.0002162000000680564, 0.0002040999997916515, 20.000615399999333, 0.014062799999919662, 0.04954619999989518, 0.0002096999996865634, 0.013020100000176171, 0.03060300000015559, 0.07930420000047889, 0.00022639999951934442, 14.059661700000106, 0.03052430000025197, 16.40905010000006, 0.013879600000109349, 22.933463600000323, 47.69974600000023, 0.047170099999675585, 0.02946799999972427, 12.607086099999833]",0,,,,,,,,,,,,,,,,,,,,,,,,,,,,,,,,,,,,,,,,,,,,,,,,,,,,,,,,,,,,,,,,,,,,,,,,,,,,,,,,,,,,,,,,,,,,,,,,,,,,,,,,,,,,,,,,,,,,,,,,,,,,HCV5VL,train_y,red_square,bottom_left,2025-01-22_15h03.18.742,HideSeek_v1,2022.2.5,59.98080614230113,
1,3,2,8,2,5,0,66,2,instr_dim1_2,,,,,,3,0,3,0,,,,,0,0,0,0,,,,,,,,,,,,,,,,,,,,,,,,,,,,,,,,,,,,,stimuli/alien_stimuli/66.png,conditions/schedules/train_y_first/red_square_00/bottom_left/inputInstr_2.xlsx,stimuli/alien_stimuli/66.png,1129.9051262000003,1129.9051262000003,1129.9051262000003,1129.9051262000003,1129.8947403200002,return,6.717966199998955,"[-0.16, -0.08, 0, 0.08, 0.16, 0.24, 0.32, 0.4, 0.48, 0.56]","[-0.4, -0.32, -0.24, -0.16, -0.08, 0, 0.08, 0.16, 0.24, 0.32]",2,2,8,3,0.0,0.4,1136.7670742,1136.7670742,1136.7670742,1136.7670742,1136.7670742,1136.7670742,1136.7670742,1136.74978319,7.525187599999299,return,7.386709399999745,stimuli/alien_stimuli/66.png,66,3,1,,,,,,,,,,,,,,,,,,,,,,,,,,,,,,,,,,,,,,,,,,,,,,,,,,,,,,,,,,,,,,,,,,,,,,,,,,,,,,,,,,,,,,,,,HCV5VL,train_y,red_square,bottom_left,2025-01-22_15h03.18.742,HideSeek_v1,2022.2.5,59.98080614230113,
,,,,,,,,,,,30,,,,3,0,3,0,,,,,,,,,,,,,,,,,,,,,,,,,,,,,,,,,,,,,,,,,,,,,,,,,,,,,,,,,,,,,,,,,,,,,,,,,,,,,,21,0.7,0.75,1,99,2,30,0,conditions/schedules/train_y_first/red_square_00/bottom_left/inputTrain_2.1.xlsx,99,1,2,1,0,,,,,,,,,,,,,,,,,,,,,,,,,,,,,,,,,,,,,,,,,,,,,,,,,,,,,,,,,,,,,,,,,,,,,,,,,,,HCV5VL,train_y,red_square,bottom_left,2025-01-22_15h03.18.742,HideSeek_v1,2022.2.5,59.98080614230113,
,,,,,,,,,,,,,,,4,0,4,0,0,0,0,0,,,,,,,,,,,,,,,,,,,,,,,,,,,,,,,conditions/schedules/train_y_first/red_square_00/bottom_left/instructions/Slide21.png,conditions/schedules/train_y_first/red_square_00/bottom_left/instructions/Audio21.wav,1144.31383,1144.3069440299998,21,"[5.005765500000052, 18.700582100000247, 336.61873639999976, 20.000608499999544, 7.00759139999991, 4.720242099999268, 5.770436799999516, 11.773994500000299, 6.405490500000269, 7.103661299999658, 10.221095599999899, 14.0596544, 17.430883699999868, 16.409039400000438, 43.23157960000026, 22.933456700000534, 47.69973879999998, 6.442499400000088, 10.453980700000102, 12.607079200000044, 13.234056799999962]","[0.00027850000060425373, 0.0002162000000680564, 0.0002040999997916515, 20.000615399999333, 0.014062799999919662, 0.04954619999989518, 0.0002096999996865634, 0.013020100000176171, 0.03060300000015559, 0.07930420000047889, 0.00022639999951934442, 14.059661700000106, 0.03052430000025197, 16.40905010000006, 0.013879600000109349, 22.933463600000323, 47.69974600000023, 0.047170099999675585, 0.02946799999972427, 12.607086099999833, 13.234063699999751]",0,,,,,,,,,,,,,,,,,,,,,,,,,,,,,,,,,,,,,,,,,,,,,,,,,,,,,,,,,,,,,,,,,,,,,,,,,,,,,,,,,,,,,,,,,,,,,,,,,,,,,,,,,,,,,,,,,,,,,,,,,,,,HCV5VL,train_y,red_square,bottom_left,2025-01-22_15h03.18.742,HideSeek_v1,2022.2.5,59.98080614230113,
2,4,0,4,0,0,0,16,2,instr_dim1_2,,,,,,4,0,4,0,,,,,0,0,0,0,,,,,,,,,,,,,,,,,,,,,,,,,,,,,,,,,,,,,stimuli/alien_stimuli/16.png,conditions/schedules/train_y_first/red_square_00/bottom_left/inputInstr_2.xlsx,stimuli/alien_stimuli/16.png,1157.6519515,1157.6519515,1157.6519515,1157.6519515,1157.6514462900004,return,6.3350894999994125,"[-0.16, -0.08, 0, 0.08, 0.16, 0.24, 0.32, 0.4, 0.48, 0.56]","[-0.4, -0.32, -0.24, -0.16, -0.08, 0, 0.08, 0.16, 0.24, 0.32]",0,0,4,4,0.0,0.0,1164.1603489,1164.1603489,1164.1603489,1164.1603489,1164.1603489,1164.1603489,1164.1603489,1164.1401346300001,6.555893800000376,return,6.377312699999493,stimuli/alien_stimuli/16.png,16,4,2,,,,,,,,,,,,,,,,,,,,,,,,,,,,,,,,,,,,,,,,,,,,,,,,,,,,,,,,,,,,,,,,,,,,,,,,,,,,,,,,,,,,,,,,,HCV5VL,train_y,red_square,bottom_left,2025-01-22_15h03.18.742,HideSeek_v1,2022.2.5,59.98080614230113,
,,,,,,,,,,,30,,,,4,0,4,0,,,,,,,,,,,,,,,,,,,,,,,,,,,,,,,,,,,,,,,,,,,,,,,,,,,,,,,,,,,,,,,,,,,,,,,,,,,,,,21,0.7,0.75,1,99,2,30,0,conditions/schedules/train_y_first/red_square_00/bottom_left/inputTrain_2.1.xlsx,99,1,2,1,0,,,,,,,,,,,,,,,,,,,,,,,,,,,,,,,,,,,,,,,,,,,,,,,,,,,,,,,,,,,,,,,,,,,,,,,,,,,HCV5VL,train_y,red_square,bottom_left,2025-01-22_15h03.18.742,HideSeek_v1,2022.2.5,59.98080614230113,
,,,,,,,,,,,,,,,5,0,5,0,0,0,0,0,,,,,,,,,,,,,,,,,,,,,,,,,,,,,,,conditions/schedules/train_y_first/red_square_00/bottom_left/instructions/Slide22.png,conditions/schedules/train_y_first/red_square_00/bottom_left/instructions/Audio22.wav,1170.6946260000004,1170.6952488299996,22,"[5.005765500000052, 18.700582100000247, 336.61873639999976, 20.000608499999544, 7.00759139999991, 4.720242099999268, 5.770436799999516, 11.773994500000299, 6.405490500000269, 7.103661299999658, 10.221095599999899, 14.0596544, 17.430883699999868, 16.409039400000438, 43.23157960000026, 22.933456700000534, 47.69973879999998, 6.442499400000088, 10.453980700000102, 12.607079200000044, 13.234056799999962, 30.45664560000023]","[0.00027850000060425373, 0.0002162000000680564, 0.0002040999997916515, 20.000615399999333, 0.014062799999919662, 0.04954619999989518, 0.0002096999996865634, 0.013020100000176171, 0.03060300000015559, 0.07930420000047889, 0.00022639999951934442, 14.059661700000106, 0.03052430000025197, 16.40905010000006, 0.013879600000109349, 22.933463600000323, 47.69974600000023, 0.047170099999675585, 0.02946799999972427, 12.607086099999833, 13.234063699999751, 30.456652900000336]",0,,,,,,,,,,,,,,,,,,,,,,,,,,,,,,,,,,,,,,,,,,,,,,,,,,,,,,,,,,,,,,,,,,,,,,,,,,,,,,,,,,,,,,,,,,,,,,,,,,,,,,,,,,,,,,,,,,,,,,,,,,,,HCV5VL,train_y,red_square,bottom_left,2025-01-22_15h03.18.742,HideSeek_v1,2022.2.5,59.98080614230113,
,2,1,5,1,3,0,46,,train_dim1_2,1,30,,,,5,0,5,0,,,,,,,,,0,0,0,0,0,0,0,0,0,0,0,0,,,,,,,,,,,,,,,,,,,,,,,,,stimuli/alien_stimuli/46.png,,,,,,,,,,,,,,,,,,,,,,,,,,,,,,,,,,,,,,,30,,,,,,,,1201.2526255000002,1201.2526255000002,1201.2526255000002,1201.2526255000002,1201.2526255000002,,,,,right,7.166267199999311,0,0,0,99,0.08,-0.32,right,7.071253099999012,,,,,,,,,,,,,,,,,,,,,,,,,,,,,,,,,,,,,,,,,,,,,,,,,,,,,,,,HCV5VL,train_y,red_square,bottom_left,2025-01-22_15h03.18.742,HideSeek_v1,2022.2.5,59.98080614230113,
,2,1,5,1,3,0,46,,train_dim1_2,1,30,,,,5,0,5,0,,,,,,,,,0,0,0,0,0,0,0,0,1,0,1,0,,,,,,,,,,,,,,,,,,,,,,,,,,,,,,,,,,,,,,,,,,,,,,,,,,,,,,,,,,,,,,,,30,,,,,,,,1208.4062638000005,1208.4062638000005,1208.4062638000005,1208.4062638000005,1208.4062638000005,,,,,right,0.45971149999968475,0,0,0,99,0.16,-0.32,right,0.38104569999995874,,,,,,,,,,,,,,,,,,,,,,,,,,,,,,,,,,,,,,,,,,,,,,,,,,,,,,,,HCV5VL,train_y,red_square,bottom_left,2025-01-22_15h03.18.742,HideSeek_v1,2022.2.5,59.98080614230113,
,2,1,5,1,3,0,46,,train_dim1_2,1,30,,,,5,0,5,0,,,,,,,,,0,0,0,0,0,0,0,0,2,0,2,0,,,,,,,,,,,,,,,,,,,,,,,,,,,,,,,,,,,,,,,,,,,,,,,,,,,,,,,,,,,,,,,,30,,,,,,,,1208.8733413,1208.8733413,1208.8733413,1208.8733413,1208.8733413,,,,,right,0.45998559999952704,0,0,0,99,0.24,-0.32,right,0.38101109999934124,,,,,,,,,,,,,,,,,,,,,,,,,,,,,,,,,,,,,,,,,,,,,,,,,,,,,,,,HCV5VL,train_y,red_square,bottom_left,2025-01-22_15h03.18.742,HideSeek_v1,2022.2.5,59.98080614230113,
,2,1,5,1,3,0,46,,train_dim1_2,1,30,,,,5,0,5,0,,,,,,,,,0,0,0,0,0,0,0,0,3,0,3,0,,,,,,,,,,,,,,,,,,,,,,,,,,,,,,,,,,,,,,,,,,,,,,,,,,,,,,,,,,,,,,,,30,,,,,,,,1209.3402661,1209.3402661,1209.3402661,1209.3402661,1209.3402661,,,,,right,0.4602642999998352,0,0,0,99,0.32,-0.32,right,0.37179999999989377,,,,,,,,,,,,,,,,,,,,,,,,,,,,,,,,,,,,,,,,,,,,,,,,,,,,,,,,HCV5VL,train_y,red_square,bottom_left,2025-01-22_15h03.18.742,HideSeek_v1,2022.2.5,59.98080614230113,
,2,1,5,1,3,0,46,,train_dim1_2,1,30,,,,5,0,5,0,,,,,,,,,0,0,0,0,0,0,0,0,4,0,4,0,,,,,,,,,,,,,,,,,,,,,,,,,,,,,,,,,,,,,,,,,,,,,,,,,,,,,,,,,,,,,,,,30,,,,,,,,1209.8061678000004,1209.8061678000004,1209.8061678000004,1209.8061678000004,1209.8061678000004,,,,,right,0.5434193999999479,0,0,0,99,0.4,-0.32,right,0.4617629999993369,,,,,,,,,,,,,,,,,,,,,,,,,,,,,,,,,,,,,,,,,,,,,,,,,,,,,,,,HCV5VL,train_y,red_square,bottom_left,2025-01-22_15h03.18.742,HideSeek_v1,2022.2.5,59.98080614230113,
,2,1,5,1,3,0,46,,train_dim1_2,1,30,,,,5,0,5,0,,,,,,,,,0,0,0,0,0,0,0,0,5,0,5,0,,,,,,,,,,,,,,,,,,,,,,,,,,,,,,,,,,,,,,,,,,,,,,,,,,,,,,,,,,,,,,,,30,,,,,,,,1210.3582156000002,1210.3582156000002,1210.3582156000002,1210.3582156000002,1210.3582156000002,73,8,0.4,-0.32,return,1.7437985999995362,0,0,0,0,0.4,-0.32,return,1.6610332999998718,,,,,,,,,,,,,,,,,,,,,,,,,,,,,,,,,,,,,,,,,,,,,,,,,,,,,,,,HCV5VL,train_y,red_square,bottom_left,2025-01-22_15h03.18.742,HideSeek_v1,2022.2.5,59.98080614230113,
,2,4,2,4,0,0,16,,train_dim1_2,2,30,,,,5,0,5,0,,,,,,,,,0,0,0,0,0,1,1,1,0,0,0,0,,,,,,,,,,,,,,,,,,,,,,,,,stimuli/alien_stimuli/16.png,,,,,,,,,,,,,,,,,,,,,,,,,,,,,stimuli/alien_stimuli/46.png,46,2,3,,,,,,,30,,,,,,,,1224.1409399000004,1224.1409399000004,1224.1409399000004,1224.1409399000004,1224.1409399000004,73,8,0,-0.08,return,3.5212123000001156,1,0,0,1,0,-0.08,return,3.411370499999066,1222.5547794000004,1224.1409399000004,0.24,-0.32,0.0,0.24,-0.32,0.24,0.12,0.24,-0.32,1213.6759491000003,1213.6759491000003,1213.6759491000003,1213.6759491000003,1213.6759491000003,1213.6759491000003,1213.6759491000003,1213.6759491000003,1213.6642545900004,8.992920600000616,return,8.846601899999769,,,,,,,,,,,,,,,,,,,,,,,,,,,,,,,,,HCV5VL,train_y,red_square,bottom_left,2025-01-22_15h03.18.742,HideSeek_v1,2022.2.5,59.98080614230113,
,4,4,5,4,1,0,26,,train_dim1_2,3,30,,,,5,0,5,0,,,,,,,,,0,0,0,0,0,2,2,2,0,0,0,0,,,,,,,,,,,,,,,,,,,,,,,,,stimuli/alien_stimuli/26.png,,,,,,,,,,,,,,,,,,,,,,,,,,,,,stimuli/alien_stimuli/16.png,16,2,4,,,,,,,30,,,,,,,,1232.0741132000003,1232.0741132000003,1232.0741132000003,1232.0741132000003,1232.0741132000003,,,,,right,1.4394453999993857,1,0,0,99,0.24,-0.08,right,1.3295066999999108,1230.4946664999998,1232.0741132000003,0,-0.08,0.0,0.0,-0.08,0,0.0,0,-0.08,1229.2127353000005,1229.2127353000005,1229.2127353000005,1229.2127353000005,1229.2127353000005,1229.2127353000005,1229.2127353000005,1229.2127353000005,1229.1937352900004,1.403204299999743,return,1.2535756999986916,,,,,,,,,,,,,,,,,,,,,,,,,,,,,,,,,HCV5VL,train_y,red_square,bottom_left,2025-01-22_15h03.18.742,HideSeek_v1,2022.2.5,59.98080614230113,
,4,4,5,4,1,0,26,,train_dim1_2,3,30,,,,5,0,5,0,,,,,,,,,0,0,0,0,0,2,2,2,1,0,1,0,,,,,,,,,,,,,,,,,,,,,,,,,,,,,,,,,,,,,,,,,,,,,,,,,,,,,,,,,,,,,,,,30,,,,,,,,1233.4974614000002,1233.4974614000002,1233.4974614000002,1233.4974614000002,1233.4974614000002,73,9,0.24,-0.08,return,1.3602073000001837,2,0,0,1,0.24,-0.08,return,1.2710136999994575,,,,,,,,,,,,,,,,,,,,,,,,,,,,,,,,,,,,,,,,,,,,,,,,,,,,,,,,HCV5VL,train_y,red_square,bottom_left,2025-01-22_15h03.18.742,HideSeek_v1,2022.2.5,59.98080614230113,
,2,3,6,3,4,0,56,,train_dim1_2,4,30,,,,5,0,5,0,,,,,,,,,0,0,0,0,0,3,3,3,0,0,0,0,,,,,,,,,,,,,,,,,,,,,,,,,stimuli/alien_stimuli/56.png,,,,,,,,,,,,,,,,,,,,,,,,,,,,,stimuli/alien_stimuli/26.png,26,4,5,,,,,,,30,,,,,,,,1238.9962572000004,1238.9962572000004,1238.9962572000004,1238.9962572000004,1238.9962572000004,,,,,right,0.8737338000000818,2,0,0,99,0.08,-0.16,right,0.7845696999993379,1237.4338437000006,1238.9962572000004,0.24,-0.08,0.0,0.08,-0.08,0.24,0.2,0.24,-0.08,1236.4276029000002,1236.4276029000002,1236.4276029000002,1236.4276029000002,1236.4276029000002,1236.4276029000002,1236.4276029000002,1236.4276029000002,1236.4167463900003,1.1199619999997594,return,0.9880290999999488,,,,,,,,,,,,,,,,,,,,,,,,,,,,,,,,,HCV5VL,train_y,red_square,bottom_left,2025-01-22_15h03.18.742,HideSeek_v1,2022.2.5,59.98080614230113,
,2,3,6,3,4,0,56,,train_dim1_2,4,30,,,,5,0,5,0,,,,,,,,,0,0,0,0,0,3,3,3,1,0,1,0,,,,,,,,,,,,,,,,,,,,,,,,,,,,,,,,,,,,,,,,,,,,,,,,,,,,,,,,,,,,,,,,30,,,,,,,,1239.8674249000005,1239.8674249000005,1239.8674249000005,1239.8674249000005,1239.8674249000005,,,,,right,0.30860649999976886,2,0,0,99,0.16,-0.16,right,0.21954229999937525,,,,,,,,,,,,,,,,,,,,,,,,,,,,,,,,,,,,,,,,,,,,,,,,,,,,,,,,HCV5VL,train_y,red_square,bottom_left,2025-01-22_15h03.18.742,HideSeek_v1,2022.2.5,59.98080614230113,
,2,3,6,3,4,0,56,,train_dim1_2,4,30,,,,5,0,5,0,,,,,,,,,0,0,0,0,0,3,3,3,2,0,2,0,,,,,,,,,,,,,,,,,,,,,,,,,,,,,,,,,,,,,,,,,,,,,,,,,,,,,,,,,,,,,,,,30,,,,,,,,1240.1847537000003,1240.1847537000003,1240.1847537000003,1240.1847537000003,1240.1847537000003,,,,,right,0.3599904000002425,2,0,0,99,0.24,-0.16,right,0.27469379999911325,,,,,,,,,,,,,,,,,,,,,,,,,,,,,,,,,,,,,,,,,,,,,,,,,,,,,,,,HCV5VL,train_y,red_square,bottom_left,2025-01-22_15h03.18.742,HideSeek_v1,2022.2.5,59.98080614230113,
,2,3,6,3,4,0,56,,train_dim1_2,4,30,,,,5,0,5,0,,,,,,,,,0,0,0,0,0,3,3,3,3,0,3,0,,,,,,,,,,,,,,,,,,,,,,,,,,,,,,,,,,,,,,,,,,,,,,,,,,,,,,,,,,,,,,,,30,,,,,,,,1240.5511899000003,1240.5511899000003,1240.5511899000003,1240.5511899000003,1240.5511899000003,,,,,right,0.4766611000004559,2,0,0,99,0.32,-0.16,right,0.39745939999920665,,,,,,,,,,,,,,,,,,,,,,,,,,,,,,,,,,,,,,,,,,,,,,,,,,,,,,,,HCV5VL,train_y,red_square,bottom_left,2025-01-22_15h03.18.742,HideSeek_v1,2022.2.5,59.98080614230113,
,2,3,6,3,4,0,56,,train_dim1_2,4,30,,,,5,0,5,0,,,,,,,,,0,0,0,0,0,3,3,3,4,0,4,0,,,,,,,,,,,,,,,,,,,,,,,,,,,,,,,,,,,,,,,,,,,,,,,,,,,,,,,,,,,,,,,,30,,,,,,,,1241.0345293999999,1241.0345293999999,1241.0345293999999,1241.0345293999999,1241.0345293999999,,,,,right,0.4936471999999412,2,0,0,99,0.4,-0.16,right,0.4080136999991737,,,,,,,,,,,,,,,,,,,,,,,,,,,,,,,,,,,,,,,,,,,,,,,,,,,,,,,,HCV5VL,train_y,red_square,bottom_left,2025-01-22_15h03.18.742,HideSeek_v1,2022.2.5,59.98080614230113,
,2,3,6,3,4,0,56,,train_dim1_2,4,30,,,,5,0,5,0,,,,,,,,,0,0,0,0,0,3,3,3,5,0,5,0,,,,,,,,,,,,,,,,,,,,,,,,,,,,,,,,,,,,,,,,,,,,,,,,,,,,,,,,,,,,,,,,30,,,,,,,,1241.5358110000006,1241.5358110000006,1241.5358110000006,1241.5358110000006,1241.5358110000006,73,14,0.4,-0.16,return,0.5758851000000504,2,1,0,0,0.4,-0.16,return,0.4967120999999679,,,,,,,,,,,,,,,,,,,,,,,,,,,,,,,,,,,,,,,,,,,,,,,,,,,,,,,,HCV5VL,train_y,red_square,bottom_left,2025-01-22_15h03.18.742,HideSeek_v1,2022.2.5,59.98080614230113,
,0,2,5,2,5,0,66,,train_dim1_2,5,30,,,,5,0,5,0,,,,,,,,,0,0,0,0,0,4,4,4,0,0,0,0,,,,,,,,,,,,,,,,,,,,,,,,,stimuli/alien_stimuli/66.png,,,,,,,,,,,,,,,,,,,,,,,,,,,,,stimuli/alien_stimuli/56.png,56,2,6,,,,,,,30,,,,,,,,1247.6369208000006,1247.6369208000006,1247.6369208000006,1247.6369208000006,1247.6369208000006,,,,,right,1.4236682999999175,2,1,0,99,-0.08,-0.24,right,1.3271582999996099,1246.0744654,1247.6369208000006,0.32,-0.16,0.0,0.32,-0.16,0.32,0.16,0.32,-0.16,1243.6766084,1243.6766084,1243.6766084,1243.6766084,1243.6766084,1243.6766084,1243.6766084,1243.6766084,1243.6557724200004,2.5043950999997833,return,2.372777099999439,,,,,,,,,,,,,,,,,,,,,,,,,,,,,,,,,HCV5VL,train_y,red_square,bottom_left,2025-01-22_15h03.18.742,HideSeek_v1,2022.2.5,59.98080614230113,
,0,2,5,2,5,0,66,,train_dim1_2,5,30,,,,5,0,5,0,,,,,,,,,0,0,0,0,0,4,4,4,1,0,1,0,,,,,,,,,,,,,,,,,,,,,,,,,,,,,,,,,,,,,,,,,,,,,,,,,,,,,,,,,,,,,,,,30,,,,,,,,1249.055859,1249.055859,1249.055859,1249.055859,1249.055859,,,,,right,0.4925095999997211,2,1,0,99,0.0,-0.24,right,0.41739139999936015,,,,,,,,,,,,,,,,,,,,,,,,,,,,,,,,,,,,,,,,,,,,,,,,,,,,,,,,HCV5VL,train_y,red_square,bottom_left,2025-01-22_15h03.18.742,HideSeek_v1,2022.2.5,59.98080614230113,
,0,2,5,2,5,0,66,,train_dim1_2,5,30,,,,5,0,5,0,,,,,,,,,0,0,0,0,0,4,4,4,2,0,2,0,,,,,,,,,,,,,,,,,,,,,,,,,,,,,,,,,,,,,,,,,,,,,,,,,,,,,,,,,,,,,,,,30,,,,,,,,1249.5560716,1249.5560716,1249.5560716,1249.5560716,1249.5560716,,,,,right,0.5599823000002289,2,1,0,99,0.08,-0.24,right,0.4745179999999891,,,,,,,,,,,,,,,,,,,,,,,,,,,,,,,,,,,,,,,,,,,,,,,,,,,,,,,,HCV5VL,train_y,red_square,bottom_left,2025-01-22_15h03.18.742,HideSeek_v1,2022.2.5,59.98080614230113,
