trialInstr,x_fixStart,y_fixStart,x_corrSteps,y_corrSteps,x_nrSteps,y_nrSteps,alienID,trialLength,version,trialTrain,praclen,testlen,trial_label,break_on_off,beforeExpLoop.thisRepN,beforeExpLoop.thisTrialN,beforeExpLoop.thisN,beforeExpLoop.thisIndex,mini_instr_trials.thisRepN,mini_instr_trials.thisTrialN,mini_instr_trials.thisN,mini_instr_trials.thisIndex,instrLoop.thisRepN,instrLoop.thisTrialN,instrLoop.thisN,instrLoop.thisIndex,repeat_prac.thisRepN,repeat_prac.thisTrialN,repeat_prac.thisN,repeat_prac.thisIndex,trainLoop.thisRepN,trainLoop.thisTrialN,trainLoop.thisN,trainLoop.thisIndex,moveLoop_train.thisRepN,moveLoop_train.thisTrialN,moveLoop_train.thisN,moveLoop_train.thisIndex,experiment.thisRepN,experiment.thisTrialN,experiment.thisN,experiment.thisIndex,moveLoop_test.thisRepN,moveLoop_test.thisTrialN,moveLoop_test.thisN,moveLoop_test.thisIndex,mini_instr2_trials.thisRepN,mini_instr2_trials.thisTrialN,mini_instr2_trials.thisN,mini_instr2_trials.thisIndex,start_all_time,url,slideStim,audioStim,slides.started,sounds.started,nextButton.numClicks,nextButton.timesOn,nextButton.timesOff,prev_but.numClicks,prev_but.timesOn,prev_but.timesOff,alienStim,instrFile,alienStim_instr,gridImage_instr.started,startPos_3.started,key_instr.started,alienImage_3.started,sounds_1.started,key_instr.keys,key_instr.rt,all_x,all_y,FBy_corrSteps,FBy_fixStart,FBx_corrSteps,FBx_fixStart,FBy_pathSize_check,FBx_pathSize_check,gridImage_9.started,alienImageFB_3.started,startPosFB_3.started,keyFB_3.started,pathLine_ydir_2.started,pathLine_xdir_2.started,alienFace_3.started,sounds_2.started,RTFB_instr,keyFB_3.keys,keyFB_3.rt,draw_alienStim,draw_alienID,test_x,nrepcount,perfthres,percthres,earlierperf,earlystop,nextPrac,fileidx,praclen,saveACC_train,pracFile,nextPrac_train,addNrep,fileidx_endr,repExp,showearly,gridImage_4.started,startPos.started,movePos.started,key_resp.started,alienImage.started,buttonPress_train,RTchoice_train,cumAcctrain,aCorr,saveACC_choice,corrAns,x_movePos_end,y_movePos_end,key_resp.keys,key_resp.rt,wLy_dir,wLx_dir,x_movePos,y_movePos,text_2.started,text_2.stopped,aft_x_corrPos,aft_y_corrPos,y_pathSize_check,x_pathSize_check,y_pathdirY,x_pathdirY,x_pathdirX,x_corrPos,y_corrPos,gridImage_6.started,alienImageFB_2.started,startPosFB_2.started,movePosFB_2.started,keyFB_2.started,pathLine_xdir.started,pathLine_ydir.started,alienFace.started,sounds_4.started,RT_FBtrain,keyFB_2.keys,keyFB_2.rt,saveACC_pre,ACC,within_saveACC_train,earlystop_wloop,cumAcctrain_check,gridImage_3.started,alienImage_test.started,startPos_test.started,movePos_test.started,key_resp_test.started,wLy_dir_test,wLx_dir_test,buttonPress_test,RTchoice_test,cumAcctest,corrAns_test,key_resp_test.keys,key_resp_test.rt,text_3.started,text_3.stopped,total_time,end_all_time,key_resp_3.keys,slides_2.started,sounds_3.started,nextButton_2.numClicks,nextButton_2.timesOn,nextButton_2.timesOff,prev_but_2.numClicks,prev_but_2.timesOn,prev_but_2.timesOff,bye.started,participant,train_first,00_coordinate,starting corner,date,expName,psychopyVersion,frameRate,
,,,,,,,,,,,,,,,0,0,0,0,0,0,0,0,,,,,,,,,,,,,,,,,,,,,,,,,,,,,start_all_time,testround,conditions/schedules/train_x_first/red_square_00/bottom_right/instructions/Slide1.png,conditions/schedules/train_x_first/red_square_00/bottom_right/instructions/Audio1.wav,1963.6382674999768,1963.5793467598385,1,[5.252799799956847],[5.25280879996717],0,,,,,,,,,,,,,,,,,,,,,,,,,,,,,,,,,,,,,,,,,,,,,,,,,,,,,,,,,,,,,,,,,,,,,,,,,,,,,,,,,,,,,,,,,,,,,,,,,,,,,,,,,,,,,,,,,,,,,,,,,,,,HDGU5N,train_x,red_square,bottom_right,2025-08-12_16h12.07.941,HideSeek_v1,2022.2.5,59.57693227827341,
,,,,,,,,,,,,,,,0,0,0,0,1,0,1,0,,,,,,,,,,,,,,,,,,,,,,,,,,,,,,,conditions/schedules/train_x_first/red_square_00/bottom_right/instructions/Slide2.png,conditions/schedules/train_x_first/red_square_00/bottom_right/instructions/Audio2.wav,1968.9109934999724,1968.9114673499716,2,"[5.252799799956847, 17.967165100038983]","[0.014295300003141165, 17.967171200027224]",0,,,,,,,,,,,,,,,,,,,,,,,,,,,,,,,,,,,,,,,,,,,,,,,,,,,,,,,,,,,,,,,,,,,,,,,,,,,,,,,,,,,,,,,,,,,,,,,,,,,,,,,,,,,,,,,,,,,,,,,,,,,,HDGU5N,train_x,red_square,bottom_right,2025-08-12_16h12.07.941,HideSeek_v1,2022.2.5,59.57693227827341,
,,,,,,,,,,,,,,,0,0,0,0,2,0,2,0,,,,,,,,,,,,,,,,,,,,,,,,,,,,,,,conditions/schedules/train_x_first/red_square_00/bottom_right/instructions/Slide3.png,conditions/schedules/train_x_first/red_square_00/bottom_right/instructions/Audio3.wav,1986.9469179000007,1986.947211349965,3,"[5.252799799956847, 17.967165100038983, 16.258281300019007]","[0.014295300003141165, 0.014328000019304454, 16.258287700009532]",0,,,,,,,,,,,,,,,,,,,,,,,,,,,,,,,,,,,,,,,,,,,,,,,,,,,,,,,,,,,,,,,,,,,,,,,,,,,,,,,,,,,,,,,,,,,,,,,,,,,,,,,,,,,,,,,,,,,,,,,,,,,,HDGU5N,train_x,red_square,bottom_right,2025-08-12_16h12.07.941,HideSeek_v1,2022.2.5,59.57693227827341,
,,,,,,,,,,,,,,,0,0,0,0,3,0,3,0,,,,,,,,,,,,,,,,,,,,,,,,,,,,,,,conditions/schedules/train_x_first/red_square_00/bottom_right/instructions/Slide4.png,conditions/schedules/train_x_first/red_square_00/bottom_right/instructions/Audio4.wav,2003.2877828999772,2003.2741619499866,4,"[5.252799799956847, 17.967165100038983, 16.258281300019007, 19.15350060001947]","[0.014295300003141165, 0.014328000019304454, 0.014245100028347224, 19.153507800016087]",0,,,,,,,,,,,,,,,,,,,,,,,,,,,,,,,,,,,,,,,,,,,,,,,,,,,,,,,,,,,,,,,,,,,,,,,,,,,,,,,,,,,,,,,,,,,,,,,,,,,,,,,,,,,,,,,,,,,,,,,,,,,,HDGU5N,train_x,red_square,bottom_right,2025-08-12_16h12.07.941,HideSeek_v1,2022.2.5,59.57693227827341,
,,,,,,,,,,,,,,,0,0,0,0,4,0,4,0,,,,,,,,,,,,,,,,,,,,,,,,,,,,,,,conditions/schedules/train_x_first/red_square_00/bottom_right/instructions/Slide5.png,conditions/schedules/train_x_first/red_square_00/bottom_right/instructions/Audio5.wav,2022.5147372999927,2022.510071949975,5,"[5.252799799956847, 17.967165100038983, 16.258281300019007, 19.15350060001947, 3.963342300034128]","[0.014295300003141165, 0.014328000019304454, 0.014245100028347224, 0.037588900013361126, 3.9633497000322677]",0,,,,,,,,,,,,,,,,,,,,,,,,,,,,,,,,,,,,,,,,,,,,,,,,,,,,,,,,,,,,,,,,,,,,,,,,,,,,,,,,,,,,,,,,,,,,,,,,,,,,,,,,,,,,,,,,,,,,,,,,,,,,HDGU5N,train_x,red_square,bottom_right,2025-08-12_16h12.07.941,HideSeek_v1,2022.2.5,59.57693227827341,
,,,,,,,,,,,,,,,0,0,0,0,5,0,5,0,,,,,,,,,,,,,,,,,,,,,,,,,,,,,,,conditions/schedules/train_x_first/red_square_00/bottom_right/instructions/Slide6.png,conditions/schedules/train_x_first/red_square_00/bottom_right/instructions/Audio6.wav,2026.5299491999904,2026.5302679399495,6,"[5.252799799956847, 17.967165100038983, 16.258281300019007, 19.15350060001947, 3.963342300034128, 4.397823600040283]","[0.014295300003141165, 0.014328000019304454, 0.014245100028347224, 0.037588900013361126, 0.07794690004084259, 4.397829900030047]",0,,,,,,,,,,,,,,,,,,,,,,,,,,,,,,,,,,,,,,,,,,,,,,,,,,,,,,,,,,,,,,,,,,,,,,,,,,,,,,,,,,,,,,,,,,,,,,,,,,,,,,,,,,,,,,,,,,,,,,,,,,,,HDGU5N,train_x,red_square,bottom_right,2025-08-12_16h12.07.941,HideSeek_v1,2022.2.5,59.57693227827341,
,,,,,,,,,,,,,,,0,0,0,0,6,0,6,0,,,,,,,,,,,,,,,,,,,,,,,,,,,,,,,conditions/schedules/train_x_first/red_square_00/bottom_right/instructions/Slide7.png,conditions/schedules/train_x_first/red_square_00/bottom_right/instructions/Audio7.wav,2030.978754199983,2030.9800384399598,7,"[5.252799799956847, 17.967165100038983, 16.258281300019007, 19.15350060001947, 3.963342300034128, 4.397823600040283, 5.2950148999807425]","[0.014295300003141165, 0.014328000019304454, 0.014245100028347224, 0.037588900013361126, 0.07794690004084259, 0.06903710000915453, 5.2950223999796435]",0,,,,,,,,,,,,,,,,,,,,,,,,,,,,,,,,,,,,,,,,,,,,,,,,,,,,,,,,,,,,,,,,,,,,,,,,,,,,,,,,,,,,,,,,,,,,,,,,,,,,,,,,,,,,,,,,,,,,,,,,,,,,HDGU5N,train_x,red_square,bottom_right,2025-08-12_16h12.07.941,HideSeek_v1,2022.2.5,59.57693227827341,
,,,,,,,,,,,,,,,0,0,0,0,7,0,7,0,,,,,,,,,,,,,,,,,,,,,,,,,,,,,,,conditions/schedules/train_x_first/red_square_00/bottom_right/instructions/Slide8.png,conditions/schedules/train_x_first/red_square_00/bottom_right/instructions/Audio8.wav,2036.3293193999561,2036.32631873996,8,"[5.252799799956847, 17.967165100038983, 16.258281300019007, 19.15350060001947, 3.963342300034128, 4.397823600040283, 5.2950148999807425, 11.393282900040504]","[0.014295300003141165, 0.014328000019304454, 0.014245100028347224, 0.037588900013361126, 0.07794690004084259, 0.06903710000915453, 0.07111020002048463, 11.393290600040928]",0,,,,,,,,,,,,,,,,,,,,,,,,,,,,,,,,,,,,,,,,,,,,,,,,,,,,,,,,,,,,,,,,,,,,,,,,,,,,,,,,,,,,,,,,,,,,,,,,,,,,,,,,,,,,,,,,,,,,,,,,,,,,HDGU5N,train_x,red_square,bottom_right,2025-08-12_16h12.07.941,HideSeek_v1,2022.2.5,59.57693227827341,
,,,,,,,,,,,,,,,0,0,0,0,8,0,8,0,,,,,,,,,,,,,,,,,,,,,,,,,,,,,,,conditions/schedules/train_x_first/red_square_00/bottom_right/instructions/Slide9.png,conditions/schedules/train_x_first/red_square_00/bottom_right/instructions/Audio9.wav,2047.7978249999578,2047.7918203499867,9,"[5.252799799956847, 17.967165100038983, 16.258281300019007, 19.15350060001947, 3.963342300034128, 4.397823600040283, 5.2950148999807425, 11.393282900040504, 5.535127300012391]","[0.014295300003141165, 0.014328000019304454, 0.014245100028347224, 0.037588900013361126, 0.07794690004084259, 0.06903710000915453, 0.07111020002048463, 0.07634010002948344, 5.5351340000052005]",0,,,,,,,,,,,,,,,,,,,,,,,,,,,,,,,,,,,,,,,,,,,,,,,,,,,,,,,,,,,,,,,,,,,,,,,,,,,,,,,,,,,,,,,,,,,,,,,,,,,,,,,,,,,,,,,,,,,,,,,,,,,,HDGU5N,train_x,red_square,bottom_right,2025-08-12_16h12.07.941,HideSeek_v1,2022.2.5,59.57693227827341,
,,,,,,,,,,,,,,,0,0,0,0,9,0,9,0,,,,,,,,,,,,,,,,,,,,,,,,,,,,,,,conditions/schedules/train_x_first/red_square_00/bottom_right/instructions/Slide10.png,conditions/schedules/train_x_first/red_square_00/bottom_right/instructions/Audio10.wav,2053.371582199994,2053.3689890299925,10,"[5.252799799956847, 17.967165100038983, 16.258281300019007, 19.15350060001947, 3.963342300034128, 4.397823600040283, 5.2950148999807425, 11.393282900040504, 5.535127300012391, 6.59508320002351]","[0.014295300003141165, 0.014328000019304454, 0.014245100028347224, 0.037588900013361126, 0.07794690004084259, 0.06903710000915453, 0.07111020002048463, 0.07634010002948344, 0.12806780001847073, 6.595089900016319]",0,,,,,,,,,,,,,,,,,,,,,,,,,,,,,,,,,,,,,,,,,,,,,,,,,,,,,,,,,,,,,,,,,,,,,,,,,,,,,,,,,,,,,,,,,,,,,,,,,,,,,,,,,,,,,,,,,,,,,,,,,,,,HDGU5N,train_x,red_square,bottom_right,2025-08-12_16h12.07.941,HideSeek_v1,2022.2.5,59.57693227827341,
,,,,,,,,,,,,,,,0,0,0,0,10,0,10,0,,,,,,,,,,,,,,,,,,,,,,,,,,,,,,,conditions/schedules/train_x_first/red_square_00/bottom_right/instructions/Slide11.png,conditions/schedules/train_x_first/red_square_00/bottom_right/instructions/Audio11.wav,2060.022274799994,2060.0189473399546,11,"[5.252799799956847, 17.967165100038983, 16.258281300019007, 19.15350060001947, 3.963342300034128, 4.397823600040283, 5.2950148999807425, 11.393282900040504, 5.535127300012391, 6.59508320002351, 9.329733700025827]","[0.014295300003141165, 0.014328000019304454, 0.014245100028347224, 0.037588900013361126, 0.07794690004084259, 0.06903710000915453, 0.07111020002048463, 0.07634010002948344, 0.12806780001847073, 0.05525809997925535, 9.329740400018636]",0,,,,,,,,,,,,,,,,,,,,,,,,,,,,,,,,,,,,,,,,,,,,,,,,,,,,,,,,,,,,,,,,,,,,,,,,,,,,,,,,,,,,,,,,,,,,,,,,,,,,,,,,,,,,,,,,,,,,,,,,,,,,HDGU5N,train_x,red_square,bottom_right,2025-08-12_16h12.07.941,HideSeek_v1,2022.2.5,59.57693227827341,
,,,,,,,,,,,,,,,0,0,0,0,11,0,11,0,,,,,,,,,,,,,,,,,,,,,,,,,,,,,,,conditions/schedules/train_x_first/red_square_00/bottom_right/instructions/Slide12.png,conditions/schedules/train_x_first/red_square_00/bottom_right/instructions/Audio12.wav,2069.4240257999627,2069.420584449952,12,"[5.252799799956847, 17.967165100038983, 16.258281300019007, 19.15350060001947, 3.963342300034128, 4.397823600040283, 5.2950148999807425, 11.393282900040504, 5.535127300012391, 6.59508320002351, 9.329733700025827, 12.850517700018827]","[0.014295300003141165, 0.014328000019304454, 0.014245100028347224, 0.037588900013361126, 0.07794690004084259, 0.06903710000915453, 0.07111020002048463, 0.07634010002948344, 0.12806780001847073, 0.05525809997925535, 0.014248799998313189, 12.85052470001392]",0,,,,,,,,,,,,,,,,,,,,,,,,,,,,,,,,,,,,,,,,,,,,,,,,,,,,,,,,,,,,,,,,,,,,,,,,,,,,,,,,,,,,,,,,,,,,,,,,,,,,,,,,,,,,,,,,,,,,,,,,,,,,HDGU5N,train_x,red_square,bottom_right,2025-08-12_16h12.07.941,HideSeek_v1,2022.2.5,59.57693227827341,
1,8,2,3,2,-5,0,66,2,instr_dim1_1,,,,,,0,0,0,0,,,,,0,0,0,0,,,,,,,,,,,,,,,,,,,,,,,,,,,,,,,,,,,,,stimuli/alien_stimuli/66.png,conditions/schedules/train_x_first/red_square_00/bottom_right/inputInstr_1.xlsx,stimuli/alien_stimuli/66.png,2082.371003899956,2082.371003899956,2082.371003899956,2082.371003899956,2082.359964759974,return,11.22632789995987,"[-0.16, -0.08, 0, 0.08, 0.16, 0.24, 0.32, 0.4, 0.48, 0.56]","[-0.4, -0.32, -0.24, -0.16, -0.08, 0, 0.08, 0.16, 0.24, 0.32]",2,2,3,8,0.0,0.4,2093.749911599967,2093.749911599967,2093.749911599967,2093.749911599967,2093.749911599967,2093.749911599967,2093.749911599967,2093.7468777899517,7.728673700010404,return,7.5736991000012495,stimuli/alien_stimuli/66.png,66,8,1,,,,,,,,,,,,,,,,,,,,,,,,,,,,,,,,,,,,,,,,,,,,,,,,,,,,,,,,,,,,,,,,,,,,,,,,,,,,,,,,,,,,,,,,,HDGU5N,train_x,red_square,bottom_right,2025-08-12_16h12.07.941,HideSeek_v1,2022.2.5,59.57693227827341,
,,,,,,,,,,,30,,,,0,0,0,0,,,,,,,,,,,,,,,,,,,,,,,,,,,,,,,,,,,,,,,,,,,,,,,,,,,,,,,,,,,,,,,,,,,,,,,,,,,,,,21,0.7,0,0,99,1,30,0,conditions/schedules/train_x_first/red_square_00/bottom_right/inputTrain_1.1.xlsx,99,1,1,1,0,,,,,,,,,,,,,,,,,,,,,,,,,,,,,,,,,,,,,,,,,,,,,,,,,,,,,,,,,,,,,,,,,,,,,,,,,,,HDGU5N,train_x,red_square,bottom_right,2025-08-12_16h12.07.941,HideSeek_v1,2022.2.5,59.57693227827341,
,,,,,,,,,,,,,,,1,0,1,0,0,0,0,0,,,,,,,,,,,,,,,,,,,,,,,,,,,,,,,conditions/schedules/train_x_first/red_square_00/bottom_right/instructions/Slide13.png,conditions/schedules/train_x_first/red_square_00/bottom_right/instructions/Audio13.wav,2101.4740467999945,2101.474892089947,13,"[5.252799799956847, 17.967165100038983, 16.258281300019007, 19.15350060001947, 3.963342300034128, 4.397823600040283, 5.2950148999807425, 11.393282900040504, 5.535127300012391, 6.59508320002351, 9.329733700025827, 12.850517700018827, 17.10986830003094]","[0.014295300003141165, 0.014328000019304454, 0.014245100028347224, 0.037588900013361126, 0.07794690004084259, 0.06903710000915453, 0.07111020002048463, 0.07634010002948344, 0.12806780001847073, 0.05525809997925535, 0.014248799998313189, 12.85052470001392, 17.109875600028317]",0,,,,,,,,,,,,,,,,,,,,,,,,,,,,,,,,,,,,,,,,,,,,,,,,,,,,,,,,,,,,,,,,,,,,,,,,,,,,,,,,,,,,,,,,,,,,,,,,,,,,,,,,,,,,,,,,,,,,,,,,,,,,HDGU5N,train_x,red_square,bottom_right,2025-08-12_16h12.07.941,HideSeek_v1,2022.2.5,59.57693227827341,
,,,,,,,,,,,,,,,1,0,1,0,1,0,1,0,,,,,,,,,,,,,,,,,,,,,,,,,,,,,,,conditions/schedules/train_x_first/red_square_00/bottom_right/instructions/Slide14.png,conditions/schedules/train_x_first/red_square_00/bottom_right/instructions/Audio14.wav,2118.649160799978,2118.6366160399516,14,"[5.252799799956847, 17.967165100038983, 16.258281300019007, 19.15350060001947, 3.963342300034128, 4.397823600040283, 5.2950148999807425, 11.393282900040504, 5.535127300012391, 6.59508320002351, 9.329733700025827, 12.850517700018827, 17.10986830003094, 13.414470900024753]","[0.014295300003141165, 0.014328000019304454, 0.014245100028347224, 0.037588900013361126, 0.07794690004084259, 0.06903710000915453, 0.07111020002048463, 0.07634010002948344, 0.12806780001847073, 0.05525809997925535, 0.014248799998313189, 12.85052470001392, 0.05128580000018701, 13.414478200022131]",0,,,,,,,,,,,,,,,,,,,,,,,,,,,,,,,,,,,,,,,,,,,,,,,,,,,,,,,,,,,,,,,,,,,,,,,,,,,,,,,,,,,,,,,,,,,,,,,,,,,,,,,,,,,,,,,,,,,,,,,,,,,,HDGU5N,train_x,red_square,bottom_right,2025-08-12_16h12.07.941,HideSeek_v1,2022.2.5,59.57693227827341,
2,9,0,9,0,0,0,16,2,instr_dim1_1,,,,,,1,0,1,0,,,,,0,0,0,0,,,,,,,,,,,,,,,,,,,,,,,,,,,,,,,,,,,,,stimuli/alien_stimuli/16.png,conditions/schedules/train_x_first/red_square_00/bottom_right/inputInstr_1.xlsx,stimuli/alien_stimuli/16.png,2132.1730336999753,2132.1730336999753,2132.1730336999753,2132.1730336999753,2132.1656826699855,return,6.573564400023315,"[-0.16, -0.08, 0, 0.08, 0.16, 0.24, 0.32, 0.4, 0.48, 0.56]","[-0.4, -0.32, -0.24, -0.16, -0.08, 0, 0.08, 0.16, 0.24, 0.32]",0,0,9,9,0.0,0.0,2138.8941054999596,2138.8941054999596,2138.8941054999596,2138.8941054999596,2138.8941054999596,2138.8941054999596,2138.8941054999596,2138.8842967799633,10.579015699971933,return,10.425932099984493,stimuli/alien_stimuli/16.png,16,9,2,,,,,,,,,,,,,,,,,,,,,,,,,,,,,,,,,,,,,,,,,,,,,,,,,,,,,,,,,,,,,,,,,,,,,,,,,,,,,,,,,,,,,,,,,HDGU5N,train_x,red_square,bottom_right,2025-08-12_16h12.07.941,HideSeek_v1,2022.2.5,59.57693227827341,
,,,,,,,,,,,30,,,,1,0,1,0,,,,,,,,,,,,,,,,,,,,,,,,,,,,,,,,,,,,,,,,,,,,,,,,,,,,,,,,,,,,,,,,,,,,,,,,,,,,,,21,0.7,0,0,99,1,30,0,conditions/schedules/train_x_first/red_square_00/bottom_right/inputTrain_1.1.xlsx,99,1,1,1,0,,,,,,,,,,,,,,,,,,,,,,,,,,,,,,,,,,,,,,,,,,,,,,,,,,,,,,,,,,,,,,,,,,,,,,,,,,,HDGU5N,train_x,red_square,bottom_right,2025-08-12_16h12.07.941,HideSeek_v1,2022.2.5,59.57693227827341,
,,,,,,,,,,,,,,,2,0,2,0,0,0,0,0,,,,,,,,,,,,,,,,,,,,,,,,,,,,,,,conditions/schedules/train_x_first/red_square_00/bottom_right/instructions/Slide15.png,conditions/schedules/train_x_first/red_square_00/bottom_right/instructions/Audio15.wav,2149.488758399966,2149.479219989956,15,"[5.252799799956847, 17.967165100038983, 16.258281300019007, 19.15350060001947, 3.963342300034128, 4.397823600040283, 5.2950148999807425, 11.393282900040504, 5.535127300012391, 6.59508320002351, 9.329733700025827, 12.850517700018827, 17.10986830003094, 13.414470900024753, 30.862290200020652]","[0.014295300003141165, 0.014328000019304454, 0.014245100028347224, 0.037588900013361126, 0.07794690004084259, 0.06903710000915453, 0.07111020002048463, 0.07634010002948344, 0.12806780001847073, 0.05525809997925535, 0.014248799998313189, 12.85052470001392, 0.05128580000018701, 13.414478200022131, 30.86229690001346]",0,,,,,,,,,,,,,,,,,,,,,,,,,,,,,,,,,,,,,,,,,,,,,,,,,,,,,,,,,,,,,,,,,,,,,,,,,,,,,,,,,,,,,,,,,,,,,,,,,,,,,,,,,,,,,,,,,,,,,,,,,,,,HDGU5N,train_x,red_square,bottom_right,2025-08-12_16h12.07.941,HideSeek_v1,2022.2.5,59.57693227827341,
,,,,,,,,,,,,,,,2,0,2,0,1,0,1,0,,,,,,,,,,,,,,,,,,,,,,,,,,,,,,,conditions/schedules/train_x_first/red_square_00/bottom_right/instructions/Slide16.png,conditions/schedules/train_x_first/red_square_00/bottom_right/instructions/Audio16.wav,2180.4256113999872,2180.419902249996,16,"[5.252799799956847, 17.967165100038983, 16.258281300019007, 19.15350060001947, 3.963342300034128, 4.397823600040283, 5.2950148999807425, 11.393282900040504, 5.535127300012391, 6.59508320002351, 9.329733700025827, 12.850517700018827, 17.10986830003094, 13.414470900024753, 30.862290200020652, 21.341832700010855]","[0.014295300003141165, 0.014328000019304454, 0.014245100028347224, 0.037588900013361126, 0.07794690004084259, 0.06903710000915453, 0.07111020002048463, 0.07634010002948344, 0.12806780001847073, 0.05525809997925535, 0.014248799998313189, 12.85052470001392, 0.05128580000018701, 13.414478200022131, 0.03470540000125766, 21.341839500004426]",0,,,,,,,,,,,,,,,,,,,,,,,,,,,,,,,,,,,,,,,,,,,,,,,,,,,,,,,,,,,,,,,,,,,,,,,,,,,,,,,,,,,,,,,,,,,,,,,,,,,,,,,,,,,,,,,,,,,,,,,,,,,,HDGU5N,train_x,red_square,bottom_right,2025-08-12_16h12.07.941,HideSeek_v1,2022.2.5,59.57693227827341,
,7,1,4,1,-3,0,46,,train_dim1_1,1,30,,,,2,0,2,0,,,,,,,,,0,0,0,0,0,0,0,0,0,0,0,0,,,,,,,,,,,,,,,,,,,,,,,,,stimuli/alien_stimuli/46.png,,,,,,,,,,,,,,,,,,,,,,,,,,,,,,,,,,,,,,,30,,,,,,,,2201.8693316999706,2201.8693316999706,2201.8693316999706,2201.8693316999706,2201.8693316999706,up,2.8793158999760635,0,0,0,99,0.4,-0.24,up,2.7786105000413954,,,,,,,,,,,,,,,,,,,,,,,,,,,,,,,,,,,,,,,,,,,,,,,,,,,,,,,,,,,,HDGU5N,train_x,red_square,bottom_right,2025-08-12_16h12.07.941,HideSeek_v1,2022.2.5,59.57693227827341,
,7,1,4,1,-3,0,46,,train_dim1_1,1,30,,,,2,0,2,0,,,,,,,,,0,0,0,0,0,0,0,0,1,0,1,0,,,,,,,,,,,,,,,,,,,,,,,,,,,,,,,,,,,,,,,,,,,,,,,,,,,,,,,,,,,,,,,,30,,,,,,,,2204.7370075999643,2204.7370075999643,2204.7370075999643,2204.7370075999643,2204.7370075999643,up,0.5595172999892384,0,0,0,99,0.4,-0.15999999999999998,up,0.4826452999841422,,,,,,,,,,,,,,,,,,,,,,,,,,,,,,,,,,,,,,,,,,,,,,,,,,,,,,,,,,,,HDGU5N,train_x,red_square,bottom_right,2025-08-12_16h12.07.941,HideSeek_v1,2022.2.5,59.57693227827341,
,7,1,4,1,-3,0,46,,train_dim1_1,1,30,,,,2,0,2,0,,,,,,,,,0,0,0,0,0,0,0,0,2,0,2,0,,,,,,,,,,,,,,,,,,,,,,,,,,,,,,,,,,,,,,,,,,,,,,,,,,,,,,,,,,,,,,,,30,,,,,,,,2205.304492699972,2205.304492699972,2205.304492699972,2205.304492699972,2205.304492699972,left,1.7607622000505216,0,0,0,99,0.32,-0.15999999999999998,left,1.6827351999818347,,,,,,,,,,,,,,,,,,,,,,,,,,,,,,,,,,,,,,,,,,,,,,,,,,,,,,,,,,,,HDGU5N,train_x,red_square,bottom_right,2025-08-12_16h12.07.941,HideSeek_v1,2022.2.5,59.57693227827341,
,7,1,4,1,-3,0,46,,train_dim1_1,1,30,,,,2,0,2,0,,,,,,,,,0,0,0,0,0,0,0,0,3,0,3,0,,,,,,,,,,,,,,,,,,,,,,,,,,,,,,,,,,,,,,,,,,,,,,,,,,,,,,,,,,,,,,,,30,,,,,,,,2207.072318099963,2207.072318099963,2207.072318099963,2207.072318099963,2207.072318099963,left,0.6267879999941215,0,0,0,99,0.24,-0.15999999999999998,left,0.5375104999984615,,,,,,,,,,,,,,,,,,,,,,,,,,,,,,,,,,,,,,,,,,,,,,,,,,,,,,,,,,,,HDGU5N,train_x,red_square,bottom_right,2025-08-12_16h12.07.941,HideSeek_v1,2022.2.5,59.57693227827341,
,7,1,4,1,-3,0,46,,train_dim1_1,1,30,,,,2,0,2,0,,,,,,,,,0,0,0,0,0,0,0,0,4,0,4,0,,,,,,,,,,,,,,,,,,,,,,,,,,,,,,,,,,,,,,,,,,,,,,,,,,,,,,,,,,,,,,,,30,,,,,,,,2207.705790899985,2207.705790899985,2207.705790899985,2207.705790899985,2207.705790899985,up,4.513328799977899,0,0,0,99,0.24,-0.07999999999999997,up,4.42411770002218,,,,,,,,,,,,,,,,,,,,,,,,,,,,,,,,,,,,,,,,,,,,,,,,,,,,,,,,,,,,HDGU5N,train_x,red_square,bottom_right,2025-08-12_16h12.07.941,HideSeek_v1,2022.2.5,59.57693227827341,
,7,1,4,1,-3,0,46,,train_dim1_1,1,30,,,,2,0,2,0,,,,,,,,,0,0,0,0,0,0,0,0,5,0,5,0,,,,,,,,,,,,,,,,,,,,,,,,,,,,,,,,,,,,,,,,,,,,,,,,,,,,,,,,,,,,,,,,30,,,,,,,,2212.226756499964,2212.226756499964,2212.226756499964,2212.226756499964,2212.226756499964,up,0.42658680002205074,0,0,0,99,0.24,2.7755575615628914e-17,up,0.34143920004135,,,,,,,,,,,,,,,,,,,,,,,,,,,,,,,,,,,,,,,,,,,,,,,,,,,,,,,,,,,,HDGU5N,train_x,red_square,bottom_right,2025-08-12_16h12.07.941,HideSeek_v1,2022.2.5,59.57693227827341,
,7,1,4,1,-3,0,46,,train_dim1_1,1,30,,,,2,0,2,0,,,,,,,,,0,0,0,0,0,0,0,0,6,0,6,0,,,,,,,,,,,,,,,,,,,,,,,,,,,,,,,,,,,,,,,,,,,,,,,,,,,,,,,,,,,,,,,,30,,,,,,,,2212.6594698999543,2212.6594698999543,2212.6594698999543,2212.6594698999543,2212.6594698999543,up,0.4931621000287123,0,0,0,99,0.24,0.08000000000000003,up,0.40660440002102405,,,,,,,,,,,,,,,,,,,,,,,,,,,,,,,,,,,,,,,,,,,,,,,,,,,,,,,,,,,,HDGU5N,train_x,red_square,bottom_right,2025-08-12_16h12.07.941,HideSeek_v1,2022.2.5,59.57693227827341,
,7,1,4,1,-3,0,46,,train_dim1_1,1,30,,,,2,0,2,0,,,,,,,,,0,0,0,0,0,0,0,0,7,0,7,0,,,,,,,,,,,,,,,,,,,,,,,,,,,,,,,,,,,,,,,,,,,,,,,,,,,,,,,,,,,,,,,,30,,,,,,,,2213.1608649999835,2213.1608649999835,2213.1608649999835,2213.1608649999835,2213.1608649999835,return,3.6956067999708466,0,0,0,0,0.24,0.08000000000000003,return,3.6105959999840707,5,-2,0.24,0.08000000000000003,,,,,,,,,,,,,,,,,,,,,,,,,,,,,,,,,,,,,,,,,,,,,,,,,,,,,,,,HDGU5N,train_x,red_square,bottom_right,2025-08-12_16h12.07.941,HideSeek_v1,2022.2.5,59.57693227827341,
,7,4,7,4,0,0,16,,train_dim1_1,2,30,,,,2,0,2,0,,,,,,,,,0,0,0,0,0,1,1,1,0,0,0,0,,,,,,,,,,,,,,,,,,,,,,,,,stimuli/alien_stimuli/16.png,,,,,,,,,,,,,,,,,,,,,,,,,,,,,stimuli/alien_stimuli/46.png,46,7,3,,,,,,,30,,,,,,,,2231.8587653999566,2231.8587653999566,2231.8587653999566,2231.8587653999566,2231.8587653999566,left,4.458587700035423,0,0,0,99,0.32,-0.08,left,4.352067299943883,,,,,2230.2633077999926,2218.4299858000013,0.16,-0.32,0.0,0.24,-0.32,0.16,0.28,0.16,-0.32,2218.4299858000013,2218.4299858000013,2218.4299858000013,2218.4299858000013,2218.4299858000013,2218.4299858000013,2218.4299858000013,2218.4299858000013,2218.416882369982,11.947991500026546,return,11.808373600011691,,,,,,,,,,,,,,,,,,,,,,,,,,,,,,,,,HDGU5N,train_x,red_square,bottom_right,2025-08-12_16h12.07.941,HideSeek_v1,2022.2.5,59.57693227827341,
,7,4,7,4,0,0,16,,train_dim1_1,2,30,,,,2,0,2,0,,,,,,,,,0,0,0,0,0,1,1,1,1,0,1,0,,,,,,,,,,,,,,,,,,,,,,,,,,,,,,,,,,,,,,,,,,,,,,,,,,,,,,,,,,,,,,,,30,,,,,,,,2236.30053139996,2236.30053139996,2236.30053139996,2236.30053139996,2236.30053139996,left,0.5428551000077277,0,0,0,99,0.24,-0.08,left,0.45610489998944104,,,,,,,,,,,,,,,,,,,,,,,,,,,,,,,,,,,,,,,,,,,,,,,,,,,,,,,,,,,,HDGU5N,train_x,red_square,bottom_right,2025-08-12_16h12.07.941,HideSeek_v1,2022.2.5,59.57693227827341,
,7,4,7,4,0,0,16,,train_dim1_1,2,30,,,,2,0,2,0,,,,,,,,,0,0,0,0,0,1,1,1,2,0,2,0,,,,,,,,,,,,,,,,,,,,,,,,,,,,,,,,,,,,,,,,,,,,,,,,,,,,,,,,,,,,,,,,30,,,,,,,,2236.854820299952,2236.854820299952,2236.854820299952,2236.854820299952,2236.854820299952,up,3.614223000011407,0,0,0,99,0.24,0.0,up,3.5201510000042617,,,,,,,,,,,,,,,,,,,,,,,,,,,,,,,,,,,,,,,,,,,,,,,,,,,,,,,,,,,,HDGU5N,train_x,red_square,bottom_right,2025-08-12_16h12.07.941,HideSeek_v1,2022.2.5,59.57693227827341,
,7,4,7,4,0,0,16,,train_dim1_1,2,30,,,,2,0,2,0,,,,,,,,,0,0,0,0,0,1,1,1,3,0,3,0,,,,,,,,,,,,,,,,,,,,,,,,,,,,,,,,,,,,,,,,,,,,,,,,,,,,,,,,,,,,,,,,30,,,,,,,,2240.4783153999597,2240.4783153999597,2240.4783153999597,2240.4783153999597,2240.4783153999597,return,1.0208076999988407,0,0,0,0,0.24,0.0,return,0.9359343000105582,6,-4,0.24,0.0,,,,,,,,,,,,,,,,,,,,,,,,,,,,,,,,,,,,,,,,,,,,,,,,,,,,,,,,HDGU5N,train_x,red_square,bottom_right,2025-08-12_16h12.07.941,HideSeek_v1,2022.2.5,59.57693227827341,
,9,4,8,4,-1,0,26,,train_dim1_1,3,30,,,,2,0,2,0,,,,,,,,,0,0,0,0,0,2,2,2,0,0,0,0,,,,,,,,,,,,,,,,,,,,,,,,,stimuli/alien_stimuli/26.png,,,,,,,,,,,,,,,,,,,,,,,,,,,,,stimuli/alien_stimuli/16.png,16,7,4,,,,,,,30,,,,,,,,2248.43736479996,2248.43736479996,2248.43736479996,2248.43736479996,2248.43736479996,return,5.476509400003124,0,1,0,0,0.56,-0.08,return,5.38849800004391,6,-4,0.56,-0.08,2246.8748206999735,2248.43736479996,0.4,-0.08,0.0,0.0,-0.08,0.4,0.4,0.4,-0.08,2243.0978456999874,2243.0978456999874,2243.0978456999874,2243.0978456999874,2243.0978456999874,2243.0978456999874,2243.0978456999874,2243.0978456999874,2243.0876657799586,3.9055688999942504,return,3.7537084999494255,,,,,,,,,,,,,,,,,,,,,,,,,,,,,,,,,HDGU5N,train_x,red_square,bottom_right,2025-08-12_16h12.07.941,HideSeek_v1,2022.2.5,59.57693227827341,
,7,3,3,3,-4,0,56,,train_dim1_1,4,30,,,,2,0,2,0,,,,,,,,,0,0,0,0,0,3,3,3,0,0,0,0,,,,,,,,,,,,,,,,,,,,,,,,,stimuli/alien_stimuli/56.png,,,,,,,,,,,,,,,,,,,,,,,,,,,,,stimuli/alien_stimuli/26.png,26,9,5,,,,,,,30,,,,,,,,2266.453385700006,2266.453385700006,2266.453385700006,2266.453385700006,2266.453385700006,left,2.441203399968799,0,1,0,99,0.32,-0.16,left,2.3550435999641195,,,,,2264.8892980999663,,0.48,-0.08,0.0,0.08,-0.08,0.48,0.52,0.48,-0.08,2255.516622999974,2255.516622999974,2255.516622999974,2255.516622999974,2255.516622999974,2255.516622999974,2255.516622999974,2255.516622999974,2255.4977409799817,9.504440799995791,return,9.344335400033742,,,,,,,,,,,,,,,,,,,,,,,,,,,,,,,,,HDGU5N,train_x,red_square,bottom_right,2025-08-12_16h12.07.941,HideSeek_v1,2022.2.5,59.57693227827341,
,7,3,3,3,-4,0,56,,train_dim1_1,4,30,,,,2,0,2,0,,,,,,,,,0,0,0,0,0,3,3,3,1,0,1,0,,,,,,,,,,,,,,,,,,,,,,,,,,,,,,,,,,,,,,,,,,,,,,,,,,,,,,,,,,,,,,,,30,,,,,,,,2268.8927386999712,2268.8927386999712,2268.8927386999712,2268.8927386999712,2268.8927386999712,left,0.3425783999846317,0,1,0,99,0.24,-0.16,left,0.26243470003828406,,,,,,,,,,,,,,,,,,,,,,,,,,,,,,,,,,,,,,,,,,,,,,,,,,,,,,,,,,,,HDGU5N,train_x,red_square,bottom_right,2025-08-12_16h12.07.941,HideSeek_v1,2022.2.5,59.57693227827341,
,7,3,3,3,-4,0,56,,train_dim1_1,4,30,,,,2,0,2,0,,,,,,,,,0,0,0,0,0,3,3,3,2,0,2,0,,,,,,,,,,,,,,,,,,,,,,,,,,,,,,,,,,,,,,,,,,,,,,,,,,,,,,,,,,,,,,,,30,,,,,,,,2269.242916899966,2269.242916899966,2269.242916899966,2269.242916899966,2269.242916899966,left,0.37634840002283454,0,1,0,99,0.15999999999999998,-0.16,left,0.2885377000202425,,,,,,,,,,,,,,,,,,,,,,,,,,,,,,,,,,,,,,,,,,,,,,,,,,,,,,,,,,,,HDGU5N,train_x,red_square,bottom_right,2025-08-12_16h12.07.941,HideSeek_v1,2022.2.5,59.57693227827341,
,7,3,3,3,-4,0,56,,train_dim1_1,4,30,,,,2,0,2,0,,,,,,,,,0,0,0,0,0,3,3,3,3,0,3,0,,,,,,,,,,,,,,,,,,,,,,,,,,,,,,,,,,,,,,,,,,,,,,,,,,,,,,,,,,,,,,,,30,,,,,,,,2269.6263978999923,2269.6263978999923,2269.6263978999923,2269.6263978999923,2269.6263978999923,return,0.8433204999892041,0,1,0,0,0.15999999999999998,-0.16,return,0.753197799960617,6,-7,0.15999999999999998,-0.16,,,,,,,,,,,,,,,,,,,,,,,,,,,,,,,,,,,,,,,,,,,,,,,,,,,,,,,,HDGU5N,train_x,red_square,bottom_right,2025-08-12_16h12.07.941,HideSeek_v1,2022.2.5,59.57693227827341,
,5,2,0,2,-5,0,66,,train_dim1_1,5,30,,,,2,0,2,0,,,,,,,,,0,0,0,0,0,4,4,4,0,0,0,0,,,,,,,,,,,,,,,,,,,,,,,,,stimuli/alien_stimuli/66.png,,,,,,,,,,,,,,,,,,,,,,,,,,,,,stimuli/alien_stimuli/56.png,56,7,6,,,,,,,30,,,,,,,,2277.107008299965,2277.107008299965,2277.107008299965,2277.107008299965,2277.107008299965,up,1.590059400012251,0,1,0,99,0.24,-0.15999999999999998,up,1.5069080000394024,,,,,2275.5362931999844,2272.0491240999545,0.08,-0.16,0.0,0.32,-0.16,0.08,0.24000000000000002,0.08,-0.16,2272.0491240999545,2272.0491240999545,2272.0491240999545,2272.0491240999545,2272.0491240999545,2272.0491240999545,2272.0491240999545,2272.0491240999545,2272.0282027699523,3.609432899975218,return,3.4532365999766625,,,,,,,,,,,,,,,,,,,,,,,,,,,,,,,,,HDGU5N,train_x,red_square,bottom_right,2025-08-12_16h12.07.941,HideSeek_v1,2022.2.5,59.57693227827341,
,5,2,0,2,-5,0,66,,train_dim1_1,5,30,,,,2,0,2,0,,,,,,,,,0,0,0,0,0,4,4,4,1,0,1,0,,,,,,,,,,,,,,,,,,,,,,,,,,,,,,,,,,,,,,,,,,,,,,,,,,,,,,,,,,,,,,,,30,,,,,,,,2278.6987705999636,2278.6987705999636,2278.6987705999636,2278.6987705999636,2278.6987705999636,up,1.1433845999999903,0,1,0,99,0.24,-0.07999999999999997,up,1.0578474999638274,,,,,,,,,,,,,,,,,,,,,,,,,,,,,,,,,,,,,,,,,,,,,,,,,,,,,,,,,,,,HDGU5N,train_x,red_square,bottom_right,2025-08-12_16h12.07.941,HideSeek_v1,2022.2.5,59.57693227827341,
,5,2,0,2,-5,0,66,,train_dim1_1,5,30,,,,2,0,2,0,,,,,,,,,0,0,0,0,0,4,4,4,2,0,2,0,,,,,,,,,,,,,,,,,,,,,,,,,,,,,,,,,,,,,,,,,,,,,,,,,,,,,,,,,,,,,,,,30,,,,,,,,2279.8488321999903,2279.8488321999903,2279.8488321999903,2279.8488321999903,2279.8488321999903,up,0.5097806000267155,0,1,0,99,0.24,2.7755575615628914e-17,up,0.43315449997317046,,,,,,,,,,,,,,,,,,,,,,,,,,,,,,,,,,,,,,,,,,,,,,,,,,,,,,,,,,,,HDGU5N,train_x,red_square,bottom_right,2025-08-12_16h12.07.941,HideSeek_v1,2022.2.5,59.57693227827341,
,5,2,0,2,-5,0,66,,train_dim1_1,5,30,,,,2,0,2,0,,,,,,,,,0,0,0,0,0,4,4,4,3,0,3,0,,,,,,,,,,,,,,,,,,,,,,,,,,,,,,,,,,,,,,,,,,,,,,,,,,,,,,,,,,,,,,,,30,,,,,,,,2280.366465899977,2280.366465899977,2280.366465899977,2280.366465899977,2280.366465899977,up,1.0436815000139177,0,1,0,99,0.24,0.08000000000000003,up,0.9602979000192136,,,,,,,,,,,,,,,,,,,,,,,,,,,,,,,,,,,,,,,,,,,,,,,,,,,,,,,,,,,,HDGU5N,train_x,red_square,bottom_right,2025-08-12_16h12.07.941,HideSeek_v1,2022.2.5,59.57693227827341,
,5,2,0,2,-5,0,66,,train_dim1_1,5,30,,,,2,0,2,0,,,,,,,,,0,0,0,0,0,4,4,4,4,0,4,0,,,,,,,,,,,,,,,,,,,,,,,,,,,,,,,,,,,,,,,,,,,,,,,,,,,,,,,,,,,,,,,,30,,,,,,,,2281.4166692,2281.4166692,2281.4166692,2281.4166692,2281.4166692,up,0.20950579998316243,0,1,0,99,0.24,0.16000000000000003,up,0.1368642000015825,,,,,,,,,,,,,,,,,,,,,,,,,,,,,,,,,,,,,,,,,,,,,,,,,,,,,,,,,,,,HDGU5N,train_x,red_square,bottom_right,2025-08-12_16h12.07.941,HideSeek_v1,2022.2.5,59.57693227827341,
,5,2,0,2,-5,0,66,,train_dim1_1,5,30,,,,2,0,2,0,,,,,,,,,0,0,0,0,0,4,4,4,5,0,5,0,,,,,,,,,,,,,,,,,,,,,,,,,,,,,,,,,,,,,,,,,,,,,,,,,,,,,,,,,,,,,,,,30,,,,,,,,2281.6377759999596,2281.6377759999596,2281.6377759999596,2281.6377759999596,2281.6377759999596,down,1.2440064999973401,0,1,0,99,0.24,0.08000000000000003,down,1.157996199966874,,,,,,,,,,,,,,,,,,,,,,,,,,,,,,,,,,,,,,,,,,,,,,,,,,,,,,,,,,,,HDGU5N,train_x,red_square,bottom_right,2025-08-12_16h12.07.941,HideSeek_v1,2022.2.5,59.57693227827341,
,5,2,0,2,-5,0,66,,train_dim1_1,5,30,,,,2,0,2,0,,,,,,,,,0,0,0,0,0,4,4,4,6,0,6,0,,,,,,,,,,,,,,,,,,,,,,,,,,,,,,,,,,,,,,,,,,,,,,,,,,,,,,,,,,,,,,,,30,,,,,,,,2282.894693899958,2282.894693899958,2282.894693899958,2282.894693899958,2282.894693899958,return,0.4601832000189461,0,0,0,0,0.24,0.08000000000000003,return,0.3645269999979064,10,-7,0.24,0.08000000000000003,,,,,,,,,,,,,,,,,,,,,,,,,,,,,,,,,,,,,,,,,,,,,,,,,,,,,,,,HDGU5N,train_x,red_square,bottom_right,2025-08-12_16h12.07.941,HideSeek_v1,2022.2.5,59.57693227827341,
,5,0,4,0,-1,0,26,,train_dim1_1,6,30,,,,2,0,2,0,,,,,,,,,0,0,0,0,0,5,5,5,0,0,0,0,,,,,,,,,,,,,,,,,,,,,,,,,stimuli/alien_stimuli/26.png,,,,,,,,,,,,,,,,,,,,,,,,,,,,,stimuli/alien_stimuli/66.png,66,5,7,,,,,,,30,,,,,,,,2289.3545718999812,2289.3545718999812,2289.3545718999812,2289.3545718999812,2289.3545718999812,left,4.926472800027113,0,0,0,99,0.15999999999999998,-0.4,left,4.837004100030754,,,,,2287.7798035999876,2284.936990499962,-0.16,-0.24,0.0,0.4,-0.24,-0.16,0.039999999999999994,-0.16,-0.24,2284.936990499962,2284.936990499962,2284.936990499962,2284.936990499962,2284.936990499962,2284.936990499962,2284.936990499962,2284.936990499962,2284.922509679955,2.9748673000140116,return,2.8241214999579825,,,,,,,,,,,,,,,,,,,,,,,,,,,,,,,,,HDGU5N,train_x,red_square,bottom_right,2025-08-12_16h12.07.941,HideSeek_v1,2022.2.5,59.57693227827341,
,5,0,4,0,-1,0,26,,train_dim1_1,6,30,,,,2,0,2,0,,,,,,,,,0,0,0,0,0,5,5,5,1,0,1,0,,,,,,,,,,,,,,,,,,,,,,,,,,,,,,,,,,,,,,,,,,,,,,,,,,,,,,,,,,,,,,,,30,,,,,,,,2294.2826917999773,2294.2826917999773,2294.2826917999773,2294.2826917999773,2294.2826917999773,return,0.49301330000162125,1,0,0,1,0.15999999999999998,-0.4,return,0.3994206999777816,10,-8,0.15999999999999998,-0.4,,,,,,,,,,,,,,,,,,,,,,,,,,,,,,,,,,,,,,,,,,,,,,,,,,,,,,,,HDGU5N,train_x,red_square,bottom_right,2025-08-12_16h12.07.941,HideSeek_v1,2022.2.5,59.57693227827341,
,8,0,3,0,-5,0,66,,train_dim1_1,7,30,,,,2,0,2,0,,,,,,,,,0,0,0,0,0,6,6,6,0,0,0,0,,,,,,,,,,,,,,,,,,,,,,,,,stimuli/alien_stimuli/66.png,,,,,,,,,,,,,,,,,,,,,,,,,,,,,stimuli/alien_stimuli/26.png,26,5,8,,,,,,,30,,,,,,,,2301.466162799974,2301.466162799974,2301.466162799974,2301.466162799974,2301.466162799974,up,2.8920671999803744,1,0,0,99,0.48,-0.32,up,2.7921530000166968,,,,,2299.888272699958,2296.3736311999965,0.16,-0.4,0.0,0.08,-0.4,0.16,0.2,0.16,-0.4,2296.3736311999965,2296.3736311999965,2296.3736311999965,2296.3736311999965,2296.3736311999965,2296.3736311999965,2296.3736311999965,2296.3736311999965,2296.3652984899704,3.6578026000061072,return,3.4968671000096947,,,,,,,,,,,,,,,,,,,,,,,,,,,,,,,,,HDGU5N,train_x,red_square,bottom_right,2025-08-12_16h12.07.941,HideSeek_v1,2022.2.5,59.57693227827341,
,8,0,3,0,-5,0,66,,train_dim1_1,7,30,,,,2,0,2,0,,,,,,,,,0,0,0,0,0,6,6,6,1,0,1,0,,,,,,,,,,,,,,,,,,,,,,,,,,,,,,,,,,,,,,,,,,,,,,,,,,,,,,,,,,,,,,,,30,,,,,,,,2304.3535371999606,2304.3535371999606,2304.3535371999606,2304.3535371999606,2304.3535371999606,up,0.4257404999807477,1,0,0,99,0.48,-0.24,up,0.34287699998822063,,,,,,,,,,,,,,,,,,,,,,,,,,,,,,,,,,,,,,,,,,,,,,,,,,,,,,,,,,,,HDGU5N,train_x,red_square,bottom_right,2025-08-12_16h12.07.941,HideSeek_v1,2022.2.5,59.57693227827341,
,8,0,3,0,-5,0,66,,train_dim1_1,7,30,,,,2,0,2,0,,,,,,,,,0,0,0,0,0,6,6,6,2,0,2,0,,,,,,,,,,,,,,,,,,,,,,,,,,,,,,,,,,,,,,,,,,,,,,,,,,,,,,,,,,,,,,,,30,,,,,,,,2304.786332699994,2304.786332699994,2304.786332699994,2304.786332699994,2304.786332699994,up,0.44326999998884276,1,0,0,99,0.48,-0.15999999999999998,up,0.3627214999869466,,,,,,,,,,,,,,,,,,,,,,,,,,,,,,,,,,,,,,,,,,,,,,,,,,,,,,,,,,,,HDGU5N,train_x,red_square,bottom_right,2025-08-12_16h12.07.941,HideSeek_v1,2022.2.5,59.57693227827341,
,8,0,3,0,-5,0,66,,train_dim1_1,7,30,,,,2,0,2,0,,,,,,,,,0,0,0,0,0,6,6,6,3,0,3,0,,,,,,,,,,,,,,,,,,,,,,,,,,,,,,,,,,,,,,,,,,,,,,,,,,,,,,,,,,,,,,,,30,,,,,,,,2305.2373428999563,2305.2373428999563,2305.2373428999563,2305.2373428999563,2305.2373428999563,return,1.293962099996861,1,0,0,0,0.48,-0.15999999999999998,return,1.208721000002697,13,-8,0.48,-0.15999999999999998,,,,,,,,,,,,,,,,,,,,,,,,,,,,,,,,,,,,,,,,,,,,,,,,,,,,,,,,HDGU5N,train_x,red_square,bottom_right,2025-08-12_16h12.07.941,HideSeek_v1,2022.2.5,59.57693227827341,
,5,4,2,4,-3,0,46,,train_dim1_1,8,30,,,,2,0,2,0,,,,,,,,,0,0,0,0,0,7,7,7,0,0,0,0,,,,,,,,,,,,,,,,,,,,,,,,,stimuli/alien_stimuli/46.png,,,,,,,,,,,,,,,,,,,,,,,,,,,,,stimuli/alien_stimuli/66.png,66,8,9,,,,,,,30,,,,,,,,2311.619827699964,2311.619827699964,2311.619827699964,2311.619827699964,2311.619827699964,left,5.5993715999647975,1,0,0,99,0.15999999999999998,-0.08,left,5.494839999999385,,,,,2310.029760199948,,0.08,-0.4,0.0,0.4,-0.4,0.08,0.27999999999999997,0.08,-0.4,2308.1298495999654,2308.1298495999654,2308.1298495999654,2308.1298495999654,2308.1298495999654,2308.1298495999654,2308.1298495999654,2308.1298495999654,2308.10825646997,2.023318199964706,return,1.8767961999983527,,,,,,,,,,,,,,,,,,,,,,,,,,,,,,,,,HDGU5N,train_x,red_square,bottom_right,2025-08-12_16h12.07.941,HideSeek_v1,2022.2.5,59.57693227827341,
,5,4,2,4,-3,0,46,,train_dim1_1,8,30,,,,2,0,2,0,,,,,,,,,0,0,0,0,0,7,7,7,1,0,1,0,,,,,,,,,,,,,,,,,,,,,,,,,,,,,,,,,,,,,,,,,,,,,,,,,,,,,,,,,,,,,,,,30,,,,,,,,2317.213208699948,2317.213208699948,2317.213208699948,2317.213208699948,2317.213208699948,left,0.44496049999725074,1,0,0,99,0.07999999999999997,-0.08,left,0.3621932999812998,,,,,,,,,,,,,,,,,,,,,,,,,,,,,,,,,,,,,,,,,,,,,,,,,,,,,,,,,,,,HDGU5N,train_x,red_square,bottom_right,2025-08-12_16h12.07.941,HideSeek_v1,2022.2.5,59.57693227827341,
,5,4,2,4,-3,0,46,,train_dim1_1,8,30,,,,2,0,2,0,,,,,,,,,0,0,0,0,0,7,7,7,2,0,2,0,,,,,,,,,,,,,,,,,,,,,,,,,,,,,,,,,,,,,,,,,,,,,,,,,,,,,,,,,,,,,,,,30,,,,,,,,2317.6639813999645,2317.6639813999645,2317.6639813999645,2317.6639813999645,2317.6639813999645,left,0.4928203000454232,1,0,0,99,-2.7755575615628914e-17,-0.08,left,0.40381780004827306,,,,,,,,,,,,,,,,,,,,,,,,,,,,,,,,,,,,,,,,,,,,,,,,,,,,,,,,,,,,HDGU5N,train_x,red_square,bottom_right,2025-08-12_16h12.07.941,HideSeek_v1,2022.2.5,59.57693227827341,
,5,4,2,4,-3,0,46,,train_dim1_1,8,30,,,,2,0,2,0,,,,,,,,,0,0,0,0,0,7,7,7,3,0,3,0,,,,,,,,,,,,,,,,,,,,,,,,,,,,,,,,,,,,,,,,,,,,,,,,,,,,,,,,,,,,,,,,30,,,,,,,,2318.163693999988,2318.163693999988,2318.163693999988,2318.163693999988,2318.163693999988,return,1.0103792999871075,2,0,0,1,-2.7755575615628914e-17,-0.08,return,0.9302461000042967,13,-11,-2.7755575615628914e-17,-0.08,,,,,,,,,,,,,,,,,,,,,,,,,,,,,,,,,,,,,,,,,,,,,,,,,,,,,,,,HDGU5N,train_x,red_square,bottom_right,2025-08-12_16h12.07.941,HideSeek_v1,2022.2.5,59.57693227827341,
,6,0,2,0,-4,0,56,,train_dim1_1,9,30,,,,2,0,2,0,,,,,,,,,0,0,0,0,0,8,8,8,0,0,0,0,,,,,,,,,,,,,,,,,,,,,,,,,stimuli/alien_stimuli/56.png,,,,,,,,,,,,,,,,,,,,,,,,,,,,,stimuli/alien_stimuli/46.png,46,5,10,,,,,,,30,,,,,,,,2324.7003173999838,2324.7003173999838,2324.7003173999838,2324.7003173999838,2324.7003173999838,left,3.2738531000213698,2,0,0,99,0.24,-0.4,left,3.167654199991375,,,,,2323.1094322999706,2320.7395257999888,0,-0.08,0.0,0.24,-0.08,0,0.12,0,-0.08,2320.7395257999888,2320.7395257999888,2320.7395257999888,2320.7395257999888,2320.7395257999888,2320.7395257999888,2320.7395257999888,2320.7395257999888,2320.7187158599963,2.476466900028754,return,2.3422120999894105,,,,,,,,,,,,,,,,,,,,,,,,,,,,,,,,,HDGU5N,train_x,red_square,bottom_right,2025-08-12_16h12.07.941,HideSeek_v1,2022.2.5,59.57693227827341,
,6,0,2,0,-4,0,56,,train_dim1_1,9,30,,,,2,0,2,0,,,,,,,,,0,0,0,0,0,8,8,8,1,0,1,0,,,,,,,,,,,,,,,,,,,,,,,,,,,,,,,,,,,,,,,,,,,,,,,,,,,,,,,,,,,,,,,,30,,,,,,,,2327.957639899978,2327.957639899978,2327.957639899978,2327.957639899978,2327.957639899978,left,0.4262315000523813,2,0,0,99,0.15999999999999998,-0.4,left,0.3474457999691367,,,,,,,,,,,,,,,,,,,,,,,,,,,,,,,,,,,,,,,,,,,,,,,,,,,,,,,,,,,,HDGU5N,train_x,red_square,bottom_right,2025-08-12_16h12.07.941,HideSeek_v1,2022.2.5,59.57693227827341,
,6,0,2,0,-4,0,56,,train_dim1_1,9,30,,,,2,0,2,0,,,,,,,,,0,0,0,0,0,8,8,8,2,0,2,0,,,,,,,,,,,,,,,,,,,,,,,,,,,,,,,,,,,,,,,,,,,,,,,,,,,,,,,,,,,,,,,,30,,,,,,,,2328.3915406999877,2328.3915406999877,2328.3915406999877,2328.3915406999877,2328.3915406999877,left,0.4432037999504246,2,0,0,99,0.07999999999999997,-0.4,left,0.35662979999324307,,,,,,,,,,,,,,,,,,,,,,,,,,,,,,,,,,,,,,,,,,,,,,,,,,,,,,,,,,,,HDGU5N,train_x,red_square,bottom_right,2025-08-12_16h12.07.941,HideSeek_v1,2022.2.5,59.57693227827341,
,6,0,2,0,-4,0,56,,train_dim1_1,9,30,,,,2,0,2,0,,,,,,,,,0,0,0,0,0,8,8,8,3,0,3,0,,,,,,,,,,,,,,,,,,,,,,,,,,,,,,,,,,,,,,,,,,,,,,,,,,,,,,,,,,,,,,,,30,,,,,,,,2328.8532403999707,2328.8532403999707,2328.8532403999707,2328.8532403999707,2328.8532403999707,left,1.1936622000066563,2,0,0,99,-2.7755575615628914e-17,-0.4,left,1.101138699974399,,,,,,,,,,,,,,,,,,,,,,,,,,,,,,,,,,,,,,,,,,,,,,,,,,,,,,,,,,,,HDGU5N,train_x,red_square,bottom_right,2025-08-12_16h12.07.941,HideSeek_v1,2022.2.5,59.57693227827341,
,6,0,2,0,-4,0,56,,train_dim1_1,9,30,,,,2,0,2,0,,,,,,,,,0,0,0,0,0,8,8,8,4,0,4,0,,,,,,,,,,,,,,,,,,,,,,,,,,,,,,,,,,,,,,,,,,,,,,,,,,,,,,,,,,,,,,,,30,,,,,,,,2330.042998799996,2330.042998799996,2330.042998799996,2330.042998799996,2330.042998799996,return,0.7607334000058472,3,0,0,1,-2.7755575615628914e-17,-0.4,return,0.6791305000078864,13,-15,-2.7755575615628914e-17,-0.4,,,,,,,,,,,,,,,,,,,,,,,,,,,,,,,,,,,,,,,,,,,,,,,,,,,,,,,,HDGU5N,train_x,red_square,bottom_right,2025-08-12_16h12.07.941,HideSeek_v1,2022.2.5,59.57693227827341,
,5,3,5,3,0,0,16,,train_dim1_1,10,30,,,,2,0,2,0,,,,,,,,,0,0,0,0,0,9,9,9,0,0,0,0,,,,,,,,,,,,,,,,,,,,,,,,,stimuli/alien_stimuli/16.png,,,,,,,,,,,,,,,,,,,,,,,,,,,,,stimuli/alien_stimuli/56.png,56,6,11,,,,,,,30,,,,,,,,2335.9277166999527,2335.9277166999527,2335.9277166999527,2335.9277166999527,2335.9277166999527,up,3.8968929999973625,3,0,0,99,0.24,-0.08,up,3.7821546000195667,,,,,2334.3348239999614,,0,-0.4,0.0,0.32,-0.4,0,0.16,0,-0.4,2332.401427200006,2332.401427200006,2332.401427200006,2332.401427200006,2332.401427200006,2332.401427200006,2332.401427200006,2332.401427200006,2332.395130479976,2.058189500006847,return,1.9142452999949455,,,,,,,,,,,,,,,,,,,,,,,,,,,,,,,,,HDGU5N,train_x,red_square,bottom_right,2025-08-12_16h12.07.941,HideSeek_v1,2022.2.5,59.57693227827341,
,5,3,5,3,0,0,16,,train_dim1_1,10,30,,,,2,0,2,0,,,,,,,,,0,0,0,0,0,9,9,9,1,0,1,0,,,,,,,,,,,,,,,,,,,,,,,,,,,,,,,,,,,,,,,,,,,,,,,,,,,,,,,,,,,,,,,,30,,,,,,,,2339.8094212999567,2339.8094212999567,2339.8094212999567,2339.8094212999567,2339.8094212999567,return,0.7710367999970913,3,1,0,0,0.24,-0.08,return,0.686140899953898,14,-15,0.24,-0.08,,,,,,,,,,,,,,,,,,,,,,,,,,,,,,,,,,,,,,,,,,,,,,,,,,,,,,,,HDGU5N,train_x,red_square,bottom_right,2025-08-12_16h12.07.941,HideSeek_v1,2022.2.5,59.57693227827341,
,7,2,4,2,-3,0,46,,train_dim1_1,11,30,,,,2,0,2,0,,,,,,,,,0,0,0,0,0,10,10,10,0,0,0,0,,,,,,,,,,,,,,,,,,,,,,,,,stimuli/alien_stimuli/46.png,,,,,,,,,,,,,,,,,,,,,,,,,,,,,stimuli/alien_stimuli/16.png,16,5,12,,,,,,,30,,,,,,,,2346.267977999989,2346.267977999989,2346.267977999989,2346.267977999989,2346.267977999989,up,2.273869900032878,3,1,0,99,0.4,-0.15999999999999998,up,2.180247900018003,,,,,2344.69400399999,2342.145299799973,0.24,-0.16,0.0,0.0,-0.16,0.24,0.24,0.24,-0.16,2342.145299799973,2342.145299799973,2342.145299799973,2342.145299799973,2342.145299799973,2342.145299799973,2342.145299799973,2342.145299799973,2342.1363893699836,2.6612109999987297,return,2.5287178000435233,,,,,,,,,,,,,,,,,,,,,,,,,,,,,,,,,HDGU5N,train_x,red_square,bottom_right,2025-08-12_16h12.07.941,HideSeek_v1,2022.2.5,59.57693227827341,
,7,2,4,2,-3,0,46,,train_dim1_1,11,30,,,,2,0,2,0,,,,,,,,,0,0,0,0,0,10,10,10,1,0,1,0,,,,,,,,,,,,,,,,,,,,,,,,,,,,,,,,,,,,,,,,,,,,,,,,,,,,,,,,,,,,,,,,30,,,,,,,,2348.5399598999647,2348.5399598999647,2348.5399598999647,2348.5399598999647,2348.5399598999647,up,0.4928478999645449,3,1,0,99,0.4,-0.07999999999999997,up,0.4066258000093512,,,,,,,,,,,,,,,,,,,,,,,,,,,,,,,,,,,,,,,,,,,,,,,,,,,,,,,,,,,,HDGU5N,train_x,red_square,bottom_right,2025-08-12_16h12.07.941,HideSeek_v1,2022.2.5,59.57693227827341,
,7,2,4,2,-3,0,46,,train_dim1_1,11,30,,,,2,0,2,0,,,,,,,,,0,0,0,0,0,10,10,10,2,0,2,0,,,,,,,,,,,,,,,,,,,,,,,,,,,,,,,,,,,,,,,,,,,,,,,,,,,,,,,,,,,,,,,,30,,,,,,,,2349.039890099957,2349.039890099957,2349.039890099957,2349.039890099957,2349.039890099957,up,0.41026869998313487,3,1,0,99,0.4,2.7755575615628914e-17,up,0.32474119996186346,,,,,,,,,,,,,,,,,,,,,,,,,,,,,,,,,,,,,,,,,,,,,,,,,,,,,,,,,,,,HDGU5N,train_x,red_square,bottom_right,2025-08-12_16h12.07.941,HideSeek_v1,2022.2.5,59.57693227827341,
,7,2,4,2,-3,0,46,,train_dim1_1,11,30,,,,2,0,2,0,,,,,,,,,0,0,0,0,0,10,10,10,3,0,3,0,,,,,,,,,,,,,,,,,,,,,,,,,,,,,,,,,,,,,,,,,,,,,,,,,,,,,,,,,,,,,,,,30,,,,,,,,2349.456772000005,2349.456772000005,2349.456772000005,2349.456772000005,2349.456772000005,return,0.6098697999841534,3,0,0,0,0.4,2.7755575615628914e-17,return,0.5233437999850139,17,-15,0.4,2.7755575615628914e-17,,,,,,,,,,,,,,,,,,,,,,,,,,,,,,,,,,,,,,,,,,,,,,,,,,,,,,,,HDGU5N,train_x,red_square,bottom_right,2025-08-12_16h12.07.941,HideSeek_v1,2022.2.5,59.57693227827341,
,5,0,4,0,-1,0,26,,train_dim1_1,12,30,,,,2,0,2,0,,,,,,,,,0,0,0,0,0,11,11,11,0,0,0,0,,,,,,,,,,,,,,,,,,,,,,,,,stimuli/alien_stimuli/26.png,,,,,,,,,,,,,,,,,,,,,,,,,,,,,stimuli/alien_stimuli/46.png,46,7,13,,,,,,,30,,,,,,,,2359.146525899996,2359.146525899996,2359.146525899996,2359.146525899996,2359.146525899996,return,2.5077007999643683,3,1,0,0,0.24,-0.4,return,2.4146618000231683,17,-15,0.24,-0.4,2357.568850199983,2351.6293319999822,0.16,-0.24,0.0,0.24,-0.24,0.16,0.28,0.16,-0.24,2351.6293319999822,2351.6293319999822,2351.6293319999822,2351.6293319999822,2351.6293319999822,2351.6293319999822,2351.6293319999822,2351.6293319999822,2351.6112059599955,6.042294699989725,return,5.9212427999591455,,,,,,,,,,,,,,,,,,,,,,,,,,,,,,,,,HDGU5N,train_x,red_square,bottom_right,2025-08-12_16h12.07.941,HideSeek_v1,2022.2.5,59.57693227827341,
,5,4,1,4,-4,0,56,,train_dim1_1,13,30,,,,2,0,2,0,,,,,,,,,0,0,0,0,0,12,12,12,0,0,0,0,,,,,,,,,,,,,,,,,,,,,,,,,stimuli/alien_stimuli/56.png,,,,,,,,,,,,,,,,,,,,,,,,,,,,,stimuli/alien_stimuli/26.png,26,5,14,,,,,,,30,,,,,,,,2367.0147986999946,2367.0147986999946,2367.0147986999946,2367.0147986999946,2367.0147986999946,left,3.991542500036303,3,1,0,99,0.15999999999999998,-0.08,left,3.889880099974107,,,,,2365.427360599977,2363.241821799951,0.16,-0.4,0.0,0.08,-0.4,0.16,0.2,0.16,-0.4,2363.241821799951,2363.241821799951,2363.241821799951,2363.241821799951,2363.241821799951,2363.241821799951,2363.241821799951,2363.241821799951,2363.2207468799666,2.3243363999645226,return,2.1648657999467105,,,,,,,,,,,,,,,,,,,,,,,,,,,,,,,,,HDGU5N,train_x,red_square,bottom_right,2025-08-12_16h12.07.941,HideSeek_v1,2022.2.5,59.57693227827341,
,5,4,1,4,-4,0,56,,train_dim1_1,13,30,,,,2,0,2,0,,,,,,,,,0,0,0,0,0,12,12,12,1,0,1,0,,,,,,,,,,,,,,,,,,,,,,,,,,,,,,,,,,,,,,,,,,,,,,,,,,,,,,,,,,,,,,,,30,,,,,,,,2370.993956099963,2370.993956099963,2370.993956099963,2370.993956099963,2370.993956099963,left,0.5428666999796405,3,1,0,99,0.07999999999999997,-0.08,left,0.45263419998809695,,,,,,,,,,,,,,,,,,,,,,,,,,,,,,,,,,,,,,,,,,,,,,,,,,,,,,,,,,,,HDGU5N,train_x,red_square,bottom_right,2025-08-12_16h12.07.941,HideSeek_v1,2022.2.5,59.57693227827341,
,5,4,1,4,-4,0,56,,train_dim1_1,13,30,,,,2,0,2,0,,,,,,,,,0,0,0,0,0,12,12,12,2,0,2,0,,,,,,,,,,,,,,,,,,,,,,,,,,,,,,,,,,,,,,,,,,,,,,,,,,,,,,,,,,,,,,,,30,,,,,,,,2371.544661599968,2371.544661599968,2371.544661599968,2371.544661599968,2371.544661599968,left,0.5262625000323169,3,1,0,99,-2.7755575615628914e-17,-0.08,left,0.44704330002423376,,,,,,,,,,,,,,,,,,,,,,,,,,,,,,,,,,,,,,,,,,,,,,,,,,,,,,,,,,,,HDGU5N,train_x,red_square,bottom_right,2025-08-12_16h12.07.941,HideSeek_v1,2022.2.5,59.57693227827341,
,5,4,1,4,-4,0,56,,train_dim1_1,13,30,,,,2,0,2,0,,,,,,,,,0,0,0,0,0,12,12,12,3,0,3,0,,,,,,,,,,,,,,,,,,,,,,,,,,,,,,,,,,,,,,,,,,,,,,,,,,,,,,,,,,,,,,,,30,,,,,,,,2372.07841919997,2372.07841919997,2372.07841919997,2372.07841919997,2372.07841919997,return,0.8106737000052817,3,1,0,0,-2.7755575615628914e-17,-0.08,return,0.7222107999841683,17,-18,-2.7755575615628914e-17,-0.08,,,,,,,,,,,,,,,,,,,,,,,,,,,,,,,,,,,,,,,,,,,,,,,,,,,,,,,,HDGU5N,train_x,red_square,bottom_right,2025-08-12_16h12.07.941,HideSeek_v1,2022.2.5,59.57693227827341,
,9,3,9,3,0,0,16,,train_dim1_1,14,30,,,,2,0,2,0,,,,,,,,,0,0,0,0,0,13,13,13,0,0,0,0,,,,,,,,,,,,,,,,,,,,,,,,,stimuli/alien_stimuli/16.png,,,,,,,,,,,,,,,,,,,,,,,,,,,,,stimuli/alien_stimuli/56.png,56,5,15,,,,,,,30,,,,,,,,2378.242875099997,2378.242875099997,2378.242875099997,2378.242875099997,2378.242875099997,return,3.4921262999996543,4,0,0,1,0.56,-0.16,return,3.387580499984324,17,-18,0.56,-0.16,2376.654102600005,,-0.08,-0.08,0.0,0.32,-0.08,-0.08,0.07999999999999999,-0.08,-0.08,2374.489911599958,2374.489911599958,2374.489911599958,2374.489911599958,2374.489911599958,2374.489911599958,2374.489911599958,2374.489911599958,2374.4799942799496,2.2926324000000022,return,2.1373571999720298,,,,,,,,,,,,,,,,,,,,,,,,,,,,,,,,,HDGU5N,train_x,red_square,bottom_right,2025-08-12_16h12.07.941,HideSeek_v1,2022.2.5,59.57693227827341,
,9,2,4,2,-5,0,66,,train_dim1_1,15,30,,,,2,0,2,0,,,,,,,,,0,0,0,0,0,14,14,14,0,0,0,0,,,,,,,,,,,,,,,,,,,,,,,,,stimuli/alien_stimuli/66.png,,,,,,,,,,,,,,,,,,,,,,,,,,,,,stimuli/alien_stimuli/16.png,16,9,16,,,,,,,30,,,,,,,,2386.9593381999875,2386.9593381999875,2386.9593381999875,2386.9593381999875,2386.9593381999875,left,2.497717200021725,4,0,0,99,0.48000000000000004,-0.24,left,2.3933567999629304,,,,,2385.372835499991,2386.9593381999875,0.56,-0.16,0.0,0.0,-0.16,0.56,0.56,0.56,-0.16,2383.2946422999958,2383.2946422999958,2383.2946422999958,2383.2946422999958,2383.2946422999958,2383.2946422999958,2383.2946422999958,2383.2946422999958,2383.2874592699463,2.187489000032656,return,2.0541067000012845,,,,,,,,,,,,,,,,,,,,,,,,,,,,,,,,,HDGU5N,train_x,red_square,bottom_right,2025-08-12_16h12.07.941,HideSeek_v1,2022.2.5,59.57693227827341,
,9,2,4,2,-5,0,66,,train_dim1_1,15,30,,,,2,0,2,0,,,,,,,,,0,0,0,0,0,14,14,14,1,0,1,0,,,,,,,,,,,,,,,,,,,,,,,,,,,,,,,,,,,,,,,,,,,,,,,,,,,,,,,,,,,,,,,,30,,,,,,,,2389.439554499986,2389.439554499986,2389.439554499986,2389.439554499986,2389.439554499986,left,0.31011199997738004,4,0,0,99,0.4,-0.24,left,0.23643759998958558,,,,,,,,,,,,,,,,,,,,,,,,,,,,,,,,,,,,,,,,,,,,,,,,,,,,,,,,,,,,HDGU5N,train_x,red_square,bottom_right,2025-08-12_16h12.07.941,HideSeek_v1,2022.2.5,59.57693227827341,
,9,2,4,2,-5,0,66,,train_dim1_1,15,30,,,,2,0,2,0,,,,,,,,,0,0,0,0,0,14,14,14,2,0,2,0,,,,,,,,,,,,,,,,,,,,,,,,,,,,,,,,,,,,,,,,,,,,,,,,,,,,,,,,,,,,,,,,30,,,,,,,,2389.7581881999504,2389.7581881999504,2389.7581881999504,2389.7581881999504,2389.7581881999504,left,0.2422387000406161,4,0,0,99,0.32,-0.24,left,0.16386659996351227,,,,,,,,,,,,,,,,,,,,,,,,,,,,,,,,,,,,,,,,,,,,,,,,,,,,,,,,,,,,HDGU5N,train_x,red_square,bottom_right,2025-08-12_16h12.07.941,HideSeek_v1,2022.2.5,59.57693227827341,
,9,2,4,2,-5,0,66,,train_dim1_1,15,30,,,,2,0,2,0,,,,,,,,,0,0,0,0,0,14,14,14,3,0,3,0,,,,,,,,,,,,,,,,,,,,,,,,,,,,,,,,,,,,,,,,,,,,,,,,,,,,,,,,,,,,,,,,30,,,,,,,,2390.0070471999934,2390.0070471999934,2390.0070471999934,2390.0070471999934,2390.0070471999934,left,0.24307239998597652,4,0,0,99,0.24,-0.24,left,0.1705091000185348,,,,,,,,,,,,,,,,,,,,,,,,,,,,,,,,,,,,,,,,,,,,,,,,,,,,,,,,,,,,HDGU5N,train_x,red_square,bottom_right,2025-08-12_16h12.07.941,HideSeek_v1,2022.2.5,59.57693227827341,
,9,2,4,2,-5,0,66,,train_dim1_1,15,30,,,,2,0,2,0,,,,,,,,,0,0,0,0,0,14,14,14,4,0,4,0,,,,,,,,,,,,,,,,,,,,,,,,,,,,,,,,,,,,,,,,,,,,,,,,,,,,,,,,,,,,,,,,30,,,,,,,,2390.2576562999748,2390.2576562999748,2390.2576562999748,2390.2576562999748,2390.2576562999748,up,0.8434184999787249,4,0,0,99,0.24,-0.15999999999999998,up,0.7602658999967389,,,,,,,,,,,,,,,,,,,,,,,,,,,,,,,,,,,,,,,,,,,,,,,,,,,,,,,,,,,,HDGU5N,train_x,red_square,bottom_right,2025-08-12_16h12.07.941,HideSeek_v1,2022.2.5,59.57693227827341,
,9,2,4,2,-5,0,66,,train_dim1_1,15,30,,,,2,0,2,0,,,,,,,,,0,0,0,0,0,14,14,14,5,0,5,0,,,,,,,,,,,,,,,,,,,,,,,,,,,,,,,,,,,,,,,,,,,,,,,,,,,,,,,,,,,,,,,,30,,,,,,,,2391.1077594999806,2391.1077594999806,2391.1077594999806,2391.1077594999806,2391.1077594999806,down,1.7273264999967068,4,0,0,99,0.24,-0.24,down,1.652384200016968,,,,,,,,,,,,,,,,,,,,,,,,,,,,,,,,,,,,,,,,,,,,,,,,,,,,,,,,,,,,HDGU5N,train_x,red_square,bottom_right,2025-08-12_16h12.07.941,HideSeek_v1,2022.2.5,59.57693227827341,
,9,2,4,2,-5,0,66,,train_dim1_1,15,30,,,,2,0,2,0,,,,,,,,,0,0,0,0,0,14,14,14,6,0,6,0,,,,,,,,,,,,,,,,,,,,,,,,,,,,,,,,,,,,,,,,,,,,,,,,,,,,,,,,,,,,,,,,30,,,,,,,,2392.8434045999893,2392.8434045999893,2392.8434045999893,2392.8434045999893,2392.8434045999893,return,0.45991570001933724,4,1,0,0,0.24,-0.24,return,0.38331090001156554,17,-22,0.24,-0.24,,,,,,,,,,,,,,,,,,,,,,,,,,,,,,,,,,,,,,,,,,,,,,,,,,,,,,,,HDGU5N,train_x,red_square,bottom_right,2025-08-12_16h12.07.941,HideSeek_v1,2022.2.5,59.57693227827341,
,8,3,4,3,-4,0,56,,train_dim1_1,16,30,,,,2,0,2,0,,,,,,,,,0,0,0,0,0,15,15,15,0,0,0,0,,,,,,,,,,,,,,,,,,,,,,,,,stimuli/alien_stimuli/56.png,,,,,,,,,,,,,,,,,,,,,,,,,,,,,stimuli/alien_stimuli/66.png,66,9,17,,,,,,,30,,,,,,,,2398.67904909997,2398.67904909997,2398.67904909997,2398.67904909997,2398.67904909997,left,1.8401451000245288,4,1,0,99,0.39999999999999997,-0.16,left,1.7246958000469021,,,,,2397.0852581999497,2394.8792162999744,0.16,-0.24,0.0,0.4,-0.24,0.16,0.36000000000000004,0.16,-0.24,2394.8792162999744,2394.8792162999744,2394.8792162999744,2394.8792162999744,2394.8792162999744,2394.8792162999744,2394.8792162999744,2394.8792162999744,2394.8635644699916,2.32349580002483,return,2.1747623000410385,,,,,,,,,,,,,,,,,,,,,,,,,,,,,,,,,HDGU5N,train_x,red_square,bottom_right,2025-08-12_16h12.07.941,HideSeek_v1,2022.2.5,59.57693227827341,
,8,3,4,3,-4,0,56,,train_dim1_1,16,30,,,,2,0,2,0,,,,,,,,,0,0,0,0,0,15,15,15,1,0,1,0,,,,,,,,,,,,,,,,,,,,,,,,,,,,,,,,,,,,,,,,,,,,,,,,,,,,,,,,,,,,,,,,30,,,,,,,,2400.5276566999964,2400.5276566999964,2400.5276566999964,2400.5276566999964,2400.5276566999964,left,0.3764039999805391,4,1,0,99,0.31999999999999995,-0.16,left,0.276100899965968,,,,,,,,,,,,,,,,,,,,,,,,,,,,,,,,,,,,,,,,,,,,,,,,,,,,,,,,,,,,HDGU5N,train_x,red_square,bottom_right,2025-08-12_16h12.07.941,HideSeek_v1,2022.2.5,59.57693227827341,
,8,3,4,3,-4,0,56,,train_dim1_1,16,30,,,,2,0,2,0,,,,,,,,,0,0,0,0,0,15,15,15,2,0,2,0,,,,,,,,,,,,,,,,,,,,,,,,,,,,,,,,,,,,,,,,,,,,,,,,,,,,,,,,,,,,,,,,30,,,,,,,,2400.885731599992,2400.885731599992,2400.885731599992,2400.885731599992,2400.885731599992,left,2.143539900018368,4,1,0,99,0.23999999999999994,-0.16,left,2.0640342999831773,,,,,,,,,,,,,,,,,,,,,,,,,,,,,,,,,,,,,,,,,,,,,,,,,,,,,,,,,,,,HDGU5N,train_x,red_square,bottom_right,2025-08-12_16h12.07.941,HideSeek_v1,2022.2.5,59.57693227827341,
,8,3,4,3,-4,0,56,,train_dim1_1,16,30,,,,2,0,2,0,,,,,,,,,0,0,0,0,0,15,15,15,3,0,3,0,,,,,,,,,,,,,,,,,,,,,,,,,,,,,,,,,,,,,,,,,,,,,,,,,,,,,,,,,,,,,,,,30,,,,,,,,2403.039529200003,2403.039529200003,2403.039529200003,2403.039529200003,2403.039529200003,return,0.6598633999819867,4,1,0,0,0.23999999999999994,-0.16,return,0.5744964000186883,17,-25,0.23999999999999994,-0.16,,,,,,,,,,,,,,,,,,,,,,,,,,,,,,,,,,,,,,,,,,,,,,,,,,,,,,,,HDGU5N,train_x,red_square,bottom_right,2025-08-12_16h12.07.941,HideSeek_v1,2022.2.5,59.57693227827341,
,7,4,6,4,-1,0,26,,train_dim1_1,17,30,,,,2,0,2,0,,,,,,,,,0,0,0,0,0,16,16,16,0,0,0,0,,,,,,,,,,,,,,,,,,,,,,,,,stimuli/alien_stimuli/26.png,,,,,,,,,,,,,,,,,,,,,,,,,,,,,stimuli/alien_stimuli/56.png,56,8,18,,,,,,,30,,,,,,,,2408.273998299963,2408.273998299963,2408.273998299963,2408.273998299963,2408.273998299963,up,4.80862900003558,4,1,0,99,0.4,0.0,up,4.698294600006193,,,,,2406.6759589999565,2405.2763389999745,0.16,-0.16,0.0,0.32,-0.16,0.16,0.32,0.16,-0.16,2405.2763389999745,2405.2763389999745,2405.2763389999745,2405.2763389999745,2405.2763389999745,2405.2763389999745,2405.2763389999745,2405.2763389999745,2405.255767969962,1.521881399967242,return,1.3658335999934934,,,,,,,,,,,,,,,,,,,,,,,,,,,,,,,,,HDGU5N,train_x,red_square,bottom_right,2025-08-12_16h12.07.941,HideSeek_v1,2022.2.5,59.57693227827341,
,7,4,6,4,-1,0,26,,train_dim1_1,17,30,,,,2,0,2,0,,,,,,,,,0,0,0,0,0,16,16,16,1,0,1,0,,,,,,,,,,,,,,,,,,,,,,,,,,,,,,,,,,,,,,,,,,,,,,,,,,,,,,,,,,,,,,,,30,,,,,,,,2413.064701700001,2413.064701700001,2413.064701700001,2413.064701700001,2413.064701700001,return,0.3951097999815829,4,0,0,0,0.4,0.0,return,0.304485599976033,18,-25,0.4,0.0,,,,,,,,,,,,,,,,,,,,,,,,,,,,,,,,,,,,,,,,,,,,,,,,,,,,,,,,HDGU5N,train_x,red_square,bottom_right,2025-08-12_16h12.07.941,HideSeek_v1,2022.2.5,59.57693227827341,
,7,1,2,1,-5,0,66,,train_dim1_1,18,30,,,,2,0,2,0,,,,,,,,,0,0,0,0,0,17,17,17,0,0,0,0,,,,,,,,,,,,,,,,,,,,,,,,,stimuli/alien_stimuli/66.png,,,,,,,,,,,,,,,,,,,,,,,,,,,,,stimuli/alien_stimuli/26.png,26,7,19,,,,,,,30,,,,,,,,2418.3794361999608,2418.3794361999608,2418.3794361999608,2418.3794361999608,2418.3794361999608,up,1.839520099980291,4,0,0,99,0.4,-0.24,up,1.7253093000035733,,,,,2416.7926168999984,,0.32,-0.08,0.0,0.08,-0.08,0.32,0.36,0.32,-0.08,2415.039058799972,2415.039058799972,2415.039058799972,2415.039058799972,2415.039058799972,2415.039058799972,2415.039058799972,2415.039058799972,2415.0305427699586,1.8596558999852277,return,1.7275167999905534,,,,,,,,,,,,,,,,,,,,,,,,,,,,,,,,,HDGU5N,train_x,red_square,bottom_right,2025-08-12_16h12.07.941,HideSeek_v1,2022.2.5,59.57693227827341,
,7,1,2,1,-5,0,66,,train_dim1_1,18,30,,,,2,0,2,0,,,,,,,,,0,0,0,0,0,17,17,17,1,0,1,0,,,,,,,,,,,,,,,,,,,,,,,,,,,,,,,,,,,,,,,,,,,,,,,,,,,,,,,,,,,,,,,,30,,,,,,,,2420.19917529996,2420.19917529996,2420.19917529996,2420.19917529996,2420.19917529996,up,0.42626950005069375,4,0,0,99,0.4,-0.15999999999999998,up,0.3472705000312999,,,,,,,,,,,,,,,,,,,,,,,,,,,,,,,,,,,,,,,,,,,,,,,,,,,,,,,,,,,,HDGU5N,train_x,red_square,bottom_right,2025-08-12_16h12.07.941,HideSeek_v1,2022.2.5,59.57693227827341,
,7,1,2,1,-5,0,66,,train_dim1_1,18,30,,,,2,0,2,0,,,,,,,,,0,0,0,0,0,17,17,17,2,0,2,0,,,,,,,,,,,,,,,,,,,,,,,,,,,,,,,,,,,,,,,,,,,,,,,,,,,,,,,,,,,,,,,,30,,,,,,,,2420.640578599996,2420.640578599996,2420.640578599996,2420.640578599996,2420.640578599996,up,0.32634300005156547,4,0,0,99,0.4,-0.07999999999999997,up,0.23482099996181205,,,,,,,,,,,,,,,,,,,,,,,,,,,,,,,,,,,,,,,,,,,,,,,,,,,,,,,,,,,,HDGU5N,train_x,red_square,bottom_right,2025-08-12_16h12.07.941,HideSeek_v1,2022.2.5,59.57693227827341,
,7,1,2,1,-5,0,66,,train_dim1_1,18,30,,,,2,0,2,0,,,,,,,,,0,0,0,0,0,17,17,17,3,0,3,0,,,,,,,,,,,,,,,,,,,,,,,,,,,,,,,,,,,,,,,,,,,,,,,,,,,,,,,,,,,,,,,,30,,,,,,,,2420.97516229999,2420.97516229999,2420.97516229999,2420.97516229999,2420.97516229999,up,0.4762678000261076,4,0,0,99,0.4,2.7755575615628914e-17,up,0.37930829997640103,,,,,,,,,,,,,,,,,,,,,,,,,,,,,,,,,,,,,,,,,,,,,,,,,,,,,,,,,,,,HDGU5N,train_x,red_square,bottom_right,2025-08-12_16h12.07.941,HideSeek_v1,2022.2.5,59.57693227827341,
,7,1,2,1,-5,0,66,,train_dim1_1,18,30,,,,2,0,2,0,,,,,,,,,0,0,0,0,0,17,17,17,4,0,4,0,,,,,,,,,,,,,,,,,,,,,,,,,,,,,,,,,,,,,,,,,,,,,,,,,,,,,,,,,,,,,,,,30,,,,,,,,2421.448995999992,2421.448995999992,2421.448995999992,2421.448995999992,2421.448995999992,return,0.9602281000115909,4,0,0,0,0.4,2.7755575615628914e-17,return,0.8806643999996595,22,-25,0.4,2.7755575615628914e-17,,,,,,,,,,,,,,,,,,,,,,,,,,,,,,,,,,,,,,,,,,,,,,,,,,,,,,,,HDGU5N,train_x,red_square,bottom_right,2025-08-12_16h12.07.941,HideSeek_v1,2022.2.5,59.57693227827341,
,5,3,2,3,-3,0,46,,train_dim1_1,19,30,,,,2,0,2,0,,,,,,,,,0,0,0,0,0,18,18,18,0,0,0,0,,,,,,,,,,,,,,,,,,,,,,,,,stimuli/alien_stimuli/46.png,,,,,,,,,,,,,,,,,,,,,,,,,,,,,stimuli/alien_stimuli/66.png,66,7,20,,,,,,,30,,,,,,,,2428.049525499984,2428.049525499984,2428.049525499984,2428.049525499984,2428.049525499984,up,5.693865299981553,4,0,0,99,0.24,-0.08,up,5.576854699989781,,,,,2426.4451170999673,2423.9731318999548,0,-0.32,0.0,0.4,-0.32,0,0.2,0,-0.32,2423.9731318999548,2423.9731318999548,2423.9731318999548,2423.9731318999548,2423.9731318999548,2423.9731318999548,2423.9731318999548,2423.9731318999548,2423.954848359991,2.5759153999970295,return,2.44229949999135,,,,,,,,,,,,,,,,,,,,,,,,,,,,,,,,,HDGU5N,train_x,red_square,bottom_right,2025-08-12_16h12.07.941,HideSeek_v1,2022.2.5,59.57693227827341,
,5,3,2,3,-3,0,46,,train_dim1_1,19,30,,,,2,0,2,0,,,,,,,,,0,0,0,0,0,18,18,18,1,0,1,0,,,,,,,,,,,,,,,,,,,,,,,,,,,,,,,,,,,,,,,,,,,,,,,,,,,,,,,,,,,,,,,,30,,,,,,,,2433.7114325999864,2433.7114325999864,2433.7114325999864,2433.7114325999864,2433.7114325999864,up,0.4759084000252187,4,0,0,99,0.24,0.0,up,0.4005701999994926,,,,,,,,,,,,,,,,,,,,,,,,,,,,,,,,,,,,,,,,,,,,,,,,,,,,,,,,,,,,HDGU5N,train_x,red_square,bottom_right,2025-08-12_16h12.07.941,HideSeek_v1,2022.2.5,59.57693227827341,
,5,3,2,3,-3,0,46,,train_dim1_1,19,30,,,,2,0,2,0,,,,,,,,,0,0,0,0,0,18,18,18,2,0,2,0,,,,,,,,,,,,,,,,,,,,,,,,,,,,,,,,,,,,,,,,,,,,,,,,,,,,,,,,,,,,,,,,30,,,,,,,,2434.1945777999936,2434.1945777999936,2434.1945777999936,2434.1945777999936,2434.1945777999936,up,0.4594079999951646,4,0,0,99,0.24,0.08,up,0.38326899998355657,,,,,,,,,,,,,,,,,,,,,,,,,,,,,,,,,,,,,,,,,,,,,,,,,,,,,,,,,,,,HDGU5N,train_x,red_square,bottom_right,2025-08-12_16h12.07.941,HideSeek_v1,2022.2.5,59.57693227827341,
,5,3,2,3,-3,0,46,,train_dim1_1,19,30,,,,2,0,2,0,,,,,,,,,0,0,0,0,0,18,18,18,3,0,3,0,,,,,,,,,,,,,,,,,,,,,,,,,,,,,,,,,,,,,,,,,,,,,,,,,,,,,,,,,,,,,,,,30,,,,,,,,2434.66089249996,2434.66089249996,2434.66089249996,2434.66089249996,2434.66089249996,return,0.6598938999813981,4,0,0,0,0.24,0.08,return,0.5780837999773212,25,-25,0.24,0.08,,,,,,,,,,,,,,,,,,,,,,,,,,,,,,,,,,,,,,,,,,,,,,,,,,,,,,,,HDGU5N,train_x,red_square,bottom_right,2025-08-12_16h12.07.941,HideSeek_v1,2022.2.5,59.57693227827341,
,5,1,5,1,0,0,16,,train_dim1_1,20,30,,,,2,0,2,0,,,,,,,,,0,0,0,0,0,19,19,19,0,0,0,0,,,,,,,,,,,,,,,,,,,,,,,,,stimuli/alien_stimuli/16.png,,,,,,,,,,,,,,,,,,,,,,,,,,,,,stimuli/alien_stimuli/46.png,46,5,21,,,,,,,30,,,,,,,,2440.34970229998,2440.34970229998,2440.34970229998,2440.34970229998,2440.34970229998,return,4.058301900047809,5,0,0,1,0.24,-0.32,return,3.9481778999906965,25,-25,0.24,-0.32,2438.76100649999,2436.88589949999,0,-0.16,0.0,0.24,-0.16,0,0.12,0,-0.16,2436.88589949999,2436.88589949999,2436.88589949999,2436.88589949999,2436.88589949999,2436.88589949999,2436.88589949999,2436.88589949999,2436.8651574599908,1.9758837000117637,return,1.8389756999677047,,,,,,,,,,,,,,,,,,,,,,,,,,,,,,,,,HDGU5N,train_x,red_square,bottom_right,2025-08-12_16h12.07.941,HideSeek_v1,2022.2.5,59.57693227827341,
,9,2,6,2,-3,0,46,,train_dim1_1,21,30,,,,2,0,2,0,,,,,,,,,0,0,0,0,0,20,20,20,0,0,0,0,,,,,,,,,,,,,,,,,,,,,,,,,stimuli/alien_stimuli/46.png,,,,,,,,,,,,,,,,,,,,,,,,,,,,,stimuli/alien_stimuli/16.png,16,5,22,,,,,,,30,,,,,,,,2449.8467894999776,2449.8467894999776,2449.8467894999776,2449.8467894999776,2449.8467894999776,left,4.34225610003341,5,0,0,99,0.48000000000000004,-0.24,left,4.237364600005094,,,,,2448.274967299949,,0.24,-0.32,0.0,0.0,-0.32,0.24,0.24,0.24,-0.32,2445.9664998999797,2445.9664998999797,2445.9664998999797,2445.9664998999797,2445.9664998999797,2445.9664998999797,2445.9664998999797,2445.9664998999797,2445.9560121699706,2.415399299992714,return,2.280155199987348,,,,,,,,,,,,,,,,,,,,,,,,,,,,,,,,,HDGU5N,train_x,red_square,bottom_right,2025-08-12_16h12.07.941,HideSeek_v1,2022.2.5,59.57693227827341,
,9,2,6,2,-3,0,46,,train_dim1_1,21,30,,,,2,0,2,0,,,,,,,,,0,0,0,0,0,20,20,20,1,0,1,0,,,,,,,,,,,,,,,,,,,,,,,,,,,,,,,,,,,,,,,,,,,,,,,,,,,,,,,,,,,,,,,,30,,,,,,,,2454.1778041999787,2454.1778041999787,2454.1778041999787,2454.1778041999787,2454.1778041999787,left,0.49314169998979196,5,0,0,99,0.4,-0.24,left,0.4132662999909371,,,,,,,,,,,,,,,,,,,,,,,,,,,,,,,,,,,,,,,,,,,,,,,,,,,,,,,,,,,,HDGU5N,train_x,red_square,bottom_right,2025-08-12_16h12.07.941,HideSeek_v1,2022.2.5,59.57693227827341,
,9,2,6,2,-3,0,46,,train_dim1_1,21,30,,,,2,0,2,0,,,,,,,,,0,0,0,0,0,20,20,20,2,0,2,0,,,,,,,,,,,,,,,,,,,,,,,,,,,,,,,,,,,,,,,,,,,,,,,,,,,,,,,,,,,,,,,,30,,,,,,,,2454.6776897999807,2454.6776897999807,2454.6776897999807,2454.6776897999807,2454.6776897999807,left,0.4265079000033438,5,0,0,99,0.32,-0.24,left,0.3523698999779299,,,,,,,,,,,,,,,,,,,,,,,,,,,,,,,,,,,,,,,,,,,,,,,,,,,,,,,,,,,,HDGU5N,train_x,red_square,bottom_right,2025-08-12_16h12.07.941,HideSeek_v1,2022.2.5,59.57693227827341,
,9,2,6,2,-3,0,46,,train_dim1_1,21,30,,,,2,0,2,0,,,,,,,,,0,0,0,0,0,20,20,20,3,0,3,0,,,,,,,,,,,,,,,,,,,,,,,,,,,,,,,,,,,,,,,,,,,,,,,,,,,,,,,,,,,,,,,,30,,,,,,,,2455.111524799955,2455.111524799955,2455.111524799955,2455.111524799955,2455.111524799955,left,0.5433732999954373,5,0,0,99,0.24,-0.24,left,0.46514859999297187,,,,,,,,,,,,,,,,,,,,,,,,,,,,,,,,,,,,,,,,,,,,,,,,,,,,,,,,,,,,HDGU5N,train_x,red_square,bottom_right,2025-08-12_16h12.07.941,HideSeek_v1,2022.2.5,59.57693227827341,
,9,2,6,2,-3,0,46,,train_dim1_1,21,30,,,,2,0,2,0,,,,,,,,,0,0,0,0,0,20,20,20,4,0,4,0,,,,,,,,,,,,,,,,,,,,,,,,,,,,,,,,,,,,,,,,,,,,,,,,,,,,,,,,,,,,,,,,30,,,,,,,,2455.663053600001,2455.663053600001,2455.663053600001,2455.663053600001,2455.663053600001,return,0.642953300033696,5,1,0,0,0.24,-0.24,return,0.556294700014405,25,-29,0.24,-0.24,,,,,,,,,,,,,,,,,,,,,,,,,,,,,,,,,,,,,,,,,,,,,,,,,,,,,,,,HDGU5N,train_x,red_square,bottom_right,2025-08-12_16h12.07.941,HideSeek_v1,2022.2.5,59.57693227827341,
,6,0,5,0,-1,0,26,,train_dim1_1,22,30,,,,2,0,2,0,,,,,,,,,0,0,0,0,0,21,21,21,0,0,0,0,,,,,,,,,,,,,,,,,,,,,,,,,stimuli/alien_stimuli/26.png,,,,,,,,,,,,,,,,,,,,,,,,,,,,,stimuli/alien_stimuli/46.png,46,9,23,,,,,,,30,,,,,,,,2461.8524405999924,2461.8524405999924,2461.8524405999924,2461.8524405999924,2461.8524405999924,up,2.973711500002537,5,1,0,99,0.32,-0.32,up,2.8631192999891937,,,,,2460.2568179999944,2457.8987062999513,0.32,-0.24,0.0,0.24,-0.24,0.32,0.44000000000000006,0.32,-0.24,2457.8987062999513,2457.8987062999513,2457.8987062999513,2457.8987062999513,2457.8987062999513,2457.8987062999513,2457.8987062999513,2457.8987062999513,2457.882602179982,2.493741600017529,return,2.342752200027462,,,,,,,,,,,,,,,,,,,,,,,,,,,,,,,,,HDGU5N,train_x,red_square,bottom_right,2025-08-12_16h12.07.941,HideSeek_v1,2022.2.5,59.57693227827341,
,6,0,5,0,-1,0,26,,train_dim1_1,22,30,,,,2,0,2,0,,,,,,,,,0,0,0,0,0,21,21,21,1,0,1,0,,,,,,,,,,,,,,,,,,,,,,,,,,,,,,,,,,,,,,,,,,,,,,,,,,,,,,,,,,,,,,,,30,,,,,,,,2464.8102694999543,2464.8102694999543,2464.8102694999543,2464.8102694999543,2464.8102694999543,return,0.42469819996040314,5,0,0,0,0.32,-0.32,return,0.34667260001879185,26,-29,0.32,-0.32,,,,,,,,,,,,,,,,,,,,,,,,,,,,,,,,,,,,,,,,,,,,,,,,,,,,,,,,HDGU5N,train_x,red_square,bottom_right,2025-08-12_16h12.07.941,HideSeek_v1,2022.2.5,59.57693227827341,
,7,1,2,1,-5,0,66,,train_dim1_1,23,30,,,,2,0,2,0,,,,,,,,,0,0,0,0,0,22,22,22,0,0,0,0,,,,,,,,,,,,,,,,,,,,,,,,,stimuli/alien_stimuli/66.png,,,,,,,,,,,,,,,,,,,,,,,,,,,,,stimuli/alien_stimuli/26.png,26,6,24,,,,,,,30,,,,,,,,2469.73551139998,2469.73551139998,2469.73551139998,2469.73551139998,2469.73551139998,up,2.4077571000088938,5,0,0,99,0.4,-0.24,up,2.302176600031089,,,,,2468.158026799967,,0.24,-0.4,0.0,0.08,-0.4,0.24,0.28,0.24,-0.4,2466.81521609996,2466.81521609996,2466.81521609996,2466.81521609996,2466.81521609996,2466.81521609996,2466.81521609996,2466.81521609996,2466.806766269985,1.4483401000034064,return,1.3181828999659047,,,,,,,,,,,,,,,,,,,,,,,,,,,,,,,,,HDGU5N,train_x,red_square,bottom_right,2025-08-12_16h12.07.941,HideSeek_v1,2022.2.5,59.57693227827341,
,7,1,2,1,-5,0,66,,train_dim1_1,23,30,,,,2,0,2,0,,,,,,,,,0,0,0,0,0,22,22,22,1,0,1,0,,,,,,,,,,,,,,,,,,,,,,,,,,,,,,,,,,,,,,,,,,,,,,,,,,,,,,,,,,,,,,,,30,,,,,,,,2472.125893699995,2472.125893699995,2472.125893699995,2472.125893699995,2472.125893699995,up,0.5428429999738,5,0,0,99,0.4,-0.15999999999999998,up,0.46213719999650493,,,,,,,,,,,,,,,,,,,,,,,,,,,,,,,,,,,,,,,,,,,,,,,,,,,,,,,,,,,,HDGU5N,train_x,red_square,bottom_right,2025-08-12_16h12.07.941,HideSeek_v1,2022.2.5,59.57693227827341,
,7,1,2,1,-5,0,66,,train_dim1_1,23,30,,,,2,0,2,0,,,,,,,,,0,0,0,0,0,22,22,22,2,0,2,0,,,,,,,,,,,,,,,,,,,,,,,,,,,,,,,,,,,,,,,,,,,,,,,,,,,,,,,,,,,,,,,,30,,,,,,,,2472.6769367999514,2472.6769367999514,2472.6769367999514,2472.6769367999514,2472.6769367999514,up,0.4437200999818742,5,0,0,99,0.4,-0.07999999999999997,up,0.3627256999607198,,,,,,,,,,,,,,,,,,,,,,,,,,,,,,,,,,,,,,,,,,,,,,,,,,,,,,,,,,,,HDGU5N,train_x,red_square,bottom_right,2025-08-12_16h12.07.941,HideSeek_v1,2022.2.5,59.57693227827341,
,7,1,2,1,-5,0,66,,train_dim1_1,23,30,,,,2,0,2,0,,,,,,,,,0,0,0,0,0,22,22,22,3,0,3,0,,,,,,,,,,,,,,,,,,,,,,,,,,,,,,,,,,,,,,,,,,,,,,,,,,,,,,,,,,,,,,,,30,,,,,,,,2473.126500399958,2473.126500399958,2473.126500399958,2473.126500399958,2473.126500399958,up,0.4595676999888383,5,0,0,99,0.4,2.7755575615628914e-17,up,0.3795627999934368,,,,,,,,,,,,,,,,,,,,,,,,,,,,,,,,,,,,,,,,,,,,,,,,,,,,,,,,,,,,HDGU5N,train_x,red_square,bottom_right,2025-08-12_16h12.07.941,HideSeek_v1,2022.2.5,59.57693227827341,
,7,1,2,1,-5,0,66,,train_dim1_1,23,30,,,,2,0,2,0,,,,,,,,,0,0,0,0,0,22,22,22,4,0,4,0,,,,,,,,,,,,,,,,,,,,,,,,,,,,,,,,,,,,,,,,,,,,,,,,,,,,,,,,,,,,,,,,30,,,,,,,,2473.6001326999976,2473.6001326999976,2473.6001326999976,2473.6001326999976,2473.6001326999976,return,0.5936359000043012,5,0,0,0,0.4,2.7755575615628914e-17,return,0.5064010999631137,30,-29,0.4,2.7755575615628914e-17,,,,,,,,,,,,,,,,,,,,,,,,,,,,,,,,,,,,,,,,,,,,,,,,,,,,,,,,HDGU5N,train_x,red_square,bottom_right,2025-08-12_16h12.07.941,HideSeek_v1,2022.2.5,59.57693227827341,
,9,4,5,4,-4,0,56,,train_dim1_1,24,30,,,,2,0,2,0,,,,,,,,,0,0,0,0,0,23,23,23,0,0,0,0,,,,,,,,,,,,,,,,,,,,,,,,,stimuli/alien_stimuli/56.png,,,,,,,,,,,,,,,,,,,,,,,,,,,,,stimuli/alien_stimuli/66.png,66,7,25,,,,,,,30,,,,,,,,2480.2447838999797,2480.2447838999797,2480.2447838999797,2480.2447838999797,2480.2447838999797,left,2.0906921999994665,5,0,0,99,0.48000000000000004,-0.08,left,2.0054953999933787,,,,,2478.6837802999653,2480.2447838999797,0,-0.32,0.0,0.4,-0.32,0,0.2,0,-0.32,2475.7496914999792,2475.7496914999792,2475.7496914999792,2475.7496914999792,2475.7496914999792,2475.7496914999792,2475.7496914999792,2475.7496914999792,2475.730886360002,3.0379563000169583,return,2.9008172000176273,,,,,,,,,,,,,,,,,,,,,,,,,,,,,,,,,HDGU5N,train_x,red_square,bottom_right,2025-08-12_16h12.07.941,HideSeek_v1,2022.2.5,59.57693227827341,
,9,4,5,4,-4,0,56,,train_dim1_1,24,30,,,,2,0,2,0,,,,,,,,,0,0,0,0,0,23,23,23,1,0,1,0,,,,,,,,,,,,,,,,,,,,,,,,,,,,,,,,,,,,,,,,,,,,,,,,,,,,,,,,,,,,,,,,30,,,,,,,,2482.3421663999907,2482.3421663999907,2482.3421663999907,2482.3421663999907,2482.3421663999907,left,0.45923099998617545,5,0,0,99,0.4,-0.08,left,0.36590430000796914,,,,,,,,,,,,,,,,,,,,,,,,,,,,,,,,,,,,,,,,,,,,,,,,,,,,,,,,,,,,HDGU5N,train_x,red_square,bottom_right,2025-08-12_16h12.07.941,HideSeek_v1,2022.2.5,59.57693227827341,
,9,4,5,4,-4,0,56,,train_dim1_1,24,30,,,,2,0,2,0,,,,,,,,,0,0,0,0,0,23,23,23,2,0,2,0,,,,,,,,,,,,,,,,,,,,,,,,,,,,,,,,,,,,,,,,,,,,,,,,,,,,,,,,,,,,,,,,30,,,,,,,,2482.8030011999654,2482.8030011999654,2482.8030011999654,2482.8030011999654,2482.8030011999654,left,0.5265404999954626,5,0,0,99,0.32,-0.08,left,0.45064389996696264,,,,,,,,,,,,,,,,,,,,,,,,,,,,,,,,,,,,,,,,,,,,,,,,,,,,,,,,,,,,HDGU5N,train_x,red_square,bottom_right,2025-08-12_16h12.07.941,HideSeek_v1,2022.2.5,59.57693227827341,
,9,4,5,4,-4,0,56,,train_dim1_1,24,30,,,,2,0,2,0,,,,,,,,,0,0,0,0,0,23,23,23,3,0,3,0,,,,,,,,,,,,,,,,,,,,,,,,,,,,,,,,,,,,,,,,,,,,,,,,,,,,,,,,,,,,,,,,30,,,,,,,,2483.3366021999973,2483.3366021999973,2483.3366021999973,2483.3366021999973,2483.3366021999973,down,3.245552200009115,5,0,0,99,0.32,-0.16,down,3.1677405999507755,,,,,,,,,,,,,,,,,,,,,,,,,,,,,,,,,,,,,,,,,,,,,,,,,,,,,,,,,,,,HDGU5N,train_x,red_square,bottom_right,2025-08-12_16h12.07.941,HideSeek_v1,2022.2.5,59.57693227827341,
,9,4,5,4,-4,0,56,,train_dim1_1,24,30,,,,2,0,2,0,,,,,,,,,0,0,0,0,0,23,23,23,4,0,4,0,,,,,,,,,,,,,,,,,,,,,,,,,,,,,,,,,,,,,,,,,,,,,,,,,,,,,,,,,,,,,,,,30,,,,,,,,2486.589618399972,2486.589618399972,2486.589618399972,2486.589618399972,2486.589618399972,down,0.5433129000011832,5,0,0,99,0.32,-0.24,down,0.4643802000209689,,,,,,,,,,,,,,,,,,,,,,,,,,,,,,,,,,,,,,,,,,,,,,,,,,,,,,,,,,,,HDGU5N,train_x,red_square,bottom_right,2025-08-12_16h12.07.941,HideSeek_v1,2022.2.5,59.57693227827341,
,9,4,5,4,-4,0,56,,train_dim1_1,24,30,,,,2,0,2,0,,,,,,,,,0,0,0,0,0,23,23,23,5,0,5,0,,,,,,,,,,,,,,,,,,,,,,,,,,,,,,,,,,,,,,,,,,,,,,,,,,,,,,,,,,,,,,,,30,,,,,,,,2487.141684399976,2487.141684399976,2487.141684399976,2487.141684399976,2487.141684399976,down,0.49302989995339885,5,0,0,99,0.32,-0.32,down,0.4123598999576643,,,,,,,,,,,,,,,,,,,,,,,,,,,,,,,,,,,,,,,,,,,,,,,,,,,,,,,,,,,,HDGU5N,train_x,red_square,bottom_right,2025-08-12_16h12.07.941,HideSeek_v1,2022.2.5,59.57693227827341,
,9,4,5,4,-4,0,56,,train_dim1_1,24,30,,,,2,0,2,0,,,,,,,,,0,0,0,0,0,23,23,23,6,0,6,0,,,,,,,,,,,,,,,,,,,,,,,,,,,,,,,,,,,,,,,,,,,,,,,,,,,,,,,,,,,,,,,,30,,,,,,,,2487.6401551999734,2487.6401551999734,2487.6401551999734,2487.6401551999734,2487.6401551999734,right,0.8599044000147842,5,0,0,99,0.4,-0.32,right,0.7783423999790102,,,,,,,,,,,,,,,,,,,,,,,,,,,,,,,,,,,,,,,,,,,,,,,,,,,,,,,,,,,,HDGU5N,train_x,red_square,bottom_right,2025-08-12_16h12.07.941,HideSeek_v1,2022.2.5,59.57693227827341,
,9,4,5,4,-4,0,56,,train_dim1_1,24,30,,,,2,0,2,0,,,,,,,,,0,0,0,0,0,23,23,23,7,0,7,0,,,,,,,,,,,,,,,,,,,,,,,,,,,,,,,,,,,,,,,,,,,,,,,,,,,,,,,,,,,,,,,,30,,,,,,,,2488.507636800001,2488.507636800001,2488.507636800001,2488.507636800001,2488.507636800001,right,0.2601806999882683,5,0,0,99,0.48000000000000004,-0.32,right,0.17122029996244237,,,,,,,,,,,,,,,,,,,,,,,,,,,,,,,,,,,,,,,,,,,,,,,,,,,,,,,,,,,,HDGU5N,train_x,red_square,bottom_right,2025-08-12_16h12.07.941,HideSeek_v1,2022.2.5,59.57693227827341,
,9,4,5,4,-4,0,56,,train_dim1_1,24,30,,,,2,0,2,0,,,,,,,,,0,0,0,0,0,23,23,23,8,0,8,0,,,,,,,,,,,,,,,,,,,,,,,,,,,,,,,,,,,,,,,,,,,,,,,,,,,,,,,,,,,,,,,,30,,,,,,,,2488.775399099977,2488.775399099977,2488.775399099977,2488.775399099977,2488.775399099977,right,0.20932179997907951,5,0,0,99,0.56,-0.32,right,0.12775320000946522,,,,,,,,,,,,,,,,,,,,,,,,,,,,,,,,,,,,,,,,,,,,,,,,,,,,,,,,,,,,HDGU5N,train_x,red_square,bottom_right,2025-08-12_16h12.07.941,HideSeek_v1,2022.2.5,59.57693227827341,
,9,4,5,4,-4,0,56,,train_dim1_1,24,30,,,,2,0,2,0,,,,,,,,,0,0,0,0,0,23,23,23,9,0,9,0,,,,,,,,,,,,,,,,,,,,,,,,,,,,,,,,,,,,,,,,,,,,,,,,,,,,,,,,,,,,,,,,30,,,,,,,,2488.9923928999924,2488.9923928999924,2488.9923928999924,2488.9923928999924,2488.9923928999924,return,0.8767157000256702,5,0,0,0,0.56,-0.32,return,0.7938151999842376,27,-29,0.56,-0.32,,,,,,,,,,,,,,,,,,,,,,,,,,,,,,,,,,,,,,,,,,,,,,,,,,,,,,,,HDGU5N,train_x,red_square,bottom_right,2025-08-12_16h12.07.941,HideSeek_v1,2022.2.5,59.57693227827341,
,8,0,8,0,0,0,16,,train_dim1_1,25,30,,,,2,0,2,0,,,,,,,,,0,0,0,0,0,24,24,24,0,0,0,0,,,,,,,,,,,,,,,,,,,,,,,,,stimuli/alien_stimuli/16.png,,,,,,,,,,,,,,,,,,,,,,,,,,,,,stimuli/alien_stimuli/56.png,56,9,26,,,,,,,30,,,,,,,,2496.977321299957,2496.977321299957,2496.977321299957,2496.977321299957,2496.977321299957,left,1.9573155000107363,5,0,0,99,0.39999999999999997,-0.4,left,1.8685024999431334,,,,,2495.414281299978,2491.45191829995,0.24,-0.08,0.0,0.32,-0.08,0.24,0.4,0.24,-0.08,2491.45191829995,2491.45191829995,2491.45191829995,2491.45191829995,2491.45191829995,2491.45191829995,2491.45191829995,2491.45191829995,2491.4438012799715,4.082987700006925,return,3.9361515999771655,,,,,,,,,,,,,,,,,,,,,,,,,,,,,,,,,HDGU5N,train_x,red_square,bottom_right,2025-08-12_16h12.07.941,HideSeek_v1,2022.2.5,59.57693227827341,
,8,0,8,0,0,0,16,,train_dim1_1,25,30,,,,2,0,2,0,,,,,,,,,0,0,0,0,0,24,24,24,1,0,1,0,,,,,,,,,,,,,,,,,,,,,,,,,,,,,,,,,,,,,,,,,,,,,,,,,,,,,,,,,,,,,,,,30,,,,,,,,2498.9356850999757,2498.9356850999757,2498.9356850999757,2498.9356850999757,2498.9356850999757,return,0.45960180001566187,5,1,0,0,0.39999999999999997,-0.4,return,0.37169270002050325,27,-30,0.39999999999999997,-0.4,,,,,,,,,,,,,,,,,,,,,,,,,,,,,,,,,,,,,,,,,,,,,,,,,,,,,,,,HDGU5N,train_x,red_square,bottom_right,2025-08-12_16h12.07.941,HideSeek_v1,2022.2.5,59.57693227827341,
,6,1,1,1,-5,0,66,,train_dim1_1,26,30,,,,2,0,2,0,,,,,,,,,0,0,0,0,0,25,25,25,0,0,0,0,,,,,,,,,,,,,,,,,,,,,,,,,stimuli/alien_stimuli/66.png,,,,,,,,,,,,,,,,,,,,,,,,,,,,,stimuli/alien_stimuli/16.png,16,8,27,,,,,,,30,,,,,,,,2505.4299645999563,2505.4299645999563,2505.4299645999563,2505.4299645999563,2505.4299645999563,up,1.9905994999571703,5,1,0,99,0.32,-0.24,up,1.8971130000427365,,,,,2503.857813299983,2500.9751741999644,0.48,-0.4,0.0,0.0,-0.4,0.48,0.48,0.48,-0.4,2500.9751741999644,2500.9751741999644,2500.9751741999644,2500.9751741999644,2500.9751741999644,2500.9751741999644,2500.9751741999644,2500.9751741999644,2500.9686704799883,3.0073528999928385,return,2.8511064000194892,,,,,,,,,,,,,,,,,,,,,,,,,,,,,,,,,HDGU5N,train_x,red_square,bottom_right,2025-08-12_16h12.07.941,HideSeek_v1,2022.2.5,59.57693227827341,
,6,1,1,1,-5,0,66,,train_dim1_1,26,30,,,,2,0,2,0,,,,,,,,,0,0,0,0,0,25,25,25,1,0,1,0,,,,,,,,,,,,,,,,,,,,,,,,,,,,,,,,,,,,,,,,,,,,,,,,,,,,,,,,,,,,,,,,30,,,,,,,,2507.421053799975,2507.421053799975,2507.421053799975,2507.421053799975,2507.421053799975,up,0.39291419996879995,5,1,0,99,0.32,-0.15999999999999998,up,0.31951360002858564,,,,,,,,,,,,,,,,,,,,,,,,,,,,,,,,,,,,,,,,,,,,,,,,,,,,,,,,,,,,HDGU5N,train_x,red_square,bottom_right,2025-08-12_16h12.07.941,HideSeek_v1,2022.2.5,59.57693227827341,
,6,1,1,1,-5,0,66,,train_dim1_1,26,30,,,,2,0,2,0,,,,,,,,,0,0,0,0,0,25,25,25,2,0,2,0,,,,,,,,,,,,,,,,,,,,,,,,,,,,,,,,,,,,,,,,,,,,,,,,,,,,,,,,,,,,,,,,30,,,,,,,,2507.822624499968,2507.822624499968,2507.822624499968,2507.822624499968,2507.822624499968,up,0.34324300003936514,5,1,0,99,0.32,-0.07999999999999997,up,0.2603928999742493,,,,,,,,,,,,,,,,,,,,,,,,,,,,,,,,,,,,,,,,,,,,,,,,,,,,,,,,,,,,HDGU5N,train_x,red_square,bottom_right,2025-08-12_16h12.07.941,HideSeek_v1,2022.2.5,59.57693227827341,
,6,1,1,1,-5,0,66,,train_dim1_1,26,30,,,,2,0,2,0,,,,,,,,,0,0,0,0,0,25,25,25,3,0,3,0,,,,,,,,,,,,,,,,,,,,,,,,,,,,,,,,,,,,,,,,,,,,,,,,,,,,,,,,,,,,,,,,30,,,,,,,,2508.171726099972,2508.171726099972,2508.171726099972,2508.171726099972,2508.171726099972,up,0.543168300006073,5,1,0,99,0.32,2.7755575615628914e-17,up,0.46308769995812327,,,,,,,,,,,,,,,,,,,,,,,,,,,,,,,,,,,,,,,,,,,,,,,,,,,,,,,,,,,,HDGU5N,train_x,red_square,bottom_right,2025-08-12_16h12.07.941,HideSeek_v1,2022.2.5,59.57693227827341,
,6,1,1,1,-5,0,66,,train_dim1_1,26,30,,,,2,0,2,0,,,,,,,,,0,0,0,0,0,25,25,25,4,0,4,0,,,,,,,,,,,,,,,,,,,,,,,,,,,,,,,,,,,,,,,,,,,,,,,,,,,,,,,,,,,,,,,,30,,,,,,,,2508.739953899989,2508.739953899989,2508.739953899989,2508.739953899989,2508.739953899989,return,1.9608896999852732,5,0,0,0,0.32,2.7755575615628914e-17,return,1.8552727000205778,31,-30,0.32,2.7755575615628914e-17,,,,,,,,,,,,,,,,,,,,,,,,,,,,,,,,,,,,,,,,,,,,,,,,,,,,,,,,HDGU5N,train_x,red_square,bottom_right,2025-08-12_16h12.07.941,HideSeek_v1,2022.2.5,59.57693227827341,
,5,1,2,1,-3,0,46,,train_dim1_1,27,30,,,,2,0,2,0,,,,,,,,,0,0,0,0,0,26,26,26,0,0,0,0,,,,,,,,,,,,,,,,,,,,,,,,,stimuli/alien_stimuli/46.png,,,,,,,,,,,,,,,,,,,,,,,,,,,,,stimuli/alien_stimuli/66.png,66,6,28,,,,,,,30,,,,,,,,2516.6918331999914,2516.6918331999914,2516.6918331999914,2516.6918331999914,2516.6918331999914,up,2.841282700013835,5,0,0,99,0.24,-0.24,up,2.756293700018432,,,,,2515.118287599995,2512.2630412,-0.08,-0.32,0.0,0.4,-0.32,-0.08,0.12,-0.08,-0.32,2512.2630412,2512.2630412,2512.2630412,2512.2630412,2512.2630412,2512.2630412,2512.2630412,2512.2630412,2512.244553069957,2.9751466999878176,return,2.828337199985981,,,,,,,,,,,,,,,,,,,,,,,,,,,,,,,,,HDGU5N,train_x,red_square,bottom_right,2025-08-12_16h12.07.941,HideSeek_v1,2022.2.5,59.57693227827341,
,5,1,2,1,-3,0,46,,train_dim1_1,27,30,,,,2,0,2,0,,,,,,,,,0,0,0,0,0,26,26,26,1,0,1,0,,,,,,,,,,,,,,,,,,,,,,,,,,,,,,,,,,,,,,,,,,,,,,,,,,,,,,,,,,,,,,,,30,,,,,,,,2519.5404987999937,2519.5404987999937,2519.5404987999937,2519.5404987999937,2519.5404987999937,up,0.47772409999743104,5,0,0,99,0.24,-0.15999999999999998,up,0.38661580003099516,,,,,,,,,,,,,,,,,,,,,,,,,,,,,,,,,,,,,,,,,,,,,,,,,,,,,,,,,,,,HDGU5N,train_x,red_square,bottom_right,2025-08-12_16h12.07.941,HideSeek_v1,2022.2.5,59.57693227827341,
,5,1,2,1,-3,0,46,,train_dim1_1,27,30,,,,2,0,2,0,,,,,,,,,0,0,0,0,0,26,26,26,2,0,2,0,,,,,,,,,,,,,,,,,,,,,,,,,,,,,,,,,,,,,,,,,,,,,,,,,,,,,,,,,,,,,,,,30,,,,,,,,2520.026337599964,2520.026337599964,2520.026337599964,2520.026337599964,2520.026337599964,up,0.45133090001763776,5,0,0,99,0.24,-0.07999999999999997,up,0.367968300008215,,,,,,,,,,,,,,,,,,,,,,,,,,,,,,,,,,,,,,,,,,,,,,,,,,,,,,,,,,,,HDGU5N,train_x,red_square,bottom_right,2025-08-12_16h12.07.941,HideSeek_v1,2022.2.5,59.57693227827341,
,5,1,2,1,-3,0,46,,train_dim1_1,27,30,,,,2,0,2,0,,,,,,,,,0,0,0,0,0,26,26,26,3,0,3,0,,,,,,,,,,,,,,,,,,,,,,,,,,,,,,,,,,,,,,,,,,,,,,,,,,,,,,,,,,,,,,,,30,,,,,,,,2520.488801200001,2520.488801200001,2520.488801200001,2520.488801200001,2520.488801200001,return,0.4754858000087552,5,0,0,0,0.24,-0.07999999999999997,return,0.39611609996063635,34,-30,0.24,-0.07999999999999997,,,,,,,,,,,,,,,,,,,,,,,,,,,,,,,,,,,,,,,,,,,,,,,,,,,,,,,,HDGU5N,train_x,red_square,bottom_right,2025-08-12_16h12.07.941,HideSeek_v1,2022.2.5,59.57693227827341,
,8,1,7,1,-1,0,26,,train_dim1_1,28,30,,,,2,0,2,0,,,,,,,,,0,0,0,0,0,27,27,27,0,0,0,0,,,,,,,,,,,,,,,,,,,,,,,,,stimuli/alien_stimuli/26.png,,,,,,,,,,,,,,,,,,,,,,,,,,,,,stimuli/alien_stimuli/46.png,46,5,29,,,,,,,30,,,,,,,,2525.6904395999736,2525.6904395999736,2525.6904395999736,2525.6904395999736,2525.6904395999736,return,2.440631600038614,5,1,0,0,0.48,-0.32,return,2.3378931999905035,34,-30,0.48,-0.32,2524.1213548999513,2522.5386037999997,0,-0.32,0.0,0.24,-0.32,0,0.12,0,-0.32,2522.5386037999997,2522.5386037999997,2522.5386037999997,2522.5386037999997,2522.5386037999997,2522.5386037999997,2522.5386037999997,2522.5386037999997,2522.5197712699537,1.697571600030642,return,1.5454401000170037,,,,,,,,,,,,,,,,,,,,,,,,,,,,,,,,,HDGU5N,train_x,red_square,bottom_right,2025-08-12_16h12.07.941,HideSeek_v1,2022.2.5,59.57693227827341,
,9,0,5,0,-4,0,56,,train_dim1_1,29,30,,,,2,0,2,0,,,,,,,,,0,0,0,0,0,28,28,28,0,0,0,0,,,,,,,,,,,,,,,,,,,,,,,,,stimuli/alien_stimuli/56.png,,,,,,,,,,,,,,,,,,,,,,,,,,,,,stimuli/alien_stimuli/26.png,26,8,30,,,,,,,30,,,,,,,,2532.9717359999777,2532.9717359999777,2532.9717359999777,2532.9717359999777,2532.9717359999777,up,3.5916904999758117,5,1,0,99,0.56,-0.32,up,3.48181890003616,,,,,2531.394222299976,2532.9717359999777,0.4,-0.32,0.0,0.08,-0.32,0.4,0.44,0.4,-0.32,2529.6866558999754,2529.6866558999754,2529.6866558999754,2529.6866558999754,2529.6866558999754,2529.6866558999754,2529.6866558999754,2529.6866558999754,2529.6756658699833,1.8201410999754444,return,1.669186599960085,,,,,,,,,,,,,,,,,,,,,,,,,,,,,,,,,HDGU5N,train_x,red_square,bottom_right,2025-08-12_16h12.07.941,HideSeek_v1,2022.2.5,59.57693227827341,
,9,0,5,0,-4,0,56,,train_dim1_1,29,30,,,,2,0,2,0,,,,,,,,,0,0,0,0,0,28,28,28,1,0,1,0,,,,,,,,,,,,,,,,,,,,,,,,,,,,,,,,,,,,,,,,,,,,,,,,,,,,,,,,,,,,,,,,30,,,,,,,,2536.5578509999905,2536.5578509999905,2536.5578509999905,2536.5578509999905,2536.5578509999905,up,0.5094170999946073,5,1,0,99,0.56,-0.24,up,0.4225868000066839,,,,,,,,,,,,,,,,,,,,,,,,,,,,,,,,,,,,,,,,,,,,,,,,,,,,,,,,,,,,HDGU5N,train_x,red_square,bottom_right,2025-08-12_16h12.07.941,HideSeek_v1,2022.2.5,59.57693227827341,
,9,0,5,0,-4,0,56,,train_dim1_1,29,30,,,,2,0,2,0,,,,,,,,,0,0,0,0,0,28,28,28,2,0,2,0,,,,,,,,,,,,,,,,,,,,,,,,,,,,,,,,,,,,,,,,,,,,,,,,,,,,,,,,,,,,,,,,30,,,,,,,,2537.065457299992,2537.065457299992,2537.065457299992,2537.065457299992,2537.065457299992,up,0.47651919996133074,5,1,0,99,0.56,-0.15999999999999998,up,0.40125920000718907,,,,,,,,,,,,,,,,,,,,,,,,,,,,,,,,,,,,,,,,,,,,,,,,,,,,,,,,,,,,HDGU5N,train_x,red_square,bottom_right,2025-08-12_16h12.07.941,HideSeek_v1,2022.2.5,59.57693227827341,
,9,0,5,0,-4,0,56,,train_dim1_1,29,30,,,,2,0,2,0,,,,,,,,,0,0,0,0,0,28,28,28,3,0,3,0,,,,,,,,,,,,,,,,,,,,,,,,,,,,,,,,,,,,,,,,,,,,,,,,,,,,,,,,,,,,,,,,30,,,,,,,,2537.5485106999986,2537.5485106999986,2537.5485106999986,2537.5485106999986,2537.5485106999986,return,0.9432999999844469,5,0,0,0,0.56,-0.15999999999999998,return,0.8673856999957934,37,-30,0.56,-0.15999999999999998,,,,,,,,,,,,,,,,,,,,,,,,,,,,,,,,,,,,,,,,,,,,,,,,,,,,,,,,HDGU5N,train_x,red_square,bottom_right,2025-08-12_16h12.07.941,HideSeek_v1,2022.2.5,59.57693227827341,
,7,2,7,2,0,0,16,,train_dim1_1,30,30,,,,2,0,2,0,,,,,,,,,0,0,0,0,0,29,29,29,0,0,0,0,,,,,,,,,,,,,,,,,,,,,,,,,stimuli/alien_stimuli/16.png,,,,,,,,,,,,,,,,,,,,,,,,,,,,,stimuli/alien_stimuli/56.png,56,9,31,,,,,,,30,,,,,,,,2544.170536599995,2544.170536599995,2544.170536599995,2544.170536599995,2544.170536599995,return,3.7586205000407062,6,0,0,1,0.4,-0.24,return,3.642770099977497,37,-30,0.4,-0.24,2542.574003799993,2540.0731427999563,0.24,-0.4,0.0,0.32,-0.4,0.24,0.4,0.24,-0.4,2540.0731427999563,2540.0731427999563,2540.0731427999563,2540.0731427999563,2540.0731427999563,2540.0731427999563,2540.0731427999563,2540.0731427999563,2540.0508384699588,2.624234599992633,return,2.4730875000241213,,,,,,,,,,,,,,,,,,,,,,,,,,,,,,,,,HDGU5N,train_x,red_square,bottom_right,2025-08-12_16h12.07.941,HideSeek_v1,2022.2.5,59.57693227827341,
,,,,,,,,,,,30,,,,2,0,2,0,,,,,,,,,,,,,,,,,,,,,,,,,,,,,,,,,,,,,,,,,,,,,,,,,,,,,,,,,,,,,,,,,,,,,,,,,,stimuli/alien_stimuli/16.png,16,7,32,21,0.7,0.25,1,1,1,30,0,conditions/schedules/train_x_first/red_square_00/bottom_right/inputTrain_2.1.xlsx,99,1,2,1,0,,,,,,,,,,,1,,,,,,,,,2552.545241399959,2554.0862315999693,0.4,-0.24,0.0,0.0,-0.24,0.4,0.4,0.4,-0.24,2549.482461399981,2549.482461399981,2549.482461399981,2549.482461399981,2549.482461399981,2549.482461399981,2549.482461399981,2549.482461399981,2549.4753379699778,3.171845900011249,return,3.0347035999875516,0,0.9,0,1,6,,,,,,,,,,,,,,,,,,,,,,,,,,,,HDGU5N,train_x,red_square,bottom_right,2025-08-12_16h12.07.941,HideSeek_v1,2022.2.5,59.57693227827341,
,,,,,,,,,,,,,,,3,0,3,0,0,0,0,0,,,,,,,,,,,,,,,,,,,,,,,,,,,,,,,conditions/schedules/train_x_first/red_square_00/bottom_right/instructions/Slide17.png,conditions/schedules/train_x_first/red_square_00/bottom_right/instructions/Audio17.wav,2554.0862315999693,2554.0793371299865,17,"[5.252799799956847, 17.967165100038983, 16.258281300019007, 19.15350060001947, 3.963342300034128, 4.397823600040283, 5.2950148999807425, 11.393282900040504, 5.535127300012391, 6.59508320002351, 9.329733700025827, 12.850517700018827, 17.10986830003094, 13.414470900024753, 30.862290200020652, 21.341832700010855, 98.92277089995332]","[0.014295300003141165, 0.014328000019304454, 0.014245100028347224, 0.037588900013361126, 0.07794690004084259, 0.06903710000915453, 0.07111020002048463, 0.07634010002948344, 0.12806780001847073, 0.05525809997925535, 0.014248799998313189, 12.85052470001392, 0.05128580000018701, 13.414478200022131, 0.03470540000125766, 21.341839500004426, 98.92277710000053]",0,,,,,,,,,,,,,,,,,,,,,,,,,,,,,,,,,,,,,,,,,,,,,,,,,,,,,,,,,,,,,,,,,,,,,,,,,,,,,,,,,,,,,,,,,,,,,,,,,,,,,,,,,,,,,,,,,,,,,,,,,,,,HDGU5N,train_x,red_square,bottom_right,2025-08-12_16h12.07.941,HideSeek_v1,2022.2.5,59.57693227827341,
,,,,,,,,,,,,,,,3,0,3,0,1,0,1,0,,,,,,,,,,,,,,,,,,,,,,,,,,,,,,,conditions/schedules/train_x_first/red_square_00/bottom_right/instructions/Slide18.png,conditions/schedules/train_x_first/red_square_00/bottom_right/instructions/Audio18.wav,2653.0676429999876,2653.0619678399994,18,"[5.252799799956847, 17.967165100038983, 16.258281300019007, 19.15350060001947, 3.963342300034128, 4.397823600040283, 5.2950148999807425, 11.393282900040504, 5.535127300012391, 6.59508320002351, 9.329733700025827, 12.850517700018827, 17.10986830003094, 13.414470900024753, 30.862290200020652, 21.341832700010855, 98.92277089995332, 8.050667200004682]","[0.014295300003141165, 0.014328000019304454, 0.014245100028347224, 0.037588900013361126, 0.07794690004084259, 0.06903710000915453, 0.07111020002048463, 0.07634010002948344, 0.12806780001847073, 0.05525809997925535, 0.014248799998313189, 12.85052470001392, 0.05128580000018701, 13.414478200022131, 0.03470540000125766, 21.341839500004426, 0.014003299991600215, 8.050673699995968]",0,,,,,,,,,,,,,,,,,,,,,,,,,,,,,,,,,,,,,,,,,,,,,,,,,,,,,,,,,,,,,,,,,,,,,,,,,,,,,,,,,,,,,,,,,,,,,,,,,,,,,,,,,,,,,,,,,,,,,,,,,,,,HDGU5N,train_x,red_square,bottom_right,2025-08-12_16h12.07.941,HideSeek_v1,2022.2.5,59.57693227827341,
,,,,,,,,,,,,,,,3,0,3,0,2,0,2,0,,,,,,,,,,,,,,,,,,,,,,,,,,,,,,,conditions/schedules/train_x_first/red_square_00/bottom_right/instructions/Slide19.png,conditions/schedules/train_x_first/red_square_00/bottom_right/instructions/Audio19.wav,2661.17289669998,2661.1709063399935,19,"[5.252799799956847, 17.967165100038983, 16.258281300019007, 19.15350060001947, 3.963342300034128, 4.397823600040283, 5.2950148999807425, 11.393282900040504, 5.535127300012391, 6.59508320002351, 9.329733700025827, 12.850517700018827, 17.10986830003094, 13.414470900024753, 30.862290200020652, 21.341832700010855, 98.92277089995332, 8.050667200004682, 10.621292299998458]","[0.014295300003141165, 0.014328000019304454, 0.014245100028347224, 0.037588900013361126, 0.07794690004084259, 0.06903710000915453, 0.07111020002048463, 0.07634010002948344, 0.12806780001847073, 0.05525809997925535, 0.014248799998313189, 12.85052470001392, 0.05128580000018701, 13.414478200022131, 0.03470540000125766, 21.341839500004426, 0.014003299991600215, 0.00020730000687763095, 10.621299399994314]",0,,,,,,,,,,,,,,,,,,,,,,,,,,,,,,,,,,,,,,,,,,,,,,,,,,,,,,,,,,,,,,,,,,,,,,,,,,,,,,,,,,,,,,,,,,,,,,,,,,,,,,,,,,,,,,,,,,,,,,,,,,,,HDGU5N,train_x,red_square,bottom_right,2025-08-12_16h12.07.941,HideSeek_v1,2022.2.5,59.57693227827341,
,,,,,,,,,,,,,,,3,0,3,0,3,0,3,0,,,,,,,,,,,,,,,,,,,,,,,,,,,,,,,conditions/schedules/train_x_first/red_square_00/bottom_right/instructions/Slide20.png,conditions/schedules/train_x_first/red_square_00/bottom_right/instructions/Audio20.wav,2671.870750699949,2671.863327250001,20,"[5.252799799956847, 17.967165100038983, 16.258281300019007, 19.15350060001947, 3.963342300034128, 4.397823600040283, 5.2950148999807425, 11.393282900040504, 5.535127300012391, 6.59508320002351, 9.329733700025827, 12.850517700018827, 17.10986830003094, 13.414470900024753, 30.862290200020652, 21.341832700010855, 98.92277089995332, 8.050667200004682, 10.621292299998458, 14.626890400017146]","[0.014295300003141165, 0.014328000019304454, 0.014245100028347224, 0.037588900013361126, 0.07794690004084259, 0.06903710000915453, 0.07111020002048463, 0.07634010002948344, 0.12806780001847073, 0.05525809997925535, 0.014248799998313189, 12.85052470001392, 0.05128580000018701, 13.414478200022131, 0.03470540000125766, 21.341839500004426, 0.014003299991600215, 0.00020730000687763095, 0.013939299969933927, 14.626897300011478]",0,,,,,,,,,,,,,,,,,,,,,,,,,,,,,,,,,,,,,,,,,,,,,,,,,,,,,,,,,,,,,,,,,,,,,,,,,,,,,,,,,,,,,,,,,,,,,,,,,,,,,,,,,,,,,,,,,,,,,,,,,,,,HDGU5N,train_x,red_square,bottom_right,2025-08-12_16h12.07.941,HideSeek_v1,2022.2.5,59.57693227827341,
1,7,3,7,8,0,5,11,2,instr_dim1_2,,,,,,3,0,3,0,,,,,0,0,0,0,,,,,,,,,,,,,,,,,,,,,,,,,,,,,,,,,,,,,stimuli/alien_stimuli/11.png,conditions/schedules/train_x_first/red_square_00/bottom_right/inputInstr_2.xlsx,stimuli/alien_stimuli/11.png,2686.5993007999496,2686.5993007999496,2686.5993007999496,2686.5993007999496,2686.6000379699635,return,5.952119300025515,"[-0.16, -0.08, 0, 0.08, 0.16, 0.24, 0.32, 0.4, 0.48, 0.56]","[-0.4, -0.32, -0.24, -0.16, -0.08, 0, 0.08, 0.16, 0.24, 0.32]",8,3,7,7,0.4,0.0,2692.706545599969,2692.706545599969,2692.706545599969,2692.706545599969,2692.706545599969,2692.706545599969,2692.706545599969,2692.6947968799855,10.376903900003526,return,10.215042700001504,stimuli/alien_stimuli/11.png,11,7,1,,,,,,,,,,,,,,,,,,,,,,,,,,,,,,,,,,,,,,,,,,,,,,,,,,,,,,,,,,,,,,,,,,,,,,,,,,,,,,,,,,,,,,,,,HDGU5N,train_x,red_square,bottom_right,2025-08-12_16h12.07.941,HideSeek_v1,2022.2.5,59.57693227827341,
,,,,,,,,,,,30,,,,3,0,3,0,,,,,,,,,,,,,,,,,,,,,,,,,,,,,,,,,,,,,,,,,,,,,,,,,,,,,,,,,,,,,,,,,,,,,,,,,,,,,,21,0.7,0.25,1,99,2,30,0,conditions/schedules/train_x_first/red_square_00/bottom_right/inputTrain_2.1.xlsx,99,1,2,1,0,,,,,,,,,,,,,,,,,,,,,,,,,,,,,,,,,,,,,,,,,,,,,,,,,,,,,,,,,,,,,,,,,,,,,,,,,,,HDGU5N,train_x,red_square,bottom_right,2025-08-12_16h12.07.941,HideSeek_v1,2022.2.5,59.57693227827341,
,,,,,,,,,,,,,,,4,0,4,0,0,0,0,0,,,,,,,,,,,,,,,,,,,,,,,,,,,,,,,conditions/schedules/train_x_first/red_square_00/bottom_right/instructions/Slide21.png,conditions/schedules/train_x_first/red_square_00/bottom_right/instructions/Audio21.wav,2703.107351499959,2703.1041865999578,21,"[5.252799799956847, 17.967165100038983, 16.258281300019007, 19.15350060001947, 3.963342300034128, 4.397823600040283, 5.2950148999807425, 11.393282900040504, 5.535127300012391, 6.59508320002351, 9.329733700025827, 12.850517700018827, 17.10986830003094, 13.414470900024753, 30.862290200020652, 21.341832700010855, 98.92277089995332, 8.050667200004682, 10.621292299998458, 14.626890400017146, 20.376988900010474]","[0.014295300003141165, 0.014328000019304454, 0.014245100028347224, 0.037588900013361126, 0.07794690004084259, 0.06903710000915453, 0.07111020002048463, 0.07634010002948344, 0.12806780001847073, 0.05525809997925535, 0.014248799998313189, 12.85052470001392, 0.05128580000018701, 13.414478200022131, 0.03470540000125766, 21.341839500004426, 0.014003299991600215, 0.00020730000687763095, 0.013939299969933927, 14.626897300011478, 20.376995800004806]",0,,,,,,,,,,,,,,,,,,,,,,,,,,,,,,,,,,,,,,,,,,,,,,,,,,,,,,,,,,,,,,,,,,,,,,,,,,,,,,,,,,,,,,,,,,,,,,,,,,,,,,,,,,,,,,,,,,,,,,,,,,,,HDGU5N,train_x,red_square,bottom_right,2025-08-12_16h12.07.941,HideSeek_v1,2022.2.5,59.57693227827341,
2,5,3,5,3,0,0,16,2,instr_dim1_2,,,,,,4,0,4,0,,,,,0,0,0,0,,,,,,,,,,,,,,,,,,,,,,,,,,,,,,,,,,,,,stimuli/alien_stimuli/16.png,conditions/schedules/train_x_first/red_square_00/bottom_right/inputInstr_2.xlsx,stimuli/alien_stimuli/16.png,2723.5871206999873,2723.5871206999873,2723.5871206999873,2723.5871206999873,2723.587437669945,return,2.4831983000040054,"[-0.16, -0.08, 0, 0.08, 0.16, 0.24, 0.32, 0.4, 0.48, 0.56]","[-0.4, -0.32, -0.24, -0.16, -0.08, 0, 0.08, 0.16, 0.24, 0.32]",3,3,5,5,0.0,0.0,2726.219053299981,2726.219053299981,2726.219053299981,2726.219053299981,2726.219053299981,2726.219053299981,2726.219053299981,2726.205687479966,7.750741399999242,return,7.597701699996833,stimuli/alien_stimuli/16.png,16,5,2,,,,,,,,,,,,,,,,,,,,,,,,,,,,,,,,,,,,,,,,,,,,,,,,,,,,,,,,,,,,,,,,,,,,,,,,,,,,,,,,,,,,,,,,,HDGU5N,train_x,red_square,bottom_right,2025-08-12_16h12.07.941,HideSeek_v1,2022.2.5,59.57693227827341,
,,,,,,,,,,,30,,,,4,0,4,0,,,,,,,,,,,,,,,,,,,,,,,,,,,,,,,,,,,,,,,,,,,,,,,,,,,,,,,,,,,,,,,,,,,,,,,,,,,,,,21,0.7,0.25,1,99,2,30,0,conditions/schedules/train_x_first/red_square_00/bottom_right/inputTrain_2.1.xlsx,99,1,2,1,0,,,,,,,,,,,,,,,,,,,,,,,,,,,,,,,,,,,,,,,,,,,,,,,,,,,,,,,,,,,,,,,,,,,,,,,,,,,HDGU5N,train_x,red_square,bottom_right,2025-08-12_16h12.07.941,HideSeek_v1,2022.2.5,59.57693227827341,
,,,,,,,,,,,,,,,5,0,5,0,0,0,0,0,,,,,,,,,,,,,,,,,,,,,,,,,,,,,,,conditions/schedules/train_x_first/red_square_00/bottom_right/instructions/Slide22.png,conditions/schedules/train_x_first/red_square_00/bottom_right/instructions/Audio22.wav,2733.992170999991,2733.989133099967,22,"[5.252799799956847, 17.967165100038983, 16.258281300019007, 19.15350060001947, 3.963342300034128, 4.397823600040283, 5.2950148999807425, 11.393282900040504, 5.535127300012391, 6.59508320002351, 9.329733700025827, 12.850517700018827, 17.10986830003094, 13.414470900024753, 30.862290200020652, 21.341832700010855, 98.92277089995332, 8.050667200004682, 10.621292299998458, 14.626890400017146, 20.376988900010474, 43.046670000010636]","[0.014295300003141165, 0.014328000019304454, 0.014245100028347224, 0.037588900013361126, 0.07794690004084259, 0.06903710000915453, 0.07111020002048463, 0.07634010002948344, 0.12806780001847073, 0.05525809997925535, 0.014248799998313189, 12.85052470001392, 0.05128580000018701, 13.414478200022131, 0.03470540000125766, 21.341839500004426, 0.014003299991600215, 0.00020730000687763095, 0.013939299969933927, 14.626897300011478, 20.376995800004806, 43.046676700003445]",0,,,,,,,,,,,,,,,,,,,,,,,,,,,,,,,,,,,,,,,,,,,,,,,,,,,,,,,,,,,,,,,,,,,,,,,,,,,,,,,,,,,,,,,,,,,,,,,,,,,,,,,,,,,,,,,,,,,,,,,,,,,,HDGU5N,train_x,red_square,bottom_right,2025-08-12_16h12.07.941,HideSeek_v1,2022.2.5,59.57693227827341,
,5,0,5,1,0,1,15,,train_dim1_2,1,30,,,,5,0,5,0,,,,,,,,,0,0,0,0,0,0,0,0,0,0,0,0,,,,,,,,,,,,,,,,,,,,,,,,,stimuli/alien_stimuli/15.png,,,,,,,,,,,,,,,,,,,,,,,,,,,,,,,,,,,,,,,30,,,,,,,,2777.1479347999557,2777.1479347999557,2777.1479347999557,2777.1479347999557,2777.1479347999557,return,3.0508874999941327,0,1,0,0,0.24,-0.4,return,2.9503429000033066,37,-30,0.24,-0.4,,,,,,,,,,,,,,,,,,,,,,,,,,,,,,,,,,,,,,,,,,,,,,,,,,,,,,,,HDGU5N,train_x,red_square,bottom_right,2025-08-12_16h12.07.941,HideSeek_v1,2022.2.5,59.57693227827341,
,8,2,8,2,0,0,16,,train_dim1_2,2,30,,,,5,0,5,0,,,,,,,,,0,0,0,0,0,1,1,1,0,0,0,0,,,,,,,,,,,,,,,,,,,,,,,,,stimuli/alien_stimuli/16.png,,,,,,,,,,,,,,,,,,,,,,,,,,,,,stimuli/alien_stimuli/15.png,15,5,3,,,,,,,30,,,,,,,,2785.459437499987,2785.459437499987,2785.459437499987,2785.459437499987,2785.459437499987,return,3.307635899982415,1,0,0,1,0.48,-0.24,return,3.218234099971596,37,-30,0.48,-0.24,2783.8924074999522,2781.7490668999963,0.24,-0.32,0.08,0.0,-0.36,0.24,0.24,0.24,-0.32,2781.7490668999963,2781.7490668999963,2781.7490668999963,2781.7490668999963,2781.7490668999963,2781.7490668999963,2781.7490668999963,2781.7490668999963,2781.735054569983,2.2585015999502502,return,2.1194646999938414,,,,,,,,,,,,,,,,,,,,,,,,,,,,,,,,,HDGU5N,train_x,red_square,bottom_right,2025-08-12_16h12.07.941,HideSeek_v1,2022.2.5,59.57693227827341,
,7,3,7,6,0,3,13,,train_dim1_2,3,30,,,,5,0,5,0,,,,,,,,,0,0,0,0,0,2,2,2,0,0,0,0,,,,,,,,,,,,,,,,,,,,,,,,,stimuli/alien_stimuli/13.png,,,,,,,,,,,,,,,,,,,,,,,,,,,,,stimuli/alien_stimuli/16.png,16,8,4,,,,,,,30,,,,,,,,2793.6353268999956,2793.6353268999956,2793.6353268999956,2793.6353268999956,2793.6353268999956,up,3.724268599995412,1,0,0,99,0.4,-0.08,up,3.6400487999781035,,,,,2792.064603899955,,0.48,-0.24,0.0,0.0,-0.24,0.48,0.48,0.48,-0.24,2790.3409913999494,2790.3409913999494,2790.3409913999494,2790.3409913999494,2790.3409913999494,2790.3409913999494,2790.3409913999494,2790.3409913999494,2790.342418069975,1.8240451999590732,return,1.7024298000033014,,,,,,,,,,,,,,,,,,,,,,,,,,,,,,,,,HDGU5N,train_x,red_square,bottom_right,2025-08-12_16h12.07.941,HideSeek_v1,2022.2.5,59.57693227827341,
,7,3,7,6,0,3,13,,train_dim1_2,3,30,,,,5,0,5,0,,,,,,,,,0,0,0,0,0,2,2,2,1,0,1,0,,,,,,,,,,,,,,,,,,,,,,,,,,,,,,,,,,,,,,,,,,,,,,,,,,,,,,,,,,,,,,,,30,,,,,,,,2797.367752899998,2797.367752899998,2797.367752899998,2797.367752899998,2797.367752899998,up,0.2919941999716684,1,0,0,99,0.4,0.0,up,0.20444930001394823,,,,,,,,,,,,,,,,,,,,,,,,,,,,,,,,,,,,,,,,,,,,,,,,,,,,,,,,,,,,HDGU5N,train_x,red_square,bottom_right,2025-08-12_16h12.07.941,HideSeek_v1,2022.2.5,59.57693227827341,
,7,3,7,6,0,3,13,,train_dim1_2,3,30,,,,5,0,5,0,,,,,,,,,0,0,0,0,0,2,2,2,2,0,2,0,,,,,,,,,,,,,,,,,,,,,,,,,,,,,,,,,,,,,,,,,,,,,,,,,,,,,,,,,,,,,,,,30,,,,,,,,2797.6673150999704,2797.6673150999704,2797.6673150999704,2797.6673150999704,2797.6673150999704,up,0.37687779997941107,1,0,0,99,0.4,0.08,up,0.29768309998326004,,,,,,,,,,,,,,,,,,,,,,,,,,,,,,,,,,,,,,,,,,,,,,,,,,,,,,,,,,,,HDGU5N,train_x,red_square,bottom_right,2025-08-12_16h12.07.941,HideSeek_v1,2022.2.5,59.57693227827341,
,7,3,7,6,0,3,13,,train_dim1_2,3,30,,,,5,0,5,0,,,,,,,,,0,0,0,0,0,2,2,2,3,0,3,0,,,,,,,,,,,,,,,,,,,,,,,,,,,,,,,,,,,,,,,,,,,,,,,,,,,,,,,,,,,,,,,,30,,,,,,,,2798.050271199958,2798.050271199958,2798.050271199958,2798.050271199958,2798.050271199958,return,2.094390500045847,2,0,0,1,0.4,0.08,return,2.0142999999807216,40,-30,0.4,0.08,,,,,,,,,,,,,,,,,,,,,,,,,,,,,,,,,,,,,,,,,,,,,,,,,,,,,,,,HDGU5N,train_x,red_square,bottom_right,2025-08-12_16h12.07.941,HideSeek_v1,2022.2.5,59.57693227827341,
,5,1,5,5,0,4,12,,train_dim1_2,4,30,,,,5,0,5,0,,,,,,,,,0,0,0,0,0,3,3,3,0,0,0,0,,,,,,,,,,,,,,,,,,,,,,,,,stimuli/alien_stimuli/12.png,,,,,,,,,,,,,,,,,,,,,,,,,,,,,stimuli/alien_stimuli/13.png,13,7,5,,,,,,,30,,,,,,,,2806.0133049999713,2806.0133049999713,2806.0133049999713,2806.0133049999713,2806.0133049999713,up,4.408343900053296,2,0,0,99,0.24,-0.24,up,4.318315100041218,,,,,2804.4407968999585,,0.4,0.08,0.24,0.0,-0.04,0.4,0.4,0.4,0.08,2801.730726699985,2801.730726699985,2801.730726699985,2801.730726699985,2801.730726699985,2801.730726699985,2801.730726699985,2801.730726699985,2801.7183187699648,2.824256499996409,return,2.690133899974171,,,,,,,,,,,,,,,,,,,,,,,,,,,,,,,,,HDGU5N,train_x,red_square,bottom_right,2025-08-12_16h12.07.941,HideSeek_v1,2022.2.5,59.57693227827341,
