trialInstr,x_fixStart,y_fixStart,x_corrSteps,y_corrSteps,x_nrSteps,y_nrSteps,alienID,trialLength,version,trialTrain,praclen,testlen,trial_label,break_on_off,beforeExpLoop.thisRepN,beforeExpLoop.thisTrialN,beforeExpLoop.thisN,beforeExpLoop.thisIndex,mini_instr_trials.thisRepN,mini_instr_trials.thisTrialN,mini_instr_trials.thisN,mini_instr_trials.thisIndex,instrLoop.thisRepN,instrLoop.thisTrialN,instrLoop.thisN,instrLoop.thisIndex,repeat_prac.thisRepN,repeat_prac.thisTrialN,repeat_prac.thisN,repeat_prac.thisIndex,trainLoop.thisRepN,trainLoop.thisTrialN,trainLoop.thisN,trainLoop.thisIndex,moveLoop_train.thisRepN,moveLoop_train.thisTrialN,moveLoop_train.thisN,moveLoop_train.thisIndex,experiment.thisRepN,experiment.thisTrialN,experiment.thisN,experiment.thisIndex,moveLoop_test.thisRepN,moveLoop_test.thisTrialN,moveLoop_test.thisN,moveLoop_test.thisIndex,mini_instr2_trials.thisRepN,mini_instr2_trials.thisTrialN,mini_instr2_trials.thisN,mini_instr2_trials.thisIndex,start_all_time,url,slideStim,audioStim,slides.started,sounds.started,nextButton.numClicks,nextButton.timesOn,nextButton.timesOff,prev_but.numClicks,prev_but.timesOn,prev_but.timesOff,alienStim,instrFile,alienStim_instr,gridImage_instr.started,startPos_3.started,key_instr.started,alienImage_3.started,sounds_1.started,key_instr.keys,key_instr.rt,all_x,all_y,FBy_corrSteps,FBy_fixStart,FBx_corrSteps,FBx_fixStart,FBy_pathSize_check,FBx_pathSize_check,gridImage_9.started,alienImageFB_3.started,startPosFB_3.started,keyFB_3.started,pathLine_ydir_2.started,pathLine_xdir_2.started,alienFace_3.started,sounds_2.started,RTFB_instr,keyFB_3.keys,keyFB_3.rt,draw_alienStim,draw_alienID,test_x,nrepcount,perfthres,percthres,earlierperf,earlystop,nextPrac,fileidx,praclen,saveACC_train,pracFile,nextPrac_train,addNrep,fileidx_endr,repExp,showearly,gridImage_4.started,startPos.started,movePos.started,key_resp.started,alienImage.started,buttonPress_train,RTchoice_train,cumAcctrain,aCorr,saveACC_choice,corrAns,x_movePos_end,y_movePos_end,key_resp.keys,key_resp.rt,wLy_dir,wLx_dir,x_movePos,y_movePos,text_2.started,text_2.stopped,aft_x_corrPos,aft_y_corrPos,y_pathSize_check,x_pathSize_check,y_pathdirY,x_pathdirY,x_pathdirX,x_corrPos,y_corrPos,gridImage_6.started,alienImageFB_2.started,startPosFB_2.started,movePosFB_2.started,keyFB_2.started,pathLine_xdir.started,pathLine_ydir.started,alienFace.started,sounds_4.started,RT_FBtrain,keyFB_2.keys,keyFB_2.rt,saveACC_pre,ACC,within_saveACC_train,earlystop_wloop,cumAcctrain_check,gridImage_3.started,alienImage_test.started,startPos_test.started,movePos_test.started,key_resp_test.started,wLy_dir_test,wLx_dir_test,buttonPress_test,RTchoice_test,cumAcctest,corrAns_test,key_resp_test.keys,key_resp_test.rt,text_3.started,text_3.stopped,total_time,end_all_time,key_resp_3.keys,slides_2.started,sounds_3.started,nextButton_2.numClicks,nextButton_2.timesOn,nextButton_2.timesOff,prev_but_2.numClicks,prev_but_2.timesOn,prev_but_2.timesOff,bye.started,participant,train_first,00_coordinate,starting corner,date,expName,psychopyVersion,frameRate,
,,,,,,,,,,,,,,,0,0,0,0,0,0,0,0,,,,,,,,,,,,,,,,,,,,,,,,,,,,,start_all_time,testround,conditions/schedules/train_y_first/red_square_00/top_left/instructions/Slide1.png,conditions/schedules/train_y_first/red_square_00/top_left/instructions/Audio1.wav,300.91854109987617,300.86399251795376,1,[5.627595799975097],[5.6276030000299215],0,,,,,,,,,,,,,,,,,,,,,,,,,,,,,,,,,,,,,,,,,,,,,,,,,,,,,,,,,,,,,,,,,,,,,,,,,,,,,,,,,,,,,,,,,,,,,,,,,,,,,,,,,,,,,,,,,,,,,,,,,,,,HJAFTX,train_y,red_square,top_left,2025-08-19_17h52.41.828,HideSeek_v1,2022.2.5,59.94564124149494,
,,,,,,,,,,,,,,,0,0,0,0,1,0,1,0,,,,,,,,,,,,,,,,,,,,,,,,,,,,,,,conditions/schedules/train_y_first/red_square_00/top_left/instructions/Slide2.png,conditions/schedules/train_y_first/red_square_00/top_left/instructions/Audio2.wav,306.5657224999741,306.5523977398872,2,"[5.627595799975097, 18.34992430009879]","[0.014488199958577752, 18.34993140003644]",0,,,,,,,,,,,,,,,,,,,,,,,,,,,,,,,,,,,,,,,,,,,,,,,,,,,,,,,,,,,,,,,,,,,,,,,,,,,,,,,,,,,,,,,,,,,,,,,,,,,,,,,,,,,,,,,,,,,,,,,,,,,,HJAFTX,train_y,red_square,top_left,2025-08-19_17h52.41.828,HideSeek_v1,2022.2.5,59.94564124149494,
,,,,,,,,,,,,,,,0,0,0,0,2,0,2,0,,,,,,,,,,,,,,,,,,,,,,,,,,,,,,,conditions/schedules/train_y_first/red_square_00/top_left/instructions/Slide3.png,conditions/schedules/train_y_first/red_square_00/top_left/instructions/Audio3.wav,324.9869293998927,324.98436139989644,3,"[5.627595799975097, 18.34992430009879, 16.459040000103414]","[0.014488199958577752, 0.03106490010395646, 16.45904770004563]",0,,,,,,,,,,,,,,,,,,,,,,,,,,,,,,,,,,,,,,,,,,,,,,,,,,,,,,,,,,,,,,,,,,,,,,,,,,,,,,,,,,,,,,,,,,,,,,,,,,,,,,,,,,,,,,,,,,,,,,,,,,,,HJAFTX,train_y,red_square,top_left,2025-08-19_17h52.41.828,HideSeek_v1,2022.2.5,59.94564124149494,
,,,,,,,,,,,,,,,0,0,0,0,3,0,3,0,,,,,,,,,,,,,,,,,,,,,,,,,,,,,,,conditions/schedules/train_y_first/red_square_00/top_left/instructions/Slide4.png,conditions/schedules/train_y_first/red_square_00/top_left/instructions/Audio4.wav,341.5318296998739,341.53138375999407,4,"[5.627595799975097, 18.34992430009879, 16.459040000103414, 19.396639700047672]","[0.014488199958577752, 0.03106490010395646, 16.45904770004563, 19.396645599976182]",0,,,,,,,,,,,,,,,,,,,,,,,,,,,,,,,,,,,,,,,,,,,,,,,,,,,,,,,,,,,,,,,,,,,,,,,,,,,,,,,,,,,,,,,,,,,,,,,,,,,,,,,,,,,,,,,,,,,,,,,,,,,,HJAFTX,train_y,red_square,top_left,2025-08-19_17h52.41.828,HideSeek_v1,2022.2.5,59.94564124149494,
,,,,,,,,,,,,,,,0,0,0,0,4,0,4,0,,,,,,,,,,,,,,,,,,,,,,,,,,,,,,,conditions/schedules/train_y_first/red_square_00/top_left/instructions/Slide5.png,conditions/schedules/train_y_first/red_square_00/top_left/instructions/Audio5.wav,360.99349369993433,360.980798939988,5,"[5.627595799975097, 18.34992430009879, 16.459040000103414, 19.396639700047672, 4.772369900019839]","[0.014488199958577752, 0.03106490010395646, 16.45904770004563, 19.396645599976182, 4.77237689984031]",0,,,,,,,,,,,,,,,,,,,,,,,,,,,,,,,,,,,,,,,,,,,,,,,,,,,,,,,,,,,,,,,,,,,,,,,,,,,,,,,,,,,,,,,,,,,,,,,,,,,,,,,,,,,,,,,,,,,,,,,,,,,,HJAFTX,train_y,red_square,top_left,2025-08-19_17h52.41.828,HideSeek_v1,2022.2.5,59.94564124149494,
,,,,,,,,,,,,,,,0,0,0,0,5,0,5,0,,,,,,,,,,,,,,,,,,,,,,,,,,,,,,,conditions/schedules/train_y_first/red_square_00/top_left/instructions/Slide6.png,conditions/schedules/train_y_first/red_square_00/top_left/instructions/Audio6.wav,365.81605469994247,365.8181798398029,6,"[5.627595799975097, 18.34992430009879, 16.459040000103414, 19.396639700047672, 4.772369900019839, 4.620304299984127]","[0.014488199958577752, 0.03106490010395646, 16.45904770004563, 19.396645599976182, 0.014084500027820468, 4.620311300037429]",0,,,,,,,,,,,,,,,,,,,,,,,,,,,,,,,,,,,,,,,,,,,,,,,,,,,,,,,,,,,,,,,,,,,,,,,,,,,,,,,,,,,,,,,,,,,,,,,,,,,,,,,,,,,,,,,,,,,,,,,,,,,,HJAFTX,train_y,red_square,top_left,2025-08-19_17h52.41.828,HideSeek_v1,2022.2.5,59.94564124149494,
,,,,,,,,,,,,,,,0,0,0,0,6,0,6,0,,,,,,,,,,,,,,,,,,,,,,,,,,,,,,,conditions/schedules/train_y_first/red_square_00/top_left/instructions/Slide7.png,conditions/schedules/train_y_first/red_square_00/top_left/instructions/Audio7.wav,370.48841349990107,370.48883483982644,7,"[5.627595799975097, 18.34992430009879, 16.459040000103414, 19.396639700047672, 4.772369900019839, 4.620304299984127, 5.368759599979967]","[0.014488199958577752, 0.03106490010395646, 16.45904770004563, 19.396645599976182, 0.014084500027820468, 0.04770460003055632, 5.368766600033268]",0,,,,,,,,,,,,,,,,,,,,,,,,,,,,,,,,,,,,,,,,,,,,,,,,,,,,,,,,,,,,,,,,,,,,,,,,,,,,,,,,,,,,,,,,,,,,,,,,,,,,,,,,,,,,,,,,,,,,,,,,,,,,HJAFTX,train_y,red_square,top_left,2025-08-19_17h52.41.828,HideSeek_v1,2022.2.5,59.94564124149494,
,,,,,,,,,,,,,,,0,0,0,0,7,0,7,0,,,,,,,,,,,,,,,,,,,,,,,,,,,,,,,conditions/schedules/train_y_first/red_square_00/top_left/instructions/Slide8.png,conditions/schedules/train_y_first/red_square_00/top_left/instructions/Audio8.wav,375.91027949983254,375.9097994398791,8,"[5.627595799975097, 18.34992430009879, 16.459040000103414, 19.396639700047672, 4.772369900019839, 4.620304299984127, 5.368759599979967, 11.37271839985624]","[0.014488199958577752, 0.03106490010395646, 16.45904770004563, 19.396645599976182, 0.014084500027820468, 0.04770460003055632, 0.030249099945649505, 11.372725199908018]",0,,,,,,,,,,,,,,,,,,,,,,,,,,,,,,,,,,,,,,,,,,,,,,,,,,,,,,,,,,,,,,,,,,,,,,,,,,,,,,,,,,,,,,,,,,,,,,,,,,,,,,,,,,,,,,,,,,,,,,,,,,,,HJAFTX,train_y,red_square,top_left,2025-08-19_17h52.41.828,HideSeek_v1,2022.2.5,59.94564124149494,
,,,,,,,,,,,,,,,0,0,0,0,8,0,8,0,,,,,,,,,,,,,,,,,,,,,,,,,,,,,,,conditions/schedules/train_y_first/red_square_00/top_left/instructions/Slide9.png,conditions/schedules/train_y_first/red_square_00/top_left/instructions/Audio9.wav,387.3544600000605,387.3525276000146,9,"[5.627595799975097, 18.34992430009879, 16.459040000103414, 19.396639700047672, 4.772369900019839, 4.620304299984127, 5.368759599979967, 11.37271839985624, 5.817403899971396]","[0.014488199958577752, 0.03106490010395646, 16.45904770004563, 19.396645599976182, 0.014084500027820468, 0.04770460003055632, 0.030249099945649505, 0.04776520002633333, 5.817410999909043]",0,,,,,,,,,,,,,,,,,,,,,,,,,,,,,,,,,,,,,,,,,,,,,,,,,,,,,,,,,,,,,,,,,,,,,,,,,,,,,,,,,,,,,,,,,,,,,,,,,,,,,,,,,,,,,,,,,,,,,,,,,,,,HJAFTX,train_y,red_square,top_left,2025-08-19_17h52.41.828,HideSeek_v1,2022.2.5,59.94564124149494,
,,,,,,,,,,,,,,,0,0,0,0,9,0,9,0,,,,,,,,,,,,,,,,,,,,,,,,,,,,,,,conditions/schedules/train_y_first/red_square_00/top_left/instructions/Slide10.png,conditions/schedules/train_y_first/red_square_00/top_left/instructions/Audio10.wav,393.2309610999655,393.22427604002877,10,"[5.627595799975097, 18.34992430009879, 16.459040000103414, 19.396639700047672, 4.772369900019839, 4.620304299984127, 5.368759599979967, 11.37271839985624, 5.817403899971396, 6.512786000035703]","[0.014488199958577752, 0.03106490010395646, 16.45904770004563, 19.396645599976182, 0.014084500027820468, 0.04770460003055632, 0.030249099945649505, 0.04776520002633333, 0.03656419995240867, 6.512792800087482]",0,,,,,,,,,,,,,,,,,,,,,,,,,,,,,,,,,,,,,,,,,,,,,,,,,,,,,,,,,,,,,,,,,,,,,,,,,,,,,,,,,,,,,,,,,,,,,,,,,,,,,,,,,,,,,,,,,,,,,,,,,,,,HJAFTX,train_y,red_square,top_left,2025-08-19_17h52.41.828,HideSeek_v1,2022.2.5,59.94564124149494,
,,,,,,,,,,,,,,,0,0,0,0,10,0,10,0,,,,,,,,,,,,,,,,,,,,,,,,,,,,,,,conditions/schedules/train_y_first/red_square_00/top_left/instructions/Slide11.png,conditions/schedules/train_y_first/red_square_00/top_left/instructions/Audio11.wav,399.7903664999176,399.7799547799863,11,"[5.627595799975097, 18.34992430009879, 16.459040000103414, 19.396639700047672, 4.772369900019839, 4.620304299984127, 5.368759599979967, 11.37271839985624, 5.817403899971396, 6.512786000035703, 9.611028500134125]","[0.014488199958577752, 0.03106490010395646, 16.45904770004563, 19.396645599976182, 0.014084500027820468, 0.04770460003055632, 0.030249099945649505, 0.04776520002633333, 0.03656419995240867, 0.013724500080570579, 9.611034800065681]",0,,,,,,,,,,,,,,,,,,,,,,,,,,,,,,,,,,,,,,,,,,,,,,,,,,,,,,,,,,,,,,,,,,,,,,,,,,,,,,,,,,,,,,,,,,,,,,,,,,,,,,,,,,,,,,,,,,,,,,,,,,,,HJAFTX,train_y,red_square,top_left,2025-08-19_17h52.41.828,HideSeek_v1,2022.2.5,59.94564124149494,
,,,,,,,,,,,,,,,0,0,0,0,11,0,11,0,,,,,,,,,,,,,,,,,,,,,,,,,,,,,,,conditions/schedules/train_y_first/red_square_00/top_left/instructions/Slide12.png,conditions/schedules/train_y_first/red_square_00/top_left/instructions/Audio12.wav,409.4571638999041,409.4544181398116,12,"[5.627595799975097, 18.34992430009879, 16.459040000103414, 19.396639700047672, 4.772369900019839, 4.620304299984127, 5.368759599979967, 11.37271839985624, 5.817403899971396, 6.512786000035703, 9.611028500134125, 13.756269499892369]","[0.014488199958577752, 0.03106490010395646, 16.45904770004563, 19.396645599976182, 0.014084500027820468, 0.04770460003055632, 0.030249099945649505, 0.04776520002633333, 0.03656419995240867, 0.013724500080570579, 0.046964399982243776, 13.756276999833062]",0,,,,,,,,,,,,,,,,,,,,,,,,,,,,,,,,,,,,,,,,,,,,,,,,,,,,,,,,,,,,,,,,,,,,,,,,,,,,,,,,,,,,,,,,,,,,,,,,,,,,,,,,,,,,,,,,,,,,,,,,,,,,HJAFTX,train_y,red_square,top_left,2025-08-19_17h52.41.828,HideSeek_v1,2022.2.5,59.94564124149494,
1,2,8,2,3,0,-5,11,2,instr_dim1_1,,,,,,0,0,0,0,,,,,0,0,0,0,,,,,,,,,,,,,,,,,,,,,,,,,,,,,,,,,,,,,stimuli/alien_stimuli/11.png,conditions/schedules/train_y_first/red_square_00/top_left/inputInstr_1.xlsx,stimuli/alien_stimuli/11.png,423.3189711999148,423.3189711999148,423.3189711999148,423.3189711999148,423.31580961998554,return,11.10625179996714,"[-0.16, -0.08, 0, 0.08, 0.16, 0.24, 0.32, 0.4, 0.48, 0.56]","[-0.4, -0.32, -0.24, -0.16, -0.08, 0, 0.08, 0.16, 0.24, 0.32]",3,8,2,2,0.4,0.0,434.5851745000109,434.5851745000109,434.5851745000109,434.5851745000109,434.5851745000109,434.5851745000109,434.5851745000109,434.5750289399177,12.57766309985891,return,12.40152100007981,stimuli/alien_stimuli/11.png,11,2,1,,,,,,,,,,,,,,,,,,,,,,,,,,,,,,,,,,,,,,,,,,,,,,,,,,,,,,,,,,,,,,,,,,,,,,,,,,,,,,,,,,,,,,,,,HJAFTX,train_y,red_square,top_left,2025-08-19_17h52.41.828,HideSeek_v1,2022.2.5,59.94564124149494,
,,,,,,,,,,,30,,,,0,0,0,0,,,,,,,,,,,,,,,,,,,,,,,,,,,,,,,,,,,,,,,,,,,,,,,,,,,,,,,,,,,,,,,,,,,,,,,,,,,,,,21,0.7,0,0,99,1,30,0,conditions/schedules/train_y_first/red_square_00/top_left/inputTrain_1.1.xlsx,99,1,1,1,0,,,,,,,,,,,,,,,,,,,,,,,,,,,,,,,,,,,,,,,,,,,,,,,,,,,,,,,,,,,,,,,,,,,,,,,,,,,HJAFTX,train_y,red_square,top_left,2025-08-19_17h52.41.828,HideSeek_v1,2022.2.5,59.94564124149494,
,,,,,,,,,,,,,,,1,0,1,0,0,0,0,0,,,,,,,,,,,,,,,,,,,,,,,,,,,,,,,conditions/schedules/train_y_first/red_square_00/top_left/instructions/Slide13.png,conditions/schedules/train_y_first/red_square_00/top_left/instructions/Audio13.wav,447.16121329995804,447.152215939993,13,"[5.627595799975097, 18.34992430009879, 16.459040000103414, 19.396639700047672, 4.772369900019839, 4.620304299984127, 5.368759599979967, 11.37271839985624, 5.817403899971396, 6.512786000035703, 9.611028500134125, 13.756269499892369, 16.886642099823803]","[0.014488199958577752, 0.03106490010395646, 16.45904770004563, 19.396645599976182, 0.014084500027820468, 0.04770460003055632, 0.030249099945649505, 0.04776520002633333, 0.03656419995240867, 0.013724500080570579, 0.046964399982243776, 13.756276999833062, 16.886648799991235]",0,,,,,,,,,,,,,,,,,,,,,,,,,,,,,,,,,,,,,,,,,,,,,,,,,,,,,,,,,,,,,,,,,,,,,,,,,,,,,,,,,,,,,,,,,,,,,,,,,,,,,,,,,,,,,,,,,,,,,,,,,,,,HJAFTX,train_y,red_square,top_left,2025-08-19_17h52.41.828,HideSeek_v1,2022.2.5,59.94564124149494,
,,,,,,,,,,,,,,,1,0,1,0,1,0,1,0,,,,,,,,,,,,,,,,,,,,,,,,,,,,,,,conditions/schedules/train_y_first/red_square_00/top_left/instructions/Slide14.png,conditions/schedules/train_y_first/red_square_00/top_left/instructions/Audio14.wav,464.1239044999238,464.1171079999767,14,"[5.627595799975097, 18.34992430009879, 16.459040000103414, 19.396639700047672, 4.772369900019839, 4.620304299984127, 5.368759599979967, 11.37271839985624, 5.817403899971396, 6.512786000035703, 9.611028500134125, 13.756269499892369, 16.886642099823803, 16.92065989994444]","[0.014488199958577752, 0.03106490010395646, 16.45904770004563, 19.396645599976182, 0.014084500027820468, 0.04770460003055632, 0.030249099945649505, 0.04776520002633333, 0.03656419995240867, 0.013724500080570579, 0.046964399982243776, 13.756276999833062, 0.036233700113371015, 16.920667000114918]",0,,,,,,,,,,,,,,,,,,,,,,,,,,,,,,,,,,,,,,,,,,,,,,,,,,,,,,,,,,,,,,,,,,,,,,,,,,,,,,,,,,,,,,,,,,,,,,,,,,,,,,,,,,,,,,,,,,,,,,,,,,,,HJAFTX,train_y,red_square,top_left,2025-08-19_17h52.41.828,HideSeek_v1,2022.2.5,59.94564124149494,
2,0,8,0,8,0,0,16,2,instr_dim1_1,,,,,,1,0,1,0,,,,,0,0,0,0,,,,,,,,,,,,,,,,,,,,,,,,,,,,,,,,,,,,,stimuli/alien_stimuli/16.png,conditions/schedules/train_y_first/red_square_00/top_left/inputInstr_1.xlsx,stimuli/alien_stimuli/16.png,481.1461836998351,481.1461836998351,481.1461836998351,481.1461836998351,481.14716191999617,return,6.415068499976769,"[-0.16, -0.08, 0, 0.08, 0.16, 0.24, 0.32, 0.4, 0.48, 0.56]","[-0.4, -0.32, -0.24, -0.16, -0.08, 0, 0.08, 0.16, 0.24, 0.32]",8,8,0,0,0.0,0.0,487.7265730998479,487.7265730998479,487.7265730998479,487.7265730998479,487.7265730998479,487.7265730998479,487.7265730998479,487.7191503399983,7.223734099883586,return,7.0630865001585335,stimuli/alien_stimuli/16.png,16,0,2,,,,,,,,,,,,,,,,,,,,,,,,,,,,,,,,,,,,,,,,,,,,,,,,,,,,,,,,,,,,,,,,,,,,,,,,,,,,,,,,,,,,,,,,,HJAFTX,train_y,red_square,top_left,2025-08-19_17h52.41.828,HideSeek_v1,2022.2.5,59.94564124149494,
,,,,,,,,,,,30,,,,1,0,1,0,,,,,,,,,,,,,,,,,,,,,,,,,,,,,,,,,,,,,,,,,,,,,,,,,,,,,,,,,,,,,,,,,,,,,,,,,,,,,,21,0.7,0,0,99,1,30,0,conditions/schedules/train_y_first/red_square_00/top_left/inputTrain_1.1.xlsx,99,1,1,1,0,,,,,,,,,,,,,,,,,,,,,,,,,,,,,,,,,,,,,,,,,,,,,,,,,,,,,,,,,,,,,,,,,,,,,,,,,,,HJAFTX,train_y,red_square,top_left,2025-08-19_17h52.41.828,HideSeek_v1,2022.2.5,59.94564124149494,
,,,,,,,,,,,,,,,2,0,2,0,0,0,0,0,,,,,,,,,,,,,,,,,,,,,,,,,,,,,,,conditions/schedules/train_y_first/red_square_00/top_left/instructions/Slide15.png,conditions/schedules/train_y_first/red_square_00/top_left/instructions/Audio15.wav,494.96059189992957,494.9587255998049,15,"[5.627595799975097, 18.34992430009879, 16.459040000103414, 19.396639700047672, 4.772369900019839, 4.620304299984127, 5.368759599979967, 11.37271839985624, 5.817403899971396, 6.512786000035703, 9.611028500134125, 13.756269499892369, 16.886642099823803, 16.92065989994444, 43.58209089981392]","[0.014488199958577752, 0.03106490010395646, 16.45904770004563, 19.396645599976182, 0.014084500027820468, 0.04770460003055632, 0.030249099945649505, 0.04776520002633333, 0.03656419995240867, 0.013724500080570579, 0.046964399982243776, 13.756276999833062, 0.036233700113371015, 16.920667000114918, 43.5820979999844]",0,,,,,,,,,,,,,,,,,,,,,,,,,,,,,,,,,,,,,,,,,,,,,,,,,,,,,,,,,,,,,,,,,,,,,,,,,,,,,,,,,,,,,,,,,,,,,,,,,,,,,,,,,,,,,,,,,,,,,,,,,,,,HJAFTX,train_y,red_square,top_left,2025-08-19_17h52.41.828,HideSeek_v1,2022.2.5,59.94564124149494,
,,,,,,,,,,,,,,,2,0,2,0,1,0,1,0,,,,,,,,,,,,,,,,,,,,,,,,,,,,,,,conditions/schedules/train_y_first/red_square_00/top_left/instructions/Slide16.png,conditions/schedules/train_y_first/red_square_00/top_left/instructions/Audio16.wav,538.6076547999401,538.5952178398612,16,"[5.627595799975097, 18.34992430009879, 16.459040000103414, 19.396639700047672, 4.772369900019839, 4.620304299984127, 5.368759599979967, 11.37271839985624, 5.817403899971396, 6.512786000035703, 9.611028500134125, 13.756269499892369, 16.886642099823803, 16.92065989994444, 43.58209089981392, 21.152262599905953]","[0.014488199958577752, 0.03106490010395646, 16.45904770004563, 19.396645599976182, 0.014084500027820468, 0.04770460003055632, 0.030249099945649505, 0.04776520002633333, 0.03656419995240867, 0.013724500080570579, 0.046964399982243776, 13.756276999833062, 0.036233700113371015, 16.920667000114918, 0.00021229987032711506, 21.152268500067294]",0,,,,,,,,,,,,,,,,,,,,,,,,,,,,,,,,,,,,,,,,,,,,,,,,,,,,,,,,,,,,,,,,,,,,,,,,,,,,,,,,,,,,,,,,,,,,,,,,,,,,,,,,,,,,,,,,,,,,,,,,,,,,HJAFTX,train_y,red_square,top_left,2025-08-19_17h52.41.828,HideSeek_v1,2022.2.5,59.94564124149494,
,0,5,0,4,0,-1,15,,train_dim1_1,1,30,,,,2,0,2,0,,,,,,,,,0,0,0,0,0,0,0,0,0,0,0,0,,,,,,,,,,,,,,,,,,,,,,,,,stimuli/alien_stimuli/15.png,,,,,,,,,,,,,,,,,,,,,,,,,,,,,,,,,,,,,,,30,,,,,,,,559.8644397000317,559.8644397000317,559.8644397000317,559.8644397000317,559.8644397000317,right,4.832298300229013,0,0,0,99,-0.08,0,right,4.731922100065276,,,,,,,,,,,,,,,,,,,,,,,,,,,,,,,,,,,,,,,,,,,,,,,,,,,,,,,,,,,,HJAFTX,train_y,red_square,top_left,2025-08-19_17h52.41.828,HideSeek_v1,2022.2.5,59.94564124149494,
,0,5,0,4,0,-1,15,,train_dim1_1,1,30,,,,2,0,2,0,,,,,,,,,0,0,0,0,0,0,0,0,1,0,1,0,,,,,,,,,,,,,,,,,,,,,,,,,,,,,,,,,,,,,,,,,,,,,,,,,,,,,,,,,,,,,,,,30,,,,,,,,564.6847466998734,564.6847466998734,564.6847466998734,564.6847466998734,564.6847466998734,right,0.7931290999986231,0,0,0,99,0.0,0,right,0.7068163000512868,,,,,,,,,,,,,,,,,,,,,,,,,,,,,,,,,,,,,,,,,,,,,,,,,,,,,,,,,,,,HJAFTX,train_y,red_square,top_left,2025-08-19_17h52.41.828,HideSeek_v1,2022.2.5,59.94564124149494,
,0,5,0,4,0,-1,15,,train_dim1_1,1,30,,,,2,0,2,0,,,,,,,,,0,0,0,0,0,0,0,0,2,0,2,0,,,,,,,,,,,,,,,,,,,,,,,,,,,,,,,,,,,,,,,,,,,,,,,,,,,,,,,,,,,,,,,,30,,,,,,,,565.4848676000256,565.4848676000256,565.4848676000256,565.4848676000256,565.4848676000256,right,0.9103980001527816,0,0,0,99,0.08,0,right,0.8184875000733882,,,,,,,,,,,,,,,,,,,,,,,,,,,,,,,,,,,,,,,,,,,,,,,,,,,,,,,,,,,,HJAFTX,train_y,red_square,top_left,2025-08-19_17h52.41.828,HideSeek_v1,2022.2.5,59.94564124149494,
,0,5,0,4,0,-1,15,,train_dim1_1,1,30,,,,2,0,2,0,,,,,,,,,0,0,0,0,0,0,0,0,3,0,3,0,,,,,,,,,,,,,,,,,,,,,,,,,,,,,,,,,,,,,,,,,,,,,,,,,,,,,,,,,,,,,,,,30,,,,,,,,566.4029253998306,566.4029253998306,566.4029253998306,566.4029253998306,566.4029253998306,right,0.9104906001593918,0,0,0,99,0.16,0,right,0.8332533000502735,,,,,,,,,,,,,,,,,,,,,,,,,,,,,,,,,,,,,,,,,,,,,,,,,,,,,,,,,,,,HJAFTX,train_y,red_square,top_left,2025-08-19_17h52.41.828,HideSeek_v1,2022.2.5,59.94564124149494,
,0,5,0,4,0,-1,15,,train_dim1_1,1,30,,,,2,0,2,0,,,,,,,,,0,0,0,0,0,0,0,0,4,0,4,0,,,,,,,,,,,,,,,,,,,,,,,,,,,,,,,,,,,,,,,,,,,,,,,,,,,,,,,,,,,,,,,,30,,,,,,,,567.3234411999583,567.3234411999583,567.3234411999583,567.3234411999583,567.3234411999583,right,0.5928275999613106,0,0,0,99,0.24,0,right,0.5079344999976456,,,,,,,,,,,,,,,,,,,,,,,,,,,,,,,,,,,,,,,,,,,,,,,,,,,,,,,,,,,,HJAFTX,train_y,red_square,top_left,2025-08-19_17h52.41.828,HideSeek_v1,2022.2.5,59.94564124149494,
,0,5,0,4,0,-1,15,,train_dim1_1,1,30,,,,2,0,2,0,,,,,,,,,0,0,0,0,0,0,0,0,5,0,5,0,,,,,,,,,,,,,,,,,,,,,,,,,,,,,,,,,,,,,,,,,,,,,,,,,,,,,,,,,,,,,,,,30,,,,,,,,567.9197823998984,567.9197823998984,567.9197823998984,567.9197823998984,567.9197823998984,return,0.6936900999862701,0,0,0,0,0.24,0,return,0.6034047000575811,0,5,0.24,0,,,,,,,,,,,,,,,,,,,,,,,,,,,,,,,,,,,,,,,,,,,,,,,,,,,,,,,,HJAFTX,train_y,red_square,top_left,2025-08-19_17h52.41.828,HideSeek_v1,2022.2.5,59.94564124149494,
,3,7,3,7,0,0,16,,train_dim1_1,2,30,,,,2,0,2,0,,,,,,,,,0,0,0,0,0,1,1,1,0,0,0,0,,,,,,,,,,,,,,,,,,,,,,,,,stimuli/alien_stimuli/16.png,,,,,,,,,,,,,,,,,,,,,,,,,,,,,stimuli/alien_stimuli/15.png,15,0,3,,,,,,,30,,,,,,,,575.9984432999045,575.9984432999045,575.9984432999045,575.9984432999045,575.9984432999045,left,5.092485399916768,0,0,0,99,0.0,0.16,left,5.015359099954367,,,,,574.4414551998489,575.9984432999045,-0.16,-0.08,0.08,0.0,-0.04,-0.16,-0.16,-0.16,-0.08,570.1958776998799,570.1958776998799,570.1958776998799,570.1958776998799,570.1958776998799,570.1958776998799,570.1958776998799,570.1958776998799,570.1876943799201,4.372600500006229,return,4.214656600030139,,,,,,,,,,,,,,,,,,,,,,,,,,,,,,,,,HJAFTX,train_y,red_square,top_left,2025-08-19_17h52.41.828,HideSeek_v1,2022.2.5,59.94564124149494,
,3,7,3,7,0,0,16,,train_dim1_1,2,30,,,,2,0,2,0,,,,,,,,,0,0,0,0,0,1,1,1,1,0,1,0,,,,,,,,,,,,,,,,,,,,,,,,,,,,,,,,,,,,,,,,,,,,,,,,,,,,,,,,,,,,,,,,30,,,,,,,,581.1014645998366,581.1014645998366,581.1014645998366,581.1014645998366,581.1014645998366,return,0.6928908000700176,0,1,0,0,0.0,0.16,return,0.5971997000742704,0,4,0.0,0.16,,,,,,,,,,,,,,,,,,,,,,,,,,,,,,,,,,,,,,,,,,,,,,,,,,,,,,,,HJAFTX,train_y,red_square,top_left,2025-08-19_17h52.41.828,HideSeek_v1,2022.2.5,59.94564124149494,
,2,8,2,5,0,-3,13,,train_dim1_1,3,30,,,,2,0,2,0,,,,,,,,,0,0,0,0,0,2,2,2,0,0,0,0,,,,,,,,,,,,,,,,,,,,,,,,,stimuli/alien_stimuli/13.png,,,,,,,,,,,,,,,,,,,,,,,,,,,,,stimuli/alien_stimuli/16.png,16,3,4,,,,,,,30,,,,,,,,614.6240729999263,614.6240729999263,614.6240729999263,614.6240729999263,614.6240729999263,down,2.2912516000214964,0,1,0,99,0,0.15999999999999998,down,2.175976499915123,,,,,613.0396225999575,614.6240729999263,0.08,0.16,0.0,0.0,0.16,0.08,0.08,0.08,0.16,583.3656734998804,583.3656734998804,583.3656734998804,583.3656734998804,583.3656734998804,583.3656734998804,583.3656734998804,583.3656734998804,583.3652516799979,29.794005900155753,return,29.64320380007848,,,,,,,,,,,,,,,,,,,,,,,,,,,,,,,,,HJAFTX,train_y,red_square,top_left,2025-08-19_17h52.41.828,HideSeek_v1,2022.2.5,59.94564124149494,
,2,8,2,5,0,-3,13,,train_dim1_1,3,30,,,,2,0,2,0,,,,,,,,,0,0,0,0,0,2,2,2,1,0,1,0,,,,,,,,,,,,,,,,,,,,,,,,,,,,,,,,,,,,,,,,,,,,,,,,,,,,,,,,,,,,,,,,30,,,,,,,,616.8940597998444,616.8940597998444,616.8940597998444,616.8940597998444,616.8940597998444,down,1.510343899950385,0,1,0,99,0,0.07999999999999997,down,1.4203020997811109,,,,,,,,,,,,,,,,,,,,,,,,,,,,,,,,,,,,,,,,,,,,,,,,,,,,,,,,,,,,HJAFTX,train_y,red_square,top_left,2025-08-19_17h52.41.828,HideSeek_v1,2022.2.5,59.94564124149494,
,2,8,2,5,0,-3,13,,train_dim1_1,3,30,,,,2,0,2,0,,,,,,,,,0,0,0,0,0,2,2,2,2,0,2,0,,,,,,,,,,,,,,,,,,,,,,,,,,,,,,,,,,,,,,,,,,,,,,,,,,,,,,,,,,,,,,,,30,,,,,,,,618.4111766999122,618.4111766999122,618.4111766999122,618.4111766999122,618.4111766999122,return,0.9938757000491023,0,1,0,0,0,0.07999999999999997,return,0.910979500040412,-2,4,0,0.07999999999999997,,,,,,,,,,,,,,,,,,,,,,,,,,,,,,,,,,,,,,,,,,,,,,,,,,,,,,,,HJAFTX,train_y,red_square,top_left,2025-08-19_17h52.41.828,HideSeek_v1,2022.2.5,59.94564124149494,
,0,6,0,2,0,-4,12,,train_dim1_1,4,30,,,,2,0,2,0,,,,,,,,,0,0,0,0,0,3,3,3,0,0,0,0,,,,,,,,,,,,,,,,,,,,,,,,,stimuli/alien_stimuli/12.png,,,,,,,,,,,,,,,,,,,,,,,,,,,,,stimuli/alien_stimuli/13.png,13,2,5,,,,,,,30,,,,,,,,628.4926608998794,628.4926608998794,628.4926608998794,628.4926608998794,628.4926608998794,down,3.0070863000582904,0,1,0,99,-0.16,0.0,down,2.9209976999554783,,,,,626.9351985999383,628.4926608998794,0,0,0.24,0.0,0.12,0,0.0,0,0,620.9772731000558,620.9772731000558,620.9772731000558,620.9772731000558,620.9772731000558,620.9772731000558,620.9772731000558,620.9772731000558,620.9629946198779,6.074317800113931,return,5.936964699998498,,,,,,,,,,,,,,,,,,,,,,,,,,,,,,,,,HJAFTX,train_y,red_square,top_left,2025-08-19_17h52.41.828,HideSeek_v1,2022.2.5,59.94564124149494,
,0,6,0,2,0,-4,12,,train_dim1_1,4,30,,,,2,0,2,0,,,,,,,,,0,0,0,0,0,3,3,3,1,0,1,0,,,,,,,,,,,,,,,,,,,,,,,,,,,,,,,,,,,,,,,,,,,,,,,,,,,,,,,,,,,,,,,,30,,,,,,,,631.5066549999174,631.5066549999174,631.5066549999174,631.5066549999174,631.5066549999174,down,0.6929830000735819,0,1,0,99,-0.16,-0.08,down,0.6043094999622554,,,,,,,,,,,,,,,,,,,,,,,,,,,,,,,,,,,,,,,,,,,,,,,,,,,,,,,,,,,,HJAFTX,train_y,red_square,top_left,2025-08-19_17h52.41.828,HideSeek_v1,2022.2.5,59.94564124149494,
,0,6,0,2,0,-4,12,,train_dim1_1,4,30,,,,2,0,2,0,,,,,,,,,0,0,0,0,0,3,3,3,2,0,2,0,,,,,,,,,,,,,,,,,,,,,,,,,,,,,,,,,,,,,,,,,,,,,,,,,,,,,,,,,,,,,,,,30,,,,,,,,632.2080826999154,632.2080826999154,632.2080826999154,632.2080826999154,632.2080826999154,down,0.660114899976179,0,1,0,99,-0.16,-0.16,down,0.5712169001344591,,,,,,,,,,,,,,,,,,,,,,,,,,,,,,,,,,,,,,,,,,,,,,,,,,,,,,,,,,,,HJAFTX,train_y,red_square,top_left,2025-08-19_17h52.41.828,HideSeek_v1,2022.2.5,59.94564124149494,
,0,6,0,2,0,-4,12,,train_dim1_1,4,30,,,,2,0,2,0,,,,,,,,,0,0,0,0,0,3,3,3,3,0,3,0,,,,,,,,,,,,,,,,,,,,,,,,,,,,,,,,,,,,,,,,,,,,,,,,,,,,,,,,,,,,,,,,30,,,,,,,,632.8753428000491,632.8753428000491,632.8753428000491,632.8753428000491,632.8753428000491,down,0.5769144000951201,0,1,0,99,-0.16,-0.24,down,0.4965524999424815,,,,,,,,,,,,,,,,,,,,,,,,,,,,,,,,,,,,,,,,,,,,,,,,,,,,,,,,,,,,HJAFTX,train_y,red_square,top_left,2025-08-19_17h52.41.828,HideSeek_v1,2022.2.5,59.94564124149494,
,0,6,0,2,0,-4,12,,train_dim1_1,4,30,,,,2,0,2,0,,,,,,,,,0,0,0,0,0,3,3,3,4,0,4,0,,,,,,,,,,,,,,,,,,,,,,,,,,,,,,,,,,,,,,,,,,,,,,,,,,,,,,,,,,,,,,,,30,,,,,,,,633.4578131998423,633.4578131998423,633.4578131998423,633.4578131998423,633.4578131998423,down,0.5933509999886155,0,1,0,99,-0.16,-0.32,down,0.51374869979918,,,,,,,,,,,,,,,,,,,,,,,,,,,,,,,,,,,,,,,,,,,,,,,,,,,,,,,,,,,,HJAFTX,train_y,red_square,top_left,2025-08-19_17h52.41.828,HideSeek_v1,2022.2.5,59.94564124149494,
,0,6,0,2,0,-4,12,,train_dim1_1,4,30,,,,2,0,2,0,,,,,,,,,0,0,0,0,0,3,3,3,5,0,5,0,,,,,,,,,,,,,,,,,,,,,,,,,,,,,,,,,,,,,,,,,,,,,,,,,,,,,,,,,,,,,,,,30,,,,,,,,634.058646599995,634.058646599995,634.058646599995,634.058646599995,634.058646599995,return,1.677873499924317,0,1,0,0,-0.16,-0.32,return,1.5998426999431103,-7,4,-0.16,-0.32,,,,,,,,,,,,,,,,,,,,,,,,,,,,,,,,,,,,,,,,,,,,,,,,,,,,,,,,HJAFTX,train_y,red_square,top_left,2025-08-19_17h52.41.828,HideSeek_v1,2022.2.5,59.94564124149494,
,3,8,3,3,0,-5,11,,train_dim1_1,5,30,,,,2,0,2,0,,,,,,,,,0,0,0,0,0,4,4,4,0,0,0,0,,,,,,,,,,,,,,,,,,,,,,,,,stimuli/alien_stimuli/11.png,,,,,,,,,,,,,,,,,,,,,,,,,,,,,stimuli/alien_stimuli/12.png,12,0,6,,,,,,,30,,,,,,,,641.3542828999925,641.3542828999925,641.3542828999925,641.3542828999925,641.3542828999925,down,2.105469800066203,0,1,0,99,0.08,0.15999999999999998,down,2.023227700032294,,,,,639.7957099999767,641.3542828999925,-0.16,-0.24,0.32,0.0,-0.07999999999999999,-0.16,-0.16,-0.16,-0.24,637.3078631998505,637.3078631998505,637.3078631998505,637.3078631998505,637.3078631998505,637.3078631998505,637.3078631998505,637.3078631998505,637.29321622001,2.6045778999105096,return,2.4635745000559837,,,,,,,,,,,,,,,,,,,,,,,,,,,,,,,,,HJAFTX,train_y,red_square,top_left,2025-08-19_17h52.41.828,HideSeek_v1,2022.2.5,59.94564124149494,
,3,8,3,3,0,-5,11,,train_dim1_1,5,30,,,,2,0,2,0,,,,,,,,,0,0,0,0,0,4,4,4,1,0,1,0,,,,,,,,,,,,,,,,,,,,,,,,,,,,,,,,,,,,,,,,,,,,,,,,,,,,,,,,,,,,,,,,30,,,,,,,,643.4662901998963,643.4662901998963,643.4662901998963,643.4662901998963,643.4662901998963,down,0.7767405998893082,0,1,0,99,0.08,0.07999999999999997,down,0.6962454000022262,,,,,,,,,,,,,,,,,,,,,,,,,,,,,,,,,,,,,,,,,,,,,,,,,,,,,,,,,,,,HJAFTX,train_y,red_square,top_left,2025-08-19_17h52.41.828,HideSeek_v1,2022.2.5,59.94564124149494,
,3,8,3,3,0,-5,11,,train_dim1_1,5,30,,,,2,0,2,0,,,,,,,,,0,0,0,0,0,4,4,4,2,0,2,0,,,,,,,,,,,,,,,,,,,,,,,,,,,,,,,,,,,,,,,,,,,,,,,,,,,,,,,,,,,,,,,,30,,,,,,,,644.2500022999011,644.2500022999011,644.2500022999011,644.2500022999011,644.2500022999011,down,0.6601174999959767,0,1,0,99,0.08,-2.7755575615628914e-17,down,0.5672786000650376,,,,,,,,,,,,,,,,,,,,,,,,,,,,,,,,,,,,,,,,,,,,,,,,,,,,,,,,,,,,HJAFTX,train_y,red_square,top_left,2025-08-19_17h52.41.828,HideSeek_v1,2022.2.5,59.94564124149494,
,3,8,3,3,0,-5,11,,train_dim1_1,5,30,,,,2,0,2,0,,,,,,,,,0,0,0,0,0,4,4,4,3,0,3,0,,,,,,,,,,,,,,,,,,,,,,,,,,,,,,,,,,,,,,,,,,,,,,,,,,,,,,,,,,,,,,,,30,,,,,,,,644.9175813000184,644.9175813000184,644.9175813000184,644.9175813000184,644.9175813000184,down,0.6274245001841336,0,1,0,99,0.08,-0.08000000000000003,down,0.5469947999808937,,,,,,,,,,,,,,,,,,,,,,,,,,,,,,,,,,,,,,,,,,,,,,,,,,,,,,,,,,,,HJAFTX,train_y,red_square,top_left,2025-08-19_17h52.41.828,HideSeek_v1,2022.2.5,59.94564124149494,
,3,8,3,3,0,-5,11,,train_dim1_1,5,30,,,,2,0,2,0,,,,,,,,,0,0,0,0,0,4,4,4,4,0,4,0,,,,,,,,,,,,,,,,,,,,,,,,,,,,,,,,,,,,,,,,,,,,,,,,,,,,,,,,,,,,,,,,30,,,,,,,,645.5512725999579,645.5512725999579,645.5512725999579,645.5512725999579,645.5512725999579,return,0.6435233999509364,0,1,0,0,0.08,-0.08000000000000003,return,0.5618471000343561,-11,4,0.08,-0.08000000000000003,,,,,,,,,,,,,,,,,,,,,,,,,,,,,,,,,,,,,,,,,,,,,,,,,,,,,,,,HJAFTX,train_y,red_square,top_left,2025-08-19_17h52.41.828,HideSeek_v1,2022.2.5,59.94564124149494,
,1,9,1,5,0,-4,12,,train_dim1_1,6,30,,,,2,0,2,0,,,,,,,,,0,0,0,0,0,5,5,5,0,0,0,0,,,,,,,,,,,,,,,,,,,,,,,,,stimuli/alien_stimuli/12.png,,,,,,,,,,,,,,,,,,,,,,,,,,,,,stimuli/alien_stimuli/11.png,11,3,7,,,,,,,30,,,,,,,,651.0298085999675,651.0298085999675,651.0298085999675,651.0298085999675,651.0298085999675,down,5.490162899950519,0,1,0,99,-0.08,0.24,down,5.402408099966124,,,,,649.4701618000399,651.0298085999675,0.08,-0.16,0.4,0.0,0.039999999999999994,0.08,0.08,0.08,-0.16,647.754355999874,647.754355999874,647.754355999874,647.754355999874,647.754355999874,647.754355999874,647.754355999874,647.754355999874,647.7522585197817,1.820277800085023,return,1.693825100082904,,,,,,,,,,,,,,,,,,,,,,,,,,,,,,,,,HJAFTX,train_y,red_square,top_left,2025-08-19_17h52.41.828,HideSeek_v1,2022.2.5,59.94564124149494,
,1,9,1,5,0,-4,12,,train_dim1_1,6,30,,,,2,0,2,0,,,,,,,,,0,0,0,0,0,5,5,5,1,0,1,0,,,,,,,,,,,,,,,,,,,,,,,,,,,,,,,,,,,,,,,,,,,,,,,,,,,,,,,,,,,,,,,,30,,,,,,,,656.5336599999573,656.5336599999573,656.5336599999573,656.5336599999573,656.5336599999573,down,0.8599437000229955,0,1,0,99,-0.08,0.15999999999999998,down,0.7774229999631643,,,,,,,,,,,,,,,,,,,,,,,,,,,,,,,,,,,,,,,,,,,,,,,,,,,,,,,,,,,,HJAFTX,train_y,red_square,top_left,2025-08-19_17h52.41.828,HideSeek_v1,2022.2.5,59.94564124149494,
,1,9,1,5,0,-4,12,,train_dim1_1,6,30,,,,2,0,2,0,,,,,,,,,0,0,0,0,0,5,5,5,2,0,2,0,,,,,,,,,,,,,,,,,,,,,,,,,,,,,,,,,,,,,,,,,,,,,,,,,,,,,,,,,,,,,,,,30,,,,,,,,657.3948454998899,657.3948454998899,657.3948454998899,657.3948454998899,657.3948454998899,down,2.0278762001544237,0,1,0,99,-0.08,0.07999999999999997,down,1.93502700002864,,,,,,,,,,,,,,,,,,,,,,,,,,,,,,,,,,,,,,,,,,,,,,,,,,,,,,,,,,,,HJAFTX,train_y,red_square,top_left,2025-08-19_17h52.41.828,HideSeek_v1,2022.2.5,59.94564124149494,
,1,9,1,5,0,-4,12,,train_dim1_1,6,30,,,,2,0,2,0,,,,,,,,,0,0,0,0,0,5,5,5,3,0,3,0,,,,,,,,,,,,,,,,,,,,,,,,,,,,,,,,,,,,,,,,,,,,,,,,,,,,,,,,,,,,,,,,30,,,,,,,,659.4297489000019,659.4297489000019,659.4297489000019,659.4297489000019,659.4297489000019,down,0.993914500111714,0,1,0,99,-0.08,-2.7755575615628914e-17,down,0.9017819000873715,,,,,,,,,,,,,,,,,,,,,,,,,,,,,,,,,,,,,,,,,,,,,,,,,,,,,,,,,,,,HJAFTX,train_y,red_square,top_left,2025-08-19_17h52.41.828,HideSeek_v1,2022.2.5,59.94564124149494,
,1,9,1,5,0,-4,12,,train_dim1_1,6,30,,,,2,0,2,0,,,,,,,,,0,0,0,0,0,5,5,5,4,0,4,0,,,,,,,,,,,,,,,,,,,,,,,,,,,,,,,,,,,,,,,,,,,,,,,,,,,,,,,,,,,,,,,,30,,,,,,,,660.4311038998421,660.4311038998421,660.4311038998421,660.4311038998421,660.4311038998421,down,2.278126100078225,0,1,0,99,-0.08,-0.08000000000000003,down,2.192342400085181,,,,,,,,,,,,,,,,,,,,,,,,,,,,,,,,,,,,,,,,,,,,,,,,,,,,,,,,,,,,HJAFTX,train_y,red_square,top_left,2025-08-19_17h52.41.828,HideSeek_v1,2022.2.5,59.94564124149494,
,1,9,1,5,0,-4,12,,train_dim1_1,6,30,,,,2,0,2,0,,,,,,,,,0,0,0,0,0,5,5,5,5,0,5,0,,,,,,,,,,,,,,,,,,,,,,,,,,,,,,,,,,,,,,,,,,,,,,,,,,,,,,,,,,,,,,,,30,,,,,,,,662.7159078000113,662.7159078000113,662.7159078000113,662.7159078000113,662.7159078000113,return,2.495232400018722,0,1,0,0,-0.08,-0.08000000000000003,return,2.409702899865806,-16,4,-0.08,-0.08000000000000003,,,,,,,,,,,,,,,,,,,,,,,,,,,,,,,,,,,,,,,,,,,,,,,,,,,,,,,,HJAFTX,train_y,red_square,top_left,2025-08-19_17h52.41.828,HideSeek_v1,2022.2.5,59.94564124149494,
,1,8,1,5,0,-3,13,,train_dim1_1,7,30,,,,2,0,2,0,,,,,,,,,0,0,0,0,0,6,6,6,0,0,0,0,,,,,,,,,,,,,,,,,,,,,,,,,stimuli/alien_stimuli/13.png,,,,,,,,,,,,,,,,,,,,,,,,,,,,,stimuli/alien_stimuli/12.png,12,1,8,,,,,,,30,,,,,,,,670.1307492998894,670.1307492998894,670.1307492998894,670.1307492998894,670.1307492998894,down,1.255713599966839,0,1,0,99,-0.08,0.15999999999999998,down,1.1661306000314653,,,,,668.5696077998728,670.1307492998894,-0.08,0,0.32,0.0,0.16,-0.08,-0.08,-0.08,0,666.7840875999536,666.7840875999536,666.7840875999536,666.7840875999536,666.7840875999536,666.7840875999536,666.7840875999536,666.7840875999536,666.7845177798066,1.9038910001982003,return,1.76851150020957,,,,,,,,,,,,,,,,,,,,,,,,,,,,,,,,,HJAFTX,train_y,red_square,top_left,2025-08-19_17h52.41.828,HideSeek_v1,2022.2.5,59.94564124149494,
,1,8,1,5,0,-3,13,,train_dim1_1,7,30,,,,2,0,2,0,,,,,,,,,0,0,0,0,0,6,6,6,1,0,1,0,,,,,,,,,,,,,,,,,,,,,,,,,,,,,,,,,,,,,,,,,,,,,,,,,,,,,,,,,,,,,,,,30,,,,,,,,671.3889283998869,671.3889283998869,671.3889283998869,671.3889283998869,671.3889283998869,down,0.5759682999923825,0,1,0,99,-0.08,0.07999999999999997,down,0.499414199963212,,,,,,,,,,,,,,,,,,,,,,,,,,,,,,,,,,,,,,,,,,,,,,,,,,,,,,,,,,,,HJAFTX,train_y,red_square,top_left,2025-08-19_17h52.41.828,HideSeek_v1,2022.2.5,59.94564124149494,
,1,8,1,5,0,-3,13,,train_dim1_1,7,30,,,,2,0,2,0,,,,,,,,,0,0,0,0,0,6,6,6,2,0,2,0,,,,,,,,,,,,,,,,,,,,,,,,,,,,,,,,,,,,,,,,,,,,,,,,,,,,,,,,,,,,,,,,30,,,,,,,,671.972612899961,671.972612899961,671.972612899961,671.972612899961,671.972612899961,down,0.5934351000469178,0,1,0,99,-0.08,-2.7755575615628914e-17,down,0.5048909999895841,,,,,,,,,,,,,,,,,,,,,,,,,,,,,,,,,,,,,,,,,,,,,,,,,,,,,,,,,,,,HJAFTX,train_y,red_square,top_left,2025-08-19_17h52.41.828,HideSeek_v1,2022.2.5,59.94564124149494,
,1,8,1,5,0,-3,13,,train_dim1_1,7,30,,,,2,0,2,0,,,,,,,,,0,0,0,0,0,6,6,6,3,0,3,0,,,,,,,,,,,,,,,,,,,,,,,,,,,,,,,,,,,,,,,,,,,,,,,,,,,,,,,,,,,,,,,,30,,,,,,,,672.5727726998739,672.5727726998739,672.5727726998739,672.5727726998739,672.5727726998739,return,1.0108131000306457,1,0,0,1,-0.08,-2.7755575615628914e-17,return,0.9207314001396298,-19,4,-0.08,-2.7755575615628914e-17,,,,,,,,,,,,,,,,,,,,,,,,,,,,,,,,,,,,,,,,,,,,,,,,,,,,,,,,HJAFTX,train_y,red_square,top_left,2025-08-19_17h52.41.828,HideSeek_v1,2022.2.5,59.94564124149494,
,4,7,4,2,0,-5,11,,train_dim1_1,8,30,,,,2,0,2,0,,,,,,,,,0,0,0,0,0,7,7,7,0,0,0,0,,,,,,,,,,,,,,,,,,,,,,,,,stimuli/alien_stimuli/11.png,,,,,,,,,,,,,,,,,,,,,,,,,,,,,stimuli/alien_stimuli/13.png,13,1,9,,,,,,,30,,,,,,,,678.5394031000324,678.5394031000324,678.5394031000324,678.5394031000324,678.5394031000324,down,1.2401398001238704,1,0,0,99,0.16,0.08,down,1.1538399001583457,,,,,676.9764859999996,678.5394031000324,-0.08,0,0.24,0.0,0.12,-0.08,-0.08,-0.08,0,675.1428014999256,675.1428014999256,675.1428014999256,675.1428014999256,675.1428014999256,675.1428014999256,675.1428014999256,675.1428014999256,675.1414899198803,1.9373497001361102,return,1.8088297999929637,,,,,,,,,,,,,,,,,,,,,,,,,,,,,,,,,HJAFTX,train_y,red_square,top_left,2025-08-19_17h52.41.828,HideSeek_v1,2022.2.5,59.94564124149494,
,4,7,4,2,0,-5,11,,train_dim1_1,8,30,,,,2,0,2,0,,,,,,,,,0,0,0,0,0,7,7,7,1,0,1,0,,,,,,,,,,,,,,,,,,,,,,,,,,,,,,,,,,,,,,,,,,,,,,,,,,,,,,,,,,,,,,,,30,,,,,,,,679.7794023999013,679.7794023999013,679.7794023999013,679.7794023999013,679.7794023999013,down,0.643219199962914,1,0,0,99,0.16,0.0,down,0.5665111998096108,,,,,,,,,,,,,,,,,,,,,,,,,,,,,,,,,,,,,,,,,,,,,,,,,,,,,,,,,,,,HJAFTX,train_y,red_square,top_left,2025-08-19_17h52.41.828,HideSeek_v1,2022.2.5,59.94564124149494,
,4,7,4,2,0,-5,11,,train_dim1_1,8,30,,,,2,0,2,0,,,,,,,,,0,0,0,0,0,7,7,7,2,0,2,0,,,,,,,,,,,,,,,,,,,,,,,,,,,,,,,,,,,,,,,,,,,,,,,,,,,,,,,,,,,,,,,,30,,,,,,,,680.4297392999288,680.4297392999288,680.4297392999288,680.4297392999288,680.4297392999288,down,0.7435906999744475,1,0,0,99,0.16,-0.08,down,0.667442699894309,,,,,,,,,,,,,,,,,,,,,,,,,,,,,,,,,,,,,,,,,,,,,,,,,,,,,,,,,,,,HJAFTX,train_y,red_square,top_left,2025-08-19_17h52.41.828,HideSeek_v1,2022.2.5,59.94564124149494,
,4,7,4,2,0,-5,11,,train_dim1_1,8,30,,,,2,0,2,0,,,,,,,,,0,0,0,0,0,7,7,7,3,0,3,0,,,,,,,,,,,,,,,,,,,,,,,,,,,,,,,,,,,,,,,,,,,,,,,,,,,,,,,,,,,,,,,,30,,,,,,,,681.1811086998787,681.1811086998787,681.1811086998787,681.1811086998787,681.1811086998787,down,0.7436442000325769,1,0,0,99,0.16,-0.16,down,0.6663315000478178,,,,,,,,,,,,,,,,,,,,,,,,,,,,,,,,,,,,,,,,,,,,,,,,,,,,,,,,,,,,HJAFTX,train_y,red_square,top_left,2025-08-19_17h52.41.828,HideSeek_v1,2022.2.5,59.94564124149494,
,4,7,4,2,0,-5,11,,train_dim1_1,8,30,,,,2,0,2,0,,,,,,,,,0,0,0,0,0,7,7,7,4,0,4,0,,,,,,,,,,,,,,,,,,,,,,,,,,,,,,,,,,,,,,,,,,,,,,,,,,,,,,,,,,,,,,,,30,,,,,,,,681.9315783998463,681.9315783998463,681.9315783998463,681.9315783998463,681.9315783998463,return,0.7603040998801589,1,1,0,0,0.16,-0.16,return,0.6727466001175344,-23,4,0.16,-0.16,,,,,,,,,,,,,,,,,,,,,,,,,,,,,,,,,,,,,,,,,,,,,,,,,,,,,,,,HJAFTX,train_y,red_square,top_left,2025-08-19_17h52.41.828,HideSeek_v1,2022.2.5,59.94564124149494,
,4,8,4,7,0,-1,15,,train_dim1_1,9,30,,,,2,0,2,0,,,,,,,,,0,0,0,0,0,8,8,8,0,0,0,0,,,,,,,,,,,,,,,,,,,,,,,,,stimuli/alien_stimuli/15.png,,,,,,,,,,,,,,,,,,,,,,,,,,,,,stimuli/alien_stimuli/11.png,11,4,10,,,,,,,30,,,,,,,,687.0896254000254,687.0896254000254,687.0896254000254,687.0896254000254,687.0896254000254,down,0.9397112000733614,1,1,0,99,0.16,0.15999999999999998,down,0.8568812999874353,,,,,685.5336726999376,687.0896254000254,0.16,-0.24,0.4,0.0,-0.039999999999999994,0.16,0.16,0.16,-0.24,684.2491572999861,684.2491572999861,684.2491572999861,684.2491572999861,684.2491572999861,684.2491572999861,684.2491572999861,684.2491572999861,684.2491182199678,1.386620600009337,return,1.2601122001651675,,,,,,,,,,,,,,,,,,,,,,,,,,,,,,,,,HJAFTX,train_y,red_square,top_left,2025-08-19_17h52.41.828,HideSeek_v1,2022.2.5,59.94564124149494,
,4,8,4,7,0,-1,15,,train_dim1_1,9,30,,,,2,0,2,0,,,,,,,,,0,0,0,0,0,8,8,8,1,0,1,0,,,,,,,,,,,,,,,,,,,,,,,,,,,,,,,,,,,,,,,,,,,,,,,,,,,,,,,,,,,,,,,,30,,,,,,,,688.0374924999196,688.0374924999196,688.0374924999196,688.0374924999196,688.0374924999196,down,1.0102494000457227,1,1,0,99,0.16,0.07999999999999997,down,0.9177441999781877,,,,,,,,,,,,,,,,,,,,,,,,,,,,,,,,,,,,,,,,,,,,,,,,,,,,,,,,,,,,HJAFTX,train_y,red_square,top_left,2025-08-19_17h52.41.828,HideSeek_v1,2022.2.5,59.94564124149494,
,4,8,4,7,0,-1,15,,train_dim1_1,9,30,,,,2,0,2,0,,,,,,,,,0,0,0,0,0,8,8,8,2,0,2,0,,,,,,,,,,,,,,,,,,,,,,,,,,,,,,,,,,,,,,,,,,,,,,,,,,,,,,,,,,,,,,,,30,,,,,,,,689.0541761999484,689.0541761999484,689.0541761999484,689.0541761999484,689.0541761999484,return,0.460098700132221,1,1,0,0,0.16,0.07999999999999997,return,0.3773034999612719,-25,4,0.16,0.07999999999999997,,,,,,,,,,,,,,,,,,,,,,,,,,,,,,,,,,,,,,,,,,,,,,,,,,,,,,,,HJAFTX,train_y,red_square,top_left,2025-08-19_17h52.41.828,HideSeek_v1,2022.2.5,59.94564124149494,
,2,7,2,7,0,0,16,,train_dim1_1,10,30,,,,2,0,2,0,,,,,,,,,0,0,0,0,0,9,9,9,0,0,0,0,,,,,,,,,,,,,,,,,,,,,,,,,stimuli/alien_stimuli/16.png,,,,,,,,,,,,,,,,,,,,,,,,,,,,,stimuli/alien_stimuli/15.png,15,4,11,,,,,,,30,,,,,,,,693.8461030998733,693.8461030998733,693.8461030998733,693.8461030998733,693.8461030998733,return,1.6221870998851955,2,0,0,1,0,0.16,return,1.5455918998923153,-25,4,0,0.16,692.2892527999356,693.8461030998733,0.16,0.16,0.08,0.0,0.2,0.16,0.16,0.16,0.16,691.068443799857,691.068443799857,691.068443799857,691.068443799857,691.068443799857,691.068443799857,691.068443799857,691.068443799857,691.0545985598117,1.3203028000425547,return,1.199339399812743,,,,,,,,,,,,,,,,,,,,,,,,,,,,,,,,,HJAFTX,train_y,red_square,top_left,2025-08-19_17h52.41.828,HideSeek_v1,2022.2.5,59.94564124149494,
,4,6,4,5,0,-1,15,,train_dim1_1,11,30,,,,2,0,2,0,,,,,,,,,0,0,0,0,0,10,10,10,0,0,0,0,,,,,,,,,,,,,,,,,,,,,,,,,stimuli/alien_stimuli/15.png,,,,,,,,,,,,,,,,,,,,,,,,,,,,,stimuli/alien_stimuli/16.png,16,2,12,,,,,,,30,,,,,,,,699.5837693999056,699.5837693999056,699.5837693999056,699.5837693999056,699.5837693999056,down,1.2068288000300527,2,0,0,99,0.16,0.0,down,1.1199952999595553,,,,,698.0274650999345,699.5837693999056,0,0.16,0.0,0.0,0.16,0,0.0,0,0.16,697.0251887999475,697.0251887999475,697.0251887999475,697.0251887999475,697.0251887999475,697.0251887999475,697.0251887999475,697.0251887999475,697.0263018199707,1.1033153999596834,return,0.9708887001033872,,,,,,,,,,,,,,,,,,,,,,,,,,,,,,,,,HJAFTX,train_y,red_square,top_left,2025-08-19_17h52.41.828,HideSeek_v1,2022.2.5,59.94564124149494,
,4,6,4,5,0,-1,15,,train_dim1_1,11,30,,,,2,0,2,0,,,,,,,,,0,0,0,0,0,10,10,10,1,0,1,0,,,,,,,,,,,,,,,,,,,,,,,,,,,,,,,,,,,,,,,,,,,,,,,,,,,,,,,,,,,,,,,,30,,,,,,,,700.7974250998814,700.7974250998814,700.7974250998814,700.7974250998814,700.7974250998814,return,0.5931790000759065,3,0,0,1,0.16,0.0,return,0.5167176001705229,-26,4,0.16,0.0,,,,,,,,,,,,,,,,,,,,,,,,,,,,,,,,,,,,,,,,,,,,,,,,,,,,,,,,HJAFTX,train_y,red_square,top_left,2025-08-19_17h52.41.828,HideSeek_v1,2022.2.5,59.94564124149494,
,0,5,0,0,0,-5,11,,train_dim1_1,12,30,,,,2,0,2,0,,,,,,,,,0,0,0,0,0,11,11,11,0,0,0,0,,,,,,,,,,,,,,,,,,,,,,,,,stimuli/alien_stimuli/11.png,,,,,,,,,,,,,,,,,,,,,,,,,,,,,stimuli/alien_stimuli/15.png,15,4,13,,,,,,,30,,,,,,,,705.5219741999172,705.5219741999172,705.5219741999172,705.5219741999172,705.5219741999172,down,4.325343600008637,3,0,0,99,-0.16,-0.08,down,4.242527199909091,,,,,703.9658273998648,705.5219741999172,0.16,0,0.08,0.0,0.04,0.16,0.16,0.16,0,702.9464181000367,702.9464181000367,702.9464181000367,702.9464181000367,702.9464181000367,702.9464181000367,702.9464181000367,702.9464181000367,702.9480945199261,1.119888599961996,return,0.9901332999579608,,,,,,,,,,,,,,,,,,,,,,,,,,,,,,,,,HJAFTX,train_y,red_square,top_left,2025-08-19_17h52.41.828,HideSeek_v1,2022.2.5,59.94564124149494,
,0,5,0,0,0,-5,11,,train_dim1_1,12,30,,,,2,0,2,0,,,,,,,,,0,0,0,0,0,11,11,11,1,0,1,0,,,,,,,,,,,,,,,,,,,,,,,,,,,,,,,,,,,,,,,,,,,,,,,,,,,,,,,,,,,,,,,,30,,,,,,,,709.8553027999587,709.8553027999587,709.8553027999587,709.8553027999587,709.8553027999587,down,1.3937114998698235,3,0,0,99,-0.16,-0.16,down,1.3093276000581682,,,,,,,,,,,,,,,,,,,,,,,,,,,,,,,,,,,,,,,,,,,,,,,,,,,,,,,,,,,,HJAFTX,train_y,red_square,top_left,2025-08-19_17h52.41.828,HideSeek_v1,2022.2.5,59.94564124149494,
,0,5,0,0,0,-5,11,,train_dim1_1,12,30,,,,2,0,2,0,,,,,,,,,0,0,0,0,0,11,11,11,2,0,2,0,,,,,,,,,,,,,,,,,,,,,,,,,,,,,,,,,,,,,,,,,,,,,,,,,,,,,,,,,,,,,,,,30,,,,,,,,711.2559860998299,711.2559860998299,711.2559860998299,711.2559860998299,711.2559860998299,down,1.110540600027889,3,0,0,99,-0.16,-0.24,down,1.0336989001370966,,,,,,,,,,,,,,,,,,,,,,,,,,,,,,,,,,,,,,,,,,,,,,,,,,,,,,,,,,,,HJAFTX,train_y,red_square,top_left,2025-08-19_17h52.41.828,HideSeek_v1,2022.2.5,59.94564124149494,
,0,5,0,0,0,-5,11,,train_dim1_1,12,30,,,,2,0,2,0,,,,,,,,,0,0,0,0,0,11,11,11,3,0,3,0,,,,,,,,,,,,,,,,,,,,,,,,,,,,,,,,,,,,,,,,,,,,,,,,,,,,,,,,,,,,,,,,30,,,,,,,,712.3726733999792,712.3726733999792,712.3726733999792,712.3726733999792,712.3726733999792,down,0.743250299943611,3,0,0,99,-0.16,-0.32,down,0.6526607000268996,,,,,,,,,,,,,,,,,,,,,,,,,,,,,,,,,,,,,,,,,,,,,,,,,,,,,,,,,,,,HJAFTX,train_y,red_square,top_left,2025-08-19_17h52.41.828,HideSeek_v1,2022.2.5,59.94564124149494,
,0,5,0,0,0,-5,11,,train_dim1_1,12,30,,,,2,0,2,0,,,,,,,,,0,0,0,0,0,11,11,11,4,0,4,0,,,,,,,,,,,,,,,,,,,,,,,,,,,,,,,,,,,,,,,,,,,,,,,,,,,,,,,,,,,,,,,,30,,,,,,,,713.1240997998975,713.1240997998975,713.1240997998975,713.1240997998975,713.1240997998975,return,0.944225599989295,3,1,0,0,-0.16,-0.32,return,0.8601974998600781,-30,4,-0.16,-0.32,,,,,,,,,,,,,,,,,,,,,,,,,,,,,,,,,,,,,,,,,,,,,,,,,,,,,,,,HJAFTX,train_y,red_square,top_left,2025-08-19_17h52.41.828,HideSeek_v1,2022.2.5,59.94564124149494,
,4,8,4,4,0,-4,12,,train_dim1_1,13,30,,,,2,0,2,0,,,,,,,,,0,0,0,0,0,12,12,12,0,0,0,0,,,,,,,,,,,,,,,,,,,,,,,,,stimuli/alien_stimuli/12.png,,,,,,,,,,,,,,,,,,,,,,,,,,,,,stimuli/alien_stimuli/11.png,11,0,14,,,,,,,30,,,,,,,,718.4159525998402,718.4159525998402,718.4159525998402,718.4159525998402,718.4159525998402,down,1.5404213999863714,3,1,0,99,0.16,0.15999999999999998,down,1.4585282001644373,,,,,716.8597279000096,718.4159525998402,-0.16,-0.4,0.4,0.0,-0.2,-0.16,-0.16,-0.16,-0.4,715.6386804999784,715.6386804999784,715.6386804999784,715.6386804999784,715.6386804999784,715.6386804999784,715.6386804999784,715.6386804999784,715.6251572199631,1.3367657999042422,return,1.1965358001179993,,,,,,,,,,,,,,,,,,,,,,,,,,,,,,,,,HJAFTX,train_y,red_square,top_left,2025-08-19_17h52.41.828,HideSeek_v1,2022.2.5,59.94564124149494,
,4,8,4,4,0,-4,12,,train_dim1_1,13,30,,,,2,0,2,0,,,,,,,,,0,0,0,0,0,12,12,12,1,0,1,0,,,,,,,,,,,,,,,,,,,,,,,,,,,,,,,,,,,,,,,,,,,,,,,,,,,,,,,,,,,,,,,,30,,,,,,,,719.9635578000452,719.9635578000452,719.9635578000452,719.9635578000452,719.9635578000452,down,1.3771423001307994,3,1,0,99,0.16,0.07999999999999997,down,1.2870361998211592,,,,,,,,,,,,,,,,,,,,,,,,,,,,,,,,,,,,,,,,,,,,,,,,,,,,,,,,,,,,HJAFTX,train_y,red_square,top_left,2025-08-19_17h52.41.828,HideSeek_v1,2022.2.5,59.94564124149494,
,4,8,4,4,0,-4,12,,train_dim1_1,13,30,,,,2,0,2,0,,,,,,,,,0,0,0,0,0,12,12,12,2,0,2,0,,,,,,,,,,,,,,,,,,,,,,,,,,,,,,,,,,,,,,,,,,,,,,,,,,,,,,,,,,,,,,,,30,,,,,,,,721.348663300043,721.348663300043,721.348663300043,721.348663300043,721.348663300043,down,1.0436196001246572,3,1,0,99,0.16,-2.7755575615628914e-17,down,0.9556539000477642,,,,,,,,,,,,,,,,,,,,,,,,,,,,,,,,,,,,,,,,,,,,,,,,,,,,,,,,,,,,HJAFTX,train_y,red_square,top_left,2025-08-19_17h52.41.828,HideSeek_v1,2022.2.5,59.94564124149494,
,4,8,4,4,0,-4,12,,train_dim1_1,13,30,,,,2,0,2,0,,,,,,,,,0,0,0,0,0,12,12,12,3,0,3,0,,,,,,,,,,,,,,,,,,,,,,,,,,,,,,,,,,,,,,,,,,,,,,,,,,,,,,,,,,,,,,,,30,,,,,,,,722.3985253998544,722.3985253998544,722.3985253998544,722.3985253998544,722.3985253998544,down,1.8276369001250714,3,1,0,99,0.16,-0.08000000000000003,down,1.7500243000686169,,,,,,,,,,,,,,,,,,,,,,,,,,,,,,,,,,,,,,,,,,,,,,,,,,,,,,,,,,,,HJAFTX,train_y,red_square,top_left,2025-08-19_17h52.41.828,HideSeek_v1,2022.2.5,59.94564124149494,
,4,8,4,4,0,-4,12,,train_dim1_1,13,30,,,,2,0,2,0,,,,,,,,,0,0,0,0,0,12,12,12,4,0,4,0,,,,,,,,,,,,,,,,,,,,,,,,,,,,,,,,,,,,,,,,,,,,,,,,,,,,,,,,,,,,,,,,30,,,,,,,,724.2333946998697,724.2333946998697,724.2333946998697,724.2333946998697,724.2333946998697,down,0.8934327999595553,3,1,0,99,0.16,-0.16000000000000003,down,0.8019781999755651,,,,,,,,,,,,,,,,,,,,,,,,,,,,,,,,,,,,,,,,,,,,,,,,,,,,,,,,,,,,HJAFTX,train_y,red_square,top_left,2025-08-19_17h52.41.828,HideSeek_v1,2022.2.5,59.94564124149494,
,4,8,4,4,0,-4,12,,train_dim1_1,13,30,,,,2,0,2,0,,,,,,,,,0,0,0,0,0,12,12,12,5,0,5,0,,,,,,,,,,,,,,,,,,,,,,,,,,,,,,,,,,,,,,,,,,,,,,,,,,,,,,,,,,,,,,,,30,,,,,,,,725.1338179998565,725.1338179998565,725.1338179998565,725.1338179998565,725.1338179998565,return,0.5933776998426765,3,1,0,0,0.16,-0.16000000000000003,return,0.5175505001097918,-35,4,0.16,-0.16000000000000003,,,,,,,,,,,,,,,,,,,,,,,,,,,,,,,,,,,,,,,,,,,,,,,,,,,,,,,,HJAFTX,train_y,red_square,top_left,2025-08-19_17h52.41.828,HideSeek_v1,2022.2.5,59.94564124149494,
,2,7,2,7,0,0,16,,train_dim1_1,14,30,,,,2,0,2,0,,,,,,,,,0,0,0,0,0,13,13,13,0,0,0,0,,,,,,,,,,,,,,,,,,,,,,,,,stimuli/alien_stimuli/16.png,,,,,,,,,,,,,,,,,,,,,,,,,,,,,stimuli/alien_stimuli/12.png,12,4,15,,,,,,,30,,,,,,,,729.8418109999038,729.8418109999038,729.8418109999038,729.8418109999038,729.8418109999038,return,2.4904469999019057,4,0,0,1,0,0.16,return,2.398496200097725,-35,4,0,0.16,728.2857615998946,729.8418109999038,0.16,-0.08,0.32,0.0,0.07999999999999999,0.16,0.16,0.16,-0.08,727.2967296999414,727.2967296999414,727.2967296999414,727.2967296999414,727.2967296999414,727.2967296999414,727.2967296999414,727.2967296999414,727.2850840197875,1.102669200161472,return,0.9640656001865864,,,,,,,,,,,,,,,,,,,,,,,,,,,,,,,,,HJAFTX,train_y,red_square,top_left,2025-08-19_17h52.41.828,HideSeek_v1,2022.2.5,59.94564124149494,
,1,9,1,6,0,-3,13,,train_dim1_1,15,30,,,,2,0,2,0,,,,,,,,,0,0,0,0,0,14,14,14,0,0,0,0,,,,,,,,,,,,,,,,,,,,,,,,,stimuli/alien_stimuli/13.png,,,,,,,,,,,,,,,,,,,,,,,,,,,,,stimuli/alien_stimuli/16.png,16,2,16,,,,,,,30,,,,,,,,736.0997256999835,736.0997256999835,736.0997256999835,736.0997256999835,736.0997256999835,down,0.9711370000150055,4,0,0,99,-0.08,0.24,down,0.8864754000678658,,,,,734.5408017998561,736.0997256999835,0,0.16,0.0,0.0,0.16,0,0.0,0,0.16,733.8903301998507,733.8903301998507,733.8903301998507,733.8903301998507,733.8903301998507,733.8903301998507,733.8903301998507,733.8903301998507,733.8904471198562,0.7528160999063402,return,0.6274051000364125,,,,,,,,,,,,,,,,,,,,,,,,,,,,,,,,,HJAFTX,train_y,red_square,top_left,2025-08-19_17h52.41.828,HideSeek_v1,2022.2.5,59.94564124149494,
,1,9,1,6,0,-3,13,,train_dim1_1,15,30,,,,2,0,2,0,,,,,,,,,0,0,0,0,0,14,14,14,1,0,1,0,,,,,,,,,,,,,,,,,,,,,,,,,,,,,,,,,,,,,,,,,,,,,,,,,,,,,,,,,,,,,,,,30,,,,,,,,737.0785987998825,737.0785987998825,737.0785987998825,737.0785987998825,737.0785987998825,down,0.47631159983575344,4,0,0,99,-0.08,0.15999999999999998,down,0.38437969982624054,,,,,,,,,,,,,,,,,,,,,,,,,,,,,,,,,,,,,,,,,,,,,,,,,,,,,,,,,,,,HJAFTX,train_y,red_square,top_left,2025-08-19_17h52.41.828,HideSeek_v1,2022.2.5,59.94564124149494,
,1,9,1,6,0,-3,13,,train_dim1_1,15,30,,,,2,0,2,0,,,,,,,,,0,0,0,0,0,14,14,14,2,0,2,0,,,,,,,,,,,,,,,,,,,,,,,,,,,,,,,,,,,,,,,,,,,,,,,,,,,,,,,,,,,,,,,,30,,,,,,,,737.5602337999735,737.5602337999735,737.5602337999735,737.5602337999735,737.5602337999735,down,1.594480600208044,4,0,0,99,-0.08,0.07999999999999997,down,1.5029504001140594,,,,,,,,,,,,,,,,,,,,,,,,,,,,,,,,,,,,,,,,,,,,,,,,,,,,,,,,,,,,HJAFTX,train_y,red_square,top_left,2025-08-19_17h52.41.828,HideSeek_v1,2022.2.5,59.94564124149494,
,1,9,1,6,0,-3,13,,train_dim1_1,15,30,,,,2,0,2,0,,,,,,,,,0,0,0,0,0,14,14,14,3,0,3,0,,,,,,,,,,,,,,,,,,,,,,,,,,,,,,,,,,,,,,,,,,,,,,,,,,,,,,,,,,,,,,,,30,,,,,,,,739.1618840999436,739.1618840999436,739.1618840999436,739.1618840999436,739.1618840999436,return,0.3932161000557244,5,0,0,1,-0.08,0.07999999999999997,return,0.3131279998924583,-38,4,-0.08,0.07999999999999997,,,,,,,,,,,,,,,,,,,,,,,,,,,,,,,,,,,,,,,,,,,,,,,,,,,,,,,,HJAFTX,train_y,red_square,top_left,2025-08-19_17h52.41.828,HideSeek_v1,2022.2.5,59.94564124149494,
,4,5,4,4,0,-1,15,,train_dim1_1,16,30,,,,2,0,2,0,,,,,,,,,0,0,0,0,0,15,15,15,0,0,0,0,,,,,,,,,,,,,,,,,,,,,,,,,stimuli/alien_stimuli/15.png,,,,,,,,,,,,,,,,,,,,,,,,,,,,,stimuli/alien_stimuli/13.png,13,1,17,,,,,,,30,,,,,,,,743.638102900004,743.638102900004,743.638102900004,743.638102900004,743.638102900004,down,1.3058724999427795,5,0,0,99,0.16,-0.08,down,1.2168330999556929,,,,,742.080402399879,743.638102900004,-0.08,0.08,0.24,0.0,0.2,-0.08,-0.08,-0.08,0.08,741.1086893999018,741.1086893999018,741.1086893999018,741.1086893999018,741.1086893999018,741.1086893999018,741.1086893999018,741.1086893999018,741.0962746599223,1.0697673000395298,return,0.9495881998445839,,,,,,,,,,,,,,,,,,,,,,,,,,,,,,,,,HJAFTX,train_y,red_square,top_left,2025-08-19_17h52.41.828,HideSeek_v1,2022.2.5,59.94564124149494,
,4,5,4,4,0,-1,15,,train_dim1_1,16,30,,,,2,0,2,0,,,,,,,,,0,0,0,0,0,15,15,15,1,0,1,0,,,,,,,,,,,,,,,,,,,,,,,,,,,,,,,,,,,,,,,,,,,,,,,,,,,,,,,,,,,,,,,,30,,,,,,,,744.9508137998637,744.9508137998637,744.9508137998637,744.9508137998637,744.9508137998637,return,0.4596369999926537,6,0,0,1,0.16,-0.08,return,0.3751854000147432,-39,4,0.16,-0.08,,,,,,,,,,,,,,,,,,,,,,,,,,,,,,,,,,,,,,,,,,,,,,,,,,,,,,,,HJAFTX,train_y,red_square,top_left,2025-08-19_17h52.41.828,HideSeek_v1,2022.2.5,59.94564124149494,
,3,8,3,5,0,-3,13,,train_dim1_1,17,30,,,,2,0,2,0,,,,,,,,,0,0,0,0,0,16,16,16,0,0,0,0,,,,,,,,,,,,,,,,,,,,,,,,,stimuli/alien_stimuli/13.png,,,,,,,,,,,,,,,,,,,,,,,,,,,,,stimuli/alien_stimuli/15.png,15,4,18,,,,,,,30,,,,,,,,749.3424410999287,749.3424410999287,749.3424410999287,749.3424410999287,749.3424410999287,down,0.7541843999642879,6,0,0,99,0.08,0.15999999999999998,down,0.6706600999459624,,,,,747.7851976999082,749.3424410999287,0.16,-0.08,0.08,0.0,-0.04,0.16,0.16,0.16,-0.08,746.9667974000331,746.9667974000331,746.9667974000331,746.9667974000331,746.9667974000331,746.9667974000331,746.9667974000331,746.9667974000331,746.9679089199285,0.9192165001295507,return,0.7880431998055428,,,,,,,,,,,,,,,,,,,,,,,,,,,,,,,,,HJAFTX,train_y,red_square,top_left,2025-08-19_17h52.41.828,HideSeek_v1,2022.2.5,59.94564124149494,
,3,8,3,5,0,-3,13,,train_dim1_1,17,30,,,,2,0,2,0,,,,,,,,,0,0,0,0,0,16,16,16,1,0,1,0,,,,,,,,,,,,,,,,,,,,,,,,,,,,,,,,,,,,,,,,,,,,,,,,,,,,,,,,,,,,,,,,30,,,,,,,,750.1047026999295,750.1047026999295,750.1047026999295,750.1047026999295,750.1047026999295,down,1.0433987998403609,6,0,0,99,0.08,0.07999999999999997,down,0.9542755999136716,,,,,,,,,,,,,,,,,,,,,,,,,,,,,,,,,,,,,,,,,,,,,,,,,,,,,,,,,,,,HJAFTX,train_y,red_square,top_left,2025-08-19_17h52.41.828,HideSeek_v1,2022.2.5,59.94564124149494,
,3,8,3,5,0,-3,13,,train_dim1_1,17,30,,,,2,0,2,0,,,,,,,,,0,0,0,0,0,16,16,16,2,0,2,0,,,,,,,,,,,,,,,,,,,,,,,,,,,,,,,,,,,,,,,,,,,,,,,,,,,,,,,,,,,,,,,,30,,,,,,,,751.1561427998822,751.1561427998822,751.1561427998822,751.1561427998822,751.1561427998822,down,1.0438186000101268,6,0,0,99,0.08,-2.7755575615628914e-17,down,0.956488800002262,,,,,,,,,,,,,,,,,,,,,,,,,,,,,,,,,,,,,,,,,,,,,,,,,,,,,,,,,,,,HJAFTX,train_y,red_square,top_left,2025-08-19_17h52.41.828,HideSeek_v1,2022.2.5,59.94564124149494,
,3,8,3,5,0,-3,13,,train_dim1_1,17,30,,,,2,0,2,0,,,,,,,,,0,0,0,0,0,16,16,16,3,0,3,0,,,,,,,,,,,,,,,,,,,,,,,,,,,,,,,,,,,,,,,,,,,,,,,,,,,,,,,,,,,,,,,,30,,,,,,,,752.2059712999035,752.2059712999035,752.2059712999035,752.2059712999035,752.2059712999035,return,0.47669610008597374,7,0,0,1,0.08,-2.7755575615628914e-17,return,0.38632809999398887,-42,4,0.08,-2.7755575615628914e-17,,,,,,,,,,,,,,,,,,,,,,,,,,,,,,,,,,,,,,,,,,,,,,,,,,,,,,,,HJAFTX,train_y,red_square,top_left,2025-08-19_17h52.41.828,HideSeek_v1,2022.2.5,59.94564124149494,
,2,6,2,1,0,-5,11,,train_dim1_1,18,30,,,,2,0,2,0,,,,,,,,,0,0,0,0,0,17,17,17,0,0,0,0,,,,,,,,,,,,,,,,,,,,,,,,,stimuli/alien_stimuli/11.png,,,,,,,,,,,,,,,,,,,,,,,,,,,,,stimuli/alien_stimuli/13.png,13,3,19,,,,,,,30,,,,,,,,756.4658398998436,756.4658398998436,756.4658398998436,756.4658398998436,756.4658398998436,down,0.9382082000374794,7,0,0,99,0,0.0,down,0.8544350999873132,,,,,754.907930499874,756.4658398998436,0.08,0,0.24,0.0,0.12,0.08,0.08,0.08,0,754.23799399985,754.23799399985,754.23799399985,754.23799399985,754.23799399985,754.23799399985,754.23799399985,754.23799399985,754.2238619599491,0.7698611000087112,return,0.6495763000566512,,,,,,,,,,,,,,,,,,,,,,,,,,,,,,,,,HJAFTX,train_y,red_square,top_left,2025-08-19_17h52.41.828,HideSeek_v1,2022.2.5,59.94564124149494,
,2,6,2,1,0,-5,11,,train_dim1_1,18,30,,,,2,0,2,0,,,,,,,,,0,0,0,0,0,17,17,17,1,0,1,0,,,,,,,,,,,,,,,,,,,,,,,,,,,,,,,,,,,,,,,,,,,,,,,,,,,,,,,,,,,,,,,,30,,,,,,,,757.411068999907,757.411068999907,757.411068999907,757.411068999907,757.411068999907,down,0.5430401000194252,7,0,0,99,0,-0.08,down,0.4609924000687897,,,,,,,,,,,,,,,,,,,,,,,,,,,,,,,,,,,,,,,,,,,,,,,,,,,,,,,,,,,,HJAFTX,train_y,red_square,top_left,2025-08-19_17h52.41.828,HideSeek_v1,2022.2.5,59.94564124149494,
,2,6,2,1,0,-5,11,,train_dim1_1,18,30,,,,2,0,2,0,,,,,,,,,0,0,0,0,0,17,17,17,2,0,2,0,,,,,,,,,,,,,,,,,,,,,,,,,,,,,,,,,,,,,,,,,,,,,,,,,,,,,,,,,,,,,,,,30,,,,,,,,757.961376399966,757.961376399966,757.961376399966,757.961376399966,757.961376399966,down,1.0436267000623047,7,0,0,99,0,-0.16,down,0.9541899999603629,,,,,,,,,,,,,,,,,,,,,,,,,,,,,,,,,,,,,,,,,,,,,,,,,,,,,,,,,,,,HJAFTX,train_y,red_square,top_left,2025-08-19_17h52.41.828,HideSeek_v1,2022.2.5,59.94564124149494,
,2,6,2,1,0,-5,11,,train_dim1_1,18,30,,,,2,0,2,0,,,,,,,,,0,0,0,0,0,17,17,17,3,0,3,0,,,,,,,,,,,,,,,,,,,,,,,,,,,,,,,,,,,,,,,,,,,,,,,,,,,,,,,,,,,,,,,,30,,,,,,,,759.0126316999085,759.0126316999085,759.0126316999085,759.0126316999085,759.0126316999085,down,1.5272684001829475,7,0,0,99,0,-0.24,down,1.4456148000899702,,,,,,,,,,,,,,,,,,,,,,,,,,,,,,,,,,,,,,,,,,,,,,,,,,,,,,,,,,,,HJAFTX,train_y,red_square,top_left,2025-08-19_17h52.41.828,HideSeek_v1,2022.2.5,59.94564124149494,
,2,6,2,1,0,-5,11,,train_dim1_1,18,30,,,,2,0,2,0,,,,,,,,,0,0,0,0,0,17,17,17,4,0,4,0,,,,,,,,,,,,,,,,,,,,,,,,,,,,,,,,,,,,,,,,,,,,,,,,,,,,,,,,,,,,,,,,30,,,,,,,,760.5462209000252,760.5462209000252,760.5462209000252,760.5462209000252,760.5462209000252,return,0.5934512000530958,7,1,0,0,0,-0.24,return,0.5056457999162376,-46,4,0,-0.24,,,,,,,,,,,,,,,,,,,,,,,,,,,,,,,,,,,,,,,,,,,,,,,,,,,,,,,,HJAFTX,train_y,red_square,top_left,2025-08-19_17h52.41.828,HideSeek_v1,2022.2.5,59.94564124149494,
,0,9,0,5,0,-4,12,,train_dim1_1,19,30,,,,2,0,2,0,,,,,,,,,0,0,0,0,0,18,18,18,0,0,0,0,,,,,,,,,,,,,,,,,,,,,,,,,stimuli/alien_stimuli/12.png,,,,,,,,,,,,,,,,,,,,,,,,,,,,,stimuli/alien_stimuli/11.png,11,2,20,,,,,,,30,,,,,,,,764.9996591999661,764.9996591999661,764.9996591999661,764.9996591999661,764.9996591999661,down,0.9711123001761734,7,1,0,99,-0.16,0.24,down,0.8742184999864548,,,,,763.431780599989,764.9996591999661,0,-0.32,0.4,0.0,-0.12,0,0.0,0,-0.32,762.6982513000257,762.6982513000257,762.6982513000257,762.6982513000257,762.6982513000257,762.6982513000257,762.6982513000257,762.6982513000257,762.6975949198472,0.8363562999293208,return,0.7127414999995381,,,,,,,,,,,,,,,,,,,,,,,,,,,,,,,,,HJAFTX,train_y,red_square,top_left,2025-08-19_17h52.41.828,HideSeek_v1,2022.2.5,59.94564124149494,
,0,9,0,5,0,-4,12,,train_dim1_1,19,30,,,,2,0,2,0,,,,,,,,,0,0,0,0,0,18,18,18,1,0,1,0,,,,,,,,,,,,,,,,,,,,,,,,,,,,,,,,,,,,,,,,,,,,,,,,,,,,,,,,,,,,,,,,30,,,,,,,,765.9690586999059,765.9690586999059,765.9690586999059,765.9690586999059,765.9690586999059,down,0.49257549992762506,7,1,0,99,-0.16,0.15999999999999998,down,0.4128123999107629,,,,,,,,,,,,,,,,,,,,,,,,,,,,,,,,,,,,,,,,,,,,,,,,,,,,,,,,,,,,HJAFTX,train_y,red_square,top_left,2025-08-19_17h52.41.828,HideSeek_v1,2022.2.5,59.94564124149494,
,0,9,0,5,0,-4,12,,train_dim1_1,19,30,,,,2,0,2,0,,,,,,,,,0,0,0,0,0,18,18,18,2,0,2,0,,,,,,,,,,,,,,,,,,,,,,,,,,,,,,,,,,,,,,,,,,,,,,,,,,,,,,,,,,,,,,,,30,,,,,,,,766.4689511999022,766.4689511999022,766.4689511999022,766.4689511999022,766.4689511999022,down,0.6769600999541581,7,1,0,99,-0.16,0.07999999999999997,down,0.5924587000627071,,,,,,,,,,,,,,,,,,,,,,,,,,,,,,,,,,,,,,,,,,,,,,,,,,,,,,,,,,,,HJAFTX,train_y,red_square,top_left,2025-08-19_17h52.41.828,HideSeek_v1,2022.2.5,59.94564124149494,
,0,9,0,5,0,-4,12,,train_dim1_1,19,30,,,,2,0,2,0,,,,,,,,,0,0,0,0,0,18,18,18,3,0,3,0,,,,,,,,,,,,,,,,,,,,,,,,,,,,,,,,,,,,,,,,,,,,,,,,,,,,,,,,,,,,,,,,30,,,,,,,,767.1524471999146,767.1524471999146,767.1524471999146,767.1524471999146,767.1524471999146,down,0.628383900038898,7,1,0,99,-0.16,-2.7755575615628914e-17,down,0.5431633000262082,,,,,,,,,,,,,,,,,,,,,,,,,,,,,,,,,,,,,,,,,,,,,,,,,,,,,,,,,,,,HJAFTX,train_y,red_square,top_left,2025-08-19_17h52.41.828,HideSeek_v1,2022.2.5,59.94564124149494,
,0,9,0,5,0,-4,12,,train_dim1_1,19,30,,,,2,0,2,0,,,,,,,,,0,0,0,0,0,18,18,18,4,0,4,0,,,,,,,,,,,,,,,,,,,,,,,,,,,,,,,,,,,,,,,,,,,,,,,,,,,,,,,,,,,,,,,,30,,,,,,,,767.7930274000391,767.7930274000391,767.7930274000391,767.7930274000391,767.7930274000391,down,1.4759257999248803,7,1,0,99,-0.16,-0.08000000000000003,down,1.393080199835822,,,,,,,,,,,,,,,,,,,,,,,,,,,,,,,,,,,,,,,,,,,,,,,,,,,,,,,,,,,,HJAFTX,train_y,red_square,top_left,2025-08-19_17h52.41.828,HideSeek_v1,2022.2.5,59.94564124149494,
,0,9,0,5,0,-4,12,,train_dim1_1,19,30,,,,2,0,2,0,,,,,,,,,0,0,0,0,0,18,18,18,5,0,5,0,,,,,,,,,,,,,,,,,,,,,,,,,,,,,,,,,,,,,,,,,,,,,,,,,,,,,,,,,,,,,,,,30,,,,,,,,769.2773418999277,769.2773418999277,769.2773418999277,769.2773418999277,769.2773418999277,return,0.7101050999481231,7,1,0,0,-0.16,-0.08000000000000003,return,0.6184402999933809,-51,4,-0.16,-0.08000000000000003,,,,,,,,,,,,,,,,,,,,,,,,,,,,,,,,,,,,,,,,,,,,,,,,,,,,,,,,HJAFTX,train_y,red_square,top_left,2025-08-19_17h52.41.828,HideSeek_v1,2022.2.5,59.94564124149494,
,2,5,2,5,0,0,16,,train_dim1_1,20,30,,,,2,0,2,0,,,,,,,,,0,0,0,0,0,19,19,19,0,0,0,0,,,,,,,,,,,,,,,,,,,,,,,,,stimuli/alien_stimuli/16.png,,,,,,,,,,,,,,,,,,,,,,,,,,,,,stimuli/alien_stimuli/12.png,12,0,21,,,,,,,30,,,,,,,,774.1703494000249,774.1703494000249,774.1703494000249,774.1703494000249,774.1703494000249,down,1.2903058999218047,7,1,0,99,0,-0.08,down,1.1943016999866813,,,,,772.6064448000398,774.1703494000249,-0.16,0,0.32,0.0,0.16,-0.16,-0.16,-0.16,0,771.5373398000374,771.5373398000374,771.5373398000374,771.5373398000374,771.5373398000374,771.5373398000374,771.5373398000374,771.5373398000374,771.5382135199848,1.1700816000811756,return,1.0405643999110907,,,,,,,,,,,,,,,,,,,,,,,,,,,,,,,,,HJAFTX,train_y,red_square,top_left,2025-08-19_17h52.41.828,HideSeek_v1,2022.2.5,59.94564124149494,
,2,5,2,5,0,0,16,,train_dim1_1,20,30,,,,2,0,2,0,,,,,,,,,0,0,0,0,0,19,19,19,1,0,1,0,,,,,,,,,,,,,,,,,,,,,,,,,,,,,,,,,,,,,,,,,,,,,,,,,,,,,,,,,,,,,,,,30,,,,,,,,775.4594950999599,775.4594950999599,775.4594950999599,775.4594950999599,775.4594950999599,up,1.0431278999894857,7,1,0,99,0,0.0,up,0.9650489001069218,,,,,,,,,,,,,,,,,,,,,,,,,,,,,,,,,,,,,,,,,,,,,,,,,,,,,,,,,,,,HJAFTX,train_y,red_square,top_left,2025-08-19_17h52.41.828,HideSeek_v1,2022.2.5,59.94564124149494,
,2,5,2,5,0,0,16,,train_dim1_1,20,30,,,,2,0,2,0,,,,,,,,,0,0,0,0,0,19,19,19,2,0,2,0,,,,,,,,,,,,,,,,,,,,,,,,,,,,,,,,,,,,,,,,,,,,,,,,,,,,,,,,,,,,,,,,30,,,,,,,,776.5098190999124,776.5098190999124,776.5098190999124,776.5098190999124,776.5098190999124,return,0.45998829999007285,8,0,0,1,0,0.0,return,0.3793043999467045,-51,4,0,0.0,,,,,,,,,,,,,,,,,,,,,,,,,,,,,,,,,,,,,,,,,,,,,,,,,,,,,,,,HJAFTX,train_y,red_square,top_left,2025-08-19_17h52.41.828,HideSeek_v1,2022.2.5,59.94564124149494,
,2,9,2,8,0,-1,15,,train_dim1_1,21,30,,,,2,0,2,0,,,,,,,,,0,0,0,0,0,20,20,20,0,0,0,0,,,,,,,,,,,,,,,,,,,,,,,,,stimuli/alien_stimuli/15.png,,,,,,,,,,,,,,,,,,,,,,,,,,,,,stimuli/alien_stimuli/16.png,16,2,22,,,,,,,30,,,,,,,,781.2037625999656,781.2037625999656,781.2037625999656,781.2037625999656,781.2037625999656,down,1.0546087000984699,8,0,0,99,0,0.24,down,0.9657056999858469,,,,,779.6452112998813,781.2037625999656,0,0,0.0,0.0,0.0,0,0.0,0,0,778.5232291999273,778.5232291999273,778.5232291999273,778.5232291999273,778.5232291999273,778.5232291999273,778.5232291999273,778.5232291999273,778.5109959598165,1.2196210001129657,return,1.1028342000208795,,,,,,,,,,,,,,,,,,,,,,,,,,,,,,,,,HJAFTX,train_y,red_square,top_left,2025-08-19_17h52.41.828,HideSeek_v1,2022.2.5,59.94564124149494,
,2,9,2,8,0,-1,15,,train_dim1_1,21,30,,,,2,0,2,0,,,,,,,,,0,0,0,0,0,20,20,20,1,0,1,0,,,,,,,,,,,,,,,,,,,,,,,,,,,,,,,,,,,,,,,,,,,,,,,,,,,,,,,,,,,,,,,,30,,,,,,,,782.2662700000219,782.2662700000219,782.2662700000219,782.2662700000219,782.2662700000219,return,0.5261798000428826,9,0,0,1,0,0.24,return,0.4439156998414546,-52,4,0,0.24,,,,,,,,,,,,,,,,,,,,,,,,,,,,,,,,,,,,,,,,,,,,,,,,,,,,,,,,HJAFTX,train_y,red_square,top_left,2025-08-19_17h52.41.828,HideSeek_v1,2022.2.5,59.94564124149494,
,0,7,0,4,0,-3,13,,train_dim1_1,22,30,,,,2,0,2,0,,,,,,,,,0,0,0,0,0,21,21,21,0,0,0,0,,,,,,,,,,,,,,,,,,,,,,,,,stimuli/alien_stimuli/13.png,,,,,,,,,,,,,,,,,,,,,,,,,,,,,stimuli/alien_stimuli/15.png,15,2,23,,,,,,,30,,,,,,,,786.760114699835,786.760114699835,786.760114699835,786.760114699835,786.760114699835,down,1.0349115999415517,9,0,0,99,-0.16,0.08,down,0.9562281998805702,,,,,785.1999182999134,786.760114699835,0,0.24,0.08,0.0,0.28,0,0.0,0,0.24,784.3471862999722,784.3471862999722,784.3471862999722,784.3471862999722,784.3471862999722,784.3471862999722,784.3471862999722,784.3471862999722,784.3323672599624,0.9533311000559479,return,0.8369259000755847,,,,,,,,,,,,,,,,,,,,,,,,,,,,,,,,,HJAFTX,train_y,red_square,top_left,2025-08-19_17h52.41.828,HideSeek_v1,2022.2.5,59.94564124149494,
,0,7,0,4,0,-3,13,,train_dim1_1,22,30,,,,2,0,2,0,,,,,,,,,0,0,0,0,0,21,21,21,1,0,1,0,,,,,,,,,,,,,,,,,,,,,,,,,,,,,,,,,,,,,,,,,,,,,,,,,,,,,,,,,,,,,,,,30,,,,,,,,787.8043360998854,787.8043360998854,787.8043360998854,787.8043360998854,787.8043360998854,down,1.092780000064522,9,0,0,99,-0.16,0.0,down,1.0113841001875699,,,,,,,,,,,,,,,,,,,,,,,,,,,,,,,,,,,,,,,,,,,,,,,,,,,,,,,,,,,,HJAFTX,train_y,red_square,top_left,2025-08-19_17h52.41.828,HideSeek_v1,2022.2.5,59.94564124149494,
,0,7,0,4,0,-3,13,,train_dim1_1,22,30,,,,2,0,2,0,,,,,,,,,0,0,0,0,0,21,21,21,2,0,2,0,,,,,,,,,,,,,,,,,,,,,,,,,,,,,,,,,,,,,,,,,,,,,,,,,,,,,,,,,,,,,,,,30,,,,,,,,788.9033174000215,788.9033174000215,788.9033174000215,788.9033174000215,788.9033174000215,down,0.8269355001393706,9,0,0,99,-0.16,-0.08,down,0.741444000042975,,,,,,,,,,,,,,,,,,,,,,,,,,,,,,,,,,,,,,,,,,,,,,,,,,,,,,,,,,,,HJAFTX,train_y,red_square,top_left,2025-08-19_17h52.41.828,HideSeek_v1,2022.2.5,59.94564124149494,
,0,7,0,4,0,-3,13,,train_dim1_1,22,30,,,,2,0,2,0,,,,,,,,,0,0,0,0,0,21,21,21,3,0,3,0,,,,,,,,,,,,,,,,,,,,,,,,,,,,,,,,,,,,,,,,,,,,,,,,,,,,,,,,,,,,,,,,30,,,,,,,,789.7376506000292,789.7376506000292,789.7376506000292,789.7376506000292,789.7376506000292,return,0.4602520000189543,10,0,0,1,-0.16,-0.08,return,0.38366940012201667,-55,4,-0.16,-0.08,,,,,,,,,,,,,,,,,,,,,,,,,,,,,,,,,,,,,,,,,,,,,,,,,,,,,,,,HJAFTX,train_y,red_square,top_left,2025-08-19_17h52.41.828,HideSeek_v1,2022.2.5,59.94564124149494,
,0,8,0,3,0,-5,11,,train_dim1_1,23,30,,,,2,0,2,0,,,,,,,,,0,0,0,0,0,22,22,22,0,0,0,0,,,,,,,,,,,,,,,,,,,,,,,,,stimuli/alien_stimuli/11.png,,,,,,,,,,,,,,,,,,,,,,,,,,,,,stimuli/alien_stimuli/13.png,13,0,24,,,,,,,30,,,,,,,,793.9624111000448,793.9624111000448,793.9624111000448,793.9624111000448,793.9624111000448,down,1.0386914999689907,10,0,0,99,-0.16,0.15999999999999998,down,0.9541418999433517,,,,,792.4057240998372,793.9624111000448,-0.16,-0.08,0.24,0.0,0.04,-0.16,-0.16,-0.16,-0.08,791.7529290998355,791.7529290998355,791.7529290998355,791.7529290998355,791.7529290998355,791.7529290998355,791.7529290998355,791.7529290998355,791.7384798598475,0.7525869999080896,return,0.6235046000219882,,,,,,,,,,,,,,,,,,,,,,,,,,,,,,,,,HJAFTX,train_y,red_square,top_left,2025-08-19_17h52.41.828,HideSeek_v1,2022.2.5,59.94564124149494,
,0,8,0,3,0,-5,11,,train_dim1_1,23,30,,,,2,0,2,0,,,,,,,,,0,0,0,0,0,22,22,22,1,0,1,0,,,,,,,,,,,,,,,,,,,,,,,,,,,,,,,,,,,,,,,,,,,,,,,,,,,,,,,,,,,,,,,,30,,,,,,,,795.0088434999343,795.0088434999343,795.0088434999343,795.0088434999343,795.0088434999343,down,0.5595347001217306,10,0,0,99,-0.16,0.07999999999999997,down,0.4729177998378873,,,,,,,,,,,,,,,,,,,,,,,,,,,,,,,,,,,,,,,,,,,,,,,,,,,,,,,,,,,,HJAFTX,train_y,red_square,top_left,2025-08-19_17h52.41.828,HideSeek_v1,2022.2.5,59.94564124149494,
,0,8,0,3,0,-5,11,,train_dim1_1,23,30,,,,2,0,2,0,,,,,,,,,0,0,0,0,0,22,22,22,2,0,2,0,,,,,,,,,,,,,,,,,,,,,,,,,,,,,,,,,,,,,,,,,,,,,,,,,,,,,,,,,,,,,,,,30,,,,,,,,795.5760400998406,795.5760400998406,795.5760400998406,795.5760400998406,795.5760400998406,down,1.2269015000201762,10,0,0,99,-0.16,-2.7755575615628914e-17,down,1.1428106999956071,,,,,,,,,,,,,,,,,,,,,,,,,,,,,,,,,,,,,,,,,,,,,,,,,,,,,,,,,,,,HJAFTX,train_y,red_square,top_left,2025-08-19_17h52.41.828,HideSeek_v1,2022.2.5,59.94564124149494,
,0,8,0,3,0,-5,11,,train_dim1_1,23,30,,,,2,0,2,0,,,,,,,,,0,0,0,0,0,22,22,22,3,0,3,0,,,,,,,,,,,,,,,,,,,,,,,,,,,,,,,,,,,,,,,,,,,,,,,,,,,,,,,,,,,,,,,,30,,,,,,,,796.8098637999501,796.8098637999501,796.8098637999501,796.8098637999501,796.8098637999501,down,0.5936716001015157,10,0,0,99,-0.16,-0.08000000000000003,down,0.5120138998609036,,,,,,,,,,,,,,,,,,,,,,,,,,,,,,,,,,,,,,,,,,,,,,,,,,,,,,,,,,,,HJAFTX,train_y,red_square,top_left,2025-08-19_17h52.41.828,HideSeek_v1,2022.2.5,59.94564124149494,
,0,8,0,3,0,-5,11,,train_dim1_1,23,30,,,,2,0,2,0,,,,,,,,,0,0,0,0,0,22,22,22,4,0,4,0,,,,,,,,,,,,,,,,,,,,,,,,,,,,,,,,,,,,,,,,,,,,,,,,,,,,,,,,,,,,,,,,30,,,,,,,,797.4105986000504,797.4105986000504,797.4105986000504,797.4105986000504,797.4105986000504,return,0.3766678001265973,10,1,0,0,-0.16,-0.08000000000000003,return,0.2910548001527786,-59,4,-0.16,-0.08000000000000003,,,,,,,,,,,,,,,,,,,,,,,,,,,,,,,,,,,,,,,,,,,,,,,,,,,,,,,,HJAFTX,train_y,red_square,top_left,2025-08-19_17h52.41.828,HideSeek_v1,2022.2.5,59.94564124149494,
,3,7,3,7,0,0,16,,train_dim1_1,24,30,,,,2,0,2,0,,,,,,,,,0,0,0,0,0,23,23,23,0,0,0,0,,,,,,,,,,,,,,,,,,,,,,,,,stimuli/alien_stimuli/16.png,,,,,,,,,,,,,,,,,,,,,,,,,,,,,stimuli/alien_stimuli/11.png,11,0,25,,,,,,,30,,,,,,,,801.5703717998695,801.5703717998695,801.5703717998695,801.5703717998695,801.5703717998695,return,1.1872562000062317,11,0,0,1,0.08,0.16,return,1.1113915999885648,-59,4,0.08,0.16,800.0122467998881,801.5703717998695,-0.16,-0.16,0.4,0.0,0.039999999999999994,-0.16,-0.16,-0.16,-0.16,799.3445365000516,799.3445365000516,799.3445365000516,799.3445365000516,799.3445365000516,799.3445365000516,799.3445365000516,799.3445365000516,799.3447334199677,0.7694366001524031,return,0.6387761000078171,,,,,,,,,,,,,,,,,,,,,,,,,,,,,,,,,HJAFTX,train_y,red_square,top_left,2025-08-19_17h52.41.828,HideSeek_v1,2022.2.5,59.94564124149494,
,3,8,3,4,0,-4,12,,train_dim1_1,25,30,,,,2,0,2,0,,,,,,,,,0,0,0,0,0,24,24,24,0,0,0,0,,,,,,,,,,,,,,,,,,,,,,,,,stimuli/alien_stimuli/12.png,,,,,,,,,,,,,,,,,,,,,,,,,,,,,stimuli/alien_stimuli/16.png,16,3,26,,,,,,,30,,,,,,,,806.5422361998353,806.5422361998353,806.5422361998353,806.5422361998353,806.5422361998353,down,1.186784900026396,11,0,0,99,0.08,0.15999999999999998,down,1.0943630000110716,,,,,804.9828339999076,806.5422361998353,0.08,0.16,0.0,0.0,0.16,0.08,0.08,0.08,0.16,804.316961399978,804.316961399978,804.316961399978,804.316961399978,804.316961399978,804.316961399978,804.316961399978,804.316961399978,804.3154103198553,0.7697073000017554,return,0.6477242999244481,,,,,,,,,,,,,,,,,,,,,,,,,,,,,,,,,HJAFTX,train_y,red_square,top_left,2025-08-19_17h52.41.828,HideSeek_v1,2022.2.5,59.94564124149494,
,3,8,3,4,0,-4,12,,train_dim1_1,25,30,,,,2,0,2,0,,,,,,,,,0,0,0,0,0,24,24,24,1,0,1,0,,,,,,,,,,,,,,,,,,,,,,,,,,,,,,,,,,,,,,,,,,,,,,,,,,,,,,,,,,,,,,,,30,,,,,,,,807.7372171999887,807.7372171999887,807.7372171999887,807.7372171999887,807.7372171999887,down,0.42604819987900555,11,0,0,99,0.08,0.07999999999999997,down,0.347780599957332,,,,,,,,,,,,,,,,,,,,,,,,,,,,,,,,,,,,,,,,,,,,,,,,,,,,,,,,,,,,HJAFTX,train_y,red_square,top_left,2025-08-19_17h52.41.828,HideSeek_v1,2022.2.5,59.94564124149494,
,3,8,3,4,0,-4,12,,train_dim1_1,25,30,,,,2,0,2,0,,,,,,,,,0,0,0,0,0,24,24,24,2,0,2,0,,,,,,,,,,,,,,,,,,,,,,,,,,,,,,,,,,,,,,,,,,,,,,,,,,,,,,,,,,,,,,,,30,,,,,,,,808.1695520000067,808.1695520000067,808.1695520000067,808.1695520000067,808.1695520000067,down,3.2624868999700993,11,0,0,99,0.08,-2.7755575615628914e-17,down,3.172945400001481,,,,,,,,,,,,,,,,,,,,,,,,,,,,,,,,,,,,,,,,,,,,,,,,,,,,,,,,,,,,HJAFTX,train_y,red_square,top_left,2025-08-19_17h52.41.828,HideSeek_v1,2022.2.5,59.94564124149494,
,3,8,3,4,0,-4,12,,train_dim1_1,25,30,,,,2,0,2,0,,,,,,,,,0,0,0,0,0,24,24,24,3,0,3,0,,,,,,,,,,,,,,,,,,,,,,,,,,,,,,,,,,,,,,,,,,,,,,,,,,,,,,,,,,,,,,,,30,,,,,,,,811.4394946999382,811.4394946999382,811.4394946999382,811.4394946999382,811.4394946999382,down,0.793721100082621,11,0,0,99,0.08,-0.08000000000000003,down,0.7014676998369396,,,,,,,,,,,,,,,,,,,,,,,,,,,,,,,,,,,,,,,,,,,,,,,,,,,,,,,,,,,,HJAFTX,train_y,red_square,top_left,2025-08-19_17h52.41.828,HideSeek_v1,2022.2.5,59.94564124149494,
,3,8,3,4,0,-4,12,,train_dim1_1,25,30,,,,2,0,2,0,,,,,,,,,0,0,0,0,0,24,24,24,4,0,4,0,,,,,,,,,,,,,,,,,,,,,,,,,,,,,,,,,,,,,,,,,,,,,,,,,,,,,,,,,,,,,,,,30,,,,,,,,812.2398552999366,812.2398552999366,812.2398552999366,812.2398552999366,812.2398552999366,down,0.6435826001688838,11,0,0,99,0.08,-0.16000000000000003,down,0.5560571998357773,,,,,,,,,,,,,,,,,,,,,,,,,,,,,,,,,,,,,,,,,,,,,,,,,,,,,,,,,,,,HJAFTX,train_y,red_square,top_left,2025-08-19_17h52.41.828,HideSeek_v1,2022.2.5,59.94564124149494,
,3,8,3,4,0,-4,12,,train_dim1_1,25,30,,,,2,0,2,0,,,,,,,,,0,0,0,0,0,24,24,24,5,0,5,0,,,,,,,,,,,,,,,,,,,,,,,,,,,,,,,,,,,,,,,,,,,,,,,,,,,,,,,,,,,,,,,,30,,,,,,,,812.8898185000289,812.8898185000289,812.8898185000289,812.8898185000289,812.8898185000289,return,0.5768844000995159,11,1,0,0,0.08,-0.16000000000000003,return,0.48467779997736216,-64,4,0.08,-0.16000000000000003,,,,,,,,,,,,,,,,,,,,,,,,,,,,,,,,,,,,,,,,,,,,,,,,,,,,,,,,HJAFTX,train_y,red_square,top_left,2025-08-19_17h52.41.828,HideSeek_v1,2022.2.5,59.94564124149494,
,4,9,4,6,0,-3,13,,train_dim1_1,26,30,,,,2,0,2,0,,,,,,,,,0,0,0,0,0,25,25,25,0,0,0,0,,,,,,,,,,,,,,,,,,,,,,,,,stimuli/alien_stimuli/13.png,,,,,,,,,,,,,,,,,,,,,,,,,,,,,stimuli/alien_stimuli/12.png,12,3,27,,,,,,,30,,,,,,,,817.231263600057,817.231263600057,817.231263600057,817.231263600057,817.231263600057,down,0.9554563001729548,11,1,0,99,0.16,0.24,down,0.8757623999845237,,,,,815.674976099981,817.231263600057,0.08,-0.08,0.32,0.0,0.07999999999999999,0.08,0.08,0.08,-0.08,815.027346199844,815.027346199844,815.027346199844,815.027346199844,815.027346199844,815.027346199844,815.027346199844,815.027346199844,815.0243652198928,0.7529008998535573,return,0.6260287999175489,,,,,,,,,,,,,,,,,,,,,,,,,,,,,,,,,HJAFTX,train_y,red_square,top_left,2025-08-19_17h52.41.828,HideSeek_v1,2022.2.5,59.94564124149494,
,4,9,4,6,0,-3,13,,train_dim1_1,26,30,,,,2,0,2,0,,,,,,,,,0,0,0,0,0,25,25,25,1,0,1,0,,,,,,,,,,,,,,,,,,,,,,,,,,,,,,,,,,,,,,,,,,,,,,,,,,,,,,,,,,,,,,,,30,,,,,,,,818.194195299875,818.194195299875,818.194195299875,818.194195299875,818.194195299875,down,0.4601185000501573,11,1,0,99,0.16,0.15999999999999998,down,0.37513770000077784,,,,,,,,,,,,,,,,,,,,,,,,,,,,,,,,,,,,,,,,,,,,,,,,,,,,,,,,,,,,HJAFTX,train_y,red_square,top_left,2025-08-19_17h52.41.828,HideSeek_v1,2022.2.5,59.94564124149494,
,4,9,4,6,0,-3,13,,train_dim1_1,26,30,,,,2,0,2,0,,,,,,,,,0,0,0,0,0,25,25,25,2,0,2,0,,,,,,,,,,,,,,,,,,,,,,,,,,,,,,,,,,,,,,,,,,,,,,,,,,,,,,,,,,,,,,,,30,,,,,,,,818.6604339999612,818.6604339999612,818.6604339999612,818.6604339999612,818.6604339999612,down,1.6942032999359071,11,1,0,99,0.16,0.07999999999999997,down,1.6080567000899464,,,,,,,,,,,,,,,,,,,,,,,,,,,,,,,,,,,,,,,,,,,,,,,,,,,,,,,,,,,,HJAFTX,train_y,red_square,top_left,2025-08-19_17h52.41.828,HideSeek_v1,2022.2.5,59.94564124149494,
,4,9,4,6,0,-3,13,,train_dim1_1,26,30,,,,2,0,2,0,,,,,,,,,0,0,0,0,0,25,25,25,3,0,3,0,,,,,,,,,,,,,,,,,,,,,,,,,,,,,,,,,,,,,,,,,,,,,,,,,,,,,,,,,,,,,,,,30,,,,,,,,820.3627937999554,820.3627937999554,820.3627937999554,820.3627937999554,820.3627937999554,return,0.4102600999176502,12,0,0,1,0.16,0.07999999999999997,return,0.3242877998854965,-67,4,0.16,0.07999999999999997,,,,,,,,,,,,,,,,,,,,,,,,,,,,,,,,,,,,,,,,,,,,,,,,,,,,,,,,HJAFTX,train_y,red_square,top_left,2025-08-19_17h52.41.828,HideSeek_v1,2022.2.5,59.94564124149494,
,3,9,3,9,0,0,16,,train_dim1_1,27,30,,,,2,0,2,0,,,,,,,,,0,0,0,0,0,26,26,26,0,0,0,0,,,,,,,,,,,,,,,,,,,,,,,,,stimuli/alien_stimuli/16.png,,,,,,,,,,,,,,,,,,,,,,,,,,,,,stimuli/alien_stimuli/13.png,13,4,28,,,,,,,30,,,,,,,,825.2406619000249,825.2406619000249,825.2406619000249,825.2406619000249,825.2406619000249,return,1.06958769983612,13,0,0,1,0.08,0.32,return,0.9877484999597073,-67,4,0.08,0.32,823.6815350998659,825.2406619000249,0.16,0.08,0.24,0.0,0.2,0.16,0.16,0.16,0.08,822.3262265999801,822.3262265999801,822.3262265999801,822.3262265999801,822.3262265999801,822.3262265999801,822.3262265999801,822.3262265999801,822.3142387598753,1.453309000004083,return,1.3346176999621093,,,,,,,,,,,,,,,,,,,,,,,,,,,,,,,,,HJAFTX,train_y,red_square,top_left,2025-08-19_17h52.41.828,HideSeek_v1,2022.2.5,59.94564124149494,
,4,6,4,1,0,-5,11,,train_dim1_1,28,30,,,,2,0,2,0,,,,,,,,,0,0,0,0,0,27,27,27,0,0,0,0,,,,,,,,,,,,,,,,,,,,,,,,,stimuli/alien_stimuli/11.png,,,,,,,,,,,,,,,,,,,,,,,,,,,,,stimuli/alien_stimuli/16.png,16,3,29,,,,,,,30,,,,,,,,829.8090889998712,829.8090889998712,829.8090889998712,829.8090889998712,829.8090889998712,down,0.7887593999039382,13,0,0,99,0.16,0.0,down,0.6998008000664413,,,,,828.2399496999569,827.868023699848,0.08,0.32,0.0,0.0,0.32,0.08,0.08,0.08,0.32,827.868023699848,827.868023699848,827.868023699848,827.868023699848,827.868023699848,827.868023699848,827.868023699848,827.868023699848,827.8684541197958,0.47532379999756813,return,0.3416188999544829,,,,,,,,,,,,,,,,,,,,,,,,,,,,,,,,,HJAFTX,train_y,red_square,top_left,2025-08-19_17h52.41.828,HideSeek_v1,2022.2.5,59.94564124149494,
,4,6,4,1,0,-5,11,,train_dim1_1,28,30,,,,2,0,2,0,,,,,,,,,0,0,0,0,0,27,27,27,1,0,1,0,,,,,,,,,,,,,,,,,,,,,,,,,,,,,,,,,,,,,,,,,,,,,,,,,,,,,,,,,,,,,,,,30,,,,,,,,830.606110899942,830.606110899942,830.606110899942,830.606110899942,830.606110899942,down,0.5261953000444919,13,0,0,99,0.16,-0.08,down,0.44156729988753796,,,,,,,,,,,,,,,,,,,,,,,,,,,,,,,,,,,,,,,,,,,,,,,,,,,,,,,,,,,,HJAFTX,train_y,red_square,top_left,2025-08-19_17h52.41.828,HideSeek_v1,2022.2.5,59.94564124149494,
,4,6,4,1,0,-5,11,,train_dim1_1,28,30,,,,2,0,2,0,,,,,,,,,0,0,0,0,0,27,27,27,2,0,2,0,,,,,,,,,,,,,,,,,,,,,,,,,,,,,,,,,,,,,,,,,,,,,,,,,,,,,,,,,,,,,,,,30,,,,,,,,831.138668099884,831.138668099884,831.138668099884,831.138668099884,831.138668099884,down,0.6935682999901474,13,0,0,99,0.16,-0.16,down,0.616065900074318,,,,,,,,,,,,,,,,,,,,,,,,,,,,,,,,,,,,,,,,,,,,,,,,,,,,,,,,,,,,HJAFTX,train_y,red_square,top_left,2025-08-19_17h52.41.828,HideSeek_v1,2022.2.5,59.94564124149494,
,4,6,4,1,0,-5,11,,train_dim1_1,28,30,,,,2,0,2,0,,,,,,,,,0,0,0,0,0,27,27,27,3,0,3,0,,,,,,,,,,,,,,,,,,,,,,,,,,,,,,,,,,,,,,,,,,,,,,,,,,,,,,,,,,,,,,,,30,,,,,,,,831.8400713000447,831.8400713000447,831.8400713000447,831.8400713000447,831.8400713000447,down,0.47663270006887615,13,0,0,99,0.16,-0.24,down,0.3921590999234468,,,,,,,,,,,,,,,,,,,,,,,,,,,,,,,,,,,,,,,,,,,,,,,,,,,,,,,,,,,,HJAFTX,train_y,red_square,top_left,2025-08-19_17h52.41.828,HideSeek_v1,2022.2.5,59.94564124149494,
,4,6,4,1,0,-5,11,,train_dim1_1,28,30,,,,2,0,2,0,,,,,,,,,0,0,0,0,0,27,27,27,4,0,4,0,,,,,,,,,,,,,,,,,,,,,,,,,,,,,,,,,,,,,,,,,,,,,,,,,,,,,,,,,,,,,,,,30,,,,,,,,832.3232284998521,832.3232284998521,832.3232284998521,832.3232284998521,832.3232284998521,down,0.5265281999018043,13,0,0,99,0.16,-0.32,down,0.4345254998188466,,,,,,,,,,,,,,,,,,,,,,,,,,,,,,,,,,,,,,,,,,,,,,,,,,,,,,,,,,,,HJAFTX,train_y,red_square,top_left,2025-08-19_17h52.41.828,HideSeek_v1,2022.2.5,59.94564124149494,
,4,6,4,1,0,-5,11,,train_dim1_1,28,30,,,,2,0,2,0,,,,,,,,,0,0,0,0,0,27,27,27,5,0,5,0,,,,,,,,,,,,,,,,,,,,,,,,,,,,,,,,,,,,,,,,,,,,,,,,,,,,,,,,,,,,,,,,30,,,,,,,,832.8584481000435,832.8584481000435,832.8584481000435,832.8584481000435,832.8584481000435,return,0.9773796999361366,14,0,0,1,0.16,-0.32,return,0.8841929000336677,-72,4,0.16,-0.32,,,,,,,,,,,,,,,,,,,,,,,,,,,,,,,,,,,,,,,,,,,,,,,,,,,,,,,,HJAFTX,train_y,red_square,top_left,2025-08-19_17h52.41.828,HideSeek_v1,2022.2.5,59.94564124149494,
,2,7,2,3,0,-4,12,,train_dim1_1,29,30,,,,2,0,2,0,,,,,,,,,0,0,0,0,0,28,28,28,0,0,0,0,,,,,,,,,,,,,,,,,,,,,,,,,stimuli/alien_stimuli/12.png,,,,,,,,,,,,,,,,,,,,,,,,,,,,,stimuli/alien_stimuli/11.png,11,4,30,,,,,,,30,,,,,,,,837.4659527998883,837.4659527998883,837.4659527998883,837.4659527998883,837.4659527998883,down,1.205464700004086,14,0,0,99,0,0.08,down,1.1127005000598729,,,,,835.9086951999925,837.4659527998883,0.16,-0.32,0.4,0.0,-0.12,0.16,0.16,0.16,-0.32,835.3914191999938,835.3914191999938,835.3914191999938,835.3914191999938,835.3914191999938,835.3914191999938,835.3914191999938,835.3914191999938,835.3913502198643,0.6205015000887215,return,0.4988659000955522,,,,,,,,,,,,,,,,,,,,,,,,,,,,,,,,,HJAFTX,train_y,red_square,top_left,2025-08-19_17h52.41.828,HideSeek_v1,2022.2.5,59.94564124149494,
,2,7,2,3,0,-4,12,,train_dim1_1,29,30,,,,2,0,2,0,,,,,,,,,0,0,0,0,0,28,28,28,1,0,1,0,,,,,,,,,,,,,,,,,,,,,,,,,,,,,,,,,,,,,,,,,,,,,,,,,,,,,,,,,,,,,,,,30,,,,,,,,838.6787854998838,838.6787854998838,838.6787854998838,838.6787854998838,838.6787854998838,down,0.4262540000490844,14,0,0,99,0,0.0,down,0.3450373001396656,,,,,,,,,,,,,,,,,,,,,,,,,,,,,,,,,,,,,,,,,,,,,,,,,,,,,,,,,,,,HJAFTX,train_y,red_square,top_left,2025-08-19_17h52.41.828,HideSeek_v1,2022.2.5,59.94564124149494,
,2,7,2,3,0,-4,12,,train_dim1_1,29,30,,,,2,0,2,0,,,,,,,,,0,0,0,0,0,28,28,28,2,0,2,0,,,,,,,,,,,,,,,,,,,,,,,,,,,,,,,,,,,,,,,,,,,,,,,,,,,,,,,,,,,,,,,,30,,,,,,,,839.1132127000019,839.1132127000019,839.1132127000019,839.1132127000019,839.1132127000019,down,0.44314730004407465,14,0,0,99,0,-0.08,down,0.3529600000474602,,,,,,,,,,,,,,,,,,,,,,,,,,,,,,,,,,,,,,,,,,,,,,,,,,,,,,,,,,,,HJAFTX,train_y,red_square,top_left,2025-08-19_17h52.41.828,HideSeek_v1,2022.2.5,59.94564124149494,
,2,7,2,3,0,-4,12,,train_dim1_1,29,30,,,,2,0,2,0,,,,,,,,,0,0,0,0,0,28,28,28,3,0,3,0,,,,,,,,,,,,,,,,,,,,,,,,,,,,,,,,,,,,,,,,,,,,,,,,,,,,,,,,,,,,,,,,30,,,,,,,,839.5626374999993,839.5626374999993,839.5626374999993,839.5626374999993,839.5626374999993,down,1.7942341999150813,14,0,0,99,0,-0.16,down,1.703365899855271,,,,,,,,,,,,,,,,,,,,,,,,,,,,,,,,,,,,,,,,,,,,,,,,,,,,,,,,,,,,HJAFTX,train_y,red_square,top_left,2025-08-19_17h52.41.828,HideSeek_v1,2022.2.5,59.94564124149494,
,2,7,2,3,0,-4,12,,train_dim1_1,29,30,,,,2,0,2,0,,,,,,,,,0,0,0,0,0,28,28,28,4,0,4,0,,,,,,,,,,,,,,,,,,,,,,,,,,,,,,,,,,,,,,,,,,,,,,,,,,,,,,,,,,,,,,,,30,,,,,,,,841.3641594999935,841.3641594999935,841.3641594999935,841.3641594999935,841.3641594999935,up,0.9271162000950426,14,0,0,99,0,-0.08,up,0.8474161000922322,,,,,,,,,,,,,,,,,,,,,,,,,,,,,,,,,,,,,,,,,,,,,,,,,,,,,,,,,,,,HJAFTX,train_y,red_square,top_left,2025-08-19_17h52.41.828,HideSeek_v1,2022.2.5,59.94564124149494,
,2,7,2,3,0,-4,12,,train_dim1_1,29,30,,,,2,0,2,0,,,,,,,,,0,0,0,0,0,28,28,28,5,0,5,0,,,,,,,,,,,,,,,,,,,,,,,,,,,,,,,,,,,,,,,,,,,,,,,,,,,,,,,,,,,,,,,,30,,,,,,,,842.305586699862,842.305586699862,842.305586699862,842.305586699862,842.305586699862,return,0.39331179996952415,14,1,0,0,0,-0.08,return,0.2961651999503374,-75,4,0,-0.08,,,,,,,,,,,,,,,,,,,,,,,,,,,,,,,,,,,,,,,,,,,,,,,,,,,,,,,,HJAFTX,train_y,red_square,top_left,2025-08-19_17h52.41.828,HideSeek_v1,2022.2.5,59.94564124149494,
,0,6,0,5,0,-1,15,,train_dim1_1,30,30,,,,2,0,2,0,,,,,,,,,0,0,0,0,0,29,29,29,0,0,0,0,,,,,,,,,,,,,,,,,,,,,,,,,stimuli/alien_stimuli/15.png,,,,,,,,,,,,,,,,,,,,,,,,,,,,,stimuli/alien_stimuli/12.png,12,2,31,,,,,,,30,,,,,,,,846.4743440998718,846.4743440998718,846.4743440998718,846.4743440998718,846.4743440998718,down,0.887802799930796,14,1,0,99,-0.16,0.0,down,0.7970463999081403,,,,,844.9159943999257,846.4743440998718,0,-0.16,0.32,0.0,0.0,0,0.0,0,-0.16,844.2514251000248,844.2514251000248,844.2514251000248,844.2514251000248,844.2514251000248,844.2514251000248,844.2514251000248,844.2514251000248,844.2488768199923,0.7694385999348015,return,0.6435106999706477,,,,,,,,,,,,,,,,,,,,,,,,,,,,,,,,,HJAFTX,train_y,red_square,top_left,2025-08-19_17h52.41.828,HideSeek_v1,2022.2.5,59.94564124149494,
,0,6,0,5,0,-1,15,,train_dim1_1,30,30,,,,2,0,2,0,,,,,,,,,0,0,0,0,0,29,29,29,1,0,1,0,,,,,,,,,,,,,,,,,,,,,,,,,,,,,,,,,,,,,,,,,,,,,,,,,,,,,,,,,,,,,,,,30,,,,,,,,847.3698211999144,847.3698211999144,847.3698211999144,847.3698211999144,847.3698211999144,return,0.39293089997954667,15,0,0,1,-0.16,0.0,return,0.3010159998666495,-76,4,-0.16,0.0,,,,,,,,,,,,,,,,,,,,,,,,,,,,,,,,,,,,,,,,,,,,,,,,,,,,,,,,HJAFTX,train_y,red_square,top_left,2025-08-19_17h52.41.828,HideSeek_v1,2022.2.5,59.94564124149494,
,,,,,,,,,,,30,,,,2,0,2,0,,,,,,,,,,,,,,,,,,,,,,,,,,,,,,,,,,,,,,,,,,,,,,,,,,,,,,,,,,,,,,,,,,,,,,,,,,stimuli/alien_stimuli/15.png,15,0,32,21,0.7,0.625,1,1,1,30,0,conditions/schedules/train_y_first/red_square_00/top_left/inputTrain_2.1.xlsx,99,1,2,1,0,,,,,,,,,,,1,,,,,,,,,849.9367885000538,851.5035502000246,-0.16,0,0.08,0.0,0.04,-0.16,-0.16,-0.16,0,849.3205196999479,849.3205196999479,849.3205196999479,849.3205196999479,849.3205196999479,849.3205196999479,849.3205196999479,849.3205196999479,849.3195863199885,0.7197736999951303,return,0.5941572999581695,0,0.9,0,1,15,,,,,,,,,,,,,,,,,,,,,,,,,,,,HJAFTX,train_y,red_square,top_left,2025-08-19_17h52.41.828,HideSeek_v1,2022.2.5,59.94564124149494,
,,,,,,,,,,,,,,,3,0,3,0,0,0,0,0,,,,,,,,,,,,,,,,,,,,,,,,,,,,,,,conditions/schedules/train_y_first/red_square_00/top_left/instructions/Slide17.png,conditions/schedules/train_y_first/red_square_00/top_left/instructions/Audio17.wav,851.5035502000246,851.5046655999031,17,"[5.627595799975097, 18.34992430009879, 16.459040000103414, 19.396639700047672, 4.772369900019839, 4.620304299984127, 5.368759599979967, 11.37271839985624, 5.817403899971396, 6.512786000035703, 9.611028500134125, 13.756269499892369, 16.886642099823803, 16.92065989994444, 43.58209089981392, 21.152262599905953, 51.073996799997985]","[0.014488199958577752, 0.03106490010395646, 16.45904770004563, 19.396645599976182, 0.014084500027820468, 0.04770460003055632, 0.030249099945649505, 0.04776520002633333, 0.03656419995240867, 0.013724500080570579, 0.046964399982243776, 13.756276999833062, 0.036233700113371015, 16.920667000114918, 0.00021229987032711506, 21.152268500067294, 51.07400389993563]",0,,,,,,,,,,,,,,,,,,,,,,,,,,,,,,,,,,,,,,,,,,,,,,,,,,,,,,,,,,,,,,,,,,,,,,,,,,,,,,,,,,,,,,,,,,,,,,,,,,,,,,,,,,,,,,,,,,,,,,,,,,,,HJAFTX,train_y,red_square,top_left,2025-08-19_17h52.41.828,HideSeek_v1,2022.2.5,59.94564124149494,
,,,,,,,,,,,,,,,3,0,3,0,1,0,1,0,,,,,,,,,,,,,,,,,,,,,,,,,,,,,,,conditions/schedules/train_y_first/red_square_00/top_left/instructions/Slide18.png,conditions/schedules/train_y_first/red_square_00/top_left/instructions/Audio18.wav,902.6457878998481,902.6474234999623,18,"[5.627595799975097, 18.34992430009879, 16.459040000103414, 19.396639700047672, 4.772369900019839, 4.620304299984127, 5.368759599979967, 11.37271839985624, 5.817403899971396, 6.512786000035703, 9.611028500134125, 13.756269499892369, 16.886642099823803, 16.92065989994444, 43.58209089981392, 21.152262599905953, 51.073996799997985, 6.221167900133878]","[0.014488199958577752, 0.03106490010395646, 16.45904770004563, 19.396645599976182, 0.014084500027820468, 0.04770460003055632, 0.030249099945649505, 0.04776520002633333, 0.03656419995240867, 0.013724500080570579, 0.046964399982243776, 13.756276999833062, 0.036233700113371015, 16.920667000114918, 0.00021229987032711506, 21.152268500067294, 0.00023500015959143639, 6.221173800062388]",0,,,,,,,,,,,,,,,,,,,,,,,,,,,,,,,,,,,,,,,,,,,,,,,,,,,,,,,,,,,,,,,,,,,,,,,,,,,,,,,,,,,,,,,,,,,,,,,,,,,,,,,,,,,,,,,,,,,,,,,,,,,,HJAFTX,train_y,red_square,top_left,2025-08-19_17h52.41.828,HideSeek_v1,2022.2.5,59.94564124149494,
,,,,,,,,,,,,,,,3,0,3,0,2,0,2,0,,,,,,,,,,,,,,,,,,,,,,,,,,,,,,,conditions/schedules/train_y_first/red_square_00/top_left/instructions/Slide19.png,conditions/schedules/train_y_first/red_square_00/top_left/instructions/Audio19.wav,908.9222522999626,908.9192987399175,19,"[5.627595799975097, 18.34992430009879, 16.459040000103414, 19.396639700047672, 4.772369900019839, 4.620304299984127, 5.368759599979967, 11.37271839985624, 5.817403899971396, 6.512786000035703, 9.611028500134125, 13.756269499892369, 16.886642099823803, 16.92065989994444, 43.58209089981392, 21.152262599905953, 51.073996799997985, 6.221167900133878, 10.003026900114492]","[0.014488199958577752, 0.03106490010395646, 16.45904770004563, 19.396645599976182, 0.014084500027820468, 0.04770460003055632, 0.030249099945649505, 0.04776520002633333, 0.03656419995240867, 0.013724500080570579, 0.046964399982243776, 13.756276999833062, 0.036233700113371015, 16.920667000114918, 0.00021229987032711506, 21.152268500067294, 0.00023500015959143639, 0.00020130001939833164, 10.003033600049093]",0,,,,,,,,,,,,,,,,,,,,,,,,,,,,,,,,,,,,,,,,,,,,,,,,,,,,,,,,,,,,,,,,,,,,,,,,,,,,,,,,,,,,,,,,,,,,,,,,,,,,,,,,,,,,,,,,,,,,,,,,,,,,HJAFTX,train_y,red_square,top_left,2025-08-19_17h52.41.828,HideSeek_v1,2022.2.5,59.94564124149494,
,,,,,,,,,,,,,,,3,0,3,0,3,0,3,0,,,,,,,,,,,,,,,,,,,,,,,,,,,,,,,conditions/schedules/train_y_first/red_square_00/top_left/instructions/Slide20.png,conditions/schedules/train_y_first/red_square_00/top_left/instructions/Audio20.wav,918.9946510998998,918.994401599979,20,"[5.627595799975097, 18.34992430009879, 16.459040000103414, 19.396639700047672, 4.772369900019839, 4.620304299984127, 5.368759599979967, 11.37271839985624, 5.817403899971396, 6.512786000035703, 9.611028500134125, 13.756269499892369, 16.886642099823803, 16.92065989994444, 43.58209089981392, 21.152262599905953, 51.073996799997985, 6.221167900133878, 10.003026900114492, 13.124395799823105]","[0.014488199958577752, 0.03106490010395646, 16.45904770004563, 19.396645599976182, 0.014084500027820468, 0.04770460003055632, 0.030249099945649505, 0.04776520002633333, 0.03656419995240867, 0.013724500080570579, 0.046964399982243776, 13.756276999833062, 0.036233700113371015, 16.920667000114918, 0.00021229987032711506, 21.152268500067294, 0.00023500015959143639, 0.00020130001939833164, 0.03089559986256063, 13.124401899985969]",0,,,,,,,,,,,,,,,,,,,,,,,,,,,,,,,,,,,,,,,,,,,,,,,,,,,,,,,,,,,,,,,,,,,,,,,,,,,,,,,,,,,,,,,,,,,,,,,,,,,,,,,,,,,,,,,,,,,,,,,,,,,,HJAFTX,train_y,red_square,top_left,2025-08-19_17h52.41.828,HideSeek_v1,2022.2.5,59.94564124149494,
1,3,7,8,7,5,0,66,2,instr_dim1_2,,,,,,3,0,3,0,,,,,0,0,0,0,,,,,,,,,,,,,,,,,,,,,,,,,,,,,,,,,,,,,stimuli/alien_stimuli/66.png,conditions/schedules/train_y_first/red_square_00/top_left/inputInstr_2.xlsx,stimuli/alien_stimuli/66.png,932.2266613999382,932.2266613999382,932.2266613999382,932.2266613999382,932.2218880198429,return,3.083159999921918,"[-0.16, -0.08, 0, 0.08, 0.16, 0.24, 0.32, 0.4, 0.48, 0.56]","[-0.4, -0.32, -0.24, -0.16, -0.08, 0, 0.08, 0.16, 0.24, 0.32]",7,7,8,3,0.0,0.4,935.4737443998456,935.4737443998456,935.4737443998456,935.4737443998456,935.4737443998456,935.4737443998456,935.4737443998456,935.4575094798114,6.0735297000501305,return,5.9128958999644965,stimuli/alien_stimuli/66.png,66,3,1,,,,,,,,,,,,,,,,,,,,,,,,,,,,,,,,,,,,,,,,,,,,,,,,,,,,,,,,,,,,,,,,,,,,,,,,,,,,,,,,,,,,,,,,,HJAFTX,train_y,red_square,top_left,2025-08-19_17h52.41.828,HideSeek_v1,2022.2.5,59.94564124149494,
,,,,,,,,,,,30,,,,3,0,3,0,,,,,,,,,,,,,,,,,,,,,,,,,,,,,,,,,,,,,,,,,,,,,,,,,,,,,,,,,,,,,,,,,,,,,,,,,,,,,,21,0.7,0.625,1,99,2,30,0,conditions/schedules/train_y_first/red_square_00/top_left/inputTrain_2.1.xlsx,99,1,2,1,0,,,,,,,,,,,,,,,,,,,,,,,,,,,,,,,,,,,,,,,,,,,,,,,,,,,,,,,,,,,,,,,,,,,,,,,,,,,HJAFTX,train_y,red_square,top_left,2025-08-19_17h52.41.828,HideSeek_v1,2022.2.5,59.94564124149494,
,,,,,,,,,,,,,,,4,0,4,0,0,0,0,0,,,,,,,,,,,,,,,,,,,,,,,,,,,,,,,conditions/schedules/train_y_first/red_square_00/top_left/instructions/Slide21.png,conditions/schedules/train_y_first/red_square_00/top_left/instructions/Audio21.wav,941.54475859995,941.5466575399506,21,"[5.627595799975097, 18.34992430009879, 16.459040000103414, 19.396639700047672, 4.772369900019839, 4.620304299984127, 5.368759599979967, 11.37271839985624, 5.817403899971396, 6.512786000035703, 9.611028500134125, 13.756269499892369, 16.886642099823803, 16.92065989994444, 43.58209089981392, 21.152262599905953, 51.073996799997985, 6.221167900133878, 10.003026900114492, 13.124395799823105, 14.778192600002512]","[0.014488199958577752, 0.03106490010395646, 16.45904770004563, 19.396645599976182, 0.014084500027820468, 0.04770460003055632, 0.030249099945649505, 0.04776520002633333, 0.03656419995240867, 0.013724500080570579, 0.046964399982243776, 13.756276999833062, 0.036233700113371015, 16.920667000114918, 0.00021229987032711506, 21.152268500067294, 0.00023500015959143639, 0.00020130001939833164, 0.03089559986256063, 13.124401899985969, 14.778199899941683]",0,,,,,,,,,,,,,,,,,,,,,,,,,,,,,,,,,,,,,,,,,,,,,,,,,,,,,,,,,,,,,,,,,,,,,,,,,,,,,,,,,,,,,,,,,,,,,,,,,,,,,,,,,,,,,,,,,,,,,,,,,,,,HJAFTX,train_y,red_square,top_left,2025-08-19_17h52.41.828,HideSeek_v1,2022.2.5,59.94564124149494,
2,4,5,4,5,0,0,16,2,instr_dim1_2,,,,,,4,0,4,0,,,,,0,0,0,0,,,,,,,,,,,,,,,,,,,,,,,,,,,,,,,,,,,,,stimuli/alien_stimuli/16.png,conditions/schedules/train_y_first/red_square_00/top_left/inputInstr_2.xlsx,stimuli/alien_stimuli/16.png,956.4165910999291,956.4165910999291,956.4165910999291,956.4165910999291,956.4087659599725,return,3.7558073000982404,"[-0.16, -0.08, 0, 0.08, 0.16, 0.24, 0.32, 0.4, 0.48, 0.56]","[-0.4, -0.32, -0.24, -0.16, -0.08, 0, 0.08, 0.16, 0.24, 0.32]",5,5,4,4,0.0,0.0,960.3365425998345,960.3365425998345,960.3365425998345,960.3365425998345,960.3365425998345,960.3365425998345,960.3365425998345,960.328526339773,3.7371982000768185,return,3.5739887000527233,stimuli/alien_stimuli/16.png,16,4,2,,,,,,,,,,,,,,,,,,,,,,,,,,,,,,,,,,,,,,,,,,,,,,,,,,,,,,,,,,,,,,,,,,,,,,,,,,,,,,,,,,,,,,,,,HJAFTX,train_y,red_square,top_left,2025-08-19_17h52.41.828,HideSeek_v1,2022.2.5,59.94564124149494,
,,,,,,,,,,,30,,,,4,0,4,0,,,,,,,,,,,,,,,,,,,,,,,,,,,,,,,,,,,,,,,,,,,,,,,,,,,,,,,,,,,,,,,,,,,,,,,,,,,,,,21,0.7,0.625,1,99,2,30,0,conditions/schedules/train_y_first/red_square_00/top_left/inputTrain_2.1.xlsx,99,1,2,1,0,,,,,,,,,,,,,,,,,,,,,,,,,,,,,,,,,,,,,,,,,,,,,,,,,,,,,,,,,,,,,,,,,,,,,,,,,,,HJAFTX,train_y,red_square,top_left,2025-08-19_17h52.41.828,HideSeek_v1,2022.2.5,59.94564124149494,
,,,,,,,,,,,,,,,5,0,5,0,0,0,0,0,,,,,,,,,,,,,,,,,,,,,,,,,,,,,,,conditions/schedules/train_y_first/red_square_00/top_left/instructions/Slide22.png,conditions/schedules/train_y_first/red_square_00/top_left/instructions/Audio22.wav,964.0677761998959,964.0647214397787,22,"[5.627595799975097, 18.34992430009879, 16.459040000103414, 19.396639700047672, 4.772369900019839, 4.620304299984127, 5.368759599979967, 11.37271839985624, 5.817403899971396, 6.512786000035703, 9.611028500134125, 13.756269499892369, 16.886642099823803, 16.92065989994444, 43.58209089981392, 21.152262599905953, 51.073996799997985, 6.221167900133878, 10.003026900114492, 13.124395799823105, 14.778192600002512, 5.5662406999617815]","[0.014488199958577752, 0.03106490010395646, 16.45904770004563, 19.396645599976182, 0.014084500027820468, 0.04770460003055632, 0.030249099945649505, 0.04776520002633333, 0.03656419995240867, 0.013724500080570579, 0.046964399982243776, 13.756276999833062, 0.036233700113371015, 16.920667000114918, 0.00021229987032711506, 21.152268500067294, 0.00023500015959143639, 0.00020130001939833164, 0.03089559986256063, 13.124401899985969, 14.778199899941683, 5.566247599897906]",0,,,,,,,,,,,,,,,,,,,,,,,,,,,,,,,,,,,,,,,,,,,,,,,,,,,,,,,,,,,,,,,,,,,,,,,,,,,,,,,,,,,,,,,,,,,,,,,,,,,,,,,,,,,,,,,,,,,,,,,,,,,,HJAFTX,train_y,red_square,top_left,2025-08-19_17h52.41.828,HideSeek_v1,2022.2.5,59.94564124149494,
,2,6,5,6,3,0,46,,train_dim1_2,1,30,,,,5,0,5,0,,,,,,,,,0,0,0,0,0,0,0,0,0,0,0,0,,,,,,,,,,,,,,,,,,,,,,,,,stimuli/alien_stimuli/46.png,,,,,,,,,,,,,,,,,,,,,,,,,,,,,,,,,,,,,,,30,,,,,,,,969.7215487000067,969.7215487000067,969.7215487000067,969.7215487000067,969.7215487000067,right,2.8790053999982774,0,0,0,99,0.08,0.08,right,2.8000483000651,,,,,,,,,,,,,,,,,,,,,,,,,,,,,,,,,,,,,,,,,,,,,,,,,,,,,,,,,,,,HJAFTX,train_y,red_square,top_left,2025-08-19_17h52.41.828,HideSeek_v1,2022.2.5,59.94564124149494,
,2,6,5,6,3,0,46,,train_dim1_2,1,30,,,,5,0,5,0,,,,,,,,,0,0,0,0,0,0,0,0,1,0,1,0,,,,,,,,,,,,,,,,,,,,,,,,,,,,,,,,,,,,,,,,,,,,,,,,,,,,,,,,,,,,,,,,30,,,,,,,,972.6029071998782,972.6029071998782,972.6029071998782,972.6029071998782,972.6029071998782,right,0.476366100134328,0,0,0,99,0.16,0.08,right,0.39065829990431666,,,,,,,,,,,,,,,,,,,,,,,,,,,,,,,,,,,,,,,,,,,,,,,,,,,,,,,,,,,,HJAFTX,train_y,red_square,top_left,2025-08-19_17h52.41.828,HideSeek_v1,2022.2.5,59.94564124149494,
,2,6,5,6,3,0,46,,train_dim1_2,1,30,,,,5,0,5,0,,,,,,,,,0,0,0,0,0,0,0,0,2,0,2,0,,,,,,,,,,,,,,,,,,,,,,,,,,,,,,,,,,,,,,,,,,,,,,,,,,,,,,,,,,,,,,,,30,,,,,,,,973.092829399975,973.092829399975,973.092829399975,973.092829399975,973.092829399975,return,0.5101912000682205,0,1,0,0,0.16,0.08,return,0.4199001002125442,-76,6,0.16,0.08,,,,,,,,,,,,,,,,,,,,,,,,,,,,,,,,,,,,,,,,,,,,,,,,,,,,,,,,HJAFTX,train_y,red_square,top_left,2025-08-19_17h52.41.828,HideSeek_v1,2022.2.5,59.94564124149494,
,2,9,2,9,0,0,16,,train_dim1_2,2,30,,,,5,0,5,0,,,,,,,,,0,0,0,0,0,1,1,1,0,0,0,0,,,,,,,,,,,,,,,,,,,,,,,,,stimuli/alien_stimuli/16.png,,,,,,,,,,,,,,,,,,,,,,,,,,,,,stimuli/alien_stimuli/46.png,46,2,3,,,,,,,30,,,,,,,,978.2399585000239,978.2399585000239,978.2399585000239,978.2399585000239,978.2399585000239,return,2.0046802998986095,1,0,0,1,0,0.32,return,1.8952881000004709,-76,6,0,0.32,976.6589493998326,978.2399585000239,0.24,0.08,0.0,0.24,0.08,0.24,0.12,0.24,0.08,975.1753072000574,975.1753072000574,975.1753072000574,975.1753072000574,975.1753072000574,975.1753072000574,975.1753072000574,975.1753072000574,975.157503719814,1.6035048000048846,return,1.4557949998416007,,,,,,,,,,,,,,,,,,,,,,,,,,,,,,,,,HJAFTX,train_y,red_square,top_left,2025-08-19_17h52.41.828,HideSeek_v1,2022.2.5,59.94564124149494,
,4,9,5,9,1,0,26,,train_dim1_2,3,30,,,,5,0,5,0,,,,,,,,,0,0,0,0,0,2,2,2,0,0,0,0,,,,,,,,,,,,,,,,,,,,,,,,,stimuli/alien_stimuli/26.png,,,,,,,,,,,,,,,,,,,,,,,,,,,,,stimuli/alien_stimuli/16.png,16,2,4,,,,,,,30,,,,,,,,984.1794690999668,984.1794690999668,984.1794690999668,984.1794690999668,984.1794690999668,right,1.489771399879828,1,0,0,99,0.24,0.32,right,1.404867400182411,,,,,982.6138098000083,984.1794690999668,0,0.32,0.0,0.0,0.32,0,0.0,0,0.32,981.8070131000131,981.8070131000131,981.8070131000131,981.8070131000131,981.8070131000131,981.8070131000131,981.8070131000131,981.8070131000131,981.7972879799548,0.9354316000826657,return,0.7803902998566628,,,,,,,,,,,,,,,,,,,,,,,,,,,,,,,,,HJAFTX,train_y,red_square,top_left,2025-08-19_17h52.41.828,HideSeek_v1,2022.2.5,59.94564124149494,
,4,9,5,9,1,0,26,,train_dim1_2,3,30,,,,5,0,5,0,,,,,,,,,0,0,0,0,0,2,2,2,1,0,1,0,,,,,,,,,,,,,,,,,,,,,,,,,,,,,,,,,,,,,,,,,,,,,,,,,,,,,,,,,,,,,,,,30,,,,,,,,985.6690654999111,985.6690654999111,985.6690654999111,985.6690654999111,985.6690654999111,return,1.0430997998919338,2,0,0,1,0.24,0.32,return,0.9609827999956906,-76,7,0.24,0.32,,,,,,,,,,,,,,,,,,,,,,,,,,,,,,,,,,,,,,,,,,,,,,,,,,,,,,,,HJAFTX,train_y,red_square,top_left,2025-08-19_17h52.41.828,HideSeek_v1,2022.2.5,59.94564124149494,
,2,8,6,8,4,0,56,,train_dim1_2,4,30,,,,5,0,5,0,,,,,,,,,0,0,0,0,0,3,3,3,0,0,0,0,,,,,,,,,,,,,,,,,,,,,,,,,stimuli/alien_stimuli/56.png,,,,,,,,,,,,,,,,,,,,,,,,,,,,,stimuli/alien_stimuli/26.png,26,4,5,,,,,,,30,,,,,,,,990.3838967999909,990.3838967999909,990.3838967999909,990.3838967999909,990.3838967999909,right,1.3362110999878496,2,0,0,99,0.08,0.24,right,1.2502510999329388,,,,,988.8187867999077,990.3838967999909,0.24,0.32,0.0,0.08,0.32,0.24,0.2,0.24,0.32,988.279678999912,988.279678999912,988.279678999912,988.279678999912,988.279678999912,988.279678999912,988.279678999912,988.279678999912,988.2685803199652,0.6523394999094307,return,0.5176810999400914,,,,,,,,,,,,,,,,,,,,,,,,,,,,,,,,,HJAFTX,train_y,red_square,top_left,2025-08-19_17h52.41.828,HideSeek_v1,2022.2.5,59.94564124149494,
,2,8,6,8,4,0,56,,train_dim1_2,4,30,,,,5,0,5,0,,,,,,,,,0,0,0,0,0,3,3,3,1,0,1,0,,,,,,,,,,,,,,,,,,,,,,,,,,,,,,,,,,,,,,,,,,,,,,,,,,,,,,,,,,,,,,,,30,,,,,,,,991.7202554999385,991.7202554999385,991.7202554999385,991.7202554999385,991.7202554999385,right,0.39281069999560714,2,0,0,99,0.16,0.24,right,0.3071233998052776,,,,,,,,,,,,,,,,,,,,,,,,,,,,,,,,,,,,,,,,,,,,,,,,,,,,,,,,,,,,HJAFTX,train_y,red_square,top_left,2025-08-19_17h52.41.828,HideSeek_v1,2022.2.5,59.94564124149494,
