trialInstr,x_fixStart,y_fixStart,x_corrSteps,y_corrSteps,x_nrSteps,y_nrSteps,alienID,trialLength,version,trialTrain,praclen,testlen,trial_label,break_on_off,beforeExpLoop.thisRepN,beforeExpLoop.thisTrialN,beforeExpLoop.thisN,beforeExpLoop.thisIndex,mini_instr_trials.thisRepN,mini_instr_trials.thisTrialN,mini_instr_trials.thisN,mini_instr_trials.thisIndex,instrLoop.thisRepN,instrLoop.thisTrialN,instrLoop.thisN,instrLoop.thisIndex,repeat_prac.thisRepN,repeat_prac.thisTrialN,repeat_prac.thisN,repeat_prac.thisIndex,trainLoop.thisRepN,trainLoop.thisTrialN,trainLoop.thisN,trainLoop.thisIndex,moveLoop_train.thisRepN,moveLoop_train.thisTrialN,moveLoop_train.thisN,moveLoop_train.thisIndex,experiment.thisRepN,experiment.thisTrialN,experiment.thisN,experiment.thisIndex,moveLoop_test.thisRepN,moveLoop_test.thisTrialN,moveLoop_test.thisN,moveLoop_test.thisIndex,mini_instr2_trials.thisRepN,mini_instr2_trials.thisTrialN,mini_instr2_trials.thisN,mini_instr2_trials.thisIndex,start_all_time,url,slideStim,audioStim,slides.started,sounds.started,nextButton.numClicks,nextButton.timesOn,nextButton.timesOff,prev_but.numClicks,prev_but.timesOn,prev_but.timesOff,alienStim,instrFile,alienStim_instr,gridImage_instr.started,startPos_3.started,key_instr.started,alienImage_3.started,sounds_1.started,key_instr.keys,key_instr.rt,all_x,all_y,FBy_corrSteps,FBy_fixStart,FBx_corrSteps,FBx_fixStart,FBy_pathSize_check,FBx_pathSize_check,gridImage_9.started,alienImageFB_3.started,startPosFB_3.started,keyFB_3.started,pathLine_ydir_2.started,pathLine_xdir_2.started,alienFace_3.started,sounds_2.started,RTFB_instr,keyFB_3.keys,keyFB_3.rt,draw_alienStim,draw_alienID,test_x,nrepcount,perfthres,percthres,earlierperf,earlystop,nextPrac,fileidx,praclen,saveACC_train,pracFile,nextPrac_train,addNrep,fileidx_endr,repExp,showearly,gridImage_4.started,startPos.started,movePos.started,key_resp.started,alienImage.started,wLy_dir,wLx_dir,x_movePos,y_movePos,buttonPress_train,RTchoice_train,cumAcctrain,aCorr,saveACC_choice,corrAns,x_movePos_end,y_movePos_end,key_resp.keys,key_resp.rt,text_2.started,text_2.stopped,aft_x_corrPos,aft_y_corrPos,y_pathSize_check,x_pathSize_check,y_pathdirY,x_pathdirY,x_pathdirX,x_corrPos,y_corrPos,gridImage_6.started,alienImageFB_2.started,startPosFB_2.started,movePosFB_2.started,keyFB_2.started,pathLine_xdir.started,pathLine_ydir.started,alienFace.started,sounds_4.started,RT_FBtrain,keyFB_2.keys,keyFB_2.rt,saveACC_pre,ACC,within_saveACC_train,earlystop_wloop,cumAcctrain_check,gridImage_3.started,alienImage_test.started,startPos_test.started,movePos_test.started,key_resp_test.started,wLy_dir_test,wLx_dir_test,buttonPress_test,RTchoice_test,cumAcctest,corrAns_test,key_resp_test.keys,key_resp_test.rt,text_3.started,text_3.stopped,total_time,end_all_time,key_resp_3.keys,slides_2.started,sounds_3.started,nextButton_2.numClicks,nextButton_2.timesOn,nextButton_2.timesOff,prev_but_2.numClicks,prev_but_2.timesOn,prev_but_2.timesOff,bye.started,participant,train_first,00_coordinate,starting corner,date,expName,psychopyVersion,frameRate,
,,,,,,,,,,,,,,,0,0,0,0,0,0,0,0,,,,,,,,,,,,,,,,,,,,,,,,,,,,,start_all_time,testround,conditions/schedules/train_x_first/blue_star_00/bottom_left/instructions/Slide1.png,conditions/schedules/train_x_first/blue_star_00/bottom_left/instructions/Audio1.wav,70.1742378002964,70.1238072684966,1,[5.28221350023523],[5.2822282002307475],0,,,,,,,,,,,,,,,,,,,,,,,,,,,,,,,,,,,,,,,,,,,,,,,,,,,,,,,,,,,,,,,,,,,,,,,,,,,,,,,,,,,,,,,,,,,,,,,,,,,,,,,,,,,,,,,,,,,,,,,,,,,,HN3V3X,train_x,blue_star,bottom_left,2025-03-05_15h36.33.957,HideSeek_v1,2022.2.5,59.969151912616375,
,,,,,,,,,,,,,,,0,0,0,0,1,0,1,0,,,,,,,,,,,,,,,,,,,,,,,,,,,,,,,conditions/schedules/train_x_first/blue_star_00/bottom_left/instructions/Slide2.png,conditions/schedules/train_x_first/blue_star_00/bottom_left/instructions/Audio2.wav,75.47751480014995,75.47606630041264,2,"[5.28221350023523, 18.578366599977016]","[5.2822282002307475, 18.57837350014597]",0,,,,,,,,,,,,,,,,,,,,,,,,,,,,,,,,,,,,,,,,,,,,,,,,,,,,,,,,,,,,,,,,,,,,,,,,,,,,,,,,,,,,,,,,,,,,,,,,,,,,,,,,,,,,,,,,,,,,,,,,,,,,HN3V3X,train_x,blue_star,bottom_left,2025-03-05_15h36.33.957,HideSeek_v1,2022.2.5,59.969151912616375,
,,,,,,,,,,,,,,,0,0,0,0,2,0,2,0,,,,,,,,,,,,,,,,,,,,,,,,,,,,,,,conditions/schedules/train_x_first/blue_star_00/bottom_left/instructions/Slide3.png,conditions/schedules/train_x_first/blue_star_00/bottom_left/instructions/Audio3.wav,94.13772270036861,94.12485460028984,3,"[5.28221350023523, 18.578366599977016, 16.88426520023495]","[5.2822282002307475, 0.0002787001430988312, 16.884272700175643]",0,,,,,,,,,,,,,,,,,,,,,,,,,,,,,,,,,,,,,,,,,,,,,,,,,,,,,,,,,,,,,,,,,,,,,,,,,,,,,,,,,,,,,,,,,,,,,,,,,,,,,,,,,,,,,,,,,,,,,,,,,,,,HN3V3X,train_x,blue_star,bottom_left,2025-03-05_15h36.33.957,HideSeek_v1,2022.2.5,59.969151912616375,
,,,,,,,,,,,,,,,0,0,0,0,3,0,3,0,,,,,,,,,,,,,,,,,,,,,,,,,,,,,,,conditions/schedules/train_x_first/blue_star_00/bottom_left/instructions/Slide4.png,conditions/schedules/train_x_first/blue_star_00/bottom_left/instructions/Audio4.wav,111.10196210024878,111.08895410015248,4,"[5.28221350023523, 18.578366599977016, 16.88426520023495, 19.5675202999264]","[5.2822282002307475, 0.0002787001430988312, 16.884272700175643, 19.567527200095356]",0,,,,,,,,,,,,,,,,,,,,,,,,,,,,,,,,,,,,,,,,,,,,,,,,,,,,,,,,,,,,,,,,,,,,,,,,,,,,,,,,,,,,,,,,,,,,,,,,,,,,,,,,,,,,,,,,,,,,,,,,,,,,HN3V3X,train_x,blue_star,bottom_left,2025-03-05_15h36.33.957,HideSeek_v1,2022.2.5,59.969151912616375,
,,,,,,,,,,,,,,,0,0,0,0,4,0,4,0,,,,,,,,,,,,,,,,,,,,,,,,,,,,,,,conditions/schedules/train_x_first/blue_star_00/bottom_left/instructions/Slide5.png,conditions/schedules/train_x_first/blue_star_00/bottom_left/instructions/Audio5.wav,130.73440660024062,130.72176584014667,5,"[5.28221350023523, 18.578366599977016, 16.88426520023495, 19.5675202999264, 5.105898200068623]","[5.2822282002307475, 0.0002787001430988312, 16.884272700175643, 0.05179180018603802, 5.105904500000179]",0,,,,,,,,,,,,,,,,,,,,,,,,,,,,,,,,,,,,,,,,,,,,,,,,,,,,,,,,,,,,,,,,,,,,,,,,,,,,,,,,,,,,,,,,,,,,,,,,,,,,,,,,,,,,,,,,,,,,,,,,,,,,HN3V3X,train_x,blue_star,bottom_left,2025-03-05_15h36.33.957,HideSeek_v1,2022.2.5,59.969151912616375,
,,,,,,,,,,,,,,,0,0,0,0,5,0,5,0,,,,,,,,,,,,,,,,,,,,,,,,,,,,,,,conditions/schedules/train_x_first/blue_star_00/bottom_left/instructions/Slide6.png,conditions/schedules/train_x_first/blue_star_00/bottom_left/instructions/Audio6.wav,135.89114060020074,135.89273884026332,6,"[5.28221350023523, 18.578366599977016, 16.88426520023495, 19.5675202999264, 5.105898200068623, 5.004665299784392]","[5.2822282002307475, 0.0002787001430988312, 16.884272700175643, 0.05179180018603802, 0.014042200054973364, 5.004673299845308]",0,,,,,,,,,,,,,,,,,,,,,,,,,,,,,,,,,,,,,,,,,,,,,,,,,,,,,,,,,,,,,,,,,,,,,,,,,,,,,,,,,,,,,,,,,,,,,,,,,,,,,,,,,,,,,,,,,,,,,,,,,,,,HN3V3X,train_x,blue_star,bottom_left,2025-03-05_15h36.33.957,HideSeek_v1,2022.2.5,59.969151912616375,
,,,,,,,,,,,,,,,0,0,0,0,6,0,6,0,,,,,,,,,,,,,,,,,,,,,,,,,,,,,,,conditions/schedules/train_x_first/blue_star_00/bottom_left/instructions/Slide7.png,conditions/schedules/train_x_first/blue_star_00/bottom_left/instructions/Audio7.wav,140.94648120040074,140.9469733403064,7,"[5.28221350023523, 18.578366599977016, 16.88426520023495, 19.5675202999264, 5.105898200068623, 5.004665299784392, 8.071216499898583]","[5.2822282002307475, 0.0002787001430988312, 16.884272700175643, 0.05179180018603802, 0.014042200054973364, 0.0812062001787126, 8.071223299950361]",0,,,,,,,,,,,,,,,,,,,,,,,,,,,,,,,,,,,,,,,,,,,,,,,,,,,,,,,,,,,,,,,,,,,,,,,,,,,,,,,,,,,,,,,,,,,,,,,,,,,,,,,,,,,,,,,,,,,,,,,,,,,,HN3V3X,train_x,blue_star,bottom_left,2025-03-05_15h36.33.957,HideSeek_v1,2022.2.5,59.969151912616375,
,,,,,,,,,,,,,,,0,0,0,0,7,0,7,0,,,,,,,,,,,,,,,,,,,,,,,,,,,,,,,conditions/schedules/train_x_first/blue_star_00/bottom_left/instructions/Slide8.png,conditions/schedules/train_x_first/blue_star_00/bottom_left/instructions/Audio8.wav,149.07267739996314,149.07047224016858,8,"[5.28221350023523, 18.578366599977016, 16.88426520023495, 19.5675202999264, 5.105898200068623, 5.004665299784392, 8.071216499898583, 11.939852400217205]","[5.2822282002307475, 0.0002787001430988312, 16.884272700175643, 0.05179180018603802, 0.014042200054973364, 0.0812062001787126, 0.00020910007879137993, 11.939860000275075]",0,,,,,,,,,,,,,,,,,,,,,,,,,,,,,,,,,,,,,,,,,,,,,,,,,,,,,,,,,,,,,,,,,,,,,,,,,,,,,,,,,,,,,,,,,,,,,,,,,,,,,,,,,,,,,,,,,,,,,,,,,,,,HN3V3X,train_x,blue_star,bottom_left,2025-03-05_15h36.33.957,HideSeek_v1,2022.2.5,59.969151912616375,
,,,,,,,,,,,,,,,0,0,0,0,8,0,8,0,,,,,,,,,,,,,,,,,,,,,,,,,,,,,,,conditions/schedules/train_x_first/blue_star_00/bottom_left/instructions/Slide9.png,conditions/schedules/train_x_first/blue_star_00/bottom_left/instructions/Audio9.wav,161.08245230000466,161.0800901001785,9,"[5.28221350023523, 18.578366599977016, 16.88426520023495, 19.5675202999264, 5.105898200068623, 5.004665299784392, 8.071216499898583, 11.939852400217205, 6.4678048002533615]","[5.2822282002307475, 0.0002787001430988312, 16.884272700175643, 0.05179180018603802, 0.014042200054973364, 0.0812062001787126, 0.00020910007879137993, 11.939860000275075, 6.46781160030514]",0,,,,,,,,,,,,,,,,,,,,,,,,,,,,,,,,,,,,,,,,,,,,,,,,,,,,,,,,,,,,,,,,,,,,,,,,,,,,,,,,,,,,,,,,,,,,,,,,,,,,,,,,,,,,,,,,,,,,,,,,,,,,HN3V3X,train_x,blue_star,bottom_left,2025-03-05_15h36.33.957,HideSeek_v1,2022.2.5,59.969151912616375,
,,,,,,,,,,,,,,,0,0,0,0,9,0,9,0,,,,,,,,,,,,,,,,,,,,,,,,,,,,,,,conditions/schedules/train_x_first/blue_star_00/bottom_left/instructions/Slide10.png,conditions/schedules/train_x_first/blue_star_00/bottom_left/instructions/Audio10.wav,167.58727510040626,167.58576728045009,10,"[5.28221350023523, 18.578366599977016, 16.88426520023495, 19.5675202999264, 5.105898200068623, 5.004665299784392, 8.071216499898583, 11.939852400217205, 6.4678048002533615, 7.0350351999513805]","[5.2822282002307475, 0.0002787001430988312, 16.884272700175643, 0.05179180018603802, 0.014042200054973364, 0.0812062001787126, 0.00020910007879137993, 11.939860000275075, 0.04681379999965429, 7.035042500123382]",0,,,,,,,,,,,,,,,,,,,,,,,,,,,,,,,,,,,,,,,,,,,,,,,,,,,,,,,,,,,,,,,,,,,,,,,,,,,,,,,,,,,,,,,,,,,,,,,,,,,,,,,,,,,,,,,,,,,,,,,,,,,,HN3V3X,train_x,blue_star,bottom_left,2025-03-05_15h36.33.957,HideSeek_v1,2022.2.5,59.969151912616375,
,,,,,,,,,,,,,,,0,0,0,0,10,0,10,0,,,,,,,,,,,,,,,,,,,,,,,,,,,,,,,conditions/schedules/train_x_first/blue_star_00/bottom_left/instructions/Slide11.png,conditions/schedules/train_x_first/blue_star_00/bottom_left/instructions/Audio11.wav,174.67748750001192,174.6748430404812,11,"[5.28221350023523, 18.578366599977016, 16.88426520023495, 19.5675202999264, 5.105898200068623, 5.004665299784392, 8.071216499898583, 11.939852400217205, 6.4678048002533615, 7.0350351999513805, 9.953089999966323]","[5.2822282002307475, 0.0002787001430988312, 16.884272700175643, 0.05179180018603802, 0.014042200054973364, 0.0812062001787126, 0.00020910007879137993, 11.939860000275075, 0.04681379999965429, 0.047208699863404036, 9.953096800018102]",0,,,,,,,,,,,,,,,,,,,,,,,,,,,,,,,,,,,,,,,,,,,,,,,,,,,,,,,,,,,,,,,,,,,,,,,,,,,,,,,,,,,,,,,,,,,,,,,,,,,,,,,,,,,,,,,,,,,,,,,,,,,,HN3V3X,train_x,blue_star,bottom_left,2025-03-05_15h36.33.957,HideSeek_v1,2022.2.5,59.969151912616375,
,,,,,,,,,,,,,,,0,0,0,0,11,0,11,0,,,,,,,,,,,,,,,,,,,,,,,,,,,,,,,conditions/schedules/train_x_first/blue_star_00/bottom_left/instructions/Slide12.png,conditions/schedules/train_x_first/blue_star_00/bottom_left/instructions/Audio12.wav,184.68506549997255,184.68301774021236,12,"[5.28221350023523, 18.578366599977016, 16.88426520023495, 19.5675202999264, 5.105898200068623, 5.004665299784392, 8.071216499898583, 11.939852400217205, 6.4678048002533615, 7.0350351999513805, 9.953089999966323, 13.172368099913001]","[5.2822282002307475, 0.0002787001430988312, 16.884272700175643, 0.05179180018603802, 0.014042200054973364, 0.0812062001787126, 0.00020910007879137993, 11.939860000275075, 0.04681379999965429, 0.047208699863404036, 0.06313889985904098, 13.17237489996478]",0,,,,,,,,,,,,,,,,,,,,,,,,,,,,,,,,,,,,,,,,,,,,,,,,,,,,,,,,,,,,,,,,,,,,,,,,,,,,,,,,,,,,,,,,,,,,,,,,,,,,,,,,,,,,,,,,,,,,,,,,,,,,HN3V3X,train_x,blue_star,bottom_left,2025-03-05_15h36.33.957,HideSeek_v1,2022.2.5,59.969151912616375,
1,4,0,9,0,5,0,11,2,instr_dim1_1,,,,,,0,0,0,0,,,,,0,0,0,0,,,,,,,,,,,,,,,,,,,,,,,,,,,,,,,,,,,,,stimuli/alien_stimuli/11.png,conditions/schedules/train_x_first/blue_star_00/bottom_left/inputInstr_1.xlsx,stimuli/alien_stimuli/11.png,197.96409320039675,197.96409320039675,197.96409320039675,197.96409320039675,197.96068712030535,return,15.5635137995705,"[-0.16, -0.08, 0, 0.08, 0.16, 0.24, 0.32, 0.4, 0.48, 0.56]","[-0.4, -0.32, -0.24, -0.16, -0.08, 0, 0.08, 0.16, 0.24, 0.32]",0,0,9,4,0.0,0.4,213.70789330033585,213.70789330033585,213.70789330033585,213.70789330033585,213.70789330033585,213.70789330033585,213.70789330033585,213.70726140029728,6.989915099926293,return,6.817278399597853,stimuli/alien_stimuli/11.png,11,4,1,,,,,,,,,,,,,,,,,,,,,,,,,,,,,,,,,,,,,,,,,,,,,,,,,,,,,,,,,,,,,,,,,,,,,,,,,,,,,,,,,,,,,,,,,HN3V3X,train_x,blue_star,bottom_left,2025-03-05_15h36.33.957,HideSeek_v1,2022.2.5,59.969151912616375,
,,,,,,,,,,,30,,,,0,0,0,0,,,,,,,,,,,,,,,,,,,,,,,,,,,,,,,,,,,,,,,,,,,,,,,,,,,,,,,,,,,,,,,,,,,,,,,,,,,,,,21,0.7,0,0,99,1,30,0,conditions/schedules/train_x_first/blue_star_00/bottom_left/inputTrain_1.1.xlsx,99,1,1,1,0,,,,,,,,,,,,,,,,,,,,,,,,,,,,,,,,,,,,,,,,,,,,,,,,,,,,,,,,,,,,,,,,,,,,,,,,,,,HN3V3X,train_x,blue_star,bottom_left,2025-03-05_15h36.33.957,HideSeek_v1,2022.2.5,59.969151912616375,
,,,,,,,,,,,,,,,1,0,1,0,0,0,0,0,,,,,,,,,,,,,,,,,,,,,,,,,,,,,,,conditions/schedules/train_x_first/blue_star_00/bottom_left/instructions/Slide13.png,conditions/schedules/train_x_first/blue_star_00/bottom_left/instructions/Audio13.wav,220.67666950030252,220.66303778057917,13,"[5.28221350023523, 18.578366599977016, 16.88426520023495, 19.5675202999264, 5.105898200068623, 5.004665299784392, 8.071216499898583, 11.939852400217205, 6.4678048002533615, 7.0350351999513805, 9.953089999966323, 13.172368099913001, 18.24878879962489]","[5.2822282002307475, 0.0002787001430988312, 16.884272700175643, 0.05179180018603802, 0.014042200054973364, 0.0812062001787126, 0.00020910007879137993, 11.939860000275075, 0.04681379999965429, 0.047208699863404036, 0.06313889985904098, 13.17237489996478, 18.248797699809074]",0,,,,,,,,,,,,,,,,,,,,,,,,,,,,,,,,,,,,,,,,,,,,,,,,,,,,,,,,,,,,,,,,,,,,,,,,,,,,,,,,,,,,,,,,,,,,,,,,,,,,,,,,,,,,,,,,,,,,,,,,,,,,HN3V3X,train_x,blue_star,bottom_left,2025-03-05_15h36.33.957,HideSeek_v1,2022.2.5,59.969151912616375,
,,,,,,,,,,,,,,,1,0,1,0,1,0,1,0,,,,,,,,,,,,,,,,,,,,,,,,,,,,,,,conditions/schedules/train_x_first/blue_star_00/bottom_left/instructions/Slide14.png,conditions/schedules/train_x_first/blue_star_00/bottom_left/instructions/Audio14.wav,238.9953503003344,238.99476160039194,14,"[5.28221350023523, 18.578366599977016, 16.88426520023495, 19.5675202999264, 5.105898200068623, 5.004665299784392, 8.071216499898583, 11.939852400217205, 6.4678048002533615, 7.0350351999513805, 9.953089999966323, 13.172368099913001, 18.24878879962489, 13.375009499955922]","[5.2822282002307475, 0.0002787001430988312, 16.884272700175643, 0.05179180018603802, 0.014042200054973364, 0.0812062001787126, 0.00020910007879137993, 11.939860000275075, 0.04681379999965429, 0.047208699863404036, 0.06313889985904098, 13.17237489996478, 0.030453700106590986, 13.375016400124878]",0,,,,,,,,,,,,,,,,,,,,,,,,,,,,,,,,,,,,,,,,,,,,,,,,,,,,,,,,,,,,,,,,,,,,,,,,,,,,,,,,,,,,,,,,,,,,,,,,,,,,,,,,,,,,,,,,,,,,,,,,,,,,HN3V3X,train_x,blue_star,bottom_left,2025-03-05_15h36.33.957,HideSeek_v1,2022.2.5,59.969151912616375,
2,3,2,3,2,0,0,61,2,instr_dim1_1,,,,,,1,0,1,0,,,,,0,0,0,0,,,,,,,,,,,,,,,,,,,,,,,,,,,,,,,,,,,,,stimuli/alien_stimuli/61.png,conditions/schedules/train_x_first/blue_star_00/bottom_left/inputInstr_1.xlsx,stimuli/alien_stimuli/61.png,252.47004820033908,252.47004820033908,252.47004820033908,252.47004820033908,252.4561241602525,return,6.4378268998116255,"[-0.16, -0.08, 0, 0.08, 0.16, 0.24, 0.32, 0.4, 0.48, 0.56]","[-0.4, -0.32, -0.24, -0.16, -0.08, 0, 0.08, 0.16, 0.24, 0.32]",2,2,3,3,0.0,0.0,259.06647130008787,259.06647130008787,259.06647130008787,259.06647130008787,259.06647130008787,259.06647130008787,259.06647130008787,259.0449611804448,9.892238500062376,return,9.731873499695212,stimuli/alien_stimuli/61.png,61,3,2,,,,,,,,,,,,,,,,,,,,,,,,,,,,,,,,,,,,,,,,,,,,,,,,,,,,,,,,,,,,,,,,,,,,,,,,,,,,,,,,,,,,,,,,,HN3V3X,train_x,blue_star,bottom_left,2025-03-05_15h36.33.957,HideSeek_v1,2022.2.5,59.969151912616375,
,,,,,,,,,,,30,,,,1,0,1,0,,,,,,,,,,,,,,,,,,,,,,,,,,,,,,,,,,,,,,,,,,,,,,,,,,,,,,,,,,,,,,,,,,,,,,,,,,,,,,21,0.7,0,0,99,1,30,0,conditions/schedules/train_x_first/blue_star_00/bottom_left/inputTrain_1.1.xlsx,99,1,1,1,0,,,,,,,,,,,,,,,,,,,,,,,,,,,,,,,,,,,,,,,,,,,,,,,,,,,,,,,,,,,,,,,,,,,,,,,,,,,HN3V3X,train_x,blue_star,bottom_left,2025-03-05_15h36.33.957,HideSeek_v1,2022.2.5,59.969151912616375,
,,,,,,,,,,,,,,,2,0,2,0,0,0,0,0,,,,,,,,,,,,,,,,,,,,,,,,,,,,,,,conditions/schedules/train_x_first/blue_star_00/bottom_left/instructions/Slide15.png,conditions/schedules/train_x_first/blue_star_00/bottom_left/instructions/Audio15.wav,268.9560759002343,268.9529900406022,15,"[5.28221350023523, 18.578366599977016, 16.88426520023495, 19.5675202999264, 5.105898200068623, 5.004665299784392, 8.071216499898583, 11.939852400217205, 6.4678048002533615, 7.0350351999513805, 9.953089999966323, 13.172368099913001, 18.24878879962489, 13.375009499955922, 31.036135000176728]","[5.2822282002307475, 0.0002787001430988312, 16.884272700175643, 0.05179180018603802, 0.014042200054973364, 0.0812062001787126, 0.00020910007879137993, 11.939860000275075, 0.04681379999965429, 0.047208699863404036, 0.06313889985904098, 13.17237489996478, 0.030453700106590986, 13.375016400124878, 31.036141900345683]",0,,,,,,,,,,,,,,,,,,,,,,,,,,,,,,,,,,,,,,,,,,,,,,,,,,,,,,,,,,,,,,,,,,,,,,,,,,,,,,,,,,,,,,,,,,,,,,,,,,,,,,,,,,,,,,,,,,,,,,,,,,,,HN3V3X,train_x,blue_star,bottom_left,2025-03-05_15h36.33.957,HideSeek_v1,2022.2.5,59.969151912616375,
,,,,,,,,,,,,,,,2,0,2,0,1,0,1,0,,,,,,,,,,,,,,,,,,,,,,,,,,,,,,,conditions/schedules/train_x_first/blue_star_00/bottom_left/instructions/Slide16.png,conditions/schedules/train_x_first/blue_star_00/bottom_left/instructions/Audio16.wav,300.0625989004038,300.06213860050775,16,"[5.28221350023523, 18.578366599977016, 16.88426520023495, 19.5675202999264, 5.105898200068623, 5.004665299784392, 8.071216499898583, 11.939852400217205, 6.4678048002533615, 7.0350351999513805, 9.953089999966323, 13.172368099913001, 18.24878879962489, 13.375009499955922, 31.036135000176728, 22.415545800235122]","[5.2822282002307475, 0.0002787001430988312, 16.884272700175643, 0.05179180018603802, 0.014042200054973364, 0.0812062001787126, 0.00020910007879137993, 11.939860000275075, 0.04681379999965429, 0.047208699863404036, 0.06313889985904098, 13.17237489996478, 0.030453700106590986, 13.375016400124878, 0.28024090034887195, 22.4155526002869]",0,,,,,,,,,,,,,,,,,,,,,,,,,,,,,,,,,,,,,,,,,,,,,,,,,,,,,,,,,,,,,,,,,,,,,,,,,,,,,,,,,,,,,,,,,,,,,,,,,,,,,,,,,,,,,,,,,,,,,,,,,,,,HN3V3X,train_x,blue_star,bottom_left,2025-03-05_15h36.33.957,HideSeek_v1,2022.2.5,59.969151912616375,
,2,1,5,1,3,0,31,,train_dim1_1,1,30,,,,2,0,2,0,,,,,,,,,0,0,0,0,0,0,0,0,0,0,0,0,,,,,,,,,,,,,,,,,,,,,,,,,stimuli/alien_stimuli/31.png,,,,,,,,,,,,,,,,,,,,,,,,,,,,,,,,,,,,,,,30,,,,,,,,322.5801735003479,322.5801735003479,322.5801735003479,322.5801735003479,322.5801735003479,0,0,0,-0.32,return,3.3807103000581264,0,0,0,0,0,-0.32,return,3.282743899617344,,,,,,,,,,,,,,,,,,,,,,,,,,,,,,,,,,,,,,,,,,,,,,,,,,,,,,,,HN3V3X,train_x,blue_star,bottom_left,2025-03-05_15h36.33.957,HideSeek_v1,2022.2.5,59.969151912616375,
,2,4,7,4,5,0,11,,train_dim1_1,2,30,,,,2,0,2,0,,,,,,,,,0,0,0,0,0,1,1,1,0,0,0,0,,,,,,,,,,,,,,,,,,,,,,,,,stimuli/alien_stimuli/11.png,,,,,,,,,,,,,,,,,,,,,,,,,,,,,stimuli/alien_stimuli/31.png,31,2,3,,,,,,,30,,,,,,,,349.25420369999483,349.25420369999483,349.25420369999483,349.25420369999483,349.25420369999483,,,,,right,3.6879448001272976,0,0,0,99,0.08,-0.08,right,3.5765188997611403,347.6682635000907,349.25420369999483,0.24,-0.32,0.0,0.24,-0.32,0.24,0.12,0.24,-0.32,327.51346380030736,327.51346380030736,327.51346380030736,327.51346380030736,327.51346380030736,327.51346380030736,327.51346380030736,327.51346380030736,327.5016101206187,20.268754300195724,return,20.125179999973625,,,,,,,,,,,,,,,,,,,,,,,,,,,,,,,,,HN3V3X,train_x,blue_star,bottom_left,2025-03-05_15h36.33.957,HideSeek_v1,2022.2.5,59.969151912616375,
,2,4,7,4,5,0,11,,train_dim1_1,2,30,,,,2,0,2,0,,,,,,,,,0,0,0,0,0,1,1,1,1,0,1,0,,,,,,,,,,,,,,,,,,,,,,,,,,,,,,,,,,,,,,,,,,,,,,,,,,,,,,,,,,,,,,,,30,,,,,,,,352.9284181003459,352.9284181003459,352.9284181003459,352.9284181003459,352.9284181003459,,,,,right,0.673350699711591,0,0,0,99,0.16,-0.08,right,0.589671699795872,,,,,,,,,,,,,,,,,,,,,,,,,,,,,,,,,,,,,,,,,,,,,,,,,,,,,,,,HN3V3X,train_x,blue_star,bottom_left,2025-03-05_15h36.33.957,HideSeek_v1,2022.2.5,59.969151912616375,
,2,4,7,4,5,0,11,,train_dim1_1,2,30,,,,2,0,2,0,,,,,,,,,0,0,0,0,0,1,1,1,2,0,2,0,,,,,,,,,,,,,,,,,,,,,,,,,,,,,,,,,,,,,,,,,,,,,,,,,,,,,,,,,,,,,,,,30,,,,,,,,353.6089966003783,353.6089966003783,353.6089966003783,353.6089966003783,353.6089966003783,,,,,right,0.676866099704057,0,0,0,99,0.24,-0.08,right,0.5834213993512094,,,,,,,,,,,,,,,,,,,,,,,,,,,,,,,,,,,,,,,,,,,,,,,,,,,,,,,,HN3V3X,train_x,blue_star,bottom_left,2025-03-05_15h36.33.957,HideSeek_v1,2022.2.5,59.969151912616375,
,2,4,7,4,5,0,11,,train_dim1_1,2,30,,,,2,0,2,0,,,,,,,,,0,0,0,0,0,1,1,1,3,0,3,0,,,,,,,,,,,,,,,,,,,,,,,,,,,,,,,,,,,,,,,,,,,,,,,,,,,,,,,,,,,,,,,,30,,,,,,,,354.2914315001108,354.2914315001108,354.2914315001108,354.2914315001108,354.2914315001108,,,,,right,0.9773577000014484,0,0,0,99,0.32,-0.08,right,0.8966343994252384,,,,,,,,,,,,,,,,,,,,,,,,,,,,,,,,,,,,,,,,,,,,,,,,,,,,,,,,HN3V3X,train_x,blue_star,bottom_left,2025-03-05_15h36.33.957,HideSeek_v1,2022.2.5,59.969151912616375,
,2,4,7,4,5,0,11,,train_dim1_1,2,30,,,,2,0,2,0,,,,,,,,,0,0,0,0,0,1,1,1,4,0,4,0,,,,,,,,,,,,,,,,,,,,,,,,,,,,,,,,,,,,,,,,,,,,,,,,,,,,,,,,,,,,,,,,30,,,,,,,,355.2765482002869,355.2765482002869,355.2765482002869,355.2765482002869,355.2765482002869,,,,,right,1.5269284998066723,0,0,0,99,0.4,-0.08,right,1.4442098997533321,,,,,,,,,,,,,,,,,,,,,,,,,,,,,,,,,,,,,,,,,,,,,,,,,,,,,,,,HN3V3X,train_x,blue_star,bottom_left,2025-03-05_15h36.33.957,HideSeek_v1,2022.2.5,59.969151912616375,
,2,4,7,4,5,0,11,,train_dim1_1,2,30,,,,2,0,2,0,,,,,,,,,0,0,0,0,0,1,1,1,5,0,5,0,,,,,,,,,,,,,,,,,,,,,,,,,,,,,,,,,,,,,,,,,,,,,,,,,,,,,,,,,,,,,,,,30,,,,,,,,356.80991940014064,356.80991940014064,356.80991940014064,356.80991940014064,356.80991940014064,0,5,0.4,-0.08,return,0.7937419996596873,1,0,0,1,0.4,-0.08,return,0.7173361997120082,,,,,,,,,,,,,,,,,,,,,,,,,,,,,,,,,,,,,,,,,,,,,,,,,,,,,,,,HN3V3X,train_x,blue_star,bottom_left,2025-03-05_15h36.33.957,HideSeek_v1,2022.2.5,59.969151912616375,
,4,4,8,4,4,0,21,,train_dim1_1,3,30,,,,2,0,2,0,,,,,,,,,0,0,0,0,0,2,2,2,0,0,0,0,,,,,,,,,,,,,,,,,,,,,,,,,stimuli/alien_stimuli/21.png,,,,,,,,,,,,,,,,,,,,,,,,,,,,,stimuli/alien_stimuli/11.png,11,2,4,,,,,,,30,,,,,,,,363.73008820042014,363.73008820042014,363.73008820042014,363.73008820042014,363.73008820042014,,,,,right,4.857993899844587,1,0,0,99,0.24,-0.08,right,4.760197899769992,362.163595400285,363.73008820042014,0.4,-0.08,0.0,0.4,-0.08,0.4,0.2,0.4,-0.08,359.1924040000886,359.1924040000886,359.1924040000886,359.1924040000886,359.1924040000886,359.1924040000886,359.1924040000886,359.1924040000886,359.1779512804001,3.10430879984051,return,2.946028999518603,,,,,,,,,,,,,,,,,,,,,,,,,,,,,,,,,HN3V3X,train_x,blue_star,bottom_left,2025-03-05_15h36.33.957,HideSeek_v1,2022.2.5,59.969151912616375,
,4,4,8,4,4,0,21,,train_dim1_1,3,30,,,,2,0,2,0,,,,,,,,,0,0,0,0,0,2,2,2,1,0,1,0,,,,,,,,,,,,,,,,,,,,,,,,,,,,,,,,,,,,,,,,,,,,,,,,,,,,,,,,,,,,,,,,30,,,,,,,,368.587921500206,368.587921500206,368.587921500206,368.587921500206,368.587921500206,,,,,right,0.37544249976053834,1,0,0,99,0.32,-0.08,right,0.2898140996694565,,,,,,,,,,,,,,,,,,,,,,,,,,,,,,,,,,,,,,,,,,,,,,,,,,,,,,,,HN3V3X,train_x,blue_star,bottom_left,2025-03-05_15h36.33.957,HideSeek_v1,2022.2.5,59.969151912616375,
,4,4,8,4,4,0,21,,train_dim1_1,3,30,,,,2,0,2,0,,,,,,,,,0,0,0,0,0,2,2,2,2,0,2,0,,,,,,,,,,,,,,,,,,,,,,,,,,,,,,,,,,,,,,,,,,,,,,,,,,,,,,,,,,,,,,,,30,,,,,,,,368.9701309003867,368.9701309003867,368.9701309003867,368.9701309003867,368.9701309003867,,,,,right,0.32664760015904903,1,0,0,99,0.4,-0.08,right,0.2453327993862331,,,,,,,,,,,,,,,,,,,,,,,,,,,,,,,,,,,,,,,,,,,,,,,,,,,,,,,,HN3V3X,train_x,blue_star,bottom_left,2025-03-05_15h36.33.957,HideSeek_v1,2022.2.5,59.969151912616375,
,4,4,8,4,4,0,21,,train_dim1_1,3,30,,,,2,0,2,0,,,,,,,,,0,0,0,0,0,2,2,2,3,0,3,0,,,,,,,,,,,,,,,,,,,,,,,,,,,,,,,,,,,,,,,,,,,,,,,,,,,,,,,,,,,,,,,,30,,,,,,,,369.30307950032875,369.30307950032875,369.30307950032875,369.30307950032875,369.30307950032875,,,,,right,0.32638709992170334,1,0,0,99,0.48000000000000004,-0.08,right,0.2412963998503983,,,,,,,,,,,,,,,,,,,,,,,,,,,,,,,,,,,,,,,,,,,,,,,,,,,,,,,,HN3V3X,train_x,blue_star,bottom_left,2025-03-05_15h36.33.957,HideSeek_v1,2022.2.5,59.969151912616375,
,4,4,8,4,4,0,21,,train_dim1_1,3,30,,,,2,0,2,0,,,,,,,,,0,0,0,0,0,2,2,2,4,0,4,0,,,,,,,,,,,,,,,,,,,,,,,,,,,,,,,,,,,,,,,,,,,,,,,,,,,,,,,,,,,,,,,,30,,,,,,,,369.6367968004197,369.6367968004197,369.6367968004197,369.6367968004197,369.6367968004197,0,9,0.48000000000000004,-0.08,return,1.2941310000605881,2,0,0,1,0.48000000000000004,-0.08,return,1.2108084997162223,,,,,,,,,,,,,,,,,,,,,,,,,,,,,,,,,,,,,,,,,,,,,,,,,,,,,,,,HN3V3X,train_x,blue_star,bottom_left,2025-03-05_15h36.33.957,HideSeek_v1,2022.2.5,59.969151912616375,
,2,3,3,3,1,0,51,,train_dim1_1,4,30,,,,2,0,2,0,,,,,,,,,0,0,0,0,0,3,3,3,0,0,0,0,,,,,,,,,,,,,,,,,,,,,,,,,stimuli/alien_stimuli/51.png,,,,,,,,,,,,,,,,,,,,,,,,,,,,,stimuli/alien_stimuli/21.png,21,4,5,,,,,,,30,,,,,,,,375.7351528001018,375.7351528001018,375.7351528001018,375.7351528001018,375.7351528001018,0,9,0,-0.16,return,2.019944599829614,2,1,0,0,0,-0.16,return,1.9201306994073093,374.1568257003091,375.7351528001018,0.48,-0.08,0.0,0.32,-0.08,0.48,0.32,0.48,-0.08,372.5065780002624,372.5065780002624,372.5065780002624,372.5065780002624,372.5065780002624,372.5065780002624,372.5065780002624,372.5065780002624,372.4892087204847,1.77017020015046,return,1.6250267992727458,,,,,,,,,,,,,,,,,,,,,,,,,,,,,,,,,HN3V3X,train_x,blue_star,bottom_left,2025-03-05_15h36.33.957,HideSeek_v1,2022.2.5,59.969151912616375,
,0,2,0,2,0,0,61,,train_dim1_1,5,30,,,,2,0,2,0,,,,,,,,,0,0,0,0,0,4,4,4,0,0,0,0,,,,,,,,,,,,,,,,,,,,,,,,,stimuli/alien_stimuli/61.png,,,,,,,,,,,,,,,,,,,,,,,,,,,,,stimuli/alien_stimuli/51.png,51,2,6,,,,,,,30,,,,,,,,393.92847990011796,393.92847990011796,393.92847990011796,393.92847990011796,393.92847990011796,0,9,-0.16,-0.24,return,8.89492730004713,3,0,0,1,-0.16,-0.24,return,8.788363399915397,392.35516340006143,393.92847990011796,0.08,-0.16,0.0,0.08,-0.16,0.08,0.04,0.08,-0.16,379.3076130002737,379.3076130002737,379.3076130002737,379.3076130002737,379.3076130002737,379.3076130002737,379.3076130002737,379.3076130002737,379.29463552017694,13.163127600215375,return,13.020266599487513,,,,,,,,,,,,,,,,,,,,,,,,,,,,,,,,,HN3V3X,train_x,blue_star,bottom_left,2025-03-05_15h36.33.957,HideSeek_v1,2022.2.5,59.969151912616375,
,0,0,4,0,4,0,21,,train_dim1_1,6,30,,,,2,0,2,0,,,,,,,,,0,0,0,0,0,5,5,5,0,0,0,0,,,,,,,,,,,,,,,,,,,,,,,,,stimuli/alien_stimuli/21.png,,,,,,,,,,,,,,,,,,,,,,,,,,,,,stimuli/alien_stimuli/61.png,61,0,7,,,,,,,30,,,,,,,,407.94413259997964,407.94413259997964,407.94413259997964,407.94413259997964,407.94413259997964,,,,,right,2.1375906001776457,3,0,0,99,-0.08,-0.4,right,2.030541599728167,406.3669088999741,407.94413259997964,-0.16,-0.24,0.0,0.0,-0.24,-0.16,-0.16,-0.16,-0.24,404.3851347002201,404.3851347002201,404.3851347002201,404.3851347002201,404.3851347002201,404.3851347002201,404.3851347002201,404.3851347002201,404.3654811203945,2.1035349001176655,return,1.9513257998041809,,,,,,,,,,,,,,,,,,,,,,,,,,,,,,,,,HN3V3X,train_x,blue_star,bottom_left,2025-03-05_15h36.33.957,HideSeek_v1,2022.2.5,59.969151912616375,
,0,0,4,0,4,0,21,,train_dim1_1,6,30,,,,2,0,2,0,,,,,,,,,0,0,0,0,0,5,5,5,1,0,1,0,,,,,,,,,,,,,,,,,,,,,,,,,,,,,,,,,,,,,,,,,,,,,,,,,,,,,,,,,,,,,,,,30,,,,,,,,410.0705907000229,410.0705907000229,410.0705907000229,410.0705907000229,410.0705907000229,,,,,right,0.34325579972937703,3,0,0,99,0.0,-0.4,right,0.26449699979275465,,,,,,,,,,,,,,,,,,,,,,,,,,,,,,,,,,,,,,,,,,,,,,,,,,,,,,,,HN3V3X,train_x,blue_star,bottom_left,2025-03-05_15h36.33.957,HideSeek_v1,2022.2.5,59.969151912616375,
,0,0,4,0,4,0,21,,train_dim1_1,6,30,,,,2,0,2,0,,,,,,,,,0,0,0,0,0,5,5,5,2,0,2,0,,,,,,,,,,,,,,,,,,,,,,,,,,,,,,,,,,,,,,,,,,,,,,,,,,,,,,,,,,,,,,,,30,,,,,,,,410.42164329998195,410.42164329998195,410.42164329998195,410.42164329998195,410.42164329998195,,,,,right,0.40951930033043027,3,0,0,99,0.08,-0.4,right,0.3196767996996641,,,,,,,,,,,,,,,,,,,,,,,,,,,,,,,,,,,,,,,,,,,,,,,,,,,,,,,,HN3V3X,train_x,blue_star,bottom_left,2025-03-05_15h36.33.957,HideSeek_v1,2022.2.5,59.969151912616375,
,0,0,4,0,4,0,21,,train_dim1_1,6,30,,,,2,0,2,0,,,,,,,,,0,0,0,0,0,5,5,5,3,0,3,0,,,,,,,,,,,,,,,,,,,,,,,,,,,,,,,,,,,,,,,,,,,,,,,,,,,,,,,,,,,,,,,,30,,,,,,,,410.8376404000446,410.8376404000446,410.8376404000446,410.8376404000446,410.8376404000446,,,,,right,0.4269097000360489,3,0,0,99,0.16,-0.4,right,0.3485546996816993,,,,,,,,,,,,,,,,,,,,,,,,,,,,,,,,,,,,,,,,,,,,,,,,,,,,,,,,HN3V3X,train_x,blue_star,bottom_left,2025-03-05_15h36.33.957,HideSeek_v1,2022.2.5,59.969151912616375,
,0,0,4,0,4,0,21,,train_dim1_1,6,30,,,,2,0,2,0,,,,,,,,,0,0,0,0,0,5,5,5,4,0,4,0,,,,,,,,,,,,,,,,,,,,,,,,,,,,,,,,,,,,,,,,,,,,,,,,,,,,,,,,,,,,,,,,30,,,,,,,,411.2724966001697,411.2724966001697,411.2724966001697,411.2724966001697,411.2724966001697,,,,,right,0.3591004000045359,3,0,0,99,0.24,-0.4,right,0.2757250997237861,,,,,,,,,,,,,,,,,,,,,,,,,,,,,,,,,,,,,,,,,,,,,,,,,,,,,,,,HN3V3X,train_x,blue_star,bottom_left,2025-03-05_15h36.33.957,HideSeek_v1,2022.2.5,59.969151912616375,
,0,0,4,0,4,0,21,,train_dim1_1,6,30,,,,2,0,2,0,,,,,,,,,0,0,0,0,0,5,5,5,5,0,5,0,,,,,,,,,,,,,,,,,,,,,,,,,,,,,,,,,,,,,,,,,,,,,,,,,,,,,,,,,,,,,,,,30,,,,,,,,411.6388210002333,411.6388210002333,411.6388210002333,411.6388210002333,411.6388210002333,0,14,0.24,-0.4,return,0.6606371002271771,3,1,0,0,0.24,-0.4,return,0.5816550995223224,,,,,,,,,,,,,,,,,,,,,,,,,,,,,,,,,,,,,,,,,,,,,,,,,,,,,,,,HN3V3X,train_x,blue_star,bottom_left,2025-03-05_15h36.33.957,HideSeek_v1,2022.2.5,59.969151912616375,
,3,0,3,0,0,0,61,,train_dim1_1,7,30,,,,2,0,2,0,,,,,,,,,0,0,0,0,0,6,6,6,0,0,0,0,,,,,,,,,,,,,,,,,,,,,,,,,stimuli/alien_stimuli/61.png,,,,,,,,,,,,,,,,,,,,,,,,,,,,,stimuli/alien_stimuli/21.png,21,0,8,,,,,,,30,,,,,,,,419.4373391000554,419.4373391000554,419.4373391000554,419.4373391000554,419.4373391000554,0,14,0.08,-0.4,return,1.9885065001435578,4,0,0,1,0.08,-0.4,return,1.8969213995151222,417.8763053002767,419.4373391000554,0.16,-0.4,0.0,0.32,-0.4,0.16,0.0,0.16,-0.4,413.8678533001803,413.8678533001803,413.8678533001803,413.8678533001803,413.8678533001803,413.8678533001803,413.8678533001803,413.8678533001803,413.85646362029945,4.12211349979043,return,3.980814599432051,,,,,,,,,,,,,,,,,,,,,,,,,,,,,,,,,HN3V3X,train_x,blue_star,bottom_left,2025-03-05_15h36.33.957,HideSeek_v1,2022.2.5,59.969151912616375,
,0,4,3,4,3,0,31,,train_dim1_1,8,30,,,,2,0,2,0,,,,,,,,,0,0,0,0,0,7,7,7,0,0,0,0,,,,,,,,,,,,,,,,,,,,,,,,,stimuli/alien_stimuli/31.png,,,,,,,,,,,,,,,,,,,,,,,,,,,,,stimuli/alien_stimuli/61.png,61,3,9,,,,,,,30,,,,,,,,426.03110690042377,426.03110690042377,426.03110690042377,426.03110690042377,426.03110690042377,,,,,right,4.803749599959701,4,0,0,99,-0.08,-0.08,right,4.7009911998175085,424.4484427999705,426.03110690042377,0.08,-0.4,0.0,0.0,-0.4,0.08,0.08,0.08,-0.4,423.0051617003046,423.0051617003046,423.0051617003046,423.0051617003046,423.0051617003046,423.0051617003046,423.0051617003046,423.0051617003046,422.99754288038235,1.5698512997478247,return,1.4155191997997463,,,,,,,,,,,,,,,,,,,,,,,,,,,,,,,,,HN3V3X,train_x,blue_star,bottom_left,2025-03-05_15h36.33.957,HideSeek_v1,2022.2.5,59.969151912616375,
,0,4,3,4,3,0,31,,train_dim1_1,8,30,,,,2,0,2,0,,,,,,,,,0,0,0,0,0,7,7,7,1,0,1,0,,,,,,,,,,,,,,,,,,,,,,,,,,,,,,,,,,,,,,,,,,,,,,,,,,,,,,,,,,,,,,,,30,,,,,,,,430.81826069997624,430.81826069997624,430.81826069997624,430.81826069997624,430.81826069997624,,,,,right,0.34243520023301244,4,0,0,99,0.0,-0.08,right,0.2537162993103266,,,,,,,,,,,,,,,,,,,,,,,,,,,,,,,,,,,,,,,,,,,,,,,,,,,,,,,,HN3V3X,train_x,blue_star,bottom_left,2025-03-05_15h36.33.957,HideSeek_v1,2022.2.5,59.969151912616375,
,0,4,3,4,3,0,31,,train_dim1_1,8,30,,,,2,0,2,0,,,,,,,,,0,0,0,0,0,7,7,7,2,0,2,0,,,,,,,,,,,,,,,,,,,,,,,,,,,,,,,,,,,,,,,,,,,,,,,,,,,,,,,,,,,,,,,,30,,,,,,,,431.16764320014045,431.16764320014045,431.16764320014045,431.16764320014045,431.16764320014045,,,,,right,0.4433879996649921,4,0,0,99,0.08,-0.08,right,0.3584514996036887,,,,,,,,,,,,,,,,,,,,,,,,,,,,,,,,,,,,,,,,,,,,,,,,,,,,,,,,HN3V3X,train_x,blue_star,bottom_left,2025-03-05_15h36.33.957,HideSeek_v1,2022.2.5,59.969151912616375,
,0,4,3,4,3,0,31,,train_dim1_1,8,30,,,,2,0,2,0,,,,,,,,,0,0,0,0,0,7,7,7,3,0,3,0,,,,,,,,,,,,,,,,,,,,,,,,,,,,,,,,,,,,,,,,,,,,,,,,,,,,,,,,,,,,,,,,30,,,,,,,,431.6194029003382,431.6194029003382,431.6194029003382,431.6194029003382,431.6194029003382,,,,,right,0.9931163000874221,4,0,0,99,0.16,-0.08,right,0.9183097998611629,,,,,,,,,,,,,,,,,,,,,,,,,,,,,,,,,,,,,,,,,,,,,,,,,,,,,,,,HN3V3X,train_x,blue_star,bottom_left,2025-03-05_15h36.33.957,HideSeek_v1,2022.2.5,59.969151912616375,
,0,4,3,4,3,0,31,,train_dim1_1,8,30,,,,2,0,2,0,,,,,,,,,0,0,0,0,0,7,7,7,4,0,4,0,,,,,,,,,,,,,,,,,,,,,,,,,,,,,,,,,,,,,,,,,,,,,,,,,,,,,,,,,,,,,,,,30,,,,,,,,432.61953950021416,432.61953950021416,432.61953950021416,432.61953950021416,432.61953950021416,0,18,0.16,-0.08,return,2.7281292998231947,4,1,0,0,0.16,-0.08,return,2.6492914999835193,,,,,,,,,,,,,,,,,,,,,,,,,,,,,,,,,,,,,,,,,,,,,,,,,,,,,,,,HN3V3X,train_x,blue_star,bottom_left,2025-03-05_15h36.33.957,HideSeek_v1,2022.2.5,59.969151912616375,
,1,0,2,0,1,0,51,,train_dim1_1,9,30,,,,2,0,2,0,,,,,,,,,0,0,0,0,0,8,8,8,0,0,0,0,,,,,,,,,,,,,,,,,,,,,,,,,stimuli/alien_stimuli/51.png,,,,,,,,,,,,,,,,,,,,,,,,,,,,,stimuli/alien_stimuli/31.png,31,0,10,,,,,,,30,,,,,,,,441.70668140007183,441.70668140007183,441.70668140007183,441.70668140007183,441.70668140007183,,,,,up,3.390264400281012,4,1,0,99,-0.08,-0.32,up,3.3038630997762084,440.14488280005753,441.70668140007183,0.08,-0.08,0.0,0.24,-0.08,0.08,-0.04,0.08,-0.08,436.9476532000117,436.9476532000117,436.9476532000117,436.9476532000117,436.9476532000117,436.9476532000117,436.9476532000117,436.9476532000117,436.9258567806333,3.3383285999298096,return,3.1713861995376647,,,,,,,,,,,,,,,,,,,,,,,,,,,,,,,,,HN3V3X,train_x,blue_star,bottom_left,2025-03-05_15h36.33.957,HideSeek_v1,2022.2.5,59.969151912616375,
,1,0,2,0,1,0,51,,train_dim1_1,9,30,,,,2,0,2,0,,,,,,,,,0,0,0,0,0,8,8,8,1,0,1,0,,,,,,,,,,,,,,,,,,,,,,,,,,,,,,,,,,,,,,,,,,,,,,,,,,,,,,,,,,,,,,,,30,,,,,,,,445.0979507002048,445.0979507002048,445.0979507002048,445.0979507002048,445.0979507002048,1,18,-0.08,-0.32,return,1.3104380001313984,4,0,0,0,-0.08,-0.32,return,1.230305299628526,,,,,,,,,,,,,,,,,,,,,,,,,,,,,,,,,,,,,,,,,,,,,,,,,,,,,,,,HN3V3X,train_x,blue_star,bottom_left,2025-03-05_15h36.33.957,HideSeek_v1,2022.2.5,59.969151912616375,
,0,3,5,3,5,0,11,,train_dim1_1,10,30,,,,2,0,2,0,,,,,,,,,0,0,0,0,0,9,9,9,0,0,0,0,,,,,,,,,,,,,,,,,,,,,,,,,stimuli/alien_stimuli/11.png,,,,,,,,,,,,,,,,,,,,,,,,,,,,,stimuli/alien_stimuli/51.png,51,1,11,,,,,,,30,,,,,,,,452.60133600002155,452.60133600002155,452.60133600002155,452.60133600002155,452.60133600002155,,,,,right,1.871950399596244,4,0,0,99,-0.08,-0.16,right,1.7787378998473287,451.0370975001715,452.60133600002155,0,-0.4,0.0,0.08,-0.4,0,-0.04,0,-0.4,447.9871218004264,447.9871218004264,447.9871218004264,447.9871218004264,447.9871218004264,447.9871218004264,447.9871218004264,447.9871218004264,447.9680765204597,3.1716359998099506,return,3.021614299621433,,,,,,,,,,,,,,,,,,,,,,,,,,,,,,,,,HN3V3X,train_x,blue_star,bottom_left,2025-03-05_15h36.33.957,HideSeek_v1,2022.2.5,59.969151912616375,
,0,3,5,3,5,0,11,,train_dim1_1,10,30,,,,2,0,2,0,,,,,,,,,0,0,0,0,0,9,9,9,1,0,1,0,,,,,,,,,,,,,,,,,,,,,,,,,,,,,,,,,,,,,,,,,,,,,,,,,,,,,,,,,,,,,,,,30,,,,,,,,454.4766766000539,454.4766766000539,454.4766766000539,454.4766766000539,454.4766766000539,,,,,right,0.4247787003405392,4,0,0,99,0.0,-0.16,right,0.33976579969748855,,,,,,,,,,,,,,,,,,,,,,,,,,,,,,,,,,,,,,,,,,,,,,,,,,,,,,,,HN3V3X,train_x,blue_star,bottom_left,2025-03-05_15h36.33.957,HideSeek_v1,2022.2.5,59.969151912616375,
,0,3,5,3,5,0,11,,train_dim1_1,10,30,,,,2,0,2,0,,,,,,,,,0,0,0,0,0,9,9,9,2,0,2,0,,,,,,,,,,,,,,,,,,,,,,,,,,,,,,,,,,,,,,,,,,,,,,,,,,,,,,,,,,,,,,,,30,,,,,,,,454.90810040012,454.90810040012,454.90810040012,454.90810040012,454.90810040012,,,,,right,0.5266193998977542,4,0,0,99,0.08,-0.16,right,0.43763479962944984,,,,,,,,,,,,,,,,,,,,,,,,,,,,,,,,,,,,,,,,,,,,,,,,,,,,,,,,HN3V3X,train_x,blue_star,bottom_left,2025-03-05_15h36.33.957,HideSeek_v1,2022.2.5,59.969151912616375,
,0,3,5,3,5,0,11,,train_dim1_1,10,30,,,,2,0,2,0,,,,,,,,,0,0,0,0,0,9,9,9,3,0,3,0,,,,,,,,,,,,,,,,,,,,,,,,,,,,,,,,,,,,,,,,,,,,,,,,,,,,,,,,,,,,,,,,30,,,,,,,,455.44132230011746,455.44132230011746,455.44132230011746,455.44132230011746,455.44132230011746,,,,,right,0.4767036000266671,4,0,0,99,0.16,-0.16,right,0.3856924995779991,,,,,,,,,,,,,,,,,,,,,,,,,,,,,,,,,,,,,,,,,,,,,,,,,,,,,,,,HN3V3X,train_x,blue_star,bottom_left,2025-03-05_15h36.33.957,HideSeek_v1,2022.2.5,59.969151912616375,
,0,3,5,3,5,0,11,,train_dim1_1,10,30,,,,2,0,2,0,,,,,,,,,0,0,0,0,0,9,9,9,4,0,4,0,,,,,,,,,,,,,,,,,,,,,,,,,,,,,,,,,,,,,,,,,,,,,,,,,,,,,,,,,,,,,,,,30,,,,,,,,455.92443380039185,455.92443380039185,455.92443380039185,455.92443380039185,455.92443380039185,,,,,right,0.5267440997995436,4,0,0,99,0.24,-0.16,right,0.4372425996698439,,,,,,,,,,,,,,,,,,,,,,,,,,,,,,,,,,,,,,,,,,,,,,,,,,,,,,,,HN3V3X,train_x,blue_star,bottom_left,2025-03-05_15h36.33.957,HideSeek_v1,2022.2.5,59.969151912616375,
,0,3,5,3,5,0,11,,train_dim1_1,10,30,,,,2,0,2,0,,,,,,,,,0,0,0,0,0,9,9,9,5,0,5,0,,,,,,,,,,,,,,,,,,,,,,,,,,,,,,,,,,,,,,,,,,,,,,,,,,,,,,,,,,,,,,,,30,,,,,,,,456.4594744001515,456.4594744001515,456.4594744001515,456.4594744001515,456.4594744001515,1,23,0.24,-0.16,return,2.261706900317222,5,0,0,1,0.24,-0.16,return,2.1819649995304644,,,,,,,,,,,,,,,,,,,,,,,,,,,,,,,,,,,,,,,,,,,,,,,,,,,,,,,,HN3V3X,train_x,blue_star,bottom_left,2025-03-05_15h36.33.957,HideSeek_v1,2022.2.5,59.969151912616375,
,2,2,5,2,3,0,31,,train_dim1_1,11,30,,,,2,0,2,0,,,,,,,,,0,0,0,0,0,10,10,10,0,0,0,0,,,,,,,,,,,,,,,,,,,,,,,,,stimuli/alien_stimuli/31.png,,,,,,,,,,,,,,,,,,,,,,,,,,,,,stimuli/alien_stimuli/11.png,11,0,12,,,,,,,30,,,,,,,,463.41585550038144,463.41585550038144,463.41585550038144,463.41585550038144,463.41585550038144,,,,,right,2.305417900439352,5,0,0,99,0.08,-0.24,right,2.211896199733019,461.8462365004234,463.41585550038144,0.24,-0.16,0.0,0.4,-0.16,0.24,0.039999999999999994,0.24,-0.16,460.30247610015795,460.30247610015795,460.30247610015795,460.30247610015795,460.30247610015795,460.30247610015795,460.30247610015795,460.30247610015795,460.29514008052644,1.669820100069046,return,1.5115391993895173,,,,,,,,,,,,,,,,,,,,,,,,,,,,,,,,,HN3V3X,train_x,blue_star,bottom_left,2025-03-05_15h36.33.957,HideSeek_v1,2022.2.5,59.969151912616375,
,2,2,5,2,3,0,31,,train_dim1_1,11,30,,,,2,0,2,0,,,,,,,,,0,0,0,0,0,10,10,10,1,0,1,0,,,,,,,,,,,,,,,,,,,,,,,,,,,,,,,,,,,,,,,,,,,,,,,,,,,,,,,,,,,,,,,,30,,,,,,,,465.71331490017474,465.71331490017474,465.71331490017474,465.71331490017474,465.71331490017474,,,,,right,0.5097162001766264,5,0,0,99,0.16,-0.24,right,0.4362110993824899,,,,,,,,,,,,,,,,,,,,,,,,,,,,,,,,,,,,,,,,,,,,,,,,,,,,,,,,HN3V3X,train_x,blue_star,bottom_left,2025-03-05_15h36.33.957,HideSeek_v1,2022.2.5,59.969151912616375,
,2,2,5,2,3,0,31,,train_dim1_1,11,30,,,,2,0,2,0,,,,,,,,,0,0,0,0,0,10,10,10,2,0,2,0,,,,,,,,,,,,,,,,,,,,,,,,,,,,,,,,,,,,,,,,,,,,,,,,,,,,,,,,,,,,,,,,30,,,,,,,,466.23030260019004,466.23030260019004,466.23030260019004,466.23030260019004,466.23030260019004,,,,,left,2.66237820032984,5,0,0,99,0.08,-0.24,left,2.582971199415624,,,,,,,,,,,,,,,,,,,,,,,,,,,,,,,,,,,,,,,,,,,,,,,,,,,,,,,,HN3V3X,train_x,blue_star,bottom_left,2025-03-05_15h36.33.957,HideSeek_v1,2022.2.5,59.969151912616375,
,2,2,5,2,3,0,31,,train_dim1_1,11,30,,,,2,0,2,0,,,,,,,,,0,0,0,0,0,10,10,10,3,0,3,0,,,,,,,,,,,,,,,,,,,,,,,,,,,,,,,,,,,,,,,,,,,,,,,,,,,,,,,,,,,,,,,,30,,,,,,,,468.9030826999806,468.9030826999806,468.9030826999806,468.9030826999806,468.9030826999806,,,,,left,0.20610459987074137,5,0,0,99,0.0,-0.24,left,0.13100309949368238,,,,,,,,,,,,,,,,,,,,,,,,,,,,,,,,,,,,,,,,,,,,,,,,,,,,,,,,HN3V3X,train_x,blue_star,bottom_left,2025-03-05_15h36.33.957,HideSeek_v1,2022.2.5,59.969151912616375,
,2,2,5,2,3,0,31,,train_dim1_1,11,30,,,,2,0,2,0,,,,,,,,,0,0,0,0,0,10,10,10,4,0,4,0,,,,,,,,,,,,,,,,,,,,,,,,,,,,,,,,,,,,,,,,,,,,,,,,,,,,,,,,,,,,,,,,30,,,,,,,,469.11639830004424,469.11639830004424,469.11639830004424,469.11639830004424,469.11639830004424,,,,,up,2.178009600378573,5,0,0,99,0.0,-0.15999999999999998,up,2.100649199914187,,,,,,,,,,,,,,,,,,,,,,,,,,,,,,,,,,,,,,,,,,,,,,,,,,,,,,,,HN3V3X,train_x,blue_star,bottom_left,2025-03-05_15h36.33.957,HideSeek_v1,2022.2.5,59.969151912616375,
,2,2,5,2,3,0,31,,train_dim1_1,11,30,,,,2,0,2,0,,,,,,,,,0,0,0,0,0,10,10,10,5,0,5,0,,,,,,,,,,,,,,,,,,,,,,,,,,,,,,,,,,,,,,,,,,,,,,,,,,,,,,,,,,,,,,,,30,,,,,,,,471.30077220033854,471.30077220033854,471.30077220033854,471.30077220033854,471.30077220033854,,,,,up,0.2763853003270924,5,0,0,99,0.0,-0.07999999999999997,up,0.18807629961520433,,,,,,,,,,,,,,,,,,,,,,,,,,,,,,,,,,,,,,,,,,,,,,,,,,,,,,,,HN3V3X,train_x,blue_star,bottom_left,2025-03-05_15h36.33.957,HideSeek_v1,2022.2.5,59.969151912616375,
,2,2,5,2,3,0,31,,train_dim1_1,11,30,,,,2,0,2,0,,,,,,,,,0,0,0,0,0,10,10,10,6,0,6,0,,,,,,,,,,,,,,,,,,,,,,,,,,,,,,,,,,,,,,,,,,,,,,,,,,,,,,,,,,,,,,,,30,,,,,,,,471.5838940003887,471.5838940003887,471.5838940003887,471.5838940003887,471.5838940003887,,,,,up,0.8605605000630021,5,0,0,99,0.0,2.7755575615628914e-17,up,0.7736515994183719,,,,,,,,,,,,,,,,,,,,,,,,,,,,,,,,,,,,,,,,,,,,,,,,,,,,,,,,HN3V3X,train_x,blue_star,bottom_left,2025-03-05_15h36.33.957,HideSeek_v1,2022.2.5,59.969151912616375,
,2,2,5,2,3,0,31,,train_dim1_1,11,30,,,,2,0,2,0,,,,,,,,,0,0,0,0,0,10,10,10,7,0,7,0,,,,,,,,,,,,,,,,,,,,,,,,,,,,,,,,,,,,,,,,,,,,,,,,,,,,,,,,,,,,,,,,30,,,,,,,,472.45258080028,472.45258080028,472.45258080028,472.45258080028,472.45258080028,4,23,0.0,2.7755575615628914e-17,return,5.980368199758232,5,0,0,0,0.0,2.7755575615628914e-17,return,5.899779999628663,,,,,,,,,,,,,,,,,,,,,,,,,,,,,,,,,,,,,,,,,,,,,,,,,,,,,,,,HN3V3X,train_x,blue_star,bottom_left,2025-03-05_15h36.33.957,HideSeek_v1,2022.2.5,59.969151912616375,
,0,0,4,0,4,0,21,,train_dim1_1,12,30,,,,2,0,2,0,,,,,,,,,0,0,0,0,0,11,11,11,0,0,0,0,,,,,,,,,,,,,,,,,,,,,,,,,stimuli/alien_stimuli/21.png,,,,,,,,,,,,,,,,,,,,,,,,,,,,,stimuli/alien_stimuli/31.png,31,2,13,,,,,,,30,,,,,,,,484.69557680003345,484.69557680003345,484.69557680003345,484.69557680003345,484.69557680003345,,,,,right,2.5881519000977278,5,0,0,99,-0.08,-0.4,right,2.5027882996946573,483.1305102002807,484.69557680003345,0.24,-0.24,0.0,0.24,-0.24,0.24,0.12,0.24,-0.24,480.0111792003736,480.0111792003736,480.0111792003736,480.0111792003736,480.0111792003736,480.0111792003736,480.0111792003736,480.0111792003736,479.994750320306,3.238353199791163,return,3.0927431997843087,,,,,,,,,,,,,,,,,,,,,,,,,,,,,,,,,HN3V3X,train_x,blue_star,bottom_left,2025-03-05_15h36.33.957,HideSeek_v1,2022.2.5,59.969151912616375,
,0,0,4,0,4,0,21,,train_dim1_1,12,30,,,,2,0,2,0,,,,,,,,,0,0,0,0,0,11,11,11,1,0,1,0,,,,,,,,,,,,,,,,,,,,,,,,,,,,,,,,,,,,,,,,,,,,,,,,,,,,,,,,,,,,,,,,30,,,,,,,,487.28669070033357,487.28669070033357,487.28669070033357,487.28669070033357,487.28669070033357,,,,,right,0.9093236001208425,5,0,0,99,0.0,-0.4,right,0.8193804998882115,,,,,,,,,,,,,,,,,,,,,,,,,,,,,,,,,,,,,,,,,,,,,,,,,,,,,,,,HN3V3X,train_x,blue_star,bottom_left,2025-03-05_15h36.33.957,HideSeek_v1,2022.2.5,59.969151912616375,
,0,0,4,0,4,0,21,,train_dim1_1,12,30,,,,2,0,2,0,,,,,,,,,0,0,0,0,0,11,11,11,2,0,2,0,,,,,,,,,,,,,,,,,,,,,,,,,,,,,,,,,,,,,,,,,,,,,,,,,,,,,,,,,,,,,,,,30,,,,,,,,488.2015700000338,488.2015700000338,488.2015700000338,488.2015700000338,488.2015700000338,,,,,right,0.5770522998645902,5,0,0,99,0.08,-0.4,right,0.4940029997378588,,,,,,,,,,,,,,,,,,,,,,,,,,,,,,,,,,,,,,,,,,,,,,,,,,,,,,,,HN3V3X,train_x,blue_star,bottom_left,2025-03-05_15h36.33.957,HideSeek_v1,2022.2.5,59.969151912616375,
,0,0,4,0,4,0,21,,train_dim1_1,12,30,,,,2,0,2,0,,,,,,,,,0,0,0,0,0,11,11,11,3,0,3,0,,,,,,,,,,,,,,,,,,,,,,,,,,,,,,,,,,,,,,,,,,,,,,,,,,,,,,,,,,,,,,,,30,,,,,,,,488.78662630030885,488.78662630030885,488.78662630030885,488.78662630030885,488.78662630030885,,,,,right,0.5266983001492918,5,0,0,99,0.16,-0.4,right,0.43508349964395165,,,,,,,,,,,,,,,,,,,,,,,,,,,,,,,,,,,,,,,,,,,,,,,,,,,,,,,,HN3V3X,train_x,blue_star,bottom_left,2025-03-05_15h36.33.957,HideSeek_v1,2022.2.5,59.969151912616375,
,0,0,4,0,4,0,21,,train_dim1_1,12,30,,,,2,0,2,0,,,,,,,,,0,0,0,0,0,11,11,11,4,0,4,0,,,,,,,,,,,,,,,,,,,,,,,,,,,,,,,,,,,,,,,,,,,,,,,,,,,,,,,,,,,,,,,,30,,,,,,,,489.3215840002522,489.3215840002522,489.3215840002522,489.3215840002522,489.3215840002522,4,27,0.16,-0.4,return,1.34263230022043,6,0,0,1,0.16,-0.4,return,1.2604342997074127,,,,,,,,,,,,,,,,,,,,,,,,,,,,,,,,,,,,,,,,,,,,,,,,,,,,,,,,HN3V3X,train_x,blue_star,bottom_left,2025-03-05_15h36.33.957,HideSeek_v1,2022.2.5,59.969151912616375,
,0,4,1,4,1,0,51,,train_dim1_1,13,30,,,,2,0,2,0,,,,,,,,,0,0,0,0,0,12,12,12,0,0,0,0,,,,,,,,,,,,,,,,,,,,,,,,,stimuli/alien_stimuli/51.png,,,,,,,,,,,,,,,,,,,,,,,,,,,,,stimuli/alien_stimuli/21.png,21,0,14,,,,,,,30,,,,,,,,495.54362200014293,495.54362200014293,495.54362200014293,495.54362200014293,495.54362200014293,,,,,right,2.2718988000415266,6,0,0,99,-0.08,-0.08,right,2.1775985998101532,493.973027900327,495.54362200014293,0.16,-0.4,0.0,0.32,-0.4,0.16,0.0,0.16,-0.4,492.254059900064,492.254059900064,492.254059900064,492.254059900064,492.254059900064,492.254059900064,492.254059900064,492.254059900064,492.23822128064927,1.8534287000074983,return,1.6867333999834955,,,,,,,,,,,,,,,,,,,,,,,,,,,,,,,,,HN3V3X,train_x,blue_star,bottom_left,2025-03-05_15h36.33.957,HideSeek_v1,2022.2.5,59.969151912616375,
,0,4,1,4,1,0,51,,train_dim1_1,13,30,,,,2,0,2,0,,,,,,,,,0,0,0,0,0,12,12,12,1,0,1,0,,,,,,,,,,,,,,,,,,,,,,,,,,,,,,,,,,,,,,,,,,,,,,,,,,,,,,,,,,,,,,,,30,,,,,,,,497.80991940014064,497.80991940014064,497.80991940014064,497.80991940014064,497.80991940014064,4,28,-0.08,-0.08,return,0.9763314998708665,7,0,0,1,-0.08,-0.08,return,0.894962599966675,,,,,,,,,,,,,,,,,,,,,,,,,,,,,,,,,,,,,,,,,,,,,,,,,,,,,,,,HN3V3X,train_x,blue_star,bottom_left,2025-03-05_15h36.33.957,HideSeek_v1,2022.2.5,59.969151912616375,
,4,3,9,3,5,0,11,,train_dim1_1,14,30,,,,2,0,2,0,,,,,,,,,0,0,0,0,0,13,13,13,0,0,0,0,,,,,,,,,,,,,,,,,,,,,,,,,stimuli/alien_stimuli/11.png,,,,,,,,,,,,,,,,,,,,,,,,,,,,,stimuli/alien_stimuli/51.png,51,0,15,,,,,,,30,,,,,,,,502.866662400309,502.866662400309,502.866662400309,502.866662400309,502.866662400309,,,,,right,2.018549000378698,7,0,0,99,0.24,-0.16,right,1.9022365999408066,501.2788937999867,502.866662400309,-0.08,-0.08,0.0,0.08,-0.08,-0.08,-0.12,-0.08,-0.08,500.35094640031457,500.35094640031457,500.35094640031457,500.35094640031457,500.35094640031457,500.35094640031457,500.35094640031457,500.35094640031457,500.3284065605141,1.0361415003426373,return,0.9065340994857252,,,,,,,,,,,,,,,,,,,,,,,,,,,,,,,,,HN3V3X,train_x,blue_star,bottom_left,2025-03-05_15h36.33.957,HideSeek_v1,2022.2.5,59.969151912616375,
,4,3,9,3,5,0,11,,train_dim1_1,14,30,,,,2,0,2,0,,,,,,,,,0,0,0,0,0,13,13,13,1,0,1,0,,,,,,,,,,,,,,,,,,,,,,,,,,,,,,,,,,,,,,,,,,,,,,,,,,,,,,,,,,,,,,,,30,,,,,,,,504.8693110002205,504.8693110002205,504.8693110002205,504.8693110002205,504.8693110002205,,,,,right,0.25697659980505705,7,0,0,99,0.32,-0.16,right,0.17146499967202544,,,,,,,,,,,,,,,,,,,,,,,,,,,,,,,,,,,,,,,,,,,,,,,,,,,,,,,,HN3V3X,train_x,blue_star,bottom_left,2025-03-05_15h36.33.957,HideSeek_v1,2022.2.5,59.969151912616375,
,4,3,9,3,5,0,11,,train_dim1_1,14,30,,,,2,0,2,0,,,,,,,,,0,0,0,0,0,13,13,13,2,0,2,0,,,,,,,,,,,,,,,,,,,,,,,,,,,,,,,,,,,,,,,,,,,,,,,,,,,,,,,,,,,,,,,,30,,,,,,,,505.13277780031785,505.13277780031785,505.13277780031785,505.13277780031785,505.13277780031785,,,,,right,0.3100173999555409,7,0,0,99,0.4,-0.16,right,0.2224817993119359,,,,,,,,,,,,,,,,,,,,,,,,,,,,,,,,,,,,,,,,,,,,,,,,,,,,,,,,HN3V3X,train_x,blue_star,bottom_left,2025-03-05_15h36.33.957,HideSeek_v1,2022.2.5,59.969151912616375,
,4,3,9,3,5,0,11,,train_dim1_1,14,30,,,,2,0,2,0,,,,,,,,,0,0,0,0,0,13,13,13,3,0,3,0,,,,,,,,,,,,,,,,,,,,,,,,,,,,,,,,,,,,,,,,,,,,,,,,,,,,,,,,,,,,,,,,30,,,,,,,,505.4499250999652,505.4499250999652,505.4499250999652,505.4499250999652,505.4499250999652,,,,,right,0.29299989994615316,7,0,0,99,0.48000000000000004,-0.16,right,0.2163068000227213,,,,,,,,,,,,,,,,,,,,,,,,,,,,,,,,,,,,,,,,,,,,,,,,,,,,,,,,HN3V3X,train_x,blue_star,bottom_left,2025-03-05_15h36.33.957,HideSeek_v1,2022.2.5,59.969151912616375,
,4,3,9,3,5,0,11,,train_dim1_1,14,30,,,,2,0,2,0,,,,,,,,,0,0,0,0,0,13,13,13,4,0,4,0,,,,,,,,,,,,,,,,,,,,,,,,,,,,,,,,,,,,,,,,,,,,,,,,,,,,,,,,,,,,,,,,30,,,,,,,,505.752465700265,505.752465700265,505.752465700265,505.752465700265,505.752465700265,,,,,right,0.8922397000715137,7,0,0,99,0.56,-0.16,right,0.8041655998677015,,,,,,,,,,,,,,,,,,,,,,,,,,,,,,,,,,,,,,,,,,,,,,,,,,,,,,,,HN3V3X,train_x,blue_star,bottom_left,2025-03-05_15h36.33.957,HideSeek_v1,2022.2.5,59.969151912616375,
,4,3,9,3,5,0,11,,train_dim1_1,14,30,,,,2,0,2,0,,,,,,,,,0,0,0,0,0,13,13,13,5,0,5,0,,,,,,,,,,,,,,,,,,,,,,,,,,,,,,,,,,,,,,,,,,,,,,,,,,,,,,,,,,,,,,,,30,,,,,,,,506.65073240036145,506.65073240036145,506.65073240036145,506.65073240036145,506.65073240036145,4,33,0.56,-0.16,return,0.9606177001260221,8,0,0,1,0.56,-0.16,return,0.8791909995488822,,,,,,,,,,,,,,,,,,,,,,,,,,,,,,,,,,,,,,,,,,,,,,,,,,,,,,,,HN3V3X,train_x,blue_star,bottom_left,2025-03-05_15h36.33.957,HideSeek_v1,2022.2.5,59.969151912616375,
,4,2,4,2,0,0,61,,train_dim1_1,15,30,,,,2,0,2,0,,,,,,,,,0,0,0,0,0,14,14,14,0,0,0,0,,,,,,,,,,,,,,,,,,,,,,,,,stimuli/alien_stimuli/61.png,,,,,,,,,,,,,,,,,,,,,,,,,,,,,stimuli/alien_stimuli/11.png,11,4,16,,,,,,,30,,,,,,,,511.5316125000827,511.5316125000827,511.5316125000827,511.5316125000827,511.5316125000827,4,33,0.16,-0.24,return,2.539303599856794,9,0,0,1,0.16,-0.24,return,2.4305894998833537,509.9526941003278,511.5316125000827,0.56,-0.16,0.0,0.4,-0.16,0.56,0.36000000000000004,0.56,-0.16,509.1794033003971,509.1794033003971,509.1794033003971,509.1794033003971,509.1794033003971,509.1794033003971,509.1794033003971,509.1794033003971,509.1688816206064,0.8860928998328745,return,0.7427738993428648,,,,,,,,,,,,,,,,,,,,,,,,,,,,,,,,,HN3V3X,train_x,blue_star,bottom_left,2025-03-05_15h36.33.957,HideSeek_v1,2022.2.5,59.969151912616375,
,3,3,4,3,1,0,51,,train_dim1_1,16,30,,,,2,0,2,0,,,,,,,,,0,0,0,0,0,15,15,15,0,0,0,0,,,,,,,,,,,,,,,,,,,,,,,,,stimuli/alien_stimuli/51.png,,,,,,,,,,,,,,,,,,,,,,,,,,,,,stimuli/alien_stimuli/61.png,61,4,17,,,,,,,30,,,,,,,,518.0222238004208,518.0222238004208,518.0222238004208,518.0222238004208,518.0222238004208,,,,,right,1.8698391001671553,9,0,0,99,0.16,-0.16,right,1.7753514996729791,516.4581032004207,518.0222238004208,0.16,-0.24,0.0,0.0,-0.24,0.16,0.16,0.16,-0.24,515.6138810999691,515.6138810999691,515.6138810999691,515.6138810999691,515.6138810999691,515.6138810999691,515.6138810999691,515.6138810999691,515.5909400603734,0.9525370998308063,return,0.812234899494797,,,,,,,,,,,,,,,,,,,,,,,,,,,,,,,,,HN3V3X,train_x,blue_star,bottom_left,2025-03-05_15h36.33.957,HideSeek_v1,2022.2.5,59.969151912616375,
,3,3,4,3,1,0,51,,train_dim1_1,16,30,,,,2,0,2,0,,,,,,,,,0,0,0,0,0,15,15,15,1,0,1,0,,,,,,,,,,,,,,,,,,,,,,,,,,,,,,,,,,,,,,,,,,,,,,,,,,,,,,,,,,,,,,,,30,,,,,,,,519.8944473001175,519.8944473001175,519.8944473001175,519.8944473001175,519.8944473001175,4,34,0.16,-0.16,return,0.3254702999256551,10,0,0,1,0.16,-0.16,return,0.2491837996058166,,,,,,,,,,,,,,,,,,,,,,,,,,,,,,,,,,,,,,,,,,,,,,,,,,,,,,,,HN3V3X,train_x,blue_star,bottom_left,2025-03-05_15h36.33.957,HideSeek_v1,2022.2.5,59.969151912616375,
,2,4,6,4,4,0,21,,train_dim1_1,17,30,,,,2,0,2,0,,,,,,,,,0,0,0,0,0,16,16,16,0,0,0,0,,,,,,,,,,,,,,,,,,,,,,,,,stimuli/alien_stimuli/21.png,,,,,,,,,,,,,,,,,,,,,,,,,,,,,stimuli/alien_stimuli/51.png,51,3,18,,,,,,,30,,,,,,,,524.0490377000533,524.0490377000533,524.0490377000533,524.0490377000533,524.0490377000533,,,,,right,1.399815899785608,10,0,0,99,0.08,-0.08,right,1.3087053000926971,522.4797070003115,524.0490377000533,0.16,-0.16,0.0,0.08,-0.16,0.16,0.12,0.16,-0.16,521.7858313000761,521.7858313000761,521.7858313000761,521.7858313000761,521.7858313000761,521.7858313000761,521.7858313000761,521.7858313000761,521.7629117605277,0.8026018003001809,return,0.6780520994216204,,,,,,,,,,,,,,,,,,,,,,,,,,,,,,,,,HN3V3X,train_x,blue_star,bottom_left,2025-03-05_15h36.33.957,HideSeek_v1,2022.2.5,59.969151912616375,
,2,4,6,4,4,0,21,,train_dim1_1,17,30,,,,2,0,2,0,,,,,,,,,0,0,0,0,0,16,16,16,1,0,1,0,,,,,,,,,,,,,,,,,,,,,,,,,,,,,,,,,,,,,,,,,,,,,,,,,,,,,,,,,,,,,,,,30,,,,,,,,525.4518439001404,525.4518439001404,525.4518439001404,525.4518439001404,525.4518439001404,,,,,right,0.37476029992103577,10,0,0,99,0.16,-0.08,right,0.2854727995581925,,,,,,,,,,,,,,,,,,,,,,,,,,,,,,,,,,,,,,,,,,,,,,,,,,,,,,,,HN3V3X,train_x,blue_star,bottom_left,2025-03-05_15h36.33.957,HideSeek_v1,2022.2.5,59.969151912616375,
,2,4,6,4,4,0,21,,train_dim1_1,17,30,,,,2,0,2,0,,,,,,,,,0,0,0,0,0,16,16,16,2,0,2,0,,,,,,,,,,,,,,,,,,,,,,,,,,,,,,,,,,,,,,,,,,,,,,,,,,,,,,,,,,,,,,,,30,,,,,,,,525.833513200283,525.833513200283,525.833513200283,525.833513200283,525.833513200283,,,,,right,0.409646799787879,10,0,0,99,0.24,-0.08,right,0.31930379988625646,,,,,,,,,,,,,,,,,,,,,,,,,,,,,,,,,,,,,,,,,,,,,,,,,,,,,,,,HN3V3X,train_x,blue_star,bottom_left,2025-03-05_15h36.33.957,HideSeek_v1,2022.2.5,59.969151912616375,
,2,4,6,4,4,0,21,,train_dim1_1,17,30,,,,2,0,2,0,,,,,,,,,0,0,0,0,0,16,16,16,3,0,3,0,,,,,,,,,,,,,,,,,,,,,,,,,,,,,,,,,,,,,,,,,,,,,,,,,,,,,,,,,,,,,,,,30,,,,,,,,526.2519509000704,526.2519509000704,526.2519509000704,526.2519509000704,526.2519509000704,,,,,right,0.35901759983971715,10,0,0,99,0.32,-0.08,right,0.27701349975541234,,,,,,,,,,,,,,,,,,,,,,,,,,,,,,,,,,,,,,,,,,,,,,,,,,,,,,,,HN3V3X,train_x,blue_star,bottom_left,2025-03-05_15h36.33.957,HideSeek_v1,2022.2.5,59.969151912616375,
,2,4,6,4,4,0,21,,train_dim1_1,17,30,,,,2,0,2,0,,,,,,,,,0,0,0,0,0,16,16,16,4,0,4,0,,,,,,,,,,,,,,,,,,,,,,,,,,,,,,,,,,,,,,,,,,,,,,,,,,,,,,,,,,,,,,,,30,,,,,,,,526.6171719999984,526.6171719999984,526.6171719999984,526.6171719999984,526.6171719999984,4,38,0.32,-0.08,return,0.9429253996349871,11,0,0,1,0.32,-0.08,return,0.853175699710846,,,,,,,,,,,,,,,,,,,,,,,,,,,,,,,,,,,,,,,,,,,,,,,,,,,,,,,,HN3V3X,train_x,blue_star,bottom_left,2025-03-05_15h36.33.957,HideSeek_v1,2022.2.5,59.969151912616375,
,2,1,2,1,0,0,61,,train_dim1_1,18,30,,,,2,0,2,0,,,,,,,,,0,0,0,0,0,17,17,17,0,0,0,0,,,,,,,,,,,,,,,,,,,,,,,,,stimuli/alien_stimuli/61.png,,,,,,,,,,,,,,,,,,,,,,,,,,,,,stimuli/alien_stimuli/21.png,21,2,19,,,,,,,30,,,,,,,,531.351821700111,531.351821700111,531.351821700111,531.351821700111,531.351821700111,4,38,0,-0.32,return,1.134932900313288,12,0,0,1,0,-0.32,return,1.0232546995393932,529.7690719002858,531.351821700111,0.32,-0.08,0.0,0.32,-0.08,0.32,0.16,0.32,-0.08,529.1282236999832,529.1282236999832,529.1282236999832,529.1282236999832,529.1282236999832,529.1282236999832,529.1282236999832,529.1282236999832,529.1188854205889,0.7529641003347933,return,0.6235103998333216,,,,,,,,,,,,,,,,,,,,,,,,,,,,,,,,,HN3V3X,train_x,blue_star,bottom_left,2025-03-05_15h36.33.957,HideSeek_v1,2022.2.5,59.969151912616375,
,0,3,3,3,3,0,31,,train_dim1_1,19,30,,,,2,0,2,0,,,,,,,,,0,0,0,0,0,18,18,18,0,0,0,0,,,,,,,,,,,,,,,,,,,,,,,,,stimuli/alien_stimuli/31.png,,,,,,,,,,,,,,,,,,,,,,,,,,,,,stimuli/alien_stimuli/61.png,61,2,20,,,,,,,30,,,,,,,,536.3345111003146,536.3345111003146,536.3345111003146,536.3345111003146,536.3345111003146,,,,,right,1.4376044003292918,12,0,0,99,-0.08,-0.16,right,1.3574476996436715,534.7733862004243,536.3345111003146,0,-0.32,0.0,0.0,-0.32,0,0.0,0,-0.32,534.0280892001465,534.0280892001465,534.0280892001465,534.0280892001465,534.0280892001465,534.0280892001465,534.0280892001465,534.0280892001465,534.0062754604035,0.8527368996292353,return,0.7160949995741248,,,,,,,,,,,,,,,,,,,,,,,,,,,,,,,,,HN3V3X,train_x,blue_star,bottom_left,2025-03-05_15h36.33.957,HideSeek_v1,2022.2.5,59.969151912616375,
,0,3,3,3,3,0,31,,train_dim1_1,19,30,,,,2,0,2,0,,,,,,,,,0,0,0,0,0,18,18,18,1,0,1,0,,,,,,,,,,,,,,,,,,,,,,,,,,,,,,,,,,,,,,,,,,,,,,,,,,,,,,,,,,,,,,,,30,,,,,,,,537.7750975000672,537.7750975000672,537.7750975000672,537.7750975000672,537.7750975000672,,,,,right,0.35802980000153184,12,0,0,99,0.0,-0.16,right,0.27918169973418117,,,,,,,,,,,,,,,,,,,,,,,,,,,,,,,,,,,,,,,,,,,,,,,,,,,,,,,,HN3V3X,train_x,blue_star,bottom_left,2025-03-05_15h36.33.957,HideSeek_v1,2022.2.5,59.969151912616375,
,0,3,3,3,3,0,31,,train_dim1_1,19,30,,,,2,0,2,0,,,,,,,,,0,0,0,0,0,18,18,18,2,0,2,0,,,,,,,,,,,,,,,,,,,,,,,,,,,,,,,,,,,,,,,,,,,,,,,,,,,,,,,,,,,,,,,,30,,,,,,,,538.140111700166,538.140111700166,538.140111700166,538.140111700166,538.140111700166,,,,,right,0.34272929979488254,12,0,0,99,0.08,-0.16,right,0.2543014995753765,,,,,,,,,,,,,,,,,,,,,,,,,,,,,,,,,,,,,,,,,,,,,,,,,,,,,,,,HN3V3X,train_x,blue_star,bottom_left,2025-03-05_15h36.33.957,HideSeek_v1,2022.2.5,59.969151912616375,
,0,3,3,3,3,0,31,,train_dim1_1,19,30,,,,2,0,2,0,,,,,,,,,0,0,0,0,0,18,18,18,3,0,3,0,,,,,,,,,,,,,,,,,,,,,,,,,,,,,,,,,,,,,,,,,,,,,,,,,,,,,,,,,,,,,,,,30,,,,,,,,538.4898851001635,538.4898851001635,538.4898851001635,538.4898851001635,538.4898851001635,4,41,0.08,-0.16,return,0.46011359989643097,13,0,0,1,0.08,-0.16,return,0.38561620004475117,,,,,,,,,,,,,,,,,,,,,,,,,,,,,,,,,,,,,,,,,,,,,,,,,,,,,,,,HN3V3X,train_x,blue_star,bottom_left,2025-03-05_15h36.33.957,HideSeek_v1,2022.2.5,59.969151912616375,
,0,1,5,1,5,0,11,,train_dim1_1,20,30,,,,2,0,2,0,,,,,,,,,0,0,0,0,0,19,19,19,0,0,0,0,,,,,,,,,,,,,,,,,,,,,,,,,stimuli/alien_stimuli/11.png,,,,,,,,,,,,,,,,,,,,,,,,,,,,,stimuli/alien_stimuli/31.png,31,0,21,,,,,,,30,,,,,,,,542.5955913001671,542.5955913001671,542.5955913001671,542.5955913001671,542.5955913001671,,,,,right,1.0012550000101328,13,0,0,99,-0.08,-0.32,right,0.9181076996028423,541.0285527002998,542.5955913001671,0.08,-0.16,0.0,0.24,-0.16,0.08,-0.04,0.08,-0.16,540.5163112003356,540.5163112003356,540.5163112003356,540.5163112003356,540.5163112003356,540.5163112003356,540.5163112003356,540.5163112003356,540.4951260604896,0.6188468998298049,return,0.48931479966267943,,,,,,,,,,,,,,,,,,,,,,,,,,,,,,,,,HN3V3X,train_x,blue_star,bottom_left,2025-03-05_15h36.33.957,HideSeek_v1,2022.2.5,59.969151912616375,
,0,1,5,1,5,0,11,,train_dim1_1,20,30,,,,2,0,2,0,,,,,,,,,0,0,0,0,0,19,19,19,1,0,1,0,,,,,,,,,,,,,,,,,,,,,,,,,,,,,,,,,,,,,,,,,,,,,,,,,,,,,,,,,,,,,,,,30,,,,,,,,543.5977720003575,543.5977720003575,543.5977720003575,543.5977720003575,543.5977720003575,,,,,right,0.24272600002586842,13,0,0,99,0.0,-0.32,right,0.15810269955545664,,,,,,,,,,,,,,,,,,,,,,,,,,,,,,,,,,,,,,,,,,,,,,,,,,,,,,,,HN3V3X,train_x,blue_star,bottom_left,2025-03-05_15h36.33.957,HideSeek_v1,2022.2.5,59.969151912616375,
,0,1,5,1,5,0,11,,train_dim1_1,20,30,,,,2,0,2,0,,,,,,,,,0,0,0,0,0,19,19,19,2,0,2,0,,,,,,,,,,,,,,,,,,,,,,,,,,,,,,,,,,,,,,,,,,,,,,,,,,,,,,,,,,,,,,,,30,,,,,,,,543.8480728999712,543.8480728999712,543.8480728999712,543.8480728999712,543.8480728999712,,,,,right,0.24329950008541346,13,0,0,99,0.08,-0.32,right,0.16587099991738796,,,,,,,,,,,,,,,,,,,,,,,,,,,,,,,,,,,,,,,,,,,,,,,,,,,,,,,,HN3V3X,train_x,blue_star,bottom_left,2025-03-05_15h36.33.957,HideSeek_v1,2022.2.5,59.969151912616375,
,0,1,5,1,5,0,11,,train_dim1_1,20,30,,,,2,0,2,0,,,,,,,,,0,0,0,0,0,19,19,19,3,0,3,0,,,,,,,,,,,,,,,,,,,,,,,,,,,,,,,,,,,,,,,,,,,,,,,,,,,,,,,,,,,,,,,,30,,,,,,,,544.09851180017,544.09851180017,544.09851180017,544.09851180017,544.09851180017,,,,,right,0.2600124003365636,13,0,0,99,0.16,-0.32,right,0.17357949959114194,,,,,,,,,,,,,,,,,,,,,,,,,,,,,,,,,,,,,,,,,,,,,,,,,,,,,,,,HN3V3X,train_x,blue_star,bottom_left,2025-03-05_15h36.33.957,HideSeek_v1,2022.2.5,59.969151912616375,
,0,1,5,1,5,0,11,,train_dim1_1,20,30,,,,2,0,2,0,,,,,,,,,0,0,0,0,0,19,19,19,4,0,4,0,,,,,,,,,,,,,,,,,,,,,,,,,,,,,,,,,,,,,,,,,,,,,,,,,,,,,,,,,,,,,,,,30,,,,,,,,544.3657462000847,544.3657462000847,544.3657462000847,544.3657462000847,544.3657462000847,,,,,right,0.27653840044513345,13,0,0,99,0.24,-0.32,right,0.18929479969665408,,,,,,,,,,,,,,,,,,,,,,,,,,,,,,,,,,,,,,,,,,,,,,,,,,,,,,,,HN3V3X,train_x,blue_star,bottom_left,2025-03-05_15h36.33.957,HideSeek_v1,2022.2.5,59.969151912616375,
,0,1,5,1,5,0,11,,train_dim1_1,20,30,,,,2,0,2,0,,,,,,,,,0,0,0,0,0,19,19,19,5,0,5,0,,,,,,,,,,,,,,,,,,,,,,,,,,,,,,,,,,,,,,,,,,,,,,,,,,,,,,,,,,,,,,,,30,,,,,,,,544.6482567000203,544.6482567000203,544.6482567000203,544.6482567000203,544.6482567000203,4,46,0.24,-0.32,return,0.5769000998698175,14,0,0,1,0.24,-0.32,return,0.4915100997313857,,,,,,,,,,,,,,,,,,,,,,,,,,,,,,,,,,,,,,,,,,,,,,,,,,,,,,,,HN3V3X,train_x,blue_star,bottom_left,2025-03-05_15h36.33.957,HideSeek_v1,2022.2.5,59.969151912616375,
,4,2,7,2,3,0,31,,train_dim1_1,21,30,,,,2,0,2,0,,,,,,,,,0,0,0,0,0,20,20,20,0,0,0,0,,,,,,,,,,,,,,,,,,,,,,,,,stimuli/alien_stimuli/31.png,,,,,,,,,,,,,,,,,,,,,,,,,,,,,stimuli/alien_stimuli/11.png,11,0,22,,,,,,,30,,,,,,,,548.6788553004153,548.6788553004153,548.6788553004153,548.6788553004153,548.6788553004153,,,,,right,1.3194074002094567,14,0,0,99,0.24,-0.24,right,1.2270733998157084,547.116926799994,548.6788553004153,0.24,-0.32,0.0,0.4,-0.32,0.24,0.039999999999999994,0.24,-0.32,546.795475400053,546.795475400053,546.795475400053,546.795475400053,546.795475400053,546.795475400053,546.795475400053,546.795475400053,546.7834617205431,0.4353446997702122,return,0.2949995994567871,,,,,,,,,,,,,,,,,,,,,,,,,,,,,,,,,HN3V3X,train_x,blue_star,bottom_left,2025-03-05_15h36.33.957,HideSeek_v1,2022.2.5,59.969151912616375,
,4,2,7,2,3,0,31,,train_dim1_1,21,30,,,,2,0,2,0,,,,,,,,,0,0,0,0,0,20,20,20,1,0,1,0,,,,,,,,,,,,,,,,,,,,,,,,,,,,,,,,,,,,,,,,,,,,,,,,,,,,,,,,,,,,,,,,30,,,,,,,,549.9993234002031,549.9993234002031,549.9993234002031,549.9993234002031,549.9993234002031,,,,,right,0.37657770002260804,14,0,0,99,0.32,-0.24,right,0.2884873994626105,,,,,,,,,,,,,,,,,,,,,,,,,,,,,,,,,,,,,,,,,,,,,,,,,,,,,,,,HN3V3X,train_x,blue_star,bottom_left,2025-03-05_15h36.33.957,HideSeek_v1,2022.2.5,59.969151912616375,
,4,2,7,2,3,0,31,,train_dim1_1,21,30,,,,2,0,2,0,,,,,,,,,0,0,0,0,0,20,20,20,2,0,2,0,,,,,,,,,,,,,,,,,,,,,,,,,,,,,,,,,,,,,,,,,,,,,,,,,,,,,,,,,,,,,,,,30,,,,,,,,550.3838433003984,550.3838433003984,550.3838433003984,550.3838433003984,550.3838433003984,,,,,right,0.3098938004113734,14,0,0,99,0.4,-0.24,right,0.231426399666816,,,,,,,,,,,,,,,,,,,,,,,,,,,,,,,,,,,,,,,,,,,,,,,,,,,,,,,,HN3V3X,train_x,blue_star,bottom_left,2025-03-05_15h36.33.957,HideSeek_v1,2022.2.5,59.969151912616375,
,4,2,7,2,3,0,31,,train_dim1_1,21,30,,,,2,0,2,0,,,,,,,,,0,0,0,0,0,20,20,20,3,0,3,0,,,,,,,,,,,,,,,,,,,,,,,,,,,,,,,,,,,,,,,,,,,,,,,,,,,,,,,,,,,,,,,,30,,,,,,,,550.6999921002425,550.6999921002425,550.6999921002425,550.6999921002425,550.6999921002425,4,49,0.4,-0.24,return,0.49368140008300543,15,0,0,1,0.4,-0.24,return,0.41550559969618917,,,,,,,,,,,,,,,,,,,,,,,,,,,,,,,,,,,,,,,,,,,,,,,,,,,,,,,,HN3V3X,train_x,blue_star,bottom_left,2025-03-05_15h36.33.957,HideSeek_v1,2022.2.5,59.969151912616375,
,1,0,5,0,4,0,21,,train_dim1_1,22,30,,,,2,0,2,0,,,,,,,,,0,0,0,0,0,21,21,21,0,0,0,0,,,,,,,,,,,,,,,,,,,,,,,,,stimuli/alien_stimuli/21.png,,,,,,,,,,,,,,,,,,,,,,,,,,,,,stimuli/alien_stimuli/31.png,31,4,23,,,,,,,30,,,,,,,,555.0402495004237,555.0402495004237,555.0402495004237,555.0402495004237,555.0402495004237,,,,,right,1.2342268000356853,15,0,0,99,0.0,-0.4,right,1.1246827994473279,553.4556472999975,555.0402495004237,0.4,-0.24,0.0,0.24,-0.24,0.4,0.28,0.4,-0.24,552.757203000132,552.757203000132,552.757203000132,552.757203000132,552.757203000132,552.757203000132,552.757203000132,552.757203000132,552.7383022604511,0.8025655001401901,return,0.6661016996949911,,,,,,,,,,,,,,,,,,,,,,,,,,,,,,,,,HN3V3X,train_x,blue_star,bottom_left,2025-03-05_15h36.33.957,HideSeek_v1,2022.2.5,59.969151912616375,
,1,0,5,0,4,0,21,,train_dim1_1,22,30,,,,2,0,2,0,,,,,,,,,0,0,0,0,0,21,21,21,1,0,1,0,,,,,,,,,,,,,,,,,,,,,,,,,,,,,,,,,,,,,,,,,,,,,,,,,,,,,,,,,,,,,,,,30,,,,,,,,556.2596978000365,556.2596978000365,556.2596978000365,556.2596978000365,556.2596978000365,,,,,right,0.30931879999116063,15,0,0,99,0.08,-0.4,right,0.21928599989041686,,,,,,,,,,,,,,,,,,,,,,,,,,,,,,,,,,,,,,,,,,,,,,,,,,,,,,,,HN3V3X,train_x,blue_star,bottom_left,2025-03-05_15h36.33.957,HideSeek_v1,2022.2.5,59.969151912616375,
,1,0,5,0,4,0,21,,train_dim1_1,22,30,,,,2,0,2,0,,,,,,,,,0,0,0,0,0,21,21,21,2,0,2,0,,,,,,,,,,,,,,,,,,,,,,,,,,,,,,,,,,,,,,,,,,,,,,,,,,,,,,,,,,,,,,,,30,,,,,,,,556.574517800007,556.574517800007,556.574517800007,556.574517800007,556.574517800007,,,,,right,0.2765444000251591,15,0,0,99,0.16,-0.4,right,0.18807049980387092,,,,,,,,,,,,,,,,,,,,,,,,,,,,,,,,,,,,,,,,,,,,,,,,,,,,,,,,HN3V3X,train_x,blue_star,bottom_left,2025-03-05_15h36.33.957,HideSeek_v1,2022.2.5,59.969151912616375,
,1,0,5,0,4,0,21,,train_dim1_1,22,30,,,,2,0,2,0,,,,,,,,,0,0,0,0,0,21,21,21,3,0,3,0,,,,,,,,,,,,,,,,,,,,,,,,,,,,,,,,,,,,,,,,,,,,,,,,,,,,,,,,,,,,,,,,30,,,,,,,,556.8589892000891,556.8589892000891,556.8589892000891,556.8589892000891,556.8589892000891,,,,,right,0.32660650042816997,15,0,0,99,0.24,-0.4,right,0.2360043996013701,,,,,,,,,,,,,,,,,,,,,,,,,,,,,,,,,,,,,,,,,,,,,,,,,,,,,,,,HN3V3X,train_x,blue_star,bottom_left,2025-03-05_15h36.33.957,HideSeek_v1,2022.2.5,59.969151912616375,
,1,0,5,0,4,0,21,,train_dim1_1,22,30,,,,2,0,2,0,,,,,,,,,0,0,0,0,0,21,21,21,4,0,4,0,,,,,,,,,,,,,,,,,,,,,,,,,,,,,,,,,,,,,,,,,,,,,,,,,,,,,,,,,,,,,,,,30,,,,,,,,557.1925729000941,557.1925729000941,557.1925729000941,557.1925729000941,557.1925729000941,4,53,0.24,-0.4,return,0.5262597999535501,16,0,0,1,0.24,-0.4,return,0.4429863994009793,,,,,,,,,,,,,,,,,,,,,,,,,,,,,,,,,,,,,,,,,,,,,,,,,,,,,,,,HN3V3X,train_x,blue_star,bottom_left,2025-03-05_15h36.33.957,HideSeek_v1,2022.2.5,59.969151912616375,
,2,1,2,1,0,0,61,,train_dim1_1,23,30,,,,2,0,2,0,,,,,,,,,0,0,0,0,0,22,22,22,0,0,0,0,,,,,,,,,,,,,,,,,,,,,,,,,stimuli/alien_stimuli/61.png,,,,,,,,,,,,,,,,,,,,,,,,,,,,,stimuli/alien_stimuli/21.png,21,1,24,,,,,,,30,,,,,,,,561.9709548000246,561.9709548000246,561.9709548000246,561.9709548000246,561.9709548000246,4,53,0,-0.32,return,1.2694983999244869,17,0,0,1,0,-0.32,return,1.165861299727112,560.3948025000282,561.9709548000246,0.24,-0.4,0.0,0.32,-0.4,0.24,0.07999999999999999,0.24,-0.4,559.2871435000561,559.2871435000561,559.2871435000561,559.2871435000561,559.2871435000561,559.2871435000561,559.2871435000561,559.2871435000561,559.2774006206078,1.2191901998594403,return,1.0779307992197573,,,,,,,,,,,,,,,,,,,,,,,,,,,,,,,,,HN3V3X,train_x,blue_star,bottom_left,2025-03-05_15h36.33.957,HideSeek_v1,2022.2.5,59.969151912616375,
,4,4,5,4,1,0,51,,train_dim1_1,24,30,,,,2,0,2,0,,,,,,,,,0,0,0,0,0,23,23,23,0,0,0,0,,,,,,,,,,,,,,,,,,,,,,,,,stimuli/alien_stimuli/51.png,,,,,,,,,,,,,,,,,,,,,,,,,,,,,stimuli/alien_stimuli/61.png,61,2,25,,,,,,,30,,,,,,,,566.7793321004137,566.7793321004137,566.7793321004137,566.7793321004137,566.7793321004137,,,,,right,1.254179900046438,17,0,0,99,0.24,-0.08,right,1.1713338997215033,565.2153456001543,566.7793321004137,0,-0.32,0.0,0.0,-0.32,0,0.0,0,-0.32,564.785307300277,564.785307300277,564.785307300277,564.785307300277,564.785307300277,564.785307300277,564.785307300277,564.785307300277,564.7649628601969,0.5360958999954164,return,0.40639299945905805,,,,,,,,,,,,,,,,,,,,,,,,,,,,,,,,,HN3V3X,train_x,blue_star,bottom_left,2025-03-05_15h36.33.957,HideSeek_v1,2022.2.5,59.969151912616375,
,4,4,5,4,1,0,51,,train_dim1_1,24,30,,,,2,0,2,0,,,,,,,,,0,0,0,0,0,23,23,23,1,0,1,0,,,,,,,,,,,,,,,,,,,,,,,,,,,,,,,,,,,,,,,,,,,,,,,,,,,,,,,,,,,,,,,,30,,,,,,,,568.0331038003787,568.0331038003787,568.0331038003787,568.0331038003787,568.0331038003787,4,54,0.24,-0.08,return,0.3595587001182139,18,0,0,1,0.24,-0.08,return,0.2758065997622907,,,,,,,,,,,,,,,,,,,,,,,,,,,,,,,,,,,,,,,,,,,,,,,,,,,,,,,,HN3V3X,train_x,blue_star,bottom_left,2025-03-05_15h36.33.957,HideSeek_v1,2022.2.5,59.969151912616375,
,3,0,8,0,5,0,11,,train_dim1_1,25,30,,,,2,0,2,0,,,,,,,,,0,0,0,0,0,24,24,24,0,0,0,0,,,,,,,,,,,,,,,,,,,,,,,,,stimuli/alien_stimuli/11.png,,,,,,,,,,,,,,,,,,,,,,,,,,,,,stimuli/alien_stimuli/51.png,51,4,26,,,,,,,30,,,,,,,,572.590556900017,572.590556900017,572.590556900017,572.590556900017,572.590556900017,,,,,right,0.999021400231868,18,0,0,99,0.16,-0.4,right,0.9127964996732771,571.0200697002001,572.590556900017,0.24,-0.08,0.0,0.08,-0.08,0.24,0.2,0.24,-0.08,569.9586325003766,569.9586325003766,569.9586325003766,569.9586325003766,569.9586325003766,569.9586325003766,569.9586325003766,569.9586325003766,569.9359224604443,1.1698227003216743,return,1.0292247999459505,,,,,,,,,,,,,,,,,,,,,,,,,,,,,,,,,HN3V3X,train_x,blue_star,bottom_left,2025-03-05_15h36.33.957,HideSeek_v1,2022.2.5,59.969151912616375,
,3,0,8,0,5,0,11,,train_dim1_1,25,30,,,,2,0,2,0,,,,,,,,,0,0,0,0,0,24,24,24,1,0,1,0,,,,,,,,,,,,,,,,,,,,,,,,,,,,,,,,,,,,,,,,,,,,,,,,,,,,,,,,,,,,,,,,30,,,,,,,,573.5894693001173,573.5894693001173,573.5894693001173,573.5894693001173,573.5894693001173,,,,,right,0.27593509992584586,18,0,0,99,0.24,-0.4,right,0.18748739967122674,,,,,,,,,,,,,,,,,,,,,,,,,,,,,,,,,,,,,,,,,,,,,,,,,,,,,,,,HN3V3X,train_x,blue_star,bottom_left,2025-03-05_15h36.33.957,HideSeek_v1,2022.2.5,59.969151912616375,
,3,0,8,0,5,0,11,,train_dim1_1,25,30,,,,2,0,2,0,,,,,,,,,0,0,0,0,0,24,24,24,2,0,2,0,,,,,,,,,,,,,,,,,,,,,,,,,,,,,,,,,,,,,,,,,,,,,,,,,,,,,,,,,,,,,,,,30,,,,,,,,573.8730503004044,573.8730503004044,573.8730503004044,573.8730503004044,573.8730503004044,,,,,right,0.26005619997158647,18,0,0,99,0.32,-0.4,right,0.18092019949108362,,,,,,,,,,,,,,,,,,,,,,,,,,,,,,,,,,,,,,,,,,,,,,,,,,,,,,,,HN3V3X,train_x,blue_star,bottom_left,2025-03-05_15h36.33.957,HideSeek_v1,2022.2.5,59.969151912616375,
,3,0,8,0,5,0,11,,train_dim1_1,25,30,,,,2,0,2,0,,,,,,,,,0,0,0,0,0,24,24,24,3,0,3,0,,,,,,,,,,,,,,,,,,,,,,,,,,,,,,,,,,,,,,,,,,,,,,,,,,,,,,,,,,,,,,,,30,,,,,,,,574.1398289999925,574.1398289999925,574.1398289999925,574.1398289999925,574.1398289999925,,,,,right,0.2764465999789536,18,0,0,99,0.4,-0.4,right,0.19754059985280037,,,,,,,,,,,,,,,,,,,,,,,,,,,,,,,,,,,,,,,,,,,,,,,,,,,,,,,,HN3V3X,train_x,blue_star,bottom_left,2025-03-05_15h36.33.957,HideSeek_v1,2022.2.5,59.969151912616375,
,3,0,8,0,5,0,11,,train_dim1_1,25,30,,,,2,0,2,0,,,,,,,,,0,0,0,0,0,24,24,24,4,0,4,0,,,,,,,,,,,,,,,,,,,,,,,,,,,,,,,,,,,,,,,,,,,,,,,,,,,,,,,,,,,,,,,,30,,,,,,,,574.4231583001092,574.4231583001092,574.4231583001092,574.4231583001092,574.4231583001092,,,,,right,0.32653680024668574,18,0,0,99,0.48000000000000004,-0.4,right,0.24492809968069196,,,,,,,,,,,,,,,,,,,,,,,,,,,,,,,,,,,,,,,,,,,,,,,,,,,,,,,,HN3V3X,train_x,blue_star,bottom_left,2025-03-05_15h36.33.957,HideSeek_v1,2022.2.5,59.969151912616375,
,3,0,8,0,5,0,11,,train_dim1_1,25,30,,,,2,0,2,0,,,,,,,,,0,0,0,0,0,24,24,24,5,0,5,0,,,,,,,,,,,,,,,,,,,,,,,,,,,,,,,,,,,,,,,,,,,,,,,,,,,,,,,,,,,,,,,,30,,,,,,,,574.7573521002196,574.7573521002196,574.7573521002196,574.7573521002196,574.7573521002196,4,59,0.48000000000000004,-0.4,return,0.6936512999236584,19,0,0,1,0.48000000000000004,-0.4,return,0.6038690996356308,,,,,,,,,,,,,,,,,,,,,,,,,,,,,,,,,,,,,,,,,,,,,,,,,,,,,,,,HN3V3X,train_x,blue_star,bottom_left,2025-03-05_15h36.33.957,HideSeek_v1,2022.2.5,59.969151912616375,
,1,1,1,1,0,0,61,,train_dim1_1,26,30,,,,2,0,2,0,,,,,,,,,0,0,0,0,0,25,25,25,0,0,0,0,,,,,,,,,,,,,,,,,,,,,,,,,stimuli/alien_stimuli/61.png,,,,,,,,,,,,,,,,,,,,,,,,,,,,,stimuli/alien_stimuli/11.png,11,3,27,,,,,,,30,,,,,,,,579.555034100078,579.555034100078,579.555034100078,579.555034100078,579.555034100078,4,59,-0.08,-0.32,return,1.5050449999980628,20,0,0,1,-0.08,-0.32,return,1.4117876999080181,577.9925144002773,579.555034100078,0.48,-0.4,0.0,0.4,-0.4,0.48,0.27999999999999997,0.48,-0.4,577.0178449000232,577.0178449000232,577.0178449000232,577.0178449000232,577.0178449000232,577.0178449000232,577.0178449000232,577.0178449000232,577.0085709205364,1.0863328003324568,return,0.9578737998381257,,,,,,,,,,,,,,,,,,,,,,,,,,,,,,,,,HN3V3X,train_x,blue_star,bottom_left,2025-03-05_15h36.33.957,HideSeek_v1,2022.2.5,59.969151912616375,
,0,1,3,1,3,0,31,,train_dim1_1,27,30,,,,2,0,2,0,,,,,,,,,0,0,0,0,0,26,26,26,0,0,0,0,,,,,,,,,,,,,,,,,,,,,,,,,stimuli/alien_stimuli/31.png,,,,,,,,,,,,,,,,,,,,,,,,,,,,,stimuli/alien_stimuli/61.png,61,1,28,,,,,,,30,,,,,,,,584.9926814003848,584.9926814003848,584.9926814003848,584.9926814003848,584.9926814003848,,,,,right,1.019385099876672,20,0,0,99,-0.08,-0.32,right,0.9288217998109758,583.4304552003741,584.9926814003848,-0.08,-0.32,0.0,0.0,-0.32,-0.08,-0.08,-0.08,-0.32,582.618894000072,582.618894000072,582.618894000072,582.618894000072,582.618894000072,582.618894000072,582.618894000072,582.618894000072,582.5964537605644,0.9193520001135767,return,0.7829706994816661,,,,,,,,,,,,,,,,,,,,,,,,,,,,,,,,,HN3V3X,train_x,blue_star,bottom_left,2025-03-05_15h36.33.957,HideSeek_v1,2022.2.5,59.969151912616375,
,0,1,3,1,3,0,31,,train_dim1_1,27,30,,,,2,0,2,0,,,,,,,,,0,0,0,0,0,26,26,26,1,0,1,0,,,,,,,,,,,,,,,,,,,,,,,,,,,,,,,,,,,,,,,,,,,,,,,,,,,,,,,,,,,,,,,,30,,,,,,,,586.0131492000073,586.0131492000073,586.0131492000073,586.0131492000073,586.0131492000073,,,,,right,0.4760608999058604,20,0,0,99,0.0,-0.32,right,0.39807349955663085,,,,,,,,,,,,,,,,,,,,,,,,,,,,,,,,,,,,,,,,,,,,,,,,,,,,,,,,HN3V3X,train_x,blue_star,bottom_left,2025-03-05_15h36.33.957,HideSeek_v1,2022.2.5,59.969151912616375,
,0,1,3,1,3,0,31,,train_dim1_1,27,30,,,,2,0,2,0,,,,,,,,,0,0,0,0,0,26,26,26,2,0,2,0,,,,,,,,,,,,,,,,,,,,,,,,,,,,,,,,,,,,,,,,,,,,,,,,,,,,,,,,,,,,,,,,30,,,,,,,,586.4965841001831,586.4965841001831,586.4965841001831,586.4965841001831,586.4965841001831,,,,,right,0.46002320013940334,20,0,0,99,0.08,-0.32,right,0.37253869930282235,,,,,,,,,,,,,,,,,,,,,,,,,,,,,,,,,,,,,,,,,,,,,,,,,,,,,,,,HN3V3X,train_x,blue_star,bottom_left,2025-03-05_15h36.33.957,HideSeek_v1,2022.2.5,59.969151912616375,
,0,1,3,1,3,0,31,,train_dim1_1,27,30,,,,2,0,2,0,,,,,,,,,0,0,0,0,0,26,26,26,3,0,3,0,,,,,,,,,,,,,,,,,,,,,,,,,,,,,,,,,,,,,,,,,,,,,,,,,,,,,,,,,,,,,,,,30,,,,,,,,586.9625802002847,586.9625802002847,586.9625802002847,586.9625802002847,586.9625802002847,4,62,0.08,-0.32,return,0.5268663000315428,21,0,0,1,0.08,-0.32,return,0.4527401993982494,,,,,,,,,,,,,,,,,,,,,,,,,,,,,,,,,,,,,,,,,,,,,,,,,,,,,,,,HN3V3X,train_x,blue_star,bottom_left,2025-03-05_15h36.33.957,HideSeek_v1,2022.2.5,59.969151912616375,
,3,1,7,1,4,0,21,,train_dim1_1,28,30,,,,2,0,2,0,,,,,,,,,0,0,0,0,0,27,27,27,0,0,0,0,,,,,,,,,,,,,,,,,,,,,,,,,stimuli/alien_stimuli/21.png,,,,,,,,,,,,,,,,,,,,,,,,,,,,,stimuli/alien_stimuli/31.png,31,0,29,,,,,,,30,,,,,,,,591.7495889002457,591.7495889002457,591.7495889002457,591.7495889002457,591.7495889002457,,,,,right,1.3065671999938786,21,0,0,99,0.16,-0.32,right,1.2109411996789277,590.1859463001601,591.7495889002457,0.08,-0.32,0.0,0.24,-0.32,0.08,-0.04,0.08,-0.32,589.060626800172,589.060626800172,589.060626800172,589.060626800172,589.060626800172,589.060626800172,589.060626800172,589.060626800172,589.0520039204043,1.2366042998619378,return,1.1095320996828377,,,,,,,,,,,,,,,,,,,,,,,,,,,,,,,,,HN3V3X,train_x,blue_star,bottom_left,2025-03-05_15h36.33.957,HideSeek_v1,2022.2.5,59.969151912616375,
,3,1,7,1,4,0,21,,train_dim1_1,28,30,,,,2,0,2,0,,,,,,,,,0,0,0,0,0,27,27,27,1,0,1,0,,,,,,,,,,,,,,,,,,,,,,,,,,,,,,,,,,,,,,,,,,,,,,,,,,,,,,,,,,,,,,,,30,,,,,,,,593.0573161002249,593.0573161002249,593.0573161002249,593.0573161002249,593.0573161002249,,,,,right,0.24238429963588715,21,0,0,99,0.24,-0.32,right,0.1604731995612383,,,,,,,,,,,,,,,,,,,,,,,,,,,,,,,,,,,,,,,,,,,,,,,,,,,,,,,,HN3V3X,train_x,blue_star,bottom_left,2025-03-05_15h36.33.957,HideSeek_v1,2022.2.5,59.969151912616375,
,3,1,7,1,4,0,21,,train_dim1_1,28,30,,,,2,0,2,0,,,,,,,,,0,0,0,0,0,27,27,27,2,0,2,0,,,,,,,,,,,,,,,,,,,,,,,,,,,,,,,,,,,,,,,,,,,,,,,,,,,,,,,,,,,,,,,,30,,,,,,,,593.3059345004149,593.3059345004149,593.3059345004149,593.3059345004149,593.3059345004149,,,,,right,0.32613780023530126,21,0,0,99,0.32,-0.32,right,0.24041529977694154,,,,,,,,,,,,,,,,,,,,,,,,,,,,,,,,,,,,,,,,,,,,,,,,,,,,,,,,HN3V3X,train_x,blue_star,bottom_left,2025-03-05_15h36.33.957,HideSeek_v1,2022.2.5,59.969151912616375,
,3,1,7,1,4,0,21,,train_dim1_1,28,30,,,,2,0,2,0,,,,,,,,,0,0,0,0,0,27,27,27,3,0,3,0,,,,,,,,,,,,,,,,,,,,,,,,,,,,,,,,,,,,,,,,,,,,,,,,,,,,,,,,,,,,,,,,30,,,,,,,,593.6394046000205,593.6394046000205,593.6394046000205,593.6394046000205,593.6394046000205,,,,,right,0.3097261004149914,21,0,0,99,0.4,-0.32,right,0.2292834995314479,,,,,,,,,,,,,,,,,,,,,,,,,,,,,,,,,,,,,,,,,,,,,,,,,,,,,,,,HN3V3X,train_x,blue_star,bottom_left,2025-03-05_15h36.33.957,HideSeek_v1,2022.2.5,59.969151912616375,
,3,1,7,1,4,0,21,,train_dim1_1,28,30,,,,2,0,2,0,,,,,,,,,0,0,0,0,0,27,27,27,4,0,4,0,,,,,,,,,,,,,,,,,,,,,,,,,,,,,,,,,,,,,,,,,,,,,,,,,,,,,,,,,,,,,,,,30,,,,,,,,593.9557756003924,593.9557756003924,593.9557756003924,593.9557756003924,593.9557756003924,4,66,0.4,-0.32,return,0.7770258998498321,22,0,0,1,0.4,-0.32,return,0.6916538998484612,,,,,,,,,,,,,,,,,,,,,,,,,,,,,,,,,,,,,,,,,,,,,,,,,,,,,,,,HN3V3X,train_x,blue_star,bottom_left,2025-03-05_15h36.33.957,HideSeek_v1,2022.2.5,59.969151912616375,
,4,0,5,0,1,0,51,,train_dim1_1,29,30,,,,2,0,2,0,,,,,,,,,0,0,0,0,0,28,28,28,0,0,0,0,,,,,,,,,,,,,,,,,,,,,,,,,stimuli/alien_stimuli/51.png,,,,,,,,,,,,,,,,,,,,,,,,,,,,,stimuli/alien_stimuli/21.png,21,3,30,,,,,,,30,,,,,,,,599.4135347004049,599.4135347004049,599.4135347004049,599.4135347004049,599.4135347004049,,,,,right,1.3074123999103904,22,0,0,99,0.24,-0.4,right,1.2003591996617615,597.8422334003262,599.4135347004049,0.4,-0.32,0.0,0.32,-0.32,0.4,0.24000000000000002,0.4,-0.32,596.3035131003708,596.3035131003708,596.3035131003708,596.3035131003708,596.3035131003708,596.3035131003708,596.3035131003708,596.3035131003708,596.2911565204618,1.653332100249827,return,1.5173376998864114,,,,,,,,,,,,,,,,,,,,,,,,,,,,,,,,,HN3V3X,train_x,blue_star,bottom_left,2025-03-05_15h36.33.957,HideSeek_v1,2022.2.5,59.969151912616375,
,4,0,5,0,1,0,51,,train_dim1_1,29,30,,,,2,0,2,0,,,,,,,,,0,0,0,0,0,28,28,28,1,0,1,0,,,,,,,,,,,,,,,,,,,,,,,,,,,,,,,,,,,,,,,,,,,,,,,,,,,,,,,,,,,,,,,,30,,,,,,,,600.7110639000311,600.7110639000311,600.7110639000311,600.7110639000311,600.7110639000311,4,67,0.24,-0.4,return,0.34247499983757734,23,0,0,1,0.24,-0.4,return,0.26233179960399866,,,,,,,,,,,,,,,,,,,,,,,,,,,,,,,,,,,,,,,,,,,,,,,,,,,,,,,,HN3V3X,train_x,blue_star,bottom_left,2025-03-05_15h36.33.957,HideSeek_v1,2022.2.5,59.969151912616375,
,2,2,7,2,5,0,11,,train_dim1_1,30,30,,,,2,0,2,0,,,,,,,,,0,0,0,0,0,29,29,29,0,0,0,0,,,,,,,,,,,,,,,,,,,,,,,,,stimuli/alien_stimuli/11.png,,,,,,,,,,,,,,,,,,,,,,,,,,,,,stimuli/alien_stimuli/51.png,51,4,31,,,,,,,30,,,,,,,,605.3226907001808,605.3226907001808,605.3226907001808,605.3226907001808,605.3226907001808,,,,,right,0.9451627000235021,23,0,0,99,0.08,-0.24,right,0.847743799444288,603.7472389000468,605.3226907001808,0.24,-0.4,0.0,0.08,-0.4,0.24,0.2,0.24,-0.4,602.61940970039,602.61940970039,602.61940970039,602.61940970039,602.61940970039,602.61940970039,602.61940970039,602.61940970039,602.6130254202058,1.2366732000373304,return,1.1088974992744625,,,,,,,,,,,,,,,,,,,,,,,,,,,,,,,,,HN3V3X,train_x,blue_star,bottom_left,2025-03-05_15h36.33.957,HideSeek_v1,2022.2.5,59.969151912616375,
,2,2,7,2,5,0,11,,train_dim1_1,30,30,,,,2,0,2,0,,,,,,,,,0,0,0,0,0,29,29,29,1,0,1,0,,,,,,,,,,,,,,,,,,,,,,,,,,,,,,,,,,,,,,,,,,,,,,,,,,,,,,,,,,,,,,,,30,,,,,,,,606.2675435002893,606.2675435002893,606.2675435002893,606.2675435002893,606.2675435002893,,,,,right,0.22601680038496852,23,0,0,99,0.16,-0.24,right,0.14010809967294335,,,,,,,,,,,,,,,,,,,,,,,,,,,,,,,,,,,,,,,,,,,,,,,,,,,,,,,,HN3V3X,train_x,blue_star,bottom_left,2025-03-05_15h36.33.957,HideSeek_v1,2022.2.5,59.969151912616375,
,2,2,7,2,5,0,11,,train_dim1_1,30,30,,,,2,0,2,0,,,,,,,,,0,0,0,0,0,29,29,29,2,0,2,0,,,,,,,,,,,,,,,,,,,,,,,,,,,,,,,,,,,,,,,,,,,,,,,,,,,,,,,,,,,,,,,,30,,,,,,,,606.5011643003672,606.5011643003672,606.5011643003672,606.5011643003672,606.5011643003672,,,,,right,0.2598462998867035,23,0,0,99,0.24,-0.24,right,0.18220469960942864,,,,,,,,,,,,,,,,,,,,,,,,,,,,,,,,,,,,,,,,,,,,,,,,,,,,,,,,HN3V3X,train_x,blue_star,bottom_left,2025-03-05_15h36.33.957,HideSeek_v1,2022.2.5,59.969151912616375,
,2,2,7,2,5,0,11,,train_dim1_1,30,30,,,,2,0,2,0,,,,,,,,,0,0,0,0,0,29,29,29,3,0,3,0,,,,,,,,,,,,,,,,,,,,,,,,,,,,,,,,,,,,,,,,,,,,,,,,,,,,,,,,,,,,,,,,30,,,,,,,,606.7671263003722,606.7671263003722,606.7671263003722,606.7671263003722,606.7671263003722,,,,,right,0.25994749972596765,23,0,0,99,0.32,-0.24,right,0.1711226999759674,,,,,,,,,,,,,,,,,,,,,,,,,,,,,,,,,,,,,,,,,,,,,,,,,,,,,,,,HN3V3X,train_x,blue_star,bottom_left,2025-03-05_15h36.33.957,HideSeek_v1,2022.2.5,59.969151912616375,
,2,2,7,2,5,0,11,,train_dim1_1,30,30,,,,2,0,2,0,,,,,,,,,0,0,0,0,0,29,29,29,4,0,4,0,,,,,,,,,,,,,,,,,,,,,,,,,,,,,,,,,,,,,,,,,,,,,,,,,,,,,,,,,,,,,,,,30,,,,,,,,607.0331228002906,607.0331228002906,607.0331228002906,607.0331228002906,607.0331228002906,,,,,right,0.25996779976412654,23,0,0,99,0.4,-0.24,right,0.17317259963601828,,,,,,,,,,,,,,,,,,,,,,,,,,,,,,,,,,,,,,,,,,,,,,,,,,,,,,,,HN3V3X,train_x,blue_star,bottom_left,2025-03-05_15h36.33.957,HideSeek_v1,2022.2.5,59.969151912616375,
,2,2,7,2,5,0,11,,train_dim1_1,30,30,,,,2,0,2,0,,,,,,,,,0,0,0,0,0,29,29,29,5,0,5,0,,,,,,,,,,,,,,,,,,,,,,,,,,,,,,,,,,,,,,,,,,,,,,,,,,,,,,,,,,,,,,,,30,,,,,,,,607.3011485002935,607.3011485002935,607.3011485002935,607.3011485002935,607.3011485002935,4,72,0.4,-0.24,return,0.6933566997759044,24,0,0,1,0.4,-0.24,return,0.6094530997797847,,,,,,,,,,,,,,,,,,,,,,,,,,,,,,,,,,,,,,,,,,,,,,,,,,,,,,,,HN3V3X,train_x,blue_star,bottom_left,2025-03-05_15h36.33.957,HideSeek_v1,2022.2.5,59.969151912616375,
,,,,,,,,,,,30,,,,2,0,2,0,,,,,,,,,,,,,,,,,,,,,,,,,,,,,,,,,,,,,,,,,,,,,,,,,,,,,,,,,,,,,,,,,,,,,,,,,,stimuli/alien_stimuli/11.png,11,2,32,21,0.7,1.0,1,1,1,30,0,conditions/schedules/train_x_first/blue_star_00/bottom_left/inputTrain_2.1.xlsx,99,1,2,1,0,,,,,,,,,,,,,,,1,,,,,610.8695929003879,612.4163871002384,0.4,-0.24,0.0,0.4,-0.24,0.4,0.2,0.4,-0.24,609.5715650999919,609.5715650999919,609.5715650999919,609.5715650999919,609.5715650999919,609.5715650999919,609.5715650999919,609.5715650999919,609.5525381205139,1.4190425998531282,return,1.2667329995892942,0,0.9,0,1,24,,,,,,,,,,,,,,,,,,,,,,,,,,,,HN3V3X,train_x,blue_star,bottom_left,2025-03-05_15h36.33.957,HideSeek_v1,2022.2.5,59.969151912616375,
,,,,,,,,,,,,,,,3,0,3,0,0,0,0,0,,,,,,,,,,,,,,,,,,,,,,,,,,,,,,,conditions/schedules/train_x_first/blue_star_00/bottom_left/instructions/Slide17.png,conditions/schedules/train_x_first/blue_star_00/bottom_left/instructions/Audio17.wav,612.4163871002384,612.4045022801962,17,"[5.28221350023523, 18.578366599977016, 16.88426520023495, 19.5675202999264, 5.105898200068623, 5.004665299784392, 8.071216499898583, 11.939852400217205, 6.4678048002533615, 7.0350351999513805, 9.953089999966323, 13.172368099913001, 18.24878879962489, 13.375009499955922, 31.036135000176728, 22.415545800235122, 40.50351110007614]","[5.2822282002307475, 0.0002787001430988312, 16.884272700175643, 0.05179180018603802, 0.014042200054973364, 0.0812062001787126, 0.00020910007879137993, 11.939860000275075, 0.04681379999965429, 0.047208699863404036, 0.06313889985904098, 13.17237489996478, 0.030453700106590986, 13.375016400124878, 0.28024090034887195, 22.4155526002869, 40.50351900001988]",0,,,,,,,,,,,,,,,,,,,,,,,,,,,,,,,,,,,,,,,,,,,,,,,,,,,,,,,,,,,,,,,,,,,,,,,,,,,,,,,,,,,,,,,,,,,,,,,,,,,,,,,,,,,,,,,,,,,,,,,,,,,,HN3V3X,train_x,blue_star,bottom_left,2025-03-05_15h36.33.957,HideSeek_v1,2022.2.5,59.969151912616375,
,,,,,,,,,,,,,,,3,0,3,0,1,0,1,0,,,,,,,,,,,,,,,,,,,,,,,,,,,,,,,conditions/schedules/train_x_first/blue_star_00/bottom_left/instructions/Slide18.png,conditions/schedules/train_x_first/blue_star_00/bottom_left/instructions/Audio18.wav,652.9879280002788,652.9881166003179,18,"[5.28221350023523, 18.578366599977016, 16.88426520023495, 19.5675202999264, 5.105898200068623, 5.004665299784392, 8.071216499898583, 11.939852400217205, 6.4678048002533615, 7.0350351999513805, 9.953089999966323, 13.172368099913001, 18.24878879962489, 13.375009499955922, 31.036135000176728, 22.415545800235122, 40.50351110007614, 7.052851099986583]","[5.2822282002307475, 0.0002787001430988312, 16.884272700175643, 0.05179180018603802, 0.014042200054973364, 0.0812062001787126, 0.00020910007879137993, 11.939860000275075, 0.04681379999965429, 0.047208699863404036, 0.06313889985904098, 13.17237489996478, 0.030453700106590986, 13.375016400124878, 0.28024090034887195, 22.4155526002869, 40.50351900001988, 7.0528579000383615]",0,,,,,,,,,,,,,,,,,,,,,,,,,,,,,,,,,,,,,,,,,,,,,,,,,,,,,,,,,,,,,,,,,,,,,,,,,,,,,,,,,,,,,,,,,,,,,,,,,,,,,,,,,,,,,,,,,,,,,,,,,,,,HN3V3X,train_x,blue_star,bottom_left,2025-03-05_15h36.33.957,HideSeek_v1,2022.2.5,59.969151912616375,
,,,,,,,,,,,,,,,3,0,3,0,2,0,2,0,,,,,,,,,,,,,,,,,,,,,,,,,,,,,,,conditions/schedules/train_x_first/blue_star_00/bottom_left/instructions/Slide19.png,conditions/schedules/train_x_first/blue_star_00/bottom_left/instructions/Audio19.wav,660.0795194003731,660.0773062800523,19,"[5.28221350023523, 18.578366599977016, 16.88426520023495, 19.5675202999264, 5.105898200068623, 5.004665299784392, 8.071216499898583, 11.939852400217205, 6.4678048002533615, 7.0350351999513805, 9.953089999966323, 13.172368099913001, 18.24878879962489, 13.375009499955922, 31.036135000176728, 22.415545800235122, 40.50351110007614, 7.052851099986583, 10.825455900281668]","[5.2822282002307475, 0.0002787001430988312, 16.884272700175643, 0.05179180018603802, 0.014042200054973364, 0.0812062001787126, 0.00020910007879137993, 11.939860000275075, 0.04681379999965429, 0.047208699863404036, 0.06313889985904098, 13.17237489996478, 0.030453700106590986, 13.375016400124878, 0.28024090034887195, 22.4155526002869, 40.50351900001988, 0.046514099929481745, 10.82546199997887]",0,,,,,,,,,,,,,,,,,,,,,,,,,,,,,,,,,,,,,,,,,,,,,,,,,,,,,,,,,,,,,,,,,,,,,,,,,,,,,,,,,,,,,,,,,,,,,,,,,,,,,,,,,,,,,,,,,,,,,,,,,,,,HN3V3X,train_x,blue_star,bottom_left,2025-03-05_15h36.33.957,HideSeek_v1,2022.2.5,59.969151912616375,
,,,,,,,,,,,,,,,3,0,3,0,3,0,3,0,,,,,,,,,,,,,,,,,,,,,,,,,,,,,,,conditions/schedules/train_x_first/blue_star_00/bottom_left/instructions/Slide20.png,conditions/schedules/train_x_first/blue_star_00/bottom_left/instructions/Audio20.wav,670.9775561001152,670.9747037005145,20,"[5.28221350023523, 18.578366599977016, 16.88426520023495, 19.5675202999264, 5.105898200068623, 5.004665299784392, 8.071216499898583, 11.939852400217205, 6.4678048002533615, 7.0350351999513805, 9.953089999966323, 13.172368099913001, 18.24878879962489, 13.375009499955922, 31.036135000176728, 22.415545800235122, 40.50351110007614, 7.052851099986583, 10.825455900281668, 14.468061299994588]","[5.2822282002307475, 0.0002787001430988312, 16.884272700175643, 0.05179180018603802, 0.014042200054973364, 0.0812062001787126, 0.00020910007879137993, 11.939860000275075, 0.04681379999965429, 0.047208699863404036, 0.06313889985904098, 13.17237489996478, 0.030453700106590986, 13.375016400124878, 0.28024090034887195, 22.4155526002869, 40.50351900001988, 0.046514099929481745, 0.035503999795764685, 14.468068500049412]",0,,,,,,,,,,,,,,,,,,,,,,,,,,,,,,,,,,,,,,,,,,,,,,,,,,,,,,,,,,,,,,,,,,,,,,,,,,,,,,,,,,,,,,,,,,,,,,,,,,,,,,,,,,,,,,,,,,,,,,,,,,,,HN3V3X,train_x,blue_star,bottom_left,2025-03-05_15h36.33.957,HideSeek_v1,2022.2.5,59.969151912616375,
1,0,3,0,8,0,5,66,2,instr_dim1_2,,,,,,3,0,3,0,,,,,0,0,0,0,,,,,,,,,,,,,,,,,,,,,,,,,,,,,,,,,,,,,stimuli/alien_stimuli/66.png,conditions/schedules/train_x_first/blue_star_00/bottom_left/inputInstr_2.xlsx,stimuli/alien_stimuli/66.png,685.5433004000224,685.5433004000224,685.5433004000224,685.5433004000224,685.5483604202514,return,9.980867499485612,"[-0.16, -0.08, 0, 0.08, 0.16, 0.24, 0.32, 0.4, 0.48, 0.56]","[-0.4, -0.32, -0.24, -0.16, -0.08, 0, 0.08, 0.16, 0.24, 0.32]",8,3,0,0,0.4,0.0,695.679039100185,695.679039100185,695.679039100185,695.679039100185,695.679039100185,695.679039100185,695.679039100185,695.6733095803298,5.589065300300717,return,5.441168299410492,stimuli/alien_stimuli/66.png,66,0,1,,,,,,,,,,,,,,,,,,,,,,,,,,,,,,,,,,,,,,,,,,,,,,,,,,,,,,,,,,,,,,,,,,,,,,,,,,,,,,,,,,,,,,,,,HN3V3X,train_x,blue_star,bottom_left,2025-03-05_15h36.33.957,HideSeek_v1,2022.2.5,59.969151912616375,
,,,,,,,,,,,30,,,,3,0,3,0,,,,,,,,,,,,,,,,,,,,,,,,,,,,,,,,,,,,,,,,,,,,,,,,,,,,,,,,,,,,,,,,,,,,,,,,,,,,,,21,0.7,1.0,1,99,2,30,0,conditions/schedules/train_x_first/blue_star_00/bottom_left/inputTrain_2.1.xlsx,99,1,2,1,0,,,,,,,,,,,,,,,,,,,,,,,,,,,,,,,,,,,,,,,,,,,,,,,,,,,,,,,,,,,,,,,,,,,,,,,,,,,HN3V3X,train_x,blue_star,bottom_left,2025-03-05_15h36.33.957,HideSeek_v1,2022.2.5,59.969151912616375,
,,,,,,,,,,,,,,,4,0,4,0,0,0,0,0,,,,,,,,,,,,,,,,,,,,,,,,,,,,,,,conditions/schedules/train_x_first/blue_star_00/bottom_left/instructions/Slide21.png,conditions/schedules/train_x_first/blue_star_00/bottom_left/instructions/Audio21.wav,701.2927745999768,701.2948840004392,21,"[5.28221350023523, 18.578366599977016, 16.88426520023495, 19.5675202999264, 5.105898200068623, 5.004665299784392, 8.071216499898583, 11.939852400217205, 6.4678048002533615, 7.0350351999513805, 9.953089999966323, 13.172368099913001, 18.24878879962489, 13.375009499955922, 31.036135000176728, 22.415545800235122, 40.50351110007614, 7.052851099986583, 10.825455900281668, 14.468061299994588, 22.60201760008931]","[5.2822282002307475, 0.0002787001430988312, 16.884272700175643, 0.05179180018603802, 0.014042200054973364, 0.0812062001787126, 0.00020910007879137993, 11.939860000275075, 0.04681379999965429, 0.047208699863404036, 0.06313889985904098, 13.17237489996478, 0.030453700106590986, 13.375016400124878, 0.28024090034887195, 22.4155526002869, 40.50351900001988, 0.046514099929481745, 0.035503999795764685, 14.468068500049412, 22.602025100030005]",0,,,,,,,,,,,,,,,,,,,,,,,,,,,,,,,,,,,,,,,,,,,,,,,,,,,,,,,,,,,,,,,,,,,,,,,,,,,,,,,,,,,,,,,,,,,,,,,,,,,,,,,,,,,,,,,,,,,,,,,,,,,,HN3V3X,train_x,blue_star,bottom_left,2025-03-05_15h36.33.957,HideSeek_v1,2022.2.5,59.969151912616375,
2,2,3,2,3,0,0,61,2,instr_dim1_2,,,,,,4,0,4,0,,,,,0,0,0,0,,,,,,,,,,,,,,,,,,,,,,,,,,,,,,,,,,,,,stimuli/alien_stimuli/61.png,conditions/schedules/train_x_first/blue_star_00/bottom_left/inputInstr_2.xlsx,stimuli/alien_stimuli/61.png,723.9900016002357,723.9900016002357,723.9900016002357,723.9900016002357,723.9803360605613,return,6.185559599660337,"[-0.16, -0.08, 0, 0.08, 0.16, 0.24, 0.32, 0.4, 0.48, 0.56]","[-0.4, -0.32, -0.24, -0.16, -0.08, 0, 0.08, 0.16, 0.24, 0.32]",3,3,2,2,0.0,0.0,730.3248087000102,730.3248087000102,730.3248087000102,730.3248087000102,730.3248087000102,730.3248087000102,730.3248087000102,730.3188105802052,6.989701299928129,return,6.8427986996248364,stimuli/alien_stimuli/61.png,61,2,2,,,,,,,,,,,,,,,,,,,,,,,,,,,,,,,,,,,,,,,,,,,,,,,,,,,,,,,,,,,,,,,,,,,,,,,,,,,,,,,,,,,,,,,,,HN3V3X,train_x,blue_star,bottom_left,2025-03-05_15h36.33.957,HideSeek_v1,2022.2.5,59.969151912616375,
,,,,,,,,,,,30,,,,4,0,4,0,,,,,,,,,,,,,,,,,,,,,,,,,,,,,,,,,,,,,,,,,,,,,,,,,,,,,,,,,,,,,,,,,,,,,,,,,,,,,,21,0.7,1.0,1,99,2,30,0,conditions/schedules/train_x_first/blue_star_00/bottom_left/inputTrain_2.1.xlsx,99,1,2,1,0,,,,,,,,,,,,,,,,,,,,,,,,,,,,,,,,,,,,,,,,,,,,,,,,,,,,,,,,,,,,,,,,,,,,,,,,,,,HN3V3X,train_x,blue_star,bottom_left,2025-03-05_15h36.33.957,HideSeek_v1,2022.2.5,59.969151912616375,
,,,,,,,,,,,,,,,5,0,5,0,0,0,0,0,,,,,,,,,,,,,,,,,,,,,,,,,,,,,,,conditions/schedules/train_x_first/blue_star_00/bottom_left/instructions/Slide22.png,conditions/schedules/train_x_first/blue_star_00/bottom_left/instructions/Audio22.wav,737.3500295002013,737.3410156005993,22,"[5.28221350023523, 18.578366599977016, 16.88426520023495, 19.5675202999264, 5.105898200068623, 5.004665299784392, 8.071216499898583, 11.939852400217205, 6.4678048002533615, 7.0350351999513805, 9.953089999966323, 13.172368099913001, 18.24878879962489, 13.375009499955922, 31.036135000176728, 22.415545800235122, 40.50351110007614, 7.052851099986583, 10.825455900281668, 14.468061299994588, 22.60201760008931, 44.14328059973195]","[5.2822282002307475, 0.0002787001430988312, 16.884272700175643, 0.05179180018603802, 0.014042200054973364, 0.0812062001787126, 0.00020910007879137993, 11.939860000275075, 0.04681379999965429, 0.047208699863404036, 0.06313889985904098, 13.17237489996478, 0.030453700106590986, 13.375016400124878, 0.28024090034887195, 22.4155526002869, 40.50351900001988, 0.046514099929481745, 0.035503999795764685, 14.468068500049412, 22.602025100030005, 44.1432876996696]",0,,,,,,,,,,,,,,,,,,,,,,,,,,,,,,,,,,,,,,,,,,,,,,,,,,,,,,,,,,,,,,,,,,,,,,,,,,,,,,,,,,,,,,,,,,,,,,,,,,,,,,,,,,,,,,,,,,,,,,,,,,,,HN3V3X,train_x,blue_star,bottom_left,2025-03-05_15h36.33.957,HideSeek_v1,2022.2.5,59.969151912616375,
,0,0,0,4,0,4,65,,train_dim1_2,1,30,,,,5,0,5,0,,,,,,,,,0,0,0,0,0,0,0,0,0,0,0,0,,,,,,,,,,,,,,,,,,,,,,,,,stimuli/alien_stimuli/65.png,,,,,,,,,,,,,,,,,,,,,,,,,,,,,,,,,,,,,,,30,,,,,,,,781.598746899981,781.598746899981,781.598746899981,781.598746899981,781.598746899981,,,,,up,1.9783208998851478,0,0,0,99,-0.16,-0.32,up,1.8667969997040927,,,,,,,,,,,,,,,,,,,,,,,,,,,,,,,,,,,,,,,,,,,,,,,,,,,,,,,,HN3V3X,train_x,blue_star,bottom_left,2025-03-05_15h36.33.957,HideSeek_v1,2022.2.5,59.969151912616375,
,0,0,0,4,0,4,65,,train_dim1_2,1,30,,,,5,0,5,0,,,,,,,,,0,0,0,0,0,0,0,0,1,0,1,0,,,,,,,,,,,,,,,,,,,,,,,,,,,,,,,,,,,,,,,,,,,,,,,,,,,,,,,,,,,,,,,,30,,,,,,,,783.5605057002977,783.5605057002977,783.5605057002977,783.5605057002977,783.5605057002977,,,,,up,0.2929306998848915,0,0,0,99,-0.16,-0.24,up,0.21875759959220886,,,,,,,,,,,,,,,,,,,,,,,,,,,,,,,,,,,,,,,,,,,,,,,,,,,,,,,,HN3V3X,train_x,blue_star,bottom_left,2025-03-05_15h36.33.957,HideSeek_v1,2022.2.5,59.969151912616375,
,0,0,0,4,0,4,65,,train_dim1_2,1,30,,,,5,0,5,0,,,,,,,,,0,0,0,0,0,0,0,0,2,0,2,0,,,,,,,,,,,,,,,,,,,,,,,,,,,,,,,,,,,,,,,,,,,,,,,,,,,,,,,,,,,,,,,,30,,,,,,,,783.8596208002418,783.8596208002418,783.8596208002418,783.8596208002418,783.8596208002418,,,,,up,0.3098100000061095,0,0,0,99,-0.16,-0.15999999999999998,up,0.22984439926221967,,,,,,,,,,,,,,,,,,,,,,,,,,,,,,,,,,,,,,,,,,,,,,,,,,,,,,,,HN3V3X,train_x,blue_star,bottom_left,2025-03-05_15h36.33.957,HideSeek_v1,2022.2.5,59.969151912616375,
,0,0,0,4,0,4,65,,train_dim1_2,1,30,,,,5,0,5,0,,,,,,,,,0,0,0,0,0,0,0,0,3,0,3,0,,,,,,,,,,,,,,,,,,,,,,,,,,,,,,,,,,,,,,,,,,,,,,,,,,,,,,,,,,,,,,,,30,,,,,,,,784.1764142001048,784.1764142001048,784.1764142001048,784.1764142001048,784.1764142001048,,,,,up,0.32668039994314313,0,0,0,99,-0.16,-0.07999999999999997,up,0.253932099789381,,,,,,,,,,,,,,,,,,,,,,,,,,,,,,,,,,,,,,,,,,,,,,,,,,,,,,,,HN3V3X,train_x,blue_star,bottom_left,2025-03-05_15h36.33.957,HideSeek_v1,2022.2.5,59.969151912616375,
,0,0,0,4,0,4,65,,train_dim1_2,1,30,,,,5,0,5,0,,,,,,,,,0,0,0,0,0,0,0,0,4,0,4,0,,,,,,,,,,,,,,,,,,,,,,,,,,,,,,,,,,,,,,,,,,,,,,,,,,,,,,,,,,,,,,,,30,,,,,,,,784.5103517002426,784.5103517002426,784.5103517002426,784.5103517002426,784.5103517002426,,,,,up,0.3096348997205496,0,0,0,99,-0.16,2.7755575615628914e-17,up,0.23501079995185137,,,,,,,,,,,,,,,,,,,,,,,,,,,,,,,,,,,,,,,,,,,,,,,,,,,,,,,,HN3V3X,train_x,blue_star,bottom_left,2025-03-05_15h36.33.957,HideSeek_v1,2022.2.5,59.969151912616375,
,0,0,0,4,0,4,65,,train_dim1_2,1,30,,,,5,0,5,0,,,,,,,,,0,0,0,0,0,0,0,0,5,0,5,0,,,,,,,,,,,,,,,,,,,,,,,,,,,,,,,,,,,,,,,,,,,,,,,,,,,,,,,,,,,,,,,,30,,,,,,,,784.8275081003085,784.8275081003085,784.8275081003085,784.8275081003085,784.8275081003085,9,72,-0.16,2.7755575615628914e-17,return,0.6096936999820173,0,1,0,0,-0.16,2.7755575615628914e-17,return,0.5373292993754148,,,,,,,,,,,,,,,,,,,,,,,,,,,,,,,,,,,,,,,,,,,,,,,,,,,,,,,,HN3V3X,train_x,blue_star,bottom_left,2025-03-05_15h36.33.957,HideSeek_v1,2022.2.5,59.969151912616375,
,3,2,3,7,0,5,66,,train_dim1_2,2,30,,,,5,0,5,0,,,,,,,,,0,0,0,0,0,1,1,1,0,0,0,0,,,,,,,,,,,,,,,,,,,,,,,,,stimuli/alien_stimuli/66.png,,,,,,,,,,,,,,,,,,,,,,,,,,,,,stimuli/alien_stimuli/65.png,65,0,3,,,,,,,30,,,,,,,,791.9718129001558,791.9718129001558,791.9718129001558,791.9718129001558,791.9718129001558,,,,,up,1.4055373999290168,0,1,0,99,0.08,-0.15999999999999998,up,1.3251308999024332,790.4184539001435,791.9718129001558,-0.16,-0.08,0.32,0.0,-0.24000000000000002,-0.16,-0.16,-0.16,-0.08,787.012836100068,787.012836100068,787.012836100068,787.012836100068,787.012836100068,787.012836100068,787.012836100068,787.012836100068,786.9990393206012,3.521805999800563,return,3.3830714994110167,,,,,,,,,,,,,,,,,,,,,,,,,,,,,,,,,HN3V3X,train_x,blue_star,bottom_left,2025-03-05_15h36.33.957,HideSeek_v1,2022.2.5,59.969151912616375,
,3,2,3,7,0,5,66,,train_dim1_2,2,30,,,,5,0,5,0,,,,,,,,,0,0,0,0,0,1,1,1,1,0,1,0,,,,,,,,,,,,,,,,,,,,,,,,,,,,,,,,,,,,,,,,,,,,,,,,,,,,,,,,,,,,,,,,30,,,,,,,,793.3842417001724,793.3842417001724,793.3842417001724,793.3842417001724,793.3842417001724,,,,,up,0.4590241997502744,0,1,0,99,0.08,-0.07999999999999997,up,0.38756969990208745,,,,,,,,,,,,,,,,,,,,,,,,,,,,,,,,,,,,,,,,,,,,,,,,,,,,,,,,HN3V3X,train_x,blue_star,bottom_left,2025-03-05_15h36.33.957,HideSeek_v1,2022.2.5,59.969151912616375,
,3,2,3,7,0,5,66,,train_dim1_2,2,30,,,,5,0,5,0,,,,,,,,,0,0,0,0,0,1,1,1,2,0,2,0,,,,,,,,,,,,,,,,,,,,,,,,,,,,,,,,,,,,,,,,,,,,,,,,,,,,,,,,,,,,,,,,30,,,,,,,,793.856941500213,793.856941500213,793.856941500213,793.856941500213,793.856941500213,,,,,up,0.4770328002050519,0,1,0,99,0.08,2.7755575615628914e-17,up,0.38384729996323586,,,,,,,,,,,,,,,,,,,,,,,,,,,,,,,,,,,,,,,,,,,,,,,,,,,,,,,,HN3V3X,train_x,blue_star,bottom_left,2025-03-05_15h36.33.957,HideSeek_v1,2022.2.5,59.969151912616375,
,3,2,3,7,0,5,66,,train_dim1_2,2,30,,,,5,0,5,0,,,,,,,,,0,0,0,0,0,1,1,1,3,0,3,0,,,,,,,,,,,,,,,,,,,,,,,,,,,,,,,,,,,,,,,,,,,,,,,,,,,,,,,,,,,,,,,,30,,,,,,,,794.3336768001318,794.3336768001318,794.3336768001318,794.3336768001318,794.3336768001318,,,,,up,0.4265578999184072,0,1,0,99,0.08,0.08000000000000003,up,0.34858629992231727,,,,,,,,,,,,,,,,,,,,,,,,,,,,,,,,,,,,,,,,,,,,,,,,,,,,,,,,HN3V3X,train_x,blue_star,bottom_left,2025-03-05_15h36.33.957,HideSeek_v1,2022.2.5,59.969151912616375,
,3,2,3,7,0,5,66,,train_dim1_2,2,30,,,,5,0,5,0,,,,,,,,,0,0,0,0,0,1,1,1,4,0,4,0,,,,,,,,,,,,,,,,,,,,,,,,,,,,,,,,,,,,,,,,,,,,,,,,,,,,,,,,,,,,,,,,30,,,,,,,,794.7687963000499,794.7687963000499,794.7687963000499,794.7687963000499,794.7687963000499,,,,,up,0.46007300028577447,0,1,0,99,0.08,0.16000000000000003,up,0.3748834999278188,,,,,,,,,,,,,,,,,,,,,,,,,,,,,,,,,,,,,,,,,,,,,,,,,,,,,,,,HN3V3X,train_x,blue_star,bottom_left,2025-03-05_15h36.33.957,HideSeek_v1,2022.2.5,59.969151912616375,
,3,2,3,7,0,5,66,,train_dim1_2,2,30,,,,5,0,5,0,,,,,,,,,0,0,0,0,0,1,1,1,5,0,5,0,,,,,,,,,,,,,,,,,,,,,,,,,,,,,,,,,,,,,,,,,,,,,,,,,,,,,,,,,,,,,,,,30,,,,,,,,795.2360121002421,795.2360121002421,795.2360121002421,795.2360121002421,795.2360121002421,14,72,0.08,0.16000000000000003,return,0.8271063999272883,1,0,0,1,0.08,0.16000000000000003,return,0.7495945999398828,,,,,,,,,,,,,,,,,,,,,,,,,,,,,,,,,,,,,,,,,,,,,,,,,,,,,,,,HN3V3X,train_x,blue_star,bottom_left,2025-03-05_15h36.33.957,HideSeek_v1,2022.2.5,59.969151912616375,
,2,3,2,6,0,3,64,,train_dim1_2,3,30,,,,5,0,5,0,,,,,,,,,0,0,0,0,0,2,2,2,0,0,0,0,,,,,,,,,,,,,,,,,,,,,,,,,stimuli/alien_stimuli/64.png,,,,,,,,,,,,,,,,,,,,,,,,,,,,,stimuli/alien_stimuli/66.png,66,3,4,,,,,,,30,,,,,,,,800.1842333003879,800.1842333003879,800.1842333003879,800.1842333003879,800.1842333003879,,,,,up,5.2533522001467645,1,0,0,99,0,-0.08,up,5.1752885999158025,798.6251982999966,800.1842333003879,0.08,0.16,0.4,0.0,-0.039999999999999994,0.08,0.08,0.08,0.16,797.6390906004235,797.6390906004235,797.6390906004235,797.6390906004235,797.6390906004235,797.6390906004235,797.6390906004235,797.6390906004235,797.6248269205448,1.1026363000273705,return,0.9629748994484544,,,,,,,,,,,,,,,,,,,,,,,,,,,,,,,,,HN3V3X,train_x,blue_star,bottom_left,2025-03-05_15h36.33.957,HideSeek_v1,2022.2.5,59.969151912616375,
,2,3,2,6,0,3,64,,train_dim1_2,3,30,,,,5,0,5,0,,,,,,,,,0,0,0,0,0,2,2,2,1,0,1,0,,,,,,,,,,,,,,,,,,,,,,,,,,,,,,,,,,,,,,,,,,,,,,,,,,,,,,,,,,,,,,,,30,,,,,,,,805.4455849002115,805.4455849002115,805.4455849002115,805.4455849002115,805.4455849002115,,,,,up,0.4420619998127222,1,0,0,99,0,0.0,up,0.36413149954751134,,,,,,,,,,,,,,,,,,,,,,,,,,,,,,,,,,,,,,,,,,,,,,,,,,,,,,,,HN3V3X,train_x,blue_star,bottom_left,2025-03-05_15h36.33.957,HideSeek_v1,2022.2.5,59.969151912616375,
