trialInstr,x_fixStart,y_fixStart,x_corrSteps,y_corrSteps,x_nrSteps,y_nrSteps,alienID,trialLength,version,trialTrain,praclen,testlen,trial_label,break_on_off,beforeExpLoop.thisRepN,beforeExpLoop.thisTrialN,beforeExpLoop.thisN,beforeExpLoop.thisIndex,mini_instr_trials.thisRepN,mini_instr_trials.thisTrialN,mini_instr_trials.thisN,mini_instr_trials.thisIndex,instrLoop.thisRepN,instrLoop.thisTrialN,instrLoop.thisN,instrLoop.thisIndex,repeat_prac.thisRepN,repeat_prac.thisTrialN,repeat_prac.thisN,repeat_prac.thisIndex,trainLoop.thisRepN,trainLoop.thisTrialN,trainLoop.thisN,trainLoop.thisIndex,moveLoop_train.thisRepN,moveLoop_train.thisTrialN,moveLoop_train.thisN,moveLoop_train.thisIndex,experiment.thisRepN,experiment.thisTrialN,experiment.thisN,experiment.thisIndex,moveLoop_test.thisRepN,moveLoop_test.thisTrialN,moveLoop_test.thisN,moveLoop_test.thisIndex,mini_instr2_trials.thisRepN,mini_instr2_trials.thisTrialN,mini_instr2_trials.thisN,mini_instr2_trials.thisIndex,start_all_time,url,slideStim,audioStim,slides.started,sounds.started,nextButton.numClicks,nextButton.timesOn,nextButton.timesOff,prev_but.numClicks,prev_but.timesOn,prev_but.timesOff,alienStim,instrFile,alienStim_instr,gridImage_instr.started,startPos_3.started,key_instr.started,alienImage_3.started,sounds_1.started,key_instr.keys,key_instr.rt,all_x,all_y,FBy_corrSteps,FBy_fixStart,FBx_corrSteps,FBx_fixStart,FBy_pathSize_check,FBx_pathSize_check,gridImage_9.started,alienImageFB_3.started,startPosFB_3.started,keyFB_3.started,pathLine_ydir_2.started,pathLine_xdir_2.started,alienFace_3.started,sounds_2.started,RTFB_instr,keyFB_3.keys,keyFB_3.rt,draw_alienStim,draw_alienID,test_x,nrepcount,perfthres,percthres,earlierperf,earlystop,nextPrac,fileidx,praclen,saveACC_train,pracFile,nextPrac_train,addNrep,fileidx_endr,repExp,showearly,gridImage_4.started,startPos.started,movePos.started,key_resp.started,alienImage.started,buttonPress_train,RTchoice_train,cumAcctrain,aCorr,saveACC_choice,corrAns,x_movePos_end,y_movePos_end,key_resp.keys,key_resp.rt,wLy_dir,wLx_dir,x_movePos,y_movePos,text_2.started,text_2.stopped,aft_x_corrPos,aft_y_corrPos,y_pathSize_check,x_pathSize_check,y_pathdirY,x_pathdirY,x_pathdirX,x_corrPos,y_corrPos,gridImage_6.started,alienImageFB_2.started,startPosFB_2.started,movePosFB_2.started,keyFB_2.started,pathLine_xdir.started,pathLine_ydir.started,alienFace.started,sounds_4.started,RT_FBtrain,keyFB_2.keys,keyFB_2.rt,saveACC_pre,ACC,within_saveACC_train,earlystop_wloop,cumAcctrain_check,gridImage_3.started,alienImage_test.started,startPos_test.started,movePos_test.started,key_resp_test.started,wLy_dir_test,wLx_dir_test,buttonPress_test,RTchoice_test,cumAcctest,corrAns_test,key_resp_test.keys,key_resp_test.rt,text_3.started,text_3.stopped,total_time,end_all_time,key_resp_3.keys,slides_2.started,sounds_3.started,nextButton_2.numClicks,nextButton_2.timesOn,nextButton_2.timesOff,prev_but_2.numClicks,prev_but_2.timesOn,prev_but_2.timesOff,bye.started,participant,train_first,00_coordinate,starting corner,date,expName,psychopyVersion,frameRate,
,,,,,,,,,,,,,,,0,0,0,0,0,0,0,0,,,,,,,,,,,,,,,,,,,,,,,,,,,,,start_all_time,testround,conditions/schedules/Train_y_first/red_square_00/top_left/instructions/Slide1.png,conditions/schedules/Train_y_first/red_square_00/top_left/instructions/Audio1.wav,471.0700722000329,471.01567485774865,1,[3.5773486000252888],[3.5773570000892505],0,,,,,,,,,,,,,,,,,,,,,,,,,,,,,,,,,,,,,,,,,,,,,,,,,,,,,,,,,,,,,,,,,,,,,,,,,,,,,,,,,,,,,,,,,,,,,,,,,,,,,,,,,,,,,,,,,,,,,,,,,,,,HX3J13,Train_y,red_square,top_left,2025-06-24_15h57.00.262,HideSeek_v1,2022.2.5,59.98900999952131,
,,,,,,,,,,,,,,,0,0,0,0,1,0,1,0,,,,,,,,,,,,,,,,,,,,,,,,,,,,,,,conditions/schedules/Train_y_first/red_square_00/top_left/instructions/Slide2.png,conditions/schedules/Train_y_first/red_square_00/top_left/instructions/Audio2.wav,474.6677362000337,474.6696030499297,2,"[3.5773486000252888, 18.982211599941365]","[0.014339299988932908, 18.982218499993905]",0,,,,,,,,,,,,,,,,,,,,,,,,,,,,,,,,,,,,,,,,,,,,,,,,,,,,,,,,,,,,,,,,,,,,,,,,,,,,,,,,,,,,,,,,,,,,,,,,,,,,,,,,,,,,,,,,,,,,,,,,,,,,HX3J13,Train_y,red_square,top_left,2025-06-24_15h57.00.262,HideSeek_v1,2022.2.5,59.98900999952131,
,,,,,,,,,,,,,,,0,0,0,0,2,0,2,0,,,,,,,,,,,,,,,,,,,,,,,,,,,,,,,conditions/schedules/Train_y_first/red_square_00/top_left/instructions/Slide3.png,conditions/schedules/Train_y_first/red_square_00/top_left/instructions/Audio3.wav,493.731842600042,493.71883884997806,3,"[3.5773486000252888, 18.982211599941365, 16.88216400006786]","[0.014339299988932908, 18.982218499993905, 16.882170900003985]",0,,,,,,,,,,,,,,,,,,,,,,,,,,,,,,,,,,,,,,,,,,,,,,,,,,,,,,,,,,,,,,,,,,,,,,,,,,,,,,,,,,,,,,,,,,,,,,,,,,,,,,,,,,,,,,,,,,,,,,,,,,,,HX3J13,Train_y,red_square,top_left,2025-06-24_15h57.00.262,HideSeek_v1,2022.2.5,59.98900999952131,
,,,,,,,,,,,,,,,0,0,0,0,3,0,3,0,,,,,,,,,,,,,,,,,,,,,,,,,,,,,,,conditions/schedules/Train_y_first/red_square_00/top_left/instructions/Slide4.png,conditions/schedules/Train_y_first/red_square_00/top_left/instructions/Audio4.wav,510.6905470000347,510.6827466500108,4,"[3.5773486000252888, 18.982211599941365, 16.88216400006786, 20.156676699989475]","[0.014339299988932908, 18.982218499993905, 0.0363337000599131, 20.156682800035924]",0,,,,,,,,,,,,,,,,,,,,,,,,,,,,,,,,,,,,,,,,,,,,,,,,,,,,,,,,,,,,,,,,,,,,,,,,,,,,,,,,,,,,,,,,,,,,,,,,,,,,,,,,,,,,,,,,,,,,,,,,,,,,HX3J13,Train_y,red_square,top_left,2025-06-24_15h57.00.262,HideSeek_v1,2022.2.5,59.98900999952131,
,,,,,,,,,,,,,,,0,0,0,0,4,0,4,0,,,,,,,,,,,,,,,,,,,,,,,,,,,,,,,conditions/schedules/Train_y_first/red_square_00/top_left/instructions/Slide5.png,conditions/schedules/Train_y_first/red_square_00/top_left/instructions/Audio5.wav,530.9173235000344,530.9164439499727,5,"[3.5773486000252888, 18.982211599941365, 16.88216400006786, 20.156676699989475, 4.250862299930304]","[0.014339299988932908, 18.982218499993905, 0.0363337000599131, 0.0002516999375075102, 4.250870499992743]",0,,,,,,,,,,,,,,,,,,,,,,,,,,,,,,,,,,,,,,,,,,,,,,,,,,,,,,,,,,,,,,,,,,,,,,,,,,,,,,,,,,,,,,,,,,,,,,,,,,,,,,,,,,,,,,,,,,,,,,,,,,,,HX3J13,Train_y,red_square,top_left,2025-06-24_15h57.00.262,HideSeek_v1,2022.2.5,59.98900999952131,
,,,,,,,,,,,,,,,0,0,0,0,5,0,5,0,,,,,,,,,,,,,,,,,,,,,,,,,,,,,,,conditions/schedules/Train_y_first/red_square_00/top_left/instructions/Slide6.png,conditions/schedules/Train_y_first/red_square_00/top_left/instructions/Audio6.wav,535.2180545999436,535.2206037399825,6,"[3.5773486000252888, 18.982211599941365, 16.88216400006786, 20.156676699989475, 4.250862299930304, 4.486368599929847]","[0.014339299988932908, 18.982218499993905, 0.0363337000599131, 0.0002516999375075102, 0.06606069998815656, 4.48637569998391]",0,,,,,,,,,,,,,,,,,,,,,,,,,,,,,,,,,,,,,,,,,,,,,,,,,,,,,,,,,,,,,,,,,,,,,,,,,,,,,,,,,,,,,,,,,,,,,,,,,,,,,,,,,,,,,,,,,,,,,,,,,,,,HX3J13,Train_y,red_square,top_left,2025-06-24_15h57.00.262,HideSeek_v1,2022.2.5,59.98900999952131,
,,,,,,,,,,,,,,,0,0,0,0,6,0,6,0,,,,,,,,,,,,,,,,,,,,,,,,,,,,,,,conditions/schedules/Train_y_first/red_square_00/top_left/instructions/Slide7.png,conditions/schedules/Train_y_first/red_square_00/top_left/instructions/Audio7.wav,539.755013099988,539.7570441399236,7,"[3.5773486000252888, 18.982211599941365, 16.88216400006786, 20.156676699989475, 4.250862299930304, 4.486368599929847, 5.50402979995124]","[0.014339299988932908, 18.982218499993905, 0.0363337000599131, 0.0002516999375075102, 0.06606069998815656, 0.11636049998924136, 5.504036900005303]",0,,,,,,,,,,,,,,,,,,,,,,,,,,,,,,,,,,,,,,,,,,,,,,,,,,,,,,,,,,,,,,,,,,,,,,,,,,,,,,,,,,,,,,,,,,,,,,,,,,,,,,,,,,,,,,,,,,,,,,,,,,,,HX3J13,Train_y,red_square,top_left,2025-06-24_15h57.00.262,HideSeek_v1,2022.2.5,59.98900999952131,
,,,,,,,,,,,,,,,0,0,0,0,7,0,7,0,,,,,,,,,,,,,,,,,,,,,,,,,,,,,,,conditions/schedules/Train_y_first/red_square_00/top_left/instructions/Slide8.png,conditions/schedules/Train_y_first/red_square_00/top_left/instructions/Audio8.wav,545.3303564999951,545.3283023499534,8,"[3.5773486000252888, 18.982211599941365, 16.88216400006786, 20.156676699989475, 4.250862299930304, 4.486368599929847, 5.50402979995124, 11.288349600043148]","[0.014339299988932908, 18.982218499993905, 0.0363337000599131, 0.0002516999375075102, 0.06606069998815656, 0.11636049998924136, 0.03108959994278848, 11.288357399986126]",0,,,,,,,,,,,,,,,,,,,,,,,,,,,,,,,,,,,,,,,,,,,,,,,,,,,,,,,,,,,,,,,,,,,,,,,,,,,,,,,,,,,,,,,,,,,,,,,,,,,,,,,,,,,,,,,,,,,,,,,,,,,,HX3J13,Train_y,red_square,top_left,2025-06-24_15h57.00.262,HideSeek_v1,2022.2.5,59.98900999952131,
,,,,,,,,,,,,,,,0,0,0,0,8,0,8,0,,,,,,,,,,,,,,,,,,,,,,,,,,,,,,,conditions/schedules/Train_y_first/red_square_00/top_left/instructions/Slide9.png,conditions/schedules/Train_y_first/red_square_00/top_left/instructions/Audio9.wav,556.6894181000534,556.6875867499621,9,"[3.5773486000252888, 18.982211599941365, 16.88216400006786, 20.156676699989475, 4.250862299930304, 4.486368599929847, 5.50402979995124, 11.288349600043148, 6.4013870999915525]","[0.014339299988932908, 18.982218499993905, 0.0363337000599131, 0.0002516999375075102, 0.06606069998815656, 0.11636049998924136, 0.03108959994278848, 0.04733019997365773, 6.401395099936053]",0,,,,,,,,,,,,,,,,,,,,,,,,,,,,,,,,,,,,,,,,,,,,,,,,,,,,,,,,,,,,,,,,,,,,,,,,,,,,,,,,,,,,,,,,,,,,,,,,,,,,,,,,,,,,,,,,,,,,,,,,,,,,HX3J13,Train_y,red_square,top_left,2025-06-24_15h57.00.262,HideSeek_v1,2022.2.5,59.98900999952131,
,,,,,,,,,,,,,,,0,0,0,0,9,0,9,0,,,,,,,,,,,,,,,,,,,,,,,,,,,,,,,conditions/schedules/Train_y_first/red_square_00/top_left/instructions/Slide10.png,conditions/schedules/Train_y_first/red_square_00/top_left/instructions/Audio10.wav,563.138113199966,563.1261146300122,10,"[3.5773486000252888, 18.982211599941365, 16.88216400006786, 20.156676699989475, 4.250862299930304, 4.486368599929847, 5.50402979995124, 11.288349600043148, 6.4013870999915525, 6.925143499975093]","[0.014339299988932908, 18.982218499993905, 0.0363337000599131, 0.0002516999375075102, 0.06606069998815656, 0.11636049998924136, 0.03108959994278848, 0.04733019997365773, 0.05292379995808005, 6.925153299933299]",0,,,,,,,,,,,,,,,,,,,,,,,,,,,,,,,,,,,,,,,,,,,,,,,,,,,,,,,,,,,,,,,,,,,,,,,,,,,,,,,,,,,,,,,,,,,,,,,,,,,,,,,,,,,,,,,,,,,,,,,,,,,,HX3J13,Train_y,red_square,top_left,2025-06-24_15h57.00.262,HideSeek_v1,2022.2.5,59.98900999952131,
,,,,,,,,,,,,,,,0,0,0,0,10,0,10,0,,,,,,,,,,,,,,,,,,,,,,,,,,,,,,,conditions/schedules/Train_y_first/red_square_00/top_left/instructions/Slide11.png,conditions/schedules/Train_y_first/red_square_00/top_left/instructions/Audio11.wav,570.119147200021,570.1154538400239,11,"[3.5773486000252888, 18.982211599941365, 16.88216400006786, 20.156676699989475, 4.250862299930304, 4.486368599929847, 5.50402979995124, 11.288349600043148, 6.4013870999915525, 6.925143499975093, 10.135737800039351]","[0.014339299988932908, 18.982218499993905, 0.0363337000599131, 0.0002516999375075102, 0.06606069998815656, 0.11636049998924136, 0.03108959994278848, 0.04733019997365773, 0.05292379995808005, 0.04632710001897067, 10.135743999970146]",0,,,,,,,,,,,,,,,,,,,,,,,,,,,,,,,,,,,,,,,,,,,,,,,,,,,,,,,,,,,,,,,,,,,,,,,,,,,,,,,,,,,,,,,,,,,,,,,,,,,,,,,,,,,,,,,,,,,,,,,,,,,,HX3J13,Train_y,red_square,top_left,2025-06-24_15h57.00.262,HideSeek_v1,2022.2.5,59.98900999952131,
,,,,,,,,,,,,,,,0,0,0,0,11,0,11,0,,,,,,,,,,,,,,,,,,,,,,,,,,,,,,,conditions/schedules/Train_y_first/red_square_00/top_left/instructions/Slide12.png,conditions/schedules/Train_y_first/red_square_00/top_left/instructions/Audio12.wav,580.3288492000429,580.3244088499923,12,"[3.5773486000252888, 18.982211599941365, 16.88216400006786, 20.156676699989475, 4.250862299930304, 4.486368599929847, 5.50402979995124, 11.288349600043148, 6.4013870999915525, 6.925143499975093, 10.135737800039351, 13.754286999930628]","[0.014339299988932908, 18.982218499993905, 0.0363337000599131, 0.0002516999375075102, 0.06606069998815656, 0.11636049998924136, 0.03108959994278848, 0.04733019997365773, 0.05292379995808005, 0.04632710001897067, 0.030256600002758205, 13.754293899983168]",0,,,,,,,,,,,,,,,,,,,,,,,,,,,,,,,,,,,,,,,,,,,,,,,,,,,,,,,,,,,,,,,,,,,,,,,,,,,,,,,,,,,,,,,,,,,,,,,,,,,,,,,,,,,,,,,,,,,,,,,,,,,,HX3J13,Train_y,red_square,top_left,2025-06-24_15h57.00.262,HideSeek_v1,2022.2.5,59.98900999952131,
1,2,8,2,3,0,-5,11,2,instr_dim1_1,,,,,,0,0,0,0,,,,,0,0,0,0,,,,,,,,,,,,,,,,,,,,,,,,,,,,,,,,,,,,,stimuli/alien_stimuli/11.png,conditions/schedules/Train_y_first/red_square_00/top_left/inputInstr_1.xlsx,stimuli/alien_stimuli/11.png,594.1926687000087,594.1926687000087,594.1926687000087,594.1926687000087,594.1857562699704,return,11.381779100047424,"[-0.16, -0.08, 0, 0.08, 0.16, 0.24, 0.32, 0.4, 0.48, 0.56]","[-0.4, -0.32, -0.24, -0.16, -0.08, 0, 0.08, 0.16, 0.24, 0.32]",3,8,2,2,0.4,0.0,605.7522651000181,605.7522651000181,605.7522651000181,605.7522651000181,605.7522651000181,605.7522651000181,605.7522651000181,605.7451043999754,8.123445000033826,return,7.938422299921513,stimuli/alien_stimuli/11.png,11,2,1,,,,,,,,,,,,,,,,,,,,,,,,,,,,,,,,,,,,,,,,,,,,,,,,,,,,,,,,,,,,,,,,,,,,,,,,,,,,,,,,,,,,,,,,,HX3J13,Train_y,red_square,top_left,2025-06-24_15h57.00.262,HideSeek_v1,2022.2.5,59.98900999952131,
,,,,,,,,,,,30,,,,0,0,0,0,,,,,,,,,,,,,,,,,,,,,,,,,,,,,,,,,,,,,,,,,,,,,,,,,,,,,,,,,,,,,,,,,,,,,,,,,,,,,,21,0.7,0,0,99,1,30,0,conditions/schedules/Train_y_first/red_square_00/top_left/inputTrain_1.1.xlsx,99,1,1,1,0,,,,,,,,,,,,,,,,,,,,,,,,,,,,,,,,,,,,,,,,,,,,,,,,,,,,,,,,,,,,,,,,,,,,,,,,,,,HX3J13,Train_y,red_square,top_left,2025-06-24_15h57.00.262,HideSeek_v1,2022.2.5,59.98900999952131,
,,,,,,,,,,,,,,,1,0,1,0,0,0,0,0,,,,,,,,,,,,,,,,,,,,,,,,,,,,,,,conditions/schedules/Train_y_first/red_square_00/top_left/instructions/Slide13.png,conditions/schedules/Train_y_first/red_square_00/top_left/instructions/Audio13.wav,613.8493746999884,613.8516360899317,13,"[3.5773486000252888, 18.982211599941365, 16.88216400006786, 20.156676699989475, 4.250862299930304, 4.486368599929847, 5.50402979995124, 11.288349600043148, 6.4013870999915525, 6.925143499975093, 10.135737800039351, 13.754286999930628, 17.230972700053826]","[0.014339299988932908, 18.982218499993905, 0.0363337000599131, 0.0002516999375075102, 0.06606069998815656, 0.11636049998924136, 0.03108959994278848, 0.04733019997365773, 0.05292379995808005, 0.04632710001897067, 0.030256600002758205, 13.754293899983168, 17.230979999992996]",0,,,,,,,,,,,,,,,,,,,,,,,,,,,,,,,,,,,,,,,,,,,,,,,,,,,,,,,,,,,,,,,,,,,,,,,,,,,,,,,,,,,,,,,,,,,,,,,,,,,,,,,,,,,,,,,,,,,,,,,,,,,,HX3J13,Train_y,red_square,top_left,2025-06-24_15h57.00.262,HideSeek_v1,2022.2.5,59.98900999952131,
,,,,,,,,,,,,,,,1,0,1,0,1,0,1,0,,,,,,,,,,,,,,,,,,,,,,,,,,,,,,,conditions/schedules/Train_y_first/red_square_00/top_left/instructions/Slide14.png,conditions/schedules/Train_y_first/red_square_00/top_left/instructions/Audio14.wav,631.1544409999624,631.1494327500113,14,"[3.5773486000252888, 18.982211599941365, 16.88216400006786, 20.156676699989475, 4.250862299930304, 4.486368599929847, 5.50402979995124, 11.288349600043148, 6.4013870999915525, 6.925143499975093, 10.135737800039351, 13.754286999930628, 17.230972700053826, 16.572787899989635]","[0.014339299988932908, 18.982218499993905, 0.0363337000599131, 0.0002516999375075102, 0.06606069998815656, 0.11636049998924136, 0.03108959994278848, 0.04733019997365773, 0.05292379995808005, 0.04632710001897067, 0.030256600002758205, 13.754293899983168, 0.0002370999427512288, 16.57279450003989]",0,,,,,,,,,,,,,,,,,,,,,,,,,,,,,,,,,,,,,,,,,,,,,,,,,,,,,,,,,,,,,,,,,,,,,,,,,,,,,,,,,,,,,,,,,,,,,,,,,,,,,,,,,,,,,,,,,,,,,,,,,,,,HX3J13,Train_y,red_square,top_left,2025-06-24_15h57.00.262,HideSeek_v1,2022.2.5,59.98900999952131,
2,0,8,0,8,0,0,16,2,instr_dim1_1,,,,,,1,0,1,0,,,,,0,0,0,0,,,,,,,,,,,,,,,,,,,,,,,,,,,,,,,,,,,,,stimuli/alien_stimuli/16.png,conditions/schedules/Train_y_first/red_square_00/top_left/inputInstr_1.xlsx,stimuli/alien_stimuli/16.png,647.8293424999574,647.8293424999574,647.8293424999574,647.8293424999574,647.8296727698878,return,6.038838500040583,"[-0.16, -0.08, 0, 0.08, 0.16, 0.24, 0.32, 0.4, 0.48, 0.56]","[-0.4, -0.32, -0.24, -0.16, -0.08, 0, 0.08, 0.16, 0.24, 0.32]",8,8,0,0,0.0,0.0,654.0126574999886,654.0126574999886,654.0126574999886,654.0126574999886,654.0126574999886,654.0126574999886,654.0126574999886,654.0016039798967,7.340168899972923,return,7.179916299995966,stimuli/alien_stimuli/16.png,16,0,2,,,,,,,,,,,,,,,,,,,,,,,,,,,,,,,,,,,,,,,,,,,,,,,,,,,,,,,,,,,,,,,,,,,,,,,,,,,,,,,,,,,,,,,,,HX3J13,Train_y,red_square,top_left,2025-06-24_15h57.00.262,HideSeek_v1,2022.2.5,59.98900999952131,
,,,,,,,,,,,30,,,,1,0,1,0,,,,,,,,,,,,,,,,,,,,,,,,,,,,,,,,,,,,,,,,,,,,,,,,,,,,,,,,,,,,,,,,,,,,,,,,,,,,,,21,0.7,0,0,99,1,30,0,conditions/schedules/Train_y_first/red_square_00/top_left/inputTrain_1.1.xlsx,99,1,1,1,0,,,,,,,,,,,,,,,,,,,,,,,,,,,,,,,,,,,,,,,,,,,,,,,,,,,,,,,,,,,,,,,,,,,,,,,,,,,HX3J13,Train_y,red_square,top_left,2025-06-24_15h57.00.262,HideSeek_v1,2022.2.5,59.98900999952131,
,,,,,,,,,,,,,,,2,0,2,0,0,0,0,0,,,,,,,,,,,,,,,,,,,,,,,,,,,,,,,conditions/schedules/Train_y_first/red_square_00/top_left/instructions/Slide15.png,conditions/schedules/Train_y_first/red_square_00/top_left/instructions/Audio15.wav,661.3636084999889,661.3576704898966,15,"[3.5773486000252888, 18.982211599941365, 16.88216400006786, 20.156676699989475, 4.250862299930304, 4.486368599929847, 5.50402979995124, 11.288349600043148, 6.4013870999915525, 6.925143499975093, 10.135737800039351, 13.754286999930628, 17.230972700053826, 16.572787899989635, 41.92654949997086]","[0.014339299988932908, 18.982218499993905, 0.0363337000599131, 0.0002516999375075102, 0.06606069998815656, 0.11636049998924136, 0.03108959994278848, 0.04733019997365773, 0.05292379995808005, 0.04632710001897067, 0.030256600002758205, 13.754293899983168, 0.0002370999427512288, 16.57279450003989, 41.926557300030254]",0,,,,,,,,,,,,,,,,,,,,,,,,,,,,,,,,,,,,,,,,,,,,,,,,,,,,,,,,,,,,,,,,,,,,,,,,,,,,,,,,,,,,,,,,,,,,,,,,,,,,,,,,,,,,,,,,,,,,,,,,,,,,HX3J13,Train_y,red_square,top_left,2025-06-24_15h57.00.262,HideSeek_v1,2022.2.5,59.98900999952131,
,,,,,,,,,,,,,,,2,0,2,0,1,0,1,0,,,,,,,,,,,,,,,,,,,,,,,,,,,,,,,conditions/schedules/Train_y_first/red_square_00/top_left/instructions/Slide16.png,conditions/schedules/Train_y_first/red_square_00/top_left/instructions/Audio16.wav,703.3643033000408,703.359757350001,16,"[3.5773486000252888, 18.982211599941365, 16.88216400006786, 20.156676699989475, 4.250862299930304, 4.486368599929847, 5.50402979995124, 11.288349600043148, 6.4013870999915525, 6.925143499975093, 10.135737800039351, 13.754286999930628, 17.230972700053826, 16.572787899989635, 41.92654949997086, 20.859738599974662]","[0.014339299988932908, 18.982218499993905, 0.0363337000599131, 0.0002516999375075102, 0.06606069998815656, 0.11636049998924136, 0.03108959994278848, 0.04733019997365773, 0.05292379995808005, 0.04632710001897067, 0.030256600002758205, 13.754293899983168, 0.0002370999427512288, 16.57279450003989, 0.097460399963893, 20.859745600027964]",0,,,,,,,,,,,,,,,,,,,,,,,,,,,,,,,,,,,,,,,,,,,,,,,,,,,,,,,,,,,,,,,,,,,,,,,,,,,,,,,,,,,,,,,,,,,,,,,,,,,,,,,,,,,,,,,,,,,,,,,,,,,,HX3J13,Train_y,red_square,top_left,2025-06-24_15h57.00.262,HideSeek_v1,2022.2.5,59.98900999952131,
,0,5,0,4,0,-1,15,,train_dim1_1,1,30,,,,2,0,2,0,,,,,,,,,0,0,0,0,0,0,0,0,0,0,0,0,,,,,,,,,,,,,,,,,,,,,,,,,stimuli/alien_stimuli/15.png,,,,,,,,,,,,,,,,,,,,,,,,,,,,,,,,,,,,,,,30,,,,,,,,724.3342911000364,724.3342911000364,724.3342911000364,724.3342911000364,724.3342911000364,right,3.9631923000561073,0,0,0,99,-0.08,0,right,3.8582067999523133,,,,,,,,,,,,,,,,,,,,,,,,,,,,,,,,,,,,,,,,,,,,,,,,,,,,,,,,,,,,HX3J13,Train_y,red_square,top_left,2025-06-24_15h57.00.262,HideSeek_v1,2022.2.5,59.98900999952131,
,0,5,0,4,0,-1,15,,train_dim1_1,1,30,,,,2,0,2,0,,,,,,,,,0,0,0,0,0,0,0,0,1,0,1,0,,,,,,,,,,,,,,,,,,,,,,,,,,,,,,,,,,,,,,,,,,,,,,,,,,,,,,,,,,,,,,,,30,,,,,,,,728.2827961000148,728.2827961000148,728.2827961000148,728.2827961000148,728.2827961000148,left,0.9426965999882668,0,0,0,99,-0.16,0,left,0.8500277999555692,,,,,,,,,,,,,,,,,,,,,,,,,,,,,,,,,,,,,,,,,,,,,,,,,,,,,,,,,,,,HX3J13,Train_y,red_square,top_left,2025-06-24_15h57.00.262,HideSeek_v1,2022.2.5,59.98900999952131,
,0,5,0,4,0,-1,15,,train_dim1_1,1,30,,,,2,0,2,0,,,,,,,,,0,0,0,0,0,0,0,0,2,0,2,0,,,,,,,,,,,,,,,,,,,,,,,,,,,,,,,,,,,,,,,,,,,,,,,,,,,,,,,,,,,,,,,,30,,,,,,,,729.2324059000239,729.2324059000239,729.2324059000239,729.2324059000239,729.2324059000239,return,0.9103166999993846,0,1,0,0,-0.16,0,return,0.8204145999625325,0,0,-0.16,0,,,,,,,,,,,,,,,,,,,,,,,,,,,,,,,,,,,,,,,,,,,,,,,,,,,,,,,,HX3J13,Train_y,red_square,top_left,2025-06-24_15h57.00.262,HideSeek_v1,2022.2.5,59.98900999952131,
,3,7,3,7,0,0,16,,train_dim1_1,2,30,,,,2,0,2,0,,,,,,,,,0,0,0,0,0,1,1,1,0,0,0,0,,,,,,,,,,,,,,,,,,,,,,,,,stimuli/alien_stimuli/16.png,,,,,,,,,,,,,,,,,,,,,,,,,,,,,stimuli/alien_stimuli/15.png,15,0,3,,,,,,,30,,,,,,,,754.2427039999748,754.2427039999748,754.2427039999748,754.2427039999748,754.2427039999748,right,3.789227000088431,0,1,0,99,0.16,0.16,right,3.6945257000625134,,,,,752.6669745999388,754.2427039999748,-0.16,-0.08,0.08,0.0,-0.04,-0.16,-0.16,-0.16,-0.08,731.7217512000352,731.7217512000352,731.7217512000352,731.7217512000352,731.7217512000352,731.7217512000352,731.7217512000352,731.7217512000352,731.7161261799512,21.069612100021914,return,20.923058000043966,,,,,,,,,,,,,,,,,,,,,,,,,,,,,,,,,HX3J13,Train_y,red_square,top_left,2025-06-24_15h57.00.262,HideSeek_v1,2022.2.5,59.98900999952131,
,3,7,3,7,0,0,16,,train_dim1_1,2,30,,,,2,0,2,0,,,,,,,,,0,0,0,0,0,1,1,1,1,0,1,0,,,,,,,,,,,,,,,,,,,,,,,,,,,,,,,,,,,,,,,,,,,,,,,,,,,,,,,,,,,,,,,,30,,,,,,,,758.0229714999441,758.0229714999441,758.0229714999441,758.0229714999441,758.0229714999441,return,1.7440149000613019,0,1,0,0,0.16,0.16,return,1.6631425000960007,0,1,0.16,0.16,,,,,,,,,,,,,,,,,,,,,,,,,,,,,,,,,,,,,,,,,,,,,,,,,,,,,,,,HX3J13,Train_y,red_square,top_left,2025-06-24_15h57.00.262,HideSeek_v1,2022.2.5,59.98900999952131,
,2,8,2,5,0,-3,13,,train_dim1_1,3,30,,,,2,0,2,0,,,,,,,,,0,0,0,0,0,2,2,2,0,0,0,0,,,,,,,,,,,,,,,,,,,,,,,,,stimuli/alien_stimuli/13.png,,,,,,,,,,,,,,,,,,,,,,,,,,,,,stimuli/alien_stimuli/16.png,16,3,4,,,,,,,30,,,,,,,,773.7217085999437,773.7217085999437,773.7217085999437,773.7217085999437,773.7217085999437,down,1.8225841999519616,0,1,0,99,0,0.15999999999999998,down,1.7185819000005722,,,,,772.1498542999616,773.7217085999437,0.08,0.16,0.0,0.0,0.16,0.08,0.08,0.08,0.16,761.3443171000108,761.3443171000108,761.3443171000108,761.3443171000108,761.3443171000108,761.3443171000108,761.3443171000108,761.3443171000108,761.340726679936,10.927485899999738,return,10.784161699935794,,,,,,,,,,,,,,,,,,,,,,,,,,,,,,,,,HX3J13,Train_y,red_square,top_left,2025-06-24_15h57.00.262,HideSeek_v1,2022.2.5,59.98900999952131,
,2,8,2,5,0,-3,13,,train_dim1_1,3,30,,,,2,0,2,0,,,,,,,,,0,0,0,0,0,2,2,2,1,0,1,0,,,,,,,,,,,,,,,,,,,,,,,,,,,,,,,,,,,,,,,,,,,,,,,,,,,,,,,,,,,,,,,,30,,,,,,,,775.5364470999921,775.5364470999921,775.5364470999921,775.5364470999921,775.5364470999921,down,0.7431558999232948,0,1,0,99,0,0.07999999999999997,down,0.6651330000022426,,,,,,,,,,,,,,,,,,,,,,,,,,,,,,,,,,,,,,,,,,,,,,,,,,,,,,,,,,,,HX3J13,Train_y,red_square,top_left,2025-06-24_15h57.00.262,HideSeek_v1,2022.2.5,59.98900999952131,
,2,8,2,5,0,-3,13,,train_dim1_1,3,30,,,,2,0,2,0,,,,,,,,,0,0,0,0,0,2,2,2,2,0,2,0,,,,,,,,,,,,,,,,,,,,,,,,,,,,,,,,,,,,,,,,,,,,,,,,,,,,,,,,,,,,,,,,30,,,,,,,,776.2861147000222,776.2861147000222,776.2861147000222,776.2861147000222,776.2861147000222,down,0.810499900020659,0,1,0,99,0,-2.7755575615628914e-17,down,0.7275921000400558,,,,,,,,,,,,,,,,,,,,,,,,,,,,,,,,,,,,,,,,,,,,,,,,,,,,,,,,,,,,HX3J13,Train_y,red_square,top_left,2025-06-24_15h57.00.262,HideSeek_v1,2022.2.5,59.98900999952131,
,2,8,2,5,0,-3,13,,train_dim1_1,3,30,,,,2,0,2,0,,,,,,,,,0,0,0,0,0,2,2,2,3,0,3,0,,,,,,,,,,,,,,,,,,,,,,,,,,,,,,,,,,,,,,,,,,,,,,,,,,,,,,,,,,,,,,,,30,,,,,,,,777.1195367999608,777.1195367999608,777.1195367999608,777.1195367999608,777.1195367999608,down,0.7398735999595374,0,1,0,99,0,-0.08000000000000003,down,0.6398657000390813,,,,,,,,,,,,,,,,,,,,,,,,,,,,,,,,,,,,,,,,,,,,,,,,,,,,,,,,,,,,HX3J13,Train_y,red_square,top_left,2025-06-24_15h57.00.262,HideSeek_v1,2022.2.5,59.98900999952131,
,2,8,2,5,0,-3,13,,train_dim1_1,3,30,,,,2,0,2,0,,,,,,,,,0,0,0,0,0,2,2,2,4,0,4,0,,,,,,,,,,,,,,,,,,,,,,,,,,,,,,,,,,,,,,,,,,,,,,,,,,,,,,,,,,,,,,,,30,,,,,,,,777.8601363999769,777.8601363999769,777.8601363999769,777.8601363999769,777.8601363999769,down,0.8727766000665724,0,1,0,99,0,-0.16000000000000003,down,0.780064900056459,,,,,,,,,,,,,,,,,,,,,,,,,,,,,,,,,,,,,,,,,,,,,,,,,,,,,,,,,,,,HX3J13,Train_y,red_square,top_left,2025-06-24_15h57.00.262,HideSeek_v1,2022.2.5,59.98900999952131,
,2,8,2,5,0,-3,13,,train_dim1_1,3,30,,,,2,0,2,0,,,,,,,,,0,0,0,0,0,2,2,2,5,0,5,0,,,,,,,,,,,,,,,,,,,,,,,,,,,,,,,,,,,,,,,,,,,,,,,,,,,,,,,,,,,,,,,,30,,,,,,,,778.7388970999746,778.7388970999746,778.7388970999746,778.7388970999746,778.7388970999746,return,0.6769048999994993,0,0,0,0,0,-0.16000000000000003,return,0.5986106999916956,-5,1,0,-0.16000000000000003,,,,,,,,,,,,,,,,,,,,,,,,,,,,,,,,,,,,,,,,,,,,,,,,,,,,,,,,HX3J13,Train_y,red_square,top_left,2025-06-24_15h57.00.262,HideSeek_v1,2022.2.5,59.98900999952131,
,0,6,0,2,0,-4,12,,train_dim1_1,4,30,,,,2,0,2,0,,,,,,,,,0,0,0,0,0,3,3,3,0,0,0,0,,,,,,,,,,,,,,,,,,,,,,,,,stimuli/alien_stimuli/12.png,,,,,,,,,,,,,,,,,,,,,,,,,,,,,stimuli/alien_stimuli/13.png,13,2,5,,,,,,,30,,,,,,,,790.7251122000162,790.7251122000162,790.7251122000162,790.7251122000162,790.7251122000162,right,3.2893112999154255,0,0,0,99,-0.08,0.08,right,3.2090268000029027,,,,,789.1637347999495,790.7251122000162,0,0,0.24,0.0,0.12,0,0.0,0,0,780.9915783000179,780.9915783000179,780.9915783000179,780.9915783000179,780.9915783000179,780.9915783000179,780.9915783000179,780.9915783000179,780.9902205799473,8.292315499973483,return,8.143868100014515,,,,,,,,,,,,,,,,,,,,,,,,,,,,,,,,,HX3J13,Train_y,red_square,top_left,2025-06-24_15h57.00.262,HideSeek_v1,2022.2.5,59.98900999952131,
,0,6,0,2,0,-4,12,,train_dim1_1,4,30,,,,2,0,2,0,,,,,,,,,0,0,0,0,0,3,3,3,1,0,1,0,,,,,,,,,,,,,,,,,,,,,,,,,,,,,,,,,,,,,,,,,,,,,,,,,,,,,,,,,,,,,,,,30,,,,,,,,794.0188178999815,794.0188178999815,794.0188178999815,794.0188178999815,794.0188178999815,right,0.7434981999685988,0,0,0,99,0.0,0.08,right,0.6582738000433892,,,,,,,,,,,,,,,,,,,,,,,,,,,,,,,,,,,,,,,,,,,,,,,,,,,,,,,,,,,,HX3J13,Train_y,red_square,top_left,2025-06-24_15h57.00.262,HideSeek_v1,2022.2.5,59.98900999952131,
,0,6,0,2,0,-4,12,,train_dim1_1,4,30,,,,2,0,2,0,,,,,,,,,0,0,0,0,0,3,3,3,2,0,2,0,,,,,,,,,,,,,,,,,,,,,,,,,,,,,,,,,,,,,,,,,,,,,,,,,,,,,,,,,,,,,,,,30,,,,,,,,794.7770973000443,794.7770973000443,794.7770973000443,794.7770973000443,794.7770973000443,right,0.8186333000194281,0,0,0,99,0.08,0.08,right,0.7418665000004694,,,,,,,,,,,,,,,,,,,,,,,,,,,,,,,,,,,,,,,,,,,,,,,,,,,,,,,,,,,,HX3J13,Train_y,red_square,top_left,2025-06-24_15h57.00.262,HideSeek_v1,2022.2.5,59.98900999952131,
,0,6,0,2,0,-4,12,,train_dim1_1,4,30,,,,2,0,2,0,,,,,,,,,0,0,0,0,0,3,3,3,3,0,3,0,,,,,,,,,,,,,,,,,,,,,,,,,,,,,,,,,,,,,,,,,,,,,,,,,,,,,,,,,,,,,,,,30,,,,,,,,795.603900999995,795.603900999995,795.603900999995,795.603900999995,795.603900999995,return,0.8930635000579059,0,0,0,0,0.08,0.08,return,0.8003415000857785,-5,4,0.08,0.08,,,,,,,,,,,,,,,,,,,,,,,,,,,,,,,,,,,,,,,,,,,,,,,,,,,,,,,,HX3J13,Train_y,red_square,top_left,2025-06-24_15h57.00.262,HideSeek_v1,2022.2.5,59.98900999952131,
,3,8,3,3,0,-5,11,,train_dim1_1,5,30,,,,2,0,2,0,,,,,,,,,0,0,0,0,0,4,4,4,0,0,0,0,,,,,,,,,,,,,,,,,,,,,,,,,stimuli/alien_stimuli/11.png,,,,,,,,,,,,,,,,,,,,,,,,,,,,,stimuli/alien_stimuli/12.png,12,0,6,,,,,,,30,,,,,,,,807.5545310999732,807.5545310999732,807.5545310999732,807.5545310999732,807.5545310999732,down,2.3539910999825224,0,0,0,99,0.08,0.15999999999999998,down,2.260763099999167,,,,,805.9944095000392,807.5545310999732,-0.16,-0.24,0.32,0.0,-0.07999999999999999,-0.16,-0.16,-0.16,-0.24,798.0755334999412,798.0755334999412,798.0755334999412,798.0755334999412,798.0755334999412,798.0755334999412,798.0755334999412,798.0755334999412,798.0712281798943,8.042279600049369,return,7.897757000057027,,,,,,,,,,,,,,,,,,,,,,,,,,,,,,,,,HX3J13,Train_y,red_square,top_left,2025-06-24_15h57.00.262,HideSeek_v1,2022.2.5,59.98900999952131,
,3,8,3,3,0,-5,11,,train_dim1_1,5,30,,,,2,0,2,0,,,,,,,,,0,0,0,0,0,4,4,4,1,0,1,0,,,,,,,,,,,,,,,,,,,,,,,,,,,,,,,,,,,,,,,,,,,,,,,,,,,,,,,,,,,,,,,,30,,,,,,,,809.9150851999875,809.9150851999875,809.9150851999875,809.9150851999875,809.9150851999875,down,0.4931137999519706,0,0,0,99,0.08,0.07999999999999997,down,0.4115172999445349,,,,,,,,,,,,,,,,,,,,,,,,,,,,,,,,,,,,,,,,,,,,,,,,,,,,,,,,,,,,HX3J13,Train_y,red_square,top_left,2025-06-24_15h57.00.262,HideSeek_v1,2022.2.5,59.98900999952131,
,3,8,3,3,0,-5,11,,train_dim1_1,5,30,,,,2,0,2,0,,,,,,,,,0,0,0,0,0,4,4,4,2,0,2,0,,,,,,,,,,,,,,,,,,,,,,,,,,,,,,,,,,,,,,,,,,,,,,,,,,,,,,,,,,,,,,,,30,,,,,,,,810.4150143000297,810.4150143000297,810.4150143000297,810.4150143000297,810.4150143000297,down,0.4266887999838218,0,0,0,99,0.08,-2.7755575615628914e-17,down,0.33910099999047816,,,,,,,,,,,,,,,,,,,,,,,,,,,,,,,,,,,,,,,,,,,,,,,,,,,,,,,,,,,,HX3J13,Train_y,red_square,top_left,2025-06-24_15h57.00.262,HideSeek_v1,2022.2.5,59.98900999952131,
,3,8,3,3,0,-5,11,,train_dim1_1,5,30,,,,2,0,2,0,,,,,,,,,0,0,0,0,0,4,4,4,3,0,3,0,,,,,,,,,,,,,,,,,,,,,,,,,,,,,,,,,,,,,,,,,,,,,,,,,,,,,,,,,,,,,,,,30,,,,,,,,810.8487672000192,810.8487672000192,810.8487672000192,810.8487672000192,810.8487672000192,return,1.5941594999749213,0,0,0,0,0.08,-2.7755575615628914e-17,return,1.5091092999791726,-8,4,0.08,-2.7755575615628914e-17,,,,,,,,,,,,,,,,,,,,,,,,,,,,,,,,,,,,,,,,,,,,,,,,,,,,,,,,HX3J13,Train_y,red_square,top_left,2025-06-24_15h57.00.262,HideSeek_v1,2022.2.5,59.98900999952131,
,1,9,1,5,0,-4,12,,train_dim1_1,6,30,,,,2,0,2,0,,,,,,,,,0,0,0,0,0,5,5,5,0,0,0,0,,,,,,,,,,,,,,,,,,,,,,,,,stimuli/alien_stimuli/12.png,,,,,,,,,,,,,,,,,,,,,,,,,,,,,stimuli/alien_stimuli/11.png,11,3,7,,,,,,,30,,,,,,,,819.4289633999579,819.4289633999579,819.4289633999579,819.4289633999579,819.4289633999579,down,2.0390528000425547,0,0,0,99,-0.08,0.24,down,1.947870900039561,,,,,817.8710874000099,819.4289633999579,0.08,-0.16,0.4,0.0,0.039999999999999994,0.08,0.08,0.08,-0.16,814.0185612000059,814.0185612000059,814.0185612000059,814.0185612000059,814.0185612000059,814.0185612000059,814.0185612000059,814.0185612000059,814.0176550798816,3.9723590000066906,return,3.8349570999853313,,,,,,,,,,,,,,,,,,,,,,,,,,,,,,,,,HX3J13,Train_y,red_square,top_left,2025-06-24_15h57.00.262,HideSeek_v1,2022.2.5,59.98900999952131,
,1,9,1,5,0,-4,12,,train_dim1_1,6,30,,,,2,0,2,0,,,,,,,,,0,0,0,0,0,5,5,5,1,0,1,0,,,,,,,,,,,,,,,,,,,,,,,,,,,,,,,,,,,,,,,,,,,,,,,,,,,,,,,,,,,,,,,,30,,,,,,,,821.4746372000081,821.4746372000081,821.4746372000081,821.4746372000081,821.4746372000081,down,0.6432391999987885,0,0,0,99,-0.08,0.15999999999999998,down,0.5511935000540689,,,,,,,,,,,,,,,,,,,,,,,,,,,,,,,,,,,,,,,,,,,,,,,,,,,,,,,,,,,,HX3J13,Train_y,red_square,top_left,2025-06-24_15h57.00.262,HideSeek_v1,2022.2.5,59.98900999952131,
,1,9,1,5,0,-4,12,,train_dim1_1,6,30,,,,2,0,2,0,,,,,,,,,0,0,0,0,0,5,5,5,2,0,2,0,,,,,,,,,,,,,,,,,,,,,,,,,,,,,,,,,,,,,,,,,,,,,,,,,,,,,,,,,,,,,,,,30,,,,,,,,822.1249513999792,822.1249513999792,822.1249513999792,822.1249513999792,822.1249513999792,down,0.40997040004003793,0,0,0,99,-0.08,0.07999999999999997,down,0.3261964999837801,,,,,,,,,,,,,,,,,,,,,,,,,,,,,,,,,,,,,,,,,,,,,,,,,,,,,,,,,,,,HX3J13,Train_y,red_square,top_left,2025-06-24_15h57.00.262,HideSeek_v1,2022.2.5,59.98900999952131,
,1,9,1,5,0,-4,12,,train_dim1_1,6,30,,,,2,0,2,0,,,,,,,,,0,0,0,0,0,5,5,5,3,0,3,0,,,,,,,,,,,,,,,,,,,,,,,,,,,,,,,,,,,,,,,,,,,,,,,,,,,,,,,,,,,,,,,,30,,,,,,,,822.543091999949,822.543091999949,822.543091999949,822.543091999949,822.543091999949,down,2.544648499926552,0,0,0,99,-0.08,-2.7755575615628914e-17,down,2.4652161000994965,,,,,,,,,,,,,,,,,,,,,,,,,,,,,,,,,,,,,,,,,,,,,,,,,,,,,,,,,,,,HX3J13,Train_y,red_square,top_left,2025-06-24_15h57.00.262,HideSeek_v1,2022.2.5,59.98900999952131,
,1,9,1,5,0,-4,12,,train_dim1_1,6,30,,,,2,0,2,0,,,,,,,,,0,0,0,0,0,5,5,5,4,0,4,0,,,,,,,,,,,,,,,,,,,,,,,,,,,,,,,,,,,,,,,,,,,,,,,,,,,,,,,,,,,,,,,,30,,,,,,,,825.0946386000142,825.0946386000142,825.0946386000142,825.0946386000142,825.0946386000142,return,1.894696700037457,1,0,0,1,-0.08,-2.7755575615628914e-17,return,1.810430399957113,-12,4,-0.08,-2.7755575615628914e-17,,,,,,,,,,,,,,,,,,,,,,,,,,,,,,,,,,,,,,,,,,,,,,,,,,,,,,,,HX3J13,Train_y,red_square,top_left,2025-06-24_15h57.00.262,HideSeek_v1,2022.2.5,59.98900999952131,
,1,8,1,5,0,-3,13,,train_dim1_1,7,30,,,,2,0,2,0,,,,,,,,,0,0,0,0,0,6,6,6,0,0,0,0,,,,,,,,,,,,,,,,,,,,,,,,,stimuli/alien_stimuli/13.png,,,,,,,,,,,,,,,,,,,,,,,,,,,,,stimuli/alien_stimuli/12.png,12,1,8,,,,,,,30,,,,,,,,833.65795360005,833.65795360005,833.65795360005,833.65795360005,833.65795360005,right,1.871532299905084,1,0,0,99,0.0,0.24,right,1.7892160000046715,,,,,832.099602799979,833.65795360005,-0.08,0,0.32,0.0,0.16,-0.08,-0.08,-0.08,0,828.5678222000133,828.5678222000133,828.5678222000133,828.5678222000133,828.5678222000133,828.5678222000133,828.5678222000133,828.5678222000133,828.56310717999,3.655509000062011,return,3.513311699964106,,,,,,,,,,,,,,,,,,,,,,,,,,,,,,,,,HX3J13,Train_y,red_square,top_left,2025-06-24_15h57.00.262,HideSeek_v1,2022.2.5,59.98900999952131,
,1,8,1,5,0,-3,13,,train_dim1_1,7,30,,,,2,0,2,0,,,,,,,,,0,0,0,0,0,6,6,6,1,0,1,0,,,,,,,,,,,,,,,,,,,,,,,,,,,,,,,,,,,,,,,,,,,,,,,,,,,,,,,,,,,,,,,,30,,,,,,,,835.5351140999701,835.5351140999701,835.5351140999701,835.5351140999701,835.5351140999701,right,0.376214100047946,1,0,0,99,0.08,0.24,right,0.2887037000618875,,,,,,,,,,,,,,,,,,,,,,,,,,,,,,,,,,,,,,,,,,,,,,,,,,,,,,,,,,,,HX3J13,Train_y,red_square,top_left,2025-06-24_15h57.00.262,HideSeek_v1,2022.2.5,59.98900999952131,
,1,8,1,5,0,-3,13,,train_dim1_1,7,30,,,,2,0,2,0,,,,,,,,,0,0,0,0,0,6,6,6,2,0,2,0,,,,,,,,,,,,,,,,,,,,,,,,,,,,,,,,,,,,,,,,,,,,,,,,,,,,,,,,,,,,,,,,30,,,,,,,,835.9188882999588,835.9188882999588,835.9188882999588,835.9188882999588,835.9188882999588,right,0.5598608000436798,1,0,0,99,0.16,0.24,right,0.4705431000329554,,,,,,,,,,,,,,,,,,,,,,,,,,,,,,,,,,,,,,,,,,,,,,,,,,,,,,,,,,,,HX3J13,Train_y,red_square,top_left,2025-06-24_15h57.00.262,HideSeek_v1,2022.2.5,59.98900999952131,
,1,8,1,5,0,-3,13,,train_dim1_1,7,30,,,,2,0,2,0,,,,,,,,,0,0,0,0,0,6,6,6,3,0,3,0,,,,,,,,,,,,,,,,,,,,,,,,,,,,,,,,,,,,,,,,,,,,,,,,,,,,,,,,,,,,,,,,30,,,,,,,,836.486843300052,836.486843300052,836.486843300052,836.486843300052,836.486843300052,right,0.47626579995267093,1,0,0,99,0.24,0.24,right,0.3936206999933347,,,,,,,,,,,,,,,,,,,,,,,,,,,,,,,,,,,,,,,,,,,,,,,,,,,,,,,,,,,,HX3J13,Train_y,red_square,top_left,2025-06-24_15h57.00.262,HideSeek_v1,2022.2.5,59.98900999952131,
,1,8,1,5,0,-3,13,,train_dim1_1,7,30,,,,2,0,2,0,,,,,,,,,0,0,0,0,0,6,6,6,4,0,4,0,,,,,,,,,,,,,,,,,,,,,,,,,,,,,,,,,,,,,,,,,,,,,,,,,,,,,,,,,,,,,,,,30,,,,,,,,836.9709327999735,836.9709327999735,836.9709327999735,836.9709327999735,836.9709327999735,return,0.5428158000577241,1,0,0,0,0.24,0.24,return,0.4646113000344485,-12,8,0.24,0.24,,,,,,,,,,,,,,,,,,,,,,,,,,,,,,,,,,,,,,,,,,,,,,,,,,,,,,,,HX3J13,Train_y,red_square,top_left,2025-06-24_15h57.00.262,HideSeek_v1,2022.2.5,59.98900999952131,
,4,7,4,2,0,-5,11,,train_dim1_1,8,30,,,,2,0,2,0,,,,,,,,,0,0,0,0,0,7,7,7,0,0,0,0,,,,,,,,,,,,,,,,,,,,,,,,,stimuli/alien_stimuli/11.png,,,,,,,,,,,,,,,,,,,,,,,,,,,,,stimuli/alien_stimuli/13.png,13,1,9,,,,,,,30,,,,,,,,851.4597260999726,851.4597260999726,851.4597260999726,851.4597260999726,851.4597260999726,down,1.185566799947992,1,0,0,99,0.16,0.08,down,1.0751325999153778,,,,,849.8806349999504,851.4597260999726,-0.08,0,0.24,0.0,0.12,-0.08,-0.08,-0.08,0,839.0887546000304,839.0887546000304,839.0887546000304,839.0887546000304,839.0887546000304,839.0887546000304,839.0887546000304,839.0887546000304,839.0884332799352,10.91113280004356,return,10.775024499977008,,,,,,,,,,,,,,,,,,,,,,,,,,,,,,,,,HX3J13,Train_y,red_square,top_left,2025-06-24_15h57.00.262,HideSeek_v1,2022.2.5,59.98900999952131,
,4,7,4,2,0,-5,11,,train_dim1_1,8,30,,,,2,0,2,0,,,,,,,,,0,0,0,0,0,7,7,7,1,0,1,0,,,,,,,,,,,,,,,,,,,,,,,,,,,,,,,,,,,,,,,,,,,,,,,,,,,,,,,,,,,,,,,,30,,,,,,,,852.63434530003,852.63434530003,852.63434530003,852.63434530003,852.63434530003,down,0.42669480002950877,1,0,0,99,0.16,0.0,down,0.34757599991280586,,,,,,,,,,,,,,,,,,,,,,,,,,,,,,,,,,,,,,,,,,,,,,,,,,,,,,,,,,,,HX3J13,Train_y,red_square,top_left,2025-06-24_15h57.00.262,HideSeek_v1,2022.2.5,59.98900999952131,
,4,7,4,2,0,-5,11,,train_dim1_1,8,30,,,,2,0,2,0,,,,,,,,,0,0,0,0,0,7,7,7,2,0,2,0,,,,,,,,,,,,,,,,,,,,,,,,,,,,,,,,,,,,,,,,,,,,,,,,,,,,,,,,,,,,,,,,30,,,,,,,,853.0686193000292,853.0686193000292,853.0686193000292,853.0686193000292,853.0686193000292,down,0.3752428999869153,1,0,0,99,0.16,-0.08,down,0.2839127000188455,,,,,,,,,,,,,,,,,,,,,,,,,,,,,,,,,,,,,,,,,,,,,,,,,,,,,,,,,,,,HX3J13,Train_y,red_square,top_left,2025-06-24_15h57.00.262,HideSeek_v1,2022.2.5,59.98900999952131,
,4,7,4,2,0,-5,11,,train_dim1_1,8,30,,,,2,0,2,0,,,,,,,,,0,0,0,0,0,7,7,7,3,0,3,0,,,,,,,,,,,,,,,,,,,,,,,,,,,,,,,,,,,,,,,,,,,,,,,,,,,,,,,,,,,,,,,,30,,,,,,,,853.4507890000241,853.4507890000241,853.4507890000241,853.4507890000241,853.4507890000241,return,0.7435575999552384,1,0,0,0,0.16,-0.08,return,0.6522099999710917,-15,8,0.16,-0.08,,,,,,,,,,,,,,,,,,,,,,,,,,,,,,,,,,,,,,,,,,,,,,,,,,,,,,,,HX3J13,Train_y,red_square,top_left,2025-06-24_15h57.00.262,HideSeek_v1,2022.2.5,59.98900999952131,
,4,8,4,7,0,-1,15,,train_dim1_1,9,30,,,,2,0,2,0,,,,,,,,,0,0,0,0,0,8,8,8,0,0,0,0,,,,,,,,,,,,,,,,,,,,,,,,,stimuli/alien_stimuli/15.png,,,,,,,,,,,,,,,,,,,,,,,,,,,,,stimuli/alien_stimuli/11.png,11,4,10,,,,,,,30,,,,,,,,862.0156617000466,862.0156617000466,862.0156617000466,862.0156617000466,862.0156617000466,right,2.9387907000491396,1,0,0,99,0.24,0.24,right,2.855959099950269,,,,,860.4561653999845,862.0156617000466,0.16,-0.24,0.4,0.0,-0.039999999999999994,0.16,0.16,0.16,-0.24,855.7716316999868,855.7716316999868,855.7716316999868,855.7716316999868,855.7716316999868,855.7716316999868,855.7716316999868,855.7716316999868,855.7688513799104,4.806243499973789,return,4.659192299935967,,,,,,,,,,,,,,,,,,,,,,,,,,,,,,,,,HX3J13,Train_y,red_square,top_left,2025-06-24_15h57.00.262,HideSeek_v1,2022.2.5,59.98900999952131,
,4,8,4,7,0,-1,15,,train_dim1_1,9,30,,,,2,0,2,0,,,,,,,,,0,0,0,0,0,8,8,8,1,0,1,0,,,,,,,,,,,,,,,,,,,,,,,,,,,,,,,,,,,,,,,,,,,,,,,,,,,,,,,,,,,,,,,,30,,,,,,,,864.9614787000464,864.9614787000464,864.9614787000464,864.9614787000464,864.9614787000464,return,1.8105268999934196,1,0,0,0,0.24,0.24,return,1.7235112999333069,-15,9,0.24,0.24,,,,,,,,,,,,,,,,,,,,,,,,,,,,,,,,,,,,,,,,,,,,,,,,,,,,,,,,HX3J13,Train_y,red_square,top_left,2025-06-24_15h57.00.262,HideSeek_v1,2022.2.5,59.98900999952131,
,2,7,2,7,0,0,16,,train_dim1_1,10,30,,,,2,0,2,0,,,,,,,,,0,0,0,0,0,9,9,9,0,0,0,0,,,,,,,,,,,,,,,,,,,,,,,,,stimuli/alien_stimuli/16.png,,,,,,,,,,,,,,,,,,,,,,,,,,,,,stimuli/alien_stimuli/15.png,15,4,11,,,,,,,30,,,,,,,,874.0594228999689,874.0594228999689,874.0594228999689,874.0594228999689,874.0594228999689,down,2.2044689999893308,1,0,0,99,0,0.08,down,2.118210199987516,,,,,872.4995955999475,874.0594228999689,0.16,0.16,0.08,0.0,0.2,0.16,0.16,0.16,0.16,868.3462612000294,868.3462612000294,868.3462612000294,868.3462612000294,868.3462612000294,868.3462612000294,868.3462612000294,868.3462612000294,868.3458192799472,4.272659600013867,return,4.1226807000348344,,,,,,,,,,,,,,,,,,,,,,,,,,,,,,,,,HX3J13,Train_y,red_square,top_left,2025-06-24_15h57.00.262,HideSeek_v1,2022.2.5,59.98900999952131,
,2,7,2,7,0,0,16,,train_dim1_1,10,30,,,,2,0,2,0,,,,,,,,,0,0,0,0,0,9,9,9,1,0,1,0,,,,,,,,,,,,,,,,,,,,,,,,,,,,,,,,,,,,,,,,,,,,,,,,,,,,,,,,,,,,,,,,30,,,,,,,,876.2707212000387,876.2707212000387,876.2707212000387,876.2707212000387,876.2707212000387,return,0.4598380000097677,1,1,0,0,0,0.08,return,0.37107709993142635,-16,9,0,0.08,,,,,,,,,,,,,,,,,,,,,,,,,,,,,,,,,,,,,,,,,,,,,,,,,,,,,,,,HX3J13,Train_y,red_square,top_left,2025-06-24_15h57.00.262,HideSeek_v1,2022.2.5,59.98900999952131,
,4,6,4,5,0,-1,15,,train_dim1_1,11,30,,,,2,0,2,0,,,,,,,,,0,0,0,0,0,10,10,10,0,0,0,0,,,,,,,,,,,,,,,,,,,,,,,,,stimuli/alien_stimuli/15.png,,,,,,,,,,,,,,,,,,,,,,,,,,,,,stimuli/alien_stimuli/16.png,16,2,12,,,,,,,30,,,,,,,,882.3661770999897,882.3661770999897,882.3661770999897,882.3661770999897,882.3661770999897,left,2.0036582000320777,1,1,0,99,0.08,0.08,left,1.9246515999548137,,,,,880.8063900000416,882.3661770999897,0,0.16,0.0,0.0,0.16,0,0.0,0,0.16,878.2857266999781,878.2857266999781,878.2857266999781,878.2857266999781,878.2857266999781,878.2857266999781,878.2857266999781,878.2857266999781,878.28753406998,2.6212820999789983,return,2.497309400001541,,,,,,,,,,,,,,,,,,,,,,,,,,,,,,,,,HX3J13,Train_y,red_square,top_left,2025-06-24_15h57.00.262,HideSeek_v1,2022.2.5,59.98900999952131,
,4,6,4,5,0,-1,15,,train_dim1_1,11,30,,,,2,0,2,0,,,,,,,,,0,0,0,0,0,10,10,10,1,0,1,0,,,,,,,,,,,,,,,,,,,,,,,,,,,,,,,,,,,,,,,,,,,,,,,,,,,,,,,,,,,,,,,,30,,,,,,,,884.3776008000132,884.3776008000132,884.3776008000132,884.3776008000132,884.3776008000132,return,0.6595005999552086,1,0,0,0,0.08,0.08,return,0.5713020999683067,-16,8,0.08,0.08,,,,,,,,,,,,,,,,,,,,,,,,,,,,,,,,,,,,,,,,,,,,,,,,,,,,,,,,HX3J13,Train_y,red_square,top_left,2025-06-24_15h57.00.262,HideSeek_v1,2022.2.5,59.98900999952131,
,0,5,0,0,0,-5,11,,train_dim1_1,12,30,,,,2,0,2,0,,,,,,,,,0,0,0,0,0,11,11,11,0,0,0,0,,,,,,,,,,,,,,,,,,,,,,,,,stimuli/alien_stimuli/11.png,,,,,,,,,,,,,,,,,,,,,,,,,,,,,stimuli/alien_stimuli/15.png,15,4,13,,,,,,,30,,,,,,,,890.6537422999972,890.6537422999972,890.6537422999972,890.6537422999972,890.6537422999972,right,1.8391547999344766,1,0,0,99,-0.08,0,right,1.7601072000106797,,,,,889.0964853999903,890.6537422999972,0.16,0,0.08,0.0,0.04,0.16,0.16,0.16,0,886.5969492000295,886.5969492000295,886.5969492000295,886.5969492000295,886.5969492000295,886.5969492000295,886.5969492000295,886.5969492000295,886.5946265698992,2.6044510001083836,return,2.482504199957475,,,,,,,,,,,,,,,,,,,,,,,,,,,,,,,,,HX3J13,Train_y,red_square,top_left,2025-06-24_15h57.00.262,HideSeek_v1,2022.2.5,59.98900999952131,
,0,5,0,0,0,-5,11,,train_dim1_1,12,30,,,,2,0,2,0,,,,,,,,,0,0,0,0,0,11,11,11,1,0,1,0,,,,,,,,,,,,,,,,,,,,,,,,,,,,,,,,,,,,,,,,,,,,,,,,,,,,,,,,,,,,,,,,30,,,,,,,,892.5002219999442,892.5002219999442,892.5002219999442,892.5002219999442,892.5002219999442,right,0.42628070001956075,1,0,0,99,0.0,0,right,0.3408069999422878,,,,,,,,,,,,,,,,,,,,,,,,,,,,,,,,,,,,,,,,,,,,,,,,,,,,,,,,,,,,HX3J13,Train_y,red_square,top_left,2025-06-24_15h57.00.262,HideSeek_v1,2022.2.5,59.98900999952131,
,0,5,0,0,0,-5,11,,train_dim1_1,12,30,,,,2,0,2,0,,,,,,,,,0,0,0,0,0,11,11,11,2,0,2,0,,,,,,,,,,,,,,,,,,,,,,,,,,,,,,,,,,,,,,,,,,,,,,,,,,,,,,,,,,,,,,,,30,,,,,,,,892.9338698999491,892.9338698999491,892.9338698999491,892.9338698999491,892.9338698999491,right,0.6269857999868691,1,0,0,99,0.08,0,right,0.5474833000916988,,,,,,,,,,,,,,,,,,,,,,,,,,,,,,,,,,,,,,,,,,,,,,,,,,,,,,,,,,,,HX3J13,Train_y,red_square,top_left,2025-06-24_15h57.00.262,HideSeek_v1,2022.2.5,59.98900999952131,
,0,5,0,0,0,-5,11,,train_dim1_1,12,30,,,,2,0,2,0,,,,,,,,,0,0,0,0,0,11,11,11,3,0,3,0,,,,,,,,,,,,,,,,,,,,,,,,,,,,,,,,,,,,,,,,,,,,,,,,,,,,,,,,,,,,,,,,30,,,,,,,,893.5687670999905,893.5687670999905,893.5687670999905,893.5687670999905,893.5687670999905,return,0.559923900058493,1,0,0,0,0.08,0,return,0.4696871000342071,-16,11,0.08,0,,,,,,,,,,,,,,,,,,,,,,,,,,,,,,,,,,,,,,,,,,,,,,,,,,,,,,,,HX3J13,Train_y,red_square,top_left,2025-06-24_15h57.00.262,HideSeek_v1,2022.2.5,59.98900999952131,
,4,8,4,4,0,-4,12,,train_dim1_1,13,30,,,,2,0,2,0,,,,,,,,,0,0,0,0,0,12,12,12,0,0,0,0,,,,,,,,,,,,,,,,,,,,,,,,,stimuli/alien_stimuli/12.png,,,,,,,,,,,,,,,,,,,,,,,,,,,,,stimuli/alien_stimuli/11.png,11,0,14,,,,,,,30,,,,,,,,900.3965065999655,900.3965065999655,900.3965065999655,900.3965065999655,900.3965065999655,down,1.7880365999881178,1,0,0,99,0.16,0.15999999999999998,down,1.7039104000432417,,,,,898.8381241000025,900.3965065999655,-0.16,-0.4,0.4,0.0,-0.2,-0.16,-0.16,-0.16,-0.4,895.6987420000369,895.6987420000369,895.6987420000369,895.6987420000369,895.6987420000369,895.6987420000369,895.6987420000369,895.6987420000369,895.6853517699171,3.2552407999755815,return,3.1187060000374913,,,,,,,,,,,,,,,,,,,,,,,,,,,,,,,,,HX3J13,Train_y,red_square,top_left,2025-06-24_15h57.00.262,HideSeek_v1,2022.2.5,59.98900999952131,
,4,8,4,4,0,-4,12,,train_dim1_1,13,30,,,,2,0,2,0,,,,,,,,,0,0,0,0,0,12,12,12,1,0,1,0,,,,,,,,,,,,,,,,,,,,,,,,,,,,,,,,,,,,,,,,,,,,,,,,,,,,,,,,,,,,,,,,30,,,,,,,,902.191859500017,902.191859500017,902.191859500017,902.191859500017,902.191859500017,down,0.3263776999665424,1,0,0,99,0.16,0.07999999999999997,down,0.24224010005127639,,,,,,,,,,,,,,,,,,,,,,,,,,,,,,,,,,,,,,,,,,,,,,,,,,,,,,,,,,,,HX3J13,Train_y,red_square,top_left,2025-06-24_15h57.00.262,HideSeek_v1,2022.2.5,59.98900999952131,
,4,8,4,4,0,-4,12,,train_dim1_1,13,30,,,,2,0,2,0,,,,,,,,,0,0,0,0,0,12,12,12,2,0,2,0,,,,,,,,,,,,,,,,,,,,,,,,,,,,,,,,,,,,,,,,,,,,,,,,,,,,,,,,,,,,,,,,30,,,,,,,,902.5247438000515,902.5247438000515,902.5247438000515,902.5247438000515,902.5247438000515,down,0.5601782000157982,1,0,0,99,0.16,-2.7755575615628914e-17,down,0.4733991000102833,,,,,,,,,,,,,,,,,,,,,,,,,,,,,,,,,,,,,,,,,,,,,,,,,,,,,,,,,,,,HX3J13,Train_y,red_square,top_left,2025-06-24_15h57.00.262,HideSeek_v1,2022.2.5,59.98900999952131,
,4,8,4,4,0,-4,12,,train_dim1_1,13,30,,,,2,0,2,0,,,,,,,,,0,0,0,0,0,12,12,12,3,0,3,0,,,,,,,,,,,,,,,,,,,,,,,,,,,,,,,,,,,,,,,,,,,,,,,,,,,,,,,,,,,,,,,,30,,,,,,,,903.0918487999588,903.0918487999588,903.0918487999588,903.0918487999588,903.0918487999588,down,0.32634500006679446,1,0,0,99,0.16,-0.08000000000000003,down,0.25065299996640533,,,,,,,,,,,,,,,,,,,,,,,,,,,,,,,,,,,,,,,,,,,,,,,,,,,,,,,,,,,,HX3J13,Train_y,red_square,top_left,2025-06-24_15h57.00.262,HideSeek_v1,2022.2.5,59.98900999952131,
,4,8,4,4,0,-4,12,,train_dim1_1,13,30,,,,2,0,2,0,,,,,,,,,0,0,0,0,0,12,12,12,4,0,4,0,,,,,,,,,,,,,,,,,,,,,,,,,,,,,,,,,,,,,,,,,,,,,,,,,,,,,,,,,,,,,,,,30,,,,,,,,903.4253489000257,903.4253489000257,903.4253489000257,903.4253489000257,903.4253489000257,down,0.31026850000489503,1,0,0,99,0.16,-0.16000000000000003,down,0.2265196000225842,,,,,,,,,,,,,,,,,,,,,,,,,,,,,,,,,,,,,,,,,,,,,,,,,,,,,,,,,,,,HX3J13,Train_y,red_square,top_left,2025-06-24_15h57.00.262,HideSeek_v1,2022.2.5,59.98900999952131,
,4,8,4,4,0,-4,12,,train_dim1_1,13,30,,,,2,0,2,0,,,,,,,,,0,0,0,0,0,12,12,12,5,0,5,0,,,,,,,,,,,,,,,,,,,,,,,,,,,,,,,,,,,,,,,,,,,,,,,,,,,,,,,,,,,,,,,,30,,,,,,,,903.7455784999765,903.7455784999765,903.7455784999765,903.7455784999765,903.7455784999765,return,0.6096346999984235,1,1,0,0,0.16,-0.16000000000000003,return,0.5241010000463575,-21,11,0.16,-0.16000000000000003,,,,,,,,,,,,,,,,,,,,,,,,,,,,,,,,,,,,,,,,,,,,,,,,,,,,,,,,HX3J13,Train_y,red_square,top_left,2025-06-24_15h57.00.262,HideSeek_v1,2022.2.5,59.98900999952131,
,2,7,2,7,0,0,16,,train_dim1_1,14,30,,,,2,0,2,0,,,,,,,,,0,0,0,0,0,13,13,13,0,0,0,0,,,,,,,,,,,,,,,,,,,,,,,,,stimuli/alien_stimuli/16.png,,,,,,,,,,,,,,,,,,,,,,,,,,,,,stimuli/alien_stimuli/12.png,12,4,15,,,,,,,30,,,,,,,,910.3883603999857,910.3883603999857,910.3883603999857,910.3883603999857,910.3883603999857,right,1.0214409999316558,1,1,0,99,0.08,0.16,right,0.9297145999735221,,,,,908.8296439000405,910.3883603999857,0.16,-0.08,0.32,0.0,0.07999999999999999,0.16,0.16,0.16,-0.08,905.9089544999879,905.9089544999879,905.9089544999879,905.9089544999879,905.9089544999879,905.9089544999879,905.9089544999879,905.9089544999879,905.9107641698909,3.020965800038539,return,2.8989986999658868,,,,,,,,,,,,,,,,,,,,,,,,,,,,,,,,,HX3J13,Train_y,red_square,top_left,2025-06-24_15h57.00.262,HideSeek_v1,2022.2.5,59.98900999952131,
,2,7,2,7,0,0,16,,train_dim1_1,14,30,,,,2,0,2,0,,,,,,,,,0,0,0,0,0,13,13,13,1,0,1,0,,,,,,,,,,,,,,,,,,,,,,,,,,,,,,,,,,,,,,,,,,,,,,,,,,,,,,,,,,,,,,,,30,,,,,,,,911.4156964999856,911.4156964999856,911.4156964999856,911.4156964999856,911.4156964999856,return,1.1767790999729186,1,1,0,0,0.08,0.16,return,1.096420800080523,-21,12,0.08,0.16,,,,,,,,,,,,,,,,,,,,,,,,,,,,,,,,,,,,,,,,,,,,,,,,,,,,,,,,HX3J13,Train_y,red_square,top_left,2025-06-24_15h57.00.262,HideSeek_v1,2022.2.5,59.98900999952131,
,1,9,1,6,0,-3,13,,train_dim1_1,15,30,,,,2,0,2,0,,,,,,,,,0,0,0,0,0,14,14,14,0,0,0,0,,,,,,,,,,,,,,,,,,,,,,,,,stimuli/alien_stimuli/13.png,,,,,,,,,,,,,,,,,,,,,,,,,,,,,stimuli/alien_stimuli/16.png,16,2,16,,,,,,,30,,,,,,,,918.0436817000154,918.0436817000154,918.0436817000154,918.0436817000154,918.0436817000154,down,1.0370525000616908,1,1,0,99,-0.08,0.24,down,0.95707979996223,,,,,916.485990599962,918.0436817000154,0,0.16,0.0,0.0,0.16,0,0.0,0,0.16,914.1526337999385,914.1526337999385,914.1526337999385,914.1526337999385,914.1526337999385,914.1526337999385,914.1526337999385,914.1526337999385,914.1508422698942,2.437293100054376,return,2.3118452000198886,,,,,,,,,,,,,,,,,,,,,,,,,,,,,,,,,HX3J13,Train_y,red_square,top_left,2025-06-24_15h57.00.262,HideSeek_v1,2022.2.5,59.98900999952131,
,1,9,1,6,0,-3,13,,train_dim1_1,15,30,,,,2,0,2,0,,,,,,,,,0,0,0,0,0,14,14,14,1,0,1,0,,,,,,,,,,,,,,,,,,,,,,,,,,,,,,,,,,,,,,,,,,,,,,,,,,,,,,,,,,,,,,,,30,,,,,,,,919.088433100027,919.088433100027,919.088433100027,919.088433100027,919.088433100027,down,0.4765792000107467,1,1,0,99,-0.08,0.15999999999999998,down,0.3892609999747947,,,,,,,,,,,,,,,,,,,,,,,,,,,,,,,,,,,,,,,,,,,,,,,,,,,,,,,,,,,,HX3J13,Train_y,red_square,top_left,2025-06-24_15h57.00.262,HideSeek_v1,2022.2.5,59.98900999952131,
,1,9,1,6,0,-3,13,,train_dim1_1,15,30,,,,2,0,2,0,,,,,,,,,0,0,0,0,0,14,14,14,2,0,2,0,,,,,,,,,,,,,,,,,,,,,,,,,,,,,,,,,,,,,,,,,,,,,,,,,,,,,,,,,,,,,,,,30,,,,,,,,919.5716086999746,919.5716086999746,919.5716086999746,919.5716086999746,919.5716086999746,down,0.2262578000081703,1,1,0,99,-0.08,0.07999999999999997,down,0.15073460002895445,,,,,,,,,,,,,,,,,,,,,,,,,,,,,,,,,,,,,,,,,,,,,,,,,,,,,,,,,,,,HX3J13,Train_y,red_square,top_left,2025-06-24_15h57.00.262,HideSeek_v1,2022.2.5,59.98900999952131,
,1,9,1,6,0,-3,13,,train_dim1_1,15,30,,,,2,0,2,0,,,,,,,,,0,0,0,0,0,14,14,14,3,0,3,0,,,,,,,,,,,,,,,,,,,,,,,,,,,,,,,,,,,,,,,,,,,,,,,,,,,,,,,,,,,,,,,,30,,,,,,,,919.8046056999592,919.8046056999592,919.8046056999592,919.8046056999592,919.8046056999592,down,0.4265643999679014,1,1,0,99,-0.08,-2.7755575615628914e-17,down,0.3428968000225723,,,,,,,,,,,,,,,,,,,,,,,,,,,,,,,,,,,,,,,,,,,,,,,,,,,,,,,,,,,,HX3J13,Train_y,red_square,top_left,2025-06-24_15h57.00.262,HideSeek_v1,2022.2.5,59.98900999952131,
,1,9,1,6,0,-3,13,,train_dim1_1,15,30,,,,2,0,2,0,,,,,,,,,0,0,0,0,0,14,14,14,4,0,4,0,,,,,,,,,,,,,,,,,,,,,,,,,,,,,,,,,,,,,,,,,,,,,,,,,,,,,,,,,,,,,,,,30,,,,,,,,920.2394445999525,920.2394445999525,920.2394445999525,920.2394445999525,920.2394445999525,down,0.3935818000463769,1,1,0,99,-0.08,-0.08000000000000003,down,0.3166874999878928,,,,,,,,,,,,,,,,,,,,,,,,,,,,,,,,,,,,,,,,,,,,,,,,,,,,,,,,,,,,HX3J13,Train_y,red_square,top_left,2025-06-24_15h57.00.262,HideSeek_v1,2022.2.5,59.98900999952131,
,1,9,1,6,0,-3,13,,train_dim1_1,15,30,,,,2,0,2,0,,,,,,,,,0,0,0,0,0,14,14,14,5,0,5,0,,,,,,,,,,,,,,,,,,,,,,,,,,,,,,,,,,,,,,,,,,,,,,,,,,,,,,,,,,,,,,,,30,,,,,,,,920.6401441999478,920.6401441999478,920.6401441999478,920.6401441999478,920.6401441999478,return,0.5264317999826744,1,0,0,0,-0.08,-0.08000000000000003,return,0.4476990000111982,-26,12,-0.08,-0.08000000000000003,,,,,,,,,,,,,,,,,,,,,,,,,,,,,,,,,,,,,,,,,,,,,,,,,,,,,,,,HX3J13,Train_y,red_square,top_left,2025-06-24_15h57.00.262,HideSeek_v1,2022.2.5,59.98900999952131,
,4,5,4,4,0,-1,15,,train_dim1_1,16,30,,,,2,0,2,0,,,,,,,,,0,0,0,0,0,15,15,15,0,0,0,0,,,,,,,,,,,,,,,,,,,,,,,,,stimuli/alien_stimuli/15.png,,,,,,,,,,,,,,,,,,,,,,,,,,,,,stimuli/alien_stimuli/13.png,13,1,17,,,,,,,30,,,,,,,,930.420244100038,930.420244100038,930.420244100038,930.420244100038,930.420244100038,left,4.008244100026786,1,0,0,99,0.08,0,left,3.929874400026165,,,,,928.8628776000114,930.420244100038,-0.08,0.08,0.24,0.0,0.2,-0.08,-0.08,-0.08,0.08,922.742395499954,922.742395499954,922.742395499954,922.742395499954,922.742395499954,922.742395499954,922.742395499954,922.742395499954,922.7413351799361,6.240308300009929,return,6.098746899981052,,,,,,,,,,,,,,,,,,,,,,,,,,,,,,,,,HX3J13,Train_y,red_square,top_left,2025-06-24_15h57.00.262,HideSeek_v1,2022.2.5,59.98900999952131,
,4,5,4,4,0,-1,15,,train_dim1_1,16,30,,,,2,0,2,0,,,,,,,,,0,0,0,0,0,15,15,15,1,0,1,0,,,,,,,,,,,,,,,,,,,,,,,,,,,,,,,,,,,,,,,,,,,,,,,,,,,,,,,,,,,,,,,,30,,,,,,,,934.4354675000068,934.4354675000068,934.4354675000068,934.4354675000068,934.4354675000068,return,1.9941199999302626,1,0,0,0,0.08,0,return,1.9168561999686062,-26,11,0.08,0,,,,,,,,,,,,,,,,,,,,,,,,,,,,,,,,,,,,,,,,,,,,,,,,,,,,,,,,HX3J13,Train_y,red_square,top_left,2025-06-24_15h57.00.262,HideSeek_v1,2022.2.5,59.98900999952131,
,3,8,3,5,0,-3,13,,train_dim1_1,17,30,,,,2,0,2,0,,,,,,,,,0,0,0,0,0,16,16,16,0,0,0,0,,,,,,,,,,,,,,,,,,,,,,,,,stimuli/alien_stimuli/13.png,,,,,,,,,,,,,,,,,,,,,,,,,,,,,stimuli/alien_stimuli/15.png,15,4,18,,,,,,,30,,,,,,,,942.3949665999971,942.3949665999971,942.3949665999971,942.3949665999971,942.3949665999971,right,2.141149599920027,1,0,0,99,0.16,0.24,right,2.0591935999691486,,,,,940.8394447000464,942.3949665999971,0.16,-0.08,0.08,0.0,-0.04,0.16,0.16,0.16,-0.08,938.0023366999812,938.0023366999812,938.0023366999812,938.0023366999812,938.0023366999812,938.0023366999812,938.0023366999812,938.0023366999812,938.0037423798814,2.954625300015323,return,2.811851999955252,,,,,,,,,,,,,,,,,,,,,,,,,,,,,,,,,HX3J13,Train_y,red_square,top_left,2025-06-24_15h57.00.262,HideSeek_v1,2022.2.5,59.98900999952131,
,3,8,3,5,0,-3,13,,train_dim1_1,17,30,,,,2,0,2,0,,,,,,,,,0,0,0,0,0,16,16,16,1,0,1,0,,,,,,,,,,,,,,,,,,,,,,,,,,,,,,,,,,,,,,,,,,,,,,,,,,,,,,,,,,,,,,,,30,,,,,,,,944.5428854000056,944.5428854000056,944.5428854000056,944.5428854000056,944.5428854000056,left,1.5601800000295043,1,0,0,99,0.08,0.24,left,1.4782854999648407,,,,,,,,,,,,,,,,,,,,,,,,,,,,,,,,,,,,,,,,,,,,,,,,,,,,,,,,,,,,HX3J13,Train_y,red_square,top_left,2025-06-24_15h57.00.262,HideSeek_v1,2022.2.5,59.98900999952131,
,3,8,3,5,0,-3,13,,train_dim1_1,17,30,,,,2,0,2,0,,,,,,,,,0,0,0,0,0,16,16,16,2,0,2,0,,,,,,,,,,,,,,,,,,,,,,,,,,,,,,,,,,,,,,,,,,,,,,,,,,,,,,,,,,,,,,,,30,,,,,,,,946.109677099972,946.109677099972,946.109677099972,946.109677099972,946.109677099972,down,0.8106496999971569,1,0,0,99,0.08,0.15999999999999998,down,0.7345645000459626,,,,,,,,,,,,,,,,,,,,,,,,,,,,,,,,,,,,,,,,,,,,,,,,,,,,,,,,,,,,HX3J13,Train_y,red_square,top_left,2025-06-24_15h57.00.262,HideSeek_v1,2022.2.5,59.98900999952131,
,3,8,3,5,0,-3,13,,train_dim1_1,17,30,,,,2,0,2,0,,,,,,,,,0,0,0,0,0,16,16,16,3,0,3,0,,,,,,,,,,,,,,,,,,,,,,,,,,,,,,,,,,,,,,,,,,,,,,,,,,,,,,,,,,,,,,,,30,,,,,,,,946.9283822999569,946.9283822999569,946.9283822999569,946.9283822999569,946.9283822999569,down,0.27632059995085,1,0,0,99,0.08,0.07999999999999997,down,0.1910445000976324,,,,,,,,,,,,,,,,,,,,,,,,,,,,,,,,,,,,,,,,,,,,,,,,,,,,,,,,,,,,HX3J13,Train_y,red_square,top_left,2025-06-24_15h57.00.262,HideSeek_v1,2022.2.5,59.98900999952131,
,3,8,3,5,0,-3,13,,train_dim1_1,17,30,,,,2,0,2,0,,,,,,,,,0,0,0,0,0,16,16,16,4,0,4,0,,,,,,,,,,,,,,,,,,,,,,,,,,,,,,,,,,,,,,,,,,,,,,,,,,,,,,,,,,,,,,,,30,,,,,,,,947.2112284000032,947.2112284000032,947.2112284000032,947.2112284000032,947.2112284000032,down,0.36021220008842647,1,0,0,99,0.08,-2.7755575615628914e-17,down,0.2791334999492392,,,,,,,,,,,,,,,,,,,,,,,,,,,,,,,,,,,,,,,,,,,,,,,,,,,,,,,,,,,,HX3J13,Train_y,red_square,top_left,2025-06-24_15h57.00.262,HideSeek_v1,2022.2.5,59.98900999952131,
,3,8,3,5,0,-3,13,,train_dim1_1,17,30,,,,2,0,2,0,,,,,,,,,0,0,0,0,0,16,16,16,5,0,5,0,,,,,,,,,,,,,,,,,,,,,,,,,,,,,,,,,,,,,,,,,,,,,,,,,,,,,,,,,,,,,,,,30,,,,,,,,947.5807839999907,947.5807839999907,947.5807839999907,947.5807839999907,947.5807839999907,down,0.3750945000210777,1,0,0,99,0.08,-0.08000000000000003,down,0.28929169999901205,,,,,,,,,,,,,,,,,,,,,,,,,,,,,,,,,,,,,,,,,,,,,,,,,,,,,,,,,,,,HX3J13,Train_y,red_square,top_left,2025-06-24_15h57.00.262,HideSeek_v1,2022.2.5,59.98900999952131,
,3,8,3,5,0,-3,13,,train_dim1_1,17,30,,,,2,0,2,0,,,,,,,,,0,0,0,0,0,16,16,16,6,0,6,0,,,,,,,,,,,,,,,,,,,,,,,,,,,,,,,,,,,,,,,,,,,,,,,,,,,,,,,,,,,,,,,,30,,,,,,,,947.9624394000275,947.9624394000275,947.9624394000275,947.9624394000275,947.9624394000275,down,0.5769397000549361,1,0,0,99,0.08,-0.16000000000000003,down,0.4931143999565393,,,,,,,,,,,,,,,,,,,,,,,,,,,,,,,,,,,,,,,,,,,,,,,,,,,,,,,,,,,,HX3J13,Train_y,red_square,top_left,2025-06-24_15h57.00.262,HideSeek_v1,2022.2.5,59.98900999952131,
,3,8,3,5,0,-3,13,,train_dim1_1,17,30,,,,2,0,2,0,,,,,,,,,0,0,0,0,0,16,16,16,7,0,7,0,,,,,,,,,,,,,,,,,,,,,,,,,,,,,,,,,,,,,,,,,,,,,,,,,,,,,,,,,,,,,,,,30,,,,,,,,948.5450016000541,948.5450016000541,948.5450016000541,948.5450016000541,948.5450016000541,down,0.576929800095968,1,0,0,99,0.08,-0.24000000000000005,down,0.5002791999140754,,,,,,,,,,,,,,,,,,,,,,,,,,,,,,,,,,,,,,,,,,,,,,,,,,,,,,,,,,,,HX3J13,Train_y,red_square,top_left,2025-06-24_15h57.00.262,HideSeek_v1,2022.2.5,59.98900999952131,
,3,8,3,5,0,-3,13,,train_dim1_1,17,30,,,,2,0,2,0,,,,,,,,,0,0,0,0,0,16,16,16,8,0,8,0,,,,,,,,,,,,,,,,,,,,,,,,,,,,,,,,,,,,,,,,,,,,,,,,,,,,,,,,,,,,,,,,30,,,,,,,,949.1295519999694,949.1295519999694,949.1295519999694,949.1295519999694,949.1295519999694,down,1.0939152999781072,1,0,0,99,0.08,-0.32000000000000006,down,1.0082081001019105,,,,,,,,,,,,,,,,,,,,,,,,,,,,,,,,,,,,,,,,,,,,,,,,,,,,,,,,,,,,HX3J13,Train_y,red_square,top_left,2025-06-24_15h57.00.262,HideSeek_v1,2022.2.5,59.98900999952131,
,3,8,3,5,0,-3,13,,train_dim1_1,17,30,,,,2,0,2,0,,,,,,,,,0,0,0,0,0,16,16,16,9,0,9,0,,,,,,,,,,,,,,,,,,,,,,,,,,,,,,,,,,,,,,,,,,,,,,,,,,,,,,,,,,,,,,,,30,,,,,,,,950.229607300018,950.229607300018,950.229607300018,950.229607300018,950.229607300018,return,1.177320500020869,1,0,0,0,0.08,-0.32000000000000006,return,1.0968110000248998,-33,11,0.08,-0.32000000000000006,,,,,,,,,,,,,,,,,,,,,,,,,,,,,,,,,,,,,,,,,,,,,,,,,,,,,,,,HX3J13,Train_y,red_square,top_left,2025-06-24_15h57.00.262,HideSeek_v1,2022.2.5,59.98900999952131,
,2,6,2,1,0,-5,11,,train_dim1_1,18,30,,,,2,0,2,0,,,,,,,,,0,0,0,0,0,17,17,17,0,0,0,0,,,,,,,,,,,,,,,,,,,,,,,,,stimuli/alien_stimuli/11.png,,,,,,,,,,,,,,,,,,,,,,,,,,,,,stimuli/alien_stimuli/13.png,13,3,19,,,,,,,30,,,,,,,,957.2272727000527,957.2272727000527,957.2272727000527,957.2272727000527,957.2272727000527,right,1.3713205999229103,1,0,0,99,0.08,0.08,right,1.279160299920477,,,,,955.6684669000097,957.2272727000527,0.08,0,0.24,0.0,0.12,0.08,0.08,0.08,0,952.978778299992,952.978778299992,952.978778299992,952.978778299992,952.978778299992,952.978778299992,952.978778299992,952.978778299992,952.9662651699152,2.8043258000398055,return,2.6630573999136686,,,,,,,,,,,,,,,,,,,,,,,,,,,,,,,,,HX3J13,Train_y,red_square,top_left,2025-06-24_15h57.00.262,HideSeek_v1,2022.2.5,59.98900999952131,
,2,6,2,1,0,-5,11,,train_dim1_1,18,30,,,,2,0,2,0,,,,,,,,,0,0,0,0,0,17,17,17,1,0,1,0,,,,,,,,,,,,,,,,,,,,,,,,,,,,,,,,,,,,,,,,,,,,,,,,,,,,,,,,,,,,,,,,30,,,,,,,,958.6050262999488,958.6050262999488,958.6050262999488,958.6050262999488,958.6050262999488,right,4.729759799898602,1,0,0,99,0.16,0.08,right,4.643130599986762,,,,,,,,,,,,,,,,,,,,,,,,,,,,,,,,,,,,,,,,,,,,,,,,,,,,,,,,,,,,HX3J13,Train_y,red_square,top_left,2025-06-24_15h57.00.262,HideSeek_v1,2022.2.5,59.98900999952131,
,2,6,2,1,0,-5,11,,train_dim1_1,18,30,,,,2,0,2,0,,,,,,,,,0,0,0,0,0,17,17,17,2,0,2,0,,,,,,,,,,,,,,,,,,,,,,,,,,,,,,,,,,,,,,,,,,,,,,,,,,,,,,,,,,,,,,,,30,,,,,,,,963.3435892999405,963.3435892999405,963.3435892999405,963.3435892999405,963.3435892999405,right,2.4615006999811158,1,0,0,99,0.24,0.08,right,2.377538100001402,,,,,,,,,,,,,,,,,,,,,,,,,,,,,,,,,,,,,,,,,,,,,,,,,,,,,,,,,,,,HX3J13,Train_y,red_square,top_left,2025-06-24_15h57.00.262,HideSeek_v1,2022.2.5,59.98900999952131,
,2,6,2,1,0,-5,11,,train_dim1_1,18,30,,,,2,0,2,0,,,,,,,,,0,0,0,0,0,17,17,17,3,0,3,0,,,,,,,,,,,,,,,,,,,,,,,,,,,,,,,,,,,,,,,,,,,,,,,,,,,,,,,,,,,,,,,,30,,,,,,,,965.8118844999699,965.8118844999699,965.8118844999699,965.8118844999699,965.8118844999699,right,0.30937270005233586,1,0,0,99,0.32,0.08,right,0.22969219996593893,,,,,,,,,,,,,,,,,,,,,,,,,,,,,,,,,,,,,,,,,,,,,,,,,,,,,,,,,,,,HX3J13,Train_y,red_square,top_left,2025-06-24_15h57.00.262,HideSeek_v1,2022.2.5,59.98900999952131,
,2,6,2,1,0,-5,11,,train_dim1_1,18,30,,,,2,0,2,0,,,,,,,,,0,0,0,0,0,17,17,17,4,0,4,0,,,,,,,,,,,,,,,,,,,,,,,,,,,,,,,,,,,,,,,,,,,,,,,,,,,,,,,,,,,,,,,,30,,,,,,,,966.128567900043,966.128567900043,966.128567900043,966.128567900043,966.128567900043,right,0.2930926000699401,1,0,0,99,0.4,0.08,right,0.2148952999850735,,,,,,,,,,,,,,,,,,,,,,,,,,,,,,,,,,,,,,,,,,,,,,,,,,,,,,,,,,,,HX3J13,Train_y,red_square,top_left,2025-06-24_15h57.00.262,HideSeek_v1,2022.2.5,59.98900999952131,
,2,6,2,1,0,-5,11,,train_dim1_1,18,30,,,,2,0,2,0,,,,,,,,,0,0,0,0,0,17,17,17,5,0,5,0,,,,,,,,,,,,,,,,,,,,,,,,,,,,,,,,,,,,,,,,,,,,,,,,,,,,,,,,,,,,,,,,30,,,,,,,,966.4274648999562,966.4274648999562,966.4274648999562,966.4274648999562,966.4274648999562,down,1.3276840000180528,1,0,0,99,0.4,0.0,down,1.2396978000178933,,,,,,,,,,,,,,,,,,,,,,,,,,,,,,,,,,,,,,,,,,,,,,,,,,,,,,,,,,,,HX3J13,Train_y,red_square,top_left,2025-06-24_15h57.00.262,HideSeek_v1,2022.2.5,59.98900999952131,
,2,6,2,1,0,-5,11,,train_dim1_1,18,30,,,,2,0,2,0,,,,,,,,,0,0,0,0,0,17,17,17,6,0,6,0,,,,,,,,,,,,,,,,,,,,,,,,,,,,,,,,,,,,,,,,,,,,,,,,,,,,,,,,,,,,,,,,30,,,,,,,,967.761713600019,967.761713600019,967.761713600019,967.761713600019,967.761713600019,down,0.3097635000012815,1,0,0,99,0.4,-0.08,down,0.22176129999570549,,,,,,,,,,,,,,,,,,,,,,,,,,,,,,,,,,,,,,,,,,,,,,,,,,,,,,,,,,,,HX3J13,Train_y,red_square,top_left,2025-06-24_15h57.00.262,HideSeek_v1,2022.2.5,59.98900999952131,
,2,6,2,1,0,-5,11,,train_dim1_1,18,30,,,,2,0,2,0,,,,,,,,,0,0,0,0,0,17,17,17,7,0,7,0,,,,,,,,,,,,,,,,,,,,,,,,,,,,,,,,,,,,,,,,,,,,,,,,,,,,,,,,,,,,,,,,30,,,,,,,,968.0793262999505,968.0793262999505,968.0793262999505,968.0793262999505,968.0793262999505,down,0.20992970000952482,1,0,0,99,0.4,-0.16,down,0.11909319995902479,,,,,,,,,,,,,,,,,,,,,,,,,,,,,,,,,,,,,,,,,,,,,,,,,,,,,,,,,,,,HX3J13,Train_y,red_square,top_left,2025-06-24_15h57.00.262,HideSeek_v1,2022.2.5,59.98900999952131,
,2,6,2,1,0,-5,11,,train_dim1_1,18,30,,,,2,0,2,0,,,,,,,,,0,0,0,0,0,17,17,17,8,0,8,0,,,,,,,,,,,,,,,,,,,,,,,,,,,,,,,,,,,,,,,,,,,,,,,,,,,,,,,,,,,,,,,,30,,,,,,,,968.2971560000442,968.2971560000442,968.2971560000442,968.2971560000442,968.2971560000442,down,0.2091917999787256,1,0,0,99,0.4,-0.24,down,0.11638299992773682,,,,,,,,,,,,,,,,,,,,,,,,,,,,,,,,,,,,,,,,,,,,,,,,,,,,,,,,,,,,HX3J13,Train_y,red_square,top_left,2025-06-24_15h57.00.262,HideSeek_v1,2022.2.5,59.98900999952131,
,2,6,2,1,0,-5,11,,train_dim1_1,18,30,,,,2,0,2,0,,,,,,,,,0,0,0,0,0,17,17,17,9,0,9,0,,,,,,,,,,,,,,,,,,,,,,,,,,,,,,,,,,,,,,,,,,,,,,,,,,,,,,,,,,,,,,,,30,,,,,,,,968.5129838000285,968.5129838000285,968.5129838000285,968.5129838000285,968.5129838000285,left,0.4100730000063777,1,0,0,99,0.32,-0.24,left,0.33297180000226945,,,,,,,,,,,,,,,,,,,,,,,,,,,,,,,,,,,,,,,,,,,,,,,,,,,,,,,,,,,,HX3J13,Train_y,red_square,top_left,2025-06-24_15h57.00.262,HideSeek_v1,2022.2.5,59.98900999952131,
,2,6,2,1,0,-5,11,,train_dim1_1,18,30,,,,2,0,2,0,,,,,,,,,0,0,0,0,0,17,17,17,10,0,10,0,,,,,,,,,,,,,,,,,,,,,,,,,,,,,,,,,,,,,,,,,,,,,,,,,,,,,,,,,,,,,,,,30,,,,,,,,968.9312280999729,968.9312280999729,968.9312280999729,968.9312280999729,968.9312280999729,left,0.30940849997568876,1,0,0,99,0.24,-0.24,left,0.2181133000412956,,,,,,,,,,,,,,,,,,,,,,,,,,,,,,,,,,,,,,,,,,,,,,,,,,,,,,,,,,,,HX3J13,Train_y,red_square,top_left,2025-06-24_15h57.00.262,HideSeek_v1,2022.2.5,59.98900999952131,
,2,6,2,1,0,-5,11,,train_dim1_1,18,30,,,,2,0,2,0,,,,,,,,,0,0,0,0,0,17,17,17,11,0,11,0,,,,,,,,,,,,,,,,,,,,,,,,,,,,,,,,,,,,,,,,,,,,,,,,,,,,,,,,,,,,,,,,30,,,,,,,,969.2466575000435,969.2466575000435,969.2466575000435,969.2466575000435,969.2466575000435,left,0.24317270005121827,1,0,0,99,0.15999999999999998,-0.24,left,0.16120759991463274,,,,,,,,,,,,,,,,,,,,,,,,,,,,,,,,,,,,,,,,,,,,,,,,,,,,,,,,,,,,HX3J13,Train_y,red_square,top_left,2025-06-24_15h57.00.262,HideSeek_v1,2022.2.5,59.98900999952131,
,2,6,2,1,0,-5,11,,train_dim1_1,18,30,,,,2,0,2,0,,,,,,,,,0,0,0,0,0,17,17,17,12,0,12,0,,,,,,,,,,,,,,,,,,,,,,,,,,,,,,,,,,,,,,,,,,,,,,,,,,,,,,,,,,,,,,,,30,,,,,,,,969.497019900009,969.497019900009,969.497019900009,969.497019900009,969.497019900009,left,0.2762518000090495,1,0,0,99,0.07999999999999997,-0.24,left,0.19927959993947297,,,,,,,,,,,,,,,,,,,,,,,,,,,,,,,,,,,,,,,,,,,,,,,,,,,,,,,,,,,,HX3J13,Train_y,red_square,top_left,2025-06-24_15h57.00.262,HideSeek_v1,2022.2.5,59.98900999952131,
,2,6,2,1,0,-5,11,,train_dim1_1,18,30,,,,2,0,2,0,,,,,,,,,0,0,0,0,0,17,17,17,13,0,13,0,,,,,,,,,,,,,,,,,,,,,,,,,,,,,,,,,,,,,,,,,,,,,,,,,,,,,,,,,,,,,,,,30,,,,,,,,969.7816655000206,969.7816655000206,969.7816655000206,969.7816655000206,969.7816655000206,left,0.19240450009237975,1,0,0,99,-2.7755575615628914e-17,-0.24,left,0.1133216000162065,,,,,,,,,,,,,,,,,,,,,,,,,,,,,,,,,,,,,,,,,,,,,,,,,,,,,,,,,,,,HX3J13,Train_y,red_square,top_left,2025-06-24_15h57.00.262,HideSeek_v1,2022.2.5,59.98900999952131,
,2,6,2,1,0,-5,11,,train_dim1_1,18,30,,,,2,0,2,0,,,,,,,,,0,0,0,0,0,17,17,17,14,0,14,0,,,,,,,,,,,,,,,,,,,,,,,,,,,,,,,,,,,,,,,,,,,,,,,,,,,,,,,,,,,,,,,,30,,,,,,,,969.9806607000064,969.9806607000064,969.9806607000064,969.9806607000064,969.9806607000064,return,1.427621699986048,1,1,0,0,-2.7755575615628914e-17,-0.24,return,1.3432059999322519,-37,11,-2.7755575615628914e-17,-0.24,,,,,,,,,,,,,,,,,,,,,,,,,,,,,,,,,,,,,,,,,,,,,,,,,,,,,,,,HX3J13,Train_y,red_square,top_left,2025-06-24_15h57.00.262,HideSeek_v1,2022.2.5,59.98900999952131,
,0,9,0,5,0,-4,12,,train_dim1_1,19,30,,,,2,0,2,0,,,,,,,,,0,0,0,0,0,18,18,18,0,0,0,0,,,,,,,,,,,,,,,,,,,,,,,,,stimuli/alien_stimuli/12.png,,,,,,,,,,,,,,,,,,,,,,,,,,,,,stimuli/alien_stimuli/11.png,11,2,20,,,,,,,30,,,,,,,,977.6954882999416,977.6954882999416,977.6954882999416,977.6954882999416,977.6954882999416,right,1.5703193999361247,1,1,0,99,-0.08,0.32,right,1.4885108000598848,,,,,976.1354000000283,977.6954882999416,0,-0.32,0.4,0.0,-0.12,0,0.0,0,-0.32,972.9856524999486,972.9856524999486,972.9856524999486,972.9856524999486,972.9856524999486,972.9856524999486,972.9856524999486,972.9856524999486,972.9828278798842,3.2717443000292405,return,3.1305364000145346,,,,,,,,,,,,,,,,,,,,,,,,,,,,,,,,,HX3J13,Train_y,red_square,top_left,2025-06-24_15h57.00.262,HideSeek_v1,2022.2.5,59.98900999952131,
,0,9,0,5,0,-4,12,,train_dim1_1,19,30,,,,2,0,2,0,,,,,,,,,0,0,0,0,0,18,18,18,1,0,1,0,,,,,,,,,,,,,,,,,,,,,,,,,,,,,,,,,,,,,,,,,,,,,,,,,,,,,,,,,,,,,,,,30,,,,,,,,979.2727101000492,979.2727101000492,979.2727101000492,979.2727101000492,979.2727101000492,right,0.3429295999230817,1,1,0,99,0.0,0.32,right,0.24999779998324811,,,,,,,,,,,,,,,,,,,,,,,,,,,,,,,,,,,,,,,,,,,,,,,,,,,,,,,,,,,,HX3J13,Train_y,red_square,top_left,2025-06-24_15h57.00.262,HideSeek_v1,2022.2.5,59.98900999952131,
,0,9,0,5,0,-4,12,,train_dim1_1,19,30,,,,2,0,2,0,,,,,,,,,0,0,0,0,0,18,18,18,2,0,2,0,,,,,,,,,,,,,,,,,,,,,,,,,,,,,,,,,,,,,,,,,,,,,,,,,,,,,,,,,,,,,,,,30,,,,,,,,979.6216425000457,979.6216425000457,979.6216425000457,979.6216425000457,979.6216425000457,right,0.3431832999922335,1,1,0,99,0.08,0.32,right,0.2667182000586763,,,,,,,,,,,,,,,,,,,,,,,,,,,,,,,,,,,,,,,,,,,,,,,,,,,,,,,,,,,,HX3J13,Train_y,red_square,top_left,2025-06-24_15h57.00.262,HideSeek_v1,2022.2.5,59.98900999952131,
,0,9,0,5,0,-4,12,,train_dim1_1,19,30,,,,2,0,2,0,,,,,,,,,0,0,0,0,0,18,18,18,3,0,3,0,,,,,,,,,,,,,,,,,,,,,,,,,,,,,,,,,,,,,,,,,,,,,,,,,,,,,,,,,,,,,,,,30,,,,,,,,979.9730952000245,979.9730952000245,979.9730952000245,979.9730952000245,979.9730952000245,right,0.7435372000327334,1,1,0,99,0.16,0.32,right,0.6618331000208855,,,,,,,,,,,,,,,,,,,,,,,,,,,,,,,,,,,,,,,,,,,,,,,,,,,,,,,,,,,,HX3J13,Train_y,red_square,top_left,2025-06-24_15h57.00.262,HideSeek_v1,2022.2.5,59.98900999952131,
,0,9,0,5,0,-4,12,,train_dim1_1,19,30,,,,2,0,2,0,,,,,,,,,0,0,0,0,0,18,18,18,4,0,4,0,,,,,,,,,,,,,,,,,,,,,,,,,,,,,,,,,,,,,,,,,,,,,,,,,,,,,,,,,,,,,,,,30,,,,,,,,980.7229577000253,980.7229577000253,980.7229577000253,980.7229577000253,980.7229577000253,right,0.3597950000548735,1,1,0,99,0.24,0.32,right,0.27090520004276186,,,,,,,,,,,,,,,,,,,,,,,,,,,,,,,,,,,,,,,,,,,,,,,,,,,,,,,,,,,,HX3J13,Train_y,red_square,top_left,2025-06-24_15h57.00.262,HideSeek_v1,2022.2.5,59.98900999952131,
,0,9,0,5,0,-4,12,,train_dim1_1,19,30,,,,2,0,2,0,,,,,,,,,0,0,0,0,0,18,18,18,5,0,5,0,,,,,,,,,,,,,,,,,,,,,,,,,,,,,,,,,,,,,,,,,,,,,,,,,,,,,,,,,,,,,,,,30,,,,,,,,981.0901807999471,981.0901807999471,981.0901807999471,981.0901807999471,981.0901807999471,right,8.033203200087883,1,1,0,99,0.32,0.32,right,7.942387100076303,,,,,,,,,,,,,,,,,,,,,,,,,,,,,,,,,,,,,,,,,,,,,,,,,,,,,,,,,,,,HX3J13,Train_y,red_square,top_left,2025-06-24_15h57.00.262,HideSeek_v1,2022.2.5,59.98900999952131,
,0,9,0,5,0,-4,12,,train_dim1_1,19,30,,,,2,0,2,0,,,,,,,,,0,0,0,0,0,18,18,18,6,0,6,0,,,,,,,,,,,,,,,,,,,,,,,,,,,,,,,,,,,,,,,,,,,,,,,,,,,,,,,,,,,,,,,,30,,,,,,,,989.1316847000271,989.1316847000271,989.1316847000271,989.1316847000271,989.1316847000271,return,0.6929882999975234,1,0,0,0,0.32,0.32,return,0.6024298999691382,-37,17,0.32,0.32,,,,,,,,,,,,,,,,,,,,,,,,,,,,,,,,,,,,,,,,,,,,,,,,,,,,,,,,HX3J13,Train_y,red_square,top_left,2025-06-24_15h57.00.262,HideSeek_v1,2022.2.5,59.98900999952131,
,2,5,2,5,0,0,16,,train_dim1_1,20,30,,,,2,0,2,0,,,,,,,,,0,0,0,0,0,19,19,19,0,0,0,0,,,,,,,,,,,,,,,,,,,,,,,,,stimuli/alien_stimuli/16.png,,,,,,,,,,,,,,,,,,,,,,,,,,,,,stimuli/alien_stimuli/12.png,12,0,21,,,,,,,30,,,,,,,,995.7429796999786,995.7429796999786,995.7429796999786,995.7429796999786,995.7429796999786,down,1.3213616999564692,1,0,0,99,0,-0.08,down,1.239403699990362,,,,,994.1838588999817,995.7429796999786,-0.16,0,0.32,0.0,0.16,-0.16,-0.16,-0.16,0,991.3995174999582,991.3995174999582,991.3995174999582,991.3995174999582,991.3995174999582,991.3995174999582,991.3995174999582,991.3995174999582,991.3980329799698,2.904867999954149,return,2.764226600062102,,,,,,,,,,,,,,,,,,,,,,,,,,,,,,,,,HX3J13,Train_y,red_square,top_left,2025-06-24_15h57.00.262,HideSeek_v1,2022.2.5,59.98900999952131,
,2,5,2,5,0,0,16,,train_dim1_1,20,30,,,,2,0,2,0,,,,,,,,,0,0,0,0,0,19,19,19,1,0,1,0,,,,,,,,,,,,,,,,,,,,,,,,,,,,,,,,,,,,,,,,,,,,,,,,,,,,,,,,,,,,,,,,30,,,,,,,,997.0719472999917,997.0719472999917,997.0719472999917,997.0719472999917,997.0719472999917,down,1.009429799974896,1,0,0,99,0,-0.16,down,0.9174663999583572,,,,,,,,,,,,,,,,,,,,,,,,,,,,,,,,,,,,,,,,,,,,,,,,,,,,,,,,,,,,HX3J13,Train_y,red_square,top_left,2025-06-24_15h57.00.262,HideSeek_v1,2022.2.5,59.98900999952131,
,2,5,2,5,0,0,16,,train_dim1_1,20,30,,,,2,0,2,0,,,,,,,,,0,0,0,0,0,19,19,19,2,0,2,0,,,,,,,,,,,,,,,,,,,,,,,,,,,,,,,,,,,,,,,,,,,,,,,,,,,,,,,,,,,,,,,,30,,,,,,,,998.0869187000208,998.0869187000208,998.0869187000208,998.0869187000208,998.0869187000208,down,2.728551200008951,1,0,0,99,0,-0.24,down,2.6478504999540746,,,,,,,,,,,,,,,,,,,,,,,,,,,,,,,,,,,,,,,,,,,,,,,,,,,,,,,,,,,,HX3J13,Train_y,red_square,top_left,2025-06-24_15h57.00.262,HideSeek_v1,2022.2.5,59.98900999952131,
,2,5,2,5,0,0,16,,train_dim1_1,20,30,,,,2,0,2,0,,,,,,,,,0,0,0,0,0,19,19,19,3,0,3,0,,,,,,,,,,,,,,,,,,,,,,,,,,,,,,,,,,,,,,,,,,,,,,,,,,,,,,,,,,,,,,,,30,,,,,,,,1000.823208100046,1000.823208100046,1000.823208100046,1000.823208100046,1000.823208100046,up,1.227471400052309,1,0,0,99,0,-0.15999999999999998,up,1.1425399999134243,,,,,,,,,,,,,,,,,,,,,,,,,,,,,,,,,,,,,,,,,,,,,,,,,,,,,,,,,,,,HX3J13,Train_y,red_square,top_left,2025-06-24_15h57.00.262,HideSeek_v1,2022.2.5,59.98900999952131,
,2,5,2,5,0,0,16,,train_dim1_1,20,30,,,,2,0,2,0,,,,,,,,,0,0,0,0,0,19,19,19,4,0,4,0,,,,,,,,,,,,,,,,,,,,,,,,,,,,,,,,,,,,,,,,,,,,,,,,,,,,,,,,,,,,,,,,30,,,,,,,,1002.0580037999898,1002.0580037999898,1002.0580037999898,1002.0580037999898,1002.0580037999898,up,0.30968270008452237,1,0,0,99,0,-0.07999999999999997,up,0.22927860007621348,,,,,,,,,,,,,,,,,,,,,,,,,,,,,,,,,,,,,,,,,,,,,,,,,,,,,,,,,,,,HX3J13,Train_y,red_square,top_left,2025-06-24_15h57.00.262,HideSeek_v1,2022.2.5,59.98900999952131,
,2,5,2,5,0,0,16,,train_dim1_1,20,30,,,,2,0,2,0,,,,,,,,,0,0,0,0,0,19,19,19,5,0,5,0,,,,,,,,,,,,,,,,,,,,,,,,,,,,,,,,,,,,,,,,,,,,,,,,,,,,,,,,,,,,,,,,30,,,,,,,,1002.3740441999398,1002.3740441999398,1002.3740441999398,1002.3740441999398,1002.3740441999398,up,0.2599396000150591,1,0,0,99,0,2.7755575615628914e-17,up,0.17381929990369827,,,,,,,,,,,,,,,,,,,,,,,,,,,,,,,,,,,,,,,,,,,,,,,,,,,,,,,,,,,,HX3J13,Train_y,red_square,top_left,2025-06-24_15h57.00.262,HideSeek_v1,2022.2.5,59.98900999952131,
,2,5,2,5,0,0,16,,train_dim1_1,20,30,,,,2,0,2,0,,,,,,,,,0,0,0,0,0,19,19,19,6,0,6,0,,,,,,,,,,,,,,,,,,,,,,,,,,,,,,,,,,,,,,,,,,,,,,,,,,,,,,,,,,,,,,,,30,,,,,,,,1002.6419174999464,1002.6419174999464,1002.6419174999464,1002.6419174999464,1002.6419174999464,up,0.37653440004214644,1,0,0,99,0,0.08000000000000003,up,0.2969750000629574,,,,,,,,,,,,,,,,,,,,,,,,,,,,,,,,,,,,,,,,,,,,,,,,,,,,,,,,,,,,HX3J13,Train_y,red_square,top_left,2025-06-24_15h57.00.262,HideSeek_v1,2022.2.5,59.98900999952131,
,2,5,2,5,0,0,16,,train_dim1_1,20,30,,,,2,0,2,0,,,,,,,,,0,0,0,0,0,19,19,19,7,0,7,0,,,,,,,,,,,,,,,,,,,,,,,,,,,,,,,,,,,,,,,,,,,,,,,,,,,,,,,,,,,,,,,,30,,,,,,,,1003.0250427999999,1003.0250427999999,1003.0250427999999,1003.0250427999999,1003.0250427999999,return,0.7769361999817193,1,1,0,0,0,0.08000000000000003,return,0.6928601999534294,-36,17,0,0.08000000000000003,,,,,,,,,,,,,,,,,,,,,,,,,,,,,,,,,,,,,,,,,,,,,,,,,,,,,,,,HX3J13,Train_y,red_square,top_left,2025-06-24_15h57.00.262,HideSeek_v1,2022.2.5,59.98900999952131,
,2,9,2,8,0,-1,15,,train_dim1_1,21,30,,,,2,0,2,0,,,,,,,,,0,0,0,0,0,20,20,20,0,0,0,0,,,,,,,,,,,,,,,,,,,,,,,,,stimuli/alien_stimuli/15.png,,,,,,,,,,,,,,,,,,,,,,,,,,,,,stimuli/alien_stimuli/16.png,16,2,22,,,,,,,30,,,,,,,,1009.4544875000138,1009.4544875000138,1009.4544875000138,1009.4544875000138,1009.4544875000138,down,1.1541012999368832,1,1,0,99,0,0.24,down,1.0693739999551326,,,,,1007.895194199984,1009.4544875000138,0,0,0.0,0.0,0.0,0,0.0,0,0,1005.3780702999793,1005.3780702999793,1005.3780702999793,1005.3780702999793,1005.3780702999793,1005.3780702999793,1005.3780702999793,1005.3780702999793,1005.376334079937,2.6378648000536487,return,2.4951547000091523,,,,,,,,,,,,,,,,,,,,,,,,,,,,,,,,,HX3J13,Train_y,red_square,top_left,2025-06-24_15h57.00.262,HideSeek_v1,2022.2.5,59.98900999952131,
,2,9,2,8,0,-1,15,,train_dim1_1,21,30,,,,2,0,2,0,,,,,,,,,0,0,0,0,0,20,20,20,1,0,1,0,,,,,,,,,,,,,,,,,,,,,,,,,,,,,,,,,,,,,,,,,,,,,,,,,,,,,,,,,,,,,,,,30,,,,,,,,1010.6159276999533,1010.6159276999533,1010.6159276999533,1010.6159276999533,1010.6159276999533,return,1.8273032000288367,2,0,0,1,0,0.24,return,1.7433690000325441,-37,17,0,0.24,,,,,,,,,,,,,,,,,,,,,,,,,,,,,,,,,,,,,,,,,,,,,,,,,,,,,,,,HX3J13,Train_y,red_square,top_left,2025-06-24_15h57.00.262,HideSeek_v1,2022.2.5,59.98900999952131,
,0,7,0,4,0,-3,13,,train_dim1_1,22,30,,,,2,0,2,0,,,,,,,,,0,0,0,0,0,21,21,21,0,0,0,0,,,,,,,,,,,,,,,,,,,,,,,,,stimuli/alien_stimuli/13.png,,,,,,,,,,,,,,,,,,,,,,,,,,,,,stimuli/alien_stimuli/15.png,15,2,23,,,,,,,30,,,,,,,,1018.1252893999917,1018.1252893999917,1018.1252893999917,1018.1252893999917,1018.1252893999917,right,0.6550228999694809,2,0,0,99,-0.08,0.16,right,0.5729448000201955,,,,,1016.5689631999703,1018.1252893999917,0,0.24,0.08,0.0,0.28,0,0.0,0,0.24,1014.0012588000391,1014.0012588000391,1014.0012588000391,1014.0012588000391,1014.0012588000391,1014.0012588000391,1014.0012588000391,1014.0012588000391,1014.0002570699551,2.6708284000633284,return,2.536216999986209,,,,,,,,,,,,,,,,,,,,,,,,,,,,,,,,,HX3J13,Train_y,red_square,top_left,2025-06-24_15h57.00.262,HideSeek_v1,2022.2.5,59.98900999952131,
,0,7,0,4,0,-3,13,,train_dim1_1,22,30,,,,2,0,2,0,,,,,,,,,0,0,0,0,0,21,21,21,1,0,1,0,,,,,,,,,,,,,,,,,,,,,,,,,,,,,,,,,,,,,,,,,,,,,,,,,,,,,,,,,,,,,,,,30,,,,,,,,1018.7890321000014,1018.7890321000014,1018.7890321000014,1018.7890321000014,1018.7890321000014,right,0.5425563999451697,2,0,0,99,0.0,0.16,right,0.45867229998111725,,,,,,,,,,,,,,,,,,,,,,,,,,,,,,,,,,,,,,,,,,,,,,,,,,,,,,,,,,,,HX3J13,Train_y,red_square,top_left,2025-06-24_15h57.00.262,HideSeek_v1,2022.2.5,59.98900999952131,
,0,7,0,4,0,-3,13,,train_dim1_1,22,30,,,,2,0,2,0,,,,,,,,,0,0,0,0,0,21,21,21,2,0,2,0,,,,,,,,,,,,,,,,,,,,,,,,,,,,,,,,,,,,,,,,,,,,,,,,,,,,,,,,,,,,,,,,30,,,,,,,,1019.3382923000026,1019.3382923000026,1019.3382923000026,1019.3382923000026,1019.3382923000026,right,0.22639770002570003,2,0,0,99,0.08,0.16,right,0.14534950000233948,,,,,,,,,,,,,,,,,,,,,,,,,,,,,,,,,,,,,,,,,,,,,,,,,,,,,,,,,,,,HX3J13,Train_y,red_square,top_left,2025-06-24_15h57.00.262,HideSeek_v1,2022.2.5,59.98900999952131,
,0,7,0,4,0,-3,13,,train_dim1_1,22,30,,,,2,0,2,0,,,,,,,,,0,0,0,0,0,21,21,21,3,0,3,0,,,,,,,,,,,,,,,,,,,,,,,,,,,,,,,,,,,,,,,,,,,,,,,,,,,,,,,,,,,,,,,,30,,,,,,,,1019.571708500036,1019.571708500036,1019.571708500036,1019.571708500036,1019.571708500036,right,0.2766413000645116,2,0,0,99,0.16,0.16,right,0.1845966000109911,,,,,,,,,,,,,,,,,,,,,,,,,,,,,,,,,,,,,,,,,,,,,,,,,,,,,,,,,,,,HX3J13,Train_y,red_square,top_left,2025-06-24_15h57.00.262,HideSeek_v1,2022.2.5,59.98900999952131,
,0,7,0,4,0,-3,13,,train_dim1_1,22,30,,,,2,0,2,0,,,,,,,,,0,0,0,0,0,21,21,21,4,0,4,0,,,,,,,,,,,,,,,,,,,,,,,,,,,,,,,,,,,,,,,,,,,,,,,,,,,,,,,,,,,,,,,,30,,,,,,,,1019.857088000048,1019.857088000048,1019.857088000048,1019.857088000048,1019.857088000048,return,1.6093476000241935,2,0,0,0,0.16,0.16,return,1.531955900019966,-37,21,0.16,0.16,,,,,,,,,,,,,,,,,,,,,,,,,,,,,,,,,,,,,,,,,,,,,,,,,,,,,,,,HX3J13,Train_y,red_square,top_left,2025-06-24_15h57.00.262,HideSeek_v1,2022.2.5,59.98900999952131,
,0,8,0,3,0,-5,11,,train_dim1_1,23,30,,,,2,0,2,0,,,,,,,,,0,0,0,0,0,22,22,22,0,0,0,0,,,,,,,,,,,,,,,,,,,,,,,,,stimuli/alien_stimuli/11.png,,,,,,,,,,,,,,,,,,,,,,,,,,,,,stimuli/alien_stimuli/13.png,13,0,24,,,,,,,30,,,,,,,,1025.9362735999748,1025.9362735999748,1025.9362735999748,1025.9362735999748,1025.9362735999748,return,0.7015866000438109,2,0,0,0,-0.16,0.24,return,0.6093154000118375,-37,21,-0.16,0.24,1024.3754538999638,1025.9362735999748,-0.16,-0.08,0.24,0.0,0.04,-0.16,-0.16,-0.16,-0.08,1023.0235984999454,1023.0235984999454,1023.0235984999454,1023.0235984999454,1023.0235984999454,1023.0235984999454,1023.0235984999454,1023.0235984999454,1023.0242766699637,1.4533790000714362,return,1.3313456000760198,,,,,,,,,,,,,,,,,,,,,,,,,,,,,,,,,HX3J13,Train_y,red_square,top_left,2025-06-24_15h57.00.262,HideSeek_v1,2022.2.5,59.98900999952131,
,3,7,3,7,0,0,16,,train_dim1_1,24,30,,,,2,0,2,0,,,,,,,,,0,0,0,0,0,23,23,23,0,0,0,0,,,,,,,,,,,,,,,,,,,,,,,,,stimuli/alien_stimuli/16.png,,,,,,,,,,,,,,,,,,,,,,,,,,,,,stimuli/alien_stimuli/11.png,11,0,25,,,,,,,30,,,,,,,,1031.955387599999,1031.955387599999,1031.955387599999,1031.955387599999,1031.955387599999,down,0.7537806999171153,2,0,0,99,0.08,0.08,down,0.6656466999556869,,,,,1030.3972154000076,1031.955387599999,-0.16,-0.16,0.4,0.0,0.039999999999999994,-0.16,-0.16,-0.16,-0.16,1028.1926914999494,1028.1926914999494,1028.1926914999494,1028.1926914999494,1028.1926914999494,1028.1926914999494,1028.1926914999494,1028.1926914999494,1028.1785926599755,2.304241600097157,return,2.1790632000193,,,,,,,,,,,,,,,,,,,,,,,,,,,,,,,,,HX3J13,Train_y,red_square,top_left,2025-06-24_15h57.00.262,HideSeek_v1,2022.2.5,59.98900999952131,
,3,7,3,7,0,0,16,,train_dim1_1,24,30,,,,2,0,2,0,,,,,,,,,0,0,0,0,0,23,23,23,1,0,1,0,,,,,,,,,,,,,,,,,,,,,,,,,,,,,,,,,,,,,,,,,,,,,,,,,,,,,,,,,,,,,,,,30,,,,,,,,1032.7160358000547,1032.7160358000547,1032.7160358000547,1032.7160358000547,1032.7160358000547,return,1.6107609000755474,2,1,0,0,0.08,0.08,return,1.526333500049077,-38,21,0.08,0.08,,,,,,,,,,,,,,,,,,,,,,,,,,,,,,,,,,,,,,,,,,,,,,,,,,,,,,,,HX3J13,Train_y,red_square,top_left,2025-06-24_15h57.00.262,HideSeek_v1,2022.2.5,59.98900999952131,
,3,8,3,4,0,-4,12,,train_dim1_1,25,30,,,,2,0,2,0,,,,,,,,,0,0,0,0,0,24,24,24,0,0,0,0,,,,,,,,,,,,,,,,,,,,,,,,,stimuli/alien_stimuli/12.png,,,,,,,,,,,,,,,,,,,,,,,,,,,,,stimuli/alien_stimuli/16.png,16,3,26,,,,,,,30,,,,,,,,1038.7955676999409,1038.7955676999409,1038.7955676999409,1038.7955676999409,1038.7955676999409,down,1.1039184000110254,2,1,0,99,0.08,0.15999999999999998,down,1.0162523000035435,,,,,1037.2360739000142,1038.7955676999409,0.08,0.16,0.0,0.0,0.16,0.08,0.08,0.08,0.16,1035.8917339999462,1035.8917339999462,1035.8917339999462,1035.8917339999462,1035.8917339999462,1035.8917339999462,1035.8917339999462,1035.8917339999462,1035.8848003699795,1.4533817999763414,return,1.3145047000143677,,,,,,,,,,,,,,,,,,,,,,,,,,,,,,,,,HX3J13,Train_y,red_square,top_left,2025-06-24_15h57.00.262,HideSeek_v1,2022.2.5,59.98900999952131,
,3,8,3,4,0,-4,12,,train_dim1_1,25,30,,,,2,0,2,0,,,,,,,,,0,0,0,0,0,24,24,24,1,0,1,0,,,,,,,,,,,,,,,,,,,,,,,,,,,,,,,,,,,,,,,,,,,,,,,,,,,,,,,,,,,,,,,,30,,,,,,,,1039.9052246999927,1039.9052246999927,1039.9052246999927,1039.9052246999927,1039.9052246999927,down,0.609925500000827,2,1,0,99,0.08,0.07999999999999997,down,0.5222970000468194,,,,,,,,,,,,,,,,,,,,,,,,,,,,,,,,,,,,,,,,,,,,,,,,,,,,,,,,,,,,HX3J13,Train_y,red_square,top_left,2025-06-24_15h57.00.262,HideSeek_v1,2022.2.5,59.98900999952131,
,3,8,3,4,0,-4,12,,train_dim1_1,25,30,,,,2,0,2,0,,,,,,,,,0,0,0,0,0,24,24,24,2,0,2,0,,,,,,,,,,,,,,,,,,,,,,,,,,,,,,,,,,,,,,,,,,,,,,,,,,,,,,,,,,,,,,,,30,,,,,,,,1040.5224820999429,1040.5224820999429,1040.5224820999429,1040.5224820999429,1040.5224820999429,down,0.5100098999682814,2,1,0,99,0.08,-2.7755575615628914e-17,down,0.4261181999463588,,,,,,,,,,,,,,,,,,,,,,,,,,,,,,,,,,,,,,,,,,,,,,,,,,,,,,,,,,,,HX3J13,Train_y,red_square,top_left,2025-06-24_15h57.00.262,HideSeek_v1,2022.2.5,59.98900999952131,
,3,8,3,4,0,-4,12,,train_dim1_1,25,30,,,,2,0,2,0,,,,,,,,,0,0,0,0,0,24,24,24,3,0,3,0,,,,,,,,,,,,,,,,,,,,,,,,,,,,,,,,,,,,,,,,,,,,,,,,,,,,,,,,,,,,,,,,30,,,,,,,,1041.0406731000403,1041.0406731000403,1041.0406731000403,1041.0406731000403,1041.0406731000403,down,0.5429698000662029,2,1,0,99,0.08,-0.08000000000000003,down,0.4655010999413207,,,,,,,,,,,,,,,,,,,,,,,,,,,,,,,,,,,,,,,,,,,,,,,,,,,,,,,,,,,,HX3J13,Train_y,red_square,top_left,2025-06-24_15h57.00.262,HideSeek_v1,2022.2.5,59.98900999952131,
,3,8,3,4,0,-4,12,,train_dim1_1,25,30,,,,2,0,2,0,,,,,,,,,0,0,0,0,0,24,24,24,4,0,4,0,,,,,,,,,,,,,,,,,,,,,,,,,,,,,,,,,,,,,,,,,,,,,,,,,,,,,,,,,,,,,,,,30,,,,,,,,1041.5906418999657,1041.5906418999657,1041.5906418999657,1041.5906418999657,1041.5906418999657,return,1.2942602999974042,3,0,0,1,0.08,-0.08000000000000003,return,1.2106208000332117,-42,21,0.08,-0.08000000000000003,,,,,,,,,,,,,,,,,,,,,,,,,,,,,,,,,,,,,,,,,,,,,,,,,,,,,,,,HX3J13,Train_y,red_square,top_left,2025-06-24_15h57.00.262,HideSeek_v1,2022.2.5,59.98900999952131,
,4,9,4,6,0,-3,13,,train_dim1_1,26,30,,,,2,0,2,0,,,,,,,,,0,0,0,0,0,25,25,25,0,0,0,0,,,,,,,,,,,,,,,,,,,,,,,,,stimuli/alien_stimuli/13.png,,,,,,,,,,,,,,,,,,,,,,,,,,,,,stimuli/alien_stimuli/12.png,12,3,27,,,,,,,30,,,,,,,,1047.9347215000307,1047.9347215000307,1047.9347215000307,1047.9347215000307,1047.9347215000307,down,1.504528500023298,3,0,0,99,0.16,0.24,down,1.4260941999964416,,,,,1046.376995599945,1047.9347215000307,0.08,-0.08,0.32,0.0,0.07999999999999999,0.08,0.08,0.08,-0.08,1044.441352599999,1044.441352599999,1044.441352599999,1044.441352599999,1044.441352599999,1044.441352599999,1044.441352599999,1044.441352599999,1044.4421136699502,2.0369485000846907,return,1.9034276000456885,,,,,,,,,,,,,,,,,,,,,,,,,,,,,,,,,HX3J13,Train_y,red_square,top_left,2025-06-24_15h57.00.262,HideSeek_v1,2022.2.5,59.98900999952131,
,4,9,4,6,0,-3,13,,train_dim1_1,26,30,,,,2,0,2,0,,,,,,,,,0,0,0,0,0,25,25,25,1,0,1,0,,,,,,,,,,,,,,,,,,,,,,,,,,,,,,,,,,,,,,,,,,,,,,,,,,,,,,,,,,,,,,,,30,,,,,,,,1049.4466113999952,1049.4466113999952,1049.4466113999952,1049.4466113999952,1049.4466113999952,down,0.2594877000665292,3,0,0,99,0.16,0.15999999999999998,down,0.18237269995734096,,,,,,,,,,,,,,,,,,,,,,,,,,,,,,,,,,,,,,,,,,,,,,,,,,,,,,,,,,,,HX3J13,Train_y,red_square,top_left,2025-06-24_15h57.00.262,HideSeek_v1,2022.2.5,59.98900999952131,
,4,9,4,6,0,-3,13,,train_dim1_1,26,30,,,,2,0,2,0,,,,,,,,,0,0,0,0,0,25,25,25,2,0,2,0,,,,,,,,,,,,,,,,,,,,,,,,,,,,,,,,,,,,,,,,,,,,,,,,,,,,,,,,,,,,,,,,30,,,,,,,,1049.7133576000342,1049.7133576000342,1049.7133576000342,1049.7133576000342,1049.7133576000342,down,0.8770766000961885,3,0,0,99,0.16,0.07999999999999997,down,0.8001968000316992,,,,,,,,,,,,,,,,,,,,,,,,,,,,,,,,,,,,,,,,,,,,,,,,,,,,,,,,,,,,HX3J13,Train_y,red_square,top_left,2025-06-24_15h57.00.262,HideSeek_v1,2022.2.5,59.98900999952131,
,4,9,4,6,0,-3,13,,train_dim1_1,26,30,,,,2,0,2,0,,,,,,,,,0,0,0,0,0,25,25,25,3,0,3,0,,,,,,,,,,,,,,,,,,,,,,,,,,,,,,,,,,,,,,,,,,,,,,,,,,,,,,,,,,,,,,,,30,,,,,,,,1050.5975430000108,1050.5975430000108,1050.5975430000108,1050.5975430000108,1050.5975430000108,return,0.6262286000419408,4,0,0,1,0.16,0.07999999999999997,return,0.5495965000009164,-45,21,0.16,0.07999999999999997,,,,,,,,,,,,,,,,,,,,,,,,,,,,,,,,,,,,,,,,,,,,,,,,,,,,,,,,HX3J13,Train_y,red_square,top_left,2025-06-24_15h57.00.262,HideSeek_v1,2022.2.5,59.98900999952131,
,3,9,3,9,0,0,16,,train_dim1_1,27,30,,,,2,0,2,0,,,,,,,,,0,0,0,0,0,26,26,26,0,0,0,0,,,,,,,,,,,,,,,,,,,,,,,,,stimuli/alien_stimuli/16.png,,,,,,,,,,,,,,,,,,,,,,,,,,,,,stimuli/alien_stimuli/13.png,13,4,28,,,,,,,30,,,,,,,,1058.057684200001,1058.057684200001,1058.057684200001,1058.057684200001,1058.057684200001,right,0.6893328999867663,4,0,0,99,0.16,0.32,right,0.6079265000298619,,,,,1056.5021017999388,1058.057684200001,0.16,0.08,0.24,0.0,0.2,0.16,0.16,0.16,0.08,1052.7923274999484,1052.7923274999484,1052.7923274999484,1052.7923274999484,1052.7923274999484,1052.7923274999484,1052.7923274999484,1052.7923274999484,1052.7819409699996,3.822314799996093,return,3.6854218000080436,,,,,,,,,,,,,,,,,,,,,,,,,,,,,,,,,HX3J13,Train_y,red_square,top_left,2025-06-24_15h57.00.262,HideSeek_v1,2022.2.5,59.98900999952131,
,3,9,3,9,0,0,16,,train_dim1_1,27,30,,,,2,0,2,0,,,,,,,,,0,0,0,0,0,26,26,26,1,0,1,0,,,,,,,,,,,,,,,,,,,,,,,,,,,,,,,,,,,,,,,,,,,,,,,,,,,,,,,,,,,,,,,,30,,,,,,,,1058.7543485000497,1058.7543485000497,1058.7543485000497,1058.7543485000497,1058.7543485000497,return,1.9610250999685377,4,1,0,0,0.16,0.32,return,1.8831961998948827,-45,22,0.16,0.32,,,,,,,,,,,,,,,,,,,,,,,,,,,,,,,,,,,,,,,,,,,,,,,,,,,,,,,,HX3J13,Train_y,red_square,top_left,2025-06-24_15h57.00.262,HideSeek_v1,2022.2.5,59.98900999952131,
,4,6,4,1,0,-5,11,,train_dim1_1,28,30,,,,2,0,2,0,,,,,,,,,0,0,0,0,0,27,27,27,0,0,0,0,,,,,,,,,,,,,,,,,,,,,,,,,stimuli/alien_stimuli/11.png,,,,,,,,,,,,,,,,,,,,,,,,,,,,,stimuli/alien_stimuli/16.png,16,3,29,,,,,,,30,,,,,,,,1065.233033000026,1065.233033000026,1065.233033000026,1065.233033000026,1065.233033000026,down,0.7370095000369474,4,1,0,99,0.16,0.0,down,0.648981700069271,,,,,1063.6748383999802,1065.233033000026,0.08,0.32,0.0,0.0,0.32,0.08,0.08,0.08,0.32,1062.2923749999609,1062.2923749999609,1062.2923749999609,1062.2923749999609,1062.2923749999609,1062.2923749999609,1062.2923749999609,1062.2923749999609,1062.2902217798867,1.5032752000261098,return,1.3606269999872893,,,,,,,,,,,,,,,,,,,,,,,,,,,,,,,,,HX3J13,Train_y,red_square,top_left,2025-06-24_15h57.00.262,HideSeek_v1,2022.2.5,59.98900999952131,
,4,6,4,1,0,-5,11,,train_dim1_1,28,30,,,,2,0,2,0,,,,,,,,,0,0,0,0,0,27,27,27,1,0,1,0,,,,,,,,,,,,,,,,,,,,,,,,,,,,,,,,,,,,,,,,,,,,,,,,,,,,,,,,,,,,,,,,30,,,,,,,,1065.977745900047,1065.977745900047,1065.977745900047,1065.977745900047,1065.977745900047,down,1.2936096999328583,4,1,0,99,0.16,-0.08,down,1.2040656000608578,,,,,,,,,,,,,,,,,,,,,,,,,,,,,,,,,,,,,,,,,,,,,,,,,,,,,,,,,,,,HX3J13,Train_y,red_square,top_left,2025-06-24_15h57.00.262,HideSeek_v1,2022.2.5,59.98900999952131,
,4,6,4,1,0,-5,11,,train_dim1_1,28,30,,,,2,0,2,0,,,,,,,,,0,0,0,0,0,27,27,27,2,0,2,0,,,,,,,,,,,,,,,,,,,,,,,,,,,,,,,,,,,,,,,,,,,,,,,,,,,,,,,,,,,,,,,,30,,,,,,,,1067.2784294999437,1067.2784294999437,1067.2784294999437,1067.2784294999437,1067.2784294999437,return,1.027349500101991,4,0,0,0,0.16,-0.08,return,0.9465592000633478,-47,22,0.16,-0.08,,,,,,,,,,,,,,,,,,,,,,,,,,,,,,,,,,,,,,,,,,,,,,,,,,,,,,,,HX3J13,Train_y,red_square,top_left,2025-06-24_15h57.00.262,HideSeek_v1,2022.2.5,59.98900999952131,
,2,7,2,3,0,-4,12,,train_dim1_1,29,30,,,,2,0,2,0,,,,,,,,,0,0,0,0,0,28,28,28,0,0,0,0,,,,,,,,,,,,,,,,,,,,,,,,,stimuli/alien_stimuli/12.png,,,,,,,,,,,,,,,,,,,,,,,,,,,,,stimuli/alien_stimuli/11.png,11,4,30,,,,,,,30,,,,,,,,1073.873762400006,1073.873762400006,1073.873762400006,1073.873762400006,1073.873762400006,down,3.5226362999528646,4,0,0,99,0,0.08,down,3.441922999918461,,,,,1072.3151926000137,1073.873762400006,0.16,-0.32,0.4,0.0,-0.12,0.16,0.16,0.16,-0.32,1069.860570800025,1069.860570800025,1069.860570800025,1069.860570800025,1069.860570800025,1069.860570800025,1069.860570800025,1069.860570800025,1069.8464297599626,2.5545343999983743,return,2.4305010999087244,,,,,,,,,,,,,,,,,,,,,,,,,,,,,,,,,HX3J13,Train_y,red_square,top_left,2025-06-24_15h57.00.262,HideSeek_v1,2022.2.5,59.98900999952131,
,2,7,2,3,0,-4,12,,train_dim1_1,29,30,,,,2,0,2,0,,,,,,,,,0,0,0,0,0,28,28,28,1,0,1,0,,,,,,,,,,,,,,,,,,,,,,,,,,,,,,,,,,,,,,,,,,,,,,,,,,,,,,,,,,,,,,,,30,,,,,,,,1077.4061057999497,1077.4061057999497,1077.4061057999497,1077.4061057999497,1077.4061057999497,down,0.8085691999876872,4,0,0,99,0,0.0,down,0.7257505001034588,,,,,,,,,,,,,,,,,,,,,,,,,,,,,,,,,,,,,,,,,,,,,,,,,,,,,,,,,,,,HX3J13,Train_y,red_square,top_left,2025-06-24_15h57.00.262,HideSeek_v1,2022.2.5,59.98900999952131,
,2,7,2,3,0,-4,12,,train_dim1_1,29,30,,,,2,0,2,0,,,,,,,,,0,0,0,0,0,28,28,28,2,0,2,0,,,,,,,,,,,,,,,,,,,,,,,,,,,,,,,,,,,,,,,,,,,,,,,,,,,,,,,,,,,,,,,,30,,,,,,,,1078.2207210999914,1078.2207210999914,1078.2207210999914,1078.2207210999914,1078.2207210999914,down,0.37664170004427433,4,0,0,99,0,-0.08,down,0.2945901000639424,,,,,,,,,,,,,,,,,,,,,,,,,,,,,,,,,,,,,,,,,,,,,,,,,,,,,,,,,,,,HX3J13,Train_y,red_square,top_left,2025-06-24_15h57.00.262,HideSeek_v1,2022.2.5,59.98900999952131,
,2,7,2,3,0,-4,12,,train_dim1_1,29,30,,,,2,0,2,0,,,,,,,,,0,0,0,0,0,28,28,28,3,0,3,0,,,,,,,,,,,,,,,,,,,,,,,,,,,,,,,,,,,,,,,,,,,,,,,,,,,,,,,,,,,,,,,,30,,,,,,,,1078.6039178000065,1078.6039178000065,1078.6039178000065,1078.6039178000065,1078.6039178000065,return,0.9605822999728844,4,1,0,0,0,-0.08,return,0.8746966000180691,-50,22,0,-0.08,,,,,,,,,,,,,,,,,,,,,,,,,,,,,,,,,,,,,,,,,,,,,,,,,,,,,,,,HX3J13,Train_y,red_square,top_left,2025-06-24_15h57.00.262,HideSeek_v1,2022.2.5,59.98900999952131,
,0,6,0,5,0,-1,15,,train_dim1_1,30,30,,,,2,0,2,0,,,,,,,,,0,0,0,0,0,29,29,29,0,0,0,0,,,,,,,,,,,,,,,,,,,,,,,,,stimuli/alien_stimuli/15.png,,,,,,,,,,,,,,,,,,,,,,,,,,,,,stimuli/alien_stimuli/12.png,12,2,31,,,,,,,30,,,,,,,,1083.9482151999837,1083.9482151999837,1083.9482151999837,1083.9482151999837,1083.9482151999837,right,0.621027399902232,4,1,0,99,-0.08,0.08,right,0.5415760000469163,,,,,1082.3901410000399,1083.9482151999837,0,-0.16,0.32,0.0,0.0,0,0.0,0,-0.16,1081.136785699986,1081.136785699986,1081.136785699986,1081.136785699986,1081.136785699986,1081.136785699986,1081.136785699986,1081.136785699986,1081.1225022699336,1.3697149000363424,return,1.2274350000079721,,,,,,,,,,,,,,,,,,,,,,,,,,,,,,,,,HX3J13,Train_y,red_square,top_left,2025-06-24_15h57.00.262,HideSeek_v1,2022.2.5,59.98900999952131,
,0,6,0,5,0,-1,15,,train_dim1_1,30,30,,,,2,0,2,0,,,,,,,,,0,0,0,0,0,29,29,29,1,0,1,0,,,,,,,,,,,,,,,,,,,,,,,,,,,,,,,,,,,,,,,,,,,,,,,,,,,,,,,,,,,,,,,,30,,,,,,,,1084.5762226999504,1084.5762226999504,1084.5762226999504,1084.5762226999504,1084.5762226999504,left,1.3779985000146553,4,1,0,99,-0.16,0.08,left,1.29973460000474,,,,,,,,,,,,,,,,,,,,,,,,,,,,,,,,,,,,,,,,,,,,,,,,,,,,,,,,,,,,HX3J13,Train_y,red_square,top_left,2025-06-24_15h57.00.262,HideSeek_v1,2022.2.5,59.98900999952131,
,0,6,0,5,0,-1,15,,train_dim1_1,30,30,,,,2,0,2,0,,,,,,,,,0,0,0,0,0,29,29,29,2,0,2,0,,,,,,,,,,,,,,,,,,,,,,,,,,,,,,,,,,,,,,,,,,,,,,,,,,,,,,,,,,,,,,,,30,,,,,,,,1085.9663935999852,1085.9663935999852,1085.9663935999852,1085.9663935999852,1085.9663935999852,return,0.3383363999892026,4,1,0,0,-0.16,0.08,return,0.24713140004314482,-50,22,-0.16,0.08,,,,,,,,,,,,,,,,,,,,,,,,,,,,,,,,,,,,,,,,,,,,,,,,,,,,,,,,HX3J13,Train_y,red_square,top_left,2025-06-24_15h57.00.262,HideSeek_v1,2022.2.5,59.98900999952131,
,,,,,,,,,,,30,,,,2,0,2,0,,,,,,,,,,,,,,,,,,,,,,,,,,,,,,,,,,,,,,,,,,,,,,,,,,,,,,,,,,,,,,,,,,,,,,,,,,stimuli/alien_stimuli/15.png,15,0,32,21,0.7,0.16666666666666669,1,1,1,30,0,conditions/schedules/Train_y_first/red_square_00/top_left/inputTrain_2.1.xlsx,99,1,2,1,0,,,,,,,,,,,0,,,,,,,,,1089.4627039999468,1091.022925999947,-0.16,0,0.08,0.0,0.04,-0.16,-0.16,-0.16,0,1087.862586000003,1087.862586000003,1087.862586000003,1087.862586000003,1087.862586000003,1087.862586000003,1087.862586000003,1087.862586000003,1087.8614412699944,1.703635000041686,return,1.581619399948977,0,0.9,0,1,4,,,,,,,,,,,,,,,,,,,,,,,,,,,,HX3J13,Train_y,red_square,top_left,2025-06-24_15h57.00.262,HideSeek_v1,2022.2.5,59.98900999952131,
,,,,,,,,,,,,,,,3,0,3,0,0,0,0,0,,,,,,,,,,,,,,,,,,,,,,,,,,,,,,,conditions/schedules/Train_y_first/red_square_00/top_left/instructions/Slide17.png,conditions/schedules/Train_y_first/red_square_00/top_left/instructions/Audio17.wav,1091.022925999947,1091.0139483399923,17,"[3.5773486000252888, 18.982211599941365, 16.88216400006786, 20.156676699989475, 4.250862299930304, 4.486368599929847, 5.50402979995124, 11.288349600043148, 6.4013870999915525, 6.925143499975093, 10.135737800039351, 13.754286999930628, 17.230972700053826, 16.572787899989635, 41.92654949997086, 20.859738599974662, 44.19200429995544]","[0.014339299988932908, 18.982218499993905, 0.0363337000599131, 0.0002516999375075102, 0.06606069998815656, 0.11636049998924136, 0.03108959994278848, 0.04733019997365773, 0.05292379995808005, 0.04632710001897067, 0.030256600002758205, 13.754293899983168, 0.0002370999427512288, 16.57279450003989, 0.097460399963893, 20.859745600027964, 44.19201120000798]",0,,,,,,,,,,,,,,,,,,,,,,,,,,,,,,,,,,,,,,,,,,,,,,,,,,,,,,,,,,,,,,,,,,,,,,,,,,,,,,,,,,,,,,,,,,,,,,,,,,,,,,,,,,,,,,,,,,,,,,,,,,,,HX3J13,Train_y,red_square,top_left,2025-06-24_15h57.00.262,HideSeek_v1,2022.2.5,59.98900999952131,
,,,,,,,,,,,,,,,3,0,3,0,1,0,1,0,,,,,,,,,,,,,,,,,,,,,,,,,,,,,,,conditions/schedules/Train_y_first/red_square_00/top_left/instructions/Slide18.png,conditions/schedules/Train_y_first/red_square_00/top_left/instructions/Audio18.wav,1135.2778473000508,1135.267471039924,18,"[3.5773486000252888, 18.982211599941365, 16.88216400006786, 20.156676699989475, 4.250862299930304, 4.486368599929847, 5.50402979995124, 11.288349600043148, 6.4013870999915525, 6.925143499975093, 10.135737800039351, 13.754286999930628, 17.230972700053826, 16.572787899989635, 41.92654949997086, 20.859738599974662, 44.19200429995544, 5.891847199993208]","[0.014339299988932908, 18.982218499993905, 0.0363337000599131, 0.0002516999375075102, 0.06606069998815656, 0.11636049998924136, 0.03108959994278848, 0.04733019997365773, 0.05292379995808005, 0.04632710001897067, 0.030256600002758205, 13.754293899983168, 0.0002370999427512288, 16.57279450003989, 0.097460399963893, 20.859745600027964, 0.00021139997988939285, 5.891854199930094]",0,,,,,,,,,,,,,,,,,,,,,,,,,,,,,,,,,,,,,,,,,,,,,,,,,,,,,,,,,,,,,,,,,,,,,,,,,,,,,,,,,,,,,,,,,,,,,,,,,,,,,,,,,,,,,,,,,,,,,,,,,,,,HX3J13,Train_y,red_square,top_left,2025-06-24_15h57.00.262,HideSeek_v1,2022.2.5,59.98900999952131,
,,,,,,,,,,,,,,,3,0,3,0,2,0,2,0,,,,,,,,,,,,,,,,,,,,,,,,,,,,,,,conditions/schedules/Train_y_first/red_square_00/top_left/instructions/Slide19.png,conditions/schedules/Train_y_first/red_square_00/top_left/instructions/Audio19.wav,1141.2242161999457,1141.2220793399263,19,"[3.5773486000252888, 18.982211599941365, 16.88216400006786, 20.156676699989475, 4.250862299930304, 4.486368599929847, 5.50402979995124, 11.288349600043148, 6.4013870999915525, 6.925143499975093, 10.135737800039351, 13.754286999930628, 17.230972700053826, 16.572787899989635, 41.92654949997086, 20.859738599974662, 44.19200429995544, 5.891847199993208, 9.68696409999393]","[0.014339299988932908, 18.982218499993905, 0.0363337000599131, 0.0002516999375075102, 0.06606069998815656, 0.11636049998924136, 0.03108959994278848, 0.04733019997365773, 0.05292379995808005, 0.04632710001897067, 0.030256600002758205, 13.754293899983168, 0.0002370999427512288, 16.57279450003989, 0.097460399963893, 20.859745600027964, 0.00021139997988939285, 0.01396239991299808, 9.686971199931577]",0,,,,,,,,,,,,,,,,,,,,,,,,,,,,,,,,,,,,,,,,,,,,,,,,,,,,,,,,,,,,,,,,,,,,,,,,,,,,,,,,,,,,,,,,,,,,,,,,,,,,,,,,,,,,,,,,,,,,,,,,,,,,HX3J13,Train_y,red_square,top_left,2025-06-24_15h57.00.262,HideSeek_v1,2022.2.5,59.98900999952131,
,,,,,,,,,,,,,,,3,0,3,0,3,0,3,0,,,,,,,,,,,,,,,,,,,,,,,,,,,,,,,conditions/schedules/Train_y_first/red_square_00/top_left/instructions/Slide20.png,conditions/schedules/Train_y_first/red_square_00/top_left/instructions/Audio20.wav,1150.9868117000442,1150.980441749969,20,"[3.5773486000252888, 18.982211599941365, 16.88216400006786, 20.156676699989475, 4.250862299930304, 4.486368599929847, 5.50402979995124, 11.288349600043148, 6.4013870999915525, 6.925143499975093, 10.135737800039351, 13.754286999930628, 17.230972700053826, 16.572787899989635, 41.92654949997086, 20.859738599974662, 44.19200429995544, 5.891847199993208, 9.68696409999393, 13.135839299997315]","[0.014339299988932908, 18.982218499993905, 0.0363337000599131, 0.0002516999375075102, 0.06606069998815656, 0.11636049998924136, 0.03108959994278848, 0.04733019997365773, 0.05292379995808005, 0.04632710001897067, 0.030256600002758205, 13.754293899983168, 0.0002370999427512288, 16.57279450003989, 0.097460399963893, 20.859745600027964, 0.00021139997988939285, 0.01396239991299808, 0.00021219998598098755, 13.135847100056708]",0,,,,,,,,,,,,,,,,,,,,,,,,,,,,,,,,,,,,,,,,,,,,,,,,,,,,,,,,,,,,,,,,,,,,,,,,,,,,,,,,,,,,,,,,,,,,,,,,,,,,,,,,,,,,,,,,,,,,,,,,,,,,HX3J13,Train_y,red_square,top_left,2025-06-24_15h57.00.262,HideSeek_v1,2022.2.5,59.98900999952131,
1,3,7,8,7,5,0,66,2,instr_dim1_2,,,,,,3,0,3,0,,,,,0,0,0,0,,,,,,,,,,,,,,,,,,,,,,,,,,,,,,,,,,,,,stimuli/alien_stimuli/66.png,conditions/schedules/Train_y_first/red_square_00/top_left/inputInstr_2.xlsx,stimuli/alien_stimuli/66.png,1164.2227772000479,1164.2227772000479,1164.2227772000479,1164.2227772000479,1164.2081996599213,return,6.4427003000164405,"[-0.16, -0.08, 0, 0.08, 0.16, 0.24, 0.32, 0.4, 0.48, 0.56]","[-0.4, -0.32, -0.24, -0.16, -0.08, 0, 0.08, 0.16, 0.24, 0.32]",7,7,8,3,0.0,0.4,1170.8142742000055,1170.8142742000055,1170.8142742000055,1170.8142742000055,1170.8142742000055,1170.8142742000055,1170.8142742000055,1170.7969048699715,6.4229266999755055,return,6.287421699962579,stimuli/alien_stimuli/66.png,66,3,1,,,,,,,,,,,,,,,,,,,,,,,,,,,,,,,,,,,,,,,,,,,,,,,,,,,,,,,,,,,,,,,,,,,,,,,,,,,,,,,,,,,,,,,,,HX3J13,Train_y,red_square,top_left,2025-06-24_15h57.00.262,HideSeek_v1,2022.2.5,59.98900999952131,
,,,,,,,,,,,30,,,,3,0,3,0,,,,,,,,,,,,,,,,,,,,,,,,,,,,,,,,,,,,,,,,,,,,,,,,,,,,,,,,,,,,,,,,,,,,,,,,,,,,,,21,0.7,0.16666666666666669,1,99,2,30,0,conditions/schedules/Train_y_first/red_square_00/top_left/inputTrain_2.1.xlsx,99,1,2,1,0,,,,,,,,,,,,,,,,,,,,,,,,,,,,,,,,,,,,,,,,,,,,,,,,,,,,,,,,,,,,,,,,,,,,,,,,,,,HX3J13,Train_y,red_square,top_left,2025-06-24_15h57.00.262,HideSeek_v1,2022.2.5,59.98900999952131,
,,,,,,,,,,,,,,,4,0,4,0,0,0,0,0,,,,,,,,,,,,,,,,,,,,,,,,,,,,,,,conditions/schedules/Train_y_first/red_square_00/top_left/instructions/Slide21.png,conditions/schedules/Train_y_first/red_square_00/top_left/instructions/Audio21.wav,1177.25301580003,1177.2520346899635,21,"[3.5773486000252888, 18.982211599941365, 16.88216400006786, 20.156676699989475, 4.250862299930304, 4.486368599929847, 5.50402979995124, 11.288349600043148, 6.4013870999915525, 6.925143499975093, 10.135737800039351, 13.754286999930628, 17.230972700053826, 16.572787899989635, 41.92654949997086, 20.859738599974662, 44.19200429995544, 5.891847199993208, 9.68696409999393, 13.135839299997315, 15.05929460003972]","[0.014339299988932908, 18.982218499993905, 0.0363337000599131, 0.0002516999375075102, 0.06606069998815656, 0.11636049998924136, 0.03108959994278848, 0.04733019997365773, 0.05292379995808005, 0.04632710001897067, 0.030256600002758205, 13.754293899983168, 0.0002370999427512288, 16.57279450003989, 0.097460399963893, 20.859745600027964, 0.00021139997988939285, 0.01396239991299808, 0.00021219998598098755, 13.135847100056708, 15.05930249998346]",0,,,,,,,,,,,,,,,,,,,,,,,,,,,,,,,,,,,,,,,,,,,,,,,,,,,,,,,,,,,,,,,,,,,,,,,,,,,,,,,,,,,,,,,,,,,,,,,,,,,,,,,,,,,,,,,,,,,,,,,,,,,,HX3J13,Train_y,red_square,top_left,2025-06-24_15h57.00.262,HideSeek_v1,2022.2.5,59.98900999952131,
