trialInstr,x_fixStart,y_fixStart,x_corrSteps,y_corrSteps,x_nrSteps,y_nrSteps,alienID,trialLength,version,trialTrain,praclen,testlen,trial_label,break_on_off,beforeExpLoop.thisRepN,beforeExpLoop.thisTrialN,beforeExpLoop.thisN,beforeExpLoop.thisIndex,mini_instr_trials.thisRepN,mini_instr_trials.thisTrialN,mini_instr_trials.thisN,mini_instr_trials.thisIndex,instrLoop.thisRepN,instrLoop.thisTrialN,instrLoop.thisN,instrLoop.thisIndex,repeat_prac.thisRepN,repeat_prac.thisTrialN,repeat_prac.thisN,repeat_prac.thisIndex,trainLoop.thisRepN,trainLoop.thisTrialN,trainLoop.thisN,trainLoop.thisIndex,moveLoop_train.thisRepN,moveLoop_train.thisTrialN,moveLoop_train.thisN,moveLoop_train.thisIndex,experiment.thisRepN,experiment.thisTrialN,experiment.thisN,experiment.thisIndex,moveLoop_test.thisRepN,moveLoop_test.thisTrialN,moveLoop_test.thisN,moveLoop_test.thisIndex,mini_instr2_trials.thisRepN,mini_instr2_trials.thisTrialN,mini_instr2_trials.thisN,mini_instr2_trials.thisIndex,start_all_time,url,slideStim,audioStim,slides.started,sounds.started,nextButton.numClicks,nextButton.timesOn,nextButton.timesOff,prev_but.numClicks,prev_but.timesOn,prev_but.timesOff,alienStim,instrFile,alienStim_instr,gridImage_instr.started,startPos_3.started,key_instr.started,alienImage_3.started,sounds_1.started,key_instr.keys,key_instr.rt,all_x,all_y,FBy_corrSteps,FBy_fixStart,FBx_corrSteps,FBx_fixStart,FBy_pathSize_check,FBx_pathSize_check,gridImage_9.started,alienImageFB_3.started,startPosFB_3.started,keyFB_3.started,pathLine_ydir_2.started,pathLine_xdir_2.started,alienFace_3.started,sounds_2.started,RTFB_instr,keyFB_3.keys,keyFB_3.rt,draw_alienStim,draw_alienID,test_x,nrepcount,perfthres,percthres,earlierperf,earlystop,nextPrac,fileidx,praclen,saveACC_train,pracFile,nextPrac_train,addNrep,fileidx_endr,repExp,showearly,gridImage_4.started,startPos.started,movePos.started,key_resp.started,alienImage.started,buttonPress_train,RTchoice_train,cumAcctrain,aCorr,saveACC_choice,corrAns,x_movePos_end,y_movePos_end,key_resp.keys,key_resp.rt,wLy_dir,wLx_dir,x_movePos,y_movePos,text_2.started,text_2.stopped,aft_x_corrPos,aft_y_corrPos,y_pathSize_check,x_pathSize_check,y_pathdirY,x_pathdirY,x_pathdirX,x_corrPos,y_corrPos,gridImage_6.started,alienImageFB_2.started,startPosFB_2.started,movePosFB_2.started,keyFB_2.started,pathLine_xdir.started,pathLine_ydir.started,alienFace.started,sounds_4.started,RT_FBtrain,keyFB_2.keys,keyFB_2.rt,saveACC_pre,ACC,within_saveACC_train,earlystop_wloop,cumAcctrain_check,gridImage_3.started,alienImage_test.started,startPos_test.started,movePos_test.started,key_resp_test.started,wLy_dir_test,wLx_dir_test,buttonPress_test,RTchoice_test,cumAcctest,corrAns_test,key_resp_test.keys,key_resp_test.rt,text_3.started,text_3.stopped,total_time,end_all_time,key_resp_3.keys,slides_2.started,sounds_3.started,nextButton_2.numClicks,nextButton_2.timesOn,nextButton_2.timesOff,prev_but_2.numClicks,prev_but_2.timesOn,prev_but_2.timesOff,bye.started,participant,train_first,00_coordinate,starting corner,date,expName,psychopyVersion,frameRate,
,,,,,,,,,,,,,,,0,0,0,0,0,0,0,0,,,,,,,,,,,,,,,,,,,,,,,,,,,,,start_all_time,testround,conditions/schedules/train_x_first/blue_star_00/top_left/instructions/Slide1.png,conditions/schedules/train_x_first/blue_star_00/top_left/instructions/Audio1.wav,640.5301386000356,640.4802521019243,1,[7.881268400000408],[7.881276199943386],0,,,,,,,,,,,,,,,,,,,,,,,,,,,,,,,,,,,,,,,,,,,,,,,,,,,,,,,,,,,,,,,,,,,,,,,,,,,,,,,,,,,,,,,,,,,,,,,,,,,,,,,,,,,,,,,,,,,,,,,,,,,,J7XM9F,train_x,blue_star,top_left,2025-07-17_16h09.20.491,HideSeek_v1,2022.2.5,59.91769708027705,
,,,,,,,,,,,,,,,0,0,0,0,1,0,1,0,,,,,,,,,,,,,,,,,,,,,,,,,,,,,,,conditions/schedules/train_x_first/blue_star_00/top_left/instructions/Slide2.png,conditions/schedules/train_x_first/blue_star_00/top_left/instructions/Audio2.wav,648.4263229999924,648.4126670999918,2,"[7.881268400000408, 18.515485899988562]","[0.00021279999054968357, 18.515492900041863]",0,,,,,,,,,,,,,,,,,,,,,,,,,,,,,,,,,,,,,,,,,,,,,,,,,,,,,,,,,,,,,,,,,,,,,,,,,,,,,,,,,,,,,,,,,,,,,,,,,,,,,,,,,,,,,,,,,,,,,,,,,,,,J7XM9F,train_x,blue_star,top_left,2025-07-17_16h09.20.491,HideSeek_v1,2022.2.5,59.91769708027705,
,,,,,,,,,,,,,,,0,0,0,0,2,0,2,0,,,,,,,,,,,,,,,,,,,,,,,,,,,,,,,conditions/schedules/train_x_first/blue_star_00/top_left/instructions/Slide3.png,conditions/schedules/train_x_first/blue_star_00/top_left/instructions/Audio3.wav,667.0102841999615,667.0116306500277,3,"[7.881268400000408, 18.515485899988562, 17.82974950002972]","[0.00021279999054968357, 0.0651120999827981, 17.829756299965084]",0,,,,,,,,,,,,,,,,,,,,,,,,,,,,,,,,,,,,,,,,,,,,,,,,,,,,,,,,,,,,,,,,,,,,,,,,,,,,,,,,,,,,,,,,,,,,,,,,,,,,,,,,,,,,,,,,,,,,,,,,,,,,J7XM9F,train_x,blue_star,top_left,2025-07-17_16h09.20.491,HideSeek_v1,2022.2.5,59.91769708027705,
,,,,,,,,,,,,,,,0,0,0,0,3,0,3,0,,,,,,,,,,,,,,,,,,,,,,,,,,,,,,,conditions/schedules/train_x_first/blue_star_00/top_left/instructions/Slide4.png,conditions/schedules/train_x_first/blue_star_00/top_left/instructions/Audio4.wav,684.9192876999732,684.9098716500448,4,"[7.881268400000408, 18.515485899988562, 17.82974950002972, 19.453856999985874]","[0.00021279999054968357, 0.0651120999827981, 0.10444750008173287, 19.45386370003689]",0,,,,,,,,,,,,,,,,,,,,,,,,,,,,,,,,,,,,,,,,,,,,,,,,,,,,,,,,,,,,,,,,,,,,,,,,,,,,,,,,,,,,,,,,,,,,,,,,,,,,,,,,,,,,,,,,,,,,,,,,,,,,J7XM9F,train_x,blue_star,top_left,2025-07-17_16h09.20.491,HideSeek_v1,2022.2.5,59.91769708027705,
,,,,,,,,,,,,,,,0,0,0,0,4,0,4,0,,,,,,,,,,,,,,,,,,,,,,,,,,,,,,,conditions/schedules/train_x_first/blue_star_00/top_left/instructions/Slide5.png,conditions/schedules/train_x_first/blue_star_00/top_left/instructions/Audio5.wav,704.4390201000497,704.4259623000631,5,"[7.881268400000408, 18.515485899988562, 17.82974950002972, 19.453856999985874, 5.956359500065446]","[0.00021279999054968357, 0.0651120999827981, 0.10444750008173287, 0.2011782000772655, 5.956366400001571]",0,,,,,,,,,,,,,,,,,,,,,,,,,,,,,,,,,,,,,,,,,,,,,,,,,,,,,,,,,,,,,,,,,,,,,,,,,,,,,,,,,,,,,,,,,,,,,,,,,,,,,,,,,,,,,,,,,,,,,,,,,,,,J7XM9F,train_x,blue_star,top_left,2025-07-17_16h09.20.491,HideSeek_v1,2022.2.5,59.91769708027705,
,,,,,,,,,,,,,,,0,0,0,0,5,0,5,0,,,,,,,,,,,,,,,,,,,,,,,,,,,,,,,conditions/schedules/train_x_first/blue_star_00/top_left/instructions/Slide6.png,conditions/schedules/train_x_first/blue_star_00/top_left/instructions/Audio6.wav,710.4469081000425,710.4480846000603,6,"[7.881268400000408, 18.515485899988562, 17.82974950002972, 19.453856999985874, 5.956359500065446, 8.07095749990549]","[0.00021279999054968357, 0.0651120999827981, 0.10444750008173287, 0.2011782000772655, 0.0652726999251172, 8.070964699960314]",0,,,,,,,,,,,,,,,,,,,,,,,,,,,,,,,,,,,,,,,,,,,,,,,,,,,,,,,,,,,,,,,,,,,,,,,,,,,,,,,,,,,,,,,,,,,,,,,,,,,,,,,,,,,,,,,,,,,,,,,,,,,,J7XM9F,train_x,blue_star,top_left,2025-07-17_16h09.20.491,HideSeek_v1,2022.2.5,59.91769708027705,
,,,,,,,,,,,,,,,0,0,0,0,6,0,6,0,,,,,,,,,,,,,,,,,,,,,,,,,,,,,,,conditions/schedules/train_x_first/blue_star_00/top_left/instructions/Slide7.png,conditions/schedules/train_x_first/blue_star_00/top_left/instructions/Audio7.wav,718.5701877999818,718.5710504000541,7,"[7.881268400000408, 18.515485899988562, 17.82974950002972, 19.453856999985874, 5.956359500065446, 8.07095749990549, 5.852806799928658]","[0.00021279999054968357, 0.0651120999827981, 0.10444750008173287, 0.2011782000772655, 0.0652726999251172, 0.08154589997138828, 5.852813799981959]",0,,,,,,,,,,,,,,,,,,,,,,,,,,,,,,,,,,,,,,,,,,,,,,,,,,,,,,,,,,,,,,,,,,,,,,,,,,,,,,,,,,,,,,,,,,,,,,,,,,,,,,,,,,,,,,,,,,,,,,,,,,,,J7XM9F,train_x,blue_star,top_left,2025-07-17_16h09.20.491,HideSeek_v1,2022.2.5,59.91769708027705,
,,,,,,,,,,,,,,,0,0,0,0,7,0,7,0,,,,,,,,,,,,,,,,,,,,,,,,,,,,,,,conditions/schedules/train_x_first/blue_star_00/top_left/instructions/Slide8.png,conditions/schedules/train_x_first/blue_star_00/top_left/instructions/Audio8.wav,724.4761942999903,724.4757377000293,8,"[7.881268400000408, 18.515485899988562, 17.82974950002972, 19.453856999985874, 5.956359500065446, 8.07095749990549, 5.852806799928658, 12.023562100017443]","[0.00021279999054968357, 0.0651120999827981, 0.10444750008173287, 0.2011782000772655, 0.0652726999251172, 0.08154589997138828, 0.0802707999246195, 12.02357049996499]",0,,,,,,,,,,,,,,,,,,,,,,,,,,,,,,,,,,,,,,,,,,,,,,,,,,,,,,,,,,,,,,,,,,,,,,,,,,,,,,,,,,,,,,,,,,,,,,,,,,,,,,,,,,,,,,,,,,,,,,,,,,,,J7XM9F,train_x,blue_star,top_left,2025-07-17_16h09.20.491,HideSeek_v1,2022.2.5,59.91769708027705,
,,,,,,,,,,,,,,,0,0,0,0,8,0,8,0,,,,,,,,,,,,,,,,,,,,,,,,,,,,,,,conditions/schedules/train_x_first/blue_star_00/top_left/instructions/Slide9.png,conditions/schedules/train_x_first/blue_star_00/top_left/instructions/Audio9.wav,736.5668086999794,736.552726699994,9,"[7.881268400000408, 18.515485899988562, 17.82974950002972, 19.453856999985874, 5.956359500065446, 8.07095749990549, 5.852806799928658, 12.023562100017443, 6.6721890000626445]","[0.00021279999054968357, 0.0651120999827981, 0.10444750008173287, 0.2011782000772655, 0.0652726999251172, 0.08154589997138828, 0.0802707999246195, 0.050150300026871264, 6.672196500003338]",0,,,,,,,,,,,,,,,,,,,,,,,,,,,,,,,,,,,,,,,,,,,,,,,,,,,,,,,,,,,,,,,,,,,,,,,,,,,,,,,,,,,,,,,,,,,,,,,,,,,,,,,,,,,,,,,,,,,,,,,,,,,,J7XM9F,train_x,blue_star,top_left,2025-07-17_16h09.20.491,HideSeek_v1,2022.2.5,59.91769708027705,
,,,,,,,,,,,,,,,0,0,0,0,9,0,9,0,,,,,,,,,,,,,,,,,,,,,,,,,,,,,,,conditions/schedules/train_x_first/blue_star_00/top_left/instructions/Slide10.png,conditions/schedules/train_x_first/blue_star_00/top_left/instructions/Audio10.wav,743.2778793000616,743.2747180500766,10,"[7.881268400000408, 18.515485899988562, 17.82974950002972, 19.453856999985874, 5.956359500065446, 8.07095749990549, 5.852806799928658, 12.023562100017443, 6.6721890000626445, 8.550852800020948]","[0.00021279999054968357, 0.0651120999827981, 0.10444750008173287, 0.2011782000772655, 0.0652726999251172, 0.08154589997138828, 0.0802707999246195, 0.050150300026871264, 0.1302325000287965, 8.550859899958596]",0,,,,,,,,,,,,,,,,,,,,,,,,,,,,,,,,,,,,,,,,,,,,,,,,,,,,,,,,,,,,,,,,,,,,,,,,,,,,,,,,,,,,,,,,,,,,,,,,,,,,,,,,,,,,,,,,,,,,,,,,,,,,J7XM9F,train_x,blue_star,top_left,2025-07-17_16h09.20.491,HideSeek_v1,2022.2.5,59.91769708027705,
,,,,,,,,,,,,,,,0,0,0,0,10,0,10,0,,,,,,,,,,,,,,,,,,,,,,,,,,,,,,,conditions/schedules/train_x_first/blue_star_00/top_left/instructions/Slide11.png,conditions/schedules/train_x_first/blue_star_00/top_left/instructions/Audio11.wav,751.9006382999942,751.8990247499896,11,"[7.881268400000408, 18.515485899988562, 17.82974950002972, 19.453856999985874, 5.956359500065446, 8.07095749990549, 5.852806799928658, 12.023562100017443, 6.6721890000626445, 8.550852800020948, 10.770944299991243]","[0.00021279999054968357, 0.0651120999827981, 0.10444750008173287, 0.2011782000772655, 0.0652726999251172, 0.08154589997138828, 0.0802707999246195, 0.050150300026871264, 0.1302325000287965, 0.04855479998514056, 10.770951200043783]",0,,,,,,,,,,,,,,,,,,,,,,,,,,,,,,,,,,,,,,,,,,,,,,,,,,,,,,,,,,,,,,,,,,,,,,,,,,,,,,,,,,,,,,,,,,,,,,,,,,,,,,,,,,,,,,,,,,,,,,,,,,,,J7XM9F,train_x,blue_star,top_left,2025-07-17_16h09.20.491,HideSeek_v1,2022.2.5,59.91769708027705,
,,,,,,,,,,,,,,,0,0,0,0,11,0,11,0,,,,,,,,,,,,,,,,,,,,,,,,,,,,,,,conditions/schedules/train_x_first/blue_star_00/top_left/instructions/Slide12.png,conditions/schedules/train_x_first/blue_star_00/top_left/instructions/Audio12.wav,762.7403217999963,762.7414255500771,12,"[7.881268400000408, 18.515485899988562, 17.82974950002972, 19.453856999985874, 5.956359500065446, 8.07095749990549, 5.852806799928658, 12.023562100017443, 6.6721890000626445, 8.550852800020948, 10.770944299991243, 12.94273200002499]","[0.00021279999054968357, 0.0651120999827981, 0.10444750008173287, 0.2011782000772655, 0.0652726999251172, 0.08154589997138828, 0.0802707999246195, 0.050150300026871264, 0.1302325000287965, 0.04855479998514056, 0.03161559998989105, 12.942738399957307]",0,,,,,,,,,,,,,,,,,,,,,,,,,,,,,,,,,,,,,,,,,,,,,,,,,,,,,,,,,,,,,,,,,,,,,,,,,,,,,,,,,,,,,,,,,,,,,,,,,,,,,,,,,,,,,,,,,,,,,,,,,,,,J7XM9F,train_x,blue_star,top_left,2025-07-17_16h09.20.491,HideSeek_v1,2022.2.5,59.91769708027705,
1,4,5,9,5,5,0,11,2,instr_dim1_1,,,,,,0,0,0,0,,,,,0,0,0,0,,,,,,,,,,,,,,,,,,,,,,,,,,,,,,,,,,,,,stimuli/alien_stimuli/11.png,conditions/schedules/train_x_first/blue_star_00/top_left/inputInstr_1.xlsx,stimuli/alien_stimuli/11.png,775.7852875000099,775.7852875000099,775.7852875000099,775.7852875000099,775.7864710500696,return,9.446970300050452,"[-0.16, -0.08, 0, 0.08, 0.16, 0.24, 0.32, 0.4, 0.48, 0.56]","[-0.4, -0.32, -0.24, -0.16, -0.08, 0, 0.08, 0.16, 0.24, 0.32]",5,5,9,4,0.0,0.4,785.3806963000679,785.3806963000679,785.3806963000679,785.3806963000679,785.3806963000679,785.3806963000679,785.3806963000679,785.3768908001249,7.057378700003028,return,6.915186099940911,stimuli/alien_stimuli/11.png,11,4,1,,,,,,,,,,,,,,,,,,,,,,,,,,,,,,,,,,,,,,,,,,,,,,,,,,,,,,,,,,,,,,,,,,,,,,,,,,,,,,,,,,,,,,,,,J7XM9F,train_x,blue_star,top_left,2025-07-17_16h09.20.491,HideSeek_v1,2022.2.5,59.91769708027705,
,,,,,,,,,,,30,,,,0,0,0,0,,,,,,,,,,,,,,,,,,,,,,,,,,,,,,,,,,,,,,,,,,,,,,,,,,,,,,,,,,,,,,,,,,,,,,,,,,,,,,21,0.7,0,0,99,1,30,0,conditions/schedules/train_x_first/blue_star_00/top_left/inputTrain_1.1.xlsx,99,1,1,1,0,,,,,,,,,,,,,,,,,,,,,,,,,,,,,,,,,,,,,,,,,,,,,,,,,,,,,,,,,,,,,,,,,,,,,,,,,,,J7XM9F,train_x,blue_star,top_left,2025-07-17_16h09.20.491,HideSeek_v1,2022.2.5,59.91769708027705,
,,,,,,,,,,,,,,,1,0,1,0,0,0,0,0,,,,,,,,,,,,,,,,,,,,,,,,,,,,,,,conditions/schedules/train_x_first/blue_star_00/top_left/instructions/Slide13.png,conditions/schedules/train_x_first/blue_star_00/top_left/instructions/Audio13.wav,792.4471118999645,792.4497922500829,13,"[7.881268400000408, 18.515485899988562, 17.82974950002972, 19.453856999985874, 5.956359500065446, 8.07095749990549, 5.852806799928658, 12.023562100017443, 6.6721890000626445, 8.550852800020948, 10.770944299991243, 12.94273200002499, 18.781402399996296]","[0.00021279999054968357, 0.0651120999827981, 0.10444750008173287, 0.2011782000772655, 0.0652726999251172, 0.08154589997138828, 0.0802707999246195, 0.050150300026871264, 0.1302325000287965, 0.04855479998514056, 0.03161559998989105, 12.942738399957307, 18.781409499933943]",0,,,,,,,,,,,,,,,,,,,,,,,,,,,,,,,,,,,,,,,,,,,,,,,,,,,,,,,,,,,,,,,,,,,,,,,,,,,,,,,,,,,,,,,,,,,,,,,,,,,,,,,,,,,,,,,,,,,,,,,,,,,,J7XM9F,train_x,blue_star,top_left,2025-07-17_16h09.20.491,HideSeek_v1,2022.2.5,59.91769708027705,
,,,,,,,,,,,,,,,1,0,1,0,1,0,1,0,,,,,,,,,,,,,,,,,,,,,,,,,,,,,,,conditions/schedules/train_x_first/blue_star_00/top_left/instructions/Slide14.png,conditions/schedules/train_x_first/blue_star_00/top_left/instructions/Audio14.wav,811.300620199996,811.2983950499911,14,"[7.881268400000408, 18.515485899988562, 17.82974950002972, 19.453856999985874, 5.956359500065446, 8.07095749990549, 5.852806799928658, 12.023562100017443, 6.6721890000626445, 8.550852800020948, 10.770944299991243, 12.94273200002499, 18.781402399996296, 13.222150200046599]","[0.00021279999054968357, 0.0651120999827981, 0.10444750008173287, 0.2011782000772655, 0.0652726999251172, 0.08154589997138828, 0.0802707999246195, 0.050150300026871264, 0.1302325000287965, 0.04855479998514056, 0.03161559998989105, 12.942738399957307, 0.030746600008569658, 13.222157399985008]",0,,,,,,,,,,,,,,,,,,,,,,,,,,,,,,,,,,,,,,,,,,,,,,,,,,,,,,,,,,,,,,,,,,,,,,,,,,,,,,,,,,,,,,,,,,,,,,,,,,,,,,,,,,,,,,,,,,,,,,,,,,,,J7XM9F,train_x,blue_star,top_left,2025-07-17_16h09.20.491,HideSeek_v1,2022.2.5,59.91769708027705,
2,3,7,3,7,0,0,61,2,instr_dim1_1,,,,,,1,0,1,0,,,,,0,0,0,0,,,,,,,,,,,,,,,,,,,,,,,,,,,,,,,,,,,,,stimuli/alien_stimuli/61.png,conditions/schedules/train_x_first/blue_star_00/top_left/inputInstr_1.xlsx,stimuli/alien_stimuli/61.png,824.6282186000608,824.6282186000608,824.6282186000608,824.6282186000608,824.6262855500215,return,6.326222299947403,"[-0.16, -0.08, 0, 0.08, 0.16, 0.24, 0.32, 0.4, 0.48, 0.56]","[-0.4, -0.32, -0.24, -0.16, -0.08, 0, 0.08, 0.16, 0.24, 0.32]",7,7,3,3,0.0,0.0,831.1197431000182,831.1197431000182,831.1197431000182,831.1197431000182,831.1197431000182,831.1197431000182,831.1197431000182,831.0986800001002,6.906929899938405,return,6.744786399998702,stimuli/alien_stimuli/61.png,61,3,2,,,,,,,,,,,,,,,,,,,,,,,,,,,,,,,,,,,,,,,,,,,,,,,,,,,,,,,,,,,,,,,,,,,,,,,,,,,,,,,,,,,,,,,,,J7XM9F,train_x,blue_star,top_left,2025-07-17_16h09.20.491,HideSeek_v1,2022.2.5,59.91769708027705,
,,,,,,,,,,,30,,,,1,0,1,0,,,,,,,,,,,,,,,,,,,,,,,,,,,,,,,,,,,,,,,,,,,,,,,,,,,,,,,,,,,,,,,,,,,,,,,,,,,,,,21,0.7,0,0,99,1,30,0,conditions/schedules/train_x_first/blue_star_00/top_left/inputTrain_1.1.xlsx,99,1,1,1,0,,,,,,,,,,,,,,,,,,,,,,,,,,,,,,,,,,,,,,,,,,,,,,,,,,,,,,,,,,,,,,,,,,,,,,,,,,,J7XM9F,train_x,blue_star,top_left,2025-07-17_16h09.20.491,HideSeek_v1,2022.2.5,59.91769708027705,
,,,,,,,,,,,,,,,2,0,2,0,0,0,0,0,,,,,,,,,,,,,,,,,,,,,,,,,,,,,,,conditions/schedules/train_x_first/blue_star_00/top_left/instructions/Slide15.png,conditions/schedules/train_x_first/blue_star_00/top_left/instructions/Audio15.wav,838.0268416999606,838.0210311500356,15,"[7.881268400000408, 18.515485899988562, 17.82974950002972, 19.453856999985874, 5.956359500065446, 8.07095749990549, 5.852806799928658, 12.023562100017443, 6.6721890000626445, 8.550852800020948, 10.770944299991243, 12.94273200002499, 18.781402399996296, 13.222150200046599, 31.78337449999526]","[0.00021279999054968357, 0.0651120999827981, 0.10444750008173287, 0.2011782000772655, 0.0652726999251172, 0.08154589997138828, 0.0802707999246195, 0.050150300026871264, 0.1302325000287965, 0.04855479998514056, 0.03161559998989105, 12.942738399957307, 0.030746600008569658, 13.222157399985008, 31.783381600049324]",0,,,,,,,,,,,,,,,,,,,,,,,,,,,,,,,,,,,,,,,,,,,,,,,,,,,,,,,,,,,,,,,,,,,,,,,,,,,,,,,,,,,,,,,,,,,,,,,,,,,,,,,,,,,,,,,,,,,,,,,,,,,,J7XM9F,train_x,blue_star,top_left,2025-07-17_16h09.20.491,HideSeek_v1,2022.2.5,59.91769708027705,
,,,,,,,,,,,,,,,2,0,2,0,1,0,1,0,,,,,,,,,,,,,,,,,,,,,,,,,,,,,,,conditions/schedules/train_x_first/blue_star_00/top_left/instructions/Slide16.png,conditions/schedules/train_x_first/blue_star_00/top_left/instructions/Audio16.wav,869.8731427000603,869.863565500034,16,"[7.881268400000408, 18.515485899988562, 17.82974950002972, 19.453856999985874, 5.956359500065446, 8.07095749990549, 5.852806799928658, 12.023562100017443, 6.6721890000626445, 8.550852800020948, 10.770944299991243, 12.94273200002499, 18.781402399996296, 13.222150200046599, 31.78337449999526, 22.656611500075087]","[0.00021279999054968357, 0.0651120999827981, 0.10444750008173287, 0.2011782000772655, 0.0652726999251172, 0.08154589997138828, 0.0802707999246195, 0.050150300026871264, 0.1302325000287965, 0.04855479998514056, 0.03161559998989105, 12.942738399957307, 0.030746600008569658, 13.222157399985008, 0.1542650000192225, 22.656618700013496]",0,,,,,,,,,,,,,,,,,,,,,,,,,,,,,,,,,,,,,,,,,,,,,,,,,,,,,,,,,,,,,,,,,,,,,,,,,,,,,,,,,,,,,,,,,,,,,,,,,,,,,,,,,,,,,,,,,,,,,,,,,,,,J7XM9F,train_x,blue_star,top_left,2025-07-17_16h09.20.491,HideSeek_v1,2022.2.5,59.91769708027705,
,2,6,5,6,3,0,31,,train_dim1_1,1,30,,,,2,0,2,0,,,,,,,,,0,0,0,0,0,0,0,0,0,0,0,0,,,,,,,,,,,,,,,,,,,,,,,,,stimuli/alien_stimuli/31.png,,,,,,,,,,,,,,,,,,,,,,,,,,,,,,,,,,,,,,,30,,,,,,,,892.6263601999963,892.6263601999963,892.6263601999963,892.6263601999963,892.6263601999963,right,19.57685319997836,0,0,0,99,0.08,0.08,right,19.483526600059122,,,,,,,,,,,,,,,,,,,,,,,,,,,,,,,,,,,,,,,,,,,,,,,,,,,,,,,,,,,,J7XM9F,train_x,blue_star,top_left,2025-07-17_16h09.20.491,HideSeek_v1,2022.2.5,59.91769708027705,
,2,6,5,6,3,0,31,,train_dim1_1,1,30,,,,2,0,2,0,,,,,,,,,0,0,0,0,0,0,0,0,1,0,1,0,,,,,,,,,,,,,,,,,,,,,,,,,,,,,,,,,,,,,,,,,,,,,,,,,,,,,,,,,,,,,,,,30,,,,,,,,912.2089667000109,912.2089667000109,912.2089667000109,912.2089667000109,912.2089667000109,right,1.9766668999800459,0,0,0,99,0.16,0.08,right,1.8824925000080839,,,,,,,,,,,,,,,,,,,,,,,,,,,,,,,,,,,,,,,,,,,,,,,,,,,,,,,,,,,,J7XM9F,train_x,blue_star,top_left,2025-07-17_16h09.20.491,HideSeek_v1,2022.2.5,59.91769708027705,
,2,6,5,6,3,0,31,,train_dim1_1,1,30,,,,2,0,2,0,,,,,,,,,0,0,0,0,0,0,0,0,2,0,2,0,,,,,,,,,,,,,,,,,,,,,,,,,,,,,,,,,,,,,,,,,,,,,,,,,,,,,,,,,,,,,,,,30,,,,,,,,914.1822823999682,914.1822823999682,914.1822823999682,914.1822823999682,914.1822823999682,right,1.577689899946563,0,0,0,99,0.24,0.08,right,1.5003373000072315,,,,,,,,,,,,,,,,,,,,,,,,,,,,,,,,,,,,,,,,,,,,,,,,,,,,,,,,,,,,J7XM9F,train_x,blue_star,top_left,2025-07-17_16h09.20.491,HideSeek_v1,2022.2.5,59.91769708027705,
,2,6,5,6,3,0,31,,train_dim1_1,1,30,,,,2,0,2,0,,,,,,,,,0,0,0,0,0,0,0,0,3,0,3,0,,,,,,,,,,,,,,,,,,,,,,,,,,,,,,,,,,,,,,,,,,,,,,,,,,,,,,,,,,,,,,,,30,,,,,,,,915.7650818000548,915.7650818000548,915.7650818000548,915.7650818000548,915.7650818000548,down,2.1945590999675915,0,0,0,99,0.24,0.0,down,2.107902399962768,,,,,,,,,,,,,,,,,,,,,,,,,,,,,,,,,,,,,,,,,,,,,,,,,,,,,,,,,,,,J7XM9F,train_x,blue_star,top_left,2025-07-17_16h09.20.491,HideSeek_v1,2022.2.5,59.91769708027705,
,2,6,5,6,3,0,31,,train_dim1_1,1,30,,,,2,0,2,0,,,,,,,,,0,0,0,0,0,0,0,0,4,0,4,0,,,,,,,,,,,,,,,,,,,,,,,,,,,,,,,,,,,,,,,,,,,,,,,,,,,,,,,,,,,,,,,,30,,,,,,,,917.9671811000444,917.9671811000444,917.9671811000444,917.9671811000444,917.9671811000444,right,1.2938326000003144,0,0,0,99,0.32,0.0,right,1.206164399976842,,,,,,,,,,,,,,,,,,,,,,,,,,,,,,,,,,,,,,,,,,,,,,,,,,,,,,,,,,,,J7XM9F,train_x,blue_star,top_left,2025-07-17_16h09.20.491,HideSeek_v1,2022.2.5,59.91769708027705,
,2,6,5,6,3,0,31,,train_dim1_1,1,30,,,,2,0,2,0,,,,,,,,,0,0,0,0,0,0,0,0,5,0,5,0,,,,,,,,,,,,,,,,,,,,,,,,,,,,,,,,,,,,,,,,,,,,,,,,,,,,,,,,,,,,,,,,30,,,,,,,,919.2690859000431,919.2690859000431,919.2690859000431,919.2690859000431,919.2690859000431,return,2.4447473000036553,0,0,0,0,0.32,0.0,return,2.360805399948731,-1,4,0.32,0.0,,,,,,,,,,,,,,,,,,,,,,,,,,,,,,,,,,,,,,,,,,,,,,,,,,,,,,,,J7XM9F,train_x,blue_star,top_left,2025-07-17_16h09.20.491,HideSeek_v1,2022.2.5,59.91769708027705,
,2,9,7,9,5,0,11,,train_dim1_1,2,30,,,,2,0,2,0,,,,,,,,,0,0,0,0,0,1,1,1,0,0,0,0,,,,,,,,,,,,,,,,,,,,,,,,,stimuli/alien_stimuli/11.png,,,,,,,,,,,,,,,,,,,,,,,,,,,,,stimuli/alien_stimuli/31.png,31,2,3,,,,,,,30,,,,,,,,934.729905199958,934.729905199958,934.729905199958,934.729905199958,934.729905199958,right,7.078712599934079,0,0,0,99,0.08,0.32,right,6.965287600061856,,,,,933.1485774000175,934.729905199958,0.24,0.08,0.0,0.24,0.08,0.24,0.12,0.24,0.08,923.2906457000645,923.2906457000645,923.2906457000645,923.2906457000645,923.2906457000645,923.2906457000645,923.2906457000645,923.2906457000645,923.2749678500229,9.97766600002069,return,9.833912900066935,,,,,,,,,,,,,,,,,,,,,,,,,,,,,,,,,J7XM9F,train_x,blue_star,top_left,2025-07-17_16h09.20.491,HideSeek_v1,2022.2.5,59.91769708027705,
,2,9,7,9,5,0,11,,train_dim1_1,2,30,,,,2,0,2,0,,,,,,,,,0,0,0,0,0,1,1,1,1,0,1,0,,,,,,,,,,,,,,,,,,,,,,,,,,,,,,,,,,,,,,,,,,,,,,,,,,,,,,,,,,,,,,,,30,,,,,,,,941.795400400064,941.795400400064,941.795400400064,941.795400400064,941.795400400064,right,0.6066800999687985,0,0,0,99,0.16,0.32,right,0.5276391999796033,,,,,,,,,,,,,,,,,,,,,,,,,,,,,,,,,,,,,,,,,,,,,,,,,,,,,,,,,,,,J7XM9F,train_x,blue_star,top_left,2025-07-17_16h09.20.491,HideSeek_v1,2022.2.5,59.91769708027705,
,2,9,7,9,5,0,11,,train_dim1_1,2,30,,,,2,0,2,0,,,,,,,,,0,0,0,0,0,1,1,1,2,0,2,0,,,,,,,,,,,,,,,,,,,,,,,,,,,,,,,,,,,,,,,,,,,,,,,,,,,,,,,,,,,,,,,,30,,,,,,,,942.4078743000282,942.4078743000282,942.4078743000282,942.4078743000282,942.4078743000282,right,0.6099804999539629,0,0,0,99,0.24,0.32,right,0.5276502999477088,,,,,,,,,,,,,,,,,,,,,,,,,,,,,,,,,,,,,,,,,,,,,,,,,,,,,,,,,,,,J7XM9F,train_x,blue_star,top_left,2025-07-17_16h09.20.491,HideSeek_v1,2022.2.5,59.91769708027705,
,2,9,7,9,5,0,11,,train_dim1_1,2,30,,,,2,0,2,0,,,,,,,,,0,0,0,0,0,1,1,1,3,0,3,0,,,,,,,,,,,,,,,,,,,,,,,,,,,,,,,,,,,,,,,,,,,,,,,,,,,,,,,,,,,,,,,,30,,,,,,,,943.0244567999616,943.0244567999616,943.0244567999616,943.0244567999616,943.0244567999616,return,0.9772044999990612,0,0,0,0,0.24,0.32,return,0.8895596000365913,-1,7,0.24,0.32,,,,,,,,,,,,,,,,,,,,,,,,,,,,,,,,,,,,,,,,,,,,,,,,,,,,,,,,J7XM9F,train_x,blue_star,top_left,2025-07-17_16h09.20.491,HideSeek_v1,2022.2.5,59.91769708027705,
,4,9,8,9,4,0,21,,train_dim1_1,3,30,,,,2,0,2,0,,,,,,,,,0,0,0,0,0,2,2,2,0,0,0,0,,,,,,,,,,,,,,,,,,,,,,,,,stimuli/alien_stimuli/21.png,,,,,,,,,,,,,,,,,,,,,,,,,,,,,stimuli/alien_stimuli/11.png,11,2,4,,,,,,,30,,,,,,,,969.6796363999601,969.6796363999601,969.6796363999601,969.6796363999601,969.6796363999601,right,4.109500800026581,0,0,0,99,0.24,0.32,right,4.017709799925797,,,,,968.111066399957,969.6796363999601,0.4,0.32,0.0,0.4,0.32,0.4,0.2,0.4,0.32,945.5878602999728,945.5878602999728,945.5878602999728,945.5878602999728,945.5878602999728,945.5878602999728,945.5878602999728,945.5878602999728,945.5772698000538,22.654728000052273,return,22.506882500019856,,,,,,,,,,,,,,,,,,,,,,,,,,,,,,,,,J7XM9F,train_x,blue_star,top_left,2025-07-17_16h09.20.491,HideSeek_v1,2022.2.5,59.91769708027705,
,4,9,8,9,4,0,21,,train_dim1_1,3,30,,,,2,0,2,0,,,,,,,,,0,0,0,0,0,2,2,2,1,0,1,0,,,,,,,,,,,,,,,,,,,,,,,,,,,,,,,,,,,,,,,,,,,,,,,,,,,,,,,,,,,,,,,,30,,,,,,,,973.7841959999641,973.7841959999641,973.7841959999641,973.7841959999641,973.7841959999641,right,1.026685299933888,0,0,0,99,0.32,0.32,right,0.9381945000495762,,,,,,,,,,,,,,,,,,,,,,,,,,,,,,,,,,,,,,,,,,,,,,,,,,,,,,,,,,,,J7XM9F,train_x,blue_star,top_left,2025-07-17_16h09.20.491,HideSeek_v1,2022.2.5,59.91769708027705,
,4,9,8,9,4,0,21,,train_dim1_1,3,30,,,,2,0,2,0,,,,,,,,,0,0,0,0,0,2,2,2,2,0,2,0,,,,,,,,,,,,,,,,,,,,,,,,,,,,,,,,,,,,,,,,,,,,,,,,,,,,,,,,,,,,,,,,30,,,,,,,,974.8172784000635,974.8172784000635,974.8172784000635,974.8172784000635,974.8172784000635,right,1.7944075000705197,0,0,0,99,0.4,0.32,right,1.7100593999493867,,,,,,,,,,,,,,,,,,,,,,,,,,,,,,,,,,,,,,,,,,,,,,,,,,,,,,,,,,,,J7XM9F,train_x,blue_star,top_left,2025-07-17_16h09.20.491,HideSeek_v1,2022.2.5,59.91769708027705,
,4,9,8,9,4,0,21,,train_dim1_1,3,30,,,,2,0,2,0,,,,,,,,,0,0,0,0,0,2,2,2,3,0,3,0,,,,,,,,,,,,,,,,,,,,,,,,,,,,,,,,,,,,,,,,,,,,,,,,,,,,,,,,,,,,,,,,30,,,,,,,,976.6187507000286,976.6187507000286,976.6187507000286,976.6187507000286,976.6187507000286,right,2.1447267999174073,0,0,0,99,0.48000000000000004,0.32,right,2.0627865000860766,,,,,,,,,,,,,,,,,,,,,,,,,,,,,,,,,,,,,,,,,,,,,,,,,,,,,,,,,,,,J7XM9F,train_x,blue_star,top_left,2025-07-17_16h09.20.491,HideSeek_v1,2022.2.5,59.91769708027705,
,4,9,8,9,4,0,21,,train_dim1_1,3,30,,,,2,0,2,0,,,,,,,,,0,0,0,0,0,2,2,2,4,0,4,0,,,,,,,,,,,,,,,,,,,,,,,,,,,,,,,,,,,,,,,,,,,,,,,,,,,,,,,,,,,,,,,,30,,,,,,,,978.7711456000106,978.7711456000106,978.7711456000106,978.7711456000106,978.7711456000106,return,4.796880400041118,1,0,0,1,0.48000000000000004,0.32,return,4.718785500037484,-1,11,0.48000000000000004,0.32,,,,,,,,,,,,,,,,,,,,,,,,,,,,,,,,,,,,,,,,,,,,,,,,,,,,,,,,J7XM9F,train_x,blue_star,top_left,2025-07-17_16h09.20.491,HideSeek_v1,2022.2.5,59.91769708027705,
,2,8,3,8,1,0,51,,train_dim1_1,4,30,,,,2,0,2,0,,,,,,,,,0,0,0,0,0,3,3,3,0,0,0,0,,,,,,,,,,,,,,,,,,,,,,,,,stimuli/alien_stimuli/51.png,,,,,,,,,,,,,,,,,,,,,,,,,,,,,stimuli/alien_stimuli/21.png,21,4,5,,,,,,,30,,,,,,,,994.8939436000073,994.8939436000073,994.8939436000073,994.8939436000073,994.8939436000073,left,5.02665880008135,1,0,0,99,-0.08,0.24,left,4.935532500036061,,,,,993.3321631000144,994.8939436000073,0.48,0.32,0.0,0.32,0.32,0.48,0.32,0.48,0.32,985.1550976000726,985.1550976000726,985.1550976000726,985.1550976000726,985.1550976000726,985.1550976000726,985.1550976000726,985.1550976000726,985.143163900054,8.309974999981932,return,8.157789800083265,,,,,,,,,,,,,,,,,,,,,,,,,,,,,,,,,J7XM9F,train_x,blue_star,top_left,2025-07-17_16h09.20.491,HideSeek_v1,2022.2.5,59.91769708027705,
,2,8,3,8,1,0,51,,train_dim1_1,4,30,,,,2,0,2,0,,,,,,,,,0,0,0,0,0,3,3,3,1,0,1,0,,,,,,,,,,,,,,,,,,,,,,,,,,,,,,,,,,,,,,,,,,,,,,,,,,,,,,,,,,,,,,,,30,,,,,,,,999.9217089000158,999.9217089000158,999.9217089000158,999.9217089000158,999.9217089000158,left,0.5761877000331879,1,0,0,99,-0.16,0.24,left,0.49926059995777905,,,,,,,,,,,,,,,,,,,,,,,,,,,,,,,,,,,,,,,,,,,,,,,,,,,,,,,,,,,,J7XM9F,train_x,blue_star,top_left,2025-07-17_16h09.20.491,HideSeek_v1,2022.2.5,59.91769708027705,
,2,8,3,8,1,0,51,,train_dim1_1,4,30,,,,2,0,2,0,,,,,,,,,0,0,0,0,0,3,3,3,2,0,2,0,,,,,,,,,,,,,,,,,,,,,,,,,,,,,,,,,,,,,,,,,,,,,,,,,,,,,,,,,,,,,,,,30,,,,,,,,1000.5047189999605,1000.5047189999605,1000.5047189999605,1000.5047189999605,1000.5047189999605,return,1.2605569999432191,1,0,0,0,-0.16,0.24,return,1.1771039000013843,-1,9,-0.16,0.24,,,,,,,,,,,,,,,,,,,,,,,,,,,,,,,,,,,,,,,,,,,,,,,,,,,,,,,,J7XM9F,train_x,blue_star,top_left,2025-07-17_16h09.20.491,HideSeek_v1,2022.2.5,59.91769708027705,
,0,7,0,7,0,0,61,,train_dim1_1,5,30,,,,2,0,2,0,,,,,,,,,0,0,0,0,0,4,4,4,0,0,0,0,,,,,,,,,,,,,,,,,,,,,,,,,stimuli/alien_stimuli/61.png,,,,,,,,,,,,,,,,,,,,,,,,,,,,,stimuli/alien_stimuli/51.png,51,2,6,,,,,,,30,,,,,,,,1012.1213946000207,1012.1213946000207,1012.1213946000207,1012.1213946000207,1012.1213946000207,right,1.9404887000564486,1,0,0,99,-0.08,0.16,right,1.8538986999774352,,,,,1010.5631808000617,1012.1213946000207,0.08,0.24,0.0,0.08,0.24,0.08,0.04,0.08,0.24,1003.3316802000627,1003.3316802000627,1003.3316802000627,1003.3316802000627,1003.3316802000627,1003.3316802000627,1003.3316802000627,1003.3316802000627,1003.3253501500701,7.3419316000072286,return,7.205023200018331,,,,,,,,,,,,,,,,,,,,,,,,,,,,,,,,,J7XM9F,train_x,blue_star,top_left,2025-07-17_16h09.20.491,HideSeek_v1,2022.2.5,59.91769708027705,
,0,7,0,7,0,0,61,,train_dim1_1,5,30,,,,2,0,2,0,,,,,,,,,0,0,0,0,0,4,4,4,1,0,1,0,,,,,,,,,,,,,,,,,,,,,,,,,,,,,,,,,,,,,,,,,,,,,,,,,,,,,,,,,,,,,,,,30,,,,,,,,1014.0634051000234,1014.0634051000234,1014.0634051000234,1014.0634051000234,1014.0634051000234,return,1.6606341000879183,1,1,0,0,-0.08,0.16,return,1.5841338000027463,-1,10,-0.08,0.16,,,,,,,,,,,,,,,,,,,,,,,,,,,,,,,,,,,,,,,,,,,,,,,,,,,,,,,,J7XM9F,train_x,blue_star,top_left,2025-07-17_16h09.20.491,HideSeek_v1,2022.2.5,59.91769708027705,
,0,5,4,5,4,0,21,,train_dim1_1,6,30,,,,2,0,2,0,,,,,,,,,0,0,0,0,0,5,5,5,0,0,0,0,,,,,,,,,,,,,,,,,,,,,,,,,stimuli/alien_stimuli/21.png,,,,,,,,,,,,,,,,,,,,,,,,,,,,,stimuli/alien_stimuli/61.png,61,0,7,,,,,,,30,,,,,,,,1023.1358297000406,1023.1358297000406,1023.1358297000406,1023.1358297000406,1023.1358297000406,right,1.6899998999433592,1,1,0,99,-0.08,0,right,1.5900942999869585,,,,,1021.572291700053,1023.1358297000406,-0.16,0.16,0.0,0.0,0.16,-0.16,-0.16,-0.16,0.16,1017.3017981000012,1017.3017981000012,1017.3017981000012,1017.3017981000012,1017.3017981000012,1017.3017981000012,1017.3017981000012,1017.3017981000012,1017.2864616501145,4.389449400012381,return,4.245905000017956,,,,,,,,,,,,,,,,,,,,,,,,,,,,,,,,,J7XM9F,train_x,blue_star,top_left,2025-07-17_16h09.20.491,HideSeek_v1,2022.2.5,59.91769708027705,
,0,5,4,5,4,0,21,,train_dim1_1,6,30,,,,2,0,2,0,,,,,,,,,0,0,0,0,0,5,5,5,1,0,1,0,,,,,,,,,,,,,,,,,,,,,,,,,,,,,,,,,,,,,,,,,,,,,,,,,,,,,,,,,,,,,,,,30,,,,,,,,1024.8261616000673,1024.8261616000673,1024.8261616000673,1024.8261616000673,1024.8261616000673,return,0.8429052999708802,1,0,0,0,-0.08,0,return,0.7619316999334842,-1,11,-0.08,0,,,,,,,,,,,,,,,,,,,,,,,,,,,,,,,,,,,,,,,,,,,,,,,,,,,,,,,,J7XM9F,train_x,blue_star,top_left,2025-07-17_16h09.20.491,HideSeek_v1,2022.2.5,59.91769708027705,
,3,5,3,5,0,0,61,,train_dim1_1,7,30,,,,2,0,2,0,,,,,,,,,0,0,0,0,0,6,6,6,0,0,0,0,,,,,,,,,,,,,,,,,,,,,,,,,stimuli/alien_stimuli/61.png,,,,,,,,,,,,,,,,,,,,,,,,,,,,,stimuli/alien_stimuli/21.png,21,0,8,,,,,,,30,,,,,,,,1035.1415078999707,1035.1415078999707,1035.1415078999707,1035.1415078999707,1035.1415078999707,right,2.0406705000204965,1,0,0,99,0.16,0,right,1.9517996000358835,,,,,1033.58227480005,1035.1415078999707,0.16,0,0.0,0.32,0.0,0.16,0.0,0.16,0,1027.23987759999,1027.23987759999,1027.23987759999,1027.23987759999,1027.23987759999,1027.23987759999,1027.23987759999,1027.23987759999,1027.2281699500281,6.458005199907348,return,6.3253140999004245,,,,,,,,,,,,,,,,,,,,,,,,,,,,,,,,,J7XM9F,train_x,blue_star,top_left,2025-07-17_16h09.20.491,HideSeek_v1,2022.2.5,59.91769708027705,
,3,5,3,5,0,0,61,,train_dim1_1,7,30,,,,2,0,2,0,,,,,,,,,0,0,0,0,0,6,6,6,1,0,1,0,,,,,,,,,,,,,,,,,,,,,,,,,,,,,,,,,,,,,,,,,,,,,,,,,,,,,,,,,,,,,,,,30,,,,,,,,1037.1932417000644,1037.1932417000644,1037.1932417000644,1037.1932417000644,1037.1932417000644,return,0.742575699929148,1,1,0,0,0.16,0,return,0.6492622999940068,-1,12,0.16,0,,,,,,,,,,,,,,,,,,,,,,,,,,,,,,,,,,,,,,,,,,,,,,,,,,,,,,,,J7XM9F,train_x,blue_star,top_left,2025-07-17_16h09.20.491,HideSeek_v1,2022.2.5,59.91769708027705,
,0,9,3,9,3,0,31,,train_dim1_1,8,30,,,,2,0,2,0,,,,,,,,,0,0,0,0,0,7,7,7,0,0,0,0,,,,,,,,,,,,,,,,,,,,,,,,,stimuli/alien_stimuli/31.png,,,,,,,,,,,,,,,,,,,,,,,,,,,,,stimuli/alien_stimuli/61.png,61,3,9,,,,,,,30,,,,,,,,1042.796631300007,1042.796631300007,1042.796631300007,1042.796631300007,1042.796631300007,right,2.8580608000047505,1,1,0,99,-0.08,0.32,right,2.756132200011052,,,,,1041.222094799974,1042.796631300007,0.08,0,0.0,0.0,0.0,0.08,0.08,0.08,0,1039.504904499976,1039.504904499976,1039.504904499976,1039.504904499976,1039.504904499976,1039.504904499976,1039.504904499976,1039.504904499976,1039.488496850082,1.8376178999897093,return,1.6981250999961048,,,,,,,,,,,,,,,,,,,,,,,,,,,,,,,,,J7XM9F,train_x,blue_star,top_left,2025-07-17_16h09.20.491,HideSeek_v1,2022.2.5,59.91769708027705,
,0,9,3,9,3,0,31,,train_dim1_1,8,30,,,,2,0,2,0,,,,,,,,,0,0,0,0,0,7,7,7,1,0,1,0,,,,,,,,,,,,,,,,,,,,,,,,,,,,,,,,,,,,,,,,,,,,,,,,,,,,,,,,,,,,,,,,30,,,,,,,,1045.6398003000068,1045.6398003000068,1045.6398003000068,1045.6398003000068,1045.6398003000068,right,0.7601704000262544,1,1,0,99,0.0,0.32,right,0.6783292000181973,,,,,,,,,,,,,,,,,,,,,,,,,,,,,,,,,,,,,,,,,,,,,,,,,,,,,,,,,,,,J7XM9F,train_x,blue_star,top_left,2025-07-17_16h09.20.491,HideSeek_v1,2022.2.5,59.91769708027705,
,0,9,3,9,3,0,31,,train_dim1_1,8,30,,,,2,0,2,0,,,,,,,,,0,0,0,0,0,7,7,7,2,0,2,0,,,,,,,,,,,,,,,,,,,,,,,,,,,,,,,,,,,,,,,,,,,,,,,,,,,,,,,,,,,,,,,,30,,,,,,,,1046.4086457999656,1046.4086457999656,1046.4086457999656,1046.4086457999656,1046.4086457999656,right,1.5105874999426305,1,1,0,99,0.08,0.32,right,1.4330469999695197,,,,,,,,,,,,,,,,,,,,,,,,,,,,,,,,,,,,,,,,,,,,,,,,,,,,,,,,,,,,J7XM9F,train_x,blue_star,top_left,2025-07-17_16h09.20.491,HideSeek_v1,2022.2.5,59.91769708027705,
,0,9,3,9,3,0,31,,train_dim1_1,8,30,,,,2,0,2,0,,,,,,,,,0,0,0,0,0,7,7,7,3,0,3,0,,,,,,,,,,,,,,,,,,,,,,,,,,,,,,,,,,,,,,,,,,,,,,,,,,,,,,,,,,,,,,,,30,,,,,,,,1047.9243014999665,1047.9243014999665,1047.9243014999665,1047.9243014999665,1047.9243014999665,right,0.8269658000208437,1,1,0,99,0.16,0.32,right,0.7416255000280216,,,,,,,,,,,,,,,,,,,,,,,,,,,,,,,,,,,,,,,,,,,,,,,,,,,,,,,,,,,,J7XM9F,train_x,blue_star,top_left,2025-07-17_16h09.20.491,HideSeek_v1,2022.2.5,59.91769708027705,
,0,9,3,9,3,0,31,,train_dim1_1,8,30,,,,2,0,2,0,,,,,,,,,0,0,0,0,0,7,7,7,4,0,4,0,,,,,,,,,,,,,,,,,,,,,,,,,,,,,,,,,,,,,,,,,,,,,,,,,,,,,,,,,,,,,,,,30,,,,,,,,1048.7602810000535,1048.7602810000535,1048.7602810000535,1048.7602810000535,1048.7602810000535,return,1.0105979000218213,1,1,0,0,0.16,0.32,return,0.9316736999899149,-1,16,0.16,0.32,,,,,,,,,,,,,,,,,,,,,,,,,,,,,,,,,,,,,,,,,,,,,,,,,,,,,,,,J7XM9F,train_x,blue_star,top_left,2025-07-17_16h09.20.491,HideSeek_v1,2022.2.5,59.91769708027705,
,1,5,2,5,1,0,51,,train_dim1_1,9,30,,,,2,0,2,0,,,,,,,,,0,0,0,0,0,8,8,8,0,0,0,0,,,,,,,,,,,,,,,,,,,,,,,,,stimuli/alien_stimuli/51.png,,,,,,,,,,,,,,,,,,,,,,,,,,,,,stimuli/alien_stimuli/31.png,31,0,10,,,,,,,30,,,,,,,,1063.9760838999646,1063.9760838999646,1063.9760838999646,1063.9760838999646,1063.9760838999646,right,2.5912030999315903,1,1,0,99,0.0,0,right,2.492637399933301,,,,,1062.406871000072,1063.9760838999646,0.08,0.32,0.0,0.24,0.32,0.08,-0.04,0.08,0.32,1051.3482212000526,1051.3482212000526,1051.3482212000526,1051.3482212000526,1051.3482212000526,1051.3482212000526,1051.3482212000526,1051.3482212000526,1051.33154725011,11.180533399921842,return,11.029071199940518,,,,,,,,,,,,,,,,,,,,,,,,,,,,,,,,,J7XM9F,train_x,blue_star,top_left,2025-07-17_16h09.20.491,HideSeek_v1,2022.2.5,59.91769708027705,
,1,5,2,5,1,0,51,,train_dim1_1,9,30,,,,2,0,2,0,,,,,,,,,0,0,0,0,0,8,8,8,1,0,1,0,,,,,,,,,,,,,,,,,,,,,,,,,,,,,,,,,,,,,,,,,,,,,,,,,,,,,,,,,,,,,,,,30,,,,,,,,1066.5592397999717,1066.5592397999717,1066.5592397999717,1066.5592397999717,1066.5592397999717,right,0.5264109999407083,1,1,0,99,0.08,0,right,0.44615780003368855,,,,,,,,,,,,,,,,,,,,,,,,,,,,,,,,,,,,,,,,,,,,,,,,,,,,,,,,,,,,J7XM9F,train_x,blue_star,top_left,2025-07-17_16h09.20.491,HideSeek_v1,2022.2.5,59.91769708027705,
,1,5,2,5,1,0,51,,train_dim1_1,9,30,,,,2,0,2,0,,,,,,,,,0,0,0,0,0,8,8,8,2,0,2,0,,,,,,,,,,,,,,,,,,,,,,,,,,,,,,,,,,,,,,,,,,,,,,,,,,,,,,,,,,,,,,,,30,,,,,,,,1067.094151700032,1067.094151700032,1067.094151700032,1067.094151700032,1067.094151700032,return,1.3099727000808343,1,1,0,0,0.08,0,return,1.2273913000244647,-1,18,0.08,0,,,,,,,,,,,,,,,,,,,,,,,,,,,,,,,,,,,,,,,,,,,,,,,,,,,,,,,,J7XM9F,train_x,blue_star,top_left,2025-07-17_16h09.20.491,HideSeek_v1,2022.2.5,59.91769708027705,
,0,8,5,8,5,0,11,,train_dim1_1,10,30,,,,2,0,2,0,,,,,,,,,0,0,0,0,0,9,9,9,0,0,0,0,,,,,,,,,,,,,,,,,,,,,,,,,stimuli/alien_stimuli/11.png,,,,,,,,,,,,,,,,,,,,,,,,,,,,,stimuli/alien_stimuli/51.png,51,1,11,,,,,,,30,,,,,,,,1085.8151116999798,1085.8151116999798,1085.8151116999798,1085.8151116999798,1085.8151116999798,right,1.6906532999128103,1,1,0,99,-0.08,0.24,right,1.5839938999852166,,,,,1084.2411487000063,1085.8151116999798,0,0,0.0,0.08,0.0,0,-0.04,0,0,1069.9857039999915,1069.9857039999915,1069.9857039999915,1069.9857039999915,1069.9857039999915,1069.9857039999915,1069.9857039999915,1069.9857039999915,1069.9806444000453,14.381086300010793,return,14.238273399998434,,,,,,,,,,,,,,,,,,,,,,,,,,,,,,,,,J7XM9F,train_x,blue_star,top_left,2025-07-17_16h09.20.491,HideSeek_v1,2022.2.5,59.91769708027705,
,0,8,5,8,5,0,11,,train_dim1_1,10,30,,,,2,0,2,0,,,,,,,,,0,0,0,0,0,9,9,9,1,0,1,0,,,,,,,,,,,,,,,,,,,,,,,,,,,,,,,,,,,,,,,,,,,,,,,,,,,,,,,,,,,,,,,,30,,,,,,,,1087.4948119999608,1087.4948119999608,1087.4948119999608,1087.4948119999608,1087.4948119999608,right,0.6594571000896394,1,1,0,99,0.0,0.24,right,0.574263000045903,,,,,,,,,,,,,,,,,,,,,,,,,,,,,,,,,,,,,,,,,,,,,,,,,,,,,,,,,,,,J7XM9F,train_x,blue_star,top_left,2025-07-17_16h09.20.491,HideSeek_v1,2022.2.5,59.91769708027705,
,0,8,5,8,5,0,11,,train_dim1_1,10,30,,,,2,0,2,0,,,,,,,,,0,0,0,0,0,9,9,9,2,0,2,0,,,,,,,,,,,,,,,,,,,,,,,,,,,,,,,,,,,,,,,,,,,,,,,,,,,,,,,,,,,,,,,,30,,,,,,,,1088.1615550999995,1088.1615550999995,1088.1615550999995,1088.1615550999995,1088.1615550999995,right,0.877012100070715,1,1,0,99,0.08,0.24,right,0.7952422000234947,,,,,,,,,,,,,,,,,,,,,,,,,,,,,,,,,,,,,,,,,,,,,,,,,,,,,,,,,,,,J7XM9F,train_x,blue_star,top_left,2025-07-17_16h09.20.491,HideSeek_v1,2022.2.5,59.91769708027705,
,0,8,5,8,5,0,11,,train_dim1_1,10,30,,,,2,0,2,0,,,,,,,,,0,0,0,0,0,9,9,9,3,0,3,0,,,,,,,,,,,,,,,,,,,,,,,,,,,,,,,,,,,,,,,,,,,,,,,,,,,,,,,,,,,,,,,,30,,,,,,,,1089.046644499991,1089.046644499991,1089.046644499991,1089.046644499991,1089.046644499991,right,2.2946910000173375,1,1,0,99,0.16,0.24,right,2.216014900011942,,,,,,,,,,,,,,,,,,,,,,,,,,,,,,,,,,,,,,,,,,,,,,,,,,,,,,,,,,,,J7XM9F,train_x,blue_star,top_left,2025-07-17_16h09.20.491,HideSeek_v1,2022.2.5,59.91769708027705,
,0,8,5,8,5,0,11,,train_dim1_1,10,30,,,,2,0,2,0,,,,,,,,,0,0,0,0,0,9,9,9,4,0,4,0,,,,,,,,,,,,,,,,,,,,,,,,,,,,,,,,,,,,,,,,,,,,,,,,,,,,,,,,,,,,,,,,30,,,,,,,,1091.3476304999785,1091.3476304999785,1091.3476304999785,1091.3476304999785,1091.3476304999785,return,2.7287851000437513,1,1,0,0,0.16,0.24,return,2.6448833000613376,-1,22,0.16,0.24,,,,,,,,,,,,,,,,,,,,,,,,,,,,,,,,,,,,,,,,,,,,,,,,,,,,,,,,J7XM9F,train_x,blue_star,top_left,2025-07-17_16h09.20.491,HideSeek_v1,2022.2.5,59.91769708027705,
,2,7,5,7,3,0,31,,train_dim1_1,11,30,,,,2,0,2,0,,,,,,,,,0,0,0,0,0,10,10,10,0,0,0,0,,,,,,,,,,,,,,,,,,,,,,,,,stimuli/alien_stimuli/31.png,,,,,,,,,,,,,,,,,,,,,,,,,,,,,stimuli/alien_stimuli/11.png,11,0,12,,,,,,,30,,,,,,,,1101.4802665000316,1101.4802665000316,1101.4802665000316,1101.4802665000316,1101.4802665000316,right,1.5402968999696895,1,1,0,99,0.08,0.16,right,1.4576650999952108,,,,,1099.9207452000119,1101.4802665000316,0.24,0.24,0.0,0.4,0.24,0.24,0.039999999999999994,0.24,0.24,1095.6602135000285,1095.6602135000285,1095.6602135000285,1095.6602135000285,1095.6602135000285,1095.6602135000285,1095.6602135000285,1095.6602135000285,1095.6520593000344,4.389753700001165,return,4.243740399950184,,,,,,,,,,,,,,,,,,,,,,,,,,,,,,,,,J7XM9F,train_x,blue_star,top_left,2025-07-17_16h09.20.491,HideSeek_v1,2022.2.5,59.91769708027705,
,2,7,5,7,3,0,31,,train_dim1_1,11,30,,,,2,0,2,0,,,,,,,,,0,0,0,0,0,10,10,10,1,0,1,0,,,,,,,,,,,,,,,,,,,,,,,,,,,,,,,,,,,,,,,,,,,,,,,,,,,,,,,,,,,,,,,,30,,,,,,,,1103.0216243000468,1103.0216243000468,1103.0216243000468,1103.0216243000468,1103.0216243000468,right,0.5095526999793947,1,1,0,99,0.16,0.16,right,0.419687099987641,,,,,,,,,,,,,,,,,,,,,,,,,,,,,,,,,,,,,,,,,,,,,,,,,,,,,,,,,,,,J7XM9F,train_x,blue_star,top_left,2025-07-17_16h09.20.491,HideSeek_v1,2022.2.5,59.91769708027705,
,2,7,5,7,3,0,31,,train_dim1_1,11,30,,,,2,0,2,0,,,,,,,,,0,0,0,0,0,10,10,10,2,0,2,0,,,,,,,,,,,,,,,,,,,,,,,,,,,,,,,,,,,,,,,,,,,,,,,,,,,,,,,,,,,,,,,,30,,,,,,,,1103.5369215999963,1103.5369215999963,1103.5369215999963,1103.5369215999963,1103.5369215999963,right,0.4432636999990791,1,1,0,99,0.24,0.16,right,0.36052869993727654,,,,,,,,,,,,,,,,,,,,,,,,,,,,,,,,,,,,,,,,,,,,,,,,,,,,,,,,,,,,J7XM9F,train_x,blue_star,top_left,2025-07-17_16h09.20.491,HideSeek_v1,2022.2.5,59.91769708027705,
,2,7,5,7,3,0,31,,train_dim1_1,11,30,,,,2,0,2,0,,,,,,,,,0,0,0,0,0,10,10,10,3,0,3,0,,,,,,,,,,,,,,,,,,,,,,,,,,,,,,,,,,,,,,,,,,,,,,,,,,,,,,,,,,,,,,,,30,,,,,,,,1103.9873276000144,1103.9873276000144,1103.9873276000144,1103.9873276000144,1103.9873276000144,right,0.5434285000665113,1,1,0,99,0.32,0.16,right,0.46954449999611825,,,,,,,,,,,,,,,,,,,,,,,,,,,,,,,,,,,,,,,,,,,,,,,,,,,,,,,,,,,,J7XM9F,train_x,blue_star,top_left,2025-07-17_16h09.20.491,HideSeek_v1,2022.2.5,59.91769708027705,
,2,7,5,7,3,0,31,,train_dim1_1,11,30,,,,2,0,2,0,,,,,,,,,0,0,0,0,0,10,10,10,4,0,4,0,,,,,,,,,,,,,,,,,,,,,,,,,,,,,,,,,,,,,,,,,,,,,,,,,,,,,,,,,,,,,,,,30,,,,,,,,1104.537866699975,1104.537866699975,1104.537866699975,1104.537866699975,1104.537866699975,return,4.079726599971764,1,1,0,0,0.32,0.16,return,3.99575740005821,-1,26,0.32,0.16,,,,,,,,,,,,,,,,,,,,,,,,,,,,,,,,,,,,,,,,,,,,,,,,,,,,,,,,J7XM9F,train_x,blue_star,top_left,2025-07-17_16h09.20.491,HideSeek_v1,2022.2.5,59.91769708027705,
,0,5,4,5,4,0,21,,train_dim1_1,12,30,,,,2,0,2,0,,,,,,,,,0,0,0,0,0,11,11,11,0,0,0,0,,,,,,,,,,,,,,,,,,,,,,,,,stimuli/alien_stimuli/21.png,,,,,,,,,,,,,,,,,,,,,,,,,,,,,stimuli/alien_stimuli/31.png,31,2,13,,,,,,,30,,,,,,,,1115.1271642000647,1115.1271642000647,1115.1271642000647,1115.1271642000647,1115.1271642000647,right,2.357764600077644,1,1,0,99,-0.08,0,right,2.2647298000520095,,,,,1113.5656578000635,1115.1271642000647,0.24,0.16,0.0,0.24,0.16,0.24,0.12,0.24,0.16,1110.1990008000284,1110.1990008000284,1110.1990008000284,1110.1990008000284,1110.1990008000284,1110.1990008000284,1110.1990008000284,1110.1990008000284,1110.1808345500149,3.48853810003493,return,3.345177699928172,,,,,,,,,,,,,,,,,,,,,,,,,,,,,,,,,J7XM9F,train_x,blue_star,top_left,2025-07-17_16h09.20.491,HideSeek_v1,2022.2.5,59.91769708027705,
,0,5,4,5,4,0,21,,train_dim1_1,12,30,,,,2,0,2,0,,,,,,,,,0,0,0,0,0,11,11,11,1,0,1,0,,,,,,,,,,,,,,,,,,,,,,,,,,,,,,,,,,,,,,,,,,,,,,,,,,,,,,,,,,,,,,,,30,,,,,,,,1117.4912013000576,1117.4912013000576,1117.4912013000576,1117.4912013000576,1117.4912013000576,right,0.5589896999299526,1,1,0,99,0.0,0,right,0.4739504000172019,,,,,,,,,,,,,,,,,,,,,,,,,,,,,,,,,,,,,,,,,,,,,,,,,,,,,,,,,,,,J7XM9F,train_x,blue_star,top_left,2025-07-17_16h09.20.491,HideSeek_v1,2022.2.5,59.91769708027705,
,0,5,4,5,4,0,21,,train_dim1_1,12,30,,,,2,0,2,0,,,,,,,,,0,0,0,0,0,11,11,11,2,0,2,0,,,,,,,,,,,,,,,,,,,,,,,,,,,,,,,,,,,,,,,,,,,,,,,,,,,,,,,,,,,,,,,,30,,,,,,,,1118.0550120000262,1118.0550120000262,1118.0550120000262,1118.0550120000262,1118.0550120000262,right,0.42704239999875426,1,1,0,99,0.08,0,right,0.33643459994345903,,,,,,,,,,,,,,,,,,,,,,,,,,,,,,,,,,,,,,,,,,,,,,,,,,,,,,,,,,,,J7XM9F,train_x,blue_star,top_left,2025-07-17_16h09.20.491,HideSeek_v1,2022.2.5,59.91769708027705,
,0,5,4,5,4,0,21,,train_dim1_1,12,30,,,,2,0,2,0,,,,,,,,,0,0,0,0,0,11,11,11,3,0,3,0,,,,,,,,,,,,,,,,,,,,,,,,,,,,,,,,,,,,,,,,,,,,,,,,,,,,,,,,,,,,,,,,30,,,,,,,,1118.4873457000358,1118.4873457000358,1118.4873457000358,1118.4873457000358,1118.4873457000358,return,1.4939080000622198,1,1,0,0,0.08,0,return,1.4058500999817625,-1,29,0.08,0,,,,,,,,,,,,,,,,,,,,,,,,,,,,,,,,,,,,,,,,,,,,,,,,,,,,,,,,J7XM9F,train_x,blue_star,top_left,2025-07-17_16h09.20.491,HideSeek_v1,2022.2.5,59.91769708027705,
,0,9,1,9,1,0,51,,train_dim1_1,13,30,,,,2,0,2,0,,,,,,,,,0,0,0,0,0,12,12,12,0,0,0,0,,,,,,,,,,,,,,,,,,,,,,,,,stimuli/alien_stimuli/51.png,,,,,,,,,,,,,,,,,,,,,,,,,,,,,stimuli/alien_stimuli/21.png,21,0,14,,,,,,,30,,,,,,,,1126.4039305000333,1126.4039305000333,1126.4039305000333,1126.4039305000333,1126.4039305000333,right,2.2062854999676347,1,1,0,99,-0.08,0.32,right,2.113415200030431,,,,,1124.8413869000506,1126.4039305000333,0.16,0,0.0,0.32,0.0,0.16,0.0,0.16,0,1121.5671729999594,1121.5671729999594,1121.5671729999594,1121.5671729999594,1121.5671729999594,1121.5671729999594,1121.5671729999594,1121.5671729999594,1121.5569749001181,3.4052655999548733,return,3.253738500061445,,,,,,,,,,,,,,,,,,,,,,,,,,,,,,,,,J7XM9F,train_x,blue_star,top_left,2025-07-17_16h09.20.491,HideSeek_v1,2022.2.5,59.91769708027705,
,0,9,1,9,1,0,51,,train_dim1_1,13,30,,,,2,0,2,0,,,,,,,,,0,0,0,0,0,12,12,12,1,0,1,0,,,,,,,,,,,,,,,,,,,,,,,,,,,,,,,,,,,,,,,,,,,,,,,,,,,,,,,,,,,,,,,,30,,,,,,,,1128.6112955000717,1128.6112955000717,1128.6112955000717,1128.6112955000717,1128.6112955000717,right,1.8441324000013992,1,1,0,99,0.0,0.32,right,1.7671200999757275,,,,,,,,,,,,,,,,,,,,,,,,,,,,,,,,,,,,,,,,,,,,,,,,,,,,,,,,,,,,J7XM9F,train_x,blue_star,top_left,2025-07-17_16h09.20.491,HideSeek_v1,2022.2.5,59.91769708027705,
,0,9,1,9,1,0,51,,train_dim1_1,13,30,,,,2,0,2,0,,,,,,,,,0,0,0,0,0,12,12,12,2,0,2,0,,,,,,,,,,,,,,,,,,,,,,,,,,,,,,,,,,,,,,,,,,,,,,,,,,,,,,,,,,,,,,,,30,,,,,,,,1130.4634964000434,1130.4634964000434,1130.4634964000434,1130.4634964000434,1130.4634964000434,return,1.1605411999626085,1,1,0,0,0.0,0.32,return,1.06864690000657,-1,31,0.0,0.32,,,,,,,,,,,,,,,,,,,,,,,,,,,,,,,,,,,,,,,,,,,,,,,,,,,,,,,,J7XM9F,train_x,blue_star,top_left,2025-07-17_16h09.20.491,HideSeek_v1,2022.2.5,59.91769708027705,
,4,8,9,8,5,0,11,,train_dim1_1,14,30,,,,2,0,2,0,,,,,,,,,0,0,0,0,0,13,13,13,0,0,0,0,,,,,,,,,,,,,,,,,,,,,,,,,stimuli/alien_stimuli/11.png,,,,,,,,,,,,,,,,,,,,,,,,,,,,,stimuli/alien_stimuli/51.png,51,0,15,,,,,,,30,,,,,,,,1137.0002637000289,1137.0002637000289,1137.0002637000289,1137.0002637000289,1137.0002637000289,right,2.056143599911593,1,1,0,99,0.24,0.24,right,1.94391569995787,,,,,1135.4168557999656,1137.0002637000289,-0.08,0.32,0.0,0.08,0.32,-0.08,-0.12,-0.08,0.32,1133.201487399987,1133.201487399987,1133.201487399987,1133.201487399987,1133.201487399987,1133.201487399987,1133.201487399987,1133.201487399987,1133.1828922500836,2.3378119999542832,return,2.189563099993393,,,,,,,,,,,,,,,,,,,,,,,,,,,,,,,,,J7XM9F,train_x,blue_star,top_left,2025-07-17_16h09.20.491,HideSeek_v1,2022.2.5,59.91769708027705,
,4,8,9,8,5,0,11,,train_dim1_1,14,30,,,,2,0,2,0,,,,,,,,,0,0,0,0,0,13,13,13,1,0,1,0,,,,,,,,,,,,,,,,,,,,,,,,,,,,,,,,,,,,,,,,,,,,,,,,,,,,,,,,,,,,,,,,30,,,,,,,,1139.0389923000475,1139.0389923000475,1139.0389923000475,1139.0389923000475,1139.0389923000475,right,0.5762821999378502,1,1,0,99,0.32,0.24,right,0.4978916000109166,,,,,,,,,,,,,,,,,,,,,,,,,,,,,,,,,,,,,,,,,,,,,,,,,,,,,,,,,,,,J7XM9F,train_x,blue_star,top_left,2025-07-17_16h09.20.491,HideSeek_v1,2022.2.5,59.91769708027705,
,4,8,9,8,5,0,11,,train_dim1_1,14,30,,,,2,0,2,0,,,,,,,,,0,0,0,0,0,13,13,13,2,0,2,0,,,,,,,,,,,,,,,,,,,,,,,,,,,,,,,,,,,,,,,,,,,,,,,,,,,,,,,,,,,,,,,,30,,,,,,,,1139.6221367999678,1139.6221367999678,1139.6221367999678,1139.6221367999678,1139.6221367999678,right,0.37621709995437413,1,1,0,99,0.4,0.24,right,0.28822549991309643,,,,,,,,,,,,,,,,,,,,,,,,,,,,,,,,,,,,,,,,,,,,,,,,,,,,,,,,,,,,J7XM9F,train_x,blue_star,top_left,2025-07-17_16h09.20.491,HideSeek_v1,2022.2.5,59.91769708027705,
,4,8,9,8,5,0,11,,train_dim1_1,14,30,,,,2,0,2,0,,,,,,,,,0,0,0,0,0,13,13,13,3,0,3,0,,,,,,,,,,,,,,,,,,,,,,,,,,,,,,,,,,,,,,,,,,,,,,,,,,,,,,,,,,,,,,,,30,,,,,,,,1140.0050776000135,1140.0050776000135,1140.0050776000135,1140.0050776000135,1140.0050776000135,right,0.4768330999650061,1,1,0,99,0.48000000000000004,0.24,right,0.38707329996395856,,,,,,,,,,,,,,,,,,,,,,,,,,,,,,,,,,,,,,,,,,,,,,,,,,,,,,,,,,,,J7XM9F,train_x,blue_star,top_left,2025-07-17_16h09.20.491,HideSeek_v1,2022.2.5,59.91769708027705,
,4,8,9,8,5,0,11,,train_dim1_1,14,30,,,,2,0,2,0,,,,,,,,,0,0,0,0,0,13,13,13,4,0,4,0,,,,,,,,,,,,,,,,,,,,,,,,,,,,,,,,,,,,,,,,,,,,,,,,,,,,,,,,,,,,,,,,30,,,,,,,,1140.488994000014,1140.488994000014,1140.488994000014,1140.488994000014,1140.488994000014,return,1.193943899939768,1,1,0,0,0.48000000000000004,0.24,return,1.1152083999477327,-1,35,0.48000000000000004,0.24,,,,,,,,,,,,,,,,,,,,,,,,,,,,,,,,,,,,,,,,,,,,,,,,,,,,,,,,J7XM9F,train_x,blue_star,top_left,2025-07-17_16h09.20.491,HideSeek_v1,2022.2.5,59.91769708027705,
,4,7,4,7,0,0,61,,train_dim1_1,15,30,,,,2,0,2,0,,,,,,,,,0,0,0,0,0,14,14,14,0,0,0,0,,,,,,,,,,,,,,,,,,,,,,,,,stimuli/alien_stimuli/61.png,,,,,,,,,,,,,,,,,,,,,,,,,,,,,stimuli/alien_stimuli/11.png,11,4,16,,,,,,,30,,,,,,,,1147.4034770000726,1147.4034770000726,1147.4034770000726,1147.4034770000726,1147.4034770000726,right,1.4730135999852791,1,1,0,99,0.24,0.16,right,1.3629347999813035,,,,,1145.825735499966,1147.4034770000726,0.56,0.24,0.0,0.4,0.24,0.56,0.36000000000000004,0.56,0.24,1143.2486239999998,1143.2486239999998,1143.2486239999998,1143.2486239999998,1143.2486239999998,1143.2486239999998,1143.2486239999998,1143.2486239999998,1143.241393050016,2.688693100004457,return,2.54541290004272,,,,,,,,,,,,,,,,,,,,,,,,,,,,,,,,,J7XM9F,train_x,blue_star,top_left,2025-07-17_16h09.20.491,HideSeek_v1,2022.2.5,59.91769708027705,
,4,7,4,7,0,0,61,,train_dim1_1,15,30,,,,2,0,2,0,,,,,,,,,0,0,0,0,0,14,14,14,1,0,1,0,,,,,,,,,,,,,,,,,,,,,,,,,,,,,,,,,,,,,,,,,,,,,,,,,,,,,,,,,,,,,,,,30,,,,,,,,1148.8586407999974,1148.8586407999974,1148.8586407999974,1148.8586407999974,1148.8586407999974,return,1.110568800009787,1,1,0,0,0.24,0.16,return,1.0305756999878213,-1,36,0.24,0.16,,,,,,,,,,,,,,,,,,,,,,,,,,,,,,,,,,,,,,,,,,,,,,,,,,,,,,,,J7XM9F,train_x,blue_star,top_left,2025-07-17_16h09.20.491,HideSeek_v1,2022.2.5,59.91769708027705,
,3,8,4,8,1,0,51,,train_dim1_1,16,30,,,,2,0,2,0,,,,,,,,,0,0,0,0,0,15,15,15,0,0,0,0,,,,,,,,,,,,,,,,,,,,,,,,,stimuli/alien_stimuli/51.png,,,,,,,,,,,,,,,,,,,,,,,,,,,,,stimuli/alien_stimuli/61.png,61,4,17,,,,,,,30,,,,,,,,1157.994778500055,1157.994778500055,1157.994778500055,1157.994778500055,1157.994778500055,return,2.9247686999151483,1,1,0,0,0.08,0.24,return,2.8341070999158546,-1,36,0.08,0.24,1156.434459000011,1157.994778500055,0.16,0.16,0.0,0.0,0.16,0.16,0.16,0.16,0.16,1151.529760000063,1151.529760000063,1151.529760000063,1151.529760000063,1151.529760000063,1151.529760000063,1151.529760000063,1151.529760000063,1151.514835800021,5.006605800008401,return,4.886012400034815,,,,,,,,,,,,,,,,,,,,,,,,,,,,,,,,,J7XM9F,train_x,blue_star,top_left,2025-07-17_16h09.20.491,HideSeek_v1,2022.2.5,59.91769708027705,
,2,9,6,9,4,0,21,,train_dim1_1,17,30,,,,2,0,2,0,,,,,,,,,0,0,0,0,0,16,16,16,0,0,0,0,,,,,,,,,,,,,,,,,,,,,,,,,stimuli/alien_stimuli/21.png,,,,,,,,,,,,,,,,,,,,,,,,,,,,,stimuli/alien_stimuli/51.png,51,3,18,,,,,,,30,,,,,,,,1166.8199382000603,1166.8199382000603,1166.8199382000603,1166.8199382000603,1166.8199382000603,right,1.3900646000402048,1,1,0,99,0.08,0.32,right,1.2939038999611512,,,,,1165.25872719998,1166.8199382000603,0.16,0.24,0.0,0.08,0.24,0.16,0.12,0.16,0.24,1162.4993938000407,1162.4993938000407,1162.4993938000407,1162.4993938000407,1162.4993938000407,1162.4993938000407,1162.4993938000407,1162.4993938000407,1162.490912100114,2.888907099957578,return,2.738870200002566,,,,,,,,,,,,,,,,,,,,,,,,,,,,,,,,,J7XM9F,train_x,blue_star,top_left,2025-07-17_16h09.20.491,HideSeek_v1,2022.2.5,59.91769708027705,
,2,9,6,9,4,0,21,,train_dim1_1,17,30,,,,2,0,2,0,,,,,,,,,0,0,0,0,0,16,16,16,1,0,1,0,,,,,,,,,,,,,,,,,,,,,,,,,,,,,,,,,,,,,,,,,,,,,,,,,,,,,,,,,,,,,,,,30,,,,,,,,1168.2131821999792,1168.2131821999792,1168.2131821999792,1168.2131821999792,1168.2131821999792,right,0.49297939997632056,1,1,0,99,0.16,0.32,right,0.4131337999133393,,,,,,,,,,,,,,,,,,,,,,,,,,,,,,,,,,,,,,,,,,,,,,,,,,,,,,,,,,,,J7XM9F,train_x,blue_star,top_left,2025-07-17_16h09.20.491,HideSeek_v1,2022.2.5,59.91769708027705,
,2,9,6,9,4,0,21,,train_dim1_1,17,30,,,,2,0,2,0,,,,,,,,,0,0,0,0,0,16,16,16,2,0,2,0,,,,,,,,,,,,,,,,,,,,,,,,,,,,,,,,,,,,,,,,,,,,,,,,,,,,,,,,,,,,,,,,30,,,,,,,,1168.7129120000172,1168.7129120000172,1168.7129120000172,1168.7129120000172,1168.7129120000172,right,0.39371039997786283,1,1,0,99,0.24,0.32,right,0.3005291000008583,,,,,,,,,,,,,,,,,,,,,,,,,,,,,,,,,,,,,,,,,,,,,,,,,,,,,,,,,,,,J7XM9F,train_x,blue_star,top_left,2025-07-17_16h09.20.491,HideSeek_v1,2022.2.5,59.91769708027705,
,2,9,6,9,4,0,21,,train_dim1_1,17,30,,,,2,0,2,0,,,,,,,,,0,0,0,0,0,16,16,16,3,0,3,0,,,,,,,,,,,,,,,,,,,,,,,,,,,,,,,,,,,,,,,,,,,,,,,,,,,,,,,,,,,,,,,,30,,,,,,,,1169.113880699966,1169.113880699966,1169.113880699966,1169.113880699966,1169.113880699966,right,0.39267249999102205,1,1,0,99,0.32,0.32,right,0.3000533999875188,,,,,,,,,,,,,,,,,,,,,,,,,,,,,,,,,,,,,,,,,,,,,,,,,,,,,,,,,,,,J7XM9F,train_x,blue_star,top_left,2025-07-17_16h09.20.491,HideSeek_v1,2022.2.5,59.91769708027705,
,2,9,6,9,4,0,21,,train_dim1_1,17,30,,,,2,0,2,0,,,,,,,,,0,0,0,0,0,16,16,16,4,0,4,0,,,,,,,,,,,,,,,,,,,,,,,,,,,,,,,,,,,,,,,,,,,,,,,,,,,,,,,,,,,,,,,,30,,,,,,,,1169.5128526999615,1169.5128526999615,1169.5128526999615,1169.5128526999615,1169.5128526999615,right,0.5933517999947071,1,1,0,99,0.4,0.32,right,0.5072228999342769,,,,,,,,,,,,,,,,,,,,,,,,,,,,,,,,,,,,,,,,,,,,,,,,,,,,,,,,,,,,J7XM9F,train_x,blue_star,top_left,2025-07-17_16h09.20.491,HideSeek_v1,2022.2.5,59.91769708027705,
,2,9,6,9,4,0,21,,train_dim1_1,17,30,,,,2,0,2,0,,,,,,,,,0,0,0,0,0,16,16,16,5,0,5,0,,,,,,,,,,,,,,,,,,,,,,,,,,,,,,,,,,,,,,,,,,,,,,,,,,,,,,,,,,,,,,,,30,,,,,,,,1170.1145590000087,1170.1145590000087,1170.1145590000087,1170.1145590000087,1170.1145590000087,return,0.7606515999650583,1,1,0,0,0.4,0.32,return,0.6726005000527948,-1,41,0.4,0.32,,,,,,,,,,,,,,,,,,,,,,,,,,,,,,,,,,,,,,,,,,,,,,,,,,,,,,,,J7XM9F,train_x,blue_star,top_left,2025-07-17_16h09.20.491,HideSeek_v1,2022.2.5,59.91769708027705,
,2,6,2,6,0,0,61,,train_dim1_1,18,30,,,,2,0,2,0,,,,,,,,,0,0,0,0,0,17,17,17,0,0,0,0,,,,,,,,,,,,,,,,,,,,,,,,,stimuli/alien_stimuli/61.png,,,,,,,,,,,,,,,,,,,,,,,,,,,,,stimuli/alien_stimuli/21.png,21,2,19,,,,,,,30,,,,,,,,1176.546781299985,1176.546781299985,1176.546781299985,1176.546781299985,1176.546781299985,right,1.1907523999689147,1,1,0,99,0.08,0.08,right,1.0844417000189424,,,,,1174.9664300000295,1176.546781299985,0.32,0.32,0.0,0.32,0.32,0.32,0.16,0.32,0.32,1172.4427113999845,1172.4427113999845,1172.4427113999845,1172.4427113999845,1172.4427113999845,1172.4427113999845,1172.4427113999845,1172.4427113999845,1172.4322541501142,2.637920100009069,return,2.4986017000628635,,,,,,,,,,,,,,,,,,,,,,,,,,,,,,,,,J7XM9F,train_x,blue_star,top_left,2025-07-17_16h09.20.491,HideSeek_v1,2022.2.5,59.91769708027705,
,2,6,2,6,0,0,61,,train_dim1_1,18,30,,,,2,0,2,0,,,,,,,,,0,0,0,0,0,17,17,17,1,0,1,0,,,,,,,,,,,,,,,,,,,,,,,,,,,,,,,,,,,,,,,,,,,,,,,,,,,,,,,,,,,,,,,,30,,,,,,,,1177.7202508000191,1177.7202508000191,1177.7202508000191,1177.7202508000191,1177.7202508000191,left,2.427487300010398,1,1,0,99,0.0,0.08,left,2.3399764999048784,,,,,,,,,,,,,,,,,,,,,,,,,,,,,,,,,,,,,,,,,,,,,,,,,,,,,,,,,,,,J7XM9F,train_x,blue_star,top_left,2025-07-17_16h09.20.491,HideSeek_v1,2022.2.5,59.91769708027705,
,2,6,2,6,0,0,61,,train_dim1_1,18,30,,,,2,0,2,0,,,,,,,,,0,0,0,0,0,17,17,17,2,0,2,0,,,,,,,,,,,,,,,,,,,,,,,,,,,,,,,,,,,,,,,,,,,,,,,,,,,,,,,,,,,,,,,,30,,,,,,,,1180.1517668999732,1180.1517668999732,1180.1517668999732,1180.1517668999732,1180.1517668999732,return,2.328449900029227,2,0,0,1,0.0,0.08,return,2.2544967000139877,-1,41,0.0,0.08,,,,,,,,,,,,,,,,,,,,,,,,,,,,,,,,,,,,,,,,,,,,,,,,,,,,,,,,J7XM9F,train_x,blue_star,top_left,2025-07-17_16h09.20.491,HideSeek_v1,2022.2.5,59.91769708027705,
,0,8,3,8,3,0,31,,train_dim1_1,19,30,,,,2,0,2,0,,,,,,,,,0,0,0,0,0,18,18,18,0,0,0,0,,,,,,,,,,,,,,,,,,,,,,,,,stimuli/alien_stimuli/31.png,,,,,,,,,,,,,,,,,,,,,,,,,,,,,stimuli/alien_stimuli/61.png,61,2,20,,,,,,,30,,,,,,,,1187.818403900019,1187.818403900019,1187.818403900019,1187.818403900019,1187.818403900019,right,1.13906339998357,2,0,0,99,-0.08,0.24,right,1.0295157000655308,,,,,1186.2427405000199,1187.818403900019,0,0.08,0.0,0.0,0.08,0,0.0,0,0.08,1184.0604713000357,1184.0604713000357,1184.0604713000357,1184.0604713000357,1184.0604713000357,1184.0604713000357,1184.0604713000357,1184.0604713000357,1184.0421003500933,2.304422599961981,return,2.164786799927242,,,,,,,,,,,,,,,,,,,,,,,,,,,,,,,,,J7XM9F,train_x,blue_star,top_left,2025-07-17_16h09.20.491,HideSeek_v1,2022.2.5,59.91769708027705,
,0,8,3,8,3,0,31,,train_dim1_1,19,30,,,,2,0,2,0,,,,,,,,,0,0,0,0,0,18,18,18,1,0,1,0,,,,,,,,,,,,,,,,,,,,,,,,,,,,,,,,,,,,,,,,,,,,,,,,,,,,,,,,,,,,,,,,30,,,,,,,,1188.942230100045,1188.942230100045,1188.942230100045,1188.942230100045,1188.942230100045,right,0.39280010003130883,2,0,0,99,0.0,0.24,right,0.3064899999881163,,,,,,,,,,,,,,,,,,,,,,,,,,,,,,,,,,,,,,,,,,,,,,,,,,,,,,,,,,,,J7XM9F,train_x,blue_star,top_left,2025-07-17_16h09.20.491,HideSeek_v1,2022.2.5,59.91769708027705,
,0,8,3,8,3,0,31,,train_dim1_1,19,30,,,,2,0,2,0,,,,,,,,,0,0,0,0,0,18,18,18,2,0,2,0,,,,,,,,,,,,,,,,,,,,,,,,,,,,,,,,,,,,,,,,,,,,,,,,,,,,,,,,,,,,,,,,30,,,,,,,,1189.3431365999859,1189.3431365999859,1189.3431365999859,1189.3431365999859,1189.3431365999859,right,0.32656459999270737,2,0,0,99,0.08,0.24,right,0.25177530001383275,,,,,,,,,,,,,,,,,,,,,,,,,,,,,,,,,,,,,,,,,,,,,,,,,,,,,,,,,,,,J7XM9F,train_x,blue_star,top_left,2025-07-17_16h09.20.491,HideSeek_v1,2022.2.5,59.91769708027705,
,0,8,3,8,3,0,31,,train_dim1_1,19,30,,,,2,0,2,0,,,,,,,,,0,0,0,0,0,18,18,18,3,0,3,0,,,,,,,,,,,,,,,,,,,,,,,,,,,,,,,,,,,,,,,,,,,,,,,,,,,,,,,,,,,,,,,,30,,,,,,,,1189.676261399989,1189.676261399989,1189.676261399989,1189.676261399989,1189.676261399989,right,1.0268472000025213,2,0,0,99,0.16,0.24,right,0.9463850000174716,,,,,,,,,,,,,,,,,,,,,,,,,,,,,,,,,,,,,,,,,,,,,,,,,,,,,,,,,,,,J7XM9F,train_x,blue_star,top_left,2025-07-17_16h09.20.491,HideSeek_v1,2022.2.5,59.91769708027705,
,0,8,3,8,3,0,31,,train_dim1_1,19,30,,,,2,0,2,0,,,,,,,,,0,0,0,0,0,18,18,18,4,0,4,0,,,,,,,,,,,,,,,,,,,,,,,,,,,,,,,,,,,,,,,,,,,,,,,,,,,,,,,,,,,,,,,,30,,,,,,,,1190.7129459000425,1190.7129459000425,1190.7129459000425,1190.7129459000425,1190.7129459000425,return,0.6770264999940991,2,1,0,0,0.16,0.24,return,0.5860481000272557,-1,45,0.16,0.24,,,,,,,,,,,,,,,,,,,,,,,,,,,,,,,,,,,,,,,,,,,,,,,,,,,,,,,,J7XM9F,train_x,blue_star,top_left,2025-07-17_16h09.20.491,HideSeek_v1,2022.2.5,59.91769708027705,
,0,6,5,6,5,0,11,,train_dim1_1,20,30,,,,2,0,2,0,,,,,,,,,0,0,0,0,0,19,19,19,0,0,0,0,,,,,,,,,,,,,,,,,,,,,,,,,stimuli/alien_stimuli/11.png,,,,,,,,,,,,,,,,,,,,,,,,,,,,,stimuli/alien_stimuli/31.png,31,0,21,,,,,,,30,,,,,,,,1196.016437400016,1196.016437400016,1196.016437400016,1196.016437400016,1196.016437400016,right,1.4565707999281585,2,1,0,99,-0.08,0.08,right,1.340018399991095,,,,,1194.4328820999945,1196.016437400016,0.08,0.24,0.0,0.24,0.24,0.08,-0.04,0.08,0.24,1192.960090800072,1192.960090800072,1192.960090800072,1192.960090800072,1192.960090800072,1192.960090800072,1192.960090800072,1192.960090800072,1192.950069250027,1.585953600006178,return,1.4477183000417426,,,,,,,,,,,,,,,,,,,,,,,,,,,,,,,,,J7XM9F,train_x,blue_star,top_left,2025-07-17_16h09.20.491,HideSeek_v1,2022.2.5,59.91769708027705,
,0,6,5,6,5,0,11,,train_dim1_1,20,30,,,,2,0,2,0,,,,,,,,,0,0,0,0,0,19,19,19,1,0,1,0,,,,,,,,,,,,,,,,,,,,,,,,,,,,,,,,,,,,,,,,,,,,,,,,,,,,,,,,,,,,,,,,30,,,,,,,,1197.453441199963,1197.453441199963,1197.453441199963,1197.453441199963,1197.453441199963,right,0.49270619999151677,2,1,0,99,0.0,0.08,right,0.4022138000000268,,,,,,,,,,,,,,,,,,,,,,,,,,,,,,,,,,,,,,,,,,,,,,,,,,,,,,,,,,,,J7XM9F,train_x,blue_star,top_left,2025-07-17_16h09.20.491,HideSeek_v1,2022.2.5,59.91769708027705,
,0,6,5,6,5,0,11,,train_dim1_1,20,30,,,,2,0,2,0,,,,,,,,,0,0,0,0,0,19,19,19,2,0,2,0,,,,,,,,,,,,,,,,,,,,,,,,,,,,,,,,,,,,,,,,,,,,,,,,,,,,,,,,,,,,,,,,30,,,,,,,,1197.9538784000324,1197.9538784000324,1197.9538784000324,1197.9538784000324,1197.9538784000324,right,0.5098670000443235,2,1,0,99,0.08,0.08,right,0.4177698999410495,,,,,,,,,,,,,,,,,,,,,,,,,,,,,,,,,,,,,,,,,,,,,,,,,,,,,,,,,,,,J7XM9F,train_x,blue_star,top_left,2025-07-17_16h09.20.491,HideSeek_v1,2022.2.5,59.91769708027705,
,0,6,5,6,5,0,11,,train_dim1_1,20,30,,,,2,0,2,0,,,,,,,,,0,0,0,0,0,19,19,19,3,0,3,0,,,,,,,,,,,,,,,,,,,,,,,,,,,,,,,,,,,,,,,,,,,,,,,,,,,,,,,,,,,,,,,,30,,,,,,,,1198.470293099992,1198.470293099992,1198.470293099992,1198.470293099992,1198.470293099992,right,0.4932449000189081,2,1,0,99,0.16,0.08,right,0.4026401999872178,,,,,,,,,,,,,,,,,,,,,,,,,,,,,,,,,,,,,,,,,,,,,,,,,,,,,,,,,,,,J7XM9F,train_x,blue_star,top_left,2025-07-17_16h09.20.491,HideSeek_v1,2022.2.5,59.91769708027705,
,0,6,5,6,5,0,11,,train_dim1_1,20,30,,,,2,0,2,0,,,,,,,,,0,0,0,0,0,19,19,19,4,0,4,0,,,,,,,,,,,,,,,,,,,,,,,,,,,,,,,,,,,,,,,,,,,,,,,,,,,,,,,,,,,,,,,,30,,,,,,,,1198.9709348999895,1198.9709348999895,1198.9709348999895,1198.9709348999895,1198.9709348999895,return,0.8603355999803171,2,1,0,0,0.16,0.08,return,0.7777700999286026,-1,49,0.16,0.08,,,,,,,,,,,,,,,,,,,,,,,,,,,,,,,,,,,,,,,,,,,,,,,,,,,,,,,,J7XM9F,train_x,blue_star,top_left,2025-07-17_16h09.20.491,HideSeek_v1,2022.2.5,59.91769708027705,
,4,7,7,7,3,0,31,,train_dim1_1,21,30,,,,2,0,2,0,,,,,,,,,0,0,0,0,0,20,20,20,0,0,0,0,,,,,,,,,,,,,,,,,,,,,,,,,stimuli/alien_stimuli/31.png,,,,,,,,,,,,,,,,,,,,,,,,,,,,,stimuli/alien_stimuli/11.png,11,0,22,,,,,,,30,,,,,,,,1204.682722800062,1204.682722800062,1204.682722800062,1204.682722800062,1204.682722800062,right,0.8714123000390828,2,1,0,99,0.24,0.16,right,0.7679231000365689,,,,,1203.1066410000203,1204.682722800062,0.24,0.08,0.0,0.4,0.08,0.24,0.039999999999999994,0.24,0.08,1201.3966747999657,1201.3966747999657,1201.3966747999657,1201.3966747999657,1201.3966747999657,1201.3966747999657,1201.3966747999657,1201.3966747999657,1201.3896721500905,1.8210274000884965,return,1.6905865999870002,,,,,,,,,,,,,,,,,,,,,,,,,,,,,,,,,J7XM9F,train_x,blue_star,top_left,2025-07-17_16h09.20.491,HideSeek_v1,2022.2.5,59.91769708027705,
,4,7,7,7,3,0,31,,train_dim1_1,21,30,,,,2,0,2,0,,,,,,,,,0,0,0,0,0,20,20,20,1,0,1,0,,,,,,,,,,,,,,,,,,,,,,,,,,,,,,,,,,,,,,,,,,,,,,,,,,,,,,,,,,,,,,,,30,,,,,,,,1205.5396581999958,1205.5396581999958,1205.5396581999958,1205.5396581999958,1205.5396581999958,right,0.4267812999896705,2,1,0,99,0.32,0.16,right,0.3412970000645146,,,,,,,,,,,,,,,,,,,,,,,,,,,,,,,,,,,,,,,,,,,,,,,,,,,,,,,,,,,,J7XM9F,train_x,blue_star,top_left,2025-07-17_16h09.20.491,HideSeek_v1,2022.2.5,59.91769708027705,
,4,7,7,7,3,0,31,,train_dim1_1,21,30,,,,2,0,2,0,,,,,,,,,0,0,0,0,0,20,20,20,2,0,2,0,,,,,,,,,,,,,,,,,,,,,,,,,,,,,,,,,,,,,,,,,,,,,,,,,,,,,,,,,,,,,,,,30,,,,,,,,1205.9729270000244,1205.9729270000244,1205.9729270000244,1205.9729270000244,1205.9729270000244,right,0.5099343999754637,2,1,0,99,0.4,0.16,right,0.42350779997650534,,,,,,,,,,,,,,,,,,,,,,,,,,,,,,,,,,,,,,,,,,,,,,,,,,,,,,,,,,,,J7XM9F,train_x,blue_star,top_left,2025-07-17_16h09.20.491,HideSeek_v1,2022.2.5,59.91769708027705,
,4,7,7,7,3,0,31,,train_dim1_1,21,30,,,,2,0,2,0,,,,,,,,,0,0,0,0,0,20,20,20,3,0,3,0,,,,,,,,,,,,,,,,,,,,,,,,,,,,,,,,,,,,,,,,,,,,,,,,,,,,,,,,,,,,,,,,30,,,,,,,,1206.4907367000123,1206.4907367000123,1206.4907367000123,1206.4907367000123,1206.4907367000123,right,0.37642309989314526,2,1,0,99,0.48000000000000004,0.16,right,0.2948933000443503,,,,,,,,,,,,,,,,,,,,,,,,,,,,,,,,,,,,,,,,,,,,,,,,,,,,,,,,,,,,J7XM9F,train_x,blue_star,top_left,2025-07-17_16h09.20.491,HideSeek_v1,2022.2.5,59.91769708027705,
,4,7,7,7,3,0,31,,train_dim1_1,21,30,,,,2,0,2,0,,,,,,,,,0,0,0,0,0,20,20,20,4,0,4,0,,,,,,,,,,,,,,,,,,,,,,,,,,,,,,,,,,,,,,,,,,,,,,,,,,,,,,,,,,,,,,,,30,,,,,,,,1206.8736765000504,1206.8736765000504,1206.8736765000504,1206.8736765000504,1206.8736765000504,right,0.40971150004770607,2,1,0,99,0.56,0.16,right,0.3263727000448853,,,,,,,,,,,,,,,,,,,,,,,,,,,,,,,,,,,,,,,,,,,,,,,,,,,,,,,,,,,,J7XM9F,train_x,blue_star,top_left,2025-07-17_16h09.20.491,HideSeek_v1,2022.2.5,59.91769708027705,
,4,7,7,7,3,0,31,,train_dim1_1,21,30,,,,2,0,2,0,,,,,,,,,0,0,0,0,0,20,20,20,5,0,5,0,,,,,,,,,,,,,,,,,,,,,,,,,,,,,,,,,,,,,,,,,,,,,,,,,,,,,,,,,,,,,,,,30,,,,,,,,1207.2907179000322,1207.2907179000322,1207.2907179000322,1207.2907179000322,1207.2907179000322,return,0.793876999989152,2,0,0,0,0.56,0.16,return,0.7080808999016881,-1,54,0.56,0.16,,,,,,,,,,,,,,,,,,,,,,,,,,,,,,,,,,,,,,,,,,,,,,,,,,,,,,,,J7XM9F,train_x,blue_star,top_left,2025-07-17_16h09.20.491,HideSeek_v1,2022.2.5,59.91769708027705,
,1,5,5,5,4,0,21,,train_dim1_1,22,30,,,,2,0,2,0,,,,,,,,,0,0,0,0,0,21,21,21,0,0,0,0,,,,,,,,,,,,,,,,,,,,,,,,,stimuli/alien_stimuli/21.png,,,,,,,,,,,,,,,,,,,,,,,,,,,,,stimuli/alien_stimuli/31.png,31,4,23,,,,,,,30,,,,,,,,1214.7942130999872,1214.7942130999872,1214.7942130999872,1214.7942130999872,1214.7942130999872,right,1.3072442999109626,2,0,0,99,0.0,0,right,1.2159472000785172,,,,,1213.2315842000535,1214.7942130999872,0.4,0.16,0.0,0.24,0.16,0.4,0.28,0.4,0.16,1209.6466806000099,1209.6466806000099,1209.6466806000099,1209.6466806000099,1209.6466806000099,1209.6466806000099,1209.6466806000099,1209.6466806000099,1209.6296624000884,3.6891356999985874,return,3.5678819000022486,,,,,,,,,,,,,,,,,,,,,,,,,,,,,,,,,J7XM9F,train_x,blue_star,top_left,2025-07-17_16h09.20.491,HideSeek_v1,2022.2.5,59.91769708027705,
,1,5,5,5,4,0,21,,train_dim1_1,22,30,,,,2,0,2,0,,,,,,,,,0,0,0,0,0,21,21,21,1,0,1,0,,,,,,,,,,,,,,,,,,,,,,,,,,,,,,,,,,,,,,,,,,,,,,,,,,,,,,,,,,,,,,,,30,,,,,,,,1216.101706000045,1216.101706000045,1216.101706000045,1216.101706000045,1216.101706000045,right,0.7927866000682116,2,0,0,99,0.08,0,right,0.714728599996306,,,,,,,,,,,,,,,,,,,,,,,,,,,,,,,,,,,,,,,,,,,,,,,,,,,,,,,,,,,,J7XM9F,train_x,blue_star,top_left,2025-07-17_16h09.20.491,HideSeek_v1,2022.2.5,59.91769708027705,
,1,5,5,5,4,0,21,,train_dim1_1,22,30,,,,2,0,2,0,,,,,,,,,0,0,0,0,0,21,21,21,2,0,2,0,,,,,,,,,,,,,,,,,,,,,,,,,,,,,,,,,,,,,,,,,,,,,,,,,,,,,,,,,,,,,,,,30,,,,,,,,1216.902511900058,1216.902511900058,1216.902511900058,1216.902511900058,1216.902511900058,right,0.6602428000187501,2,0,0,99,0.16,0,right,0.5735824001021683,,,,,,,,,,,,,,,,,,,,,,,,,,,,,,,,,,,,,,,,,,,,,,,,,,,,,,,,,,,,J7XM9F,train_x,blue_star,top_left,2025-07-17_16h09.20.491,HideSeek_v1,2022.2.5,59.91769708027705,
,1,5,5,5,4,0,21,,train_dim1_1,22,30,,,,2,0,2,0,,,,,,,,,0,0,0,0,0,21,21,21,3,0,3,0,,,,,,,,,,,,,,,,,,,,,,,,,,,,,,,,,,,,,,,,,,,,,,,,,,,,,,,,,,,,,,,,30,,,,,,,,1217.5710771000013,1217.5710771000013,1217.5710771000013,1217.5710771000013,1217.5710771000013,right,1.027256999979727,2,0,0,99,0.24,0,right,0.9471997000509873,,,,,,,,,,,,,,,,,,,,,,,,,,,,,,,,,,,,,,,,,,,,,,,,,,,,,,,,,,,,J7XM9F,train_x,blue_star,top_left,2025-07-17_16h09.20.491,HideSeek_v1,2022.2.5,59.91769708027705,
,1,5,5,5,4,0,21,,train_dim1_1,22,30,,,,2,0,2,0,,,,,,,,,0,0,0,0,0,21,21,21,4,0,4,0,,,,,,,,,,,,,,,,,,,,,,,,,,,,,,,,,,,,,,,,,,,,,,,,,,,,,,,,,,,,,,,,30,,,,,,,,1218.6039485000074,1218.6039485000074,1218.6039485000074,1218.6039485000074,1218.6039485000074,return,0.40968909999355674,3,0,0,1,0.24,0,return,0.31786579999607056,-1,58,0.24,0,,,,,,,,,,,,,,,,,,,,,,,,,,,,,,,,,,,,,,,,,,,,,,,,,,,,,,,,J7XM9F,train_x,blue_star,top_left,2025-07-17_16h09.20.491,HideSeek_v1,2022.2.5,59.91769708027705,
,2,6,2,6,0,0,61,,train_dim1_1,23,30,,,,2,0,2,0,,,,,,,,,0,0,0,0,0,22,22,22,0,0,0,0,,,,,,,,,,,,,,,,,,,,,,,,,stimuli/alien_stimuli/61.png,,,,,,,,,,,,,,,,,,,,,,,,,,,,,stimuli/alien_stimuli/21.png,21,1,24,,,,,,,30,,,,,,,,1223.7491259999806,1223.7491259999806,1223.7491259999806,1223.7491259999806,1223.7491259999806,right,1.2232323000207543,3,0,0,99,0.08,0.08,right,1.1210044000763446,,,,,1222.1725607999833,1223.7491259999806,0.24,0,0.0,0.32,0.0,0.24,0.07999999999999999,0.24,0,1220.597184100072,1220.597184100072,1220.597184100072,1220.597184100072,1220.597184100072,1220.597184100072,1220.597184100072,1220.597184100072,1220.58915250008,1.703917899983935,return,1.5526826999848709,,,,,,,,,,,,,,,,,,,,,,,,,,,,,,,,,J7XM9F,train_x,blue_star,top_left,2025-07-17_16h09.20.491,HideSeek_v1,2022.2.5,59.91769708027705,
,2,6,2,6,0,0,61,,train_dim1_1,23,30,,,,2,0,2,0,,,,,,,,,0,0,0,0,0,22,22,22,1,0,1,0,,,,,,,,,,,,,,,,,,,,,,,,,,,,,,,,,,,,,,,,,,,,,,,,,,,,,,,,,,,,,,,,30,,,,,,,,1224.9555793000618,1224.9555793000618,1224.9555793000618,1224.9555793000618,1224.9555793000618,return,1.6103965999791399,3,1,0,0,0.08,0.08,return,1.5368560999631882,-1,59,0.08,0.08,,,,,,,,,,,,,,,,,,,,,,,,,,,,,,,,,,,,,,,,,,,,,,,,,,,,,,,,J7XM9F,train_x,blue_star,top_left,2025-07-17_16h09.20.491,HideSeek_v1,2022.2.5,59.91769708027705,
,4,9,5,9,1,0,51,,train_dim1_1,24,30,,,,2,0,2,0,,,,,,,,,0,0,0,0,0,23,23,23,0,0,0,0,,,,,,,,,,,,,,,,,,,,,,,,,stimuli/alien_stimuli/51.png,,,,,,,,,,,,,,,,,,,,,,,,,,,,,stimuli/alien_stimuli/61.png,61,2,25,,,,,,,30,,,,,,,,1231.3736975999782,1231.3736975999782,1231.3736975999782,1231.3736975999782,1231.3736975999782,right,3.6253592000575736,3,1,0,99,0.24,0.32,right,3.5163958999328315,,,,,1229.7954873000272,1231.3736975999782,0,0.08,0.0,0.0,0.08,0,0.0,0,0.08,1228.1284858,1228.1284858,1228.1284858,1228.1284858,1228.1284858,1228.1284858,1228.1284858,1228.1284858,1228.1116305000382,1.7709135999903083,return,1.6356573000084609,,,,,,,,,,,,,,,,,,,,,,,,,,,,,,,,,J7XM9F,train_x,blue_star,top_left,2025-07-17_16h09.20.491,HideSeek_v1,2022.2.5,59.91769708027705,
,4,9,5,9,1,0,51,,train_dim1_1,24,30,,,,2,0,2,0,,,,,,,,,0,0,0,0,0,23,23,23,1,0,1,0,,,,,,,,,,,,,,,,,,,,,,,,,,,,,,,,,,,,,,,,,,,,,,,,,,,,,,,,,,,,,,,,30,,,,,,,,1234.9826294999802,1234.9826294999802,1234.9826294999802,1234.9826294999802,1234.9826294999802,return,0.5765299999620765,4,0,0,1,0.24,0.32,return,0.5004033000441268,-1,60,0.24,0.32,,,,,,,,,,,,,,,,,,,,,,,,,,,,,,,,,,,,,,,,,,,,,,,,,,,,,,,,J7XM9F,train_x,blue_star,top_left,2025-07-17_16h09.20.491,HideSeek_v1,2022.2.5,59.91769708027705,
,3,5,8,5,5,0,11,,train_dim1_1,25,30,,,,2,0,2,0,,,,,,,,,0,0,0,0,0,24,24,24,0,0,0,0,,,,,,,,,,,,,,,,,,,,,,,,,stimuli/alien_stimuli/11.png,,,,,,,,,,,,,,,,,,,,,,,,,,,,,stimuli/alien_stimuli/51.png,51,4,26,,,,,,,30,,,,,,,,1239.9607647999655,1239.9607647999655,1239.9607647999655,1239.9607647999655,1239.9607647999655,right,2.6746555999852717,4,0,0,99,0.16,0,right,2.5761107000289485,,,,,1238.3859694000566,1239.9607647999655,0.24,0.32,0.0,0.08,0.32,0.24,0.2,0.24,0.32,1237.1247453000396,1237.1247453000396,1237.1247453000396,1237.1247453000396,1237.1247453000396,1237.1247453000396,1237.1247453000396,1237.1247453000396,1237.1025256000926,1.37015730002895,return,1.2441332000307739,,,,,,,,,,,,,,,,,,,,,,,,,,,,,,,,,J7XM9F,train_x,blue_star,top_left,2025-07-17_16h09.20.491,HideSeek_v1,2022.2.5,59.91769708027705,
,3,5,8,5,5,0,11,,train_dim1_1,25,30,,,,2,0,2,0,,,,,,,,,0,0,0,0,0,24,24,24,1,0,1,0,,,,,,,,,,,,,,,,,,,,,,,,,,,,,,,,,,,,,,,,,,,,,,,,,,,,,,,,,,,,,,,,30,,,,,,,,1242.6247649000725,1242.6247649000725,1242.6247649000725,1242.6247649000725,1242.6247649000725,right,0.7098490999778733,4,0,0,99,0.24,0,right,0.6242322999751195,,,,,,,,,,,,,,,,,,,,,,,,,,,,,,,,,,,,,,,,,,,,,,,,,,,,,,,,,,,,J7XM9F,train_x,blue_star,top_left,2025-07-17_16h09.20.491,HideSeek_v1,2022.2.5,59.91769708027705,
,3,5,8,5,5,0,11,,train_dim1_1,25,30,,,,2,0,2,0,,,,,,,,,0,0,0,0,0,24,24,24,2,0,2,0,,,,,,,,,,,,,,,,,,,,,,,,,,,,,,,,,,,,,,,,,,,,,,,,,,,,,,,,,,,,,,,,30,,,,,,,,1243.3419573999709,1243.3419573999709,1243.3419573999709,1243.3419573999709,1243.3419573999709,right,0.7095112000824884,4,0,0,99,0.32,0,right,0.6328443998936564,,,,,,,,,,,,,,,,,,,,,,,,,,,,,,,,,,,,,,,,,,,,,,,,,,,,,,,,,,,,J7XM9F,train_x,blue_star,top_left,2025-07-17_16h09.20.491,HideSeek_v1,2022.2.5,59.91769708027705,
,3,5,8,5,5,0,11,,train_dim1_1,25,30,,,,2,0,2,0,,,,,,,,,0,0,0,0,0,24,24,24,3,0,3,0,,,,,,,,,,,,,,,,,,,,,,,,,,,,,,,,,,,,,,,,,,,,,,,,,,,,,,,,,,,,,,,,30,,,,,,,,1244.0585267000133,1244.0585267000133,1244.0585267000133,1244.0585267000133,1244.0585267000133,right,2.344878900097683,4,0,0,99,0.4,0,right,2.263662000070326,,,,,,,,,,,,,,,,,,,,,,,,,,,,,,,,,,,,,,,,,,,,,,,,,,,,,,,,,,,,J7XM9F,train_x,blue_star,top_left,2025-07-17_16h09.20.491,HideSeek_v1,2022.2.5,59.91769708027705,
,3,5,8,5,5,0,11,,train_dim1_1,25,30,,,,2,0,2,0,,,,,,,,,0,0,0,0,0,24,24,24,4,0,4,0,,,,,,,,,,,,,,,,,,,,,,,,,,,,,,,,,,,,,,,,,,,,,,,,,,,,,,,,,,,,,,,,30,,,,,,,,1246.4132574000396,1246.4132574000396,1246.4132574000396,1246.4132574000396,1246.4132574000396,return,0.24090229999274015,4,1,0,0,0.4,0,return,0.1583600000012666,-1,64,0.4,0,,,,,,,,,,,,,,,,,,,,,,,,,,,,,,,,,,,,,,,,,,,,,,,,,,,,,,,,J7XM9F,train_x,blue_star,top_left,2025-07-17_16h09.20.491,HideSeek_v1,2022.2.5,59.91769708027705,
,1,6,1,6,0,0,61,,train_dim1_1,26,30,,,,2,0,2,0,,,,,,,,,0,0,0,0,0,25,25,25,0,0,0,0,,,,,,,,,,,,,,,,,,,,,,,,,stimuli/alien_stimuli/61.png,,,,,,,,,,,,,,,,,,,,,,,,,,,,,stimuli/alien_stimuli/11.png,11,3,27,,,,,,,30,,,,,,,,1251.5743325999938,1251.5743325999938,1251.5743325999938,1251.5743325999938,1251.5743325999938,return,2.9901922000572085,5,0,0,1,-0.08,0.08,return,2.886803000001237,-1,64,-0.08,0.08,1249.9956564999884,1251.5743325999938,0.48,0,0.0,0.4,0.0,0.48,0.27999999999999997,0.48,0,1248.2479877000442,1248.2479877000442,1248.2479877000442,1248.2479877000442,1248.2479877000442,1248.2479877000442,1248.2479877000442,1248.2479877000442,1248.2292811000254,1.8867234999779612,return,1.7248279000632465,,,,,,,,,,,,,,,,,,,,,,,,,,,,,,,,,J7XM9F,train_x,blue_star,top_left,2025-07-17_16h09.20.491,HideSeek_v1,2022.2.5,59.91769708027705,
,0,6,3,6,3,0,31,,train_dim1_1,27,30,,,,2,0,2,0,,,,,,,,,0,0,0,0,0,26,26,26,0,0,0,0,,,,,,,,,,,,,,,,,,,,,,,,,stimuli/alien_stimuli/31.png,,,,,,,,,,,,,,,,,,,,,,,,,,,,,stimuli/alien_stimuli/61.png,61,1,28,,,,,,,30,,,,,,,,1259.2931753000012,1259.2931753000012,1259.2931753000012,1259.2931753000012,1259.2931753000012,right,1.0901046000653878,5,0,0,99,-0.08,0.08,right,0.9895345999393612,,,,,1257.7187134000706,1259.2931753000012,-0.08,0.08,0.0,0.0,0.08,-0.08,-0.08,-0.08,0.08,1256.1028560000705,1256.1028560000705,1256.1028560000705,1256.1028560000705,1256.1028560000705,1256.1028560000705,1256.1028560000705,1256.1028560000705,1256.0849749000977,1.7207185999723151,return,1.591168399900198,,,,,,,,,,,,,,,,,,,,,,,,,,,,,,,,,J7XM9F,train_x,blue_star,top_left,2025-07-17_16h09.20.491,HideSeek_v1,2022.2.5,59.91769708027705,
,0,6,3,6,3,0,31,,train_dim1_1,27,30,,,,2,0,2,0,,,,,,,,,0,0,0,0,0,26,26,26,1,0,1,0,,,,,,,,,,,,,,,,,,,,,,,,,,,,,,,,,,,,,,,,,,,,,,,,,,,,,,,,,,,,,,,,30,,,,,,,,1260.3686158000492,1260.3686158000492,1260.3686158000492,1260.3686158000492,1260.3686158000492,right,0.4429043000563979,5,0,0,99,0.0,0.08,right,0.35984179994557053,,,,,,,,,,,,,,,,,,,,,,,,,,,,,,,,,,,,,,,,,,,,,,,,,,,,,,,,,,,,J7XM9F,train_x,blue_star,top_left,2025-07-17_16h09.20.491,HideSeek_v1,2022.2.5,59.91769708027705,
,0,6,3,6,3,0,31,,train_dim1_1,27,30,,,,2,0,2,0,,,,,,,,,0,0,0,0,0,26,26,26,2,0,2,0,,,,,,,,,,,,,,,,,,,,,,,,,,,,,,,,,,,,,,,,,,,,,,,,,,,,,,,,,,,,,,,,30,,,,,,,,1260.8187124000397,1260.8187124000397,1260.8187124000397,1260.8187124000397,1260.8187124000397,right,0.4098534000804648,5,0,0,99,0.08,0.08,right,0.32698599994182587,,,,,,,,,,,,,,,,,,,,,,,,,,,,,,,,,,,,,,,,,,,,,,,,,,,,,,,,,,,,J7XM9F,train_x,blue_star,top_left,2025-07-17_16h09.20.491,HideSeek_v1,2022.2.5,59.91769708027705,
,0,6,3,6,3,0,31,,train_dim1_1,27,30,,,,2,0,2,0,,,,,,,,,0,0,0,0,0,26,26,26,3,0,3,0,,,,,,,,,,,,,,,,,,,,,,,,,,,,,,,,,,,,,,,,,,,,,,,,,,,,,,,,,,,,,,,,30,,,,,,,,1261.2466668999987,1261.2466668999987,1261.2466668999987,1261.2466668999987,1261.2466668999987,right,0.41004119999706745,5,0,0,99,0.16,0.08,right,0.32485319999977946,,,,,,,,,,,,,,,,,,,,,,,,,,,,,,,,,,,,,,,,,,,,,,,,,,,,,,,,,,,,J7XM9F,train_x,blue_star,top_left,2025-07-17_16h09.20.491,HideSeek_v1,2022.2.5,59.91769708027705,
,0,6,3,6,3,0,31,,train_dim1_1,27,30,,,,2,0,2,0,,,,,,,,,0,0,0,0,0,26,26,26,4,0,4,0,,,,,,,,,,,,,,,,,,,,,,,,,,,,,,,,,,,,,,,,,,,,,,,,,,,,,,,,,,,,,,,,30,,,,,,,,1261.6529501000186,1261.6529501000186,1261.6529501000186,1261.6529501000186,1261.6529501000186,right,0.3594921000767499,5,0,0,99,0.24,0.08,right,0.27120640000794083,,,,,,,,,,,,,,,,,,,,,,,,,,,,,,,,,,,,,,,,,,,,,,,,,,,,,,,,,,,,J7XM9F,train_x,blue_star,top_left,2025-07-17_16h09.20.491,HideSeek_v1,2022.2.5,59.91769708027705,
,0,6,3,6,3,0,31,,train_dim1_1,27,30,,,,2,0,2,0,,,,,,,,,0,0,0,0,0,26,26,26,5,0,5,0,,,,,,,,,,,,,,,,,,,,,,,,,,,,,,,,,,,,,,,,,,,,,,,,,,,,,,,,,,,,,,,,30,,,,,,,,1262.0200249999762,1262.0200249999762,1262.0200249999762,1262.0200249999762,1262.0200249999762,return,0.7769027000758797,5,0,0,0,0.24,0.08,return,0.6878432999365032,-1,69,0.24,0.08,,,,,,,,,,,,,,,,,,,,,,,,,,,,,,,,,,,,,,,,,,,,,,,,,,,,,,,,J7XM9F,train_x,blue_star,top_left,2025-07-17_16h09.20.491,HideSeek_v1,2022.2.5,59.91769708027705,
,3,6,7,6,4,0,21,,train_dim1_1,28,30,,,,2,0,2,0,,,,,,,,,0,0,0,0,0,27,27,27,0,0,0,0,,,,,,,,,,,,,,,,,,,,,,,,,stimuli/alien_stimuli/21.png,,,,,,,,,,,,,,,,,,,,,,,,,,,,,stimuli/alien_stimuli/31.png,31,0,29,,,,,,,30,,,,,,,,1267.9232091000304,1267.9232091000304,1267.9232091000304,1267.9232091000304,1267.9232091000304,right,1.7725663000019267,5,0,0,99,0.16,0.08,right,1.6679267999716103,,,,,1266.3427354999585,1267.9232091000304,0.08,0.08,0.0,0.24,0.08,0.08,-0.04,0.08,0.08,1264.3626977000386,1264.3626977000386,1264.3626977000386,1264.3626977000386,1264.3626977000386,1264.3626977000386,1264.3626977000386,1264.3626977000386,1264.3418477000437,2.0880599999800324,return,1.9620176999596879,,,,,,,,,,,,,,,,,,,,,,,,,,,,,,,,,J7XM9F,train_x,blue_star,top_left,2025-07-17_16h09.20.491,HideSeek_v1,2022.2.5,59.91769708027705,
,3,6,7,6,4,0,21,,train_dim1_1,28,30,,,,2,0,2,0,,,,,,,,,0,0,0,0,0,27,27,27,1,0,1,0,,,,,,,,,,,,,,,,,,,,,,,,,,,,,,,,,,,,,,,,,,,,,,,,,,,,,,,,,,,,,,,,30,,,,,,,,1269.6794781000353,1269.6794781000353,1269.6794781000353,1269.6794781000353,1269.6794781000353,right,0.3928783000446856,5,0,0,99,0.24,0.08,right,0.31681849993765354,,,,,,,,,,,,,,,,,,,,,,,,,,,,,,,,,,,,,,,,,,,,,,,,,,,,,,,,,,,,J7XM9F,train_x,blue_star,top_left,2025-07-17_16h09.20.491,HideSeek_v1,2022.2.5,59.91769708027705,
,3,6,7,6,4,0,21,,train_dim1_1,28,30,,,,2,0,2,0,,,,,,,,,0,0,0,0,0,27,27,27,2,0,2,0,,,,,,,,,,,,,,,,,,,,,,,,,,,,,,,,,,,,,,,,,,,,,,,,,,,,,,,,,,,,,,,,30,,,,,,,,1270.0810631000204,1270.0810631000204,1270.0810631000204,1270.0810631000204,1270.0810631000204,right,0.7602955000475049,5,0,0,99,0.32,0.08,right,0.6668583999853581,,,,,,,,,,,,,,,,,,,,,,,,,,,,,,,,,,,,,,,,,,,,,,,,,,,,,,,,,,,,J7XM9F,train_x,blue_star,top_left,2025-07-17_16h09.20.491,HideSeek_v1,2022.2.5,59.91769708027705,
,3,6,7,6,4,0,21,,train_dim1_1,28,30,,,,2,0,2,0,,,,,,,,,0,0,0,0,0,27,27,27,3,0,3,0,,,,,,,,,,,,,,,,,,,,,,,,,,,,,,,,,,,,,,,,,,,,,,,,,,,,,,,,,,,,,,,,30,,,,,,,,1270.8469199000392,1270.8469199000392,1270.8469199000392,1270.8469199000392,1270.8469199000392,return,1.0937412000494078,5,1,0,0,0.32,0.08,return,1.0155597999691963,-1,72,0.32,0.08,,,,,,,,,,,,,,,,,,,,,,,,,,,,,,,,,,,,,,,,,,,,,,,,,,,,,,,,J7XM9F,train_x,blue_star,top_left,2025-07-17_16h09.20.491,HideSeek_v1,2022.2.5,59.91769708027705,
,4,5,5,5,1,0,51,,train_dim1_1,29,30,,,,2,0,2,0,,,,,,,,,0,0,0,0,0,28,28,28,0,0,0,0,,,,,,,,,,,,,,,,,,,,,,,,,stimuli/alien_stimuli/51.png,,,,,,,,,,,,,,,,,,,,,,,,,,,,,stimuli/alien_stimuli/21.png,21,3,30,,,,,,,30,,,,,,,,1276.5770938000642,1276.5770938000642,1276.5770938000642,1276.5770938000642,1276.5770938000642,right,0.4383035000646487,5,1,0,99,0.24,0,right,0.3293202999047935,,,,,1274.9997411000077,1276.5770938000642,0.4,0.08,0.0,0.32,0.08,0.4,0.24000000000000002,0.4,0.08,1273.5091658000601,1273.5091658000601,1273.5091658000601,1273.5091658000601,1273.5091658000601,1273.5091658000601,1273.5091658000601,1273.5091658000601,1273.4997890500354,1.6042672999901697,return,1.4719258999684826,,,,,,,,,,,,,,,,,,,,,,,,,,,,,,,,,J7XM9F,train_x,blue_star,top_left,2025-07-17_16h09.20.491,HideSeek_v1,2022.2.5,59.91769708027705,
,4,5,5,5,1,0,51,,train_dim1_1,29,30,,,,2,0,2,0,,,,,,,,,0,0,0,0,0,28,28,28,1,0,1,0,,,,,,,,,,,,,,,,,,,,,,,,,,,,,,,,,,,,,,,,,,,,,,,,,,,,,,,,,,,,,,,,30,,,,,,,,1277.0024010000052,1277.0024010000052,1277.0024010000052,1277.0024010000052,1277.0024010000052,return,1.6436150000663474,6,0,0,1,0.24,0,return,1.552443700027652,-1,73,0.24,0,,,,,,,,,,,,,,,,,,,,,,,,,,,,,,,,,,,,,,,,,,,,,,,,,,,,,,,,J7XM9F,train_x,blue_star,top_left,2025-07-17_16h09.20.491,HideSeek_v1,2022.2.5,59.91769708027705,
,2,7,7,7,5,0,11,,train_dim1_1,30,30,,,,2,0,2,0,,,,,,,,,0,0,0,0,0,29,29,29,0,0,0,0,,,,,,,,,,,,,,,,,,,,,,,,,stimuli/alien_stimuli/11.png,,,,,,,,,,,,,,,,,,,,,,,,,,,,,stimuli/alien_stimuli/51.png,51,4,31,,,,,,,30,,,,,,,,1283.0206088999985,1283.0206088999985,1283.0206088999985,1283.0206088999985,1283.0206088999985,right,0.9888484999537468,6,0,0,99,0.08,0.16,right,0.8740527000045404,,,,,1281.4383830999723,1283.0206088999985,0.24,0,0.0,0.08,0.0,0.24,0.2,0.24,0,1280.2107243000064,1280.2107243000064,1280.2107243000064,1280.2107243000064,1280.2107243000064,1280.2107243000064,1280.2107243000064,1280.2107243000064,1280.188514600019,1.337285800022073,return,1.2120696000056341,,,,,,,,,,,,,,,,,,,,,,,,,,,,,,,,,J7XM9F,train_x,blue_star,top_left,2025-07-17_16h09.20.491,HideSeek_v1,2022.2.5,59.91769708027705,
,2,7,7,7,5,0,11,,train_dim1_1,30,30,,,,2,0,2,0,,,,,,,,,0,0,0,0,0,29,29,29,1,0,1,0,,,,,,,,,,,,,,,,,,,,,,,,,,,,,,,,,,,,,,,,,,,,,,,,,,,,,,,,,,,,,,,,30,,,,,,,,1283.9921851999825,1283.9921851999825,1283.9921851999825,1283.9921851999825,1283.9921851999825,right,1.4101448999717832,6,0,0,99,0.16,0.16,right,1.3262610000092536,,,,,,,,,,,,,,,,,,,,,,,,,,,,,,,,,,,,,,,,,,,,,,,,,,,,,,,,,,,,J7XM9F,train_x,blue_star,top_left,2025-07-17_16h09.20.491,HideSeek_v1,2022.2.5,59.91769708027705,
,2,7,7,7,5,0,11,,train_dim1_1,30,30,,,,2,0,2,0,,,,,,,,,0,0,0,0,0,29,29,29,2,0,2,0,,,,,,,,,,,,,,,,,,,,,,,,,,,,,,,,,,,,,,,,,,,,,,,,,,,,,,,,,,,,,,,,30,,,,,,,,1285.408613900072,1285.408613900072,1285.408613900072,1285.408613900072,1285.408613900072,right,0.3932521999813616,6,0,0,99,0.24,0.16,right,0.3059867999982089,,,,,,,,,,,,,,,,,,,,,,,,,,,,,,,,,,,,,,,,,,,,,,,,,,,,,,,,,,,,J7XM9F,train_x,blue_star,top_left,2025-07-17_16h09.20.491,HideSeek_v1,2022.2.5,59.91769708027705,
,2,7,7,7,5,0,11,,train_dim1_1,30,30,,,,2,0,2,0,,,,,,,,,0,0,0,0,0,29,29,29,3,0,3,0,,,,,,,,,,,,,,,,,,,,,,,,,,,,,,,,,,,,,,,,,,,,,,,,,,,,,,,,,,,,,,,,30,,,,,,,,1285.8091530000092,1285.8091530000092,1285.8091530000092,1285.8091530000092,1285.8091530000092,right,0.5598922000499442,6,0,0,99,0.32,0.16,right,0.4796683000167832,,,,,,,,,,,,,,,,,,,,,,,,,,,,,,,,,,,,,,,,,,,,,,,,,,,,,,,,,,,,J7XM9F,train_x,blue_star,top_left,2025-07-17_16h09.20.491,HideSeek_v1,2022.2.5,59.91769708027705,
,2,7,7,7,5,0,11,,train_dim1_1,30,30,,,,2,0,2,0,,,,,,,,,0,0,0,0,0,29,29,29,4,0,4,0,,,,,,,,,,,,,,,,,,,,,,,,,,,,,,,,,,,,,,,,,,,,,,,,,,,,,,,,,,,,,,,,30,,,,,,,,1286.3772305999883,1286.3772305999883,1286.3772305999883,1286.3772305999883,1286.3772305999883,return,0.626894999993965,6,1,0,0,0.32,0.16,return,0.534437800059095,-1,77,0.32,0.16,,,,,,,,,,,,,,,,,,,,,,,,,,,,,,,,,,,,,,,,,,,,,,,,,,,,,,,,J7XM9F,train_x,blue_star,top_left,2025-07-17_16h09.20.491,HideSeek_v1,2022.2.5,59.91769708027705,
,,,,,,,,,,,30,,,,2,0,2,0,,,,,,,,,,,,,,,,,,,,,,,,,,,,,,,,,,,,,,,,,,,,,,,,,,,,,,,,,,,,,,,,,,,,,,,,,,stimuli/alien_stimuli/11.png,11,2,32,21,0.7,0.25,1,1,1,30,0,conditions/schedules/train_x_first/blue_star_00/top_left/inputTrain_2.1.xlsx,99,1,2,1,0,,,,,,,,,,,0,,,,,,,,,1290.5794479000615,1292.1370286999736,0.4,0.16,0.0,0.4,0.16,0.4,0.2,0.4,0.16,1288.5825840999605,1288.5825840999605,1288.5825840999605,1288.5825840999605,1288.5825840999605,1288.5825840999605,1288.5825840999605,1288.5825840999605,1288.5631602500334,2.119626499945298,return,1.979749400052242,0,0.9,0,1,6,,,,,,,,,,,,,,,,,,,,,,,,,,,,J7XM9F,train_x,blue_star,top_left,2025-07-17_16h09.20.491,HideSeek_v1,2022.2.5,59.91769708027705,
,,,,,,,,,,,,,,,3,0,3,0,0,0,0,0,,,,,,,,,,,,,,,,,,,,,,,,,,,,,,,conditions/schedules/train_x_first/blue_star_00/top_left/instructions/Slide17.png,conditions/schedules/train_x_first/blue_star_00/top_left/instructions/Audio17.wav,1292.1370286999736,1292.1314695000417,17,"[7.881268400000408, 18.515485899988562, 17.82974950002972, 19.453856999985874, 5.956359500065446, 8.07095749990549, 5.852806799928658, 12.023562100017443, 6.6721890000626445, 8.550852800020948, 10.770944299991243, 12.94273200002499, 18.781402399996296, 13.222150200046599, 31.78337449999526, 22.656611500075087, 32.31830429995898]","[0.00021279999054968357, 0.0651120999827981, 0.10444750008173287, 0.2011782000772655, 0.0652726999251172, 0.08154589997138828, 0.0802707999246195, 0.050150300026871264, 0.1302325000287965, 0.04855479998514056, 0.03161559998989105, 12.942738399957307, 0.030746600008569658, 13.222157399985008, 0.1542650000192225, 22.656618700013496, 32.31831120001152]",0,,,,,,,,,,,,,,,,,,,,,,,,,,,,,,,,,,,,,,,,,,,,,,,,,,,,,,,,,,,,,,,,,,,,,,,,,,,,,,,,,,,,,,,,,,,,,,,,,,,,,,,,,,,,,,,,,,,,,,,,,,,,J7XM9F,train_x,blue_star,top_left,2025-07-17_16h09.20.491,HideSeek_v1,2022.2.5,59.91769708027705,
,,,,,,,,,,,,,,,3,0,3,0,1,0,1,0,,,,,,,,,,,,,,,,,,,,,,,,,,,,,,,conditions/schedules/train_x_first/blue_star_00/top_left/instructions/Slide18.png,conditions/schedules/train_x_first/blue_star_00/top_left/instructions/Audio18.wav,1324.511707299971,1324.508404499991,18,"[7.881268400000408, 18.515485899988562, 17.82974950002972, 19.453856999985874, 5.956359500065446, 8.07095749990549, 5.852806799928658, 12.023562100017443, 6.6721890000626445, 8.550852800020948, 10.770944299991243, 12.94273200002499, 18.781402399996296, 13.222150200046599, 31.78337449999526, 22.656611500075087, 32.31830429995898, 7.249704899964854]","[0.00021279999054968357, 0.0651120999827981, 0.10444750008173287, 0.2011782000772655, 0.0652726999251172, 0.08154589997138828, 0.0802707999246195, 0.050150300026871264, 0.1302325000287965, 0.04855479998514056, 0.03161559998989105, 12.942738399957307, 0.030746600008569658, 13.222157399985008, 0.1542650000192225, 22.656618700013496, 0.04790409991983324, 7.249712499906309]",0,,,,,,,,,,,,,,,,,,,,,,,,,,,,,,,,,,,,,,,,,,,,,,,,,,,,,,,,,,,,,,,,,,,,,,,,,,,,,,,,,,,,,,,,,,,,,,,,,,,,,,,,,,,,,,,,,,,,,,,,,,,,J7XM9F,train_x,blue_star,top_left,2025-07-17_16h09.20.491,HideSeek_v1,2022.2.5,59.91769708027705,
,,,,,,,,,,,,,,,3,0,3,0,2,0,2,0,,,,,,,,,,,,,,,,,,,,,,,,,,,,,,,conditions/schedules/train_x_first/blue_star_00/top_left/instructions/Slide19.png,conditions/schedules/train_x_first/blue_star_00/top_left/instructions/Audio19.wav,1331.8012031000108,1331.7974925500341,19,"[7.881268400000408, 18.515485899988562, 17.82974950002972, 19.453856999985874, 5.956359500065446, 8.07095749990549, 5.852806799928658, 12.023562100017443, 6.6721890000626445, 8.550852800020948, 10.770944299991243, 12.94273200002499, 18.781402399996296, 13.222150200046599, 31.78337449999526, 22.656611500075087, 32.31830429995898, 7.249704899964854, 11.620101599954069]","[0.00021279999054968357, 0.0651120999827981, 0.10444750008173287, 0.2011782000772655, 0.0652726999251172, 0.08154589997138828, 0.0802707999246195, 0.050150300026871264, 0.1302325000287965, 0.04855479998514056, 0.03161559998989105, 12.942738399957307, 0.030746600008569658, 13.222157399985008, 0.1542650000192225, 22.656618700013496, 0.04790409991983324, 0.08201809995807707, 11.62010860000737]",0,,,,,,,,,,,,,,,,,,,,,,,,,,,,,,,,,,,,,,,,,,,,,,,,,,,,,,,,,,,,,,,,,,,,,,,,,,,,,,,,,,,,,,,,,,,,,,,,,,,,,,,,,,,,,,,,,,,,,,,,,,,,J7XM9F,train_x,blue_star,top_left,2025-07-17_16h09.20.491,HideSeek_v1,2022.2.5,59.91769708027705,
,,,,,,,,,,,,,,,3,0,3,0,3,0,3,0,,,,,,,,,,,,,,,,,,,,,,,,,,,,,,,conditions/schedules/train_x_first/blue_star_00/top_left/instructions/Slide20.png,conditions/schedules/train_x_first/blue_star_00/top_left/instructions/Audio20.wav,1343.4903152000625,1343.4911620500498,20,"[7.881268400000408, 18.515485899988562, 17.82974950002972, 19.453856999985874, 5.956359500065446, 8.07095749990549, 5.852806799928658, 12.023562100017443, 6.6721890000626445, 8.550852800020948, 10.770944299991243, 12.94273200002499, 18.781402399996296, 13.222150200046599, 31.78337449999526, 22.656611500075087, 32.31830429995898, 7.249704899964854, 11.620101599954069, 14.326302500092424]","[0.00021279999054968357, 0.0651120999827981, 0.10444750008173287, 0.2011782000772655, 0.0652726999251172, 0.08154589997138828, 0.0802707999246195, 0.050150300026871264, 0.1302325000287965, 0.04855479998514056, 0.03161559998989105, 12.942738399957307, 0.030746600008569658, 13.222157399985008, 0.1542650000192225, 22.656618700013496, 0.04790409991983324, 0.08201809995807707, 0.031295299995690584, 14.32630940002855]",0,,,,,,,,,,,,,,,,,,,,,,,,,,,,,,,,,,,,,,,,,,,,,,,,,,,,,,,,,,,,,,,,,,,,,,,,,,,,,,,,,,,,,,,,,,,,,,,,,,,,,,,,,,,,,,,,,,,,,,,,,,,,J7XM9F,train_x,blue_star,top_left,2025-07-17_16h09.20.491,HideSeek_v1,2022.2.5,59.91769708027705,
1,0,8,0,3,0,-5,66,2,instr_dim1_2,,,,,,3,0,3,0,,,,,0,0,0,0,,,,,,,,,,,,,,,,,,,,,,,,,,,,,,,,,,,,,stimuli/alien_stimuli/66.png,conditions/schedules/train_x_first/blue_star_00/top_left/inputInstr_2.xlsx,stimuli/alien_stimuli/66.png,1357.9115915000439,1357.9115915000439,1357.9115915000439,1357.9115915000439,1357.9033682000359,return,6.900297099957243,"[-0.16, -0.08, 0, 0.08, 0.16, 0.24, 0.32, 0.4, 0.48, 0.56]","[-0.4, -0.32, -0.24, -0.16, -0.08, 0, 0.08, 0.16, 0.24, 0.32]",3,8,0,0,0.4,0.0,1364.9678319999948,1364.9678319999948,1364.9678319999948,1364.9678319999948,1364.9678319999948,1364.9678319999948,1364.9678319999948,1364.959676600108,8.407636999967508,return,8.256218299968168,stimuli/alien_stimuli/66.png,66,0,1,,,,,,,,,,,,,,,,,,,,,,,,,,,,,,,,,,,,,,,,,,,,,,,,,,,,,,,,,,,,,,,,,,,,,,,,,,,,,,,,,,,,,,,,,J7XM9F,train_x,blue_star,top_left,2025-07-17_16h09.20.491,HideSeek_v1,2022.2.5,59.91769708027705,
,,,,,,,,,,,30,,,,3,0,3,0,,,,,,,,,,,,,,,,,,,,,,,,,,,,,,,,,,,,,,,,,,,,,,,,,,,,,,,,,,,,,,,,,,,,,,,,,,,,,,21,0.7,0.25,1,99,2,30,0,conditions/schedules/train_x_first/blue_star_00/top_left/inputTrain_2.1.xlsx,99,1,2,1,0,,,,,,,,,,,,,,,,,,,,,,,,,,,,,,,,,,,,,,,,,,,,,,,,,,,,,,,,,,,,,,,,,,,,,,,,,,,J7XM9F,train_x,blue_star,top_left,2025-07-17_16h09.20.491,HideSeek_v1,2022.2.5,59.91769708027705,
,,,,,,,,,,,,,,,4,0,4,0,0,0,0,0,,,,,,,,,,,,,,,,,,,,,,,,,,,,,,,conditions/schedules/train_x_first/blue_star_00/top_left/instructions/Slide21.png,conditions/schedules/train_x_first/blue_star_00/top_left/instructions/Audio21.wav,1373.3974596000044,1373.4000055000652,21,"[7.881268400000408, 18.515485899988562, 17.82974950002972, 19.453856999985874, 5.956359500065446, 8.07095749990549, 5.852806799928658, 12.023562100017443, 6.6721890000626445, 8.550852800020948, 10.770944299991243, 12.94273200002499, 18.781402399996296, 13.222150200046599, 31.78337449999526, 22.656611500075087, 32.31830429995898, 7.249704899964854, 11.620101599954069, 14.326302500092424, 17.179385100025684]","[0.00021279999054968357, 0.0651120999827981, 0.10444750008173287, 0.2011782000772655, 0.0652726999251172, 0.08154589997138828, 0.0802707999246195, 0.050150300026871264, 0.1302325000287965, 0.04855479998514056, 0.03161559998989105, 12.942738399957307, 0.030746600008569658, 13.222157399985008, 0.1542650000192225, 22.656618700013496, 0.04790409991983324, 0.08201809995807707, 0.031295299995690584, 14.32630940002855, 17.179392000078224]",0,,,,,,,,,,,,,,,,,,,,,,,,,,,,,,,,,,,,,,,,,,,,,,,,,,,,,,,,,,,,,,,,,,,,,,,,,,,,,,,,,,,,,,,,,,,,,,,,,,,,,,,,,,,,,,,,,,,,,,,,,,,,J7XM9F,train_x,blue_star,top_left,2025-07-17_16h09.20.491,HideSeek_v1,2022.2.5,59.91769708027705,
2,2,8,2,8,0,0,61,2,instr_dim1_2,,,,,,4,0,4,0,,,,,0,0,0,0,,,,,,,,,,,,,,,,,,,,,,,,,,,,,,,,,,,,,stimuli/alien_stimuli/61.png,conditions/schedules/train_x_first/blue_star_00/top_left/inputInstr_2.xlsx,stimuli/alien_stimuli/61.png,1390.668465499999,1390.668465499999,1390.668465499999,1390.668465499999,1390.6639266001062,return,6.43110470008105,"[-0.16, -0.08, 0, 0.08, 0.16, 0.24, 0.32, 0.4, 0.48, 0.56]","[-0.4, -0.32, -0.24, -0.16, -0.08, 0, 0.08, 0.16, 0.24, 0.32]",8,8,2,2,0.0,0.0,1397.2449658999685,1397.2449658999685,1397.2449658999685,1397.2449658999685,1397.2449658999685,1397.2449658999685,1397.2449658999685,1397.2361630000407,5.505698100081645,return,5.349625200033188,stimuli/alien_stimuli/61.png,61,2,2,,,,,,,,,,,,,,,,,,,,,,,,,,,,,,,,,,,,,,,,,,,,,,,,,,,,,,,,,,,,,,,,,,,,,,,,,,,,,,,,,,,,,,,,,J7XM9F,train_x,blue_star,top_left,2025-07-17_16h09.20.491,HideSeek_v1,2022.2.5,59.91769708027705,
,,,,,,,,,,,30,,,,4,0,4,0,,,,,,,,,,,,,,,,,,,,,,,,,,,,,,,,,,,,,,,,,,,,,,,,,,,,,,,,,,,,,,,,,,,,,,,,,,,,,,21,0.7,0.25,1,99,2,30,0,conditions/schedules/train_x_first/blue_star_00/top_left/inputTrain_2.1.xlsx,99,1,2,1,0,,,,,,,,,,,,,,,,,,,,,,,,,,,,,,,,,,,,,,,,,,,,,,,,,,,,,,,,,,,,,,,,,,,,,,,,,,,J7XM9F,train_x,blue_star,top_left,2025-07-17_16h09.20.491,HideSeek_v1,2022.2.5,59.91769708027705,
,,,,,,,,,,,,,,,5,0,5,0,0,0,0,0,,,,,,,,,,,,,,,,,,,,,,,,,,,,,,,conditions/schedules/train_x_first/blue_star_00/top_left/instructions/Slide22.png,conditions/schedules/train_x_first/blue_star_00/top_left/instructions/Audio22.wav,1402.7768784000073,1402.7747466000728,22,"[7.881268400000408, 18.515485899988562, 17.82974950002972, 19.453856999985874, 5.956359500065446, 8.07095749990549, 5.852806799928658, 12.023562100017443, 6.6721890000626445, 8.550852800020948, 10.770944299991243, 12.94273200002499, 18.781402399996296, 13.222150200046599, 31.78337449999526, 22.656611500075087, 32.31830429995898, 7.249704899964854, 11.620101599954069, 14.326302500092424, 17.179385100025684, 44.79773540003225]","[0.00021279999054968357, 0.0651120999827981, 0.10444750008173287, 0.2011782000772655, 0.0652726999251172, 0.08154589997138828, 0.0802707999246195, 0.050150300026871264, 0.1302325000287965, 0.04855479998514056, 0.03161559998989105, 12.942738399957307, 0.030746600008569658, 13.222157399985008, 0.1542650000192225, 22.656618700013496, 0.04790409991983324, 0.08201809995807707, 0.031295299995690584, 14.32630940002855, 17.179392000078224, 44.79774220008403]",0,,,,,,,,,,,,,,,,,,,,,,,,,,,,,,,,,,,,,,,,,,,,,,,,,,,,,,,,,,,,,,,,,,,,,,,,,,,,,,,,,,,,,,,,,,,,,,,,,,,,,,,,,,,,,,,,,,,,,,,,,,,,J7XM9F,train_x,blue_star,top_left,2025-07-17_16h09.20.491,HideSeek_v1,2022.2.5,59.91769708027705,
,0,5,0,1,0,-4,65,,train_dim1_2,1,30,,,,5,0,5,0,,,,,,,,,0,0,0,0,0,0,0,0,0,0,0,0,,,,,,,,,,,,,,,,,,,,,,,,,stimuli/alien_stimuli/65.png,,,,,,,,,,,,,,,,,,,,,,,,,,,,,,,,,,,,,,,30,,,,,,,,1447.6834791,1447.6834791,1447.6834791,1447.6834791,1447.6834791,down,3.763543999986723,0,1,0,99,-0.16,-0.08,down,3.6529459999874234,,,,,,,,,,,,,,,,,,,,,,,,,,,,,,,,,,,,,,,,,,,,,,,,,,,,,,,,,,,,J7XM9F,train_x,blue_star,top_left,2025-07-17_16h09.20.491,HideSeek_v1,2022.2.5,59.91769708027705,
,0,5,0,1,0,-4,65,,train_dim1_2,1,30,,,,5,0,5,0,,,,,,,,,0,0,0,0,0,0,0,0,1,0,1,0,,,,,,,,,,,,,,,,,,,,,,,,,,,,,,,,,,,,,,,,,,,,,,,,,,,,,,,,,,,,,,,,30,,,,,,,,1451.4270460000262,1451.4270460000262,1451.4270460000262,1451.4270460000262,1451.4270460000262,down,0.8596434999490157,0,1,0,99,-0.16,-0.16,down,0.7730560000054538,,,,,,,,,,,,,,,,,,,,,,,,,,,,,,,,,,,,,,,,,,,,,,,,,,,,,,,,,,,,J7XM9F,train_x,blue_star,top_left,2025-07-17_16h09.20.491,HideSeek_v1,2022.2.5,59.91769708027705,
,0,5,0,1,0,-4,65,,train_dim1_2,1,30,,,,5,0,5,0,,,,,,,,,0,0,0,0,0,0,0,0,2,0,2,0,,,,,,,,,,,,,,,,,,,,,,,,,,,,,,,,,,,,,,,,,,,,,,,,,,,,,,,,,,,,,,,,30,,,,,,,,1452.2935803000582,1452.2935803000582,1452.2935803000582,1452.2935803000582,1452.2935803000582,down,0.6268932999810204,0,1,0,99,-0.16,-0.24,down,0.547988299978897,,,,,,,,,,,,,,,,,,,,,,,,,,,,,,,,,,,,,,,,,,,,,,,,,,,,,,,,,,,,J7XM9F,train_x,blue_star,top_left,2025-07-17_16h09.20.491,HideSeek_v1,2022.2.5,59.91769708027705,
,0,5,0,1,0,-4,65,,train_dim1_2,1,30,,,,5,0,5,0,,,,,,,,,0,0,0,0,0,0,0,0,3,0,3,0,,,,,,,,,,,,,,,,,,,,,,,,,,,,,,,,,,,,,,,,,,,,,,,,,,,,,,,,,,,,,,,,30,,,,,,,,1452.927329499973,1452.927329499973,1452.927329499973,1452.927329499973,1452.927329499973,down,0.5434891999466345,0,1,0,99,-0.16,-0.32,down,0.46748730004765093,,,,,,,,,,,,,,,,,,,,,,,,,,,,,,,,,,,,,,,,,,,,,,,,,,,,,,,,,,,,J7XM9F,train_x,blue_star,top_left,2025-07-17_16h09.20.491,HideSeek_v1,2022.2.5,59.91769708027705,
,0,5,0,1,0,-4,65,,train_dim1_2,1,30,,,,5,0,5,0,,,,,,,,,0,0,0,0,0,0,0,0,4,0,4,0,,,,,,,,,,,,,,,,,,,,,,,,,,,,,,,,,,,,,,,,,,,,,,,,,,,,,,,,,,,,,,,,30,,,,,,,,1453.4786069999682,1453.4786069999682,1453.4786069999682,1453.4786069999682,1453.4786069999682,down,0.560105700045824,0,1,0,99,-0.16,-0.4,down,0.4729081999976188,,,,,,,,,,,,,,,,,,,,,,,,,,,,,,,,,,,,,,,,,,,,,,,,,,,,,,,,,,,,J7XM9F,train_x,blue_star,top_left,2025-07-17_16h09.20.491,HideSeek_v1,2022.2.5,59.91769708027705,
,0,5,0,1,0,-4,65,,train_dim1_2,1,30,,,,5,0,5,0,,,,,,,,,0,0,0,0,0,0,0,0,5,0,5,0,,,,,,,,,,,,,,,,,,,,,,,,,,,,,,,,,,,,,,,,,,,,,,,,,,,,,,,,,,,,,,,,30,,,,,,,,1454.0465139000444,1454.0465139000444,1454.0465139000444,1454.0465139000444,1454.0465139000444,return,0.8440111000090837,0,1,0,0,-0.16,-0.4,return,0.7551045999862254,-6,77,-0.16,-0.4,,,,,,,,,,,,,,,,,,,,,,,,,,,,,,,,,,,,,,,,,,,,,,,,,,,,,,,,J7XM9F,train_x,blue_star,top_left,2025-07-17_16h09.20.491,HideSeek_v1,2022.2.5,59.91769708027705,
,3,7,3,2,0,-5,66,,train_dim1_2,2,30,,,,5,0,5,0,,,,,,,,,0,0,0,0,0,1,1,1,0,0,0,0,,,,,,,,,,,,,,,,,,,,,,,,,stimuli/alien_stimuli/66.png,,,,,,,,,,,,,,,,,,,,,,,,,,,,,stimuli/alien_stimuli/65.png,65,0,3,,,,,,,30,,,,,,,,1461.0065292000072,1461.0065292000072,1461.0065292000072,1461.0065292000072,1461.0065292000072,down,1.84069520002231,0,1,0,99,0.08,0.08,down,1.7618391000432894,,,,,1459.4532973000314,1461.0065292000072,-0.16,-0.32,0.32,0.0,-0.16,-0.16,-0.16,-0.16,-0.32,1456.451748899999,1456.451748899999,1456.451748899999,1456.451748899999,1456.451748899999,1456.451748899999,1456.451748899999,1456.451748899999,1456.4353145000991,3.104893899988383,return,2.9715696000494063,,,,,,,,,,,,,,,,,,,,,,,,,,,,,,,,,J7XM9F,train_x,blue_star,top_left,2025-07-17_16h09.20.491,HideSeek_v1,2022.2.5,59.91769708027705,
,3,7,3,2,0,-5,66,,train_dim1_2,2,30,,,,5,0,5,0,,,,,,,,,0,0,0,0,0,1,1,1,1,0,1,0,,,,,,,,,,,,,,,,,,,,,,,,,,,,,,,,,,,,,,,,,,,,,,,,,,,,,,,,,,,,,,,,30,,,,,,,,1462.8535065000178,1462.8535065000178,1462.8535065000178,1462.8535065000178,1462.8535065000178,down,0.3594601000659168,0,1,0,99,0.08,0.0,down,0.27545249997638166,,,,,,,,,,,,,,,,,,,,,,,,,,,,,,,,,,,,,,,,,,,,,,,,,,,,,,,,,,,,J7XM9F,train_x,blue_star,top_left,2025-07-17_16h09.20.491,HideSeek_v1,2022.2.5,59.91769708027705,
,3,7,3,2,0,-5,66,,train_dim1_2,2,30,,,,5,0,5,0,,,,,,,,,0,0,0,0,0,1,1,1,2,0,2,0,,,,,,,,,,,,,,,,,,,,,,,,,,,,,,,,,,,,,,,,,,,,,,,,,,,,,,,,,,,,,,,,30,,,,,,,,1463.219083999982,1463.219083999982,1463.219083999982,1463.219083999982,1463.219083999982,down,0.29280229995492846,0,1,0,99,0.08,-0.08,down,0.21423759998288006,,,,,,,,,,,,,,,,,,,,,,,,,,,,,,,,,,,,,,,,,,,,,,,,,,,,,,,,,,,,J7XM9F,train_x,blue_star,top_left,2025-07-17_16h09.20.491,HideSeek_v1,2022.2.5,59.91769708027705,
,3,7,3,2,0,-5,66,,train_dim1_2,2,30,,,,5,0,5,0,,,,,,,,,0,0,0,0,0,1,1,1,3,0,3,0,,,,,,,,,,,,,,,,,,,,,,,,,,,,,,,,,,,,,,,,,,,,,,,,,,,,,,,,,,,,,,,,30,,,,,,,,1463.5213520000689,1463.5213520000689,1463.5213520000689,1463.5213520000689,1463.5213520000689,down,0.3260966999223456,0,1,0,99,0.08,-0.16,down,0.24572689994238317,,,,,,,,,,,,,,,,,,,,,,,,,,,,,,,,,,,,,,,,,,,,,,,,,,,,,,,,,,,,J7XM9F,train_x,blue_star,top_left,2025-07-17_16h09.20.491,HideSeek_v1,2022.2.5,59.91769708027705,
,3,7,3,2,0,-5,66,,train_dim1_2,2,30,,,,5,0,5,0,,,,,,,,,0,0,0,0,0,1,1,1,4,0,4,0,,,,,,,,,,,,,,,,,,,,,,,,,,,,,,,,,,,,,,,,,,,,,,,,,,,,,,,,,,,,,,,,30,,,,,,,,1463.854138600058,1463.854138600058,1463.854138600058,1463.854138600058,1463.854138600058,down,0.5434822000097483,0,1,0,99,0.08,-0.24,down,0.46903509995900095,,,,,,,,,,,,,,,,,,,,,,,,,,,,,,,,,,,,,,,,,,,,,,,,,,,,,,,,,,,,J7XM9F,train_x,blue_star,top_left,2025-07-17_16h09.20.491,HideSeek_v1,2022.2.5,59.91769708027705,
,3,7,3,2,0,-5,66,,train_dim1_2,2,30,,,,5,0,5,0,,,,,,,,,0,0,0,0,0,1,1,1,5,0,5,0,,,,,,,,,,,,,,,,,,,,,,,,,,,,,,,,,,,,,,,,,,,,,,,,,,,,,,,,,,,,,,,,30,,,,,,,,1464.4047569000395,1464.4047569000395,1464.4047569000395,1464.4047569000395,1464.4047569000395,down,0.19318389997351915,0,1,0,99,0.08,-0.32,down,0.10496439994312823,,,,,,,,,,,,,,,,,,,,,,,,,,,,,,,,,,,,,,,,,,,,,,,,,,,,,,,,,,,,J7XM9F,train_x,blue_star,top_left,2025-07-17_16h09.20.491,HideSeek_v1,2022.2.5,59.91769708027705,
