trialInstr,x_fixStart,y_fixStart,x_corrSteps,y_corrSteps,x_nrSteps,y_nrSteps,alienID,trialLength,version,trialTrain,praclen,testlen,trial_label,break_on_off,beforeExpLoop.thisRepN,beforeExpLoop.thisTrialN,beforeExpLoop.thisN,beforeExpLoop.thisIndex,mini_instr_trials.thisRepN,mini_instr_trials.thisTrialN,mini_instr_trials.thisN,mini_instr_trials.thisIndex,instrLoop.thisRepN,instrLoop.thisTrialN,instrLoop.thisN,instrLoop.thisIndex,repeat_prac.thisRepN,repeat_prac.thisTrialN,repeat_prac.thisN,repeat_prac.thisIndex,trainLoop.thisRepN,trainLoop.thisTrialN,trainLoop.thisN,trainLoop.thisIndex,moveLoop_train.thisRepN,moveLoop_train.thisTrialN,moveLoop_train.thisN,moveLoop_train.thisIndex,experiment.thisRepN,experiment.thisTrialN,experiment.thisN,experiment.thisIndex,moveLoop_test.thisRepN,moveLoop_test.thisTrialN,moveLoop_test.thisN,moveLoop_test.thisIndex,mini_instr2_trials.thisRepN,mini_instr2_trials.thisTrialN,mini_instr2_trials.thisN,mini_instr2_trials.thisIndex,start_all_time,url,slideStim,audioStim,slides.started,sounds.started,nextButton.numClicks,nextButton.timesOn,nextButton.timesOff,prev_but.numClicks,prev_but.timesOn,prev_but.timesOff,alienStim,instrFile,alienStim_instr,gridImage_instr.started,startPos_3.started,key_instr.started,alienImage_3.started,sounds_1.started,key_instr.keys,key_instr.rt,all_x,all_y,FBy_corrSteps,FBy_fixStart,FBx_corrSteps,FBx_fixStart,FBy_pathSize_check,FBx_pathSize_check,gridImage_9.started,alienImageFB_3.started,startPosFB_3.started,keyFB_3.started,pathLine_ydir_2.started,pathLine_xdir_2.started,alienFace_3.started,sounds_2.started,RTFB_instr,keyFB_3.keys,keyFB_3.rt,draw_alienStim,draw_alienID,test_x,nrepcount,perfthres,percthres,earlierperf,earlystop,nextPrac,fileidx,praclen,saveACC_train,pracFile,nextPrac_train,addNrep,fileidx_endr,repExp,showearly,gridImage_4.started,startPos.started,movePos.started,key_resp.started,alienImage.started,buttonPress_train,RTchoice_train,cumAcctrain,aCorr,saveACC_choice,corrAns,x_movePos_end,y_movePos_end,key_resp.keys,key_resp.rt,wLy_dir,wLx_dir,x_movePos,y_movePos,text_2.started,text_2.stopped,aft_x_corrPos,aft_y_corrPos,y_pathSize_check,x_pathSize_check,y_pathdirY,x_pathdirY,x_pathdirX,x_corrPos,y_corrPos,gridImage_6.started,alienImageFB_2.started,startPosFB_2.started,movePosFB_2.started,keyFB_2.started,pathLine_xdir.started,pathLine_ydir.started,alienFace.started,sounds_4.started,RT_FBtrain,keyFB_2.keys,keyFB_2.rt,saveACC_pre,ACC,within_saveACC_train,earlystop_wloop,cumAcctrain_check,gridImage_3.started,alienImage_test.started,startPos_test.started,movePos_test.started,key_resp_test.started,wLy_dir_test,wLx_dir_test,buttonPress_test,RTchoice_test,cumAcctest,corrAns_test,key_resp_test.keys,key_resp_test.rt,text_3.started,text_3.stopped,total_time,end_all_time,key_resp_3.keys,slides_2.started,sounds_3.started,nextButton_2.numClicks,nextButton_2.timesOn,nextButton_2.timesOff,prev_but_2.numClicks,prev_but_2.timesOn,prev_but_2.timesOff,bye.started,participant,train_first,00_coordinate,starting corner,date,expName,psychopyVersion,frameRate,
,,,,,,,,,,,,,,,0,0,0,0,0,0,0,0,,,,,,,,,,,,,,,,,,,,,,,,,,,,,start_all_time,testround,conditions/schedules/train_y_first/blue_star_00/bottom_right/instructions/Slide1.png,conditions/schedules/train_y_first/blue_star_00/bottom_right/instructions/Audio1.wav,600.644236900378,600.5870365916752,1,[4.408976799808443],[4.408985999878496],0,,,,,,,,,,,,,,,,,,,,,,,,,,,,,,,,,,,,,,,,,,,,,,,,,,,,,,,,,,,,,,,,,,,,,,,,,,,,,,,,,,,,,,,,,,,,,,,,,,,,,,,,,,,,,,,,,,,,,,,,,,,,JDJK0V,train_y,blue_star,bottom_right,2025-02-20_16h52.25.963,HideSeek_v1,2022.2.5,59.86790739117194,
,,,,,,,,,,,,,,,0,0,0,0,1,0,1,0,,,,,,,,,,,,,,,,,,,,,,,,,,,,,,,conditions/schedules/train_y_first/blue_star_00/bottom_right/instructions/Slide2.png,conditions/schedules/train_y_first/blue_star_00/bottom_right/instructions/Audio2.wav,605.0762196001597,605.0748962503858,2,"[4.408976799808443, 18.094884200021625]","[0.014511799905449152, 18.094890600070357]",0,,,,,,,,,,,,,,,,,,,,,,,,,,,,,,,,,,,,,,,,,,,,,,,,,,,,,,,,,,,,,,,,,,,,,,,,,,,,,,,,,,,,,,,,,,,,,,,,,,,,,,,,,,,,,,,,,,,,,,,,,,,,JDJK0V,train_y,blue_star,bottom_right,2025-02-20_16h52.25.963,HideSeek_v1,2022.2.5,59.86790739117194,
,,,,,,,,,,,,,,,0,0,0,0,2,0,2,0,,,,,,,,,,,,,,,,,,,,,,,,,,,,,,,conditions/schedules/train_y_first/blue_star_00/bottom_right/instructions/Slide3.png,conditions/schedules/train_y_first/blue_star_00/bottom_right/instructions/Audio3.wav,623.2472554002889,623.2399803502485,3,"[4.408976799808443, 18.094884200021625, 16.720962699968368]","[0.014511799905449152, 0.014134700410068035, 16.72097050026059]",0,,,,,,,,,,,,,,,,,,,,,,,,,,,,,,,,,,,,,,,,,,,,,,,,,,,,,,,,,,,,,,,,,,,,,,,,,,,,,,,,,,,,,,,,,,,,,,,,,,,,,,,,,,,,,,,,,,,,,,,,,,,,JDJK0V,train_y,blue_star,bottom_right,2025-02-20_16h52.25.963,HideSeek_v1,2022.2.5,59.86790739117194,
,,,,,,,,,,,,,,,0,0,0,0,3,0,3,0,,,,,,,,,,,,,,,,,,,,,,,,,,,,,,,conditions/schedules/train_y_first/blue_star_00/bottom_right/instructions/Slide4.png,conditions/schedules/train_y_first/blue_star_00/bottom_right/instructions/Audio4.wav,640.0412516002543,640.0372632499784,4,"[4.408976799808443, 18.094884200021625, 16.720962699968368, 19.426067399792373]","[0.014511799905449152, 0.014134700410068035, 0.014243799727410078, 19.426073799841106]",0,,,,,,,,,,,,,,,,,,,,,,,,,,,,,,,,,,,,,,,,,,,,,,,,,,,,,,,,,,,,,,,,,,,,,,,,,,,,,,,,,,,,,,,,,,,,,,,,,,,,,,,,,,,,,,,,,,,,,,,,,,,,JDJK0V,train_y,blue_star,bottom_right,2025-02-20_16h52.25.963,HideSeek_v1,2022.2.5,59.86790739117194,
,,,,,,,,,,,,,,,0,0,0,0,4,0,4,0,,,,,,,,,,,,,,,,,,,,,,,,,,,,,,,conditions/schedules/train_y_first/blue_star_00/bottom_right/instructions/Slide5.png,conditions/schedules/train_y_first/blue_star_00/bottom_right/instructions/Audio5.wav,659.5395842003636,659.5364977503195,5,"[4.408976799808443, 18.094884200021625, 16.720962699968368, 19.426067399792373, 4.381683100014925]","[0.014511799905449152, 0.014134700410068035, 0.014243799727410078, 0.07865269994363189, 4.381690400186926]",0,,,,,,,,,,,,,,,,,,,,,,,,,,,,,,,,,,,,,,,,,,,,,,,,,,,,,,,,,,,,,,,,,,,,,,,,,,,,,,,,,,,,,,,,,,,,,,,,,,,,,,,,,,,,,,,,,,,,,,,,,,,,JDJK0V,train_y,blue_star,bottom_right,2025-02-20_16h52.25.963,HideSeek_v1,2022.2.5,59.86790739117194,
,,,,,,,,,,,,,,,0,0,0,0,5,0,5,0,,,,,,,,,,,,,,,,,,,,,,,,,,,,,,,conditions/schedules/train_y_first/blue_star_00/bottom_right/instructions/Slide6.png,conditions/schedules/train_y_first/blue_star_00/bottom_right/instructions/Audio6.wav,663.9733135001734,663.9737141399645,6,"[4.408976799808443, 18.094884200021625, 16.720962699968368, 19.426067399792373, 4.381683100014925, 4.7187009998597205]","[0.014511799905449152, 0.014134700410068035, 0.014243799727410078, 0.07865269994363189, 0.06520149996504188, 4.718708700034767]",0,,,,,,,,,,,,,,,,,,,,,,,,,,,,,,,,,,,,,,,,,,,,,,,,,,,,,,,,,,,,,,,,,,,,,,,,,,,,,,,,,,,,,,,,,,,,,,,,,,,,,,,,,,,,,,,,,,,,,,,,,,,,JDJK0V,train_y,blue_star,bottom_right,2025-02-20_16h52.25.963,HideSeek_v1,2022.2.5,59.86790739117194,
,,,,,,,,,,,,,,,0,0,0,0,6,0,6,0,,,,,,,,,,,,,,,,,,,,,,,,,,,,,,,conditions/schedules/train_y_first/blue_star_00/bottom_right/instructions/Slide7.png,conditions/schedules/train_y_first/blue_star_00/bottom_right/instructions/Audio7.wav,668.7424004999921,668.7442849401385,7,"[4.408976799808443, 18.094884200021625, 16.720962699968368, 19.426067399792373, 4.381683100014925, 4.7187009998597205, 5.620693000033498]","[0.014511799905449152, 0.014134700410068035, 0.014243799727410078, 0.07865269994363189, 0.06520149996504188, 0.09948380012065172, 5.6206996999681]",0,,,,,,,,,,,,,,,,,,,,,,,,,,,,,,,,,,,,,,,,,,,,,,,,,,,,,,,,,,,,,,,,,,,,,,,,,,,,,,,,,,,,,,,,,,,,,,,,,,,,,,,,,,,,,,,,,,,,,,,,,,,,JDJK0V,train_y,blue_star,bottom_right,2025-02-20_16h52.25.963,HideSeek_v1,2022.2.5,59.86790739117194,
,,,,,,,,,,,,,,,0,0,0,0,7,0,7,0,,,,,,,,,,,,,,,,,,,,,,,,,,,,,,,conditions/schedules/train_y_first/blue_star_00/bottom_right/instructions/Slide8.png,conditions/schedules/train_y_first/blue_star_00/bottom_right/instructions/Audio8.wav,674.4354077000171,674.4325168500654,8,"[4.408976799808443, 18.094884200021625, 16.720962699968368, 19.426067399792373, 4.381683100014925, 4.7187009998597205, 5.620693000033498, 11.870837999973446]","[0.014511799905449152, 0.014134700410068035, 0.014243799727410078, 0.07865269994363189, 0.06520149996504188, 0.09948380012065172, 0.047877199947834015, 11.870846299920231]",0,,,,,,,,,,,,,,,,,,,,,,,,,,,,,,,,,,,,,,,,,,,,,,,,,,,,,,,,,,,,,,,,,,,,,,,,,,,,,,,,,,,,,,,,,,,,,,,,,,,,,,,,,,,,,,,,,,,,,,,,,,,,JDJK0V,train_y,blue_star,bottom_right,2025-02-20_16h52.25.963,HideSeek_v1,2022.2.5,59.86790739117194,
,,,,,,,,,,,,,,,0,0,0,0,8,0,8,0,,,,,,,,,,,,,,,,,,,,,,,,,,,,,,,conditions/schedules/train_y_first/blue_star_00/bottom_right/instructions/Slide9.png,conditions/schedules/train_y_first/blue_star_00/bottom_right/instructions/Audio9.wav,686.3801760999486,686.3754417500459,9,"[4.408976799808443, 18.094884200021625, 16.720962699968368, 19.426067399792373, 4.381683100014925, 4.7187009998597205, 5.620693000033498, 11.870837999973446, 6.314344400074333]","[0.014511799905449152, 0.014134700410068035, 0.014243799727410078, 0.07865269994363189, 0.06520149996504188, 0.09948380012065172, 0.047877199947834015, 0.07721110014244914, 6.314357300288975]",0,,,,,,,,,,,,,,,,,,,,,,,,,,,,,,,,,,,,,,,,,,,,,,,,,,,,,,,,,,,,,,,,,,,,,,,,,,,,,,,,,,,,,,,,,,,,,,,,,,,,,,,,,,,,,,,,,,,,,,,,,,,,JDJK0V,train_y,blue_star,bottom_right,2025-02-20_16h52.25.963,HideSeek_v1,2022.2.5,59.86790739117194,
,,,,,,,,,,,,,,,0,0,0,0,9,0,9,0,,,,,,,,,,,,,,,,,,,,,,,,,,,,,,,conditions/schedules/train_y_first/blue_star_00/bottom_right/instructions/Slide10.png,conditions/schedules/train_y_first/blue_star_00/bottom_right/instructions/Audio10.wav,692.7495584003627,692.746981640067,10,"[4.408976799808443, 18.094884200021625, 16.720962699968368, 19.426067399792373, 4.381683100014925, 4.7187009998597205, 5.620693000033498, 11.870837999973446, 6.314344400074333, 7.03384040016681]","[0.014511799905449152, 0.014134700410068035, 0.014243799727410078, 0.07865269994363189, 0.06520149996504188, 0.09948380012065172, 0.047877199947834015, 0.07721110014244914, 0.110723199788481, 7.033847500104457]",0,,,,,,,,,,,,,,,,,,,,,,,,,,,,,,,,,,,,,,,,,,,,,,,,,,,,,,,,,,,,,,,,,,,,,,,,,,,,,,,,,,,,,,,,,,,,,,,,,,,,,,,,,,,,,,,,,,,,,,,,,,,,JDJK0V,train_y,blue_star,bottom_right,2025-02-20_16h52.25.963,HideSeek_v1,2022.2.5,59.86790739117194,
,,,,,,,,,,,,,,,0,0,0,0,10,0,10,0,,,,,,,,,,,,,,,,,,,,,,,,,,,,,,,conditions/schedules/train_y_first/blue_star_00/bottom_right/instructions/Slide11.png,conditions/schedules/train_y_first/blue_star_00/bottom_right/instructions/Audio11.wav,699.8425316000357,699.8368532403373,11,"[4.408976799808443, 18.094884200021625, 16.720962699968368, 19.426067399792373, 4.381683100014925, 4.7187009998597205, 5.620693000033498, 11.870837999973446, 6.314344400074333, 7.03384040016681, 10.45049409987405]","[0.014511799905449152, 0.014134700410068035, 0.014243799727410078, 0.07865269994363189, 0.06520149996504188, 0.09948380012065172, 0.047877199947834015, 0.07721110014244914, 0.110723199788481, 0.06421450013294816, 10.450502200052142]",0,,,,,,,,,,,,,,,,,,,,,,,,,,,,,,,,,,,,,,,,,,,,,,,,,,,,,,,,,,,,,,,,,,,,,,,,,,,,,,,,,,,,,,,,,,,,,,,,,,,,,,,,,,,,,,,,,,,,,,,,,,,,JDJK0V,train_y,blue_star,bottom_right,2025-02-20_16h52.25.963,HideSeek_v1,2022.2.5,59.86790739117194,
,,,,,,,,,,,,,,,0,0,0,0,11,0,11,0,,,,,,,,,,,,,,,,,,,,,,,,,,,,,,,conditions/schedules/train_y_first/blue_star_00/bottom_right/instructions/Slide12.png,conditions/schedules/train_y_first/blue_star_00/bottom_right/instructions/Audio12.wav,710.3670362001285,710.3624128503725,12,"[4.408976799808443, 18.094884200021625, 16.720962699968368, 19.426067399792373, 4.381683100014925, 4.7187009998597205, 5.620693000033498, 11.870837999973446, 6.314344400074333, 7.03384040016681, 10.45049409987405, 13.65359800029546]","[0.014511799905449152, 0.014134700410068035, 0.014243799727410078, 0.07865269994363189, 0.06520149996504188, 0.09948380012065172, 0.047877199947834015, 0.07721110014244914, 0.110723199788481, 0.06421450013294816, 0.06217350019142032, 13.653605000115931]",0,,,,,,,,,,,,,,,,,,,,,,,,,,,,,,,,,,,,,,,,,,,,,,,,,,,,,,,,,,,,,,,,,,,,,,,,,,,,,,,,,,,,,,,,,,,,,,,,,,,,,,,,,,,,,,,,,,,,,,,,,,,,JDJK0V,train_y,blue_star,bottom_right,2025-02-20_16h52.25.963,HideSeek_v1,2022.2.5,59.86790739117194,
1,5,3,5,8,0,5,66,2,instr_dim1_1,,,,,,0,0,0,0,,,,,0,0,0,0,,,,,,,,,,,,,,,,,,,,,,,,,,,,,,,,,,,,,stimuli/alien_stimuli/66.png,conditions/schedules/train_y_first/blue_star_00/bottom_right/inputInstr_1.xlsx,stimuli/alien_stimuli/66.png,724.1129886000417,724.1129886000417,724.1129886000417,724.1129886000417,724.1068036600948,return,8.507700900081545,"[-0.16, -0.08, 0, 0.08, 0.16, 0.24, 0.32, 0.4, 0.48, 0.56]","[-0.4, -0.32, -0.24, -0.16, -0.08, 0, 0.08, 0.16, 0.24, 0.32]",8,3,5,5,0.4,0.0,732.7747141001746,732.7747141001746,732.7747141001746,732.7747141001746,732.7747141001746,732.7747141001746,732.7747141001746,732.7640510801226,7.907567800022662,return,7.756649099756032,stimuli/alien_stimuli/66.png,66,5,1,,,,,,,,,,,,,,,,,,,,,,,,,,,,,,,,,,,,,,,,,,,,,,,,,,,,,,,,,,,,,,,,,,,,,,,,,,,,,,,,,,,,,,,,,JDJK0V,train_y,blue_star,bottom_right,2025-02-20_16h52.25.963,HideSeek_v1,2022.2.5,59.86790739117194,
,,,,,,,,,,,30,,,,0,0,0,0,,,,,,,,,,,,,,,,,,,,,,,,,,,,,,,,,,,,,,,,,,,,,,,,,,,,,,,,,,,,,,,,,,,,,,,,,,,,,,21,0.7,0,0,99,1,30,0,conditions/schedules/train_y_first/blue_star_00/bottom_right/inputTrain_1.1.xlsx,99,1,1,1,0,,,,,,,,,,,,,,,,,,,,,,,,,,,,,,,,,,,,,,,,,,,,,,,,,,,,,,,,,,,,,,,,,,,,,,,,,,,JDJK0V,train_y,blue_star,bottom_right,2025-02-20_16h52.25.963,HideSeek_v1,2022.2.5,59.86790739117194,
,,,,,,,,,,,,,,,1,0,1,0,0,0,0,0,,,,,,,,,,,,,,,,,,,,,,,,,,,,,,,conditions/schedules/train_y_first/blue_star_00/bottom_right/instructions/Slide13.png,conditions/schedules/train_y_first/blue_star_00/bottom_right/instructions/Audio13.wav,740.6842259000987,740.6871092903428,13,"[4.408976799808443, 18.094884200021625, 16.720962699968368, 19.426067399792373, 4.381683100014925, 4.7187009998597205, 5.620693000033498, 11.870837999973446, 6.314344400074333, 7.03384040016681, 10.45049409987405, 13.65359800029546, 17.71544950036332]","[0.014511799905449152, 0.014134700410068035, 0.014243799727410078, 0.07865269994363189, 0.06520149996504188, 0.09948380012065172, 0.047877199947834015, 0.07721110014244914, 0.110723199788481, 0.06421450013294816, 0.06217350019142032, 13.653605000115931, 17.71545650018379]",0,,,,,,,,,,,,,,,,,,,,,,,,,,,,,,,,,,,,,,,,,,,,,,,,,,,,,,,,,,,,,,,,,,,,,,,,,,,,,,,,,,,,,,,,,,,,,,,,,,,,,,,,,,,,,,,,,,,,,,,,,,,,JDJK0V,train_y,blue_star,bottom_right,2025-02-20_16h52.25.963,HideSeek_v1,2022.2.5,59.86790739117194,
,,,,,,,,,,,,,,,1,0,1,0,1,0,1,0,,,,,,,,,,,,,,,,,,,,,,,,,,,,,,,conditions/schedules/train_y_first/blue_star_00/bottom_right/instructions/Slide14.png,conditions/schedules/train_y_first/blue_star_00/bottom_right/instructions/Audio14.wav,758.4735237001441,758.4690171503462,14,"[4.408976799808443, 18.094884200021625, 16.720962699968368, 19.426067399792373, 4.381683100014925, 4.7187009998597205, 5.620693000033498, 11.870837999973446, 6.314344400074333, 7.03384040016681, 10.45049409987405, 13.65359800029546, 17.71544950036332, 16.606881499756128]","[0.014511799905449152, 0.014134700410068035, 0.014243799727410078, 0.07865269994363189, 0.06520149996504188, 0.09948380012065172, 0.047877199947834015, 0.07721110014244914, 0.110723199788481, 0.06421450013294816, 0.06217350019142032, 13.653605000115931, 0.07882649963721633, 16.606890100054443]",0,,,,,,,,,,,,,,,,,,,,,,,,,,,,,,,,,,,,,,,,,,,,,,,,,,,,,,,,,,,,,,,,,,,,,,,,,,,,,,,,,,,,,,,,,,,,,,,,,,,,,,,,,,,,,,,,,,,,,,,,,,,,JDJK0V,train_y,blue_star,bottom_right,2025-02-20_16h52.25.963,HideSeek_v1,2022.2.5,59.86790739117194,
2,7,3,7,3,0,0,61,2,instr_dim1_1,,,,,,1,0,1,0,,,,,0,0,0,0,,,,,,,,,,,,,,,,,,,,,,,,,,,,,,,,,,,,,stimuli/alien_stimuli/61.png,conditions/schedules/train_y_first/blue_star_00/bottom_right/inputInstr_1.xlsx,stimuli/alien_stimuli/61.png,775.1721868999302,775.1721868999302,775.1721868999302,775.1721868999302,775.1659487600439,return,8.403989099897444,"[-0.16, -0.08, 0, 0.08, 0.16, 0.24, 0.32, 0.4, 0.48, 0.56]","[-0.4, -0.32, -0.24, -0.16, -0.08, 0, 0.08, 0.16, 0.24, 0.32]",3,3,7,7,0.0,0.0,783.7301590000279,783.7301590000279,783.7301590000279,783.7301590000279,783.7301590000279,783.7301590000279,783.7301590000279,783.7229113801383,7.54071359988302,return,7.394810500089079,stimuli/alien_stimuli/61.png,61,7,2,,,,,,,,,,,,,,,,,,,,,,,,,,,,,,,,,,,,,,,,,,,,,,,,,,,,,,,,,,,,,,,,,,,,,,,,,,,,,,,,,,,,,,,,,JDJK0V,train_y,blue_star,bottom_right,2025-02-20_16h52.25.963,HideSeek_v1,2022.2.5,59.86790739117194,
,,,,,,,,,,,30,,,,1,0,1,0,,,,,,,,,,,,,,,,,,,,,,,,,,,,,,,,,,,,,,,,,,,,,,,,,,,,,,,,,,,,,,,,,,,,,,,,,,,,,,21,0.7,0,0,99,1,30,0,conditions/schedules/train_y_first/blue_star_00/bottom_right/inputTrain_1.1.xlsx,99,1,1,1,0,,,,,,,,,,,,,,,,,,,,,,,,,,,,,,,,,,,,,,,,,,,,,,,,,,,,,,,,,,,,,,,,,,,,,,,,,,,JDJK0V,train_y,blue_star,bottom_right,2025-02-20_16h52.25.963,HideSeek_v1,2022.2.5,59.86790739117194,
,,,,,,,,,,,,,,,2,0,2,0,0,0,0,0,,,,,,,,,,,,,,,,,,,,,,,,,,,,,,,conditions/schedules/train_y_first/blue_star_00/bottom_right/instructions/Slide15.png,conditions/schedules/train_y_first/blue_star_00/bottom_right/instructions/Audio15.wav,791.2828493001871,791.2792130901479,15,"[4.408976799808443, 18.094884200021625, 16.720962699968368, 19.426067399792373, 4.381683100014925, 4.7187009998597205, 5.620693000033498, 11.870837999973446, 6.314344400074333, 7.03384040016681, 10.45049409987405, 13.65359800029546, 17.71544950036332, 16.606881499756128, 43.77991139981896]","[0.014511799905449152, 0.014134700410068035, 0.014243799727410078, 0.07865269994363189, 0.06520149996504188, 0.09948380012065172, 0.047877199947834015, 0.07721110014244914, 0.110723199788481, 0.06421450013294816, 0.06217350019142032, 13.653605000115931, 0.07882649963721633, 16.606890100054443, 43.77991889975965]",0,,,,,,,,,,,,,,,,,,,,,,,,,,,,,,,,,,,,,,,,,,,,,,,,,,,,,,,,,,,,,,,,,,,,,,,,,,,,,,,,,,,,,,,,,,,,,,,,,,,,,,,,,,,,,,,,,,,,,,,,,,,,JDJK0V,train_y,blue_star,bottom_right,2025-02-20_16h52.25.963,HideSeek_v1,2022.2.5,59.86790739117194,
,,,,,,,,,,,,,,,2,0,2,0,1,0,1,0,,,,,,,,,,,,,,,,,,,,,,,,,,,,,,,conditions/schedules/train_y_first/blue_star_00/bottom_right/instructions/Slide16.png,conditions/schedules/train_y_first/blue_star_00/bottom_right/instructions/Audio16.wav,835.1344637000002,835.1323369503953,16,"[4.408976799808443, 18.094884200021625, 16.720962699968368, 19.426067399792373, 4.381683100014925, 4.7187009998597205, 5.620693000033498, 11.870837999973446, 6.314344400074333, 7.03384040016681, 10.45049409987405, 13.65359800029546, 17.71544950036332, 16.606881499756128, 43.77991139981896, 21.213039699941874]","[0.014511799905449152, 0.014134700410068035, 0.014243799727410078, 0.07865269994363189, 0.06520149996504188, 0.09948380012065172, 0.047877199947834015, 0.07721110014244914, 0.110723199788481, 0.06421450013294816, 0.06217350019142032, 13.653605000115931, 0.07882649963721633, 16.606890100054443, 0.030596799682825804, 21.213046999648213]",0,,,,,,,,,,,,,,,,,,,,,,,,,,,,,,,,,,,,,,,,,,,,,,,,,,,,,,,,,,,,,,,,,,,,,,,,,,,,,,,,,,,,,,,,,,,,,,,,,,,,,,,,,,,,,,,,,,,,,,,,,,,,JDJK0V,train_y,blue_star,bottom_right,2025-02-20_16h52.25.963,HideSeek_v1,2022.2.5,59.86790739117194,
,5,0,5,4,0,4,65,,train_dim1_1,1,30,,,,2,0,2,0,,,,,,,,,0,0,0,0,0,0,0,0,0,0,0,0,,,,,,,,,,,,,,,,,,,,,,,,,stimuli/alien_stimuli/65.png,,,,,,,,,,,,,,,,,,,,,,,,,,,,,,,,,,,,,,,30,,,,,,,,856.4520053002052,856.4520053002052,856.4520053002052,856.4520053002052,856.4520053002052,up,2.0944114001467824,0,0,0,99,0.24,-0.32,up,1.9959488003514707,,,,,,,,,,,,,,,,,,,,,,,,,,,,,,,,,,,,,,,,,,,,,,,,,,,,,,,,,,,,JDJK0V,train_y,blue_star,bottom_right,2025-02-20_16h52.25.963,HideSeek_v1,2022.2.5,59.86790739117194,
,5,0,5,4,0,4,65,,train_dim1_1,1,30,,,,2,0,2,0,,,,,,,,,0,0,0,0,0,0,0,0,1,0,1,0,,,,,,,,,,,,,,,,,,,,,,,,,,,,,,,,,,,,,,,,,,,,,,,,,,,,,,,,,,,,,,,,30,,,,,,,,858.5321728000417,858.5321728000417,858.5321728000417,858.5321728000417,858.5321728000417,right,1.5938587998971343,0,0,0,99,0.32,-0.32,right,1.512095999903977,,,,,,,,,,,,,,,,,,,,,,,,,,,,,,,,,,,,,,,,,,,,,,,,,,,,,,,,,,,,JDJK0V,train_y,blue_star,bottom_right,2025-02-20_16h52.25.963,HideSeek_v1,2022.2.5,59.86790739117194,
,5,0,5,4,0,4,65,,train_dim1_1,1,30,,,,2,0,2,0,,,,,,,,,0,0,0,0,0,0,0,0,2,0,2,0,,,,,,,,,,,,,,,,,,,,,,,,,,,,,,,,,,,,,,,,,,,,,,,,,,,,,,,,,,,,,,,,30,,,,,,,,860.1322011002339,860.1322011002339,860.1322011002339,860.1322011002339,860.1322011002339,up,3.545919199939817,0,0,0,99,0.32,-0.24,up,3.4585891999304295,,,,,,,,,,,,,,,,,,,,,,,,,,,,,,,,,,,,,,,,,,,,,,,,,,,,,,,,,,,,JDJK0V,train_y,blue_star,bottom_right,2025-02-20_16h52.25.963,HideSeek_v1,2022.2.5,59.86790739117194,
,5,0,5,4,0,4,65,,train_dim1_1,1,30,,,,2,0,2,0,,,,,,,,,0,0,0,0,0,0,0,0,3,0,3,0,,,,,,,,,,,,,,,,,,,,,,,,,,,,,,,,,,,,,,,,,,,,,,,,,,,,,,,,,,,,,,,,30,,,,,,,,863.6853531999514,863.6853531999514,863.6853531999514,863.6853531999514,863.6853531999514,up,0.47666959976777434,0,0,0,99,0.32,-0.15999999999999998,up,0.3965767999179661,,,,,,,,,,,,,,,,,,,,,,,,,,,,,,,,,,,,,,,,,,,,,,,,,,,,,,,,,,,,JDJK0V,train_y,blue_star,bottom_right,2025-02-20_16h52.25.963,HideSeek_v1,2022.2.5,59.86790739117194,
,5,0,5,4,0,4,65,,train_dim1_1,1,30,,,,2,0,2,0,,,,,,,,,0,0,0,0,0,0,0,0,4,0,4,0,,,,,,,,,,,,,,,,,,,,,,,,,,,,,,,,,,,,,,,,,,,,,,,,,,,,,,,,,,,,,,,,30,,,,,,,,864.1688872002997,864.1688872002997,864.1688872002997,864.1688872002997,864.1688872002997,right,0.5768702002242208,0,0,0,99,0.4,-0.15999999999999998,right,0.4949064003303647,,,,,,,,,,,,,,,,,,,,,,,,,,,,,,,,,,,,,,,,,,,,,,,,,,,,,,,,,,,,JDJK0V,train_y,blue_star,bottom_right,2025-02-20_16h52.25.963,HideSeek_v1,2022.2.5,59.86790739117194,
,5,0,5,4,0,4,65,,train_dim1_1,1,30,,,,2,0,2,0,,,,,,,,,0,0,0,0,0,0,0,0,5,0,5,0,,,,,,,,,,,,,,,,,,,,,,,,,,,,,,,,,,,,,,,,,,,,,,,,,,,,,,,,,,,,,,,,30,,,,,,,,864.7537071001716,864.7537071001716,864.7537071001716,864.7537071001716,864.7537071001716,return,0.8602936998941004,0,0,0,0,0.4,-0.15999999999999998,return,0.7880871999077499,3,2,0.4,-0.15999999999999998,,,,,,,,,,,,,,,,,,,,,,,,,,,,,,,,,,,,,,,,,,,,,,,,,,,,,,,,JDJK0V,train_y,blue_star,bottom_right,2025-02-20_16h52.25.963,HideSeek_v1,2022.2.5,59.86790739117194,
,8,2,8,7,0,5,66,,train_dim1_1,2,30,,,,2,0,2,0,,,,,,,,,0,0,0,0,0,1,1,1,0,0,0,0,,,,,,,,,,,,,,,,,,,,,,,,,stimuli/alien_stimuli/66.png,,,,,,,,,,,,,,,,,,,,,,,,,,,,,stimuli/alien_stimuli/65.png,65,5,3,,,,,,,30,,,,,,,,883.5293483999558,883.5293483999558,883.5293483999558,883.5293483999558,883.5293483999558,left,1.6382304998114705,0,0,0,99,0.39999999999999997,-0.24,left,1.5293980003334582,,,,,881.9545372002758,883.5293483999558,0.24,-0.08,0.32,0.0,-0.24000000000000002,0.24,0.24,0.24,-0.08,867.1888022003695,867.1888022003695,867.1888022003695,867.1888022003695,867.1888022003695,867.1888022003695,867.1888022003695,867.1888022003695,867.1754486701452,14.88139500003308,return,14.747733199968934,,,,,,,,,,,,,,,,,,,,,,,,,,,,,,,,,JDJK0V,train_y,blue_star,bottom_right,2025-02-20_16h52.25.963,HideSeek_v1,2022.2.5,59.86790739117194,
,8,2,8,7,0,5,66,,train_dim1_1,2,30,,,,2,0,2,0,,,,,,,,,0,0,0,0,0,1,1,1,1,0,1,0,,,,,,,,,,,,,,,,,,,,,,,,,,,,,,,,,,,,,,,,,,,,,,,,,,,,,,,,,,,,,,,,30,,,,,,,,885.1543014002964,885.1543014002964,885.1543014002964,885.1543014002964,885.1543014002964,left,0.5593195999972522,0,0,0,99,0.31999999999999995,-0.24,left,0.47647499991580844,,,,,,,,,,,,,,,,,,,,,,,,,,,,,,,,,,,,,,,,,,,,,,,,,,,,,,,,,,,,JDJK0V,train_y,blue_star,bottom_right,2025-02-20_16h52.25.963,HideSeek_v1,2022.2.5,59.86790739117194,
,8,2,8,7,0,5,66,,train_dim1_1,2,30,,,,2,0,2,0,,,,,,,,,0,0,0,0,0,1,1,1,2,0,2,0,,,,,,,,,,,,,,,,,,,,,,,,,,,,,,,,,,,,,,,,,,,,,,,,,,,,,,,,,,,,,,,,30,,,,,,,,885.7201996003278,885.7201996003278,885.7201996003278,885.7201996003278,885.7201996003278,left,0.6437972001731396,0,0,0,99,0.23999999999999994,-0.24,left,0.5555189000442624,,,,,,,,,,,,,,,,,,,,,,,,,,,,,,,,,,,,,,,,,,,,,,,,,,,,,,,,,,,,JDJK0V,train_y,blue_star,bottom_right,2025-02-20_16h52.25.963,HideSeek_v1,2022.2.5,59.86790739117194,
,8,2,8,7,0,5,66,,train_dim1_1,2,30,,,,2,0,2,0,,,,,,,,,0,0,0,0,0,1,1,1,3,0,3,0,,,,,,,,,,,,,,,,,,,,,,,,,,,,,,,,,,,,,,,,,,,,,,,,,,,,,,,,,,,,,,,,30,,,,,,,,886.3714273003861,886.3714273003861,886.3714273003861,886.3714273003861,886.3714273003861,left,4.0627954001538455,0,0,0,99,0.15999999999999992,-0.24,left,3.988895600195974,,,,,,,,,,,,,,,,,,,,,,,,,,,,,,,,,,,,,,,,,,,,,,,,,,,,,,,,,,,,JDJK0V,train_y,blue_star,bottom_right,2025-02-20_16h52.25.963,HideSeek_v1,2022.2.5,59.86790739117194,
,8,2,8,7,0,5,66,,train_dim1_1,2,30,,,,2,0,2,0,,,,,,,,,0,0,0,0,0,1,1,1,4,0,4,0,,,,,,,,,,,,,,,,,,,,,,,,,,,,,,,,,,,,,,,,,,,,,,,,,,,,,,,,,,,,,,,,30,,,,,,,,890.4412943003699,890.4412943003699,890.4412943003699,890.4412943003699,890.4412943003699,up,1.0772575996816158,0,0,0,99,0.15999999999999992,-0.15999999999999998,up,0.9902198002673686,,,,,,,,,,,,,,,,,,,,,,,,,,,,,,,,,,,,,,,,,,,,,,,,,,,,,,,,,,,,JDJK0V,train_y,blue_star,bottom_right,2025-02-20_16h52.25.963,HideSeek_v1,2022.2.5,59.86790739117194,
,8,2,8,7,0,5,66,,train_dim1_1,2,30,,,,2,0,2,0,,,,,,,,,0,0,0,0,0,1,1,1,5,0,5,0,,,,,,,,,,,,,,,,,,,,,,,,,,,,,,,,,,,,,,,,,,,,,,,,,,,,,,,,,,,,,,,,30,,,,,,,,891.5245777000673,891.5245777000673,891.5245777000673,891.5245777000673,891.5245777000673,left,0.8104384997859597,0,0,0,99,0.07999999999999992,-0.15999999999999998,left,0.7233408996835351,,,,,,,,,,,,,,,,,,,,,,,,,,,,,,,,,,,,,,,,,,,,,,,,,,,,,,,,,,,,JDJK0V,train_y,blue_star,bottom_right,2025-02-20_16h52.25.963,HideSeek_v1,2022.2.5,59.86790739117194,
,8,2,8,7,0,5,66,,train_dim1_1,2,30,,,,2,0,2,0,,,,,,,,,0,0,0,0,0,1,1,1,6,0,6,0,,,,,,,,,,,,,,,,,,,,,,,,,,,,,,,,,,,,,,,,,,,,,,,,,,,,,,,,,,,,,,,,30,,,,,,,,892.3434300003573,892.3434300003573,892.3434300003573,892.3434300003573,892.3434300003573,return,1.0272208997048438,0,0,0,0,0.07999999999999992,-0.15999999999999998,return,0.9435845999978483,4,-3,0.07999999999999992,-0.15999999999999998,,,,,,,,,,,,,,,,,,,,,,,,,,,,,,,,,,,,,,,,,,,,,,,,,,,,,,,,JDJK0V,train_y,blue_star,bottom_right,2025-02-20_16h52.25.963,HideSeek_v1,2022.2.5,59.86790739117194,
,7,3,7,6,0,3,64,,train_dim1_1,3,30,,,,2,0,2,0,,,,,,,,,0,0,0,0,0,2,2,2,0,0,0,0,,,,,,,,,,,,,,,,,,,,,,,,,stimuli/alien_stimuli/64.png,,,,,,,,,,,,,,,,,,,,,,,,,,,,,stimuli/alien_stimuli/66.png,66,8,4,,,,,,,30,,,,,,,,899.4392400002107,899.4392400002107,899.4392400002107,899.4392400002107,899.4392400002107,left,1.4214446996338665,0,0,0,99,0.32,-0.16,left,1.3441288997419178,,,,,897.8842711001635,899.4392400002107,0.48,0.16,0.4,0.0,-0.039999999999999994,0.48,0.48,0.48,0.16,894.9414767003618,894.9414767003618,894.9414767003618,894.9414767003618,894.9414767003618,894.9414767003618,894.9414767003618,894.9414767003618,894.9318836700172,3.0545151997357607,return,2.9174630995839834,,,,,,,,,,,,,,,,,,,,,,,,,,,,,,,,,JDJK0V,train_y,blue_star,bottom_right,2025-02-20_16h52.25.963,HideSeek_v1,2022.2.5,59.86790739117194,
,7,3,7,6,0,3,64,,train_dim1_1,3,30,,,,2,0,2,0,,,,,,,,,0,0,0,0,0,2,2,2,1,0,1,0,,,,,,,,,,,,,,,,,,,,,,,,,,,,,,,,,,,,,,,,,,,,,,,,,,,,,,,,,,,,,,,,30,,,,,,,,900.8665281999856,900.8665281999856,900.8665281999856,900.8665281999856,900.8665281999856,left,0.45964459981769323,0,0,0,99,0.24,-0.16,left,0.3859300003387034,,,,,,,,,,,,,,,,,,,,,,,,,,,,,,,,,,,,,,,,,,,,,,,,,,,,,,,,,,,,JDJK0V,train_y,blue_star,bottom_right,2025-02-20_16h52.25.963,HideSeek_v1,2022.2.5,59.86790739117194,
,7,3,7,6,0,3,64,,train_dim1_1,3,30,,,,2,0,2,0,,,,,,,,,0,0,0,0,0,2,2,2,2,0,2,0,,,,,,,,,,,,,,,,,,,,,,,,,,,,,,,,,,,,,,,,,,,,,,,,,,,,,,,,,,,,,,,,30,,,,,,,,901.333813500125,901.333813500125,901.333813500125,901.333813500125,901.333813500125,left,0.4100199998356402,0,0,0,99,0.15999999999999998,-0.16,left,0.3233235999941826,,,,,,,,,,,,,,,,,,,,,,,,,,,,,,,,,,,,,,,,,,,,,,,,,,,,,,,,,,,,JDJK0V,train_y,blue_star,bottom_right,2025-02-20_16h52.25.963,HideSeek_v1,2022.2.5,59.86790739117194,
,7,3,7,6,0,3,64,,train_dim1_1,3,30,,,,2,0,2,0,,,,,,,,,0,0,0,0,0,2,2,2,3,0,3,0,,,,,,,,,,,,,,,,,,,,,,,,,,,,,,,,,,,,,,,,,,,,,,,,,,,,,,,,,,,,,,,,30,,,,,,,,901.7505504000001,901.7505504000001,901.7505504000001,901.7505504000001,901.7505504000001,left,0.9604714000597596,0,0,0,99,0.07999999999999997,-0.16,left,0.8722783997654915,,,,,,,,,,,,,,,,,,,,,,,,,,,,,,,,,,,,,,,,,,,,,,,,,,,,,,,,,,,,JDJK0V,train_y,blue_star,bottom_right,2025-02-20_16h52.25.963,HideSeek_v1,2022.2.5,59.86790739117194,
,7,3,7,6,0,3,64,,train_dim1_1,3,30,,,,2,0,2,0,,,,,,,,,0,0,0,0,0,2,2,2,4,0,4,0,,,,,,,,,,,,,,,,,,,,,,,,,,,,,,,,,,,,,,,,,,,,,,,,,,,,,,,,,,,,,,,,30,,,,,,,,902.7171523999423,902.7171523999423,902.7171523999423,902.7171523999423,902.7171523999423,return,2.261588199995458,0,0,0,0,0.07999999999999997,-0.16,return,2.174699299968779,4,-7,0.07999999999999997,-0.16,,,,,,,,,,,,,,,,,,,,,,,,,,,,,,,,,,,,,,,,,,,,,,,,,,,,,,,,JDJK0V,train_y,blue_star,bottom_right,2025-02-20_16h52.25.963,HideSeek_v1,2022.2.5,59.86790739117194,
,5,1,5,2,0,1,62,,train_dim1_1,4,30,,,,2,0,2,0,,,,,,,,,0,0,0,0,0,3,3,3,0,0,0,0,,,,,,,,,,,,,,,,,,,,,,,,,stimuli/alien_stimuli/62.png,,,,,,,,,,,,,,,,,,,,,,,,,,,,,stimuli/alien_stimuli/64.png,64,7,5,,,,,,,30,,,,,,,,911.5472107003443,911.5472107003443,911.5472107003443,911.5472107003443,911.5472107003443,up,2.341272100340575,0,0,0,99,0.24,-0.24,up,2.2546816002577543,,,,,909.9944560001604,911.5472107003443,0.4,0.08,0.24,0.0,-0.04,0.4,0.4,0.4,0.08,906.551061199978,906.551061199978,906.551061199978,906.551061199978,906.551061199978,906.551061199978,906.551061199978,906.551061199978,906.541526170075,3.5550899002701044,return,3.421575100161135,,,,,,,,,,,,,,,,,,,,,,,,,,,,,,,,,JDJK0V,train_y,blue_star,bottom_right,2025-02-20_16h52.25.963,HideSeek_v1,2022.2.5,59.86790739117194,
,5,1,5,2,0,1,62,,train_dim1_1,4,30,,,,2,0,2,0,,,,,,,,,0,0,0,0,0,3,3,3,1,0,1,0,,,,,,,,,,,,,,,,,,,,,,,,,,,,,,,,,,,,,,,,,,,,,,,,,,,,,,,,,,,,,,,,30,,,,,,,,913.8950106999837,913.8950106999837,913.8950106999837,913.8950106999837,913.8950106999837,left,0.8934899000450969,0,0,0,99,0.15999999999999998,-0.24,left,0.8135171001777053,,,,,,,,,,,,,,,,,,,,,,,,,,,,,,,,,,,,,,,,,,,,,,,,,,,,,,,,,,,,JDJK0V,train_y,blue_star,bottom_right,2025-02-20_16h52.25.963,HideSeek_v1,2022.2.5,59.86790739117194,
,5,1,5,2,0,1,62,,train_dim1_1,4,30,,,,2,0,2,0,,,,,,,,,0,0,0,0,0,3,3,3,2,0,2,0,,,,,,,,,,,,,,,,,,,,,,,,,,,,,,,,,,,,,,,,,,,,,,,,,,,,,,,,,,,,,,,,30,,,,,,,,914.795830800198,914.795830800198,914.795830800198,914.795830800198,914.795830800198,left,0.32645849976688623,0,0,0,99,0.07999999999999997,-0.24,left,0.25046929996460676,,,,,,,,,,,,,,,,,,,,,,,,,,,,,,,,,,,,,,,,,,,,,,,,,,,,,,,,,,,,JDJK0V,train_y,blue_star,bottom_right,2025-02-20_16h52.25.963,HideSeek_v1,2022.2.5,59.86790739117194,
,5,1,5,2,0,1,62,,train_dim1_1,4,30,,,,2,0,2,0,,,,,,,,,0,0,0,0,0,3,3,3,3,0,3,0,,,,,,,,,,,,,,,,,,,,,,,,,,,,,,,,,,,,,,,,,,,,,,,,,,,,,,,,,,,,,,,,30,,,,,,,,915.1284527000971,915.1284527000971,915.1284527000971,915.1284527000971,915.1284527000971,left,0.3097264003008604,0,0,0,99,-2.7755575615628914e-17,-0.24,left,0.23821330023929477,,,,,,,,,,,,,,,,,,,,,,,,,,,,,,,,,,,,,,,,,,,,,,,,,,,,,,,,,,,,JDJK0V,train_y,blue_star,bottom_right,2025-02-20_16h52.25.963,HideSeek_v1,2022.2.5,59.86790739117194,
,5,1,5,2,0,1,62,,train_dim1_1,4,30,,,,2,0,2,0,,,,,,,,,0,0,0,0,0,3,3,3,4,0,4,0,,,,,,,,,,,,,,,,,,,,,,,,,,,,,,,,,,,,,,,,,,,,,,,,,,,,,,,,,,,,,,,,30,,,,,,,,915.4446606999263,915.4446606999263,915.4446606999263,915.4446606999263,915.4446606999263,return,0.7103785001672804,0,0,0,0,-2.7755575615628914e-17,-0.24,return,0.6266493001021445,5,-10,-2.7755575615628914e-17,-0.24,,,,,,,,,,,,,,,,,,,,,,,,,,,,,,,,,,,,,,,,,,,,,,,,,,,,,,,,JDJK0V,train_y,blue_star,bottom_right,2025-02-20_16h52.25.963,HideSeek_v1,2022.2.5,59.86790739117194,
,8,3,8,3,0,0,61,,train_dim1_1,5,30,,,,2,0,2,0,,,,,,,,,0,0,0,0,0,4,4,4,0,0,0,0,,,,,,,,,,,,,,,,,,,,,,,,,stimuli/alien_stimuli/61.png,,,,,,,,,,,,,,,,,,,,,,,,,,,,,stimuli/alien_stimuli/62.png,62,5,6,,,,,,,30,,,,,,,,922.2746427003294,922.2746427003294,922.2746427003294,922.2746427003294,922.2746427003294,left,1.4051467003300786,0,0,0,99,0.39999999999999997,-0.16,left,1.3188364999368787,,,,,920.7197660002857,922.2746427003294,0.24,-0.24,0.08,0.0,-0.28,0.24,0.24,0.24,-0.24,917.7274249000475,917.7274249000475,917.7274249000475,917.7274249000475,917.7274249000475,917.7274249000475,917.7274249000475,917.7274249000475,917.717343170289,3.1047021001577377,return,2.9653056003153324,,,,,,,,,,,,,,,,,,,,,,,,,,,,,,,,,JDJK0V,train_y,blue_star,bottom_right,2025-02-20_16h52.25.963,HideSeek_v1,2022.2.5,59.86790739117194,
,8,3,8,3,0,0,61,,train_dim1_1,5,30,,,,2,0,2,0,,,,,,,,,0,0,0,0,0,4,4,4,1,0,1,0,,,,,,,,,,,,,,,,,,,,,,,,,,,,,,,,,,,,,,,,,,,,,,,,,,,,,,,,,,,,,,,,30,,,,,,,,923.6876942999661,923.6876942999661,923.6876942999661,923.6876942999661,923.6876942999661,left,0.4261113996617496,0,0,0,99,0.31999999999999995,-0.16,left,0.3369279997423291,,,,,,,,,,,,,,,,,,,,,,,,,,,,,,,,,,,,,,,,,,,,,,,,,,,,,,,,,,,,JDJK0V,train_y,blue_star,bottom_right,2025-02-20_16h52.25.963,HideSeek_v1,2022.2.5,59.86790739117194,
,8,3,8,3,0,0,61,,train_dim1_1,5,30,,,,2,0,2,0,,,,,,,,,0,0,0,0,0,4,4,4,2,0,2,0,,,,,,,,,,,,,,,,,,,,,,,,,,,,,,,,,,,,,,,,,,,,,,,,,,,,,,,,,,,,,,,,30,,,,,,,,924.1189713999629,924.1189713999629,924.1189713999629,924.1189713999629,924.1189713999629,left,0.4935560002923012,0,0,0,99,0.23999999999999994,-0.16,left,0.4061067998409271,,,,,,,,,,,,,,,,,,,,,,,,,,,,,,,,,,,,,,,,,,,,,,,,,,,,,,,,,,,,JDJK0V,train_y,blue_star,bottom_right,2025-02-20_16h52.25.963,HideSeek_v1,2022.2.5,59.86790739117194,
,8,3,8,3,0,0,61,,train_dim1_1,5,30,,,,2,0,2,0,,,,,,,,,0,0,0,0,0,4,4,4,3,0,3,0,,,,,,,,,,,,,,,,,,,,,,,,,,,,,,,,,,,,,,,,,,,,,,,,,,,,,,,,,,,,,,,,30,,,,,,,,924.6197458002716,924.6197458002716,924.6197458002716,924.6197458002716,924.6197458002716,down,0.6266081999056041,0,0,0,99,0.23999999999999994,-0.24,down,0.5463227001018822,,,,,,,,,,,,,,,,,,,,,,,,,,,,,,,,,,,,,,,,,,,,,,,,,,,,,,,,,,,,JDJK0V,train_y,blue_star,bottom_right,2025-02-20_16h52.25.963,HideSeek_v1,2022.2.5,59.86790739117194,
,8,3,8,3,0,0,61,,train_dim1_1,5,30,,,,2,0,2,0,,,,,,,,,0,0,0,0,0,4,4,4,4,0,4,0,,,,,,,,,,,,,,,,,,,,,,,,,,,,,,,,,,,,,,,,,,,,,,,,,,,,,,,,,,,,,,,,30,,,,,,,,925.253877399955,925.253877399955,925.253877399955,925.253877399955,925.253877399955,left,0.36007550032809377,0,0,0,99,0.15999999999999992,-0.24,left,0.2791531002148986,,,,,,,,,,,,,,,,,,,,,,,,,,,,,,,,,,,,,,,,,,,,,,,,,,,,,,,,,,,,JDJK0V,train_y,blue_star,bottom_right,2025-02-20_16h52.25.963,HideSeek_v1,2022.2.5,59.86790739117194,
,8,3,8,3,0,0,61,,train_dim1_1,5,30,,,,2,0,2,0,,,,,,,,,0,0,0,0,0,4,4,4,5,0,5,0,,,,,,,,,,,,,,,,,,,,,,,,,,,,,,,,,,,,,,,,,,,,,,,,,,,,,,,,,,,,,,,,30,,,,,,,,925.6200371999294,925.6200371999294,925.6200371999294,925.6200371999294,925.6200371999294,return,0.610145399812609,0,0,0,0,0.15999999999999992,-0.24,return,0.525843100156635,4,-14,0.15999999999999992,-0.24,,,,,,,,,,,,,,,,,,,,,,,,,,,,,,,,,,,,,,,,,,,,,,,,,,,,,,,,JDJK0V,train_y,blue_star,bottom_right,2025-02-20_16h52.25.963,HideSeek_v1,2022.2.5,59.86790739117194,
,6,4,6,5,0,1,62,,train_dim1_1,6,30,,,,2,0,2,0,,,,,,,,,0,0,0,0,0,5,5,5,0,0,0,0,,,,,,,,,,,,,,,,,,,,,,,,,stimuli/alien_stimuli/62.png,,,,,,,,,,,,,,,,,,,,,,,,,,,,,stimuli/alien_stimuli/61.png,61,8,7,,,,,,,30,,,,,,,,930.2972297002561,930.2972297002561,930.2972297002561,930.2972297002561,930.2972297002561,left,1.1048899996094406,0,0,0,99,0.24,-0.08,left,1.0311189000494778,,,,,928.7432606001385,930.2972297002561,0.48,-0.16,0.0,0.0,-0.16,0.48,0.48,0.48,-0.16,927.7797708003782,927.7797708003782,927.7797708003782,927.7797708003782,927.7797708003782,927.7797708003782,927.7797708003782,927.7797708003782,927.7756776602939,1.0530872996896505,return,0.9356297999620438,,,,,,,,,,,,,,,,,,,,,,,,,,,,,,,,,JDJK0V,train_y,blue_star,bottom_right,2025-02-20_16h52.25.963,HideSeek_v1,2022.2.5,59.86790739117194,
,6,4,6,5,0,1,62,,train_dim1_1,6,30,,,,2,0,2,0,,,,,,,,,0,0,0,0,0,5,5,5,1,0,1,0,,,,,,,,,,,,,,,,,,,,,,,,,,,,,,,,,,,,,,,,,,,,,,,,,,,,,,,,,,,,,,,,30,,,,,,,,931.4089001002721,931.4089001002721,931.4089001002721,931.4089001002721,931.4089001002721,up,4.646366800181568,0,0,0,99,0.24,0.0,up,4.560730900149792,,,,,,,,,,,,,,,,,,,,,,,,,,,,,,,,,,,,,,,,,,,,,,,,,,,,,,,,,,,,JDJK0V,train_y,blue_star,bottom_right,2025-02-20_16h52.25.963,HideSeek_v1,2022.2.5,59.86790739117194,
,6,4,6,5,0,1,62,,train_dim1_1,6,30,,,,2,0,2,0,,,,,,,,,0,0,0,0,0,5,5,5,2,0,2,0,,,,,,,,,,,,,,,,,,,,,,,,,,,,,,,,,,,,,,,,,,,,,,,,,,,,,,,,,,,,,,,,30,,,,,,,,936.0634332001209,936.0634332001209,936.0634332001209,936.0634332001209,936.0634332001209,left,2.4114186000078917,0,0,0,99,0.15999999999999998,0.0,left,2.332445400301367,,,,,,,,,,,,,,,,,,,,,,,,,,,,,,,,,,,,,,,,,,,,,,,,,,,,,,,,,,,,JDJK0V,train_y,blue_star,bottom_right,2025-02-20_16h52.25.963,HideSeek_v1,2022.2.5,59.86790739117194,
,6,4,6,5,0,1,62,,train_dim1_1,6,30,,,,2,0,2,0,,,,,,,,,0,0,0,0,0,5,5,5,3,0,3,0,,,,,,,,,,,,,,,,,,,,,,,,,,,,,,,,,,,,,,,,,,,,,,,,,,,,,,,,,,,,,,,,30,,,,,,,,938.4806032003835,938.4806032003835,938.4806032003835,938.4806032003835,938.4806032003835,down,0.743376299738884,0,0,0,99,0.15999999999999998,-0.08,down,0.6592164998874068,,,,,,,,,,,,,,,,,,,,,,,,,,,,,,,,,,,,,,,,,,,,,,,,,,,,,,,,,,,,JDJK0V,train_y,blue_star,bottom_right,2025-02-20_16h52.25.963,HideSeek_v1,2022.2.5,59.86790739117194,
,6,4,6,5,0,1,62,,train_dim1_1,6,30,,,,2,0,2,0,,,,,,,,,0,0,0,0,0,5,5,5,4,0,4,0,,,,,,,,,,,,,,,,,,,,,,,,,,,,,,,,,,,,,,,,,,,,,,,,,,,,,,,,,,,,,,,,30,,,,,,,,939.2326847999357,939.2326847999357,939.2326847999357,939.2326847999357,939.2326847999357,down,0.42655100021511316,0,0,0,99,0.15999999999999998,-0.16,down,0.34576880000531673,,,,,,,,,,,,,,,,,,,,,,,,,,,,,,,,,,,,,,,,,,,,,,,,,,,,,,,,,,,,JDJK0V,train_y,blue_star,bottom_right,2025-02-20_16h52.25.963,HideSeek_v1,2022.2.5,59.86790739117194,
,6,4,6,5,0,1,62,,train_dim1_1,6,30,,,,2,0,2,0,,,,,,,,,0,0,0,0,0,5,5,5,5,0,5,0,,,,,,,,,,,,,,,,,,,,,,,,,,,,,,,,,,,,,,,,,,,,,,,,,,,,,,,,,,,,,,,,30,,,,,,,,939.6648993999697,939.6648993999697,939.6648993999697,939.6648993999697,939.6648993999697,return,1.2441978002898395,0,0,0,0,0.15999999999999998,-0.16,return,1.1611875002272427,3,-16,0.15999999999999998,-0.16,,,,,,,,,,,,,,,,,,,,,,,,,,,,,,,,,,,,,,,,,,,,,,,,,,,,,,,,JDJK0V,train_y,blue_star,bottom_right,2025-02-20_16h52.25.963,HideSeek_v1,2022.2.5,59.86790739117194,
,6,3,6,6,0,3,64,,train_dim1_1,7,30,,,,2,0,2,0,,,,,,,,,0,0,0,0,0,6,6,6,0,0,0,0,,,,,,,,,,,,,,,,,,,,,,,,,stimuli/alien_stimuli/64.png,,,,,,,,,,,,,,,,,,,,,,,,,,,,,stimuli/alien_stimuli/62.png,62,6,8,,,,,,,30,,,,,,,,946.2098146001808,946.2098146001808,946.2098146001808,946.2098146001808,946.2098146001808,up,1.8054414000362158,0,0,0,99,0.32,-0.08,up,1.7255271999165416,,,,,944.6565239001065,946.2098146001808,0.32,0,0.08,0.0,-0.04,0.32,0.32,0.32,0,942.4781955000944,942.4781955000944,942.4781955000944,942.4781955000944,942.4781955000944,942.4781955000944,942.4781955000944,942.4781955000944,942.4710356701166,2.287460899911821,return,2.1576710999943316,,,,,,,,,,,,,,,,,,,,,,,,,,,,,,,,,JDJK0V,train_y,blue_star,bottom_right,2025-02-20_16h52.25.963,HideSeek_v1,2022.2.5,59.86790739117194,
,6,3,6,6,0,3,64,,train_dim1_1,7,30,,,,2,0,2,0,,,,,,,,,0,0,0,0,0,6,6,6,1,0,1,0,,,,,,,,,,,,,,,,,,,,,,,,,,,,,,,,,,,,,,,,,,,,,,,,,,,,,,,,,,,,,,,,30,,,,,,,,948.0220282003284,948.0220282003284,948.0220282003284,948.0220282003284,948.0220282003284,up,0.4428673000074923,0,0,0,99,0.32,0.0,up,0.3701669001020491,,,,,,,,,,,,,,,,,,,,,,,,,,,,,,,,,,,,,,,,,,,,,,,,,,,,,,,,,,,,JDJK0V,train_y,blue_star,bottom_right,2025-02-20_16h52.25.963,HideSeek_v1,2022.2.5,59.86790739117194,
,6,3,6,6,0,3,64,,train_dim1_1,7,30,,,,2,0,2,0,,,,,,,,,0,0,0,0,0,6,6,6,2,0,2,0,,,,,,,,,,,,,,,,,,,,,,,,,,,,,,,,,,,,,,,,,,,,,,,,,,,,,,,,,,,,,,,,30,,,,,,,,948.4717333000153,948.4717333000153,948.4717333000153,948.4717333000153,948.4717333000153,up,0.5766363996081054,0,0,0,99,0.32,0.08,up,0.49813990015536547,,,,,,,,,,,,,,,,,,,,,,,,,,,,,,,,,,,,,,,,,,,,,,,,,,,,,,,,,,,,JDJK0V,train_y,blue_star,bottom_right,2025-02-20_16h52.25.963,HideSeek_v1,2022.2.5,59.86790739117194,
,6,3,6,6,0,3,64,,train_dim1_1,7,30,,,,2,0,2,0,,,,,,,,,0,0,0,0,0,6,6,6,3,0,3,0,,,,,,,,,,,,,,,,,,,,,,,,,,,,,,,,,,,,,,,,,,,,,,,,,,,,,,,,,,,,,,,,30,,,,,,,,949.0572542999871,949.0572542999871,949.0572542999871,949.0572542999871,949.0572542999871,return,2.378568099811673,1,0,0,1,0.32,0.08,return,2.3003487000241876,6,-16,0.32,0.08,,,,,,,,,,,,,,,,,,,,,,,,,,,,,,,,,,,,,,,,,,,,,,,,,,,,,,,,JDJK0V,train_y,blue_star,bottom_right,2025-02-20_16h52.25.963,HideSeek_v1,2022.2.5,59.86790739117194,
,9,2,9,2,0,0,61,,train_dim1_1,8,30,,,,2,0,2,0,,,,,,,,,0,0,0,0,0,7,7,7,0,0,0,0,,,,,,,,,,,,,,,,,,,,,,,,,stimuli/alien_stimuli/61.png,,,,,,,,,,,,,,,,,,,,,,,,,,,,,stimuli/alien_stimuli/64.png,64,6,9,,,,,,,30,,,,,,,,964.1265638000332,964.1265638000332,964.1265638000332,964.1265638000332,964.1265638000332,left,1.806348199956119,1,0,0,99,0.48000000000000004,-0.24,left,1.7022626004181802,,,,,962.554549000226,964.1265638000332,0.32,0.08,0.24,0.0,-0.04,0.32,0.32,0.32,0.08,953.0026891003363,953.0026891003363,953.0026891003363,953.0026891003363,953.0026891003363,953.0026891003363,953.0026891003363,953.0026891003363,952.9965639702045,9.660050599835813,return,9.521608700044453,,,,,,,,,,,,,,,,,,,,,,,,,,,,,,,,,JDJK0V,train_y,blue_star,bottom_right,2025-02-20_16h52.25.963,HideSeek_v1,2022.2.5,59.86790739117194,
,9,2,9,2,0,0,61,,train_dim1_1,8,30,,,,2,0,2,0,,,,,,,,,0,0,0,0,0,7,7,7,1,0,1,0,,,,,,,,,,,,,,,,,,,,,,,,,,,,,,,,,,,,,,,,,,,,,,,,,,,,,,,,,,,,,,,,30,,,,,,,,965.921045599971,965.921045599971,965.921045599971,965.921045599971,965.921045599971,right,0.7598199998028576,1,0,0,99,0.56,-0.24,right,0.6725232000462711,,,,,,,,,,,,,,,,,,,,,,,,,,,,,,,,,,,,,,,,,,,,,,,,,,,,,,,,,,,,JDJK0V,train_y,blue_star,bottom_right,2025-02-20_16h52.25.963,HideSeek_v1,2022.2.5,59.86790739117194,
,9,2,9,2,0,0,61,,train_dim1_1,8,30,,,,2,0,2,0,,,,,,,,,0,0,0,0,0,7,7,7,2,0,2,0,,,,,,,,,,,,,,,,,,,,,,,,,,,,,,,,,,,,,,,,,,,,,,,,,,,,,,,,,,,,,,,,30,,,,,,,,966.688089299947,966.688089299947,966.688089299947,966.688089299947,966.688089299947,return,0.4433439997956157,2,0,0,1,0.56,-0.24,return,0.36392110027372837,6,-16,0.56,-0.24,,,,,,,,,,,,,,,,,,,,,,,,,,,,,,,,,,,,,,,,,,,,,,,,,,,,,,,,JDJK0V,train_y,blue_star,bottom_right,2025-02-20_16h52.25.963,HideSeek_v1,2022.2.5,59.86790739117194,
,9,3,9,7,0,4,65,,train_dim1_1,9,30,,,,2,0,2,0,,,,,,,,,0,0,0,0,0,8,8,8,0,0,0,0,,,,,,,,,,,,,,,,,,,,,,,,,stimuli/alien_stimuli/65.png,,,,,,,,,,,,,,,,,,,,,,,,,,,,,stimuli/alien_stimuli/61.png,61,9,10,,,,,,,30,,,,,,,,972.164579400327,972.164579400327,972.164579400327,972.164579400327,972.164579400327,left,0.8886554003693163,2,0,0,99,0.48000000000000004,-0.16,left,0.8086250000633299,,,,,970.6111910003237,972.164579400327,0.56,-0.24,0.0,0.0,-0.24,0.56,0.56,0.56,-0.24,968.7004404999316,968.7004404999316,968.7004404999316,968.7004404999316,968.7004404999316,968.7004404999316,968.7004404999316,968.7004404999316,968.6928987704218,2.0205153999850154,return,1.8785629998892546,,,,,,,,,,,,,,,,,,,,,,,,,,,,,,,,,JDJK0V,train_y,blue_star,bottom_right,2025-02-20_16h52.25.963,HideSeek_v1,2022.2.5,59.86790739117194,
,9,3,9,7,0,4,65,,train_dim1_1,9,30,,,,2,0,2,0,,,,,,,,,0,0,0,0,0,8,8,8,1,0,1,0,,,,,,,,,,,,,,,,,,,,,,,,,,,,,,,,,,,,,,,,,,,,,,,,,,,,,,,,,,,,,,,,30,,,,,,,,973.0595856001601,973.0595856001601,973.0595856001601,973.0595856001601,973.0595856001601,left,0.44322310015559196,2,0,0,99,0.4,-0.16,left,0.3588149002753198,,,,,,,,,,,,,,,,,,,,,,,,,,,,,,,,,,,,,,,,,,,,,,,,,,,,,,,,,,,,JDJK0V,train_y,blue_star,bottom_right,2025-02-20_16h52.25.963,HideSeek_v1,2022.2.5,59.86790739117194,
,9,3,9,7,0,4,65,,train_dim1_1,9,30,,,,2,0,2,0,,,,,,,,,0,0,0,0,0,8,8,8,2,0,2,0,,,,,,,,,,,,,,,,,,,,,,,,,,,,,,,,,,,,,,,,,,,,,,,,,,,,,,,,,,,,,,,,30,,,,,,,,973.5101409000345,973.5101409000345,973.5101409000345,973.5101409000345,973.5101409000345,left,0.3265045997686684,2,0,0,99,0.32,-0.16,left,0.25001509999856353,,,,,,,,,,,,,,,,,,,,,,,,,,,,,,,,,,,,,,,,,,,,,,,,,,,,,,,,,,,,JDJK0V,train_y,blue_star,bottom_right,2025-02-20_16h52.25.963,HideSeek_v1,2022.2.5,59.86790739117194,
,9,3,9,7,0,4,65,,train_dim1_1,9,30,,,,2,0,2,0,,,,,,,,,0,0,0,0,0,8,8,8,3,0,3,0,,,,,,,,,,,,,,,,,,,,,,,,,,,,,,,,,,,,,,,,,,,,,,,,,,,,,,,,,,,,,,,,30,,,,,,,,973.8438046001829,973.8438046001829,973.8438046001829,973.8438046001829,973.8438046001829,left,0.3430637000128627,2,0,0,99,0.24,-0.16,left,0.2586599998176098,,,,,,,,,,,,,,,,,,,,,,,,,,,,,,,,,,,,,,,,,,,,,,,,,,,,,,,,,,,,JDJK0V,train_y,blue_star,bottom_right,2025-02-20_16h52.25.963,HideSeek_v1,2022.2.5,59.86790739117194,
,9,3,9,7,0,4,65,,train_dim1_1,9,30,,,,2,0,2,0,,,,,,,,,0,0,0,0,0,8,8,8,4,0,4,0,,,,,,,,,,,,,,,,,,,,,,,,,,,,,,,,,,,,,,,,,,,,,,,,,,,,,,,,,,,,,,,,30,,,,,,,,974.194334000349,974.194334000349,974.194334000349,974.194334000349,974.194334000349,return,0.8938603000715375,2,0,0,0,0.24,-0.16,return,0.8054750999435782,6,-20,0.24,-0.16,,,,,,,,,,,,,,,,,,,,,,,,,,,,,,,,,,,,,,,,,,,,,,,,,,,,,,,,JDJK0V,train_y,blue_star,bottom_right,2025-02-20_16h52.25.963,HideSeek_v1,2022.2.5,59.86790739117194,
,7,2,7,7,0,5,66,,train_dim1_1,10,30,,,,2,0,2,0,,,,,,,,,0,0,0,0,0,9,9,9,0,0,0,0,,,,,,,,,,,,,,,,,,,,,,,,,stimuli/alien_stimuli/66.png,,,,,,,,,,,,,,,,,,,,,,,,,,,,,stimuli/alien_stimuli/65.png,65,9,11,,,,,,,30,,,,,,,,979.6026834002696,979.6026834002696,979.6026834002696,979.6026834002696,979.6026834002696,down,3.7254106998443604,2,0,0,99,0.4,-0.32,down,3.6523271002806723,,,,,978.0506414999254,979.6026834002696,0.56,0.16,0.32,0.0,0.0,0.56,0.56,0.56,0.16,976.6379424002953,976.6379424002953,976.6379424002953,976.6379424002953,976.6379424002953,976.6379424002953,976.6379424002953,976.6379424002953,976.632796960231,1.5037627001293004,return,1.3913937001489103,,,,,,,,,,,,,,,,,,,,,,,,,,,,,,,,,JDJK0V,train_y,blue_star,bottom_right,2025-02-20_16h52.25.963,HideSeek_v1,2022.2.5,59.86790739117194,
,7,2,7,7,0,5,66,,train_dim1_1,10,30,,,,2,0,2,0,,,,,,,,,0,0,0,0,0,9,9,9,1,0,1,0,,,,,,,,,,,,,,,,,,,,,,,,,,,,,,,,,,,,,,,,,,,,,,,,,,,,,,,,,,,,,,,,30,,,,,,,,983.3349107000977,983.3349107000977,983.3349107000977,983.3349107000977,983.3349107000977,down,0.49292670004069805,2,0,0,99,0.4,-0.4,down,0.4095208002254367,,,,,,,,,,,,,,,,,,,,,,,,,,,,,,,,,,,,,,,,,,,,,,,,,,,,,,,,,,,,JDJK0V,train_y,blue_star,bottom_right,2025-02-20_16h52.25.963,HideSeek_v1,2022.2.5,59.86790739117194,
,7,2,7,7,0,5,66,,train_dim1_1,10,30,,,,2,0,2,0,,,,,,,,,0,0,0,0,0,9,9,9,2,0,2,0,,,,,,,,,,,,,,,,,,,,,,,,,,,,,,,,,,,,,,,,,,,,,,,,,,,,,,,,,,,,,,,,30,,,,,,,,983.8354938002303,983.8354938002303,983.8354938002303,983.8354938002303,983.8354938002303,return,1.5443493002094328,2,0,0,0,0.4,-0.4,return,1.4706403003074229,4,-20,0.4,-0.4,,,,,,,,,,,,,,,,,,,,,,,,,,,,,,,,,,,,,,,,,,,,,,,,,,,,,,,,JDJK0V,train_y,blue_star,bottom_right,2025-02-20_16h52.25.963,HideSeek_v1,2022.2.5,59.86790739117194,
,9,1,9,5,0,4,65,,train_dim1_1,11,30,,,,2,0,2,0,,,,,,,,,0,0,0,0,0,10,10,10,0,0,0,0,,,,,,,,,,,,,,,,,,,,,,,,,stimuli/alien_stimuli/65.png,,,,,,,,,,,,,,,,,,,,,,,,,,,,,stimuli/alien_stimuli/66.png,66,7,12,,,,,,,30,,,,,,,,989.5141473002732,989.5141473002732,989.5141473002732,989.5141473002732,989.5141473002732,up,1.3200102001428604,2,0,0,99,0.56,-0.24,up,1.246547100134194,,,,,987.9590159002692,989.5141473002732,0.4,0.16,0.4,0.0,-0.039999999999999994,0.4,0.4,0.4,0.16,986.9513913001865,986.9513913001865,986.9513913001865,986.9513913001865,986.9513913001865,986.9513913001865,986.9513913001865,986.9513913001865,986.9415257699789,1.1196232000365853,return,0.9797010999172926,,,,,,,,,,,,,,,,,,,,,,,,,,,,,,,,,JDJK0V,train_y,blue_star,bottom_right,2025-02-20_16h52.25.963,HideSeek_v1,2022.2.5,59.86790739117194,
,9,1,9,5,0,4,65,,train_dim1_1,11,30,,,,2,0,2,0,,,,,,,,,0,0,0,0,0,10,10,10,1,0,1,0,,,,,,,,,,,,,,,,,,,,,,,,,,,,,,,,,,,,,,,,,,,,,,,,,,,,,,,,,,,,,,,,30,,,,,,,,990.8414700003341,990.8414700003341,990.8414700003341,990.8414700003341,990.8414700003341,up,0.626210100017488,2,0,0,99,0.56,-0.15999999999999998,up,0.5393199999816716,,,,,,,,,,,,,,,,,,,,,,,,,,,,,,,,,,,,,,,,,,,,,,,,,,,,,,,,,,,,JDJK0V,train_y,blue_star,bottom_right,2025-02-20_16h52.25.963,HideSeek_v1,2022.2.5,59.86790739117194,
,9,1,9,5,0,4,65,,train_dim1_1,11,30,,,,2,0,2,0,,,,,,,,,0,0,0,0,0,10,10,10,2,0,2,0,,,,,,,,,,,,,,,,,,,,,,,,,,,,,,,,,,,,,,,,,,,,,,,,,,,,,,,,,,,,,,,,30,,,,,,,,991.4743174002506,991.4743174002506,991.4743174002506,991.4743174002506,991.4743174002506,up,0.2932408000342548,2,0,0,99,0.56,-0.07999999999999997,up,0.20639549987390637,,,,,,,,,,,,,,,,,,,,,,,,,,,,,,,,,,,,,,,,,,,,,,,,,,,,,,,,,,,,JDJK0V,train_y,blue_star,bottom_right,2025-02-20_16h52.25.963,HideSeek_v1,2022.2.5,59.86790739117194,
,9,1,9,5,0,4,65,,train_dim1_1,11,30,,,,2,0,2,0,,,,,,,,,0,0,0,0,0,10,10,10,3,0,3,0,,,,,,,,,,,,,,,,,,,,,,,,,,,,,,,,,,,,,,,,,,,,,,,,,,,,,,,,,,,,,,,,30,,,,,,,,991.7758341999725,991.7758341999725,991.7758341999725,991.7758341999725,991.7758341999725,up,0.6937255999073386,2,0,0,99,0.56,2.7755575615628914e-17,up,0.6163413999602199,,,,,,,,,,,,,,,,,,,,,,,,,,,,,,,,,,,,,,,,,,,,,,,,,,,,,,,,,,,,JDJK0V,train_y,blue_star,bottom_right,2025-02-20_16h52.25.963,HideSeek_v1,2022.2.5,59.86790739117194,
,9,1,9,5,0,4,65,,train_dim1_1,11,30,,,,2,0,2,0,,,,,,,,,0,0,0,0,0,10,10,10,4,0,4,0,,,,,,,,,,,,,,,,,,,,,,,,,,,,,,,,,,,,,,,,,,,,,,,,,,,,,,,,,,,,,,,,30,,,,,,,,992.4759960002266,992.4759960002266,992.4759960002266,992.4759960002266,992.4759960002266,return,0.627333499956876,3,0,0,1,0.56,2.7755575615628914e-17,return,0.5410205996595323,8,-20,0.56,2.7755575615628914e-17,,,,,,,,,,,,,,,,,,,,,,,,,,,,,,,,,,,,,,,,,,,,,,,,,,,,,,,,JDJK0V,train_y,blue_star,bottom_right,2025-02-20_16h52.25.963,HideSeek_v1,2022.2.5,59.86790739117194,
,5,0,5,0,0,0,61,,train_dim1_1,12,30,,,,2,0,2,0,,,,,,,,,0,0,0,0,0,11,11,11,0,0,0,0,,,,,,,,,,,,,,,,,,,,,,,,,stimuli/alien_stimuli/61.png,,,,,,,,,,,,,,,,,,,,,,,,,,,,,stimuli/alien_stimuli/65.png,65,9,13,,,,,,,30,,,,,,,,997.2047224999405,997.2047224999405,997.2047224999405,997.2047224999405,997.2047224999405,up,1.2697751000523567,3,0,0,99,0.24,-0.32,up,1.1881252001039684,,,,,995.6486464999616,997.2047224999405,0.56,0,0.32,0.0,-0.16,0.56,0.56,0.56,0,994.6548983999528,994.6548983999528,994.6548983999528,994.6548983999528,994.6548983999528,994.6548983999528,994.6548983999528,994.6548983999528,994.6479144602083,1.086279900278896,return,0.9767859997227788,,,,,,,,,,,,,,,,,,,,,,,,,,,,,,,,,JDJK0V,train_y,blue_star,bottom_right,2025-02-20_16h52.25.963,HideSeek_v1,2022.2.5,59.86790739117194,
,5,0,5,0,0,0,61,,train_dim1_1,12,30,,,,2,0,2,0,,,,,,,,,0,0,0,0,0,11,11,11,1,0,1,0,,,,,,,,,,,,,,,,,,,,,,,,,,,,,,,,,,,,,,,,,,,,,,,,,,,,,,,,,,,,,,,,30,,,,,,,,998.4809706001543,998.4809706001543,998.4809706001543,998.4809706001543,998.4809706001543,return,0.726447599940002,3,1,0,0,0.24,-0.32,return,0.6538889002986252,9,-20,0.24,-0.32,,,,,,,,,,,,,,,,,,,,,,,,,,,,,,,,,,,,,,,,,,,,,,,,,,,,,,,,JDJK0V,train_y,blue_star,bottom_right,2025-02-20_16h52.25.963,HideSeek_v1,2022.2.5,59.86790739117194,
,9,3,9,4,0,1,62,,train_dim1_1,13,30,,,,2,0,2,0,,,,,,,,,0,0,0,0,0,12,12,12,0,0,0,0,,,,,,,,,,,,,,,,,,,,,,,,,stimuli/alien_stimuli/62.png,,,,,,,,,,,,,,,,,,,,,,,,,,,,,stimuli/alien_stimuli/61.png,61,5,14,,,,,,,30,,,,,,,,1018.7252277000807,1018.7252277000807,1018.7252277000807,1018.7252277000807,1018.7252277000807,left,1.354680699761957,3,1,0,99,0.48000000000000004,-0.16,left,1.2532663000747561,,,,,1017.1497790003195,1018.7252277000807,0.24,-0.4,0.0,0.0,-0.4,0.24,0.24,0.24,-0.4,1000.7580460002646,1000.7580460002646,1000.7580460002646,1000.7580460002646,1000.7580460002646,1000.7580460002646,1000.7580460002646,1000.7580460002646,1000.7527142602951,16.482874300330877,return,16.365221200045198,,,,,,,,,,,,,,,,,,,,,,,,,,,,,,,,,JDJK0V,train_y,blue_star,bottom_right,2025-02-20_16h52.25.963,HideSeek_v1,2022.2.5,59.86790739117194,
,9,3,9,4,0,1,62,,train_dim1_1,13,30,,,,2,0,2,0,,,,,,,,,0,0,0,0,0,12,12,12,1,0,1,0,,,,,,,,,,,,,,,,,,,,,,,,,,,,,,,,,,,,,,,,,,,,,,,,,,,,,,,,,,,,,,,,30,,,,,,,,1020.0664399000816,1020.0664399000816,1020.0664399000816,1020.0664399000816,1020.0664399000816,right,0.893217199947685,3,1,0,99,0.56,-0.16,right,0.8196880999021232,,,,,,,,,,,,,,,,,,,,,,,,,,,,,,,,,,,,,,,,,,,,,,,,,,,,,,,,,,,,JDJK0V,train_y,blue_star,bottom_right,2025-02-20_16h52.25.963,HideSeek_v1,2022.2.5,59.86790739117194,
,9,3,9,4,0,1,62,,train_dim1_1,13,30,,,,2,0,2,0,,,,,,,,,0,0,0,0,0,12,12,12,2,0,2,0,,,,,,,,,,,,,,,,,,,,,,,,,,,,,,,,,,,,,,,,,,,,,,,,,,,,,,,,,,,,,,,,30,,,,,,,,1020.9661669000052,1020.9661669000052,1020.9661669000052,1020.9661669000052,1020.9661669000052,return,0.37672620033845305,3,1,0,0,0.56,-0.16,return,0.2945718001574278,9,-20,0.56,-0.16,,,,,,,,,,,,,,,,,,,,,,,,,,,,,,,,,,,,,,,,,,,,,,,,,,,,,,,,JDJK0V,train_y,blue_star,bottom_right,2025-02-20_16h52.25.963,HideSeek_v1,2022.2.5,59.86790739117194,
,7,2,7,7,0,5,66,,train_dim1_1,14,30,,,,2,0,2,0,,,,,,,,,0,0,0,0,0,13,13,13,0,0,0,0,,,,,,,,,,,,,,,,,,,,,,,,,stimuli/alien_stimuli/66.png,,,,,,,,,,,,,,,,,,,,,,,,,,,,,stimuli/alien_stimuli/62.png,62,9,15,,,,,,,30,,,,,,,,1025.1962943002582,1025.1962943002582,1025.1962943002582,1025.1962943002582,1025.1962943002582,up,1.2008563997223973,3,1,0,99,0.4,-0.15999999999999998,up,1.1189005998894572,,,,,1023.6385294999927,1025.1962943002582,0.56,-0.08,0.08,0.0,-0.12,0.56,0.56,0.56,-0.08,1022.908670200035,1022.908670200035,1022.908670200035,1022.908670200035,1022.908670200035,1022.908670200035,1022.908670200035,1022.908670200035,1022.9043523702771,0.8363052001222968,return,0.7046317001804709,,,,,,,,,,,,,,,,,,,,,,,,,,,,,,,,,JDJK0V,train_y,blue_star,bottom_right,2025-02-20_16h52.25.963,HideSeek_v1,2022.2.5,59.86790739117194,
,7,2,7,7,0,5,66,,train_dim1_1,14,30,,,,2,0,2,0,,,,,,,,,0,0,0,0,0,13,13,13,1,0,1,0,,,,,,,,,,,,,,,,,,,,,,,,,,,,,,,,,,,,,,,,,,,,,,,,,,,,,,,,,,,,,,,,30,,,,,,,,1026.4044111003168,1026.4044111003168,1026.4044111003168,1026.4044111003168,1026.4044111003168,up,0.8268275000154972,3,1,0,99,0.4,-0.07999999999999997,up,0.7500053998082876,,,,,,,,,,,,,,,,,,,,,,,,,,,,,,,,,,,,,,,,,,,,,,,,,,,,,,,,,,,,JDJK0V,train_y,blue_star,bottom_right,2025-02-20_16h52.25.963,HideSeek_v1,2022.2.5,59.86790739117194,
,7,2,7,7,0,5,66,,train_dim1_1,14,30,,,,2,0,2,0,,,,,,,,,0,0,0,0,0,13,13,13,2,0,2,0,,,,,,,,,,,,,,,,,,,,,,,,,,,,,,,,,,,,,,,,,,,,,,,,,,,,,,,,,,,,,,,,30,,,,,,,,1027.2380246003158,1027.2380246003158,1027.2380246003158,1027.2380246003158,1027.2380246003158,up,0.2597046997398138,3,1,0,99,0.4,2.7755575615628914e-17,up,0.18274560011923313,,,,,,,,,,,,,,,,,,,,,,,,,,,,,,,,,,,,,,,,,,,,,,,,,,,,,,,,,,,,JDJK0V,train_y,blue_star,bottom_right,2025-02-20_16h52.25.963,HideSeek_v1,2022.2.5,59.86790739117194,
,7,2,7,7,0,5,66,,train_dim1_1,14,30,,,,2,0,2,0,,,,,,,,,0,0,0,0,0,13,13,13,3,0,3,0,,,,,,,,,,,,,,,,,,,,,,,,,,,,,,,,,,,,,,,,,,,,,,,,,,,,,,,,,,,,,,,,30,,,,,,,,1027.5057303002104,1027.5057303002104,1027.5057303002104,1027.5057303002104,1027.5057303002104,up,0.26010689977556467,3,1,0,99,0.4,0.08000000000000003,up,0.18155249999836087,,,,,,,,,,,,,,,,,,,,,,,,,,,,,,,,,,,,,,,,,,,,,,,,,,,,,,,,,,,,JDJK0V,train_y,blue_star,bottom_right,2025-02-20_16h52.25.963,HideSeek_v1,2022.2.5,59.86790739117194,
,7,2,7,7,0,5,66,,train_dim1_1,14,30,,,,2,0,2,0,,,,,,,,,0,0,0,0,0,13,13,13,4,0,4,0,,,,,,,,,,,,,,,,,,,,,,,,,,,,,,,,,,,,,,,,,,,,,,,,,,,,,,,,,,,,,,,,30,,,,,,,,1027.7721605999395,1027.7721605999395,1027.7721605999395,1027.7721605999395,1027.7721605999395,up,0.3934031999669969,3,1,0,99,0.4,0.16000000000000003,up,0.30800569988787174,,,,,,,,,,,,,,,,,,,,,,,,,,,,,,,,,,,,,,,,,,,,,,,,,,,,,,,,,,,,JDJK0V,train_y,blue_star,bottom_right,2025-02-20_16h52.25.963,HideSeek_v1,2022.2.5,59.86790739117194,
,7,2,7,7,0,5,66,,train_dim1_1,14,30,,,,2,0,2,0,,,,,,,,,0,0,0,0,0,13,13,13,5,0,5,0,,,,,,,,,,,,,,,,,,,,,,,,,,,,,,,,,,,,,,,,,,,,,,,,,,,,,,,,,,,,,,,,30,,,,,,,,1028.1730621000752,1028.1730621000752,1028.1730621000752,1028.1730621000752,1028.1730621000752,return,0.3933712998405099,4,0,0,1,0.4,0.16000000000000003,return,0.31071560038253665,14,-20,0.4,0.16000000000000003,,,,,,,,,,,,,,,,,,,,,,,,,,,,,,,,,,,,,,,,,,,,,,,,,,,,,,,,JDJK0V,train_y,blue_star,bottom_right,2025-02-20_16h52.25.963,HideSeek_v1,2022.2.5,59.86790739117194,
,6,4,6,7,0,3,64,,train_dim1_1,15,30,,,,2,0,2,0,,,,,,,,,0,0,0,0,0,14,14,14,0,0,0,0,,,,,,,,,,,,,,,,,,,,,,,,,stimuli/alien_stimuli/64.png,,,,,,,,,,,,,,,,,,,,,,,,,,,,,stimuli/alien_stimuli/66.png,66,7,16,,,,,,,30,,,,,,,,1032.931573400274,1032.931573400274,1032.931573400274,1032.931573400274,1032.931573400274,down,1.7049389998428524,4,0,0,99,0.32,-0.16,down,1.6180595001205802,,,,,1031.3782975999638,1032.931573400274,0.4,0.16,0.4,0.0,-0.039999999999999994,0.4,0.4,0.4,0.16,1030.1196196000092,1030.1196196000092,1030.1196196000092,1030.1196196000092,1030.1196196000092,1030.1196196000092,1030.1196196000092,1030.1196196000092,1030.1106126599946,1.3531626998446882,return,1.2335681999102235,,,,,,,,,,,,,,,,,,,,,,,,,,,,,,,,,JDJK0V,train_y,blue_star,bottom_right,2025-02-20_16h52.25.963,HideSeek_v1,2022.2.5,59.86790739117194,
,6,4,6,7,0,3,64,,train_dim1_1,15,30,,,,2,0,2,0,,,,,,,,,0,0,0,0,0,14,14,14,1,0,1,0,,,,,,,,,,,,,,,,,,,,,,,,,,,,,,,,,,,,,,,,,,,,,,,,,,,,,,,,,,,,,,,,30,,,,,,,,1034.6445243000053,1034.6445243000053,1034.6445243000053,1034.6445243000053,1034.6445243000053,return,0.7259573000483215,4,0,0,0,0.32,-0.16,return,0.6451134998351336,13,-20,0.32,-0.16,,,,,,,,,,,,,,,,,,,,,,,,,,,,,,,,,,,,,,,,,,,,,,,,,,,,,,,,JDJK0V,train_y,blue_star,bottom_right,2025-02-20_16h52.25.963,HideSeek_v1,2022.2.5,59.86790739117194,
,9,0,9,4,0,4,65,,train_dim1_1,16,30,,,,2,0,2,0,,,,,,,,,0,0,0,0,0,15,15,15,0,0,0,0,,,,,,,,,,,,,,,,,,,,,,,,,stimuli/alien_stimuli/65.png,,,,,,,,,,,,,,,,,,,,,,,,,,,,,stimuli/alien_stimuli/64.png,64,6,17,,,,,,,30,,,,,,,,1039.5892934002914,1039.5892934002914,1039.5892934002914,1039.5892934002914,1039.5892934002914,up,1.1195232002064586,4,0,0,99,0.56,-0.32,up,1.0433092000894248,,,,,1038.0339315002784,1039.5892934002914,0.32,0.16,0.24,0.0,0.04,0.32,0.32,0.32,0.16,1036.9202964003198,1036.9202964003198,1036.9202964003198,1036.9202964003198,1036.9202964003198,1036.9202964003198,1036.9202964003198,1036.9202964003198,1036.9159479600378,1.203264500014484,return,1.0897531998343766,,,,,,,,,,,,,,,,,,,,,,,,,,,,,,,,,JDJK0V,train_y,blue_star,bottom_right,2025-02-20_16h52.25.963,HideSeek_v1,2022.2.5,59.86790739117194,
,9,0,9,4,0,4,65,,train_dim1_1,16,30,,,,2,0,2,0,,,,,,,,,0,0,0,0,0,15,15,15,1,0,1,0,,,,,,,,,,,,,,,,,,,,,,,,,,,,,,,,,,,,,,,,,,,,,,,,,,,,,,,,,,,,,,,,30,,,,,,,,1040.7158633000217,1040.7158633000217,1040.7158633000217,1040.7158633000217,1040.7158633000217,up,0.9100512000732124,4,0,0,99,0.56,-0.24,up,0.8272330001927912,,,,,,,,,,,,,,,,,,,,,,,,,,,,,,,,,,,,,,,,,,,,,,,,,,,,,,,,,,,,JDJK0V,train_y,blue_star,bottom_right,2025-02-20_16h52.25.963,HideSeek_v1,2022.2.5,59.86790739117194,
,9,0,9,4,0,4,65,,train_dim1_1,16,30,,,,2,0,2,0,,,,,,,,,0,0,0,0,0,15,15,15,2,0,2,0,,,,,,,,,,,,,,,,,,,,,,,,,,,,,,,,,,,,,,,,,,,,,,,,,,,,,,,,,,,,,,,,30,,,,,,,,1041.633868300356,1041.633868300356,1041.633868300356,1041.633868300356,1041.633868300356,up,0.27649480011314154,4,0,0,99,0.56,-0.15999999999999998,up,0.19379829987883568,,,,,,,,,,,,,,,,,,,,,,,,,,,,,,,,,,,,,,,,,,,,,,,,,,,,,,,,,,,,JDJK0V,train_y,blue_star,bottom_right,2025-02-20_16h52.25.963,HideSeek_v1,2022.2.5,59.86790739117194,
,9,0,9,4,0,4,65,,train_dim1_1,16,30,,,,2,0,2,0,,,,,,,,,0,0,0,0,0,15,15,15,3,0,3,0,,,,,,,,,,,,,,,,,,,,,,,,,,,,,,,,,,,,,,,,,,,,,,,,,,,,,,,,,,,,,,,,30,,,,,,,,1041.9178565000184,1041.9178565000184,1041.9178565000184,1041.9178565000184,1041.9178565000184,up,0.2763911997899413,4,0,0,99,0.56,-0.07999999999999997,up,0.19253480015322566,,,,,,,,,,,,,,,,,,,,,,,,,,,,,,,,,,,,,,,,,,,,,,,,,,,,,,,,,,,,JDJK0V,train_y,blue_star,bottom_right,2025-02-20_16h52.25.963,HideSeek_v1,2022.2.5,59.86790739117194,
,9,0,9,4,0,4,65,,train_dim1_1,16,30,,,,2,0,2,0,,,,,,,,,0,0,0,0,0,15,15,15,4,0,4,0,,,,,,,,,,,,,,,,,,,,,,,,,,,,,,,,,,,,,,,,,,,,,,,,,,,,,,,,,,,,,,,,30,,,,,,,,1042.19960300019,1042.19960300019,1042.19960300019,1042.19960300019,1042.19960300019,up,0.3933502999134362,4,0,0,99,0.56,2.7755575615628914e-17,up,0.31293120002374053,,,,,,,,,,,,,,,,,,,,,,,,,,,,,,,,,,,,,,,,,,,,,,,,,,,,,,,,,,,,JDJK0V,train_y,blue_star,bottom_right,2025-02-20_16h52.25.963,HideSeek_v1,2022.2.5,59.86790739117194,
,9,0,9,4,0,4,65,,train_dim1_1,16,30,,,,2,0,2,0,,,,,,,,,0,0,0,0,0,15,15,15,5,0,5,0,,,,,,,,,,,,,,,,,,,,,,,,,,,,,,,,,,,,,,,,,,,,,,,,,,,,,,,,,,,,,,,,30,,,,,,,,1042.6012655999511,1042.6012655999511,1042.6012655999511,1042.6012655999511,1042.6012655999511,return,0.3264323999173939,4,1,0,0,0.56,2.7755575615628914e-17,return,0.24150909995660186,18,-20,0.56,2.7755575615628914e-17,,,,,,,,,,,,,,,,,,,,,,,,,,,,,,,,,,,,,,,,,,,,,,,,,,,,,,,,JDJK0V,train_y,blue_star,bottom_right,2025-02-20_16h52.25.963,HideSeek_v1,2022.2.5,59.86790739117194,
,8,3,8,6,0,3,64,,train_dim1_1,17,30,,,,2,0,2,0,,,,,,,,,0,0,0,0,0,16,16,16,0,0,0,0,,,,,,,,,,,,,,,,,,,,,,,,,stimuli/alien_stimuli/64.png,,,,,,,,,,,,,,,,,,,,,,,,,,,,,stimuli/alien_stimuli/65.png,65,9,18,,,,,,,30,,,,,,,,1047.1099328002892,1047.1099328002892,1047.1099328002892,1047.1099328002892,1047.1099328002892,up,1.2883429997600615,4,1,0,99,0.48,-0.08,up,1.2093342002481222,,,,,1045.556611600332,1047.1099328002892,0.56,-0.08,0.32,0.0,-0.24000000000000002,0.56,0.56,0.56,-0.08,1044.4773830003105,1044.4773830003105,1044.4773830003105,1044.4773830003105,1044.4773830003105,1044.4773830003105,1044.4773830003105,1044.4773830003105,1044.4724490603433,1.1699072001501918,return,1.060485300142318,,,,,,,,,,,,,,,,,,,,,,,,,,,,,,,,,JDJK0V,train_y,blue_star,bottom_right,2025-02-20_16h52.25.963,HideSeek_v1,2022.2.5,59.86790739117194,
,8,3,8,6,0,3,64,,train_dim1_1,17,30,,,,2,0,2,0,,,,,,,,,0,0,0,0,0,16,16,16,1,0,1,0,,,,,,,,,,,,,,,,,,,,,,,,,,,,,,,,,,,,,,,,,,,,,,,,,,,,,,,,,,,,,,,,30,,,,,,,,1048.4064740999602,1048.4064740999602,1048.4064740999602,1048.4064740999602,1048.4064740999602,up,0.3428468997590244,4,1,0,99,0.48,0.0,up,0.26833210000768304,,,,,,,,,,,,,,,,,,,,,,,,,,,,,,,,,,,,,,,,,,,,,,,,,,,,,,,,,,,,JDJK0V,train_y,blue_star,bottom_right,2025-02-20_16h52.25.963,HideSeek_v1,2022.2.5,59.86790739117194,
,8,3,8,6,0,3,64,,train_dim1_1,17,30,,,,2,0,2,0,,,,,,,,,0,0,0,0,0,16,16,16,2,0,2,0,,,,,,,,,,,,,,,,,,,,,,,,,,,,,,,,,,,,,,,,,,,,,,,,,,,,,,,,,,,,,,,,30,,,,,,,,1048.7553071002476,1048.7553071002476,1048.7553071002476,1048.7553071002476,1048.7553071002476,up,0.32635500002652407,4,1,0,99,0.48,0.08,up,0.239000900182873,,,,,,,,,,,,,,,,,,,,,,,,,,,,,,,,,,,,,,,,,,,,,,,,,,,,,,,,,,,,JDJK0V,train_y,blue_star,bottom_right,2025-02-20_16h52.25.963,HideSeek_v1,2022.2.5,59.86790739117194,
,8,3,8,6,0,3,64,,train_dim1_1,17,30,,,,2,0,2,0,,,,,,,,,0,0,0,0,0,16,16,16,3,0,3,0,,,,,,,,,,,,,,,,,,,,,,,,,,,,,,,,,,,,,,,,,,,,,,,,,,,,,,,,,,,,,,,,30,,,,,,,,1049.0911953002214,1049.0911953002214,1049.0911953002214,1049.0911953002214,1049.0911953002214,up,0.2934719999320805,4,1,0,99,0.48,0.16,up,0.21786970039829612,,,,,,,,,,,,,,,,,,,,,,,,,,,,,,,,,,,,,,,,,,,,,,,,,,,,,,,,,,,,JDJK0V,train_y,blue_star,bottom_right,2025-02-20_16h52.25.963,HideSeek_v1,2022.2.5,59.86790739117194,
,8,3,8,6,0,3,64,,train_dim1_1,17,30,,,,2,0,2,0,,,,,,,,,0,0,0,0,0,16,16,16,4,0,4,0,,,,,,,,,,,,,,,,,,,,,,,,,,,,,,,,,,,,,,,,,,,,,,,,,,,,,,,,,,,,,,,,30,,,,,,,,1049.3885210002773,1049.3885210002773,1049.3885210002773,1049.3885210002773,1049.3885210002773,down,0.36001639999449253,4,1,0,99,0.48,0.08,down,0.2789940000511706,,,,,,,,,,,,,,,,,,,,,,,,,,,,,,,,,,,,,,,,,,,,,,,,,,,,,,,,,,,,JDJK0V,train_y,blue_star,bottom_right,2025-02-20_16h52.25.963,HideSeek_v1,2022.2.5,59.86790739117194,
,8,3,8,6,0,3,64,,train_dim1_1,17,30,,,,2,0,2,0,,,,,,,,,0,0,0,0,0,16,16,16,5,0,5,0,,,,,,,,,,,,,,,,,,,,,,,,,,,,,,,,,,,,,,,,,,,,,,,,,,,,,,,,,,,,,,,,30,,,,,,,,1049.7571360999718,1049.7571360999718,1049.7571360999718,1049.7571360999718,1049.7571360999718,up,0.5933434003964067,4,1,0,99,0.48,0.16,up,0.5155676999129355,,,,,,,,,,,,,,,,,,,,,,,,,,,,,,,,,,,,,,,,,,,,,,,,,,,,,,,,,,,,JDJK0V,train_y,blue_star,bottom_right,2025-02-20_16h52.25.963,HideSeek_v1,2022.2.5,59.86790739117194,
,8,3,8,6,0,3,64,,train_dim1_1,17,30,,,,2,0,2,0,,,,,,,,,0,0,0,0,0,16,16,16,6,0,6,0,,,,,,,,,,,,,,,,,,,,,,,,,,,,,,,,,,,,,,,,,,,,,,,,,,,,,,,,,,,,,,,,30,,,,,,,,1050.3564177001826,1050.3564177001826,1050.3564177001826,1050.3564177001826,1050.3564177001826,return,0.5771515001542866,4,1,0,0,0.48,0.16,return,0.497210499830544,22,-20,0.48,0.16,,,,,,,,,,,,,,,,,,,,,,,,,,,,,,,,,,,,,,,,,,,,,,,,,,,,,,,,JDJK0V,train_y,blue_star,bottom_right,2025-02-20_16h52.25.963,HideSeek_v1,2022.2.5,59.86790739117194,
,7,1,7,1,0,0,61,,train_dim1_1,18,30,,,,2,0,2,0,,,,,,,,,0,0,0,0,0,17,17,17,0,0,0,0,,,,,,,,,,,,,,,,,,,,,,,,,stimuli/alien_stimuli/61.png,,,,,,,,,,,,,,,,,,,,,,,,,,,,,stimuli/alien_stimuli/64.png,64,8,19,,,,,,,30,,,,,,,,1055.1845068000257,1055.1845068000257,1055.1845068000257,1055.1845068000257,1055.1845068000257,return,1.938393299933523,5,0,0,1,0.4,-0.32,return,1.857726200018078,22,-20,0.4,-0.32,1053.630043900106,1055.1845068000257,0.48,0.08,0.24,0.0,-0.04,0.48,0.48,0.48,0.08,1052.4848356000148,1052.4848356000148,1052.4848356000148,1052.4848356000148,1052.4848356000148,1052.4848356000148,1052.4848356000148,1052.4848356000148,1052.4790292603896,1.2365172002464533,return,1.1137027000077069,,,,,,,,,,,,,,,,,,,,,,,,,,,,,,,,,JDJK0V,train_y,blue_star,bottom_right,2025-02-20_16h52.25.963,HideSeek_v1,2022.2.5,59.86790739117194,
,5,4,5,5,0,1,62,,train_dim1_1,19,30,,,,2,0,2,0,,,,,,,,,0,0,0,0,0,18,18,18,0,0,0,0,,,,,,,,,,,,,,,,,,,,,,,,,stimuli/alien_stimuli/62.png,,,,,,,,,,,,,,,,,,,,,,,,,,,,,stimuli/alien_stimuli/61.png,61,7,20,,,,,,,30,,,,,,,,1061.8748809001409,1061.8748809001409,1061.8748809001409,1061.8748809001409,1061.8748809001409,return,1.2698685000650585,5,1,0,0,0.24,-0.08,return,1.1963802999816835,22,-20,0.24,-0.08,1060.3188841999508,1061.8748809001409,0.4,-0.32,0.0,0.0,-0.32,0.4,0.4,0.4,-0.32,1058.6729194000363,1058.6729194000363,1058.6729194000363,1058.6729194000363,1058.6729194000363,1058.6729194000363,1058.6729194000363,1058.6729194000363,1058.6676994602196,1.7368707996793091,return,1.623605899978429,,,,,,,,,,,,,,,,,,,,,,,,,,,,,,,,,JDJK0V,train_y,blue_star,bottom_right,2025-02-20_16h52.25.963,HideSeek_v1,2022.2.5,59.86790739117194,
,7,0,7,5,0,5,66,,train_dim1_1,20,30,,,,2,0,2,0,,,,,,,,,0,0,0,0,0,19,19,19,0,0,0,0,,,,,,,,,,,,,,,,,,,,,,,,,stimuli/alien_stimuli/66.png,,,,,,,,,,,,,,,,,,,,,,,,,,,,,stimuli/alien_stimuli/62.png,62,5,21,,,,,,,30,,,,,,,,1067.2763462001458,1067.2763462001458,1067.2763462001458,1067.2763462001458,1067.2763462001458,up,1.272148999851197,5,1,0,99,0.4,-0.32,up,1.18429009988904,,,,,1065.7234120001085,1067.2763462001458,0.24,0,0.08,0.0,-0.04,0.24,0.24,0.24,0,1064.715991999954,1064.715991999954,1064.715991999954,1064.715991999954,1064.715991999954,1064.715991999954,1064.715991999954,1064.715991999954,1064.7058835701087,1.1195928999222815,return,0.988809899892658,,,,,,,,,,,,,,,,,,,,,,,,,,,,,,,,,JDJK0V,train_y,blue_star,bottom_right,2025-02-20_16h52.25.963,HideSeek_v1,2022.2.5,59.86790739117194,
,7,0,7,5,0,5,66,,train_dim1_1,20,30,,,,2,0,2,0,,,,,,,,,0,0,0,0,0,19,19,19,1,0,1,0,,,,,,,,,,,,,,,,,,,,,,,,,,,,,,,,,,,,,,,,,,,,,,,,,,,,,,,,,,,,,,,,30,,,,,,,,1068.555299400352,1068.555299400352,1068.555299400352,1068.555299400352,1068.555299400352,up,0.29288960015401244,5,1,0,99,0.4,-0.24,up,0.20790249994024634,,,,,,,,,,,,,,,,,,,,,,,,,,,,,,,,,,,,,,,,,,,,,,,,,,,,,,,,,,,,JDJK0V,train_y,blue_star,bottom_right,2025-02-20_16h52.25.963,HideSeek_v1,2022.2.5,59.86790739117194,
,7,0,7,5,0,5,66,,train_dim1_1,20,30,,,,2,0,2,0,,,,,,,,,0,0,0,0,0,19,19,19,2,0,2,0,,,,,,,,,,,,,,,,,,,,,,,,,,,,,,,,,,,,,,,,,,,,,,,,,,,,,,,,,,,,,,,,30,,,,,,,,1068.855745300185,1068.855745300185,1068.855745300185,1068.855745300185,1068.855745300185,up,0.3433577003888786,5,1,0,99,0.4,-0.15999999999999998,up,0.26556820003315806,,,,,,,,,,,,,,,,,,,,,,,,,,,,,,,,,,,,,,,,,,,,,,,,,,,,,,,,,,,,JDJK0V,train_y,blue_star,bottom_right,2025-02-20_16h52.25.963,HideSeek_v1,2022.2.5,59.86790739117194,
,7,0,7,5,0,5,66,,train_dim1_1,20,30,,,,2,0,2,0,,,,,,,,,0,0,0,0,0,19,19,19,3,0,3,0,,,,,,,,,,,,,,,,,,,,,,,,,,,,,,,,,,,,,,,,,,,,,,,,,,,,,,,,,,,,,,,,30,,,,,,,,1069.2064835000783,1069.2064835000783,1069.2064835000783,1069.2064835000783,1069.2064835000783,up,0.25983939971774817,5,1,0,99,0.4,-0.07999999999999997,up,0.18049729987978935,,,,,,,,,,,,,,,,,,,,,,,,,,,,,,,,,,,,,,,,,,,,,,,,,,,,,,,,,,,,JDJK0V,train_y,blue_star,bottom_right,2025-02-20_16h52.25.963,HideSeek_v1,2022.2.5,59.86790739117194,
,7,0,7,5,0,5,66,,train_dim1_1,20,30,,,,2,0,2,0,,,,,,,,,0,0,0,0,0,19,19,19,4,0,4,0,,,,,,,,,,,,,,,,,,,,,,,,,,,,,,,,,,,,,,,,,,,,,,,,,,,,,,,,,,,,,,,,30,,,,,,,,1069.4731110003777,1069.4731110003777,1069.4731110003777,1069.4731110003777,1069.4731110003777,up,0.3100773999467492,5,1,0,99,0.4,2.7755575615628914e-17,up,0.22756210016086698,,,,,,,,,,,,,,,,,,,,,,,,,,,,,,,,,,,,,,,,,,,,,,,,,,,,,,,,,,,,JDJK0V,train_y,blue_star,bottom_right,2025-02-20_16h52.25.963,HideSeek_v1,2022.2.5,59.86790739117194,
,7,0,7,5,0,5,66,,train_dim1_1,20,30,,,,2,0,2,0,,,,,,,,,0,0,0,0,0,19,19,19,5,0,5,0,,,,,,,,,,,,,,,,,,,,,,,,,,,,,,,,,,,,,,,,,,,,,,,,,,,,,,,,,,,,,,,,30,,,,,,,,1069.7891232999973,1069.7891232999973,1069.7891232999973,1069.7891232999973,1069.7891232999973,down,1.077100900001824,5,1,0,99,0.4,-0.07999999999999997,down,0.9926840998232365,,,,,,,,,,,,,,,,,,,,,,,,,,,,,,,,,,,,,,,,,,,,,,,,,,,,,,,,,,,,JDJK0V,train_y,blue_star,bottom_right,2025-02-20_16h52.25.963,HideSeek_v1,2022.2.5,59.86790739117194,
,7,0,7,5,0,5,66,,train_dim1_1,20,30,,,,2,0,2,0,,,,,,,,,0,0,0,0,0,19,19,19,6,0,6,0,,,,,,,,,,,,,,,,,,,,,,,,,,,,,,,,,,,,,,,,,,,,,,,,,,,,,,,,,,,,,,,,30,,,,,,,,1070.874738899991,1070.874738899991,1070.874738899991,1070.874738899991,1070.874738899991,up,1.444141499698162,5,1,0,99,0.4,2.7755575615628914e-17,up,1.35639589978382,,,,,,,,,,,,,,,,,,,,,,,,,,,,,,,,,,,,,,,,,,,,,,,,,,,,,,,,,,,,JDJK0V,train_y,blue_star,bottom_right,2025-02-20_16h52.25.963,HideSeek_v1,2022.2.5,59.86790739117194,
,7,0,7,5,0,5,66,,train_dim1_1,20,30,,,,2,0,2,0,,,,,,,,,0,0,0,0,0,19,19,19,7,0,7,0,,,,,,,,,,,,,,,,,,,,,,,,,,,,,,,,,,,,,,,,,,,,,,,,,,,,,,,,,,,,,,,,30,,,,,,,,1072.324894899968,1072.324894899968,1072.324894899968,1072.324894899968,1072.324894899968,return,0.3099768003448844,6,0,0,1,0.4,2.7755575615628914e-17,return,0.2287608003243804,27,-20,0.4,2.7755575615628914e-17,,,,,,,,,,,,,,,,,,,,,,,,,,,,,,,,,,,,,,,,,,,,,,,,,,,,,,,,JDJK0V,train_y,blue_star,bottom_right,2025-02-20_16h52.25.963,HideSeek_v1,2022.2.5,59.86790739117194,
,7,4,7,8,0,4,65,,train_dim1_1,21,30,,,,2,0,2,0,,,,,,,,,0,0,0,0,0,20,20,20,0,0,0,0,,,,,,,,,,,,,,,,,,,,,,,,,stimuli/alien_stimuli/65.png,,,,,,,,,,,,,,,,,,,,,,,,,,,,,stimuli/alien_stimuli/66.png,66,7,22,,,,,,,30,,,,,,,,1077.1853529000655,1077.1853529000655,1077.1853529000655,1077.1853529000655,1077.1853529000655,up,2.2722081001847982,6,0,0,99,0.4,0.0,up,2.197016399819404,,,,,1075.6314986003563,1077.1853529000655,0.4,0,0.4,0.0,-0.2,0.4,0.4,0.4,0,1074.184529100079,1074.184529100079,1074.184529100079,1074.184529100079,1074.184529100079,1074.184529100079,1074.184529100079,1074.184529100079,1074.180418059975,1.536597500089556,return,1.4254203997552395,,,,,,,,,,,,,,,,,,,,,,,,,,,,,,,,,JDJK0V,train_y,blue_star,bottom_right,2025-02-20_16h52.25.963,HideSeek_v1,2022.2.5,59.86790739117194,
,7,4,7,8,0,4,65,,train_dim1_1,21,30,,,,2,0,2,0,,,,,,,,,0,0,0,0,0,20,20,20,1,0,1,0,,,,,,,,,,,,,,,,,,,,,,,,,,,,,,,,,,,,,,,,,,,,,,,,,,,,,,,,,,,,,,,,30,,,,,,,,1079.4646410001442,1079.4646410001442,1079.4646410001442,1079.4646410001442,1079.4646410001442,up,1.0266864001750946,6,0,0,99,0.4,0.08,up,0.9500967999920249,,,,,,,,,,,,,,,,,,,,,,,,,,,,,,,,,,,,,,,,,,,,,,,,,,,,,,,,,,,,JDJK0V,train_y,blue_star,bottom_right,2025-02-20_16h52.25.963,HideSeek_v1,2022.2.5,59.86790739117194,
,7,4,7,8,0,4,65,,train_dim1_1,21,30,,,,2,0,2,0,,,,,,,,,0,0,0,0,0,20,20,20,2,0,2,0,,,,,,,,,,,,,,,,,,,,,,,,,,,,,,,,,,,,,,,,,,,,,,,,,,,,,,,,,,,,,,,,30,,,,,,,,1080.4981571999379,1080.4981571999379,1080.4981571999379,1080.4981571999379,1080.4981571999379,up,0.3102150997146964,6,0,0,99,0.4,0.16,up,0.2386694997549057,,,,,,,,,,,,,,,,,,,,,,,,,,,,,,,,,,,,,,,,,,,,,,,,,,,,,,,,,,,,JDJK0V,train_y,blue_star,bottom_right,2025-02-20_16h52.25.963,HideSeek_v1,2022.2.5,59.86790739117194,
,7,4,7,8,0,4,65,,train_dim1_1,21,30,,,,2,0,2,0,,,,,,,,,0,0,0,0,0,20,20,20,3,0,3,0,,,,,,,,,,,,,,,,,,,,,,,,,,,,,,,,,,,,,,,,,,,,,,,,,,,,,,,,,,,,,,,,30,,,,,,,,1080.8153269002214,1080.8153269002214,1080.8153269002214,1080.8153269002214,1080.8153269002214,up,0.3096718001179397,6,0,0,99,0.4,0.24,up,0.2369360001757741,,,,,,,,,,,,,,,,,,,,,,,,,,,,,,,,,,,,,,,,,,,,,,,,,,,,,,,,,,,,JDJK0V,train_y,blue_star,bottom_right,2025-02-20_16h52.25.963,HideSeek_v1,2022.2.5,59.86790739117194,
,7,4,7,8,0,4,65,,train_dim1_1,21,30,,,,2,0,2,0,,,,,,,,,0,0,0,0,0,20,20,20,4,0,4,0,,,,,,,,,,,,,,,,,,,,,,,,,,,,,,,,,,,,,,,,,,,,,,,,,,,,,,,,,,,,,,,,30,,,,,,,,1081.1324018002488,1081.1324018002488,1081.1324018002488,1081.1324018002488,1081.1324018002488,up,1.2772059999406338,6,0,0,99,0.4,0.32,up,1.1961329001933336,,,,,,,,,,,,,,,,,,,,,,,,,,,,,,,,,,,,,,,,,,,,,,,,,,,,,,,,,,,,JDJK0V,train_y,blue_star,bottom_right,2025-02-20_16h52.25.963,HideSeek_v1,2022.2.5,59.86790739117194,
,7,4,7,8,0,4,65,,train_dim1_1,21,30,,,,2,0,2,0,,,,,,,,,0,0,0,0,0,20,20,20,5,0,5,0,,,,,,,,,,,,,,,,,,,,,,,,,,,,,,,,,,,,,,,,,,,,,,,,,,,,,,,,,,,,,,,,30,,,,,,,,1082.41659909999,1082.41659909999,1082.41659909999,1082.41659909999,1082.41659909999,return,0.4433006998151541,6,1,0,0,0.4,0.32,return,0.360508999787271,32,-20,0.4,0.32,,,,,,,,,,,,,,,,,,,,,,,,,,,,,,,,,,,,,,,,,,,,,,,,,,,,,,,,JDJK0V,train_y,blue_star,bottom_right,2025-02-20_16h52.25.963,HideSeek_v1,2022.2.5,59.86790739117194,
,5,2,5,5,0,3,64,,train_dim1_1,22,30,,,,2,0,2,0,,,,,,,,,0,0,0,0,0,21,21,21,0,0,0,0,,,,,,,,,,,,,,,,,,,,,,,,,stimuli/alien_stimuli/64.png,,,,,,,,,,,,,,,,,,,,,,,,,,,,,stimuli/alien_stimuli/65.png,65,7,23,,,,,,,30,,,,,,,,1086.725844600238,1086.725844600238,1086.725844600238,1086.725844600238,1086.725844600238,up,1.1556164002977312,6,1,0,99,0.24,-0.15999999999999998,up,1.0716206999495625,,,,,1085.1728268000297,1086.725844600238,0.4,0.24,0.32,0.0,0.07999999999999999,0.4,0.4,0.4,0.24,1084.426351699978,1084.426351699978,1084.426351699978,1084.426351699978,1084.426351699978,1084.426351699978,1084.426351699978,1084.426351699978,1084.4223468700425,0.8527362002059817,return,0.714820799883455,,,,,,,,,,,,,,,,,,,,,,,,,,,,,,,,,JDJK0V,train_y,blue_star,bottom_right,2025-02-20_16h52.25.963,HideSeek_v1,2022.2.5,59.86790739117194,
,5,2,5,5,0,3,64,,train_dim1_1,22,30,,,,2,0,2,0,,,,,,,,,0,0,0,0,0,21,21,21,1,0,1,0,,,,,,,,,,,,,,,,,,,,,,,,,,,,,,,,,,,,,,,,,,,,,,,,,,,,,,,,,,,,,,,,30,,,,,,,,1087.888724599965,1087.888724599965,1087.888724599965,1087.888724599965,1087.888724599965,up,0.29280960001051426,6,1,0,99,0.24,-0.07999999999999997,up,0.2097554001957178,,,,,,,,,,,,,,,,,,,,,,,,,,,,,,,,,,,,,,,,,,,,,,,,,,,,,,,,,,,,JDJK0V,train_y,blue_star,bottom_right,2025-02-20_16h52.25.963,HideSeek_v1,2022.2.5,59.86790739117194,
,5,2,5,5,0,3,64,,train_dim1_1,22,30,,,,2,0,2,0,,,,,,,,,0,0,0,0,0,21,21,21,2,0,2,0,,,,,,,,,,,,,,,,,,,,,,,,,,,,,,,,,,,,,,,,,,,,,,,,,,,,,,,,,,,,,,,,30,,,,,,,,1088.1881109001115,1088.1881109001115,1088.1881109001115,1088.1881109001115,1088.1881109001115,up,0.9603218999691308,6,1,0,99,0.24,2.7755575615628914e-17,up,0.8865430001169443,,,,,,,,,,,,,,,,,,,,,,,,,,,,,,,,,,,,,,,,,,,,,,,,,,,,,,,,,,,,JDJK0V,train_y,blue_star,bottom_right,2025-02-20_16h52.25.963,HideSeek_v1,2022.2.5,59.86790739117194,
,5,2,5,5,0,3,64,,train_dim1_1,22,30,,,,2,0,2,0,,,,,,,,,0,0,0,0,0,21,21,21,3,0,3,0,,,,,,,,,,,,,,,,,,,,,,,,,,,,,,,,,,,,,,,,,,,,,,,,,,,,,,,,,,,,,,,,30,,,,,,,,1089.1557772001252,1089.1557772001252,1089.1557772001252,1089.1557772001252,1089.1557772001252,return,0.5435601002536714,7,0,0,1,0.24,2.7755575615628914e-17,return,0.46169109968468547,35,-20,0.24,2.7755575615628914e-17,,,,,,,,,,,,,,,,,,,,,,,,,,,,,,,,,,,,,,,,,,,,,,,,,,,,,,,,JDJK0V,train_y,blue_star,bottom_right,2025-02-20_16h52.25.963,HideSeek_v1,2022.2.5,59.86790739117194,
,5,3,5,3,0,0,61,,train_dim1_1,23,30,,,,2,0,2,0,,,,,,,,,0,0,0,0,0,22,22,22,0,0,0,0,,,,,,,,,,,,,,,,,,,,,,,,,stimuli/alien_stimuli/61.png,,,,,,,,,,,,,,,,,,,,,,,,,,,,,stimuli/alien_stimuli/64.png,64,5,24,,,,,,,30,,,,,,,,1093.482037700247,1093.482037700247,1093.482037700247,1093.482037700247,1093.482037700247,return,1.1044565001502633,8,0,0,1,0.24,-0.16,return,1.03210339974612,35,-20,0.24,-0.16,1091.9284538002685,1093.482037700247,0.24,0,0.24,0.0,-0.12,0.24,0.24,0.24,0,1091.2499918001704,1091.2499918001704,1091.2499918001704,1091.2499918001704,1091.2499918001704,1091.2499918001704,1091.2499918001704,1091.2499918001704,1091.2446258601733,0.7692900998517871,return,0.6477725999429822,,,,,,,,,,,,,,,,,,,,,,,,,,,,,,,,,JDJK0V,train_y,blue_star,bottom_right,2025-02-20_16h52.25.963,HideSeek_v1,2022.2.5,59.86790739117194,
,8,2,8,7,0,5,66,,train_dim1_1,24,30,,,,2,0,2,0,,,,,,,,,0,0,0,0,0,23,23,23,0,0,0,0,,,,,,,,,,,,,,,,,,,,,,,,,stimuli/alien_stimuli/66.png,,,,,,,,,,,,,,,,,,,,,,,,,,,,,stimuli/alien_stimuli/61.png,61,5,25,,,,,,,30,,,,,,,,1098.452386900317,1098.452386900317,1098.452386900317,1098.452386900317,1098.452386900317,up,1.1381186000071466,8,0,0,99,0.48,-0.15999999999999998,up,1.0501900999806821,,,,,1096.8992991000414,1098.452386900317,0.24,-0.16,0.0,0.0,-0.16,0.24,0.24,0.24,-0.16,1096.1374246003106,1096.1374246003106,1096.1374246003106,1096.1374246003106,1096.1374246003106,1096.1374246003106,1096.1374246003106,1096.1374246003106,1096.1318623603322,0.8527420996688306,return,0.7324807001277804,,,,,,,,,,,,,,,,,,,,,,,,,,,,,,,,,JDJK0V,train_y,blue_star,bottom_right,2025-02-20_16h52.25.963,HideSeek_v1,2022.2.5,59.86790739117194,
,8,2,8,7,0,5,66,,train_dim1_1,24,30,,,,2,0,2,0,,,,,,,,,0,0,0,0,0,23,23,23,1,0,1,0,,,,,,,,,,,,,,,,,,,,,,,,,,,,,,,,,,,,,,,,,,,,,,,,,,,,,,,,,,,,,,,,30,,,,,,,,1099.598156500142,1099.598156500142,1099.598156500142,1099.598156500142,1099.598156500142,up,0.7432796000503004,8,0,0,99,0.48,-0.07999999999999997,up,0.6658123000524938,,,,,,,,,,,,,,,,,,,,,,,,,,,,,,,,,,,,,,,,,,,,,,,,,,,,,,,,,,,,JDJK0V,train_y,blue_star,bottom_right,2025-02-20_16h52.25.963,HideSeek_v1,2022.2.5,59.86790739117194,
,8,2,8,7,0,5,66,,train_dim1_1,24,30,,,,2,0,2,0,,,,,,,,,0,0,0,0,0,23,23,23,2,0,2,0,,,,,,,,,,,,,,,,,,,,,,,,,,,,,,,,,,,,,,,,,,,,,,,,,,,,,,,,,,,,,,,,30,,,,,,,,1100.3483151001856,1100.3483151001856,1100.3483151001856,1100.3483151001856,1100.3483151001856,up,0.32651099981740117,8,0,0,99,0.48,2.7755575615628914e-17,up,0.25220600003376603,,,,,,,,,,,,,,,,,,,,,,,,,,,,,,,,,,,,,,,,,,,,,,,,,,,,,,,,,,,,JDJK0V,train_y,blue_star,bottom_right,2025-02-20_16h52.25.963,HideSeek_v1,2022.2.5,59.86790739117194,
,8,2,8,7,0,5,66,,train_dim1_1,24,30,,,,2,0,2,0,,,,,,,,,0,0,0,0,0,23,23,23,3,0,3,0,,,,,,,,,,,,,,,,,,,,,,,,,,,,,,,,,,,,,,,,,,,,,,,,,,,,,,,,,,,,,,,,30,,,,,,,,1100.6818908001296,1100.6818908001296,1100.6818908001296,1100.6818908001296,1100.6818908001296,up,0.342996200080961,8,0,0,99,0.48,0.08000000000000003,up,0.25658920034766197,,,,,,,,,,,,,,,,,,,,,,,,,,,,,,,,,,,,,,,,,,,,,,,,,,,,,,,,,,,,JDJK0V,train_y,blue_star,bottom_right,2025-02-20_16h52.25.963,HideSeek_v1,2022.2.5,59.86790739117194,
,8,2,8,7,0,5,66,,train_dim1_1,24,30,,,,2,0,2,0,,,,,,,,,0,0,0,0,0,23,23,23,4,0,4,0,,,,,,,,,,,,,,,,,,,,,,,,,,,,,,,,,,,,,,,,,,,,,,,,,,,,,,,,,,,,,,,,30,,,,,,,,1101.0330067002214,1101.0330067002214,1101.0330067002214,1101.0330067002214,1101.0330067002214,up,0.35978669999167323,8,0,0,99,0.48,0.16000000000000003,up,0.2760645002126694,,,,,,,,,,,,,,,,,,,,,,,,,,,,,,,,,,,,,,,,,,,,,,,,,,,,,,,,,,,,JDJK0V,train_y,blue_star,bottom_right,2025-02-20_16h52.25.963,HideSeek_v1,2022.2.5,59.86790739117194,
,8,2,8,7,0,5,66,,train_dim1_1,24,30,,,,2,0,2,0,,,,,,,,,0,0,0,0,0,23,23,23,5,0,5,0,,,,,,,,,,,,,,,,,,,,,,,,,,,,,,,,,,,,,,,,,,,,,,,,,,,,,,,,,,,,,,,,30,,,,,,,,1101.3990094000474,1101.3990094000474,1101.3990094000474,1101.3990094000474,1101.3990094000474,return,0.8104718001559377,9,0,0,1,0.48,0.16000000000000003,return,0.7276805001311004,40,-20,0.48,0.16000000000000003,,,,,,,,,,,,,,,,,,,,,,,,,,,,,,,,,,,,,,,,,,,,,,,,,,,,,,,,JDJK0V,train_y,blue_star,bottom_right,2025-02-20_16h52.25.963,HideSeek_v1,2022.2.5,59.86790739117194,
,8,3,8,4,0,1,62,,train_dim1_1,25,30,,,,2,0,2,0,,,,,,,,,0,0,0,0,0,24,24,24,0,0,0,0,,,,,,,,,,,,,,,,,,,,,,,,,stimuli/alien_stimuli/62.png,,,,,,,,,,,,,,,,,,,,,,,,,,,,,stimuli/alien_stimuli/66.png,66,8,26,,,,,,,30,,,,,,,,1106.3440216002055,1106.3440216002055,1106.3440216002055,1106.3440216002055,1106.3440216002055,up,1.671761800069362,9,0,0,99,0.48,-0.08,up,1.5985755999572575,,,,,1104.7891850001179,1106.3440216002055,0.48,0.16,0.4,0.0,-0.039999999999999994,0.48,0.48,0.48,0.16,1103.7609463003464,1103.7609463003464,1103.7609463003464,1103.7609463003464,1103.7609463003464,1103.7609463003464,1103.7609463003464,1103.7609463003464,1103.75500736041,1.119463900104165,return,1.0018568998202682,,,,,,,,,,,,,,,,,,,,,,,,,,,,,,,,,JDJK0V,train_y,blue_star,bottom_right,2025-02-20_16h52.25.963,HideSeek_v1,2022.2.5,59.86790739117194,
,8,3,8,4,0,1,62,,train_dim1_1,25,30,,,,2,0,2,0,,,,,,,,,0,0,0,0,0,24,24,24,1,0,1,0,,,,,,,,,,,,,,,,,,,,,,,,,,,,,,,,,,,,,,,,,,,,,,,,,,,,,,,,,,,,,,,,30,,,,,,,,1108.022394000087,1108.022394000087,1108.022394000087,1108.022394000087,1108.022394000087,down,1.660522900056094,9,0,0,99,0.48,-0.16,down,1.5832247999496758,,,,,,,,,,,,,,,,,,,,,,,,,,,,,,,,,,,,,,,,,,,,,,,,,,,,,,,,,,,,JDJK0V,train_y,blue_star,bottom_right,2025-02-20_16h52.25.963,HideSeek_v1,2022.2.5,59.86790739117194,
,8,3,8,4,0,1,62,,train_dim1_1,25,30,,,,2,0,2,0,,,,,,,,,0,0,0,0,0,24,24,24,2,0,2,0,,,,,,,,,,,,,,,,,,,,,,,,,,,,,,,,,,,,,,,,,,,,,,,,,,,,,,,,,,,,,,,,30,,,,,,,,1109.689129400067,1109.689129400067,1109.689129400067,1109.689129400067,1109.689129400067,up,1.7115360000170767,9,0,0,99,0.48,-0.08,up,1.6323671997524798,,,,,,,,,,,,,,,,,,,,,,,,,,,,,,,,,,,,,,,,,,,,,,,,,,,,,,,,,,,,JDJK0V,train_y,blue_star,bottom_right,2025-02-20_16h52.25.963,HideSeek_v1,2022.2.5,59.86790739117194,
,8,3,8,4,0,1,62,,train_dim1_1,25,30,,,,2,0,2,0,,,,,,,,,0,0,0,0,0,24,24,24,3,0,3,0,,,,,,,,,,,,,,,,,,,,,,,,,,,,,,,,,,,,,,,,,,,,,,,,,,,,,,,,,,,,,,,,30,,,,,,,,1111.4084696001373,1111.4084696001373,1111.4084696001373,1111.4084696001373,1111.4084696001373,return,0.5097935004159808,10,0,0,1,0.48,-0.08,return,0.42143330024555326,41,-20,0.48,-0.08,,,,,,,,,,,,,,,,,,,,,,,,,,,,,,,,,,,,,,,,,,,,,,,,,,,,,,,,JDJK0V,train_y,blue_star,bottom_right,2025-02-20_16h52.25.963,HideSeek_v1,2022.2.5,59.86790739117194,
,9,4,9,7,0,3,64,,train_dim1_1,26,30,,,,2,0,2,0,,,,,,,,,0,0,0,0,0,25,25,25,0,0,0,0,,,,,,,,,,,,,,,,,,,,,,,,,stimuli/alien_stimuli/64.png,,,,,,,,,,,,,,,,,,,,,,,,,,,,,stimuli/alien_stimuli/62.png,62,8,27,,,,,,,30,,,,,,,,1116.1507403003052,1116.1507403003052,1116.1507403003052,1116.1507403003052,1116.1507403003052,up,1.771510399878025,10,0,0,99,0.56,0.0,up,1.6841199998743832,,,,,1114.5971743003465,1116.1507403003052,0.48,-0.08,0.08,0.0,-0.12,0.48,0.48,0.48,-0.08,1113.4901407002471,1113.4901407002471,1113.4901407002471,1113.4901407002471,1113.4901407002471,1113.4901407002471,1113.4901407002471,1113.4901407002471,1113.4796323702672,1.219720899593085,return,1.075705900322646,,,,,,,,,,,,,,,,,,,,,,,,,,,,,,,,,JDJK0V,train_y,blue_star,bottom_right,2025-02-20_16h52.25.963,HideSeek_v1,2022.2.5,59.86790739117194,
,9,4,9,7,0,3,64,,train_dim1_1,26,30,,,,2,0,2,0,,,,,,,,,0,0,0,0,0,25,25,25,1,0,1,0,,,,,,,,,,,,,,,,,,,,,,,,,,,,,,,,,,,,,,,,,,,,,,,,,,,,,,,,,,,,,,,,30,,,,,,,,1117.929287200328,1117.929287200328,1117.929287200328,1117.929287200328,1117.929287200328,up,0.3927859999239445,10,0,0,99,0.56,0.08,up,0.3164419000968337,,,,,,,,,,,,,,,,,,,,,,,,,,,,,,,,,,,,,,,,,,,,,,,,,,,,,,,,,,,,JDJK0V,train_y,blue_star,bottom_right,2025-02-20_16h52.25.963,HideSeek_v1,2022.2.5,59.86790739117194,
,9,4,9,7,0,3,64,,train_dim1_1,26,30,,,,2,0,2,0,,,,,,,,,0,0,0,0,0,25,25,25,2,0,2,0,,,,,,,,,,,,,,,,,,,,,,,,,,,,,,,,,,,,,,,,,,,,,,,,,,,,,,,,,,,,,,,,30,,,,,,,,1118.329257500358,1118.329257500358,1118.329257500358,1118.329257500358,1118.329257500358,up,0.34338119998574257,10,0,0,99,0.56,0.16,up,0.27050899993628263,,,,,,,,,,,,,,,,,,,,,,,,,,,,,,,,,,,,,,,,,,,,,,,,,,,,,,,,,,,,JDJK0V,train_y,blue_star,bottom_right,2025-02-20_16h52.25.963,HideSeek_v1,2022.2.5,59.86790739117194,
,9,4,9,7,0,3,64,,train_dim1_1,26,30,,,,2,0,2,0,,,,,,,,,0,0,0,0,0,25,25,25,3,0,3,0,,,,,,,,,,,,,,,,,,,,,,,,,,,,,,,,,,,,,,,,,,,,,,,,,,,,,,,,,,,,,,,,30,,,,,,,,1118.679601999931,1118.679601999931,1118.679601999931,1118.679601999931,1118.679601999931,return,0.5431625000201166,11,0,0,1,0.56,0.16,return,0.4673101999796927,44,-20,0.56,0.16,,,,,,,,,,,,,,,,,,,,,,,,,,,,,,,,,,,,,,,,,,,,,,,,,,,,,,,,JDJK0V,train_y,blue_star,bottom_right,2025-02-20_16h52.25.963,HideSeek_v1,2022.2.5,59.86790739117194,
,8,4,8,9,0,5,66,,train_dim1_1,27,30,,,,2,0,2,0,,,,,,,,,0,0,0,0,0,26,26,26,0,0,0,0,,,,,,,,,,,,,,,,,,,,,,,,,stimuli/alien_stimuli/66.png,,,,,,,,,,,,,,,,,,,,,,,,,,,,,stimuli/alien_stimuli/64.png,64,9,28,,,,,,,30,,,,,,,,1124.0245783999562,1124.0245783999562,1124.0245783999562,1124.0245783999562,1124.0245783999562,up,1.1041192999109626,11,0,0,99,0.48,0.0,up,1.032343199942261,,,,,1122.470474800095,1124.0245783999562,0.56,0.16,0.24,0.0,0.04,0.56,0.56,0.56,0.16,1120.774174200371,1120.774174200371,1120.774174200371,1120.774174200371,1120.774174200371,1120.774174200371,1120.774174200371,1120.774174200371,1120.7689723603428,1.7869293000549078,return,1.66463159956038,,,,,,,,,,,,,,,,,,,,,,,,,,,,,,,,,JDJK0V,train_y,blue_star,bottom_right,2025-02-20_16h52.25.963,HideSeek_v1,2022.2.5,59.86790739117194,
,8,4,8,9,0,5,66,,train_dim1_1,27,30,,,,2,0,2,0,,,,,,,,,0,0,0,0,0,26,26,26,1,0,1,0,,,,,,,,,,,,,,,,,,,,,,,,,,,,,,,,,,,,,,,,,,,,,,,,,,,,,,,,,,,,,,,,30,,,,,,,,1125.1361315003596,1125.1361315003596,1125.1361315003596,1125.1361315003596,1125.1361315003596,up,0.8430830002762377,11,0,0,99,0.48,0.08,up,0.7712936997413635,,,,,,,,,,,,,,,,,,,,,,,,,,,,,,,,,,,,,,,,,,,,,,,,,,,,,,,,,,,,JDJK0V,train_y,blue_star,bottom_right,2025-02-20_16h52.25.963,HideSeek_v1,2022.2.5,59.86790739117194,
,8,4,8,9,0,5,66,,train_dim1_1,27,30,,,,2,0,2,0,,,,,,,,,0,0,0,0,0,26,26,26,2,0,2,0,,,,,,,,,,,,,,,,,,,,,,,,,,,,,,,,,,,,,,,,,,,,,,,,,,,,,,,,,,,,,,,,30,,,,,,,,1125.9867601003498,1125.9867601003498,1125.9867601003498,1125.9867601003498,1125.9867601003498,up,0.7768759001046419,11,0,0,99,0.48,0.16,up,0.6988928997889161,,,,,,,,,,,,,,,,,,,,,,,,,,,,,,,,,,,,,,,,,,,,,,,,,,,,,,,,,,,,JDJK0V,train_y,blue_star,bottom_right,2025-02-20_16h52.25.963,HideSeek_v1,2022.2.5,59.86790739117194,
,8,4,8,9,0,5,66,,train_dim1_1,27,30,,,,2,0,2,0,,,,,,,,,0,0,0,0,0,26,26,26,3,0,3,0,,,,,,,,,,,,,,,,,,,,,,,,,,,,,,,,,,,,,,,,,,,,,,,,,,,,,,,,,,,,,,,,30,,,,,,,,1126.7701828000136,1126.7701828000136,1126.7701828000136,1126.7701828000136,1126.7701828000136,up,0.35973009979352355,11,0,0,99,0.48,0.24,up,0.28506390005350113,,,,,,,,,,,,,,,,,,,,,,,,,,,,,,,,,,,,,,,,,,,,,,,,,,,,,,,,,,,,JDJK0V,train_y,blue_star,bottom_right,2025-02-20_16h52.25.963,HideSeek_v1,2022.2.5,59.86790739117194,
,8,4,8,9,0,5,66,,train_dim1_1,27,30,,,,2,0,2,0,,,,,,,,,0,0,0,0,0,26,26,26,4,0,4,0,,,,,,,,,,,,,,,,,,,,,,,,,,,,,,,,,,,,,,,,,,,,,,,,,,,,,,,,,,,,,,,,30,,,,,,,,1127.1369477002881,1127.1369477002881,1127.1369477002881,1127.1369477002881,1127.1369477002881,return,0.5598848997615278,11,1,0,0,0.48,0.24,return,0.48345130030065775,48,-20,0.48,0.24,,,,,,,,,,,,,,,,,,,,,,,,,,,,,,,,,,,,,,,,,,,,,,,,,,,,,,,,JDJK0V,train_y,blue_star,bottom_right,2025-02-20_16h52.25.963,HideSeek_v1,2022.2.5,59.86790739117194,
,9,1,9,1,0,0,61,,train_dim1_1,28,30,,,,2,0,2,0,,,,,,,,,0,0,0,0,0,27,27,27,0,0,0,0,,,,,,,,,,,,,,,,,,,,,,,,,stimuli/alien_stimuli/61.png,,,,,,,,,,,,,,,,,,,,,,,,,,,,,stimuli/alien_stimuli/66.png,66,8,29,,,,,,,30,,,,,,,,1131.8138669999316,1131.8138669999316,1131.8138669999316,1131.8138669999316,1131.8138669999316,return,1.8556381999514997,12,0,0,1,0.56,-0.32,return,1.7679356997832656,48,-20,0.56,-0.32,1130.2603688002564,1131.8138669999316,0.48,0.32,0.4,0.0,0.12,0.48,0.48,0.48,0.32,1129.2685213000514,1129.2685213000514,1129.2685213000514,1129.2685213000514,1129.2685213000514,1129.2685213000514,1129.2685213000514,1129.2685213000514,1129.259298770316,1.1033065002411604,return,0.9702361999079585,,,,,,,,,,,,,,,,,,,,,,,,,,,,,,,,,JDJK0V,train_y,blue_star,bottom_right,2025-02-20_16h52.25.963,HideSeek_v1,2022.2.5,59.86790739117194,
,7,2,7,3,0,1,62,,train_dim1_1,29,30,,,,2,0,2,0,,,,,,,,,0,0,0,0,0,28,28,28,0,0,0,0,,,,,,,,,,,,,,,,,,,,,,,,,stimuli/alien_stimuli/62.png,,,,,,,,,,,,,,,,,,,,,,,,,,,,,stimuli/alien_stimuli/61.png,61,9,30,,,,,,,30,,,,,,,,1137.49198479997,1137.49198479997,1137.49198479997,1137.49198479997,1137.49198479997,return,1.949732500128448,12,1,0,0,0.4,-0.24,return,1.8671389003284276,48,-20,0.4,-0.24,1135.9312917003408,1137.49198479997,0.56,-0.32,0.0,0.0,-0.32,0.56,0.56,0.56,-0.32,1135.2223408999853,1135.2223408999853,1135.2223408999853,1135.2223408999853,1135.2223408999853,1135.2223408999853,1135.2223408999853,1135.2223408999853,1135.2142632601783,0.802791700232774,return,0.6883123000152409,,,,,,,,,,,,,,,,,,,,,,,,,,,,,,,,,JDJK0V,train_y,blue_star,bottom_right,2025-02-20_16h52.25.963,HideSeek_v1,2022.2.5,59.86790739117194,
,5,1,5,5,0,4,65,,train_dim1_1,30,30,,,,2,0,2,0,,,,,,,,,0,0,0,0,0,29,29,29,0,0,0,0,,,,,,,,,,,,,,,,,,,,,,,,,stimuli/alien_stimuli/65.png,,,,,,,,,,,,,,,,,,,,,,,,,,,,,stimuli/alien_stimuli/62.png,62,7,31,,,,,,,30,,,,,,,,1143.5602024002,1143.5602024002,1143.5602024002,1143.5602024002,1143.5602024002,up,1.5180398002266884,12,1,0,99,0.24,-0.24,up,1.4381968001835048,,,,,1142.00341950031,1143.5602024002,0.4,-0.16,0.08,0.0,-0.2,0.4,0.4,0.4,-0.16,1140.990518500097,1140.990518500097,1140.990518500097,1140.990518500097,1140.990518500097,1140.990518500097,1140.990518500097,1140.990518500097,1140.9859066603706,1.102942599914968,return,0.9909439003095031,,,,,,,,,,,,,,,,,,,,,,,,,,,,,,,,,JDJK0V,train_y,blue_star,bottom_right,2025-02-20_16h52.25.963,HideSeek_v1,2022.2.5,59.86790739117194,
,5,1,5,5,0,4,65,,train_dim1_1,30,30,,,,2,0,2,0,,,,,,,,,0,0,0,0,0,29,29,29,1,0,1,0,,,,,,,,,,,,,,,,,,,,,,,,,,,,,,,,,,,,,,,,,,,,,,,,,,,,,,,,,,,,,,,,30,,,,,,,,1145.0857377001084,1145.0857377001084,1145.0857377001084,1145.0857377001084,1145.0857377001084,up,1.2103702002204955,12,1,0,99,0.24,-0.15999999999999998,up,1.1272412003017962,,,,,,,,,,,,,,,,,,,,,,,,,,,,,,,,,,,,,,,,,,,,,,,,,,,,,,,,,,,,JDJK0V,train_y,blue_star,bottom_right,2025-02-20_16h52.25.963,HideSeek_v1,2022.2.5,59.86790739117194,
,5,1,5,5,0,4,65,,train_dim1_1,30,30,,,,2,0,2,0,,,,,,,,,0,0,0,0,0,29,29,29,2,0,2,0,,,,,,,,,,,,,,,,,,,,,,,,,,,,,,,,,,,,,,,,,,,,,,,,,,,,,,,,,,,,,,,,30,,,,,,,,1146.3029849999584,1146.3029849999584,1146.3029849999584,1146.3029849999584,1146.3029849999584,up,0.34317100001499057,12,1,0,99,0.24,-0.07999999999999997,up,0.26025710022076964,,,,,,,,,,,,,,,,,,,,,,,,,,,,,,,,,,,,,,,,,,,,,,,,,,,,,,,,,,,,JDJK0V,train_y,blue_star,bottom_right,2025-02-20_16h52.25.963,HideSeek_v1,2022.2.5,59.86790739117194,
,5,1,5,5,0,4,65,,train_dim1_1,30,30,,,,2,0,2,0,,,,,,,,,0,0,0,0,0,29,29,29,3,0,3,0,,,,,,,,,,,,,,,,,,,,,,,,,,,,,,,,,,,,,,,,,,,,,,,,,,,,,,,,,,,,,,,,30,,,,,,,,1146.6529013002291,1146.6529013002291,1146.6529013002291,1146.6529013002291,1146.6529013002291,up,0.8772646998986602,12,1,0,99,0.24,2.7755575615628914e-17,up,0.8033583001233637,,,,,,,,,,,,,,,,,,,,,,,,,,,,,,,,,,,,,,,,,,,,,,,,,,,,,,,,,,,,JDJK0V,train_y,blue_star,bottom_right,2025-02-20_16h52.25.963,HideSeek_v1,2022.2.5,59.86790739117194,
,5,1,5,5,0,4,65,,train_dim1_1,30,30,,,,2,0,2,0,,,,,,,,,0,0,0,0,0,29,29,29,4,0,4,0,,,,,,,,,,,,,,,,,,,,,,,,,,,,,,,,,,,,,,,,,,,,,,,,,,,,,,,,,,,,,,,,30,,,,,,,,1147.5372486999258,1147.5372486999258,1147.5372486999258,1147.5372486999258,1147.5372486999258,up,0.7103002001531422,12,1,0,99,0.24,0.08000000000000003,up,0.6228708000853658,,,,,,,,,,,,,,,,,,,,,,,,,,,,,,,,,,,,,,,,,,,,,,,,,,,,,,,,,,,,JDJK0V,train_y,blue_star,bottom_right,2025-02-20_16h52.25.963,HideSeek_v1,2022.2.5,59.86790739117194,
,5,1,5,5,0,4,65,,train_dim1_1,30,30,,,,2,0,2,0,,,,,,,,,0,0,0,0,0,29,29,29,5,0,5,0,,,,,,,,,,,,,,,,,,,,,,,,,,,,,,,,,,,,,,,,,,,,,,,,,,,,,,,,,,,,,,,,30,,,,,,,,1148.2545254002325,1148.2545254002325,1148.2545254002325,1148.2545254002325,1148.2545254002325,return,1.0937638999894261,12,1,0,0,0.24,0.08000000000000003,return,1.0072257001884282,53,-20,0.24,0.08000000000000003,,,,,,,,,,,,,,,,,,,,,,,,,,,,,,,,,,,,,,,,,,,,,,,,,,,,,,,,JDJK0V,train_y,blue_star,bottom_right,2025-02-20_16h52.25.963,HideSeek_v1,2022.2.5,59.86790739117194,
,,,,,,,,,,,30,,,,2,0,2,0,,,,,,,,,,,,,,,,,,,,,,,,,,,,,,,,,,,,,,,,,,,,,,,,,,,,,,,,,,,,,,,,,,,,,,,,,,stimuli/alien_stimuli/65.png,65,5,32,21,0.7,0.5,1,1,1,30,0,conditions/schedules/train_y_first/blue_star_00/bottom_right/inputTrain_2.1.xlsx,99,1,2,1,0,,,,,,,,,,,0,,,,,,,,,1151.961549800355,1153.5274225003086,0.24,0,0.32,0.0,-0.16,0.24,0.24,0.24,0,1150.8990188003518,1150.8990188003518,1150.8990188003518,1150.8990188003518,1150.8990188003518,1150.8990188003518,1150.8990188003518,1150.8990188003518,1150.8941962600686,1.1529512000270188,return,1.0364298997446895,0,0.9,0,1,12,,,,,,,,,,,,,,,,,,,,,,,,,,,,JDJK0V,train_y,blue_star,bottom_right,2025-02-20_16h52.25.963,HideSeek_v1,2022.2.5,59.86790739117194,
,,,,,,,,,,,,,,,3,0,3,0,0,0,0,0,,,,,,,,,,,,,,,,,,,,,,,,,,,,,,,conditions/schedules/train_y_first/blue_star_00/bottom_right/instructions/Slide17.png,conditions/schedules/train_y_first/blue_star_00/bottom_right/instructions/Audio17.wav,1153.5274225003086,1153.5298931500874,17,"[4.408976799808443, 18.094884200021625, 16.720962699968368, 19.426067399792373, 4.381683100014925, 4.7187009998597205, 5.620693000033498, 11.870837999973446, 6.314344400074333, 7.03384040016681, 10.45049409987405, 13.65359800029546, 17.71544950036332, 16.606881499756128, 43.77991139981896, 21.213039699941874, 38.73139879992232]","[0.014511799905449152, 0.014134700410068035, 0.014243799727410078, 0.07865269994363189, 0.06520149996504188, 0.09948380012065172, 0.047877199947834015, 0.07721110014244914, 0.110723199788481, 0.06421450013294816, 0.06217350019142032, 13.653605000115931, 0.07882649963721633, 16.606890100054443, 0.030596799682825804, 21.213046999648213, 38.731406699866056]",0,,,,,,,,,,,,,,,,,,,,,,,,,,,,,,,,,,,,,,,,,,,,,,,,,,,,,,,,,,,,,,,,,,,,,,,,,,,,,,,,,,,,,,,,,,,,,,,,,,,,,,,,,,,,,,,,,,,,,,,,,,,,JDJK0V,train_y,blue_star,bottom_right,2025-02-20_16h52.25.963,HideSeek_v1,2022.2.5,59.86790739117194,
,,,,,,,,,,,,,,,3,0,3,0,1,0,1,0,,,,,,,,,,,,,,,,,,,,,,,,,,,,,,,conditions/schedules/train_y_first/blue_star_00/bottom_right/instructions/Slide18.png,conditions/schedules/train_y_first/blue_star_00/bottom_right/instructions/Audio18.wav,1192.3309694002382,1192.328274550382,18,"[4.408976799808443, 18.094884200021625, 16.720962699968368, 19.426067399792373, 4.381683100014925, 4.7187009998597205, 5.620693000033498, 11.870837999973446, 6.314344400074333, 7.03384040016681, 10.45049409987405, 13.65359800029546, 17.71544950036332, 16.606881499756128, 43.77991139981896, 21.213039699941874, 38.73139879992232, 6.28338269982487]","[0.014511799905449152, 0.014134700410068035, 0.014243799727410078, 0.07865269994363189, 0.06520149996504188, 0.09948380012065172, 0.047877199947834015, 0.07721110014244914, 0.110723199788481, 0.06421450013294816, 0.06217350019142032, 13.653605000115931, 0.07882649963721633, 16.606890100054443, 0.030596799682825804, 21.213046999648213, 38.731406699866056, 6.283389700111002]",0,,,,,,,,,,,,,,,,,,,,,,,,,,,,,,,,,,,,,,,,,,,,,,,,,,,,,,,,,,,,,,,,,,,,,,,,,,,,,,,,,,,,,,,,,,,,,,,,,,,,,,,,,,,,,,,,,,,,,,,,,,,,JDJK0V,train_y,blue_star,bottom_right,2025-02-20_16h52.25.963,HideSeek_v1,2022.2.5,59.86790739117194,
,,,,,,,,,,,,,,,3,0,3,0,2,0,2,0,,,,,,,,,,,,,,,,,,,,,,,,,,,,,,,conditions/schedules/train_y_first/blue_star_00/bottom_right/instructions/Slide19.png,conditions/schedules/train_y_first/blue_star_00/bottom_right/instructions/Audio19.wav,1198.6677271001972,1198.6671134402975,19,"[4.408976799808443, 18.094884200021625, 16.720962699968368, 19.426067399792373, 4.381683100014925, 4.7187009998597205, 5.620693000033498, 11.870837999973446, 6.314344400074333, 7.03384040016681, 10.45049409987405, 13.65359800029546, 17.71544950036332, 16.606881499756128, 43.77991139981896, 21.213039699941874, 38.73139879992232, 6.28338269982487, 10.405422799754888]","[0.014511799905449152, 0.014134700410068035, 0.014243799727410078, 0.07865269994363189, 0.06520149996504188, 0.09948380012065172, 0.047877199947834015, 0.07721110014244914, 0.110723199788481, 0.06421450013294816, 0.06217350019142032, 13.653605000115931, 0.07882649963721633, 16.606890100054443, 0.030596799682825804, 21.213046999648213, 38.731406699866056, 0.06341869989410043, 10.405429599806666]",0,,,,,,,,,,,,,,,,,,,,,,,,,,,,,,,,,,,,,,,,,,,,,,,,,,,,,,,,,,,,,,,,,,,,,,,,,,,,,,,,,,,,,,,,,,,,,,,,,,,,,,,,,,,,,,,,,,,,,,,,,,,,JDJK0V,train_y,blue_star,bottom_right,2025-02-20_16h52.25.963,HideSeek_v1,2022.2.5,59.86790739117194,
,,,,,,,,,,,,,,,3,0,3,0,3,0,3,0,,,,,,,,,,,,,,,,,,,,,,,,,,,,,,,conditions/schedules/train_y_first/blue_star_00/bottom_right/instructions/Slide20.png,conditions/schedules/train_y_first/blue_star_00/bottom_right/instructions/Audio20.wav,1209.143738300074,1209.1424217503518,20,"[4.408976799808443, 18.094884200021625, 16.720962699968368, 19.426067399792373, 4.381683100014925, 4.7187009998597205, 5.620693000033498, 11.870837999973446, 6.314344400074333, 7.03384040016681, 10.45049409987405, 13.65359800029546, 17.71544950036332, 16.606881499756128, 43.77991139981896, 21.213039699941874, 38.73139879992232, 6.28338269982487, 10.405422799754888, 12.523094499949366]","[0.014511799905449152, 0.014134700410068035, 0.014243799727410078, 0.07865269994363189, 0.06520149996504188, 0.09948380012065172, 0.047877199947834015, 0.07721110014244914, 0.110723199788481, 0.06421450013294816, 0.06217350019142032, 13.653605000115931, 0.07882649963721633, 16.606890100054443, 0.030596799682825804, 21.213046999648213, 38.731406699866056, 0.06341869989410043, 0.03028560010716319, 12.523102900013328]",0,,,,,,,,,,,,,,,,,,,,,,,,,,,,,,,,,,,,,,,,,,,,,,,,,,,,,,,,,,,,,,,,,,,,,,,,,,,,,,,,,,,,,,,,,,,,,,,,,,,,,,,,,,,,,,,,,,,,,,,,,,,,JDJK0V,train_y,blue_star,bottom_right,2025-02-20_16h52.25.963,HideSeek_v1,2022.2.5,59.86790739117194,
1,9,0,4,0,-5,0,11,2,instr_dim1_2,,,,,,3,0,3,0,,,,,0,0,0,0,,,,,,,,,,,,,,,,,,,,,,,,,,,,,,,,,,,,,stimuli/alien_stimuli/11.png,conditions/schedules/train_y_first/blue_star_00/bottom_right/inputInstr_2.xlsx,stimuli/alien_stimuli/11.png,1221.7723615001887,1221.7723615001887,1221.7723615001887,1221.7723615001887,1221.7697961703875,return,6.239576099906117,"[-0.16, -0.08, 0, 0.08, 0.16, 0.24, 0.32, 0.4, 0.48, 0.56]","[-0.4, -0.32, -0.24, -0.16, -0.08, 0, 0.08, 0.16, 0.24, 0.32]",0,0,4,9,0.0,0.4,1228.1805475000292,1228.1805475000292,1228.1805475000292,1228.1805475000292,1228.1805475000292,1228.1805475000292,1228.1805475000292,1228.1575904799627,7.291086100041866,return,7.131807999685407,stimuli/alien_stimuli/11.png,11,9,1,,,,,,,,,,,,,,,,,,,,,,,,,,,,,,,,,,,,,,,,,,,,,,,,,,,,,,,,,,,,,,,,,,,,,,,,,,,,,,,,,,,,,,,,,JDJK0V,train_y,blue_star,bottom_right,2025-02-20_16h52.25.963,HideSeek_v1,2022.2.5,59.86790739117194,
,,,,,,,,,,,30,,,,3,0,3,0,,,,,,,,,,,,,,,,,,,,,,,,,,,,,,,,,,,,,,,,,,,,,,,,,,,,,,,,,,,,,,,,,,,,,,,,,,,,,,21,0.7,0.5,1,99,2,30,0,conditions/schedules/train_y_first/blue_star_00/bottom_right/inputTrain_2.1.xlsx,99,1,2,1,0,,,,,,,,,,,,,,,,,,,,,,,,,,,,,,,,,,,,,,,,,,,,,,,,,,,,,,,,,,,,,,,,,,,,,,,,,,,JDJK0V,train_y,blue_star,bottom_right,2025-02-20_16h52.25.963,HideSeek_v1,2022.2.5,59.86790739117194,
,,,,,,,,,,,,,,,4,0,4,0,0,0,0,0,,,,,,,,,,,,,,,,,,,,,,,,,,,,,,,conditions/schedules/train_y_first/blue_star_00/bottom_right/instructions/Slide21.png,conditions/schedules/train_y_first/blue_star_00/bottom_right/instructions/Audio21.wav,1235.4606472002342,1235.4474712800236,21,"[4.408976799808443, 18.094884200021625, 16.720962699968368, 19.426067399792373, 4.381683100014925, 4.7187009998597205, 5.620693000033498, 11.870837999973446, 6.314344400074333, 7.03384040016681, 10.45049409987405, 13.65359800029546, 17.71544950036332, 16.606881499756128, 43.77991139981896, 21.213039699941874, 38.73139879992232, 6.28338269982487, 10.405422799754888, 12.523094499949366, 12.777830500155687]","[0.014511799905449152, 0.014134700410068035, 0.014243799727410078, 0.07865269994363189, 0.06520149996504188, 0.09948380012065172, 0.047877199947834015, 0.07721110014244914, 0.110723199788481, 0.06421450013294816, 0.06217350019142032, 13.653605000115931, 0.07882649963721633, 16.606890100054443, 0.030596799682825804, 21.213046999648213, 38.731406699866056, 0.06341869989410043, 0.03028560010716319, 12.523102900013328, 12.777837300207466]",0,,,,,,,,,,,,,,,,,,,,,,,,,,,,,,,,,,,,,,,,,,,,,,,,,,,,,,,,,,,,,,,,,,,,,,,,,,,,,,,,,,,,,,,,,,,,,,,,,,,,,,,,,,,,,,,,,,,,,,,,,,,,JDJK0V,train_y,blue_star,bottom_right,2025-02-20_16h52.25.963,HideSeek_v1,2022.2.5,59.86790739117194,
