trialInstr,x_fixStart,y_fixStart,x_corrSteps,y_corrSteps,x_nrSteps,y_nrSteps,alienID,trialLength,version,trialTrain,praclen,testlen,trial_label,break_on_off,beforeExpLoop.thisRepN,beforeExpLoop.thisTrialN,beforeExpLoop.thisN,beforeExpLoop.thisIndex,mini_instr_trials.thisRepN,mini_instr_trials.thisTrialN,mini_instr_trials.thisN,mini_instr_trials.thisIndex,instrLoop.thisRepN,instrLoop.thisTrialN,instrLoop.thisN,instrLoop.thisIndex,repeat_prac.thisRepN,repeat_prac.thisTrialN,repeat_prac.thisN,repeat_prac.thisIndex,trainLoop.thisRepN,trainLoop.thisTrialN,trainLoop.thisN,trainLoop.thisIndex,moveLoop_train.thisRepN,moveLoop_train.thisTrialN,moveLoop_train.thisN,moveLoop_train.thisIndex,experiment.thisRepN,experiment.thisTrialN,experiment.thisN,experiment.thisIndex,moveLoop_test.thisRepN,moveLoop_test.thisTrialN,moveLoop_test.thisN,moveLoop_test.thisIndex,mini_instr2_trials.thisRepN,mini_instr2_trials.thisTrialN,mini_instr2_trials.thisN,mini_instr2_trials.thisIndex,start_all_time,url,slideStim,audioStim,slides.started,sounds.started,nextButton.numClicks,nextButton.timesOn,nextButton.timesOff,prev_but.numClicks,prev_but.timesOn,prev_but.timesOff,alienStim,instrFile,alienStim_instr,gridImage_instr.started,startPos_3.started,key_instr.started,alienImage_3.started,sounds_1.started,key_instr.keys,key_instr.rt,all_x,all_y,FBy_corrSteps,FBy_fixStart,FBx_corrSteps,FBx_fixStart,FBy_pathSize_check,FBx_pathSize_check,gridImage_9.started,alienImageFB_3.started,startPosFB_3.started,keyFB_3.started,pathLine_ydir_2.started,pathLine_xdir_2.started,alienFace_3.started,sounds_2.started,RTFB_instr,keyFB_3.keys,keyFB_3.rt,draw_alienStim,draw_alienID,test_x,nrepcount,perfthres,percthres,earlierperf,earlystop,nextPrac,fileidx,praclen,saveACC_train,pracFile,nextPrac_train,addNrep,fileidx_endr,repExp,showearly,gridImage_4.started,startPos.started,movePos.started,key_resp.started,alienImage.started,buttonPress_train,RTchoice_train,cumAcctrain,aCorr,saveACC_choice,corrAns,x_movePos_end,y_movePos_end,key_resp.keys,key_resp.rt,wLy_dir,wLx_dir,x_movePos,y_movePos,text_2.started,text_2.stopped,aft_x_corrPos,aft_y_corrPos,y_pathSize_check,x_pathSize_check,y_pathdirY,x_pathdirY,x_pathdirX,x_corrPos,y_corrPos,gridImage_6.started,alienImageFB_2.started,startPosFB_2.started,movePosFB_2.started,keyFB_2.started,pathLine_xdir.started,pathLine_ydir.started,alienFace.started,sounds_4.started,RT_FBtrain,keyFB_2.keys,keyFB_2.rt,saveACC_pre,ACC,within_saveACC_train,earlystop_wloop,cumAcctrain_check,gridImage_3.started,alienImage_test.started,startPos_test.started,movePos_test.started,key_resp_test.started,wLy_dir_test,wLx_dir_test,buttonPress_test,RTchoice_test,cumAcctest,corrAns_test,key_resp_test.keys,key_resp_test.rt,text_3.started,text_3.stopped,total_time,end_all_time,key_resp_3.keys,slides_2.started,sounds_3.started,nextButton_2.numClicks,nextButton_2.timesOn,nextButton_2.timesOff,prev_but_2.numClicks,prev_but_2.timesOn,prev_but_2.timesOff,bye.started,participant,train_first,00_coordinate,starting corner,date,expName,psychopyVersion,frameRate,
,,,,,,,,,,,,,,,0,0,0,0,0,0,0,0,,,,,,,,,,,,,,,,,,,,,,,,,,,,,start_all_time,testround,conditions/schedules/train_y_first/red_square_00/top_right/instructions/Slide1.png,conditions/schedules/train_y_first/red_square_00/top_right/instructions/Audio1.wav,57.87505939975381,57.81963833235204,1,[7.279444499872625],[7.279452399816364],0,,,,,,,,,,,,,,,,,,,,,,,,,,,,,,,,,,,,,,,,,,,,,,,,,,,,,,,,,,,,,,,,,,,,,,,,,,,,,,,,,,,,,,,,,,,,,,,,,,,,,,,,,,,,,,,,,,,,,,,,,,,,JNCVD6,train_y,red_square,top_right,2025-04-24_17h01.59.659,HideSeek_v1,2022.2.5,59.946647440418474,
,,,,,,,,,,,,,,,0,0,0,0,1,0,1,0,,,,,,,,,,,,,,,,,,,,,,,,,,,,,,,conditions/schedules/train_y_first/red_square_00/top_right/instructions/Slide2.png,conditions/schedules/train_y_first/red_square_00/top_right/instructions/Audio2.wav,65.17240640008822,65.1588883199729,2,"[7.279444499872625, 24.337977999821305]","[7.279452399816364, 24.337984699755907]",0,,,,,,,,,,,,,,,,,,,,,,,,,,,,,,,,,,,,,,,,,,,,,,,,,,,,,,,,,,,,,,,,,,,,,,,,,,,,,,,,,,,,,,,,,,,,,,,,,,,,,,,,,,,,,,,,,,,,,,,,,,,,JNCVD6,train_y,red_square,top_right,2025-04-24_17h01.59.659,HideSeek_v1,2022.2.5,59.946647440418474,
,,,,,,,,,,,,,,,0,0,0,0,2,0,2,0,,,,,,,,,,,,,,,,,,,,,,,,,,,,,,,conditions/schedules/train_y_first/red_square_00/top_right/instructions/Slide3.png,conditions/schedules/train_y_first/red_square_00/top_right/instructions/Audio3.wav,89.58867720002308,89.57944494998083,3,"[7.279444499872625, 24.337977999821305, 16.305221499875188]","[7.279452399816364, 0.01778370002284646, 16.30522819980979]",0,,,,,,,,,,,,,,,,,,,,,,,,,,,,,,,,,,,,,,,,,,,,,,,,,,,,,,,,,,,,,,,,,,,,,,,,,,,,,,,,,,,,,,,,,,,,,,,,,,,,,,,,,,,,,,,,,,,,,,,,,,,,JNCVD6,train_y,red_square,top_right,2025-04-24_17h01.59.659,HideSeek_v1,2022.2.5,59.946647440418474,
,,,,,,,,,,,,,,,0,0,0,0,3,0,3,0,,,,,,,,,,,,,,,,,,,,,,,,,,,,,,,conditions/schedules/train_y_first/red_square_00/top_right/instructions/Slide4.png,conditions/schedules/train_y_first/red_square_00/top_right/instructions/Audio4.wav,105.97239449992776,105.95947074983269,4,"[7.279444499872625, 24.337977999821305, 16.305221499875188, 20.7187061002478]","[7.279452399816364, 0.01778370002284646, 0.05166230024769902, 20.71871259994805]",0,,,,,,,,,,,,,,,,,,,,,,,,,,,,,,,,,,,,,,,,,,,,,,,,,,,,,,,,,,,,,,,,,,,,,,,,,,,,,,,,,,,,,,,,,,,,,,,,,,,,,,,,,,,,,,,,,,,,,,,,,,,,JNCVD6,train_y,red_square,top_right,2025-04-24_17h01.59.659,HideSeek_v1,2022.2.5,59.946647440418474,
,,,,,,,,,,,,,,,0,0,0,0,4,0,4,0,,,,,,,,,,,,,,,,,,,,,,,,,,,,,,,conditions/schedules/train_y_first/red_square_00/top_right/instructions/Slide5.png,conditions/schedules/train_y_first/red_square_00/top_right/instructions/Audio5.wav,126.75707260007039,126.74324531992897,5,"[7.279444499872625, 24.337977999821305, 16.305221499875188, 20.7187061002478, 20.918145100120455]","[7.279452399816364, 0.01778370002284646, 0.05166230024769902, 20.71871259994805, 20.918153199832886]",0,,,,,,,,,,,,,,,,,,,,,,,,,,,,,,,,,,,,,,,,,,,,,,,,,,,,,,,,,,,,,,,,,,,,,,,,,,,,,,,,,,,,,,,,,,,,,,,,,,,,,,,,,,,,,,,,,,,,,,,,,,,,JNCVD6,train_y,red_square,top_right,2025-04-24_17h01.59.659,HideSeek_v1,2022.2.5,59.946647440418474,
,,,,,,,,,,,,,,,0,0,0,0,5,0,5,0,,,,,,,,,,,,,,,,,,,,,,,,,,,,,,,conditions/schedules/train_y_first/red_square_00/top_right/instructions/Slide6.png,conditions/schedules/train_y_first/red_square_00/top_right/instructions/Audio6.wav,147.74611729988828,147.74417334981263,6,"[7.279444499872625, 24.337977999821305, 16.305221499875188, 20.7187061002478, 20.918145100120455, 9.420225400011986]","[7.279452399816364, 0.01778370002284646, 0.05166230024769902, 20.71871259994805, 0.0002071000635623932, 9.420231499709189]",0,,,,,,,,,,,,,,,,,,,,,,,,,,,,,,,,,,,,,,,,,,,,,,,,,,,,,,,,,,,,,,,,,,,,,,,,,,,,,,,,,,,,,,,,,,,,,,,,,,,,,,,,,,,,,,,,,,,,,,,,,,,,JNCVD6,train_y,red_square,top_right,2025-04-24_17h01.59.659,HideSeek_v1,2022.2.5,59.946647440418474,
,,,,,,,,,,,,,,,0,0,0,0,6,0,6,0,,,,,,,,,,,,,,,,,,,,,,,,,,,,,,,conditions/schedules/train_y_first/red_square_00/top_right/instructions/Slide7.png,conditions/schedules/train_y_first/red_square_00/top_right/instructions/Audio7.wav,157.22644330002367,157.21896552015096,7,"[7.279444499872625, 24.337977999821305, 16.305221499875188, 20.7187061002478, 20.918145100120455, 9.420225400011986, 5.6443143002688885]","[7.279452399816364, 0.01778370002284646, 0.05166230024769902, 20.71871259994805, 0.0002071000635623932, 9.420231499709189, 5.644320799969137]",0,,,,,,,,,,,,,,,,,,,,,,,,,,,,,,,,,,,,,,,,,,,,,,,,,,,,,,,,,,,,,,,,,,,,,,,,,,,,,,,,,,,,,,,,,,,,,,,,,,,,,,,,,,,,,,,,,,,,,,,,,,,,JNCVD6,train_y,red_square,top_right,2025-04-24_17h01.59.659,HideSeek_v1,2022.2.5,59.946647440418474,
,,,,,,,,,,,,,,,0,0,0,0,7,0,7,0,,,,,,,,,,,,,,,,,,,,,,,,,,,,,,,conditions/schedules/train_y_first/red_square_00/top_right/instructions/Slide8.png,conditions/schedules/train_y_first/red_square_00/top_right/instructions/Audio8.wav,162.92310609994456,162.92353192018345,8,"[7.279444499872625, 24.337977999821305, 16.305221499875188, 20.7187061002478, 20.918145100120455, 9.420225400011986, 5.6443143002688885, 11.774327600374818]","[7.279452399816364, 0.01778370002284646, 0.05166230024769902, 20.71871259994805, 0.0002071000635623932, 9.420231499709189, 0.03119730018079281, 11.774335800204426]",0,,,,,,,,,,,,,,,,,,,,,,,,,,,,,,,,,,,,,,,,,,,,,,,,,,,,,,,,,,,,,,,,,,,,,,,,,,,,,,,,,,,,,,,,,,,,,,,,,,,,,,,,,,,,,,,,,,,,,,,,,,,,JNCVD6,train_y,red_square,top_right,2025-04-24_17h01.59.659,HideSeek_v1,2022.2.5,59.946647440418474,
,,,,,,,,,,,,,,,0,0,0,0,8,0,8,0,,,,,,,,,,,,,,,,,,,,,,,,,,,,,,,conditions/schedules/train_y_first/red_square_00/top_right/instructions/Slide9.png,conditions/schedules/train_y_first/red_square_00/top_right/instructions/Audio9.wav,174.76764649990946,174.7663993500173,9,"[7.279444499872625, 24.337977999821305, 16.305221499875188, 20.7187061002478, 20.918145100120455, 9.420225400011986, 5.6443143002688885, 11.774327600374818, 7.969934099819511]","[7.279452399816364, 0.01778370002284646, 0.05166230024769902, 20.71871259994805, 0.0002071000635623932, 9.420231499709189, 0.03119730018079281, 0.014348099939525127, 7.96994260000065]",0,,,,,,,,,,,,,,,,,,,,,,,,,,,,,,,,,,,,,,,,,,,,,,,,,,,,,,,,,,,,,,,,,,,,,,,,,,,,,,,,,,,,,,,,,,,,,,,,,,,,,,,,,,,,,,,,,,,,,,,,,,,,JNCVD6,train_y,red_square,top_right,2025-04-24_17h01.59.659,HideSeek_v1,2022.2.5,59.946647440418474,
,,,,,,,,,,,,,,,0,0,0,0,9,0,9,0,,,,,,,,,,,,,,,,,,,,,,,,,,,,,,,conditions/schedules/train_y_first/red_square_00/top_right/instructions/Slide10.png,conditions/schedules/train_y_first/red_square_00/top_right/instructions/Audio10.wav,182.79419569997117,182.7897761198692,10,"[7.279444499872625, 24.337977999821305, 16.305221499875188, 20.7187061002478, 20.918145100120455, 9.420225400011986, 5.6443143002688885, 11.774327600374818, 7.969934099819511, 7.766289799939841]","[7.279452399816364, 0.01778370002284646, 0.05166230024769902, 20.71871259994805, 0.0002071000635623932, 9.420231499709189, 0.03119730018079281, 0.014348099939525127, 0.0002453997731208801, 7.766296700108796]",0,,,,,,,,,,,,,,,,,,,,,,,,,,,,,,,,,,,,,,,,,,,,,,,,,,,,,,,,,,,,,,,,,,,,,,,,,,,,,,,,,,,,,,,,,,,,,,,,,,,,,,,,,,,,,,,,,,,,,,,,,,,,JNCVD6,train_y,red_square,top_right,2025-04-24_17h01.59.659,HideSeek_v1,2022.2.5,59.946647440418474,
,,,,,,,,,,,,,,,0,0,0,0,10,0,10,0,,,,,,,,,,,,,,,,,,,,,,,,,,,,,,,conditions/schedules/train_y_first/red_square_00/top_right/instructions/Slide11.png,conditions/schedules/train_y_first/red_square_00/top_right/instructions/Audio11.wav,190.59993229992688,190.5964171900414,11,"[7.279444499872625, 24.337977999821305, 16.305221499875188, 20.7187061002478, 20.918145100120455, 9.420225400011986, 5.6443143002688885, 11.774327600374818, 7.969934099819511, 7.766289799939841, 10.953450799919665]","[7.279452399816364, 0.01778370002284646, 0.05166230024769902, 20.71871259994805, 0.0002071000635623932, 9.420231499709189, 0.03119730018079281, 0.014348099939525127, 0.0002453997731208801, 0.030419199727475643, 10.953457599971443]",0,,,,,,,,,,,,,,,,,,,,,,,,,,,,,,,,,,,,,,,,,,,,,,,,,,,,,,,,,,,,,,,,,,,,,,,,,,,,,,,,,,,,,,,,,,,,,,,,,,,,,,,,,,,,,,,,,,,,,,,,,,,,JNCVD6,train_y,red_square,top_right,2025-04-24_17h01.59.659,HideSeek_v1,2022.2.5,59.946647440418474,
,,,,,,,,,,,,,,,0,0,0,0,11,0,11,0,,,,,,,,,,,,,,,,,,,,,,,,,,,,,,,conditions/schedules/train_y_first/red_square_00/top_right/instructions/Slide12.png,conditions/schedules/train_y_first/red_square_00/top_right/instructions/Audio12.wav,201.62686719978228,201.62272675009444,12,"[7.279444499872625, 24.337977999821305, 16.305221499875188, 20.7187061002478, 20.918145100120455, 9.420225400011986, 5.6443143002688885, 11.774327600374818, 7.969934099819511, 7.766289799939841, 10.953450799919665, 18.842001699842513]","[7.279452399816364, 0.01778370002284646, 0.05166230024769902, 20.71871259994805, 0.0002071000635623932, 9.420231499709189, 0.03119730018079281, 0.014348099939525127, 0.0002453997731208801, 0.030419199727475643, 0.013705999590456486, 18.842007899656892]",0,,,,,,,,,,,,,,,,,,,,,,,,,,,,,,,,,,,,,,,,,,,,,,,,,,,,,,,,,,,,,,,,,,,,,,,,,,,,,,,,,,,,,,,,,,,,,,,,,,,,,,,,,,,,,,,,,,,,,,,,,,,,JNCVD6,train_y,red_square,top_right,2025-04-24_17h01.59.659,HideSeek_v1,2022.2.5,59.946647440418474,
1,7,8,7,3,0,-5,11,2,instr_dim1_1,,,,,,0,0,0,0,,,,,0,0,0,0,,,,,,,,,,,,,,,,,,,,,,,,,,,,,,,,,,,,,stimuli/alien_stimuli/11.png,conditions/schedules/train_y_first/red_square_00/top_right/inputInstr_1.xlsx,stimuli/alien_stimuli/11.png,220.57188619999215,220.57188619999215,220.57188619999215,220.57188619999215,220.57195411017165,return,14.93152099987492,"[-0.16, -0.08, 0, 0.08, 0.16, 0.24, 0.32, 0.4, 0.48, 0.56]","[-0.4, -0.32, -0.24, -0.16, -0.08, 0, 0.08, 0.16, 0.24, 0.32]",3,8,7,7,0.4,0.0,235.6750845001079,235.6750845001079,235.6750845001079,235.6750845001079,235.6750845001079,235.6750845001079,235.6750845001079,235.66696827020496,15.93156210007146,return,15.766588099766523,stimuli/alien_stimuli/11.png,11,7,1,,,,,,,,,,,,,,,,,,,,,,,,,,,,,,,,,,,,,,,,,,,,,,,,,,,,,,,,,,,,,,,,,,,,,,,,,,,,,,,,,,,,,,,,,JNCVD6,train_y,red_square,top_right,2025-04-24_17h01.59.659,HideSeek_v1,2022.2.5,59.946647440418474,
,,,,,,,,,,,30,,,,0,0,0,0,,,,,,,,,,,,,,,,,,,,,,,,,,,,,,,,,,,,,,,,,,,,,,,,,,,,,,,,,,,,,,,,,,,,,,,,,,,,,,21,0.7,0,0,99,1,30,0,conditions/schedules/train_y_first/red_square_00/top_right/inputTrain_1.1.xlsx,99,1,1,1,0,,,,,,,,,,,,,,,,,,,,,,,,,,,,,,,,,,,,,,,,,,,,,,,,,,,,,,,,,,,,,,,,,,,,,,,,,,,JNCVD6,train_y,red_square,top_right,2025-04-24_17h01.59.659,HideSeek_v1,2022.2.5,59.946647440418474,
,,,,,,,,,,,,,,,1,0,1,0,0,0,0,0,,,,,,,,,,,,,,,,,,,,,,,,,,,,,,,conditions/schedules/train_y_first/red_square_00/top_right/instructions/Slide13.png,conditions/schedules/train_y_first/red_square_00/top_right/instructions/Audio13.wav,251.60652420017868,251.5973422699608,13,"[7.279444499872625, 24.337977999821305, 16.305221499875188, 20.7187061002478, 20.918145100120455, 9.420225400011986, 5.6443143002688885, 11.774327600374818, 7.969934099819511, 7.766289799939841, 10.953450799919665, 18.842001699842513, 16.585535500198603]","[7.279452399816364, 0.01778370002284646, 0.05166230024769902, 20.71871259994805, 0.0002071000635623932, 9.420231499709189, 0.03119730018079281, 0.014348099939525127, 0.0002453997731208801, 0.030419199727475643, 0.013705999590456486, 18.842007899656892, 16.585544200148433]",0,,,,,,,,,,,,,,,,,,,,,,,,,,,,,,,,,,,,,,,,,,,,,,,,,,,,,,,,,,,,,,,,,,,,,,,,,,,,,,,,,,,,,,,,,,,,,,,,,,,,,,,,,,,,,,,,,,,,,,,,,,,,JNCVD6,train_y,red_square,top_right,2025-04-24_17h01.59.659,HideSeek_v1,2022.2.5,59.946647440418474,
,,,,,,,,,,,,,,,1,0,1,0,1,0,1,0,,,,,,,,,,,,,,,,,,,,,,,,,,,,,,,conditions/schedules/train_y_first/red_square_00/top_right/instructions/Slide14.png,conditions/schedules/train_y_first/red_square_00/top_right/instructions/Audio14.wav,268.2629001000896,268.2609589500353,14,"[7.279444499872625, 24.337977999821305, 16.305221499875188, 20.7187061002478, 20.918145100120455, 9.420225400011986, 5.6443143002688885, 11.774327600374818, 7.969934099819511, 7.766289799939841, 10.953450799919665, 18.842001699842513, 16.585535500198603, 17.22628160007298]","[7.279452399816364, 0.01778370002284646, 0.05166230024769902, 20.71871259994805, 0.0002071000635623932, 9.420231499709189, 0.03119730018079281, 0.014348099939525127, 0.0002453997731208801, 0.030419199727475643, 0.013705999590456486, 18.842007899656892, 0.07896060030907393, 17.226288700010628]",0,,,,,,,,,,,,,,,,,,,,,,,,,,,,,,,,,,,,,,,,,,,,,,,,,,,,,,,,,,,,,,,,,,,,,,,,,,,,,,,,,,,,,,,,,,,,,,,,,,,,,,,,,,,,,,,,,,,,,,,,,,,,JNCVD6,train_y,red_square,top_right,2025-04-24_17h01.59.659,HideSeek_v1,2022.2.5,59.946647440418474,
2,5,8,5,8,0,0,16,2,instr_dim1_1,,,,,,1,0,1,0,,,,,0,0,0,0,,,,,,,,,,,,,,,,,,,,,,,,,,,,,,,,,,,,,stimuli/alien_stimuli/16.png,conditions/schedules/train_y_first/red_square_00/top_right/inputInstr_1.xlsx,stimuli/alien_stimuli/16.png,285.58403610019013,285.58403610019013,285.58403610019013,285.58403610019013,285.5750373802148,return,84.13715760037303,"[-0.16, -0.08, 0, 0.08, 0.16, 0.24, 0.32, 0.4, 0.48, 0.56]","[-0.4, -0.32, -0.24, -0.16, -0.08, 0, 0.08, 0.16, 0.24, 0.32]",8,8,5,5,0.0,0.0,369.8907341999002,369.8907341999002,369.8907341999002,369.8907341999002,369.8907341999002,369.8907341999002,369.8907341999002,369.8784215701744,6.956939499825239,return,6.79032769985497,stimuli/alien_stimuli/16.png,16,5,2,,,,,,,,,,,,,,,,,,,,,,,,,,,,,,,,,,,,,,,,,,,,,,,,,,,,,,,,,,,,,,,,,,,,,,,,,,,,,,,,,,,,,,,,,JNCVD6,train_y,red_square,top_right,2025-04-24_17h01.59.659,HideSeek_v1,2022.2.5,59.946647440418474,
,,,,,,,,,,,30,,,,1,0,1,0,,,,,,,,,,,,,,,,,,,,,,,,,,,,,,,,,,,,,,,,,,,,,,,,,,,,,,,,,,,,,,,,,,,,,,,,,,,,,,21,0.7,0,0,99,1,30,0,conditions/schedules/train_y_first/red_square_00/top_right/inputTrain_1.1.xlsx,99,1,1,1,0,,,,,,,,,,,,,,,,,,,,,,,,,,,,,,,,,,,,,,,,,,,,,,,,,,,,,,,,,,,,,,,,,,,,,,,,,,,JNCVD6,train_y,red_square,top_right,2025-04-24_17h01.59.659,HideSeek_v1,2022.2.5,59.946647440418474,
,,,,,,,,,,,,,,,2,0,2,0,0,0,0,0,,,,,,,,,,,,,,,,,,,,,,,,,,,,,,,conditions/schedules/train_y_first/red_square_00/top_right/instructions/Slide15.png,conditions/schedules/train_y_first/red_square_00/top_right/instructions/Audio15.wav,376.85693830018863,376.8511021002196,15,"[7.279444499872625, 24.337977999821305, 16.305221499875188, 20.7187061002478, 20.918145100120455, 9.420225400011986, 5.6443143002688885, 11.774327600374818, 7.969934099819511, 7.766289799939841, 10.953450799919665, 18.842001699842513, 16.585535500198603, 17.22628160007298, 45.512705999892205]","[7.279452399816364, 0.01778370002284646, 0.05166230024769902, 20.71871259994805, 0.0002071000635623932, 9.420231499709189, 0.03119730018079281, 0.014348099939525127, 0.0002453997731208801, 0.030419199727475643, 0.013705999590456486, 18.842007899656892, 0.07896060030907393, 17.226288700010628, 45.51271379971877]",0,,,,,,,,,,,,,,,,,,,,,,,,,,,,,,,,,,,,,,,,,,,,,,,,,,,,,,,,,,,,,,,,,,,,,,,,,,,,,,,,,,,,,,,,,,,,,,,,,,,,,,,,,,,,,,,,,,,,,,,,,,,,JNCVD6,train_y,red_square,top_right,2025-04-24_17h01.59.659,HideSeek_v1,2022.2.5,59.946647440418474,
,,,,,,,,,,,,,,,2,0,2,0,1,0,1,0,,,,,,,,,,,,,,,,,,,,,,,,,,,,,,,conditions/schedules/train_y_first/red_square_00/top_right/instructions/Slide16.png,conditions/schedules/train_y_first/red_square_00/top_right/instructions/Audio16.wav,422.44518919987604,422.43891764990985,16,"[7.279444499872625, 24.337977999821305, 16.305221499875188, 20.7187061002478, 20.918145100120455, 9.420225400011986, 5.6443143002688885, 11.774327600374818, 7.969934099819511, 7.766289799939841, 10.953450799919665, 18.842001699842513, 16.585535500198603, 17.22628160007298, 45.512705999892205, 29.382537600118667]","[7.279452399816364, 0.01778370002284646, 0.05166230024769902, 20.71871259994805, 0.0002071000635623932, 9.420231499709189, 0.03119730018079281, 0.014348099939525127, 0.0002453997731208801, 0.030419199727475643, 0.013705999590456486, 18.842007899656892, 0.07896060030907393, 17.226288700010628, 0.00021070009097456932, 29.382544599939138]",0,,,,,,,,,,,,,,,,,,,,,,,,,,,,,,,,,,,,,,,,,,,,,,,,,,,,,,,,,,,,,,,,,,,,,,,,,,,,,,,,,,,,,,,,,,,,,,,,,,,,,,,,,,,,,,,,,,,,,,,,,,,,JNCVD6,train_y,red_square,top_right,2025-04-24_17h01.59.659,HideSeek_v1,2022.2.5,59.946647440418474,
,5,5,5,4,0,-1,15,,train_dim1_1,1,30,,,,2,0,2,0,,,,,,,,,0,0,0,0,0,0,0,0,0,0,0,0,,,,,,,,,,,,,,,,,,,,,,,,,stimuli/alien_stimuli/15.png,,,,,,,,,,,,,,,,,,,,,,,,,,,,,,,,,,,,,,,30,,,,,,,,451.9266225001775,451.9266225001775,451.9266225001775,451.9266225001775,451.9266225001775,down,5.8322694003582,0,0,0,99,0.24,-0.08,down,5.739567100070417,,,,,,,,,,,,,,,,,,,,,,,,,,,,,,,,,,,,,,,,,,,,,,,,,,,,,,,,,,,,JNCVD6,train_y,red_square,top_right,2025-04-24_17h01.59.659,HideSeek_v1,2022.2.5,59.946647440418474,
,5,5,5,4,0,-1,15,,train_dim1_1,1,30,,,,2,0,2,0,,,,,,,,,0,0,0,0,0,0,0,0,1,0,1,0,,,,,,,,,,,,,,,,,,,,,,,,,,,,,,,,,,,,,,,,,,,,,,,,,,,,,,,,,,,,,,,,30,,,,,,,,457.75388830015436,457.75388830015436,457.75388830015436,457.75388830015436,457.75388830015436,up,1.4771308000199497,0,0,0,99,0.24,0.0,up,1.3966057999059558,,,,,,,,,,,,,,,,,,,,,,,,,,,,,,,,,,,,,,,,,,,,,,,,,,,,,,,,,,,,JNCVD6,train_y,red_square,top_right,2025-04-24_17h01.59.659,HideSeek_v1,2022.2.5,59.946647440418474,
,5,5,5,4,0,-1,15,,train_dim1_1,1,30,,,,2,0,2,0,,,,,,,,,0,0,0,0,0,0,0,0,2,0,2,0,,,,,,,,,,,,,,,,,,,,,,,,,,,,,,,,,,,,,,,,,,,,,,,,,,,,,,,,,,,,,,,,30,,,,,,,,459.23664129991084,459.23664129991084,459.23664129991084,459.23664129991084,459.23664129991084,left,5.464094500057399,0,0,0,99,0.15999999999999998,0.0,left,5.383773200213909,,,,,,,,,,,,,,,,,,,,,,,,,,,,,,,,,,,,,,,,,,,,,,,,,,,,,,,,,,,,JNCVD6,train_y,red_square,top_right,2025-04-24_17h01.59.659,HideSeek_v1,2022.2.5,59.946647440418474,
,5,5,5,4,0,-1,15,,train_dim1_1,1,30,,,,2,0,2,0,,,,,,,,,0,0,0,0,0,0,0,0,3,0,3,0,,,,,,,,,,,,,,,,,,,,,,,,,,,,,,,,,,,,,,,,,,,,,,,,,,,,,,,,,,,,,,,,30,,,,,,,,464.7093707998283,464.7093707998283,464.7093707998283,464.7093707998283,464.7093707998283,left,0.4765738002024591,0,0,0,99,0.07999999999999997,0.0,left,0.3850062000565231,,,,,,,,,,,,,,,,,,,,,,,,,,,,,,,,,,,,,,,,,,,,,,,,,,,,,,,,,,,,JNCVD6,train_y,red_square,top_right,2025-04-24_17h01.59.659,HideSeek_v1,2022.2.5,59.946647440418474,
,5,5,5,4,0,-1,15,,train_dim1_1,1,30,,,,2,0,2,0,,,,,,,,,0,0,0,0,0,0,0,0,4,0,4,0,,,,,,,,,,,,,,,,,,,,,,,,,,,,,,,,,,,,,,,,,,,,,,,,,,,,,,,,,,,,,,,,30,,,,,,,,465.19248159974813,465.19248159974813,465.19248159974813,465.19248159974813,465.19248159974813,right,1.5778159000910819,0,0,0,99,0.15999999999999998,0.0,right,1.4977580001577735,,,,,,,,,,,,,,,,,,,,,,,,,,,,,,,,,,,,,,,,,,,,,,,,,,,,,,,,,,,,JNCVD6,train_y,red_square,top_right,2025-04-24_17h01.59.659,HideSeek_v1,2022.2.5,59.946647440418474,
,5,5,5,4,0,-1,15,,train_dim1_1,1,30,,,,2,0,2,0,,,,,,,,,0,0,0,0,0,0,0,0,5,0,5,0,,,,,,,,,,,,,,,,,,,,,,,,,,,,,,,,,,,,,,,,,,,,,,,,,,,,,,,,,,,,,,,,30,,,,,,,,466.776397800073,466.776397800073,466.776397800073,466.776397800073,466.776397800073,left,1.0436601000837982,0,0,0,99,0.07999999999999997,0.0,left,0.955957000143826,,,,,,,,,,,,,,,,,,,,,,,,,,,,,,,,,,,,,,,,,,,,,,,,,,,,,,,,,,,,JNCVD6,train_y,red_square,top_right,2025-04-24_17h01.59.659,HideSeek_v1,2022.2.5,59.946647440418474,
,5,5,5,4,0,-1,15,,train_dim1_1,1,30,,,,2,0,2,0,,,,,,,,,0,0,0,0,0,0,0,0,6,0,6,0,,,,,,,,,,,,,,,,,,,,,,,,,,,,,,,,,,,,,,,,,,,,,,,,,,,,,,,,,,,,,,,,30,,,,,,,,467.8270223001018,467.8270223001018,467.8270223001018,467.8270223001018,467.8270223001018,return,1.3772677998058498,0,0,0,0,0.07999999999999997,0.0,return,1.2851705001667142,0,-2,0.07999999999999997,0.0,,,,,,,,,,,,,,,,,,,,,,,,,,,,,,,,,,,,,,,,,,,,,,,,,,,,,,,,JNCVD6,train_y,red_square,top_right,2025-04-24_17h01.59.659,HideSeek_v1,2022.2.5,59.946647440418474,
,8,7,8,7,0,0,16,,train_dim1_1,2,30,,,,2,0,2,0,,,,,,,,,0,0,0,0,0,1,1,1,0,0,0,0,,,,,,,,,,,,,,,,,,,,,,,,,stimuli/alien_stimuli/16.png,,,,,,,,,,,,,,,,,,,,,,,,,,,,,stimuli/alien_stimuli/15.png,15,5,3,,,,,,,30,,,,,,,,503.3758303998038,503.3758303998038,503.3758303998038,503.3758303998038,503.3758303998038,down,3.1240194998681545,0,0,0,99,0.48,0.08,down,3.0198864000849426,,,,,501.8041743999347,503.3758303998038,0.24,-0.08,0.08,0.0,-0.04,0.24,0.24,0.24,-0.08,470.7837128001265,470.7837128001265,470.7837128001265,470.7837128001265,470.7837128001265,470.7837128001265,470.7837128001265,470.7837128001265,470.778984840028,31.146074200049043,return,31.004845099989325,,,,,,,,,,,,,,,,,,,,,,,,,,,,,,,,,JNCVD6,train_y,red_square,top_right,2025-04-24_17h01.59.659,HideSeek_v1,2022.2.5,59.946647440418474,
,8,7,8,7,0,0,16,,train_dim1_1,2,30,,,,2,0,2,0,,,,,,,,,0,0,0,0,0,1,1,1,1,0,1,0,,,,,,,,,,,,,,,,,,,,,,,,,,,,,,,,,,,,,,,,,,,,,,,,,,,,,,,,,,,,,,,,30,,,,,,,,506.493652400095,506.493652400095,506.493652400095,506.493652400095,506.493652400095,down,0.1096097999252379,0,0,0,99,0.48,0.0,down,0.02502369973808527,,,,,,,,,,,,,,,,,,,,,,,,,,,,,,,,,,,,,,,,,,,,,,,,,,,,,,,,,,,,JNCVD6,train_y,red_square,top_right,2025-04-24_17h01.59.659,HideSeek_v1,2022.2.5,59.946647440418474,
,8,7,8,7,0,0,16,,train_dim1_1,2,30,,,,2,0,2,0,,,,,,,,,0,0,0,0,0,1,1,1,2,0,2,0,,,,,,,,,,,,,,,,,,,,,,,,,,,,,,,,,,,,,,,,,,,,,,,,,,,,,,,,,,,,,,,,30,,,,,,,,506.61373049998656,506.61373049998656,506.61373049998656,506.61373049998656,506.61373049998656,up,1.2592711998149753,0,0,0,99,0.48,0.08,up,1.1747397002764046,,,,,,,,,,,,,,,,,,,,,,,,,,,,,,,,,,,,,,,,,,,,,,,,,,,,,,,,,,,,JNCVD6,train_y,red_square,top_right,2025-04-24_17h01.59.659,HideSeek_v1,2022.2.5,59.946647440418474,
,8,7,8,7,0,0,16,,train_dim1_1,2,30,,,,2,0,2,0,,,,,,,,,0,0,0,0,0,1,1,1,3,0,3,0,,,,,,,,,,,,,,,,,,,,,,,,,,,,,,,,,,,,,,,,,,,,,,,,,,,,,,,,,,,,,,,,30,,,,,,,,507.87817959999666,507.87817959999666,507.87817959999666,507.87817959999666,507.87817959999666,up,2.9625196997076273,0,0,0,99,0.48,0.16,up,2.8734071999788284,,,,,,,,,,,,,,,,,,,,,,,,,,,,,,,,,,,,,,,,,,,,,,,,,,,,,,,,,,,,JNCVD6,train_y,red_square,top_right,2025-04-24_17h01.59.659,HideSeek_v1,2022.2.5,59.946647440418474,
,8,7,8,7,0,0,16,,train_dim1_1,2,30,,,,2,0,2,0,,,,,,,,,0,0,0,0,0,1,1,1,4,0,4,0,,,,,,,,,,,,,,,,,,,,,,,,,,,,,,,,,,,,,,,,,,,,,,,,,,,,,,,,,,,,,,,,30,,,,,,,,510.8461575000547,510.8461575000547,510.8461575000547,510.8461575000547,510.8461575000547,up,0.22634130017831922,0,0,0,99,0.48,0.24,up,0.14035739982500672,,,,,,,,,,,,,,,,,,,,,,,,,,,,,,,,,,,,,,,,,,,,,,,,,,,,,,,,,,,,JNCVD6,train_y,red_square,top_right,2025-04-24_17h01.59.659,HideSeek_v1,2022.2.5,59.946647440418474,
,8,7,8,7,0,0,16,,train_dim1_1,2,30,,,,2,0,2,0,,,,,,,,,0,0,0,0,0,1,1,1,5,0,5,0,,,,,,,,,,,,,,,,,,,,,,,,,,,,,,,,,,,,,,,,,,,,,,,,,,,,,,,,,,,,,,,,30,,,,,,,,511.0804441999644,511.0804441999644,511.0804441999644,511.0804441999644,511.0804441999644,down,1.5771106998436153,0,0,0,99,0.48,0.15999999999999998,down,1.4846391002647579,,,,,,,,,,,,,,,,,,,,,,,,,,,,,,,,,,,,,,,,,,,,,,,,,,,,,,,,,,,,JNCVD6,train_y,red_square,top_right,2025-04-24_17h01.59.659,HideSeek_v1,2022.2.5,59.946647440418474,
,8,7,8,7,0,0,16,,train_dim1_1,2,30,,,,2,0,2,0,,,,,,,,,0,0,0,0,0,1,1,1,6,0,6,0,,,,,,,,,,,,,,,,,,,,,,,,,,,,,,,,,,,,,,,,,,,,,,,,,,,,,,,,,,,,,,,,30,,,,,,,,512.666298000142,512.666298000142,512.666298000142,512.666298000142,512.666298000142,down,0.3259291001595557,0,0,0,99,0.48,0.07999999999999997,down,0.23830359987914562,,,,,,,,,,,,,,,,,,,,,,,,,,,,,,,,,,,,,,,,,,,,,,,,,,,,,,,,,,,,JNCVD6,train_y,red_square,top_right,2025-04-24_17h01.59.659,HideSeek_v1,2022.2.5,59.946647440418474,
,8,7,8,7,0,0,16,,train_dim1_1,2,30,,,,2,0,2,0,,,,,,,,,0,0,0,0,0,1,1,1,7,0,7,0,,,,,,,,,,,,,,,,,,,,,,,,,,,,,,,,,,,,,,,,,,,,,,,,,,,,,,,,,,,,,,,,30,,,,,,,,512.9983334997669,512.9983334997669,512.9983334997669,512.9983334997669,512.9983334997669,down,0.3426779001019895,0,0,0,99,0.48,-2.7755575615628914e-17,down,0.257757400162518,,,,,,,,,,,,,,,,,,,,,,,,,,,,,,,,,,,,,,,,,,,,,,,,,,,,,,,,,,,,JNCVD6,train_y,red_square,top_right,2025-04-24_17h01.59.659,HideSeek_v1,2022.2.5,59.946647440418474,
,8,7,8,7,0,0,16,,train_dim1_1,2,30,,,,2,0,2,0,,,,,,,,,0,0,0,0,0,1,1,1,8,0,8,0,,,,,,,,,,,,,,,,,,,,,,,,,,,,,,,,,,,,,,,,,,,,,,,,,,,,,,,,,,,,,,,,30,,,,,,,,513.3503262000158,513.3503262000158,513.3503262000158,513.3503262000158,513.3503262000158,down,0.3762221001088619,0,0,0,99,0.48,-0.08000000000000003,down,0.29825500026345253,,,,,,,,,,,,,,,,,,,,,,,,,,,,,,,,,,,,,,,,,,,,,,,,,,,,,,,,,,,,JNCVD6,train_y,red_square,top_right,2025-04-24_17h01.59.659,HideSeek_v1,2022.2.5,59.946647440418474,
,8,7,8,7,0,0,16,,train_dim1_1,2,30,,,,2,0,2,0,,,,,,,,,0,0,0,0,0,1,1,1,9,0,9,0,,,,,,,,,,,,,,,,,,,,,,,,,,,,,,,,,,,,,,,,,,,,,,,,,,,,,,,,,,,,,,,,30,,,,,,,,513.7327042999677,513.7327042999677,513.7327042999677,513.7327042999677,513.7327042999677,up,1.1274498999118805,0,0,0,99,0.48,-2.7755575615628914e-17,up,1.0452320002950728,,,,,,,,,,,,,,,,,,,,,,,,,,,,,,,,,,,,,,,,,,,,,,,,,,,,,,,,,,,,JNCVD6,train_y,red_square,top_right,2025-04-24_17h01.59.659,HideSeek_v1,2022.2.5,59.946647440418474,
,8,7,8,7,0,0,16,,train_dim1_1,2,30,,,,2,0,2,0,,,,,,,,,0,0,0,0,0,1,1,1,10,0,10,0,,,,,,,,,,,,,,,,,,,,,,,,,,,,,,,,,,,,,,,,,,,,,,,,,,,,,,,,,,,,,,,,30,,,,,,,,514.866329099983,514.866329099983,514.866329099983,514.866329099983,514.866329099983,up,0.6100982003845274,0,0,0,99,0.48,0.07999999999999997,up,0.523694300558418,,,,,,,,,,,,,,,,,,,,,,,,,,,,,,,,,,,,,,,,,,,,,,,,,,,,,,,,,,,,JNCVD6,train_y,red_square,top_right,2025-04-24_17h01.59.659,HideSeek_v1,2022.2.5,59.946647440418474,
,8,7,8,7,0,0,16,,train_dim1_1,2,30,,,,2,0,2,0,,,,,,,,,0,0,0,0,0,1,1,1,11,0,11,0,,,,,,,,,,,,,,,,,,,,,,,,,,,,,,,,,,,,,,,,,,,,,,,,,,,,,,,,,,,,,,,,30,,,,,,,,515.4852816001512,515.4852816001512,515.4852816001512,515.4852816001512,515.4852816001512,up,0.30846309987828135,0,0,0,99,0.48,0.15999999999999998,up,0.2167810001410544,,,,,,,,,,,,,,,,,,,,,,,,,,,,,,,,,,,,,,,,,,,,,,,,,,,,,,,,,,,,JNCVD6,train_y,red_square,top_right,2025-04-24_17h01.59.659,HideSeek_v1,2022.2.5,59.946647440418474,
,8,7,8,7,0,0,16,,train_dim1_1,2,30,,,,2,0,2,0,,,,,,,,,0,0,0,0,0,1,1,1,12,0,12,0,,,,,,,,,,,,,,,,,,,,,,,,,,,,,,,,,,,,,,,,,,,,,,,,,,,,,,,,,,,,,,,,30,,,,,,,,515.8004654999822,515.8004654999822,515.8004654999822,515.8004654999822,515.8004654999822,left,0.5263769002631307,0,0,0,99,0.39999999999999997,0.15999999999999998,left,0.44589430000633,,,,,,,,,,,,,,,,,,,,,,,,,,,,,,,,,,,,,,,,,,,,,,,,,,,,,,,,,,,,JNCVD6,train_y,red_square,top_right,2025-04-24_17h01.59.659,HideSeek_v1,2022.2.5,59.946647440418474,
,8,7,8,7,0,0,16,,train_dim1_1,2,30,,,,2,0,2,0,,,,,,,,,0,0,0,0,0,1,1,1,13,0,13,0,,,,,,,,,,,,,,,,,,,,,,,,,,,,,,,,,,,,,,,,,,,,,,,,,,,,,,,,,,,,,,,,30,,,,,,,,516.3345670001581,516.3345670001581,516.3345670001581,516.3345670001581,516.3345670001581,return,2.2280509998090565,0,1,0,0,0.39999999999999997,0.15999999999999998,return,2.143883000127971,0,-3,0.39999999999999997,0.15999999999999998,,,,,,,,,,,,,,,,,,,,,,,,,,,,,,,,,,,,,,,,,,,,,,,,,,,,,,,,JNCVD6,train_y,red_square,top_right,2025-04-24_17h01.59.659,HideSeek_v1,2022.2.5,59.946647440418474,
,7,8,7,5,0,-3,13,,train_dim1_1,3,30,,,,2,0,2,0,,,,,,,,,0,0,0,0,0,2,2,2,0,0,0,0,,,,,,,,,,,,,,,,,,,,,,,,,stimuli/alien_stimuli/13.png,,,,,,,,,,,,,,,,,,,,,,,,,,,,,stimuli/alien_stimuli/16.png,16,8,4,,,,,,,30,,,,,,,,539.2586710997857,539.2586710997857,539.2586710997857,539.2586710997857,539.2586710997857,left,5.093315599951893,0,1,0,99,0.32,0.24,left,4.98395340051502,,,,,537.6845860001631,539.2586710997857,0.48,0.16,0.0,0.0,0.16,0.48,0.48,0.48,0.16,520.1360443998128,520.1360443998128,520.1360443998128,520.1360443998128,520.1360443998128,520.1360443998128,520.1360443998128,520.1360443998128,520.1368699399754,17.66680660005659,return,17.517102499958128,,,,,,,,,,,,,,,,,,,,,,,,,,,,,,,,,JNCVD6,train_y,red_square,top_right,2025-04-24_17h01.59.659,HideSeek_v1,2022.2.5,59.946647440418474,
,7,8,7,5,0,-3,13,,train_dim1_1,3,30,,,,2,0,2,0,,,,,,,,,0,0,0,0,0,2,2,2,1,0,1,0,,,,,,,,,,,,,,,,,,,,,,,,,,,,,,,,,,,,,,,,,,,,,,,,,,,,,,,,,,,,,,,,30,,,,,,,,544.3412399999797,544.3412399999797,544.3412399999797,544.3412399999797,544.3412399999797,left,0.5263274000026286,0,1,0,99,0.24,0.24,left,0.43839750019833446,,,,,,,,,,,,,,,,,,,,,,,,,,,,,,,,,,,,,,,,,,,,,,,,,,,,,,,,,,,,JNCVD6,train_y,red_square,top_right,2025-04-24_17h01.59.659,HideSeek_v1,2022.2.5,59.946647440418474,
,7,8,7,5,0,-3,13,,train_dim1_1,3,30,,,,2,0,2,0,,,,,,,,,0,0,0,0,0,2,2,2,2,0,2,0,,,,,,,,,,,,,,,,,,,,,,,,,,,,,,,,,,,,,,,,,,,,,,,,,,,,,,,,,,,,,,,,30,,,,,,,,544.874528999906,544.874528999906,544.874528999906,544.874528999906,544.874528999906,right,1.7111068996600807,0,1,0,99,0.32,0.24,right,1.6222676001489162,,,,,,,,,,,,,,,,,,,,,,,,,,,,,,,,,,,,,,,,,,,,,,,,,,,,,,,,,,,,JNCVD6,train_y,red_square,top_right,2025-04-24_17h01.59.659,HideSeek_v1,2022.2.5,59.946647440418474,
,7,8,7,5,0,-3,13,,train_dim1_1,3,30,,,,2,0,2,0,,,,,,,,,0,0,0,0,0,2,2,2,3,0,3,0,,,,,,,,,,,,,,,,,,,,,,,,,,,,,,,,,,,,,,,,,,,,,,,,,,,,,,,,,,,,,,,,30,,,,,,,,546.5919296997599,546.5919296997599,546.5919296997599,546.5919296997599,546.5919296997599,right,0.3765782997943461,0,1,0,99,0.4,0.24,right,0.30113840010017157,,,,,,,,,,,,,,,,,,,,,,,,,,,,,,,,,,,,,,,,,,,,,,,,,,,,,,,,,,,,JNCVD6,train_y,red_square,top_right,2025-04-24_17h01.59.659,HideSeek_v1,2022.2.5,59.946647440418474,
,7,8,7,5,0,-3,13,,train_dim1_1,3,30,,,,2,0,2,0,,,,,,,,,0,0,0,0,0,2,2,2,4,0,4,0,,,,,,,,,,,,,,,,,,,,,,,,,,,,,,,,,,,,,,,,,,,,,,,,,,,,,,,,,,,,,,,,30,,,,,,,,546.9750291998498,546.9750291998498,546.9750291998498,546.9750291998498,546.9750291998498,left,0.6939685996621847,0,1,0,99,0.32,0.24,left,0.6077481000684202,,,,,,,,,,,,,,,,,,,,,,,,,,,,,,,,,,,,,,,,,,,,,,,,,,,,,,,,,,,,JNCVD6,train_y,red_square,top_right,2025-04-24_17h01.59.659,HideSeek_v1,2022.2.5,59.946647440418474,
,7,8,7,5,0,-3,13,,train_dim1_1,3,30,,,,2,0,2,0,,,,,,,,,0,0,0,0,0,2,2,2,5,0,5,0,,,,,,,,,,,,,,,,,,,,,,,,,,,,,,,,,,,,,,,,,,,,,,,,,,,,,,,,,,,,,,,,30,,,,,,,,547.6757824998349,547.6757824998349,547.6757824998349,547.6757824998349,547.6757824998349,left,0.5433308999054134,0,1,0,99,0.24,0.24,left,0.46330920001491904,,,,,,,,,,,,,,,,,,,,,,,,,,,,,,,,,,,,,,,,,,,,,,,,,,,,,,,,,,,,JNCVD6,train_y,red_square,top_right,2025-04-24_17h01.59.659,HideSeek_v1,2022.2.5,59.946647440418474,
,7,8,7,5,0,-3,13,,train_dim1_1,3,30,,,,2,0,2,0,,,,,,,,,0,0,0,0,0,2,2,2,6,0,6,0,,,,,,,,,,,,,,,,,,,,,,,,,,,,,,,,,,,,,,,,,,,,,,,,,,,,,,,,,,,,,,,,30,,,,,,,,548.2265269001946,548.2265269001946,548.2265269001946,548.2265269001946,548.2265269001946,left,0.5937679000198841,0,1,0,99,0.15999999999999998,0.24,left,0.510111799929291,,,,,,,,,,,,,,,,,,,,,,,,,,,,,,,,,,,,,,,,,,,,,,,,,,,,,,,,,,,,JNCVD6,train_y,red_square,top_right,2025-04-24_17h01.59.659,HideSeek_v1,2022.2.5,59.946647440418474,
,7,8,7,5,0,-3,13,,train_dim1_1,3,30,,,,2,0,2,0,,,,,,,,,0,0,0,0,0,2,2,2,7,0,7,0,,,,,,,,,,,,,,,,,,,,,,,,,,,,,,,,,,,,,,,,,,,,,,,,,,,,,,,,,,,,,,,,30,,,,,,,,548.8282196000218,548.8282196000218,548.8282196000218,548.8282196000218,548.8282196000218,left,0.6431438000872731,0,1,0,99,0.07999999999999997,0.24,left,0.564548599999398,,,,,,,,,,,,,,,,,,,,,,,,,,,,,,,,,,,,,,,,,,,,,,,,,,,,,,,,,,,,JNCVD6,train_y,red_square,top_right,2025-04-24_17h01.59.659,HideSeek_v1,2022.2.5,59.946647440418474,
,7,8,7,5,0,-3,13,,train_dim1_1,3,30,,,,2,0,2,0,,,,,,,,,0,0,0,0,0,2,2,2,8,0,8,0,,,,,,,,,,,,,,,,,,,,,,,,,,,,,,,,,,,,,,,,,,,,,,,,,,,,,,,,,,,,,,,,30,,,,,,,,549.4779380001128,549.4779380001128,549.4779380001128,549.4779380001128,549.4779380001128,left,0.8604027000255883,0,1,0,99,-2.7755575615628914e-17,0.24,left,0.7798674004152417,,,,,,,,,,,,,,,,,,,,,,,,,,,,,,,,,,,,,,,,,,,,,,,,,,,,,,,,,,,,JNCVD6,train_y,red_square,top_right,2025-04-24_17h01.59.659,HideSeek_v1,2022.2.5,59.946647440418474,
,7,8,7,5,0,-3,13,,train_dim1_1,3,30,,,,2,0,2,0,,,,,,,,,0,0,0,0,0,2,2,2,9,0,9,0,,,,,,,,,,,,,,,,,,,,,,,,,,,,,,,,,,,,,,,,,,,,,,,,,,,,,,,,,,,,,,,,30,,,,,,,,550.3455933001824,550.3455933001824,550.3455933001824,550.3455933001824,550.3455933001824,return,2.21140669984743,0,0,0,0,-2.7755575615628914e-17,0.24,return,2.132999800145626,0,-8,-2.7755575615628914e-17,0.24,,,,,,,,,,,,,,,,,,,,,,,,,,,,,,,,,,,,,,,,,,,,,,,,,,,,,,,,JNCVD6,train_y,red_square,top_right,2025-04-24_17h01.59.659,HideSeek_v1,2022.2.5,59.946647440418474,
,5,6,5,2,0,-4,12,,train_dim1_1,4,30,,,,2,0,2,0,,,,,,,,,0,0,0,0,0,3,3,3,0,0,0,0,,,,,,,,,,,,,,,,,,,,,,,,,stimuli/alien_stimuli/12.png,,,,,,,,,,,,,,,,,,,,,,,,,,,,,stimuli/alien_stimuli/13.png,13,7,5,,,,,,,30,,,,,,,,559.2583380998112,559.2583380998112,559.2583380998112,559.2583380998112,559.2583380998112,down,3.5416601998731494,0,0,0,99,0.24,0.0,down,3.4637465002015233,,,,,557.7012968999334,559.2583380998112,0.4,0,0.24,0.0,0.12,0.4,0.4,0.4,0,554.1256411997601,554.1256411997601,554.1256411997601,554.1256411997601,554.1256411997601,554.1256411997601,554.1256411997601,554.1256411997601,554.1151361102238,3.688377299811691,return,3.549525700043887,,,,,,,,,,,,,,,,,,,,,,,,,,,,,,,,,JNCVD6,train_y,red_square,top_right,2025-04-24_17h01.59.659,HideSeek_v1,2022.2.5,59.946647440418474,
,5,6,5,2,0,-4,12,,train_dim1_1,4,30,,,,2,0,2,0,,,,,,,,,0,0,0,0,0,3,3,3,1,0,1,0,,,,,,,,,,,,,,,,,,,,,,,,,,,,,,,,,,,,,,,,,,,,,,,,,,,,,,,,,,,,,,,,30,,,,,,,,562.8069302001968,562.8069302001968,562.8069302001968,562.8069302001968,562.8069302001968,down,0.4756503002718091,0,0,0,99,0.24,-0.08,down,0.3916025999933481,,,,,,,,,,,,,,,,,,,,,,,,,,,,,,,,,,,,,,,,,,,,,,,,,,,,,,,,,,,,JNCVD6,train_y,red_square,top_right,2025-04-24_17h01.59.659,HideSeek_v1,2022.2.5,59.946647440418474,
,5,6,5,2,0,-4,12,,train_dim1_1,4,30,,,,2,0,2,0,,,,,,,,,0,0,0,0,0,3,3,3,2,0,2,0,,,,,,,,,,,,,,,,,,,,,,,,,,,,,,,,,,,,,,,,,,,,,,,,,,,,,,,,,,,,,,,,30,,,,,,,,563.290343800094,563.290343800094,563.290343800094,563.290343800094,563.290343800094,down,0.5275046997703612,0,0,0,99,0.24,-0.16,down,0.4375983001664281,,,,,,,,,,,,,,,,,,,,,,,,,,,,,,,,,,,,,,,,,,,,,,,,,,,,,,,,,,,,JNCVD6,train_y,red_square,top_right,2025-04-24_17h01.59.659,HideSeek_v1,2022.2.5,59.946647440418474,
,5,6,5,2,0,-4,12,,train_dim1_1,4,30,,,,2,0,2,0,,,,,,,,,0,0,0,0,0,3,3,3,3,0,3,0,,,,,,,,,,,,,,,,,,,,,,,,,,,,,,,,,,,,,,,,,,,,,,,,,,,,,,,,,,,,,,,,30,,,,,,,,563.8243764000945,563.8243764000945,563.8243764000945,563.8243764000945,563.8243764000945,right,2.2440182003192604,0,0,0,99,0.32,-0.16,right,2.155908000189811,,,,,,,,,,,,,,,,,,,,,,,,,,,,,,,,,,,,,,,,,,,,,,,,,,,,,,,,,,,,JNCVD6,train_y,red_square,top_right,2025-04-24_17h01.59.659,HideSeek_v1,2022.2.5,59.946647440418474,
,5,6,5,2,0,-4,12,,train_dim1_1,4,30,,,,2,0,2,0,,,,,,,,,0,0,0,0,0,3,3,3,4,0,4,0,,,,,,,,,,,,,,,,,,,,,,,,,,,,,,,,,,,,,,,,,,,,,,,,,,,,,,,,,,,,,,,,30,,,,,,,,566.0754364999011,566.0754364999011,566.0754364999011,566.0754364999011,566.0754364999011,left,2.2613770999014378,0,0,0,99,0.24,-0.16,left,2.172760400455445,,,,,,,,,,,,,,,,,,,,,,,,,,,,,,,,,,,,,,,,,,,,,,,,,,,,,,,,,,,,JNCVD6,train_y,red_square,top_right,2025-04-24_17h01.59.659,HideSeek_v1,2022.2.5,59.946647440418474,
,5,6,5,2,0,-4,12,,train_dim1_1,4,30,,,,2,0,2,0,,,,,,,,,0,0,0,0,0,3,3,3,5,0,5,0,,,,,,,,,,,,,,,,,,,,,,,,,,,,,,,,,,,,,,,,,,,,,,,,,,,,,,,,,,,,,,,,30,,,,,,,,568.3438149001449,568.3438149001449,568.3438149001449,568.3438149001449,568.3438149001449,down,1.7111951000988483,0,0,0,99,0.24,-0.24,down,1.6307315002195537,,,,,,,,,,,,,,,,,,,,,,,,,,,,,,,,,,,,,,,,,,,,,,,,,,,,,,,,,,,,JNCVD6,train_y,red_square,top_right,2025-04-24_17h01.59.659,HideSeek_v1,2022.2.5,59.946647440418474,
,5,6,5,2,0,-4,12,,train_dim1_1,4,30,,,,2,0,2,0,,,,,,,,,0,0,0,0,0,3,3,3,6,0,6,0,,,,,,,,,,,,,,,,,,,,,,,,,,,,,,,,,,,,,,,,,,,,,,,,,,,,,,,,,,,,,,,,30,,,,,,,,570.0624148999341,570.0624148999341,570.0624148999341,570.0624148999341,570.0624148999341,up,0.7436253000050783,0,0,0,99,0.24,-0.15999999999999998,up,0.6604617000557482,,,,,,,,,,,,,,,,,,,,,,,,,,,,,,,,,,,,,,,,,,,,,,,,,,,,,,,,,,,,JNCVD6,train_y,red_square,top_right,2025-04-24_17h01.59.659,HideSeek_v1,2022.2.5,59.946647440418474,
,5,6,5,2,0,-4,12,,train_dim1_1,4,30,,,,2,0,2,0,,,,,,,,,0,0,0,0,0,3,3,3,7,0,7,0,,,,,,,,,,,,,,,,,,,,,,,,,,,,,,,,,,,,,,,,,,,,,,,,,,,,,,,,,,,,,,,,30,,,,,,,,570.8126139999367,570.8126139999367,570.8126139999367,570.8126139999367,570.8126139999367,down,0.5602226001210511,0,0,0,99,0.24,-0.24,down,0.4832826005294919,,,,,,,,,,,,,,,,,,,,,,,,,,,,,,,,,,,,,,,,,,,,,,,,,,,,,,,,,,,,JNCVD6,train_y,red_square,top_right,2025-04-24_17h01.59.659,HideSeek_v1,2022.2.5,59.946647440418474,
,5,6,5,2,0,-4,12,,train_dim1_1,4,30,,,,2,0,2,0,,,,,,,,,0,0,0,0,0,3,3,3,8,0,8,0,,,,,,,,,,,,,,,,,,,,,,,,,,,,,,,,,,,,,,,,,,,,,,,,,,,,,,,,,,,,,,,,30,,,,,,,,571.3806650000624,571.3806650000624,571.3806650000624,571.3806650000624,571.3806650000624,return,0.5426993002183735,1,0,0,1,0.24,-0.24,return,0.4629884003661573,-4,-8,0.24,-0.24,,,,,,,,,,,,,,,,,,,,,,,,,,,,,,,,,,,,,,,,,,,,,,,,,,,,,,,,JNCVD6,train_y,red_square,top_right,2025-04-24_17h01.59.659,HideSeek_v1,2022.2.5,59.946647440418474,
,8,8,8,3,0,-5,11,,train_dim1_1,5,30,,,,2,0,2,0,,,,,,,,,0,0,0,0,0,4,4,4,0,0,0,0,,,,,,,,,,,,,,,,,,,,,,,,,stimuli/alien_stimuli/11.png,,,,,,,,,,,,,,,,,,,,,,,,,,,,,stimuli/alien_stimuli/12.png,12,5,6,,,,,,,30,,,,,,,,582.4111195998266,582.4111195998266,582.4111195998266,582.4111195998266,582.4111195998266,down,3.0246834997087717,1,0,0,99,0.48,0.15999999999999998,down,2.9368771999143064,,,,,580.8536366000772,582.4111195998266,0.24,-0.24,0.32,0.0,-0.07999999999999999,0.24,0.24,0.24,-0.24,573.4986124997959,573.4986124997959,573.4986124997959,573.4986124997959,573.4986124997959,573.4986124997959,573.4986124997959,573.4986124997959,573.4974446399137,7.475706099998206,return,7.339461099822074,,,,,,,,,,,,,,,,,,,,,,,,,,,,,,,,,JNCVD6,train_y,red_square,top_right,2025-04-24_17h01.59.659,HideSeek_v1,2022.2.5,59.946647440418474,
,8,8,8,3,0,-5,11,,train_dim1_1,5,30,,,,2,0,2,0,,,,,,,,,0,0,0,0,0,4,4,4,1,0,1,0,,,,,,,,,,,,,,,,,,,,,,,,,,,,,,,,,,,,,,,,,,,,,,,,,,,,,,,,,,,,,,,,30,,,,,,,,585.4421096998267,585.4421096998267,585.4421096998267,585.4421096998267,585.4421096998267,down,0.6765338997356594,1,0,0,99,0.48,0.07999999999999997,down,0.5838445001281798,,,,,,,,,,,,,,,,,,,,,,,,,,,,,,,,,,,,,,,,,,,,,,,,,,,,,,,,,,,,JNCVD6,train_y,red_square,top_right,2025-04-24_17h01.59.659,HideSeek_v1,2022.2.5,59.946647440418474,
,8,8,8,3,0,-5,11,,train_dim1_1,5,30,,,,2,0,2,0,,,,,,,,,0,0,0,0,0,4,4,4,2,0,2,0,,,,,,,,,,,,,,,,,,,,,,,,,,,,,,,,,,,,,,,,,,,,,,,,,,,,,,,,,,,,,,,,30,,,,,,,,586.1250465000048,586.1250465000048,586.1250465000048,586.1250465000048,586.1250465000048,down,0.40999990003183484,1,0,0,99,0.48,-2.7755575615628914e-17,down,0.3192634996958077,,,,,,,,,,,,,,,,,,,,,,,,,,,,,,,,,,,,,,,,,,,,,,,,,,,,,,,,,,,,JNCVD6,train_y,red_square,top_right,2025-04-24_17h01.59.659,HideSeek_v1,2022.2.5,59.946647440418474,
,8,8,8,3,0,-5,11,,train_dim1_1,5,30,,,,2,0,2,0,,,,,,,,,0,0,0,0,0,4,4,4,3,0,3,0,,,,,,,,,,,,,,,,,,,,,,,,,,,,,,,,,,,,,,,,,,,,,,,,,,,,,,,,,,,,,,,,30,,,,,,,,586.5427207998,586.5427207998,586.5427207998,586.5427207998,586.5427207998,down,2.344967999961227,1,0,0,99,0.48,-0.08000000000000003,down,2.25263400003314,,,,,,,,,,,,,,,,,,,,,,,,,,,,,,,,,,,,,,,,,,,,,,,,,,,,,,,,,,,,JNCVD6,train_y,red_square,top_right,2025-04-24_17h01.59.659,HideSeek_v1,2022.2.5,59.946647440418474,
,8,8,8,3,0,-5,11,,train_dim1_1,5,30,,,,2,0,2,0,,,,,,,,,0,0,0,0,0,4,4,4,4,0,4,0,,,,,,,,,,,,,,,,,,,,,,,,,,,,,,,,,,,,,,,,,,,,,,,,,,,,,,,,,,,,,,,,30,,,,,,,,588.8944167997688,588.8944167997688,588.8944167997688,588.8944167997688,588.8944167997688,down,0.6601578998379409,1,0,0,99,0.48,-0.16000000000000003,down,0.568489100318402,,,,,,,,,,,,,,,,,,,,,,,,,,,,,,,,,,,,,,,,,,,,,,,,,,,,,,,,,,,,JNCVD6,train_y,red_square,top_right,2025-04-24_17h01.59.659,HideSeek_v1,2022.2.5,59.946647440418474,
,8,8,8,3,0,-5,11,,train_dim1_1,5,30,,,,2,0,2,0,,,,,,,,,0,0,0,0,0,4,4,4,5,0,5,0,,,,,,,,,,,,,,,,,,,,,,,,,,,,,,,,,,,,,,,,,,,,,,,,,,,,,,,,,,,,,,,,30,,,,,,,,589.5619268999435,589.5619268999435,589.5619268999435,589.5619268999435,589.5619268999435,up,1.5275167999789119,1,0,0,99,0.48,-0.08000000000000003,up,1.4410486998967826,,,,,,,,,,,,,,,,,,,,,,,,,,,,,,,,,,,,,,,,,,,,,,,,,,,,,,,,,,,,JNCVD6,train_y,red_square,top_right,2025-04-24_17h01.59.659,HideSeek_v1,2022.2.5,59.946647440418474,
,8,8,8,3,0,-5,11,,train_dim1_1,5,30,,,,2,0,2,0,,,,,,,,,0,0,0,0,0,4,4,4,6,0,6,0,,,,,,,,,,,,,,,,,,,,,,,,,,,,,,,,,,,,,,,,,,,,,,,,,,,,,,,,,,,,,,,,30,,,,,,,,591.0956509001553,591.0956509001553,591.0956509001553,591.0956509001553,591.0956509001553,down,1.577660399954766,1,0,0,99,0.48,-0.16000000000000003,down,1.4864593003876507,,,,,,,,,,,,,,,,,,,,,,,,,,,,,,,,,,,,,,,,,,,,,,,,,,,,,,,,,,,,JNCVD6,train_y,red_square,top_right,2025-04-24_17h01.59.659,HideSeek_v1,2022.2.5,59.946647440418474,
,8,8,8,3,0,-5,11,,train_dim1_1,5,30,,,,2,0,2,0,,,,,,,,,0,0,0,0,0,4,4,4,7,0,7,0,,,,,,,,,,,,,,,,,,,,,,,,,,,,,,,,,,,,,,,,,,,,,,,,,,,,,,,,,,,,,,,,30,,,,,,,,592.6806676997803,592.6806676997803,592.6806676997803,592.6806676997803,592.6806676997803,down,0.5435554003342986,1,0,0,99,0.48,-0.24000000000000005,down,0.4676447999663651,,,,,,,,,,,,,,,,,,,,,,,,,,,,,,,,,,,,,,,,,,,,,,,,,,,,,,,,,,,,JNCVD6,train_y,red_square,top_right,2025-04-24_17h01.59.659,HideSeek_v1,2022.2.5,59.946647440418474,
,8,8,8,3,0,-5,11,,train_dim1_1,5,30,,,,2,0,2,0,,,,,,,,,0,0,0,0,0,4,4,4,8,0,8,0,,,,,,,,,,,,,,,,,,,,,,,,,,,,,,,,,,,,,,,,,,,,,,,,,,,,,,,,,,,,,,,,30,,,,,,,,593.2314665000886,593.2314665000886,593.2314665000886,593.2314665000886,593.2314665000886,up,0.7271289001218975,1,0,0,99,0.48,-0.16000000000000003,up,0.6368422000668943,,,,,,,,,,,,,,,,,,,,,,,,,,,,,,,,,,,,,,,,,,,,,,,,,,,,,,,,,,,,JNCVD6,train_y,red_square,top_right,2025-04-24_17h01.59.659,HideSeek_v1,2022.2.5,59.946647440418474,
,8,8,8,3,0,-5,11,,train_dim1_1,5,30,,,,2,0,2,0,,,,,,,,,0,0,0,0,0,4,4,4,9,0,9,0,,,,,,,,,,,,,,,,,,,,,,,,,,,,,,,,,,,,,,,,,,,,,,,,,,,,,,,,,,,,,,,,30,,,,,,,,593.9645066000521,593.9645066000521,593.9645066000521,593.9645066000521,593.9645066000521,up,0.29335049958899617,1,0,0,99,0.48,-0.08000000000000003,up,0.2149523003026843,,,,,,,,,,,,,,,,,,,,,,,,,,,,,,,,,,,,,,,,,,,,,,,,,,,,,,,,,,,,JNCVD6,train_y,red_square,top_right,2025-04-24_17h01.59.659,HideSeek_v1,2022.2.5,59.946647440418474,
,8,8,8,3,0,-5,11,,train_dim1_1,5,30,,,,2,0,2,0,,,,,,,,,0,0,0,0,0,4,4,4,10,0,10,0,,,,,,,,,,,,,,,,,,,,,,,,,,,,,,,,,,,,,,,,,,,,,,,,,,,,,,,,,,,,,,,,30,,,,,,,,594.2653315998614,594.2653315998614,594.2653315998614,594.2653315998614,594.2653315998614,up,0.27646119985729456,1,0,0,99,0.48,-2.7755575615628914e-17,up,0.18907310022041202,,,,,,,,,,,,,,,,,,,,,,,,,,,,,,,,,,,,,,,,,,,,,,,,,,,,,,,,,,,,JNCVD6,train_y,red_square,top_right,2025-04-24_17h01.59.659,HideSeek_v1,2022.2.5,59.946647440418474,
,8,8,8,3,0,-5,11,,train_dim1_1,5,30,,,,2,0,2,0,,,,,,,,,0,0,0,0,0,4,4,4,11,0,11,0,,,,,,,,,,,,,,,,,,,,,,,,,,,,,,,,,,,,,,,,,,,,,,,,,,,,,,,,,,,,,,,,30,,,,,,,,594.5482676001266,594.5482676001266,594.5482676001266,594.5482676001266,594.5482676001266,up,0.30987170012667775,1,0,0,99,0.48,0.07999999999999997,up,0.22240860015153885,,,,,,,,,,,,,,,,,,,,,,,,,,,,,,,,,,,,,,,,,,,,,,,,,,,,,,,,,,,,JNCVD6,train_y,red_square,top_right,2025-04-24_17h01.59.659,HideSeek_v1,2022.2.5,59.946647440418474,
,8,8,8,3,0,-5,11,,train_dim1_1,5,30,,,,2,0,2,0,,,,,,,,,0,0,0,0,0,4,4,4,12,0,12,0,,,,,,,,,,,,,,,,,,,,,,,,,,,,,,,,,,,,,,,,,,,,,,,,,,,,,,,,,,,,,,,,30,,,,,,,,594.8656317000277,594.8656317000277,594.8656317000277,594.8656317000277,594.8656317000277,down,0.8604532997123897,1,0,0,99,0.48,-2.7755575615628914e-17,down,0.7770437998697162,,,,,,,,,,,,,,,,,,,,,,,,,,,,,,,,,,,,,,,,,,,,,,,,,,,,,,,,,,,,JNCVD6,train_y,red_square,top_right,2025-04-24_17h01.59.659,HideSeek_v1,2022.2.5,59.946647440418474,
,8,8,8,3,0,-5,11,,train_dim1_1,5,30,,,,2,0,2,0,,,,,,,,,0,0,0,0,0,4,4,4,13,0,13,0,,,,,,,,,,,,,,,,,,,,,,,,,,,,,,,,,,,,,,,,,,,,,,,,,,,,,,,,,,,,,,,,30,,,,,,,,595.7329644998536,595.7329644998536,595.7329644998536,595.7329644998536,595.7329644998536,down,1.8111491999588907,1,0,0,99,0.48,-0.08000000000000003,down,1.7341841999441385,,,,,,,,,,,,,,,,,,,,,,,,,,,,,,,,,,,,,,,,,,,,,,,,,,,,,,,,,,,,JNCVD6,train_y,red_square,top_right,2025-04-24_17h01.59.659,HideSeek_v1,2022.2.5,59.946647440418474,
,8,8,8,3,0,-5,11,,train_dim1_1,5,30,,,,2,0,2,0,,,,,,,,,0,0,0,0,0,4,4,4,14,0,14,0,,,,,,,,,,,,,,,,,,,,,,,,,,,,,,,,,,,,,,,,,,,,,,,,,,,,,,,,,,,,,,,,30,,,,,,,,597.5525155998766,597.5525155998766,597.5525155998766,597.5525155998766,597.5525155998766,return,1.493595500010997,1,1,0,0,0.48,-0.08000000000000003,return,1.4120856998488307,-8,-8,0.48,-0.08000000000000003,,,,,,,,,,,,,,,,,,,,,,,,,,,,,,,,,,,,,,,,,,,,,,,,,,,,,,,,JNCVD6,train_y,red_square,top_right,2025-04-24_17h01.59.659,HideSeek_v1,2022.2.5,59.946647440418474,
,6,9,6,5,0,-4,12,,train_dim1_1,6,30,,,,2,0,2,0,,,,,,,,,0,0,0,0,0,5,5,5,0,0,0,0,,,,,,,,,,,,,,,,,,,,,,,,,stimuli/alien_stimuli/12.png,,,,,,,,,,,,,,,,,,,,,,,,,,,,,stimuli/alien_stimuli/11.png,11,8,7,,,,,,,30,,,,,,,,605.1795156002045,605.1795156002045,605.1795156002045,605.1795156002045,605.1795156002045,down,6.410570800304413,1,1,0,99,0.32,0.24,down,6.334270800463855,,,,,603.622909499798,605.1795156002045,0.48,-0.16,0.4,0.0,0.039999999999999994,0.48,0.48,0.48,-0.16,600.6181574999355,600.6181574999355,600.6181574999355,600.6181574999355,600.6181574999355,600.6181574999355,600.6181574999355,600.6181574999355,600.6200432400219,3.1215774002484977,return,2.98330740025267,,,,,,,,,,,,,,,,,,,,,,,,,,,,,,,,,JNCVD6,train_y,red_square,top_right,2025-04-24_17h01.59.659,HideSeek_v1,2022.2.5,59.946647440418474,
,6,9,6,5,0,-4,12,,train_dim1_1,6,30,,,,2,0,2,0,,,,,,,,,0,0,0,0,0,5,5,5,1,0,1,0,,,,,,,,,,,,,,,,,,,,,,,,,,,,,,,,,,,,,,,,,,,,,,,,,,,,,,,,,,,,,,,,30,,,,,,,,611.6149146999232,611.6149146999232,611.6149146999232,611.6149146999232,611.6149146999232,right,1.0935877999290824,1,1,0,99,0.4,0.24,right,0.9948833999224007,,,,,,,,,,,,,,,,,,,,,,,,,,,,,,,,,,,,,,,,,,,,,,,,,,,,,,,,,,,,JNCVD6,train_y,red_square,top_right,2025-04-24_17h01.59.659,HideSeek_v1,2022.2.5,59.946647440418474,
,6,9,6,5,0,-4,12,,train_dim1_1,6,30,,,,2,0,2,0,,,,,,,,,0,0,0,0,0,5,5,5,2,0,2,0,,,,,,,,,,,,,,,,,,,,,,,,,,,,,,,,,,,,,,,,,,,,,,,,,,,,,,,,,,,,,,,,30,,,,,,,,612.6974813998677,612.6974813998677,612.6974813998677,612.6974813998677,612.6974813998677,down,1.3109022001735866,1,1,0,99,0.4,0.15999999999999998,down,1.2335938001051545,,,,,,,,,,,,,,,,,,,,,,,,,,,,,,,,,,,,,,,,,,,,,,,,,,,,,,,,,,,,JNCVD6,train_y,red_square,top_right,2025-04-24_17h01.59.659,HideSeek_v1,2022.2.5,59.946647440418474,
,6,9,6,5,0,-4,12,,train_dim1_1,6,30,,,,2,0,2,0,,,,,,,,,0,0,0,0,0,5,5,5,3,0,3,0,,,,,,,,,,,,,,,,,,,,,,,,,,,,,,,,,,,,,,,,,,,,,,,,,,,,,,,,,,,,,,,,30,,,,,,,,614.014970799908,614.014970799908,614.014970799908,614.014970799908,614.014970799908,left,0.27662199968472123,1,1,0,99,0.32,0.15999999999999998,left,0.20024800021201372,,,,,,,,,,,,,,,,,,,,,,,,,,,,,,,,,,,,,,,,,,,,,,,,,,,,,,,,,,,,JNCVD6,train_y,red_square,top_right,2025-04-24_17h01.59.659,HideSeek_v1,2022.2.5,59.946647440418474,
,6,9,6,5,0,-4,12,,train_dim1_1,6,30,,,,2,0,2,0,,,,,,,,,0,0,0,0,0,5,5,5,4,0,4,0,,,,,,,,,,,,,,,,,,,,,,,,,,,,,,,,,,,,,,,,,,,,,,,,,,,,,,,,,,,,,,,,30,,,,,,,,614.3006556001492,614.3006556001492,614.3006556001492,614.3006556001492,614.3006556001492,down,1.8935810001567006,1,1,0,99,0.32,0.07999999999999997,down,1.802004000172019,,,,,,,,,,,,,,,,,,,,,,,,,,,,,,,,,,,,,,,,,,,,,,,,,,,,,,,,,,,,JNCVD6,train_y,red_square,top_right,2025-04-24_17h01.59.659,HideSeek_v1,2022.2.5,59.946647440418474,
,6,9,6,5,0,-4,12,,train_dim1_1,6,30,,,,2,0,2,0,,,,,,,,,0,0,0,0,0,5,5,5,5,0,5,0,,,,,,,,,,,,,,,,,,,,,,,,,,,,,,,,,,,,,,,,,,,,,,,,,,,,,,,,,,,,,,,,30,,,,,,,,616.2007241998799,616.2007241998799,616.2007241998799,616.2007241998799,616.2007241998799,down,0.6604190999642015,1,1,0,99,0.32,-2.7755575615628914e-17,down,0.5796352000907063,,,,,,,,,,,,,,,,,,,,,,,,,,,,,,,,,,,,,,,,,,,,,,,,,,,,,,,,,,,,JNCVD6,train_y,red_square,top_right,2025-04-24_17h01.59.659,HideSeek_v1,2022.2.5,59.946647440418474,
,6,9,6,5,0,-4,12,,train_dim1_1,6,30,,,,2,0,2,0,,,,,,,,,0,0,0,0,0,5,5,5,6,0,6,0,,,,,,,,,,,,,,,,,,,,,,,,,,,,,,,,,,,,,,,,,,,,,,,,,,,,,,,,,,,,,,,,30,,,,,,,,616.8679983997717,616.8679983997717,616.8679983997717,616.8679983997717,616.8679983997717,down,0.5597975999116898,1,1,0,99,0.32,-0.08000000000000003,down,0.47156119998544455,,,,,,,,,,,,,,,,,,,,,,,,,,,,,,,,,,,,,,,,,,,,,,,,,,,,,,,,,,,,JNCVD6,train_y,red_square,top_right,2025-04-24_17h01.59.659,HideSeek_v1,2022.2.5,59.946647440418474,
,6,9,6,5,0,-4,12,,train_dim1_1,6,30,,,,2,0,2,0,,,,,,,,,0,0,0,0,0,5,5,5,7,0,7,0,,,,,,,,,,,,,,,,,,,,,,,,,,,,,,,,,,,,,,,,,,,,,,,,,,,,,,,,,,,,,,,,30,,,,,,,,617.4350009001791,617.4350009001791,617.4350009001791,617.4350009001791,617.4350009001791,down,0.543541599996388,1,1,0,99,0.32,-0.16000000000000003,down,0.453076200094074,,,,,,,,,,,,,,,,,,,,,,,,,,,,,,,,,,,,,,,,,,,,,,,,,,,,,,,,,,,,JNCVD6,train_y,red_square,top_right,2025-04-24_17h01.59.659,HideSeek_v1,2022.2.5,59.946647440418474,
,6,9,6,5,0,-4,12,,train_dim1_1,6,30,,,,2,0,2,0,,,,,,,,,0,0,0,0,0,5,5,5,8,0,8,0,,,,,,,,,,,,,,,,,,,,,,,,,,,,,,,,,,,,,,,,,,,,,,,,,,,,,,,,,,,,,,,,30,,,,,,,,617.9850898999721,617.9850898999721,617.9850898999721,617.9850898999721,617.9850898999721,return,0.9435092001222074,1,0,0,0,0.32,-0.16000000000000003,return,0.8646623999811709,-14,-8,0.32,-0.16000000000000003,,,,,,,,,,,,,,,,,,,,,,,,,,,,,,,,,,,,,,,,,,,,,,,,,,,,,,,,JNCVD6,train_y,red_square,top_right,2025-04-24_17h01.59.659,HideSeek_v1,2022.2.5,59.946647440418474,
,6,8,6,5,0,-3,13,,train_dim1_1,7,30,,,,2,0,2,0,,,,,,,,,0,0,0,0,0,6,6,6,0,0,0,0,,,,,,,,,,,,,,,,,,,,,,,,,stimuli/alien_stimuli/13.png,,,,,,,,,,,,,,,,,,,,,,,,,,,,,stimuli/alien_stimuli/12.png,12,6,8,,,,,,,30,,,,,,,,628.1840276997536,628.1840276997536,628.1840276997536,628.1840276997536,628.1840276997536,down,3.4588175998069346,1,0,0,99,0.32,0.15999999999999998,down,3.3631140999495983,,,,,626.625238200184,628.1840276997536,0.32,0,0.32,0.0,0.16,0.32,0.32,0.32,0,620.5057999999262,620.5057999999262,620.5057999999262,620.5057999999262,620.5057999999262,620.5057999999262,620.5057999999262,620.5057999999262,620.5033007399179,6.241067599970847,return,6.097880099900067,,,,,,,,,,,,,,,,,,,,,,,,,,,,,,,,,JNCVD6,train_y,red_square,top_right,2025-04-24_17h01.59.659,HideSeek_v1,2022.2.5,59.946647440418474,
,6,8,6,5,0,-3,13,,train_dim1_1,7,30,,,,2,0,2,0,,,,,,,,,0,0,0,0,0,6,6,6,1,0,1,0,,,,,,,,,,,,,,,,,,,,,,,,,,,,,,,,,,,,,,,,,,,,,,,,,,,,,,,,,,,,,,,,30,,,,,,,,631.6462110998109,631.6462110998109,631.6462110998109,631.6462110998109,631.6462110998109,left,1.310156499966979,1,0,0,99,0.24,0.15999999999999998,left,1.2319982000626624,,,,,,,,,,,,,,,,,,,,,,,,,,,,,,,,,,,,,,,,,,,,,,,,,,,,,,,,,,,,JNCVD6,train_y,red_square,top_right,2025-04-24_17h01.59.659,HideSeek_v1,2022.2.5,59.946647440418474,
,6,8,6,5,0,-3,13,,train_dim1_1,7,30,,,,2,0,2,0,,,,,,,,,0,0,0,0,0,6,6,6,2,0,2,0,,,,,,,,,,,,,,,,,,,,,,,,,,,,,,,,,,,,,,,,,,,,,,,,,,,,,,,,,,,,,,,,30,,,,,,,,632.9663586001843,632.9663586001843,632.9663586001843,632.9663586001843,632.9663586001843,down,0.6765700997784734,1,0,0,99,0.24,0.07999999999999997,down,0.582477199845016,,,,,,,,,,,,,,,,,,,,,,,,,,,,,,,,,,,,,,,,,,,,,,,,,,,,,,,,,,,,JNCVD6,train_y,red_square,top_right,2025-04-24_17h01.59.659,HideSeek_v1,2022.2.5,59.946647440418474,
,6,8,6,5,0,-3,13,,train_dim1_1,7,30,,,,2,0,2,0,,,,,,,,,0,0,0,0,0,6,6,6,3,0,3,0,,,,,,,,,,,,,,,,,,,,,,,,,,,,,,,,,,,,,,,,,,,,,,,,,,,,,,,,,,,,,,,,30,,,,,,,,633.6481460998766,633.6481460998766,633.6481460998766,633.6481460998766,633.6481460998766,down,1.1440142998471856,1,0,0,99,0.24,-2.7755575615628914e-17,down,1.0626053004525602,,,,,,,,,,,,,,,,,,,,,,,,,,,,,,,,,,,,,,,,,,,,,,,,,,,,,,,,,,,,JNCVD6,train_y,red_square,top_right,2025-04-24_17h01.59.659,HideSeek_v1,2022.2.5,59.946647440418474,
,6,8,6,5,0,-3,13,,train_dim1_1,7,30,,,,2,0,2,0,,,,,,,,,0,0,0,0,0,6,6,6,4,0,4,0,,,,,,,,,,,,,,,,,,,,,,,,,,,,,,,,,,,,,,,,,,,,,,,,,,,,,,,,,,,,,,,,30,,,,,,,,634.7982560000382,634.7982560000382,634.7982560000382,634.7982560000382,634.7982560000382,return,0.9436168000102043,1,1,0,0,0.24,-2.7755575615628914e-17,return,0.8638093001209199,-17,-9,0.24,-2.7755575615628914e-17,,,,,,,,,,,,,,,,,,,,,,,,,,,,,,,,,,,,,,,,,,,,,,,,,,,,,,,,JNCVD6,train_y,red_square,top_right,2025-04-24_17h01.59.659,HideSeek_v1,2022.2.5,59.946647440418474,
,9,7,9,2,0,-5,11,,train_dim1_1,8,30,,,,2,0,2,0,,,,,,,,,0,0,0,0,0,7,7,7,0,0,0,0,,,,,,,,,,,,,,,,,,,,,,,,,stimuli/alien_stimuli/11.png,,,,,,,,,,,,,,,,,,,,,,,,,,,,,stimuli/alien_stimuli/13.png,13,6,9,,,,,,,30,,,,,,,,642.2767432997935,642.2767432997935,642.2767432997935,642.2767432997935,642.2767432997935,down,2.9573379000648856,1,1,0,99,0.56,0.08,down,2.8727863002568483,,,,,640.7204686999321,642.2767432997935,0.32,0,0.24,0.0,0.12,0.32,0.32,0.32,0,637.3131818999536,637.3131818999536,637.3131818999536,637.3131818999536,637.3131818999536,637.3131818999536,637.3131818999536,637.3131818999536,637.3005741098896,3.5217035999521613,return,3.3840165003202856,,,,,,,,,,,,,,,,,,,,,,,,,,,,,,,,,JNCVD6,train_y,red_square,top_right,2025-04-24_17h01.59.659,HideSeek_v1,2022.2.5,59.946647440418474,
,9,7,9,2,0,-5,11,,train_dim1_1,8,30,,,,2,0,2,0,,,,,,,,,0,0,0,0,0,7,7,7,1,0,1,0,,,,,,,,,,,,,,,,,,,,,,,,,,,,,,,,,,,,,,,,,,,,,,,,,,,,,,,,,,,,,,,,30,,,,,,,,645.2412602999248,645.2412602999248,645.2412602999248,645.2412602999248,645.2412602999248,left,2.6447049998678267,1,1,0,99,0.48000000000000004,0.08,left,2.5537907001562417,,,,,,,,,,,,,,,,,,,,,,,,,,,,,,,,,,,,,,,,,,,,,,,,,,,,,,,,,,,,JNCVD6,train_y,red_square,top_right,2025-04-24_17h01.59.659,HideSeek_v1,2022.2.5,59.946647440418474,
,9,7,9,2,0,-5,11,,train_dim1_1,8,30,,,,2,0,2,0,,,,,,,,,0,0,0,0,0,7,7,7,2,0,2,0,,,,,,,,,,,,,,,,,,,,,,,,,,,,,,,,,,,,,,,,,,,,,,,,,,,,,,,,,,,,,,,,30,,,,,,,,647.8937071999535,647.8937071999535,647.8937071999535,647.8937071999535,647.8937071999535,up,0.8767073000781238,1,1,0,99,0.48000000000000004,0.16,up,0.7895810999907553,,,,,,,,,,,,,,,,,,,,,,,,,,,,,,,,,,,,,,,,,,,,,,,,,,,,,,,,,,,,JNCVD6,train_y,red_square,top_right,2025-04-24_17h01.59.659,HideSeek_v1,2022.2.5,59.946647440418474,
,9,7,9,2,0,-5,11,,train_dim1_1,8,30,,,,2,0,2,0,,,,,,,,,0,0,0,0,0,7,7,7,3,0,3,0,,,,,,,,,,,,,,,,,,,,,,,,,,,,,,,,,,,,,,,,,,,,,,,,,,,,,,,,,,,,,,,,30,,,,,,,,648.7771344999783,648.7771344999783,648.7771344999783,648.7771344999783,648.7771344999783,left,1.3775638998486102,1,1,0,99,0.4,0.16,left,1.301740299910307,,,,,,,,,,,,,,,,,,,,,,,,,,,,,,,,,,,,,,,,,,,,,,,,,,,,,,,,,,,,JNCVD6,train_y,red_square,top_right,2025-04-24_17h01.59.659,HideSeek_v1,2022.2.5,59.946647440418474,
,9,7,9,2,0,-5,11,,train_dim1_1,8,30,,,,2,0,2,0,,,,,,,,,0,0,0,0,0,7,7,7,4,0,4,0,,,,,,,,,,,,,,,,,,,,,,,,,,,,,,,,,,,,,,,,,,,,,,,,,,,,,,,,,,,,,,,,30,,,,,,,,650.162849499844,650.162849499844,650.162849499844,650.162849499844,650.162849499844,left,0.59275639988482,1,1,0,99,0.32,0.16,left,0.506184599827975,,,,,,,,,,,,,,,,,,,,,,,,,,,,,,,,,,,,,,,,,,,,,,,,,,,,,,,,,,,,JNCVD6,train_y,red_square,top_right,2025-04-24_17h01.59.659,HideSeek_v1,2022.2.5,59.946647440418474,
,9,7,9,2,0,-5,11,,train_dim1_1,8,30,,,,2,0,2,0,,,,,,,,,0,0,0,0,0,7,7,7,5,0,5,0,,,,,,,,,,,,,,,,,,,,,,,,,,,,,,,,,,,,,,,,,,,,,,,,,,,,,,,,,,,,,,,,30,,,,,,,,650.7627225001343,650.7627225001343,650.7627225001343,650.7627225001343,650.7627225001343,left,0.3935175002552569,1,1,0,99,0.24,0.16,left,0.3121225000359118,,,,,,,,,,,,,,,,,,,,,,,,,,,,,,,,,,,,,,,,,,,,,,,,,,,,,,,,,,,,JNCVD6,train_y,red_square,top_right,2025-04-24_17h01.59.659,HideSeek_v1,2022.2.5,59.946647440418474,
,9,7,9,2,0,-5,11,,train_dim1_1,8,30,,,,2,0,2,0,,,,,,,,,0,0,0,0,0,7,7,7,6,0,6,0,,,,,,,,,,,,,,,,,,,,,,,,,,,,,,,,,,,,,,,,,,,,,,,,,,,,,,,,,,,,,,,,30,,,,,,,,651.1633338001557,651.1633338001557,651.1633338001557,651.1633338001557,651.1633338001557,return,0.7767775999382138,1,0,0,0,0.24,0.16,return,0.6903364001773298,-17,-13,0.24,0.16,,,,,,,,,,,,,,,,,,,,,,,,,,,,,,,,,,,,,,,,,,,,,,,,,,,,,,,,JNCVD6,train_y,red_square,top_right,2025-04-24_17h01.59.659,HideSeek_v1,2022.2.5,59.946647440418474,
,9,8,9,7,0,-1,15,,train_dim1_1,9,30,,,,2,0,2,0,,,,,,,,,0,0,0,0,0,8,8,8,0,0,0,0,,,,,,,,,,,,,,,,,,,,,,,,,stimuli/alien_stimuli/15.png,,,,,,,,,,,,,,,,,,,,,,,,,,,,,stimuli/alien_stimuli/11.png,11,9,10,,,,,,,30,,,,,,,,658.2911634999327,658.2911634999327,658.2911634999327,658.2911634999327,658.2911634999327,right,4.892837000079453,1,0,0,99,0.64,0.24,right,4.806839100085199,,,,,656.7331861997955,658.2911634999327,0.56,-0.24,0.4,0.0,-0.039999999999999994,0.56,0.56,0.56,-0.24,653.5128127997741,653.5128127997741,653.5128127997741,653.5128127997741,653.5128127997741,653.5128127997741,653.5128127997741,653.5128127997741,653.5141031402163,3.338572799693793,return,3.201723000500351,,,,,,,,,,,,,,,,,,,,,,,,,,,,,,,,,JNCVD6,train_y,red_square,top_right,2025-04-24_17h01.59.659,HideSeek_v1,2022.2.5,59.946647440418474,
,9,8,9,7,0,-1,15,,train_dim1_1,9,30,,,,2,0,2,0,,,,,,,,,0,0,0,0,0,8,8,8,1,0,1,0,,,,,,,,,,,,,,,,,,,,,,,,,,,,,,,,,,,,,,,,,,,,,,,,,,,,,,,,,,,,,,,,30,,,,,,,,663.1907207998447,663.1907207998447,663.1907207998447,663.1907207998447,663.1907207998447,right,2.1777682998217642,1,0,0,99,0.72,0.24,right,2.0994902001693845,,,,,,,,,,,,,,,,,,,,,,,,,,,,,,,,,,,,,,,,,,,,,,,,,,,,,,,,,,,,JNCVD6,train_y,red_square,top_right,2025-04-24_17h01.59.659,HideSeek_v1,2022.2.5,59.946647440418474,
,9,8,9,7,0,-1,15,,train_dim1_1,9,30,,,,2,0,2,0,,,,,,,,,0,0,0,0,0,8,8,8,2,0,2,0,,,,,,,,,,,,,,,,,,,,,,,,,,,,,,,,,,,,,,,,,,,,,,,,,,,,,,,,,,,,,,,,30,,,,,,,,665.3752020001411,665.3752020001411,665.3752020001411,665.3752020001411,665.3752020001411,right,0.693934999871999,1,0,0,99,0.7999999999999999,0.24,right,0.6070523001253605,,,,,,,,,,,,,,,,,,,,,,,,,,,,,,,,,,,,,,,,,,,,,,,,,,,,,,,,,,,,JNCVD6,train_y,red_square,top_right,2025-04-24_17h01.59.659,HideSeek_v1,2022.2.5,59.946647440418474,
,9,8,9,7,0,-1,15,,train_dim1_1,9,30,,,,2,0,2,0,,,,,,,,,0,0,0,0,0,8,8,8,3,0,3,0,,,,,,,,,,,,,,,,,,,,,,,,,,,,,,,,,,,,,,,,,,,,,,,,,,,,,,,,,,,,,,,,30,,,,,,,,666.0770751000382,666.0770751000382,666.0770751000382,666.0770751000382,666.0770751000382,left,2.4613590999506414,1,0,0,99,0.72,0.24,left,2.3825262002646923,,,,,,,,,,,,,,,,,,,,,,,,,,,,,,,,,,,,,,,,,,,,,,,,,,,,,,,,,,,,JNCVD6,train_y,red_square,top_right,2025-04-24_17h01.59.659,HideSeek_v1,2022.2.5,59.946647440418474,
,9,8,9,7,0,-1,15,,train_dim1_1,9,30,,,,2,0,2,0,,,,,,,,,0,0,0,0,0,8,8,8,4,0,4,0,,,,,,,,,,,,,,,,,,,,,,,,,,,,,,,,,,,,,,,,,,,,,,,,,,,,,,,,,,,,,,,,30,,,,,,,,668.5439971000887,668.5439971000887,668.5439971000887,668.5439971000887,668.5439971000887,left,0.6272494001314044,1,0,0,99,0.64,0.24,left,0.5367771000601351,,,,,,,,,,,,,,,,,,,,,,,,,,,,,,,,,,,,,,,,,,,,,,,,,,,,,,,,,,,,JNCVD6,train_y,red_square,top_right,2025-04-24_17h01.59.659,HideSeek_v1,2022.2.5,59.946647440418474,
,9,8,9,7,0,-1,15,,train_dim1_1,9,30,,,,2,0,2,0,,,,,,,,,0,0,0,0,0,8,8,8,5,0,5,0,,,,,,,,,,,,,,,,,,,,,,,,,,,,,,,,,,,,,,,,,,,,,,,,,,,,,,,,,,,,,,,,30,,,,,,,,669.1819490999915,669.1819490999915,669.1819490999915,669.1819490999915,669.1819490999915,left,0.8428392000496387,1,0,0,99,0.56,0.24,left,0.7609863001853228,,,,,,,,,,,,,,,,,,,,,,,,,,,,,,,,,,,,,,,,,,,,,,,,,,,,,,,,,,,,JNCVD6,train_y,red_square,top_right,2025-04-24_17h01.59.659,HideSeek_v1,2022.2.5,59.946647440418474,
,9,8,9,7,0,-1,15,,train_dim1_1,9,30,,,,2,0,2,0,,,,,,,,,0,0,0,0,0,8,8,8,6,0,6,0,,,,,,,,,,,,,,,,,,,,,,,,,,,,,,,,,,,,,,,,,,,,,,,,,,,,,,,,,,,,,,,,30,,,,,,,,670.0285355998203,670.0285355998203,670.0285355998203,670.0285355998203,670.0285355998203,left,0.810266500338912,1,0,0,99,0.48000000000000004,0.24,left,0.7328733000904322,,,,,,,,,,,,,,,,,,,,,,,,,,,,,,,,,,,,,,,,,,,,,,,,,,,,,,,,,,,,JNCVD6,train_y,red_square,top_right,2025-04-24_17h01.59.659,HideSeek_v1,2022.2.5,59.946647440418474,
,9,8,9,7,0,-1,15,,train_dim1_1,9,30,,,,2,0,2,0,,,,,,,,,0,0,0,0,0,8,8,8,7,0,7,0,,,,,,,,,,,,,,,,,,,,,,,,,,,,,,,,,,,,,,,,,,,,,,,,,,,,,,,,,,,,,,,,30,,,,,,,,670.84578470001,670.84578470001,670.84578470001,670.84578470001,670.84578470001,return,1.7610802999697626,1,0,0,0,0.48000000000000004,0.24,return,1.6776817999780178,-17,-14,0.48000000000000004,0.24,,,,,,,,,,,,,,,,,,,,,,,,,,,,,,,,,,,,,,,,,,,,,,,,,,,,,,,,JNCVD6,train_y,red_square,top_right,2025-04-24_17h01.59.659,HideSeek_v1,2022.2.5,59.946647440418474,
,7,7,7,7,0,0,16,,train_dim1_1,10,30,,,,2,0,2,0,,,,,,,,,0,0,0,0,0,9,9,9,0,0,0,0,,,,,,,,,,,,,,,,,,,,,,,,,stimuli/alien_stimuli/16.png,,,,,,,,,,,,,,,,,,,,,,,,,,,,,stimuli/alien_stimuli/15.png,15,9,11,,,,,,,30,,,,,,,,678.7244949000888,678.7244949000888,678.7244949000888,678.7244949000888,678.7244949000888,right,1.4584631999023259,1,0,0,99,0.48000000000000004,0.16,right,1.3784547997638583,,,,,677.1507008001208,678.7244949000888,0.56,0.16,0.08,0.0,0.2,0.56,0.56,0.56,0.16,674.1817044001073,674.1817044001073,674.1817044001073,674.1817044001073,674.1817044001073,674.1817044001073,674.1817044001073,674.1817044001073,674.1812653401867,3.0881700003519654,return,2.9515070002526045,,,,,,,,,,,,,,,,,,,,,,,,,,,,,,,,,JNCVD6,train_y,red_square,top_right,2025-04-24_17h01.59.659,HideSeek_v1,2022.2.5,59.946647440418474,
,7,7,7,7,0,0,16,,train_dim1_1,10,30,,,,2,0,2,0,,,,,,,,,0,0,0,0,0,9,9,9,1,0,1,0,,,,,,,,,,,,,,,,,,,,,,,,,,,,,,,,,,,,,,,,,,,,,,,,,,,,,,,,,,,,,,,,30,,,,,,,,680.1870361999609,680.1870361999609,680.1870361999609,680.1870361999609,680.1870361999609,left,0.7933147996664047,1,0,0,99,0.4,0.16,left,0.7115704999305308,,,,,,,,,,,,,,,,,,,,,,,,,,,,,,,,,,,,,,,,,,,,,,,,,,,,,,,,,,,,JNCVD6,train_y,red_square,top_right,2025-04-24_17h01.59.659,HideSeek_v1,2022.2.5,59.946647440418474,
,7,7,7,7,0,0,16,,train_dim1_1,10,30,,,,2,0,2,0,,,,,,,,,0,0,0,0,0,9,9,9,2,0,2,0,,,,,,,,,,,,,,,,,,,,,,,,,,,,,,,,,,,,,,,,,,,,,,,,,,,,,,,,,,,,,,,,30,,,,,,,,680.9881982998922,680.9881982998922,680.9881982998922,680.9881982998922,680.9881982998922,return,0.876921399962157,2,0,0,1,0.4,0.16,return,0.7919982001185417,-17,-14,0.4,0.16,,,,,,,,,,,,,,,,,,,,,,,,,,,,,,,,,,,,,,,,,,,,,,,,,,,,,,,,JNCVD6,train_y,red_square,top_right,2025-04-24_17h01.59.659,HideSeek_v1,2022.2.5,59.946647440418474,
,9,6,9,5,0,-1,15,,train_dim1_1,11,30,,,,2,0,2,0,,,,,,,,,0,0,0,0,0,10,10,10,0,0,0,0,,,,,,,,,,,,,,,,,,,,,,,,,stimuli/alien_stimuli/15.png,,,,,,,,,,,,,,,,,,,,,,,,,,,,,stimuli/alien_stimuli/16.png,16,7,12,,,,,,,30,,,,,,,,688.5661526997574,688.5661526997574,688.5661526997574,688.5661526997574,688.5661526997574,right,3.741474200040102,2,0,0,99,0.64,0.08,right,3.653096000198275,,,,,687.0087689999491,688.5661526997574,0.4,0.16,0.0,0.0,0.16,0.4,0.4,0.4,0.16,683.4194152001292,683.4194152001292,683.4194152001292,683.4194152001292,683.4194152001292,683.4194152001292,683.4194152001292,683.4194152001292,683.4057243801653,3.688694800250232,return,3.559965300373733,,,,,,,,,,,,,,,,,,,,,,,,,,,,,,,,,JNCVD6,train_y,red_square,top_right,2025-04-24_17h01.59.659,HideSeek_v1,2022.2.5,59.946647440418474,
,9,6,9,5,0,-1,15,,train_dim1_1,11,30,,,,2,0,2,0,,,,,,,,,0,0,0,0,0,10,10,10,1,0,1,0,,,,,,,,,,,,,,,,,,,,,,,,,,,,,,,,,,,,,,,,,,,,,,,,,,,,,,,,,,,,,,,,30,,,,,,,,692.3149116002023,692.3149116002023,692.3149116002023,692.3149116002023,692.3149116002023,left,0.5094719999469817,2,0,0,99,0.56,0.08,left,0.42495959997177124,,,,,,,,,,,,,,,,,,,,,,,,,,,,,,,,,,,,,,,,,,,,,,,,,,,,,,,,,,,,JNCVD6,train_y,red_square,top_right,2025-04-24_17h01.59.659,HideSeek_v1,2022.2.5,59.946647440418474,
,9,6,9,5,0,-1,15,,train_dim1_1,11,30,,,,2,0,2,0,,,,,,,,,0,0,0,0,0,10,10,10,2,0,2,0,,,,,,,,,,,,,,,,,,,,,,,,,,,,,,,,,,,,,,,,,,,,,,,,,,,,,,,,,,,,,,,,30,,,,,,,,692.8306966000237,692.8306966000237,692.8306966000237,692.8306966000237,692.8306966000237,down,0.7435008999891579,2,0,0,99,0.56,0.0,down,0.6554056000895798,,,,,,,,,,,,,,,,,,,,,,,,,,,,,,,,,,,,,,,,,,,,,,,,,,,,,,,,,,,,JNCVD6,train_y,red_square,top_right,2025-04-24_17h01.59.659,HideSeek_v1,2022.2.5,59.946647440418474,
,9,6,9,5,0,-1,15,,train_dim1_1,11,30,,,,2,0,2,0,,,,,,,,,0,0,0,0,0,10,10,10,3,0,3,0,,,,,,,,,,,,,,,,,,,,,,,,,,,,,,,,,,,,,,,,,,,,,,,,,,,,,,,,,,,,,,,,30,,,,,,,,693.5818239999935,693.5818239999935,693.5818239999935,693.5818239999935,693.5818239999935,down,1.0770187000744045,2,0,0,99,0.56,-0.08,down,0.9968481003306806,,,,,,,,,,,,,,,,,,,,,,,,,,,,,,,,,,,,,,,,,,,,,,,,,,,,,,,,,,,,JNCVD6,train_y,red_square,top_right,2025-04-24_17h01.59.659,HideSeek_v1,2022.2.5,59.946647440418474,
,9,6,9,5,0,-1,15,,train_dim1_1,11,30,,,,2,0,2,0,,,,,,,,,0,0,0,0,0,10,10,10,4,0,4,0,,,,,,,,,,,,,,,,,,,,,,,,,,,,,,,,,,,,,,,,,,,,,,,,,,,,,,,,,,,,,,,,30,,,,,,,,694.6666954997927,694.6666954997927,694.6666954997927,694.6666954997927,694.6666954997927,up,1.2773245996795595,2,0,0,99,0.56,0.0,up,1.1874565999023616,,,,,,,,,,,,,,,,,,,,,,,,,,,,,,,,,,,,,,,,,,,,,,,,,,,,,,,,,,,,JNCVD6,train_y,red_square,top_right,2025-04-24_17h01.59.659,HideSeek_v1,2022.2.5,59.946647440418474,
,9,6,9,5,0,-1,15,,train_dim1_1,11,30,,,,2,0,2,0,,,,,,,,,0,0,0,0,0,10,10,10,5,0,5,0,,,,,,,,,,,,,,,,,,,,,,,,,,,,,,,,,,,,,,,,,,,,,,,,,,,,,,,,,,,,,,,,30,,,,,,,,695.9504378000274,695.9504378000274,695.9504378000274,695.9504378000274,695.9504378000274,down,1.7774951001629233,2,0,0,99,0.56,-0.08,down,1.6975665003992617,,,,,,,,,,,,,,,,,,,,,,,,,,,,,,,,,,,,,,,,,,,,,,,,,,,,,,,,,,,,JNCVD6,train_y,red_square,top_right,2025-04-24_17h01.59.659,HideSeek_v1,2022.2.5,59.946647440418474,
,9,6,9,5,0,-1,15,,train_dim1_1,11,30,,,,2,0,2,0,,,,,,,,,0,0,0,0,0,10,10,10,6,0,6,0,,,,,,,,,,,,,,,,,,,,,,,,,,,,,,,,,,,,,,,,,,,,,,,,,,,,,,,,,,,,,,,,30,,,,,,,,697.7345503000543,697.7345503000543,697.7345503000543,697.7345503000543,697.7345503000543,return,0.3436626000329852,2,1,0,0,0.56,-0.08,return,0.2640358000062406,-19,-14,0.56,-0.08,,,,,,,,,,,,,,,,,,,,,,,,,,,,,,,,,,,,,,,,,,,,,,,,,,,,,,,,JNCVD6,train_y,red_square,top_right,2025-04-24_17h01.59.659,HideSeek_v1,2022.2.5,59.946647440418474,
,5,5,5,0,0,-5,11,,train_dim1_1,12,30,,,,2,0,2,0,,,,,,,,,0,0,0,0,0,11,11,11,0,0,0,0,,,,,,,,,,,,,,,,,,,,,,,,,stimuli/alien_stimuli/11.png,,,,,,,,,,,,,,,,,,,,,,,,,,,,,stimuli/alien_stimuli/15.png,15,9,13,,,,,,,30,,,,,,,,704.0134505000897,704.0134505000897,704.0134505000897,704.0134505000897,704.0134505000897,down,2.9072418003343046,2,1,0,99,0.24,-0.08,down,2.8260290999896824,,,,,702.4547263998538,704.0134505000897,0.56,0,0.08,0.0,0.04,0.56,0.56,0.56,0,699.6536313998513,699.6536313998513,699.6536313998513,699.6536313998513,699.6536313998513,699.6536313998513,699.6536313998513,699.6536313998513,699.6525607402436,2.9210459999740124,return,2.7697760998271406,,,,,,,,,,,,,,,,,,,,,,,,,,,,,,,,,JNCVD6,train_y,red_square,top_right,2025-04-24_17h01.59.659,HideSeek_v1,2022.2.5,59.946647440418474,
,5,5,5,0,0,-5,11,,train_dim1_1,12,30,,,,2,0,2,0,,,,,,,,,0,0,0,0,0,11,11,11,1,0,1,0,,,,,,,,,,,,,,,,,,,,,,,,,,,,,,,,,,,,,,,,,,,,,,,,,,,,,,,,,,,,,,,,30,,,,,,,,706.9262854000553,706.9262854000553,706.9262854000553,706.9262854000553,706.9262854000553,down,0.5427500000223517,2,1,0,99,0.24,-0.16,down,0.45370899979025126,,,,,,,,,,,,,,,,,,,,,,,,,,,,,,,,,,,,,,,,,,,,,,,,,,,,,,,,,,,,JNCVD6,train_y,red_square,top_right,2025-04-24_17h01.59.659,HideSeek_v1,2022.2.5,59.946647440418474,
,5,5,5,0,0,-5,11,,train_dim1_1,12,30,,,,2,0,2,0,,,,,,,,,0,0,0,0,0,11,11,11,2,0,2,0,,,,,,,,,,,,,,,,,,,,,,,,,,,,,,,,,,,,,,,,,,,,,,,,,,,,,,,,,,,,,,,,30,,,,,,,,707.4762531998567,707.4762531998567,707.4762531998567,707.4762531998567,707.4762531998567,down,1.1797250001691282,2,1,0,99,0.24,-0.24,down,1.0888066999614239,,,,,,,,,,,,,,,,,,,,,,,,,,,,,,,,,,,,,,,,,,,,,,,,,,,,,,,,,,,,JNCVD6,train_y,red_square,top_right,2025-04-24_17h01.59.659,HideSeek_v1,2022.2.5,59.946647440418474,
,5,5,5,0,0,-5,11,,train_dim1_1,12,30,,,,2,0,2,0,,,,,,,,,0,0,0,0,0,11,11,11,3,0,3,0,,,,,,,,,,,,,,,,,,,,,,,,,,,,,,,,,,,,,,,,,,,,,,,,,,,,,,,,,,,,,,,,30,,,,,,,,708.6684544999152,708.6684544999152,708.6684544999152,708.6684544999152,708.6684544999152,down,0.8024506000801921,2,1,0,99,0.24,-0.32,down,0.7153687002137303,,,,,,,,,,,,,,,,,,,,,,,,,,,,,,,,,,,,,,,,,,,,,,,,,,,,,,,,,,,,JNCVD6,train_y,red_square,top_right,2025-04-24_17h01.59.659,HideSeek_v1,2022.2.5,59.946647440418474,
,5,5,5,0,0,-5,11,,train_dim1_1,12,30,,,,2,0,2,0,,,,,,,,,0,0,0,0,0,11,11,11,4,0,4,0,,,,,,,,,,,,,,,,,,,,,,,,,,,,,,,,,,,,,,,,,,,,,,,,,,,,,,,,,,,,,,,,30,,,,,,,,709.4776254999451,709.4776254999451,709.4776254999451,709.4776254999451,709.4776254999451,return,1.1939234999008477,2,1,0,0,0.24,-0.32,return,1.1064775004051626,-23,-14,0.24,-0.32,,,,,,,,,,,,,,,,,,,,,,,,,,,,,,,,,,,,,,,,,,,,,,,,,,,,,,,,JNCVD6,train_y,red_square,top_right,2025-04-24_17h01.59.659,HideSeek_v1,2022.2.5,59.946647440418474,
,9,8,9,4,0,-4,12,,train_dim1_1,13,30,,,,2,0,2,0,,,,,,,,,0,0,0,0,0,12,12,12,0,0,0,0,,,,,,,,,,,,,,,,,,,,,,,,,stimuli/alien_stimuli/12.png,,,,,,,,,,,,,,,,,,,,,,,,,,,,,stimuli/alien_stimuli/11.png,11,5,14,,,,,,,30,,,,,,,,716.2300332998857,716.2300332998857,716.2300332998857,716.2300332998857,716.2300332998857,down,4.784270899835974,2,1,0,99,0.56,0.15999999999999998,down,4.69607360009104,,,,,714.6650706999935,716.2300332998857,0.24,-0.4,0.4,0.0,-0.2,0.24,0.24,0.24,-0.4,712.2261244999245,712.2261244999245,712.2261244999245,712.2261244999245,712.2261244999245,712.2261244999245,712.2261244999245,712.2261244999245,712.212823079899,2.537729499861598,return,2.4103799001313746,,,,,,,,,,,,,,,,,,,,,,,,,,,,,,,,,JNCVD6,train_y,red_square,top_right,2025-04-24_17h01.59.659,HideSeek_v1,2022.2.5,59.946647440418474,
,9,8,9,4,0,-4,12,,train_dim1_1,13,30,,,,2,0,2,0,,,,,,,,,0,0,0,0,0,12,12,12,1,0,1,0,,,,,,,,,,,,,,,,,,,,,,,,,,,,,,,,,,,,,,,,,,,,,,,,,,,,,,,,,,,,,,,,30,,,,,,,,721.0219485000707,721.0219485000707,721.0219485000707,721.0219485000707,721.0219485000707,down,0.5600092001259327,2,1,0,99,0.56,0.07999999999999997,down,0.4764934005215764,,,,,,,,,,,,,,,,,,,,,,,,,,,,,,,,,,,,,,,,,,,,,,,,,,,,,,,,,,,,JNCVD6,train_y,red_square,top_right,2025-04-24_17h01.59.659,HideSeek_v1,2022.2.5,59.946647440418474,
,9,8,9,4,0,-4,12,,train_dim1_1,13,30,,,,2,0,2,0,,,,,,,,,0,0,0,0,0,12,12,12,2,0,2,0,,,,,,,,,,,,,,,,,,,,,,,,,,,,,,,,,,,,,,,,,,,,,,,,,,,,,,,,,,,,,,,,30,,,,,,,,721.5882453001104,721.5882453001104,721.5882453001104,721.5882453001104,721.5882453001104,down,0.9936675000935793,2,1,0,99,0.56,-2.7755575615628914e-17,down,0.901685900054872,,,,,,,,,,,,,,,,,,,,,,,,,,,,,,,,,,,,,,,,,,,,,,,,,,,,,,,,,,,,JNCVD6,train_y,red_square,top_right,2025-04-24_17h01.59.659,HideSeek_v1,2022.2.5,59.946647440418474,
,9,8,9,4,0,-4,12,,train_dim1_1,13,30,,,,2,0,2,0,,,,,,,,,0,0,0,0,0,12,12,12,3,0,3,0,,,,,,,,,,,,,,,,,,,,,,,,,,,,,,,,,,,,,,,,,,,,,,,,,,,,,,,,,,,,,,,,30,,,,,,,,722.5894522001036,722.5894522001036,722.5894522001036,722.5894522001036,722.5894522001036,down,0.8936477997340262,2,1,0,99,0.56,-0.08000000000000003,down,0.8087168000638485,,,,,,,,,,,,,,,,,,,,,,,,,,,,,,,,,,,,,,,,,,,,,,,,,,,,,,,,,,,,JNCVD6,train_y,red_square,top_right,2025-04-24_17h01.59.659,HideSeek_v1,2022.2.5,59.946647440418474,
,9,8,9,4,0,-4,12,,train_dim1_1,13,30,,,,2,0,2,0,,,,,,,,,0,0,0,0,0,12,12,12,4,0,4,0,,,,,,,,,,,,,,,,,,,,,,,,,,,,,,,,,,,,,,,,,,,,,,,,,,,,,,,,,,,,,,,,30,,,,,,,,723.4900030000135,723.4900030000135,723.4900030000135,723.4900030000135,723.4900030000135,down,0.9769542999565601,2,1,0,99,0.56,-0.16000000000000003,down,0.8842569002881646,,,,,,,,,,,,,,,,,,,,,,,,,,,,,,,,,,,,,,,,,,,,,,,,,,,,,,,,,,,,JNCVD6,train_y,red_square,top_right,2025-04-24_17h01.59.659,HideSeek_v1,2022.2.5,59.946647440418474,
,9,8,9,4,0,-4,12,,train_dim1_1,13,30,,,,2,0,2,0,,,,,,,,,0,0,0,0,0,12,12,12,5,0,5,0,,,,,,,,,,,,,,,,,,,,,,,,,,,,,,,,,,,,,,,,,,,,,,,,,,,,,,,,,,,,,,,,30,,,,,,,,724.4738404997624,724.4738404997624,724.4738404997624,724.4738404997624,724.4738404997624,up,1.5109881996177137,2,1,0,99,0.56,-0.08000000000000003,up,1.4225678001530468,,,,,,,,,,,,,,,,,,,,,,,,,,,,,,,,,,,,,,,,,,,,,,,,,,,,,,,,,,,,JNCVD6,train_y,red_square,top_right,2025-04-24_17h01.59.659,HideSeek_v1,2022.2.5,59.946647440418474,
,9,8,9,4,0,-4,12,,train_dim1_1,13,30,,,,2,0,2,0,,,,,,,,,0,0,0,0,0,12,12,12,6,0,6,0,,,,,,,,,,,,,,,,,,,,,,,,,,,,,,,,,,,,,,,,,,,,,,,,,,,,,,,,,,,,,,,,30,,,,,,,,725.9924554000609,725.9924554000609,725.9924554000609,725.9924554000609,725.9924554000609,down,1.0268411003053188,2,1,0,99,0.56,-0.16000000000000003,down,0.9409930999390781,,,,,,,,,,,,,,,,,,,,,,,,,,,,,,,,,,,,,,,,,,,,,,,,,,,,,,,,,,,,JNCVD6,train_y,red_square,top_right,2025-04-24_17h01.59.659,HideSeek_v1,2022.2.5,59.946647440418474,
,9,8,9,4,0,-4,12,,train_dim1_1,13,30,,,,2,0,2,0,,,,,,,,,0,0,0,0,0,12,12,12,7,0,7,0,,,,,,,,,,,,,,,,,,,,,,,,,,,,,,,,,,,,,,,,,,,,,,,,,,,,,,,,,,,,,,,,30,,,,,,,,727.0261132000014,727.0261132000014,727.0261132000014,727.0261132000014,727.0261132000014,up,4.730149900075048,2,1,0,99,0.56,-0.08000000000000003,up,4.651272700168192,,,,,,,,,,,,,,,,,,,,,,,,,,,,,,,,,,,,,,,,,,,,,,,,,,,,,,,,,,,,JNCVD6,train_y,red_square,top_right,2025-04-24_17h01.59.659,HideSeek_v1,2022.2.5,59.946647440418474,
,9,8,9,4,0,-4,12,,train_dim1_1,13,30,,,,2,0,2,0,,,,,,,,,0,0,0,0,0,12,12,12,8,0,8,0,,,,,,,,,,,,,,,,,,,,,,,,,,,,,,,,,,,,,,,,,,,,,,,,,,,,,,,,,,,,,,,,30,,,,,,,,731.7635641000234,731.7635641000234,731.7635641000234,731.7635641000234,731.7635641000234,return,0.3937893002294004,3,0,0,1,0.56,-0.08000000000000003,return,0.3042303998954594,-27,-14,0.56,-0.08000000000000003,,,,,,,,,,,,,,,,,,,,,,,,,,,,,,,,,,,,,,,,,,,,,,,,,,,,,,,,JNCVD6,train_y,red_square,top_right,2025-04-24_17h01.59.659,HideSeek_v1,2022.2.5,59.946647440418474,
,7,7,7,7,0,0,16,,train_dim1_1,14,30,,,,2,0,2,0,,,,,,,,,0,0,0,0,0,13,13,13,0,0,0,0,,,,,,,,,,,,,,,,,,,,,,,,,stimuli/alien_stimuli/16.png,,,,,,,,,,,,,,,,,,,,,,,,,,,,,stimuli/alien_stimuli/12.png,12,9,15,,,,,,,30,,,,,,,,737.9740098998882,737.9740098998882,737.9740098998882,737.9740098998882,737.9740098998882,left,7.41169620025903,3,0,0,99,0.32,0.16,left,7.319697100203484,,,,,736.416433500126,737.9740098998882,0.56,-0.08,0.32,0.0,0.07999999999999999,0.56,0.56,0.56,-0.08,733.7287953998893,733.7287953998893,733.7287953998893,733.7287953998893,733.7287953998893,733.7287953998893,733.7287953998893,733.7287953998893,733.7308470401913,2.804523800034076,return,2.6701243999414146,,,,,,,,,,,,,,,,,,,,,,,,,,,,,,,,,JNCVD6,train_y,red_square,top_right,2025-04-24_17h01.59.659,HideSeek_v1,2022.2.5,59.946647440418474,
,7,7,7,7,0,0,16,,train_dim1_1,14,30,,,,2,0,2,0,,,,,,,,,0,0,0,0,0,13,13,13,1,0,1,0,,,,,,,,,,,,,,,,,,,,,,,,,,,,,,,,,,,,,,,,,,,,,,,,,,,,,,,,,,,,,,,,30,,,,,,,,745.4061624999158,745.4061624999158,745.4061624999158,745.4061624999158,745.4061624999158,left,2.344630599953234,3,0,0,99,0.24,0.16,left,2.2421230003237724,,,,,,,,,,,,,,,,,,,,,,,,,,,,,,,,,,,,,,,,,,,,,,,,,,,,,,,,,,,,JNCVD6,train_y,red_square,top_right,2025-04-24_17h01.59.659,HideSeek_v1,2022.2.5,59.946647440418474,
,7,7,7,7,0,0,16,,train_dim1_1,14,30,,,,2,0,2,0,,,,,,,,,0,0,0,0,0,13,13,13,2,0,2,0,,,,,,,,,,,,,,,,,,,,,,,,,,,,,,,,,,,,,,,,,,,,,,,,,,,,,,,,,,,,,,,,30,,,,,,,,747.7435527998023,747.7435527998023,747.7435527998023,747.7435527998023,747.7435527998023,right,1.561029199976474,3,0,0,99,0.32,0.16,right,1.4686680003069341,,,,,,,,,,,,,,,,,,,,,,,,,,,,,,,,,,,,,,,,,,,,,,,,,,,,,,,,,,,,JNCVD6,train_y,red_square,top_right,2025-04-24_17h01.59.659,HideSeek_v1,2022.2.5,59.946647440418474,
,7,7,7,7,0,0,16,,train_dim1_1,14,30,,,,2,0,2,0,,,,,,,,,0,0,0,0,0,13,13,13,3,0,3,0,,,,,,,,,,,,,,,,,,,,,,,,,,,,,,,,,,,,,,,,,,,,,,,,,,,,,,,,,,,,,,,,30,,,,,,,,749.3103073998354,749.3103073998354,749.3103073998354,749.3103073998354,749.3103073998354,left,1.1277036997489631,3,0,0,99,0.24,0.16,left,1.051140499766916,,,,,,,,,,,,,,,,,,,,,,,,,,,,,,,,,,,,,,,,,,,,,,,,,,,,,,,,,,,,JNCVD6,train_y,red_square,top_right,2025-04-24_17h01.59.659,HideSeek_v1,2022.2.5,59.946647440418474,
,7,7,7,7,0,0,16,,train_dim1_1,14,30,,,,2,0,2,0,,,,,,,,,0,0,0,0,0,13,13,13,4,0,4,0,,,,,,,,,,,,,,,,,,,,,,,,,,,,,,,,,,,,,,,,,,,,,,,,,,,,,,,,,,,,,,,,30,,,,,,,,750.4447022997774,750.4447022997774,750.4447022997774,750.4447022997774,750.4447022997774,return,0.4265283001586795,3,0,0,0,0.24,0.16,return,0.33874480007216334,-27,-16,0.24,0.16,,,,,,,,,,,,,,,,,,,,,,,,,,,,,,,,,,,,,,,,,,,,,,,,,,,,,,,,JNCVD6,train_y,red_square,top_right,2025-04-24_17h01.59.659,HideSeek_v1,2022.2.5,59.946647440418474,
,6,9,6,6,0,-3,13,,train_dim1_1,15,30,,,,2,0,2,0,,,,,,,,,0,0,0,0,0,14,14,14,0,0,0,0,,,,,,,,,,,,,,,,,,,,,,,,,stimuli/alien_stimuli/13.png,,,,,,,,,,,,,,,,,,,,,,,,,,,,,stimuli/alien_stimuli/16.png,16,7,16,,,,,,,30,,,,,,,,760.1255494998768,760.1255494998768,760.1255494998768,760.1255494998768,760.1255494998768,right,2.306326000019908,3,0,0,99,0.4,0.32,right,2.22208010032773,,,,,758.5681125000119,760.1255494998768,0.4,0.16,0.0,0.0,0.16,0.4,0.4,0.4,0.16,752.4439671998844,752.4439671998844,752.4439671998844,752.4439671998844,752.4439671998844,752.4439671998844,752.4439671998844,752.4439671998844,752.4298055102117,6.240875099785626,return,6.0926578999497,,,,,,,,,,,,,,,,,,,,,,,,,,,,,,,,,JNCVD6,train_y,red_square,top_right,2025-04-24_17h01.59.659,HideSeek_v1,2022.2.5,59.946647440418474,
,6,9,6,6,0,-3,13,,train_dim1_1,15,30,,,,2,0,2,0,,,,,,,,,0,0,0,0,0,14,14,14,1,0,1,0,,,,,,,,,,,,,,,,,,,,,,,,,,,,,,,,,,,,,,,,,,,,,,,,,,,,,,,,,,,,,,,,30,,,,,,,,762.4389202999882,762.4389202999882,762.4389202999882,762.4389202999882,762.4389202999882,left,1.8772440003231168,3,0,0,99,0.32,0.32,left,1.8009632001630962,,,,,,,,,,,,,,,,,,,,,,,,,,,,,,,,,,,,,,,,,,,,,,,,,,,,,,,,,,,,JNCVD6,train_y,red_square,top_right,2025-04-24_17h01.59.659,HideSeek_v1,2022.2.5,59.946647440418474,
,6,9,6,6,0,-3,13,,train_dim1_1,15,30,,,,2,0,2,0,,,,,,,,,0,0,0,0,0,14,14,14,2,0,2,0,,,,,,,,,,,,,,,,,,,,,,,,,,,,,,,,,,,,,,,,,,,,,,,,,,,,,,,,,,,,,,,,30,,,,,,,,764.3230455000885,764.3230455000885,764.3230455000885,764.3230455000885,764.3230455000885,return,0.5931056998670101,3,0,0,0,0.32,0.32,return,0.5035940003581345,-27,-16,0.32,0.32,,,,,,,,,,,,,,,,,,,,,,,,,,,,,,,,,,,,,,,,,,,,,,,,,,,,,,,,JNCVD6,train_y,red_square,top_right,2025-04-24_17h01.59.659,HideSeek_v1,2022.2.5,59.946647440418474,
,9,5,9,4,0,-1,15,,train_dim1_1,16,30,,,,2,0,2,0,,,,,,,,,0,0,0,0,0,15,15,15,0,0,0,0,,,,,,,,,,,,,,,,,,,,,,,,,stimuli/alien_stimuli/15.png,,,,,,,,,,,,,,,,,,,,,,,,,,,,,stimuli/alien_stimuli/13.png,13,6,17,,,,,,,30,,,,,,,,774.7539963000454,774.7539963000454,774.7539963000454,774.7539963000454,774.7539963000454,right,1.7239029998891056,3,0,0,99,0.64,0,right,1.6355944997631013,,,,,773.1968522998504,774.7539963000454,0.32,0.08,0.24,0.0,0.2,0.32,0.32,0.32,0.08,766.4874264001846,766.4874264001846,766.4874264001846,766.4874264001846,766.4874264001846,766.4874264001846,766.4874264001846,766.4874264001846,766.4748317101039,6.8245009002275765,return,6.684333100449294,,,,,,,,,,,,,,,,,,,,,,,,,,,,,,,,,JNCVD6,train_y,red_square,top_right,2025-04-24_17h01.59.659,HideSeek_v1,2022.2.5,59.946647440418474,
,9,5,9,4,0,-1,15,,train_dim1_1,16,30,,,,2,0,2,0,,,,,,,,,0,0,0,0,0,15,15,15,1,0,1,0,,,,,,,,,,,,,,,,,,,,,,,,,,,,,,,,,,,,,,,,,,,,,,,,,,,,,,,,,,,,,,,,30,,,,,,,,776.484376099892,776.484376099892,776.484376099892,776.484376099892,776.484376099892,left,0.7097716997377574,3,0,0,99,0.56,0,left,0.6204758998937905,,,,,,,,,,,,,,,,,,,,,,,,,,,,,,,,,,,,,,,,,,,,,,,,,,,,,,,,,,,,JNCVD6,train_y,red_square,top_right,2025-04-24_17h01.59.659,HideSeek_v1,2022.2.5,59.946647440418474,
,9,5,9,4,0,-1,15,,train_dim1_1,16,30,,,,2,0,2,0,,,,,,,,,0,0,0,0,0,15,15,15,2,0,2,0,,,,,,,,,,,,,,,,,,,,,,,,,,,,,,,,,,,,,,,,,,,,,,,,,,,,,,,,,,,,,,,,30,,,,,,,,777.2005500998348,777.2005500998348,777.2005500998348,777.2005500998348,777.2005500998348,down,2.4951503998599946,3,0,0,99,0.56,-0.08,down,2.414062900003046,,,,,,,,,,,,,,,,,,,,,,,,,,,,,,,,,,,,,,,,,,,,,,,,,,,,,,,,,,,,JNCVD6,train_y,red_square,top_right,2025-04-24_17h01.59.659,HideSeek_v1,2022.2.5,59.946647440418474,
,9,5,9,4,0,-1,15,,train_dim1_1,16,30,,,,2,0,2,0,,,,,,,,,0,0,0,0,0,15,15,15,3,0,3,0,,,,,,,,,,,,,,,,,,,,,,,,,,,,,,,,,,,,,,,,,,,,,,,,,,,,,,,,,,,,,,,,30,,,,,,,,779.702921600081,779.702921600081,779.702921600081,779.702921600081,779.702921600081,return,2.561934500001371,4,0,0,1,0.56,-0.08,return,2.4737649001181126,-28,-16,0.56,-0.08,,,,,,,,,,,,,,,,,,,,,,,,,,,,,,,,,,,,,,,,,,,,,,,,,,,,,,,,JNCVD6,train_y,red_square,top_right,2025-04-24_17h01.59.659,HideSeek_v1,2022.2.5,59.946647440418474,
,8,8,8,5,0,-3,13,,train_dim1_1,17,30,,,,2,0,2,0,,,,,,,,,0,0,0,0,0,16,16,16,0,0,0,0,,,,,,,,,,,,,,,,,,,,,,,,,stimuli/alien_stimuli/13.png,,,,,,,,,,,,,,,,,,,,,,,,,,,,,stimuli/alien_stimuli/15.png,15,9,18,,,,,,,30,,,,,,,,788.4320657001808,788.4320657001808,788.4320657001808,788.4320657001808,788.4320657001808,down,3.3570872000418603,4,0,0,99,0.48,0.15999999999999998,down,3.2789154001511633,,,,,786.8749449001625,788.4320657001808,0.56,-0.08,0.08,0.0,-0.04,0.56,0.56,0.56,-0.08,783.8329063998535,783.8329063998535,783.8329063998535,783.8329063998535,783.8329063998535,783.8329063998535,783.8329063998535,783.8329063998535,783.8226421098225,3.1548821004107594,return,3.0202807998284698,,,,,,,,,,,,,,,,,,,,,,,,,,,,,,,,,JNCVD6,train_y,red_square,top_right,2025-04-24_17h01.59.659,HideSeek_v1,2022.2.5,59.946647440418474,
,8,8,8,5,0,-3,13,,train_dim1_1,17,30,,,,2,0,2,0,,,,,,,,,0,0,0,0,0,16,16,16,1,0,1,0,,,,,,,,,,,,,,,,,,,,,,,,,,,,,,,,,,,,,,,,,,,,,,,,,,,,,,,,,,,,,,,,30,,,,,,,,791.7957708002068,791.7957708002068,791.7957708002068,791.7957708002068,791.7957708002068,down,1.1935664997436106,4,0,0,99,0.48,0.07999999999999997,down,1.104008300229907,,,,,,,,,,,,,,,,,,,,,,,,,,,,,,,,,,,,,,,,,,,,,,,,,,,,,,,,,,,,JNCVD6,train_y,red_square,top_right,2025-04-24_17h01.59.659,HideSeek_v1,2022.2.5,59.946647440418474,
,8,8,8,5,0,-3,13,,train_dim1_1,17,30,,,,2,0,2,0,,,,,,,,,0,0,0,0,0,16,16,16,2,0,2,0,,,,,,,,,,,,,,,,,,,,,,,,,,,,,,,,,,,,,,,,,,,,,,,,,,,,,,,,,,,,,,,,30,,,,,,,,792.9966997997835,792.9966997997835,792.9966997997835,792.9966997997835,792.9966997997835,down,1.1106185000389814,4,0,0,99,0.48,-2.7755575615628914e-17,down,1.0353167001158,,,,,,,,,,,,,,,,,,,,,,,,,,,,,,,,,,,,,,,,,,,,,,,,,,,,,,,,,,,,JNCVD6,train_y,red_square,top_right,2025-04-24_17h01.59.659,HideSeek_v1,2022.2.5,59.946647440418474,
,8,8,8,5,0,-3,13,,train_dim1_1,17,30,,,,2,0,2,0,,,,,,,,,0,0,0,0,0,16,16,16,3,0,3,0,,,,,,,,,,,,,,,,,,,,,,,,,,,,,,,,,,,,,,,,,,,,,,,,,,,,,,,,,,,,,,,,30,,,,,,,,794.1171225998551,794.1171225998551,794.1171225998551,794.1171225998551,794.1171225998551,down,0.7264753999188542,4,0,0,99,0.48,-0.08000000000000003,down,0.6461153002455831,,,,,,,,,,,,,,,,,,,,,,,,,,,,,,,,,,,,,,,,,,,,,,,,,,,,,,,,,,,,JNCVD6,train_y,red_square,top_right,2025-04-24_17h01.59.659,HideSeek_v1,2022.2.5,59.946647440418474,
,8,8,8,5,0,-3,13,,train_dim1_1,17,30,,,,2,0,2,0,,,,,,,,,0,0,0,0,0,16,16,16,4,0,4,0,,,,,,,,,,,,,,,,,,,,,,,,,,,,,,,,,,,,,,,,,,,,,,,,,,,,,,,,,,,,,,,,30,,,,,,,,794.8478863001801,794.8478863001801,794.8478863001801,794.8478863001801,794.8478863001801,down,1.5109484000131488,4,0,0,99,0.48,-0.16000000000000003,down,1.4235541000962257,,,,,,,,,,,,,,,,,,,,,,,,,,,,,,,,,,,,,,,,,,,,,,,,,,,,,,,,,,,,JNCVD6,train_y,red_square,top_right,2025-04-24_17h01.59.659,HideSeek_v1,2022.2.5,59.946647440418474,
,8,8,8,5,0,-3,13,,train_dim1_1,17,30,,,,2,0,2,0,,,,,,,,,0,0,0,0,0,16,16,16,5,0,5,0,,,,,,,,,,,,,,,,,,,,,,,,,,,,,,,,,,,,,,,,,,,,,,,,,,,,,,,,,,,,,,,,30,,,,,,,,796.3658289997838,796.3658289997838,796.3658289997838,796.3658289997838,796.3658289997838,return,1.3774679000489414,4,0,0,0,0.48,-0.16000000000000003,return,1.2883660001680255,-33,-16,0.48,-0.16000000000000003,,,,,,,,,,,,,,,,,,,,,,,,,,,,,,,,,,,,,,,,,,,,,,,,,,,,,,,,JNCVD6,train_y,red_square,top_right,2025-04-24_17h01.59.659,HideSeek_v1,2022.2.5,59.946647440418474,
,7,6,7,1,0,-5,11,,train_dim1_1,18,30,,,,2,0,2,0,,,,,,,,,0,0,0,0,0,17,17,17,0,0,0,0,,,,,,,,,,,,,,,,,,,,,,,,,stimuli/alien_stimuli/11.png,,,,,,,,,,,,,,,,,,,,,,,,,,,,,stimuli/alien_stimuli/13.png,13,8,19,,,,,,,30,,,,,,,,803.961026399862,803.961026399862,803.961026399862,803.961026399862,803.961026399862,down,5.644130100030452,4,0,0,99,0.4,0.0,down,5.562675400171429,,,,,802.4046740997583,803.961026399862,0.48,0,0.24,0.0,0.12,0.48,0.48,0.48,0,799.3169081998058,799.3169081998058,799.3169081998058,799.3169081998058,799.3169081998058,799.3169081998058,799.3169081998058,799.3169081998058,799.3185297399759,3.2054606997407973,return,3.0615489999763668,,,,,,,,,,,,,,,,,,,,,,,,,,,,,,,,,JNCVD6,train_y,red_square,top_right,2025-04-24_17h01.59.659,HideSeek_v1,2022.2.5,59.946647440418474,
,7,6,7,1,0,-5,11,,train_dim1_1,18,30,,,,2,0,2,0,,,,,,,,,0,0,0,0,0,17,17,17,1,0,1,0,,,,,,,,,,,,,,,,,,,,,,,,,,,,,,,,,,,,,,,,,,,,,,,,,,,,,,,,,,,,,,,,30,,,,,,,,809.612876500003,809.612876500003,809.612876500003,809.612876500003,809.612876500003,down,0.40928389970213175,4,0,0,99,0.4,-0.08,down,0.327205500099808,,,,,,,,,,,,,,,,,,,,,,,,,,,,,,,,,,,,,,,,,,,,,,,,,,,,,,,,,,,,JNCVD6,train_y,red_square,top_right,2025-04-24_17h01.59.659,HideSeek_v1,2022.2.5,59.946647440418474,
,7,6,7,1,0,-5,11,,train_dim1_1,18,30,,,,2,0,2,0,,,,,,,,,0,0,0,0,0,17,17,17,2,0,2,0,,,,,,,,,,,,,,,,,,,,,,,,,,,,,,,,,,,,,,,,,,,,,,,,,,,,,,,,,,,,,,,,30,,,,,,,,810.0285720000975,810.0285720000975,810.0285720000975,810.0285720000975,810.0285720000975,down,0.35943720024079084,4,0,0,99,0.4,-0.16,down,0.2809590003453195,,,,,,,,,,,,,,,,,,,,,,,,,,,,,,,,,,,,,,,,,,,,,,,,,,,,,,,,,,,,JNCVD6,train_y,red_square,top_right,2025-04-24_17h01.59.659,HideSeek_v1,2022.2.5,59.946647440418474,
,7,6,7,1,0,-5,11,,train_dim1_1,18,30,,,,2,0,2,0,,,,,,,,,0,0,0,0,0,17,17,17,3,0,3,0,,,,,,,,,,,,,,,,,,,,,,,,,,,,,,,,,,,,,,,,,,,,,,,,,,,,,,,,,,,,,,,,30,,,,,,,,810.3955406998284,810.3955406998284,810.3955406998284,810.3955406998284,810.3955406998284,down,1.3438394996337593,4,0,0,99,0.4,-0.24,down,1.2621256997808814,,,,,,,,,,,,,,,,,,,,,,,,,,,,,,,,,,,,,,,,,,,,,,,,,,,,,,,,,,,,JNCVD6,train_y,red_square,top_right,2025-04-24_17h01.59.659,HideSeek_v1,2022.2.5,59.946647440418474,
,7,6,7,1,0,-5,11,,train_dim1_1,18,30,,,,2,0,2,0,,,,,,,,,0,0,0,0,0,17,17,17,4,0,4,0,,,,,,,,,,,,,,,,,,,,,,,,,,,,,,,,,,,,,,,,,,,,,,,,,,,,,,,,,,,,,,,,30,,,,,,,,811.746318699792,811.746318699792,811.746318699792,811.746318699792,811.746318699792,return,1.110565199982375,4,1,0,0,0.4,-0.24,return,1.0219343001954257,-37,-16,0.4,-0.24,,,,,,,,,,,,,,,,,,,,,,,,,,,,,,,,,,,,,,,,,,,,,,,,,,,,,,,,JNCVD6,train_y,red_square,top_right,2025-04-24_17h01.59.659,HideSeek_v1,2022.2.5,59.946647440418474,
,5,9,5,5,0,-4,12,,train_dim1_1,19,30,,,,2,0,2,0,,,,,,,,,0,0,0,0,0,18,18,18,0,0,0,0,,,,,,,,,,,,,,,,,,,,,,,,,stimuli/alien_stimuli/12.png,,,,,,,,,,,,,,,,,,,,,,,,,,,,,stimuli/alien_stimuli/11.png,11,7,20,,,,,,,30,,,,,,,,818.288963300176,818.288963300176,818.288963300176,818.288963300176,818.288963300176,down,4.542573399841785,4,1,0,99,0.24,0.24,down,4.462129400111735,,,,,816.7329063997604,818.288963300176,0.4,-0.32,0.4,0.0,-0.12,0.4,0.4,0.4,-0.32,814.4277661000378,814.4277661000378,814.4277661000378,814.4277661000378,814.4277661000378,814.4277661000378,814.4277661000378,814.4277661000378,814.4142254102044,2.4209559001028538,return,2.2800202001817524,,,,,,,,,,,,,,,,,,,,,,,,,,,,,,,,,JNCVD6,train_y,red_square,top_right,2025-04-24_17h01.59.659,HideSeek_v1,2022.2.5,59.946647440418474,
,5,9,5,5,0,-4,12,,train_dim1_1,19,30,,,,2,0,2,0,,,,,,,,,0,0,0,0,0,18,18,18,1,0,1,0,,,,,,,,,,,,,,,,,,,,,,,,,,,,,,,,,,,,,,,,,,,,,,,,,,,,,,,,,,,,,,,,30,,,,,,,,822.8399505000561,822.8399505000561,822.8399505000561,822.8399505000561,822.8399505000561,down,0.6431498997844756,4,1,0,99,0.24,0.15999999999999998,down,0.5654389001429081,,,,,,,,,,,,,,,,,,,,,,,,,,,,,,,,,,,,,,,,,,,,,,,,,,,,,,,,,,,,JNCVD6,train_y,red_square,top_right,2025-04-24_17h01.59.659,HideSeek_v1,2022.2.5,59.946647440418474,
,5,9,5,5,0,-4,12,,train_dim1_1,19,30,,,,2,0,2,0,,,,,,,,,0,0,0,0,0,18,18,18,2,0,2,0,,,,,,,,,,,,,,,,,,,,,,,,,,,,,,,,,,,,,,,,,,,,,,,,,,,,,,,,,,,,,,,,30,,,,,,,,823.4899312001653,823.4899312001653,823.4899312001653,823.4899312001653,823.4899312001653,down,1.2604988999664783,4,1,0,99,0.24,0.07999999999999997,down,1.1676289001479745,,,,,,,,,,,,,,,,,,,,,,,,,,,,,,,,,,,,,,,,,,,,,,,,,,,,,,,,,,,,JNCVD6,train_y,red_square,top_right,2025-04-24_17h01.59.659,HideSeek_v1,2022.2.5,59.946647440418474,
,5,9,5,5,0,-4,12,,train_dim1_1,19,30,,,,2,0,2,0,,,,,,,,,0,0,0,0,0,18,18,18,3,0,3,0,,,,,,,,,,,,,,,,,,,,,,,,,,,,,,,,,,,,,,,,,,,,,,,,,,,,,,,,,,,,,,,,30,,,,,,,,824.7575472998433,824.7575472998433,824.7575472998433,824.7575472998433,824.7575472998433,down,0.8266404001042247,4,1,0,99,0.24,-2.7755575615628914e-17,down,0.7348937001079321,,,,,,,,,,,,,,,,,,,,,,,,,,,,,,,,,,,,,,,,,,,,,,,,,,,,,,,,,,,,JNCVD6,train_y,red_square,top_right,2025-04-24_17h01.59.659,HideSeek_v1,2022.2.5,59.946647440418474,
,5,9,5,5,0,-4,12,,train_dim1_1,19,30,,,,2,0,2,0,,,,,,,,,0,0,0,0,0,18,18,18,4,0,4,0,,,,,,,,,,,,,,,,,,,,,,,,,,,,,,,,,,,,,,,,,,,,,,,,,,,,,,,,,,,,,,,,30,,,,,,,,825.5905133001506,825.5905133001506,825.5905133001506,825.5905133001506,825.5905133001506,down,1.4111488000489771,4,1,0,99,0.24,-0.08000000000000003,down,1.3268925002776086,,,,,,,,,,,,,,,,,,,,,,,,,,,,,,,,,,,,,,,,,,,,,,,,,,,,,,,,,,,,JNCVD6,train_y,red_square,top_right,2025-04-24_17h01.59.659,HideSeek_v1,2022.2.5,59.946647440418474,
,5,9,5,5,0,-4,12,,train_dim1_1,19,30,,,,2,0,2,0,,,,,,,,,0,0,0,0,0,18,18,18,5,0,5,0,,,,,,,,,,,,,,,,,,,,,,,,,,,,,,,,,,,,,,,,,,,,,,,,,,,,,,,,,,,,,,,,30,,,,,,,,827.0093131000176,827.0093131000176,827.0093131000176,827.0093131000176,827.0093131000176,return,2.1446581999771297,4,1,0,0,0.24,-0.08000000000000003,return,2.06291180010885,-42,-16,0.24,-0.08000000000000003,,,,,,,,,,,,,,,,,,,,,,,,,,,,,,,,,,,,,,,,,,,,,,,,,,,,,,,,JNCVD6,train_y,red_square,top_right,2025-04-24_17h01.59.659,HideSeek_v1,2022.2.5,59.946647440418474,
,7,5,7,5,0,0,16,,train_dim1_1,20,30,,,,2,0,2,0,,,,,,,,,0,0,0,0,0,19,19,19,0,0,0,0,,,,,,,,,,,,,,,,,,,,,,,,,stimuli/alien_stimuli/16.png,,,,,,,,,,,,,,,,,,,,,,,,,,,,,stimuli/alien_stimuli/12.png,12,5,21,,,,,,,30,,,,,,,,835.1718733999878,835.1718733999878,835.1718733999878,835.1718733999878,835.1718733999878,left,3.906937399879098,4,1,0,99,0.32,0,left,3.824983900412917,,,,,833.6135082999244,835.1718733999878,0.24,0,0.32,0.0,0.16,0.24,0.24,0.24,0,830.7266025999561,830.7266025999561,830.7266025999561,830.7266025999561,830.7266025999561,830.7266025999561,830.7266025999561,830.7266025999561,830.7278765398078,3.0045925001613796,return,2.8559226002544165,,,,,,,,,,,,,,,,,,,,,,,,,,,,,,,,,JNCVD6,train_y,red_square,top_right,2025-04-24_17h01.59.659,HideSeek_v1,2022.2.5,59.946647440418474,
,7,5,7,5,0,0,16,,train_dim1_1,20,30,,,,2,0,2,0,,,,,,,,,0,0,0,0,0,19,19,19,1,0,1,0,,,,,,,,,,,,,,,,,,,,,,,,,,,,,,,,,,,,,,,,,,,,,,,,,,,,,,,,,,,,,,,,30,,,,,,,,839.0864256997593,839.0864256997593,839.0864256997593,839.0864256997593,839.0864256997593,down,1.3601037999615073,4,1,0,99,0.32,-0.08,down,1.2749141999520361,,,,,,,,,,,,,,,,,,,,,,,,,,,,,,,,,,,,,,,,,,,,,,,,,,,,,,,,,,,,JNCVD6,train_y,red_square,top_right,2025-04-24_17h01.59.659,HideSeek_v1,2022.2.5,59.946647440418474,
,7,5,7,5,0,0,16,,train_dim1_1,20,30,,,,2,0,2,0,,,,,,,,,0,0,0,0,0,19,19,19,2,0,2,0,,,,,,,,,,,,,,,,,,,,,,,,,,,,,,,,,,,,,,,,,,,,,,,,,,,,,,,,,,,,,,,,30,,,,,,,,840.4560262002051,840.4560262002051,840.4560262002051,840.4560262002051,840.4560262002051,right,1.2417713003233075,4,1,0,99,0.4,-0.08,right,1.1597869000397623,,,,,,,,,,,,,,,,,,,,,,,,,,,,,,,,,,,,,,,,,,,,,,,,,,,,,,,,,,,,JNCVD6,train_y,red_square,top_right,2025-04-24_17h01.59.659,HideSeek_v1,2022.2.5,59.946647440418474,
,7,5,7,5,0,0,16,,train_dim1_1,20,30,,,,2,0,2,0,,,,,,,,,0,0,0,0,0,19,19,19,3,0,3,0,,,,,,,,,,,,,,,,,,,,,,,,,,,,,,,,,,,,,,,,,,,,,,,,,,,,,,,,,,,,,,,,30,,,,,,,,841.7051328998059,841.7051328998059,841.7051328998059,841.7051328998059,841.7051328998059,up,2.528407999780029,4,1,0,99,0.4,0.0,up,2.442178300116211,,,,,,,,,,,,,,,,,,,,,,,,,,,,,,,,,,,,,,,,,,,,,,,,,,,,,,,,,,,,JNCVD6,train_y,red_square,top_right,2025-04-24_17h01.59.659,HideSeek_v1,2022.2.5,59.946647440418474,
,7,5,7,5,0,0,16,,train_dim1_1,20,30,,,,2,0,2,0,,,,,,,,,0,0,0,0,0,19,19,19,4,0,4,0,,,,,,,,,,,,,,,,,,,,,,,,,,,,,,,,,,,,,,,,,,,,,,,,,,,,,,,,,,,,,,,,30,,,,,,,,844.2399931000546,844.2399931000546,844.2399931000546,844.2399931000546,844.2399931000546,return,0.5096550998277962,5,0,0,1,0.4,0.0,return,0.41851310012862086,-42,-16,0.4,0.0,,,,,,,,,,,,,,,,,,,,,,,,,,,,,,,,,,,,,,,,,,,,,,,,,,,,,,,,JNCVD6,train_y,red_square,top_right,2025-04-24_17h01.59.659,HideSeek_v1,2022.2.5,59.946647440418474,
,7,9,7,8,0,-1,15,,train_dim1_1,21,30,,,,2,0,2,0,,,,,,,,,0,0,0,0,0,20,20,20,0,0,0,0,,,,,,,,,,,,,,,,,,,,,,,,,stimuli/alien_stimuli/15.png,,,,,,,,,,,,,,,,,,,,,,,,,,,,,stimuli/alien_stimuli/16.png,16,7,22,,,,,,,30,,,,,,,,850.884517500177,850.884517500177,850.884517500177,850.884517500177,850.884517500177,down,2.023368099704385,5,0,0,99,0.4,0.24,down,1.9336712998338044,,,,,849.3270336999558,850.884517500177,0.4,0,0.0,0.0,0.0,0.4,0.4,0.4,0,846.3268893999048,846.3268893999048,846.3268893999048,846.3268893999048,846.3268893999048,846.3268893999048,846.3268893999048,846.3268893999048,846.3244219399057,3.121242200024426,return,2.9722140999510884,,,,,,,,,,,,,,,,,,,,,,,,,,,,,,,,,JNCVD6,train_y,red_square,top_right,2025-04-24_17h01.59.659,HideSeek_v1,2022.2.5,59.946647440418474,
,7,9,7,8,0,-1,15,,train_dim1_1,21,30,,,,2,0,2,0,,,,,,,,,0,0,0,0,0,20,20,20,1,0,1,0,,,,,,,,,,,,,,,,,,,,,,,,,,,,,,,,,,,,,,,,,,,,,,,,,,,,,,,,,,,,,,,,30,,,,,,,,852.9147147000767,852.9147147000767,852.9147147000767,852.9147147000767,852.9147147000767,left,1.9610073999501765,5,0,0,99,0.32,0.24,left,1.8687467002309859,,,,,,,,,,,,,,,,,,,,,,,,,,,,,,,,,,,,,,,,,,,,,,,,,,,,,,,,,,,,JNCVD6,train_y,red_square,top_right,2025-04-24_17h01.59.659,HideSeek_v1,2022.2.5,59.946647440418474,
,7,9,7,8,0,-1,15,,train_dim1_1,21,30,,,,2,0,2,0,,,,,,,,,0,0,0,0,0,20,20,20,2,0,2,0,,,,,,,,,,,,,,,,,,,,,,,,,,,,,,,,,,,,,,,,,,,,,,,,,,,,,,,,,,,,,,,,30,,,,,,,,854.883192599751,854.883192599751,854.883192599751,854.883192599751,854.883192599751,up,1.1773541998118162,5,0,0,99,0.32,0.32,up,1.0850317003205419,,,,,,,,,,,,,,,,,,,,,,,,,,,,,,,,,,,,,,,,,,,,,,,,,,,,,,,,,,,,JNCVD6,train_y,red_square,top_right,2025-04-24_17h01.59.659,HideSeek_v1,2022.2.5,59.946647440418474,
,7,9,7,8,0,-1,15,,train_dim1_1,21,30,,,,2,0,2,0,,,,,,,,,0,0,0,0,0,20,20,20,3,0,3,0,,,,,,,,,,,,,,,,,,,,,,,,,,,,,,,,,,,,,,,,,,,,,,,,,,,,,,,,,,,,,,,,30,,,,,,,,856.0666747000068,856.0666747000068,856.0666747000068,856.0666747000068,856.0666747000068,return,0.40996630024164915,5,0,0,0,0.32,0.32,return,0.33228980004787445,-42,-17,0.32,0.32,,,,,,,,,,,,,,,,,,,,,,,,,,,,,,,,,,,,,,,,,,,,,,,,,,,,,,,,JNCVD6,train_y,red_square,top_right,2025-04-24_17h01.59.659,HideSeek_v1,2022.2.5,59.946647440418474,
,5,7,5,4,0,-3,13,,train_dim1_1,22,30,,,,2,0,2,0,,,,,,,,,0,0,0,0,0,21,21,21,0,0,0,0,,,,,,,,,,,,,,,,,,,,,,,,,stimuli/alien_stimuli/13.png,,,,,,,,,,,,,,,,,,,,,,,,,,,,,stimuli/alien_stimuli/15.png,15,7,23,,,,,,,30,,,,,,,,862.379435100127,862.379435100127,862.379435100127,862.379435100127,862.379435100127,down,9.02953949989751,5,0,0,99,0.24,0.08,down,8.935269400011748,,,,,860.819904900156,862.379435100127,0.4,0.24,0.08,0.0,0.28,0.4,0.4,0.4,0.24,858.0508821997792,858.0508821997792,858.0508821997792,858.0508821997792,858.0508821997792,858.0508821997792,858.0508821997792,858.0508821997792,858.0509175402112,2.888021199963987,return,2.7425438002683222,,,,,,,,,,,,,,,,,,,,,,,,,,,,,,,,,JNCVD6,train_y,red_square,top_right,2025-04-24_17h01.59.659,HideSeek_v1,2022.2.5,59.946647440418474,
,5,7,5,4,0,-3,13,,train_dim1_1,22,30,,,,2,0,2,0,,,,,,,,,0,0,0,0,0,21,21,21,1,0,1,0,,,,,,,,,,,,,,,,,,,,,,,,,,,,,,,,,,,,,,,,,,,,,,,,,,,,,,,,,,,,,,,,30,,,,,,,,871.4141171998344,871.4141171998344,871.4141171998344,871.4141171998344,871.4141171998344,down,0.5427907002158463,5,0,0,99,0.24,0.0,down,0.4542804001830518,,,,,,,,,,,,,,,,,,,,,,,,,,,,,,,,,,,,,,,,,,,,,,,,,,,,,,,,,,,,JNCVD6,train_y,red_square,top_right,2025-04-24_17h01.59.659,HideSeek_v1,2022.2.5,59.946647440418474,
,5,7,5,4,0,-3,13,,train_dim1_1,22,30,,,,2,0,2,0,,,,,,,,,0,0,0,0,0,21,21,21,2,0,2,0,,,,,,,,,,,,,,,,,,,,,,,,,,,,,,,,,,,,,,,,,,,,,,,,,,,,,,,,,,,,,,,,30,,,,,,,,871.9625562997535,871.9625562997535,871.9625562997535,871.9625562997535,871.9625562997535,down,0.5100723998621106,5,0,0,99,0.24,-0.08,down,0.43339420016855,,,,,,,,,,,,,,,,,,,,,,,,,,,,,,,,,,,,,,,,,,,,,,,,,,,,,,,,,,,,JNCVD6,train_y,red_square,top_right,2025-04-24_17h01.59.659,HideSeek_v1,2022.2.5,59.946647440418474,
,5,7,5,4,0,-3,13,,train_dim1_1,22,30,,,,2,0,2,0,,,,,,,,,0,0,0,0,0,21,21,21,3,0,3,0,,,,,,,,,,,,,,,,,,,,,,,,,,,,,,,,,,,,,,,,,,,,,,,,,,,,,,,,,,,,,,,,30,,,,,,,,872.4802363999188,872.4802363999188,872.4802363999188,872.4802363999188,872.4802363999188,return,1.677406100090593,6,0,0,1,0.24,-0.08,return,1.589537899941206,-45,-17,0.24,-0.08,,,,,,,,,,,,,,,,,,,,,,,,,,,,,,,,,,,,,,,,,,,,,,,,,,,,,,,,JNCVD6,train_y,red_square,top_right,2025-04-24_17h01.59.659,HideSeek_v1,2022.2.5,59.946647440418474,
,5,8,5,3,0,-5,11,,train_dim1_1,23,30,,,,2,0,2,0,,,,,,,,,0,0,0,0,0,22,22,22,0,0,0,0,,,,,,,,,,,,,,,,,,,,,,,,,stimuli/alien_stimuli/11.png,,,,,,,,,,,,,,,,,,,,,,,,,,,,,stimuli/alien_stimuli/13.png,13,5,24,,,,,,,30,,,,,,,,882.4107657000422,882.4107657000422,882.4107657000422,882.4107657000422,882.4107657000422,down,1.62216870021075,6,0,0,99,0.24,0.15999999999999998,down,1.544617600273341,,,,,880.8530029999092,882.4107657000422,0.24,-0.08,0.24,0.0,0.04,0.24,0.24,0.24,-0.08,875.727644499857,875.727644499857,875.727644499857,875.727644499857,875.727644499857,875.727644499857,875.727644499857,875.727644499857,875.715178410057,5.239944799803197,return,5.103732500225306,,,,,,,,,,,,,,,,,,,,,,,,,,,,,,,,,JNCVD6,train_y,red_square,top_right,2025-04-24_17h01.59.659,HideSeek_v1,2022.2.5,59.946647440418474,
,5,8,5,3,0,-5,11,,train_dim1_1,23,30,,,,2,0,2,0,,,,,,,,,0,0,0,0,0,22,22,22,1,0,1,0,,,,,,,,,,,,,,,,,,,,,,,,,,,,,,,,,,,,,,,,,,,,,,,,,,,,,,,,,,,,,,,,30,,,,,,,,884.041117799934,884.041117799934,884.041117799934,884.041117799934,884.041117799934,down,0.509328399784863,6,0,0,99,0.24,0.07999999999999997,down,0.42145670019090176,,,,,,,,,,,,,,,,,,,,,,,,,,,,,,,,,,,,,,,,,,,,,,,,,,,,,,,,,,,,JNCVD6,train_y,red_square,top_right,2025-04-24_17h01.59.659,HideSeek_v1,2022.2.5,59.946647440418474,
,5,8,5,3,0,-5,11,,train_dim1_1,23,30,,,,2,0,2,0,,,,,,,,,0,0,0,0,0,22,22,22,2,0,2,0,,,,,,,,,,,,,,,,,,,,,,,,,,,,,,,,,,,,,,,,,,,,,,,,,,,,,,,,,,,,,,,,30,,,,,,,,884.5565606001765,884.5565606001765,884.5565606001765,884.5565606001765,884.5565606001765,down,0.5934496000409126,6,0,0,99,0.24,-2.7755575615628914e-17,down,0.5131790000014007,,,,,,,,,,,,,,,,,,,,,,,,,,,,,,,,,,,,,,,,,,,,,,,,,,,,,,,,,,,,JNCVD6,train_y,red_square,top_right,2025-04-24_17h01.59.659,HideSeek_v1,2022.2.5,59.946647440418474,
