trialInstr,x_fixStart,y_fixStart,x_corrSteps,y_corrSteps,x_nrSteps,y_nrSteps,alienID,trialLength,version,trialTrain,praclen,testlen,trial_label,break_on_off,beforeExpLoop.thisRepN,beforeExpLoop.thisTrialN,beforeExpLoop.thisN,beforeExpLoop.thisIndex,mini_instr_trials.thisRepN,mini_instr_trials.thisTrialN,mini_instr_trials.thisN,mini_instr_trials.thisIndex,instrLoop.thisRepN,instrLoop.thisTrialN,instrLoop.thisN,instrLoop.thisIndex,repeat_prac.thisRepN,repeat_prac.thisTrialN,repeat_prac.thisN,repeat_prac.thisIndex,trainLoop.thisRepN,trainLoop.thisTrialN,trainLoop.thisN,trainLoop.thisIndex,moveLoop_train.thisRepN,moveLoop_train.thisTrialN,moveLoop_train.thisN,moveLoop_train.thisIndex,experiment.thisRepN,experiment.thisTrialN,experiment.thisN,experiment.thisIndex,moveLoop_test.thisRepN,moveLoop_test.thisTrialN,moveLoop_test.thisN,moveLoop_test.thisIndex,mini_instr2_trials.thisRepN,mini_instr2_trials.thisTrialN,mini_instr2_trials.thisN,mini_instr2_trials.thisIndex,start_all_time,url,slideStim,audioStim,slides.started,sounds.started,nextButton.numClicks,nextButton.timesOn,nextButton.timesOff,prev_but.numClicks,prev_but.timesOn,prev_but.timesOff,alienStim,instrFile,alienStim_instr,gridImage_instr.started,startPos_3.started,key_instr.started,alienImage_3.started,sounds_1.started,key_instr.keys,key_instr.rt,all_x,all_y,FBy_corrSteps,FBy_fixStart,FBx_corrSteps,FBx_fixStart,FBy_pathSize_check,FBx_pathSize_check,gridImage_9.started,alienImageFB_3.started,startPosFB_3.started,keyFB_3.started,pathLine_ydir_2.started,pathLine_xdir_2.started,alienFace_3.started,sounds_2.started,RTFB_instr,keyFB_3.keys,keyFB_3.rt,draw_alienStim,draw_alienID,test_x,nrepcount,perfthres,percthres,earlierperf,earlystop,nextPrac,fileidx,praclen,saveACC_train,pracFile,nextPrac_train,addNrep,fileidx_endr,repExp,showearly,gridImage_4.started,startPos.started,movePos.started,key_resp.started,alienImage.started,buttonPress_train,RTchoice_train,cumAcctrain,aCorr,saveACC_choice,corrAns,x_movePos_end,y_movePos_end,key_resp.keys,key_resp.rt,wLy_dir,wLx_dir,x_movePos,y_movePos,text_2.started,text_2.stopped,aft_x_corrPos,aft_y_corrPos,y_pathSize_check,x_pathSize_check,y_pathdirY,x_pathdirY,x_pathdirX,x_corrPos,y_corrPos,gridImage_6.started,alienImageFB_2.started,startPosFB_2.started,movePosFB_2.started,keyFB_2.started,pathLine_xdir.started,pathLine_ydir.started,alienFace.started,sounds_4.started,RT_FBtrain,keyFB_2.keys,keyFB_2.rt,saveACC_pre,ACC,within_saveACC_train,earlystop_wloop,cumAcctrain_check,gridImage_3.started,alienImage_test.started,startPos_test.started,movePos_test.started,key_resp_test.started,wLy_dir_test,wLx_dir_test,buttonPress_test,RTchoice_test,cumAcctest,corrAns_test,key_resp_test.keys,key_resp_test.rt,text_3.started,text_3.stopped,total_time,end_all_time,key_resp_3.keys,slides_2.started,sounds_3.started,nextButton_2.numClicks,nextButton_2.timesOn,nextButton_2.timesOff,prev_but_2.numClicks,prev_but_2.timesOn,prev_but_2.timesOff,bye.started,participant,train_first,00_coordinate,starting corner,date,expName,psychopyVersion,frameRate,
,,,,,,,,,,,,,,,0,0,0,0,0,0,0,0,,,,,,,,,,,,,,,,,,,,,,,,,,,,,start_all_time,testround,conditions/schedules/train_y_first/blue_star_00/bottom_right/instructions/Slide1.png,conditions/schedules/train_y_first/blue_star_00/bottom_right/instructions/Audio1.wav,1176.909728600178,1176.8648724480067,1,[6.666483599692583],[6.666494899895042],0,,,,,,,,,,,,,,,,,,,,,,,,,,,,,,,,,,,,,,,,,,,,,,,,,,,,,,,,,,,,,,,,,,,,,,,,,,,,,,,,,,,,,,,,,,,,,,,,,,,,,,,,,,,,,,,,,,,,,,,,,,,,K7ZVL8,train_y,blue_star,bottom_right,2025-04-30_15h44.52.934,HideSeek_v1,2022.2.5,59.943305510951454,
,,,,,,,,,,,,,,,0,0,0,0,1,0,1,0,,,,,,,,,,,,,,,,,,,,,,,,,,,,,,,conditions/schedules/train_y_first/blue_star_00/bottom_right/instructions/Slide2.png,conditions/schedules/train_y_first/blue_star_00/bottom_right/instructions/Audio2.wav,1183.5965891000815,1183.5983556502033,2,"[6.666483599692583, 18.29836279992014]","[0.00026530027389526367, 18.298369400203228]",0,,,,,,,,,,,,,,,,,,,,,,,,,,,,,,,,,,,,,,,,,,,,,,,,,,,,,,,,,,,,,,,,,,,,,,,,,,,,,,,,,,,,,,,,,,,,,,,,,,,,,,,,,,,,,,,,,,,,,,,,,,,,K7ZVL8,train_y,blue_star,bottom_right,2025-04-30_15h44.52.934,HideSeek_v1,2022.2.5,59.943305510951454,
,,,,,,,,,,,,,,,0,0,0,0,2,0,2,0,,,,,,,,,,,,,,,,,,,,,,,,,,,,,,,conditions/schedules/train_y_first/blue_star_00/bottom_right/instructions/Slide3.png,conditions/schedules/train_y_first/blue_star_00/bottom_right/instructions/Audio3.wav,1201.9652053001337,1201.963429650059,3,"[6.666483599692583, 18.29836279992014, 16.609533300157636]","[0.00026530027389526367, 0.04786550020799041, 16.609540100209415]",0,,,,,,,,,,,,,,,,,,,,,,,,,,,,,,,,,,,,,,,,,,,,,,,,,,,,,,,,,,,,,,,,,,,,,,,,,,,,,,,,,,,,,,,,,,,,,,,,,,,,,,,,,,,,,,,,,,,,,,,,,,,,K7ZVL8,train_y,blue_star,bottom_right,2025-04-30_15h44.52.934,HideSeek_v1,2022.2.5,59.943305510951454,
,,,,,,,,,,,,,,,0,0,0,0,3,0,3,0,,,,,,,,,,,,,,,,,,,,,,,,,,,,,,,conditions/schedules/train_y_first/blue_star_00/bottom_right/instructions/Slide4.png,conditions/schedules/train_y_first/blue_star_00/bottom_right/instructions/Audio4.wav,1218.654695100151,1218.6438145500142,4,"[6.666483599692583, 18.29836279992014, 16.609533300157636, 19.119540199637413]","[0.00026530027389526367, 0.04786550020799041, 0.014538599643856287, 19.119547399692237]",0,,,,,,,,,,,,,,,,,,,,,,,,,,,,,,,,,,,,,,,,,,,,,,,,,,,,,,,,,,,,,,,,,,,,,,,,,,,,,,,,,,,,,,,,,,,,,,,,,,,,,,,,,,,,,,,,,,,,,,,,,,,,K7ZVL8,train_y,blue_star,bottom_right,2025-04-30_15h44.52.934,HideSeek_v1,2022.2.5,59.943305510951454,
,,,,,,,,,,,,,,,0,0,0,0,4,0,4,0,,,,,,,,,,,,,,,,,,,,,,,,,,,,,,,conditions/schedules/train_y_first/blue_star_00/bottom_right/instructions/Slide5.png,conditions/schedules/train_y_first/blue_star_00/bottom_right/instructions/Audio5.wav,1237.8460027999245,1237.8429548500571,5,"[6.666483599692583, 18.29836279992014, 16.609533300157636, 19.119540199637413, 4.398274900391698]","[0.00026530027389526367, 0.04786550020799041, 0.014538599643856287, 0.047006700187921524, 4.398281800094992]",0,,,,,,,,,,,,,,,,,,,,,,,,,,,,,,,,,,,,,,,,,,,,,,,,,,,,,,,,,,,,,,,,,,,,,,,,,,,,,,,,,,,,,,,,,,,,,,,,,,,,,,,,,,,,,,,,,,,,,,,,,,,,K7ZVL8,train_y,blue_star,bottom_right,2025-04-30_15h44.52.934,HideSeek_v1,2022.2.5,59.943305510951454,
,,,,,,,,,,,,,,,0,0,0,0,5,0,5,0,,,,,,,,,,,,,,,,,,,,,,,,,,,,,,,conditions/schedules/train_y_first/blue_star_00/bottom_right/instructions/Slide6.png,conditions/schedules/train_y_first/blue_star_00/bottom_right/instructions/Audio6.wav,1242.2960498002358,1242.297156099882,6,"[6.666483599692583, 18.29836279992014, 16.609533300157636, 19.119540199637413, 4.398274900391698, 4.252198999747634]","[0.00026530027389526367, 0.04786550020799041, 0.014538599643856287, 0.047006700187921524, 0.0486739999614656, 4.252205700147897]",0,,,,,,,,,,,,,,,,,,,,,,,,,,,,,,,,,,,,,,,,,,,,,,,,,,,,,,,,,,,,,,,,,,,,,,,,,,,,,,,,,,,,,,,,,,,,,,,,,,,,,,,,,,,,,,,,,,,,,,,,,,,,K7ZVL8,train_y,blue_star,bottom_right,2025-04-30_15h44.52.934,HideSeek_v1,2022.2.5,59.943305510951454,
,,,,,,,,,,,,,,,0,0,0,0,6,0,6,0,,,,,,,,,,,,,,,,,,,,,,,,,,,,,,,conditions/schedules/train_y_first/blue_star_00/bottom_right/instructions/Slide7.png,conditions/schedules/train_y_first/blue_star_00/bottom_right/instructions/Audio7.wav,1246.6004710998386,1246.6005320001393,7,"[6.666483599692583, 18.29836279992014, 16.609533300157636, 19.119540199637413, 4.398274900391698, 4.252198999747634, 5.102014500182122]","[0.00026530027389526367, 0.04786550020799041, 0.014538599643856287, 0.047006700187921524, 0.0486739999614656, 0.09751830017194152, 5.102021099999547]",0,,,,,,,,,,,,,,,,,,,,,,,,,,,,,,,,,,,,,,,,,,,,,,,,,,,,,,,,,,,,,,,,,,,,,,,,,,,,,,,,,,,,,,,,,,,,,,,,,,,,,,,,,,,,,,,,,,,,,,,,,,,,K7ZVL8,train_y,blue_star,bottom_right,2025-04-30_15h44.52.934,HideSeek_v1,2022.2.5,59.943305510951454,
,,,,,,,,,,,,,,,0,0,0,0,7,0,7,0,,,,,,,,,,,,,,,,,,,,,,,,,,,,,,,conditions/schedules/train_y_first/blue_star_00/bottom_right/instructions/Slide8.png,conditions/schedules/train_y_first/blue_star_00/bottom_right/instructions/Audio8.wav,1251.7703888001852,1251.7715425498318,8,"[6.666483599692583, 18.29836279992014, 16.609533300157636, 19.119540199637413, 4.398274900391698, 4.252198999747634, 5.102014500182122, 11.70859060017392]","[0.00026530027389526367, 0.04786550020799041, 0.014538599643856287, 0.047006700187921524, 0.0486739999614656, 0.09751830017194152, 0.06508229998871684, 11.708598400000483]",0,,,,,,,,,,,,,,,,,,,,,,,,,,,,,,,,,,,,,,,,,,,,,,,,,,,,,,,,,,,,,,,,,,,,,,,,,,,,,,,,,,,,,,,,,,,,,,,,,,,,,,,,,,,,,,,,,,,,,,,,,,,,K7ZVL8,train_y,blue_star,bottom_right,2025-04-30_15h44.52.934,HideSeek_v1,2022.2.5,59.943305510951454,
,,,,,,,,,,,,,,,0,0,0,0,8,0,8,0,,,,,,,,,,,,,,,,,,,,,,,,,,,,,,,conditions/schedules/train_y_first/blue_star_00/bottom_right/instructions/Slide9.png,conditions/schedules/train_y_first/blue_star_00/bottom_right/instructions/Audio9.wav,1263.547753999941,1263.5479184498545,9,"[6.666483599692583, 18.29836279992014, 16.609533300157636, 19.119540199637413, 4.398274900391698, 4.252198999747634, 5.102014500182122, 11.70859060017392, 5.768925399985164]","[0.00026530027389526367, 0.04786550020799041, 0.014538599643856287, 0.047006700187921524, 0.0486739999614656, 0.09751830017194152, 0.06508229998871684, 0.0305074998177588, 5.768932899925858]",0,,,,,,,,,,,,,,,,,,,,,,,,,,,,,,,,,,,,,,,,,,,,,,,,,,,,,,,,,,,,,,,,,,,,,,,,,,,,,,,,,,,,,,,,,,,,,,,,,,,,,,,,,,,,,,,,,,,,,,,,,,,,K7ZVL8,train_y,blue_star,bottom_right,2025-04-30_15h44.52.934,HideSeek_v1,2022.2.5,59.943305510951454,
,,,,,,,,,,,,,,,0,0,0,0,9,0,9,0,,,,,,,,,,,,,,,,,,,,,,,,,,,,,,,conditions/schedules/train_y_first/blue_star_00/bottom_right/instructions/Slide10.png,conditions/schedules/train_y_first/blue_star_00/bottom_right/instructions/Audio10.wav,1269.3568347999826,1269.3526893501637,10,"[6.666483599692583, 18.29836279992014, 16.609533300157636, 19.119540199637413, 4.398274900391698, 4.252198999747634, 5.102014500182122, 11.70859060017392, 5.768925399985164, 6.782172500155866]","[0.00026530027389526367, 0.04786550020799041, 0.014538599643856287, 0.047006700187921524, 0.0486739999614656, 0.09751830017194152, 0.06508229998871684, 0.0305074998177588, 0.04702479997649789, 6.782179699745029]",0,,,,,,,,,,,,,,,,,,,,,,,,,,,,,,,,,,,,,,,,,,,,,,,,,,,,,,,,,,,,,,,,,,,,,,,,,,,,,,,,,,,,,,,,,,,,,,,,,,,,,,,,,,,,,,,,,,,,,,,,,,,,K7ZVL8,train_y,blue_star,bottom_right,2025-04-30_15h44.52.934,HideSeek_v1,2022.2.5,59.943305510951454,
,,,,,,,,,,,,,,,0,0,0,0,10,0,10,0,,,,,,,,,,,,,,,,,,,,,,,,,,,,,,,conditions/schedules/train_y_first/blue_star_00/bottom_right/instructions/Slide11.png,conditions/schedules/train_y_first/blue_star_00/bottom_right/instructions/Audio11.wav,1276.1936584999785,1276.1916477002203,11,"[6.666483599692583, 18.29836279992014, 16.609533300157636, 19.119540199637413, 4.398274900391698, 4.252198999747634, 5.102014500182122, 11.70859060017392, 5.768925399985164, 6.782172500155866, 9.986799200065434]","[0.00026530027389526367, 0.04786550020799041, 0.014538599643856287, 0.047006700187921524, 0.0486739999614656, 0.09751830017194152, 0.06508229998871684, 0.0305074998177588, 0.04702479997649789, 0.09582729963585734, 9.986805999651551]",0,,,,,,,,,,,,,,,,,,,,,,,,,,,,,,,,,,,,,,,,,,,,,,,,,,,,,,,,,,,,,,,,,,,,,,,,,,,,,,,,,,,,,,,,,,,,,,,,,,,,,,,,,,,,,,,,,,,,,,,,,,,,K7ZVL8,train_y,blue_star,bottom_right,2025-04-30_15h44.52.934,HideSeek_v1,2022.2.5,59.943305510951454,
,,,,,,,,,,,,,,,0,0,0,0,11,0,11,0,,,,,,,,,,,,,,,,,,,,,,,,,,,,,,,conditions/schedules/train_y_first/blue_star_00/bottom_right/instructions/Slide12.png,conditions/schedules/train_y_first/blue_star_00/bottom_right/instructions/Audio12.wav,1286.2356161000207,1286.2333298001438,12,"[6.666483599692583, 18.29836279992014, 16.609533300157636, 19.119540199637413, 4.398274900391698, 4.252198999747634, 5.102014500182122, 11.70859060017392, 5.768925399985164, 6.782172500155866, 9.986799200065434, 13.590074699837714]","[0.00026530027389526367, 0.04786550020799041, 0.014538599643856287, 0.047006700187921524, 0.0486739999614656, 0.09751830017194152, 0.06508229998871684, 0.0305074998177588, 0.04702479997649789, 0.09582729963585734, 0.08057240024209023, 13.59008469991386]",0,,,,,,,,,,,,,,,,,,,,,,,,,,,,,,,,,,,,,,,,,,,,,,,,,,,,,,,,,,,,,,,,,,,,,,,,,,,,,,,,,,,,,,,,,,,,,,,,,,,,,,,,,,,,,,,,,,,,,,,,,,,,K7ZVL8,train_y,blue_star,bottom_right,2025-04-30_15h44.52.934,HideSeek_v1,2022.2.5,59.943305510951454,
1,5,3,5,8,0,5,66,2,instr_dim1_1,,,,,,0,0,0,0,,,,,0,0,0,0,,,,,,,,,,,,,,,,,,,,,,,,,,,,,,,,,,,,,stimuli/alien_stimuli/66.png,conditions/schedules/train_y_first/blue_star_00/bottom_right/inputInstr_1.xlsx,stimuli/alien_stimuli/66.png,1299.924669700209,1299.924669700209,1299.924669700209,1299.924669700209,1299.9113727000542,return,18.23506150022149,"[-0.16, -0.08, 0, 0.08, 0.16, 0.24, 0.32, 0.4, 0.48, 0.56]","[-0.4, -0.32, -0.24, -0.16, -0.08, 0, 0.08, 0.16, 0.24, 0.32]",8,3,5,5,0.4,0.0,1318.329658600036,1318.329658600036,1318.329658600036,1318.329658600036,1318.329658600036,1318.329658600036,1318.329658600036,1318.3100155498366,9.99219230003655,return,9.809411800000817,stimuli/alien_stimuli/66.png,66,5,1,,,,,,,,,,,,,,,,,,,,,,,,,,,,,,,,,,,,,,,,,,,,,,,,,,,,,,,,,,,,,,,,,,,,,,,,,,,,,,,,,,,,,,,,,K7ZVL8,train_y,blue_star,bottom_right,2025-04-30_15h44.52.934,HideSeek_v1,2022.2.5,59.943305510951454,
,,,,,,,,,,,30,,,,0,0,0,0,,,,,,,,,,,,,,,,,,,,,,,,,,,,,,,,,,,,,,,,,,,,,,,,,,,,,,,,,,,,,,,,,,,,,,,,,,,,,,21,0.7,0,0,99,1,30,0,conditions/schedules/train_y_first/blue_star_00/bottom_right/inputTrain_1.1.xlsx,99,1,1,1,0,,,,,,,,,,,,,,,,,,,,,,,,,,,,,,,,,,,,,,,,,,,,,,,,,,,,,,,,,,,,,,,,,,,,,,,,,,,K7ZVL8,train_y,blue_star,bottom_right,2025-04-30_15h44.52.934,HideSeek_v1,2022.2.5,59.943305510951454,
,,,,,,,,,,,,,,,1,0,1,0,0,0,0,0,,,,,,,,,,,,,,,,,,,,,,,,,,,,,,,conditions/schedules/train_y_first/blue_star_00/bottom_right/instructions/Slide13.png,conditions/schedules/train_y_first/blue_star_00/bottom_right/instructions/Audio13.wav,1328.302043700125,1328.3015069500077,13,"[6.666483599692583, 18.29836279992014, 16.609533300157636, 19.119540199637413, 4.398274900391698, 4.252198999747634, 5.102014500182122, 11.70859060017392, 5.768925399985164, 6.782172500155866, 9.986799200065434, 13.590074699837714, 17.5781678003259]","[0.00026530027389526367, 0.04786550020799041, 0.014538599643856287, 0.047006700187921524, 0.0486739999614656, 0.09751830017194152, 0.06508229998871684, 0.0305074998177588, 0.04702479997649789, 0.09582729963585734, 0.08057240024209023, 13.59008469991386, 17.57817510003224]",0,,,,,,,,,,,,,,,,,,,,,,,,,,,,,,,,,,,,,,,,,,,,,,,,,,,,,,,,,,,,,,,,,,,,,,,,,,,,,,,,,,,,,,,,,,,,,,,,,,,,,,,,,,,,,,,,,,,,,,,,,,,,K7ZVL8,train_y,blue_star,bottom_right,2025-04-30_15h44.52.934,HideSeek_v1,2022.2.5,59.943305510951454,
,,,,,,,,,,,,,,,1,0,1,0,1,0,1,0,,,,,,,,,,,,,,,,,,,,,,,,,,,,,,,conditions/schedules/train_y_first/blue_star_00/bottom_right/instructions/Slide14.png,conditions/schedules/train_y_first/blue_star_00/bottom_right/instructions/Audio14.wav,1345.946701100096,1345.9328724999912,14,"[6.666483599692583, 18.29836279992014, 16.609533300157636, 19.119540199637413, 4.398274900391698, 4.252198999747634, 5.102014500182122, 11.70859060017392, 5.768925399985164, 6.782172500155866, 9.986799200065434, 13.590074699837714, 17.5781678003259, 16.5316327996552]","[0.00026530027389526367, 0.04786550020799041, 0.014538599643856287, 0.047006700187921524, 0.0486739999614656, 0.09751830017194152, 0.06508229998871684, 0.0305074998177588, 0.04702479997649789, 0.09582729963585734, 0.08057240024209023, 13.59008469991386, 0.01484679989516735, 16.53163979994133]",0,,,,,,,,,,,,,,,,,,,,,,,,,,,,,,,,,,,,,,,,,,,,,,,,,,,,,,,,,,,,,,,,,,,,,,,,,,,,,,,,,,,,,,,,,,,,,,,,,,,,,,,,,,,,,,,,,,,,,,,,,,,,K7ZVL8,train_y,blue_star,bottom_right,2025-04-30_15h44.52.934,HideSeek_v1,2022.2.5,59.943305510951454,
2,7,3,7,3,0,0,61,2,instr_dim1_1,,,,,,1,0,1,0,,,,,0,0,0,0,,,,,,,,,,,,,,,,,,,,,,,,,,,,,,,,,,,,,stimuli/alien_stimuli/61.png,conditions/schedules/train_y_first/blue_star_00/bottom_right/inputInstr_1.xlsx,stimuli/alien_stimuli/61.png,1362.5770896999165,1362.5770896999165,1362.5770896999165,1362.5770896999165,1362.5802948501428,return,6.780132899992168,"[-0.16, -0.08, 0, 0.08, 0.16, 0.24, 0.32, 0.4, 0.48, 0.56]","[-0.4, -0.32, -0.24, -0.16, -0.08, 0, 0.08, 0.16, 0.24, 0.32]",3,3,7,7,0.0,0.0,1369.5157812000252,1369.5157812000252,1369.5157812000252,1369.5157812000252,1369.5157812000252,1369.5157812000252,1369.5157812000252,1369.5024387998508,14.029060100205243,return,13.866304699797183,stimuli/alien_stimuli/61.png,61,7,2,,,,,,,,,,,,,,,,,,,,,,,,,,,,,,,,,,,,,,,,,,,,,,,,,,,,,,,,,,,,,,,,,,,,,,,,,,,,,,,,,,,,,,,,,K7ZVL8,train_y,blue_star,bottom_right,2025-04-30_15h44.52.934,HideSeek_v1,2022.2.5,59.943305510951454,
,,,,,,,,,,,30,,,,1,0,1,0,,,,,,,,,,,,,,,,,,,,,,,,,,,,,,,,,,,,,,,,,,,,,,,,,,,,,,,,,,,,,,,,,,,,,,,,,,,,,,21,0.7,0,0,99,1,30,0,conditions/schedules/train_y_first/blue_star_00/bottom_right/inputTrain_1.1.xlsx,99,1,1,1,0,,,,,,,,,,,,,,,,,,,,,,,,,,,,,,,,,,,,,,,,,,,,,,,,,,,,,,,,,,,,,,,,,,,,,,,,,,,K7ZVL8,train_y,blue_star,bottom_right,2025-04-30_15h44.52.934,HideSeek_v1,2022.2.5,59.943305510951454,
,,,,,,,,,,,,,,,2,0,2,0,0,0,0,0,,,,,,,,,,,,,,,,,,,,,,,,,,,,,,,conditions/schedules/train_y_first/blue_star_00/bottom_right/instructions/Slide15.png,conditions/schedules/train_y_first/blue_star_00/bottom_right/instructions/Audio15.wav,1383.569713700097,1383.5641163997352,15,"[6.666483599692583, 18.29836279992014, 16.609533300157636, 19.119540199637413, 4.398274900391698, 4.252198999747634, 5.102014500182122, 11.70859060017392, 5.768925399985164, 6.782172500155866, 9.986799200065434, 13.590074699837714, 17.5781678003259, 16.5316327996552, 42.17685940023512]","[0.00026530027389526367, 0.04786550020799041, 0.014538599643856287, 0.047006700187921524, 0.0486739999614656, 0.09751830017194152, 0.06508229998871684, 0.0305074998177588, 0.04702479997649789, 0.09582729963585734, 0.08057240024209023, 13.59008469991386, 0.01484679989516735, 16.53163979994133, 42.17686600005254]",0,,,,,,,,,,,,,,,,,,,,,,,,,,,,,,,,,,,,,,,,,,,,,,,,,,,,,,,,,,,,,,,,,,,,,,,,,,,,,,,,,,,,,,,,,,,,,,,,,,,,,,,,,,,,,,,,,,,,,,,,,,,,K7ZVL8,train_y,blue_star,bottom_right,2025-04-30_15h44.52.934,HideSeek_v1,2022.2.5,59.943305510951454,
,,,,,,,,,,,,,,,2,0,2,0,1,0,1,0,,,,,,,,,,,,,,,,,,,,,,,,,,,,,,,conditions/schedules/train_y_first/blue_star_00/bottom_right/instructions/Slide16.png,conditions/schedules/train_y_first/blue_star_00/bottom_right/instructions/Audio16.wav,1425.8195581999607,1425.8159247499425,16,"[6.666483599692583, 18.29836279992014, 16.609533300157636, 19.119540199637413, 4.398274900391698, 4.252198999747634, 5.102014500182122, 11.70859060017392, 5.768925399985164, 6.782172500155866, 9.986799200065434, 13.590074699837714, 17.5781678003259, 16.5316327996552, 42.17685940023512, 21.76232500001788]","[0.00026530027389526367, 0.04786550020799041, 0.014538599643856287, 0.047006700187921524, 0.0486739999614656, 0.09751830017194152, 0.06508229998871684, 0.0305074998177588, 0.04702479997649789, 0.09582729963585734, 0.08057240024209023, 13.59008469991386, 0.01484679989516735, 16.53163979994133, 0.06302240025252104, 21.762331999838352]",0,,,,,,,,,,,,,,,,,,,,,,,,,,,,,,,,,,,,,,,,,,,,,,,,,,,,,,,,,,,,,,,,,,,,,,,,,,,,,,,,,,,,,,,,,,,,,,,,,,,,,,,,,,,,,,,,,,,,,,,,,,,,K7ZVL8,train_y,blue_star,bottom_right,2025-04-30_15h44.52.934,HideSeek_v1,2022.2.5,59.943305510951454,
,5,0,5,4,0,4,65,,train_dim1_1,1,30,,,,2,0,2,0,,,,,,,,,0,0,0,0,0,0,0,0,0,0,0,0,,,,,,,,,,,,,,,,,,,,,,,,,stimuli/alien_stimuli/65.png,,,,,,,,,,,,,,,,,,,,,,,,,,,,,,,,,,,,,,,30,,,,,,,,1447.685588600114,1447.685588600114,1447.685588600114,1447.685588600114,1447.685588600114,up,18.526074800174683,0,0,0,99,0.24,-0.32,up,18.419041600078344,,,,,,,,,,,,,,,,,,,,,,,,,,,,,,,,,,,,,,,,,,,,,,,,,,,,,,,,,,,,K7ZVL8,train_y,blue_star,bottom_right,2025-04-30_15h44.52.934,HideSeek_v1,2022.2.5,59.943305510951454,
,5,0,5,4,0,4,65,,train_dim1_1,1,30,,,,2,0,2,0,,,,,,,,,0,0,0,0,0,0,0,0,1,0,1,0,,,,,,,,,,,,,,,,,,,,,,,,,,,,,,,,,,,,,,,,,,,,,,,,,,,,,,,,,,,,,,,,30,,,,,,,,1466.224535500165,1466.224535500165,1466.224535500165,1466.224535500165,1466.224535500165,up,3.9457334000617266,0,0,0,99,0.24,-0.24,up,3.845228500198573,,,,,,,,,,,,,,,,,,,,,,,,,,,,,,,,,,,,,,,,,,,,,,,,,,,,,,,,,,,,K7ZVL8,train_y,blue_star,bottom_right,2025-04-30_15h44.52.934,HideSeek_v1,2022.2.5,59.943305510951454,
,5,0,5,4,0,4,65,,train_dim1_1,1,30,,,,2,0,2,0,,,,,,,,,0,0,0,0,0,0,0,0,2,0,2,0,,,,,,,,,,,,,,,,,,,,,,,,,,,,,,,,,,,,,,,,,,,,,,,,,,,,,,,,,,,,,,,,30,,,,,,,,1470.1493322998285,1470.1493322998285,1470.1493322998285,1470.1493322998285,1470.1493322998285,up,0.8605559999123216,0,0,0,99,0.24,-0.15999999999999998,up,0.7768920999951661,,,,,,,,,,,,,,,,,,,,,,,,,,,,,,,,,,,,,,,,,,,,,,,,,,,,,,,,,,,,K7ZVL8,train_y,blue_star,bottom_right,2025-04-30_15h44.52.934,HideSeek_v1,2022.2.5,59.943305510951454,
,5,0,5,4,0,4,65,,train_dim1_1,1,30,,,,2,0,2,0,,,,,,,,,0,0,0,0,0,0,0,0,3,0,3,0,,,,,,,,,,,,,,,,,,,,,,,,,,,,,,,,,,,,,,,,,,,,,,,,,,,,,,,,,,,,,,,,30,,,,,,,,1471.0164966001175,1471.0164966001175,1471.0164966001175,1471.0164966001175,1471.0164966001175,up,0.610052099917084,0,0,0,99,0.24,-0.07999999999999997,up,0.5286232000216842,,,,,,,,,,,,,,,,,,,,,,,,,,,,,,,,,,,,,,,,,,,,,,,,,,,,,,,,,,,,K7ZVL8,train_y,blue_star,bottom_right,2025-04-30_15h44.52.934,HideSeek_v1,2022.2.5,59.943305510951454,
,5,0,5,4,0,4,65,,train_dim1_1,1,30,,,,2,0,2,0,,,,,,,,,0,0,0,0,0,0,0,0,4,0,4,0,,,,,,,,,,,,,,,,,,,,,,,,,,,,,,,,,,,,,,,,,,,,,,,,,,,,,,,,,,,,,,,,30,,,,,,,,1471.6342918002047,1471.6342918002047,1471.6342918002047,1471.6342918002047,1471.6342918002047,up,0.4600092996843159,0,0,0,99,0.24,2.7755575615628914e-17,up,0.3732882998883724,,,,,,,,,,,,,,,,,,,,,,,,,,,,,,,,,,,,,,,,,,,,,,,,,,,,,,,,,,,,K7ZVL8,train_y,blue_star,bottom_right,2025-04-30_15h44.52.934,HideSeek_v1,2022.2.5,59.943305510951454,
,5,0,5,4,0,4,65,,train_dim1_1,1,30,,,,2,0,2,0,,,,,,,,,0,0,0,0,0,0,0,0,5,0,5,0,,,,,,,,,,,,,,,,,,,,,,,,,,,,,,,,,,,,,,,,,,,,,,,,,,,,,,,,,,,,,,,,30,,,,,,,,1472.0997533001937,1472.0997533001937,1472.0997533001937,1472.0997533001937,1472.0997533001937,return,0.943843400105834,0,1,0,0,0.24,2.7755575615628914e-17,return,0.8681310000829399,5,0,0.24,2.7755575615628914e-17,,,,,,,,,,,,,,,,,,,,,,,,,,,,,,,,,,,,,,,,,,,,,,,,,,,,,,,,K7ZVL8,train_y,blue_star,bottom_right,2025-04-30_15h44.52.934,HideSeek_v1,2022.2.5,59.943305510951454,
,8,2,8,7,0,5,66,,train_dim1_1,2,30,,,,2,0,2,0,,,,,,,,,0,0,0,0,0,1,1,1,0,0,0,0,,,,,,,,,,,,,,,,,,,,,,,,,stimuli/alien_stimuli/66.png,,,,,,,,,,,,,,,,,,,,,,,,,,,,,stimuli/alien_stimuli/65.png,65,5,3,,,,,,,30,,,,,,,,1502.9294424001127,1502.9294424001127,1502.9294424001127,1502.9294424001127,1502.9294424001127,left,9.346440399996936,0,1,0,99,0.39999999999999997,-0.24,left,9.243295999709517,,,,,1501.3621617001481,1502.9294424001127,0.24,-0.08,0.32,0.0,-0.24000000000000002,0.24,0.24,0.24,-0.08,1474.6232002000324,1474.6232002000324,1474.6232002000324,1474.6232002000324,1474.6232002000324,1474.6232002000324,1474.6232002000324,1474.6232002000324,1474.6064710499254,26.858352599665523,return,26.722233000211418,,,,,,,,,,,,,,,,,,,,,,,,,,,,,,,,,K7ZVL8,train_y,blue_star,bottom_right,2025-04-30_15h44.52.934,HideSeek_v1,2022.2.5,59.943305510951454,
,8,2,8,7,0,5,66,,train_dim1_1,2,30,,,,2,0,2,0,,,,,,,,,0,0,0,0,0,1,1,1,1,0,1,0,,,,,,,,,,,,,,,,,,,,,,,,,,,,,,,,,,,,,,,,,,,,,,,,,,,,,,,,,,,,,,,,30,,,,,,,,1512.282735100016,1512.282735100016,1512.282735100016,1512.282735100016,1512.282735100016,left,0.6933192000724375,0,1,0,99,0.31999999999999995,-0.24,left,0.5939653003588319,,,,,,,,,,,,,,,,,,,,,,,,,,,,,,,,,,,,,,,,,,,,,,,,,,,,,,,,,,,,K7ZVL8,train_y,blue_star,bottom_right,2025-04-30_15h44.52.934,HideSeek_v1,2022.2.5,59.943305510951454,
,8,2,8,7,0,5,66,,train_dim1_1,2,30,,,,2,0,2,0,,,,,,,,,0,0,0,0,0,1,1,1,2,0,2,0,,,,,,,,,,,,,,,,,,,,,,,,,,,,,,,,,,,,,,,,,,,,,,,,,,,,,,,,,,,,,,,,30,,,,,,,,1512.967926000245,1512.967926000245,1512.967926000245,1512.967926000245,1512.967926000245,left,0.5435557002201676,0,1,0,99,0.23999999999999994,-0.24,left,0.46263290010392666,,,,,,,,,,,,,,,,,,,,,,,,,,,,,,,,,,,,,,,,,,,,,,,,,,,,,,,,,,,,K7ZVL8,train_y,blue_star,bottom_right,2025-04-30_15h44.52.934,HideSeek_v1,2022.2.5,59.943305510951454,
,8,2,8,7,0,5,66,,train_dim1_1,2,30,,,,2,0,2,0,,,,,,,,,0,0,0,0,0,1,1,1,3,0,3,0,,,,,,,,,,,,,,,,,,,,,,,,,,,,,,,,,,,,,,,,,,,,,,,,,,,,,,,,,,,,,,,,30,,,,,,,,1513.5195633000694,1513.5195633000694,1513.5195633000694,1513.5195633000694,1513.5195633000694,left,0.8104075998999178,0,1,0,99,0.15999999999999992,-0.24,left,0.7321572001092136,,,,,,,,,,,,,,,,,,,,,,,,,,,,,,,,,,,,,,,,,,,,,,,,,,,,,,,,,,,,K7ZVL8,train_y,blue_star,bottom_right,2025-04-30_15h44.52.934,HideSeek_v1,2022.2.5,59.943305510951454,
,8,2,8,7,0,5,66,,train_dim1_1,2,30,,,,2,0,2,0,,,,,,,,,0,0,0,0,0,1,1,1,4,0,4,0,,,,,,,,,,,,,,,,,,,,,,,,,,,,,,,,,,,,,,,,,,,,,,,,,,,,,,,,,,,,,,,,30,,,,,,,,1514.33702610014,1514.33702610014,1514.33702610014,1514.33702610014,1514.33702610014,left,1.4103088998235762,0,1,0,99,0.07999999999999992,-0.24,left,1.3214346999302506,,,,,,,,,,,,,,,,,,,,,,,,,,,,,,,,,,,,,,,,,,,,,,,,,,,,,,,,,,,,K7ZVL8,train_y,blue_star,bottom_right,2025-04-30_15h44.52.934,HideSeek_v1,2022.2.5,59.943305510951454,
,8,2,8,7,0,5,66,,train_dim1_1,2,30,,,,2,0,2,0,,,,,,,,,0,0,0,0,0,1,1,1,5,0,5,0,,,,,,,,,,,,,,,,,,,,,,,,,,,,,,,,,,,,,,,,,,,,,,,,,,,,,,,,,,,,,,,,30,,,,,,,,1515.754253800027,1515.754253800027,1515.754253800027,1515.754253800027,1515.754253800027,return,0.6268931999802589,0,0,0,0,0.07999999999999992,-0.24,return,0.5532655999995768,5,-5,0.07999999999999992,-0.24,,,,,,,,,,,,,,,,,,,,,,,,,,,,,,,,,,,,,,,,,,,,,,,,,,,,,,,,K7ZVL8,train_y,blue_star,bottom_right,2025-04-30_15h44.52.934,HideSeek_v1,2022.2.5,59.943305510951454,
,7,3,7,6,0,3,64,,train_dim1_1,3,30,,,,2,0,2,0,,,,,,,,,0,0,0,0,0,2,2,2,0,0,0,0,,,,,,,,,,,,,,,,,,,,,,,,,stimuli/alien_stimuli/64.png,,,,,,,,,,,,,,,,,,,,,,,,,,,,,stimuli/alien_stimuli/66.png,66,8,4,,,,,,,30,,,,,,,,1526.9695497001521,1526.9695497001521,1526.9695497001521,1526.9695497001521,1526.9695497001521,left,7.561271199956536,0,0,0,99,0.32,-0.16,left,7.472108299843967,,,,,1525.4151002001017,1526.9695497001521,0.48,0.16,0.4,0.0,-0.039999999999999994,0.48,0.48,0.48,0.16,1517.9470962001942,1517.9470962001942,1517.9470962001942,1517.9470962001942,1517.9470962001942,1517.9470962001942,1517.9470962001942,1517.9470962001942,1517.9426678501536,7.574821900110692,return,7.445785499643534,,,,,,,,,,,,,,,,,,,,,,,,,,,,,,,,,K7ZVL8,train_y,blue_star,bottom_right,2025-04-30_15h44.52.934,HideSeek_v1,2022.2.5,59.943305510951454,
,7,3,7,6,0,3,64,,train_dim1_1,3,30,,,,2,0,2,0,,,,,,,,,0,0,0,0,0,2,2,2,1,0,1,0,,,,,,,,,,,,,,,,,,,,,,,,,,,,,,,,,,,,,,,,,,,,,,,,,,,,,,,,,,,,,,,,30,,,,,,,,1534.5517323999666,1534.5517323999666,1534.5517323999666,1534.5517323999666,1534.5517323999666,left,0.4761467999778688,0,0,0,99,0.24,-0.16,left,0.3738877000287175,,,,,,,,,,,,,,,,,,,,,,,,,,,,,,,,,,,,,,,,,,,,,,,,,,,,,,,,,,,,K7ZVL8,train_y,blue_star,bottom_right,2025-04-30_15h44.52.934,HideSeek_v1,2022.2.5,59.943305510951454,
,7,3,7,6,0,3,64,,train_dim1_1,3,30,,,,2,0,2,0,,,,,,,,,0,0,0,0,0,2,2,2,2,0,2,0,,,,,,,,,,,,,,,,,,,,,,,,,,,,,,,,,,,,,,,,,,,,,,,,,,,,,,,,,,,,,,,,30,,,,,,,,1535.0200255000964,1535.0200255000964,1535.0200255000964,1535.0200255000964,1535.0200255000964,left,0.47675269981846213,0,0,0,99,0.15999999999999998,-0.16,left,0.38908510003238916,,,,,,,,,,,,,,,,,,,,,,,,,,,,,,,,,,,,,,,,,,,,,,,,,,,,,,,,,,,,K7ZVL8,train_y,blue_star,bottom_right,2025-04-30_15h44.52.934,HideSeek_v1,2022.2.5,59.943305510951454,
,7,3,7,6,0,3,64,,train_dim1_1,3,30,,,,2,0,2,0,,,,,,,,,0,0,0,0,0,2,2,2,3,0,3,0,,,,,,,,,,,,,,,,,,,,,,,,,,,,,,,,,,,,,,,,,,,,,,,,,,,,,,,,,,,,,,,,30,,,,,,,,1535.5029746000655,1535.5029746000655,1535.5029746000655,1535.5029746000655,1535.5029746000655,left,0.4266253998503089,0,0,0,99,0.07999999999999997,-0.16,left,0.34861799981445074,,,,,,,,,,,,,,,,,,,,,,,,,,,,,,,,,,,,,,,,,,,,,,,,,,,,,,,,,,,,K7ZVL8,train_y,blue_star,bottom_right,2025-04-30_15h44.52.934,HideSeek_v1,2022.2.5,59.943305510951454,
,7,3,7,6,0,3,64,,train_dim1_1,3,30,,,,2,0,2,0,,,,,,,,,0,0,0,0,0,2,2,2,4,0,4,0,,,,,,,,,,,,,,,,,,,,,,,,,,,,,,,,,,,,,,,,,,,,,,,,,,,,,,,,,,,,,,,,30,,,,,,,,1535.936197699979,1535.936197699979,1535.936197699979,1535.936197699979,1535.936197699979,return,0.8438254999928176,0,0,0,0,0.07999999999999997,-0.16,return,0.7571275001391768,5,-9,0.07999999999999997,-0.16,,,,,,,,,,,,,,,,,,,,,,,,,,,,,,,,,,,,,,,,,,,,,,,,,,,,,,,,K7ZVL8,train_y,blue_star,bottom_right,2025-04-30_15h44.52.934,HideSeek_v1,2022.2.5,59.943305510951454,
,5,1,5,2,0,1,62,,train_dim1_1,4,30,,,,2,0,2,0,,,,,,,,,0,0,0,0,0,3,3,3,0,0,0,0,,,,,,,,,,,,,,,,,,,,,,,,,stimuli/alien_stimuli/62.png,,,,,,,,,,,,,,,,,,,,,,,,,,,,,stimuli/alien_stimuli/64.png,64,7,5,,,,,,,30,,,,,,,,1543.7862375001423,1543.7862375001423,1543.7862375001423,1543.7862375001423,1543.7862375001423,return,2.988928799983114,0,1,0,0,0.24,-0.32,return,2.905362700112164,5,-9,0.24,-0.32,1542.2291627000086,1543.7862375001423,0.4,0.08,0.24,0.0,-0.04,0.4,0.4,0.4,0.08,1538.3338677999564,1538.3338677999564,1538.3338677999564,1538.3338677999564,1538.3338677999564,1538.3338677999564,1538.3338677999564,1538.3338677999564,1538.3259896000848,3.9889806997962296,return,3.873815099708736,,,,,,,,,,,,,,,,,,,,,,,,,,,,,,,,,K7ZVL8,train_y,blue_star,bottom_right,2025-04-30_15h44.52.934,HideSeek_v1,2022.2.5,59.943305510951454,
,8,3,8,3,0,0,61,,train_dim1_1,5,30,,,,2,0,2,0,,,,,,,,,0,0,0,0,0,4,4,4,0,0,0,0,,,,,,,,,,,,,,,,,,,,,,,,,stimuli/alien_stimuli/61.png,,,,,,,,,,,,,,,,,,,,,,,,,,,,,stimuli/alien_stimuli/62.png,62,5,6,,,,,,,30,,,,,,,,1557.230208300054,1557.230208300054,1557.230208300054,1557.230208300054,1557.230208300054,up,2.620466999709606,0,1,0,99,0.48,-0.08,up,2.538764400407672,,,,,1555.6740032001399,1557.230208300054,0.24,-0.24,0.08,0.0,-0.28,0.24,0.24,0.24,-0.24,1548.3245514002629,1548.3245514002629,1548.3245514002629,1548.3245514002629,1548.3245514002629,1548.3245514002629,1548.3245514002629,1548.3245514002629,1548.3177395000123,7.441943000070751,return,7.332236399874091,,,,,,,,,,,,,,,,,,,,,,,,,,,,,,,,,K7ZVL8,train_y,blue_star,bottom_right,2025-04-30_15h44.52.934,HideSeek_v1,2022.2.5,59.943305510951454,
,8,3,8,3,0,0,61,,train_dim1_1,5,30,,,,2,0,2,0,,,,,,,,,0,0,0,0,0,4,4,4,1,0,1,0,,,,,,,,,,,,,,,,,,,,,,,,,,,,,,,,,,,,,,,,,,,,,,,,,,,,,,,,,,,,,,,,30,,,,,,,,1559.8578755999915,1559.8578755999915,1559.8578755999915,1559.8578755999915,1559.8578755999915,up,0.40981310000643134,0,1,0,99,0.48,0.0,up,0.32980630034580827,,,,,,,,,,,,,,,,,,,,,,,,,,,,,,,,,,,,,,,,,,,,,,,,,,,,,,,,,,,,K7ZVL8,train_y,blue_star,bottom_right,2025-04-30_15h44.52.934,HideSeek_v1,2022.2.5,59.943305510951454,
,8,3,8,3,0,0,61,,train_dim1_1,5,30,,,,2,0,2,0,,,,,,,,,0,0,0,0,0,4,4,4,2,0,2,0,,,,,,,,,,,,,,,,,,,,,,,,,,,,,,,,,,,,,,,,,,,,,,,,,,,,,,,,,,,,,,,,30,,,,,,,,1560.2741050999612,1560.2741050999612,1560.2741050999612,1560.2741050999612,1560.2741050999612,return,0.8940318003296852,0,0,0,0,0.48,0.0,return,0.8165787998586893,7,-9,0.48,0.0,,,,,,,,,,,,,,,,,,,,,,,,,,,,,,,,,,,,,,,,,,,,,,,,,,,,,,,,K7ZVL8,train_y,blue_star,bottom_right,2025-04-30_15h44.52.934,HideSeek_v1,2022.2.5,59.943305510951454,
,6,4,6,5,0,1,62,,train_dim1_1,6,30,,,,2,0,2,0,,,,,,,,,0,0,0,0,0,5,5,5,0,0,0,0,,,,,,,,,,,,,,,,,,,,,,,,,stimuli/alien_stimuli/62.png,,,,,,,,,,,,,,,,,,,,,,,,,,,,,stimuli/alien_stimuli/61.png,61,8,7,,,,,,,30,,,,,,,,1567.0522862002254,1567.0522862002254,1567.0522862002254,1567.0522862002254,1567.0522862002254,up,4.591946300119162,0,0,0,99,0.32,0.0,up,4.507090900093317,,,,,1565.498608500231,1567.0522862002254,0.48,-0.16,0.0,0.0,-0.16,0.48,0.48,0.48,-0.16,1562.7353149000555,1562.7353149000555,1562.7353149000555,1562.7353149000555,1562.7353149000555,1562.7353149000555,1562.7353149000555,1562.7353149000555,1562.7296198497993,2.87162770004943,return,2.7474806997925043,,,,,,,,,,,,,,,,,,,,,,,,,,,,,,,,,K7ZVL8,train_y,blue_star,bottom_right,2025-04-30_15h44.52.934,HideSeek_v1,2022.2.5,59.943305510951454,
,6,4,6,5,0,1,62,,train_dim1_1,6,30,,,,2,0,2,0,,,,,,,,,0,0,0,0,0,5,5,5,1,0,1,0,,,,,,,,,,,,,,,,,,,,,,,,,,,,,,,,,,,,,,,,,,,,,,,,,,,,,,,,,,,,,,,,30,,,,,,,,1571.6513140001334,1571.6513140001334,1571.6513140001334,1571.6513140001334,1571.6513140001334,return,0.44265689980238676,1,0,0,1,0.32,0.0,return,0.36504750000312924,8,-9,0.32,0.0,,,,,,,,,,,,,,,,,,,,,,,,,,,,,,,,,,,,,,,,,,,,,,,,,,,,,,,,K7ZVL8,train_y,blue_star,bottom_right,2025-04-30_15h44.52.934,HideSeek_v1,2022.2.5,59.943305510951454,
,6,3,6,6,0,3,64,,train_dim1_1,7,30,,,,2,0,2,0,,,,,,,,,0,0,0,0,0,6,6,6,0,0,0,0,,,,,,,,,,,,,,,,,,,,,,,,,stimuli/alien_stimuli/64.png,,,,,,,,,,,,,,,,,,,,,,,,,,,,,stimuli/alien_stimuli/62.png,62,6,8,,,,,,,30,,,,,,,,1581.5655411998741,1581.5655411998741,1581.5655411998741,1581.5655411998741,1581.5655411998741,up,2.521632400341332,1,0,0,99,0.32,-0.08,up,2.4383885003626347,,,,,1580.010664400179,1581.5655411998741,0.32,0,0.08,0.0,-0.04,0.32,0.32,0.32,0,1573.661083499901,1573.661083499901,1573.661083499901,1573.661083499901,1573.661083499901,1573.661083499901,1573.661083499901,1573.661083499901,1573.65534515013,6.457466800231487,return,6.325442700181156,,,,,,,,,,,,,,,,,,,,,,,,,,,,,,,,,K7ZVL8,train_y,blue_star,bottom_right,2025-04-30_15h44.52.934,HideSeek_v1,2022.2.5,59.943305510951454,
,6,3,6,6,0,3,64,,train_dim1_1,7,30,,,,2,0,2,0,,,,,,,,,0,0,0,0,0,6,6,6,1,0,1,0,,,,,,,,,,,,,,,,,,,,,,,,,,,,,,,,,,,,,,,,,,,,,,,,,,,,,,,,,,,,,,,,30,,,,,,,,1584.0952925002202,1584.0952925002202,1584.0952925002202,1584.0952925002202,1584.0952925002202,up,0.3426923002116382,1,0,0,99,0.32,0.0,up,0.25648569967597723,,,,,,,,,,,,,,,,,,,,,,,,,,,,,,,,,,,,,,,,,,,,,,,,,,,,,,,,,,,,K7ZVL8,train_y,blue_star,bottom_right,2025-04-30_15h44.52.934,HideSeek_v1,2022.2.5,59.943305510951454,
,6,3,6,6,0,3,64,,train_dim1_1,7,30,,,,2,0,2,0,,,,,,,,,0,0,0,0,0,6,6,6,2,0,2,0,,,,,,,,,,,,,,,,,,,,,,,,,,,,,,,,,,,,,,,,,,,,,,,,,,,,,,,,,,,,,,,,30,,,,,,,,1584.4445068999194,1584.4445068999194,1584.4445068999194,1584.4445068999194,1584.4445068999194,up,0.443216800224036,1,0,0,99,0.32,0.08,up,0.3667784002609551,,,,,,,,,,,,,,,,,,,,,,,,,,,,,,,,,,,,,,,,,,,,,,,,,,,,,,,,,,,,K7ZVL8,train_y,blue_star,bottom_right,2025-04-30_15h44.52.934,HideSeek_v1,2022.2.5,59.943305510951454,
,6,3,6,6,0,3,64,,train_dim1_1,7,30,,,,2,0,2,0,,,,,,,,,0,0,0,0,0,6,6,6,3,0,3,0,,,,,,,,,,,,,,,,,,,,,,,,,,,,,,,,,,,,,,,,,,,,,,,,,,,,,,,,,,,,,,,,30,,,,,,,,1584.8944649002515,1584.8944649002515,1584.8944649002515,1584.8944649002515,1584.8944649002515,up,0.4768351996317506,1,0,0,99,0.32,0.16,up,0.399435400031507,,,,,,,,,,,,,,,,,,,,,,,,,,,,,,,,,,,,,,,,,,,,,,,,,,,,,,,,,,,,K7ZVL8,train_y,blue_star,bottom_right,2025-04-30_15h44.52.934,HideSeek_v1,2022.2.5,59.943305510951454,
,6,3,6,6,0,3,64,,train_dim1_1,7,30,,,,2,0,2,0,,,,,,,,,0,0,0,0,0,6,6,6,4,0,4,0,,,,,,,,,,,,,,,,,,,,,,,,,,,,,,,,,,,,,,,,,,,,,,,,,,,,,,,,,,,,,,,,30,,,,,,,,1585.3781018001027,1585.3781018001027,1585.3781018001027,1585.3781018001027,1585.3781018001027,return,0.5936449002474546,1,1,0,0,0.32,0.16,return,0.5102540999650955,12,-9,0.32,0.16,,,,,,,,,,,,,,,,,,,,,,,,,,,,,,,,,,,,,,,,,,,,,,,,,,,,,,,,K7ZVL8,train_y,blue_star,bottom_right,2025-04-30_15h44.52.934,HideSeek_v1,2022.2.5,59.943305510951454,
,9,2,9,2,0,0,61,,train_dim1_1,8,30,,,,2,0,2,0,,,,,,,,,0,0,0,0,0,7,7,7,0,0,0,0,,,,,,,,,,,,,,,,,,,,,,,,,stimuli/alien_stimuli/61.png,,,,,,,,,,,,,,,,,,,,,,,,,,,,,stimuli/alien_stimuli/64.png,64,6,9,,,,,,,30,,,,,,,,1591.9241603999399,1591.9241603999399,1591.9241603999399,1591.9241603999399,1591.9241603999399,up,4.057506499812007,1,1,0,99,0.56,-0.15999999999999998,up,3.9825197998434305,,,,,1590.3690344002098,1591.9241603999399,0.32,0.08,0.24,0.0,-0.04,0.32,0.32,0.32,0.08,1587.5449382001534,1587.5449382001534,1587.5449382001534,1587.5449382001534,1587.5449382001534,1587.5449382001534,1587.5449382001534,1587.5449382001534,1587.5336761501153,2.938113800249994,return,2.806782499887049,,,,,,,,,,,,,,,,,,,,,,,,,,,,,,,,,K7ZVL8,train_y,blue_star,bottom_right,2025-04-30_15h44.52.934,HideSeek_v1,2022.2.5,59.943305510951454,
,9,2,9,2,0,0,61,,train_dim1_1,8,30,,,,2,0,2,0,,,,,,,,,0,0,0,0,0,7,7,7,1,0,1,0,,,,,,,,,,,,,,,,,,,,,,,,,,,,,,,,,,,,,,,,,,,,,,,,,,,,,,,,,,,,,,,,30,,,,,,,,1595.9873736998998,1595.9873736998998,1595.9873736998998,1595.9873736998998,1595.9873736998998,return,0.5096454001031816,1,1,0,0,0.56,-0.15999999999999998,return,0.42930749990046024,13,-9,0.56,-0.15999999999999998,,,,,,,,,,,,,,,,,,,,,,,,,,,,,,,,,,,,,,,,,,,,,,,,,,,,,,,,K7ZVL8,train_y,blue_star,bottom_right,2025-04-30_15h44.52.934,HideSeek_v1,2022.2.5,59.943305510951454,
,9,3,9,7,0,4,65,,train_dim1_1,9,30,,,,2,0,2,0,,,,,,,,,0,0,0,0,0,8,8,8,0,0,0,0,,,,,,,,,,,,,,,,,,,,,,,,,stimuli/alien_stimuli/65.png,,,,,,,,,,,,,,,,,,,,,,,,,,,,,stimuli/alien_stimuli/61.png,61,9,10,,,,,,,30,,,,,,,,1603.1972794001922,1603.1972794001922,1603.1972794001922,1603.1972794001922,1603.1972794001922,up,2.524589499924332,1,1,0,99,0.56,-0.08,up,2.4387079002335668,,,,,1601.6451877998188,1603.1972794001922,0.56,-0.24,0.0,0.0,-0.24,0.56,0.56,0.56,-0.24,1598.063251500018,1598.063251500018,1598.063251500018,1598.063251500018,1598.063251500018,1598.063251500018,1598.063251500018,1598.063251500018,1598.0593569500838,3.6880749999545515,return,3.5520755001343787,,,,,,,,,,,,,,,,,,,,,,,,,,,,,,,,,K7ZVL8,train_y,blue_star,bottom_right,2025-04-30_15h44.52.934,HideSeek_v1,2022.2.5,59.943305510951454,
,9,3,9,7,0,4,65,,train_dim1_1,9,30,,,,2,0,2,0,,,,,,,,,0,0,0,0,0,8,8,8,1,0,1,0,,,,,,,,,,,,,,,,,,,,,,,,,,,,,,,,,,,,,,,,,,,,,,,,,,,,,,,,,,,,,,,,30,,,,,,,,1605.729559800122,1605.729559800122,1605.729559800122,1605.729559800122,1605.729559800122,up,0.5762940999120474,1,1,0,99,0.56,0.0,up,0.48787730000913143,,,,,,,,,,,,,,,,,,,,,,,,,,,,,,,,,,,,,,,,,,,,,,,,,,,,,,,,,,,,K7ZVL8,train_y,blue_star,bottom_right,2025-04-30_15h44.52.934,HideSeek_v1,2022.2.5,59.943305510951454,
,9,3,9,7,0,4,65,,train_dim1_1,9,30,,,,2,0,2,0,,,,,,,,,0,0,0,0,0,8,8,8,2,0,2,0,,,,,,,,,,,,,,,,,,,,,,,,,,,,,,,,,,,,,,,,,,,,,,,,,,,,,,,,,,,,,,,,30,,,,,,,,1606.3122582002543,1606.3122582002543,1606.3122582002543,1606.3122582002543,1606.3122582002543,up,0.3770630997605622,1,1,0,99,0.56,0.08,up,0.29317469988018274,,,,,,,,,,,,,,,,,,,,,,,,,,,,,,,,,,,,,,,,,,,,,,,,,,,,,,,,,,,,K7ZVL8,train_y,blue_star,bottom_right,2025-04-30_15h44.52.934,HideSeek_v1,2022.2.5,59.943305510951454,
,9,3,9,7,0,4,65,,train_dim1_1,9,30,,,,2,0,2,0,,,,,,,,,0,0,0,0,0,8,8,8,3,0,3,0,,,,,,,,,,,,,,,,,,,,,,,,,,,,,,,,,,,,,,,,,,,,,,,,,,,,,,,,,,,,,,,,30,,,,,,,,1606.6961087998934,1606.6961087998934,1606.6961087998934,1606.6961087998934,1606.6961087998934,up,0.34312580013647676,1,1,0,99,0.56,0.16,up,0.2658897996880114,,,,,,,,,,,,,,,,,,,,,,,,,,,,,,,,,,,,,,,,,,,,,,,,,,,,,,,,,,,,K7ZVL8,train_y,blue_star,bottom_right,2025-04-30_15h44.52.934,HideSeek_v1,2022.2.5,59.943305510951454,
,9,3,9,7,0,4,65,,train_dim1_1,9,30,,,,2,0,2,0,,,,,,,,,0,0,0,0,0,8,8,8,4,0,4,0,,,,,,,,,,,,,,,,,,,,,,,,,,,,,,,,,,,,,,,,,,,,,,,,,,,,,,,,,,,,,,,,30,,,,,,,,1607.0462756999768,1607.0462756999768,1607.0462756999768,1607.0462756999768,1607.0462756999768,up,0.3936605001799762,1,1,0,99,0.56,0.24,up,0.32014030031859875,,,,,,,,,,,,,,,,,,,,,,,,,,,,,,,,,,,,,,,,,,,,,,,,,,,,,,,,,,,,K7ZVL8,train_y,blue_star,bottom_right,2025-04-30_15h44.52.934,HideSeek_v1,2022.2.5,59.943305510951454,
,9,3,9,7,0,4,65,,train_dim1_1,9,30,,,,2,0,2,0,,,,,,,,,0,0,0,0,0,8,8,8,5,0,5,0,,,,,,,,,,,,,,,,,,,,,,,,,,,,,,,,,,,,,,,,,,,,,,,,,,,,,,,,,,,,,,,,30,,,,,,,,1607.4467326002195,1607.4467326002195,1607.4467326002195,1607.4467326002195,1607.4467326002195,return,1.1272980002686381,1,1,0,0,0.56,0.24,return,1.044017399661243,18,-9,0.56,0.24,,,,,,,,,,,,,,,,,,,,,,,,,,,,,,,,,,,,,,,,,,,,,,,,,,,,,,,,K7ZVL8,train_y,blue_star,bottom_right,2025-04-30_15h44.52.934,HideSeek_v1,2022.2.5,59.943305510951454,
,7,2,7,7,0,5,66,,train_dim1_1,10,30,,,,2,0,2,0,,,,,,,,,0,0,0,0,0,9,9,9,0,0,0,0,,,,,,,,,,,,,,,,,,,,,,,,,stimuli/alien_stimuli/66.png,,,,,,,,,,,,,,,,,,,,,,,,,,,,,stimuli/alien_stimuli/65.png,65,9,11,,,,,,,30,,,,,,,,1613.7565342001617,1613.7565342001617,1613.7565342001617,1613.7565342001617,1613.7565342001617,up,2.038970099762082,1,1,0,99,0.4,-0.15999999999999998,up,1.9515732997097075,,,,,1612.203914700076,1613.7565342001617,0.56,0.16,0.32,0.0,0.0,0.56,0.56,0.56,0.16,1610.140112500172,1610.140112500172,1610.140112500172,1610.140112500172,1610.140112500172,1610.140112500172,1610.140112500172,1610.140112500172,1610.135641950043,2.1706236000172794,return,2.0343562001362443,,,,,,,,,,,,,,,,,,,,,,,,,,,,,,,,,K7ZVL8,train_y,blue_star,bottom_right,2025-04-30_15h44.52.934,HideSeek_v1,2022.2.5,59.943305510951454,
,7,2,7,7,0,5,66,,train_dim1_1,10,30,,,,2,0,2,0,,,,,,,,,0,0,0,0,0,9,9,9,1,0,1,0,,,,,,,,,,,,,,,,,,,,,,,,,,,,,,,,,,,,,,,,,,,,,,,,,,,,,,,,,,,,,,,,30,,,,,,,,1615.8036568001844,1615.8036568001844,1615.8036568001844,1615.8036568001844,1615.8036568001844,up,0.49309860030189157,1,1,0,99,0.4,-0.07999999999999997,up,0.40666079986840487,,,,,,,,,,,,,,,,,,,,,,,,,,,,,,,,,,,,,,,,,,,,,,,,,,,,,,,,,,,,K7ZVL8,train_y,blue_star,bottom_right,2025-04-30_15h44.52.934,HideSeek_v1,2022.2.5,59.943305510951454,
,7,2,7,7,0,5,66,,train_dim1_1,10,30,,,,2,0,2,0,,,,,,,,,0,0,0,0,0,9,9,9,2,0,2,0,,,,,,,,,,,,,,,,,,,,,,,,,,,,,,,,,,,,,,,,,,,,,,,,,,,,,,,,,,,,,,,,30,,,,,,,,1616.3038453999907,1616.3038453999907,1616.3038453999907,1616.3038453999907,1616.3038453999907,up,0.4938854002393782,1,1,0,99,0.4,2.7755575615628914e-17,up,0.4207378001883626,,,,,,,,,,,,,,,,,,,,,,,,,,,,,,,,,,,,,,,,,,,,,,,,,,,,,,,,,,,,K7ZVL8,train_y,blue_star,bottom_right,2025-04-30_15h44.52.934,HideSeek_v1,2022.2.5,59.943305510951454,
,7,2,7,7,0,5,66,,train_dim1_1,10,30,,,,2,0,2,0,,,,,,,,,0,0,0,0,0,9,9,9,3,0,3,0,,,,,,,,,,,,,,,,,,,,,,,,,,,,,,,,,,,,,,,,,,,,,,,,,,,,,,,,,,,,,,,,30,,,,,,,,1616.8100839001127,1616.8100839001127,1616.8100839001127,1616.8100839001127,1616.8100839001127,up,2.4947403999976814,1,1,0,99,0.4,0.08000000000000003,up,2.412246000021696,,,,,,,,,,,,,,,,,,,,,,,,,,,,,,,,,,,,,,,,,,,,,,,,,,,,,,,,,,,,K7ZVL8,train_y,blue_star,bottom_right,2025-04-30_15h44.52.934,HideSeek_v1,2022.2.5,59.943305510951454,
,7,2,7,7,0,5,66,,train_dim1_1,10,30,,,,2,0,2,0,,,,,,,,,0,0,0,0,0,9,9,9,4,0,4,0,,,,,,,,,,,,,,,,,,,,,,,,,,,,,,,,,,,,,,,,,,,,,,,,,,,,,,,,,,,,,,,,30,,,,,,,,1619.3062666999176,1619.3062666999176,1619.3062666999176,1619.3062666999176,1619.3062666999176,down,1.3609425998292863,1,1,0,99,0.4,2.7755575615628914e-17,down,1.2833120999857783,,,,,,,,,,,,,,,,,,,,,,,,,,,,,,,,,,,,,,,,,,,,,,,,,,,,,,,,,,,,K7ZVL8,train_y,blue_star,bottom_right,2025-04-30_15h44.52.934,HideSeek_v1,2022.2.5,59.943305510951454,
,7,2,7,7,0,5,66,,train_dim1_1,10,30,,,,2,0,2,0,,,,,,,,,0,0,0,0,0,9,9,9,5,0,5,0,,,,,,,,,,,,,,,,,,,,,,,,,,,,,,,,,,,,,,,,,,,,,,,,,,,,,,,,,,,,,,,,30,,,,,,,,1620.6746739000082,1620.6746739000082,1620.6746739000082,1620.6746739000082,1620.6746739000082,return,0.36002920009195805,1,0,0,0,0.4,2.7755575615628914e-17,return,0.2865459001623094,21,-9,0.4,2.7755575615628914e-17,,,,,,,,,,,,,,,,,,,,,,,,,,,,,,,,,,,,,,,,,,,,,,,,,,,,,,,,K7ZVL8,train_y,blue_star,bottom_right,2025-04-30_15h44.52.934,HideSeek_v1,2022.2.5,59.943305510951454,
,9,1,9,5,0,4,65,,train_dim1_1,11,30,,,,2,0,2,0,,,,,,,,,0,0,0,0,0,10,10,10,0,0,0,0,,,,,,,,,,,,,,,,,,,,,,,,,stimuli/alien_stimuli/65.png,,,,,,,,,,,,,,,,,,,,,,,,,,,,,stimuli/alien_stimuli/66.png,66,7,12,,,,,,,30,,,,,,,,1626.0427725999616,1626.0427725999616,1626.0427725999616,1626.0427725999616,1626.0427725999616,up,2.1987715996801853,1,0,0,99,0.56,-0.24,up,2.1163456002250314,,,,,1624.4808942000382,1626.0427725999616,0.4,0.16,0.4,0.0,-0.039999999999999994,0.4,0.4,0.4,0.16,1622.6014976999722,1622.6014976999722,1622.6014976999722,1622.6014976999722,1622.6014976999722,1622.6014976999722,1622.6014976999722,1622.6014976999722,1622.5959785500077,1.9873432000167668,return,1.8540313998237252,,,,,,,,,,,,,,,,,,,,,,,,,,,,,,,,,K7ZVL8,train_y,blue_star,bottom_right,2025-04-30_15h44.52.934,HideSeek_v1,2022.2.5,59.943305510951454,
,9,1,9,5,0,4,65,,train_dim1_1,11,30,,,,2,0,2,0,,,,,,,,,0,0,0,0,0,10,10,10,1,0,1,0,,,,,,,,,,,,,,,,,,,,,,,,,,,,,,,,,,,,,,,,,,,,,,,,,,,,,,,,,,,,,,,,30,,,,,,,,1628.2469946998172,1628.2469946998172,1628.2469946998172,1628.2469946998172,1628.2469946998172,up,0.37652389984577894,1,0,0,99,0.56,-0.15999999999999998,up,0.29300969978794456,,,,,,,,,,,,,,,,,,,,,,,,,,,,,,,,,,,,,,,,,,,,,,,,,,,,,,,,,,,,K7ZVL8,train_y,blue_star,bottom_right,2025-04-30_15h44.52.934,HideSeek_v1,2022.2.5,59.943305510951454,
,9,1,9,5,0,4,65,,train_dim1_1,11,30,,,,2,0,2,0,,,,,,,,,0,0,0,0,0,10,10,10,2,0,2,0,,,,,,,,,,,,,,,,,,,,,,,,,,,,,,,,,,,,,,,,,,,,,,,,,,,,,,,,,,,,,,,,30,,,,,,,,1628.6312716999091,1628.6312716999091,1628.6312716999091,1628.6312716999091,1628.6312716999091,up,0.3432293999940157,1,0,0,99,0.56,-0.07999999999999997,up,0.2545447996817529,,,,,,,,,,,,,,,,,,,,,,,,,,,,,,,,,,,,,,,,,,,,,,,,,,,,,,,,,,,,K7ZVL8,train_y,blue_star,bottom_right,2025-04-30_15h44.52.934,HideSeek_v1,2022.2.5,59.943305510951454,
,9,1,9,5,0,4,65,,train_dim1_1,11,30,,,,2,0,2,0,,,,,,,,,0,0,0,0,0,10,10,10,3,0,3,0,,,,,,,,,,,,,,,,,,,,,,,,,,,,,,,,,,,,,,,,,,,,,,,,,,,,,,,,,,,,,,,,30,,,,,,,,1628.981691800058,1628.981691800058,1628.981691800058,1628.981691800058,1628.981691800058,up,0.41011689975857735,1,0,0,99,0.56,2.7755575615628914e-17,up,0.3224722002632916,,,,,,,,,,,,,,,,,,,,,,,,,,,,,,,,,,,,,,,,,,,,,,,,,,,,,,,,,,,,K7ZVL8,train_y,blue_star,bottom_right,2025-04-30_15h44.52.934,HideSeek_v1,2022.2.5,59.943305510951454,
,9,1,9,5,0,4,65,,train_dim1_1,11,30,,,,2,0,2,0,,,,,,,,,0,0,0,0,0,10,10,10,4,0,4,0,,,,,,,,,,,,,,,,,,,,,,,,,,,,,,,,,,,,,,,,,,,,,,,,,,,,,,,,,,,,,,,,30,,,,,,,,1629.399980999995,1629.399980999995,1629.399980999995,1629.399980999995,1629.399980999995,return,0.510152599774301,2,0,0,1,0.56,2.7755575615628914e-17,return,0.43360659992322326,25,-9,0.56,2.7755575615628914e-17,,,,,,,,,,,,,,,,,,,,,,,,,,,,,,,,,,,,,,,,,,,,,,,,,,,,,,,,K7ZVL8,train_y,blue_star,bottom_right,2025-04-30_15h44.52.934,HideSeek_v1,2022.2.5,59.943305510951454,
,5,0,5,0,0,0,61,,train_dim1_1,12,30,,,,2,0,2,0,,,,,,,,,0,0,0,0,0,11,11,11,0,0,0,0,,,,,,,,,,,,,,,,,,,,,,,,,stimuli/alien_stimuli/61.png,,,,,,,,,,,,,,,,,,,,,,,,,,,,,stimuli/alien_stimuli/65.png,65,9,13,,,,,,,30,,,,,,,,1634.4572976999916,1634.4572976999916,1634.4572976999916,1634.4572976999916,1634.4572976999916,return,2.6901198998093605,3,0,0,1,0.24,-0.4,return,2.6081189000979066,25,-9,0.24,-0.4,1632.9045481001958,1634.4572976999916,0.56,0,0.32,0.0,-0.16,0.56,0.56,0.56,0,1631.460550900083,1631.460550900083,1631.460550900083,1631.460550900083,1631.460550900083,1631.460550900083,1631.460550900083,1631.460550900083,1631.4534135999158,1.5367616000585258,return,1.4220658000558615,,,,,,,,,,,,,,,,,,,,,,,,,,,,,,,,,K7ZVL8,train_y,blue_star,bottom_right,2025-04-30_15h44.52.934,HideSeek_v1,2022.2.5,59.943305510951454,
,9,3,9,4,0,1,62,,train_dim1_1,13,30,,,,2,0,2,0,,,,,,,,,0,0,0,0,0,12,12,12,0,0,0,0,,,,,,,,,,,,,,,,,,,,,,,,,stimuli/alien_stimuli/62.png,,,,,,,,,,,,,,,,,,,,,,,,,,,,,stimuli/alien_stimuli/61.png,61,5,14,,,,,,,30,,,,,,,,1643.8668689001352,1643.8668689001352,1643.8668689001352,1643.8668689001352,1643.8668689001352,up,1.6724694999866188,3,0,0,99,0.56,-0.08,up,1.590872900094837,,,,,1642.3123852000572,1643.8668689001352,0.24,-0.4,0.0,0.0,-0.4,0.24,0.24,0.24,-0.4,1638.6992573002353,1638.6992573002353,1638.6992573002353,1638.6992573002353,1638.6992573002353,1638.6992573002353,1638.6992573002353,1638.6992573002353,1638.6928834000603,3.705067299772054,return,3.588360899593681,,,,,,,,,,,,,,,,,,,,,,,,,,,,,,,,,K7ZVL8,train_y,blue_star,bottom_right,2025-04-30_15h44.52.934,HideSeek_v1,2022.2.5,59.943305510951454,
,9,3,9,4,0,1,62,,train_dim1_1,13,30,,,,2,0,2,0,,,,,,,,,0,0,0,0,0,12,12,12,1,0,1,0,,,,,,,,,,,,,,,,,,,,,,,,,,,,,,,,,,,,,,,,,,,,,,,,,,,,,,,,,,,,,,,,30,,,,,,,,1645.5462186001241,1645.5462186001241,1645.5462186001241,1645.5462186001241,1645.5462186001241,return,0.5431653996929526,4,0,0,1,0.56,-0.08,return,0.4590933001600206,26,-9,0.56,-0.08,,,,,,,,,,,,,,,,,,,,,,,,,,,,,,,,,,,,,,,,,,,,,,,,,,,,,,,,K7ZVL8,train_y,blue_star,bottom_right,2025-04-30_15h44.52.934,HideSeek_v1,2022.2.5,59.943305510951454,
,7,2,7,7,0,5,66,,train_dim1_1,14,30,,,,2,0,2,0,,,,,,,,,0,0,0,0,0,13,13,13,0,0,0,0,,,,,,,,,,,,,,,,,,,,,,,,,stimuli/alien_stimuli/66.png,,,,,,,,,,,,,,,,,,,,,,,,,,,,,stimuli/alien_stimuli/62.png,62,9,15,,,,,,,30,,,,,,,,1652.84091120027,1652.84091120027,1652.84091120027,1652.84091120027,1652.84091120027,up,1.6390546998009086,4,0,0,99,0.4,-0.15999999999999998,up,1.5579263996332884,,,,,1651.2865287000313,1652.84091120027,0.56,-0.08,0.08,0.0,-0.12,0.56,0.56,0.56,-0.08,1647.653945100028,1647.653945100028,1647.653945100028,1647.653945100028,1647.653945100028,1647.653945100028,1647.653945100028,1647.653945100028,1647.650426550163,3.738397399894893,return,3.611338899936527,,,,,,,,,,,,,,,,,,,,,,,,,,,,,,,,,K7ZVL8,train_y,blue_star,bottom_right,2025-04-30_15h44.52.934,HideSeek_v1,2022.2.5,59.943305510951454,
,7,2,7,7,0,5,66,,train_dim1_1,14,30,,,,2,0,2,0,,,,,,,,,0,0,0,0,0,13,13,13,1,0,1,0,,,,,,,,,,,,,,,,,,,,,,,,,,,,,,,,,,,,,,,,,,,,,,,,,,,,,,,,,,,,,,,,30,,,,,,,,1654.4960270999,1654.4960270999,1654.4960270999,1654.4960270999,1654.4960270999,up,0.47638090001419187,4,0,0,99,0.4,-0.07999999999999997,up,0.3888654001057148,,,,,,,,,,,,,,,,,,,,,,,,,,,,,,,,,,,,,,,,,,,,,,,,,,,,,,,,,,,,K7ZVL8,train_y,blue_star,bottom_right,2025-04-30_15h44.52.934,HideSeek_v1,2022.2.5,59.943305510951454,
,7,2,7,7,0,5,66,,train_dim1_1,14,30,,,,2,0,2,0,,,,,,,,,0,0,0,0,0,13,13,13,2,0,2,0,,,,,,,,,,,,,,,,,,,,,,,,,,,,,,,,,,,,,,,,,,,,,,,,,,,,,,,,,,,,,,,,30,,,,,,,,1654.9700664998963,1654.9700664998963,1654.9700664998963,1654.9700664998963,1654.9700664998963,up,0.3932143999263644,4,0,0,99,0.4,2.7755575615628914e-17,up,0.3058453002013266,,,,,,,,,,,,,,,,,,,,,,,,,,,,,,,,,,,,,,,,,,,,,,,,,,,,,,,,,,,,K7ZVL8,train_y,blue_star,bottom_right,2025-04-30_15h44.52.934,HideSeek_v1,2022.2.5,59.943305510951454,
,7,2,7,7,0,5,66,,train_dim1_1,14,30,,,,2,0,2,0,,,,,,,,,0,0,0,0,0,13,13,13,3,0,3,0,,,,,,,,,,,,,,,,,,,,,,,,,,,,,,,,,,,,,,,,,,,,,,,,,,,,,,,,,,,,,,,,30,,,,,,,,1655.3695799000561,1655.3695799000561,1655.3695799000561,1655.3695799000561,1655.3695799000561,up,0.4433730999007821,4,0,0,99,0.4,0.08000000000000003,up,0.3638431001454592,,,,,,,,,,,,,,,,,,,,,,,,,,,,,,,,,,,,,,,,,,,,,,,,,,,,,,,,,,,,K7ZVL8,train_y,blue_star,bottom_right,2025-04-30_15h44.52.934,HideSeek_v1,2022.2.5,59.943305510951454,
,7,2,7,7,0,5,66,,train_dim1_1,14,30,,,,2,0,2,0,,,,,,,,,0,0,0,0,0,13,13,13,4,0,4,0,,,,,,,,,,,,,,,,,,,,,,,,,,,,,,,,,,,,,,,,,,,,,,,,,,,,,,,,,,,,,,,,30,,,,,,,,1655.8202078002505,1655.8202078002505,1655.8202078002505,1655.8202078002505,1655.8202078002505,up,0.8938313997350633,4,0,0,99,0.4,0.16000000000000003,up,0.8216850999742746,,,,,,,,,,,,,,,,,,,,,,,,,,,,,,,,,,,,,,,,,,,,,,,,,,,,,,,,,,,,K7ZVL8,train_y,blue_star,bottom_right,2025-04-30_15h44.52.934,HideSeek_v1,2022.2.5,59.943305510951454,
,7,2,7,7,0,5,66,,train_dim1_1,14,30,,,,2,0,2,0,,,,,,,,,0,0,0,0,0,13,13,13,5,0,5,0,,,,,,,,,,,,,,,,,,,,,,,,,,,,,,,,,,,,,,,,,,,,,,,,,,,,,,,,,,,,,,,,30,,,,,,,,1656.7210030998103,1656.7210030998103,1656.7210030998103,1656.7210030998103,1656.7210030998103,return,1.2941882000304759,5,0,0,1,0.4,0.16000000000000003,return,1.207289599813521,31,-9,0.4,0.16000000000000003,,,,,,,,,,,,,,,,,,,,,,,,,,,,,,,,,,,,,,,,,,,,,,,,,,,,,,,,K7ZVL8,train_y,blue_star,bottom_right,2025-04-30_15h44.52.934,HideSeek_v1,2022.2.5,59.943305510951454,
,6,4,6,7,0,3,64,,train_dim1_1,15,30,,,,2,0,2,0,,,,,,,,,0,0,0,0,0,14,14,14,0,0,0,0,,,,,,,,,,,,,,,,,,,,,,,,,stimuli/alien_stimuli/64.png,,,,,,,,,,,,,,,,,,,,,,,,,,,,,stimuli/alien_stimuli/66.png,66,7,16,,,,,,,30,,,,,,,,1664.2826359998435,1664.2826359998435,1664.2826359998435,1664.2826359998435,1664.2826359998435,up,2.0560931996442378,5,0,0,99,0.32,0.0,up,1.9736885000020266,,,,,1662.7292519998737,1664.2826359998435,0.4,0.16,0.4,0.0,-0.039999999999999994,0.4,0.4,0.4,0.16,1659.5826407000422,1659.5826407000422,1659.5826407000422,1659.5826407000422,1659.5826407000422,1659.5826407000422,1659.5826407000422,1659.5826407000422,1659.5767515500543,3.2548255999572575,return,3.124724400229752,,,,,,,,,,,,,,,,,,,,,,,,,,,,,,,,,K7ZVL8,train_y,blue_star,bottom_right,2025-04-30_15h44.52.934,HideSeek_v1,2022.2.5,59.943305510951454,
,6,4,6,7,0,3,64,,train_dim1_1,15,30,,,,2,0,2,0,,,,,,,,,0,0,0,0,0,14,14,14,1,0,1,0,,,,,,,,,,,,,,,,,,,,,,,,,,,,,,,,,,,,,,,,,,,,,,,,,,,,,,,,,,,,,,,,30,,,,,,,,1666.3455921998248,1666.3455921998248,1666.3455921998248,1666.3455921998248,1666.3455921998248,up,0.393166100140661,5,0,0,99,0.32,0.08,up,0.30839139968156815,,,,,,,,,,,,,,,,,,,,,,,,,,,,,,,,,,,,,,,,,,,,,,,,,,,,,,,,,,,,K7ZVL8,train_y,blue_star,bottom_right,2025-04-30_15h44.52.934,HideSeek_v1,2022.2.5,59.943305510951454,
,6,4,6,7,0,3,64,,train_dim1_1,15,30,,,,2,0,2,0,,,,,,,,,0,0,0,0,0,14,14,14,2,0,2,0,,,,,,,,,,,,,,,,,,,,,,,,,,,,,,,,,,,,,,,,,,,,,,,,,,,,,,,,,,,,,,,,30,,,,,,,,1666.7461859001778,1666.7461859001778,1666.7461859001778,1666.7461859001778,1666.7461859001778,up,1.3441826002672315,5,0,0,99,0.32,0.16,up,1.2679534000344574,,,,,,,,,,,,,,,,,,,,,,,,,,,,,,,,,,,,,,,,,,,,,,,,,,,,,,,,,,,,K7ZVL8,train_y,blue_star,bottom_right,2025-04-30_15h44.52.934,HideSeek_v1,2022.2.5,59.943305510951454,
,6,4,6,7,0,3,64,,train_dim1_1,15,30,,,,2,0,2,0,,,,,,,,,0,0,0,0,0,14,14,14,3,0,3,0,,,,,,,,,,,,,,,,,,,,,,,,,,,,,,,,,,,,,,,,,,,,,,,,,,,,,,,,,,,,,,,,30,,,,,,,,1668.0970736001618,1668.0970736001618,1668.0970736001618,1668.0970736001618,1668.0970736001618,return,1.544342600274831,6,0,0,1,0.32,0.16,return,1.4710253002122045,34,-9,0.32,0.16,,,,,,,,,,,,,,,,,,,,,,,,,,,,,,,,,,,,,,,,,,,,,,,,,,,,,,,,K7ZVL8,train_y,blue_star,bottom_right,2025-04-30_15h44.52.934,HideSeek_v1,2022.2.5,59.943305510951454,
,9,0,9,4,0,4,65,,train_dim1_1,16,30,,,,2,0,2,0,,,,,,,,,0,0,0,0,0,15,15,15,0,0,0,0,,,,,,,,,,,,,,,,,,,,,,,,,stimuli/alien_stimuli/65.png,,,,,,,,,,,,,,,,,,,,,,,,,,,,,stimuli/alien_stimuli/64.png,64,6,17,,,,,,,30,,,,,,,,1675.706854400225,1675.706854400225,1675.706854400225,1675.706854400225,1675.706854400225,up,1.490513600409031,6,0,0,99,0.56,-0.32,up,1.4036673000082374,,,,,1674.1555429999717,1675.706854400225,0.32,0.16,0.24,0.0,0.04,0.32,0.32,0.32,0.16,1671.206613600254,1671.206613600254,1671.206613600254,1671.206613600254,1671.206613600254,1671.206613600254,1671.206613600254,1671.206613600254,1671.2030629500282,3.0545407999306917,return,2.9176517999731004,,,,,,,,,,,,,,,,,,,,,,,,,,,,,,,,,K7ZVL8,train_y,blue_star,bottom_right,2025-04-30_15h44.52.934,HideSeek_v1,2022.2.5,59.943305510951454,
,9,0,9,4,0,4,65,,train_dim1_1,16,30,,,,2,0,2,0,,,,,,,,,0,0,0,0,0,15,15,15,1,0,1,0,,,,,,,,,,,,,,,,,,,,,,,,,,,,,,,,,,,,,,,,,,,,,,,,,,,,,,,,,,,,,,,,30,,,,,,,,1677.2172082001343,1677.2172082001343,1677.2172082001343,1677.2172082001343,1677.2172082001343,up,0.3594733998179436,6,0,0,99,0.56,-0.24,up,0.25884610041975975,,,,,,,,,,,,,,,,,,,,,,,,,,,,,,,,,,,,,,,,,,,,,,,,,,,,,,,,,,,,K7ZVL8,train_y,blue_star,bottom_right,2025-04-30_15h44.52.934,HideSeek_v1,2022.2.5,59.943305510951454,
,9,0,9,4,0,4,65,,train_dim1_1,16,30,,,,2,0,2,0,,,,,,,,,0,0,0,0,0,15,15,15,2,0,2,0,,,,,,,,,,,,,,,,,,,,,,,,,,,,,,,,,,,,,,,,,,,,,,,,,,,,,,,,,,,,,,,,30,,,,,,,,1677.5711730001494,1677.5711730001494,1677.5711730001494,1677.5711730001494,1677.5711730001494,up,0.4100004998035729,6,0,0,99,0.56,-0.15999999999999998,up,0.335763200186193,,,,,,,,,,,,,,,,,,,,,,,,,,,,,,,,,,,,,,,,,,,,,,,,,,,,,,,,,,,,K7ZVL8,train_y,blue_star,bottom_right,2025-04-30_15h44.52.934,HideSeek_v1,2022.2.5,59.943305510951454,
,9,0,9,4,0,4,65,,train_dim1_1,16,30,,,,2,0,2,0,,,,,,,,,0,0,0,0,0,15,15,15,3,0,3,0,,,,,,,,,,,,,,,,,,,,,,,,,,,,,,,,,,,,,,,,,,,,,,,,,,,,,,,,,,,,,,,,30,,,,,,,,1677.9880278999917,1677.9880278999917,1677.9880278999917,1677.9880278999917,1677.9880278999917,up,0.7271901001222432,6,0,0,99,0.56,-0.07999999999999997,up,0.6391064999625087,,,,,,,,,,,,,,,,,,,,,,,,,,,,,,,,,,,,,,,,,,,,,,,,,,,,,,,,,,,,K7ZVL8,train_y,blue_star,bottom_right,2025-04-30_15h44.52.934,HideSeek_v1,2022.2.5,59.943305510951454,
,9,0,9,4,0,4,65,,train_dim1_1,16,30,,,,2,0,2,0,,,,,,,,,0,0,0,0,0,15,15,15,4,0,4,0,,,,,,,,,,,,,,,,,,,,,,,,,,,,,,,,,,,,,,,,,,,,,,,,,,,,,,,,,,,,,,,,30,,,,,,,,1678.7225302001461,1678.7225302001461,1678.7225302001461,1678.7225302001461,1678.7225302001461,return,2.1949255000799894,7,0,0,1,0.56,-0.07999999999999997,return,2.111682599876076,38,-9,0.56,-0.07999999999999997,,,,,,,,,,,,,,,,,,,,,,,,,,,,,,,,,,,,,,,,,,,,,,,,,,,,,,,,K7ZVL8,train_y,blue_star,bottom_right,2025-04-30_15h44.52.934,HideSeek_v1,2022.2.5,59.943305510951454,
,8,3,8,6,0,3,64,,train_dim1_1,17,30,,,,2,0,2,0,,,,,,,,,0,0,0,0,0,16,16,16,0,0,0,0,,,,,,,,,,,,,,,,,,,,,,,,,stimuli/alien_stimuli/64.png,,,,,,,,,,,,,,,,,,,,,,,,,,,,,stimuli/alien_stimuli/65.png,65,9,18,,,,,,,30,,,,,,,,1686.7008572001942,1686.7008572001942,1686.7008572001942,1686.7008572001942,1686.7008572001942,up,1.306291799992323,7,0,0,99,0.48,-0.08,up,1.2296465998515487,,,,,1685.148011900019,1686.7008572001942,0.56,-0.08,0.32,0.0,-0.24000000000000002,0.56,0.56,0.56,-0.08,1682.4825456999242,1682.4825456999242,1682.4825456999242,1682.4825456999242,1682.4825456999242,1682.4825456999242,1682.4825456999242,1682.4825456999242,1682.479200749984,2.771067200228572,return,2.645012699998915,,,,,,,,,,,,,,,,,,,,,,,,,,,,,,,,,K7ZVL8,train_y,blue_star,bottom_right,2025-04-30_15h44.52.934,HideSeek_v1,2022.2.5,59.943305510951454,
,8,3,8,6,0,3,64,,train_dim1_1,17,30,,,,2,0,2,0,,,,,,,,,0,0,0,0,0,16,16,16,1,0,1,0,,,,,,,,,,,,,,,,,,,,,,,,,,,,,,,,,,,,,,,,,,,,,,,,,,,,,,,,,,,,,,,,30,,,,,,,,1688.0141424001195,1688.0141424001195,1688.0141424001195,1688.0141424001195,1688.0141424001195,up,0.40963250026106834,7,0,0,99,0.48,0.0,up,0.3307300000451505,,,,,,,,,,,,,,,,,,,,,,,,,,,,,,,,,,,,,,,,,,,,,,,,,,,,,,,,,,,,K7ZVL8,train_y,blue_star,bottom_right,2025-04-30_15h44.52.934,HideSeek_v1,2022.2.5,59.943305510951454,
,8,3,8,6,0,3,64,,train_dim1_1,17,30,,,,2,0,2,0,,,,,,,,,0,0,0,0,0,16,16,16,2,0,2,0,,,,,,,,,,,,,,,,,,,,,,,,,,,,,,,,,,,,,,,,,,,,,,,,,,,,,,,,,,,,,,,,30,,,,,,,,1688.4299985999241,1688.4299985999241,1688.4299985999241,1688.4299985999241,1688.4299985999241,up,0.4768288000486791,7,0,0,99,0.48,0.08,up,0.3971317997202277,,,,,,,,,,,,,,,,,,,,,,,,,,,,,,,,,,,,,,,,,,,,,,,,,,,,,,,,,,,,K7ZVL8,train_y,blue_star,bottom_right,2025-04-30_15h44.52.934,HideSeek_v1,2022.2.5,59.943305510951454,
,8,3,8,6,0,3,64,,train_dim1_1,17,30,,,,2,0,2,0,,,,,,,,,0,0,0,0,0,16,16,16,3,0,3,0,,,,,,,,,,,,,,,,,,,,,,,,,,,,,,,,,,,,,,,,,,,,,,,,,,,,,,,,,,,,,,,,30,,,,,,,,1688.9160436000675,1688.9160436000675,1688.9160436000675,1688.9160436000675,1688.9160436000675,return,0.5100243003107607,8,0,0,1,0.48,0.08,return,0.42904930002987385,41,-9,0.48,0.08,,,,,,,,,,,,,,,,,,,,,,,,,,,,,,,,,,,,,,,,,,,,,,,,,,,,,,,,K7ZVL8,train_y,blue_star,bottom_right,2025-04-30_15h44.52.934,HideSeek_v1,2022.2.5,59.943305510951454,
,7,1,7,1,0,0,61,,train_dim1_1,18,30,,,,2,0,2,0,,,,,,,,,0,0,0,0,0,17,17,17,0,0,0,0,,,,,,,,,,,,,,,,,,,,,,,,,stimuli/alien_stimuli/61.png,,,,,,,,,,,,,,,,,,,,,,,,,,,,,stimuli/alien_stimuli/64.png,64,8,19,,,,,,,30,,,,,,,,1693.5730079002678,1693.5730079002678,1693.5730079002678,1693.5730079002678,1693.5730079002678,return,2.0074840001761913,9,0,0,1,0.4,-0.32,return,1.9319943999871612,41,-9,0.4,-0.32,1692.0203658998944,1693.5730079002678,0.48,0.08,0.24,0.0,-0.04,0.48,0.48,0.48,0.08,1690.97496329993,1690.97496329993,1690.97496329993,1690.97496329993,1690.97496329993,1690.97496329993,1690.97496329993,1690.97496329993,1690.9695467998274,1.1363977999426425,return,1.0244847000576556,,,,,,,,,,,,,,,,,,,,,,,,,,,,,,,,,K7ZVL8,train_y,blue_star,bottom_right,2025-04-30_15h44.52.934,HideSeek_v1,2022.2.5,59.943305510951454,
,5,4,5,5,0,1,62,,train_dim1_1,19,30,,,,2,0,2,0,,,,,,,,,0,0,0,0,0,18,18,18,0,0,0,0,,,,,,,,,,,,,,,,,,,,,,,,,stimuli/alien_stimuli/62.png,,,,,,,,,,,,,,,,,,,,,,,,,,,,,stimuli/alien_stimuli/61.png,61,7,20,,,,,,,30,,,,,,,,1700.1615229998715,1700.1615229998715,1700.1615229998715,1700.1615229998715,1700.1615229998715,up,0.9064819002524018,9,0,0,99,0.24,0.0,up,0.8267870000563562,,,,,1698.609084900003,1700.1615229998715,0.4,-0.32,0.0,0.0,-0.32,0.4,0.4,0.4,-0.32,1697.130721699912,1697.130721699912,1697.130721699912,1697.130721699912,1697.130721699912,1697.130721699912,1697.130721699912,1697.130721699912,1697.1246183000505,1.5704222000204027,return,1.4616807997226715,,,,,,,,,,,,,,,,,,,,,,,,,,,,,,,,,K7ZVL8,train_y,blue_star,bottom_right,2025-04-30_15h44.52.934,HideSeek_v1,2022.2.5,59.943305510951454,
,5,4,5,5,0,1,62,,train_dim1_1,19,30,,,,2,0,2,0,,,,,,,,,0,0,0,0,0,18,18,18,1,0,1,0,,,,,,,,,,,,,,,,,,,,,,,,,,,,,,,,,,,,,,,,,,,,,,,,,,,,,,,,,,,,,,,,30,,,,,,,,1701.075999900233,1701.075999900233,1701.075999900233,1701.075999900233,1701.075999900233,return,0.3430566997267306,10,0,0,1,0.24,0.0,return,0.26445800019428134,42,-9,0.24,0.0,,,,,,,,,,,,,,,,,,,,,,,,,,,,,,,,,,,,,,,,,,,,,,,,,,,,,,,,K7ZVL8,train_y,blue_star,bottom_right,2025-04-30_15h44.52.934,HideSeek_v1,2022.2.5,59.943305510951454,
,7,0,7,5,0,5,66,,train_dim1_1,20,30,,,,2,0,2,0,,,,,,,,,0,0,0,0,0,19,19,19,0,0,0,0,,,,,,,,,,,,,,,,,,,,,,,,,stimuli/alien_stimuli/66.png,,,,,,,,,,,,,,,,,,,,,,,,,,,,,stimuli/alien_stimuli/62.png,62,5,21,,,,,,,30,,,,,,,,1705.6016688998789,1705.6016688998789,1705.6016688998789,1705.6016688998789,1705.6016688998789,up,1.4382664998993278,10,0,0,99,0.4,-0.32,up,1.3488781000487506,,,,,1704.0469635999762,1705.6016688998789,0.24,0,0.08,0.0,-0.04,0.24,0.24,0.24,0,1702.969731000252,1702.969731000252,1702.969731000252,1702.969731000252,1702.969731000252,1702.969731000252,1702.969731000252,1702.969731000252,1702.9629201998935,1.169879499822855,return,1.058517999947071,,,,,,,,,,,,,,,,,,,,,,,,,,,,,,,,,K7ZVL8,train_y,blue_star,bottom_right,2025-04-30_15h44.52.934,HideSeek_v1,2022.2.5,59.943305510951454,
,7,0,7,5,0,5,66,,train_dim1_1,20,30,,,,2,0,2,0,,,,,,,,,0,0,0,0,0,19,19,19,1,0,1,0,,,,,,,,,,,,,,,,,,,,,,,,,,,,,,,,,,,,,,,,,,,,,,,,,,,,,,,,,,,,,,,,30,,,,,,,,1707.0461005000398,1707.0461005000398,1707.0461005000398,1707.0461005000398,1707.0461005000398,up,0.42617709981277585,10,0,0,99,0.4,-0.24,up,0.34127529989928007,,,,,,,,,,,,,,,,,,,,,,,,,,,,,,,,,,,,,,,,,,,,,,,,,,,,,,,,,,,,K7ZVL8,train_y,blue_star,bottom_right,2025-04-30_15h44.52.934,HideSeek_v1,2022.2.5,59.943305510951454,
,7,0,7,5,0,5,66,,train_dim1_1,20,30,,,,2,0,2,0,,,,,,,,,0,0,0,0,0,19,19,19,2,0,2,0,,,,,,,,,,,,,,,,,,,,,,,,,,,,,,,,,,,,,,,,,,,,,,,,,,,,,,,,,,,,,,,,30,,,,,,,,1707.4796331999823,1707.4796331999823,1707.4796331999823,1707.4796331999823,1707.4796331999823,up,0.29347110027447343,10,0,0,99,0.4,-0.15999999999999998,up,0.20578640000894666,,,,,,,,,,,,,,,,,,,,,,,,,,,,,,,,,,,,,,,,,,,,,,,,,,,,,,,,,,,,K7ZVL8,train_y,blue_star,bottom_right,2025-04-30_15h44.52.934,HideSeek_v1,2022.2.5,59.943305510951454,
,7,0,7,5,0,5,66,,train_dim1_1,20,30,,,,2,0,2,0,,,,,,,,,0,0,0,0,0,19,19,19,3,0,3,0,,,,,,,,,,,,,,,,,,,,,,,,,,,,,,,,,,,,,,,,,,,,,,,,,,,,,,,,,,,,,,,,30,,,,,,,,1707.7841294999234,1707.7841294999234,1707.7841294999234,1707.7841294999234,1707.7841294999234,up,0.2767793000675738,10,0,0,99,0.4,-0.07999999999999997,up,0.19947110023349524,,,,,,,,,,,,,,,,,,,,,,,,,,,,,,,,,,,,,,,,,,,,,,,,,,,,,,,,,,,,K7ZVL8,train_y,blue_star,bottom_right,2025-04-30_15h44.52.934,HideSeek_v1,2022.2.5,59.943305510951454,
,7,0,7,5,0,5,66,,train_dim1_1,20,30,,,,2,0,2,0,,,,,,,,,0,0,0,0,0,19,19,19,4,0,4,0,,,,,,,,,,,,,,,,,,,,,,,,,,,,,,,,,,,,,,,,,,,,,,,,,,,,,,,,,,,,,,,,30,,,,,,,,1708.0641040001065,1708.0641040001065,1708.0641040001065,1708.0641040001065,1708.0641040001065,up,0.3270173999480903,10,0,0,99,0.4,2.7755575615628914e-17,up,0.24478820012882352,,,,,,,,,,,,,,,,,,,,,,,,,,,,,,,,,,,,,,,,,,,,,,,,,,,,,,,,,,,,K7ZVL8,train_y,blue_star,bottom_right,2025-04-30_15h44.52.934,HideSeek_v1,2022.2.5,59.943305510951454,
,7,0,7,5,0,5,66,,train_dim1_1,20,30,,,,2,0,2,0,,,,,,,,,0,0,0,0,0,19,19,19,5,0,5,0,,,,,,,,,,,,,,,,,,,,,,,,,,,,,,,,,,,,,,,,,,,,,,,,,,,,,,,,,,,,,,,,30,,,,,,,,1708.397019200027,1708.397019200027,1708.397019200027,1708.397019200027,1708.397019200027,return,0.3765599001199007,11,0,0,1,0.4,2.7755575615628914e-17,return,0.30512400018051267,47,-9,0.4,2.7755575615628914e-17,,,,,,,,,,,,,,,,,,,,,,,,,,,,,,,,,,,,,,,,,,,,,,,,,,,,,,,,K7ZVL8,train_y,blue_star,bottom_right,2025-04-30_15h44.52.934,HideSeek_v1,2022.2.5,59.943305510951454,
,7,4,7,8,0,4,65,,train_dim1_1,21,30,,,,2,0,2,0,,,,,,,,,0,0,0,0,0,20,20,20,0,0,0,0,,,,,,,,,,,,,,,,,,,,,,,,,stimuli/alien_stimuli/65.png,,,,,,,,,,,,,,,,,,,,,,,,,,,,,stimuli/alien_stimuli/66.png,66,7,22,,,,,,,30,,,,,,,,1713.1972236000001,1713.1972236000001,1713.1972236000001,1713.1972236000001,1713.1972236000001,up,1.1557017001323402,11,0,0,99,0.4,0.0,up,1.0668434998951852,,,,,1711.6366838999093,1710.3231742000207,0.4,0,0.4,0.0,-0.2,0.4,0.4,0.4,0,1710.3231742000207,1710.3231742000207,1710.3231742000207,1710.3231742000207,1710.3231742000207,1710.3231742000207,1710.3231742000207,1710.3231742000207,1710.3187685998157,1.399785399902612,return,1.283984299749136,,,,,,,,,,,,,,,,,,,,,,,,,,,,,,,,,K7ZVL8,train_y,blue_star,bottom_right,2025-04-30_15h44.52.934,HideSeek_v1,2022.2.5,59.943305510951454,
,7,4,7,8,0,4,65,,train_dim1_1,21,30,,,,2,0,2,0,,,,,,,,,0,0,0,0,0,20,20,20,1,0,1,0,,,,,,,,,,,,,,,,,,,,,,,,,,,,,,,,,,,,,,,,,,,,,,,,,,,,,,,,,,,,,,,,30,,,,,,,,1714.355479999911,1714.355479999911,1714.355479999911,1714.355479999911,1714.355479999911,up,0.27630280004814267,11,0,0,99,0.4,0.08,up,0.19260149961337447,,,,,,,,,,,,,,,,,,,,,,,,,,,,,,,,,,,,,,,,,,,,,,,,,,,,,,,,,,,,K7ZVL8,train_y,blue_star,bottom_right,2025-04-30_15h44.52.934,HideSeek_v1,2022.2.5,59.943305510951454,
,7,4,7,8,0,4,65,,train_dim1_1,21,30,,,,2,0,2,0,,,,,,,,,0,0,0,0,0,20,20,20,2,0,2,0,,,,,,,,,,,,,,,,,,,,,,,,,,,,,,,,,,,,,,,,,,,,,,,,,,,,,,,,,,,,,,,,30,,,,,,,,1714.636217799969,1714.636217799969,1714.636217799969,1714.636217799969,1714.636217799969,up,0.29337790003046393,11,0,0,99,0.4,0.16,up,0.2089840997941792,,,,,,,,,,,,,,,,,,,,,,,,,,,,,,,,,,,,,,,,,,,,,,,,,,,,,,,,,,,,K7ZVL8,train_y,blue_star,bottom_right,2025-04-30_15h44.52.934,HideSeek_v1,2022.2.5,59.943305510951454,
,7,4,7,8,0,4,65,,train_dim1_1,21,30,,,,2,0,2,0,,,,,,,,,0,0,0,0,0,20,20,20,3,0,3,0,,,,,,,,,,,,,,,,,,,,,,,,,,,,,,,,,,,,,,,,,,,,,,,,,,,,,,,,,,,,,,,,30,,,,,,,,1714.9364367998205,1714.9364367998205,1714.9364367998205,1714.9364367998205,1714.9364367998205,up,0.8769932999275625,11,0,0,99,0.4,0.24,up,0.7935921000316739,,,,,,,,,,,,,,,,,,,,,,,,,,,,,,,,,,,,,,,,,,,,,,,,,,,,,,,,,,,,K7ZVL8,train_y,blue_star,bottom_right,2025-04-30_15h44.52.934,HideSeek_v1,2022.2.5,59.943305510951454,
,7,4,7,8,0,4,65,,train_dim1_1,21,30,,,,2,0,2,0,,,,,,,,,0,0,0,0,0,20,20,20,4,0,4,0,,,,,,,,,,,,,,,,,,,,,,,,,,,,,,,,,,,,,,,,,,,,,,,,,,,,,,,,,,,,,,,,30,,,,,,,,1715.8206035001203,1715.8206035001203,1715.8206035001203,1715.8206035001203,1715.8206035001203,return,0.34318940015509725,12,0,0,1,0.4,0.24,return,0.2592303999699652,51,-9,0.4,0.24,,,,,,,,,,,,,,,,,,,,,,,,,,,,,,,,,,,,,,,,,,,,,,,,,,,,,,,,K7ZVL8,train_y,blue_star,bottom_right,2025-04-30_15h44.52.934,HideSeek_v1,2022.2.5,59.943305510951454,
,5,2,5,5,0,3,64,,train_dim1_1,22,30,,,,2,0,2,0,,,,,,,,,0,0,0,0,0,21,21,21,0,0,0,0,,,,,,,,,,,,,,,,,,,,,,,,,stimuli/alien_stimuli/64.png,,,,,,,,,,,,,,,,,,,,,,,,,,,,,stimuli/alien_stimuli/65.png,65,7,23,,,,,,,30,,,,,,,,1720.4171230001375,1720.4171230001375,1720.4171230001375,1720.4171230001375,1720.4171230001375,up,0.905150099657476,12,0,0,99,0.24,-0.15999999999999998,up,0.8147852001711726,,,,,1718.8593997000717,1720.4171230001375,0.4,0.24,0.32,0.0,0.07999999999999999,0.4,0.4,0.4,0.24,1717.7128038001247,1717.7128038001247,1717.7128038001247,1717.7128038001247,1717.7128038001247,1717.7128038001247,1717.7128038001247,1717.7128038001247,1717.7084807001986,1.2373484000563622,return,1.1150970002636313,,,,,,,,,,,,,,,,,,,,,,,,,,,,,,,,,K7ZVL8,train_y,blue_star,bottom_right,2025-04-30_15h44.52.934,HideSeek_v1,2022.2.5,59.943305510951454,
,5,2,5,5,0,3,64,,train_dim1_1,22,30,,,,2,0,2,0,,,,,,,,,0,0,0,0,0,21,21,21,1,0,1,0,,,,,,,,,,,,,,,,,,,,,,,,,,,,,,,,,,,,,,,,,,,,,,,,,,,,,,,,,,,,,,,,30,,,,,,,,1721.3247704999521,1721.3247704999521,1721.3247704999521,1721.3247704999521,1721.3247704999521,up,0.2093120999634266,12,0,0,99,0.24,-0.07999999999999997,up,0.12920159986242652,,,,,,,,,,,,,,,,,,,,,,,,,,,,,,,,,,,,,,,,,,,,,,,,,,,,,,,,,,,,K7ZVL8,train_y,blue_star,bottom_right,2025-04-30_15h44.52.934,HideSeek_v1,2022.2.5,59.943305510951454,
,5,2,5,5,0,3,64,,train_dim1_1,22,30,,,,2,0,2,0,,,,,,,,,0,0,0,0,0,21,21,21,2,0,2,0,,,,,,,,,,,,,,,,,,,,,,,,,,,,,,,,,,,,,,,,,,,,,,,,,,,,,,,,,,,,,,,,30,,,,,,,,1721.5440895999782,1721.5440895999782,1721.5440895999782,1721.5440895999782,1721.5440895999782,up,0.19325479958206415,12,0,0,99,0.24,2.7755575615628914e-17,up,0.1173220002092421,,,,,,,,,,,,,,,,,,,,,,,,,,,,,,,,,,,,,,,,,,,,,,,,,,,,,,,,,,,,K7ZVL8,train_y,blue_star,bottom_right,2025-04-30_15h44.52.934,HideSeek_v1,2022.2.5,59.943305510951454,
,5,2,5,5,0,3,64,,train_dim1_1,22,30,,,,2,0,2,0,,,,,,,,,0,0,0,0,0,21,21,21,3,0,3,0,,,,,,,,,,,,,,,,,,,,,,,,,,,,,,,,,,,,,,,,,,,,,,,,,,,,,,,,,,,,,,,,30,,,,,,,,1721.7419217000715,1721.7419217000715,1721.7419217000715,1721.7419217000715,1721.7419217000715,return,0.49351940024644136,13,0,0,1,0.24,2.7755575615628914e-17,return,0.4152442002668977,54,-9,0.24,2.7755575615628914e-17,,,,,,,,,,,,,,,,,,,,,,,,,,,,,,,,,,,,,,,,,,,,,,,,,,,,,,,,K7ZVL8,train_y,blue_star,bottom_right,2025-04-30_15h44.52.934,HideSeek_v1,2022.2.5,59.943305510951454,
,5,3,5,3,0,0,61,,train_dim1_1,23,30,,,,2,0,2,0,,,,,,,,,0,0,0,0,0,22,22,22,0,0,0,0,,,,,,,,,,,,,,,,,,,,,,,,,stimuli/alien_stimuli/61.png,,,,,,,,,,,,,,,,,,,,,,,,,,,,,stimuli/alien_stimuli/64.png,64,5,24,,,,,,,30,,,,,,,,1726.8014426999725,1726.8014426999725,1726.8014426999725,1726.8014426999725,1726.8014426999725,return,1.2382865003310144,14,0,0,1,0.24,-0.16,return,1.1517150001600385,54,-9,0.24,-0.16,1725.2477752999403,1726.8014426999725,0.24,0,0.24,0.0,-0.12,0.24,0.24,0.24,0,1723.7850931999274,1723.7850931999274,1723.7850931999274,1723.7850931999274,1723.7850931999274,1723.7850931999274,1723.7850931999274,1723.7850931999274,1723.7800140998327,1.5534521997906268,return,1.432394000235945,,,,,,,,,,,,,,,,,,,,,,,,,,,,,,,,,K7ZVL8,train_y,blue_star,bottom_right,2025-04-30_15h44.52.934,HideSeek_v1,2022.2.5,59.943305510951454,
,8,2,8,7,0,5,66,,train_dim1_1,24,30,,,,2,0,2,0,,,,,,,,,0,0,0,0,0,23,23,23,0,0,0,0,,,,,,,,,,,,,,,,,,,,,,,,,stimuli/alien_stimuli/66.png,,,,,,,,,,,,,,,,,,,,,,,,,,,,,stimuli/alien_stimuli/61.png,61,5,25,,,,,,,30,,,,,,,,1731.6551341000013,1731.6551341000013,1731.6551341000013,1731.6551341000013,1731.6551341000013,up,1.372195000294596,14,0,0,99,0.48,-0.15999999999999998,up,1.2880033999681473,,,,,1730.102071700152,1731.6551341000013,0.24,-0.16,0.0,0.0,-0.16,0.24,0.24,0.24,-0.16,1729.591394300107,1729.591394300107,1729.591394300107,1729.591394300107,1729.591394300107,1729.591394300107,1729.591394300107,1729.591394300107,1729.5851494998672,0.6026894003152847,return,0.49180039996281266,,,,,,,,,,,,,,,,,,,,,,,,,,,,,,,,,K7ZVL8,train_y,blue_star,bottom_right,2025-04-30_15h44.52.934,HideSeek_v1,2022.2.5,59.943305510951454,
,8,2,8,7,0,5,66,,train_dim1_1,24,30,,,,2,0,2,0,,,,,,,,,0,0,0,0,0,23,23,23,1,0,1,0,,,,,,,,,,,,,,,,,,,,,,,,,,,,,,,,,,,,,,,,,,,,,,,,,,,,,,,,,,,,,,,,30,,,,,,,,1733.0353581001982,1733.0353581001982,1733.0353581001982,1733.0353581001982,1733.0353581001982,up,0.35958960000425577,14,0,0,99,0.48,-0.07999999999999997,up,0.2840781998820603,,,,,,,,,,,,,,,,,,,,,,,,,,,,,,,,,,,,,,,,,,,,,,,,,,,,,,,,,,,,K7ZVL8,train_y,blue_star,bottom_right,2025-04-30_15h44.52.934,HideSeek_v1,2022.2.5,59.943305510951454,
,8,2,8,7,0,5,66,,train_dim1_1,24,30,,,,2,0,2,0,,,,,,,,,0,0,0,0,0,23,23,23,2,0,2,0,,,,,,,,,,,,,,,,,,,,,,,,,,,,,,,,,,,,,,,,,,,,,,,,,,,,,,,,,,,,,,,,30,,,,,,,,1733.4012202001177,1733.4012202001177,1733.4012202001177,1733.4012202001177,1733.4012202001177,up,0.2100416999310255,14,0,0,99,0.48,2.7755575615628914e-17,up,0.12162749981507659,,,,,,,,,,,,,,,,,,,,,,,,,,,,,,,,,,,,,,,,,,,,,,,,,,,,,,,,,,,,K7ZVL8,train_y,blue_star,bottom_right,2025-04-30_15h44.52.934,HideSeek_v1,2022.2.5,59.943305510951454,
,8,2,8,7,0,5,66,,train_dim1_1,24,30,,,,2,0,2,0,,,,,,,,,0,0,0,0,0,23,23,23,3,0,3,0,,,,,,,,,,,,,,,,,,,,,,,,,,,,,,,,,,,,,,,,,,,,,,,,,,,,,,,,,,,,,,,,30,,,,,,,,1733.6194151001982,1733.6194151001982,1733.6194151001982,1733.6194151001982,1733.6194151001982,up,0.22657800000160933,14,0,0,99,0.48,0.08000000000000003,up,0.14049819996580482,,,,,,,,,,,,,,,,,,,,,,,,,,,,,,,,,,,,,,,,,,,,,,,,,,,,,,,,,,,,K7ZVL8,train_y,blue_star,bottom_right,2025-04-30_15h44.52.934,HideSeek_v1,2022.2.5,59.943305510951454,
,8,2,8,7,0,5,66,,train_dim1_1,24,30,,,,2,0,2,0,,,,,,,,,0,0,0,0,0,23,23,23,4,0,4,0,,,,,,,,,,,,,,,,,,,,,,,,,,,,,,,,,,,,,,,,,,,,,,,,,,,,,,,,,,,,,,,,30,,,,,,,,1733.8516762000509,1733.8516762000509,1733.8516762000509,1733.8516762000509,1733.8516762000509,up,0.22673780005425215,14,0,0,99,0.48,0.16000000000000003,up,0.1382422996684909,,,,,,,,,,,,,,,,,,,,,,,,,,,,,,,,,,,,,,,,,,,,,,,,,,,,,,,,,,,,K7ZVL8,train_y,blue_star,bottom_right,2025-04-30_15h44.52.934,HideSeek_v1,2022.2.5,59.943305510951454,
,8,2,8,7,0,5,66,,train_dim1_1,24,30,,,,2,0,2,0,,,,,,,,,0,0,0,0,0,23,23,23,5,0,5,0,,,,,,,,,,,,,,,,,,,,,,,,,,,,,,,,,,,,,,,,,,,,,,,,,,,,,,,,,,,,,,,,30,,,,,,,,1734.0857239002362,1734.0857239002362,1734.0857239002362,1734.0857239002362,1734.0857239002362,return,0.39326729997992516,15,0,0,1,0.48,0.16000000000000003,return,0.3194756000302732,59,-9,0.48,0.16000000000000003,,,,,,,,,,,,,,,,,,,,,,,,,,,,,,,,,,,,,,,,,,,,,,,,,,,,,,,,K7ZVL8,train_y,blue_star,bottom_right,2025-04-30_15h44.52.934,HideSeek_v1,2022.2.5,59.943305510951454,
,8,3,8,4,0,1,62,,train_dim1_1,25,30,,,,2,0,2,0,,,,,,,,,0,0,0,0,0,24,24,24,0,0,0,0,,,,,,,,,,,,,,,,,,,,,,,,,stimuli/alien_stimuli/62.png,,,,,,,,,,,,,,,,,,,,,,,,,,,,,stimuli/alien_stimuli/66.png,66,8,26,,,,,,,30,,,,,,,,1739.0117219001986,1739.0117219001986,1739.0117219001986,1739.0117219001986,1739.0117219001986,up,1.5558476001024246,15,0,0,99,0.48,-0.08,up,1.4809866999275982,,,,,1737.4580377000384,1739.0117219001986,0.48,0.16,0.4,0.0,-0.039999999999999994,0.48,0.48,0.48,0.16,1736.0277796001174,1736.0277796001174,1736.0277796001174,1736.0277796001174,1736.0277796001174,1736.0277796001174,1736.0277796001174,1736.0277796001174,1736.023674700223,1.5200523999519646,return,1.403304500039667,,,,,,,,,,,,,,,,,,,,,,,,,,,,,,,,,K7ZVL8,train_y,blue_star,bottom_right,2025-04-30_15h44.52.934,HideSeek_v1,2022.2.5,59.943305510951454,
,8,3,8,4,0,1,62,,train_dim1_1,25,30,,,,2,0,2,0,,,,,,,,,0,0,0,0,0,24,24,24,1,0,1,0,,,,,,,,,,,,,,,,,,,,,,,,,,,,,,,,,,,,,,,,,,,,,,,,,,,,,,,,,,,,,,,,30,,,,,,,,1740.5751638999209,1740.5751638999209,1740.5751638999209,1740.5751638999209,1740.5751638999209,return,0.44251439999789,16,0,0,1,0.48,-0.08,return,0.36194249987602234,60,-9,0.48,-0.08,,,,,,,,,,,,,,,,,,,,,,,,,,,,,,,,,,,,,,,,,,,,,,,,,,,,,,,,K7ZVL8,train_y,blue_star,bottom_right,2025-04-30_15h44.52.934,HideSeek_v1,2022.2.5,59.943305510951454,
,9,4,9,7,0,3,64,,train_dim1_1,26,30,,,,2,0,2,0,,,,,,,,,0,0,0,0,0,25,25,25,0,0,0,0,,,,,,,,,,,,,,,,,,,,,,,,,stimuli/alien_stimuli/64.png,,,,,,,,,,,,,,,,,,,,,,,,,,,,,stimuli/alien_stimuli/62.png,62,8,27,,,,,,,30,,,,,,,,1745.1643722001463,1745.1643722001463,1745.1643722001463,1745.1643722001463,1745.1643722001463,up,0.973367300350219,16,0,0,99,0.56,0.0,up,0.8913803002797067,,,,,1743.6132172001526,1745.1643722001463,0.48,-0.08,0.08,0.0,-0.12,0.48,0.48,0.48,-0.08,1742.5869809002616,1742.5869809002616,1742.5869809002616,1742.5869809002616,1742.5869809002616,1742.5869809002616,1742.5869809002616,1742.5869809002616,1742.5791285497603,1.1364354998804629,return,0.9989779996685684,,,,,,,,,,,,,,,,,,,,,,,,,,,,,,,,,K7ZVL8,train_y,blue_star,bottom_right,2025-04-30_15h44.52.934,HideSeek_v1,2022.2.5,59.943305510951454,
,9,4,9,7,0,3,64,,train_dim1_1,26,30,,,,2,0,2,0,,,,,,,,,0,0,0,0,0,25,25,25,1,0,1,0,,,,,,,,,,,,,,,,,,,,,,,,,,,,,,,,,,,,,,,,,,,,,,,,,,,,,,,,,,,,,,,,30,,,,,,,,1746.1565812001936,1746.1565812001936,1746.1565812001936,1746.1565812001936,1746.1565812001936,up,0.22618689993396401,16,0,0,99,0.56,0.08,up,0.1377301001921296,,,,,,,,,,,,,,,,,,,,,,,,,,,,,,,,,,,,,,,,,,,,,,,,,,,,,,,,,,,,K7ZVL8,train_y,blue_star,bottom_right,2025-04-30_15h44.52.934,HideSeek_v1,2022.2.5,59.943305510951454,
,9,4,9,7,0,3,64,,train_dim1_1,26,30,,,,2,0,2,0,,,,,,,,,0,0,0,0,0,25,25,25,2,0,2,0,,,,,,,,,,,,,,,,,,,,,,,,,,,,,,,,,,,,,,,,,,,,,,,,,,,,,,,,,,,,,,,,30,,,,,,,,1746.3793112998828,1746.3793112998828,1746.3793112998828,1746.3793112998828,1746.3793112998828,up,0.2099110996350646,16,0,0,99,0.56,0.16,up,0.12941090017557144,,,,,,,,,,,,,,,,,,,,,,,,,,,,,,,,,,,,,,,,,,,,,,,,,,,,,,,,,,,,K7ZVL8,train_y,blue_star,bottom_right,2025-04-30_15h44.52.934,HideSeek_v1,2022.2.5,59.943305510951454,
,9,4,9,7,0,3,64,,train_dim1_1,26,30,,,,2,0,2,0,,,,,,,,,0,0,0,0,0,25,25,25,3,0,3,0,,,,,,,,,,,,,,,,,,,,,,,,,,,,,,,,,,,,,,,,,,,,,,,,,,,,,,,,,,,,,,,,30,,,,,,,,1746.595392699819,1746.595392699819,1746.595392699819,1746.595392699819,1746.595392699819,return,0.3767295000143349,17,0,0,1,0.56,0.16,return,0.3046063003130257,63,-9,0.56,0.16,,,,,,,,,,,,,,,,,,,,,,,,,,,,,,,,,,,,,,,,,,,,,,,,,,,,,,,,K7ZVL8,train_y,blue_star,bottom_right,2025-04-30_15h44.52.934,HideSeek_v1,2022.2.5,59.943305510951454,
,8,4,8,9,0,5,66,,train_dim1_1,27,30,,,,2,0,2,0,,,,,,,,,0,0,0,0,0,26,26,26,0,0,0,0,,,,,,,,,,,,,,,,,,,,,,,,,stimuli/alien_stimuli/66.png,,,,,,,,,,,,,,,,,,,,,,,,,,,,,stimuli/alien_stimuli/64.png,64,9,28,,,,,,,30,,,,,,,,1752.0197573001496,1752.0197573001496,1752.0197573001496,1752.0197573001496,1752.0197573001496,up,1.7078761998564005,17,0,0,99,0.48,0.0,up,1.631012899801135,,,,,1750.4689807002433,1752.0197573001496,0.56,0.16,0.24,0.0,0.04,0.56,0.56,0.56,0.16,1748.5268188999034,1748.5268188999034,1748.5268188999034,1748.5268188999034,1748.5268188999034,1748.5268188999034,1748.5268188999034,1748.5268188999034,1748.516938099917,2.0378334997221828,return,1.923434800002724,,,,,,,,,,,,,,,,,,,,,,,,,,,,,,,,,K7ZVL8,train_y,blue_star,bottom_right,2025-04-30_15h44.52.934,HideSeek_v1,2022.2.5,59.943305510951454,
,8,4,8,9,0,5,66,,train_dim1_1,27,30,,,,2,0,2,0,,,,,,,,,0,0,0,0,0,26,26,26,1,0,1,0,,,,,,,,,,,,,,,,,,,,,,,,,,,,,,,,,,,,,,,,,,,,,,,,,,,,,,,,,,,,,,,,30,,,,,,,,1753.7356539000757,1753.7356539000757,1753.7356539000757,1753.7356539000757,1753.7356539000757,up,0.34339019982144237,17,0,0,99,0.48,0.08,up,0.2693126001395285,,,,,,,,,,,,,,,,,,,,,,,,,,,,,,,,,,,,,,,,,,,,,,,,,,,,,,,,,,,,K7ZVL8,train_y,blue_star,bottom_right,2025-04-30_15h44.52.934,HideSeek_v1,2022.2.5,59.943305510951454,
,8,4,8,9,0,5,66,,train_dim1_1,27,30,,,,2,0,2,0,,,,,,,,,0,0,0,0,0,26,26,26,2,0,2,0,,,,,,,,,,,,,,,,,,,,,,,,,,,,,,,,,,,,,,,,,,,,,,,,,,,,,,,,,,,,,,,,30,,,,,,,,1754.0853639999405,1754.0853639999405,1754.0853639999405,1754.0853639999405,1754.0853639999405,up,0.22599609987810254,17,0,0,99,0.48,0.16,up,0.1449674996547401,,,,,,,,,,,,,,,,,,,,,,,,,,,,,,,,,,,,,,,,,,,,,,,,,,,,,,,,,,,,K7ZVL8,train_y,blue_star,bottom_right,2025-04-30_15h44.52.934,HideSeek_v1,2022.2.5,59.943305510951454,
,8,4,8,9,0,5,66,,train_dim1_1,27,30,,,,2,0,2,0,,,,,,,,,0,0,0,0,0,26,26,26,3,0,3,0,,,,,,,,,,,,,,,,,,,,,,,,,,,,,,,,,,,,,,,,,,,,,,,,,,,,,,,,,,,,,,,,30,,,,,,,,1754.318470200058,1754.318470200058,1754.318470200058,1754.318470200058,1754.318470200058,up,0.21000130008906126,17,0,0,99,0.48,0.24,up,0.12976309983059764,,,,,,,,,,,,,,,,,,,,,,,,,,,,,,,,,,,,,,,,,,,,,,,,,,,,,,,,,,,,K7ZVL8,train_y,blue_star,bottom_right,2025-04-30_15h44.52.934,HideSeek_v1,2022.2.5,59.943305510951454,
,8,4,8,9,0,5,66,,train_dim1_1,27,30,,,,2,0,2,0,,,,,,,,,0,0,0,0,0,26,26,26,4,0,4,0,,,,,,,,,,,,,,,,,,,,,,,,,,,,,,,,,,,,,,,,,,,,,,,,,,,,,,,,,,,,,,,,30,,,,,,,,1754.535804899875,1754.535804899875,1754.535804899875,1754.535804899875,1754.535804899875,up,0.17660260014235973,17,0,0,99,0.48,0.32,up,0.09675880009308457,,,,,,,,,,,,,,,,,,,,,,,,,,,,,,,,,,,,,,,,,,,,,,,,,,,,,,,,,,,,K7ZVL8,train_y,blue_star,bottom_right,2025-04-30_15h44.52.934,HideSeek_v1,2022.2.5,59.943305510951454,
,8,4,8,9,0,5,66,,train_dim1_1,27,30,,,,2,0,2,0,,,,,,,,,0,0,0,0,0,26,26,26,5,0,5,0,,,,,,,,,,,,,,,,,,,,,,,,,,,,,,,,,,,,,,,,,,,,,,,,,,,,,,,,,,,,,,,,30,,,,,,,,1754.720285499934,1754.720285499934,1754.720285499934,1754.720285499934,1754.720285499934,return,0.6431503999046981,18,0,0,1,0.48,0.32,return,0.5646031000651419,68,-9,0.48,0.32,,,,,,,,,,,,,,,,,,,,,,,,,,,,,,,,,,,,,,,,,,,,,,,,,,,,,,,,K7ZVL8,train_y,blue_star,bottom_right,2025-04-30_15h44.52.934,HideSeek_v1,2022.2.5,59.943305510951454,
,9,1,9,1,0,0,61,,train_dim1_1,28,30,,,,2,0,2,0,,,,,,,,,0,0,0,0,0,27,27,27,0,0,0,0,,,,,,,,,,,,,,,,,,,,,,,,,stimuli/alien_stimuli/61.png,,,,,,,,,,,,,,,,,,,,,,,,,,,,,stimuli/alien_stimuli/66.png,66,8,29,,,,,,,30,,,,,,,,1759.1199773000553,1759.1199773000553,1759.1199773000553,1759.1199773000553,1759.1199773000553,return,1.2733525997027755,19,0,0,1,0.56,-0.32,return,1.1755129997618496,68,-9,0.56,-0.32,1757.558083599899,1759.1199773000553,0.48,0.32,0.4,0.0,0.12,0.48,0.48,0.48,0.32,1756.9136005002074,1756.9136005002074,1756.9136005002074,1756.9136005002074,1756.9136005002074,1756.9136005002074,1756.9136005002074,1756.9136005002074,1756.9077089999803,0.7361617996357381,return,0.6280601001344621,,,,,,,,,,,,,,,,,,,,,,,,,,,,,,,,,K7ZVL8,train_y,blue_star,bottom_right,2025-04-30_15h44.52.934,HideSeek_v1,2022.2.5,59.943305510951454,
,7,2,7,3,0,1,62,,train_dim1_1,29,30,,,,2,0,2,0,,,,,,,,,0,0,0,0,0,28,28,28,0,0,0,0,,,,,,,,,,,,,,,,,,,,,,,,,stimuli/alien_stimuli/62.png,,,,,,,,,,,,,,,,,,,,,,,,,,,,,stimuli/alien_stimuli/61.png,61,9,30,,,,,,,30,,,,,,,,1764.7060087998398,1764.7060087998398,1764.7060087998398,1764.7060087998398,1764.7060087998398,up,1.4377164002507925,19,0,0,99,0.4,-0.15999999999999998,up,1.3589321998879313,,,,,1763.146144399885,1764.7060087998398,0.56,-0.32,0.0,0.0,-0.32,0.56,0.56,0.56,-0.32,1761.9365746998228,1761.9365746998228,1761.9365746998228,1761.9365746998228,1761.9365746998228,1761.9365746998228,1761.9365746998228,1761.9365746998228,1761.928451400064,1.303394100163132,return,1.1850952003151178,,,,,,,,,,,,,,,,,,,,,,,,,,,,,,,,,K7ZVL8,train_y,blue_star,bottom_right,2025-04-30_15h44.52.934,HideSeek_v1,2022.2.5,59.943305510951454,
,7,2,7,3,0,1,62,,train_dim1_1,29,30,,,,2,0,2,0,,,,,,,,,0,0,0,0,0,28,28,28,1,0,1,0,,,,,,,,,,,,,,,,,,,,,,,,,,,,,,,,,,,,,,,,,,,,,,,,,,,,,,,,,,,,,,,,30,,,,,,,,1766.14630280016,1766.14630280016,1766.14630280016,1766.14630280016,1766.14630280016,return,0.47618949972093105,20,0,0,1,0.4,-0.15999999999999998,return,0.3911297000013292,69,-9,0.4,-0.15999999999999998,,,,,,,,,,,,,,,,,,,,,,,,,,,,,,,,,,,,,,,,,,,,,,,,,,,,,,,,K7ZVL8,train_y,blue_star,bottom_right,2025-04-30_15h44.52.934,HideSeek_v1,2022.2.5,59.943305510951454,
,5,1,5,5,0,4,65,,train_dim1_1,30,30,,,,2,0,2,0,,,,,,,,,0,0,0,0,0,29,29,29,0,0,0,0,,,,,,,,,,,,,,,,,,,,,,,,,stimuli/alien_stimuli/65.png,,,,,,,,,,,,,,,,,,,,,,,,,,,,,stimuli/alien_stimuli/62.png,62,7,31,,,,,,,30,,,,,,,,1770.1564436000772,1770.1564436000772,1770.1564436000772,1770.1564436000772,1770.1564436000772,up,1.3867114000022411,20,0,0,99,0.24,-0.24,up,1.3056483999826014,,,,,1768.6006018999033,1770.1564436000772,0.4,-0.16,0.08,0.0,-0.2,0.4,0.4,0.4,-0.16,1768.1729027000256,1768.1729027000256,1768.1729027000256,1768.1729027000256,1768.1729027000256,1768.1729027000256,1768.1729027000256,1768.1729027000256,1768.1670736999251,0.5193759999237955,return,0.41093769995495677,,,,,,,,,,,,,,,,,,,,,,,,,,,,,,,,,K7ZVL8,train_y,blue_star,bottom_right,2025-04-30_15h44.52.934,HideSeek_v1,2022.2.5,59.943305510951454,
,5,1,5,5,0,4,65,,train_dim1_1,30,30,,,,2,0,2,0,,,,,,,,,0,0,0,0,0,29,29,29,1,0,1,0,,,,,,,,,,,,,,,,,,,,,,,,,,,,,,,,,,,,,,,,,,,,,,,,,,,,,,,,,,,,,,,,30,,,,,,,,1771.550318799913,1771.550318799913,1771.550318799913,1771.550318799913,1771.550318799913,up,0.6433187001384795,20,0,0,99,0.24,-0.15999999999999998,up,0.5697850999422371,,,,,,,,,,,,,,,,,,,,,,,,,,,,,,,,,,,,,,,,,,,,,,,,,,,,,,,,,,,,K7ZVL8,train_y,blue_star,bottom_right,2025-04-30_15h44.52.934,HideSeek_v1,2022.2.5,59.943305510951454,
,5,1,5,5,0,4,65,,train_dim1_1,30,30,,,,2,0,2,0,,,,,,,,,0,0,0,0,0,29,29,29,2,0,2,0,,,,,,,,,,,,,,,,,,,,,,,,,,,,,,,,,,,,,,,,,,,,,,,,,,,,,,,,,,,,,,,,30,,,,,,,,1772.1996100000106,1772.1996100000106,1772.1996100000106,1772.1996100000106,1772.1996100000106,up,0.41006549960002303,20,0,0,99,0.24,-0.07999999999999997,up,0.33739300025627017,,,,,,,,,,,,,,,,,,,,,,,,,,,,,,,,,,,,,,,,,,,,,,,,,,,,,,,,,,,,K7ZVL8,train_y,blue_star,bottom_right,2025-04-30_15h44.52.934,HideSeek_v1,2022.2.5,59.943305510951454,
,5,1,5,5,0,4,65,,train_dim1_1,30,30,,,,2,0,2,0,,,,,,,,,0,0,0,0,0,29,29,29,3,0,3,0,,,,,,,,,,,,,,,,,,,,,,,,,,,,,,,,,,,,,,,,,,,,,,,,,,,,,,,,,,,,,,,,30,,,,,,,,1772.6163500002585,1772.6163500002585,1772.6163500002585,1772.6163500002585,1772.6163500002585,up,1.994590800255537,20,0,0,99,0.24,2.7755575615628914e-17,up,1.9221346997655928,,,,,,,,,,,,,,,,,,,,,,,,,,,,,,,,,,,,,,,,,,,,,,,,,,,,,,,,,,,,K7ZVL8,train_y,blue_star,bottom_right,2025-04-30_15h44.52.934,HideSeek_v1,2022.2.5,59.943305510951454,
,5,1,5,5,0,4,65,,train_dim1_1,30,30,,,,2,0,2,0,,,,,,,,,0,0,0,0,0,29,29,29,4,0,4,0,,,,,,,,,,,,,,,,,,,,,,,,,,,,,,,,,,,,,,,,,,,,,,,,,,,,,,,,,,,,,,,,30,,,,,,,,1774.619884800166,1774.619884800166,1774.619884800166,1774.619884800166,1774.619884800166,return,0.6433649002574384,21,0,0,1,0.24,2.7755575615628914e-17,return,0.5624905996955931,73,-9,0.24,2.7755575615628914e-17,,,,,,,,,,,,,,,,,,,,,,,,,,,,,,,,,,,,,,,,,,,,,,,,,,,,,,,,K7ZVL8,train_y,blue_star,bottom_right,2025-04-30_15h44.52.934,HideSeek_v1,2022.2.5,59.943305510951454,
,,,,,,,,,,,30,,,,2,0,2,0,,,,,,,,,,,,,,,,,,,,,,,,,,,,,,,,,,,,,,,,,,,,,,,,,,,,,,,,,,,,,,,,,,,,,,,,,,stimuli/alien_stimuli/65.png,65,5,32,21,0.7,0.875,1,1,1,30,0,conditions/schedules/train_y_first/blue_star_00/bottom_right/inputTrain_2.1.xlsx,99,1,2,1,0,,,,,,,,,,,1,,,,,,,,,1777.3912173002027,1778.950259400066,0.24,0,0.32,0.0,-0.16,0.24,0.24,0.24,0,1776.8148767999373,1776.8148767999373,1776.8148767999373,1776.8148767999373,1776.8148767999373,1776.8148767999373,1776.8148767999373,1776.8148767999373,1776.8074993000366,0.6695435997098684,return,0.5605256003327668,0,0.9,0,1,21,,,,,,,,,,,,,,,,,,,,,,,,,,,,K7ZVL8,train_y,blue_star,bottom_right,2025-04-30_15h44.52.934,HideSeek_v1,2022.2.5,59.943305510951454,
,,,,,,,,,,,,,,,3,0,3,0,0,0,0,0,,,,,,,,,,,,,,,,,,,,,,,,,,,,,,,conditions/schedules/train_y_first/blue_star_00/bottom_right/instructions/Slide17.png,conditions/schedules/train_y_first/blue_star_00/bottom_right/instructions/Audio17.wav,1778.950259400066,1778.9426511998288,17,"[6.666483599692583, 18.29836279992014, 16.609533300157636, 19.119540199637413, 4.398274900391698, 4.252198999747634, 5.102014500182122, 11.70859060017392, 5.768925399985164, 6.782172500155866, 9.986799200065434, 13.590074699837714, 17.5781678003259, 16.5316327996552, 42.17685940023512, 21.76232500001788, 43.02530220011249]","[0.00026530027389526367, 0.04786550020799041, 0.014538599643856287, 0.047006700187921524, 0.0486739999614656, 0.09751830017194152, 0.06508229998871684, 0.0305074998177588, 0.04702479997649789, 0.09582729963585734, 0.08057240024209023, 13.59008469991386, 0.01484679989516735, 16.53163979994133, 0.06302240025252104, 21.762331999838352, 43.02530910028145]",0,,,,,,,,,,,,,,,,,,,,,,,,,,,,,,,,,,,,,,,,,,,,,,,,,,,,,,,,,,,,,,,,,,,,,,,,,,,,,,,,,,,,,,,,,,,,,,,,,,,,,,,,,,,,,,,,,,,,,,,,,,,,K7ZVL8,train_y,blue_star,bottom_right,2025-04-30_15h44.52.934,HideSeek_v1,2022.2.5,59.943305510951454,
,,,,,,,,,,,,,,,3,0,3,0,1,0,1,0,,,,,,,,,,,,,,,,,,,,,,,,,,,,,,,conditions/schedules/train_y_first/blue_star_00/bottom_right/instructions/Slide18.png,conditions/schedules/train_y_first/blue_star_00/bottom_right/instructions/Audio18.wav,1822.0430951002054,1822.0451447500382,18,"[6.666483599692583, 18.29836279992014, 16.609533300157636, 19.119540199637413, 4.398274900391698, 4.252198999747634, 5.102014500182122, 11.70859060017392, 5.768925399985164, 6.782172500155866, 9.986799200065434, 13.590074699837714, 17.5781678003259, 16.5316327996552, 42.17685940023512, 21.76232500001788, 43.02530220011249, 6.488616299815476]","[0.00026530027389526367, 0.04786550020799041, 0.014538599643856287, 0.047006700187921524, 0.0486739999614656, 0.09751830017194152, 0.06508229998871684, 0.0305074998177588, 0.04702479997649789, 0.09582729963585734, 0.08057240024209023, 13.59008469991386, 0.01484679989516735, 16.53163979994133, 0.06302240025252104, 21.762331999838352, 0.00023219967260956764, 6.488623599987477]",0,,,,,,,,,,,,,,,,,,,,,,,,,,,,,,,,,,,,,,,,,,,,,,,,,,,,,,,,,,,,,,,,,,,,,,,,,,,,,,,,,,,,,,,,,,,,,,,,,,,,,,,,,,,,,,,,,,,,,,,,,,,,K7ZVL8,train_y,blue_star,bottom_right,2025-04-30_15h44.52.934,HideSeek_v1,2022.2.5,59.943305510951454,
,,,,,,,,,,,,,,,3,0,3,0,2,0,2,0,,,,,,,,,,,,,,,,,,,,,,,,,,,,,,,conditions/schedules/train_y_first/blue_star_00/bottom_right/instructions/Slide19.png,conditions/schedules/train_y_first/blue_star_00/bottom_right/instructions/Audio19.wav,1828.586024899967,1828.5836597999557,19,"[6.666483599692583, 18.29836279992014, 16.609533300157636, 19.119540199637413, 4.398274900391698, 4.252198999747634, 5.102014500182122, 11.70859060017392, 5.768925399985164, 6.782172500155866, 9.986799200065434, 13.590074699837714, 17.5781678003259, 16.5316327996552, 42.17685940023512, 21.76232500001788, 43.02530220011249, 6.488616299815476, 9.836812500376254]","[0.00026530027389526367, 0.04786550020799041, 0.014538599643856287, 0.047006700187921524, 0.0486739999614656, 0.09751830017194152, 0.06508229998871684, 0.0305074998177588, 0.04702479997649789, 0.09582729963585734, 0.08057240024209023, 13.59008469991386, 0.01484679989516735, 16.53163979994133, 0.06302240025252104, 21.762331999838352, 0.00023219967260956764, 0.046974700409919024, 9.836820600088686]",0,,,,,,,,,,,,,,,,,,,,,,,,,,,,,,,,,,,,,,,,,,,,,,,,,,,,,,,,,,,,,,,,,,,,,,,,,,,,,,,,,,,,,,,,,,,,,,,,,,,,,,,,,,,,,,,,,,,,,,,,,,,,K7ZVL8,train_y,blue_star,bottom_right,2025-04-30_15h44.52.934,HideSeek_v1,2022.2.5,59.943305510951454,
,,,,,,,,,,,,,,,3,0,3,0,3,0,3,0,,,,,,,,,,,,,,,,,,,,,,,,,,,,,,,conditions/schedules/train_y_first/blue_star_00/bottom_right/instructions/Slide20.png,conditions/schedules/train_y_first/blue_star_00/bottom_right/instructions/Audio20.wav,1838.476126700174,1838.475078399945,20,"[6.666483599692583, 18.29836279992014, 16.609533300157636, 19.119540199637413, 4.398274900391698, 4.252198999747634, 5.102014500182122, 11.70859060017392, 5.768925399985164, 6.782172500155866, 9.986799200065434, 13.590074699837714, 17.5781678003259, 16.5316327996552, 42.17685940023512, 21.76232500001788, 43.02530220011249, 6.488616299815476, 9.836812500376254, 12.30668619973585]","[0.00026530027389526367, 0.04786550020799041, 0.014538599643856287, 0.047006700187921524, 0.0486739999614656, 0.09751830017194152, 0.06508229998871684, 0.0305074998177588, 0.04702479997649789, 0.09582729963585734, 0.08057240024209023, 13.59008469991386, 0.01484679989516735, 16.53163979994133, 0.06302240025252104, 21.762331999838352, 0.00023219967260956764, 0.046974700409919024, 0.06277779955416918, 12.306693099904805]",0,,,,,,,,,,,,,,,,,,,,,,,,,,,,,,,,,,,,,,,,,,,,,,,,,,,,,,,,,,,,,,,,,,,,,,,,,,,,,,,,,,,,,,,,,,,,,,,,,,,,,,,,,,,,,,,,,,,,,,,,,,,,K7ZVL8,train_y,blue_star,bottom_right,2025-04-30_15h44.52.934,HideSeek_v1,2022.2.5,59.943305510951454,
1,9,0,4,0,-5,0,11,2,instr_dim1_2,,,,,,3,0,3,0,,,,,0,0,0,0,,,,,,,,,,,,,,,,,,,,,,,,,,,,,,,,,,,,,stimuli/alien_stimuli/11.png,conditions/schedules/train_y_first/blue_star_00/bottom_right/inputInstr_2.xlsx,stimuli/alien_stimuli/11.png,1850.8904702002183,1850.8904702002183,1850.8904702002183,1850.8904702002183,1850.8858469499742,return,6.263097899965942,"[-0.16, -0.08, 0, 0.08, 0.16, 0.24, 0.32, 0.4, 0.48, 0.56]","[-0.4, -0.32, -0.24, -0.16, -0.08, 0, 0.08, 0.16, 0.24, 0.32]",0,0,4,9,0.0,0.4,1857.3197671999224,1857.3197671999224,1857.3197671999224,1857.3197671999224,1857.3197671999224,1857.3197671999224,1857.3197671999224,1857.3077434501145,5.805692800320685,return,5.627516699954867,stimuli/alien_stimuli/11.png,11,9,1,,,,,,,,,,,,,,,,,,,,,,,,,,,,,,,,,,,,,,,,,,,,,,,,,,,,,,,,,,,,,,,,,,,,,,,,,,,,,,,,,,,,,,,,,K7ZVL8,train_y,blue_star,bottom_right,2025-04-30_15h44.52.934,HideSeek_v1,2022.2.5,59.943305510951454,
,,,,,,,,,,,30,,,,3,0,3,0,,,,,,,,,,,,,,,,,,,,,,,,,,,,,,,,,,,,,,,,,,,,,,,,,,,,,,,,,,,,,,,,,,,,,,,,,,,,,,21,0.7,0.875,1,99,2,30,0,conditions/schedules/train_y_first/blue_star_00/bottom_right/inputTrain_2.1.xlsx,99,1,2,1,0,,,,,,,,,,,,,,,,,,,,,,,,,,,,,,,,,,,,,,,,,,,,,,,,,,,,,,,,,,,,,,,,,,,,,,,,,,,K7ZVL8,train_y,blue_star,bottom_right,2025-04-30_15h44.52.934,HideSeek_v1,2022.2.5,59.943305510951454,
,,,,,,,,,,,,,,,4,0,4,0,0,0,0,0,,,,,,,,,,,,,,,,,,,,,,,,,,,,,,,conditions/schedules/train_y_first/blue_star_00/bottom_right/instructions/Slide21.png,conditions/schedules/train_y_first/blue_star_00/bottom_right/instructions/Audio21.wav,1863.109361700248,1863.0958711001092,21,"[6.666483599692583, 18.29836279992014, 16.609533300157636, 19.119540199637413, 4.398274900391698, 4.252198999747634, 5.102014500182122, 11.70859060017392, 5.768925399985164, 6.782172500155866, 9.986799200065434, 13.590074699837714, 17.5781678003259, 16.5316327996552, 42.17685940023512, 21.76232500001788, 43.02530220011249, 6.488616299815476, 9.836812500376254, 12.30668619973585, 12.694423099979758]","[0.00026530027389526367, 0.04786550020799041, 0.014538599643856287, 0.047006700187921524, 0.0486739999614656, 0.09751830017194152, 0.06508229998871684, 0.0305074998177588, 0.04702479997649789, 0.09582729963585734, 0.08057240024209023, 13.59008469991386, 0.01484679989516735, 16.53163979994133, 0.06302240025252104, 21.762331999838352, 0.00023219967260956764, 0.046974700409919024, 0.06277779955416918, 12.306693099904805, 12.694429900031537]",0,,,,,,,,,,,,,,,,,,,,,,,,,,,,,,,,,,,,,,,,,,,,,,,,,,,,,,,,,,,,,,,,,,,,,,,,,,,,,,,,,,,,,,,,,,,,,,,,,,,,,,,,,,,,,,,,,,,,,,,,,,,,K7ZVL8,train_y,blue_star,bottom_right,2025-04-30_15h44.52.934,HideSeek_v1,2022.2.5,59.943305510951454,
2,8,2,8,2,0,0,61,2,instr_dim1_2,,,,,,4,0,4,0,,,,,0,0,0,0,,,,,,,,,,,,,,,,,,,,,,,,,,,,,,,,,,,,,stimuli/alien_stimuli/61.png,conditions/schedules/train_y_first/blue_star_00/bottom_right/inputInstr_2.xlsx,stimuli/alien_stimuli/61.png,1875.8967892001383,1875.8967892001383,1875.8967892001383,1875.8967892001383,1875.889981199801,return,6.041195599827915,"[-0.16, -0.08, 0, 0.08, 0.16, 0.24, 0.32, 0.4, 0.48, 0.56]","[-0.4, -0.32, -0.24, -0.16, -0.08, 0, 0.08, 0.16, 0.24, 0.32]",2,2,8,8,0.0,0.0,1882.096451099962,1882.096451099962,1882.096451099962,1882.096451099962,1882.096451099962,1882.096451099962,1882.096451099962,1882.0784217998387,6.322676500305533,return,6.161433599889278,stimuli/alien_stimuli/61.png,61,8,2,,,,,,,,,,,,,,,,,,,,,,,,,,,,,,,,,,,,,,,,,,,,,,,,,,,,,,,,,,,,,,,,,,,,,,,,,,,,,,,,,,,,,,,,,K7ZVL8,train_y,blue_star,bottom_right,2025-04-30_15h44.52.934,HideSeek_v1,2022.2.5,59.943305510951454,
,,,,,,,,,,,30,,,,4,0,4,0,,,,,,,,,,,,,,,,,,,,,,,,,,,,,,,,,,,,,,,,,,,,,,,,,,,,,,,,,,,,,,,,,,,,,,,,,,,,,,21,0.7,0.875,1,99,2,30,0,conditions/schedules/train_y_first/blue_star_00/bottom_right/inputTrain_2.1.xlsx,99,1,2,1,0,,,,,,,,,,,,,,,,,,,,,,,,,,,,,,,,,,,,,,,,,,,,,,,,,,,,,,,,,,,,,,,,,,,,,,,,,,,K7ZVL8,train_y,blue_star,bottom_right,2025-04-30_15h44.52.934,HideSeek_v1,2022.2.5,59.943305510951454,
,,,,,,,,,,,,,,,5,0,5,0,0,0,0,0,,,,,,,,,,,,,,,,,,,,,,,,,,,,,,,conditions/schedules/train_y_first/blue_star_00/bottom_right/instructions/Slide22.png,conditions/schedules/train_y_first/blue_star_00/bottom_right/instructions/Audio22.wav,1888.4210665002465,1888.4170032501686,22,"[6.666483599692583, 18.29836279992014, 16.609533300157636, 19.119540199637413, 4.398274900391698, 4.252198999747634, 5.102014500182122, 11.70859060017392, 5.768925399985164, 6.782172500155866, 9.986799200065434, 13.590074699837714, 17.5781678003259, 16.5316327996552, 42.17685940023512, 21.76232500001788, 43.02530220011249, 6.488616299815476, 9.836812500376254, 12.30668619973585, 12.694423099979758, 29.83503369987011]","[0.00026530027389526367, 0.04786550020799041, 0.014538599643856287, 0.047006700187921524, 0.0486739999614656, 0.09751830017194152, 0.06508229998871684, 0.0305074998177588, 0.04702479997649789, 0.09582729963585734, 0.08057240024209023, 13.59008469991386, 0.01484679989516735, 16.53163979994133, 0.06302240025252104, 21.762331999838352, 0.00023219967260956764, 0.046974700409919024, 0.06277779955416918, 12.306693099904805, 12.694429900031537, 29.835040499921888]",0,,,,,,,,,,,,,,,,,,,,,,,,,,,,,,,,,,,,,,,,,,,,,,,,,,,,,,,,,,,,,,,,,,,,,,,,,,,,,,,,,,,,,,,,,,,,,,,,,,,,,,,,,,,,,,,,,,,,,,,,,,,,K7ZVL8,train_y,blue_star,bottom_right,2025-04-30_15h44.52.934,HideSeek_v1,2022.2.5,59.943305510951454,
,7,1,4,1,-3,0,31,,train_dim1_2,1,30,,,,5,0,5,0,,,,,,,,,0,0,0,0,0,0,0,0,0,0,0,0,,,,,,,,,,,,,,,,,,,,,,,,,stimuli/alien_stimuli/31.png,,,,,,,,,,,,,,,,,,,,,,,,,,,,,,,,,,,,,,,30,,,,,,,,1918.3489143000916,1918.3489143000916,1918.3489143000916,1918.3489143000916,1918.3489143000916,left,5.198148099705577,0,0,0,99,0.32,-0.32,left,5.109581199940294,,,,,,,,,,,,,,,,,,,,,,,,,,,,,,,,,,,,,,,,,,,,,,,,,,,,,,,,,,,,K7ZVL8,train_y,blue_star,bottom_right,2025-04-30_15h44.52.934,HideSeek_v1,2022.2.5,59.943305510951454,
,7,1,4,1,-3,0,31,,train_dim1_2,1,30,,,,5,0,5,0,,,,,,,,,0,0,0,0,0,0,0,0,1,0,1,0,,,,,,,,,,,,,,,,,,,,,,,,,,,,,,,,,,,,,,,,,,,,,,,,,,,,,,,,,,,,,,,,30,,,,,,,,1923.5458177998662,1923.5458177998662,1923.5458177998662,1923.5458177998662,1923.5458177998662,left,0.5934278997592628,0,0,0,99,0.24,-0.32,left,0.5074018999002874,,,,,,,,,,,,,,,,,,,,,,,,,,,,,,,,,,,,,,,,,,,,,,,,,,,,,,,,,,,,K7ZVL8,train_y,blue_star,bottom_right,2025-04-30_15h44.52.934,HideSeek_v1,2022.2.5,59.943305510951454,
,7,1,4,1,-3,0,31,,train_dim1_2,1,30,,,,5,0,5,0,,,,,,,,,0,0,0,0,0,0,0,0,2,0,2,0,,,,,,,,,,,,,,,,,,,,,,,,,,,,,,,,,,,,,,,,,,,,,,,,,,,,,,,,,,,,,,,,30,,,,,,,,1924.1446726000868,1924.1446726000868,1924.1446726000868,1924.1446726000868,1924.1446726000868,left,0.47663750033825636,0,0,0,99,0.15999999999999998,-0.32,left,0.39716080017387867,,,,,,,,,,,,,,,,,,,,,,,,,,,,,,,,,,,,,,,,,,,,,,,,,,,,,,,,,,,,K7ZVL8,train_y,blue_star,bottom_right,2025-04-30_15h44.52.934,HideSeek_v1,2022.2.5,59.943305510951454,
,7,1,4,1,-3,0,31,,train_dim1_2,1,30,,,,5,0,5,0,,,,,,,,,0,0,0,0,0,0,0,0,3,0,3,0,,,,,,,,,,,,,,,,,,,,,,,,,,,,,,,,,,,,,,,,,,,,,,,,,,,,,,,,,,,,,,,,30,,,,,,,,1924.6269832002,1924.6269832002,1924.6269832002,1924.6269832002,1924.6269832002,left,0.3429665002040565,0,0,0,99,0.07999999999999997,-0.32,left,0.254838400054723,,,,,,,,,,,,,,,,,,,,,,,,,,,,,,,,,,,,,,,,,,,,,,,,,,,,,,,,,,,,K7ZVL8,train_y,blue_star,bottom_right,2025-04-30_15h44.52.934,HideSeek_v1,2022.2.5,59.943305510951454,
,7,1,4,1,-3,0,31,,train_dim1_2,1,30,,,,5,0,5,0,,,,,,,,,0,0,0,0,0,0,0,0,4,0,4,0,,,,,,,,,,,,,,,,,,,,,,,,,,,,,,,,,,,,,,,,,,,,,,,,,,,,,,,,,,,,,,,,30,,,,,,,,1924.9768083002418,1924.9768083002418,1924.9768083002418,1924.9768083002418,1924.9768083002418,return,0.4608072000555694,0,1,0,0,0.07999999999999997,-0.32,return,0.37235029973089695,73,-13,0.07999999999999997,-0.32,,,,,,,,,,,,,,,,,,,,,,,,,,,,,,,,,,,,,,,,,,,,,,,,,,,,,,,,K7ZVL8,train_y,blue_star,bottom_right,2025-04-30_15h44.52.934,HideSeek_v1,2022.2.5,59.943305510951454,
,7,4,2,4,-5,0,11,,train_dim1_2,2,30,,,,5,0,5,0,,,,,,,,,0,0,0,0,0,1,1,1,0,0,0,0,,,,,,,,,,,,,,,,,,,,,,,,,stimuli/alien_stimuli/11.png,,,,,,,,,,,,,,,,,,,,,,,,,,,,,stimuli/alien_stimuli/31.png,31,7,3,,,,,,,30,,,,,,,,1929.9539788002148,1929.9539788002148,1929.9539788002148,1929.9539788002148,1929.9539788002148,left,1.7720521995797753,0,1,0,99,0.32,-0.08,left,1.6537441001273692,,,,,1928.3665824001655,1929.9539788002148,0.16,-0.32,0.0,0.24,-0.32,0.16,0.28,0.16,-0.32,1927.0170501000248,1927.0170501000248,1927.0170501000248,1927.0170501000248,1927.0170501000248,1927.0170501000248,1927.0170501000248,1927.0170501000248,1926.9990754498635,1.4700597999617457,return,1.326391200069338,,,,,,,,,,,,,,,,,,,,,,,,,,,,,,,,,K7ZVL8,train_y,blue_star,bottom_right,2025-04-30_15h44.52.934,HideSeek_v1,2022.2.5,59.943305510951454,
,7,4,2,4,-5,0,11,,train_dim1_2,2,30,,,,5,0,5,0,,,,,,,,,0,0,0,0,0,1,1,1,1,0,1,0,,,,,,,,,,,,,,,,,,,,,,,,,,,,,,,,,,,,,,,,,,,,,,,,,,,,,,,,,,,,,,,,30,,,,,,,,1931.704504800029,1931.704504800029,1931.704504800029,1931.704504800029,1931.704504800029,left,0.2764337002299726,0,1,0,99,0.24,-0.08,left,0.1936952001415193,,,,,,,,,,,,,,,,,,,,,,,,,,,,,,,,,,,,,,,,,,,,,,,,,,,,,,,,,,,,K7ZVL8,train_y,blue_star,bottom_right,2025-04-30_15h44.52.934,HideSeek_v1,2022.2.5,59.943305510951454,
,7,4,2,4,-5,0,11,,train_dim1_2,2,30,,,,5,0,5,0,,,,,,,,,0,0,0,0,0,1,1,1,2,0,2,0,,,,,,,,,,,,,,,,,,,,,,,,,,,,,,,,,,,,,,,,,,,,,,,,,,,,,,,,,,,,,,,,30,,,,,,,,1931.987228400074,1931.987228400074,1931.987228400074,1931.987228400074,1931.987228400074,left,0.3100847997702658,0,1,0,99,0.15999999999999998,-0.08,left,0.2180558000691235,,,,,,,,,,,,,,,,,,,,,,,,,,,,,,,,,,,,,,,,,,,,,,,,,,,,,,,,,,,,K7ZVL8,train_y,blue_star,bottom_right,2025-04-30_15h44.52.934,HideSeek_v1,2022.2.5,59.943305510951454,
