trialInstr,x_fixStart,y_fixStart,x_corrSteps,y_corrSteps,x_nrSteps,y_nrSteps,alienID,trialLength,version,trialTrain,praclen,testlen,trial_label,break_on_off,beforeExpLoop.thisRepN,beforeExpLoop.thisTrialN,beforeExpLoop.thisN,beforeExpLoop.thisIndex,mini_instr_trials.thisRepN,mini_instr_trials.thisTrialN,mini_instr_trials.thisN,mini_instr_trials.thisIndex,instrLoop.thisRepN,instrLoop.thisTrialN,instrLoop.thisN,instrLoop.thisIndex,repeat_prac.thisRepN,repeat_prac.thisTrialN,repeat_prac.thisN,repeat_prac.thisIndex,trainLoop.thisRepN,trainLoop.thisTrialN,trainLoop.thisN,trainLoop.thisIndex,moveLoop_train.thisRepN,moveLoop_train.thisTrialN,moveLoop_train.thisN,moveLoop_train.thisIndex,experiment.thisRepN,experiment.thisTrialN,experiment.thisN,experiment.thisIndex,moveLoop_test.thisRepN,moveLoop_test.thisTrialN,moveLoop_test.thisN,moveLoop_test.thisIndex,mini_instr2_trials.thisRepN,mini_instr2_trials.thisTrialN,mini_instr2_trials.thisN,mini_instr2_trials.thisIndex,start_all_time,url,slideStim,audioStim,slides.started,sounds.started,nextButton.numClicks,nextButton.timesOn,nextButton.timesOff,prev_but.numClicks,prev_but.timesOn,prev_but.timesOff,alienStim,instrFile,alienStim_instr,gridImage_instr.started,startPos_3.started,key_instr.started,alienImage_3.started,sounds_1.started,key_instr.keys,key_instr.rt,all_x,all_y,FBy_corrSteps,FBy_fixStart,FBx_corrSteps,FBx_fixStart,FBy_pathSize_check,FBx_pathSize_check,gridImage_9.started,alienImageFB_3.started,startPosFB_3.started,keyFB_3.started,pathLine_ydir_2.started,pathLine_xdir_2.started,alienFace_3.started,sounds_2.started,RTFB_instr,keyFB_3.keys,keyFB_3.rt,draw_alienStim,draw_alienID,test_x,nrepcount,perfthres,percthres,earlierperf,earlystop,nextPrac,fileidx,praclen,saveACC_train,pracFile,nextPrac_train,addNrep,fileidx_endr,repExp,showearly,gridImage_4.started,startPos.started,movePos.started,key_resp.started,alienImage.started,buttonPress_train,RTchoice_train,cumAcctrain,aCorr,saveACC_choice,corrAns,x_movePos_end,y_movePos_end,key_resp.keys,key_resp.rt,wLy_dir,wLx_dir,x_movePos,y_movePos,text_2.started,text_2.stopped,aft_x_corrPos,aft_y_corrPos,y_pathSize_check,x_pathSize_check,y_pathdirY,x_pathdirY,x_pathdirX,x_corrPos,y_corrPos,gridImage_6.started,alienImageFB_2.started,startPosFB_2.started,movePosFB_2.started,keyFB_2.started,pathLine_xdir.started,pathLine_ydir.started,alienFace.started,sounds_4.started,RT_FBtrain,keyFB_2.keys,keyFB_2.rt,saveACC_pre,ACC,within_saveACC_train,earlystop_wloop,cumAcctrain_check,gridImage_3.started,alienImage_test.started,startPos_test.started,movePos_test.started,key_resp_test.started,wLy_dir_test,wLx_dir_test,buttonPress_test,RTchoice_test,cumAcctest,corrAns_test,key_resp_test.keys,key_resp_test.rt,text_3.started,text_3.stopped,total_time,end_all_time,key_resp_3.keys,slides_2.started,sounds_3.started,nextButton_2.numClicks,nextButton_2.timesOn,nextButton_2.timesOff,prev_but_2.numClicks,prev_but_2.timesOn,prev_but_2.timesOff,bye.started,participant,train_first,00_coordinate,starting corner,date,expName,psychopyVersion,frameRate,
,,,,,,,,,,,,,,,0,0,0,0,0,0,0,0,,,,,,,,,,,,,,,,,,,,,,,,,,,,,start_all_time,testround,conditions/schedules/train_x_first/red_square_00/top_left/instructions/Slide1.png,conditions/schedules/train_x_first/red_square_00/top_left/instructions/Audio1.wav,82.57483480000019,82.51999644999991,1,[8.317141799999945],[8.317149400000062],0,,,,,,,,,,,,,,,,,,,,,,,,,,,,,,,,,,,,,,,,,,,,,,,,,,,,,,,,,,,,,,,,,,,,,,,,,,,,,,,,,,,,,,,,,,,,,,,,,,,,,,,,,,,,,,,,,,,,,,,,,,,,KQGVLC,train_x,red_square,top_left,2025-06-14_10h17.47.120,HideSeek_v1,2022.2.5,59.901868758579134,
,,,,,,,,,,,,,,,0,0,0,0,1,0,1,0,,,,,,,,,,,,,,,,,,,,,,,,,,,,,,,conditions/schedules/train_x_first/red_square_00/top_left/instructions/Slide2.png,conditions/schedules/train_x_first/red_square_00/top_left/instructions/Audio2.wav,90.90720150000016,90.89349189999997,2,"[8.317141799999945, 18.116151199999877]","[0.00022020000005795737, 18.116159499999867]",0,,,,,,,,,,,,,,,,,,,,,,,,,,,,,,,,,,,,,,,,,,,,,,,,,,,,,,,,,,,,,,,,,,,,,,,,,,,,,,,,,,,,,,,,,,,,,,,,,,,,,,,,,,,,,,,,,,,,,,,,,,,,KQGVLC,train_x,red_square,top_left,2025-06-14_10h17.47.120,HideSeek_v1,2022.2.5,59.901868758579134,
,,,,,,,,,,,,,,,0,0,0,0,2,0,2,0,,,,,,,,,,,,,,,,,,,,,,,,,,,,,,,conditions/schedules/train_x_first/red_square_00/top_left/instructions/Slide3.png,conditions/schedules/train_x_first/red_square_00/top_left/instructions/Audio3.wav,109.09807250000017,109.09196285000007,3,"[8.317141799999945, 18.116151199999877, 16.588948099999925]","[0.00022020000005795737, 0.014474599999857674, 16.588956199999984]",0,,,,,,,,,,,,,,,,,,,,,,,,,,,,,,,,,,,,,,,,,,,,,,,,,,,,,,,,,,,,,,,,,,,,,,,,,,,,,,,,,,,,,,,,,,,,,,,,,,,,,,,,,,,,,,,,,,,,,,,,,,,,KQGVLC,train_x,red_square,top_left,2025-06-14_10h17.47.120,HideSeek_v1,2022.2.5,59.901868758579134,
,,,,,,,,,,,,,,,0,0,0,0,3,0,3,0,,,,,,,,,,,,,,,,,,,,,,,,,,,,,,,conditions/schedules/train_x_first/red_square_00/top_left/instructions/Slide4.png,conditions/schedules/train_x_first/red_square_00/top_left/instructions/Audio4.wav,125.76476720000005,125.7556983500001,4,"[8.317141799999945, 18.116151199999877, 16.588948099999925, 19.555110300000024]","[0.00022020000005795737, 0.014474599999857674, 0.03475380000008954, 19.55511820000015]",0,,,,,,,,,,,,,,,,,,,,,,,,,,,,,,,,,,,,,,,,,,,,,,,,,,,,,,,,,,,,,,,,,,,,,,,,,,,,,,,,,,,,,,,,,,,,,,,,,,,,,,,,,,,,,,,,,,,,,,,,,,,,KQGVLC,train_x,red_square,top_left,2025-06-14_10h17.47.120,HideSeek_v1,2022.2.5,59.901868758579134,
,,,,,,,,,,,,,,,0,0,0,0,4,0,4,0,,,,,,,,,,,,,,,,,,,,,,,,,,,,,,,conditions/schedules/train_x_first/red_square_00/top_left/instructions/Slide5.png,conditions/schedules/train_x_first/red_square_00/top_left/instructions/Audio5.wav,145.37911200000008,145.3718008,5,"[8.317141799999945, 18.116151199999877, 16.588948099999925, 19.555110300000024, 6.1126540000000205]","[0.00022020000005795737, 0.014474599999857674, 0.03475380000008954, 0.03716359999998531, 6.1126606000000265]",0,,,,,,,,,,,,,,,,,,,,,,,,,,,,,,,,,,,,,,,,,,,,,,,,,,,,,,,,,,,,,,,,,,,,,,,,,,,,,,,,,,,,,,,,,,,,,,,,,,,,,,,,,,,,,,,,,,,,,,,,,,,,KQGVLC,train_x,red_square,top_left,2025-06-14_10h17.47.120,HideSeek_v1,2022.2.5,59.901868758579134,
,,,,,,,,,,,,,,,0,0,0,0,5,0,5,0,,,,,,,,,,,,,,,,,,,,,,,,,,,,,,,conditions/schedules/train_x_first/red_square_00/top_left/instructions/Slide6.png,conditions/schedules/train_x_first/red_square_00/top_left/instructions/Audio6.wav,151.54059380000012,151.52708705000012,6,"[8.317141799999945, 18.116151199999877, 16.588948099999925, 19.555110300000024, 6.1126540000000205, 5.4722541000001]","[0.00022020000005795737, 0.014474599999857674, 0.03475380000008954, 0.03716359999998531, 0.051230700000132856, 5.472262300000011]",0,,,,,,,,,,,,,,,,,,,,,,,,,,,,,,,,,,,,,,,,,,,,,,,,,,,,,,,,,,,,,,,,,,,,,,,,,,,,,,,,,,,,,,,,,,,,,,,,,,,,,,,,,,,,,,,,,,,,,,,,,,,,KQGVLC,train_x,red_square,top_left,2025-06-14_10h17.47.120,HideSeek_v1,2022.2.5,59.901868758579134,
,,,,,,,,,,,,,,,0,0,0,0,6,0,6,0,,,,,,,,,,,,,,,,,,,,,,,,,,,,,,,conditions/schedules/train_x_first/red_square_00/top_left/instructions/Slide7.png,conditions/schedules/train_x_first/red_square_00/top_left/instructions/Audio7.wav,157.07674410000004,157.06511000000015,7,"[8.317141799999945, 18.116151199999877, 16.588948099999925, 19.555110300000024, 6.1126540000000205, 5.4722541000001, 24.489213999999947]","[0.00022020000005795737, 0.014474599999857674, 0.03475380000008954, 0.03716359999998531, 0.051230700000132856, 0.03610830000002352, 24.48922010000001]",0,,,,,,,,,,,,,,,,,,,,,,,,,,,,,,,,,,,,,,,,,,,,,,,,,,,,,,,,,,,,,,,,,,,,,,,,,,,,,,,,,,,,,,,,,,,,,,,,,,,,,,,,,,,,,,,,,,,,,,,,,,,,KQGVLC,train_x,red_square,top_left,2025-06-14_10h17.47.120,HideSeek_v1,2022.2.5,59.901868758579134,
,,,,,,,,,,,,,,,0,0,0,0,7,0,7,0,,,,,,,,,,,,,,,,,,,,,,,,,,,,,,,conditions/schedules/train_x_first/red_square_00/top_left/instructions/Slide8.png,conditions/schedules/train_x_first/red_square_00/top_left/instructions/Audio8.wav,181.63074130000018,181.61849010000006,8,"[8.317141799999945, 18.116151199999877, 16.588948099999925, 19.555110300000024, 6.1126540000000205, 5.4722541000001, 24.489213999999947, 12.078575600000022]","[0.00022020000005795737, 0.014474599999857674, 0.03475380000008954, 0.03716359999998531, 0.051230700000132856, 0.03610830000002352, 0.03514070000005631, 12.07858239999996]",0,,,,,,,,,,,,,,,,,,,,,,,,,,,,,,,,,,,,,,,,,,,,,,,,,,,,,,,,,,,,,,,,,,,,,,,,,,,,,,,,,,,,,,,,,,,,,,,,,,,,,,,,,,,,,,,,,,,,,,,,,,,,KQGVLC,train_x,red_square,top_left,2025-06-14_10h17.47.120,HideSeek_v1,2022.2.5,59.901868758579134,
,,,,,,,,,,,,,,,0,0,0,0,8,0,8,0,,,,,,,,,,,,,,,,,,,,,,,,,,,,,,,conditions/schedules/train_x_first/red_square_00/top_left/instructions/Slide9.png,conditions/schedules/train_x_first/red_square_00/top_left/instructions/Audio9.wav,193.7655053000001,193.7621842,9,"[8.317141799999945, 18.116151199999877, 16.588948099999925, 19.555110300000024, 6.1126540000000205, 5.4722541000001, 24.489213999999947, 12.078575600000022, 5.91515000000004]","[0.00022020000005795737, 0.014474599999857674, 0.03475380000008954, 0.03716359999998531, 0.051230700000132856, 0.03610830000002352, 0.03514070000005631, 0.046934100000044054, 5.915157099999988]",0,,,,,,,,,,,,,,,,,,,,,,,,,,,,,,,,,,,,,,,,,,,,,,,,,,,,,,,,,,,,,,,,,,,,,,,,,,,,,,,,,,,,,,,,,,,,,,,,,,,,,,,,,,,,,,,,,,,,,,,,,,,,KQGVLC,train_x,red_square,top_left,2025-06-14_10h17.47.120,HideSeek_v1,2022.2.5,59.901868758579134,
,,,,,,,,,,,,,,,0,0,0,0,9,0,9,0,,,,,,,,,,,,,,,,,,,,,,,,,,,,,,,conditions/schedules/train_x_first/red_square_00/top_left/instructions/Slide10.png,conditions/schedules/train_x_first/red_square_00/top_left/instructions/Audio10.wav,199.7178867,199.71701825000017,10,"[8.317141799999945, 18.116151199999877, 16.588948099999925, 19.555110300000024, 6.1126540000000205, 5.4722541000001, 24.489213999999947, 12.078575600000022, 5.91515000000004, 7.0858513000000585]","[0.00022020000005795737, 0.014474599999857674, 0.03475380000008954, 0.03716359999998531, 0.051230700000132856, 0.03610830000002352, 0.03514070000005631, 0.046934100000044054, 0.11311990000012884, 7.085858099999996]",0,,,,,,,,,,,,,,,,,,,,,,,,,,,,,,,,,,,,,,,,,,,,,,,,,,,,,,,,,,,,,,,,,,,,,,,,,,,,,,,,,,,,,,,,,,,,,,,,,,,,,,,,,,,,,,,,,,,,,,,,,,,,KQGVLC,train_x,red_square,top_left,2025-06-14_10h17.47.120,HideSeek_v1,2022.2.5,59.901868758579134,
,,,,,,,,,,,,,,,0,0,0,0,10,0,10,0,,,,,,,,,,,,,,,,,,,,,,,,,,,,,,,conditions/schedules/train_x_first/red_square_00/top_left/instructions/Slide11.png,conditions/schedules/train_x_first/red_square_00/top_left/instructions/Audio11.wav,206.87405750000016,206.87302535000003,11,"[8.317141799999945, 18.116151199999877, 16.588948099999925, 19.555110300000024, 6.1126540000000205, 5.4722541000001, 24.489213999999947, 12.078575600000022, 5.91515000000004, 7.0858513000000585, 9.504559900000004]","[0.00022020000005795737, 0.014474599999857674, 0.03475380000008954, 0.03716359999998531, 0.051230700000132856, 0.03610830000002352, 0.03514070000005631, 0.046934100000044054, 0.11311990000012884, 0.09684649999985595, 9.50456650000001]",0,,,,,,,,,,,,,,,,,,,,,,,,,,,,,,,,,,,,,,,,,,,,,,,,,,,,,,,,,,,,,,,,,,,,,,,,,,,,,,,,,,,,,,,,,,,,,,,,,,,,,,,,,,,,,,,,,,,,,,,,,,,,KQGVLC,train_x,red_square,top_left,2025-06-14_10h17.47.120,HideSeek_v1,2022.2.5,59.901868758579134,
,,,,,,,,,,,,,,,0,0,0,0,11,0,11,0,,,,,,,,,,,,,,,,,,,,,,,,,,,,,,,conditions/schedules/train_x_first/red_square_00/top_left/instructions/Slide12.png,conditions/schedules/train_x_first/red_square_00/top_left/instructions/Audio12.wav,216.43185310000013,216.43092370000014,12,"[8.317141799999945, 18.116151199999877, 16.588948099999925, 19.555110300000024, 6.1126540000000205, 5.4722541000001, 24.489213999999947, 12.078575600000022, 5.91515000000004, 7.0858513000000585, 9.504559900000004, 18.795491999999967]","[0.00022020000005795737, 0.014474599999857674, 0.03475380000008954, 0.03716359999998531, 0.051230700000132856, 0.03610830000002352, 0.03514070000005631, 0.046934100000044054, 0.11311990000012884, 0.09684649999985595, 0.14715960000012274, 18.795499100000143]",0,,,,,,,,,,,,,,,,,,,,,,,,,,,,,,,,,,,,,,,,,,,,,,,,,,,,,,,,,,,,,,,,,,,,,,,,,,,,,,,,,,,,,,,,,,,,,,,,,,,,,,,,,,,,,,,,,,,,,,,,,,,,KQGVLC,train_x,red_square,top_left,2025-06-14_10h17.47.120,HideSeek_v1,2022.2.5,59.901868758579134,
1,3,7,8,7,5,0,66,2,instr_dim1_1,,,,,,0,0,0,0,,,,,0,0,0,0,,,,,,,,,,,,,,,,,,,,,,,,,,,,,,,,,,,,,stimuli/alien_stimuli/66.png,conditions/schedules/train_x_first/red_square_00/top_left/inputInstr_1.xlsx,stimuli/alien_stimuli/66.png,235.31927410000003,235.31927410000003,235.31927410000003,235.31927410000003,235.3131372000001,return,10.314692899999955,"[-0.16, -0.08, 0, 0.08, 0.16, 0.24, 0.32, 0.4, 0.48, 0.56]","[-0.4, -0.32, -0.24, -0.16, -0.08, 0, 0.08, 0.16, 0.24, 0.32]",7,7,8,3,0.0,0.4,245.7994708000001,245.7994708000001,245.7994708000001,245.7994708000001,245.7994708000001,245.7994708000001,245.7994708000001,245.78874235000004,10.79276109999978,return,10.627210999999988,stimuli/alien_stimuli/66.png,66,3,1,,,,,,,,,,,,,,,,,,,,,,,,,,,,,,,,,,,,,,,,,,,,,,,,,,,,,,,,,,,,,,,,,,,,,,,,,,,,,,,,,,,,,,,,,KQGVLC,train_x,red_square,top_left,2025-06-14_10h17.47.120,HideSeek_v1,2022.2.5,59.901868758579134,
,,,,,,,,,,,30,,,,0,0,0,0,,,,,,,,,,,,,,,,,,,,,,,,,,,,,,,,,,,,,,,,,,,,,,,,,,,,,,,,,,,,,,,,,,,,,,,,,,,,,,21,0.7,0,0,99,1,30,0,conditions/schedules/train_x_first/red_square_00/top_left/inputTrain_1.1.xlsx,99,1,1,1,0,,,,,,,,,,,,,,,,,,,,,,,,,,,,,,,,,,,,,,,,,,,,,,,,,,,,,,,,,,,,,,,,,,,,,,,,,,,KQGVLC,train_x,red_square,top_left,2025-06-14_10h17.47.120,HideSeek_v1,2022.2.5,59.901868758579134,
,,,,,,,,,,,,,,,1,0,1,0,0,0,0,0,,,,,,,,,,,,,,,,,,,,,,,,,,,,,,,conditions/schedules/train_x_first/red_square_00/top_left/instructions/Slide13.png,conditions/schedules/train_x_first/red_square_00/top_left/instructions/Audio13.wav,256.6167358,256.61422045000006,13,"[8.317141799999945, 18.116151199999877, 16.588948099999925, 19.555110300000024, 6.1126540000000205, 5.4722541000001, 24.489213999999947, 12.078575600000022, 5.91515000000004, 7.0858513000000585, 9.504559900000004, 18.795491999999967, 18.72657860000004]","[0.00022020000005795737, 0.014474599999857674, 0.03475380000008954, 0.03716359999998531, 0.051230700000132856, 0.03610830000002352, 0.03514070000005631, 0.046934100000044054, 0.11311990000012884, 0.09684649999985595, 0.14715960000012274, 18.795499100000143, 18.72658549999983]",0,,,,,,,,,,,,,,,,,,,,,,,,,,,,,,,,,,,,,,,,,,,,,,,,,,,,,,,,,,,,,,,,,,,,,,,,,,,,,,,,,,,,,,,,,,,,,,,,,,,,,,,,,,,,,,,,,,,,,,,,,,,,KQGVLC,train_x,red_square,top_left,2025-06-14_10h17.47.120,HideSeek_v1,2022.2.5,59.901868758579134,
,,,,,,,,,,,,,,,1,0,1,0,1,0,1,0,,,,,,,,,,,,,,,,,,,,,,,,,,,,,,,conditions/schedules/train_x_first/red_square_00/top_left/instructions/Slide14.png,conditions/schedules/train_x_first/red_square_00/top_left/instructions/Audio14.wav,275.4136136000002,275.41259115,14,"[8.317141799999945, 18.116151199999877, 16.588948099999925, 19.555110300000024, 6.1126540000000205, 5.4722541000001, 24.489213999999947, 12.078575600000022, 5.91515000000004, 7.0858513000000585, 9.504559900000004, 18.795491999999967, 18.72657860000004, 14.559440600000016]","[0.00022020000005795737, 0.014474599999857674, 0.03475380000008954, 0.03716359999998531, 0.051230700000132856, 0.03610830000002352, 0.03514070000005631, 0.046934100000044054, 0.11311990000012884, 0.09684649999985595, 0.14715960000012274, 18.795499100000143, 0.08091250000006767, 14.559447300000102]",0,,,,,,,,,,,,,,,,,,,,,,,,,,,,,,,,,,,,,,,,,,,,,,,,,,,,,,,,,,,,,,,,,,,,,,,,,,,,,,,,,,,,,,,,,,,,,,,,,,,,,,,,,,,,,,,,,,,,,,,,,,,,KQGVLC,train_x,red_square,top_left,2025-06-14_10h17.47.120,HideSeek_v1,2022.2.5,59.901868758579134,
2,4,5,4,5,0,0,16,2,instr_dim1_1,,,,,,1,0,1,0,,,,,0,0,0,0,,,,,,,,,,,,,,,,,,,,,,,,,,,,,,,,,,,,,stimuli/alien_stimuli/16.png,conditions/schedules/train_x_first/red_square_00/top_left/inputInstr_1.xlsx,stimuli/alien_stimuli/16.png,290.07080930000006,290.07080930000006,290.07080930000006,290.07080930000006,290.0586730000001,return,6.554253999999901,"[-0.16, -0.08, 0, 0.08, 0.16, 0.24, 0.32, 0.4, 0.48, 0.56]","[-0.4, -0.32, -0.24, -0.16, -0.08, 0, 0.08, 0.16, 0.24, 0.32]",5,5,4,4,0.0,0.0,296.7866093,296.7866093,296.7866093,296.7866093,296.7866093,296.7866093,296.7866093,296.7806577500002,8.408067800000026,return,8.250611199999867,stimuli/alien_stimuli/16.png,16,4,2,,,,,,,,,,,,,,,,,,,,,,,,,,,,,,,,,,,,,,,,,,,,,,,,,,,,,,,,,,,,,,,,,,,,,,,,,,,,,,,,,,,,,,,,,KQGVLC,train_x,red_square,top_left,2025-06-14_10h17.47.120,HideSeek_v1,2022.2.5,59.901868758579134,
,,,,,,,,,,,30,,,,1,0,1,0,,,,,,,,,,,,,,,,,,,,,,,,,,,,,,,,,,,,,,,,,,,,,,,,,,,,,,,,,,,,,,,,,,,,,,,,,,,,,,21,0.7,0,0,99,1,30,0,conditions/schedules/train_x_first/red_square_00/top_left/inputTrain_1.1.xlsx,99,1,1,1,0,,,,,,,,,,,,,,,,,,,,,,,,,,,,,,,,,,,,,,,,,,,,,,,,,,,,,,,,,,,,,,,,,,,,,,,,,,,KQGVLC,train_x,red_square,top_left,2025-06-14_10h17.47.120,HideSeek_v1,2022.2.5,59.901868758579134,
,,,,,,,,,,,,,,,2,0,2,0,0,0,0,0,,,,,,,,,,,,,,,,,,,,,,,,,,,,,,,conditions/schedules/train_x_first/red_square_00/top_left/instructions/Slide15.png,conditions/schedules/train_x_first/red_square_00/top_left/instructions/Audio15.wav,305.2193,305.22104535000005,15,"[8.317141799999945, 18.116151199999877, 16.588948099999925, 19.555110300000024, 6.1126540000000205, 5.4722541000001, 24.489213999999947, 12.078575600000022, 5.91515000000004, 7.0858513000000585, 9.504559900000004, 18.795491999999967, 18.72657860000004, 14.559440600000016, 31.592251499999975]","[0.00022020000005795737, 0.014474599999857674, 0.03475380000008954, 0.03716359999998531, 0.051230700000132856, 0.03610830000002352, 0.03514070000005631, 0.046934100000044054, 0.11311990000012884, 0.09684649999985595, 0.14715960000012274, 18.795499100000143, 0.08091250000006767, 14.559447300000102, 31.592258299999912]",0,,,,,,,,,,,,,,,,,,,,,,,,,,,,,,,,,,,,,,,,,,,,,,,,,,,,,,,,,,,,,,,,,,,,,,,,,,,,,,,,,,,,,,,,,,,,,,,,,,,,,,,,,,,,,,,,,,,,,,,,,,,,KQGVLC,train_x,red_square,top_left,2025-06-14_10h17.47.120,HideSeek_v1,2022.2.5,59.901868758579134,
,,,,,,,,,,,,,,,2,0,2,0,1,0,1,0,,,,,,,,,,,,,,,,,,,,,,,,,,,,,,,conditions/schedules/train_x_first/red_square_00/top_left/instructions/Slide16.png,conditions/schedules/train_x_first/red_square_00/top_left/instructions/Audio16.wav,336.8791719000001,336.88065215000006,16,"[8.317141799999945, 18.116151199999877, 16.588948099999925, 19.555110300000024, 6.1126540000000205, 5.4722541000001, 24.489213999999947, 12.078575600000022, 5.91515000000004, 7.0858513000000585, 9.504559900000004, 18.795491999999967, 18.72657860000004, 14.559440600000016, 31.592251499999975, 21.78436049999982]","[0.00022020000005795737, 0.014474599999857674, 0.03475380000008954, 0.03716359999998531, 0.051230700000132856, 0.03610830000002352, 0.03514070000005631, 0.046934100000044054, 0.11311990000012884, 0.09684649999985595, 0.14715960000012274, 18.795499100000143, 0.08091250000006767, 14.559447300000102, 0.06578109999986737, 21.78436869999996]",0,,,,,,,,,,,,,,,,,,,,,,,,,,,,,,,,,,,,,,,,,,,,,,,,,,,,,,,,,,,,,,,,,,,,,,,,,,,,,,,,,,,,,,,,,,,,,,,,,,,,,,,,,,,,,,,,,,,,,,,,,,,,KQGVLC,train_x,red_square,top_left,2025-06-14_10h17.47.120,HideSeek_v1,2022.2.5,59.901868758579134,
,2,6,5,6,3,0,46,,train_dim1_1,1,30,,,,2,0,2,0,,,,,,,,,0,0,0,0,0,0,0,0,0,0,0,0,,,,,,,,,,,,,,,,,,,,,,,,,stimuli/alien_stimuli/46.png,,,,,,,,,,,,,,,,,,,,,,,,,,,,,,,,,,,,,,,30,,,,,,,,358.75499090000017,358.75499090000017,358.75499090000017,358.75499090000017,358.75499090000017,right,3.5616525000000365,0,0,0,99,0.08,0.08,right,3.4735955999999533,,,,,,,,,,,,,,,,,,,,,,,,,,,,,,,,,,,,,,,,,,,,,,,,,,,,,,,,,,,,KQGVLC,train_x,red_square,top_left,2025-06-14_10h17.47.120,HideSeek_v1,2022.2.5,59.901868758579134,
,2,6,5,6,3,0,46,,train_dim1_1,1,30,,,,2,0,2,0,,,,,,,,,0,0,0,0,0,0,0,0,1,0,1,0,,,,,,,,,,,,,,,,,,,,,,,,,,,,,,,,,,,,,,,,,,,,,,,,,,,,,,,,,,,,,,,,30,,,,,,,,362.3174315000001,362.3174315000001,362.3174315000001,362.3174315000001,362.3174315000001,right,0.6911533999998483,0,0,0,99,0.16,0.08,right,0.6031818999999814,,,,,,,,,,,,,,,,,,,,,,,,,,,,,,,,,,,,,,,,,,,,,,,,,,,,,,,,,,,,KQGVLC,train_x,red_square,top_left,2025-06-14_10h17.47.120,HideSeek_v1,2022.2.5,59.901868758579134,
,2,6,5,6,3,0,46,,train_dim1_1,1,30,,,,2,0,2,0,,,,,,,,,0,0,0,0,0,0,0,0,2,0,2,0,,,,,,,,,,,,,,,,,,,,,,,,,,,,,,,,,,,,,,,,,,,,,,,,,,,,,,,,,,,,,,,,30,,,,,,,,363.0155952,363.0155952,363.0155952,363.0155952,363.0155952,right,0.608974999999873,0,0,0,99,0.24,0.08,right,0.5274682000001576,,,,,,,,,,,,,,,,,,,,,,,,,,,,,,,,,,,,,,,,,,,,,,,,,,,,,,,,,,,,KQGVLC,train_x,red_square,top_left,2025-06-14_10h17.47.120,HideSeek_v1,2022.2.5,59.901868758579134,
,2,6,5,6,3,0,46,,train_dim1_1,1,30,,,,2,0,2,0,,,,,,,,,0,0,0,0,0,0,0,0,3,0,3,0,,,,,,,,,,,,,,,,,,,,,,,,,,,,,,,,,,,,,,,,,,,,,,,,,,,,,,,,,,,,,,,,30,,,,,,,,363.63213080000014,363.63213080000014,363.63213080000014,363.63213080000014,363.63213080000014,down,5.080245599999898,0,0,0,99,0.24,0.0,down,5.005176899999924,,,,,,,,,,,,,,,,,,,,,,,,,,,,,,,,,,,,,,,,,,,,,,,,,,,,,,,,,,,,KQGVLC,train_x,red_square,top_left,2025-06-14_10h17.47.120,HideSeek_v1,2022.2.5,59.901868758579134,
,2,6,5,6,3,0,46,,train_dim1_1,1,30,,,,2,0,2,0,,,,,,,,,0,0,0,0,0,0,0,0,4,0,4,0,,,,,,,,,,,,,,,,,,,,,,,,,,,,,,,,,,,,,,,,,,,,,,,,,,,,,,,,,,,,,,,,30,,,,,,,,368.7205842000001,368.7205842000001,368.7205842000001,368.7205842000001,368.7205842000001,down,4.1302074000000175,0,0,0,99,0.24,-0.08,down,4.048086799999965,,,,,,,,,,,,,,,,,,,,,,,,,,,,,,,,,,,,,,,,,,,,,,,,,,,,,,,,,,,,KQGVLC,train_x,red_square,top_left,2025-06-14_10h17.47.120,HideSeek_v1,2022.2.5,59.901868758579134,
,2,6,5,6,3,0,46,,train_dim1_1,1,30,,,,2,0,2,0,,,,,,,,,0,0,0,0,0,0,0,0,5,0,5,0,,,,,,,,,,,,,,,,,,,,,,,,,,,,,,,,,,,,,,,,,,,,,,,,,,,,,,,,,,,,,,,,30,,,,,,,,372.8579098,372.8579098,372.8579098,372.8579098,372.8579098,down,5.146702700000105,0,0,0,99,0.24,-0.16,down,5.05812079999987,,,,,,,,,,,,,,,,,,,,,,,,,,,,,,,,,,,,,,,,,,,,,,,,,,,,,,,,,,,,KQGVLC,train_x,red_square,top_left,2025-06-14_10h17.47.120,HideSeek_v1,2022.2.5,59.901868758579134,
,2,6,5,6,3,0,46,,train_dim1_1,1,30,,,,2,0,2,0,,,,,,,,,0,0,0,0,0,0,0,0,6,0,6,0,,,,,,,,,,,,,,,,,,,,,,,,,,,,,,,,,,,,,,,,,,,,,,,,,,,,,,,,,,,,,,,,30,,,,,,,,378.01071650000017,378.01071650000017,378.01071650000017,378.01071650000017,378.01071650000017,return,1.2943821999999727,0,0,0,0,0.24,-0.16,return,1.2148122999999487,-3,3,0.24,-0.16,,,,,,,,,,,,,,,,,,,,,,,,,,,,,,,,,,,,,,,,,,,,,,,,,,,,,,,,KQGVLC,train_x,red_square,top_left,2025-06-14_10h17.47.120,HideSeek_v1,2022.2.5,59.901868758579134,
,2,9,2,9,0,0,16,,train_dim1_1,2,30,,,,2,0,2,0,,,,,,,,,0,0,0,0,0,1,1,1,0,0,0,0,,,,,,,,,,,,,,,,,,,,,,,,,stimuli/alien_stimuli/16.png,,,,,,,,,,,,,,,,,,,,,,,,,,,,,stimuli/alien_stimuli/46.png,46,2,3,,,,,,,30,,,,,,,,388.9719541000002,388.9719541000002,388.9719541000002,388.9719541000002,388.9719541000002,down,4.18998119999992,0,0,0,99,0,0.24,down,4.104340000000093,,,,,387.4058579,388.9719541000002,0.24,0.08,0.0,0.24,0.08,0.24,0.12,0.24,0.08,380.88432190000003,380.88432190000003,380.88432190000003,380.88432190000003,380.88432190000003,380.88432190000003,380.88432190000003,380.88432190000003,380.8677095500002,6.640717500000164,return,6.498147900000049,,,,,,,,,,,,,,,,,,,,,,,,,,,,,,,,,KQGVLC,train_x,red_square,top_left,2025-06-14_10h17.47.120,HideSeek_v1,2022.2.5,59.901868758579134,
,2,9,2,9,0,0,16,,train_dim1_1,2,30,,,,2,0,2,0,,,,,,,,,0,0,0,0,0,1,1,1,1,0,1,0,,,,,,,,,,,,,,,,,,,,,,,,,,,,,,,,,,,,,,,,,,,,,,,,,,,,,,,,,,,,,,,,30,,,,,,,,393.16370410000013,393.16370410000013,393.16370410000013,393.16370410000013,393.16370410000013,down,0.6926929999999629,0,0,0,99,0,0.15999999999999998,down,0.6034879999999703,,,,,,,,,,,,,,,,,,,,,,,,,,,,,,,,,,,,,,,,,,,,,,,,,,,,,,,,,,,,KQGVLC,train_x,red_square,top_left,2025-06-14_10h17.47.120,HideSeek_v1,2022.2.5,59.901868758579134,
,2,9,2,9,0,0,16,,train_dim1_1,2,30,,,,2,0,2,0,,,,,,,,,0,0,0,0,0,1,1,1,2,0,2,0,,,,,,,,,,,,,,,,,,,,,,,,,,,,,,,,,,,,,,,,,,,,,,,,,,,,,,,,,,,,,,,,30,,,,,,,,393.86274960000014,393.86274960000014,393.86274960000014,393.86274960000014,393.86274960000014,down,0.6769621999999345,0,0,0,99,0,0.07999999999999997,down,0.5837324999999964,,,,,,,,,,,,,,,,,,,,,,,,,,,,,,,,,,,,,,,,,,,,,,,,,,,,,,,,,,,,KQGVLC,train_x,red_square,top_left,2025-06-14_10h17.47.120,HideSeek_v1,2022.2.5,59.901868758579134,
,2,9,2,9,0,0,16,,train_dim1_1,2,30,,,,2,0,2,0,,,,,,,,,0,0,0,0,0,1,1,1,3,0,3,0,,,,,,,,,,,,,,,,,,,,,,,,,,,,,,,,,,,,,,,,,,,,,,,,,,,,,,,,,,,,,,,,30,,,,,,,,394.5444822000002,394.5444822000002,394.5444822000002,394.5444822000002,394.5444822000002,return,0.8770956999999271,0,0,0,0,0,0.07999999999999997,return,0.7925956999999926,-6,3,0,0.07999999999999997,,,,,,,,,,,,,,,,,,,,,,,,,,,,,,,,,,,,,,,,,,,,,,,,,,,,,,,,KQGVLC,train_x,red_square,top_left,2025-06-14_10h17.47.120,HideSeek_v1,2022.2.5,59.901868758579134,
,4,9,5,9,1,0,26,,train_dim1_1,3,30,,,,2,0,2,0,,,,,,,,,0,0,0,0,0,2,2,2,0,0,0,0,,,,,,,,,,,,,,,,,,,,,,,,,stimuli/alien_stimuli/26.png,,,,,,,,,,,,,,,,,,,,,,,,,,,,,stimuli/alien_stimuli/16.png,16,2,4,,,,,,,30,,,,,,,,402.66588150000007,402.66588150000007,402.66588150000007,402.66588150000007,402.66588150000007,down,27.459316899999976,0,0,0,99,0.16,0.24,down,27.365575900000067,,,,,401.10068790000014,402.66588150000007,0,0.32,0.0,0.0,0.32,0,0.0,0,0.32,396.9966766,396.9966766,396.9966766,396.9966766,396.9966766,396.9966766,396.9966766,396.9966766,396.98077735000015,4.2219729999999345,return,4.077987799999846,,,,,,,,,,,,,,,,,,,,,,,,,,,,,,,,,KQGVLC,train_x,red_square,top_left,2025-06-14_10h17.47.120,HideSeek_v1,2022.2.5,59.901868758579134,
,4,9,5,9,1,0,26,,train_dim1_1,3,30,,,,2,0,2,0,,,,,,,,,0,0,0,0,0,2,2,2,1,0,1,0,,,,,,,,,,,,,,,,,,,,,,,,,,,,,,,,,,,,,,,,,,,,,,,,,,,,,,,,,,,,,,,,30,,,,,,,,430.1443691000002,430.1443691000002,430.1443691000002,430.1443691000002,430.1443691000002,left,2.4602042999999867,0,0,0,99,0.08,0.24,left,2.359191199999941,,,,,,,,,,,,,,,,,,,,,,,,,,,,,,,,,,,,,,,,,,,,,,,,,,,,,,,,,,,,KQGVLC,train_x,red_square,top_left,2025-06-14_10h17.47.120,HideSeek_v1,2022.2.5,59.901868758579134,
,4,9,5,9,1,0,26,,train_dim1_1,3,30,,,,2,0,2,0,,,,,,,,,0,0,0,0,0,2,2,2,2,0,2,0,,,,,,,,,,,,,,,,,,,,,,,,,,,,,,,,,,,,,,,,,,,,,,,,,,,,,,,,,,,,,,,,30,,,,,,,,432.5957222000002,432.5957222000002,432.5957222000002,432.5957222000002,432.5957222000002,up,2.4265646999999717,0,0,0,99,0.08,0.32,up,2.341250000000173,,,,,,,,,,,,,,,,,,,,,,,,,,,,,,,,,,,,,,,,,,,,,,,,,,,,,,,,,,,,KQGVLC,train_x,red_square,top_left,2025-06-14_10h17.47.120,HideSeek_v1,2022.2.5,59.901868758579134,
,4,9,5,9,1,0,26,,train_dim1_1,3,30,,,,2,0,2,0,,,,,,,,,0,0,0,0,0,2,2,2,3,0,3,0,,,,,,,,,,,,,,,,,,,,,,,,,,,,,,,,,,,,,,,,,,,,,,,,,,,,,,,,,,,,,,,,30,,,,,,,,435.02999910000017,435.02999910000017,435.02999910000017,435.02999910000017,435.02999910000017,return,0.8107347999998638,0,0,0,0,0.08,0.32,return,0.7313192999999956,-6,2,0.08,0.32,,,,,,,,,,,,,,,,,,,,,,,,,,,,,,,,,,,,,,,,,,,,,,,,,,,,,,,,KQGVLC,train_x,red_square,top_left,2025-06-14_10h17.47.120,HideSeek_v1,2022.2.5,59.901868758579134,
,2,8,6,8,4,0,56,,train_dim1_1,4,30,,,,2,0,2,0,,,,,,,,,0,0,0,0,0,3,3,3,0,0,0,0,,,,,,,,,,,,,,,,,,,,,,,,,stimuli/alien_stimuli/56.png,,,,,,,,,,,,,,,,,,,,,,,,,,,,,stimuli/alien_stimuli/26.png,26,4,5,,,,,,,30,,,,,,,,445.4186743,445.4186743,445.4186743,445.4186743,445.4186743,right,5.706272499999841,0,0,0,99,0.08,0.24,right,5.6163819999999305,,,,,443.8528162,445.4186743,0.24,0.32,0.0,0.08,0.32,0.24,0.2,0.24,0.32,437.43043950000015,437.43043950000015,437.43043950000015,437.43043950000015,437.43043950000015,437.43043950000015,437.43043950000015,437.43043950000015,437.4142066,6.557215000000042,return,6.3902018000001135,,,,,,,,,,,,,,,,,,,,,,,,,,,,,,,,,KQGVLC,train_x,red_square,top_left,2025-06-14_10h17.47.120,HideSeek_v1,2022.2.5,59.901868758579134,
,2,8,6,8,4,0,56,,train_dim1_1,4,30,,,,2,0,2,0,,,,,,,,,0,0,0,0,0,3,3,3,1,0,1,0,,,,,,,,,,,,,,,,,,,,,,,,,,,,,,,,,,,,,,,,,,,,,,,,,,,,,,,,,,,,,,,,30,,,,,,,,451.1271584000001,451.1271584000001,451.1271584000001,451.1271584000001,451.1271584000001,right,0.49121470000000045,0,0,0,99,0.16,0.24,right,0.4137375999998767,,,,,,,,,,,,,,,,,,,,,,,,,,,,,,,,,,,,,,,,,,,,,,,,,,,,,,,,,,,,KQGVLC,train_x,red_square,top_left,2025-06-14_10h17.47.120,HideSeek_v1,2022.2.5,59.901868758579134,
,2,8,6,8,4,0,56,,train_dim1_1,4,30,,,,2,0,2,0,,,,,,,,,0,0,0,0,0,3,3,3,2,0,2,0,,,,,,,,,,,,,,,,,,,,,,,,,,,,,,,,,,,,,,,,,,,,,,,,,,,,,,,,,,,,,,,,30,,,,,,,,451.6291345000002,451.6291345000002,451.6291345000002,451.6291345000002,451.6291345000002,return,0.9586524000001191,0,0,0,0,0.16,0.24,return,0.8736066000001301,-6,4,0.16,0.24,,,,,,,,,,,,,,,,,,,,,,,,,,,,,,,,,,,,,,,,,,,,,,,,,,,,,,,,KQGVLC,train_x,red_square,top_left,2025-06-14_10h17.47.120,HideSeek_v1,2022.2.5,59.901868758579134,
,0,7,5,7,5,0,66,,train_dim1_1,5,30,,,,2,0,2,0,,,,,,,,,0,0,0,0,0,4,4,4,0,0,0,0,,,,,,,,,,,,,,,,,,,,,,,,,stimuli/alien_stimuli/66.png,,,,,,,,,,,,,,,,,,,,,,,,,,,,,stimuli/alien_stimuli/56.png,56,2,6,,,,,,,30,,,,,,,,458.94167330000005,458.94167330000005,458.94167330000005,458.94167330000005,458.94167330000005,down,8.192324800000051,0,0,0,99,-0.16,0.08,down,8.109073899999885,,,,,457.3807279,458.94167330000005,0.32,0.24,0.0,0.32,0.24,0.32,0.16,0.32,0.24,454.1525009000002,454.1525009000002,454.1525009000002,454.1525009000002,454.1525009000002,454.1525009000002,454.1525009000002,454.1525009000002,454.14463165000006,3.3383883999999853,return,3.210948700000017,,,,,,,,,,,,,,,,,,,,,,,,,,,,,,,,,KQGVLC,train_x,red_square,top_left,2025-06-14_10h17.47.120,HideSeek_v1,2022.2.5,59.901868758579134,
,0,7,5,7,5,0,66,,train_dim1_1,5,30,,,,2,0,2,0,,,,,,,,,0,0,0,0,0,4,4,4,1,0,1,0,,,,,,,,,,,,,,,,,,,,,,,,,,,,,,,,,,,,,,,,,,,,,,,,,,,,,,,,,,,,,,,,30,,,,,,,,467.1402263,467.1402263,467.1402263,467.1402263,467.1402263,right,0.49069409999992786,0,0,0,99,-0.08,0.08,right,0.415184699999827,,,,,,,,,,,,,,,,,,,,,,,,,,,,,,,,,,,,,,,,,,,,,,,,,,,,,,,,,,,,KQGVLC,train_x,red_square,top_left,2025-06-14_10h17.47.120,HideSeek_v1,2022.2.5,59.901868758579134,
,0,7,5,7,5,0,66,,train_dim1_1,5,30,,,,2,0,2,0,,,,,,,,,0,0,0,0,0,4,4,4,2,0,2,0,,,,,,,,,,,,,,,,,,,,,,,,,,,,,,,,,,,,,,,,,,,,,,,,,,,,,,,,,,,,,,,,30,,,,,,,,467.6372915000002,467.6372915000002,467.6372915000002,467.6372915000002,467.6372915000002,return,0.9939348000000336,0,0,0,0,-0.08,0.08,return,0.9052940999999919,-7,5,-0.08,0.08,,,,,,,,,,,,,,,,,,,,,,,,,,,,,,,,,,,,,,,,,,,,,,,,,,,,,,,,KQGVLC,train_x,red_square,top_left,2025-06-14_10h17.47.120,HideSeek_v1,2022.2.5,59.901868758579134,
,0,5,1,5,1,0,26,,train_dim1_1,6,30,,,,2,0,2,0,,,,,,,,,0,0,0,0,0,5,5,5,0,0,0,0,,,,,,,,,,,,,,,,,,,,,,,,,stimuli/alien_stimuli/26.png,,,,,,,,,,,,,,,,,,,,,,,,,,,,,stimuli/alien_stimuli/66.png,66,0,7,,,,,,,30,,,,,,,,475.0312551000002,475.0312551000002,475.0312551000002,475.0312551000002,475.0312551000002,right,1.8522654999999304,0,0,0,99,-0.08,0,right,1.7671141000000716,,,,,473.46075570000016,475.0312551000002,0.24,0.16,0.0,0.4,0.16,0.24,0.039999999999999994,0.24,0.16,470.2134443,470.2134443,470.2134443,470.2134443,470.2134443,470.2134443,470.2134443,470.2134443,470.2080060000001,3.3714963999998417,return,3.2167810999999347,,,,,,,,,,,,,,,,,,,,,,,,,,,,,,,,,KQGVLC,train_x,red_square,top_left,2025-06-14_10h17.47.120,HideSeek_v1,2022.2.5,59.901868758579134,
,0,5,1,5,1,0,26,,train_dim1_1,6,30,,,,2,0,2,0,,,,,,,,,0,0,0,0,0,5,5,5,1,0,1,0,,,,,,,,,,,,,,,,,,,,,,,,,,,,,,,,,,,,,,,,,,,,,,,,,,,,,,,,,,,,,,,,30,,,,,,,,476.88213500000006,476.88213500000006,476.88213500000006,476.88213500000006,476.88213500000006,return,4.277413499999966,1,0,0,1,-0.08,0,return,4.186613999999963,-7,6,-0.08,0,,,,,,,,,,,,,,,,,,,,,,,,,,,,,,,,,,,,,,,,,,,,,,,,,,,,,,,,KQGVLC,train_x,red_square,top_left,2025-06-14_10h17.47.120,HideSeek_v1,2022.2.5,59.901868758579134,
,3,5,8,5,5,0,66,,train_dim1_1,7,30,,,,2,0,2,0,,,,,,,,,0,0,0,0,0,6,6,6,0,0,0,0,,,,,,,,,,,,,,,,,,,,,,,,,stimuli/alien_stimuli/66.png,,,,,,,,,,,,,,,,,,,,,,,,,,,,,stimuli/alien_stimuli/26.png,26,0,8,,,,,,,30,,,,,,,,488.4655213000001,488.4655213000001,488.4655213000001,488.4655213000001,488.4655213000001,right,5.473858900000096,1,0,0,99,0.16,0,right,5.391060200000084,,,,,486.9050053000001,488.4655213000001,-0.08,0,0.0,0.08,0.0,-0.08,-0.12,-0.08,0,482.7561598,482.7561598,482.7561598,482.7561598,482.7561598,482.7561598,482.7561598,482.7561598,482.73506660000004,4.288887299999942,return,4.117310999999972,,,,,,,,,,,,,,,,,,,,,,,,,,,,,,,,,KQGVLC,train_x,red_square,top_left,2025-06-14_10h17.47.120,HideSeek_v1,2022.2.5,59.901868758579134,
,3,5,8,5,5,0,66,,train_dim1_1,7,30,,,,2,0,2,0,,,,,,,,,0,0,0,0,0,6,6,6,1,0,1,0,,,,,,,,,,,,,,,,,,,,,,,,,,,,,,,,,,,,,,,,,,,,,,,,,,,,,,,,,,,,,,,,30,,,,,,,,493.9415713000001,493.9415713000001,493.9415713000001,493.9415713000001,493.9415713000001,down,0.34312199999999393,1,0,0,99,0.16,-0.08,down,0.2686186999999336,,,,,,,,,,,,,,,,,,,,,,,,,,,,,,,,,,,,,,,,,,,,,,,,,,,,,,,,,,,,KQGVLC,train_x,red_square,top_left,2025-06-14_10h17.47.120,HideSeek_v1,2022.2.5,59.901868758579134,
,3,5,8,5,5,0,66,,train_dim1_1,7,30,,,,2,0,2,0,,,,,,,,,0,0,0,0,0,6,6,6,2,0,2,0,,,,,,,,,,,,,,,,,,,,,,,,,,,,,,,,,,,,,,,,,,,,,,,,,,,,,,,,,,,,,,,,30,,,,,,,,494.2918036000001,494.2918036000001,494.2918036000001,494.2918036000001,494.2918036000001,return,0.6601341000000502,1,0,0,0,0.16,-0.08,return,0.5751772999999503,-8,7,0.16,-0.08,,,,,,,,,,,,,,,,,,,,,,,,,,,,,,,,,,,,,,,,,,,,,,,,,,,,,,,,KQGVLC,train_x,red_square,top_left,2025-06-14_10h17.47.120,HideSeek_v1,2022.2.5,59.901868758579134,
,0,9,3,9,3,0,46,,train_dim1_1,8,30,,,,2,0,2,0,,,,,,,,,0,0,0,0,0,7,7,7,0,0,0,0,,,,,,,,,,,,,,,,,,,,,,,,,stimuli/alien_stimuli/46.png,,,,,,,,,,,,,,,,,,,,,,,,,,,,,stimuli/alien_stimuli/66.png,66,3,9,,,,,,,30,,,,,,,,501.72434910000015,501.72434910000015,501.72434910000015,501.72434910000015,501.72434910000015,right,3.457117000000153,1,0,0,99,-0.08,0.32,right,3.3750013000001218,,,,,500.1654338000001,501.72434910000015,0.48,0,0.0,0.4,0.0,0.48,0.27999999999999997,0.48,0,496.5339160000001,496.5339160000001,496.5339160000001,496.5339160000001,496.5339160000001,496.5339160000001,496.5339160000001,496.5339160000001,496.5132292500002,3.755549199999905,return,3.616599300000189,,,,,,,,,,,,,,,,,,,,,,,,,,,,,,,,,KQGVLC,train_x,red_square,top_left,2025-06-14_10h17.47.120,HideSeek_v1,2022.2.5,59.901868758579134,
,0,9,3,9,3,0,46,,train_dim1_1,8,30,,,,2,0,2,0,,,,,,,,,0,0,0,0,0,7,7,7,1,0,1,0,,,,,,,,,,,,,,,,,,,,,,,,,,,,,,,,,,,,,,,,,,,,,,,,,,,,,,,,,,,,,,,,30,,,,,,,,505.18379819999996,505.18379819999996,505.18379819999996,505.18379819999996,505.18379819999996,right,0.45921939999971073,1,0,0,99,0.0,0.32,right,0.3749051999998301,,,,,,,,,,,,,,,,,,,,,,,,,,,,,,,,,,,,,,,,,,,,,,,,,,,,,,,,,,,,KQGVLC,train_x,red_square,top_left,2025-06-14_10h17.47.120,HideSeek_v1,2022.2.5,59.901868758579134,
,0,9,3,9,3,0,46,,train_dim1_1,8,30,,,,2,0,2,0,,,,,,,,,0,0,0,0,0,7,7,7,2,0,2,0,,,,,,,,,,,,,,,,,,,,,,,,,,,,,,,,,,,,,,,,,,,,,,,,,,,,,,,,,,,,,,,,30,,,,,,,,505.6492160999999,505.6492160999999,505.6492160999999,505.6492160999999,505.6492160999999,right,0.44354139999995823,1,0,0,99,0.08,0.32,right,0.37155780000011873,,,,,,,,,,,,,,,,,,,,,,,,,,,,,,,,,,,,,,,,,,,,,,,,,,,,,,,,,,,,KQGVLC,train_x,red_square,top_left,2025-06-14_10h17.47.120,HideSeek_v1,2022.2.5,59.901868758579134,
,0,9,3,9,3,0,46,,train_dim1_1,8,30,,,,2,0,2,0,,,,,,,,,0,0,0,0,0,7,7,7,3,0,3,0,,,,,,,,,,,,,,,,,,,,,,,,,,,,,,,,,,,,,,,,,,,,,,,,,,,,,,,,,,,,,,,,30,,,,,,,,506.10163979999993,506.10163979999993,506.10163979999993,506.10163979999993,506.10163979999993,return,0.9936843000000408,2,0,0,1,0.08,0.32,return,0.9184903000000304,-8,10,0.08,0.32,,,,,,,,,,,,,,,,,,,,,,,,,,,,,,,,,,,,,,,,,,,,,,,,,,,,,,,,KQGVLC,train_x,red_square,top_left,2025-06-14_10h17.47.120,HideSeek_v1,2022.2.5,59.901868758579134,
,1,5,5,5,4,0,56,,train_dim1_1,9,30,,,,2,0,2,0,,,,,,,,,0,0,0,0,0,8,8,8,0,0,0,0,,,,,,,,,,,,,,,,,,,,,,,,,stimuli/alien_stimuli/56.png,,,,,,,,,,,,,,,,,,,,,,,,,,,,,stimuli/alien_stimuli/46.png,46,0,10,,,,,,,30,,,,,,,,514.1054843,514.1054843,514.1054843,514.1054843,514.1054843,right,4.572381399999813,2,0,0,99,0.0,0,right,4.4888562000001,,,,,512.5429457000002,514.1054843,0.08,0.32,0.0,0.24,0.32,0.08,-0.04,0.08,0.32,508.6810723000001,508.6810723000001,508.6810723000001,508.6810723000001,508.6810723000001,508.6810723000001,508.6810723000001,508.6810723000001,508.6731682999999,3.9887831999999435,return,3.8319337000002633,,,,,,,,,,,,,,,,,,,,,,,,,,,,,,,,,KQGVLC,train_x,red_square,top_left,2025-06-14_10h17.47.120,HideSeek_v1,2022.2.5,59.901868758579134,
,1,5,5,5,4,0,56,,train_dim1_1,9,30,,,,2,0,2,0,,,,,,,,,0,0,0,0,0,8,8,8,1,0,1,0,,,,,,,,,,,,,,,,,,,,,,,,,,,,,,,,,,,,,,,,,,,,,,,,,,,,,,,,,,,,,,,,30,,,,,,,,518.6814434,518.6814434,518.6814434,518.6814434,518.6814434,right,0.4749967000002471,2,0,0,99,0.08,0,right,0.39934690000018236,,,,,,,,,,,,,,,,,,,,,,,,,,,,,,,,,,,,,,,,,,,,,,,,,,,,,,,,,,,,KQGVLC,train_x,red_square,top_left,2025-06-14_10h17.47.120,HideSeek_v1,2022.2.5,59.901868758579134,
,1,5,5,5,4,0,56,,train_dim1_1,9,30,,,,2,0,2,0,,,,,,,,,0,0,0,0,0,8,8,8,2,0,2,0,,,,,,,,,,,,,,,,,,,,,,,,,,,,,,,,,,,,,,,,,,,,,,,,,,,,,,,,,,,,,,,,30,,,,,,,,519.1711284999999,519.1711284999999,519.1711284999999,519.1711284999999,519.1711284999999,right,0.4239458000001832,2,0,0,99,0.16,0,right,0.3311800999999832,,,,,,,,,,,,,,,,,,,,,,,,,,,,,,,,,,,,,,,,,,,,,,,,,,,,,,,,,,,,KQGVLC,train_x,red_square,top_left,2025-06-14_10h17.47.120,HideSeek_v1,2022.2.5,59.901868758579134,
,1,5,5,5,4,0,56,,train_dim1_1,9,30,,,,2,0,2,0,,,,,,,,,0,0,0,0,0,8,8,8,3,0,3,0,,,,,,,,,,,,,,,,,,,,,,,,,,,,,,,,,,,,,,,,,,,,,,,,,,,,,,,,,,,,,,,,30,,,,,,,,519.5996947000001,519.5996947000001,519.5996947000001,519.5996947000001,519.5996947000001,right,0.6102865999996538,2,0,0,99,0.24,0,right,0.5205254000002242,,,,,,,,,,,,,,,,,,,,,,,,,,,,,,,,,,,,,,,,,,,,,,,,,,,,,,,,,,,,KQGVLC,train_x,red_square,top_left,2025-06-14_10h17.47.120,HideSeek_v1,2022.2.5,59.901868758579134,
,1,5,5,5,4,0,56,,train_dim1_1,9,30,,,,2,0,2,0,,,,,,,,,0,0,0,0,0,8,8,8,4,0,4,0,,,,,,,,,,,,,,,,,,,,,,,,,,,,,,,,,,,,,,,,,,,,,,,,,,,,,,,,,,,,,,,,30,,,,,,,,520.2151070000002,520.2151070000002,520.2151070000002,520.2151070000002,520.2151070000002,return,1.1941495000000941,3,0,0,1,0.24,0,return,1.1178445000000465,-8,14,0.24,0,,,,,,,,,,,,,,,,,,,,,,,,,,,,,,,,,,,,,,,,,,,,,,,,,,,,,,,,KQGVLC,train_x,red_square,top_left,2025-06-14_10h17.47.120,HideSeek_v1,2022.2.5,59.901868758579134,
,0,8,0,8,0,0,16,,train_dim1_1,10,30,,,,2,0,2,0,,,,,,,,,0,0,0,0,0,9,9,9,0,0,0,0,,,,,,,,,,,,,,,,,,,,,,,,,stimuli/alien_stimuli/16.png,,,,,,,,,,,,,,,,,,,,,,,,,,,,,stimuli/alien_stimuli/56.png,56,1,11,,,,,,,30,,,,,,,,527.2498464000003,527.2498464000003,527.2498464000003,527.2498464000003,527.2498464000003,right,2.1245207999995728,3,0,0,99,-0.08,0.24,right,2.032831999999871,,,,,525.6873109999999,527.2498464000003,0.24,0,0.0,0.32,0.0,0.24,0.07999999999999999,0.24,0,522.9750729,522.9750729,522.9750729,522.9750729,522.9750729,522.9750729,522.9750729,522.9750729,522.9682594500002,2.821263799999997,return,2.6953167000001486,,,,,,,,,,,,,,,,,,,,,,,,,,,,,,,,,KQGVLC,train_x,red_square,top_left,2025-06-14_10h17.47.120,HideSeek_v1,2022.2.5,59.901868758579134,
,0,8,0,8,0,0,16,,train_dim1_1,10,30,,,,2,0,2,0,,,,,,,,,0,0,0,0,0,9,9,9,1,0,1,0,,,,,,,,,,,,,,,,,,,,,,,,,,,,,,,,,,,,,,,,,,,,,,,,,,,,,,,,,,,,,,,,30,,,,,,,,529.3755198000001,529.3755198000001,529.3755198000001,529.3755198000001,529.3755198000001,right,0.2917849999998907,3,0,0,99,0.0,0.24,right,0.201121300000068,,,,,,,,,,,,,,,,,,,,,,,,,,,,,,,,,,,,,,,,,,,,,,,,,,,,,,,,,,,,KQGVLC,train_x,red_square,top_left,2025-06-14_10h17.47.120,HideSeek_v1,2022.2.5,59.901868758579134,
,0,8,0,8,0,0,16,,train_dim1_1,10,30,,,,2,0,2,0,,,,,,,,,0,0,0,0,0,9,9,9,2,0,2,0,,,,,,,,,,,,,,,,,,,,,,,,,,,,,,,,,,,,,,,,,,,,,,,,,,,,,,,,,,,,,,,,30,,,,,,,,529.6750789,529.6750789,529.6750789,529.6750789,529.6750789,right,0.21001179999984743,3,0,0,99,0.08,0.24,right,0.1204861000001074,,,,,,,,,,,,,,,,,,,,,,,,,,,,,,,,,,,,,,,,,,,,,,,,,,,,,,,,,,,,KQGVLC,train_x,red_square,top_left,2025-06-14_10h17.47.120,HideSeek_v1,2022.2.5,59.901868758579134,
,0,8,0,8,0,0,16,,train_dim1_1,10,30,,,,2,0,2,0,,,,,,,,,0,0,0,0,0,9,9,9,3,0,3,0,,,,,,,,,,,,,,,,,,,,,,,,,,,,,,,,,,,,,,,,,,,,,,,,,,,,,,,,,,,,,,,,30,,,,,,,,529.8941327,529.8941327,529.8941327,529.8941327,529.8941327,right,0.19162459999961357,3,0,0,99,0.16,0.24,right,0.10686310000028243,,,,,,,,,,,,,,,,,,,,,,,,,,,,,,,,,,,,,,,,,,,,,,,,,,,,,,,,,,,,KQGVLC,train_x,red_square,top_left,2025-06-14_10h17.47.120,HideSeek_v1,2022.2.5,59.901868758579134,
,0,8,0,8,0,0,16,,train_dim1_1,10,30,,,,2,0,2,0,,,,,,,,,0,0,0,0,0,9,9,9,4,0,4,0,,,,,,,,,,,,,,,,,,,,,,,,,,,,,,,,,,,,,,,,,,,,,,,,,,,,,,,,,,,,,,,,30,,,,,,,,530.0927807,530.0927807,530.0927807,530.0927807,530.0927807,right,0.22668250000015178,3,0,0,99,0.24,0.24,right,0.136149800000112,,,,,,,,,,,,,,,,,,,,,,,,,,,,,,,,,,,,,,,,,,,,,,,,,,,,,,,,,,,,KQGVLC,train_x,red_square,top_left,2025-06-14_10h17.47.120,HideSeek_v1,2022.2.5,59.901868758579134,
,0,8,0,8,0,0,16,,train_dim1_1,10,30,,,,2,0,2,0,,,,,,,,,0,0,0,0,0,9,9,9,5,0,5,0,,,,,,,,,,,,,,,,,,,,,,,,,,,,,,,,,,,,,,,,,,,,,,,,,,,,,,,,,,,,,,,,30,,,,,,,,530.3269185000001,530.3269185000001,530.3269185000001,530.3269185000001,530.3269185000001,right,0.1761426000002757,3,0,0,99,0.32,0.24,right,0.09059119999983523,,,,,,,,,,,,,,,,,,,,,,,,,,,,,,,,,,,,,,,,,,,,,,,,,,,,,,,,,,,,KQGVLC,train_x,red_square,top_left,2025-06-14_10h17.47.120,HideSeek_v1,2022.2.5,59.901868758579134,
,0,8,0,8,0,0,16,,train_dim1_1,10,30,,,,2,0,2,0,,,,,,,,,0,0,0,0,0,9,9,9,6,0,6,0,,,,,,,,,,,,,,,,,,,,,,,,,,,,,,,,,,,,,,,,,,,,,,,,,,,,,,,,,,,,,,,,30,,,,,,,,530.5091712999999,530.5091712999999,530.5091712999999,530.5091712999999,530.5091712999999,right,0.24354319999974905,3,0,0,99,0.4,0.24,right,0.16244540000025154,,,,,,,,,,,,,,,,,,,,,,,,,,,,,,,,,,,,,,,,,,,,,,,,,,,,,,,,,,,,KQGVLC,train_x,red_square,top_left,2025-06-14_10h17.47.120,HideSeek_v1,2022.2.5,59.901868758579134,
,0,8,0,8,0,0,16,,train_dim1_1,10,30,,,,2,0,2,0,,,,,,,,,0,0,0,0,0,9,9,9,7,0,7,0,,,,,,,,,,,,,,,,,,,,,,,,,,,,,,,,,,,,,,,,,,,,,,,,,,,,,,,,,,,,,,,,30,,,,,,,,530.7593869,530.7593869,530.7593869,530.7593869,530.7593869,right,0.1931550000003881,3,0,0,99,0.48000000000000004,0.24,right,0.10538440000027549,,,,,,,,,,,,,,,,,,,,,,,,,,,,,,,,,,,,,,,,,,,,,,,,,,,,,,,,,,,,KQGVLC,train_x,red_square,top_left,2025-06-14_10h17.47.120,HideSeek_v1,2022.2.5,59.901868758579134,
,0,8,0,8,0,0,16,,train_dim1_1,10,30,,,,2,0,2,0,,,,,,,,,0,0,0,0,0,9,9,9,8,0,8,0,,,,,,,,,,,,,,,,,,,,,,,,,,,,,,,,,,,,,,,,,,,,,,,,,,,,,,,,,,,,,,,,30,,,,,,,,530.960065,530.960065,530.960065,530.960065,530.960065,right,0.22672999999986132,3,0,0,99,0.56,0.24,right,0.13785769999958575,,,,,,,,,,,,,,,,,,,,,,,,,,,,,,,,,,,,,,,,,,,,,,,,,,,,,,,,,,,,KQGVLC,train_x,red_square,top_left,2025-06-14_10h17.47.120,HideSeek_v1,2022.2.5,59.901868758579134,
,0,8,0,8,0,0,16,,train_dim1_1,10,30,,,,2,0,2,0,,,,,,,,,0,0,0,0,0,9,9,9,9,0,9,0,,,,,,,,,,,,,,,,,,,,,,,,,,,,,,,,,,,,,,,,,,,,,,,,,,,,,,,,,,,,,,,,30,,,,,,,,531.1937027000001,531.1937027000001,531.1937027000001,531.1937027000001,531.1937027000001,return,1.1106064999999035,3,0,0,0,0.56,0.24,return,1.0174017999997886,-8,23,0.56,0.24,,,,,,,,,,,,,,,,,,,,,,,,,,,,,,,,,,,,,,,,,,,,,,,,,,,,,,,,KQGVLC,train_x,red_square,top_left,2025-06-14_10h17.47.120,HideSeek_v1,2022.2.5,59.901868758579134,
,2,7,5,7,3,0,46,,train_dim1_1,11,30,,,,2,0,2,0,,,,,,,,,0,0,0,0,0,10,10,10,0,0,0,0,,,,,,,,,,,,,,,,,,,,,,,,,stimuli/alien_stimuli/46.png,,,,,,,,,,,,,,,,,,,,,,,,,,,,,stimuli/alien_stimuli/16.png,16,0,12,,,,,,,30,,,,,,,,538.1208025000003,538.1208025000003,538.1208025000003,538.1208025000003,538.1208025000003,right,2.105482999999822,3,0,0,99,0.08,0.16,right,2.0176062999998976,,,,,536.5629506000002,538.1208025000003,-0.16,0.24,0.0,0.0,0.24,-0.16,-0.16,-0.16,0.24,533.8970755000003,533.8970755000003,533.8970755000003,533.8970755000003,533.8970755000003,533.8970755000003,533.8970755000003,533.8970755000003,533.8775743000002,2.8042623999999705,return,2.636543199999778,,,,,,,,,,,,,,,,,,,,,,,,,,,,,,,,,KQGVLC,train_x,red_square,top_left,2025-06-14_10h17.47.120,HideSeek_v1,2022.2.5,59.901868758579134,
,2,7,5,7,3,0,46,,train_dim1_1,11,30,,,,2,0,2,0,,,,,,,,,0,0,0,0,0,10,10,10,1,0,1,0,,,,,,,,,,,,,,,,,,,,,,,,,,,,,,,,,,,,,,,,,,,,,,,,,,,,,,,,,,,,,,,,30,,,,,,,,540.2284379,540.2284379,540.2284379,540.2284379,540.2284379,right,0.5768350000003011,3,0,0,99,0.16,0.16,right,0.5009446999997635,,,,,,,,,,,,,,,,,,,,,,,,,,,,,,,,,,,,,,,,,,,,,,,,,,,,,,,,,,,,KQGVLC,train_x,red_square,top_left,2025-06-14_10h17.47.120,HideSeek_v1,2022.2.5,59.901868758579134,
,2,7,5,7,3,0,46,,train_dim1_1,11,30,,,,2,0,2,0,,,,,,,,,0,0,0,0,0,10,10,10,2,0,2,0,,,,,,,,,,,,,,,,,,,,,,,,,,,,,,,,,,,,,,,,,,,,,,,,,,,,,,,,,,,,,,,,30,,,,,,,,540.8119954000001,540.8119954000001,540.8119954000001,540.8119954000001,540.8119954000001,right,0.7435318000002553,3,0,0,99,0.24,0.16,right,0.6638874999998734,,,,,,,,,,,,,,,,,,,,,,,,,,,,,,,,,,,,,,,,,,,,,,,,,,,,,,,,,,,,KQGVLC,train_x,red_square,top_left,2025-06-14_10h17.47.120,HideSeek_v1,2022.2.5,59.901868758579134,
,2,7,5,7,3,0,46,,train_dim1_1,11,30,,,,2,0,2,0,,,,,,,,,0,0,0,0,0,10,10,10,3,0,3,0,,,,,,,,,,,,,,,,,,,,,,,,,,,,,,,,,,,,,,,,,,,,,,,,,,,,,,,,,,,,,,,,30,,,,,,,,541.5629904,541.5629904,541.5629904,541.5629904,541.5629904,return,0.8104539999999361,4,0,0,1,0.24,0.16,return,0.7263886999999158,-8,26,0.24,0.16,,,,,,,,,,,,,,,,,,,,,,,,,,,,,,,,,,,,,,,,,,,,,,,,,,,,,,,,KQGVLC,train_x,red_square,top_left,2025-06-14_10h17.47.120,HideSeek_v1,2022.2.5,59.901868758579134,
,0,5,1,5,1,0,26,,train_dim1_1,12,30,,,,2,0,2,0,,,,,,,,,0,0,0,0,0,11,11,11,0,0,0,0,,,,,,,,,,,,,,,,,,,,,,,,,stimuli/alien_stimuli/26.png,,,,,,,,,,,,,,,,,,,,,,,,,,,,,stimuli/alien_stimuli/46.png,46,2,13,,,,,,,30,,,,,,,,547.9628453000003,547.9628453000003,547.9628453000003,547.9628453000003,547.9628453000003,return,5.2378027000004295,4,1,0,0,-0.16,0,return,5.1402750000002015,-8,26,-0.16,0,546.3876969999999,547.9628453000003,0.24,0.16,0.0,0.24,0.16,0.24,0.12,0.24,0.16,543.9379673999999,543.9379673999999,543.9379673999999,543.9379673999999,543.9379673999999,543.9379673999999,543.9379673999999,543.9379673999999,543.9192879999999,2.5539800999999898,return,2.4338156000003437,,,,,,,,,,,,,,,,,,,,,,,,,,,,,,,,,KQGVLC,train_x,red_square,top_left,2025-06-14_10h17.47.120,HideSeek_v1,2022.2.5,59.901868758579134,
,0,9,4,9,4,0,45,,train_dim1_1,13,30,,,,2,0,2,0,,,,,,,,,0,0,0,0,0,12,12,12,0,0,0,0,,,,,,,,,,,,,,,,,,,,,,,,,stimuli/alien_stimuli/45.png,,,,,,,,,,,,,,,,,,,,,,,,,,,,,stimuli/alien_stimuli/26.png,26,0,14,,,,,,,30,,,,,,,,576.6598254000003,576.6598254000003,576.6598254000003,576.6598254000003,576.6598254000003,right,3.370527300000049,4,1,0,99,-0.08,0.32,right,3.277618600000096,,,,,575.0949038000001,576.6598254000003,-0.08,0,0.0,0.08,0.0,-0.08,-0.12,-0.08,0,554.7790709000003,554.7790709000003,554.7790709000003,554.7790709000003,554.7790709000003,554.7790709000003,554.7790709000003,554.7790709000003,554.7613378000002,20.452178600000025,return,20.292470300000332,,,,,,,,,,,,,,,,,,,,,,,,,,,,,,,,,KQGVLC,train_x,red_square,top_left,2025-06-14_10h17.47.120,HideSeek_v1,2022.2.5,59.901868758579134,
,0,9,4,9,4,0,45,,train_dim1_1,13,30,,,,2,0,2,0,,,,,,,,,0,0,0,0,0,12,12,12,1,0,1,0,,,,,,,,,,,,,,,,,,,,,,,,,,,,,,,,,,,,,,,,,,,,,,,,,,,,,,,,,,,,,,,,30,,,,,,,,580.0270659,580.0270659,580.0270659,580.0270659,580.0270659,right,0.39268089999995937,4,1,0,99,0.0,0.32,right,0.3204077000000325,,,,,,,,,,,,,,,,,,,,,,,,,,,,,,,,,,,,,,,,,,,,,,,,,,,,,,,,,,,,KQGVLC,train_x,red_square,top_left,2025-06-14_10h17.47.120,HideSeek_v1,2022.2.5,59.901868758579134,
,0,9,4,9,4,0,45,,train_dim1_1,13,30,,,,2,0,2,0,,,,,,,,,0,0,0,0,0,12,12,12,2,0,2,0,,,,,,,,,,,,,,,,,,,,,,,,,,,,,,,,,,,,,,,,,,,,,,,,,,,,,,,,,,,,,,,,30,,,,,,,,580.4271396000001,580.4271396000001,580.4271396000001,580.4271396000001,580.4271396000001,right,0.4098745000001145,4,1,0,99,0.08,0.32,right,0.33006879999993544,,,,,,,,,,,,,,,,,,,,,,,,,,,,,,,,,,,,,,,,,,,,,,,,,,,,,,,,,,,,KQGVLC,train_x,red_square,top_left,2025-06-14_10h17.47.120,HideSeek_v1,2022.2.5,59.901868758579134,
,0,9,4,9,4,0,45,,train_dim1_1,13,30,,,,2,0,2,0,,,,,,,,,0,0,0,0,0,12,12,12,3,0,3,0,,,,,,,,,,,,,,,,,,,,,,,,,,,,,,,,,,,,,,,,,,,,,,,,,,,,,,,,,,,,,,,,30,,,,,,,,580.8493122000002,580.8493122000002,580.8493122000002,580.8493122000002,580.8493122000002,return,1.1107544999999845,4,1,0,0,0.08,0.32,return,1.024188900000354,-8,29,0.08,0.32,,,,,,,,,,,,,,,,,,,,,,,,,,,,,,,,,,,,,,,,,,,,,,,,,,,,,,,,KQGVLC,train_x,red_square,top_left,2025-06-14_10h17.47.120,HideSeek_v1,2022.2.5,59.901868758579134,
,4,8,4,8,0,0,16,,train_dim1_1,14,30,,,,2,0,2,0,,,,,,,,,0,0,0,0,0,13,13,13,0,0,0,0,,,,,,,,,,,,,,,,,,,,,,,,,stimuli/alien_stimuli/16.png,,,,,,,,,,,,,,,,,,,,,,,,,,,,,stimuli/alien_stimuli/45.png,45,0,15,,,,,,,30,,,,,,,,593.6903789999999,593.6903789999999,593.6903789999999,593.6903789999999,593.6903789999999,left,2.687864400000308,4,1,0,99,0.08,0.24,left,2.600869199999579,,,,,592.1259184000003,593.6903789999999,0.16,0.32,0.0,0.32,0.32,0.16,0.0,0.16,0.32,583.5351957999999,583.5351957999999,583.5351957999999,583.5351957999999,583.5351957999999,583.5351957999999,583.5351957999999,583.5351957999999,583.5186517500003,8.70911100000012,return,8.569525899999917,,,,,,,,,,,,,,,,,,,,,,,,,,,,,,,,,KQGVLC,train_x,red_square,top_left,2025-06-14_10h17.47.120,HideSeek_v1,2022.2.5,59.901868758579134,
,4,8,4,8,0,0,16,,train_dim1_1,14,30,,,,2,0,2,0,,,,,,,,,0,0,0,0,0,13,13,13,1,0,1,0,,,,,,,,,,,,,,,,,,,,,,,,,,,,,,,,,,,,,,,,,,,,,,,,,,,,,,,,,,,,,,,,30,,,,,,,,596.3802171,596.3802171,596.3802171,596.3802171,596.3802171,return,0.6103020999998989,4,1,0,0,0.08,0.24,return,0.5182805999997981,-8,28,0.08,0.24,,,,,,,,,,,,,,,,,,,,,,,,,,,,,,,,,,,,,,,,,,,,,,,,,,,,,,,,KQGVLC,train_x,red_square,top_left,2025-06-14_10h17.47.120,HideSeek_v1,2022.2.5,59.901868758579134,
,4,7,9,7,5,0,66,,train_dim1_1,15,30,,,,2,0,2,0,,,,,,,,,0,0,0,0,0,14,14,14,0,0,0,0,,,,,,,,,,,,,,,,,,,,,,,,,stimuli/alien_stimuli/66.png,,,,,,,,,,,,,,,,,,,,,,,,,,,,,stimuli/alien_stimuli/16.png,16,4,16,,,,,,,30,,,,,,,,604.8297683000003,604.8297683000003,604.8297683000003,604.8297683000003,604.8297683000003,right,2.222168700000111,4,1,0,99,0.24,0.16,right,2.131248599999708,,,,,603.2684770000003,604.8297683000003,0.16,0.24,0.0,0.0,0.24,0.16,0.16,0.16,0.24,598.5812403000002,598.5812403000002,598.5812403000002,598.5812403000002,598.5812403000002,598.5812403000002,598.5812403000002,598.5812403000002,598.564383,4.822430700000041,return,4.655468599999949,,,,,,,,,,,,,,,,,,,,,,,,,,,,,,,,,KQGVLC,train_x,red_square,top_left,2025-06-14_10h17.47.120,HideSeek_v1,2022.2.5,59.901868758579134,
,4,7,9,7,5,0,66,,train_dim1_1,15,30,,,,2,0,2,0,,,,,,,,,0,0,0,0,0,14,14,14,1,0,1,0,,,,,,,,,,,,,,,,,,,,,,,,,,,,,,,,,,,,,,,,,,,,,,,,,,,,,,,,,,,,,,,,30,,,,,,,,607.0523052000001,607.0523052000001,607.0523052000001,607.0523052000001,607.0523052000001,right,0.20940229999996518,4,1,0,99,0.32,0.16,right,0.13444060000028912,,,,,,,,,,,,,,,,,,,,,,,,,,,,,,,,,,,,,,,,,,,,,,,,,,,,,,,,,,,,KQGVLC,train_x,red_square,top_left,2025-06-14_10h17.47.120,HideSeek_v1,2022.2.5,59.901868758579134,
,4,7,9,7,5,0,66,,train_dim1_1,15,30,,,,2,0,2,0,,,,,,,,,0,0,0,0,0,14,14,14,2,0,2,0,,,,,,,,,,,,,,,,,,,,,,,,,,,,,,,,,,,,,,,,,,,,,,,,,,,,,,,,,,,,,,,,30,,,,,,,,607.2694601000001,607.2694601000001,607.2694601000001,607.2694601000001,607.2694601000001,right,0.22644979999995485,4,1,0,99,0.4,0.16,right,0.14108829999986483,,,,,,,,,,,,,,,,,,,,,,,,,,,,,,,,,,,,,,,,,,,,,,,,,,,,,,,,,,,,KQGVLC,train_x,red_square,top_left,2025-06-14_10h17.47.120,HideSeek_v1,2022.2.5,59.901868758579134,
,4,7,9,7,5,0,66,,train_dim1_1,15,30,,,,2,0,2,0,,,,,,,,,0,0,0,0,0,14,14,14,3,0,3,0,,,,,,,,,,,,,,,,,,,,,,,,,,,,,,,,,,,,,,,,,,,,,,,,,,,,,,,,,,,,,,,,30,,,,,,,,607.5034216000001,607.5034216000001,607.5034216000001,607.5034216000001,607.5034216000001,return,1.0265143999999964,4,0,0,0,0.4,0.16,return,0.9455981999999494,-8,31,0.4,0.16,,,,,,,,,,,,,,,,,,,,,,,,,,,,,,,,,,,,,,,,,,,,,,,,,,,,,,,,KQGVLC,train_x,red_square,top_left,2025-06-14_10h17.47.120,HideSeek_v1,2022.2.5,59.901868758579134,
,3,8,7,8,4,0,56,,train_dim1_1,16,30,,,,2,0,2,0,,,,,,,,,0,0,0,0,0,15,15,15,0,0,0,0,,,,,,,,,,,,,,,,,,,,,,,,,stimuli/alien_stimuli/56.png,,,,,,,,,,,,,,,,,,,,,,,,,,,,,stimuli/alien_stimuli/66.png,66,4,17,,,,,,,30,,,,,,,,616.6886175000002,616.6886175000002,616.6886175000002,616.6886175000002,616.6886175000002,down,3.341669400000228,4,0,0,99,0.08,0.15999999999999998,down,3.254087199999958,,,,,615.1281994000003,616.6886175000002,0.56,0.16,0.0,0.4,0.16,0.56,0.36000000000000004,0.56,0.16,610.1132683000003,610.1132683000003,610.1132683000003,610.1132683000003,610.1132683000003,610.1132683000003,610.1132683000003,610.1132683000003,610.09060965,5.139685600000121,return,4.99034950000032,,,,,,,,,,,,,,,,,,,,,,,,,,,,,,,,,KQGVLC,train_x,red_square,top_left,2025-06-14_10h17.47.120,HideSeek_v1,2022.2.5,59.901868758579134,
,3,8,7,8,4,0,56,,train_dim1_1,16,30,,,,2,0,2,0,,,,,,,,,0,0,0,0,0,15,15,15,1,0,1,0,,,,,,,,,,,,,,,,,,,,,,,,,,,,,,,,,,,,,,,,,,,,,,,,,,,,,,,,,,,,,,,,30,,,,,,,,620.0301188000001,620.0301188000001,620.0301188000001,620.0301188000001,620.0301188000001,down,0.35971329999983936,4,0,0,99,0.08,0.07999999999999997,down,0.27654370000027484,,,,,,,,,,,,,,,,,,,,,,,,,,,,,,,,,,,,,,,,,,,,,,,,,,,,,,,,,,,,KQGVLC,train_x,red_square,top_left,2025-06-14_10h17.47.120,HideSeek_v1,2022.2.5,59.901868758579134,
,3,8,7,8,4,0,56,,train_dim1_1,16,30,,,,2,0,2,0,,,,,,,,,0,0,0,0,0,15,15,15,2,0,2,0,,,,,,,,,,,,,,,,,,,,,,,,,,,,,,,,,,,,,,,,,,,,,,,,,,,,,,,,,,,,,,,,30,,,,,,,,620.3994347999999,620.3994347999999,620.3994347999999,620.3994347999999,620.3994347999999,down,1.1274536000000808,4,0,0,99,0.08,-2.7755575615628914e-17,down,1.0455715999996755,,,,,,,,,,,,,,,,,,,,,,,,,,,,,,,,,,,,,,,,,,,,,,,,,,,,,,,,,,,,KQGVLC,train_x,red_square,top_left,2025-06-14_10h17.47.120,HideSeek_v1,2022.2.5,59.901868758579134,
,3,8,7,8,4,0,56,,train_dim1_1,16,30,,,,2,0,2,0,,,,,,,,,0,0,0,0,0,15,15,15,3,0,3,0,,,,,,,,,,,,,,,,,,,,,,,,,,,,,,,,,,,,,,,,,,,,,,,,,,,,,,,,,,,,,,,,30,,,,,,,,621.5314863000001,621.5314863000001,621.5314863000001,621.5314863000001,621.5314863000001,return,0.4098869999997987,4,0,0,0,0.08,-2.7755575615628914e-17,return,0.3353538999999728,-11,31,0.08,-2.7755575615628914e-17,,,,,,,,,,,,,,,,,,,,,,,,,,,,,,,,,,,,,,,,,,,,,,,,,,,,,,,,KQGVLC,train_x,red_square,top_left,2025-06-14_10h17.47.120,HideSeek_v1,2022.2.5,59.901868758579134,
,2,9,3,9,1,0,26,,train_dim1_1,17,30,,,,2,0,2,0,,,,,,,,,0,0,0,0,0,16,16,16,0,0,0,0,,,,,,,,,,,,,,,,,,,,,,,,,stimuli/alien_stimuli/26.png,,,,,,,,,,,,,,,,,,,,,,,,,,,,,stimuli/alien_stimuli/56.png,56,3,18,,,,,,,30,,,,,,,,627.9992892000002,627.9992892000002,627.9992892000002,627.9992892000002,627.9992892000002,return,2.606072999999924,4,1,0,0,0,0.32,return,2.520328999999947,-11,31,0,0.32,626.4377947,627.9992892000002,0.4,0.24,0.0,0.32,0.24,0.4,0.24000000000000002,0.4,0.24,623.5280356000001,623.5280356000001,623.5280356000001,623.5280356000001,623.5280356000001,623.5280356000001,623.5280356000001,623.5280356000001,623.5185712000003,3.038442699999905,return,2.8808375999997224,,,,,,,,,,,,,,,,,,,,,,,,,,,,,,,,,KQGVLC,train_x,red_square,top_left,2025-06-14_10h17.47.120,HideSeek_v1,2022.2.5,59.901868758579134,
,2,6,7,6,5,0,66,,train_dim1_1,18,30,,,,2,0,2,0,,,,,,,,,0,0,0,0,0,17,17,17,0,0,0,0,,,,,,,,,,,,,,,,,,,,,,,,,stimuli/alien_stimuli/66.png,,,,,,,,,,,,,,,,,,,,,,,,,,,,,stimuli/alien_stimuli/26.png,26,2,19,,,,,,,30,,,,,,,,638.8242539,638.8242539,638.8242539,638.8242539,638.8242539,right,4.072300899999846,4,1,0,99,0.08,0.08,right,3.983918299999914,,,,,637.2631300999999,638.8242539,0.08,0.32,0.0,0.08,0.32,0.08,0.04,0.08,0.32,632.1850311000001,632.1850311000001,632.1850311000001,632.1850311000001,632.1850311000001,632.1850311000001,632.1850311000001,632.1850311000001,632.1757252000003,5.206115800000134,return,5.051066300000002,,,,,,,,,,,,,,,,,,,,,,,,,,,,,,,,,KQGVLC,train_x,red_square,top_left,2025-06-14_10h17.47.120,HideSeek_v1,2022.2.5,59.901868758579134,
,2,6,7,6,5,0,66,,train_dim1_1,18,30,,,,2,0,2,0,,,,,,,,,0,0,0,0,0,17,17,17,1,0,1,0,,,,,,,,,,,,,,,,,,,,,,,,,,,,,,,,,,,,,,,,,,,,,,,,,,,,,,,,,,,,,,,,30,,,,,,,,642.8991496000001,642.8991496000001,642.8991496000001,642.8991496000001,642.8991496000001,right,0.458778600000187,4,1,0,99,0.16,0.08,right,0.38098360000003595,,,,,,,,,,,,,,,,,,,,,,,,,,,,,,,,,,,,,,,,,,,,,,,,,,,,,,,,,,,,KQGVLC,train_x,red_square,top_left,2025-06-14_10h17.47.120,HideSeek_v1,2022.2.5,59.901868758579134,
,2,6,7,6,5,0,66,,train_dim1_1,18,30,,,,2,0,2,0,,,,,,,,,0,0,0,0,0,17,17,17,2,0,2,0,,,,,,,,,,,,,,,,,,,,,,,,,,,,,,,,,,,,,,,,,,,,,,,,,,,,,,,,,,,,,,,,30,,,,,,,,643.3658379999999,643.3658379999999,643.3658379999999,643.3658379999999,643.3658379999999,right,0.660538600000109,4,1,0,99,0.24,0.08,right,0.5836137999999664,,,,,,,,,,,,,,,,,,,,,,,,,,,,,,,,,,,,,,,,,,,,,,,,,,,,,,,,,,,,KQGVLC,train_x,red_square,top_left,2025-06-14_10h17.47.120,HideSeek_v1,2022.2.5,59.901868758579134,
,2,6,7,6,5,0,66,,train_dim1_1,18,30,,,,2,0,2,0,,,,,,,,,0,0,0,0,0,17,17,17,3,0,3,0,,,,,,,,,,,,,,,,,,,,,,,,,,,,,,,,,,,,,,,,,,,,,,,,,,,,,,,,,,,,,,,,30,,,,,,,,644.0312814000001,644.0312814000001,644.0312814000001,644.0312814000001,644.0312814000001,right,0.5597897000002376,4,1,0,99,0.32,0.08,right,0.47788879999961864,,,,,,,,,,,,,,,,,,,,,,,,,,,,,,,,,,,,,,,,,,,,,,,,,,,,,,,,,,,,KQGVLC,train_x,red_square,top_left,2025-06-14_10h17.47.120,HideSeek_v1,2022.2.5,59.901868758579134,
,2,6,7,6,5,0,66,,train_dim1_1,18,30,,,,2,0,2,0,,,,,,,,,0,0,0,0,0,17,17,17,4,0,4,0,,,,,,,,,,,,,,,,,,,,,,,,,,,,,,,,,,,,,,,,,,,,,,,,,,,,,,,,,,,,,,,,30,,,,,,,,644.5998224000002,644.5998224000002,644.5998224000002,644.5998224000002,644.5998224000002,right,0.4762608999999429,4,1,0,99,0.4,0.08,right,0.38822669999990467,,,,,,,,,,,,,,,,,,,,,,,,,,,,,,,,,,,,,,,,,,,,,,,,,,,,,,,,,,,,KQGVLC,train_x,red_square,top_left,2025-06-14_10h17.47.120,HideSeek_v1,2022.2.5,59.901868758579134,
,2,6,7,6,5,0,66,,train_dim1_1,18,30,,,,2,0,2,0,,,,,,,,,0,0,0,0,0,17,17,17,5,0,5,0,,,,,,,,,,,,,,,,,,,,,,,,,,,,,,,,,,,,,,,,,,,,,,,,,,,,,,,,,,,,,,,,30,,,,,,,,645.0831481000002,645.0831481000002,645.0831481000002,645.0831481000002,645.0831481000002,right,0.37715410000009797,4,1,0,99,0.48000000000000004,0.08,right,0.3002217999996901,,,,,,,,,,,,,,,,,,,,,,,,,,,,,,,,,,,,,,,,,,,,,,,,,,,,,,,,,,,,KQGVLC,train_x,red_square,top_left,2025-06-14_10h17.47.120,HideSeek_v1,2022.2.5,59.901868758579134,
,2,6,7,6,5,0,66,,train_dim1_1,18,30,,,,2,0,2,0,,,,,,,,,0,0,0,0,0,17,17,17,6,0,6,0,,,,,,,,,,,,,,,,,,,,,,,,,,,,,,,,,,,,,,,,,,,,,,,,,,,,,,,,,,,,,,,,30,,,,,,,,645.4676529000001,645.4676529000001,645.4676529000001,645.4676529000001,645.4676529000001,right,0.6430630999998357,4,1,0,99,0.56,0.08,right,0.558672199999819,,,,,,,,,,,,,,,,,,,,,,,,,,,,,,,,,,,,,,,,,,,,,,,,,,,,,,,,,,,,KQGVLC,train_x,red_square,top_left,2025-06-14_10h17.47.120,HideSeek_v1,2022.2.5,59.901868758579134,
,2,6,7,6,5,0,66,,train_dim1_1,18,30,,,,2,0,2,0,,,,,,,,,0,0,0,0,0,17,17,17,7,0,7,0,,,,,,,,,,,,,,,,,,,,,,,,,,,,,,,,,,,,,,,,,,,,,,,,,,,,,,,,,,,,,,,,30,,,,,,,,646.1157151,646.1157151,646.1157151,646.1157151,646.1157151,return,1.1940511000002516,4,0,0,0,0.56,0.08,return,1.1218196999998327,-11,38,0.56,0.08,,,,,,,,,,,,,,,,,,,,,,,,,,,,,,,,,,,,,,,,,,,,,,,,,,,,,,,,KQGVLC,train_x,red_square,top_left,2025-06-14_10h17.47.120,HideSeek_v1,2022.2.5,59.901868758579134,
,0,8,3,8,3,0,46,,train_dim1_1,19,30,,,,2,0,2,0,,,,,,,,,0,0,0,0,0,18,18,18,0,0,0,0,,,,,,,,,,,,,,,,,,,,,,,,,stimuli/alien_stimuli/46.png,,,,,,,,,,,,,,,,,,,,,,,,,,,,,stimuli/alien_stimuli/66.png,66,2,20,,,,,,,30,,,,,,,,656.3048452,656.3048452,656.3048452,656.3048452,656.3048452,down,4.173875499999667,4,0,0,99,-0.16,0.15999999999999998,down,4.080538600000182,,,,,654.7442756000003,656.3048452,0.4,0.08,0.0,0.4,0.08,0.4,0.2,0.4,0.08,648.8987867000003,648.8987867000003,648.8987867000003,648.8987867000003,648.8987867000003,648.8987867000003,648.8987867000003,648.8987867000003,648.8897270000003,5.973398000000088,return,5.820164599999771,,,,,,,,,,,,,,,,,,,,,,,,,,,,,,,,,KQGVLC,train_x,red_square,top_left,2025-06-14_10h17.47.120,HideSeek_v1,2022.2.5,59.901868758579134,
,0,8,3,8,3,0,46,,train_dim1_1,19,30,,,,2,0,2,0,,,,,,,,,0,0,0,0,0,18,18,18,1,0,1,0,,,,,,,,,,,,,,,,,,,,,,,,,,,,,,,,,,,,,,,,,,,,,,,,,,,,,,,,,,,,,,,,30,,,,,,,,660.4818671,660.4818671,660.4818671,660.4818671,660.4818671,down,0.29072599999972226,4,0,0,99,-0.16,0.07999999999999997,down,0.2183047999997143,,,,,,,,,,,,,,,,,,,,,,,,,,,,,,,,,,,,,,,,,,,,,,,,,,,,,,,,,,,,KQGVLC,train_x,red_square,top_left,2025-06-14_10h17.47.120,HideSeek_v1,2022.2.5,59.901868758579134,
,0,8,3,8,3,0,46,,train_dim1_1,19,30,,,,2,0,2,0,,,,,,,,,0,0,0,0,0,18,18,18,2,0,2,0,,,,,,,,,,,,,,,,,,,,,,,,,,,,,,,,,,,,,,,,,,,,,,,,,,,,,,,,,,,,,,,,30,,,,,,,,660.7785706000002,660.7785706000002,660.7785706000002,660.7785706000002,660.7785706000002,return,0.9106823000001896,4,0,0,0,-0.16,0.07999999999999997,return,0.832989500000167,-13,38,-0.16,0.07999999999999997,,,,,,,,,,,,,,,,,,,,,,,,,,,,,,,,,,,,,,,,,,,,,,,,,,,,,,,,KQGVLC,train_x,red_square,top_left,2025-06-14_10h17.47.120,HideSeek_v1,2022.2.5,59.901868758579134,
,0,6,0,6,0,0,16,,train_dim1_1,20,30,,,,2,0,2,0,,,,,,,,,0,0,0,0,0,19,19,19,0,0,0,0,,,,,,,,,,,,,,,,,,,,,,,,,stimuli/alien_stimuli/16.png,,,,,,,,,,,,,,,,,,,,,,,,,,,,,stimuli/alien_stimuli/46.png,46,0,21,,,,,,,30,,,,,,,,669.4183964000001,669.4183964000001,669.4183964000001,669.4183964000001,669.4183964000001,right,3.1398223000001053,4,0,0,99,-0.08,0.08,right,3.0507446999999956,,,,,667.8551847000001,669.4183964000001,0.08,0.24,0.0,0.24,0.24,0.08,-0.04,0.08,0.24,663.2715960000003,663.2715960000003,663.2715960000003,663.2715960000003,663.2715960000003,663.2715960000003,663.2715960000003,663.2715960000003,663.2512940500003,4.70610379999971,return,4.552869000000101,,,,,,,,,,,,,,,,,,,,,,,,,,,,,,,,,KQGVLC,train_x,red_square,top_left,2025-06-14_10h17.47.120,HideSeek_v1,2022.2.5,59.901868758579134,
,0,6,0,6,0,0,16,,train_dim1_1,20,30,,,,2,0,2,0,,,,,,,,,0,0,0,0,0,19,19,19,1,0,1,0,,,,,,,,,,,,,,,,,,,,,,,,,,,,,,,,,,,,,,,,,,,,,,,,,,,,,,,,,,,,,,,,30,,,,,,,,672.5604832000001,672.5604832000001,672.5604832000001,672.5604832000001,672.5604832000001,return,1.0094973999998729,4,1,0,0,-0.08,0.08,return,0.9226549999998497,-13,39,-0.08,0.08,,,,,,,,,,,,,,,,,,,,,,,,,,,,,,,,,,,,,,,,,,,,,,,,,,,,,,,,KQGVLC,train_x,red_square,top_left,2025-06-14_10h17.47.120,HideSeek_v1,2022.2.5,59.901868758579134,
,4,7,7,7,3,0,46,,train_dim1_1,21,30,,,,2,0,2,0,,,,,,,,,0,0,0,0,0,20,20,20,0,0,0,0,,,,,,,,,,,,,,,,,,,,,,,,,stimuli/alien_stimuli/46.png,,,,,,,,,,,,,,,,,,,,,,,,,,,,,stimuli/alien_stimuli/16.png,16,0,22,,,,,,,30,,,,,,,,679.7551967000002,679.7551967000002,679.7551967000002,679.7551967000002,679.7551967000002,right,3.073113100000228,4,1,0,99,0.24,0.16,right,2.991400899999917,,,,,678.1970748000001,679.7551967000002,-0.16,0.08,0.0,0.0,0.08,-0.16,-0.16,-0.16,0.08,675.1532173000003,675.1532173000003,675.1532173000003,675.1532173000003,675.1532173000003,675.1532173000003,675.1532173000003,675.1532173000003,675.1447078000002,3.1713370000002215,return,3.0257894999999735,,,,,,,,,,,,,,,,,,,,,,,,,,,,,,,,,KQGVLC,train_x,red_square,top_left,2025-06-14_10h17.47.120,HideSeek_v1,2022.2.5,59.901868758579134,
,4,7,7,7,3,0,46,,train_dim1_1,21,30,,,,2,0,2,0,,,,,,,,,0,0,0,0,0,20,20,20,1,0,1,0,,,,,,,,,,,,,,,,,,,,,,,,,,,,,,,,,,,,,,,,,,,,,,,,,,,,,,,,,,,,,,,,30,,,,,,,,682.8314458000002,682.8314458000002,682.8314458000002,682.8314458000002,682.8314458000002,right,0.308889000000363,4,1,0,99,0.32,0.16,right,0.23745030000009137,,,,,,,,,,,,,,,,,,,,,,,,,,,,,,,,,,,,,,,,,,,,,,,,,,,,,,,,,,,,KQGVLC,train_x,red_square,top_left,2025-06-14_10h17.47.120,HideSeek_v1,2022.2.5,59.901868758579134,
,4,7,7,7,3,0,46,,train_dim1_1,21,30,,,,2,0,2,0,,,,,,,,,0,0,0,0,0,20,20,20,2,0,2,0,,,,,,,,,,,,,,,,,,,,,,,,,,,,,,,,,,,,,,,,,,,,,,,,,,,,,,,,,,,,,,,,30,,,,,,,,683.1479940000002,683.1479940000002,683.1479940000002,683.1479940000002,683.1479940000002,return,1.4612182999999277,4,1,0,0,0.32,0.16,return,1.3881596999999601,-13,41,0.32,0.16,,,,,,,,,,,,,,,,,,,,,,,,,,,,,,,,,,,,,,,,,,,,,,,,,,,,,,,,KQGVLC,train_x,red_square,top_left,2025-06-14_10h17.47.120,HideSeek_v1,2022.2.5,59.901868758579134,
,1,5,2,5,1,0,26,,train_dim1_1,22,30,,,,2,0,2,0,,,,,,,,,0,0,0,0,0,21,21,21,0,0,0,0,,,,,,,,,,,,,,,,,,,,,,,,,stimuli/alien_stimuli/26.png,,,,,,,,,,,,,,,,,,,,,,,,,,,,,stimuli/alien_stimuli/46.png,46,4,23,,,,,,,30,,,,,,,,690.7204904000002,690.7204904000002,690.7204904000002,690.7204904000002,690.7204904000002,return,2.387438000000202,4,1,0,0,-0.08,0,return,2.3033768999998756,-13,41,-0.08,0,689.1561869,690.7204904000002,0.4,0.16,0.0,0.24,0.16,0.4,0.28,0.4,0.16,686.1894816000001,686.1894816000001,686.1894816000001,686.1894816000001,686.1894816000001,686.1894816000001,686.1894816000001,686.1894816000001,686.1705313499999,3.0878167999999278,return,2.9457910000000993,,,,,,,,,,,,,,,,,,,,,,,,,,,,,,,,,KQGVLC,train_x,red_square,top_left,2025-06-14_10h17.47.120,HideSeek_v1,2022.2.5,59.901868758579134,
,2,6,7,6,5,0,66,,train_dim1_1,23,30,,,,2,0,2,0,,,,,,,,,0,0,0,0,0,22,22,22,0,0,0,0,,,,,,,,,,,,,,,,,,,,,,,,,stimuli/alien_stimuli/66.png,,,,,,,,,,,,,,,,,,,,,,,,,,,,,stimuli/alien_stimuli/26.png,26,1,24,,,,,,,30,,,,,,,,698.8080873000001,698.8080873000001,698.8080873000001,698.8080873000001,698.8080873000001,down,2.8532678999999916,4,1,0,99,0,0.0,down,2.7633129999999255,,,,,697.2461512000002,698.8080873000001,0,0,0.0,0.08,0.0,0,-0.04,0,0,694.6941233,694.6941233,694.6941233,694.6941233,694.6941233,694.6941233,694.6941233,694.6941233,694.6774537000002,2.6873319000001175,return,2.529536900000039,,,,,,,,,,,,,,,,,,,,,,,,,,,,,,,,,KQGVLC,train_x,red_square,top_left,2025-06-14_10h17.47.120,HideSeek_v1,2022.2.5,59.901868758579134,
,2,6,7,6,5,0,66,,train_dim1_1,23,30,,,,2,0,2,0,,,,,,,,,0,0,0,0,0,22,22,22,1,0,1,0,,,,,,,,,,,,,,,,,,,,,,,,,,,,,,,,,,,,,,,,,,,,,,,,,,,,,,,,,,,,,,,,30,,,,,,,,701.6636495,701.6636495,701.6636495,701.6636495,701.6636495,down,0.2584900000001653,4,1,0,99,0,-0.08,down,0.17621989999997822,,,,,,,,,,,,,,,,,,,,,,,,,,,,,,,,,,,,,,,,,,,,,,,,,,,,,,,,,,,,KQGVLC,train_x,red_square,top_left,2025-06-14_10h17.47.120,HideSeek_v1,2022.2.5,59.901868758579134,
,2,6,7,6,5,0,66,,train_dim1_1,23,30,,,,2,0,2,0,,,,,,,,,0,0,0,0,0,22,22,22,2,0,2,0,,,,,,,,,,,,,,,,,,,,,,,,,,,,,,,,,,,,,,,,,,,,,,,,,,,,,,,,,,,,,,,,30,,,,,,,,701.9301465000001,701.9301465000001,701.9301465000001,701.9301465000001,701.9301465000001,down,0.24324579999984053,4,1,0,99,0,-0.16,down,0.1561265000000276,,,,,,,,,,,,,,,,,,,,,,,,,,,,,,,,,,,,,,,,,,,,,,,,,,,,,,,,,,,,KQGVLC,train_x,red_square,top_left,2025-06-14_10h17.47.120,HideSeek_v1,2022.2.5,59.901868758579134,
,2,6,7,6,5,0,66,,train_dim1_1,23,30,,,,2,0,2,0,,,,,,,,,0,0,0,0,0,22,22,22,3,0,3,0,,,,,,,,,,,,,,,,,,,,,,,,,,,,,,,,,,,,,,,,,,,,,,,,,,,,,,,,,,,,,,,,30,,,,,,,,702.1830666000003,702.1830666000003,702.1830666000003,702.1830666000003,702.1830666000003,return,1.2610498999997617,4,0,0,0,0,-0.16,return,1.1830673999997998,-16,41,0,-0.16,,,,,,,,,,,,,,,,,,,,,,,,,,,,,,,,,,,,,,,,,,,,,,,,,,,,,,,,KQGVLC,train_x,red_square,top_left,2025-06-14_10h17.47.120,HideSeek_v1,2022.2.5,59.901868758579134,
,4,9,8,9,4,0,56,,train_dim1_1,24,30,,,,2,0,2,0,,,,,,,,,0,0,0,0,0,23,23,23,0,0,0,0,,,,,,,,,,,,,,,,,,,,,,,,,stimuli/alien_stimuli/56.png,,,,,,,,,,,,,,,,,,,,,,,,,,,,,stimuli/alien_stimuli/66.png,66,2,25,,,,,,,30,,,,,,,,709.6362563999999,709.6362563999999,709.6362563999999,709.6362563999999,709.6362563999999,down,2.986475899999732,4,0,0,99,0.16,0.24,down,2.898540000000139,,,,,708.0717855999999,709.6362563999999,0.4,0.08,0.0,0.4,0.08,0.4,0.2,0.4,0.08,705.0135264000003,705.0135264000003,705.0135264000003,705.0135264000003,705.0135264000003,705.0135264000003,705.0135264000003,705.0135264000003,705.00272965,3.170838200000162,return,3.0400782000001527,,,,,,,,,,,,,,,,,,,,,,,,,,,,,,,,,KQGVLC,train_x,red_square,top_left,2025-06-14_10h17.47.120,HideSeek_v1,2022.2.5,59.901868758579134,
,4,9,8,9,4,0,56,,train_dim1_1,24,30,,,,2,0,2,0,,,,,,,,,0,0,0,0,0,23,23,23,1,0,1,0,,,,,,,,,,,,,,,,,,,,,,,,,,,,,,,,,,,,,,,,,,,,,,,,,,,,,,,,,,,,,,,,30,,,,,,,,712.6242478000001,712.6242478000001,712.6242478000001,712.6242478000001,712.6242478000001,down,0.2928780000002007,4,0,0,99,0.16,0.15999999999999998,down,0.21427249999987907,,,,,,,,,,,,,,,,,,,,,,,,,,,,,,,,,,,,,,,,,,,,,,,,,,,,,,,,,,,,KQGVLC,train_x,red_square,top_left,2025-06-14_10h17.47.120,HideSeek_v1,2022.2.5,59.901868758579134,
,4,9,8,9,4,0,56,,train_dim1_1,24,30,,,,2,0,2,0,,,,,,,,,0,0,0,0,0,23,23,23,2,0,2,0,,,,,,,,,,,,,,,,,,,,,,,,,,,,,,,,,,,,,,,,,,,,,,,,,,,,,,,,,,,,,,,,30,,,,,,,,712.9234945000001,712.9234945000001,712.9234945000001,712.9234945000001,712.9234945000001,down,0.36015180000003966,4,0,0,99,0.16,0.07999999999999997,down,0.27877859999989596,,,,,,,,,,,,,,,,,,,,,,,,,,,,,,,,,,,,,,,,,,,,,,,,,,,,,,,,,,,,KQGVLC,train_x,red_square,top_left,2025-06-14_10h17.47.120,HideSeek_v1,2022.2.5,59.901868758579134,
,4,9,8,9,4,0,56,,train_dim1_1,24,30,,,,2,0,2,0,,,,,,,,,0,0,0,0,0,23,23,23,3,0,3,0,,,,,,,,,,,,,,,,,,,,,,,,,,,,,,,,,,,,,,,,,,,,,,,,,,,,,,,,,,,,,,,,30,,,,,,,,713.2910825000001,713.2910825000001,713.2910825000001,713.2910825000001,713.2910825000001,return,0.7102396000000226,4,0,0,0,0.16,0.07999999999999997,return,0.6315995999998449,-19,41,0.16,0.07999999999999997,,,,,,,,,,,,,,,,,,,,,,,,,,,,,,,,,,,,,,,,,,,,,,,,,,,,,,,,KQGVLC,train_x,red_square,top_left,2025-06-14_10h17.47.120,HideSeek_v1,2022.2.5,59.901868758579134,
,3,5,3,5,0,0,16,,train_dim1_1,25,30,,,,2,0,2,0,,,,,,,,,0,0,0,0,0,24,24,24,0,0,0,0,,,,,,,,,,,,,,,,,,,,,,,,,stimuli/alien_stimuli/16.png,,,,,,,,,,,,,,,,,,,,,,,,,,,,,stimuli/alien_stimuli/56.png,56,4,26,,,,,,,30,,,,,,,,719.4311184000001,719.4311184000001,719.4311184000001,719.4311184000001,719.4311184000001,return,3.13810790000025,5,0,0,1,0.08,0,return,3.03521980000005,-19,41,0.08,0,717.8465861000002,719.4311184000001,0.48,0.32,0.0,0.32,0.32,0.48,0.32,0.48,0.32,715.5854268999999,715.5854268999999,715.5854268999999,715.5854268999999,715.5854268999999,715.5854268999999,715.5854268999999,715.5854268999999,715.5783026,2.387099600000056,return,2.236732800000027,,,,,,,,,,,,,,,,,,,,,,,,,,,,,,,,,KQGVLC,train_x,red_square,top_left,2025-06-14_10h17.47.120,HideSeek_v1,2022.2.5,59.901868758579134,
,1,6,6,6,5,0,66,,train_dim1_1,26,30,,,,2,0,2,0,,,,,,,,,0,0,0,0,0,25,25,25,0,0,0,0,,,,,,,,,,,,,,,,,,,,,,,,,stimuli/alien_stimuli/66.png,,,,,,,,,,,,,,,,,,,,,,,,,,,,,stimuli/alien_stimuli/16.png,16,3,27,,,,,,,30,,,,,,,,728.2486647000003,728.2486647000003,728.2486647000003,728.2486647000003,728.2486647000003,up,2.5189430999998876,5,0,0,99,-0.08,0.16,up,2.417678100000103,,,,,726.6705671000002,728.2486647000003,0.08,0,0.0,0.0,0.0,0.08,0.08,0.08,0,724.1104283000002,724.1104283000002,724.1104283000002,724.1104283000002,724.1104283000002,724.1104283000002,724.1104283000002,724.1104283000002,724.1017535500002,2.6708330999999816,return,2.529645000000073,,,,,,,,,,,,,,,,,,,,,,,,,,,,,,,,,KQGVLC,train_x,red_square,top_left,2025-06-14_10h17.47.120,HideSeek_v1,2022.2.5,59.901868758579134,
,1,6,6,6,5,0,66,,train_dim1_1,26,30,,,,2,0,2,0,,,,,,,,,0,0,0,0,0,25,25,25,1,0,1,0,,,,,,,,,,,,,,,,,,,,,,,,,,,,,,,,,,,,,,,,,,,,,,,,,,,,,,,,,,,,,,,,30,,,,,,,,730.7528687000001,730.7528687000001,730.7528687000001,730.7528687000001,730.7528687000001,up,0.3434273999996549,5,0,0,99,-0.08,0.24,up,0.2665300000003299,,,,,,,,,,,,,,,,,,,,,,,,,,,,,,,,,,,,,,,,,,,,,,,,,,,,,,,,,,,,KQGVLC,train_x,red_square,top_left,2025-06-14_10h17.47.120,HideSeek_v1,2022.2.5,59.901868758579134,
,1,6,6,6,5,0,66,,train_dim1_1,26,30,,,,2,0,2,0,,,,,,,,,0,0,0,0,0,25,25,25,2,0,2,0,,,,,,,,,,,,,,,,,,,,,,,,,,,,,,,,,,,,,,,,,,,,,,,,,,,,,,,,,,,,,,,,30,,,,,,,,731.1073179000002,731.1073179000002,731.1073179000002,731.1073179000002,731.1073179000002,up,0.3576994999998533,5,0,0,99,-0.08,0.32,up,0.2787659000000531,,,,,,,,,,,,,,,,,,,,,,,,,,,,,,,,,,,,,,,,,,,,,,,,,,,,,,,,,,,,KQGVLC,train_x,red_square,top_left,2025-06-14_10h17.47.120,HideSeek_v1,2022.2.5,59.901868758579134,
,1,6,6,6,5,0,66,,train_dim1_1,26,30,,,,2,0,2,0,,,,,,,,,0,0,0,0,0,25,25,25,3,0,3,0,,,,,,,,,,,,,,,,,,,,,,,,,,,,,,,,,,,,,,,,,,,,,,,,,,,,,,,,,,,,,,,,30,,,,,,,,731.4723357999999,731.4723357999999,731.4723357999999,731.4723357999999,731.4723357999999,right,1.1437734000001,5,0,0,99,0.0,0.32,right,1.0602638999998817,,,,,,,,,,,,,,,,,,,,,,,,,,,,,,,,,,,,,,,,,,,,,,,,,,,,,,,,,,,,KQGVLC,train_x,red_square,top_left,2025-06-14_10h17.47.120,HideSeek_v1,2022.2.5,59.901868758579134,
,1,6,6,6,5,0,66,,train_dim1_1,26,30,,,,2,0,2,0,,,,,,,,,0,0,0,0,0,25,25,25,4,0,4,0,,,,,,,,,,,,,,,,,,,,,,,,,,,,,,,,,,,,,,,,,,,,,,,,,,,,,,,,,,,,,,,,30,,,,,,,,732.6220897000001,732.6220897000001,732.6220897000001,732.6220897000001,732.6220897000001,right,0.20947879999994257,5,0,0,99,0.08,0.32,right,0.13700650000009773,,,,,,,,,,,,,,,,,,,,,,,,,,,,,,,,,,,,,,,,,,,,,,,,,,,,,,,,,,,,KQGVLC,train_x,red_square,top_left,2025-06-14_10h17.47.120,HideSeek_v1,2022.2.5,59.901868758579134,
,1,6,6,6,5,0,66,,train_dim1_1,26,30,,,,2,0,2,0,,,,,,,,,0,0,0,0,0,25,25,25,5,0,5,0,,,,,,,,,,,,,,,,,,,,,,,,,,,,,,,,,,,,,,,,,,,,,,,,,,,,,,,,,,,,,,,,30,,,,,,,,732.8381345,732.8381345,732.8381345,732.8381345,732.8381345,return,1.0607103000002098,5,0,0,0,0.08,0.32,return,0.9764361000002282,-16,43,0.08,0.32,,,,,,,,,,,,,,,,,,,,,,,,,,,,,,,,,,,,,,,,,,,,,,,,,,,,,,,,KQGVLC,train_x,red_square,top_left,2025-06-14_10h17.47.120,HideSeek_v1,2022.2.5,59.901868758579134,
,0,6,3,6,3,0,46,,train_dim1_1,27,30,,,,2,0,2,0,,,,,,,,,0,0,0,0,0,26,26,26,0,0,0,0,,,,,,,,,,,,,,,,,,,,,,,,,stimuli/alien_stimuli/46.png,,,,,,,,,,,,,,,,,,,,,,,,,,,,,stimuli/alien_stimuli/66.png,66,1,28,,,,,,,30,,,,,,,,740.0068713000003,740.0068713000003,740.0068713000003,740.0068713000003,740.0068713000003,right,5.12326929999972,5,0,0,99,-0.08,0.08,right,5.033711499999754,,,,,738.4469569,740.0068713000003,0.32,0.08,0.0,0.4,0.08,0.32,0.12,0.32,0.08,735.4789390000003,735.4789390000003,735.4789390000003,735.4789390000003,735.4789390000003,735.4789390000003,735.4789390000003,735.4789390000003,735.4612535500003,3.0878311999999823,return,2.942264100000102,,,,,,,,,,,,,,,,,,,,,,,,,,,,,,,,,KQGVLC,train_x,red_square,top_left,2025-06-14_10h17.47.120,HideSeek_v1,2022.2.5,59.901868758579134,
,0,6,3,6,3,0,46,,train_dim1_1,27,30,,,,2,0,2,0,,,,,,,,,0,0,0,0,0,26,26,26,1,0,1,0,,,,,,,,,,,,,,,,,,,,,,,,,,,,,,,,,,,,,,,,,,,,,,,,,,,,,,,,,,,,,,,,30,,,,,,,,745.1350591000003,745.1350591000003,745.1350591000003,745.1350591000003,745.1350591000003,right,0.524994400000196,5,0,0,99,0.0,0.08,right,0.4404725999997936,,,,,,,,,,,,,,,,,,,,,,,,,,,,,,,,,,,,,,,,,,,,,,,,,,,,,,,,,,,,KQGVLC,train_x,red_square,top_left,2025-06-14_10h17.47.120,HideSeek_v1,2022.2.5,59.901868758579134,
,0,6,3,6,3,0,46,,train_dim1_1,27,30,,,,2,0,2,0,,,,,,,,,0,0,0,0,0,26,26,26,2,0,2,0,,,,,,,,,,,,,,,,,,,,,,,,,,,,,,,,,,,,,,,,,,,,,,,,,,,,,,,,,,,,,,,,30,,,,,,,,745.6671041000002,745.6671041000002,745.6671041000002,745.6671041000002,745.6671041000002,right,0.5765538000000561,5,0,0,99,0.08,0.08,right,0.4901278000002094,,,,,,,,,,,,,,,,,,,,,,,,,,,,,,,,,,,,,,,,,,,,,,,,,,,,,,,,,,,,KQGVLC,train_x,red_square,top_left,2025-06-14_10h17.47.120,HideSeek_v1,2022.2.5,59.901868758579134,
,0,6,3,6,3,0,46,,train_dim1_1,27,30,,,,2,0,2,0,,,,,,,,,0,0,0,0,0,26,26,26,3,0,3,0,,,,,,,,,,,,,,,,,,,,,,,,,,,,,,,,,,,,,,,,,,,,,,,,,,,,,,,,,,,,,,,,30,,,,,,,,746.2494191000003,746.2494191000003,746.2494191000003,746.2494191000003,746.2494191000003,return,0.7272447999998803,6,0,0,1,0.08,0.08,return,0.6527317999998559,-16,46,0.08,0.08,,,,,,,,,,,,,,,,,,,,,,,,,,,,,,,,,,,,,,,,,,,,,,,,,,,,,,,,KQGVLC,train_x,red_square,top_left,2025-06-14_10h17.47.120,HideSeek_v1,2022.2.5,59.901868758579134,
,3,6,4,6,1,0,26,,train_dim1_1,28,30,,,,2,0,2,0,,,,,,,,,0,0,0,0,0,27,27,27,0,0,0,0,,,,,,,,,,,,,,,,,,,,,,,,,stimuli/alien_stimuli/26.png,,,,,,,,,,,,,,,,,,,,,,,,,,,,,stimuli/alien_stimuli/46.png,46,0,29,,,,,,,30,,,,,,,,752.9927713,752.9927713,752.9927713,752.9927713,752.9927713,return,3.136188100000254,6,1,0,0,0.08,0.08,return,3.0445520000002944,-16,46,0.08,0.08,751.4243825000001,752.9927713,0.08,0.08,0.0,0.24,0.08,0.08,-0.04,0.08,0.08,748.5392281000002,748.5392281000002,748.5392281000002,748.5392281000002,748.5392281000002,748.5392281000002,748.5392281000002,748.5392281000002,748.5221992,2.9877071000000797,return,2.867015299999821,,,,,,,,,,,,,,,,,,,,,,,,,,,,,,,,,KQGVLC,train_x,red_square,top_left,2025-06-14_10h17.47.120,HideSeek_v1,2022.2.5,59.901868758579134,
,4,5,8,5,4,0,56,,train_dim1_1,29,30,,,,2,0,2,0,,,,,,,,,0,0,0,0,0,28,28,28,0,0,0,0,,,,,,,,,,,,,,,,,,,,,,,,,stimuli/alien_stimuli/56.png,,,,,,,,,,,,,,,,,,,,,,,,,,,,,stimuli/alien_stimuli/26.png,26,3,30,,,,,,,30,,,,,,,,763.9963227999999,763.9963227999999,763.9963227999999,763.9963227999999,763.9963227999999,down,5.657601100000193,6,1,0,99,0.16,-0.08,down,5.567644200000359,,,,,762.4336054000003,763.9963227999999,0.16,0.08,0.0,0.08,0.08,0.16,0.12,0.16,0.08,757.6924375000001,757.6924375000001,757.6924375000001,757.6924375000001,757.6924375000001,757.6924375000001,757.6924375000001,757.6924375000001,757.67980165,4.855830699999842,return,4.713170799999716,,,,,,,,,,,,,,,,,,,,,,,,,,,,,,,,,KQGVLC,train_x,red_square,top_left,2025-06-14_10h17.47.120,HideSeek_v1,2022.2.5,59.901868758579134,
,4,5,8,5,4,0,56,,train_dim1_1,29,30,,,,2,0,2,0,,,,,,,,,0,0,0,0,0,28,28,28,1,0,1,0,,,,,,,,,,,,,,,,,,,,,,,,,,,,,,,,,,,,,,,,,,,,,,,,,,,,,,,,,,,,,,,,30,,,,,,,,769.6596823000002,769.6596823000002,769.6596823000002,769.6596823000002,769.6596823000002,down,0.15646250000008877,6,1,0,99,0.16,-0.16,down,0.07566709999991872,,,,,,,,,,,,,,,,,,,,,,,,,,,,,,,,,,,,,,,,,,,,,,,,,,,,,,,,,,,,KQGVLC,train_x,red_square,top_left,2025-06-14_10h17.47.120,HideSeek_v1,2022.2.5,59.901868758579134,
,4,5,8,5,4,0,56,,train_dim1_1,29,30,,,,2,0,2,0,,,,,,,,,0,0,0,0,0,28,28,28,2,0,2,0,,,,,,,,,,,,,,,,,,,,,,,,,,,,,,,,,,,,,,,,,,,,,,,,,,,,,,,,,,,,,,,,30,,,,,,,,769.8214770000002,769.8214770000002,769.8214770000002,769.8214770000002,769.8214770000002,down,1.4274856000001819,6,1,0,99,0.16,-0.24,down,1.3476858999997603,,,,,,,,,,,,,,,,,,,,,,,,,,,,,,,,,,,,,,,,,,,,,,,,,,,,,,,,,,,,KQGVLC,train_x,red_square,top_left,2025-06-14_10h17.47.120,HideSeek_v1,2022.2.5,59.901868758579134,
,4,5,8,5,4,0,56,,train_dim1_1,29,30,,,,2,0,2,0,,,,,,,,,0,0,0,0,0,28,28,28,3,0,3,0,,,,,,,,,,,,,,,,,,,,,,,,,,,,,,,,,,,,,,,,,,,,,,,,,,,,,,,,,,,,,,,,30,,,,,,,,771.2561493000001,771.2561493000001,771.2561493000001,771.2561493000001,771.2561493000001,return,0.5928248000000167,6,0,0,0,0.16,-0.24,return,0.517550300000039,-19,46,0.16,-0.24,,,,,,,,,,,,,,,,,,,,,,,,,,,,,,,,,,,,,,,,,,,,,,,,,,,,,,,,KQGVLC,train_x,red_square,top_left,2025-06-14_10h17.47.120,HideSeek_v1,2022.2.5,59.901868758579134,
,2,7,2,7,0,0,16,,train_dim1_1,30,30,,,,2,0,2,0,,,,,,,,,0,0,0,0,0,29,29,29,0,0,0,0,,,,,,,,,,,,,,,,,,,,,,,,,stimuli/alien_stimuli/16.png,,,,,,,,,,,,,,,,,,,,,,,,,,,,,stimuli/alien_stimuli/56.png,56,4,31,,,,,,,30,,,,,,,,777.5575943000001,777.5575943000001,777.5575943000001,777.5575943000001,777.5575943000001,left,2.2045564000000013,6,0,0,99,-0.08,0.16,left,2.1026661999999305,,,,,775.9780814000003,777.5575943000001,0.48,0,0.0,0.32,0.0,0.48,0.32,0.48,0,773.4159267000002,773.4159267000002,773.4159267000002,773.4159267000002,773.4159267000002,773.4159267000002,773.4159267000002,773.4159267000002,773.4092901500001,2.6709123000000545,return,2.530068300000039,,,,,,,,,,,,,,,,,,,,,,,,,,,,,,,,,KQGVLC,train_x,red_square,top_left,2025-06-14_10h17.47.120,HideSeek_v1,2022.2.5,59.901868758579134,
,2,7,2,7,0,0,16,,train_dim1_1,30,30,,,,2,0,2,0,,,,,,,,,0,0,0,0,0,29,29,29,1,0,1,0,,,,,,,,,,,,,,,,,,,,,,,,,,,,,,,,,,,,,,,,,,,,,,,,,,,,,,,,,,,,,,,,30,,,,,,,,779.7504056,779.7504056,779.7504056,779.7504056,779.7504056,return,0.5259949999999662,6,1,0,0,-0.08,0.16,return,0.44336269999985234,-19,45,-0.08,0.16,,,,,,,,,,,,,,,,,,,,,,,,,,,,,,,,,,,,,,,,,,,,,,,,,,,,,,,,KQGVLC,train_x,red_square,top_left,2025-06-14_10h17.47.120,HideSeek_v1,2022.2.5,59.901868758579134,
,,,,,,,,,,,30,,,,2,0,2,0,,,,,,,,,,,,,,,,,,,,,,,,,,,,,,,,,,,,,,,,,,,,,,,,,,,,,,,,,,,,,,,,,,,,,,,,,,stimuli/alien_stimuli/16.png,16,2,32,21,0.7,0.25,1,1,1,30,0,conditions/schedules/train_x_first/red_square_00/top_left/inputTrain_2.1.xlsx,99,1,2,1,0,,,,,,,,,,,0,,,,,,,,,784.001317,785.5535829000003,0,0.16,0.0,0.0,0.16,0,0.0,0,0.16,781.8406759000002,781.8406759000002,781.8406759000002,781.8406759000002,781.8406759000002,781.8406759000002,781.8406759000002,781.8406759000002,781.8330429499999,2.2705441999996765,return,2.1389798999998675,0,0.9,0,1,6,,,,,,,,,,,,,,,,,,,,,,,,,,,,KQGVLC,train_x,red_square,top_left,2025-06-14_10h17.47.120,HideSeek_v1,2022.2.5,59.901868758579134,
,,,,,,,,,,,,,,,3,0,3,0,0,0,0,0,,,,,,,,,,,,,,,,,,,,,,,,,,,,,,,conditions/schedules/train_x_first/red_square_00/top_left/instructions/Slide17.png,conditions/schedules/train_x_first/red_square_00/top_left/instructions/Audio17.wav,785.5535829000003,785.5528300000002,17,"[8.317141799999945, 18.116151199999877, 16.588948099999925, 19.555110300000024, 6.1126540000000205, 5.4722541000001, 24.489213999999947, 12.078575600000022, 5.91515000000004, 7.0858513000000585, 9.504559900000004, 18.795491999999967, 18.72657860000004, 14.559440600000016, 31.592251499999975, 21.78436049999982, 43.74988769999982]","[0.00022020000005795737, 0.014474599999857674, 0.03475380000008954, 0.03716359999998531, 0.051230700000132856, 0.03610830000002352, 0.03514070000005631, 0.046934100000044054, 0.11311990000012884, 0.09684649999985595, 0.14715960000012274, 18.795499100000143, 0.08091250000006767, 14.559447300000102, 0.06578109999986737, 21.78436869999996, 43.749895299999935]",0,,,,,,,,,,,,,,,,,,,,,,,,,,,,,,,,,,,,,,,,,,,,,,,,,,,,,,,,,,,,,,,,,,,,,,,,,,,,,,,,,,,,,,,,,,,,,,,,,,,,,,,,,,,,,,,,,,,,,,,,,,,,KQGVLC,train_x,red_square,top_left,2025-06-14_10h17.47.120,HideSeek_v1,2022.2.5,59.901868758579134,
,,,,,,,,,,,,,,,3,0,3,0,1,0,1,0,,,,,,,,,,,,,,,,,,,,,,,,,,,,,,,conditions/schedules/train_x_first/red_square_00/top_left/instructions/Slide18.png,conditions/schedules/train_x_first/red_square_00/top_left/instructions/Audio18.wav,829.3643362,829.3559154999999,18,"[8.317141799999945, 18.116151199999877, 16.588948099999925, 19.555110300000024, 6.1126540000000205, 5.4722541000001, 24.489213999999947, 12.078575600000022, 5.91515000000004, 7.0858513000000585, 9.504559900000004, 18.795491999999967, 18.72657860000004, 14.559440600000016, 31.592251499999975, 21.78436049999982, 43.74988769999982, 6.110880799999904]","[0.00022020000005795737, 0.014474599999857674, 0.03475380000008954, 0.03716359999998531, 0.051230700000132856, 0.03610830000002352, 0.03514070000005631, 0.046934100000044054, 0.11311990000012884, 0.09684649999985595, 0.14715960000012274, 18.795499100000143, 0.08091250000006767, 14.559447300000102, 0.06578109999986737, 21.78436869999996, 0.00021379999998316634, 6.110887399999683]",0,,,,,,,,,,,,,,,,,,,,,,,,,,,,,,,,,,,,,,,,,,,,,,,,,,,,,,,,,,,,,,,,,,,,,,,,,,,,,,,,,,,,,,,,,,,,,,,,,,,,,,,,,,,,,,,,,,,,,,,,,,,,KQGVLC,train_x,red_square,top_left,2025-06-14_10h17.47.120,HideSeek_v1,2022.2.5,59.901868758579134,
,,,,,,,,,,,,,,,3,0,3,0,2,0,2,0,,,,,,,,,,,,,,,,,,,,,,,,,,,,,,,conditions/schedules/train_x_first/red_square_00/top_left/instructions/Slide19.png,conditions/schedules/train_x_first/red_square_00/top_left/instructions/Audio19.wav,835.5127683000003,835.51099315,19,"[8.317141799999945, 18.116151199999877, 16.588948099999925, 19.555110300000024, 6.1126540000000205, 5.4722541000001, 24.489213999999947, 12.078575600000022, 5.91515000000004, 7.0858513000000585, 9.504559900000004, 18.795491999999967, 18.72657860000004, 14.559440600000016, 31.592251499999975, 21.78436049999982, 43.74988769999982, 6.110880799999904, 10.77088670000012]","[0.00022020000005795737, 0.014474599999857674, 0.03475380000008954, 0.03716359999998531, 0.051230700000132856, 0.03610830000002352, 0.03514070000005631, 0.046934100000044054, 0.11311990000012884, 0.09684649999985595, 0.14715960000012274, 18.795499100000143, 0.08091250000006767, 14.559447300000102, 0.06578109999986737, 21.78436869999996, 0.00021379999998316634, 0.029949700000088342, 10.770893400000205]",0,,,,,,,,,,,,,,,,,,,,,,,,,,,,,,,,,,,,,,,,,,,,,,,,,,,,,,,,,,,,,,,,,,,,,,,,,,,,,,,,,,,,,,,,,,,,,,,,,,,,,,,,,,,,,,,,,,,,,,,,,,,,KQGVLC,train_x,red_square,top_left,2025-06-14_10h17.47.120,HideSeek_v1,2022.2.5,59.901868758579134,
,,,,,,,,,,,,,,,3,0,3,0,3,0,3,0,,,,,,,,,,,,,,,,,,,,,,,,,,,,,,,conditions/schedules/train_x_first/red_square_00/top_left/instructions/Slide20.png,conditions/schedules/train_x_first/red_square_00/top_left/instructions/Audio20.wav,846.3419589000002,846.336563,20,"[8.317141799999945, 18.116151199999877, 16.588948099999925, 19.555110300000024, 6.1126540000000205, 5.4722541000001, 24.489213999999947, 12.078575600000022, 5.91515000000004, 7.0858513000000585, 9.504559900000004, 18.795491999999967, 18.72657860000004, 14.559440600000016, 31.592251499999975, 21.78436049999982, 43.74988769999982, 6.110880799999904, 10.77088670000012, 14.137158499999714]","[0.00022020000005795737, 0.014474599999857674, 0.03475380000008954, 0.03716359999998531, 0.051230700000132856, 0.03610830000002352, 0.03514070000005631, 0.046934100000044054, 0.11311990000012884, 0.09684649999985595, 0.14715960000012274, 18.795499100000143, 0.08091250000006767, 14.559447300000102, 0.06578109999986737, 21.78436869999996, 0.00021379999998316634, 0.029949700000088342, 0.04715879999957906, 14.137165899999673]",0,,,,,,,,,,,,,,,,,,,,,,,,,,,,,,,,,,,,,,,,,,,,,,,,,,,,,,,,,,,,,,,,,,,,,,,,,,,,,,,,,,,,,,,,,,,,,,,,,,,,,,,,,,,,,,,,,,,,,,,,,,,,KQGVLC,train_x,red_square,top_left,2025-06-14_10h17.47.120,HideSeek_v1,2022.2.5,59.901868758579134,
1,2,8,2,3,0,-5,11,2,instr_dim1_2,,,,,,3,0,3,0,,,,,0,0,0,0,,,,,,,,,,,,,,,,,,,,,,,,,,,,,,,,,,,,,stimuli/alien_stimuli/11.png,conditions/schedules/train_x_first/red_square_00/top_left/inputInstr_2.xlsx,stimuli/alien_stimuli/11.png,860.5700903,860.5700903,860.5700903,860.5700903,860.5649514999999,return,6.084354900000108,"[-0.16, -0.08, 0, 0.08, 0.16, 0.24, 0.32, 0.4, 0.48, 0.56]","[-0.4, -0.32, -0.24, -0.16, -0.08, 0, 0.08, 0.16, 0.24, 0.32]",3,8,2,2,0.4,0.0,866.8187593,866.8187593,866.8187593,866.8187593,866.8187593,866.8187593,866.8187593,866.8200278500002,8.691630400000122,return,8.531084499999906,stimuli/alien_stimuli/11.png,11,2,1,,,,,,,,,,,,,,,,,,,,,,,,,,,,,,,,,,,,,,,,,,,,,,,,,,,,,,,,,,,,,,,,,,,,,,,,,,,,,,,,,,,,,,,,,KQGVLC,train_x,red_square,top_left,2025-06-14_10h17.47.120,HideSeek_v1,2022.2.5,59.901868758579134,
,,,,,,,,,,,30,,,,3,0,3,0,,,,,,,,,,,,,,,,,,,,,,,,,,,,,,,,,,,,,,,,,,,,,,,,,,,,,,,,,,,,,,,,,,,,,,,,,,,,,,21,0.7,0.25,1,99,2,30,0,conditions/schedules/train_x_first/red_square_00/top_left/inputTrain_2.1.xlsx,99,1,2,1,0,,,,,,,,,,,,,,,,,,,,,,,,,,,,,,,,,,,,,,,,,,,,,,,,,,,,,,,,,,,,,,,,,,,,,,,,,,,KQGVLC,train_x,red_square,top_left,2025-06-14_10h17.47.120,HideSeek_v1,2022.2.5,59.901868758579134,
,,,,,,,,,,,,,,,4,0,4,0,0,0,0,0,,,,,,,,,,,,,,,,,,,,,,,,,,,,,,,conditions/schedules/train_x_first/red_square_00/top_left/instructions/Slide21.png,conditions/schedules/train_x_first/red_square_00/top_left/instructions/Audio21.wav,875.5461707000002,875.5440857499999,21,"[8.317141799999945, 18.116151199999877, 16.588948099999925, 19.555110300000024, 6.1126540000000205, 5.4722541000001, 24.489213999999947, 12.078575600000022, 5.91515000000004, 7.0858513000000585, 9.504559900000004, 18.795491999999967, 18.72657860000004, 14.559440600000016, 31.592251499999975, 21.78436049999982, 43.74988769999982, 6.110880799999904, 10.77088670000012, 14.137158499999714, 16.77583070000037]","[0.00022020000005795737, 0.014474599999857674, 0.03475380000008954, 0.03716359999998531, 0.051230700000132856, 0.03610830000002352, 0.03514070000005631, 0.046934100000044054, 0.11311990000012884, 0.09684649999985595, 0.14715960000012274, 18.795499100000143, 0.08091250000006767, 14.559447300000102, 0.06578109999986737, 21.78436869999996, 0.00021379999998316634, 0.029949700000088342, 0.04715879999957906, 14.137165899999673, 16.77583820000018]",0,,,,,,,,,,,,,,,,,,,,,,,,,,,,,,,,,,,,,,,,,,,,,,,,,,,,,,,,,,,,,,,,,,,,,,,,,,,,,,,,,,,,,,,,,,,,,,,,,,,,,,,,,,,,,,,,,,,,,,,,,,,,KQGVLC,train_x,red_square,top_left,2025-06-14_10h17.47.120,HideSeek_v1,2022.2.5,59.901868758579134,
2,0,8,0,8,0,0,16,2,instr_dim1_2,,,,,,4,0,4,0,,,,,0,0,0,0,,,,,,,,,,,,,,,,,,,,,,,,,,,,,,,,,,,,,stimuli/alien_stimuli/16.png,conditions/schedules/train_x_first/red_square_00/top_left/inputInstr_2.xlsx,stimuli/alien_stimuli/16.png,892.4136980000001,892.4136980000001,892.4136980000001,892.4136980000001,892.4081328000001,return,5.416106299999683,"[-0.16, -0.08, 0, 0.08, 0.16, 0.24, 0.32, 0.4, 0.48, 0.56]","[-0.4, -0.32, -0.24, -0.16, -0.08, 0, 0.08, 0.16, 0.24, 0.32]",8,8,0,0,0.0,0.0,897.9943922,897.9943922,897.9943922,897.9943922,897.9943922,897.9943922,897.9943922,897.99593455,7.891082099999949,return,7.734970100000282,stimuli/alien_stimuli/16.png,16,0,2,,,,,,,,,,,,,,,,,,,,,,,,,,,,,,,,,,,,,,,,,,,,,,,,,,,,,,,,,,,,,,,,,,,,,,,,,,,,,,,,,,,,,,,,,KQGVLC,train_x,red_square,top_left,2025-06-14_10h17.47.120,HideSeek_v1,2022.2.5,59.901868758579134,
,,,,,,,,,,,30,,,,4,0,4,0,,,,,,,,,,,,,,,,,,,,,,,,,,,,,,,,,,,,,,,,,,,,,,,,,,,,,,,,,,,,,,,,,,,,,,,,,,,,,,21,0.7,0.25,1,99,2,30,0,conditions/schedules/train_x_first/red_square_00/top_left/inputTrain_2.1.xlsx,99,1,2,1,0,,,,,,,,,,,,,,,,,,,,,,,,,,,,,,,,,,,,,,,,,,,,,,,,,,,,,,,,,,,,,,,,,,,,,,,,,,,KQGVLC,train_x,red_square,top_left,2025-06-14_10h17.47.120,HideSeek_v1,2022.2.5,59.901868758579134,
,,,,,,,,,,,,,,,5,0,5,0,0,0,0,0,,,,,,,,,,,,,,,,,,,,,,,,,,,,,,,conditions/schedules/train_x_first/red_square_00/top_left/instructions/Slide22.png,conditions/schedules/train_x_first/red_square_00/top_left/instructions/Audio22.wav,905.9268964999999,905.9192694499999,22,"[8.317141799999945, 18.116151199999877, 16.588948099999925, 19.555110300000024, 6.1126540000000205, 5.4722541000001, 24.489213999999947, 12.078575600000022, 5.91515000000004, 7.0858513000000585, 9.504559900000004, 18.795491999999967, 18.72657860000004, 14.559440600000016, 31.592251499999975, 21.78436049999982, 43.74988769999982, 6.110880799999904, 10.77088670000012, 14.137158499999714, 16.77583070000037, 43.442517399999815]","[0.00022020000005795737, 0.014474599999857674, 0.03475380000008954, 0.03716359999998531, 0.051230700000132856, 0.03610830000002352, 0.03514070000005631, 0.046934100000044054, 0.11311990000012884, 0.09684649999985595, 0.14715960000012274, 18.795499100000143, 0.08091250000006767, 14.559447300000102, 0.06578109999986737, 21.78436869999996, 0.00021379999998316634, 0.029949700000088342, 0.04715879999957906, 14.137165899999673, 16.77583820000018, 43.442525899999964]",0,,,,,,,,,,,,,,,,,,,,,,,,,,,,,,,,,,,,,,,,,,,,,,,,,,,,,,,,,,,,,,,,,,,,,,,,,,,,,,,,,,,,,,,,,,,,,,,,,,,,,,,,,,,,,,,,,,,,,,,,,,,,KQGVLC,train_x,red_square,top_left,2025-06-14_10h17.47.120,HideSeek_v1,2022.2.5,59.901868758579134,
,0,5,0,4,0,-1,15,,train_dim1_2,1,30,,,,5,0,5,0,,,,,,,,,0,0,0,0,0,0,0,0,0,0,0,0,,,,,,,,,,,,,,,,,,,,,,,,,stimuli/alien_stimuli/15.png,,,,,,,,,,,,,,,,,,,,,,,,,,,,,,,,,,,,,,,30,,,,,,,,949.4714405000002,949.4714405000002,949.4714405000002,949.4714405000002,949.4714405000002,return,4.194052800000009,0,1,0,0,-0.16,0,return,4.09851209999988,-19,45,-0.16,0,,,,,,,,,,,,,,,,,,,,,,,,,,,,,,,,,,,,,,,,,,,,,,,,,,,,,,,,KQGVLC,train_x,red_square,top_left,2025-06-14_10h17.47.120,HideSeek_v1,2022.2.5,59.901868758579134,
,3,7,3,7,0,0,16,,train_dim1_2,2,30,,,,5,0,5,0,,,,,,,,,0,0,0,0,0,1,1,1,0,0,0,0,,,,,,,,,,,,,,,,,,,,,,,,,stimuli/alien_stimuli/16.png,,,,,,,,,,,,,,,,,,,,,,,,,,,,,stimuli/alien_stimuli/15.png,15,0,3,,,,,,,30,,,,,,,,959.6864896,959.6864896,959.6864896,959.6864896,959.6864896,return,4.174209899999823,1,0,0,1,0.08,0.16,return,4.092680100000052,-19,45,0.08,0.16,958.1291057999999,959.6864896,-0.16,-0.08,0.08,0.0,-0.04,-0.16,-0.16,-0.16,-0.08,955.2265579000002,955.2265579000002,955.2265579000002,955.2265579000002,955.2265579000002,955.2265579000002,955.2265579000002,955.2265579000002,955.2268306000002,3.0215180999998665,return,2.8844177999999374,,,,,,,,,,,,,,,,,,,,,,,,,,,,,,,,,KQGVLC,train_x,red_square,top_left,2025-06-14_10h17.47.120,HideSeek_v1,2022.2.5,59.901868758579134,
,2,8,2,5,0,-3,13,,train_dim1_2,3,30,,,,5,0,5,0,,,,,,,,,0,0,0,0,0,2,2,2,0,0,0,0,,,,,,,,,,,,,,,,,,,,,,,,,stimuli/alien_stimuli/13.png,,,,,,,,,,,,,,,,,,,,,,,,,,,,,stimuli/alien_stimuli/16.png,16,3,4,,,,,,,30,,,,,,,,969.1450310000002,969.1450310000002,969.1450310000002,969.1450310000002,969.1450310000002,down,3.6568333000000166,1,0,0,99,0,0.15999999999999998,down,3.577331999999842,,,,,967.5871364000002,969.1450310000002,0.08,0.16,0.0,0.0,0.16,0.08,0.08,0.08,0.16,965.4191487,965.4191487,965.4191487,965.4191487,965.4191487,965.4191487,965.4191487,965.4191487,965.4186991500003,2.2704789999997956,return,2.1463284000001295,,,,,,,,,,,,,,,,,,,,,,,,,,,,,,,,,KQGVLC,train_x,red_square,top_left,2025-06-14_10h17.47.120,HideSeek_v1,2022.2.5,59.901868758579134,
,2,8,2,5,0,-3,13,,train_dim1_2,3,30,,,,5,0,5,0,,,,,,,,,0,0,0,0,0,2,2,2,1,0,1,0,,,,,,,,,,,,,,,,,,,,,,,,,,,,,,,,,,,,,,,,,,,,,,,,,,,,,,,,,,,,,,,,30,,,,,,,,972.8083340000001,972.8083340000001,972.8083340000001,972.8083340000001,972.8083340000001,down,15.121548000000075,1,0,0,99,0,0.07999999999999997,down,15.041838899999675,,,,,,,,,,,,,,,,,,,,,,,,,,,,,,,,,,,,,,,,,,,,,,,,,,,,,,,,,,,,KQGVLC,train_x,red_square,top_left,2025-06-14_10h17.47.120,HideSeek_v1,2022.2.5,59.901868758579134,
,2,8,2,5,0,-3,13,,train_dim1_2,3,30,,,,5,0,5,0,,,,,,,,,0,0,0,0,0,2,2,2,2,0,2,0,,,,,,,,,,,,,,,,,,,,,,,,,,,,,,,,,,,,,,,,,,,,,,,,,,,,,,,,,,,,,,,,30,,,,,,,,987.9476318,987.9476318,987.9476318,987.9476318,987.9476318,down,0.5577724999998281,1,0,0,99,0,-2.7755575615628914e-17,down,0.4631134999999631,,,,,,,,,,,,,,,,,,,,,,,,,,,,,,,,,,,,,,,,,,,,,,,,,,,,,,,,,,,,KQGVLC,train_x,red_square,top_left,2025-06-14_10h17.47.120,HideSeek_v1,2022.2.5,59.901868758579134,
,2,8,2,5,0,-3,13,,train_dim1_2,3,30,,,,5,0,5,0,,,,,,,,,0,0,0,0,0,2,2,2,3,0,3,0,,,,,,,,,,,,,,,,,,,,,,,,,,,,,,,,,,,,,,,,,,,,,,,,,,,,,,,,,,,,,,,,30,,,,,,,,988.5053829999999,988.5053829999999,988.5053829999999,988.5053829999999,988.5053829999999,up,0.6438551999999618,1,0,0,99,0,0.07999999999999997,up,0.5520372999999381,,,,,,,,,,,,,,,,,,,,,,,,,,,,,,,,,,,,,,,,,,,,,,,,,,,,,,,,,,,,KQGVLC,train_x,red_square,top_left,2025-06-14_10h17.47.120,HideSeek_v1,2022.2.5,59.901868758579134,
,2,8,2,5,0,-3,13,,train_dim1_2,3,30,,,,5,0,5,0,,,,,,,,,0,0,0,0,0,2,2,2,4,0,4,0,,,,,,,,,,,,,,,,,,,,,,,,,,,,,,,,,,,,,,,,,,,,,,,,,,,,,,,,,,,,,,,,30,,,,,,,,989.1535218000001,989.1535218000001,989.1535218000001,989.1535218000001,989.1535218000001,up,0.2597771999999168,1,0,0,99,0,0.15999999999999998,up,0.18453709999994317,,,,,,,,,,,,,,,,,,,,,,,,,,,,,,,,,,,,,,,,,,,,,,,,,,,,,,,,,,,,KQGVLC,train_x,red_square,top_left,2025-06-14_10h17.47.120,HideSeek_v1,2022.2.5,59.901868758579134,
,2,8,2,5,0,-3,13,,train_dim1_2,3,30,,,,5,0,5,0,,,,,,,,,0,0,0,0,0,2,2,2,5,0,5,0,,,,,,,,,,,,,,,,,,,,,,,,,,,,,,,,,,,,,,,,,,,,,,,,,,,,,,,,,,,,,,,,30,,,,,,,,989.4218638,989.4218638,989.4218638,989.4218638,989.4218638,up,0.2765125999999327,1,0,0,99,0,0.24,up,0.1884924000000865,,,,,,,,,,,,,,,,,,,,,,,,,,,,,,,,,,,,,,,,,,,,,,,,,,,,,,,,,,,,KQGVLC,train_x,red_square,top_left,2025-06-14_10h17.47.120,HideSeek_v1,2022.2.5,59.901868758579134,
,2,8,2,5,0,-3,13,,train_dim1_2,3,30,,,,5,0,5,0,,,,,,,,,0,0,0,0,0,2,2,2,6,0,6,0,,,,,,,,,,,,,,,,,,,,,,,,,,,,,,,,,,,,,,,,,,,,,,,,,,,,,,,,,,,,,,,,30,,,,,,,,989.7121748000002,989.7121748000002,989.7121748000002,989.7121748000002,989.7121748000002,down,0.5603225999998358,1,0,0,99,0,0.15999999999999998,down,0.4736818999999741,,,,,,,,,,,,,,,,,,,,,,,,,,,,,,,,,,,,,,,,,,,,,,,,,,,,,,,,,,,,KQGVLC,train_x,red_square,top_left,2025-06-14_10h17.47.120,HideSeek_v1,2022.2.5,59.901868758579134,
,2,8,2,5,0,-3,13,,train_dim1_2,3,30,,,,5,0,5,0,,,,,,,,,0,0,0,0,0,2,2,2,7,0,7,0,,,,,,,,,,,,,,,,,,,,,,,,,,,,,,,,,,,,,,,,,,,,,,,,,,,,,,,,,,,,,,,,30,,,,,,,,990.2715395000002,990.2715395000002,990.2715395000002,990.2715395000002,990.2715395000002,up,7.349289799999951,1,0,0,99,0,0.24,up,7.258833700000196,,,,,,,,,,,,,,,,,,,,,,,,,,,,,,,,,,,,,,,,,,,,,,,,,,,,,,,,,,,,KQGVLC,train_x,red_square,top_left,2025-06-14_10h17.47.120,HideSeek_v1,2022.2.5,59.901868758579134,
,2,8,2,5,0,-3,13,,train_dim1_2,3,30,,,,5,0,5,0,,,,,,,,,0,0,0,0,0,2,2,2,8,0,8,0,,,,,,,,,,,,,,,,,,,,,,,,,,,,,,,,,,,,,,,,,,,,,,,,,,,,,,,,,,,,,,,,30,,,,,,,,997.6285126,997.6285126,997.6285126,997.6285126,997.6285126,down,1.2608484000002136,1,0,0,99,0,0.15999999999999998,down,1.1742612999996709,,,,,,,,,,,,,,,,,,,,,,,,,,,,,,,,,,,,,,,,,,,,,,,,,,,,,,,,,,,,KQGVLC,train_x,red_square,top_left,2025-06-14_10h17.47.120,HideSeek_v1,2022.2.5,59.901868758579134,
,2,8,2,5,0,-3,13,,train_dim1_2,3,30,,,,5,0,5,0,,,,,,,,,0,0,0,0,0,2,2,2,9,0,9,0,,,,,,,,,,,,,,,,,,,,,,,,,,,,,,,,,,,,,,,,,,,,,,,,,,,,,,,,,,,,,,,,30,,,,,,,,998.8962183000001,998.8962183000001,998.8962183000001,998.8962183000001,998.8962183000001,down,0.2761851000000206,1,0,0,99,0,0.07999999999999997,down,0.18520499999976892,,,,,,,,,,,,,,,,,,,,,,,,,,,,,,,,,,,,,,,,,,,,,,,,,,,,,,,,,,,,KQGVLC,train_x,red_square,top_left,2025-06-14_10h17.47.120,HideSeek_v1,2022.2.5,59.901868758579134,
,2,8,2,5,0,-3,13,,train_dim1_2,3,30,,,,5,0,5,0,,,,,,,,,0,0,0,0,0,2,2,2,10,0,10,0,,,,,,,,,,,,,,,,,,,,,,,,,,,,,,,,,,,,,,,,,,,,,,,,,,,,,,,,,,,,,,,,30,,,,,,,,999.1793697999999,999.1793697999999,999.1793697999999,999.1793697999999,999.1793697999999,down,0.22682350000013685,1,0,0,99,0,-2.7755575615628914e-17,down,0.15061789999981556,,,,,,,,,,,,,,,,,,,,,,,,,,,,,,,,,,,,,,,,,,,,,,,,,,,,,,,,,,,,KQGVLC,train_x,red_square,top_left,2025-06-14_10h17.47.120,HideSeek_v1,2022.2.5,59.901868758579134,
,2,8,2,5,0,-3,13,,train_dim1_2,3,30,,,,5,0,5,0,,,,,,,,,0,0,0,0,0,2,2,2,11,0,11,0,,,,,,,,,,,,,,,,,,,,,,,,,,,,,,,,,,,,,,,,,,,,,,,,,,,,,,,,,,,,,,,,30,,,,,,,,999.4126861000002,999.4126861000002,999.4126861000002,999.4126861000002,999.4126861000002,down,0.2096824000000197,1,0,0,99,0,-0.08000000000000003,down,0.12472440000010465,,,,,,,,,,,,,,,,,,,,,,,,,,,,,,,,,,,,,,,,,,,,,,,,,,,,,,,,,,,,KQGVLC,train_x,red_square,top_left,2025-06-14_10h17.47.120,HideSeek_v1,2022.2.5,59.901868758579134,
,2,8,2,5,0,-3,13,,train_dim1_2,3,30,,,,5,0,5,0,,,,,,,,,0,0,0,0,0,2,2,2,12,0,12,0,,,,,,,,,,,,,,,,,,,,,,,,,,,,,,,,,,,,,,,,,,,,,,,,,,,,,,,,,,,,,,,,30,,,,,,,,999.6309229999999,999.6309229999999,999.6309229999999,999.6309229999999,999.6309229999999,down,0.17680440000003728,1,0,0,99,0,-0.16000000000000003,down,0.09174410000014177,,,,,,,,,,,,,,,,,,,,,,,,,,,,,,,,,,,,,,,,,,,,,,,,,,,,,,,,,,,,KQGVLC,train_x,red_square,top_left,2025-06-14_10h17.47.120,HideSeek_v1,2022.2.5,59.901868758579134,
,2,8,2,5,0,-3,13,,train_dim1_2,3,30,,,,5,0,5,0,,,,,,,,,0,0,0,0,0,2,2,2,13,0,13,0,,,,,,,,,,,,,,,,,,,,,,,,,,,,,,,,,,,,,,,,,,,,,,,,,,,,,,,,,,,,,,,,30,,,,,,,,999.8146902000001,999.8146902000001,999.8146902000001,999.8146902000001,999.8146902000001,up,1.5274166000003788,1,0,0,99,0,-0.08000000000000003,up,1.4478575999996792,,,,,,,,,,,,,,,,,,,,,,,,,,,,,,,,,,,,,,,,,,,,,,,,,,,,,,,,,,,,KQGVLC,train_x,red_square,top_left,2025-06-14_10h17.47.120,HideSeek_v1,2022.2.5,59.901868758579134,
,2,8,2,5,0,-3,13,,train_dim1_2,3,30,,,,5,0,5,0,,,,,,,,,0,0,0,0,0,2,2,2,14,0,14,0,,,,,,,,,,,,,,,,,,,,,,,,,,,,,,,,,,,,,,,,,,,,,,,,,,,,,,,,,,,,,,,,30,,,,,,,,1001.3482437,1001.3482437,1001.3482437,1001.3482437,1001.3482437,up,0.12644369999998162,1,0,0,99,0,-2.7755575615628914e-17,up,0.03913680000005115,,,,,,,,,,,,,,,,,,,,,,,,,,,,,,,,,,,,,,,,,,,,,,,,,,,,,,,,,,,,KQGVLC,train_x,red_square,top_left,2025-06-14_10h17.47.120,HideSeek_v1,2022.2.5,59.901868758579134,
,2,8,2,5,0,-3,13,,train_dim1_2,3,30,,,,5,0,5,0,,,,,,,,,0,0,0,0,0,2,2,2,15,0,15,0,,,,,,,,,,,,,,,,,,,,,,,,,,,,,,,,,,,,,,,,,,,,,,,,,,,,,,,,,,,,,,,,30,,,,,,,,1001.4811947999999,1001.4811947999999,1001.4811947999999,1001.4811947999999,1001.4811947999999,up,0.09322490000022299,1,0,0,99,0,0.07999999999999997,up,0.0051873999996132625,,,,,,,,,,,,,,,,,,,,,,,,,,,,,,,,,,,,,,,,,,,,,,,,,,,,,,,,,,,,KQGVLC,train_x,red_square,top_left,2025-06-14_10h17.47.120,HideSeek_v1,2022.2.5,59.901868758579134,
,2,8,2,5,0,-3,13,,train_dim1_2,3,30,,,,5,0,5,0,,,,,,,,,0,0,0,0,0,2,2,2,16,0,16,0,,,,,,,,,,,,,,,,,,,,,,,,,,,,,,,,,,,,,,,,,,,,,,,,,,,,,,,,,,,,,,,,30,,,,,,,,1001.5832823000003,1001.5832823000003,1001.5832823000003,1001.5832823000003,1001.5832823000003,up,0.17687999999998283,1,0,0,99,0,0.15999999999999998,up,0.09442269999999553,,,,,,,,,,,,,,,,,,,,,,,,,,,,,,,,,,,,,,,,,,,,,,,,,,,,,,,,,,,,KQGVLC,train_x,red_square,top_left,2025-06-14_10h17.47.120,HideSeek_v1,2022.2.5,59.901868758579134,
,2,8,2,5,0,-3,13,,train_dim1_2,3,30,,,,5,0,5,0,,,,,,,,,0,0,0,0,0,2,2,2,17,0,17,0,,,,,,,,,,,,,,,,,,,,,,,,,,,,,,,,,,,,,,,,,,,,,,,,,,,,,,,,,,,,,,,,30,,,,,,,,1001.7797984000001,1001.7797984000001,1001.7797984000001,1001.7797984000001,1001.7797984000001,up,0.16660379999984798,1,0,0,99,0,0.24,up,0.08404980000022988,,,,,,,,,,,,,,,,,,,,,,,,,,,,,,,,,,,,,,,,,,,,,,,,,,,,,,,,,,,,KQGVLC,train_x,red_square,top_left,2025-06-14_10h17.47.120,HideSeek_v1,2022.2.5,59.901868758579134,
