trialInstr,x_fixStart,y_fixStart,x_corrSteps,y_corrSteps,x_nrSteps,y_nrSteps,alienID,trialLength,version,trialTrain,praclen,testlen,trial_label,break_on_off,beforeExpLoop.thisRepN,beforeExpLoop.thisTrialN,beforeExpLoop.thisN,beforeExpLoop.thisIndex,mini_instr_trials.thisRepN,mini_instr_trials.thisTrialN,mini_instr_trials.thisN,mini_instr_trials.thisIndex,instrLoop.thisRepN,instrLoop.thisTrialN,instrLoop.thisN,instrLoop.thisIndex,repeat_prac.thisRepN,repeat_prac.thisTrialN,repeat_prac.thisN,repeat_prac.thisIndex,trainLoop.thisRepN,trainLoop.thisTrialN,trainLoop.thisN,trainLoop.thisIndex,moveLoop_train.thisRepN,moveLoop_train.thisTrialN,moveLoop_train.thisN,moveLoop_train.thisIndex,experiment.thisRepN,experiment.thisTrialN,experiment.thisN,experiment.thisIndex,moveLoop_test.thisRepN,moveLoop_test.thisTrialN,moveLoop_test.thisN,moveLoop_test.thisIndex,mini_instr2_trials.thisRepN,mini_instr2_trials.thisTrialN,mini_instr2_trials.thisN,mini_instr2_trials.thisIndex,start_all_time,url,slideStim,audioStim,slides.started,sounds.started,nextButton.numClicks,nextButton.timesOn,nextButton.timesOff,prev_but.numClicks,prev_but.timesOn,prev_but.timesOff,alienStim,instrFile,alienStim_instr,gridImage_instr.started,startPos_3.started,key_instr.started,alienImage_3.started,sounds_1.started,key_instr.keys,key_instr.rt,all_x,all_y,FBy_corrSteps,FBy_fixStart,FBx_corrSteps,FBx_fixStart,FBy_pathSize_check,FBx_pathSize_check,gridImage_9.started,alienImageFB_3.started,startPosFB_3.started,keyFB_3.started,pathLine_ydir_2.started,pathLine_xdir_2.started,alienFace_3.started,sounds_2.started,RTFB_instr,keyFB_3.keys,keyFB_3.rt,draw_alienStim,draw_alienID,test_x,nrepcount,perfthres,percthres,earlierperf,earlystop,nextPrac,fileidx,praclen,saveACC_train,pracFile,nextPrac_train,addNrep,fileidx_endr,repExp,showearly,gridImage_4.started,startPos.started,movePos.started,key_resp.started,alienImage.started,buttonPress_train,RTchoice_train,cumAcctrain,aCorr,saveACC_choice,corrAns,x_movePos_end,y_movePos_end,key_resp.keys,key_resp.rt,wLy_dir,wLx_dir,x_movePos,y_movePos,text_2.started,text_2.stopped,aft_x_corrPos,aft_y_corrPos,y_pathSize_check,x_pathSize_check,y_pathdirY,x_pathdirY,x_pathdirX,x_corrPos,y_corrPos,gridImage_6.started,alienImageFB_2.started,startPosFB_2.started,movePosFB_2.started,keyFB_2.started,pathLine_xdir.started,pathLine_ydir.started,alienFace.started,sounds_4.started,RT_FBtrain,keyFB_2.keys,keyFB_2.rt,saveACC_pre,ACC,within_saveACC_train,earlystop_wloop,cumAcctrain_check,gridImage_3.started,alienImage_test.started,startPos_test.started,movePos_test.started,key_resp_test.started,wLy_dir_test,wLx_dir_test,buttonPress_test,RTchoice_test,cumAcctest,corrAns_test,key_resp_test.keys,key_resp_test.rt,text_3.started,text_3.stopped,total_time,end_all_time,key_resp_3.keys,slides_2.started,sounds_3.started,nextButton_2.numClicks,nextButton_2.timesOn,nextButton_2.timesOff,prev_but_2.numClicks,prev_but_2.timesOn,prev_but_2.timesOff,bye.started,participant,train_first,00_coordinate,starting corner,date,expName,psychopyVersion,frameRate,
,,,,,,,,,,,,,,,0,0,0,0,0,0,0,0,,,,,,,,,,,,,,,,,,,,,,,,,,,,,start_all_time,testround,conditions/schedules/train_x_first/red_square_00/top_left/instructions/Slide1.png,conditions/schedules/train_x_first/red_square_00/top_left/instructions/Audio1.wav,3506.8041443000548,3506.7517599383837,1,[3.4339628000743687],[3.4339775999542326],0,,,,,,,,,,,,,,,,,,,,,,,,,,,,,,,,,,,,,,,,,,,,,,,,,,,,,,,,,,,,,,,,,,,,,,,,,,,,,,,,,,,,,,,,,,,,,,,,,,,,,,,,,,,,,,,,,,,,,,,,,,,,KZQ08V,train_x,red_square,top_left,2025-09-18_16h19.27.592,HideSeek_v1,2022.2.5,59.97580572934816,
,,,,,,,,,,,,,,,0,0,0,0,1,0,1,0,,,,,,,,,,,,,,,,,,,,,,,,,,,,,,,conditions/schedules/train_x_first/red_square_00/top_left/instructions/Slide2.png,conditions/schedules/train_x_first/red_square_00/top_left/instructions/Audio2.wav,3510.259270099923,3510.258069899981,2,"[3.4339628000743687, 17.328427500091493]","[3.4339775999542326, 17.32843429991044]",0,,,,,,,,,,,,,,,,,,,,,,,,,,,,,,,,,,,,,,,,,,,,,,,,,,,,,,,,,,,,,,,,,,,,,,,,,,,,,,,,,,,,,,,,,,,,,,,,,,,,,,,,,,,,,,,,,,,,,,,,,,,,KZQ08V,train_x,red_square,top_left,2025-09-18_16h19.27.592,HideSeek_v1,2022.2.5,59.97580572934816,
,,,,,,,,,,,,,,,0,0,0,0,2,0,2,0,,,,,,,,,,,,,,,,,,,,,,,,,,,,,,,conditions/schedules/train_x_first/red_square_00/top_left/instructions/Slide3.png,conditions/schedules/train_x_first/red_square_00/top_left/instructions/Audio3.wav,3527.667166299885,3527.6560331998626,3,"[3.4339628000743687, 17.328427500091493, 16.067368200048804]","[3.4339775999542326, 0.014387300005182624, 16.06737509998493]",0,,,,,,,,,,,,,,,,,,,,,,,,,,,,,,,,,,,,,,,,,,,,,,,,,,,,,,,,,,,,,,,,,,,,,,,,,,,,,,,,,,,,,,,,,,,,,,,,,,,,,,,,,,,,,,,,,,,,,,,,,,,,KZQ08V,train_x,red_square,top_left,2025-09-18_16h19.27.592,HideSeek_v1,2022.2.5,59.97580572934816,
,,,,,,,,,,,,,,,0,0,0,0,3,0,3,0,,,,,,,,,,,,,,,,,,,,,,,,,,,,,,,conditions/schedules/train_x_first/red_square_00/top_left/instructions/Slide4.png,conditions/schedules/train_x_first/red_square_00/top_left/instructions/Audio4.wav,3543.810978200054,3543.802791499882,4,"[3.4339628000743687, 17.328427500091493, 16.067368200048804, 18.855725599918514]","[3.4339775999542326, 0.014387300005182624, 0.056700600078329444, 18.855732399970293]",0,,,,,,,,,,,,,,,,,,,,,,,,,,,,,,,,,,,,,,,,,,,,,,,,,,,,,,,,,,,,,,,,,,,,,,,,,,,,,,,,,,,,,,,,,,,,,,,,,,,,,,,,,,,,,,,,,,,,,,,,,,,,KZQ08V,train_x,red_square,top_left,2025-09-18_16h19.27.592,HideSeek_v1,2022.2.5,59.97580572934816,
,,,,,,,,,,,,,,,0,0,0,0,4,0,4,0,,,,,,,,,,,,,,,,,,,,,,,,,,,,,,,conditions/schedules/train_x_first/red_square_00/top_left/instructions/Slide5.png,conditions/schedules/train_x_first/red_square_00/top_left/instructions/Audio5.wav,3562.7392510999925,3562.734771399875,5,"[3.4339628000743687, 17.328427500091493, 16.067368200048804, 18.855725599918514, 3.980078099993989]","[3.4339775999542326, 0.014387300005182624, 0.056700600078329444, 0.01401190017350018, 3.9800848001614213]",0,,,,,,,,,,,,,,,,,,,,,,,,,,,,,,,,,,,,,,,,,,,,,,,,,,,,,,,,,,,,,,,,,,,,,,,,,,,,,,,,,,,,,,,,,,,,,,,,,,,,,,,,,,,,,,,,,,,,,,,,,,,,KZQ08V,train_x,red_square,top_left,2025-09-18_16h19.27.592,HideSeek_v1,2022.2.5,59.97580572934816,
,,,,,,,,,,,,,,,0,0,0,0,5,0,5,0,,,,,,,,,,,,,,,,,,,,,,,,,,,,,,,conditions/schedules/train_x_first/red_square_00/top_left/instructions/Slide6.png,conditions/schedules/train_x_first/red_square_00/top_left/instructions/Audio6.wav,3566.770781100029,3566.7715558799914,6,"[3.4339628000743687, 17.328427500091493, 16.067368200048804, 18.855725599918514, 3.980078099993989, 4.2857122998684645]","[3.4339775999542326, 0.014387300005182624, 0.056700600078329444, 0.01401190017350018, 0.03287069988436997, 4.285718600032851]",0,,,,,,,,,,,,,,,,,,,,,,,,,,,,,,,,,,,,,,,,,,,,,,,,,,,,,,,,,,,,,,,,,,,,,,,,,,,,,,,,,,,,,,,,,,,,,,,,,,,,,,,,,,,,,,,,,,,,,,,,,,,,KZQ08V,train_x,red_square,top_left,2025-09-18_16h19.27.592,HideSeek_v1,2022.2.5,59.97580572934816,
,,,,,,,,,,,,,,,0,0,0,0,6,0,6,0,,,,,,,,,,,,,,,,,,,,,,,,,,,,,,,conditions/schedules/train_x_first/red_square_00/top_left/instructions/Slide7.png,conditions/schedules/train_x_first/red_square_00/top_left/instructions/Audio7.wav,3571.1127164000645,3571.108613379905,7,"[3.4339628000743687, 17.328427500091493, 16.067368200048804, 18.855725599918514, 3.980078099993989, 4.2857122998684645, 4.997896499931812]","[3.4339775999542326, 0.014387300005182624, 0.056700600078329444, 0.01401190017350018, 0.03287069988436997, 0.04661819990724325, 4.997903399867937]",0,,,,,,,,,,,,,,,,,,,,,,,,,,,,,,,,,,,,,,,,,,,,,,,,,,,,,,,,,,,,,,,,,,,,,,,,,,,,,,,,,,,,,,,,,,,,,,,,,,,,,,,,,,,,,,,,,,,,,,,,,,,,KZQ08V,train_x,red_square,top_left,2025-09-18_16h19.27.592,HideSeek_v1,2022.2.5,59.97580572934816,
,,,,,,,,,,,,,,,0,0,0,0,7,0,7,0,,,,,,,,,,,,,,,,,,,,,,,,,,,,,,,conditions/schedules/train_x_first/red_square_00/top_left/instructions/Slide8.png,conditions/schedules/train_x_first/red_square_00/top_left/instructions/Audio8.wav,3576.1633852000814,3576.1629575799684,8,"[3.4339628000743687, 17.328427500091493, 16.067368200048804, 18.855725599918514, 3.980078099993989, 4.2857122998684645, 4.997896499931812, 11.173470000037923]","[3.4339775999542326, 0.014387300005182624, 0.056700600078329444, 0.01401190017350018, 0.03287069988436997, 0.04661819990724325, 0.08055429998785257, 11.17347769998014]",0,,,,,,,,,,,,,,,,,,,,,,,,,,,,,,,,,,,,,,,,,,,,,,,,,,,,,,,,,,,,,,,,,,,,,,,,,,,,,,,,,,,,,,,,,,,,,,,,,,,,,,,,,,,,,,,,,,,,,,,,,,,,KZQ08V,train_x,red_square,top_left,2025-09-18_16h19.27.592,HideSeek_v1,2022.2.5,59.97580572934816,
,,,,,,,,,,,,,,,0,0,0,0,8,0,8,0,,,,,,,,,,,,,,,,,,,,,,,,,,,,,,,conditions/schedules/train_x_first/red_square_00/top_left/instructions/Slide9.png,conditions/schedules/train_x_first/red_square_00/top_left/instructions/Audio9.wav,3587.4083543999586,3587.405339799938,9,"[3.4339628000743687, 17.328427500091493, 16.067368200048804, 18.855725599918514, 3.980078099993989, 4.2857122998684645, 4.997896499931812, 11.173470000037923, 5.216601500054821]","[3.4339775999542326, 0.014387300005182624, 0.056700600078329444, 0.01401190017350018, 0.03287069988436997, 0.04661819990724325, 0.08055429998785257, 0.03027520002797246, 5.216609099879861]",0,,,,,,,,,,,,,,,,,,,,,,,,,,,,,,,,,,,,,,,,,,,,,,,,,,,,,,,,,,,,,,,,,,,,,,,,,,,,,,,,,,,,,,,,,,,,,,,,,,,,,,,,,,,,,,,,,,,,,,,,,,,,KZQ08V,train_x,red_square,top_left,2025-09-18_16h19.27.592,HideSeek_v1,2022.2.5,59.97580572934816,
,,,,,,,,,,,,,,,0,0,0,0,9,0,9,0,,,,,,,,,,,,,,,,,,,,,,,,,,,,,,,conditions/schedules/train_x_first/red_square_00/top_left/instructions/Slide10.png,conditions/schedules/train_x_first/red_square_00/top_left/instructions/Audio10.wav,3592.6629009000026,3592.659987460054,10,"[3.4339628000743687, 17.328427500091493, 16.067368200048804, 18.855725599918514, 3.980078099993989, 4.2857122998684645, 4.997896499931812, 11.173470000037923, 5.216601500054821, 6.517211699858308]","[3.4339775999542326, 0.014387300005182624, 0.056700600078329444, 0.01401190017350018, 0.03287069988436997, 0.04661819990724325, 0.08055429998785257, 0.03027520002797246, 0.09476149990223348, 6.517219099914655]",0,,,,,,,,,,,,,,,,,,,,,,,,,,,,,,,,,,,,,,,,,,,,,,,,,,,,,,,,,,,,,,,,,,,,,,,,,,,,,,,,,,,,,,,,,,,,,,,,,,,,,,,,,,,,,,,,,,,,,,,,,,,,KZQ08V,train_x,red_square,top_left,2025-09-18_16h19.27.592,HideSeek_v1,2022.2.5,59.97580572934816,
,,,,,,,,,,,,,,,0,0,0,0,10,0,10,0,,,,,,,,,,,,,,,,,,,,,,,,,,,,,,,conditions/schedules/train_x_first/red_square_00/top_left/instructions/Slide11.png,conditions/schedules/train_x_first/red_square_00/top_left/instructions/Audio11.wav,3599.250055300072,3599.2487684000516,11,"[3.4339628000743687, 17.328427500091493, 16.067368200048804, 18.855725599918514, 3.980078099993989, 4.2857122998684645, 4.997896499931812, 11.173470000037923, 5.216601500054821, 6.517211699858308, 9.871798299951479]","[3.4339775999542326, 0.014387300005182624, 0.056700600078329444, 0.01401190017350018, 0.03287069988436997, 0.04661819990724325, 0.08055429998785257, 0.03027520002797246, 0.09476149990223348, 0.047183699905872345, 9.871805699774995]",0,,,,,,,,,,,,,,,,,,,,,,,,,,,,,,,,,,,,,,,,,,,,,,,,,,,,,,,,,,,,,,,,,,,,,,,,,,,,,,,,,,,,,,,,,,,,,,,,,,,,,,,,,,,,,,,,,,,,,,,,,,,,KZQ08V,train_x,red_square,top_left,2025-09-18_16h19.27.592,HideSeek_v1,2022.2.5,59.97580572934816,
,,,,,,,,,,,,,,,0,0,0,0,11,0,11,0,,,,,,,,,,,,,,,,,,,,,,,,,,,,,,,conditions/schedules/train_x_first/red_square_00/top_left/instructions/Slide12.png,conditions/schedules/train_x_first/red_square_00/top_left/instructions/Audio12.wav,3609.193510199897,3609.1901835998287,12,"[3.4339628000743687, 17.328427500091493, 16.067368200048804, 18.855725599918514, 3.980078099993989, 4.2857122998684645, 4.997896499931812, 11.173470000037923, 5.216601500054821, 6.517211699858308, 9.871798299951479, 12.921777500072494]","[3.4339775999542326, 0.014387300005182624, 0.056700600078329444, 0.01401190017350018, 0.03287069988436997, 0.04661819990724325, 0.08055429998785257, 0.03027520002797246, 0.09476149990223348, 0.047183699905872345, 0.03100590012036264, 12.921784500125796]",0,,,,,,,,,,,,,,,,,,,,,,,,,,,,,,,,,,,,,,,,,,,,,,,,,,,,,,,,,,,,,,,,,,,,,,,,,,,,,,,,,,,,,,,,,,,,,,,,,,,,,,,,,,,,,,,,,,,,,,,,,,,,KZQ08V,train_x,red_square,top_left,2025-09-18_16h19.27.592,HideSeek_v1,2022.2.5,59.97580572934816,
1,3,7,8,7,5,0,66,2,instr_dim1_1,,,,,,0,0,0,0,,,,,0,0,0,0,,,,,,,,,,,,,,,,,,,,,,,,,,,,,,,,,,,,,stimuli/alien_stimuli/66.png,conditions/schedules/train_x_first/red_square_00/top_left/inputInstr_1.xlsx,stimuli/alien_stimuli/66.png,3622.2192275999114,3622.2192275999114,3622.2192275999114,3622.2192275999114,3622.2172475399684,return,8.549723100150004,"[-0.16, -0.08, 0, 0.08, 0.16, 0.24, 0.32, 0.4, 0.48, 0.56]","[-0.4, -0.32, -0.24, -0.16, -0.08, 0, 0.08, 0.16, 0.24, 0.32]",7,7,8,3,0.0,0.4,3630.9180262999143,3630.9180262999143,3630.9180262999143,3630.9180262999143,3630.9180262999143,3630.9180262999143,3630.9180262999143,3630.9075486599936,8.791703100083396,return,8.637823499972,stimuli/alien_stimuli/66.png,66,3,1,,,,,,,,,,,,,,,,,,,,,,,,,,,,,,,,,,,,,,,,,,,,,,,,,,,,,,,,,,,,,,,,,,,,,,,,,,,,,,,,,,,,,,,,,KZQ08V,train_x,red_square,top_left,2025-09-18_16h19.27.592,HideSeek_v1,2022.2.5,59.97580572934816,
,,,,,,,,,,,30,,,,0,0,0,0,,,,,,,,,,,,,,,,,,,,,,,,,,,,,,,,,,,,,,,,,,,,,,,,,,,,,,,,,,,,,,,,,,,,,,,,,,,,,,21,0.7,0,0,99,1,30,0,conditions/schedules/train_x_first/red_square_00/top_left/inputTrain_1.1.xlsx,99,1,1,1,0,,,,,,,,,,,,,,,,,,,,,,,,,,,,,,,,,,,,,,,,,,,,,,,,,,,,,,,,,,,,,,,,,,,,,,,,,,,KZQ08V,train_x,red_square,top_left,2025-09-18_16h19.27.592,HideSeek_v1,2022.2.5,59.97580572934816,
,,,,,,,,,,,,,,,1,0,1,0,0,0,0,0,,,,,,,,,,,,,,,,,,,,,,,,,,,,,,,conditions/schedules/train_x_first/red_square_00/top_left/instructions/Slide13.png,conditions/schedules/train_x_first/red_square_00/top_left/instructions/Audio13.wav,3639.742403799901,3639.731445599813,13,"[3.4339628000743687, 17.328427500091493, 16.067368200048804, 18.855725599918514, 3.980078099993989, 4.2857122998684645, 4.997896499931812, 11.173470000037923, 5.216601500054821, 6.517211699858308, 9.871798299951479, 12.921777500072494, 16.86835220013745]","[3.4339775999542326, 0.014387300005182624, 0.056700600078329444, 0.01401190017350018, 0.03287069988436997, 0.04661819990724325, 0.08055429998785257, 0.03027520002797246, 0.09476149990223348, 0.047183699905872345, 0.03100590012036264, 12.921784500125796, 16.86835900018923]",0,,,,,,,,,,,,,,,,,,,,,,,,,,,,,,,,,,,,,,,,,,,,,,,,,,,,,,,,,,,,,,,,,,,,,,,,,,,,,,,,,,,,,,,,,,,,,,,,,,,,,,,,,,,,,,,,,,,,,,,,,,,,KZQ08V,train_x,red_square,top_left,2025-09-18_16h19.27.592,HideSeek_v1,2022.2.5,59.97580572934816,
,,,,,,,,,,,,,,,1,0,1,0,1,0,1,0,,,,,,,,,,,,,,,,,,,,,,,,,,,,,,,conditions/schedules/train_x_first/red_square_00/top_left/instructions/Slide14.png,conditions/schedules/train_x_first/red_square_00/top_left/instructions/Audio14.wav,3656.683987400029,3656.679533799994,14,"[3.4339628000743687, 17.328427500091493, 16.067368200048804, 18.855725599918514, 3.980078099993989, 4.2857122998684645, 4.997896499931812, 11.173470000037923, 5.216601500054821, 6.517211699858308, 9.871798299951479, 12.921777500072494, 16.86835220013745, 12.603899599984288]","[3.4339775999542326, 0.014387300005182624, 0.056700600078329444, 0.01401190017350018, 0.03287069988436997, 0.04661819990724325, 0.08055429998785257, 0.03027520002797246, 0.09476149990223348, 0.047183699905872345, 0.03100590012036264, 12.921784500125796, 0.01389419985935092, 12.60390629991889]",0,,,,,,,,,,,,,,,,,,,,,,,,,,,,,,,,,,,,,,,,,,,,,,,,,,,,,,,,,,,,,,,,,,,,,,,,,,,,,,,,,,,,,,,,,,,,,,,,,,,,,,,,,,,,,,,,,,,,,,,,,,,,KZQ08V,train_x,red_square,top_left,2025-09-18_16h19.27.592,HideSeek_v1,2022.2.5,59.97580572934816,
2,4,5,4,5,0,0,16,2,instr_dim1_1,,,,,,1,0,1,0,,,,,0,0,0,0,,,,,,,,,,,,,,,,,,,,,,,,,,,,,,,,,,,,,stimuli/alien_stimuli/16.png,conditions/schedules/train_x_first/red_square_00/top_left/inputInstr_1.xlsx,stimuli/alien_stimuli/16.png,3669.4009726999793,3669.4009726999793,3669.4009726999793,3669.4009726999793,3669.3896894399777,return,5.603094300022349,"[-0.16, -0.08, 0, 0.08, 0.16, 0.24, 0.32, 0.4, 0.48, 0.56]","[-0.4, -0.32, -0.24, -0.16, -0.08, 0, 0.08, 0.16, 0.24, 0.32]",5,5,4,4,0.0,0.0,3675.1681995999534,3675.1681995999534,3675.1681995999534,3675.1681995999534,3675.1681995999534,3675.1681995999534,3675.1681995999534,3675.1611742798937,7.823652199935168,return,7.660519600147381,stimuli/alien_stimuli/16.png,16,4,2,,,,,,,,,,,,,,,,,,,,,,,,,,,,,,,,,,,,,,,,,,,,,,,,,,,,,,,,,,,,,,,,,,,,,,,,,,,,,,,,,,,,,,,,,KZQ08V,train_x,red_square,top_left,2025-09-18_16h19.27.592,HideSeek_v1,2022.2.5,59.97580572934816,
,,,,,,,,,,,30,,,,1,0,1,0,,,,,,,,,,,,,,,,,,,,,,,,,,,,,,,,,,,,,,,,,,,,,,,,,,,,,,,,,,,,,,,,,,,,,,,,,,,,,,21,0.7,0,0,99,1,30,0,conditions/schedules/train_x_first/red_square_00/top_left/inputTrain_1.1.xlsx,99,1,1,1,0,,,,,,,,,,,,,,,,,,,,,,,,,,,,,,,,,,,,,,,,,,,,,,,,,,,,,,,,,,,,,,,,,,,,,,,,,,,KZQ08V,train_x,red_square,top_left,2025-09-18_16h19.27.592,HideSeek_v1,2022.2.5,59.97580572934816,
,,,,,,,,,,,,,,,2,0,2,0,0,0,0,0,,,,,,,,,,,,,,,,,,,,,,,,,,,,,,,conditions/schedules/train_x_first/red_square_00/top_left/instructions/Slide15.png,conditions/schedules/train_x_first/red_square_00/top_left/instructions/Audio15.wav,3683.013590199873,3683.0004112999886,15,"[3.4339628000743687, 17.328427500091493, 16.067368200048804, 18.855725599918514, 3.980078099993989, 4.2857122998684645, 4.997896499931812, 11.173470000037923, 5.216601500054821, 6.517211699858308, 9.871798299951479, 12.921777500072494, 16.86835220013745, 12.603899599984288, 30.57764589996077]","[3.4339775999542326, 0.014387300005182624, 0.056700600078329444, 0.01401190017350018, 0.03287069988436997, 0.04661819990724325, 0.08055429998785257, 0.03027520002797246, 0.09476149990223348, 0.047183699905872345, 0.03100590012036264, 12.921784500125796, 0.01389419985935092, 12.60390629991889, 30.577652500011027]",0,,,,,,,,,,,,,,,,,,,,,,,,,,,,,,,,,,,,,,,,,,,,,,,,,,,,,,,,,,,,,,,,,,,,,,,,,,,,,,,,,,,,,,,,,,,,,,,,,,,,,,,,,,,,,,,,,,,,,,,,,,,,KZQ08V,train_x,red_square,top_left,2025-09-18_16h19.27.592,HideSeek_v1,2022.2.5,59.97580572934816,
,,,,,,,,,,,,,,,2,0,2,0,1,0,1,0,,,,,,,,,,,,,,,,,,,,,,,,,,,,,,,conditions/schedules/train_x_first/red_square_00/top_left/instructions/Slide16.png,conditions/schedules/train_x_first/red_square_00/top_left/instructions/Audio16.wav,3713.6698103998788,3713.6599606998498,16,"[3.4339628000743687, 17.328427500091493, 16.067368200048804, 18.855725599918514, 3.980078099993989, 4.2857122998684645, 4.997896499931812, 11.173470000037923, 5.216601500054821, 6.517211699858308, 9.871798299951479, 12.921777500072494, 16.86835220013745, 12.603899599984288, 30.57764589996077, 21.323192900046706]","[3.4339775999542326, 0.014387300005182624, 0.056700600078329444, 0.01401190017350018, 0.03287069988436997, 0.04661819990724325, 0.08055429998785257, 0.03027520002797246, 0.09476149990223348, 0.047183699905872345, 0.03100590012036264, 12.921784500125796, 0.01389419985935092, 12.60390629991889, 0.013870700029656291, 21.32319979998283]",0,,,,,,,,,,,,,,,,,,,,,,,,,,,,,,,,,,,,,,,,,,,,,,,,,,,,,,,,,,,,,,,,,,,,,,,,,,,,,,,,,,,,,,,,,,,,,,,,,,,,,,,,,,,,,,,,,,,,,,,,,,,,KZQ08V,train_x,red_square,top_left,2025-09-18_16h19.27.592,HideSeek_v1,2022.2.5,59.97580572934816,
,2,6,5,6,3,0,46,,train_dim1_1,1,30,,,,2,0,2,0,,,,,,,,,0,0,0,0,0,0,0,0,0,0,0,0,,,,,,,,,,,,,,,,,,,,,,,,,stimuli/alien_stimuli/46.png,,,,,,,,,,,,,,,,,,,,,,,,,,,,,,,,,,,,,,,30,,,,,,,,3735.1027400998864,3735.1027400998864,3735.1027400998864,3735.1027400998864,3735.1027400998864,down,21.46634509996511,0,0,0,99,0,0.0,down,21.361537200165913,,,,,,,,,,,,,,,,,,,,,,,,,,,,,,,,,,,,,,,,,,,,,,,,,,,,,,,,,,,,KZQ08V,train_x,red_square,top_left,2025-09-18_16h19.27.592,HideSeek_v1,2022.2.5,59.97580572934816,
,2,6,5,6,3,0,46,,train_dim1_1,1,30,,,,2,0,2,0,,,,,,,,,0,0,0,0,0,0,0,0,1,0,1,0,,,,,,,,,,,,,,,,,,,,,,,,,,,,,,,,,,,,,,,,,,,,,,,,,,,,,,,,,,,,,,,,30,,,,,,,,3756.576466700062,3756.576466700062,3756.576466700062,3756.576466700062,3756.576466700062,down,14.688030099961907,0,0,0,99,0,-0.08,down,14.589168000034988,,,,,,,,,,,,,,,,,,,,,,,,,,,,,,,,,,,,,,,,,,,,,,,,,,,,,,,,,,,,KZQ08V,train_x,red_square,top_left,2025-09-18_16h19.27.592,HideSeek_v1,2022.2.5,59.97580572934816,
,2,6,5,6,3,0,46,,train_dim1_1,1,30,,,,2,0,2,0,,,,,,,,,0,0,0,0,0,0,0,0,2,0,2,0,,,,,,,,,,,,,,,,,,,,,,,,,,,,,,,,,,,,,,,,,,,,,,,,,,,,,,,,,,,,,,,,30,,,,,,,,3771.2746567998547,3771.2746567998547,3771.2746567998547,3771.2746567998547,3771.2746567998547,return,1.507876900024712,0,0,0,0,0,-0.08,return,1.4156100002583116,-2,0,0,-0.08,,,,,,,,,,,,,,,,,,,,,,,,,,,,,,,,,,,,,,,,,,,,,,,,,,,,,,,,KZQ08V,train_x,red_square,top_left,2025-09-18_16h19.27.592,HideSeek_v1,2022.2.5,59.97580572934816,
,2,9,2,9,0,0,16,,train_dim1_1,2,30,,,,2,0,2,0,,,,,,,,,0,0,0,0,0,1,1,1,0,0,0,0,,,,,,,,,,,,,,,,,,,,,,,,,stimuli/alien_stimuli/16.png,,,,,,,,,,,,,,,,,,,,,,,,,,,,,stimuli/alien_stimuli/46.png,46,2,3,,,,,,,30,,,,,,,,3794.263212400023,3794.263212400023,3794.263212400023,3794.263212400023,3794.263212400023,down,10.977934299968183,0,0,0,99,0,0.24,down,10.861435500206426,,,,,3792.6763106000144,3794.263212400023,0.24,0.08,0.0,0.24,0.08,0.24,0.12,0.24,0.08,3774.3446410000324,3774.3446410000324,3774.3446410000324,3774.3446410000324,3774.3446410000324,3774.3446410000324,3774.3446410000324,3774.3446410000324,3774.3268339399483,18.450940100010484,return,18.31092710001394,,,,,,,,,,,,,,,,,,,,,,,,,,,,,,,,,KZQ08V,train_x,red_square,top_left,2025-09-18_16h19.27.592,HideSeek_v1,2022.2.5,59.97580572934816,
,2,9,2,9,0,0,16,,train_dim1_1,2,30,,,,2,0,2,0,,,,,,,,,0,0,0,0,0,1,1,1,1,0,1,0,,,,,,,,,,,,,,,,,,,,,,,,,,,,,,,,,,,,,,,,,,,,,,,,,,,,,,,,,,,,,,,,30,,,,,,,,3805.2432309000287,3805.2432309000287,3805.2432309000287,3805.2432309000287,3805.2432309000287,down,0.7752950000576675,0,0,0,99,0,0.15999999999999998,down,0.6699618001002818,,,,,,,,,,,,,,,,,,,,,,,,,,,,,,,,,,,,,,,,,,,,,,,,,,,,,,,,,,,,KZQ08V,train_x,red_square,top_left,2025-09-18_16h19.27.592,HideSeek_v1,2022.2.5,59.97580572934816,
,2,9,2,9,0,0,16,,train_dim1_1,2,30,,,,2,0,2,0,,,,,,,,,0,0,0,0,0,1,1,1,2,0,2,0,,,,,,,,,,,,,,,,,,,,,,,,,,,,,,,,,,,,,,,,,,,,,,,,,,,,,,,,,,,,,,,,30,,,,,,,,3806.0047249000054,3806.0047249000054,3806.0047249000054,3806.0047249000054,3806.0047249000054,right,1.0268569998443127,0,0,0,99,0.08,0.15999999999999998,right,0.9425127001013607,,,,,,,,,,,,,,,,,,,,,,,,,,,,,,,,,,,,,,,,,,,,,,,,,,,,,,,,,,,,KZQ08V,train_x,red_square,top_left,2025-09-18_16h19.27.592,HideSeek_v1,2022.2.5,59.97580572934816,
,2,9,2,9,0,0,16,,train_dim1_1,2,30,,,,2,0,2,0,,,,,,,,,0,0,0,0,0,1,1,1,3,0,3,0,,,,,,,,,,,,,,,,,,,,,,,,,,,,,,,,,,,,,,,,,,,,,,,,,,,,,,,,,,,,,,,,30,,,,,,,,3807.0389977998566,3807.0389977998566,3807.0389977998566,3807.0389977998566,3807.0389977998566,return,15.289242499973625,0,0,0,0,0.08,0.15999999999999998,return,15.210845600115135,-4,1,0.08,0.15999999999999998,,,,,,,,,,,,,,,,,,,,,,,,,,,,,,,,,,,,,,,,,,,,,,,,,,,,,,,,KZQ08V,train_x,red_square,top_left,2025-09-18_16h19.27.592,HideSeek_v1,2022.2.5,59.97580572934816,
,4,9,5,9,1,0,26,,train_dim1_1,3,30,,,,2,0,2,0,,,,,,,,,0,0,0,0,0,2,2,2,0,0,0,0,,,,,,,,,,,,,,,,,,,,,,,,,stimuli/alien_stimuli/26.png,,,,,,,,,,,,,,,,,,,,,,,,,,,,,stimuli/alien_stimuli/16.png,16,2,4,,,,,,,30,,,,,,,,3831.3376563999336,3831.3376563999336,3831.3376563999336,3831.3376563999336,3831.3376563999336,down,5.625856200000271,0,0,0,99,0.16,0.24,down,5.541949400212616,,,,,3829.7734509999864,3831.3376563999336,0,0.32,0.0,0.0,0.32,0,0.0,0,0.32,3823.918592599919,3823.918592599919,3823.918592599919,3823.918592599919,3823.918592599919,3823.918592599919,3823.918592599919,3823.918592599919,3823.9013345598246,5.990317000076175,return,5.824613600037992,,,,,,,,,,,,,,,,,,,,,,,,,,,,,,,,,KZQ08V,train_x,red_square,top_left,2025-09-18_16h19.27.592,HideSeek_v1,2022.2.5,59.97580572934816,
,4,9,5,9,1,0,26,,train_dim1_1,3,30,,,,2,0,2,0,,,,,,,,,0,0,0,0,0,2,2,2,1,0,1,0,,,,,,,,,,,,,,,,,,,,,,,,,,,,,,,,,,,,,,,,,,,,,,,,,,,,,,,,,,,,,,,,30,,,,,,,,3836.964473800035,3836.964473800035,3836.964473800035,3836.964473800035,3836.964473800035,down,0.9926657001487911,0,0,0,99,0.16,0.15999999999999998,down,0.9091119999065995,,,,,,,,,,,,,,,,,,,,,,,,,,,,,,,,,,,,,,,,,,,,,,,,,,,,,,,,,,,,KZQ08V,train_x,red_square,top_left,2025-09-18_16h19.27.592,HideSeek_v1,2022.2.5,59.97580572934816,
,4,9,5,9,1,0,26,,train_dim1_1,3,30,,,,2,0,2,0,,,,,,,,,0,0,0,0,0,2,2,2,2,0,2,0,,,,,,,,,,,,,,,,,,,,,,,,,,,,,,,,,,,,,,,,,,,,,,,,,,,,,,,,,,,,,,,,30,,,,,,,,3837.9640466999263,3837.9640466999263,3837.9640466999263,3837.9640466999263,3837.9640466999263,right,1.2602436998859048,0,0,0,99,0.24,0.15999999999999998,right,1.1731630000285804,,,,,,,,,,,,,,,,,,,,,,,,,,,,,,,,,,,,,,,,,,,,,,,,,,,,,,,,,,,,KZQ08V,train_x,red_square,top_left,2025-09-18_16h19.27.592,HideSeek_v1,2022.2.5,59.97580572934816,
,4,9,5,9,1,0,26,,train_dim1_1,3,30,,,,2,0,2,0,,,,,,,,,0,0,0,0,0,2,2,2,3,0,3,0,,,,,,,,,,,,,,,,,,,,,,,,,,,,,,,,,,,,,,,,,,,,,,,,,,,,,,,,,,,,,,,,30,,,,,,,,3839.231511000078,3839.231511000078,3839.231511000078,3839.231511000078,3839.231511000078,return,2.8786077999975532,0,0,0,0,0.24,0.15999999999999998,return,2.802485200110823,-6,2,0.24,0.15999999999999998,,,,,,,,,,,,,,,,,,,,,,,,,,,,,,,,,,,,,,,,,,,,,,,,,,,,,,,,KZQ08V,train_x,red_square,top_left,2025-09-18_16h19.27.592,HideSeek_v1,2022.2.5,59.97580572934816,
,2,8,6,8,4,0,56,,train_dim1_1,4,30,,,,2,0,2,0,,,,,,,,,0,0,0,0,0,3,3,3,0,0,0,0,,,,,,,,,,,,,,,,,,,,,,,,,stimuli/alien_stimuli/56.png,,,,,,,,,,,,,,,,,,,,,,,,,,,,,stimuli/alien_stimuli/26.png,26,4,5,,,,,,,30,,,,,,,,3850.453361199936,3850.453361199936,3850.453361199936,3850.453361199936,3850.453361199936,right,8.8278914000839,0,0,0,99,0.08,0.24,right,8.742495600134134,,,,,3848.889429199975,3850.453361199936,0.24,0.32,0.0,0.08,0.32,0.24,0.2,0.24,0.32,3843.708266899921,3843.708266899921,3843.708266899921,3843.708266899921,3843.708266899921,3843.708266899921,3843.708266899921,3843.708266899921,3843.700647979998,5.3235520999878645,return,5.1600203001871705,,,,,,,,,,,,,,,,,,,,,,,,,,,,,,,,,KZQ08V,train_x,red_square,top_left,2025-09-18_16h19.27.592,HideSeek_v1,2022.2.5,59.97580572934816,
,2,8,6,8,4,0,56,,train_dim1_1,4,30,,,,2,0,2,0,,,,,,,,,0,0,0,0,0,3,3,3,1,0,1,0,,,,,,,,,,,,,,,,,,,,,,,,,,,,,,,,,,,,,,,,,,,,,,,,,,,,,,,,,,,,,,,,30,,,,,,,,3859.2873456000816,3859.2873456000816,3859.2873456000816,3859.2873456000816,3859.2873456000816,right,0.25460490002296865,0,0,0,99,0.16,0.24,right,0.17037820001132786,,,,,,,,,,,,,,,,,,,,,,,,,,,,,,,,,,,,,,,,,,,,,,,,,,,,,,,,,,,,KZQ08V,train_x,red_square,top_left,2025-09-18_16h19.27.592,HideSeek_v1,2022.2.5,59.97580572934816,
,2,8,6,8,4,0,56,,train_dim1_1,4,30,,,,2,0,2,0,,,,,,,,,0,0,0,0,0,3,3,3,2,0,2,0,,,,,,,,,,,,,,,,,,,,,,,,,,,,,,,,,,,,,,,,,,,,,,,,,,,,,,,,,,,,,,,,30,,,,,,,,3859.5473245000467,3859.5473245000467,3859.5473245000467,3859.5473245000467,3859.5473245000467,return,2.5952500998973846,0,0,0,0,0.16,0.24,return,2.5206500999629498,-6,4,0.16,0.24,,,,,,,,,,,,,,,,,,,,,,,,,,,,,,,,,,,,,,,,,,,,,,,,,,,,,,,,KZQ08V,train_x,red_square,top_left,2025-09-18_16h19.27.592,HideSeek_v1,2022.2.5,59.97580572934816,
,0,7,5,7,5,0,66,,train_dim1_1,5,30,,,,2,0,2,0,,,,,,,,,0,0,0,0,0,4,4,4,0,0,0,0,,,,,,,,,,,,,,,,,,,,,,,,,stimuli/alien_stimuli/66.png,,,,,,,,,,,,,,,,,,,,,,,,,,,,,stimuli/alien_stimuli/56.png,56,2,6,,,,,,,30,,,,,,,,3874.3667510999367,3874.3667510999367,3874.3667510999367,3874.3667510999367,3874.3667510999367,right,7.941489400109276,0,0,0,99,-0.08,0.16,right,7.834603700088337,,,,,3872.792636799859,3874.3667510999367,0.32,0.24,0.0,0.32,0.24,0.32,0.16,0.32,0.24,3863.7285785998683,3863.7285785998683,3863.7285785998683,3863.7285785998683,3863.7285785998683,3863.7285785998683,3863.7285785998683,3863.7285785998683,3863.7175269600007,9.193132599815726,return,9.03456489997916,,,,,,,,,,,,,,,,,,,,,,,,,,,,,,,,,KZQ08V,train_x,red_square,top_left,2025-09-18_16h19.27.592,HideSeek_v1,2022.2.5,59.97580572934816,
,0,7,5,7,5,0,66,,train_dim1_1,5,30,,,,2,0,2,0,,,,,,,,,0,0,0,0,0,4,4,4,1,0,1,0,,,,,,,,,,,,,,,,,,,,,,,,,,,,,,,,,,,,,,,,,,,,,,,,,,,,,,,,,,,,,,,,30,,,,,,,,3882.2996378000826,3882.2996378000826,3882.2996378000826,3882.2996378000826,3882.2996378000826,right,1.2771169000770897,0,0,0,99,0.0,0.16,right,1.2002506002318114,,,,,,,,,,,,,,,,,,,,,,,,,,,,,,,,,,,,,,,,,,,,,,,,,,,,,,,,,,,,KZQ08V,train_x,red_square,top_left,2025-09-18_16h19.27.592,HideSeek_v1,2022.2.5,59.97580572934816,
,0,7,5,7,5,0,66,,train_dim1_1,5,30,,,,2,0,2,0,,,,,,,,,0,0,0,0,0,4,4,4,2,0,2,0,,,,,,,,,,,,,,,,,,,,,,,,,,,,,,,,,,,,,,,,,,,,,,,,,,,,,,,,,,,,,,,,30,,,,,,,,3883.581483300077,3883.581483300077,3883.581483300077,3883.581483300077,3883.581483300077,right,1.0937997000291944,0,0,0,99,0.08,0.16,right,1.0148159000091255,,,,,,,,,,,,,,,,,,,,,,,,,,,,,,,,,,,,,,,,,,,,,,,,,,,,,,,,,,,,KZQ08V,train_x,red_square,top_left,2025-09-18_16h19.27.592,HideSeek_v1,2022.2.5,59.97580572934816,
,0,7,5,7,5,0,66,,train_dim1_1,5,30,,,,2,0,2,0,,,,,,,,,0,0,0,0,0,4,4,4,3,0,3,0,,,,,,,,,,,,,,,,,,,,,,,,,,,,,,,,,,,,,,,,,,,,,,,,,,,,,,,,,,,,,,,,30,,,,,,,,3884.6876955998596,3884.6876955998596,3884.6876955998596,3884.6876955998596,3884.6876955998596,return,4.078807499958202,0,0,0,0,0.08,0.16,return,3.9998294000979513,-6,7,0.08,0.16,,,,,,,,,,,,,,,,,,,,,,,,,,,,,,,,,,,,,,,,,,,,,,,,,,,,,,,,KZQ08V,train_x,red_square,top_left,2025-09-18_16h19.27.592,HideSeek_v1,2022.2.5,59.97580572934816,
,0,5,1,5,1,0,26,,train_dim1_1,6,30,,,,2,0,2,0,,,,,,,,,0,0,0,0,0,5,5,5,0,0,0,0,,,,,,,,,,,,,,,,,,,,,,,,,stimuli/alien_stimuli/26.png,,,,,,,,,,,,,,,,,,,,,,,,,,,,,stimuli/alien_stimuli/66.png,66,0,7,,,,,,,30,,,,,,,,3894.855633799918,3894.855633799918,3894.855633799918,3894.855633799918,3894.855633799918,down,5.260284399846569,0,0,0,99,-0.16,-0.08,down,5.176960600074381,,,,,3893.2931152998935,3894.855633799918,0.24,0.16,0.0,0.4,0.16,0.24,0.039999999999999994,0.24,0.16,3890.347189199878,3890.347189199878,3890.347189199878,3890.347189199878,3890.347189199878,3890.347189199878,3890.347189199878,3890.347189199878,3890.3394764599393,3.0714348999317735,return,2.9186384002678096,,,,,,,,,,,,,,,,,,,,,,,,,,,,,,,,,KZQ08V,train_x,red_square,top_left,2025-09-18_16h19.27.592,HideSeek_v1,2022.2.5,59.97580572934816,
,0,5,1,5,1,0,26,,train_dim1_1,6,30,,,,2,0,2,0,,,,,,,,,0,0,0,0,0,5,5,5,1,0,1,0,,,,,,,,,,,,,,,,,,,,,,,,,,,,,,,,,,,,,,,,,,,,,,,,,,,,,,,,,,,,,,,,30,,,,,,,,3900.121237799991,3900.121237799991,3900.121237799991,3900.121237799991,3900.121237799991,down,1.45569230010733,0,0,0,99,-0.16,-0.16,down,1.3695112001150846,,,,,,,,,,,,,,,,,,,,,,,,,,,,,,,,,,,,,,,,,,,,,,,,,,,,,,,,,,,,KZQ08V,train_x,red_square,top_left,2025-09-18_16h19.27.592,HideSeek_v1,2022.2.5,59.97580572934816,
,0,5,1,5,1,0,26,,train_dim1_1,6,30,,,,2,0,2,0,,,,,,,,,0,0,0,0,0,5,5,5,2,0,2,0,,,,,,,,,,,,,,,,,,,,,,,,,,,,,,,,,,,,,,,,,,,,,,,,,,,,,,,,,,,,,,,,30,,,,,,,,3901.5855000000447,3901.5855000000447,3901.5855000000447,3901.5855000000447,3901.5855000000447,right,2.2438328999560326,0,0,0,99,-0.08,-0.16,right,2.150514000095427,,,,,,,,,,,,,,,,,,,,,,,,,,,,,,,,,,,,,,,,,,,,,,,,,,,,,,,,,,,,KZQ08V,train_x,red_square,top_left,2025-09-18_16h19.27.592,HideSeek_v1,2022.2.5,59.97580572934816,
,0,5,1,5,1,0,26,,train_dim1_1,6,30,,,,2,0,2,0,,,,,,,,,0,0,0,0,0,5,5,5,3,0,3,0,,,,,,,,,,,,,,,,,,,,,,,,,,,,,,,,,,,,,,,,,,,,,,,,,,,,,,,,,,,,,,,,30,,,,,,,,3903.8381689998787,3903.8381689998787,3903.8381689998787,3903.8381689998787,3903.8381689998787,return,3.4943672998342663,0,0,0,0,-0.08,-0.16,return,3.402843400137499,-8,8,-0.08,-0.16,,,,,,,,,,,,,,,,,,,,,,,,,,,,,,,,,,,,,,,,,,,,,,,,,,,,,,,,KZQ08V,train_x,red_square,top_left,2025-09-18_16h19.27.592,HideSeek_v1,2022.2.5,59.97580572934816,
,3,5,8,5,5,0,66,,train_dim1_1,7,30,,,,2,0,2,0,,,,,,,,,0,0,0,0,0,6,6,6,0,0,0,0,,,,,,,,,,,,,,,,,,,,,,,,,stimuli/alien_stimuli/66.png,,,,,,,,,,,,,,,,,,,,,,,,,,,,,stimuli/alien_stimuli/26.png,26,0,8,,,,,,,30,,,,,,,,3913.2840604998637,3913.2840604998637,3913.2840604998637,3913.2840604998637,3913.2840604998637,right,8.294266799930483,0,0,0,99,0.16,0,right,8.205378800164908,,,,,3911.725400599884,3913.2840604998637,-0.08,0,0.0,0.08,0.0,-0.08,-0.12,-0.08,0,3908.9264501999132,3908.9264501999132,3908.9264501999132,3908.9264501999132,3908.9264501999132,3908.9264501999132,3908.9264501999132,3908.9264501999132,3908.9047731599308,2.9386684000492096,return,2.7820346001535654,,,,,,,,,,,,,,,,,,,,,,,,,,,,,,,,,KZQ08V,train_x,red_square,top_left,2025-09-18_16h19.27.592,HideSeek_v1,2022.2.5,59.97580572934816,
,3,5,8,5,5,0,66,,train_dim1_1,7,30,,,,2,0,2,0,,,,,,,,,0,0,0,0,0,6,6,6,1,0,1,0,,,,,,,,,,,,,,,,,,,,,,,,,,,,,,,,,,,,,,,,,,,,,,,,,,,,,,,,,,,,,,,,30,,,,,,,,3921.580549000064,3921.580549000064,3921.580549000064,3921.580549000064,3921.580549000064,right,1.3604526999406517,0,0,0,99,0.24,0,right,1.2819829999934882,,,,,,,,,,,,,,,,,,,,,,,,,,,,,,,,,,,,,,,,,,,,,,,,,,,,,,,,,,,,KZQ08V,train_x,red_square,top_left,2025-09-18_16h19.27.592,HideSeek_v1,2022.2.5,59.97580572934816,
,3,5,8,5,5,0,66,,train_dim1_1,7,30,,,,2,0,2,0,,,,,,,,,0,0,0,0,0,6,6,6,2,0,2,0,,,,,,,,,,,,,,,,,,,,,,,,,,,,,,,,,,,,,,,,,,,,,,,,,,,,,,,,,,,,,,,,30,,,,,,,,3922.946894200053,3922.946894200053,3922.946894200053,3922.946894200053,3922.946894200053,right,9.767975599970669,0,0,0,99,0.32,0,right,9.686132500180975,,,,,,,,,,,,,,,,,,,,,,,,,,,,,,,,,,,,,,,,,,,,,,,,,,,,,,,,,,,,KZQ08V,train_x,red_square,top_left,2025-09-18_16h19.27.592,HideSeek_v1,2022.2.5,59.97580572934816,
,3,5,8,5,5,0,66,,train_dim1_1,7,30,,,,2,0,2,0,,,,,,,,,0,0,0,0,0,6,6,6,3,0,3,0,,,,,,,,,,,,,,,,,,,,,,,,,,,,,,,,,,,,,,,,,,,,,,,,,,,,,,,,,,,,,,,,30,,,,,,,,3932.724324800074,3932.724324800074,3932.724324800074,3932.724324800074,3932.724324800074,return,2.0943974999245256,0,0,0,0,0.32,0,return,2.016472600167617,-8,11,0.32,0,,,,,,,,,,,,,,,,,,,,,,,,,,,,,,,,,,,,,,,,,,,,,,,,,,,,,,,,KZQ08V,train_x,red_square,top_left,2025-09-18_16h19.27.592,HideSeek_v1,2022.2.5,59.97580572934816,
,0,9,3,9,3,0,46,,train_dim1_1,8,30,,,,2,0,2,0,,,,,,,,,0,0,0,0,0,7,7,7,0,0,0,0,,,,,,,,,,,,,,,,,,,,,,,,,stimuli/alien_stimuli/46.png,,,,,,,,,,,,,,,,,,,,,,,,,,,,,stimuli/alien_stimuli/66.png,66,3,9,,,,,,,30,,,,,,,,3941.414387400029,3941.414387400029,3941.414387400029,3941.414387400029,3941.414387400029,right,1.9663815998937935,0,0,0,99,-0.08,0.32,right,1.885113500058651,,,,,3939.848521699896,3941.414387400029,0.48,0,0.0,0.4,0.0,0.48,0.27999999999999997,0.48,0,3936.394185299985,3936.394185299985,3936.394185299985,3936.394185299985,3936.394185299985,3936.394185299985,3936.394185299985,3936.394185299985,3936.377991139959,3.571898099966347,return,3.422692700056359,,,,,,,,,,,,,,,,,,,,,,,,,,,,,,,,,KZQ08V,train_x,red_square,top_left,2025-09-18_16h19.27.592,HideSeek_v1,2022.2.5,59.97580572934816,
,0,9,3,9,3,0,46,,train_dim1_1,8,30,,,,2,0,2,0,,,,,,,,,0,0,0,0,0,7,7,7,1,0,1,0,,,,,,,,,,,,,,,,,,,,,,,,,,,,,,,,,,,,,,,,,,,,,,,,,,,,,,,,,,,,,,,,30,,,,,,,,3943.381462200079,3943.381462200079,3943.381462200079,3943.381462200079,3943.381462200079,right,0.5928001999855042,0,0,0,99,0.0,0.32,right,0.5184310001786798,,,,,,,,,,,,,,,,,,,,,,,,,,,,,,,,,,,,,,,,,,,,,,,,,,,,,,,,,,,,KZQ08V,train_x,red_square,top_left,2025-09-18_16h19.27.592,HideSeek_v1,2022.2.5,59.97580572934816,
,0,9,3,9,3,0,46,,train_dim1_1,8,30,,,,2,0,2,0,,,,,,,,,0,0,0,0,0,7,7,7,2,0,2,0,,,,,,,,,,,,,,,,,,,,,,,,,,,,,,,,,,,,,,,,,,,,,,,,,,,,,,,,,,,,,,,,30,,,,,,,,3943.9830861999653,3943.9830861999653,3943.9830861999653,3943.9830861999653,3943.9830861999653,right,0.5431500000413507,0,0,0,99,0.08,0.32,right,0.45432560006156564,,,,,,,,,,,,,,,,,,,,,,,,,,,,,,,,,,,,,,,,,,,,,,,,,,,,,,,,,,,,KZQ08V,train_x,red_square,top_left,2025-09-18_16h19.27.592,HideSeek_v1,2022.2.5,59.97580572934816,
,0,9,3,9,3,0,46,,train_dim1_1,8,30,,,,2,0,2,0,,,,,,,,,0,0,0,0,0,7,7,7,3,0,3,0,,,,,,,,,,,,,,,,,,,,,,,,,,,,,,,,,,,,,,,,,,,,,,,,,,,,,,,,,,,,,,,,30,,,,,,,,3944.535864799982,3944.535864799982,3944.535864799982,3944.535864799982,3944.535864799982,right,0.47332860017195344,0,0,0,99,0.16,0.32,right,0.3901837000157684,,,,,,,,,,,,,,,,,,,,,,,,,,,,,,,,,,,,,,,,,,,,,,,,,,,,,,,,,,,,KZQ08V,train_x,red_square,top_left,2025-09-18_16h19.27.592,HideSeek_v1,2022.2.5,59.97580572934816,
,0,9,3,9,3,0,46,,train_dim1_1,8,30,,,,2,0,2,0,,,,,,,,,0,0,0,0,0,7,7,7,4,0,4,0,,,,,,,,,,,,,,,,,,,,,,,,,,,,,,,,,,,,,,,,,,,,,,,,,,,,,,,,,,,,,,,,30,,,,,,,,3945.0183339999057,3945.0183339999057,3945.0183339999057,3945.0183339999057,3945.0183339999057,right,0.4583081000018865,0,0,0,99,0.24,0.32,right,0.38089180015958846,,,,,,,,,,,,,,,,,,,,,,,,,,,,,,,,,,,,,,,,,,,,,,,,,,,,,,,,,,,,KZQ08V,train_x,red_square,top_left,2025-09-18_16h19.27.592,HideSeek_v1,2022.2.5,59.97580572934816,
,0,9,3,9,3,0,46,,train_dim1_1,8,30,,,,2,0,2,0,,,,,,,,,0,0,0,0,0,7,7,7,5,0,5,0,,,,,,,,,,,,,,,,,,,,,,,,,,,,,,,,,,,,,,,,,,,,,,,,,,,,,,,,,,,,,,,,30,,,,,,,,3945.482422699919,3945.482422699919,3945.482422699919,3945.482422699919,3945.482422699919,right,0.45986229996196926,0,0,0,99,0.32,0.32,right,0.371958700241521,,,,,,,,,,,,,,,,,,,,,,,,,,,,,,,,,,,,,,,,,,,,,,,,,,,,,,,,,,,,KZQ08V,train_x,red_square,top_left,2025-09-18_16h19.27.592,HideSeek_v1,2022.2.5,59.97580572934816,
,0,9,3,9,3,0,46,,train_dim1_1,8,30,,,,2,0,2,0,,,,,,,,,0,0,0,0,0,7,7,7,6,0,6,0,,,,,,,,,,,,,,,,,,,,,,,,,,,,,,,,,,,,,,,,,,,,,,,,,,,,,,,,,,,,,,,,30,,,,,,,,3945.9500964998733,3945.9500964998733,3945.9500964998733,3945.9500964998733,3945.9500964998733,return,0.9766927000600845,0,0,0,0,0.32,0.32,return,0.9038020002190024,-8,17,0.32,0.32,,,,,,,,,,,,,,,,,,,,,,,,,,,,,,,,,,,,,,,,,,,,,,,,,,,,,,,,KZQ08V,train_x,red_square,top_left,2025-09-18_16h19.27.592,HideSeek_v1,2022.2.5,59.97580572934816,
,1,5,5,5,4,0,56,,train_dim1_1,9,30,,,,2,0,2,0,,,,,,,,,0,0,0,0,0,8,8,8,0,0,0,0,,,,,,,,,,,,,,,,,,,,,,,,,stimuli/alien_stimuli/56.png,,,,,,,,,,,,,,,,,,,,,,,,,,,,,stimuli/alien_stimuli/46.png,46,0,10,,,,,,,30,,,,,,,,3952.4825637000613,3952.4825637000613,3952.4825637000613,3952.4825637000613,3952.4825637000613,right,1.8195458000991493,0,0,0,99,0.0,0,right,1.713723300024867,,,,,3950.907544200076,3952.4825637000613,0.08,0.32,0.0,0.24,0.32,0.08,-0.04,0.08,0.32,3948.5057915998623,3948.5057915998623,3948.5057915998623,3948.5057915998623,3948.5057915998623,3948.5057915998623,3948.5057915998623,3948.5057915998623,3948.4879408400275,2.521154700079933,return,2.3790798000991344,,,,,,,,,,,,,,,,,,,,,,,,,,,,,,,,,KZQ08V,train_x,red_square,top_left,2025-09-18_16h19.27.592,HideSeek_v1,2022.2.5,59.97580572934816,
,1,5,5,5,4,0,56,,train_dim1_1,9,30,,,,2,0,2,0,,,,,,,,,0,0,0,0,0,8,8,8,1,0,1,0,,,,,,,,,,,,,,,,,,,,,,,,,,,,,,,,,,,,,,,,,,,,,,,,,,,,,,,,,,,,,,,,30,,,,,,,,3954.2927281998564,3954.2927281998564,3954.2927281998564,3954.2927281998564,3954.2927281998564,return,1.2601240000221878,0,0,0,0,0.0,0,return,1.1746437002439052,-8,18,0.0,0,,,,,,,,,,,,,,,,,,,,,,,,,,,,,,,,,,,,,,,,,,,,,,,,,,,,,,,,KZQ08V,train_x,red_square,top_left,2025-09-18_16h19.27.592,HideSeek_v1,2022.2.5,59.97580572934816,
,0,8,0,8,0,0,16,,train_dim1_1,10,30,,,,2,0,2,0,,,,,,,,,0,0,0,0,0,9,9,9,0,0,0,0,,,,,,,,,,,,,,,,,,,,,,,,,stimuli/alien_stimuli/16.png,,,,,,,,,,,,,,,,,,,,,,,,,,,,,stimuli/alien_stimuli/56.png,56,1,11,,,,,,,30,,,,,,,,3960.410896899877,3960.410896899877,3960.410896899877,3960.410896899877,3960.410896899877,right,0.6896748999133706,0,0,0,99,-0.08,0.24,right,0.5781619001645595,,,,,3958.830622999929,3960.410896899877,0.24,0,0.0,0.32,0.0,0.24,0.07999999999999999,0.24,0,3957.119994299952,3957.119994299952,3957.119994299952,3957.119994299952,3957.119994299952,3957.119994299952,3957.119994299952,3957.119994299952,3957.11195743999,1.8205292001366615,return,1.6812446000985801,,,,,,,,,,,,,,,,,,,,,,,,,,,,,,,,,KZQ08V,train_x,red_square,top_left,2025-09-18_16h19.27.592,HideSeek_v1,2022.2.5,59.97580572934816,
,0,8,0,8,0,0,16,,train_dim1_1,10,30,,,,2,0,2,0,,,,,,,,,0,0,0,0,0,9,9,9,1,0,1,0,,,,,,,,,,,,,,,,,,,,,,,,,,,,,,,,,,,,,,,,,,,,,,,,,,,,,,,,,,,,,,,,30,,,,,,,,3961.0833904000465,3961.0833904000465,3961.0833904000465,3961.0833904000465,3961.0833904000465,right,0.3929194000083953,0,0,0,99,0.0,0.24,right,0.3068436000030488,,,,,,,,,,,,,,,,,,,,,,,,,,,,,,,,,,,,,,,,,,,,,,,,,,,,,,,,,,,,KZQ08V,train_x,red_square,top_left,2025-09-18_16h19.27.592,HideSeek_v1,2022.2.5,59.97580572934816,
,0,8,0,8,0,0,16,,train_dim1_1,10,30,,,,2,0,2,0,,,,,,,,,0,0,0,0,0,9,9,9,2,0,2,0,,,,,,,,,,,,,,,,,,,,,,,,,,,,,,,,,,,,,,,,,,,,,,,,,,,,,,,,,,,,,,,,30,,,,,,,,3961.485125399893,3961.485125399893,3961.485125399893,3961.485125399893,3961.485125399893,right,0.4264655001461506,0,0,0,99,0.08,0.24,right,0.33252070005983114,,,,,,,,,,,,,,,,,,,,,,,,,,,,,,,,,,,,,,,,,,,,,,,,,,,,,,,,,,,,KZQ08V,train_x,red_square,top_left,2025-09-18_16h19.27.592,HideSeek_v1,2022.2.5,59.97580572934816,
,0,8,0,8,0,0,16,,train_dim1_1,10,30,,,,2,0,2,0,,,,,,,,,0,0,0,0,0,9,9,9,3,0,3,0,,,,,,,,,,,,,,,,,,,,,,,,,,,,,,,,,,,,,,,,,,,,,,,,,,,,,,,,,,,,,,,,30,,,,,,,,3961.9168849000707,3961.9168849000707,3961.9168849000707,3961.9168849000707,3961.9168849000707,return,2.3785526999272406,0,0,0,0,0.08,0.24,return,2.29774389998056,-8,21,0.08,0.24,,,,,,,,,,,,,,,,,,,,,,,,,,,,,,,,,,,,,,,,,,,,,,,,,,,,,,,,KZQ08V,train_x,red_square,top_left,2025-09-18_16h19.27.592,HideSeek_v1,2022.2.5,59.97580572934816,
,2,7,5,7,3,0,46,,train_dim1_1,11,30,,,,2,0,2,0,,,,,,,,,0,0,0,0,0,10,10,10,0,0,0,0,,,,,,,,,,,,,,,,,,,,,,,,,stimuli/alien_stimuli/46.png,,,,,,,,,,,,,,,,,,,,,,,,,,,,,stimuli/alien_stimuli/16.png,16,0,12,,,,,,,30,,,,,,,,3970.867665299913,3970.867665299913,3970.867665299913,3970.867665299913,3970.867665299913,right,1.970101600047201,0,0,0,99,0.08,0.16,right,1.8842220001388341,,,,,3969.3059910999145,3970.867665299913,-0.16,0.24,0.0,0.0,0.24,-0.16,-0.16,-0.16,0.24,3965.8621995998546,3965.8621995998546,3965.8621995998546,3965.8621995998546,3965.8621995998546,3965.8621995998546,3965.8621995998546,3965.8621995998546,3965.8524719398238,3.554873300017789,return,3.411914700176567,,,,,,,,,,,,,,,,,,,,,,,,,,,,,,,,,KZQ08V,train_x,red_square,top_left,2025-09-18_16h19.27.592,HideSeek_v1,2022.2.5,59.97580572934816,
,2,7,5,7,3,0,46,,train_dim1_1,11,30,,,,2,0,2,0,,,,,,,,,0,0,0,0,0,10,10,10,1,0,1,0,,,,,,,,,,,,,,,,,,,,,,,,,,,,,,,,,,,,,,,,,,,,,,,,,,,,,,,,,,,,,,,,30,,,,,,,,3972.841434299946,3972.841434299946,3972.841434299946,3972.841434299946,3972.841434299946,right,3.192718399921432,0,0,0,99,0.16,0.16,right,3.1150307001080364,,,,,,,,,,,,,,,,,,,,,,,,,,,,,,,,,,,,,,,,,,,,,,,,,,,,,,,,,,,,KZQ08V,train_x,red_square,top_left,2025-09-18_16h19.27.592,HideSeek_v1,2022.2.5,59.97580572934816,
,2,7,5,7,3,0,46,,train_dim1_1,11,30,,,,2,0,2,0,,,,,,,,,0,0,0,0,0,10,10,10,2,0,2,0,,,,,,,,,,,,,,,,,,,,,,,,,,,,,,,,,,,,,,,,,,,,,,,,,,,,,,,,,,,,,,,,30,,,,,,,,3976.0415594999213,3976.0415594999213,3976.0415594999213,3976.0415594999213,3976.0415594999213,right,1.0773032000288367,0,0,0,99,0.24,0.16,right,0.9975397000089288,,,,,,,,,,,,,,,,,,,,,,,,,,,,,,,,,,,,,,,,,,,,,,,,,,,,,,,,,,,,KZQ08V,train_x,red_square,top_left,2025-09-18_16h19.27.592,HideSeek_v1,2022.2.5,59.97580572934816,
,2,7,5,7,3,0,46,,train_dim1_1,11,30,,,,2,0,2,0,,,,,,,,,0,0,0,0,0,10,10,10,3,0,3,0,,,,,,,,,,,,,,,,,,,,,,,,,,,,,,,,,,,,,,,,,,,,,,,,,,,,,,,,,,,,,,,,30,,,,,,,,3977.1283611999825,3977.1283611999825,3977.1283611999825,3977.1283611999825,3977.1283611999825,right,6.312534000026062,0,0,0,99,0.32,0.16,right,6.233049400150776,,,,,,,,,,,,,,,,,,,,,,,,,,,,,,,,,,,,,,,,,,,,,,,,,,,,,,,,,,,,KZQ08V,train_x,red_square,top_left,2025-09-18_16h19.27.592,HideSeek_v1,2022.2.5,59.97580572934816,
,2,7,5,7,3,0,46,,train_dim1_1,11,30,,,,2,0,2,0,,,,,,,,,0,0,0,0,0,10,10,10,4,0,4,0,,,,,,,,,,,,,,,,,,,,,,,,,,,,,,,,,,,,,,,,,,,,,,,,,,,,,,,,,,,,,,,,30,,,,,,,,3983.4491888999473,3983.4491888999473,3983.4491888999473,3983.4491888999473,3983.4491888999473,right,4.829417400062084,0,0,0,99,0.4,0.16,right,4.745662600034848,,,,,,,,,,,,,,,,,,,,,,,,,,,,,,,,,,,,,,,,,,,,,,,,,,,,,,,,,,,,KZQ08V,train_x,red_square,top_left,2025-09-18_16h19.27.592,HideSeek_v1,2022.2.5,59.97580572934816,
,2,7,5,7,3,0,46,,train_dim1_1,11,30,,,,2,0,2,0,,,,,,,,,0,0,0,0,0,10,10,10,5,0,5,0,,,,,,,,,,,,,,,,,,,,,,,,,,,,,,,,,,,,,,,,,,,,,,,,,,,,,,,,,,,,,,,,30,,,,,,,,3988.2859084999654,3988.2859084999654,3988.2859084999654,3988.2859084999654,3988.2859084999654,return,3.6286134000401944,0,0,0,0,0.4,0.16,return,3.5432774000801146,-8,26,0.4,0.16,,,,,,,,,,,,,,,,,,,,,,,,,,,,,,,,,,,,,,,,,,,,,,,,,,,,,,,,KZQ08V,train_x,red_square,top_left,2025-09-18_16h19.27.592,HideSeek_v1,2022.2.5,59.97580572934816,
,0,5,1,5,1,0,26,,train_dim1_1,12,30,,,,2,0,2,0,,,,,,,,,0,0,0,0,0,11,11,11,0,0,0,0,,,,,,,,,,,,,,,,,,,,,,,,,stimuli/alien_stimuli/26.png,,,,,,,,,,,,,,,,,,,,,,,,,,,,,stimuli/alien_stimuli/46.png,46,2,13,,,,,,,30,,,,,,,,3998.874738899991,3998.874738899991,3998.874738899991,3998.874738899991,3998.874738899991,right,1.3405198999680579,0,0,0,99,-0.08,0,right,1.245375000173226,,,,,3997.3129554998595,3998.874738899991,0.24,0.16,0.0,0.24,0.16,0.24,0.12,0.24,0.16,3993.5085100000724,3993.5085100000724,3993.5085100000724,3993.5085100000724,3993.5085100000724,3993.5085100000724,3993.5085100000724,3993.5085100000724,3993.49191575991,3.9392164000310004,return,3.7841237999964505,,,,,,,,,,,,,,,,,,,,,,,,,,,,,,,,,KZQ08V,train_x,red_square,top_left,2025-09-18_16h19.27.592,HideSeek_v1,2022.2.5,59.97580572934816,
,0,5,1,5,1,0,26,,train_dim1_1,12,30,,,,2,0,2,0,,,,,,,,,0,0,0,0,0,11,11,11,1,0,1,0,,,,,,,,,,,,,,,,,,,,,,,,,,,,,,,,,,,,,,,,,,,,,,,,,,,,,,,,,,,,,,,,30,,,,,,,,4000.2166506000794,4000.2166506000794,4000.2166506000794,4000.2166506000794,4000.2166506000794,right,1.609366600168869,0,0,0,99,0.0,0,right,1.522378400200978,,,,,,,,,,,,,,,,,,,,,,,,,,,,,,,,,,,,,,,,,,,,,,,,,,,,,,,,,,,,KZQ08V,train_x,red_square,top_left,2025-09-18_16h19.27.592,HideSeek_v1,2022.2.5,59.97580572934816,
,0,5,1,5,1,0,26,,train_dim1_1,12,30,,,,2,0,2,0,,,,,,,,,0,0,0,0,0,11,11,11,2,0,2,0,,,,,,,,,,,,,,,,,,,,,,,,,,,,,,,,,,,,,,,,,,,,,,,,,,,,,,,,,,,,,,,,30,,,,,,,,4001.833057000069,4001.833057000069,4001.833057000069,4001.833057000069,4001.833057000069,right,1.1941470999736339,0,0,0,99,0.08,0,right,1.1142500001005828,,,,,,,,,,,,,,,,,,,,,,,,,,,,,,,,,,,,,,,,,,,,,,,,,,,,,,,,,,,,KZQ08V,train_x,red_square,top_left,2025-09-18_16h19.27.592,HideSeek_v1,2022.2.5,59.97580572934816,
,0,5,1,5,1,0,26,,train_dim1_1,12,30,,,,2,0,2,0,,,,,,,,,0,0,0,0,0,11,11,11,3,0,3,0,,,,,,,,,,,,,,,,,,,,,,,,,,,,,,,,,,,,,,,,,,,,,,,,,,,,,,,,,,,,,,,,30,,,,,,,,4003.0346420998685,4003.0346420998685,4003.0346420998685,4003.0346420998685,4003.0346420998685,right,0.8932612999342382,0,0,0,99,0.16,0,right,0.8125466001220047,,,,,,,,,,,,,,,,,,,,,,,,,,,,,,,,,,,,,,,,,,,,,,,,,,,,,,,,,,,,KZQ08V,train_x,red_square,top_left,2025-09-18_16h19.27.592,HideSeek_v1,2022.2.5,59.97580572934816,
,0,5,1,5,1,0,26,,train_dim1_1,12,30,,,,2,0,2,0,,,,,,,,,0,0,0,0,0,11,11,11,4,0,4,0,,,,,,,,,,,,,,,,,,,,,,,,,,,,,,,,,,,,,,,,,,,,,,,,,,,,,,,,,,,,,,,,30,,,,,,,,4003.9375795000233,4003.9375795000233,4003.9375795000233,4003.9375795000233,4003.9375795000233,return,4.5456004999578,0,0,0,0,0.16,0,return,4.452497500227764,-8,30,0.16,0,,,,,,,,,,,,,,,,,,,,,,,,,,,,,,,,,,,,,,,,,,,,,,,,,,,,,,,,KZQ08V,train_x,red_square,top_left,2025-09-18_16h19.27.592,HideSeek_v1,2022.2.5,59.97580572934816,
,0,9,4,9,4,0,45,,train_dim1_1,13,30,,,,2,0,2,0,,,,,,,,,0,0,0,0,0,12,12,12,0,0,0,0,,,,,,,,,,,,,,,,,,,,,,,,,stimuli/alien_stimuli/45.png,,,,,,,,,,,,,,,,,,,,,,,,,,,,,stimuli/alien_stimuli/26.png,26,0,14,,,,,,,30,,,,,,,,4014.3840510998853,4014.3840510998853,4014.3840510998853,4014.3840510998853,4014.3840510998853,right,16.50138309993781,0,0,0,99,-0.08,0.32,right,16.420440700137988,,,,,4012.825600299984,4014.3840510998853,-0.08,0,0.0,0.08,0.0,-0.08,-0.12,-0.08,0,4010.084167300025,4010.084167300025,4010.084167300025,4010.084167300025,4010.084167300025,4010.084167300025,4010.084167300025,4010.084167300025,4010.0720821798545,2.8877607001923025,return,2.716579500120133,,,,,,,,,,,,,,,,,,,,,,,,,,,,,,,,,KZQ08V,train_x,red_square,top_left,2025-09-18_16h19.27.592,HideSeek_v1,2022.2.5,59.97580572934816,
,0,9,4,9,4,0,45,,train_dim1_1,13,30,,,,2,0,2,0,,,,,,,,,0,0,0,0,0,12,12,12,1,0,1,0,,,,,,,,,,,,,,,,,,,,,,,,,,,,,,,,,,,,,,,,,,,,,,,,,,,,,,,,,,,,,,,,30,,,,,,,,4030.9068684999365,4030.9068684999365,4030.9068684999365,4030.9068684999365,4030.9068684999365,return,2.991656499914825,0,0,0,0,-0.08,0.32,return,2.892688700230792,-8,31,-0.08,0.32,,,,,,,,,,,,,,,,,,,,,,,,,,,,,,,,,,,,,,,,,,,,,,,,,,,,,,,,KZQ08V,train_x,red_square,top_left,2025-09-18_16h19.27.592,HideSeek_v1,2022.2.5,59.97580572934816,
,4,8,4,8,0,0,16,,train_dim1_1,14,30,,,,2,0,2,0,,,,,,,,,0,0,0,0,0,13,13,13,0,0,0,0,,,,,,,,,,,,,,,,,,,,,,,,,stimuli/alien_stimuli/16.png,,,,,,,,,,,,,,,,,,,,,,,,,,,,,stimuli/alien_stimuli/45.png,45,0,15,,,,,,,30,,,,,,,,4039.347313999897,4039.347313999897,4039.347313999897,4039.347313999897,4039.347313999897,return,4.007106699980795,1,0,0,1,0.16,0.24,return,3.9042567999567837,-8,31,0.16,0.24,4037.7629950998817,4039.347313999897,0.16,0.32,0.0,0.32,0.32,0.16,0.0,0.16,0.32,4035.452470399905,4035.452470399905,4035.452470399905,4035.452470399905,4035.452470399905,4035.452470399905,4035.452470399905,4035.452470399905,4035.4439810398735,2.4205161998979747,return,2.280389199964702,,,,,,,,,,,,,,,,,,,,,,,,,,,,,,,,,KZQ08V,train_x,red_square,top_left,2025-09-18_16h19.27.592,HideSeek_v1,2022.2.5,59.97580572934816,
,4,7,9,7,5,0,66,,train_dim1_1,15,30,,,,2,0,2,0,,,,,,,,,0,0,0,0,0,14,14,14,0,0,0,0,,,,,,,,,,,,,,,,,,,,,,,,,stimuli/alien_stimuli/66.png,,,,,,,,,,,,,,,,,,,,,,,,,,,,,stimuli/alien_stimuli/16.png,16,4,16,,,,,,,30,,,,,,,,4050.7520520999096,4050.7520520999096,4050.7520520999096,4050.7520520999096,4050.7520520999096,right,1.5862783000338823,1,0,0,99,0.24,0.16,right,1.4960728001315147,,,,,4049.1891169999726,4050.7520520999096,0.16,0.24,0.0,0.0,0.24,0.16,0.16,0.16,0.24,4044.9023263000418,4044.9023263000418,4044.9023263000418,4044.9023263000418,4044.9023263000418,4044.9023263000418,4044.9023263000418,4044.9023263000418,4044.8847471399467,4.405268399976194,return,4.261567400069907,,,,,,,,,,,,,,,,,,,,,,,,,,,,,,,,,KZQ08V,train_x,red_square,top_left,2025-09-18_16h19.27.592,HideSeek_v1,2022.2.5,59.97580572934816,
,4,7,9,7,5,0,66,,train_dim1_1,15,30,,,,2,0,2,0,,,,,,,,,0,0,0,0,0,14,14,14,1,0,1,0,,,,,,,,,,,,,,,,,,,,,,,,,,,,,,,,,,,,,,,,,,,,,,,,,,,,,,,,,,,,,,,,30,,,,,,,,4052.3383283999283,4052.3383283999283,4052.3383283999283,4052.3383283999283,4052.3383283999283,right,0.409367699874565,1,0,0,99,0.32,0.16,right,0.33317830017767847,,,,,,,,,,,,,,,,,,,,,,,,,,,,,,,,,,,,,,,,,,,,,,,,,,,,,,,,,,,,KZQ08V,train_x,red_square,top_left,2025-09-18_16h19.27.592,HideSeek_v1,2022.2.5,59.97580572934816,
,4,7,9,7,5,0,66,,train_dim1_1,15,30,,,,2,0,2,0,,,,,,,,,0,0,0,0,0,14,14,14,2,0,2,0,,,,,,,,,,,,,,,,,,,,,,,,,,,,,,,,,,,,,,,,,,,,,,,,,,,,,,,,,,,,,,,,30,,,,,,,,4052.756200300064,4052.756200300064,4052.756200300064,4052.756200300064,4052.756200300064,right,0.2761037000454962,1,0,0,99,0.4,0.16,right,0.19046090031042695,,,,,,,,,,,,,,,,,,,,,,,,,,,,,,,,,,,,,,,,,,,,,,,,,,,,,,,,,,,,KZQ08V,train_x,red_square,top_left,2025-09-18_16h19.27.592,HideSeek_v1,2022.2.5,59.97580572934816,
,4,7,9,7,5,0,66,,train_dim1_1,15,30,,,,2,0,2,0,,,,,,,,,0,0,0,0,0,14,14,14,3,0,3,0,,,,,,,,,,,,,,,,,,,,,,,,,,,,,,,,,,,,,,,,,,,,,,,,,,,,,,,,,,,,,,,,30,,,,,,,,4053.0391839998774,4053.0391839998774,4053.0391839998774,4053.0391839998774,4053.0391839998774,right,0.2928531998768449,1,0,0,99,0.48000000000000004,0.16,right,0.20962690003216267,,,,,,,,,,,,,,,,,,,,,,,,,,,,,,,,,,,,,,,,,,,,,,,,,,,,,,,,,,,,KZQ08V,train_x,red_square,top_left,2025-09-18_16h19.27.592,HideSeek_v1,2022.2.5,59.97580572934816,
,4,7,9,7,5,0,66,,train_dim1_1,15,30,,,,2,0,2,0,,,,,,,,,0,0,0,0,0,14,14,14,4,0,4,0,,,,,,,,,,,,,,,,,,,,,,,,,,,,,,,,,,,,,,,,,,,,,,,,,,,,,,,,,,,,,,,,30,,,,,,,,4053.338874100009,4053.338874100009,4053.338874100009,4053.338874100009,4053.338874100009,return,0.9438122999854386,1,1,0,0,0.48000000000000004,0.16,return,0.8661432999651879,-8,35,0.48000000000000004,0.16,,,,,,,,,,,,,,,,,,,,,,,,,,,,,,,,,,,,,,,,,,,,,,,,,,,,,,,,KZQ08V,train_x,red_square,top_left,2025-09-18_16h19.27.592,HideSeek_v1,2022.2.5,59.97580572934816,
,3,8,7,8,4,0,56,,train_dim1_1,16,30,,,,2,0,2,0,,,,,,,,,0,0,0,0,0,15,15,15,0,0,0,0,,,,,,,,,,,,,,,,,,,,,,,,,stimuli/alien_stimuli/56.png,,,,,,,,,,,,,,,,,,,,,,,,,,,,,stimuli/alien_stimuli/66.png,66,4,17,,,,,,,30,,,,,,,,4060.6781327000353,4060.6781327000353,4060.6781327000353,4060.6781327000353,4060.6781327000353,right,1.8367237001657486,1,1,0,99,0.16,0.24,right,1.746735200053081,,,,,4059.113948700018,4060.6781327000353,0.56,0.16,0.0,0.4,0.16,0.56,0.36000000000000004,0.56,0.16,4055.870780899888,4055.870780899888,4055.870780899888,4055.870780899888,4055.870780899888,4055.870780899888,4055.870780899888,4055.870780899888,4055.8602311600002,3.371314999880269,return,3.211831700289622,,,,,,,,,,,,,,,,,,,,,,,,,,,,,,,,,KZQ08V,train_x,red_square,top_left,2025-09-18_16h19.27.592,HideSeek_v1,2022.2.5,59.97580572934816,
,3,8,7,8,4,0,56,,train_dim1_1,16,30,,,,2,0,2,0,,,,,,,,,0,0,0,0,0,15,15,15,1,0,1,0,,,,,,,,,,,,,,,,,,,,,,,,,,,,,,,,,,,,,,,,,,,,,,,,,,,,,,,,,,,,,,,,30,,,,,,,,4062.5186075998936,4062.5186075998936,4062.5186075998936,4062.5186075998936,4062.5186075998936,right,0.35643659997731447,1,1,0,99,0.24,0.24,right,0.2663059001788497,,,,,,,,,,,,,,,,,,,,,,,,,,,,,,,,,,,,,,,,,,,,,,,,,,,,,,,,,,,,KZQ08V,train_x,red_square,top_left,2025-09-18_16h19.27.592,HideSeek_v1,2022.2.5,59.97580572934816,
,3,8,7,8,4,0,56,,train_dim1_1,16,30,,,,2,0,2,0,,,,,,,,,0,0,0,0,0,15,15,15,2,0,2,0,,,,,,,,,,,,,,,,,,,,,,,,,,,,,,,,,,,,,,,,,,,,,,,,,,,,,,,,,,,,,,,,30,,,,,,,,4062.8818822000176,4062.8818822000176,4062.8818822000176,4062.8818822000176,4062.8818822000176,right,0.3266016999259591,1,1,0,99,0.32,0.24,right,0.24839260010048747,,,,,,,,,,,,,,,,,,,,,,,,,,,,,,,,,,,,,,,,,,,,,,,,,,,,,,,,,,,,KZQ08V,train_x,red_square,top_left,2025-09-18_16h19.27.592,HideSeek_v1,2022.2.5,59.97580572934816,
,3,8,7,8,4,0,56,,train_dim1_1,16,30,,,,2,0,2,0,,,,,,,,,0,0,0,0,0,15,15,15,3,0,3,0,,,,,,,,,,,,,,,,,,,,,,,,,,,,,,,,,,,,,,,,,,,,,,,,,,,,,,,,,,,,,,,,30,,,,,,,,4063.216890800046,4063.216890800046,4063.216890800046,4063.216890800046,4063.216890800046,right,0.34313629986718297,1,1,0,99,0.4,0.24,right,0.26283190003596246,,,,,,,,,,,,,,,,,,,,,,,,,,,,,,,,,,,,,,,,,,,,,,,,,,,,,,,,,,,,KZQ08V,train_x,red_square,top_left,2025-09-18_16h19.27.592,HideSeek_v1,2022.2.5,59.97580572934816,
,3,8,7,8,4,0,56,,train_dim1_1,16,30,,,,2,0,2,0,,,,,,,,,0,0,0,0,0,15,15,15,4,0,4,0,,,,,,,,,,,,,,,,,,,,,,,,,,,,,,,,,,,,,,,,,,,,,,,,,,,,,,,,,,,,,,,,30,,,,,,,,4063.5667063000146,4063.5667063000146,4063.5667063000146,4063.5667063000146,4063.5667063000146,right,0.3437751999590546,1,1,0,99,0.48000000000000004,0.24,right,0.2634346999693662,,,,,,,,,,,,,,,,,,,,,,,,,,,,,,,,,,,,,,,,,,,,,,,,,,,,,,,,,,,,KZQ08V,train_x,red_square,top_left,2025-09-18_16h19.27.592,HideSeek_v1,2022.2.5,59.97580572934816,
,3,8,7,8,4,0,56,,train_dim1_1,16,30,,,,2,0,2,0,,,,,,,,,0,0,0,0,0,15,15,15,5,0,5,0,,,,,,,,,,,,,,,,,,,,,,,,,,,,,,,,,,,,,,,,,,,,,,,,,,,,,,,,,,,,,,,,30,,,,,,,,4063.920427999925,4063.920427999925,4063.920427999925,4063.920427999925,4063.920427999925,right,1.8090081999544054,1,1,0,99,0.56,0.24,right,1.7241000002250075,,,,,,,,,,,,,,,,,,,,,,,,,,,,,,,,,,,,,,,,,,,,,,,,,,,,,,,,,,,,KZQ08V,train_x,red_square,top_left,2025-09-18_16h19.27.592,HideSeek_v1,2022.2.5,59.97580572934816,
,3,8,7,8,4,0,56,,train_dim1_1,16,30,,,,2,0,2,0,,,,,,,,,0,0,0,0,0,15,15,15,6,0,6,0,,,,,,,,,,,,,,,,,,,,,,,,,,,,,,,,,,,,,,,,,,,,,,,,,,,,,,,,,,,,,,,,30,,,,,,,,4065.735929900082,4065.735929900082,4065.735929900082,4065.735929900082,4065.735929900082,return,1.493536800146103,1,0,0,0,0.56,0.24,return,1.4191614002920687,-8,41,0.56,0.24,,,,,,,,,,,,,,,,,,,,,,,,,,,,,,,,,,,,,,,,,,,,,,,,,,,,,,,,KZQ08V,train_x,red_square,top_left,2025-09-18_16h19.27.592,HideSeek_v1,2022.2.5,59.97580572934816,
,2,9,3,9,1,0,26,,train_dim1_1,17,30,,,,2,0,2,0,,,,,,,,,0,0,0,0,0,16,16,16,0,0,0,0,,,,,,,,,,,,,,,,,,,,,,,,,stimuli/alien_stimuli/26.png,,,,,,,,,,,,,,,,,,,,,,,,,,,,,stimuli/alien_stimuli/56.png,56,3,18,,,,,,,30,,,,,,,,4072.724565200042,4072.724565200042,4072.724565200042,4072.724565200042,4072.724565200042,right,3.3577328000683337,1,0,0,99,0.08,0.32,right,3.2398970001377165,,,,,4071.1405269999523,4072.724565200042,0.4,0.24,0.0,0.32,0.24,0.4,0.24000000000000002,0.4,0.24,4068.8147662000265,4068.8147662000265,4068.8147662000265,4068.8147662000265,4068.8147662000265,4068.8147662000265,4068.8147662000265,4068.8147662000265,4068.804601559928,2.4539485001005232,return,2.3010297000873834,,,,,,,,,,,,,,,,,,,,,,,,,,,,,,,,,KZQ08V,train_x,red_square,top_left,2025-09-18_16h19.27.592,HideSeek_v1,2022.2.5,59.97580572934816,
,2,9,3,9,1,0,26,,train_dim1_1,17,30,,,,2,0,2,0,,,,,,,,,0,0,0,0,0,16,16,16,1,0,1,0,,,,,,,,,,,,,,,,,,,,,,,,,,,,,,,,,,,,,,,,,,,,,,,,,,,,,,,,,,,,,,,,30,,,,,,,,4076.066286700079,4076.066286700079,4076.066286700079,4076.066286700079,4076.066286700079,return,1.65727059985511,2,0,0,1,0.08,0.32,return,1.5695822001434863,-8,42,0.08,0.32,,,,,,,,,,,,,,,,,,,,,,,,,,,,,,,,,,,,,,,,,,,,,,,,,,,,,,,,KZQ08V,train_x,red_square,top_left,2025-09-18_16h19.27.592,HideSeek_v1,2022.2.5,59.97580572934816,
,2,6,7,6,5,0,66,,train_dim1_1,18,30,,,,2,0,2,0,,,,,,,,,0,0,0,0,0,17,17,17,0,0,0,0,,,,,,,,,,,,,,,,,,,,,,,,,stimuli/alien_stimuli/66.png,,,,,,,,,,,,,,,,,,,,,,,,,,,,,stimuli/alien_stimuli/26.png,26,2,19,,,,,,,30,,,,,,,,4082.9719199999236,4082.9719199999236,4082.9719199999236,4082.9719199999236,4082.9719199999236,right,3.2207955999765545,2,0,0,99,0.08,0.08,right,3.124272200046107,,,,,4081.399304300081,4082.9719199999236,0.08,0.32,0.0,0.08,0.32,0.08,0.04,0.08,0.32,4079.303043700056,4079.303043700056,4079.303043700056,4079.303043700056,4079.303043700056,4079.303043700056,4079.303043700056,4079.303043700056,4079.2961338598284,2.2205087000038475,return,2.0730126001872122,,,,,,,,,,,,,,,,,,,,,,,,,,,,,,,,,KZQ08V,train_x,red_square,top_left,2025-09-18_16h19.27.592,HideSeek_v1,2022.2.5,59.97580572934816,
,2,6,7,6,5,0,66,,train_dim1_1,18,30,,,,2,0,2,0,,,,,,,,,0,0,0,0,0,17,17,17,1,0,1,0,,,,,,,,,,,,,,,,,,,,,,,,,,,,,,,,,,,,,,,,,,,,,,,,,,,,,,,,,,,,,,,,30,,,,,,,,4086.183252299903,4086.183252299903,4086.183252299903,4086.183252299903,4086.183252299903,right,0.5430467000696808,2,0,0,99,0.16,0.08,right,0.4698275001719594,,,,,,,,,,,,,,,,,,,,,,,,,,,,,,,,,,,,,,,,,,,,,,,,,,,,,,,,,,,,KZQ08V,train_x,red_square,top_left,2025-09-18_16h19.27.592,HideSeek_v1,2022.2.5,59.97580572934816,
,2,6,7,6,5,0,66,,train_dim1_1,18,30,,,,2,0,2,0,,,,,,,,,0,0,0,0,0,17,17,17,2,0,2,0,,,,,,,,,,,,,,,,,,,,,,,,,,,,,,,,,,,,,,,,,,,,,,,,,,,,,,,,,,,,,,,,30,,,,,,,,4086.7327056999784,4086.7327056999784,4086.7327056999784,4086.7327056999784,4086.7327056999784,right,0.5601454998832196,2,0,0,99,0.24,0.08,right,0.47240970004349947,,,,,,,,,,,,,,,,,,,,,,,,,,,,,,,,,,,,,,,,,,,,,,,,,,,,,,,,,,,,KZQ08V,train_x,red_square,top_left,2025-09-18_16h19.27.592,HideSeek_v1,2022.2.5,59.97580572934816,
,2,6,7,6,5,0,66,,train_dim1_1,18,30,,,,2,0,2,0,,,,,,,,,0,0,0,0,0,17,17,17,3,0,3,0,,,,,,,,,,,,,,,,,,,,,,,,,,,,,,,,,,,,,,,,,,,,,,,,,,,,,,,,,,,,,,,,30,,,,,,,,4087.301088700071,4087.301088700071,4087.301088700071,4087.301088700071,4087.301088700071,right,0.49374229996465147,2,0,0,99,0.32,0.08,right,0.40441260021179914,,,,,,,,,,,,,,,,,,,,,,,,,,,,,,,,,,,,,,,,,,,,,,,,,,,,,,,,,,,,KZQ08V,train_x,red_square,top_left,2025-09-18_16h19.27.592,HideSeek_v1,2022.2.5,59.97580572934816,
,2,6,7,6,5,0,66,,train_dim1_1,18,30,,,,2,0,2,0,,,,,,,,,0,0,0,0,0,17,17,17,4,0,4,0,,,,,,,,,,,,,,,,,,,,,,,,,,,,,,,,,,,,,,,,,,,,,,,,,,,,,,,,,,,,,,,,30,,,,,,,,4087.801446999889,4087.801446999889,4087.801446999889,4087.801446999889,4087.801446999889,right,1.1933949999511242,2,0,0,99,0.4,0.08,right,1.1160373000893742,,,,,,,,,,,,,,,,,,,,,,,,,,,,,,,,,,,,,,,,,,,,,,,,,,,,,,,,,,,,KZQ08V,train_x,red_square,top_left,2025-09-18_16h19.27.592,HideSeek_v1,2022.2.5,59.97580572934816,
,2,6,7,6,5,0,66,,train_dim1_1,18,30,,,,2,0,2,0,,,,,,,,,0,0,0,0,0,17,17,17,5,0,5,0,,,,,,,,,,,,,,,,,,,,,,,,,,,,,,,,,,,,,,,,,,,,,,,,,,,,,,,,,,,,,,,,30,,,,,,,,4089.0029994000215,4089.0029994000215,4089.0029994000215,4089.0029994000215,4089.0029994000215,return,1.0261526999529451,3,0,0,1,0.4,0.08,return,0.950512700015679,-8,47,0.4,0.08,,,,,,,,,,,,,,,,,,,,,,,,,,,,,,,,,,,,,,,,,,,,,,,,,,,,,,,,KZQ08V,train_x,red_square,top_left,2025-09-18_16h19.27.592,HideSeek_v1,2022.2.5,59.97580572934816,
,0,8,3,8,3,0,46,,train_dim1_1,19,30,,,,2,0,2,0,,,,,,,,,0,0,0,0,0,18,18,18,0,0,0,0,,,,,,,,,,,,,,,,,,,,,,,,,stimuli/alien_stimuli/46.png,,,,,,,,,,,,,,,,,,,,,,,,,,,,,stimuli/alien_stimuli/66.png,66,2,20,,,,,,,30,,,,,,,,4094.722446099855,4094.722446099855,4094.722446099855,4094.722446099855,4094.722446099855,right,3.375331399962306,3,0,0,99,-0.08,0.24,right,3.2778606000356376,,,,,4093.1586996999104,4094.722446099855,0.4,0.08,0.0,0.4,0.08,0.4,0.2,0.4,0.08,4091.6195257999934,4091.6195257999934,4091.6195257999934,4091.6195257999934,4091.6195257999934,4091.6195257999934,4091.6195257999934,4091.6195257999934,4091.6065794600177,1.67001420003362,return,1.5157809001393616,,,,,,,,,,,,,,,,,,,,,,,,,,,,,,,,,KZQ08V,train_x,red_square,top_left,2025-09-18_16h19.27.592,HideSeek_v1,2022.2.5,59.97580572934816,
,0,8,3,8,3,0,46,,train_dim1_1,19,30,,,,2,0,2,0,,,,,,,,,0,0,0,0,0,18,18,18,1,0,1,0,,,,,,,,,,,,,,,,,,,,,,,,,,,,,,,,,,,,,,,,,,,,,,,,,,,,,,,,,,,,,,,,30,,,,,,,,4098.093345199944,4098.093345199944,4098.093345199944,4098.093345199944,4098.093345199944,right,0.35946989990770817,3,0,0,99,0.0,0.24,right,0.27150040003471076,,,,,,,,,,,,,,,,,,,,,,,,,,,,,,,,,,,,,,,,,,,,,,,,,,,,,,,,,,,,KZQ08V,train_x,red_square,top_left,2025-09-18_16h19.27.592,HideSeek_v1,2022.2.5,59.97580572934816,
,0,8,3,8,3,0,46,,train_dim1_1,19,30,,,,2,0,2,0,,,,,,,,,0,0,0,0,0,18,18,18,2,0,2,0,,,,,,,,,,,,,,,,,,,,,,,,,,,,,,,,,,,,,,,,,,,,,,,,,,,,,,,,,,,,,,,,30,,,,,,,,4098.459488699911,4098.459488699911,4098.459488699911,4098.459488699911,4098.459488699911,right,0.31001249980181456,3,0,0,99,0.08,0.24,right,0.22448020009323955,,,,,,,,,,,,,,,,,,,,,,,,,,,,,,,,,,,,,,,,,,,,,,,,,,,,,,,,,,,,KZQ08V,train_x,red_square,top_left,2025-09-18_16h19.27.592,HideSeek_v1,2022.2.5,59.97580572934816,
,0,8,3,8,3,0,46,,train_dim1_1,19,30,,,,2,0,2,0,,,,,,,,,0,0,0,0,0,18,18,18,3,0,3,0,,,,,,,,,,,,,,,,,,,,,,,,,,,,,,,,,,,,,,,,,,,,,,,,,,,,,,,,,,,,,,,,30,,,,,,,,4098.778010400012,4098.778010400012,4098.778010400012,4098.778010400012,4098.778010400012,down,2.1439227999653667,3,0,0,99,0.08,0.15999999999999998,down,2.063712100032717,,,,,,,,,,,,,,,,,,,,,,,,,,,,,,,,,,,,,,,,,,,,,,,,,,,,,,,,,,,,KZQ08V,train_x,red_square,top_left,2025-09-18_16h19.27.592,HideSeek_v1,2022.2.5,59.97580572934816,
,0,8,3,8,3,0,46,,train_dim1_1,19,30,,,,2,0,2,0,,,,,,,,,0,0,0,0,0,18,18,18,4,0,4,0,,,,,,,,,,,,,,,,,,,,,,,,,,,,,,,,,,,,,,,,,,,,,,,,,,,,,,,,,,,,,,,,30,,,,,,,,4100.928985700011,4100.928985700011,4100.928985700011,4100.928985700011,4100.928985700011,up,3.5461244999896735,3,0,0,99,0.08,0.24,up,3.4594553001224995,,,,,,,,,,,,,,,,,,,,,,,,,,,,,,,,,,,,,,,,,,,,,,,,,,,,,,,,,,,,KZQ08V,train_x,red_square,top_left,2025-09-18_16h19.27.592,HideSeek_v1,2022.2.5,59.97580572934816,
,0,8,3,8,3,0,46,,train_dim1_1,19,30,,,,2,0,2,0,,,,,,,,,0,0,0,0,0,18,18,18,5,0,5,0,,,,,,,,,,,,,,,,,,,,,,,,,,,,,,,,,,,,,,,,,,,,,,,,,,,,,,,,,,,,,,,,30,,,,,,,,4104.481305300025,4104.481305300025,4104.481305300025,4104.481305300025,4104.481305300025,return,4.829928900115192,4,0,0,1,0.08,0.24,return,4.758464900078252,-8,50,0.08,0.24,,,,,,,,,,,,,,,,,,,,,,,,,,,,,,,,,,,,,,,,,,,,,,,,,,,,,,,,KZQ08V,train_x,red_square,top_left,2025-09-18_16h19.27.592,HideSeek_v1,2022.2.5,59.97580572934816,
,0,6,0,6,0,0,16,,train_dim1_1,20,30,,,,2,0,2,0,,,,,,,,,0,0,0,0,0,19,19,19,0,0,0,0,,,,,,,,,,,,,,,,,,,,,,,,,stimuli/alien_stimuli/16.png,,,,,,,,,,,,,,,,,,,,,,,,,,,,,stimuli/alien_stimuli/46.png,46,0,21,,,,,,,30,,,,,,,,4113.973072299967,4113.973072299967,4113.973072299967,4113.973072299967,4113.973072299967,return,2.234874200075865,5,0,0,1,-0.16,0.08,return,2.1261967001482844,-8,50,-0.16,0.08,4112.391537599964,4113.973072299967,0.08,0.24,0.0,0.24,0.24,0.08,-0.04,0.08,0.24,4110.895051700063,4110.895051700063,4110.895051700063,4110.895051700063,4110.895051700063,4110.895051700063,4110.895051700063,4110.895051700063,4110.872801340021,1.619611999951303,return,1.467876800103113,,,,,,,,,,,,,,,,,,,,,,,,,,,,,,,,,KZQ08V,train_x,red_square,top_left,2025-09-18_16h19.27.592,HideSeek_v1,2022.2.5,59.97580572934816,
,4,7,7,7,3,0,46,,train_dim1_1,21,30,,,,2,0,2,0,,,,,,,,,0,0,0,0,0,20,20,20,0,0,0,0,,,,,,,,,,,,,,,,,,,,,,,,,stimuli/alien_stimuli/46.png,,,,,,,,,,,,,,,,,,,,,,,,,,,,,stimuli/alien_stimuli/16.png,16,0,22,,,,,,,30,,,,,,,,4120.638157600071,4120.638157600071,4120.638157600071,4120.638157600071,4120.638157600071,right,1.45579839986749,5,0,0,99,0.24,0.16,right,1.36951640015468,,,,,4119.0804244000465,4120.638157600071,-0.16,0.08,0.0,0.0,0.08,-0.16,-0.16,-0.16,0.08,4117.7549326000735,4117.7549326000735,4117.7549326000735,4117.7549326000735,4117.7549326000735,4117.7549326000735,4117.7549326000735,4117.7549326000735,4117.745005040033,1.4370341999456286,return,1.3042640001513064,,,,,,,,,,,,,,,,,,,,,,,,,,,,,,,,,KZQ08V,train_x,red_square,top_left,2025-09-18_16h19.27.592,HideSeek_v1,2022.2.5,59.97580572934816,
,4,7,7,7,3,0,46,,train_dim1_1,21,30,,,,2,0,2,0,,,,,,,,,0,0,0,0,0,20,20,20,1,0,1,0,,,,,,,,,,,,,,,,,,,,,,,,,,,,,,,,,,,,,,,,,,,,,,,,,,,,,,,,,,,,,,,,30,,,,,,,,4122.101291599916,4122.101291599916,4122.101291599916,4122.101291599916,4122.101291599916,right,0.7212628999259323,5,0,0,99,0.32,0.16,right,0.6335443002171814,,,,,,,,,,,,,,,,,,,,,,,,,,,,,,,,,,,,,,,,,,,,,,,,,,,,,,,,,,,,KZQ08V,train_x,red_square,top_left,2025-09-18_16h19.27.592,HideSeek_v1,2022.2.5,59.97580572934816,
,4,7,7,7,3,0,46,,train_dim1_1,21,30,,,,2,0,2,0,,,,,,,,,0,0,0,0,0,20,20,20,2,0,2,0,,,,,,,,,,,,,,,,,,,,,,,,,,,,,,,,,,,,,,,,,,,,,,,,,,,,,,,,,,,,,,,,30,,,,,,,,4122.8303958000615,4122.8303958000615,4122.8303958000615,4122.8303958000615,4122.8303958000615,right,1.1769435999449342,5,0,0,99,0.4,0.16,right,1.090967200230807,,,,,,,,,,,,,,,,,,,,,,,,,,,,,,,,,,,,,,,,,,,,,,,,,,,,,,,,,,,,KZQ08V,train_x,red_square,top_left,2025-09-18_16h19.27.592,HideSeek_v1,2022.2.5,59.97580572934816,
,4,7,7,7,3,0,46,,train_dim1_1,21,30,,,,2,0,2,0,,,,,,,,,0,0,0,0,0,20,20,20,3,0,3,0,,,,,,,,,,,,,,,,,,,,,,,,,,,,,,,,,,,,,,,,,,,,,,,,,,,,,,,,,,,,,,,,30,,,,,,,,4124.01430099993,4124.01430099993,4124.01430099993,4124.01430099993,4124.01430099993,return,0.6097407001070678,6,0,0,1,0.4,0.16,return,0.5241932002827525,-8,53,0.4,0.16,,,,,,,,,,,,,,,,,,,,,,,,,,,,,,,,,,,,,,,,,,,,,,,,,,,,,,,,KZQ08V,train_x,red_square,top_left,2025-09-18_16h19.27.592,HideSeek_v1,2022.2.5,59.97580572934816,
,1,5,2,5,1,0,26,,train_dim1_1,22,30,,,,2,0,2,0,,,,,,,,,0,0,0,0,0,21,21,21,0,0,0,0,,,,,,,,,,,,,,,,,,,,,,,,,stimuli/alien_stimuli/26.png,,,,,,,,,,,,,,,,,,,,,,,,,,,,,stimuli/alien_stimuli/46.png,46,4,23,,,,,,,30,,,,,,,,4129.255935200024,4129.255935200024,4129.255935200024,4129.255935200024,4129.255935200024,return,1.4031877999659628,6,1,0,0,-0.08,0,return,1.2878976000938565,-8,53,-0.08,0,4127.670615599956,4129.255935200024,0.4,0.16,0.0,0.24,0.16,0.4,0.28,0.4,0.16,4126.191633000039,4126.191633000039,4126.191633000039,4126.191633000039,4126.191633000039,4126.191633000039,4126.191633000039,4126.191633000039,4126.16879891986,1.5870415999088436,return,1.46090880013071,,,,,,,,,,,,,,,,,,,,,,,,,,,,,,,,,KZQ08V,train_x,red_square,top_left,2025-09-18_16h19.27.592,HideSeek_v1,2022.2.5,59.97580572934816,
,2,6,7,6,5,0,66,,train_dim1_1,23,30,,,,2,0,2,0,,,,,,,,,0,0,0,0,0,22,22,22,0,0,0,0,,,,,,,,,,,,,,,,,,,,,,,,,stimuli/alien_stimuli/66.png,,,,,,,,,,,,,,,,,,,,,,,,,,,,,stimuli/alien_stimuli/26.png,26,1,24,,,,,,,30,,,,,,,,4136.653725899989,4136.653725899989,4136.653725899989,4136.653725899989,4136.653725899989,right,1.9550026000943035,6,1,0,99,0.08,0.08,right,1.8660442002583295,,,,,4135.093399500009,4136.653725899989,0,0,0.0,0.08,0.0,0,-0.04,0,0,4132.200740400003,4132.200740400003,4132.200740400003,4132.200740400003,4132.200740400003,4132.200740400003,4132.200740400003,4132.200740400003,4132.190402939985,3.004440799821168,return,2.86776480008848,,,,,,,,,,,,,,,,,,,,,,,,,,,,,,,,,KZQ08V,train_x,red_square,top_left,2025-09-18_16h19.27.592,HideSeek_v1,2022.2.5,59.97580572934816,
,2,6,7,6,5,0,66,,train_dim1_1,23,30,,,,2,0,2,0,,,,,,,,,0,0,0,0,0,22,22,22,1,0,1,0,,,,,,,,,,,,,,,,,,,,,,,,,,,,,,,,,,,,,,,,,,,,,,,,,,,,,,,,,,,,,,,,30,,,,,,,,4138.609978300054,4138.609978300054,4138.609978300054,4138.609978300054,4138.609978300054,right,0.1926597999408841,6,1,0,99,0.16,0.08,right,0.11877229996025562,,,,,,,,,,,,,,,,,,,,,,,,,,,,,,,,,,,,,,,,,,,,,,,,,,,,,,,,,,,,KZQ08V,train_x,red_square,top_left,2025-09-18_16h19.27.592,HideSeek_v1,2022.2.5,59.97580572934816,
,2,6,7,6,5,0,66,,train_dim1_1,23,30,,,,2,0,2,0,,,,,,,,,0,0,0,0,0,22,22,22,2,0,2,0,,,,,,,,,,,,,,,,,,,,,,,,,,,,,,,,,,,,,,,,,,,,,,,,,,,,,,,,,,,,,,,,30,,,,,,,,4138.810011999914,4138.810011999914,4138.810011999914,4138.810011999914,4138.810011999914,right,0.5434448998421431,6,1,0,99,0.24,0.08,right,0.4561065000016242,,,,,,,,,,,,,,,,,,,,,,,,,,,,,,,,,,,,,,,,,,,,,,,,,,,,,,,,,,,,KZQ08V,train_x,red_square,top_left,2025-09-18_16h19.27.592,HideSeek_v1,2022.2.5,59.97580572934816,
,2,6,7,6,5,0,66,,train_dim1_1,23,30,,,,2,0,2,0,,,,,,,,,0,0,0,0,0,22,22,22,3,0,3,0,,,,,,,,,,,,,,,,,,,,,,,,,,,,,,,,,,,,,,,,,,,,,,,,,,,,,,,,,,,,,,,,30,,,,,,,,4139.3623903999105,4139.3623903999105,4139.3623903999105,4139.3623903999105,4139.3623903999105,right,0.507386100012809,6,1,0,99,0.32,0.08,right,0.42332400009036064,,,,,,,,,,,,,,,,,,,,,,,,,,,,,,,,,,,,,,,,,,,,,,,,,,,,,,,,,,,,KZQ08V,train_x,red_square,top_left,2025-09-18_16h19.27.592,HideSeek_v1,2022.2.5,59.97580572934816,
,2,6,7,6,5,0,66,,train_dim1_1,23,30,,,,2,0,2,0,,,,,,,,,0,0,0,0,0,22,22,22,4,0,4,0,,,,,,,,,,,,,,,,,,,,,,,,,,,,,,,,,,,,,,,,,,,,,,,,,,,,,,,,,,,,,,,,30,,,,,,,,4139.879675499862,4139.879675499862,4139.879675499862,4139.879675499862,4139.879675499862,right,0.9074882999993861,6,1,0,99,0.4,0.08,right,0.8304826002568007,,,,,,,,,,,,,,,,,,,,,,,,,,,,,,,,,,,,,,,,,,,,,,,,,,,,,,,,,,,,KZQ08V,train_x,red_square,top_left,2025-09-18_16h19.27.592,HideSeek_v1,2022.2.5,59.97580572934816,
,2,6,7,6,5,0,66,,train_dim1_1,23,30,,,,2,0,2,0,,,,,,,,,0,0,0,0,0,22,22,22,5,0,5,0,,,,,,,,,,,,,,,,,,,,,,,,,,,,,,,,,,,,,,,,,,,,,,,,,,,,,,,,,,,,,,,,30,,,,,,,,4140.795271999901,4140.795271999901,4140.795271999901,4140.795271999901,4140.795271999901,right,0.19275739998556674,6,1,0,99,0.48000000000000004,0.08,right,0.10670740017667413,,,,,,,,,,,,,,,,,,,,,,,,,,,,,,,,,,,,,,,,,,,,,,,,,,,,,,,,,,,,KZQ08V,train_x,red_square,top_left,2025-09-18_16h19.27.592,HideSeek_v1,2022.2.5,59.97580572934816,
,2,6,7,6,5,0,66,,train_dim1_1,23,30,,,,2,0,2,0,,,,,,,,,0,0,0,0,0,22,22,22,6,0,6,0,,,,,,,,,,,,,,,,,,,,,,,,,,,,,,,,,,,,,,,,,,,,,,,,,,,,,,,,,,,,,,,,30,,,,,,,,4140.994533000048,4140.994533000048,4140.994533000048,4140.994533000048,4140.994533000048,left,1.227299999911338,6,1,0,99,0.4,0.08,left,1.150888100033626,,,,,,,,,,,,,,,,,,,,,,,,,,,,,,,,,,,,,,,,,,,,,,,,,,,,,,,,,,,,KZQ08V,train_x,red_square,top_left,2025-09-18_16h19.27.592,HideSeek_v1,2022.2.5,59.97580572934816,
,2,6,7,6,5,0,66,,train_dim1_1,23,30,,,,2,0,2,0,,,,,,,,,0,0,0,0,0,22,22,22,7,0,7,0,,,,,,,,,,,,,,,,,,,,,,,,,,,,,,,,,,,,,,,,,,,,,,,,,,,,,,,,,,,,,,,,30,,,,,,,,4142.228937299922,4142.228937299922,4142.228937299922,4142.228937299922,4142.228937299922,return,0.8604657000396401,7,0,0,1,0.4,0.08,return,0.7831197001505643,-8,58,0.4,0.08,,,,,,,,,,,,,,,,,,,,,,,,,,,,,,,,,,,,,,,,,,,,,,,,,,,,,,,,KZQ08V,train_x,red_square,top_left,2025-09-18_16h19.27.592,HideSeek_v1,2022.2.5,59.97580572934816,
,4,9,8,9,4,0,56,,train_dim1_1,24,30,,,,2,0,2,0,,,,,,,,,0,0,0,0,0,23,23,23,0,0,0,0,,,,,,,,,,,,,,,,,,,,,,,,,stimuli/alien_stimuli/56.png,,,,,,,,,,,,,,,,,,,,,,,,,,,,,stimuli/alien_stimuli/66.png,66,2,25,,,,,,,30,,,,,,,,4147.5062245999,4147.5062245999,4147.5062245999,4147.5062245999,4147.5062245999,right,3.271681100130081,7,0,0,99,0.24,0.32,right,3.1785943002905697,,,,,4145.935974400025,4147.5062245999,0.4,0.08,0.0,0.4,0.08,0.4,0.2,0.4,0.08,4144.670367100043,4144.670367100043,4144.670367100043,4144.670367100043,4144.670367100043,4144.670367100043,4144.670367100043,4144.670367100043,4144.650766339921,1.3865563999861479,return,1.235637600068003,,,,,,,,,,,,,,,,,,,,,,,,,,,,,,,,,KZQ08V,train_x,red_square,top_left,2025-09-18_16h19.27.592,HideSeek_v1,2022.2.5,59.97580572934816,
,4,9,8,9,4,0,56,,train_dim1_1,24,30,,,,2,0,2,0,,,,,,,,,0,0,0,0,0,23,23,23,1,0,1,0,,,,,,,,,,,,,,,,,,,,,,,,,,,,,,,,,,,,,,,,,,,,,,,,,,,,,,,,,,,,,,,,30,,,,,,,,4150.772624999983,4150.772624999983,4150.772624999983,4150.772624999983,4150.772624999983,right,0.5094741999637336,7,0,0,99,0.32,0.32,right,0.4336075000464916,,,,,,,,,,,,,,,,,,,,,,,,,,,,,,,,,,,,,,,,,,,,,,,,,,,,,,,,,,,,KZQ08V,train_x,red_square,top_left,2025-09-18_16h19.27.592,HideSeek_v1,2022.2.5,59.97580572934816,
,4,9,8,9,4,0,56,,train_dim1_1,24,30,,,,2,0,2,0,,,,,,,,,0,0,0,0,0,23,23,23,2,0,2,0,,,,,,,,,,,,,,,,,,,,,,,,,,,,,,,,,,,,,,,,,,,,,,,,,,,,,,,,,,,,,,,,30,,,,,,,,4151.293231799966,4151.293231799966,4151.293231799966,4151.293231799966,4151.293231799966,right,0.5393839001189917,7,0,0,99,0.4,0.32,right,0.45405509998090565,,,,,,,,,,,,,,,,,,,,,,,,,,,,,,,,,,,,,,,,,,,,,,,,,,,,,,,,,,,,KZQ08V,train_x,red_square,top_left,2025-09-18_16h19.27.592,HideSeek_v1,2022.2.5,59.97580572934816,
,4,9,8,9,4,0,56,,train_dim1_1,24,30,,,,2,0,2,0,,,,,,,,,0,0,0,0,0,23,23,23,3,0,3,0,,,,,,,,,,,,,,,,,,,,,,,,,,,,,,,,,,,,,,,,,,,,,,,,,,,,,,,,,,,,,,,,30,,,,,,,,4151.840230099857,4151.840230099857,4151.840230099857,4151.840230099857,4151.840230099857,right,0.5594017000403255,7,0,0,99,0.48000000000000004,0.32,right,0.4770714999176562,,,,,,,,,,,,,,,,,,,,,,,,,,,,,,,,,,,,,,,,,,,,,,,,,,,,,,,,,,,,KZQ08V,train_x,red_square,top_left,2025-09-18_16h19.27.592,HideSeek_v1,2022.2.5,59.97580572934816,
,4,9,8,9,4,0,56,,train_dim1_1,24,30,,,,2,0,2,0,,,,,,,,,0,0,0,0,0,23,23,23,4,0,4,0,,,,,,,,,,,,,,,,,,,,,,,,,,,,,,,,,,,,,,,,,,,,,,,,,,,,,,,,,,,,,,,,30,,,,,,,,4152.406362399925,4152.406362399925,4152.406362399925,4152.406362399925,4152.406362399925,right,1.6611826999578625,7,0,0,99,0.56,0.32,right,1.5812772002536803,,,,,,,,,,,,,,,,,,,,,,,,,,,,,,,,,,,,,,,,,,,,,,,,,,,,,,,,,,,,KZQ08V,train_x,red_square,top_left,2025-09-18_16h19.27.592,HideSeek_v1,2022.2.5,59.97580572934816,
,4,9,8,9,4,0,56,,train_dim1_1,24,30,,,,2,0,2,0,,,,,,,,,0,0,0,0,0,23,23,23,5,0,5,0,,,,,,,,,,,,,,,,,,,,,,,,,,,,,,,,,,,,,,,,,,,,,,,,,,,,,,,,,,,,,,,,30,,,,,,,,4154.074043199886,4154.074043199886,4154.074043199886,4154.074043199886,4154.074043199886,return,0.776940300129354,7,1,0,0,0.56,0.32,return,0.6988579002209008,-8,63,0.56,0.32,,,,,,,,,,,,,,,,,,,,,,,,,,,,,,,,,,,,,,,,,,,,,,,,,,,,,,,,KZQ08V,train_x,red_square,top_left,2025-09-18_16h19.27.592,HideSeek_v1,2022.2.5,59.97580572934816,
,3,5,3,5,0,0,16,,train_dim1_1,25,30,,,,2,0,2,0,,,,,,,,,0,0,0,0,0,24,24,24,0,0,0,0,,,,,,,,,,,,,,,,,,,,,,,,,stimuli/alien_stimuli/16.png,,,,,,,,,,,,,,,,,,,,,,,,,,,,,stimuli/alien_stimuli/56.png,56,4,26,,,,,,,30,,,,,,,,4162.51708219992,4162.51708219992,4162.51708219992,4162.51708219992,4162.51708219992,return,1.4511112000327557,8,0,0,1,0.08,0,return,1.3605148002970964,-8,63,0.08,0,4160.948282399913,4162.51708219992,0.48,0.32,0.0,0.32,0.32,0.48,0.32,0.48,0.32,4156.429964399897,4156.429964399897,4156.429964399897,4156.429964399897,4156.429964399897,4156.429964399897,4156.429964399897,4156.429964399897,4156.4104642398415,4.639314099913463,return,4.488496100064367,,,,,,,,,,,,,,,,,,,,,,,,,,,,,,,,,KZQ08V,train_x,red_square,top_left,2025-09-18_16h19.27.592,HideSeek_v1,2022.2.5,59.97580572934816,
,1,6,6,6,5,0,66,,train_dim1_1,26,30,,,,2,0,2,0,,,,,,,,,0,0,0,0,0,25,25,25,0,0,0,0,,,,,,,,,,,,,,,,,,,,,,,,,stimuli/alien_stimuli/66.png,,,,,,,,,,,,,,,,,,,,,,,,,,,,,stimuli/alien_stimuli/16.png,16,3,27,,,,,,,30,,,,,,,,4168.39565020008,4168.39565020008,4168.39565020008,4168.39565020008,4168.39565020008,right,1.8220546999946237,8,0,0,99,0.0,0.08,right,1.7170197002124041,,,,,4166.819944999879,4168.39565020008,0.08,0,0.0,0.0,0.0,0.08,0.08,0.08,0,4165.542499599978,4165.542499599978,4165.542499599978,4165.542499599978,4165.542499599978,4165.542499599978,4165.542499599978,4165.542499599978,4165.534461259888,1.4037092998623848,return,1.251765000168234,,,,,,,,,,,,,,,,,,,,,,,,,,,,,,,,,KZQ08V,train_x,red_square,top_left,2025-09-18_16h19.27.592,HideSeek_v1,2022.2.5,59.97580572934816,
,1,6,6,6,5,0,66,,train_dim1_1,26,30,,,,2,0,2,0,,,,,,,,,0,0,0,0,0,25,25,25,1,0,1,0,,,,,,,,,,,,,,,,,,,,,,,,,,,,,,,,,,,,,,,,,,,,,,,,,,,,,,,,,,,,,,,,30,,,,,,,,4170.202765099937,4170.202765099937,4170.202765099937,4170.202765099937,4170.202765099937,right,0.45961589994840324,8,0,0,99,0.08,0.08,right,0.3825706001371145,,,,,,,,,,,,,,,,,,,,,,,,,,,,,,,,,,,,,,,,,,,,,,,,,,,,,,,,,,,,KZQ08V,train_x,red_square,top_left,2025-09-18_16h19.27.592,HideSeek_v1,2022.2.5,59.97580572934816,
,1,6,6,6,5,0,66,,train_dim1_1,26,30,,,,2,0,2,0,,,,,,,,,0,0,0,0,0,25,25,25,2,0,2,0,,,,,,,,,,,,,,,,,,,,,,,,,,,,,,,,,,,,,,,,,,,,,,,,,,,,,,,,,,,,,,,,30,,,,,,,,4170.669626999879,4170.669626999879,4170.669626999879,4170.669626999879,4170.669626999879,right,0.493520800024271,8,0,0,99,0.16,0.08,right,0.41856730030849576,,,,,,,,,,,,,,,,,,,,,,,,,,,,,,,,,,,,,,,,,,,,,,,,,,,,,,,,,,,,KZQ08V,train_x,red_square,top_left,2025-09-18_16h19.27.592,HideSeek_v1,2022.2.5,59.97580572934816,
,1,6,6,6,5,0,66,,train_dim1_1,26,30,,,,2,0,2,0,,,,,,,,,0,0,0,0,0,25,25,25,3,0,3,0,,,,,,,,,,,,,,,,,,,,,,,,,,,,,,,,,,,,,,,,,,,,,,,,,,,,,,,,,,,,,,,,30,,,,,,,,4171.171408500057,4171.171408500057,4171.171408500057,4171.171408500057,4171.171408500057,right,0.5261651000473648,8,0,0,99,0.24,0.08,right,0.4474283999297768,,,,,,,,,,,,,,,,,,,,,,,,,,,,,,,,,,,,,,,,,,,,,,,,,,,,,,,,,,,,KZQ08V,train_x,red_square,top_left,2025-09-18_16h19.27.592,HideSeek_v1,2022.2.5,59.97580572934816,
,1,6,6,6,5,0,66,,train_dim1_1,26,30,,,,2,0,2,0,,,,,,,,,0,0,0,0,0,25,25,25,4,0,4,0,,,,,,,,,,,,,,,,,,,,,,,,,,,,,,,,,,,,,,,,,,,,,,,,,,,,,,,,,,,,,,,,30,,,,,,,,4171.704438899877,4171.704438899877,4171.704438899877,4171.704438899877,4171.704438899877,right,0.4762841002084315,8,0,0,99,0.32,0.08,right,0.39468510006554425,,,,,,,,,,,,,,,,,,,,,,,,,,,,,,,,,,,,,,,,,,,,,,,,,,,,,,,,,,,,KZQ08V,train_x,red_square,top_left,2025-09-18_16h19.27.592,HideSeek_v1,2022.2.5,59.97580572934816,
,1,6,6,6,5,0,66,,train_dim1_1,26,30,,,,2,0,2,0,,,,,,,,,0,0,0,0,0,25,25,25,5,0,5,0,,,,,,,,,,,,,,,,,,,,,,,,,,,,,,,,,,,,,,,,,,,,,,,,,,,,,,,,,,,,,,,,30,,,,,,,,4172.1878344998695,4172.1878344998695,4172.1878344998695,4172.1878344998695,4172.1878344998695,return,1.794875399908051,9,0,0,1,0.32,0.08,return,1.7225891000125557,-8,68,0.32,0.08,,,,,,,,,,,,,,,,,,,,,,,,,,,,,,,,,,,,,,,,,,,,,,,,,,,,,,,,KZQ08V,train_x,red_square,top_left,2025-09-18_16h19.27.592,HideSeek_v1,2022.2.5,59.97580572934816,
,0,6,3,6,3,0,46,,train_dim1_1,27,30,,,,2,0,2,0,,,,,,,,,0,0,0,0,0,26,26,26,0,0,0,0,,,,,,,,,,,,,,,,,,,,,,,,,stimuli/alien_stimuli/46.png,,,,,,,,,,,,,,,,,,,,,,,,,,,,,stimuli/alien_stimuli/66.png,66,1,28,,,,,,,30,,,,,,,,4178.19099500007,4178.19099500007,4178.19099500007,4178.19099500007,4178.19099500007,right,1.9521194999106228,9,0,0,99,-0.08,0.08,right,1.8447969001717865,,,,,4176.611368499929,4178.19099500007,0.32,0.08,0.0,0.4,0.08,0.32,0.12,0.32,0.08,4175.548816499999,4175.548816499999,4175.548816499999,4175.548816499999,4175.548816499999,4175.548816499999,4175.548816499999,4175.548816499999,4175.526500319922,1.16971950000152,return,1.0380144000519067,,,,,,,,,,,,,,,,,,,,,,,,,,,,,,,,,KZQ08V,train_x,red_square,top_left,2025-09-18_16h19.27.592,HideSeek_v1,2022.2.5,59.97580572934816,
,0,6,3,6,3,0,46,,train_dim1_1,27,30,,,,2,0,2,0,,,,,,,,,0,0,0,0,0,26,26,26,1,0,1,0,,,,,,,,,,,,,,,,,,,,,,,,,,,,,,,,,,,,,,,,,,,,,,,,,,,,,,,,,,,,,,,,30,,,,,,,,4180.129073800053,4180.129073800053,4180.129073800053,4180.129073800053,4180.129073800053,right,0.5084806000813842,9,0,0,99,0.0,0.08,right,0.42367570009082556,,,,,,,,,,,,,,,,,,,,,,,,,,,,,,,,,,,,,,,,,,,,,,,,,,,,,,,,,,,,KZQ08V,train_x,red_square,top_left,2025-09-18_16h19.27.592,HideSeek_v1,2022.2.5,59.97580572934816,
,0,6,3,6,3,0,46,,train_dim1_1,27,30,,,,2,0,2,0,,,,,,,,,0,0,0,0,0,26,26,26,2,0,2,0,,,,,,,,,,,,,,,,,,,,,,,,,,,,,,,,,,,,,,,,,,,,,,,,,,,,,,,,,,,,,,,,30,,,,,,,,4180.648262599949,4180.648262599949,4180.648262599949,4180.648262599949,4180.648262599949,right,0.5078239999711514,9,0,0,99,0.08,0.08,right,0.42120670014992356,,,,,,,,,,,,,,,,,,,,,,,,,,,,,,,,,,,,,,,,,,,,,,,,,,,,,,,,,,,,KZQ08V,train_x,red_square,top_left,2025-09-18_16h19.27.592,HideSeek_v1,2022.2.5,59.97580572934816,
,0,6,3,6,3,0,46,,train_dim1_1,27,30,,,,2,0,2,0,,,,,,,,,0,0,0,0,0,26,26,26,3,0,3,0,,,,,,,,,,,,,,,,,,,,,,,,,,,,,,,,,,,,,,,,,,,,,,,,,,,,,,,,,,,,,,,,30,,,,,,,,4181.161595100071,4181.161595100071,4181.161595100071,4181.161595100071,4181.161595100071,right,1.3772513999138027,9,0,0,99,0.16,0.08,right,1.3001016001217067,,,,,,,,,,,,,,,,,,,,,,,,,,,,,,,,,,,,,,,,,,,,,,,,,,,,,,,,,,,,KZQ08V,train_x,red_square,top_left,2025-09-18_16h19.27.592,HideSeek_v1,2022.2.5,59.97580572934816,
,0,6,3,6,3,0,46,,train_dim1_1,27,30,,,,2,0,2,0,,,,,,,,,0,0,0,0,0,26,26,26,4,0,4,0,,,,,,,,,,,,,,,,,,,,,,,,,,,,,,,,,,,,,,,,,,,,,,,,,,,,,,,,,,,,,,,,30,,,,,,,,4182.546080800006,4182.546080800006,4182.546080800006,4182.546080800006,4182.546080800006,return,1.2270327999722213,9,1,0,0,0.16,0.08,return,1.1536278000567108,-8,72,0.16,0.08,,,,,,,,,,,,,,,,,,,,,,,,,,,,,,,,,,,,,,,,,,,,,,,,,,,,,,,,KZQ08V,train_x,red_square,top_left,2025-09-18_16h19.27.592,HideSeek_v1,2022.2.5,59.97580572934816,
,3,6,4,6,1,0,26,,train_dim1_1,28,30,,,,2,0,2,0,,,,,,,,,0,0,0,0,0,27,27,27,0,0,0,0,,,,,,,,,,,,,,,,,,,,,,,,,stimuli/alien_stimuli/26.png,,,,,,,,,,,,,,,,,,,,,,,,,,,,,stimuli/alien_stimuli/46.png,46,0,29,,,,,,,30,,,,,,,,4188.582120399922,4188.582120399922,4188.582120399922,4188.582120399922,4188.582120399922,return,1.3368551000021398,9,1,0,0,0.08,0.08,return,1.2337196001317352,-8,72,0.08,0.08,4187.003439299995,4188.582120399922,0.08,0.08,0.0,0.24,0.08,0.08,-0.04,0.08,0.08,4185.339378699893,4185.339378699893,4185.339378699893,4185.339378699893,4185.339378699893,4185.339378699893,4185.339378699893,4185.339378699893,4185.3178874199275,1.770496599841863,return,1.646861500106752,,,,,,,,,,,,,,,,,,,,,,,,,,,,,,,,,KZQ08V,train_x,red_square,top_left,2025-09-18_16h19.27.592,HideSeek_v1,2022.2.5,59.97580572934816,
,4,5,8,5,4,0,56,,train_dim1_1,29,30,,,,2,0,2,0,,,,,,,,,0,0,0,0,0,28,28,28,0,0,0,0,,,,,,,,,,,,,,,,,,,,,,,,,stimuli/alien_stimuli/56.png,,,,,,,,,,,,,,,,,,,,,,,,,,,,,stimuli/alien_stimuli/26.png,26,3,30,,,,,,,30,,,,,,,,4194.604379900033,4194.604379900033,4194.604379900033,4194.604379900033,4194.604379900033,right,2.005025399848819,9,1,0,99,0.24,0,right,1.9080510002095252,,,,,4193.041854700074,4194.604379900033,0.16,0.08,0.0,0.08,0.08,0.16,0.12,0.16,0.08,4191.4676661998965,4191.4676661998965,4191.4676661998965,4191.4676661998965,4191.4676661998965,4191.4676661998965,4191.4676661998965,4191.4676661998965,4191.456119939987,1.6867029999848455,return,1.5446024001576006,,,,,,,,,,,,,,,,,,,,,,,,,,,,,,,,,KZQ08V,train_x,red_square,top_left,2025-09-18_16h19.27.592,HideSeek_v1,2022.2.5,59.97580572934816,
,4,5,8,5,4,0,56,,train_dim1_1,29,30,,,,2,0,2,0,,,,,,,,,0,0,0,0,0,28,28,28,1,0,1,0,,,,,,,,,,,,,,,,,,,,,,,,,,,,,,,,,,,,,,,,,,,,,,,,,,,,,,,,,,,,,,,,30,,,,,,,,4196.612872299971,4196.612872299971,4196.612872299971,4196.612872299971,4196.612872299971,right,0.47500310000032187,9,1,0,99,0.32,0,right,0.39263280015438795,,,,,,,,,,,,,,,,,,,,,,,,,,,,,,,,,,,,,,,,,,,,,,,,,,,,,,,,,,,,KZQ08V,train_x,red_square,top_left,2025-09-18_16h19.27.592,HideSeek_v1,2022.2.5,59.97580572934816,
,4,5,8,5,4,0,56,,train_dim1_1,29,30,,,,2,0,2,0,,,,,,,,,0,0,0,0,0,28,28,28,2,0,2,0,,,,,,,,,,,,,,,,,,,,,,,,,,,,,,,,,,,,,,,,,,,,,,,,,,,,,,,,,,,,,,,,30,,,,,,,,4197.0939142999705,4197.0939142999705,4197.0939142999705,4197.0939142999705,4197.0939142999705,right,0.5433739998843521,9,1,0,99,0.4,0,right,0.4649634000379592,,,,,,,,,,,,,,,,,,,,,,,,,,,,,,,,,,,,,,,,,,,,,,,,,,,,,,,,,,,,KZQ08V,train_x,red_square,top_left,2025-09-18_16h19.27.592,HideSeek_v1,2022.2.5,59.97580572934816,
,4,5,8,5,4,0,56,,train_dim1_1,29,30,,,,2,0,2,0,,,,,,,,,0,0,0,0,0,28,28,28,3,0,3,0,,,,,,,,,,,,,,,,,,,,,,,,,,,,,,,,,,,,,,,,,,,,,,,,,,,,,,,,,,,,,,,,30,,,,,,,,4197.644457400078,4197.644457400078,4197.644457400078,4197.644457400078,4197.644457400078,right,0.5261869998648763,9,1,0,99,0.48000000000000004,0,right,0.4447656001430005,,,,,,,,,,,,,,,,,,,,,,,,,,,,,,,,,,,,,,,,,,,,,,,,,,,,,,,,,,,,KZQ08V,train_x,red_square,top_left,2025-09-18_16h19.27.592,HideSeek_v1,2022.2.5,59.97580572934816,
,4,5,8,5,4,0,56,,train_dim1_1,29,30,,,,2,0,2,0,,,,,,,,,0,0,0,0,0,28,28,28,4,0,4,0,,,,,,,,,,,,,,,,,,,,,,,,,,,,,,,,,,,,,,,,,,,,,,,,,,,,,,,,,,,,,,,,30,,,,,,,,4198.1782941999845,4198.1782941999845,4198.1782941999845,4198.1782941999845,4198.1782941999845,right,0.6763237998820841,9,1,0,99,0.56,0,right,0.5924037001095712,,,,,,,,,,,,,,,,,,,,,,,,,,,,,,,,,,,,,,,,,,,,,,,,,,,,,,,,,,,,KZQ08V,train_x,red_square,top_left,2025-09-18_16h19.27.592,HideSeek_v1,2022.2.5,59.97580572934816,
,4,5,8,5,4,0,56,,train_dim1_1,29,30,,,,2,0,2,0,,,,,,,,,0,0,0,0,0,28,28,28,5,0,5,0,,,,,,,,,,,,,,,,,,,,,,,,,,,,,,,,,,,,,,,,,,,,,,,,,,,,,,,,,,,,,,,,30,,,,,,,,4198.862281499896,4198.862281499896,4198.862281499896,4198.862281499896,4198.862281499896,return,1.4108897999394685,9,1,0,0,0.56,0,return,1.3363924000877887,-8,77,0.56,0,,,,,,,,,,,,,,,,,,,,,,,,,,,,,,,,,,,,,,,,,,,,,,,,,,,,,,,,KZQ08V,train_x,red_square,top_left,2025-09-18_16h19.27.592,HideSeek_v1,2022.2.5,59.97580572934816,
,2,7,2,7,0,0,16,,train_dim1_1,30,30,,,,2,0,2,0,,,,,,,,,0,0,0,0,0,29,29,29,0,0,0,0,,,,,,,,,,,,,,,,,,,,,,,,,stimuli/alien_stimuli/16.png,,,,,,,,,,,,,,,,,,,,,,,,,,,,,stimuli/alien_stimuli/56.png,56,4,31,,,,,,,30,,,,,,,,4206.3554825000465,4206.3554825000465,4206.3554825000465,4206.3554825000465,4206.3554825000465,return,1.4160299999639392,10,0,0,1,0,0.16,return,1.316708399914205,-8,77,0,0.16,4204.784795699874,4206.3554825000465,0.48,0,0.0,0.32,0.0,0.48,0.32,0.48,0,4201.852142899996,4201.852142899996,4201.852142899996,4201.852142899996,4201.852142899996,4201.852142899996,4201.852142899996,4201.852142899996,4201.832260939827,3.0540416999720037,return,2.9111709999851882,,,,,,,,,,,,,,,,,,,,,,,,,,,,,,,,,KZQ08V,train_x,red_square,top_left,2025-09-18_16h19.27.592,HideSeek_v1,2022.2.5,59.97580572934816,
,,,,,,,,,,,30,,,,2,0,2,0,,,,,,,,,,,,,,,,,,,,,,,,,,,,,,,,,,,,,,,,,,,,,,,,,,,,,,,,,,,,,,,,,,,,,,,,,,stimuli/alien_stimuli/16.png,16,2,32,21,0.7,0.41666666666666674,1,1,1,30,0,conditions/schedules/train_x_first/red_square_00/top_left/inputTrain_2.1.xlsx,99,1,2,1,0,,,,,,,,,,,1,,,,,,,,,4210.606130299857,4212.153517700033,0,0.16,0.0,0.0,0.16,0,0.0,0,0.16,4209.3348055998795,4209.3348055998795,4209.3348055998795,4209.3348055998795,4209.3348055998795,4209.3348055998795,4209.3348055998795,4209.3348055998795,4209.321095740026,1.386677599977702,return,1.2500210001599044,0,0.9,0,1,10,,,,,,,,,,,,,,,,,,,,,,,,,,,,KZQ08V,train_x,red_square,top_left,2025-09-18_16h19.27.592,HideSeek_v1,2022.2.5,59.97580572934816,
,,,,,,,,,,,,,,,3,0,3,0,0,0,0,0,,,,,,,,,,,,,,,,,,,,,,,,,,,,,,,conditions/schedules/train_x_first/red_square_00/top_left/instructions/Slide17.png,conditions/schedules/train_x_first/red_square_00/top_left/instructions/Audio17.wav,4212.153517700033,4212.140544859855,17,"[3.4339628000743687, 17.328427500091493, 16.067368200048804, 18.855725599918514, 3.980078099993989, 4.2857122998684645, 4.997896499931812, 11.173470000037923, 5.216601500054821, 6.517211699858308, 9.871798299951479, 12.921777500072494, 16.86835220013745, 12.603899599984288, 30.57764589996077, 21.323192900046706, 47.040588800096884]","[3.4339775999542326, 0.014387300005182624, 0.056700600078329444, 0.01401190017350018, 0.03287069988436997, 0.04661819990724325, 0.08055429998785257, 0.03027520002797246, 0.09476149990223348, 0.047183699905872345, 0.03100590012036264, 12.921784500125796, 0.01389419985935092, 12.60390629991889, 0.013870700029656291, 21.32319979998283, 47.04059540014714]",0,,,,,,,,,,,,,,,,,,,,,,,,,,,,,,,,,,,,,,,,,,,,,,,,,,,,,,,,,,,,,,,,,,,,,,,,,,,,,,,,,,,,,,,,,,,,,,,,,,,,,,,,,,,,,,,,,,,,,,,,,,,,KZQ08V,train_x,red_square,top_left,2025-09-18_16h19.27.592,HideSeek_v1,2022.2.5,59.97580572934816,
,,,,,,,,,,,,,,,3,0,3,0,1,0,1,0,,,,,,,,,,,,,,,,,,,,,,,,,,,,,,,conditions/schedules/train_x_first/red_square_00/top_left/instructions/Slide18.png,conditions/schedules/train_x_first/red_square_00/top_left/instructions/Audio18.wav,4259.2605661000125,4259.262845399906,18,"[3.4339628000743687, 17.328427500091493, 16.067368200048804, 18.855725599918514, 3.980078099993989, 4.2857122998684645, 4.997896499931812, 11.173470000037923, 5.216601500054821, 6.517211699858308, 9.871798299951479, 12.921777500072494, 16.86835220013745, 12.603899599984288, 30.57764589996077, 21.323192900046706, 47.040588800096884, 6.005605400074273]","[3.4339775999542326, 0.014387300005182624, 0.056700600078329444, 0.01401190017350018, 0.03287069988436997, 0.04661819990724325, 0.08055429998785257, 0.03027520002797246, 0.09476149990223348, 0.047183699905872345, 0.03100590012036264, 12.921784500125796, 0.01389419985935092, 12.60390629991889, 0.013870700029656291, 21.32319979998283, 0.00021130009554326534, 6.005612399894744]",0,,,,,,,,,,,,,,,,,,,,,,,,,,,,,,,,,,,,,,,,,,,,,,,,,,,,,,,,,,,,,,,,,,,,,,,,,,,,,,,,,,,,,,,,,,,,,,,,,,,,,,,,,,,,,,,,,,,,,,,,,,,,KZQ08V,train_x,red_square,top_left,2025-09-18_16h19.27.592,HideSeek_v1,2022.2.5,59.97580572934816,
,,,,,,,,,,,,,,,3,0,3,0,2,0,2,0,,,,,,,,,,,,,,,,,,,,,,,,,,,,,,,conditions/schedules/train_x_first/red_square_00/top_left/instructions/Slide19.png,conditions/schedules/train_x_first/red_square_00/top_left/instructions/Audio19.wav,4265.304659300018,4265.301209360058,19,"[3.4339628000743687, 17.328427500091493, 16.067368200048804, 18.855725599918514, 3.980078099993989, 4.2857122998684645, 4.997896499931812, 11.173470000037923, 5.216601500054821, 6.517211699858308, 9.871798299951479, 12.921777500072494, 16.86835220013745, 12.603899599984288, 30.57764589996077, 21.323192900046706, 47.040588800096884, 6.005605400074273, 10.119295899989083]","[3.4339775999542326, 0.014387300005182624, 0.056700600078329444, 0.01401190017350018, 0.03287069988436997, 0.04661819990724325, 0.08055429998785257, 0.03027520002797246, 0.09476149990223348, 0.047183699905872345, 0.03100590012036264, 12.921784500125796, 0.01389419985935092, 12.60390629991889, 0.013870700029656291, 21.32319979998283, 0.00021130009554326534, 0.0299882001709193, 10.119302400154993]",0,,,,,,,,,,,,,,,,,,,,,,,,,,,,,,,,,,,,,,,,,,,,,,,,,,,,,,,,,,,,,,,,,,,,,,,,,,,,,,,,,,,,,,,,,,,,,,,,,,,,,,,,,,,,,,,,,,,,,,,,,,,,KZQ08V,train_x,red_square,top_left,2025-09-18_16h19.27.592,HideSeek_v1,2022.2.5,59.97580572934816,
,,,,,,,,,,,,,,,3,0,3,0,3,0,3,0,,,,,,,,,,,,,,,,,,,,,,,,,,,,,,,conditions/schedules/train_x_first/red_square_00/top_left/instructions/Slide20.png,conditions/schedules/train_x_first/red_square_00/top_left/instructions/Audio20.wav,4275.499805700034,4275.492670499836,20,"[3.4339628000743687, 17.328427500091493, 16.067368200048804, 18.855725599918514, 3.980078099993989, 4.2857122998684645, 4.997896499931812, 11.173470000037923, 5.216601500054821, 6.517211699858308, 9.871798299951479, 12.921777500072494, 16.86835220013745, 12.603899599984288, 30.57764589996077, 21.323192900046706, 47.040588800096884, 6.005605400074273, 10.119295899989083, 13.685779900057241]","[3.4339775999542326, 0.014387300005182624, 0.056700600078329444, 0.01401190017350018, 0.03287069988436997, 0.04661819990724325, 0.08055429998785257, 0.03027520002797246, 0.09476149990223348, 0.047183699905872345, 0.03100590012036264, 12.921784500125796, 0.01389419985935092, 12.60390629991889, 0.013870700029656291, 21.32319979998283, 0.00021130009554326534, 0.0299882001709193, 0.013910300098359585, 13.685787100112066]",0,,,,,,,,,,,,,,,,,,,,,,,,,,,,,,,,,,,,,,,,,,,,,,,,,,,,,,,,,,,,,,,,,,,,,,,,,,,,,,,,,,,,,,,,,,,,,,,,,,,,,,,,,,,,,,,,,,,,,,,,,,,,KZQ08V,train_x,red_square,top_left,2025-09-18_16h19.27.592,HideSeek_v1,2022.2.5,59.97580572934816,
1,2,8,2,3,0,-5,11,2,instr_dim1_2,,,,,,3,0,3,0,,,,,0,0,0,0,,,,,,,,,,,,,,,,,,,,,,,,,,,,,,,,,,,,,stimuli/alien_stimuli/11.png,conditions/schedules/train_x_first/red_square_00/top_left/inputInstr_2.xlsx,stimuli/alien_stimuli/11.png,4289.289890799904,4289.289890799904,4289.289890799904,4289.289890799904,4289.287357339937,return,9.776993700070307,"[-0.16, -0.08, 0, 0.08, 0.16, 0.24, 0.32, 0.4, 0.48, 0.56]","[-0.4, -0.32, -0.24, -0.16, -0.08, 0, 0.08, 0.16, 0.24, 0.32]",3,8,2,2,0.4,0.0,4299.223836600082,4299.223836600082,4299.223836600082,4299.223836600082,4299.223836600082,4299.223836600082,4299.223836600082,4299.211938059935,8.12437679991126,return,7.965486500179395,stimuli/alien_stimuli/11.png,11,2,1,,,,,,,,,,,,,,,,,,,,,,,,,,,,,,,,,,,,,,,,,,,,,,,,,,,,,,,,,,,,,,,,,,,,,,,,,,,,,,,,,,,,,,,,,KZQ08V,train_x,red_square,top_left,2025-09-18_16h19.27.592,HideSeek_v1,2022.2.5,59.97580572934816,
,,,,,,,,,,,30,,,,3,0,3,0,,,,,,,,,,,,,,,,,,,,,,,,,,,,,,,,,,,,,,,,,,,,,,,,,,,,,,,,,,,,,,,,,,,,,,,,,,,,,,21,0.7,0.41666666666666674,1,99,2,30,0,conditions/schedules/train_x_first/red_square_00/top_left/inputTrain_2.1.xlsx,99,1,2,1,0,,,,,,,,,,,,,,,,,,,,,,,,,,,,,,,,,,,,,,,,,,,,,,,,,,,,,,,,,,,,,,,,,,,,,,,,,,,KZQ08V,train_x,red_square,top_left,2025-09-18_16h19.27.592,HideSeek_v1,2022.2.5,59.97580572934816,
,,,,,,,,,,,,,,,4,0,4,0,0,0,0,0,,,,,,,,,,,,,,,,,,,,,,,,,,,,,,,conditions/schedules/train_x_first/red_square_00/top_left/instructions/Slide21.png,conditions/schedules/train_x_first/red_square_00/top_left/instructions/Audio21.wav,4307.352829099866,4307.351955579849,21,"[3.4339628000743687, 17.328427500091493, 16.067368200048804, 18.855725599918514, 3.980078099993989, 4.2857122998684645, 4.997896499931812, 11.173470000037923, 5.216601500054821, 6.517211699858308, 9.871798299951479, 12.921777500072494, 16.86835220013745, 12.603899599984288, 30.57764589996077, 21.323192900046706, 47.040588800096884, 6.005605400074273, 10.119295899989083, 13.685779900057241, 16.477537600090727]","[3.4339775999542326, 0.014387300005182624, 0.056700600078329444, 0.01401190017350018, 0.03287069988436997, 0.04661819990724325, 0.08055429998785257, 0.03027520002797246, 0.09476149990223348, 0.047183699905872345, 0.03100590012036264, 12.921784500125796, 0.01389419985935092, 12.60390629991889, 0.013870700029656291, 21.32319979998283, 0.00021130009554326534, 0.0299882001709193, 0.013910300098359585, 13.685787100112066, 16.477544999914244]",0,,,,,,,,,,,,,,,,,,,,,,,,,,,,,,,,,,,,,,,,,,,,,,,,,,,,,,,,,,,,,,,,,,,,,,,,,,,,,,,,,,,,,,,,,,,,,,,,,,,,,,,,,,,,,,,,,,,,,,,,,,,,KZQ08V,train_x,red_square,top_left,2025-09-18_16h19.27.592,HideSeek_v1,2022.2.5,59.97580572934816,
2,0,8,0,8,0,0,16,2,instr_dim1_2,,,,,,4,0,4,0,,,,,0,0,0,0,,,,,,,,,,,,,,,,,,,,,,,,,,,,,,,,,,,,,stimuli/alien_stimuli/16.png,conditions/schedules/train_x_first/red_square_00/top_left/inputInstr_2.xlsx,stimuli/alien_stimuli/16.png,4323.940583900083,4323.940583900083,4323.940583900083,4323.940583900083,4323.932807939895,return,6.671032700221986,"[-0.16, -0.08, 0, 0.08, 0.16, 0.24, 0.32, 0.4, 0.48, 0.56]","[-0.4, -0.32, -0.24, -0.16, -0.08, 0, 0.08, 0.16, 0.24, 0.32]",8,8,0,0,0.0,0.0,4330.767749499995,4330.767749499995,4330.767749499995,4330.767749499995,4330.767749499995,4330.767749499995,4330.767749499995,4330.754837559815,6.990550900110975,return,6.844226000132039,stimuli/alien_stimuli/16.png,16,0,2,,,,,,,,,,,,,,,,,,,,,,,,,,,,,,,,,,,,,,,,,,,,,,,,,,,,,,,,,,,,,,,,,,,,,,,,,,,,,,,,,,,,,,,,,KZQ08V,train_x,red_square,top_left,2025-09-18_16h19.27.592,HideSeek_v1,2022.2.5,59.97580572934816,
,,,,,,,,,,,30,,,,4,0,4,0,,,,,,,,,,,,,,,,,,,,,,,,,,,,,,,,,,,,,,,,,,,,,,,,,,,,,,,,,,,,,,,,,,,,,,,,,,,,,,21,0.7,0.41666666666666674,1,99,2,30,0,conditions/schedules/train_x_first/red_square_00/top_left/inputTrain_2.1.xlsx,99,1,2,1,0,,,,,,,,,,,,,,,,,,,,,,,,,,,,,,,,,,,,,,,,,,,,,,,,,,,,,,,,,,,,,,,,,,,,,,,,,,,KZQ08V,train_x,red_square,top_left,2025-09-18_16h19.27.592,HideSeek_v1,2022.2.5,59.97580572934816,
,,,,,,,,,,,,,,,5,0,5,0,0,0,0,0,,,,,,,,,,,,,,,,,,,,,,,,,,,,,,,conditions/schedules/train_x_first/red_square_00/top_left/instructions/Slide22.png,conditions/schedules/train_x_first/red_square_00/top_left/instructions/Audio22.wav,4337.883997899946,4337.876699919905,22,"[3.4339628000743687, 17.328427500091493, 16.067368200048804, 18.855725599918514, 3.980078099993989, 4.2857122998684645, 4.997896499931812, 11.173470000037923, 5.216601500054821, 6.517211699858308, 9.871798299951479, 12.921777500072494, 16.86835220013745, 12.603899599984288, 30.57764589996077, 21.323192900046706, 47.040588800096884, 6.005605400074273, 10.119295899989083, 13.685779900057241, 16.477537600090727, 42.460968300001696]","[3.4339775999542326, 0.014387300005182624, 0.056700600078329444, 0.01401190017350018, 0.03287069988436997, 0.04661819990724325, 0.08055429998785257, 0.03027520002797246, 0.09476149990223348, 0.047183699905872345, 0.03100590012036264, 12.921784500125796, 0.01389419985935092, 12.60390629991889, 0.013870700029656291, 21.32319979998283, 0.00021130009554326534, 0.0299882001709193, 0.013910300098359585, 13.685787100112066, 16.477544999914244, 42.460975100053474]",0,,,,,,,,,,,,,,,,,,,,,,,,,,,,,,,,,,,,,,,,,,,,,,,,,,,,,,,,,,,,,,,,,,,,,,,,,,,,,,,,,,,,,,,,,,,,,,,,,,,,,,,,,,,,,,,,,,,,,,,,,,,,KZQ08V,train_x,red_square,top_left,2025-09-18_16h19.27.592,HideSeek_v1,2022.2.5,59.97580572934816,
,0,5,0,4,0,-1,15,,train_dim1_2,1,30,,,,5,0,5,0,,,,,,,,,0,0,0,0,0,0,0,0,0,0,0,0,,,,,,,,,,,,,,,,,,,,,,,,,stimuli/alien_stimuli/15.png,,,,,,,,,,,,,,,,,,,,,,,,,,,,,,,,,,,,,,,30,,,,,,,,4380.461298299953,4380.461298299953,4380.461298299953,4380.461298299953,4380.461298299953,return,4.301002899883315,0,1,0,0,-0.16,0,return,4.195785199990496,-8,77,-0.16,0,,,,,,,,,,,,,,,,,,,,,,,,,,,,,,,,,,,,,,,,,,,,,,,,,,,,,,,,KZQ08V,train_x,red_square,top_left,2025-09-18_16h19.27.592,HideSeek_v1,2022.2.5,59.97580572934816,
,3,7,3,7,0,0,16,,train_dim1_2,2,30,,,,5,0,5,0,,,,,,,,,0,0,0,0,0,1,1,1,0,0,0,0,,,,,,,,,,,,,,,,,,,,,,,,,stimuli/alien_stimuli/16.png,,,,,,,,,,,,,,,,,,,,,,,,,,,,,stimuli/alien_stimuli/15.png,15,0,3,,,,,,,30,,,,,,,,4391.431429499993,4391.431429499993,4391.431429499993,4391.431429499993,4391.431429499993,down,3.0225030998699367,0,1,0,99,0.08,0.08,down,2.9364574002102017,,,,,4389.871619099984,4391.431429499993,-0.16,-0.08,0.08,0.0,-0.04,-0.16,-0.16,-0.16,-0.08,4386.3222137999255,4386.3222137999255,4386.3222137999255,4386.3222137999255,4386.3222137999255,4386.3222137999255,4386.3222137999255,4386.3222137999255,4386.31778945988,3.672095000045374,return,3.5295804000925273,,,,,,,,,,,,,,,,,,,,,,,,,,,,,,,,,KZQ08V,train_x,red_square,top_left,2025-09-18_16h19.27.592,HideSeek_v1,2022.2.5,59.97580572934816,
,3,7,3,7,0,0,16,,train_dim1_2,2,30,,,,5,0,5,0,,,,,,,,,0,0,0,0,0,1,1,1,1,0,1,0,,,,,,,,,,,,,,,,,,,,,,,,,,,,,,,,,,,,,,,,,,,,,,,,,,,,,,,,,,,,,,,,30,,,,,,,,4394.460793100065,4394.460793100065,4394.460793100065,4394.460793100065,4394.460793100065,return,0.7919991998933256,0,1,0,0,0.08,0.08,return,0.7058224999345839,-9,77,0.08,0.08,,,,,,,,,,,,,,,,,,,,,,,,,,,,,,,,,,,,,,,,,,,,,,,,,,,,,,,,KZQ08V,train_x,red_square,top_left,2025-09-18_16h19.27.592,HideSeek_v1,2022.2.5,59.97580572934816,
,2,8,2,5,0,-3,13,,train_dim1_2,3,30,,,,5,0,5,0,,,,,,,,,0,0,0,0,0,2,2,2,0,0,0,0,,,,,,,,,,,,,,,,,,,,,,,,,stimuli/alien_stimuli/13.png,,,,,,,,,,,,,,,,,,,,,,,,,,,,,stimuli/alien_stimuli/16.png,16,3,4,,,,,,,30,,,,,,,,4401.073220999911,4401.073220999911,4401.073220999911,4401.073220999911,4401.073220999911,down,2.3884986999910325,0,1,0,99,0,0.15999999999999998,down,2.3066374000627548,,,,,4399.512904000003,4401.073220999911,0.08,0.16,0.0,0.0,0.16,0.08,0.08,0.08,0.16,4396.8294663999695,4396.8294663999695,4396.8294663999695,4396.8294663999695,4396.8294663999695,4396.8294663999695,4396.8294663999695,4396.8294663999695,4396.826508160028,2.8039479998406023,return,2.657249400159344,,,,,,,,,,,,,,,,,,,,,,,,,,,,,,,,,KZQ08V,train_x,red_square,top_left,2025-09-18_16h19.27.592,HideSeek_v1,2022.2.5,59.97580572934816,
,2,8,2,5,0,-3,13,,train_dim1_2,3,30,,,,5,0,5,0,,,,,,,,,0,0,0,0,0,2,2,2,1,0,1,0,,,,,,,,,,,,,,,,,,,,,,,,,,,,,,,,,,,,,,,,,,,,,,,,,,,,,,,,,,,,,,,,30,,,,,,,,4403.467109699966,4403.467109699966,4403.467109699966,4403.467109699966,4403.467109699966,down,0.29268660000525415,0,1,0,99,0,0.07999999999999997,down,0.21390590001828969,,,,,,,,,,,,,,,,,,,,,,,,,,,,,,,,,,,,,,,,,,,,,,,,,,,,,,,,,,,,KZQ08V,train_x,red_square,top_left,2025-09-18_16h19.27.592,HideSeek_v1,2022.2.5,59.97580572934816,
,2,8,2,5,0,-3,13,,train_dim1_2,3,30,,,,5,0,5,0,,,,,,,,,0,0,0,0,0,2,2,2,2,0,2,0,,,,,,,,,,,,,,,,,,,,,,,,,,,,,,,,,,,,,,,,,,,,,,,,,,,,,,,,,,,,,,,,30,,,,,,,,4403.767721399898,4403.767721399898,4403.767721399898,4403.767721399898,4403.767721399898,down,0.32517389999702573,0,1,0,99,0,-2.7755575615628914e-17,down,0.23348430008627474,,,,,,,,,,,,,,,,,,,,,,,,,,,,,,,,,,,,,,,,,,,,,,,,,,,,,,,,,,,,KZQ08V,train_x,red_square,top_left,2025-09-18_16h19.27.592,HideSeek_v1,2022.2.5,59.97580572934816,
