trialInstr,x_fixStart,y_fixStart,x_corrSteps,y_corrSteps,x_nrSteps,y_nrSteps,alienID,trialLength,version,trialTrain,praclen,testlen,trial_label,break_on_off,beforeExpLoop.thisRepN,beforeExpLoop.thisTrialN,beforeExpLoop.thisN,beforeExpLoop.thisIndex,mini_instr_trials.thisRepN,mini_instr_trials.thisTrialN,mini_instr_trials.thisN,mini_instr_trials.thisIndex,instrLoop.thisRepN,instrLoop.thisTrialN,instrLoop.thisN,instrLoop.thisIndex,repeat_prac.thisRepN,repeat_prac.thisTrialN,repeat_prac.thisN,repeat_prac.thisIndex,trainLoop.thisRepN,trainLoop.thisTrialN,trainLoop.thisN,trainLoop.thisIndex,moveLoop_train.thisRepN,moveLoop_train.thisTrialN,moveLoop_train.thisN,moveLoop_train.thisIndex,experiment.thisRepN,experiment.thisTrialN,experiment.thisN,experiment.thisIndex,moveLoop_test.thisRepN,moveLoop_test.thisTrialN,moveLoop_test.thisN,moveLoop_test.thisIndex,mini_instr2_trials.thisRepN,mini_instr2_trials.thisTrialN,mini_instr2_trials.thisN,mini_instr2_trials.thisIndex,start_all_time,url,slideStim,audioStim,slides.started,sounds.started,nextButton.numClicks,nextButton.timesOn,nextButton.timesOff,prev_but.numClicks,prev_but.timesOn,prev_but.timesOff,alienStim,instrFile,alienStim_instr,gridImage_instr.started,startPos_3.started,key_instr.started,alienImage_3.started,sounds_1.started,key_instr.keys,key_instr.rt,all_x,all_y,FBy_corrSteps,FBy_fixStart,FBx_corrSteps,FBx_fixStart,FBy_pathSize_check,FBx_pathSize_check,gridImage_9.started,alienImageFB_3.started,startPosFB_3.started,keyFB_3.started,pathLine_ydir_2.started,pathLine_xdir_2.started,alienFace_3.started,sounds_2.started,RTFB_instr,keyFB_3.keys,keyFB_3.rt,draw_alienStim,draw_alienID,test_x,nrepcount,perfthres,percthres,earlierperf,earlystop,nextPrac,fileidx,praclen,saveACC_train,pracFile,nextPrac_train,addNrep,fileidx_endr,repExp,showearly,gridImage_4.started,startPos.started,movePos.started,key_resp.started,alienImage.started,buttonPress_train,RTchoice_train,cumAcctrain,aCorr,saveACC_choice,corrAns,x_movePos_end,y_movePos_end,key_resp.keys,key_resp.rt,wLy_dir,wLx_dir,x_movePos,y_movePos,text_2.started,text_2.stopped,aft_x_corrPos,aft_y_corrPos,y_pathSize_check,x_pathSize_check,y_pathdirY,x_pathdirY,x_pathdirX,x_corrPos,y_corrPos,gridImage_6.started,alienImageFB_2.started,startPosFB_2.started,movePosFB_2.started,keyFB_2.started,pathLine_xdir.started,pathLine_ydir.started,alienFace.started,sounds_4.started,RT_FBtrain,keyFB_2.keys,keyFB_2.rt,saveACC_pre,ACC,within_saveACC_train,earlystop_wloop,cumAcctrain_check,gridImage_3.started,alienImage_test.started,startPos_test.started,movePos_test.started,key_resp_test.started,wLy_dir_test,wLx_dir_test,buttonPress_test,RTchoice_test,cumAcctest,corrAns_test,key_resp_test.keys,key_resp_test.rt,text_3.started,text_3.stopped,total_time,end_all_time,key_resp_3.keys,slides_2.started,sounds_3.started,nextButton_2.numClicks,nextButton_2.timesOn,nextButton_2.timesOff,prev_but_2.numClicks,prev_but_2.timesOn,prev_but_2.timesOff,bye.started,participant,train_first,00_coordinate,starting corner,date,expName,psychopyVersion,frameRate,
,,,,,,,,,,,,,,,0,0,0,0,0,0,0,0,,,,,,,,,,,,,,,,,,,,,,,,,,,,,start_all_time,testround,conditions/schedules/train_y_first/blue_star_00/top_right/instructions/Slide1.png,conditions/schedules/train_y_first/blue_star_00/top_right/instructions/Audio1.wav,47.152960299979895,47.10270779719576,1,[7.357211799826473],[7.3572243000380695],0,,,,,,,,,,,,,,,,,,,,,,,,,,,,,,,,,,,,,,,,,,,,,,,,,,,,,,,,,,,,,,,,,,,,,,,,,,,,,,,,,,,,,,,,,,,,,,,,,,,,,,,,,,,,,,,,,,,,,,,,,,,,KZXV9K,train_y,blue_star,top_right,2025-07-05_13h30.39.936,HideSeek_v1,2022.2.5,60.40668194802802,
,,,,,,,,,,,,,,,0,0,0,0,1,0,1,0,,,,,,,,,,,,,,,,,,,,,,,,,,,,,,,conditions/schedules/train_y_first/blue_star_00/top_right/instructions/Slide2.png,conditions/schedules/train_y_first/blue_star_00/top_right/instructions/Audio2.wav,54.53113029990345,54.52758609992452,2,"[7.357211799826473, 18.691875800024718]","[7.3572243000380695, 18.69188219984062]",0,,,,,,,,,,,,,,,,,,,,,,,,,,,,,,,,,,,,,,,,,,,,,,,,,,,,,,,,,,,,,,,,,,,,,,,,,,,,,,,,,,,,,,,,,,,,,,,,,,,,,,,,,,,,,,,,,,,,,,,,,,,,KZXV9K,train_y,blue_star,top_right,2025-07-05_13h30.39.936,HideSeek_v1,2022.2.5,60.40668194802802,
,,,,,,,,,,,,,,,0,0,0,0,2,0,2,0,,,,,,,,,,,,,,,,,,,,,,,,,,,,,,,conditions/schedules/train_y_first/blue_star_00/top_right/instructions/Slide3.png,conditions/schedules/train_y_first/blue_star_00/top_right/instructions/Audio3.wav,73.2903036000207,73.29157650005072,3,"[7.357211799826473, 18.691875800024718, 17.080034699989483]","[7.3572243000380695, 0.014234800124540925, 17.08004150004126]",0,,,,,,,,,,,,,,,,,,,,,,,,,,,,,,,,,,,,,,,,,,,,,,,,,,,,,,,,,,,,,,,,,,,,,,,,,,,,,,,,,,,,,,,,,,,,,,,,,,,,,,,,,,,,,,,,,,,,,,,,,,,,KZXV9K,train_y,blue_star,top_right,2025-07-05_13h30.39.936,HideSeek_v1,2022.2.5,60.40668194802802,
,,,,,,,,,,,,,,,0,0,0,0,3,0,3,0,,,,,,,,,,,,,,,,,,,,,,,,,,,,,,,conditions/schedules/train_y_first/blue_star_00/top_right/instructions/Slide4.png,conditions/schedules/train_y_first/blue_star_00/top_right/instructions/Audio4.wav,90.4433669000864,90.43930039997213,4,"[7.357211799826473, 18.691875800024718, 17.080034699989483, 19.126825999934226]","[7.3572243000380695, 0.014234800124540925, 0.014383899979293346, 19.126833399990574]",0,,,,,,,,,,,,,,,,,,,,,,,,,,,,,,,,,,,,,,,,,,,,,,,,,,,,,,,,,,,,,,,,,,,,,,,,,,,,,,,,,,,,,,,,,,,,,,,,,,,,,,,,,,,,,,,,,,,,,,,,,,,,KZXV9K,train_y,blue_star,top_right,2025-07-05_13h30.39.936,HideSeek_v1,2022.2.5,60.40668194802802,
,,,,,,,,,,,,,,,0,0,0,0,4,0,4,0,,,,,,,,,,,,,,,,,,,,,,,,,,,,,,,conditions/schedules/train_y_first/blue_star_00/top_right/instructions/Slide5.png,conditions/schedules/train_y_first/blue_star_00/top_right/instructions/Audio5.wav,109.63658050005324,109.63863589987159,5,"[7.357211799826473, 18.691875800024718, 17.080034699989483, 19.126825999934226, 4.8539115998428315]","[7.3572243000380695, 0.014234800124540925, 0.014383899979293346, 0.03322049998678267, 4.853918599896133]",0,,,,,,,,,,,,,,,,,,,,,,,,,,,,,,,,,,,,,,,,,,,,,,,,,,,,,,,,,,,,,,,,,,,,,,,,,,,,,,,,,,,,,,,,,,,,,,,,,,,,,,,,,,,,,,,,,,,,,,,,,,,,KZXV9K,train_y,blue_star,top_right,2025-07-05_13h30.39.936,HideSeek_v1,2022.2.5,60.40668194802802,
,,,,,,,,,,,,,,,0,0,0,0,5,0,5,0,,,,,,,,,,,,,,,,,,,,,,,,,,,,,,,conditions/schedules/train_y_first/blue_star_00/top_right/instructions/Slide6.png,conditions/schedules/train_y_first/blue_star_00/top_right/instructions/Audio6.wav,114.541055199923,114.54257919988595,6,"[7.357211799826473, 18.691875800024718, 17.080034699989483, 19.126825999934226, 4.8539115998428315, 4.637043100083247]","[7.3572243000380695, 0.014234800124540925, 0.014383899979293346, 0.03322049998678267, 0.01452089985832572, 4.637050099903718]",0,,,,,,,,,,,,,,,,,,,,,,,,,,,,,,,,,,,,,,,,,,,,,,,,,,,,,,,,,,,,,,,,,,,,,,,,,,,,,,,,,,,,,,,,,,,,,,,,,,,,,,,,,,,,,,,,,,,,,,,,,,,,KZXV9K,train_y,blue_star,top_right,2025-07-05_13h30.39.936,HideSeek_v1,2022.2.5,60.40668194802802,
,,,,,,,,,,,,,,,0,0,0,0,6,0,6,0,,,,,,,,,,,,,,,,,,,,,,,,,,,,,,,conditions/schedules/train_y_first/blue_star_00/top_right/instructions/Slide7.png,conditions/schedules/train_y_first/blue_star_00/top_right/instructions/Audio7.wav,119.23016669997014,119.23007849999703,7,"[7.357211799826473, 18.691875800024718, 17.080034699989483, 19.126825999934226, 4.8539115998428315, 4.637043100083247, 5.6188918999396265]","[7.3572243000380695, 0.014234800124540925, 0.014383899979293346, 0.03322049998678267, 0.01452089985832572, 0.014408999821171165, 5.618898599874228]",0,,,,,,,,,,,,,,,,,,,,,,,,,,,,,,,,,,,,,,,,,,,,,,,,,,,,,,,,,,,,,,,,,,,,,,,,,,,,,,,,,,,,,,,,,,,,,,,,,,,,,,,,,,,,,,,,,,,,,,,,,,,,KZXV9K,train_y,blue_star,top_right,2025-07-05_13h30.39.936,HideSeek_v1,2022.2.5,60.40668194802802,
,,,,,,,,,,,,,,,0,0,0,0,7,0,7,0,,,,,,,,,,,,,,,,,,,,,,,,,,,,,,,conditions/schedules/train_y_first/blue_star_00/top_right/instructions/Slide8.png,conditions/schedules/train_y_first/blue_star_00/top_right/instructions/Audio8.wav,124.9032823999878,124.9011589998845,8,"[7.357211799826473, 18.691875800024718, 17.080034699989483, 19.126825999934226, 4.8539115998428315, 4.637043100083247, 5.6188918999396265, 11.438494599889964]","[7.3572243000380695, 0.014234800124540925, 0.014383899979293346, 0.03322049998678267, 0.01452089985832572, 0.014408999821171165, 0.014108099974691868, 11.438501399941742]",0,,,,,,,,,,,,,,,,,,,,,,,,,,,,,,,,,,,,,,,,,,,,,,,,,,,,,,,,,,,,,,,,,,,,,,,,,,,,,,,,,,,,,,,,,,,,,,,,,,,,,,,,,,,,,,,,,,,,,,,,,,,,KZXV9K,train_y,blue_star,top_right,2025-07-05_13h30.39.936,HideSeek_v1,2022.2.5,60.40668194802802,
,,,,,,,,,,,,,,,0,0,0,0,8,0,8,0,,,,,,,,,,,,,,,,,,,,,,,,,,,,,,,conditions/schedules/train_y_first/blue_star_00/top_right/instructions/Slide9.png,conditions/schedules/train_y_first/blue_star_00/top_right/instructions/Audio9.wav,136.41320819989778,136.41084859985858,9,"[7.357211799826473, 18.691875800024718, 17.080034699989483, 19.126825999934226, 4.8539115998428315, 4.637043100083247, 5.6188918999396265, 11.438494599889964, 5.733739099930972]","[7.3572243000380695, 0.014234800124540925, 0.014383899979293346, 0.03322049998678267, 0.01452089985832572, 0.014408999821171165, 0.014108099974691868, 0.030679799849167466, 5.733746599871665]",0,,,,,,,,,,,,,,,,,,,,,,,,,,,,,,,,,,,,,,,,,,,,,,,,,,,,,,,,,,,,,,,,,,,,,,,,,,,,,,,,,,,,,,,,,,,,,,,,,,,,,,,,,,,,,,,,,,,,,,,,,,,,KZXV9K,train_y,blue_star,top_right,2025-07-05_13h30.39.936,HideSeek_v1,2022.2.5,60.40668194802802,
,,,,,,,,,,,,,,,0,0,0,0,9,0,9,0,,,,,,,,,,,,,,,,,,,,,,,,,,,,,,,conditions/schedules/train_y_first/blue_star_00/top_right/instructions/Slide10.png,conditions/schedules/train_y_first/blue_star_00/top_right/instructions/Audio10.wav,142.18640580005012,142.1823515999131,10,"[7.357211799826473, 18.691875800024718, 17.080034699989483, 19.126825999934226, 4.8539115998428315, 4.637043100083247, 5.6188918999396265, 11.438494599889964, 5.733739099930972, 6.782408599974588]","[7.3572243000380695, 0.014234800124540925, 0.014383899979293346, 0.03322049998678267, 0.01452089985832572, 0.014408999821171165, 0.014108099974691868, 0.030679799849167466, 0.06338219996541739, 6.7824148999061435]",0,,,,,,,,,,,,,,,,,,,,,,,,,,,,,,,,,,,,,,,,,,,,,,,,,,,,,,,,,,,,,,,,,,,,,,,,,,,,,,,,,,,,,,,,,,,,,,,,,,,,,,,,,,,,,,,,,,,,,,,,,,,,KZXV9K,train_y,blue_star,top_right,2025-07-05_13h30.39.936,HideSeek_v1,2022.2.5,60.40668194802802,
,,,,,,,,,,,,,,,0,0,0,0,10,0,10,0,,,,,,,,,,,,,,,,,,,,,,,,,,,,,,,conditions/schedules/train_y_first/blue_star_00/top_right/instructions/Slide11.png,conditions/schedules/train_y_first/blue_star_00/top_right/instructions/Audio11.wav,149.0090844000224,149.00477500003763,11,"[7.357211799826473, 18.691875800024718, 17.080034699989483, 19.126825999934226, 4.8539115998428315, 4.637043100083247, 5.6188918999396265, 11.438494599889964, 5.733739099930972, 6.782408599974588, 10.134896600153297]","[7.3572243000380695, 0.014234800124540925, 0.014383899979293346, 0.03322049998678267, 0.01452089985832572, 0.014408999821171165, 0.014108099974691868, 0.030679799849167466, 0.06338219996541739, 0.04736379999667406, 10.134903900092468]",0,,,,,,,,,,,,,,,,,,,,,,,,,,,,,,,,,,,,,,,,,,,,,,,,,,,,,,,,,,,,,,,,,,,,,,,,,,,,,,,,,,,,,,,,,,,,,,,,,,,,,,,,,,,,,,,,,,,,,,,,,,,,KZXV9K,train_y,blue_star,top_right,2025-07-05_13h30.39.936,HideSeek_v1,2022.2.5,60.40668194802802,
,,,,,,,,,,,,,,,0,0,0,0,11,0,11,0,,,,,,,,,,,,,,,,,,,,,,,,,,,,,,,conditions/schedules/train_y_first/blue_star_00/top_right/instructions/Slide12.png,conditions/schedules/train_y_first/blue_star_00/top_right/instructions/Audio12.wav,159.212123000063,159.21296419994906,12,"[7.357211799826473, 18.691875800024718, 17.080034699989483, 19.126825999934226, 4.8539115998428315, 4.637043100083247, 5.6188918999396265, 11.438494599889964, 5.733739099930972, 6.782408599974588, 10.134896600153297, 15.678780799964443]","[7.3572243000380695, 0.014234800124540925, 0.014383899979293346, 0.03322049998678267, 0.01452089985832572, 0.014408999821171165, 0.014108099974691868, 0.030679799849167466, 0.06338219996541739, 0.04736379999667406, 0.00020530004985630512, 15.678786899894476]",0,,,,,,,,,,,,,,,,,,,,,,,,,,,,,,,,,,,,,,,,,,,,,,,,,,,,,,,,,,,,,,,,,,,,,,,,,,,,,,,,,,,,,,,,,,,,,,,,,,,,,,,,,,,,,,,,,,,,,,,,,,,,KZXV9K,train_y,blue_star,top_right,2025-07-05_13h30.39.936,HideSeek_v1,2022.2.5,60.40668194802802,
1,5,8,5,3,0,-5,66,2,instr_dim1_1,,,,,,0,0,0,0,,,,,0,0,0,0,,,,,,,,,,,,,,,,,,,,,,,,,,,,,,,,,,,,,stimuli/alien_stimuli/66.png,conditions/schedules/train_y_first/blue_star_00/top_right/inputInstr_1.xlsx,stimuli/alien_stimuli/66.png,174.9900168001186,174.9900168001186,174.9900168001186,174.9900168001186,174.9761413000524,return,11.299101099837571,"[-0.16, -0.08, 0, 0.08, 0.16, 0.24, 0.32, 0.4, 0.48, 0.56]","[-0.4, -0.32, -0.24, -0.16, -0.08, 0, 0.08, 0.16, 0.24, 0.32]",3,8,5,5,0.4,0.0,186.4574587000534,186.4574587000534,186.4574587000534,186.4574587000534,186.4574587000534,186.4574587000534,186.4574587000534,186.4521104998421,7.206640499876812,return,7.042936599813402,stimuli/alien_stimuli/66.png,66,5,1,,,,,,,,,,,,,,,,,,,,,,,,,,,,,,,,,,,,,,,,,,,,,,,,,,,,,,,,,,,,,,,,,,,,,,,,,,,,,,,,,,,,,,,,,KZXV9K,train_y,blue_star,top_right,2025-07-05_13h30.39.936,HideSeek_v1,2022.2.5,60.40668194802802,
,,,,,,,,,,,30,,,,0,0,0,0,,,,,,,,,,,,,,,,,,,,,,,,,,,,,,,,,,,,,,,,,,,,,,,,,,,,,,,,,,,,,,,,,,,,,,,,,,,,,,21,0.7,0,0,99,1,30,0,conditions/schedules/train_y_first/blue_star_00/top_right/inputTrain_1.1.xlsx,99,1,1,1,0,,,,,,,,,,,,,,,,,,,,,,,,,,,,,,,,,,,,,,,,,,,,,,,,,,,,,,,,,,,,,,,,,,,,,,,,,,,KZXV9K,train_y,blue_star,top_right,2025-07-05_13h30.39.936,HideSeek_v1,2022.2.5,60.40668194802802,
,,,,,,,,,,,,,,,1,0,1,0,0,0,0,0,,,,,,,,,,,,,,,,,,,,,,,,,,,,,,,conditions/schedules/train_y_first/blue_star_00/top_right/instructions/Slide13.png,conditions/schedules/train_y_first/blue_star_00/top_right/instructions/Audio13.wav,193.65662200003862,193.65801409981214,13,"[7.357211799826473, 18.691875800024718, 17.080034699989483, 19.126825999934226, 4.8539115998428315, 4.637043100083247, 5.6188918999396265, 11.438494599889964, 5.733739099930972, 6.782408599974588, 10.134896600153297, 15.678780799964443, 17.665373199852183]","[7.3572243000380695, 0.014234800124540925, 0.014383899979293346, 0.03322049998678267, 0.01452089985832572, 0.014408999821171165, 0.014108099974691868, 0.030679799849167466, 0.06338219996541739, 0.04736379999667406, 0.00020530004985630512, 15.678786899894476, 17.66539949993603]",0,,,,,,,,,,,,,,,,,,,,,,,,,,,,,,,,,,,,,,,,,,,,,,,,,,,,,,,,,,,,,,,,,,,,,,,,,,,,,,,,,,,,,,,,,,,,,,,,,,,,,,,,,,,,,,,,,,,,,,,,,,,,KZXV9K,train_y,blue_star,top_right,2025-07-05_13h30.39.936,HideSeek_v1,2022.2.5,60.40668194802802,
,,,,,,,,,,,,,,,1,0,1,0,1,0,1,0,,,,,,,,,,,,,,,,,,,,,,,,,,,,,,,conditions/schedules/train_y_first/blue_star_00/top_right/instructions/Slide14.png,conditions/schedules/train_y_first/blue_star_00/top_right/instructions/Audio14.wav,211.4052271998953,211.40753729990683,14,"[7.357211799826473, 18.691875800024718, 17.080034699989483, 19.126825999934226, 4.8539115998428315, 4.637043100083247, 5.6188918999396265, 11.438494599889964, 5.733739099930972, 6.782408599974588, 10.134896600153297, 15.678780799964443, 17.665373199852183, 16.97969840001315]","[7.3572243000380695, 0.014234800124540925, 0.014383899979293346, 0.03322049998678267, 0.01452089985832572, 0.014408999821171165, 0.014108099974691868, 0.030679799849167466, 0.06338219996541739, 0.04736379999667406, 0.00020530004985630512, 15.678786899894476, 17.66539949993603, 16.979705599835142]",0,,,,,,,,,,,,,,,,,,,,,,,,,,,,,,,,,,,,,,,,,,,,,,,,,,,,,,,,,,,,,,,,,,,,,,,,,,,,,,,,,,,,,,,,,,,,,,,,,,,,,,,,,,,,,,,,,,,,,,,,,,,,KZXV9K,train_y,blue_star,top_right,2025-07-05_13h30.39.936,HideSeek_v1,2022.2.5,60.40668194802802,
2,7,8,7,8,0,0,61,2,instr_dim1_1,,,,,,1,0,1,0,,,,,0,0,0,0,,,,,,,,,,,,,,,,,,,,,,,,,,,,,,,,,,,,,stimuli/alien_stimuli/61.png,conditions/schedules/train_y_first/blue_star_00/top_right/inputInstr_1.xlsx,stimuli/alien_stimuli/61.png,228.48084939992987,228.48084939992987,228.48084939992987,228.48084939992987,228.47036270005628,return,5.952982899732888,"[-0.16, -0.08, 0, 0.08, 0.16, 0.24, 0.32, 0.4, 0.48, 0.56]","[-0.4, -0.32, -0.24, -0.16, -0.08, 0, 0.08, 0.16, 0.24, 0.32]",8,8,7,7,0.0,0.0,234.60483340010978,234.60483340010978,234.60483340010978,234.60483340010978,234.60483340010978,234.60483340010978,234.60483340010978,234.59205710003152,22.66956269997172,return,22.501352099934593,stimuli/alien_stimuli/61.png,61,7,2,,,,,,,,,,,,,,,,,,,,,,,,,,,,,,,,,,,,,,,,,,,,,,,,,,,,,,,,,,,,,,,,,,,,,,,,,,,,,,,,,,,,,,,,,KZXV9K,train_y,blue_star,top_right,2025-07-05_13h30.39.936,HideSeek_v1,2022.2.5,60.40668194802802,
,,,,,,,,,,,30,,,,1,0,1,0,,,,,,,,,,,,,,,,,,,,,,,,,,,,,,,,,,,,,,,,,,,,,,,,,,,,,,,,,,,,,,,,,,,,,,,,,,,,,,21,0.7,0,0,99,1,30,0,conditions/schedules/train_y_first/blue_star_00/top_right/inputTrain_1.1.xlsx,99,1,1,1,0,,,,,,,,,,,,,,,,,,,,,,,,,,,,,,,,,,,,,,,,,,,,,,,,,,,,,,,,,,,,,,,,,,,,,,,,,,,KZXV9K,train_y,blue_star,top_right,2025-07-05_13h30.39.936,HideSeek_v1,2022.2.5,60.40668194802802,
,,,,,,,,,,,,,,,2,0,2,0,0,0,0,0,,,,,,,,,,,,,,,,,,,,,,,,,,,,,,,conditions/schedules/train_y_first/blue_star_00/top_right/instructions/Slide15.png,conditions/schedules/train_y_first/blue_star_00/top_right/instructions/Audio15.wav,257.2836452999618,257.27740129991435,15,"[7.357211799826473, 18.691875800024718, 17.080034699989483, 19.126825999934226, 4.8539115998428315, 4.637043100083247, 5.6188918999396265, 11.438494599889964, 5.733739099930972, 6.782408599974588, 10.134896600153297, 15.678780799964443, 17.665373199852183, 16.97969840001315, 43.92759400000796]","[7.3572243000380695, 0.014234800124540925, 0.014383899979293346, 0.03322049998678267, 0.01452089985832572, 0.014408999821171165, 0.014108099974691868, 0.030679799849167466, 0.06338219996541739, 0.04736379999667406, 0.00020530004985630512, 15.678786899894476, 17.66539949993603, 16.979705599835142, 43.92760050017387]",0,,,,,,,,,,,,,,,,,,,,,,,,,,,,,,,,,,,,,,,,,,,,,,,,,,,,,,,,,,,,,,,,,,,,,,,,,,,,,,,,,,,,,,,,,,,,,,,,,,,,,,,,,,,,,,,,,,,,,,,,,,,,KZXV9K,train_y,blue_star,top_right,2025-07-05_13h30.39.936,HideSeek_v1,2022.2.5,60.40668194802802,
,,,,,,,,,,,,,,,2,0,2,0,1,0,1,0,,,,,,,,,,,,,,,,,,,,,,,,,,,,,,,conditions/schedules/train_y_first/blue_star_00/top_right/instructions/Slide16.png,conditions/schedules/train_y_first/blue_star_00/top_right/instructions/Audio16.wav,301.2845900999382,301.2806762000546,16,"[7.357211799826473, 18.691875800024718, 17.080034699989483, 19.126825999934226, 4.8539115998428315, 4.637043100083247, 5.6188918999396265, 11.438494599889964, 5.733739099930972, 6.782408599974588, 10.134896600153297, 15.678780799964443, 17.665373199852183, 16.97969840001315, 43.92759400000796, 21.862045699963346]","[7.3572243000380695, 0.014234800124540925, 0.014383899979293346, 0.03322049998678267, 0.01452089985832572, 0.014408999821171165, 0.014108099974691868, 0.030679799849167466, 0.06338219996541739, 0.04736379999667406, 0.00020530004985630512, 15.678786899894476, 17.66539949993603, 16.979705599835142, 43.92760050017387, 21.862051599891856]",0,,,,,,,,,,,,,,,,,,,,,,,,,,,,,,,,,,,,,,,,,,,,,,,,,,,,,,,,,,,,,,,,,,,,,,,,,,,,,,,,,,,,,,,,,,,,,,,,,,,,,,,,,,,,,,,,,,,,,,,,,,,,KZXV9K,train_y,blue_star,top_right,2025-07-05_13h30.39.936,HideSeek_v1,2022.2.5,60.40668194802802,
,5,5,5,1,0,-4,65,,train_dim1_1,1,30,,,,2,0,2,0,,,,,,,,,0,0,0,0,0,0,0,0,0,0,0,0,,,,,,,,,,,,,,,,,,,,,,,,,stimuli/alien_stimuli/65.png,,,,,,,,,,,,,,,,,,,,,,,,,,,,,,,,,,,,,,,30,,,,,,,,323.2476373000536,323.2476373000536,323.2476373000536,323.2476373000536,323.2476373000536,right,13.121294900076464,0,0,0,99,0.32,0,right,13.029351899866015,,,,,,,,,,,,,,,,,,,,,,,,,,,,,,,,,,,,,,,,,,,,,,,,,,,,,,,,,,,,KZXV9K,train_y,blue_star,top_right,2025-07-05_13h30.39.936,HideSeek_v1,2022.2.5,60.40668194802802,
,5,5,5,1,0,-4,65,,train_dim1_1,1,30,,,,2,0,2,0,,,,,,,,,0,0,0,0,0,0,0,0,1,0,1,0,,,,,,,,,,,,,,,,,,,,,,,,,,,,,,,,,,,,,,,,,,,,,,,,,,,,,,,,,,,,,,,,30,,,,,,,,336.3653259999119,336.3653259999119,336.3653259999119,336.3653259999119,336.3653259999119,left,2.261060800170526,0,0,0,99,0.24,0,left,2.17237459984608,,,,,,,,,,,,,,,,,,,,,,,,,,,,,,,,,,,,,,,,,,,,,,,,,,,,,,,,,,,,KZXV9K,train_y,blue_star,top_right,2025-07-05_13h30.39.936,HideSeek_v1,2022.2.5,60.40668194802802,
,5,5,5,1,0,-4,65,,train_dim1_1,1,30,,,,2,0,2,0,,,,,,,,,0,0,0,0,0,0,0,0,2,0,2,0,,,,,,,,,,,,,,,,,,,,,,,,,,,,,,,,,,,,,,,,,,,,,,,,,,,,,,,,,,,,,,,,30,,,,,,,,338.624570999993,338.624570999993,338.624570999993,338.624570999993,338.624570999993,return,0.9272762001492083,0,0,0,0,0.24,0,return,0.8552601998671889,0,0,0.24,0,,,,,,,,,,,,,,,,,,,,,,,,,,,,,,,,,,,,,,,,,,,,,,,,,,,,,,,,KZXV9K,train_y,blue_star,top_right,2025-07-05_13h30.39.936,HideSeek_v1,2022.2.5,60.40668194802802,
,8,7,8,2,0,-5,66,,train_dim1_1,2,30,,,,2,0,2,0,,,,,,,,,0,0,0,0,0,1,1,1,0,0,0,0,,,,,,,,,,,,,,,,,,,,,,,,,stimuli/alien_stimuli/66.png,,,,,,,,,,,,,,,,,,,,,,,,,,,,,stimuli/alien_stimuli/65.png,65,5,3,,,,,,,30,,,,,,,,367.91246809996665,367.91246809996665,367.91246809996665,367.91246809996665,367.91246809996665,left,2.6064649999607354,0,0,0,99,0.39999999999999997,0.16,left,2.5157573998440057,,,,,366.35185940004885,367.91246809996665,0.24,-0.32,0.32,0.0,-0.16,0.24,0.24,0.24,-0.32,341.1254604998976,341.1254604998976,341.1254604998976,341.1254604998976,341.1254604998976,341.1254604998976,341.1254604998976,341.1254604998976,341.1136959998403,25.341104800114408,return,25.2084818999283,,,,,,,,,,,,,,,,,,,,,,,,,,,,,,,,,KZXV9K,train_y,blue_star,top_right,2025-07-05_13h30.39.936,HideSeek_v1,2022.2.5,60.40668194802802,
,8,7,8,2,0,-5,66,,train_dim1_1,2,30,,,,2,0,2,0,,,,,,,,,0,0,0,0,0,1,1,1,1,0,1,0,,,,,,,,,,,,,,,,,,,,,,,,,,,,,,,,,,,,,,,,,,,,,,,,,,,,,,,,,,,,,,,,30,,,,,,,,370.51780800009146,370.51780800009146,370.51780800009146,370.51780800009146,370.51780800009146,left,0.7767933001741767,0,0,0,99,0.31999999999999995,0.16,left,0.6928172998595983,,,,,,,,,,,,,,,,,,,,,,,,,,,,,,,,,,,,,,,,,,,,,,,,,,,,,,,,,,,,KZXV9K,train_y,blue_star,top_right,2025-07-05_13h30.39.936,HideSeek_v1,2022.2.5,60.40668194802802,
,8,7,8,2,0,-5,66,,train_dim1_1,2,30,,,,2,0,2,0,,,,,,,,,0,0,0,0,0,1,1,1,2,0,2,0,,,,,,,,,,,,,,,,,,,,,,,,,,,,,,,,,,,,,,,,,,,,,,,,,,,,,,,,,,,,,,,,30,,,,,,,,371.30318789999,371.30318789999,371.30318789999,371.30318789999,371.30318789999,left,2.143822700018063,0,0,0,99,0.23999999999999994,0.16,left,2.060233799740672,,,,,,,,,,,,,,,,,,,,,,,,,,,,,,,,,,,,,,,,,,,,,,,,,,,,,,,,,,,,KZXV9K,train_y,blue_star,top_right,2025-07-05_13h30.39.936,HideSeek_v1,2022.2.5,60.40668194802802,
,8,7,8,2,0,-5,66,,train_dim1_1,2,30,,,,2,0,2,0,,,,,,,,,0,0,0,0,0,1,1,1,3,0,3,0,,,,,,,,,,,,,,,,,,,,,,,,,,,,,,,,,,,,,,,,,,,,,,,,,,,,,,,,,,,,,,,,30,,,,,,,,373.4539359000046,373.4539359000046,373.4539359000046,373.4539359000046,373.4539359000046,left,0.6103815000969917,0,0,0,99,0.15999999999999992,0.16,left,0.5311197999399155,,,,,,,,,,,,,,,,,,,,,,,,,,,,,,,,,,,,,,,,,,,,,,,,,,,,,,,,,,,,KZXV9K,train_y,blue_star,top_right,2025-07-05_13h30.39.936,HideSeek_v1,2022.2.5,60.40668194802802,
,8,7,8,2,0,-5,66,,train_dim1_1,2,30,,,,2,0,2,0,,,,,,,,,0,0,0,0,0,1,1,1,4,0,4,0,,,,,,,,,,,,,,,,,,,,,,,,,,,,,,,,,,,,,,,,,,,,,,,,,,,,,,,,,,,,,,,,30,,,,,,,,374.0709794999566,374.0709794999566,374.0709794999566,374.0709794999566,374.0709794999566,return,2.7452334999106824,0,0,0,0,0.15999999999999992,0.16,return,2.6661514998413622,0,-4,0.15999999999999992,0.16,,,,,,,,,,,,,,,,,,,,,,,,,,,,,,,,,,,,,,,,,,,,,,,,,,,,,,,,KZXV9K,train_y,blue_star,top_right,2025-07-05_13h30.39.936,HideSeek_v1,2022.2.5,60.40668194802802,
,7,8,7,5,0,-3,64,,train_dim1_1,3,30,,,,2,0,2,0,,,,,,,,,0,0,0,0,0,2,2,2,0,0,0,0,,,,,,,,,,,,,,,,,,,,,,,,,stimuli/alien_stimuli/64.png,,,,,,,,,,,,,,,,,,,,,,,,,,,,,stimuli/alien_stimuli/66.png,66,8,4,,,,,,,30,,,,,,,,393.7291198000312,393.7291198000312,393.7291198000312,393.7291198000312,393.7291198000312,right,2.8222109999042004,0,0,0,99,0.48000000000000004,0.24,right,2.7212260998785496,,,,,392.1561902000103,393.7291198000312,0.48,-0.24,0.4,0.0,-0.039999999999999994,0.48,0.48,0.48,-0.24,378.3874977999367,378.3874977999367,378.3874977999367,378.3874977999367,378.3874977999367,378.3874977999367,378.3874977999367,378.3874977999367,378.37797809997573,13.88056920003146,return,13.742692299885675,,,,,,,,,,,,,,,,,,,,,,,,,,,,,,,,,KZXV9K,train_y,blue_star,top_right,2025-07-05_13h30.39.936,HideSeek_v1,2022.2.5,60.40668194802802,
,7,8,7,5,0,-3,64,,train_dim1_1,3,30,,,,2,0,2,0,,,,,,,,,0,0,0,0,0,2,2,2,1,0,1,0,,,,,,,,,,,,,,,,,,,,,,,,,,,,,,,,,,,,,,,,,,,,,,,,,,,,,,,,,,,,,,,,30,,,,,,,,396.5419268000405,396.5419268000405,396.5419268000405,396.5419268000405,396.5419268000405,down,1.842507499968633,0,0,0,99,0.48000000000000004,0.15999999999999998,down,1.757903999881819,,,,,,,,,,,,,,,,,,,,,,,,,,,,,,,,,,,,,,,,,,,,,,,,,,,,,,,,,,,,KZXV9K,train_y,blue_star,top_right,2025-07-05_13h30.39.936,HideSeek_v1,2022.2.5,60.40668194802802,
,7,8,7,5,0,-3,64,,train_dim1_1,3,30,,,,2,0,2,0,,,,,,,,,0,0,0,0,0,2,2,2,2,0,2,0,,,,,,,,,,,,,,,,,,,,,,,,,,,,,,,,,,,,,,,,,,,,,,,,,,,,,,,,,,,,,,,,30,,,,,,,,398.3915528000798,398.3915528000798,398.3915528000798,398.3915528000798,398.3915528000798,down,0.6601561999414116,0,0,0,99,0.48000000000000004,0.07999999999999997,down,0.5781731000170112,,,,,,,,,,,,,,,,,,,,,,,,,,,,,,,,,,,,,,,,,,,,,,,,,,,,,,,,,,,,KZXV9K,train_y,blue_star,top_right,2025-07-05_13h30.39.936,HideSeek_v1,2022.2.5,60.40668194802802,
,7,8,7,5,0,-3,64,,train_dim1_1,3,30,,,,2,0,2,0,,,,,,,,,0,0,0,0,0,2,2,2,3,0,3,0,,,,,,,,,,,,,,,,,,,,,,,,,,,,,,,,,,,,,,,,,,,,,,,,,,,,,,,,,,,,,,,,30,,,,,,,,399.0576172999572,399.0576172999572,399.0576172999572,399.0576172999572,399.0576172999572,down,1.544156099902466,0,0,0,99,0.48000000000000004,-2.7755575615628914e-17,down,1.4715209999121726,,,,,,,,,,,,,,,,,,,,,,,,,,,,,,,,,,,,,,,,,,,,,,,,,,,,,,,,,,,,KZXV9K,train_y,blue_star,top_right,2025-07-05_13h30.39.936,HideSeek_v1,2022.2.5,60.40668194802802,
,7,8,7,5,0,-3,64,,train_dim1_1,3,30,,,,2,0,2,0,,,,,,,,,0,0,0,0,0,2,2,2,4,0,4,0,,,,,,,,,,,,,,,,,,,,,,,,,,,,,,,,,,,,,,,,,,,,,,,,,,,,,,,,,,,,,,,,30,,,,,,,,400.6089143999852,400.6089143999852,400.6089143999852,400.6089143999852,400.6089143999852,left,1.7776848999783397,0,0,0,99,0.4,-2.7755575615628914e-17,left,1.694614099804312,,,,,,,,,,,,,,,,,,,,,,,,,,,,,,,,,,,,,,,,,,,,,,,,,,,,,,,,,,,,KZXV9K,train_y,blue_star,top_right,2025-07-05_13h30.39.936,HideSeek_v1,2022.2.5,60.40668194802802,
,7,8,7,5,0,-3,64,,train_dim1_1,3,30,,,,2,0,2,0,,,,,,,,,0,0,0,0,0,2,2,2,5,0,5,0,,,,,,,,,,,,,,,,,,,,,,,,,,,,,,,,,,,,,,,,,,,,,,,,,,,,,,,,,,,,,,,,30,,,,,,,,402.3939918000251,402.3939918000251,402.3939918000251,402.3939918000251,402.3939918000251,down,1.177176000084728,0,0,0,99,0.4,-0.08000000000000003,down,1.1055109999142587,,,,,,,,,,,,,,,,,,,,,,,,,,,,,,,,,,,,,,,,,,,,,,,,,,,,,,,,,,,,KZXV9K,train_y,blue_star,top_right,2025-07-05_13h30.39.936,HideSeek_v1,2022.2.5,60.40668194802802,
,7,8,7,5,0,-3,64,,train_dim1_1,3,30,,,,2,0,2,0,,,,,,,,,0,0,0,0,0,2,2,2,6,0,6,0,,,,,,,,,,,,,,,,,,,,,,,,,,,,,,,,,,,,,,,,,,,,,,,,,,,,,,,,,,,,,,,,30,,,,,,,,403.57880709995516,403.57880709995516,403.57880709995516,403.57880709995516,403.57880709995516,down,4.663565000053495,0,0,0,99,0.4,-0.16000000000000003,down,4.579424999887124,,,,,,,,,,,,,,,,,,,,,,,,,,,,,,,,,,,,,,,,,,,,,,,,,,,,,,,,,,,,KZXV9K,train_y,blue_star,top_right,2025-07-05_13h30.39.936,HideSeek_v1,2022.2.5,60.40668194802802,
,7,8,7,5,0,-3,64,,train_dim1_1,3,30,,,,2,0,2,0,,,,,,,,,0,0,0,0,0,2,2,2,7,0,7,0,,,,,,,,,,,,,,,,,,,,,,,,,,,,,,,,,,,,,,,,,,,,,,,,,,,,,,,,,,,,,,,,30,,,,,,,,408.24989739991724,408.24989739991724,408.24989739991724,408.24989739991724,408.24989739991724,left,0.8437520998995751,0,0,0,99,0.32,-0.16000000000000003,left,0.7704892000183463,,,,,,,,,,,,,,,,,,,,,,,,,,,,,,,,,,,,,,,,,,,,,,,,,,,,,,,,,,,,KZXV9K,train_y,blue_star,top_right,2025-07-05_13h30.39.936,HideSeek_v1,2022.2.5,60.40668194802802,
,7,8,7,5,0,-3,64,,train_dim1_1,3,30,,,,2,0,2,0,,,,,,,,,0,0,0,0,0,2,2,2,8,0,8,0,,,,,,,,,,,,,,,,,,,,,,,,,,,,,,,,,,,,,,,,,,,,,,,,,,,,,,,,,,,,,,,,30,,,,,,,,409.10014629992656,409.10014629992656,409.10014629992656,409.10014629992656,409.10014629992656,left,0.5603094000834972,0,0,0,99,0.24,-0.16000000000000003,left,0.47803949983790517,,,,,,,,,,,,,,,,,,,,,,,,,,,,,,,,,,,,,,,,,,,,,,,,,,,,,,,,,,,,KZXV9K,train_y,blue_star,top_right,2025-07-05_13h30.39.936,HideSeek_v1,2022.2.5,60.40668194802802,
,7,8,7,5,0,-3,64,,train_dim1_1,3,30,,,,2,0,2,0,,,,,,,,,0,0,0,0,0,2,2,2,9,0,9,0,,,,,,,,,,,,,,,,,,,,,,,,,,,,,,,,,,,,,,,,,,,,,,,,,,,,,,,,,,,,,,,,30,,,,,,,,409.6669143999461,409.6669143999461,409.6669143999461,409.6669143999461,409.6669143999461,up,1.6440608999691904,0,0,0,99,0.24,-0.08000000000000003,up,1.5700529997702688,,,,,,,,,,,,,,,,,,,,,,,,,,,,,,,,,,,,,,,,,,,,,,,,,,,,,,,,,,,,KZXV9K,train_y,blue_star,top_right,2025-07-05_13h30.39.936,HideSeek_v1,2022.2.5,60.40668194802802,
,7,8,7,5,0,-3,64,,train_dim1_1,3,30,,,,2,0,2,0,,,,,,,,,0,0,0,0,0,2,2,2,10,0,10,0,,,,,,,,,,,,,,,,,,,,,,,,,,,,,,,,,,,,,,,,,,,,,,,,,,,,,,,,,,,,,,,,30,,,,,,,,411.3177062999457,411.3177062999457,411.3177062999457,411.3177062999457,411.3177062999457,up,0.92714609997347,0,0,0,99,0.24,-2.7755575615628914e-17,up,0.8559814998880029,,,,,,,,,,,,,,,,,,,,,,,,,,,,,,,,,,,,,,,,,,,,,,,,,,,,,,,,,,,,KZXV9K,train_y,blue_star,top_right,2025-07-05_13h30.39.936,HideSeek_v1,2022.2.5,60.40668194802802,
,7,8,7,5,0,-3,64,,train_dim1_1,3,30,,,,2,0,2,0,,,,,,,,,0,0,0,0,0,2,2,2,11,0,11,0,,,,,,,,,,,,,,,,,,,,,,,,,,,,,,,,,,,,,,,,,,,,,,,,,,,,,,,,,,,,,,,,30,,,,,,,,412.25233280006796,412.25233280006796,412.25233280006796,412.25233280006796,412.25233280006796,up,0.7436841998714954,0,0,0,99,0.24,0.07999999999999997,up,0.6699630997609347,,,,,,,,,,,,,,,,,,,,,,,,,,,,,,,,,,,,,,,,,,,,,,,,,,,,,,,,,,,,KZXV9K,train_y,blue_star,top_right,2025-07-05_13h30.39.936,HideSeek_v1,2022.2.5,60.40668194802802,
,7,8,7,5,0,-3,64,,train_dim1_1,3,30,,,,2,0,2,0,,,,,,,,,0,0,0,0,0,2,2,2,12,0,12,0,,,,,,,,,,,,,,,,,,,,,,,,,,,,,,,,,,,,,,,,,,,,,,,,,,,,,,,,,,,,,,,,30,,,,,,,,413.0024337999057,413.0024337999057,413.0024337999057,413.0024337999057,413.0024337999057,up,0.7437499999068677,0,0,0,99,0.24,0.15999999999999998,up,0.6590596998576075,,,,,,,,,,,,,,,,,,,,,,,,,,,,,,,,,,,,,,,,,,,,,,,,,,,,,,,,,,,,KZXV9K,train_y,blue_star,top_right,2025-07-05_13h30.39.936,HideSeek_v1,2022.2.5,60.40668194802802,
,7,8,7,5,0,-3,64,,train_dim1_1,3,30,,,,2,0,2,0,,,,,,,,,0,0,0,0,0,2,2,2,13,0,13,0,,,,,,,,,,,,,,,,,,,,,,,,,,,,,,,,,,,,,,,,,,,,,,,,,,,,,,,,,,,,,,,,30,,,,,,,,413.7535224999301,413.7535224999301,413.7535224999301,413.7535224999301,413.7535224999301,left,1.1605796001385897,0,0,0,99,0.15999999999999998,0.15999999999999998,left,1.084444799926132,,,,,,,,,,,,,,,,,,,,,,,,,,,,,,,,,,,,,,,,,,,,,,,,,,,,,,,,,,,,KZXV9K,train_y,blue_star,top_right,2025-07-05_13h30.39.936,HideSeek_v1,2022.2.5,60.40668194802802,
,7,8,7,5,0,-3,64,,train_dim1_1,3,30,,,,2,0,2,0,,,,,,,,,0,0,0,0,0,2,2,2,14,0,14,0,,,,,,,,,,,,,,,,,,,,,,,,,,,,,,,,,,,,,,,,,,,,,,,,,,,,,,,,,,,,,,,,30,,,,,,,,414.92139680008404,414.92139680008404,414.92139680008404,414.92139680008404,414.92139680008404,up,0.45944519992917776,0,0,0,99,0.15999999999999998,0.24,up,0.3839191999286413,,,,,,,,,,,,,,,,,,,,,,,,,,,,,,,,,,,,,,,,,,,,,,,,,,,,,,,,,,,,KZXV9K,train_y,blue_star,top_right,2025-07-05_13h30.39.936,HideSeek_v1,2022.2.5,60.40668194802802,
,7,8,7,5,0,-3,64,,train_dim1_1,3,30,,,,2,0,2,0,,,,,,,,,0,0,0,0,0,2,2,2,15,0,15,0,,,,,,,,,,,,,,,,,,,,,,,,,,,,,,,,,,,,,,,,,,,,,,,,,,,,,,,,,,,,,,,,30,,,,,,,,415.3881632001139,415.3881632001139,415.3881632001139,415.3881632001139,415.3881632001139,left,1.277377399848774,0,0,0,99,0.07999999999999997,0.24,left,1.1967696999199688,,,,,,,,,,,,,,,,,,,,,,,,,,,,,,,,,,,,,,,,,,,,,,,,,,,,,,,,,,,,KZXV9K,train_y,blue_star,top_right,2025-07-05_13h30.39.936,HideSeek_v1,2022.2.5,60.40668194802802,
,7,8,7,5,0,-3,64,,train_dim1_1,3,30,,,,2,0,2,0,,,,,,,,,0,0,0,0,0,2,2,2,16,0,16,0,,,,,,,,,,,,,,,,,,,,,,,,,,,,,,,,,,,,,,,,,,,,,,,,,,,,,,,,,,,,,,,,30,,,,,,,,416.6730472999625,416.6730472999625,416.6730472999625,416.6730472999625,416.6730472999625,return,0.9767371001653373,0,0,0,0,0.07999999999999997,0.24,return,0.8966077999211848,0,-8,0.07999999999999997,0.24,,,,,,,,,,,,,,,,,,,,,,,,,,,,,,,,,,,,,,,,,,,,,,,,,,,,,,,,KZXV9K,train_y,blue_star,top_right,2025-07-05_13h30.39.936,HideSeek_v1,2022.2.5,60.40668194802802,
,5,6,5,5,0,-1,62,,train_dim1_1,4,30,,,,2,0,2,0,,,,,,,,,0,0,0,0,0,3,3,3,0,0,0,0,,,,,,,,,,,,,,,,,,,,,,,,,stimuli/alien_stimuli/62.png,,,,,,,,,,,,,,,,,,,,,,,,,,,,,stimuli/alien_stimuli/64.png,64,7,5,,,,,,,30,,,,,,,,425.9210715999361,425.9210715999361,425.9210715999361,425.9210715999361,425.9210715999361,down,2.5064614999573678,0,0,0,99,0.24,0.0,down,2.419381099753082,,,,,424.36623369995505,425.9210715999361,0.4,0,0.24,0.0,0.12,0.4,0.4,0.4,0,419.21829289989546,419.21829289989546,419.21829289989546,419.21829289989546,419.21829289989546,419.21829289989546,419.21829289989546,419.21829289989546,419.21156629989855,5.256995900068432,return,5.116484700003639,,,,,,,,,,,,,,,,,,,,,,,,,,,,,,,,,KZXV9K,train_y,blue_star,top_right,2025-07-05_13h30.39.936,HideSeek_v1,2022.2.5,60.40668194802802,
,5,6,5,5,0,-1,62,,train_dim1_1,4,30,,,,2,0,2,0,,,,,,,,,0,0,0,0,0,3,3,3,1,0,1,0,,,,,,,,,,,,,,,,,,,,,,,,,,,,,,,,,,,,,,,,,,,,,,,,,,,,,,,,,,,,,,,,30,,,,,,,,428.43425130005926,428.43425130005926,428.43425130005926,428.43425130005926,428.43425130005926,down,0.72616620012559,0,0,0,99,0.24,-0.08,down,0.6524892998859286,,,,,,,,,,,,,,,,,,,,,,,,,,,,,,,,,,,,,,,,,,,,,,,,,,,,,,,,,,,,KZXV9K,train_y,blue_star,top_right,2025-07-05_13h30.39.936,HideSeek_v1,2022.2.5,60.40668194802802,
,5,6,5,5,0,-1,62,,train_dim1_1,4,30,,,,2,0,2,0,,,,,,,,,0,0,0,0,0,3,3,3,2,0,2,0,,,,,,,,,,,,,,,,,,,,,,,,,,,,,,,,,,,,,,,,,,,,,,,,,,,,,,,,,,,,,,,,30,,,,,,,,429.16707860003226,429.16707860003226,429.16707860003226,429.16707860003226,429.16707860003226,down,2.2777090000454336,0,0,0,99,0.24,-0.16,down,2.190978500060737,,,,,,,,,,,,,,,,,,,,,,,,,,,,,,,,,,,,,,,,,,,,,,,,,,,,,,,,,,,,KZXV9K,train_y,blue_star,top_right,2025-07-05_13h30.39.936,HideSeek_v1,2022.2.5,60.40668194802802,
,5,6,5,5,0,-1,62,,train_dim1_1,4,30,,,,2,0,2,0,,,,,,,,,0,0,0,0,0,3,3,3,3,0,3,0,,,,,,,,,,,,,,,,,,,,,,,,,,,,,,,,,,,,,,,,,,,,,,,,,,,,,,,,,,,,,,,,30,,,,,,,,431.4521711000707,431.4521711000707,431.4521711000707,431.4521711000707,431.4521711000707,return,2.211434000171721,0,0,0,0,0.24,-0.16,return,2.1385315998923033,-3,-8,0.24,-0.16,,,,,,,,,,,,,,,,,,,,,,,,,,,,,,,,,,,,,,,,,,,,,,,,,,,,,,,,KZXV9K,train_y,blue_star,top_right,2025-07-05_13h30.39.936,HideSeek_v1,2022.2.5,60.40668194802802,
,8,8,8,8,0,0,61,,train_dim1_1,5,30,,,,2,0,2,0,,,,,,,,,0,0,0,0,0,4,4,4,0,0,0,0,,,,,,,,,,,,,,,,,,,,,,,,,stimuli/alien_stimuli/61.png,,,,,,,,,,,,,,,,,,,,,,,,,,,,,stimuli/alien_stimuli/62.png,62,5,6,,,,,,,30,,,,,,,,441.01677730004303,441.01677730004303,441.01677730004303,441.01677730004303,441.01677730004303,down,1.437690399819985,0,0,0,99,0.48,0.15999999999999998,down,1.360052599804476,,,,,439.46225679991767,441.01677730004303,0.24,0,0.08,0.0,0.04,0.24,0.24,0.24,0,435.2325603000354,435.2325603000354,435.2325603000354,435.2325603000354,435.2325603000354,435.2325603000354,435.2325603000354,435.2325603000354,435.225150299957,4.339218799956143,return,4.21279380004853,,,,,,,,,,,,,,,,,,,,,,,,,,,,,,,,,KZXV9K,train_y,blue_star,top_right,2025-07-05_13h30.39.936,HideSeek_v1,2022.2.5,60.40668194802802,
,8,8,8,8,0,0,61,,train_dim1_1,5,30,,,,2,0,2,0,,,,,,,,,0,0,0,0,0,4,4,4,1,0,1,0,,,,,,,,,,,,,,,,,,,,,,,,,,,,,,,,,,,,,,,,,,,,,,,,,,,,,,,,,,,,,,,,30,,,,,,,,442.4616062999703,442.4616062999703,442.4616062999703,442.4616062999703,442.4616062999703,down,0.6760761998593807,0,0,0,99,0.48,0.07999999999999997,down,0.598994700005278,,,,,,,,,,,,,,,,,,,,,,,,,,,,,,,,,,,,,,,,,,,,,,,,,,,,,,,,,,,,KZXV9K,train_y,blue_star,top_right,2025-07-05_13h30.39.936,HideSeek_v1,2022.2.5,60.40668194802802,
,8,8,8,8,0,0,61,,train_dim1_1,5,30,,,,2,0,2,0,,,,,,,,,0,0,0,0,0,4,4,4,2,0,2,0,,,,,,,,,,,,,,,,,,,,,,,,,,,,,,,,,,,,,,,,,,,,,,,,,,,,,,,,,,,,,,,,30,,,,,,,,443.1451820000075,443.1451820000075,443.1451820000075,443.1451820000075,443.1451820000075,up,1.6276797999162227,0,0,0,99,0.48,0.15999999999999998,up,1.5442952997982502,,,,,,,,,,,,,,,,,,,,,,,,,,,,,,,,,,,,,,,,,,,,,,,,,,,,,,,,,,,,KZXV9K,train_y,blue_star,top_right,2025-07-05_13h30.39.936,HideSeek_v1,2022.2.5,60.40668194802802,
,8,8,8,8,0,0,61,,train_dim1_1,5,30,,,,2,0,2,0,,,,,,,,,0,0,0,0,0,4,4,4,3,0,3,0,,,,,,,,,,,,,,,,,,,,,,,,,,,,,,,,,,,,,,,,,,,,,,,,,,,,,,,,,,,,,,,,30,,,,,,,,444.7806089001242,444.7806089001242,444.7806089001242,444.7806089001242,444.7806089001242,return,1.9611611000727862,0,1,0,0,0.48,0.15999999999999998,return,1.8860865000169724,-4,-8,0.48,0.15999999999999998,,,,,,,,,,,,,,,,,,,,,,,,,,,,,,,,,,,,,,,,,,,,,,,,,,,,,,,,KZXV9K,train_y,blue_star,top_right,2025-07-05_13h30.39.936,HideSeek_v1,2022.2.5,60.40668194802802,
,6,9,6,8,0,-1,62,,train_dim1_1,6,30,,,,2,0,2,0,,,,,,,,,0,0,0,0,0,5,5,5,0,0,0,0,,,,,,,,,,,,,,,,,,,,,,,,,stimuli/alien_stimuli/62.png,,,,,,,,,,,,,,,,,,,,,,,,,,,,,stimuli/alien_stimuli/61.png,61,8,7,,,,,,,30,,,,,,,,463.9646548999008,463.9646548999008,463.9646548999008,463.9646548999008,463.9646548999008,right,2.3575495998375118,0,1,0,99,0.4,0.32,right,2.2688913999591023,,,,,462.39784230012447,463.9646548999008,0.48,0.24,0.0,0.0,0.24,0.48,0.48,0.48,0.24,448.3133094001096,448.3133094001096,448.3133094001096,448.3133094001096,448.3133094001096,448.3133094001096,448.3133094001096,448.3133094001096,448.3026544000022,14.197210100013763,return,14.059410699876025,,,,,,,,,,,,,,,,,,,,,,,,,,,,,,,,,KZXV9K,train_y,blue_star,top_right,2025-07-05_13h30.39.936,HideSeek_v1,2022.2.5,60.40668194802802,
,6,9,6,8,0,-1,62,,train_dim1_1,6,30,,,,2,0,2,0,,,,,,,,,0,0,0,0,0,5,5,5,1,0,1,0,,,,,,,,,,,,,,,,,,,,,,,,,,,,,,,,,,,,,,,,,,,,,,,,,,,,,,,,,,,,,,,,30,,,,,,,,466.3148034999613,466.3148034999613,466.3148034999613,466.3148034999613,466.3148034999613,left,2.811818800168112,0,1,0,99,0.32,0.32,left,2.727427899837494,,,,,,,,,,,,,,,,,,,,,,,,,,,,,,,,,,,,,,,,,,,,,,,,,,,,,,,,,,,,KZXV9K,train_y,blue_star,top_right,2025-07-05_13h30.39.936,HideSeek_v1,2022.2.5,60.40668194802802,
,6,9,6,8,0,-1,62,,train_dim1_1,6,30,,,,2,0,2,0,,,,,,,,,0,0,0,0,0,5,5,5,2,0,2,0,,,,,,,,,,,,,,,,,,,,,,,,,,,,,,,,,,,,,,,,,,,,,,,,,,,,,,,,,,,,,,,,30,,,,,,,,469.1342098999303,469.1342098999303,469.1342098999303,469.1342098999303,469.1342098999303,return,0.6586632998660207,0,1,0,0,0.32,0.32,return,0.5804055000189692,-4,-8,0.32,0.32,,,,,,,,,,,,,,,,,,,,,,,,,,,,,,,,,,,,,,,,,,,,,,,,,,,,,,,,KZXV9K,train_y,blue_star,top_right,2025-07-05_13h30.39.936,HideSeek_v1,2022.2.5,60.40668194802802,
,6,8,6,5,0,-3,64,,train_dim1_1,7,30,,,,2,0,2,0,,,,,,,,,0,0,0,0,0,6,6,6,0,0,0,0,,,,,,,,,,,,,,,,,,,,,,,,,stimuli/alien_stimuli/64.png,,,,,,,,,,,,,,,,,,,,,,,,,,,,,stimuli/alien_stimuli/62.png,62,6,8,,,,,,,30,,,,,,,,477.36425910005346,477.36425910005346,477.36425910005346,477.36425910005346,477.36425910005346,down,4.856045300140977,0,1,0,99,0.32,0.15999999999999998,down,4.771083100000396,,,,,475.8088078999426,477.36425910005346,0.32,0.24,0.08,0.0,0.28,0.32,0.32,0.32,0.24,471.36573789990507,471.36573789990507,471.36573789990507,471.36573789990507,471.36573789990507,471.36573789990507,471.36573789990507,471.36573789990507,471.3549956998322,4.556427699979395,return,4.426537899766117,,,,,,,,,,,,,,,,,,,,,,,,,,,,,,,,,KZXV9K,train_y,blue_star,top_right,2025-07-05_13h30.39.936,HideSeek_v1,2022.2.5,60.40668194802802,
,6,8,6,5,0,-3,64,,train_dim1_1,7,30,,,,2,0,2,0,,,,,,,,,0,0,0,0,0,6,6,6,1,0,1,0,,,,,,,,,,,,,,,,,,,,,,,,,,,,,,,,,,,,,,,,,,,,,,,,,,,,,,,,,,,,,,,,30,,,,,,,,482.2296035999898,482.2296035999898,482.2296035999898,482.2296035999898,482.2296035999898,down,0.5418579999823123,0,1,0,99,0.32,0.07999999999999997,down,0.4683013998437673,,,,,,,,,,,,,,,,,,,,,,,,,,,,,,,,,,,,,,,,,,,,,,,,,,,,,,,,,,,,KZXV9K,train_y,blue_star,top_right,2025-07-05_13h30.39.936,HideSeek_v1,2022.2.5,60.40668194802802,
,6,8,6,5,0,-3,64,,train_dim1_1,7,30,,,,2,0,2,0,,,,,,,,,0,0,0,0,0,6,6,6,2,0,2,0,,,,,,,,,,,,,,,,,,,,,,,,,,,,,,,,,,,,,,,,,,,,,,,,,,,,,,,,,,,,,,,,30,,,,,,,,482.77706600003876,482.77706600003876,482.77706600003876,482.77706600003876,482.77706600003876,down,0.4432759000919759,0,1,0,99,0.32,-2.7755575615628914e-17,down,0.371396099915728,,,,,,,,,,,,,,,,,,,,,,,,,,,,,,,,,,,,,,,,,,,,,,,,,,,,,,,,,,,,KZXV9K,train_y,blue_star,top_right,2025-07-05_13h30.39.936,HideSeek_v1,2022.2.5,60.40668194802802,
,6,8,6,5,0,-3,64,,train_dim1_1,7,30,,,,2,0,2,0,,,,,,,,,0,0,0,0,0,6,6,6,3,0,3,0,,,,,,,,,,,,,,,,,,,,,,,,,,,,,,,,,,,,,,,,,,,,,,,,,,,,,,,,,,,,,,,,30,,,,,,,,483.2272280000616,483.2272280000616,483.2272280000616,483.2272280000616,483.2272280000616,return,0.7439129999838769,1,0,0,1,0.32,-2.7755575615628914e-17,return,0.664182199863717,-7,-8,0.32,-2.7755575615628914e-17,,,,,,,,,,,,,,,,,,,,,,,,,,,,,,,,,,,,,,,,,,,,,,,,,,,,,,,,KZXV9K,train_y,blue_star,top_right,2025-07-05_13h30.39.936,HideSeek_v1,2022.2.5,60.40668194802802,
,9,7,9,7,0,0,61,,train_dim1_1,8,30,,,,2,0,2,0,,,,,,,,,0,0,0,0,0,7,7,7,0,0,0,0,,,,,,,,,,,,,,,,,,,,,,,,,stimuli/alien_stimuli/61.png,,,,,,,,,,,,,,,,,,,,,,,,,,,,,stimuli/alien_stimuli/64.png,64,6,9,,,,,,,30,,,,,,,,490.6992198000662,490.6992198000662,490.6992198000662,490.6992198000662,490.6992198000662,left,3.5702773998491466,1,0,0,99,0.48000000000000004,0.16,left,3.4828733999747783,,,,,489.13638429995626,490.6992198000662,0.32,0,0.24,0.0,0.12,0.32,0.32,0.32,0,485.5402973999735,485.5402973999735,485.5402973999735,485.5402973999735,485.5402973999735,485.5402973999735,485.5402973999735,485.5402973999735,485.5333991998341,3.7057239999994636,return,3.5767259998247027,,,,,,,,,,,,,,,,,,,,,,,,,,,,,,,,,KZXV9K,train_y,blue_star,top_right,2025-07-05_13h30.39.936,HideSeek_v1,2022.2.5,60.40668194802802,
,9,7,9,7,0,0,61,,train_dim1_1,8,30,,,,2,0,2,0,,,,,,,,,0,0,0,0,0,7,7,7,1,0,1,0,,,,,,,,,,,,,,,,,,,,,,,,,,,,,,,,,,,,,,,,,,,,,,,,,,,,,,,,,,,,,,,,30,,,,,,,,494.2717075999826,494.2717075999826,494.2717075999826,494.2717075999826,494.2717075999826,left,0.4930020000319928,1,0,0,99,0.4,0.16,left,0.42021969985216856,,,,,,,,,,,,,,,,,,,,,,,,,,,,,,,,,,,,,,,,,,,,,,,,,,,,,,,,,,,,KZXV9K,train_y,blue_star,top_right,2025-07-05_13h30.39.936,HideSeek_v1,2022.2.5,60.40668194802802,
,9,7,9,7,0,0,61,,train_dim1_1,8,30,,,,2,0,2,0,,,,,,,,,0,0,0,0,0,7,7,7,2,0,2,0,,,,,,,,,,,,,,,,,,,,,,,,,,,,,,,,,,,,,,,,,,,,,,,,,,,,,,,,,,,,,,,,30,,,,,,,,494.7725782999769,494.7725782999769,494.7725782999769,494.7725782999769,494.7725782999769,left,0.47708299988880754,1,0,0,99,0.32,0.16,left,0.4008623999543488,,,,,,,,,,,,,,,,,,,,,,,,,,,,,,,,,,,,,,,,,,,,,,,,,,,,,,,,,,,,KZXV9K,train_y,blue_star,top_right,2025-07-05_13h30.39.936,HideSeek_v1,2022.2.5,60.40668194802802,
,9,7,9,7,0,0,61,,train_dim1_1,8,30,,,,2,0,2,0,,,,,,,,,0,0,0,0,0,7,7,7,3,0,3,0,,,,,,,,,,,,,,,,,,,,,,,,,,,,,,,,,,,,,,,,,,,,,,,,,,,,,,,,,,,,,,,,30,,,,,,,,495.25507270009257,495.25507270009257,495.25507270009257,495.25507270009257,495.25507270009257,left,0.5098991999402642,1,0,0,99,0.24,0.16,left,0.4237185998354107,,,,,,,,,,,,,,,,,,,,,,,,,,,,,,,,,,,,,,,,,,,,,,,,,,,,,,,,,,,,KZXV9K,train_y,blue_star,top_right,2025-07-05_13h30.39.936,HideSeek_v1,2022.2.5,60.40668194802802,
,9,7,9,7,0,0,61,,train_dim1_1,8,30,,,,2,0,2,0,,,,,,,,,0,0,0,0,0,7,7,7,4,0,4,0,,,,,,,,,,,,,,,,,,,,,,,,,,,,,,,,,,,,,,,,,,,,,,,,,,,,,,,,,,,,,,,,30,,,,,,,,495.7725573000498,495.7725573000498,495.7725573000498,495.7725573000498,495.7725573000498,left,0.44350449997000396,1,0,0,99,0.15999999999999998,0.16,left,0.3599566000048071,,,,,,,,,,,,,,,,,,,,,,,,,,,,,,,,,,,,,,,,,,,,,,,,,,,,,,,,,,,,KZXV9K,train_y,blue_star,top_right,2025-07-05_13h30.39.936,HideSeek_v1,2022.2.5,60.40668194802802,
,9,7,9,7,0,0,61,,train_dim1_1,8,30,,,,2,0,2,0,,,,,,,,,0,0,0,0,0,7,7,7,5,0,5,0,,,,,,,,,,,,,,,,,,,,,,,,,,,,,,,,,,,,,,,,,,,,,,,,,,,,,,,,,,,,,,,,30,,,,,,,,496.2225496999454,496.2225496999454,496.2225496999454,496.2225496999454,496.2225496999454,return,0.8938923999667168,1,0,0,0,0.15999999999999998,0.16,return,0.8065662998706102,-7,-13,0.15999999999999998,0.16,,,,,,,,,,,,,,,,,,,,,,,,,,,,,,,,,,,,,,,,,,,,,,,,,,,,,,,,KZXV9K,train_y,blue_star,top_right,2025-07-05_13h30.39.936,HideSeek_v1,2022.2.5,60.40668194802802,
,9,8,9,4,0,-4,65,,train_dim1_1,9,30,,,,2,0,2,0,,,,,,,,,0,0,0,0,0,8,8,8,0,0,0,0,,,,,,,,,,,,,,,,,,,,,,,,,stimuli/alien_stimuli/65.png,,,,,,,,,,,,,,,,,,,,,,,,,,,,,stimuli/alien_stimuli/61.png,61,9,10,,,,,,,30,,,,,,,,503.13420820003375,503.13420820003375,503.13420820003375,503.13420820003375,503.13420820003375,left,1.6241864999756217,1,0,0,99,0.48000000000000004,0.24,left,1.5421608998440206,,,,,501.5634339998942,503.13420820003375,0.56,0.16,0.0,0.0,0.16,0.56,0.56,0.56,0.16,498.6841710000299,498.6841710000299,498.6841710000299,498.6841710000299,498.6841710000299,498.6841710000299,498.6841710000299,498.6841710000299,498.6777704998385,2.9880852999631315,return,2.8590529998764396,,,,,,,,,,,,,,,,,,,,,,,,,,,,,,,,,KZXV9K,train_y,blue_star,top_right,2025-07-05_13h30.39.936,HideSeek_v1,2022.2.5,60.40668194802802,
,9,8,9,4,0,-4,65,,train_dim1_1,9,30,,,,2,0,2,0,,,,,,,,,0,0,0,0,0,8,8,8,1,0,1,0,,,,,,,,,,,,,,,,,,,,,,,,,,,,,,,,,,,,,,,,,,,,,,,,,,,,,,,,,,,,,,,,30,,,,,,,,504.76283530006185,504.76283530006185,504.76283530006185,504.76283530006185,504.76283530006185,left,0.4263557998929173,1,0,0,99,0.4,0.24,left,0.3429989998694509,,,,,,,,,,,,,,,,,,,,,,,,,,,,,,,,,,,,,,,,,,,,,,,,,,,,,,,,,,,,KZXV9K,train_y,blue_star,top_right,2025-07-05_13h30.39.936,HideSeek_v1,2022.2.5,60.40668194802802,
,9,8,9,4,0,-4,65,,train_dim1_1,9,30,,,,2,0,2,0,,,,,,,,,0,0,0,0,0,8,8,8,2,0,2,0,,,,,,,,,,,,,,,,,,,,,,,,,,,,,,,,,,,,,,,,,,,,,,,,,,,,,,,,,,,,,,,,30,,,,,,,,505.2019138999749,505.2019138999749,505.2019138999749,505.2019138999749,505.2019138999749,left,0.6936629000119865,1,0,0,99,0.32,0.24,left,0.6157266998197883,,,,,,,,,,,,,,,,,,,,,,,,,,,,,,,,,,,,,,,,,,,,,,,,,,,,,,,,,,,,KZXV9K,train_y,blue_star,top_right,2025-07-05_13h30.39.936,HideSeek_v1,2022.2.5,60.40668194802802,
,9,8,9,4,0,-4,65,,train_dim1_1,9,30,,,,2,0,2,0,,,,,,,,,0,0,0,0,0,8,8,8,3,0,3,0,,,,,,,,,,,,,,,,,,,,,,,,,,,,,,,,,,,,,,,,,,,,,,,,,,,,,,,,,,,,,,,,30,,,,,,,,505.90085390000604,505.90085390000604,505.90085390000604,505.90085390000604,505.90085390000604,left,0.4599410998634994,1,0,0,99,0.24,0.24,left,0.3686096998862922,,,,,,,,,,,,,,,,,,,,,,,,,,,,,,,,,,,,,,,,,,,,,,,,,,,,,,,,,,,,KZXV9K,train_y,blue_star,top_right,2025-07-05_13h30.39.936,HideSeek_v1,2022.2.5,60.40668194802802,
,9,8,9,4,0,-4,65,,train_dim1_1,9,30,,,,2,0,2,0,,,,,,,,,0,0,0,0,0,8,8,8,4,0,4,0,,,,,,,,,,,,,,,,,,,,,,,,,,,,,,,,,,,,,,,,,,,,,,,,,,,,,,,,,,,,,,,,30,,,,,,,,506.3641739001032,506.3641739001032,506.3641739001032,506.3641739001032,506.3641739001032,left,0.40999630000442266,1,0,0,99,0.15999999999999998,0.24,left,0.32841909979470074,,,,,,,,,,,,,,,,,,,,,,,,,,,,,,,,,,,,,,,,,,,,,,,,,,,,,,,,,,,,KZXV9K,train_y,blue_star,top_right,2025-07-05_13h30.39.936,HideSeek_v1,2022.2.5,60.40668194802802,
,9,8,9,4,0,-4,65,,train_dim1_1,9,30,,,,2,0,2,0,,,,,,,,,0,0,0,0,0,8,8,8,5,0,5,0,,,,,,,,,,,,,,,,,,,,,,,,,,,,,,,,,,,,,,,,,,,,,,,,,,,,,,,,,,,,,,,,30,,,,,,,,506.78141060005873,506.78141060005873,506.78141060005873,506.78141060005873,506.78141060005873,return,0.7273002001456916,1,0,0,0,0.15999999999999998,0.24,return,0.646926699904725,-7,-18,0.15999999999999998,0.24,,,,,,,,,,,,,,,,,,,,,,,,,,,,,,,,,,,,,,,,,,,,,,,,,,,,,,,,KZXV9K,train_y,blue_star,top_right,2025-07-05_13h30.39.936,HideSeek_v1,2022.2.5,60.40668194802802,
,7,7,7,2,0,-5,66,,train_dim1_1,10,30,,,,2,0,2,0,,,,,,,,,0,0,0,0,0,9,9,9,0,0,0,0,,,,,,,,,,,,,,,,,,,,,,,,,stimuli/alien_stimuli/66.png,,,,,,,,,,,,,,,,,,,,,,,,,,,,,stimuli/alien_stimuli/65.png,65,9,11,,,,,,,30,,,,,,,,512.5301314000972,512.5301314000972,512.5301314000972,512.5301314000972,512.5301314000972,down,2.018168600043282,1,0,0,99,0.4,0.08,down,1.9395794000010937,,,,,510.9710868000984,512.5301314000972,0.56,-0.08,0.32,0.0,0.07999999999999999,0.56,0.56,0.56,-0.08,509.08242410002276,509.08242410002276,509.08242410002276,509.08242410002276,509.08242410002276,509.08242410002276,509.08242410002276,509.08242410002276,509.0697885998525,2.003373700194061,return,1.8657321999780834,,,,,,,,,,,,,,,,,,,,,,,,,,,,,,,,,KZXV9K,train_y,blue_star,top_right,2025-07-05_13h30.39.936,HideSeek_v1,2022.2.5,60.40668194802802,
,7,7,7,2,0,-5,66,,train_dim1_1,10,30,,,,2,0,2,0,,,,,,,,,0,0,0,0,0,9,9,9,1,0,1,0,,,,,,,,,,,,,,,,,,,,,,,,,,,,,,,,,,,,,,,,,,,,,,,,,,,,,,,,,,,,,,,,30,,,,,,,,514.5548225000966,514.5548225000966,514.5548225000966,514.5548225000966,514.5548225000966,down,1.026722699869424,1,0,0,99,0.4,0.0,down,0.9437972998712212,,,,,,,,,,,,,,,,,,,,,,,,,,,,,,,,,,,,,,,,,,,,,,,,,,,,,,,,,,,,KZXV9K,train_y,blue_star,top_right,2025-07-05_13h30.39.936,HideSeek_v1,2022.2.5,60.40668194802802,
,7,7,7,2,0,-5,66,,train_dim1_1,10,30,,,,2,0,2,0,,,,,,,,,0,0,0,0,0,9,9,9,2,0,2,0,,,,,,,,,,,,,,,,,,,,,,,,,,,,,,,,,,,,,,,,,,,,,,,,,,,,,,,,,,,,,,,,30,,,,,,,,515.5886025999207,515.5886025999207,515.5886025999207,515.5886025999207,515.5886025999207,down,2.3116160999052227,1,0,0,99,0.4,-0.08,down,2.23772109975107,,,,,,,,,,,,,,,,,,,,,,,,,,,,,,,,,,,,,,,,,,,,,,,,,,,,,,,,,,,,KZXV9K,train_y,blue_star,top_right,2025-07-05_13h30.39.936,HideSeek_v1,2022.2.5,60.40668194802802,
,7,7,7,2,0,-5,66,,train_dim1_1,10,30,,,,2,0,2,0,,,,,,,,,0,0,0,0,0,9,9,9,3,0,3,0,,,,,,,,,,,,,,,,,,,,,,,,,,,,,,,,,,,,,,,,,,,,,,,,,,,,,,,,,,,,,,,,30,,,,,,,,517.9069080001209,517.9069080001209,517.9069080001209,517.9069080001209,517.9069080001209,down,1.2107813998591155,1,0,0,99,0.4,-0.16,down,1.1289453997742385,,,,,,,,,,,,,,,,,,,,,,,,,,,,,,,,,,,,,,,,,,,,,,,,,,,,,,,,,,,,KZXV9K,train_y,blue_star,top_right,2025-07-05_13h30.39.936,HideSeek_v1,2022.2.5,60.40668194802802,
,7,7,7,2,0,-5,66,,train_dim1_1,10,30,,,,2,0,2,0,,,,,,,,,0,0,0,0,0,9,9,9,4,0,4,0,,,,,,,,,,,,,,,,,,,,,,,,,,,,,,,,,,,,,,,,,,,,,,,,,,,,,,,,,,,,,,,,30,,,,,,,,519.1247159000486,519.1247159000486,519.1247159000486,519.1247159000486,519.1247159000486,return,0.64359480002895,1,1,0,0,0.4,-0.16,return,0.5581205999478698,-11,-18,0.4,-0.16,,,,,,,,,,,,,,,,,,,,,,,,,,,,,,,,,,,,,,,,,,,,,,,,,,,,,,,,KZXV9K,train_y,blue_star,top_right,2025-07-05_13h30.39.936,HideSeek_v1,2022.2.5,60.40668194802802,
,9,6,9,2,0,-4,65,,train_dim1_1,11,30,,,,2,0,2,0,,,,,,,,,0,0,0,0,0,10,10,10,0,0,0,0,,,,,,,,,,,,,,,,,,,,,,,,,stimuli/alien_stimuli/65.png,,,,,,,,,,,,,,,,,,,,,,,,,,,,,stimuli/alien_stimuli/66.png,66,7,12,,,,,,,30,,,,,,,,526.1052594999783,526.1052594999783,526.1052594999783,526.1052594999783,526.1052594999783,return,0.5864684998523444,1,0,0,0,0.56,0.08,return,0.5006905999034643,-11,-18,0.56,0.08,524.5489966000896,526.1052594999783,0.4,-0.24,0.4,0.0,-0.039999999999999994,0.4,0.4,0.4,-0.24,521.340339000104,521.340339000104,521.340339000104,521.340339000104,521.340339000104,521.340339000104,521.340339000104,521.340339000104,521.3299395998474,3.3212367999367416,return,3.1878227998968214,,,,,,,,,,,,,,,,,,,,,,,,,,,,,,,,,KZXV9K,train_y,blue_star,top_right,2025-07-05_13h30.39.936,HideSeek_v1,2022.2.5,60.40668194802802,
,5,5,5,5,0,0,61,,train_dim1_1,12,30,,,,2,0,2,0,,,,,,,,,0,0,0,0,0,11,11,11,0,0,0,0,,,,,,,,,,,,,,,,,,,,,,,,,stimuli/alien_stimuli/61.png,,,,,,,,,,,,,,,,,,,,,,,,,,,,,stimuli/alien_stimuli/65.png,65,9,13,,,,,,,30,,,,,,,,532.1583428001031,532.1583428001031,532.1583428001031,532.1583428001031,532.1583428001031,return,2.5060622000601143,2,0,0,1,0.24,0,return,2.4323996999301016,-11,-18,0.24,0,530.6043068000581,532.1583428001031,0.56,-0.24,0.32,0.0,-0.07999999999999999,0.56,0.56,0.56,-0.24,528.2463795999065,528.2463795999065,528.2463795999065,528.2463795999065,528.2463795999065,528.2463795999065,528.2463795999065,528.2463795999065,528.235647500027,2.454282200196758,return,2.3302493998780847,,,,,,,,,,,,,,,,,,,,,,,,,,,,,,,,,KZXV9K,train_y,blue_star,top_right,2025-07-05_13h30.39.936,HideSeek_v1,2022.2.5,60.40668194802802,
,9,8,9,7,0,-1,62,,train_dim1_1,13,30,,,,2,0,2,0,,,,,,,,,0,0,0,0,0,12,12,12,0,0,0,0,,,,,,,,,,,,,,,,,,,,,,,,,stimuli/alien_stimuli/62.png,,,,,,,,,,,,,,,,,,,,,,,,,,,,,stimuli/alien_stimuli/61.png,61,5,14,,,,,,,30,,,,,,,,540.4148758999072,540.4148758999072,540.4148758999072,540.4148758999072,540.4148758999072,return,1.4400304998271167,2,1,0,0,0.56,0.24,return,1.3611397999338806,-11,-18,0.56,0.24,538.8609271999449,540.4148758999072,0.24,0,0.0,0.0,0.0,0.24,0.24,0.24,0,536.2188518000767,536.2188518000767,536.2188518000767,536.2188518000767,536.2188518000767,536.2188518000767,536.2188518000767,536.2188518000767,536.209019199945,2.737749099964276,return,2.621331499889493,,,,,,,,,,,,,,,,,,,,,,,,,,,,,,,,,KZXV9K,train_y,blue_star,top_right,2025-07-05_13h30.39.936,HideSeek_v1,2022.2.5,60.40668194802802,
,7,7,7,2,0,-5,66,,train_dim1_1,14,30,,,,2,0,2,0,,,,,,,,,0,0,0,0,0,13,13,13,0,0,0,0,,,,,,,,,,,,,,,,,,,,,,,,,stimuli/alien_stimuli/66.png,,,,,,,,,,,,,,,,,,,,,,,,,,,,,stimuli/alien_stimuli/62.png,62,9,15,,,,,,,30,,,,,,,,547.3366586999036,547.3366586999036,547.3366586999036,547.3366586999036,547.3366586999036,down,2.3393566999584436,2,1,0,99,0.4,0.08,down,2.2643218997400254,,,,,545.7835190000478,547.3366586999036,0.56,0.16,0.08,0.0,0.2,0.56,0.56,0.56,0.16,543.4093349999748,543.4093349999748,543.4093349999748,543.4093349999748,543.4093349999748,543.4093349999748,543.4093349999748,543.4093349999748,543.3980833999813,2.4717596999835223,return,2.3578168998938054,,,,,,,,,,,,,,,,,,,,,,,,,,,,,,,,,KZXV9K,train_y,blue_star,top_right,2025-07-05_13h30.39.936,HideSeek_v1,2022.2.5,60.40668194802802,
,7,7,7,2,0,-5,66,,train_dim1_1,14,30,,,,2,0,2,0,,,,,,,,,0,0,0,0,0,13,13,13,1,0,1,0,,,,,,,,,,,,,,,,,,,,,,,,,,,,,,,,,,,,,,,,,,,,,,,,,,,,,,,,,,,,,,,,30,,,,,,,,549.6836643000133,549.6836643000133,549.6836643000133,549.6836643000133,549.6836643000133,down,0.44316390017047524,2,1,0,99,0.4,0.0,down,0.3586220999713987,,,,,,,,,,,,,,,,,,,,,,,,,,,,,,,,,,,,,,,,,,,,,,,,,,,,,,,,,,,,KZXV9K,train_y,blue_star,top_right,2025-07-05_13h30.39.936,HideSeek_v1,2022.2.5,60.40668194802802,
,7,7,7,2,0,-5,66,,train_dim1_1,14,30,,,,2,0,2,0,,,,,,,,,0,0,0,0,0,13,13,13,2,0,2,0,,,,,,,,,,,,,,,,,,,,,,,,,,,,,,,,,,,,,,,,,,,,,,,,,,,,,,,,,,,,,,,,30,,,,,,,,550.1342031001113,550.1342031001113,550.1342031001113,550.1342031001113,550.1342031001113,down,0.37677079997956753,2,1,0,99,0.4,-0.08,down,0.30261359969154,,,,,,,,,,,,,,,,,,,,,,,,,,,,,,,,,,,,,,,,,,,,,,,,,,,,,,,,,,,,KZXV9K,train_y,blue_star,top_right,2025-07-05_13h30.39.936,HideSeek_v1,2022.2.5,60.40668194802802,
,7,7,7,2,0,-5,66,,train_dim1_1,14,30,,,,2,0,2,0,,,,,,,,,0,0,0,0,0,13,13,13,3,0,3,0,,,,,,,,,,,,,,,,,,,,,,,,,,,,,,,,,,,,,,,,,,,,,,,,,,,,,,,,,,,,,,,,30,,,,,,,,550.5177535000257,550.5177535000257,550.5177535000257,550.5177535000257,550.5177535000257,down,0.409795300103724,2,1,0,99,0.4,-0.16,down,0.3350186999887228,,,,,,,,,,,,,,,,,,,,,,,,,,,,,,,,,,,,,,,,,,,,,,,,,,,,,,,,,,,,KZXV9K,train_y,blue_star,top_right,2025-07-05_13h30.39.936,HideSeek_v1,2022.2.5,60.40668194802802,
,7,7,7,2,0,-5,66,,train_dim1_1,14,30,,,,2,0,2,0,,,,,,,,,0,0,0,0,0,13,13,13,4,0,4,0,,,,,,,,,,,,,,,,,,,,,,,,,,,,,,,,,,,,,,,,,,,,,,,,,,,,,,,,,,,,,,,,30,,,,,,,,550.9343187001068,550.9343187001068,550.9343187001068,550.9343187001068,550.9343187001068,down,0.3768247999250889,2,1,0,99,0.4,-0.24,down,0.2911997998598963,,,,,,,,,,,,,,,,,,,,,,,,,,,,,,,,,,,,,,,,,,,,,,,,,,,,,,,,,,,,KZXV9K,train_y,blue_star,top_right,2025-07-05_13h30.39.936,HideSeek_v1,2022.2.5,60.40668194802802,
,7,7,7,2,0,-5,66,,train_dim1_1,14,30,,,,2,0,2,0,,,,,,,,,0,0,0,0,0,13,13,13,5,0,5,0,,,,,,,,,,,,,,,,,,,,,,,,,,,,,,,,,,,,,,,,,,,,,,,,,,,,,,,,,,,,,,,,30,,,,,,,,551.3180692999158,551.3180692999158,551.3180692999158,551.3180692999158,551.3180692999158,return,0.6770701000932604,3,0,0,1,0.4,-0.24,return,0.5946001999545842,-16,-18,0.4,-0.24,,,,,,,,,,,,,,,,,,,,,,,,,,,,,,,,,,,,,,,,,,,,,,,,,,,,,,,,KZXV9K,train_y,blue_star,top_right,2025-07-05_13h30.39.936,HideSeek_v1,2022.2.5,60.40668194802802,
,6,9,6,6,0,-3,64,,train_dim1_1,15,30,,,,2,0,2,0,,,,,,,,,0,0,0,0,0,14,14,14,0,0,0,0,,,,,,,,,,,,,,,,,,,,,,,,,stimuli/alien_stimuli/64.png,,,,,,,,,,,,,,,,,,,,,,,,,,,,,stimuli/alien_stimuli/66.png,66,7,16,,,,,,,30,,,,,,,,556.7122975001112,556.7122975001112,556.7122975001112,556.7122975001112,556.7122975001112,down,4.759604100137949,3,0,0,99,0.32,0.24,down,4.662529499968514,,,,,555.1410632999614,556.7122975001112,0.4,-0.24,0.4,0.0,-0.039999999999999994,0.4,0.4,0.4,-0.24,553.5485821000766,553.5485821000766,553.5485821000766,553.5485821000766,553.5485821000766,553.5485821000766,553.5485821000766,553.5485821000766,553.5397484998684,1.686771199805662,return,1.5666060999501497,,,,,,,,,,,,,,,,,,,,,,,,,,,,,,,,,KZXV9K,train_y,blue_star,top_right,2025-07-05_13h30.39.936,HideSeek_v1,2022.2.5,60.40668194802802,
,6,9,6,6,0,-3,64,,train_dim1_1,15,30,,,,2,0,2,0,,,,,,,,,0,0,0,0,0,14,14,14,1,0,1,0,,,,,,,,,,,,,,,,,,,,,,,,,,,,,,,,,,,,,,,,,,,,,,,,,,,,,,,,,,,,,,,,30,,,,,,,,561.4622967001051,561.4622967001051,561.4622967001051,561.4622967001051,561.4622967001051,down,0.4092524000443518,3,0,0,99,0.32,0.15999999999999998,down,0.3336392999626696,,,,,,,,,,,,,,,,,,,,,,,,,,,,,,,,,,,,,,,,,,,,,,,,,,,,,,,,,,,,KZXV9K,train_y,blue_star,top_right,2025-07-05_13h30.39.936,HideSeek_v1,2022.2.5,60.40668194802802,
,6,9,6,6,0,-3,64,,train_dim1_1,15,30,,,,2,0,2,0,,,,,,,,,0,0,0,0,0,14,14,14,2,0,2,0,,,,,,,,,,,,,,,,,,,,,,,,,,,,,,,,,,,,,,,,,,,,,,,,,,,,,,,,,,,,,,,,30,,,,,,,,561.8766669000033,561.8766669000033,561.8766669000033,561.8766669000033,561.8766669000033,down,0.4933955001179129,3,0,0,99,0.32,0.07999999999999997,down,0.4095593998208642,,,,,,,,,,,,,,,,,,,,,,,,,,,,,,,,,,,,,,,,,,,,,,,,,,,,,,,,,,,,KZXV9K,train_y,blue_star,top_right,2025-07-05_13h30.39.936,HideSeek_v1,2022.2.5,60.40668194802802,
,6,9,6,6,0,-3,64,,train_dim1_1,15,30,,,,2,0,2,0,,,,,,,,,0,0,0,0,0,14,14,14,3,0,3,0,,,,,,,,,,,,,,,,,,,,,,,,,,,,,,,,,,,,,,,,,,,,,,,,,,,,,,,,,,,,,,,,30,,,,,,,,562.3773857001215,562.3773857001215,562.3773857001215,562.3773857001215,562.3773857001215,return,0.6266944000963122,4,0,0,1,0.32,0.07999999999999997,return,0.5532318998593837,-19,-18,0.32,0.07999999999999997,,,,,,,,,,,,,,,,,,,,,,,,,,,,,,,,,,,,,,,,,,,,,,,,,,,,,,,,KZXV9K,train_y,blue_star,top_right,2025-07-05_13h30.39.936,HideSeek_v1,2022.2.5,60.40668194802802,
,9,5,9,1,0,-4,65,,train_dim1_1,16,30,,,,2,0,2,0,,,,,,,,,0,0,0,0,0,15,15,15,0,0,0,0,,,,,,,,,,,,,,,,,,,,,,,,,stimuli/alien_stimuli/65.png,,,,,,,,,,,,,,,,,,,,,,,,,,,,,stimuli/alien_stimuli/64.png,64,6,17,,,,,,,30,,,,,,,,568.740865000058,568.740865000058,568.740865000058,568.740865000058,568.740865000058,down,2.4371819000225514,4,0,0,99,0.56,-0.08,down,2.355266399914399,,,,,567.1848256001249,568.740865000058,0.32,0.08,0.24,0.0,0.2,0.32,0.32,0.32,0.08,564.5749178999104,564.5749178999104,564.5749178999104,564.5749178999104,564.5749178999104,564.5749178999104,564.5749178999104,564.5749178999104,564.5655801999383,2.7210880001075566,return,2.5827249998692423,,,,,,,,,,,,,,,,,,,,,,,,,,,,,,,,,KZXV9K,train_y,blue_star,top_right,2025-07-05_13h30.39.936,HideSeek_v1,2022.2.5,60.40668194802802,
,9,5,9,1,0,-4,65,,train_dim1_1,16,30,,,,2,0,2,0,,,,,,,,,0,0,0,0,0,15,15,15,1,0,1,0,,,,,,,,,,,,,,,,,,,,,,,,,,,,,,,,,,,,,,,,,,,,,,,,,,,,,,,,,,,,,,,,30,,,,,,,,571.1853702000808,571.1853702000808,571.1853702000808,571.1853702000808,571.1853702000808,down,0.35945339989848435,4,0,0,99,0.56,-0.16,down,0.28208469972014427,,,,,,,,,,,,,,,,,,,,,,,,,,,,,,,,,,,,,,,,,,,,,,,,,,,,,,,,,,,,KZXV9K,train_y,blue_star,top_right,2025-07-05_13h30.39.936,HideSeek_v1,2022.2.5,60.40668194802802,
,9,5,9,1,0,-4,65,,train_dim1_1,16,30,,,,2,0,2,0,,,,,,,,,0,0,0,0,0,15,15,15,2,0,2,0,,,,,,,,,,,,,,,,,,,,,,,,,,,,,,,,,,,,,,,,,,,,,,,,,,,,,,,,,,,,,,,,30,,,,,,,,571.5519509001169,571.5519509001169,571.5519509001169,571.5519509001169,571.5519509001169,down,0.3433251001406461,4,0,0,99,0.56,-0.24,down,0.2680625997018069,,,,,,,,,,,,,,,,,,,,,,,,,,,,,,,,,,,,,,,,,,,,,,,,,,,,,,,,,,,,KZXV9K,train_y,blue_star,top_right,2025-07-05_13h30.39.936,HideSeek_v1,2022.2.5,60.40668194802802,
,9,5,9,1,0,-4,65,,train_dim1_1,16,30,,,,2,0,2,0,,,,,,,,,0,0,0,0,0,15,15,15,3,0,3,0,,,,,,,,,,,,,,,,,,,,,,,,,,,,,,,,,,,,,,,,,,,,,,,,,,,,,,,,,,,,,,,,30,,,,,,,,571.9020171999,571.9020171999,571.9020171999,571.9020171999,571.9020171999,down,0.4433614001609385,4,0,0,99,0.56,-0.32,down,0.3614250998944044,,,,,,,,,,,,,,,,,,,,,,,,,,,,,,,,,,,,,,,,,,,,,,,,,,,,,,,,,,,,KZXV9K,train_y,blue_star,top_right,2025-07-05_13h30.39.936,HideSeek_v1,2022.2.5,60.40668194802802,
,9,5,9,1,0,-4,65,,train_dim1_1,16,30,,,,2,0,2,0,,,,,,,,,0,0,0,0,0,15,15,15,4,0,4,0,,,,,,,,,,,,,,,,,,,,,,,,,,,,,,,,,,,,,,,,,,,,,,,,,,,,,,,,,,,,,,,,30,,,,,,,,572.3588058000896,572.3588058000896,572.3588058000896,572.3588058000896,572.3588058000896,down,0.46025210013613105,4,0,0,99,0.56,-0.4,down,0.3713327997829765,,,,,,,,,,,,,,,,,,,,,,,,,,,,,,,,,,,,,,,,,,,,,,,,,,,,,,,,,,,,KZXV9K,train_y,blue_star,top_right,2025-07-05_13h30.39.936,HideSeek_v1,2022.2.5,60.40668194802802,
,9,5,9,1,0,-4,65,,train_dim1_1,16,30,,,,2,0,2,0,,,,,,,,,0,0,0,0,0,15,15,15,5,0,5,0,,,,,,,,,,,,,,,,,,,,,,,,,,,,,,,,,,,,,,,,,,,,,,,,,,,,,,,,,,,,,,,,30,,,,,,,,572.8206893000752,572.8206893000752,572.8206893000752,572.8206893000752,572.8206893000752,return,0.6762902999762446,4,1,0,0,0.56,-0.4,return,0.5979731997940689,-24,-18,0.56,-0.4,,,,,,,,,,,,,,,,,,,,,,,,,,,,,,,,,,,,,,,,,,,,,,,,,,,,,,,,KZXV9K,train_y,blue_star,top_right,2025-07-05_13h30.39.936,HideSeek_v1,2022.2.5,60.40668194802802,
,8,8,8,5,0,-3,64,,train_dim1_1,17,30,,,,2,0,2,0,,,,,,,,,0,0,0,0,0,16,16,16,0,0,0,0,,,,,,,,,,,,,,,,,,,,,,,,,stimuli/alien_stimuli/64.png,,,,,,,,,,,,,,,,,,,,,,,,,,,,,stimuli/alien_stimuli/65.png,65,9,18,,,,,,,30,,,,,,,,578.2491532999557,578.2491532999557,578.2491532999557,578.2491532999557,578.2491532999557,left,2.2518941999878734,4,1,0,99,0.39999999999999997,0.24,left,2.1717968999873847,,,,,576.6924986001104,578.2491532999557,0.56,-0.32,0.32,0.0,-0.16,0.56,0.56,0.56,-0.32,575.0726187000982,575.0726187000982,575.0726187000982,575.0726187000982,575.0726187000982,575.0726187000982,575.0726187000982,575.0726187000982,575.074345999863,1.7369236999657005,return,1.5938287999015301,,,,,,,,,,,,,,,,,,,,,,,,,,,,,,,,,KZXV9K,train_y,blue_star,top_right,2025-07-05_13h30.39.936,HideSeek_v1,2022.2.5,60.40668194802802,
,8,8,8,5,0,-3,64,,train_dim1_1,17,30,,,,2,0,2,0,,,,,,,,,0,0,0,0,0,16,16,16,1,0,1,0,,,,,,,,,,,,,,,,,,,,,,,,,,,,,,,,,,,,,,,,,,,,,,,,,,,,,,,,,,,,,,,,30,,,,,,,,580.5087758000009,580.5087758000009,580.5087758000009,580.5087758000009,580.5087758000009,left,0.3929033998865634,4,1,0,99,0.31999999999999995,0.24,left,0.31174449995160103,,,,,,,,,,,,,,,,,,,,,,,,,,,,,,,,,,,,,,,,,,,,,,,,,,,,,,,,,,,,KZXV9K,train_y,blue_star,top_right,2025-07-05_13h30.39.936,HideSeek_v1,2022.2.5,60.40668194802802,
,8,8,8,5,0,-3,64,,train_dim1_1,17,30,,,,2,0,2,0,,,,,,,,,0,0,0,0,0,16,16,16,2,0,2,0,,,,,,,,,,,,,,,,,,,,,,,,,,,,,,,,,,,,,,,,,,,,,,,,,,,,,,,,,,,,,,,,30,,,,,,,,580.9090972000267,580.9090972000267,580.9090972000267,580.9090972000267,580.9090972000267,left,0.42741330014541745,4,1,0,99,0.23999999999999994,0.24,left,0.34920099982991815,,,,,,,,,,,,,,,,,,,,,,,,,,,,,,,,,,,,,,,,,,,,,,,,,,,,,,,,,,,,KZXV9K,train_y,blue_star,top_right,2025-07-05_13h30.39.936,HideSeek_v1,2022.2.5,60.40668194802802,
,8,8,8,5,0,-3,64,,train_dim1_1,17,30,,,,2,0,2,0,,,,,,,,,0,0,0,0,0,16,16,16,3,0,3,0,,,,,,,,,,,,,,,,,,,,,,,,,,,,,,,,,,,,,,,,,,,,,,,,,,,,,,,,,,,,,,,,30,,,,,,,,581.3425533999689,581.3425533999689,581.3425533999689,581.3425533999689,581.3425533999689,return,1.3772634000051767,4,0,0,0,0.23999999999999994,0.24,return,1.2896477999165654,-24,-21,0.23999999999999994,0.24,,,,,,,,,,,,,,,,,,,,,,,,,,,,,,,,,,,,,,,,,,,,,,,,,,,,,,,,KZXV9K,train_y,blue_star,top_right,2025-07-05_13h30.39.936,HideSeek_v1,2022.2.5,60.40668194802802,
,7,6,7,6,0,0,61,,train_dim1_1,18,30,,,,2,0,2,0,,,,,,,,,0,0,0,0,0,17,17,17,0,0,0,0,,,,,,,,,,,,,,,,,,,,,,,,,stimuli/alien_stimuli/61.png,,,,,,,,,,,,,,,,,,,,,,,,,,,,,stimuli/alien_stimuli/64.png,64,8,19,,,,,,,30,,,,,,,,587.3877171999775,587.3877171999775,587.3877171999775,587.3877171999775,587.3877171999775,return,1.7034843999426812,5,0,0,1,0.4,0.08,return,1.6056831998284906,-24,-21,0.4,0.08,585.8164230999537,587.3877171999775,0.48,0,0.24,0.0,0.12,0.48,0.48,0.48,0,584.2723238999024,584.2723238999024,584.2723238999024,584.2723238999024,584.2723238999024,584.2723238999024,584.2723238999024,584.2723238999024,584.2649538998958,1.6376354999374598,return,1.5248247999697924,,,,,,,,,,,,,,,,,,,,,,,,,,,,,,,,,KZXV9K,train_y,blue_star,top_right,2025-07-05_13h30.39.936,HideSeek_v1,2022.2.5,60.40668194802802,
,5,9,5,8,0,-1,62,,train_dim1_1,19,30,,,,2,0,2,0,,,,,,,,,0,0,0,0,0,18,18,18,0,0,0,0,,,,,,,,,,,,,,,,,,,,,,,,,stimuli/alien_stimuli/62.png,,,,,,,,,,,,,,,,,,,,,,,,,,,,,stimuli/alien_stimuli/61.png,61,7,20,,,,,,,30,,,,,,,,593.8448636999819,593.8448636999819,593.8448636999819,593.8448636999819,593.8448636999819,return,1.6200870999600738,5,1,0,0,0.24,0.32,return,1.54683699994348,-24,-21,0.24,0.32,592.2885789999273,593.8448636999819,0.4,0.08,0.0,0.0,0.08,0.4,0.4,0.4,0.08,590.6324978000484,590.6324978000484,590.6324978000484,590.6324978000484,590.6324978000484,590.6324978000484,590.6324978000484,590.6324978000484,590.6205901000649,1.753422899870202,return,1.6266423999331892,,,,,,,,,,,,,,,,,,,,,,,,,,,,,,,,,KZXV9K,train_y,blue_star,top_right,2025-07-05_13h30.39.936,HideSeek_v1,2022.2.5,60.40668194802802,
,7,5,7,0,0,-5,66,,train_dim1_1,20,30,,,,2,0,2,0,,,,,,,,,0,0,0,0,0,19,19,19,0,0,0,0,,,,,,,,,,,,,,,,,,,,,,,,,stimuli/alien_stimuli/66.png,,,,,,,,,,,,,,,,,,,,,,,,,,,,,stimuli/alien_stimuli/62.png,62,5,21,,,,,,,30,,,,,,,,599.901064200094,599.901064200094,599.901064200094,599.901064200094,599.901064200094,left,2.26941670011729,5,1,0,99,0.32,0,left,2.186906299786642,,,,,598.3434371999465,599.901064200094,0.24,0.24,0.08,0.0,0.28,0.24,0.24,0.24,0.24,597.0198876999784,597.0198876999784,597.0198876999784,597.0198876999784,597.0198876999784,597.0198876999784,597.0198876999784,597.0198876999784,597.0092255999334,1.4198113000020385,return,1.292228799778968,,,,,,,,,,,,,,,,,,,,,,,,,,,,,,,,,KZXV9K,train_y,blue_star,top_right,2025-07-05_13h30.39.936,HideSeek_v1,2022.2.5,60.40668194802802,
,7,5,7,0,0,-5,66,,train_dim1_1,20,30,,,,2,0,2,0,,,,,,,,,0,0,0,0,0,19,19,19,1,0,1,0,,,,,,,,,,,,,,,,,,,,,,,,,,,,,,,,,,,,,,,,,,,,,,,,,,,,,,,,,,,,,,,,30,,,,,,,,602.1770083000883,602.1770083000883,602.1770083000883,602.1770083000883,602.1770083000883,left,0.35972409998066723,5,1,0,99,0.24,0,left,0.282361299963668,,,,,,,,,,,,,,,,,,,,,,,,,,,,,,,,,,,,,,,,,,,,,,,,,,,,,,,,,,,,KZXV9K,train_y,blue_star,top_right,2025-07-05_13h30.39.936,HideSeek_v1,2022.2.5,60.40668194802802,
,7,5,7,0,0,-5,66,,train_dim1_1,20,30,,,,2,0,2,0,,,,,,,,,0,0,0,0,0,19,19,19,2,0,2,0,,,,,,,,,,,,,,,,,,,,,,,,,,,,,,,,,,,,,,,,,,,,,,,,,,,,,,,,,,,,,,,,30,,,,,,,,602.5443593999371,602.5443593999371,602.5443593999371,602.5443593999371,602.5443593999371,left,0.3433271001558751,5,1,0,99,0.15999999999999998,0,left,0.26686020009219646,,,,,,,,,,,,,,,,,,,,,,,,,,,,,,,,,,,,,,,,,,,,,,,,,,,,,,,,,,,,KZXV9K,train_y,blue_star,top_right,2025-07-05_13h30.39.936,HideSeek_v1,2022.2.5,60.40668194802802,
,7,5,7,0,0,-5,66,,train_dim1_1,20,30,,,,2,0,2,0,,,,,,,,,0,0,0,0,0,19,19,19,3,0,3,0,,,,,,,,,,,,,,,,,,,,,,,,,,,,,,,,,,,,,,,,,,,,,,,,,,,,,,,,,,,,,,,,30,,,,,,,,602.8955230999272,602.8955230999272,602.8955230999272,602.8955230999272,602.8955230999272,left,0.3594603999517858,5,1,0,99,0.07999999999999997,0,left,0.2743985999841243,,,,,,,,,,,,,,,,,,,,,,,,,,,,,,,,,,,,,,,,,,,,,,,,,,,,,,,,,,,,KZXV9K,train_y,blue_star,top_right,2025-07-05_13h30.39.936,HideSeek_v1,2022.2.5,60.40668194802802,
,7,5,7,0,0,-5,66,,train_dim1_1,20,30,,,,2,0,2,0,,,,,,,,,0,0,0,0,0,19,19,19,4,0,4,0,,,,,,,,,,,,,,,,,,,,,,,,,,,,,,,,,,,,,,,,,,,,,,,,,,,,,,,,,,,,,,,,30,,,,,,,,603.2607144999783,603.2607144999783,603.2607144999783,603.2607144999783,603.2607144999783,left,0.37708120001479983,5,1,0,99,-2.7755575615628914e-17,0,left,0.2988906998652965,,,,,,,,,,,,,,,,,,,,,,,,,,,,,,,,,,,,,,,,,,,,,,,,,,,,,,,,,,,,KZXV9K,train_y,blue_star,top_right,2025-07-05_13h30.39.936,HideSeek_v1,2022.2.5,60.40668194802802,
,7,5,7,0,0,-5,66,,train_dim1_1,20,30,,,,2,0,2,0,,,,,,,,,0,0,0,0,0,19,19,19,5,0,5,0,,,,,,,,,,,,,,,,,,,,,,,,,,,,,,,,,,,,,,,,,,,,,,,,,,,,,,,,,,,,,,,,30,,,,,,,,603.6450342999306,603.6450342999306,603.6450342999306,603.6450342999306,603.6450342999306,return,0.693185499869287,5,0,0,0,-2.7755575615628914e-17,0,return,0.6096735999453813,-24,-26,-2.7755575615628914e-17,0,,,,,,,,,,,,,,,,,,,,,,,,,,,,,,,,,,,,,,,,,,,,,,,,,,,,,,,,KZXV9K,train_y,blue_star,top_right,2025-07-05_13h30.39.936,HideSeek_v1,2022.2.5,60.40668194802802,
,7,9,7,5,0,-4,65,,train_dim1_1,21,30,,,,2,0,2,0,,,,,,,,,0,0,0,0,0,20,20,20,0,0,0,0,,,,,,,,,,,,,,,,,,,,,,,,,stimuli/alien_stimuli/65.png,,,,,,,,,,,,,,,,,,,,,,,,,,,,,stimuli/alien_stimuli/66.png,66,7,22,,,,,,,30,,,,,,,,608.9410816000309,608.9410816000309,608.9410816000309,608.9410816000309,608.9410816000309,down,2.0868273999076337,5,0,0,99,0.4,0.24,down,2.0079411000479013,,,,,607.3844177001156,608.9410816000309,0.4,-0.4,0.4,0.0,-0.2,0.4,0.4,0.4,-0.4,605.8942341001239,605.8942341001239,605.8942341001239,605.8942341001239,605.8942341001239,605.8942341001239,605.8942341001239,605.8942341001239,605.8833516000304,1.5866493999492377,return,1.4699496000539511,,,,,,,,,,,,,,,,,,,,,,,,,,,,,,,,,KZXV9K,train_y,blue_star,top_right,2025-07-05_13h30.39.936,HideSeek_v1,2022.2.5,60.40668194802802,
,7,9,7,5,0,-4,65,,train_dim1_1,21,30,,,,2,0,2,0,,,,,,,,,0,0,0,0,0,20,20,20,1,0,1,0,,,,,,,,,,,,,,,,,,,,,,,,,,,,,,,,,,,,,,,,,,,,,,,,,,,,,,,,,,,,,,,,30,,,,,,,,611.0345622999594,611.0345622999594,611.0345622999594,611.0345622999594,611.0345622999594,down,0.5596396001055837,5,0,0,99,0.4,0.15999999999999998,down,0.47823189990594983,,,,,,,,,,,,,,,,,,,,,,,,,,,,,,,,,,,,,,,,,,,,,,,,,,,,,,,,,,,,KZXV9K,train_y,blue_star,top_right,2025-07-05_13h30.39.936,HideSeek_v1,2022.2.5,60.40668194802802,
,7,9,7,5,0,-4,65,,train_dim1_1,21,30,,,,2,0,2,0,,,,,,,,,0,0,0,0,0,20,20,20,2,0,2,0,,,,,,,,,,,,,,,,,,,,,,,,,,,,,,,,,,,,,,,,,,,,,,,,,,,,,,,,,,,,,,,,30,,,,,,,,611.6012407001108,611.6012407001108,611.6012407001108,611.6012407001108,611.6012407001108,down,0.6771048998925835,5,0,0,99,0.4,0.07999999999999997,down,0.5899319997988641,,,,,,,,,,,,,,,,,,,,,,,,,,,,,,,,,,,,,,,,,,,,,,,,,,,,,,,,,,,,KZXV9K,train_y,blue_star,top_right,2025-07-05_13h30.39.936,HideSeek_v1,2022.2.5,60.40668194802802,
,7,9,7,5,0,-4,65,,train_dim1_1,21,30,,,,2,0,2,0,,,,,,,,,0,0,0,0,0,20,20,20,3,0,3,0,,,,,,,,,,,,,,,,,,,,,,,,,,,,,,,,,,,,,,,,,,,,,,,,,,,,,,,,,,,,,,,,30,,,,,,,,612.2858317999635,612.2858317999635,612.2858317999635,612.2858317999635,612.2858317999635,down,1.0437595001421869,5,0,0,99,0.4,-2.7755575615628914e-17,down,0.9645087998360395,,,,,,,,,,,,,,,,,,,,,,,,,,,,,,,,,,,,,,,,,,,,,,,,,,,,,,,,,,,,KZXV9K,train_y,blue_star,top_right,2025-07-05_13h30.39.936,HideSeek_v1,2022.2.5,60.40668194802802,
,7,9,7,5,0,-4,65,,train_dim1_1,21,30,,,,2,0,2,0,,,,,,,,,0,0,0,0,0,20,20,20,4,0,4,0,,,,,,,,,,,,,,,,,,,,,,,,,,,,,,,,,,,,,,,,,,,,,,,,,,,,,,,,,,,,,,,,30,,,,,,,,613.3361643999815,613.3361643999815,613.3361643999815,613.3361643999815,613.3361643999815,down,0.8940469999797642,5,0,0,99,0.4,-0.08000000000000003,down,0.8183306998107582,,,,,,,,,,,,,,,,,,,,,,,,,,,,,,,,,,,,,,,,,,,,,,,,,,,,,,,,,,,,KZXV9K,train_y,blue_star,top_right,2025-07-05_13h30.39.936,HideSeek_v1,2022.2.5,60.40668194802802,
,7,9,7,5,0,-4,65,,train_dim1_1,21,30,,,,2,0,2,0,,,,,,,,,0,0,0,0,0,20,20,20,5,0,5,0,,,,,,,,,,,,,,,,,,,,,,,,,,,,,,,,,,,,,,,,,,,,,,,,,,,,,,,,,,,,,,,,30,,,,,,,,614.2370003000833,614.2370003000833,614.2370003000833,614.2370003000833,614.2370003000833,return,0.4599735999945551,5,1,0,0,0.4,-0.08000000000000003,return,0.3734408998861909,-29,-26,0.4,-0.08000000000000003,,,,,,,,,,,,,,,,,,,,,,,,,,,,,,,,,,,,,,,,,,,,,,,,,,,,,,,,KZXV9K,train_y,blue_star,top_right,2025-07-05_13h30.39.936,HideSeek_v1,2022.2.5,60.40668194802802,
,5,7,5,4,0,-3,64,,train_dim1_1,22,30,,,,2,0,2,0,,,,,,,,,0,0,0,0,0,21,21,21,0,0,0,0,,,,,,,,,,,,,,,,,,,,,,,,,stimuli/alien_stimuli/64.png,,,,,,,,,,,,,,,,,,,,,,,,,,,,,stimuli/alien_stimuli/65.png,65,7,23,,,,,,,30,,,,,,,,619.4964860999025,619.4964860999025,619.4964860999025,619.4964860999025,619.4964860999025,right,2.956585899926722,5,1,0,99,0.32,0.16,right,2.8773403000086546,,,,,617.9432963998988,619.4964860999025,0.4,0,0.32,0.0,0.16,0.4,0.4,0.4,0,616.2675926000811,616.2675926000811,616.2675926000811,616.2675926000811,616.2675926000811,616.2675926000811,616.2675926000811,616.2675926000811,616.2584736000281,1.786866000154987,return,1.6453561999369413,,,,,,,,,,,,,,,,,,,,,,,,,,,,,,,,,KZXV9K,train_y,blue_star,top_right,2025-07-05_13h30.39.936,HideSeek_v1,2022.2.5,60.40668194802802,
,5,7,5,4,0,-3,64,,train_dim1_1,22,30,,,,2,0,2,0,,,,,,,,,0,0,0,0,0,21,21,21,1,0,1,0,,,,,,,,,,,,,,,,,,,,,,,,,,,,,,,,,,,,,,,,,,,,,,,,,,,,,,,,,,,,,,,,30,,,,,,,,622.4618915999308,622.4618915999308,622.4618915999308,622.4618915999308,622.4618915999308,right,0.3588084999937564,5,1,0,99,0.4,0.16,right,0.27756619988940656,,,,,,,,,,,,,,,,,,,,,,,,,,,,,,,,,,,,,,,,,,,,,,,,,,,,,,,,,,,,KZXV9K,train_y,blue_star,top_right,2025-07-05_13h30.39.936,HideSeek_v1,2022.2.5,60.40668194802802,
,5,7,5,4,0,-3,64,,train_dim1_1,22,30,,,,2,0,2,0,,,,,,,,,0,0,0,0,0,21,21,21,2,0,2,0,,,,,,,,,,,,,,,,,,,,,,,,,,,,,,,,,,,,,,,,,,,,,,,,,,,,,,,,,,,,,,,,30,,,,,,,,622.8267171999905,622.8267171999905,622.8267171999905,622.8267171999905,622.8267171999905,right,0.4269129999447614,5,1,0,99,0.48000000000000004,0.16,right,0.3438799998257309,,,,,,,,,,,,,,,,,,,,,,,,,,,,,,,,,,,,,,,,,,,,,,,,,,,,,,,,,,,,KZXV9K,train_y,blue_star,top_right,2025-07-05_13h30.39.936,HideSeek_v1,2022.2.5,60.40668194802802,
,5,7,5,4,0,-3,64,,train_dim1_1,22,30,,,,2,0,2,0,,,,,,,,,0,0,0,0,0,21,21,21,3,0,3,0,,,,,,,,,,,,,,,,,,,,,,,,,,,,,,,,,,,,,,,,,,,,,,,,,,,,,,,,,,,,,,,,30,,,,,,,,623.2640533000231,623.2640533000231,623.2640533000231,623.2640533000231,623.2640533000231,return,0.8074686001054943,5,0,0,0,0.48000000000000004,0.16,return,0.7329073997680098,-29,-23,0.48000000000000004,0.16,,,,,,,,,,,,,,,,,,,,,,,,,,,,,,,,,,,,,,,,,,,,,,,,,,,,,,,,KZXV9K,train_y,blue_star,top_right,2025-07-05_13h30.39.936,HideSeek_v1,2022.2.5,60.40668194802802,
,5,8,5,8,0,0,61,,train_dim1_1,23,30,,,,2,0,2,0,,,,,,,,,0,0,0,0,0,22,22,22,0,0,0,0,,,,,,,,,,,,,,,,,,,,,,,,,stimuli/alien_stimuli/61.png,,,,,,,,,,,,,,,,,,,,,,,,,,,,,stimuli/alien_stimuli/64.png,64,5,24,,,,,,,30,,,,,,,,629.0073011000641,629.0073011000641,629.0073011000641,629.0073011000641,629.0073011000641,return,1.2193918998818845,6,0,0,1,0.24,0.24,return,1.1439377998467535,-29,-23,0.24,0.24,627.4511160000693,629.0073011000641,0.24,-0.08,0.24,0.0,0.04,0.24,0.24,0.24,-0.08,625.6256661999505,625.6256661999505,625.6256661999505,625.6256661999505,625.6256661999505,625.6256661999505,625.6256661999505,625.6256661999505,625.6163639998995,1.9200029999483377,return,1.798437099903822,,,,,,,,,,,,,,,,,,,,,,,,,,,,,,,,,KZXV9K,train_y,blue_star,top_right,2025-07-05_13h30.39.936,HideSeek_v1,2022.2.5,60.40668194802802,
,8,7,8,2,0,-5,66,,train_dim1_1,24,30,,,,2,0,2,0,,,,,,,,,0,0,0,0,0,23,23,23,0,0,0,0,,,,,,,,,,,,,,,,,,,,,,,,,stimuli/alien_stimuli/66.png,,,,,,,,,,,,,,,,,,,,,,,,,,,,,stimuli/alien_stimuli/61.png,61,5,25,,,,,,,30,,,,,,,,634.4422466999386,634.4422466999386,634.4422466999386,634.4422466999386,634.4422466999386,left,2.706313099944964,6,0,0,99,0.39999999999999997,0.16,left,2.62304660002701,,,,,632.8888723000418,634.4422466999386,0.24,0.24,0.0,0.0,0.24,0.24,0.24,0.24,0.24,631.7861395999789,631.7861395999789,631.7861395999789,631.7861395999789,631.7861395999789,631.7861395999789,631.7861395999789,631.7861395999789,631.7717309000436,1.2027916999068111,return,1.0769233999308199,,,,,,,,,,,,,,,,,,,,,,,,,,,,,,,,,KZXV9K,train_y,blue_star,top_right,2025-07-05_13h30.39.936,HideSeek_v1,2022.2.5,60.40668194802802,
,8,7,8,2,0,-5,66,,train_dim1_1,24,30,,,,2,0,2,0,,,,,,,,,0,0,0,0,0,23,23,23,1,0,1,0,,,,,,,,,,,,,,,,,,,,,,,,,,,,,,,,,,,,,,,,,,,,,,,,,,,,,,,,,,,,,,,,30,,,,,,,,637.1565539001022,637.1565539001022,637.1565539001022,637.1565539001022,637.1565539001022,left,0.30975839984603226,6,0,0,99,0.31999999999999995,0.16,left,0.2360690999776125,,,,,,,,,,,,,,,,,,,,,,,,,,,,,,,,,,,,,,,,,,,,,,,,,,,,,,,,,,,,KZXV9K,train_y,blue_star,top_right,2025-07-05_13h30.39.936,HideSeek_v1,2022.2.5,60.40668194802802,
,8,7,8,2,0,-5,66,,train_dim1_1,24,30,,,,2,0,2,0,,,,,,,,,0,0,0,0,0,23,23,23,2,0,2,0,,,,,,,,,,,,,,,,,,,,,,,,,,,,,,,,,,,,,,,,,,,,,,,,,,,,,,,,,,,,,,,,30,,,,,,,,637.4736808999442,637.4736808999442,637.4736808999442,637.4736808999442,637.4736808999442,left,0.3596648001112044,6,0,0,99,0.23999999999999994,0.16,left,0.2768470998853445,,,,,,,,,,,,,,,,,,,,,,,,,,,,,,,,,,,,,,,,,,,,,,,,,,,,,,,,,,,,KZXV9K,train_y,blue_star,top_right,2025-07-05_13h30.39.936,HideSeek_v1,2022.2.5,60.40668194802802,
,8,7,8,2,0,-5,66,,train_dim1_1,24,30,,,,2,0,2,0,,,,,,,,,0,0,0,0,0,23,23,23,3,0,3,0,,,,,,,,,,,,,,,,,,,,,,,,,,,,,,,,,,,,,,,,,,,,,,,,,,,,,,,,,,,,,,,,30,,,,,,,,637.8415465001017,637.8415465001017,637.8415465001017,637.8415465001017,637.8415465001017,left,0.4101189998909831,6,0,0,99,0.15999999999999992,0.16,left,0.3357937999535352,,,,,,,,,,,,,,,,,,,,,,,,,,,,,,,,,,,,,,,,,,,,,,,,,,,,,,,,,,,,KZXV9K,train_y,blue_star,top_right,2025-07-05_13h30.39.936,HideSeek_v1,2022.2.5,60.40668194802802,
,8,7,8,2,0,-5,66,,train_dim1_1,24,30,,,,2,0,2,0,,,,,,,,,0,0,0,0,0,23,23,23,4,0,4,0,,,,,,,,,,,,,,,,,,,,,,,,,,,,,,,,,,,,,,,,,,,,,,,,,,,,,,,,,,,,,,,,30,,,,,,,,638.2570968999062,638.2570968999062,638.2570968999062,638.2570968999062,638.2570968999062,left,0.4267304001841694,6,0,0,99,0.07999999999999992,0.16,left,0.3507404997944832,,,,,,,,,,,,,,,,,,,,,,,,,,,,,,,,,,,,,,,,,,,,,,,,,,,,,,,,,,,,KZXV9K,train_y,blue_star,top_right,2025-07-05_13h30.39.936,HideSeek_v1,2022.2.5,60.40668194802802,
,8,7,8,2,0,-5,66,,train_dim1_1,24,30,,,,2,0,2,0,,,,,,,,,0,0,0,0,0,23,23,23,5,0,5,0,,,,,,,,,,,,,,,,,,,,,,,,,,,,,,,,,,,,,,,,,,,,,,,,,,,,,,,,,,,,,,,,30,,,,,,,,638.691988500068,638.691988500068,638.691988500068,638.691988500068,638.691988500068,return,0.7270613999571651,6,0,0,0,0.07999999999999992,0.16,return,0.6472539999522269,-29,-28,0.07999999999999992,0.16,,,,,,,,,,,,,,,,,,,,,,,,,,,,,,,,,,,,,,,,,,,,,,,,,,,,,,,,KZXV9K,train_y,blue_star,top_right,2025-07-05_13h30.39.936,HideSeek_v1,2022.2.5,60.40668194802802,
,8,8,8,7,0,-1,62,,train_dim1_1,25,30,,,,2,0,2,0,,,,,,,,,0,0,0,0,0,24,24,24,0,0,0,0,,,,,,,,,,,,,,,,,,,,,,,,,stimuli/alien_stimuli/62.png,,,,,,,,,,,,,,,,,,,,,,,,,,,,,stimuli/alien_stimuli/66.png,66,8,26,,,,,,,30,,,,,,,,643.8024025000632,643.8024025000632,643.8024025000632,643.8024025000632,643.8024025000632,down,1.9372103000059724,6,0,0,99,0.48,0.15999999999999998,down,1.8493583998642862,,,,,642.2468491999898,643.8024025000632,0.48,-0.24,0.4,0.0,-0.039999999999999994,0.48,0.48,0.48,-0.24,640.9715291000903,640.9715291000903,640.9715291000903,640.9715291000903,640.9715291000903,640.9715291000903,640.9715291000903,640.9715291000903,640.9625323999207,1.3700451999902725,return,1.2588251999113709,,,,,,,,,,,,,,,,,,,,,,,,,,,,,,,,,KZXV9K,train_y,blue_star,top_right,2025-07-05_13h30.39.936,HideSeek_v1,2022.2.5,60.40668194802802,
,8,8,8,7,0,-1,62,,train_dim1_1,25,30,,,,2,0,2,0,,,,,,,,,0,0,0,0,0,24,24,24,1,0,1,0,,,,,,,,,,,,,,,,,,,,,,,,,,,,,,,,,,,,,,,,,,,,,,,,,,,,,,,,,,,,,,,,30,,,,,,,,645.7478865000885,645.7478865000885,645.7478865000885,645.7478865000885,645.7478865000885,return,0.3423561998642981,7,0,0,1,0.48,0.15999999999999998,return,0.2645846998784691,-30,-28,0.48,0.15999999999999998,,,,,,,,,,,,,,,,,,,,,,,,,,,,,,,,,,,,,,,,,,,,,,,,,,,,,,,,KZXV9K,train_y,blue_star,top_right,2025-07-05_13h30.39.936,HideSeek_v1,2022.2.5,60.40668194802802,
,9,9,9,6,0,-3,64,,train_dim1_1,26,30,,,,2,0,2,0,,,,,,,,,0,0,0,0,0,25,25,25,0,0,0,0,,,,,,,,,,,,,,,,,,,,,,,,,stimuli/alien_stimuli/64.png,,,,,,,,,,,,,,,,,,,,,,,,,,,,,stimuli/alien_stimuli/62.png,62,8,27,,,,,,,30,,,,,,,,650.425251299981,650.425251299981,650.425251299981,650.425251299981,650.425251299981,left,2.704038300085813,7,0,0,99,0.48000000000000004,0.32,left,2.6231156999710947,,,,,648.8687462001108,650.425251299981,0.48,0.16,0.08,0.0,0.2,0.48,0.48,0.48,0.16,647.6435541999526,647.6435541999526,647.6435541999526,647.6435541999526,647.6435541999526,647.6435541999526,647.6435541999526,647.6435541999526,647.6344089999329,1.3198087001219392,return,1.2051500999368727,,,,,,,,,,,,,,,,,,,,,,,,,,,,,,,,,KZXV9K,train_y,blue_star,top_right,2025-07-05_13h30.39.936,HideSeek_v1,2022.2.5,60.40668194802802,
,9,9,9,6,0,-3,64,,train_dim1_1,26,30,,,,2,0,2,0,,,,,,,,,0,0,0,0,0,25,25,25,1,0,1,0,,,,,,,,,,,,,,,,,,,,,,,,,,,,,,,,,,,,,,,,,,,,,,,,,,,,,,,,,,,,,,,,30,,,,,,,,653.1360001999419,653.1360001999419,653.1360001999419,653.1360001999419,653.1360001999419,left,0.39306930010207,7,0,0,99,0.4,0.32,left,0.3163582000415772,,,,,,,,,,,,,,,,,,,,,,,,,,,,,,,,,,,,,,,,,,,,,,,,,,,,,,,,,,,,KZXV9K,train_y,blue_star,top_right,2025-07-05_13h30.39.936,HideSeek_v1,2022.2.5,60.40668194802802,
,9,9,9,6,0,-3,64,,train_dim1_1,26,30,,,,2,0,2,0,,,,,,,,,0,0,0,0,0,25,25,25,2,0,2,0,,,,,,,,,,,,,,,,,,,,,,,,,,,,,,,,,,,,,,,,,,,,,,,,,,,,,,,,,,,,,,,,30,,,,,,,,653.5357995999511,653.5357995999511,653.5357995999511,653.5357995999511,653.5357995999511,left,0.41027399990707636,7,0,0,99,0.32,0.32,left,0.32974580000154674,,,,,,,,,,,,,,,,,,,,,,,,,,,,,,,,,,,,,,,,,,,,,,,,,,,,,,,,,,,,KZXV9K,train_y,blue_star,top_right,2025-07-05_13h30.39.936,HideSeek_v1,2022.2.5,60.40668194802802,
,9,9,9,6,0,-3,64,,train_dim1_1,26,30,,,,2,0,2,0,,,,,,,,,0,0,0,0,0,25,25,25,3,0,3,0,,,,,,,,,,,,,,,,,,,,,,,,,,,,,,,,,,,,,,,,,,,,,,,,,,,,,,,,,,,,,,,,30,,,,,,,,653.9531425999012,653.9531425999012,653.9531425999012,653.9531425999012,653.9531425999012,right,2.2949406998232007,7,0,0,99,0.4,0.32,right,2.2132713000755757,,,,,,,,,,,,,,,,,,,,,,,,,,,,,,,,,,,,,,,,,,,,,,,,,,,,,,,,,,,,KZXV9K,train_y,blue_star,top_right,2025-07-05_13h30.39.936,HideSeek_v1,2022.2.5,60.40668194802802,
,9,9,9,6,0,-3,64,,train_dim1_1,26,30,,,,2,0,2,0,,,,,,,,,0,0,0,0,0,25,25,25,4,0,4,0,,,,,,,,,,,,,,,,,,,,,,,,,,,,,,,,,,,,,,,,,,,,,,,,,,,,,,,,,,,,,,,,30,,,,,,,,656.2547907999251,656.2547907999251,656.2547907999251,656.2547907999251,656.2547907999251,right,0.2266338998451829,7,0,0,99,0.48000000000000004,0.32,right,0.1546882998663932,,,,,,,,,,,,,,,,,,,,,,,,,,,,,,,,,,,,,,,,,,,,,,,,,,,,,,,,,,,,KZXV9K,train_y,blue_star,top_right,2025-07-05_13h30.39.936,HideSeek_v1,2022.2.5,60.40668194802802,
,9,9,9,6,0,-3,64,,train_dim1_1,26,30,,,,2,0,2,0,,,,,,,,,0,0,0,0,0,25,25,25,5,0,5,0,,,,,,,,,,,,,,,,,,,,,,,,,,,,,,,,,,,,,,,,,,,,,,,,,,,,,,,,,,,,,,,,30,,,,,,,,656.4898518999107,656.4898518999107,656.4898518999107,656.4898518999107,656.4898518999107,right,0.2432309000287205,7,0,0,99,0.56,0.32,right,0.16991179971955717,,,,,,,,,,,,,,,,,,,,,,,,,,,,,,,,,,,,,,,,,,,,,,,,,,,,,,,,,,,,KZXV9K,train_y,blue_star,top_right,2025-07-05_13h30.39.936,HideSeek_v1,2022.2.5,60.40668194802802,
,9,9,9,6,0,-3,64,,train_dim1_1,26,30,,,,2,0,2,0,,,,,,,,,0,0,0,0,0,25,25,25,6,0,6,0,,,,,,,,,,,,,,,,,,,,,,,,,,,,,,,,,,,,,,,,,,,,,,,,,,,,,,,,,,,,,,,,30,,,,,,,,656.7390099000186,656.7390099000186,656.7390099000186,656.7390099000186,656.7390099000186,down,1.1106483000330627,7,0,0,99,0.56,0.24,down,1.0274704000912607,,,,,,,,,,,,,,,,,,,,,,,,,,,,,,,,,,,,,,,,,,,,,,,,,,,,,,,,,,,,KZXV9K,train_y,blue_star,top_right,2025-07-05_13h30.39.936,HideSeek_v1,2022.2.5,60.40668194802802,
,9,9,9,6,0,-3,64,,train_dim1_1,26,30,,,,2,0,2,0,,,,,,,,,0,0,0,0,0,25,25,25,7,0,7,0,,,,,,,,,,,,,,,,,,,,,,,,,,,,,,,,,,,,,,,,,,,,,,,,,,,,,,,,,,,,,,,,30,,,,,,,,657.8566980999894,657.8566980999894,657.8566980999894,657.8566980999894,657.8566980999894,down,0.3598327001091093,7,0,0,99,0.56,0.15999999999999998,down,0.27422999986447394,,,,,,,,,,,,,,,,,,,,,,,,,,,,,,,,,,,,,,,,,,,,,,,,,,,,,,,,,,,,KZXV9K,train_y,blue_star,top_right,2025-07-05_13h30.39.936,HideSeek_v1,2022.2.5,60.40668194802802,
,9,9,9,6,0,-3,64,,train_dim1_1,26,30,,,,2,0,2,0,,,,,,,,,0,0,0,0,0,25,25,25,8,0,8,0,,,,,,,,,,,,,,,,,,,,,,,,,,,,,,,,,,,,,,,,,,,,,,,,,,,,,,,,,,,,,,,,30,,,,,,,,658.2238145000301,658.2238145000301,658.2238145000301,658.2238145000301,658.2238145000301,down,0.4434734999667853,7,0,0,99,0.56,0.07999999999999997,down,0.35742020001634955,,,,,,,,,,,,,,,,,,,,,,,,,,,,,,,,,,,,,,,,,,,,,,,,,,,,,,,,,,,,KZXV9K,train_y,blue_star,top_right,2025-07-05_13h30.39.936,HideSeek_v1,2022.2.5,60.40668194802802,
,9,9,9,6,0,-3,64,,train_dim1_1,26,30,,,,2,0,2,0,,,,,,,,,0,0,0,0,0,25,25,25,9,0,9,0,,,,,,,,,,,,,,,,,,,,,,,,,,,,,,,,,,,,,,,,,,,,,,,,,,,,,,,,,,,,,,,,30,,,,,,,,658.6739310000557,658.6739310000557,658.6739310000557,658.6739310000557,658.6739310000557,down,0.4935043000150472,7,0,0,99,0.56,-2.7755575615628914e-17,down,0.40800569974817336,,,,,,,,,,,,,,,,,,,,,,,,,,,,,,,,,,,,,,,,,,,,,,,,,,,,,,,,,,,,KZXV9K,train_y,blue_star,top_right,2025-07-05_13h30.39.936,HideSeek_v1,2022.2.5,60.40668194802802,
,9,9,9,6,0,-3,64,,train_dim1_1,26,30,,,,2,0,2,0,,,,,,,,,0,0,0,0,0,25,25,25,10,0,10,0,,,,,,,,,,,,,,,,,,,,,,,,,,,,,,,,,,,,,,,,,,,,,,,,,,,,,,,,,,,,,,,,30,,,,,,,,659.1742348000407,659.1742348000407,659.1742348000407,659.1742348000407,659.1742348000407,return,0.5768973999656737,7,1,0,0,0.56,-2.7755575615628914e-17,return,0.5033650998957455,-34,-28,0.56,-2.7755575615628914e-17,,,,,,,,,,,,,,,,,,,,,,,,,,,,,,,,,,,,,,,,,,,,,,,,,,,,,,,,KZXV9K,train_y,blue_star,top_right,2025-07-05_13h30.39.936,HideSeek_v1,2022.2.5,60.40668194802802,
,8,9,8,4,0,-5,66,,train_dim1_1,27,30,,,,2,0,2,0,,,,,,,,,0,0,0,0,0,26,26,26,0,0,0,0,,,,,,,,,,,,,,,,,,,,,,,,,stimuli/alien_stimuli/66.png,,,,,,,,,,,,,,,,,,,,,,,,,,,,,stimuli/alien_stimuli/64.png,64,9,28,,,,,,,30,,,,,,,,665.8261412999127,665.8261412999127,665.8261412999127,665.8261412999127,665.8261412999127,left,3.300777900032699,7,1,0,99,0.39999999999999997,0.32,left,3.2215410000644624,,,,,664.2651577000506,665.8261412999127,0.56,0.08,0.24,0.0,0.2,0.56,0.56,0.56,0.08,661.3232641001232,661.3232641001232,661.3232641001232,661.3232641001232,661.3232641001232,661.3232641001232,661.3232641001232,661.3232641001232,661.3126091999002,3.054327300051227,return,2.910438399994746,,,,,,,,,,,,,,,,,,,,,,,,,,,,,,,,,KZXV9K,train_y,blue_star,top_right,2025-07-05_13h30.39.936,HideSeek_v1,2022.2.5,60.40668194802802,
,8,9,8,4,0,-5,66,,train_dim1_1,27,30,,,,2,0,2,0,,,,,,,,,0,0,0,0,0,26,26,26,1,0,1,0,,,,,,,,,,,,,,,,,,,,,,,,,,,,,,,,,,,,,,,,,,,,,,,,,,,,,,,,,,,,,,,,30,,,,,,,,669.1324714999646,669.1324714999646,669.1324714999646,669.1324714999646,669.1324714999646,left,0.20946680009365082,7,1,0,99,0.31999999999999995,0.32,left,0.1374596997629851,,,,,,,,,,,,,,,,,,,,,,,,,,,,,,,,,,,,,,,,,,,,,,,,,,,,,,,,,,,,KZXV9K,train_y,blue_star,top_right,2025-07-05_13h30.39.936,HideSeek_v1,2022.2.5,60.40668194802802,
,8,9,8,4,0,-5,66,,train_dim1_1,27,30,,,,2,0,2,0,,,,,,,,,0,0,0,0,0,26,26,26,2,0,2,0,,,,,,,,,,,,,,,,,,,,,,,,,,,,,,,,,,,,,,,,,,,,,,,,,,,,,,,,,,,,,,,,30,,,,,,,,669.3505637999624,669.3505637999624,669.3505637999624,669.3505637999624,669.3505637999624,left,0.4094089998397976,7,1,0,99,0.23999999999999994,0.32,left,0.32338049984537065,,,,,,,,,,,,,,,,,,,,,,,,,,,,,,,,,,,,,,,,,,,,,,,,,,,,,,,,,,,,KZXV9K,train_y,blue_star,top_right,2025-07-05_13h30.39.936,HideSeek_v1,2022.2.5,60.40668194802802,
,8,9,8,4,0,-5,66,,train_dim1_1,27,30,,,,2,0,2,0,,,,,,,,,0,0,0,0,0,26,26,26,3,0,3,0,,,,,,,,,,,,,,,,,,,,,,,,,,,,,,,,,,,,,,,,,,,,,,,,,,,,,,,,,,,,,,,,30,,,,,,,,669.766641800059,669.766641800059,669.766641800059,669.766641800059,669.766641800059,right,1.2941364001017064,7,1,0,99,0.31999999999999995,0.32,right,1.2056855999398977,,,,,,,,,,,,,,,,,,,,,,,,,,,,,,,,,,,,,,,,,,,,,,,,,,,,,,,,,,,,KZXV9K,train_y,blue_star,top_right,2025-07-05_13h30.39.936,HideSeek_v1,2022.2.5,60.40668194802802,
,8,9,8,4,0,-5,66,,train_dim1_1,27,30,,,,2,0,2,0,,,,,,,,,0,0,0,0,0,26,26,26,4,0,4,0,,,,,,,,,,,,,,,,,,,,,,,,,,,,,,,,,,,,,,,,,,,,,,,,,,,,,,,,,,,,,,,,30,,,,,,,,671.0670233999845,671.0670233999845,671.0670233999845,671.0670233999845,671.0670233999845,right,0.22671830002218485,7,1,0,99,0.39999999999999997,0.32,right,0.1507520996965468,,,,,,,,,,,,,,,,,,,,,,,,,,,,,,,,,,,,,,,,,,,,,,,,,,,,,,,,,,,,KZXV9K,train_y,blue_star,top_right,2025-07-05_13h30.39.936,HideSeek_v1,2022.2.5,60.40668194802802,
,8,9,8,4,0,-5,66,,train_dim1_1,27,30,,,,2,0,2,0,,,,,,,,,0,0,0,0,0,26,26,26,5,0,5,0,,,,,,,,,,,,,,,,,,,,,,,,,,,,,,,,,,,,,,,,,,,,,,,,,,,,,,,,,,,,,,,,30,,,,,,,,671.3018684999552,671.3018684999552,671.3018684999552,671.3018684999552,671.3018684999552,left,1.2938318001106381,7,1,0,99,0.31999999999999995,0.32,left,1.2044491998385638,,,,,,,,,,,,,,,,,,,,,,,,,,,,,,,,,,,,,,,,,,,,,,,,,,,,,,,,,,,,KZXV9K,train_y,blue_star,top_right,2025-07-05_13h30.39.936,HideSeek_v1,2022.2.5,60.40668194802802,
,8,9,8,4,0,-5,66,,train_dim1_1,27,30,,,,2,0,2,0,,,,,,,,,0,0,0,0,0,26,26,26,6,0,6,0,,,,,,,,,,,,,,,,,,,,,,,,,,,,,,,,,,,,,,,,,,,,,,,,,,,,,,,,,,,,,,,,30,,,,,,,,672.6028970999178,672.6028970999178,672.6028970999178,672.6028970999178,672.6028970999178,left,0.4099049000069499,7,1,0,99,0.23999999999999994,0.32,left,0.32751289987936616,,,,,,,,,,,,,,,,,,,,,,,,,,,,,,,,,,,,,,,,,,,,,,,,,,,,,,,,,,,,KZXV9K,train_y,blue_star,top_right,2025-07-05_13h30.39.936,HideSeek_v1,2022.2.5,60.40668194802802,
,8,9,8,4,0,-5,66,,train_dim1_1,27,30,,,,2,0,2,0,,,,,,,,,0,0,0,0,0,26,26,26,7,0,7,0,,,,,,,,,,,,,,,,,,,,,,,,,,,,,,,,,,,,,,,,,,,,,,,,,,,,,,,,,,,,,,,,30,,,,,,,,673.0193276999053,673.0193276999053,673.0193276999053,673.0193276999053,673.0193276999053,left,0.4603140000253916,7,1,0,99,0.15999999999999992,0.32,left,0.3790990998968482,,,,,,,,,,,,,,,,,,,,,,,,,,,,,,,,,,,,,,,,,,,,,,,,,,,,,,,,,,,,KZXV9K,train_y,blue_star,top_right,2025-07-05_13h30.39.936,HideSeek_v1,2022.2.5,60.40668194802802,
,8,9,8,4,0,-5,66,,train_dim1_1,27,30,,,,2,0,2,0,,,,,,,,,0,0,0,0,0,26,26,26,8,0,8,0,,,,,,,,,,,,,,,,,,,,,,,,,,,,,,,,,,,,,,,,,,,,,,,,,,,,,,,,,,,,,,,,30,,,,,,,,673.4891580999829,673.4891580999829,673.4891580999829,673.4891580999829,673.4891580999829,left,0.3593052998185158,7,1,0,99,0.07999999999999992,0.32,left,0.26806769985705614,,,,,,,,,,,,,,,,,,,,,,,,,,,,,,,,,,,,,,,,,,,,,,,,,,,,,,,,,,,,KZXV9K,train_y,blue_star,top_right,2025-07-05_13h30.39.936,HideSeek_v1,2022.2.5,60.40668194802802,
,8,9,8,4,0,-5,66,,train_dim1_1,27,30,,,,2,0,2,0,,,,,,,,,0,0,0,0,0,26,26,26,9,0,9,0,,,,,,,,,,,,,,,,,,,,,,,,,,,,,,,,,,,,,,,,,,,,,,,,,,,,,,,,,,,,,,,,30,,,,,,,,673.8536050000694,673.8536050000694,673.8536050000694,673.8536050000694,673.8536050000694,return,0.6436016999650747,7,0,0,0,0.07999999999999992,0.32,return,0.5604991998989135,-34,-33,0.07999999999999992,0.32,,,,,,,,,,,,,,,,,,,,,,,,,,,,,,,,,,,,,,,,,,,,,,,,,,,,,,,,KZXV9K,train_y,blue_star,top_right,2025-07-05_13h30.39.936,HideSeek_v1,2022.2.5,60.40668194802802,
,9,6,9,6,0,0,61,,train_dim1_1,28,30,,,,2,0,2,0,,,,,,,,,0,0,0,0,0,27,27,27,0,0,0,0,,,,,,,,,,,,,,,,,,,,,,,,,stimuli/alien_stimuli/61.png,,,,,,,,,,,,,,,,,,,,,,,,,,,,,stimuli/alien_stimuli/66.png,66,8,29,,,,,,,30,,,,,,,,678.7464703000151,678.7464703000151,678.7464703000151,678.7464703000151,678.7464703000151,return,1.6721215001307428,8,0,0,1,0.56,0.08,return,1.5951671998482198,-34,-33,0.56,0.08,677.1923948000185,678.7464703000151,0.48,-0.08,0.4,0.0,0.12,0.48,0.48,0.48,-0.08,676.0692706999835,676.0692706999835,676.0692706999835,676.0692706999835,676.0692706999835,676.0692706999835,676.0692706999835,676.0692706999835,676.0581775999162,1.2365582999773324,return,1.1037404998205602,,,,,,,,,,,,,,,,,,,,,,,,,,,,,,,,,KZXV9K,train_y,blue_star,top_right,2025-07-05_13h30.39.936,HideSeek_v1,2022.2.5,60.40668194802802,
,7,7,7,6,0,-1,62,,train_dim1_1,29,30,,,,2,0,2,0,,,,,,,,,0,0,0,0,0,28,28,28,0,0,0,0,,,,,,,,,,,,,,,,,,,,,,,,,stimuli/alien_stimuli/62.png,,,,,,,,,,,,,,,,,,,,,,,,,,,,,stimuli/alien_stimuli/61.png,61,9,30,,,,,,,30,,,,,,,,684.6499735000543,684.6499735000543,684.6499735000543,684.6499735000543,684.6499735000543,down,1.606259100139141,8,0,0,99,0.4,0.08,down,1.5340817999094725,,,,,683.09748090012,684.6499735000543,0.56,0.08,0.0,0.0,0.08,0.56,0.56,0.56,0.08,681.9730030999053,681.9730030999053,681.9730030999053,681.9730030999053,681.9730030999053,681.9730030999053,681.9730030999053,681.9730030999053,681.96304469998,1.2197396999690682,return,1.0935188997536898,,,,,,,,,,,,,,,,,,,,,,,,,,,,,,,,,KZXV9K,train_y,blue_star,top_right,2025-07-05_13h30.39.936,HideSeek_v1,2022.2.5,60.40668194802802,
,7,7,7,6,0,-1,62,,train_dim1_1,29,30,,,,2,0,2,0,,,,,,,,,0,0,0,0,0,28,28,28,1,0,1,0,,,,,,,,,,,,,,,,,,,,,,,,,,,,,,,,,,,,,,,,,,,,,,,,,,,,,,,,,,,,,,,,30,,,,,,,,686.2647065999918,686.2647065999918,686.2647065999918,686.2647065999918,686.2647065999918,return,0.44281050004065037,9,0,0,1,0.4,0.08,return,0.36410470004193485,-35,-33,0.4,0.08,,,,,,,,,,,,,,,,,,,,,,,,,,,,,,,,,,,,,,,,,,,,,,,,,,,,,,,,KZXV9K,train_y,blue_star,top_right,2025-07-05_13h30.39.936,HideSeek_v1,2022.2.5,60.40668194802802,
,5,6,5,2,0,-4,65,,train_dim1_1,30,30,,,,2,0,2,0,,,,,,,,,0,0,0,0,0,29,29,29,0,0,0,0,,,,,,,,,,,,,,,,,,,,,,,,,stimuli/alien_stimuli/65.png,,,,,,,,,,,,,,,,,,,,,,,,,,,,,stimuli/alien_stimuli/62.png,62,7,31,,,,,,,30,,,,,,,,690.7771173999645,690.7771173999645,690.7771173999645,690.7771173999645,690.7771173999645,down,5.187840200029314,9,0,0,99,0.24,0.0,down,5.107201499864459,,,,,689.2193032000214,690.7771173999645,0.4,0.08,0.08,0.0,0.12,0.4,0.4,0.4,0.08,688.2668953000102,688.2668953000102,688.2668953000102,688.2668953000102,688.2668953000102,688.2668953000102,688.2668953000102,688.2668953000102,688.2682602999266,1.053396699950099,return,0.9343028997536749,,,,,,,,,,,,,,,,,,,,,,,,,,,,,,,,,KZXV9K,train_y,blue_star,top_right,2025-07-05_13h30.39.936,HideSeek_v1,2022.2.5,60.40668194802802,
,5,6,5,2,0,-4,65,,train_dim1_1,30,30,,,,2,0,2,0,,,,,,,,,0,0,0,0,0,29,29,29,1,0,1,0,,,,,,,,,,,,,,,,,,,,,,,,,,,,,,,,,,,,,,,,,,,,,,,,,,,,,,,,,,,,,,,,30,,,,,,,,695.9755734999198,695.9755734999198,695.9755734999198,695.9755734999198,695.9755734999198,down,0.25789389992132783,9,0,0,99,0.24,-0.08,down,0.17792909988202155,,,,,,,,,,,,,,,,,,,,,,,,,,,,,,,,,,,,,,,,,,,,,,,,,,,,,,,,,,,,KZXV9K,train_y,blue_star,top_right,2025-07-05_13h30.39.936,HideSeek_v1,2022.2.5,60.40668194802802,
,5,6,5,2,0,-4,65,,train_dim1_1,30,30,,,,2,0,2,0,,,,,,,,,0,0,0,0,0,29,29,29,2,0,2,0,,,,,,,,,,,,,,,,,,,,,,,,,,,,,,,,,,,,,,,,,,,,,,,,,,,,,,,,,,,,,,,,30,,,,,,,,696.2384665999562,696.2384665999562,696.2384665999562,696.2384665999562,696.2384665999562,down,0.32668160018511117,9,0,0,99,0.24,-0.16,down,0.24141699983738363,,,,,,,,,,,,,,,,,,,,,,,,,,,,,,,,,,,,,,,,,,,,,,,,,,,,,,,,,,,,KZXV9K,train_y,blue_star,top_right,2025-07-05_13h30.39.936,HideSeek_v1,2022.2.5,60.40668194802802,
,5,6,5,2,0,-4,65,,train_dim1_1,30,30,,,,2,0,2,0,,,,,,,,,0,0,0,0,0,29,29,29,3,0,3,0,,,,,,,,,,,,,,,,,,,,,,,,,,,,,,,,,,,,,,,,,,,,,,,,,,,,,,,,,,,,,,,,30,,,,,,,,696.5723212000448,696.5723212000448,696.5723212000448,696.5723212000448,696.5723212000448,down,0.34325919998809695,9,0,0,99,0.24,-0.24,down,0.26102789980359375,,,,,,,,,,,,,,,,,,,,,,,,,,,,,,,,,,,,,,,,,,,,,,,,,,,,,,,,,,,,KZXV9K,train_y,blue_star,top_right,2025-07-05_13h30.39.936,HideSeek_v1,2022.2.5,60.40668194802802,
,5,6,5,2,0,-4,65,,train_dim1_1,30,30,,,,2,0,2,0,,,,,,,,,0,0,0,0,0,29,29,29,4,0,4,0,,,,,,,,,,,,,,,,,,,,,,,,,,,,,,,,,,,,,,,,,,,,,,,,,,,,,,,,,,,,,,,,30,,,,,,,,696.9222283000126,696.9222283000126,696.9222283000126,696.9222283000126,696.9222283000126,down,0.460105299949646,9,0,0,99,0.24,-0.32,down,0.38121789996512234,,,,,,,,,,,,,,,,,,,,,,,,,,,,,,,,,,,,,,,,,,,,,,,,,,,,,,,,,,,,KZXV9K,train_y,blue_star,top_right,2025-07-05_13h30.39.936,HideSeek_v1,2022.2.5,60.40668194802802,
,5,6,5,2,0,-4,65,,train_dim1_1,30,30,,,,2,0,2,0,,,,,,,,,0,0,0,0,0,29,29,29,5,0,5,0,,,,,,,,,,,,,,,,,,,,,,,,,,,,,,,,,,,,,,,,,,,,,,,,,,,,,,,,,,,,,,,,30,,,,,,,,697.3887946000323,697.3887946000323,697.3887946000323,697.3887946000323,697.3887946000323,return,0.6269628000445664,9,1,0,0,0.24,-0.32,return,0.5462145998608321,-40,-33,0.24,-0.32,,,,,,,,,,,,,,,,,,,,,,,,,,,,,,,,,,,,,,,,,,,,,,,,,,,,,,,,KZXV9K,train_y,blue_star,top_right,2025-07-05_13h30.39.936,HideSeek_v1,2022.2.5,60.40668194802802,
,,,,,,,,,,,30,,,,2,0,2,0,,,,,,,,,,,,,,,,,,,,,,,,,,,,,,,,,,,,,,,,,,,,,,,,,,,,,,,,,,,,,,,,,,,,,,,,,,stimuli/alien_stimuli/65.png,65,5,32,21,0.7,0.375,1,1,1,30,0,conditions/schedules/train_y_first/blue_star_00/top_right/inputTrain_2.1.xlsx,99,1,2,1,0,,,,,,,,,,,0,,,,,,,,,701.0620397001039,702.6276030000299,0.24,-0.24,0.32,0.0,-0.07999999999999999,0.24,0.24,0.24,-0.24,699.5851726999972,699.5851726999972,699.5851726999972,699.5851726999972,699.5851726999972,699.5851726999972,699.5851726999972,699.5851726999972,699.5775943000335,1.5866845999844372,return,1.4561765999533236,0,0.9,0,1,9,,,,,,,,,,,,,,,,,,,,,,,,,,,,KZXV9K,train_y,blue_star,top_right,2025-07-05_13h30.39.936,HideSeek_v1,2022.2.5,60.40668194802802,
,,,,,,,,,,,,,,,3,0,3,0,0,0,0,0,,,,,,,,,,,,,,,,,,,,,,,,,,,,,,,conditions/schedules/train_y_first/blue_star_00/top_right/instructions/Slide17.png,conditions/schedules/train_y_first/blue_star_00/top_right/instructions/Audio17.wav,702.6276030000299,702.6302354000509,17,"[7.357211799826473, 18.691875800024718, 17.080034699989483, 19.126825999934226, 4.8539115998428315, 4.637043100083247, 5.6188918999396265, 11.438494599889964, 5.733739099930972, 6.782408599974588, 10.134896600153297, 15.678780799964443, 17.665373199852183, 16.97969840001315, 43.92759400000796, 21.862045699963346, 64.16964909993112]","[7.3572243000380695, 0.014234800124540925, 0.014383899979293346, 0.03322049998678267, 0.01452089985832572, 0.014408999821171165, 0.014108099974691868, 0.030679799849167466, 0.06338219996541739, 0.04736379999667406, 0.00020530004985630512, 15.678786899894476, 17.66539949993603, 16.979705599835142, 43.92760050017387, 21.862051599891856, 64.16965609998442]",0,,,,,,,,,,,,,,,,,,,,,,,,,,,,,,,,,,,,,,,,,,,,,,,,,,,,,,,,,,,,,,,,,,,,,,,,,,,,,,,,,,,,,,,,,,,,,,,,,,,,,,,,,,,,,,,,,,,,,,,,,,,,KZXV9K,train_y,blue_star,top_right,2025-07-05_13h30.39.936,HideSeek_v1,2022.2.5,60.40668194802802,
,,,,,,,,,,,,,,,3,0,3,0,1,0,1,0,,,,,,,,,,,,,,,,,,,,,,,,,,,,,,,conditions/schedules/train_y_first/blue_star_00/top_right/instructions/Slide18.png,conditions/schedules/train_y_first/blue_star_00/top_right/instructions/Audio18.wav,766.868456199998,766.8667274999898,18,"[7.357211799826473, 18.691875800024718, 17.080034699989483, 19.126825999934226, 4.8539115998428315, 4.637043100083247, 5.6188918999396265, 11.438494599889964, 5.733739099930972, 6.782408599974588, 10.134896600153297, 15.678780799964443, 17.665373199852183, 16.97969840001315, 43.92759400000796, 21.862045699963346, 64.16964909993112, 6.885001200018451]","[7.3572243000380695, 0.014234800124540925, 0.014383899979293346, 0.03322049998678267, 0.01452089985832572, 0.014408999821171165, 0.014108099974691868, 0.030679799849167466, 0.06338219996541739, 0.04736379999667406, 0.00020530004985630512, 15.678786899894476, 17.66539949993603, 16.979705599835142, 43.92760050017387, 21.862051599891856, 64.16965609998442, 6.885007499950007]",0,,,,,,,,,,,,,,,,,,,,,,,,,,,,,,,,,,,,,,,,,,,,,,,,,,,,,,,,,,,,,,,,,,,,,,,,,,,,,,,,,,,,,,,,,,,,,,,,,,,,,,,,,,,,,,,,,,,,,,,,,,,,KZXV9K,train_y,blue_star,top_right,2025-07-05_13h30.39.936,HideSeek_v1,2022.2.5,60.40668194802802,
,,,,,,,,,,,,,,,3,0,3,0,2,0,2,0,,,,,,,,,,,,,,,,,,,,,,,,,,,,,,,conditions/schedules/train_y_first/blue_star_00/top_right/instructions/Slide19.png,conditions/schedules/train_y_first/blue_star_00/top_right/instructions/Audio19.wav,773.8245655999053,773.8225720999762,19,"[7.357211799826473, 18.691875800024718, 17.080034699989483, 19.126825999934226, 4.8539115998428315, 4.637043100083247, 5.6188918999396265, 11.438494599889964, 5.733739099930972, 6.782408599974588, 10.134896600153297, 15.678780799964443, 17.665373199852183, 16.97969840001315, 43.92759400000796, 21.862045699963346, 64.16964909993112, 6.885001200018451, 9.771080499980599]","[7.3572243000380695, 0.014234800124540925, 0.014383899979293346, 0.03322049998678267, 0.01452089985832572, 0.014408999821171165, 0.014108099974691868, 0.030679799849167466, 0.06338219996541739, 0.04736379999667406, 0.00020530004985630512, 15.678786899894476, 17.66539949993603, 16.979705599835142, 43.92760050017387, 21.862051599891856, 64.16965609998442, 0.0002305000089108944, 9.7710875000339]",0,,,,,,,,,,,,,,,,,,,,,,,,,,,,,,,,,,,,,,,,,,,,,,,,,,,,,,,,,,,,,,,,,,,,,,,,,,,,,,,,,,,,,,,,,,,,,,,,,,,,,,,,,,,,,,,,,,,,,,,,,,,,KZXV9K,train_y,blue_star,top_right,2025-07-05_13h30.39.936,HideSeek_v1,2022.2.5,60.40668194802802,
