trialInstr,x_fixStart,y_fixStart,x_corrSteps,y_corrSteps,x_nrSteps,y_nrSteps,alienID,trialLength,version,trialTrain,praclen,testlen,trial_label,break_on_off,beforeExpLoop.thisRepN,beforeExpLoop.thisTrialN,beforeExpLoop.thisN,beforeExpLoop.thisIndex,mini_instr_trials.thisRepN,mini_instr_trials.thisTrialN,mini_instr_trials.thisN,mini_instr_trials.thisIndex,instrLoop.thisRepN,instrLoop.thisTrialN,instrLoop.thisN,instrLoop.thisIndex,repeat_prac.thisRepN,repeat_prac.thisTrialN,repeat_prac.thisN,repeat_prac.thisIndex,trainLoop.thisRepN,trainLoop.thisTrialN,trainLoop.thisN,trainLoop.thisIndex,moveLoop_train.thisRepN,moveLoop_train.thisTrialN,moveLoop_train.thisN,moveLoop_train.thisIndex,experiment.thisRepN,experiment.thisTrialN,experiment.thisN,experiment.thisIndex,moveLoop_test.thisRepN,moveLoop_test.thisTrialN,moveLoop_test.thisN,moveLoop_test.thisIndex,mini_instr2_trials.thisRepN,mini_instr2_trials.thisTrialN,mini_instr2_trials.thisN,mini_instr2_trials.thisIndex,start_all_time,url,slideStim,audioStim,slides.started,sounds.started,nextButton.numClicks,nextButton.timesOn,nextButton.timesOff,prev_but.numClicks,prev_but.timesOn,prev_but.timesOff,alienStim,instrFile,alienStim_instr,gridImage_instr.started,startPos_3.started,key_instr.started,alienImage_3.started,sounds_1.started,key_instr.keys,key_instr.rt,all_x,all_y,FBy_corrSteps,FBy_fixStart,FBx_corrSteps,FBx_fixStart,FBy_pathSize_check,FBx_pathSize_check,gridImage_9.started,alienImageFB_3.started,startPosFB_3.started,keyFB_3.started,pathLine_ydir_2.started,pathLine_xdir_2.started,alienFace_3.started,sounds_2.started,RTFB_instr,keyFB_3.keys,keyFB_3.rt,draw_alienStim,draw_alienID,test_x,nrepcount,perfthres,percthres,earlierperf,earlystop,nextPrac,fileidx,praclen,saveACC_train,pracFile,nextPrac_train,addNrep,fileidx_endr,repExp,showearly,gridImage_4.started,startPos.started,movePos.started,key_resp.started,alienImage.started,buttonPress_train,RTchoice_train,cumAcctrain,aCorr,saveACC_choice,corrAns,x_movePos_end,y_movePos_end,key_resp.keys,key_resp.rt,wLy_dir,wLx_dir,x_movePos,y_movePos,text_2.started,text_2.stopped,aft_x_corrPos,aft_y_corrPos,y_pathSize_check,x_pathSize_check,y_pathdirY,x_pathdirY,x_pathdirX,x_corrPos,y_corrPos,gridImage_6.started,alienImageFB_2.started,startPosFB_2.started,movePosFB_2.started,keyFB_2.started,pathLine_xdir.started,pathLine_ydir.started,alienFace.started,sounds_4.started,RT_FBtrain,keyFB_2.keys,keyFB_2.rt,saveACC_pre,ACC,within_saveACC_train,earlystop_wloop,cumAcctrain_check,gridImage_3.started,alienImage_test.started,startPos_test.started,movePos_test.started,key_resp_test.started,wLy_dir_test,wLx_dir_test,buttonPress_test,RTchoice_test,cumAcctest,corrAns_test,key_resp_test.keys,key_resp_test.rt,text_3.started,text_3.stopped,total_time,end_all_time,key_resp_3.keys,slides_2.started,sounds_3.started,nextButton_2.numClicks,nextButton_2.timesOn,nextButton_2.timesOff,prev_but_2.numClicks,prev_but_2.timesOn,prev_but_2.timesOff,bye.started,participant,train_first,00_coordinate,starting corner,date,expName,psychopyVersion,frameRate,
,,,,,,,,,,,,,,,0,0,0,0,0,0,0,0,,,,,,,,,,,,,,,,,,,,,,,,,,,,,start_all_time,testround,conditions/schedules/train_x_first/blue_star_00/bottom_right/instructions/Slide1.png,conditions/schedules/train_x_first/blue_star_00/bottom_right/instructions/Audio1.wav,2887.736837200122,2887.6756042586408,1,[7.162690300028771],[7.1626972001977265],0,,,,,,,,,,,,,,,,,,,,,,,,,,,,,,,,,,,,,,,,,,,,,,,,,,,,,,,,,,,,,,,,,,,,,,,,,,,,,,,,,,,,,,,,,,,,,,,,,,,,,,,,,,,,,,,,,,,,,,,,,,,,L2GMRN,train_x,blue_star,bottom_right,2025-07-23_12h13.20.976,HideSeek_v1,2022.2.5,59.96242749417547,
,,,,,,,,,,,,,,,0,0,0,0,1,0,1,0,,,,,,,,,,,,,,,,,,,,,,,,,,,,,,,conditions/schedules/train_x_first/blue_star_00/bottom_right/instructions/Slide2.png,conditions/schedules/train_x_first/blue_star_00/bottom_right/instructions/Audio2.wav,2894.917078800034,2894.903788840072,2,"[7.162690300028771, 18.48325930000283]","[0.034528200048953295, 18.48326539993286]",0,,,,,,,,,,,,,,,,,,,,,,,,,,,,,,,,,,,,,,,,,,,,,,,,,,,,,,,,,,,,,,,,,,,,,,,,,,,,,,,,,,,,,,,,,,,,,,,,,,,,,,,,,,,,,,,,,,,,,,,,,,,,L2GMRN,train_x,blue_star,bottom_right,2025-07-23_12h13.20.976,HideSeek_v1,2022.2.5,59.96242749417547,
,,,,,,,,,,,,,,,0,0,0,0,2,0,2,0,,,,,,,,,,,,,,,,,,,,,,,,,,,,,,,conditions/schedules/train_x_first/blue_star_00/bottom_right/instructions/Slide3.png,conditions/schedules/train_x_first/blue_star_00/bottom_right/instructions/Audio3.wav,2913.471438100096,2913.4690347999567,3,"[7.162690300028771, 18.48325930000283, 16.60910279978998]","[0.034528200048953295, 0.08026319998316467, 16.609110199846327]",0,,,,,,,,,,,,,,,,,,,,,,,,,,,,,,,,,,,,,,,,,,,,,,,,,,,,,,,,,,,,,,,,,,,,,,,,,,,,,,,,,,,,,,,,,,,,,,,,,,,,,,,,,,,,,,,,,,,,,,,,,,,,L2GMRN,train_x,blue_star,bottom_right,2025-07-23_12h13.20.976,HideSeek_v1,2022.2.5,59.96242749417547,
,,,,,,,,,,,,,,,0,0,0,0,3,0,3,0,,,,,,,,,,,,,,,,,,,,,,,,,,,,,,,conditions/schedules/train_x_first/blue_star_00/bottom_right/instructions/Slide4.png,conditions/schedules/train_x_first/blue_star_00/bottom_right/instructions/Audio4.wav,2930.161854499951,2930.1495148999384,4,"[7.162690300028771, 18.48325930000283, 16.60910279978998, 19.452225300017744]","[0.034528200048953295, 0.08026319998316467, 0.13575950008817017, 19.45223390008323]",0,,,,,,,,,,,,,,,,,,,,,,,,,,,,,,,,,,,,,,,,,,,,,,,,,,,,,,,,,,,,,,,,,,,,,,,,,,,,,,,,,,,,,,,,,,,,,,,,,,,,,,,,,,,,,,,,,,,,,,,,,,,,L2GMRN,train_x,blue_star,bottom_right,2025-07-23_12h13.20.976,HideSeek_v1,2022.2.5,59.96242749417547,
,,,,,,,,,,,,,,,0,0,0,0,4,0,4,0,,,,,,,,,,,,,,,,,,,,,,,,,,,,,,,conditions/schedules/train_x_first/blue_star_00/bottom_right/instructions/Slide5.png,conditions/schedules/train_x_first/blue_star_00/bottom_right/instructions/Audio5.wav,2949.686682800064,2949.682737999945,5,"[7.162690300028771, 18.48325930000283, 16.60910279978998, 19.452225300017744, 4.780659599928185]","[0.034528200048953295, 0.08026319998316467, 0.13575950008817017, 0.06288959993980825, 4.780666599981487]",0,,,,,,,,,,,,,,,,,,,,,,,,,,,,,,,,,,,,,,,,,,,,,,,,,,,,,,,,,,,,,,,,,,,,,,,,,,,,,,,,,,,,,,,,,,,,,,,,,,,,,,,,,,,,,,,,,,,,,,,,,,,,L2GMRN,train_x,blue_star,bottom_right,2025-07-23_12h13.20.976,HideSeek_v1,2022.2.5,59.96242749417547,
,,,,,,,,,,,,,,,0,0,0,0,5,0,5,0,,,,,,,,,,,,,,,,,,,,,,,,,,,,,,,conditions/schedules/train_x_first/blue_star_00/bottom_right/instructions/Slide6.png,conditions/schedules/train_x_first/blue_star_00/bottom_right/instructions/Audio6.wav,2954.5190862999298,2954.519767539948,6,"[7.162690300028771, 18.48325930000283, 16.60910279978998, 19.452225300017744, 4.780659599928185, 5.519719700096175]","[0.034528200048953295, 0.08026319998316467, 0.13575950008817017, 0.06288959993980825, 0.04838110017590225, 5.519726400030777]",0,,,,,,,,,,,,,,,,,,,,,,,,,,,,,,,,,,,,,,,,,,,,,,,,,,,,,,,,,,,,,,,,,,,,,,,,,,,,,,,,,,,,,,,,,,,,,,,,,,,,,,,,,,,,,,,,,,,,,,,,,,,,L2GMRN,train_x,blue_star,bottom_right,2025-07-23_12h13.20.976,HideSeek_v1,2022.2.5,59.96242749417547,
,,,,,,,,,,,,,,,0,0,0,0,6,0,6,0,,,,,,,,,,,,,,,,,,,,,,,,,,,,,,,conditions/schedules/train_x_first/blue_star_00/bottom_right/instructions/Slide7.png,conditions/schedules/train_x_first/blue_star_00/bottom_right/instructions/Audio7.wav,2960.0899293001276,2960.091013539955,7,"[7.162690300028771, 18.48325930000283, 16.60910279978998, 19.452225300017744, 4.780659599928185, 5.519719700096175, 6.070500200148672]","[0.034528200048953295, 0.08026319998316467, 0.13575950008817017, 0.06288959993980825, 0.04838110017590225, 0.06630100007168949, 6.070506599964574]",0,,,,,,,,,,,,,,,,,,,,,,,,,,,,,,,,,,,,,,,,,,,,,,,,,,,,,,,,,,,,,,,,,,,,,,,,,,,,,,,,,,,,,,,,,,,,,,,,,,,,,,,,,,,,,,,,,,,,,,,,,,,,L2GMRN,train_x,blue_star,bottom_right,2025-07-23_12h13.20.976,HideSeek_v1,2022.2.5,59.96242749417547,
,,,,,,,,,,,,,,,0,0,0,0,7,0,7,0,,,,,,,,,,,,,,,,,,,,,,,,,,,,,,,conditions/schedules/train_x_first/blue_star_00/bottom_right/instructions/Slide8.png,conditions/schedules/train_x_first/blue_star_00/bottom_right/instructions/Audio8.wav,2966.214030300034,2966.213038339885,8,"[7.162690300028771, 18.48325930000283, 16.60910279978998, 19.452225300017744, 4.780659599928185, 5.519719700096175, 6.070500200148672, 11.940180799923837]","[0.034528200048953295, 0.08026319998316467, 0.13575950008817017, 0.06288959993980825, 0.04838110017590225, 0.06630100007168949, 0.06532399985007942, 11.940187799977139]",0,,,,,,,,,,,,,,,,,,,,,,,,,,,,,,,,,,,,,,,,,,,,,,,,,,,,,,,,,,,,,,,,,,,,,,,,,,,,,,,,,,,,,,,,,,,,,,,,,,,,,,,,,,,,,,,,,,,,,,,,,,,,L2GMRN,train_x,blue_star,bottom_right,2025-07-23_12h13.20.976,HideSeek_v1,2022.2.5,59.96242749417547,
,,,,,,,,,,,,,,,0,0,0,0,8,0,8,0,,,,,,,,,,,,,,,,,,,,,,,,,,,,,,,conditions/schedules/train_x_first/blue_star_00/bottom_right/instructions/Slide9.png,conditions/schedules/train_x_first/blue_star_00/bottom_right/instructions/Audio9.wav,2978.224581999937,2978.223078400013,9,"[7.162690300028771, 18.48325930000283, 16.60910279978998, 19.452225300017744, 4.780659599928185, 5.519719700096175, 6.070500200148672, 11.940180799923837, 6.384869699832052]","[0.034528200048953295, 0.08026319998316467, 0.13575950008817017, 0.06288959993980825, 0.04838110017590225, 0.06630100007168949, 0.06532399985007942, 0.06343579990789294, 6.384875999996439]",0,,,,,,,,,,,,,,,,,,,,,,,,,,,,,,,,,,,,,,,,,,,,,,,,,,,,,,,,,,,,,,,,,,,,,,,,,,,,,,,,,,,,,,,,,,,,,,,,,,,,,,,,,,,,,,,,,,,,,,,,,,,,L2GMRN,train_x,blue_star,bottom_right,2025-07-23_12h13.20.976,HideSeek_v1,2022.2.5,59.96242749417547,
,,,,,,,,,,,,,,,0,0,0,0,9,0,9,0,,,,,,,,,,,,,,,,,,,,,,,,,,,,,,,conditions/schedules/train_x_first/blue_star_00/bottom_right/instructions/Slide10.png,conditions/schedules/train_x_first/blue_star_00/bottom_right/instructions/Audio10.wav,2984.6497702000197,2984.6450465800476,10,"[7.162690300028771, 18.48325930000283, 16.60910279978998, 19.452225300017744, 4.780659599928185, 5.519719700096175, 6.070500200148672, 11.940180799923837, 6.384869699832052, 7.7154734001960605]","[0.034528200048953295, 0.08026319998316467, 0.13575950008817017, 0.06288959993980825, 0.04838110017590225, 0.06630100007168949, 0.06532399985007942, 0.06343579990789294, 0.04751820000819862, 7.715480100130662]",0,,,,,,,,,,,,,,,,,,,,,,,,,,,,,,,,,,,,,,,,,,,,,,,,,,,,,,,,,,,,,,,,,,,,,,,,,,,,,,,,,,,,,,,,,,,,,,,,,,,,,,,,,,,,,,,,,,,,,,,,,,,,L2GMRN,train_x,blue_star,bottom_right,2025-07-23_12h13.20.976,HideSeek_v1,2022.2.5,59.96242749417547,
,,,,,,,,,,,,,,,0,0,0,0,10,0,10,0,,,,,,,,,,,,,,,,,,,,,,,,,,,,,,,conditions/schedules/train_x_first/blue_star_00/bottom_right/instructions/Slide11.png,conditions/schedules/train_x_first/blue_star_00/bottom_right/instructions/Audio11.wav,2992.419930000091,2992.418031739909,11,"[7.162690300028771, 18.48325930000283, 16.60910279978998, 19.452225300017744, 4.780659599928185, 5.519719700096175, 6.070500200148672, 11.940180799923837, 6.384869699832052, 7.7154734001960605, 10.320742500014603]","[0.034528200048953295, 0.08026319998316467, 0.13575950008817017, 0.06288959993980825, 0.04838110017590225, 0.06630100007168949, 0.06532399985007942, 0.06343579990789294, 0.04751820000819862, 0.07978329993784428, 10.320748999947682]",0,,,,,,,,,,,,,,,,,,,,,,,,,,,,,,,,,,,,,,,,,,,,,,,,,,,,,,,,,,,,,,,,,,,,,,,,,,,,,,,,,,,,,,,,,,,,,,,,,,,,,,,,,,,,,,,,,,,,,,,,,,,,L2GMRN,train_x,blue_star,bottom_right,2025-07-23_12h13.20.976,HideSeek_v1,2022.2.5,59.96242749417547,
,,,,,,,,,,,,,,,0,0,0,0,11,0,11,0,,,,,,,,,,,,,,,,,,,,,,,,,,,,,,,conditions/schedules/train_x_first/blue_star_00/bottom_right/instructions/Slide12.png,conditions/schedules/train_x_first/blue_star_00/bottom_right/instructions/Audio12.wav,3002.809500500094,3002.810132200015,12,"[7.162690300028771, 18.48325930000283, 16.60910279978998, 19.452225300017744, 4.780659599928185, 5.519719700096175, 6.070500200148672, 11.940180799923837, 6.384869699832052, 7.7154734001960605, 10.320742500014603, 13.076083600055426]","[0.034528200048953295, 0.08026319998316467, 0.13575950008817017, 0.06288959993980825, 0.04838110017590225, 0.06630100007168949, 0.06532399985007942, 0.06343579990789294, 0.04751820000819862, 0.07978329993784428, 0.08160370006226003, 13.076090200105682]",0,,,,,,,,,,,,,,,,,,,,,,,,,,,,,,,,,,,,,,,,,,,,,,,,,,,,,,,,,,,,,,,,,,,,,,,,,,,,,,,,,,,,,,,,,,,,,,,,,,,,,,,,,,,,,,,,,,,,,,,,,,,,L2GMRN,train_x,blue_star,bottom_right,2025-07-23_12h13.20.976,HideSeek_v1,2022.2.5,59.96242749417547,
1,9,0,4,0,-5,0,11,2,instr_dim1_1,,,,,,0,0,0,0,,,,,0,0,0,0,,,,,,,,,,,,,,,,,,,,,,,,,,,,,,,,,,,,,stimuli/alien_stimuli/11.png,conditions/schedules/train_x_first/blue_star_00/bottom_right/inputInstr_1.xlsx,stimuli/alien_stimuli/11.png,3015.989063200075,3015.989063200075,3015.989063200075,3015.989063200075,3015.987700020033,return,13.869198699947447,"[-0.16, -0.08, 0, 0.08, 0.16, 0.24, 0.32, 0.4, 0.48, 0.56]","[-0.4, -0.32, -0.24, -0.16, -0.08, 0, 0.08, 0.16, 0.24, 0.32]",0,0,4,9,0.0,0.4,3030.043342200108,3030.043342200108,3030.043342200108,3030.043342200108,3030.043342200108,3030.043342200108,3030.043342200108,3030.0324502000585,7.473539300030097,return,7.287266099825501,stimuli/alien_stimuli/11.png,11,9,1,,,,,,,,,,,,,,,,,,,,,,,,,,,,,,,,,,,,,,,,,,,,,,,,,,,,,,,,,,,,,,,,,,,,,,,,,,,,,,,,,,,,,,,,,L2GMRN,train_x,blue_star,bottom_right,2025-07-23_12h13.20.976,HideSeek_v1,2022.2.5,59.96242749417547,
,,,,,,,,,,,30,,,,0,0,0,0,,,,,,,,,,,,,,,,,,,,,,,,,,,,,,,,,,,,,,,,,,,,,,,,,,,,,,,,,,,,,,,,,,,,,,,,,,,,,,21,0.7,0,0,99,1,30,0,conditions/schedules/train_x_first/blue_star_00/bottom_right/inputTrain_1.1.xlsx,99,1,1,1,0,,,,,,,,,,,,,,,,,,,,,,,,,,,,,,,,,,,,,,,,,,,,,,,,,,,,,,,,,,,,,,,,,,,,,,,,,,,L2GMRN,train_x,blue_star,bottom_right,2025-07-23_12h13.20.976,HideSeek_v1,2022.2.5,59.96242749417547,
,,,,,,,,,,,,,,,1,0,1,0,0,0,0,0,,,,,,,,,,,,,,,,,,,,,,,,,,,,,,,conditions/schedules/train_x_first/blue_star_00/bottom_right/instructions/Slide13.png,conditions/schedules/train_x_first/blue_star_00/bottom_right/instructions/Audio13.wav,3037.489944800036,3037.48849853992,13,"[7.162690300028771, 18.48325930000283, 16.60910279978998, 19.452225300017744, 4.780659599928185, 5.519719700096175, 6.070500200148672, 11.940180799923837, 6.384869699832052, 7.7154734001960605, 10.320742500014603, 13.076083600055426, 18.07760290009901]","[0.034528200048953295, 0.08026319998316467, 0.13575950008817017, 0.06288959993980825, 0.04838110017590225, 0.06630100007168949, 0.06532399985007942, 0.06343579990789294, 0.04751820000819862, 0.07978329993784428, 0.08160370006226003, 13.076090200105682, 18.07760960003361]",0,,,,,,,,,,,,,,,,,,,,,,,,,,,,,,,,,,,,,,,,,,,,,,,,,,,,,,,,,,,,,,,,,,,,,,,,,,,,,,,,,,,,,,,,,,,,,,,,,,,,,,,,,,,,,,,,,,,,,,,,,,,,L2GMRN,train_x,blue_star,bottom_right,2025-07-23_12h13.20.976,HideSeek_v1,2022.2.5,59.96242749417547,
,,,,,,,,,,,,,,,1,0,1,0,1,0,1,0,,,,,,,,,,,,,,,,,,,,,,,,,,,,,,,conditions/schedules/train_x_first/blue_star_00/bottom_right/instructions/Slide14.png,conditions/schedules/train_x_first/blue_star_00/bottom_right/instructions/Audio14.wav,3055.639221499907,3055.6374318999005,14,"[7.162690300028771, 18.48325930000283, 16.60910279978998, 19.452225300017744, 4.780659599928185, 5.519719700096175, 6.070500200148672, 11.940180799923837, 6.384869699832052, 7.7154734001960605, 10.320742500014603, 13.076083600055426, 18.07760290009901, 12.87306459993124]","[0.034528200048953295, 0.08026319998316467, 0.13575950008817017, 0.06288959993980825, 0.04838110017590225, 0.06630100007168949, 0.06532399985007942, 0.06343579990789294, 0.04751820000819862, 0.07978329993784428, 0.08160370006226003, 13.076090200105682, 0.0470079998485744, 12.87307079997845]",0,,,,,,,,,,,,,,,,,,,,,,,,,,,,,,,,,,,,,,,,,,,,,,,,,,,,,,,,,,,,,,,,,,,,,,,,,,,,,,,,,,,,,,,,,,,,,,,,,,,,,,,,,,,,,,,,,,,,,,,,,,,,L2GMRN,train_x,blue_star,bottom_right,2025-07-23_12h13.20.976,HideSeek_v1,2022.2.5,59.96242749417547,
2,8,2,8,2,0,0,61,2,instr_dim1_1,,,,,,1,0,1,0,,,,,0,0,0,0,,,,,,,,,,,,,,,,,,,,,,,,,,,,,,,,,,,,,stimuli/alien_stimuli/61.png,conditions/schedules/train_x_first/blue_star_00/bottom_right/inputInstr_1.xlsx,stimuli/alien_stimuli/61.png,3068.607985599898,3068.607985599898,3068.607985599898,3068.607985599898,3068.598136860039,return,6.835079799871892,"[-0.16, -0.08, 0, 0.08, 0.16, 0.24, 0.32, 0.4, 0.48, 0.56]","[-0.4, -0.32, -0.24, -0.16, -0.08, 0, 0.08, 0.16, 0.24, 0.32]",2,2,8,8,0.0,0.0,3075.6197589999065,3075.6197589999065,3075.6197589999065,3075.6197589999065,3075.6197589999065,3075.6197589999065,3075.6197589999065,3075.603755540005,7.023215600056574,return,6.840879699913785,stimuli/alien_stimuli/61.png,61,8,2,,,,,,,,,,,,,,,,,,,,,,,,,,,,,,,,,,,,,,,,,,,,,,,,,,,,,,,,,,,,,,,,,,,,,,,,,,,,,,,,,,,,,,,,,L2GMRN,train_x,blue_star,bottom_right,2025-07-23_12h13.20.976,HideSeek_v1,2022.2.5,59.96242749417547,
,,,,,,,,,,,30,,,,1,0,1,0,,,,,,,,,,,,,,,,,,,,,,,,,,,,,,,,,,,,,,,,,,,,,,,,,,,,,,,,,,,,,,,,,,,,,,,,,,,,,,21,0.7,0,0,99,1,30,0,conditions/schedules/train_x_first/blue_star_00/bottom_right/inputTrain_1.1.xlsx,99,1,1,1,0,,,,,,,,,,,,,,,,,,,,,,,,,,,,,,,,,,,,,,,,,,,,,,,,,,,,,,,,,,,,,,,,,,,,,,,,,,,L2GMRN,train_x,blue_star,bottom_right,2025-07-23_12h13.20.976,HideSeek_v1,2022.2.5,59.96242749417547,
,,,,,,,,,,,,,,,2,0,2,0,0,0,0,0,,,,,,,,,,,,,,,,,,,,,,,,,,,,,,,conditions/schedules/train_x_first/blue_star_00/bottom_right/instructions/Slide15.png,conditions/schedules/train_x_first/blue_star_00/bottom_right/instructions/Audio15.wav,3082.630207600072,3082.6262203399324,15,"[7.162690300028771, 18.48325930000283, 16.60910279978998, 19.452225300017744, 4.780659599928185, 5.519719700096175, 6.070500200148672, 11.940180799923837, 6.384869699832052, 7.7154734001960605, 10.320742500014603, 13.076083600055426, 18.07760290009901, 12.87306459993124, 30.58545080013573]","[0.034528200048953295, 0.08026319998316467, 0.13575950008817017, 0.06288959993980825, 0.04838110017590225, 0.06630100007168949, 0.06532399985007942, 0.06343579990789294, 0.04751820000819862, 0.07978329993784428, 0.08160370006226003, 13.076090200105682, 0.0470079998485744, 12.87307079997845, 30.585457400185987]",0,,,,,,,,,,,,,,,,,,,,,,,,,,,,,,,,,,,,,,,,,,,,,,,,,,,,,,,,,,,,,,,,,,,,,,,,,,,,,,,,,,,,,,,,,,,,,,,,,,,,,,,,,,,,,,,,,,,,,,,,,,,,L2GMRN,train_x,blue_star,bottom_right,2025-07-23_12h13.20.976,HideSeek_v1,2022.2.5,59.96242749417547,
,,,,,,,,,,,,,,,2,0,2,0,1,0,1,0,,,,,,,,,,,,,,,,,,,,,,,,,,,,,,,conditions/schedules/train_x_first/blue_star_00/bottom_right/instructions/Slide16.png,conditions/schedules/train_x_first/blue_star_00/bottom_right/instructions/Audio16.wav,3113.276768800104,3113.2688887400086,16,"[7.162690300028771, 18.48325930000283, 16.60910279978998, 19.452225300017744, 4.780659599928185, 5.519719700096175, 6.070500200148672, 11.940180799923837, 6.384869699832052, 7.7154734001960605, 10.320742500014603, 13.076083600055426, 18.07760290009901, 12.87306459993124, 30.58545080013573, 21.6574051999487]","[0.034528200048953295, 0.08026319998316467, 0.13575950008817017, 0.06288959993980825, 0.04838110017590225, 0.06630100007168949, 0.06532399985007942, 0.06343579990789294, 0.04751820000819862, 0.07978329993784428, 0.08160370006226003, 13.076090200105682, 0.0470079998485744, 12.87307079997845, 0.03572549996897578, 21.657411700114608]",0,,,,,,,,,,,,,,,,,,,,,,,,,,,,,,,,,,,,,,,,,,,,,,,,,,,,,,,,,,,,,,,,,,,,,,,,,,,,,,,,,,,,,,,,,,,,,,,,,,,,,,,,,,,,,,,,,,,,,,,,,,,,L2GMRN,train_x,blue_star,bottom_right,2025-07-23_12h13.20.976,HideSeek_v1,2022.2.5,59.96242749417547,
,7,1,4,1,-3,0,31,,train_dim1_1,1,30,,,,2,0,2,0,,,,,,,,,0,0,0,0,0,0,0,0,0,0,0,0,,,,,,,,,,,,,,,,,,,,,,,,,stimuli/alien_stimuli/31.png,,,,,,,,,,,,,,,,,,,,,,,,,,,,,,,,,,,,,,,30,,,,,,,,3135.034060300095,3135.034060300095,3135.034060300095,3135.034060300095,3135.034060300095,up,12.289056899957359,0,0,0,99,0.4,-0.24,up,12.187652299879119,,,,,,,,,,,,,,,,,,,,,,,,,,,,,,,,,,,,,,,,,,,,,,,,,,,,,,,,,,,,L2GMRN,train_x,blue_star,bottom_right,2025-07-23_12h13.20.976,HideSeek_v1,2022.2.5,59.96242749417547,
,7,1,4,1,-3,0,31,,train_dim1_1,1,30,,,,2,0,2,0,,,,,,,,,0,0,0,0,0,0,0,0,1,0,1,0,,,,,,,,,,,,,,,,,,,,,,,,,,,,,,,,,,,,,,,,,,,,,,,,,,,,,,,,,,,,,,,,30,,,,,,,,3147.3274030000903,3147.3274030000903,3147.3274030000903,3147.3274030000903,3147.3274030000903,up,0.7585797000210732,0,0,0,99,0.4,-0.15999999999999998,up,0.6620131998788565,,,,,,,,,,,,,,,,,,,,,,,,,,,,,,,,,,,,,,,,,,,,,,,,,,,,,,,,,,,,L2GMRN,train_x,blue_star,bottom_right,2025-07-23_12h13.20.976,HideSeek_v1,2022.2.5,59.96242749417547,
,7,1,4,1,-3,0,31,,train_dim1_1,1,30,,,,2,0,2,0,,,,,,,,,0,0,0,0,0,0,0,0,2,0,2,0,,,,,,,,,,,,,,,,,,,,,,,,,,,,,,,,,,,,,,,,,,,,,,,,,,,,,,,,,,,,,,,,30,,,,,,,,3148.078440600075,3148.078440600075,3148.078440600075,3148.078440600075,3148.078440600075,up,0.6930860001593828,0,0,0,99,0.4,-0.07999999999999997,up,0.6153730999212712,,,,,,,,,,,,,,,,,,,,,,,,,,,,,,,,,,,,,,,,,,,,,,,,,,,,,,,,,,,,L2GMRN,train_x,blue_star,bottom_right,2025-07-23_12h13.20.976,HideSeek_v1,2022.2.5,59.96242749417547,
,7,1,4,1,-3,0,31,,train_dim1_1,1,30,,,,2,0,2,0,,,,,,,,,0,0,0,0,0,0,0,0,3,0,3,0,,,,,,,,,,,,,,,,,,,,,,,,,,,,,,,,,,,,,,,,,,,,,,,,,,,,,,,,,,,,,,,,30,,,,,,,,3148.779057699954,3148.779057699954,3148.779057699954,3148.779057699954,3148.779057699954,up,1.7609878999646753,0,0,0,99,0.4,2.7755575615628914e-17,up,1.682861400069669,,,,,,,,,,,,,,,,,,,,,,,,,,,,,,,,,,,,,,,,,,,,,,,,,,,,,,,,,,,,L2GMRN,train_x,blue_star,bottom_right,2025-07-23_12h13.20.976,HideSeek_v1,2022.2.5,59.96242749417547,
,7,1,4,1,-3,0,31,,train_dim1_1,1,30,,,,2,0,2,0,,,,,,,,,0,0,0,0,0,0,0,0,4,0,4,0,,,,,,,,,,,,,,,,,,,,,,,,,,,,,,,,,,,,,,,,,,,,,,,,,,,,,,,,,,,,,,,,30,,,,,,,,3150.5468011999037,3150.5468011999037,3150.5468011999037,3150.5468011999037,3150.5468011999037,return,1.027163099963218,0,0,0,0,0.4,2.7755575615628914e-17,return,0.9451126998756081,4,0,0.4,2.7755575615628914e-17,,,,,,,,,,,,,,,,,,,,,,,,,,,,,,,,,,,,,,,,,,,,,,,,,,,,,,,,L2GMRN,train_x,blue_star,bottom_right,2025-07-23_12h13.20.976,HideSeek_v1,2022.2.5,59.96242749417547,
,7,4,2,4,-5,0,11,,train_dim1_1,2,30,,,,2,0,2,0,,,,,,,,,0,0,0,0,0,1,1,1,0,0,0,0,,,,,,,,,,,,,,,,,,,,,,,,,stimuli/alien_stimuli/11.png,,,,,,,,,,,,,,,,,,,,,,,,,,,,,stimuli/alien_stimuli/31.png,31,7,3,,,,,,,30,,,,,,,,3167.454352400033,3167.454352400033,3167.454352400033,3167.454352400033,3167.454352400033,left,4.407120599877089,0,0,0,99,0.32,-0.08,left,4.309614900033921,,,,,3165.879184599966,3167.454352400033,0.16,-0.32,0.0,0.24,-0.32,0.16,0.28,0.16,-0.32,3153.151544699911,3153.151544699911,3153.151544699911,3153.151544699911,3153.151544699911,3153.151544699911,3153.151544699911,3153.151544699911,3153.135107619991,12.846248099813238,return,12.706572900060564,,,,,,,,,,,,,,,,,,,,,,,,,,,,,,,,,L2GMRN,train_x,blue_star,bottom_right,2025-07-23_12h13.20.976,HideSeek_v1,2022.2.5,59.96242749417547,
,7,4,2,4,-5,0,11,,train_dim1_1,2,30,,,,2,0,2,0,,,,,,,,,0,0,0,0,0,1,1,1,1,0,1,0,,,,,,,,,,,,,,,,,,,,,,,,,,,,,,,,,,,,,,,,,,,,,,,,,,,,,,,,,,,,,,,,30,,,,,,,,3171.8523989999667,3171.8523989999667,3171.8523989999667,3171.8523989999667,3171.8523989999667,left,0.9097313000820577,0,0,0,99,0.24,-0.08,left,0.8249236000701785,,,,,,,,,,,,,,,,,,,,,,,,,,,,,,,,,,,,,,,,,,,,,,,,,,,,,,,,,,,,L2GMRN,train_x,blue_star,bottom_right,2025-07-23_12h13.20.976,HideSeek_v1,2022.2.5,59.96242749417547,
,7,4,2,4,-5,0,11,,train_dim1_1,2,30,,,,2,0,2,0,,,,,,,,,0,0,0,0,0,1,1,1,2,0,2,0,,,,,,,,,,,,,,,,,,,,,,,,,,,,,,,,,,,,,,,,,,,,,,,,,,,,,,,,,,,,,,,,30,,,,,,,,3172.7694278000854,3172.7694278000854,3172.7694278000854,3172.7694278000854,3172.7694278000854,left,0.5600483999587595,0,0,0,99,0.15999999999999998,-0.08,left,0.47333579999394715,,,,,,,,,,,,,,,,,,,,,,,,,,,,,,,,,,,,,,,,,,,,,,,,,,,,,,,,,,,,L2GMRN,train_x,blue_star,bottom_right,2025-07-23_12h13.20.976,HideSeek_v1,2022.2.5,59.96242749417547,
,7,4,2,4,-5,0,11,,train_dim1_1,2,30,,,,2,0,2,0,,,,,,,,,0,0,0,0,0,1,1,1,3,0,3,0,,,,,,,,,,,,,,,,,,,,,,,,,,,,,,,,,,,,,,,,,,,,,,,,,,,,,,,,,,,,,,,,30,,,,,,,,3173.33749169996,3173.33749169996,3173.33749169996,3173.33749169996,3173.33749169996,left,0.6266108998097479,0,0,0,99,0.07999999999999997,-0.08,left,0.5481442997697741,,,,,,,,,,,,,,,,,,,,,,,,,,,,,,,,,,,,,,,,,,,,,,,,,,,,,,,,,,,,L2GMRN,train_x,blue_star,bottom_right,2025-07-23_12h13.20.976,HideSeek_v1,2022.2.5,59.96242749417547,
,7,4,2,4,-5,0,11,,train_dim1_1,2,30,,,,2,0,2,0,,,,,,,,,0,0,0,0,0,1,1,1,4,0,4,0,,,,,,,,,,,,,,,,,,,,,,,,,,,,,,,,,,,,,,,,,,,,,,,,,,,,,,,,,,,,,,,,30,,,,,,,,3173.9711249000393,3173.9711249000393,3173.9711249000393,3173.9711249000393,3173.9711249000393,left,0.6100081999320537,0,0,0,99,-2.7755575615628914e-17,-0.08,left,0.525171099929139,,,,,,,,,,,,,,,,,,,,,,,,,,,,,,,,,,,,,,,,,,,,,,,,,,,,,,,,,,,,L2GMRN,train_x,blue_star,bottom_right,2025-07-23_12h13.20.976,HideSeek_v1,2022.2.5,59.96242749417547,
,7,4,2,4,-5,0,11,,train_dim1_1,2,30,,,,2,0,2,0,,,,,,,,,0,0,0,0,0,1,1,1,5,0,5,0,,,,,,,,,,,,,,,,,,,,,,,,,,,,,,,,,,,,,,,,,,,,,,,,,,,,,,,,,,,,,,,,30,,,,,,,,3174.5889910999686,3174.5889910999686,3174.5889910999686,3174.5889910999686,3174.5889910999686,return,0.40952609991654754,1,0,0,1,-2.7755575615628914e-17,-0.08,return,0.3191306998487562,4,-5,-2.7755575615628914e-17,-0.08,,,,,,,,,,,,,,,,,,,,,,,,,,,,,,,,,,,,,,,,,,,,,,,,,,,,,,,,L2GMRN,train_x,blue_star,bottom_right,2025-07-23_12h13.20.976,HideSeek_v1,2022.2.5,59.96242749417547,
,9,4,5,4,-4,0,21,,train_dim1_1,3,30,,,,2,0,2,0,,,,,,,,,0,0,0,0,0,2,2,2,0,0,0,0,,,,,,,,,,,,,,,,,,,,,,,,,stimuli/alien_stimuli/21.png,,,,,,,,,,,,,,,,,,,,,,,,,,,,,stimuli/alien_stimuli/11.png,11,7,4,,,,,,,30,,,,,,,,3182.791361999931,3182.791361999931,3182.791361999931,3182.791361999931,3182.791361999931,left,19.23602860001847,1,0,0,99,0.48000000000000004,-0.08,left,19.140068399952725,,,,,3181.2254331998993,3182.791361999931,0,-0.08,0.0,0.4,-0.08,0,0.2,0,-0.08,3176.570195999928,3176.570195999928,3176.570195999928,3176.570195999928,3176.570195999928,3176.570195999928,3176.570195999928,3176.570195999928,3176.5544849199478,4.772924500051886,return,4.631725899875164,,,,,,,,,,,,,,,,,,,,,,,,,,,,,,,,,L2GMRN,train_x,blue_star,bottom_right,2025-07-23_12h13.20.976,HideSeek_v1,2022.2.5,59.96242749417547,
,9,4,5,4,-4,0,21,,train_dim1_1,3,30,,,,2,0,2,0,,,,,,,,,0,0,0,0,0,2,2,2,1,0,1,0,,,,,,,,,,,,,,,,,,,,,,,,,,,,,,,,,,,,,,,,,,,,,,,,,,,,,,,,,,,,,,,,30,,,,,,,,3202.0345016999636,3202.0345016999636,3202.0345016999636,3202.0345016999636,3202.0345016999636,left,0.5915504000149667,1,0,0,99,0.4,-0.08,left,0.4989809999242425,,,,,,,,,,,,,,,,,,,,,,,,,,,,,,,,,,,,,,,,,,,,,,,,,,,,,,,,,,,,L2GMRN,train_x,blue_star,bottom_right,2025-07-23_12h13.20.976,HideSeek_v1,2022.2.5,59.96242749417547,
,9,4,5,4,-4,0,21,,train_dim1_1,3,30,,,,2,0,2,0,,,,,,,,,0,0,0,0,0,2,2,2,2,0,2,0,,,,,,,,,,,,,,,,,,,,,,,,,,,,,,,,,,,,,,,,,,,,,,,,,,,,,,,,,,,,,,,,30,,,,,,,,3202.6279917000793,3202.6279917000793,3202.6279917000793,3202.6279917000793,3202.6279917000793,return,3.3624005999881774,1,0,0,0,0.4,-0.08,return,3.27322159986943,4,-7,0.4,-0.08,,,,,,,,,,,,,,,,,,,,,,,,,,,,,,,,,,,,,,,,,,,,,,,,,,,,,,,,L2GMRN,train_x,blue_star,bottom_right,2025-07-23_12h13.20.976,HideSeek_v1,2022.2.5,59.96242749417547,
,7,3,6,3,-1,0,51,,train_dim1_1,4,30,,,,2,0,2,0,,,,,,,,,0,0,0,0,0,3,3,3,0,0,0,0,,,,,,,,,,,,,,,,,,,,,,,,,stimuli/alien_stimuli/51.png,,,,,,,,,,,,,,,,,,,,,,,,,,,,,stimuli/alien_stimuli/21.png,21,9,5,,,,,,,30,,,,,,,,3214.831558899954,3214.831558899954,3214.831558899954,3214.831558899954,3214.831558899954,down,7.259936999995261,1,0,0,99,0.4,-0.24,down,7.170086999889463,,,,,3213.2686453000642,3214.831558899954,0.24,-0.08,0.0,0.32,-0.08,0.24,0.4,0.24,-0.08,3207.580308099976,3207.580308099976,3207.580308099976,3207.580308099976,3207.580308099976,3207.580308099976,3207.580308099976,3207.580308099976,3207.5638350800614,5.823763300199062,return,5.657332299975678,,,,,,,,,,,,,,,,,,,,,,,,,,,,,,,,,L2GMRN,train_x,blue_star,bottom_right,2025-07-23_12h13.20.976,HideSeek_v1,2022.2.5,59.96242749417547,
,7,3,6,3,-1,0,51,,train_dim1_1,4,30,,,,2,0,2,0,,,,,,,,,0,0,0,0,0,3,3,3,1,0,1,0,,,,,,,,,,,,,,,,,,,,,,,,,,,,,,,,,,,,,,,,,,,,,,,,,,,,,,,,,,,,,,,,30,,,,,,,,3222.0937266000547,3222.0937266000547,3222.0937266000547,3222.0937266000547,3222.0937266000547,down,0.6763936998322606,1,0,0,99,0.4,-0.32,down,0.5903937998227775,,,,,,,,,,,,,,,,,,,,,,,,,,,,,,,,,,,,,,,,,,,,,,,,,,,,,,,,,,,,L2GMRN,train_x,blue_star,bottom_right,2025-07-23_12h13.20.976,HideSeek_v1,2022.2.5,59.96242749417547,
,7,3,6,3,-1,0,51,,train_dim1_1,4,30,,,,2,0,2,0,,,,,,,,,0,0,0,0,0,3,3,3,2,0,2,0,,,,,,,,,,,,,,,,,,,,,,,,,,,,,,,,,,,,,,,,,,,,,,,,,,,,,,,,,,,,,,,,30,,,,,,,,3222.781181700062,3222.781181700062,3222.781181700062,3222.781181700062,3222.781181700062,return,0.5935959001071751,1,0,0,0,0.4,-0.32,return,0.4976273998618126,2,-7,0.4,-0.32,,,,,,,,,,,,,,,,,,,,,,,,,,,,,,,,,,,,,,,,,,,,,,,,,,,,,,,,L2GMRN,train_x,blue_star,bottom_right,2025-07-23_12h13.20.976,HideSeek_v1,2022.2.5,59.96242749417547,
,5,2,5,2,0,0,61,,train_dim1_1,5,30,,,,2,0,2,0,,,,,,,,,0,0,0,0,0,4,4,4,0,0,0,0,,,,,,,,,,,,,,,,,,,,,,,,,stimuli/alien_stimuli/61.png,,,,,,,,,,,,,,,,,,,,,,,,,,,,,stimuli/alien_stimuli/51.png,51,7,6,,,,,,,30,,,,,,,,3229.239986700006,3229.239986700006,3229.239986700006,3229.239986700006,3229.239986700006,up,1.672420899849385,1,0,0,99,0.24,-0.15999999999999998,up,1.5932682999409735,,,,,3227.6806139999535,3229.239986700006,0.32,-0.16,0.0,0.08,-0.16,0.32,0.36,0.32,-0.16,3224.935421100119,3224.935421100119,3224.935421100119,3224.935421100119,3224.935421100119,3224.935421100119,3224.935421100119,3224.935421100119,3224.9282723200276,2.854396700160578,return,2.7236546999774873,,,,,,,,,,,,,,,,,,,,,,,,,,,,,,,,,L2GMRN,train_x,blue_star,bottom_right,2025-07-23_12h13.20.976,HideSeek_v1,2022.2.5,59.96242749417547,
,5,2,5,2,0,0,61,,train_dim1_1,5,30,,,,2,0,2,0,,,,,,,,,0,0,0,0,0,4,4,4,1,0,1,0,,,,,,,,,,,,,,,,,,,,,,,,,,,,,,,,,,,,,,,,,,,,,,,,,,,,,,,,,,,,,,,,30,,,,,,,,3230.914992599981,3230.914992599981,3230.914992599981,3230.914992599981,3230.914992599981,down,0.7922417998779565,1,0,0,99,0.24,-0.24,down,0.7195237998384982,,,,,,,,,,,,,,,,,,,,,,,,,,,,,,,,,,,,,,,,,,,,,,,,,,,,,,,,,,,,L2GMRN,train_x,blue_star,bottom_right,2025-07-23_12h13.20.976,HideSeek_v1,2022.2.5,59.96242749417547,
,5,2,5,2,0,0,61,,train_dim1_1,5,30,,,,2,0,2,0,,,,,,,,,0,0,0,0,0,4,4,4,2,0,2,0,,,,,,,,,,,,,,,,,,,,,,,,,,,,,,,,,,,,,,,,,,,,,,,,,,,,,,,,,,,,,,,,30,,,,,,,,3231.7145048999228,3231.7145048999228,3231.7145048999228,3231.7145048999228,3231.7145048999228,return,0.8604150998871773,2,0,0,1,0.24,-0.24,return,0.7756302000489086,2,-7,0.24,-0.24,,,,,,,,,,,,,,,,,,,,,,,,,,,,,,,,,,,,,,,,,,,,,,,,,,,,,,,,L2GMRN,train_x,blue_star,bottom_right,2025-07-23_12h13.20.976,HideSeek_v1,2022.2.5,59.96242749417547,
,5,0,1,0,-4,0,21,,train_dim1_1,6,30,,,,2,0,2,0,,,,,,,,,0,0,0,0,0,5,5,5,0,0,0,0,,,,,,,,,,,,,,,,,,,,,,,,,stimuli/alien_stimuli/21.png,,,,,,,,,,,,,,,,,,,,,,,,,,,,,stimuli/alien_stimuli/61.png,61,5,7,,,,,,,30,,,,,,,,3237.5893530000467,3237.5893530000467,3237.5893530000467,3237.5893530000467,3237.5893530000467,left,2.2707300998736173,2,0,0,99,0.15999999999999998,-0.4,left,2.155903099803254,,,,,3236.0040416999254,3237.5893530000467,0.24,-0.24,0.0,0.0,-0.24,0.24,0.24,0.24,-0.24,3234.1525173999835,3234.1525173999835,3234.1525173999835,3234.1525173999835,3234.1525173999835,3234.1525173999835,3234.1525173999835,3234.1525173999835,3234.135803819937,1.9705923998262733,return,1.8357198999729007,,,,,,,,,,,,,,,,,,,,,,,,,,,,,,,,,L2GMRN,train_x,blue_star,bottom_right,2025-07-23_12h13.20.976,HideSeek_v1,2022.2.5,59.96242749417547,
,5,0,1,0,-4,0,21,,train_dim1_1,6,30,,,,2,0,2,0,,,,,,,,,0,0,0,0,0,5,5,5,1,0,1,0,,,,,,,,,,,,,,,,,,,,,,,,,,,,,,,,,,,,,,,,,,,,,,,,,,,,,,,,,,,,,,,,30,,,,,,,,3239.843006900046,3239.843006900046,3239.843006900046,3239.843006900046,3239.843006900046,left,0.47568950010463595,2,0,0,99,0.07999999999999997,-0.4,left,0.3886674998793751,,,,,,,,,,,,,,,,,,,,,,,,,,,,,,,,,,,,,,,,,,,,,,,,,,,,,,,,,,,,L2GMRN,train_x,blue_star,bottom_right,2025-07-23_12h13.20.976,HideSeek_v1,2022.2.5,59.96242749417547,
,5,0,1,0,-4,0,21,,train_dim1_1,6,30,,,,2,0,2,0,,,,,,,,,0,0,0,0,0,5,5,5,2,0,2,0,,,,,,,,,,,,,,,,,,,,,,,,,,,,,,,,,,,,,,,,,,,,,,,,,,,,,,,,,,,,,,,,30,,,,,,,,3240.326275800122,3240.326275800122,3240.326275800122,3240.326275800122,3240.326275800122,left,0.47645039996132255,2,0,0,99,-2.7755575615628914e-17,-0.4,left,0.3876913997810334,,,,,,,,,,,,,,,,,,,,,,,,,,,,,,,,,,,,,,,,,,,,,,,,,,,,,,,,,,,,L2GMRN,train_x,blue_star,bottom_right,2025-07-23_12h13.20.976,HideSeek_v1,2022.2.5,59.96242749417547,
,5,0,1,0,-4,0,21,,train_dim1_1,6,30,,,,2,0,2,0,,,,,,,,,0,0,0,0,0,5,5,5,3,0,3,0,,,,,,,,,,,,,,,,,,,,,,,,,,,,,,,,,,,,,,,,,,,,,,,,,,,,,,,,,,,,,,,,30,,,,,,,,3240.8101661999244,3240.8101661999244,3240.8101661999244,3240.8101661999244,3240.8101661999244,left,0.3933647000230849,2,0,0,99,-0.08000000000000003,-0.4,left,0.3098472999408841,,,,,,,,,,,,,,,,,,,,,,,,,,,,,,,,,,,,,,,,,,,,,,,,,,,,,,,,,,,,L2GMRN,train_x,blue_star,bottom_right,2025-07-23_12h13.20.976,HideSeek_v1,2022.2.5,59.96242749417547,
,5,0,1,0,-4,0,21,,train_dim1_1,6,30,,,,2,0,2,0,,,,,,,,,0,0,0,0,0,5,5,5,4,0,4,0,,,,,,,,,,,,,,,,,,,,,,,,,,,,,,,,,,,,,,,,,,,,,,,,,,,,,,,,,,,,,,,,30,,,,,,,,3241.2146982999984,3241.2146982999984,3241.2146982999984,3241.2146982999984,3241.2146982999984,return,0.5934328001458198,3,0,0,1,-0.08000000000000003,-0.4,return,0.5043949000537395,2,-11,-0.08000000000000003,-0.4,,,,,,,,,,,,,,,,,,,,,,,,,,,,,,,,,,,,,,,,,,,,,,,,,,,,,,,,L2GMRN,train_x,blue_star,bottom_right,2025-07-23_12h13.20.976,HideSeek_v1,2022.2.5,59.96242749417547,
,8,0,8,0,0,0,61,,train_dim1_1,7,30,,,,2,0,2,0,,,,,,,,,0,0,0,0,0,6,6,6,0,0,0,0,,,,,,,,,,,,,,,,,,,,,,,,,stimuli/alien_stimuli/61.png,,,,,,,,,,,,,,,,,,,,,,,,,,,,,stimuli/alien_stimuli/21.png,21,5,8,,,,,,,30,,,,,,,,3245.869328300003,3245.869328300003,3245.869328300003,3245.869328300003,3245.869328300003,up,2.122650899924338,3,0,0,99,0.48,-0.32,up,2.0281279997434467,,,,,3244.2946931999177,3245.869328300003,-0.08,-0.4,0.0,0.32,-0.4,-0.08,0.07999999999999999,-0.08,-0.4,3243.37446750002,3243.37446750002,3243.37446750002,3243.37446750002,3243.37446750002,3243.37446750002,3243.37446750002,3243.37446750002,3243.3600693199087,1.0369843998923898,return,0.9034507998730987,,,,,,,,,,,,,,,,,,,,,,,,,,,,,,,,,L2GMRN,train_x,blue_star,bottom_right,2025-07-23_12h13.20.976,HideSeek_v1,2022.2.5,59.96242749417547,
,8,0,8,0,0,0,61,,train_dim1_1,7,30,,,,2,0,2,0,,,,,,,,,0,0,0,0,0,6,6,6,1,0,1,0,,,,,,,,,,,,,,,,,,,,,,,,,,,,,,,,,,,,,,,,,,,,,,,,,,,,,,,,,,,,,,,,30,,,,,,,,3247.9780959000345,3247.9780959000345,3247.9780959000345,3247.9780959000345,3247.9780959000345,down,1.1099964999593794,3,0,0,99,0.48,-0.4,down,1.0251772000920027,,,,,,,,,,,,,,,,,,,,,,,,,,,,,,,,,,,,,,,,,,,,,,,,,,,,,,,,,,,,L2GMRN,train_x,blue_star,bottom_right,2025-07-23_12h13.20.976,HideSeek_v1,2022.2.5,59.96242749417547,
,8,0,8,0,0,0,61,,train_dim1_1,7,30,,,,2,0,2,0,,,,,,,,,0,0,0,0,0,6,6,6,2,0,2,0,,,,,,,,,,,,,,,,,,,,,,,,,,,,,,,,,,,,,,,,,,,,,,,,,,,,,,,,,,,,,,,,30,,,,,,,,3249.0952429999597,3249.0952429999597,3249.0952429999597,3249.0952429999597,3249.0952429999597,return,0.6939157000742853,4,0,0,1,0.48,-0.4,return,0.6105843000113964,2,-11,0.48,-0.4,,,,,,,,,,,,,,,,,,,,,,,,,,,,,,,,,,,,,,,,,,,,,,,,,,,,,,,,L2GMRN,train_x,blue_star,bottom_right,2025-07-23_12h13.20.976,HideSeek_v1,2022.2.5,59.96242749417547,
,5,4,2,4,-3,0,31,,train_dim1_1,8,30,,,,2,0,2,0,,,,,,,,,0,0,0,0,0,7,7,7,0,0,0,0,,,,,,,,,,,,,,,,,,,,,,,,,stimuli/alien_stimuli/31.png,,,,,,,,,,,,,,,,,,,,,,,,,,,,,stimuli/alien_stimuli/61.png,61,8,9,,,,,,,30,,,,,,,,3253.92623750004,3253.92623750004,3253.92623750004,3253.92623750004,3253.92623750004,left,1.8393079999368638,4,0,0,99,0.15999999999999998,-0.08,left,1.7364392997696996,,,,,3252.3513029001188,3253.92623750004,0.48,-0.4,0.0,0.0,-0.4,0.48,0.48,0.48,-0.4,3251.3507499999832,3251.3507499999832,3251.3507499999832,3251.3507499999832,3251.3507499999832,3251.3507499999832,3251.3507499999832,3251.3507499999832,3251.333519359911,1.1036117998883128,return,0.978648099815473,,,,,,,,,,,,,,,,,,,,,,,,,,,,,,,,,L2GMRN,train_x,blue_star,bottom_right,2025-07-23_12h13.20.976,HideSeek_v1,2022.2.5,59.96242749417547,
,5,4,2,4,-3,0,31,,train_dim1_1,8,30,,,,2,0,2,0,,,,,,,,,0,0,0,0,0,7,7,7,1,0,1,0,,,,,,,,,,,,,,,,,,,,,,,,,,,,,,,,,,,,,,,,,,,,,,,,,,,,,,,,,,,,,,,,30,,,,,,,,3255.7584555000067,3255.7584555000067,3255.7584555000067,3255.7584555000067,3255.7584555000067,left,0.39582099998369813,4,0,0,99,0.07999999999999997,-0.08,left,0.3161186999641359,,,,,,,,,,,,,,,,,,,,,,,,,,,,,,,,,,,,,,,,,,,,,,,,,,,,,,,,,,,,L2GMRN,train_x,blue_star,bottom_right,2025-07-23_12h13.20.976,HideSeek_v1,2022.2.5,59.96242749417547,
,5,4,2,4,-3,0,31,,train_dim1_1,8,30,,,,2,0,2,0,,,,,,,,,0,0,0,0,0,7,7,7,2,0,2,0,,,,,,,,,,,,,,,,,,,,,,,,,,,,,,,,,,,,,,,,,,,,,,,,,,,,,,,,,,,,,,,,30,,,,,,,,3256.1598463999107,3256.1598463999107,3256.1598463999107,3256.1598463999107,3256.1598463999107,left,0.35237119998782873,4,0,0,99,-2.7755575615628914e-17,-0.08,left,0.26597339985892177,,,,,,,,,,,,,,,,,,,,,,,,,,,,,,,,,,,,,,,,,,,,,,,,,,,,,,,,,,,,L2GMRN,train_x,blue_star,bottom_right,2025-07-23_12h13.20.976,HideSeek_v1,2022.2.5,59.96242749417547,
,5,4,2,4,-3,0,31,,train_dim1_1,8,30,,,,2,0,2,0,,,,,,,,,0,0,0,0,0,7,7,7,3,0,3,0,,,,,,,,,,,,,,,,,,,,,,,,,,,,,,,,,,,,,,,,,,,,,,,,,,,,,,,,,,,,,,,,30,,,,,,,,3256.5210710000247,3256.5210710000247,3256.5210710000247,3256.5210710000247,3256.5210710000247,return,0.49167240015231073,5,0,0,1,-2.7755575615628914e-17,-0.08,return,0.41426079999655485,2,-14,-2.7755575615628914e-17,-0.08,,,,,,,,,,,,,,,,,,,,,,,,,,,,,,,,,,,,,,,,,,,,,,,,,,,,,,,,L2GMRN,train_x,blue_star,bottom_right,2025-07-23_12h13.20.976,HideSeek_v1,2022.2.5,59.96242749417547,
,6,0,5,0,-1,0,51,,train_dim1_1,9,30,,,,2,0,2,0,,,,,,,,,0,0,0,0,0,8,8,8,0,0,0,0,,,,,,,,,,,,,,,,,,,,,,,,,stimuli/alien_stimuli/51.png,,,,,,,,,,,,,,,,,,,,,,,,,,,,,stimuli/alien_stimuli/31.png,31,5,10,,,,,,,30,,,,,,,,3261.4519478001166,3261.4519478001166,3261.4519478001166,3261.4519478001166,3261.4519478001166,left,1.839434300083667,5,0,0,99,0.24,-0.4,left,1.731300899758935,,,,,3259.8743157999124,3261.4519478001166,0,-0.08,0.0,0.24,-0.08,0,0.12,0,-0.08,3258.5776436000597,3258.5776436000597,3258.5776436000597,3258.5776436000597,3258.5776436000597,3258.5776436000597,3258.5776436000597,3258.5776436000597,3258.5564282600303,1.403316899901256,return,1.270802600076422,,,,,,,,,,,,,,,,,,,,,,,,,,,,,,,,,L2GMRN,train_x,blue_star,bottom_right,2025-07-23_12h13.20.976,HideSeek_v1,2022.2.5,59.96242749417547,
,6,0,5,0,-1,0,51,,train_dim1_1,9,30,,,,2,0,2,0,,,,,,,,,0,0,0,0,0,8,8,8,1,0,1,0,,,,,,,,,,,,,,,,,,,,,,,,,,,,,,,,,,,,,,,,,,,,,,,,,,,,,,,,,,,,,,,,30,,,,,,,,3263.277785500046,3263.277785500046,3263.277785500046,3263.277785500046,3263.277785500046,return,0.4420403998810798,6,0,0,1,0.24,-0.4,return,0.3616384998895228,2,-15,0.24,-0.4,,,,,,,,,,,,,,,,,,,,,,,,,,,,,,,,,,,,,,,,,,,,,,,,,,,,,,,,L2GMRN,train_x,blue_star,bottom_right,2025-07-23_12h13.20.976,HideSeek_v1,2022.2.5,59.96242749417547,
,5,3,0,3,-5,0,11,,train_dim1_1,10,30,,,,2,0,2,0,,,,,,,,,0,0,0,0,0,9,9,9,0,0,0,0,,,,,,,,,,,,,,,,,,,,,,,,,stimuli/alien_stimuli/11.png,,,,,,,,,,,,,,,,,,,,,,,,,,,,,stimuli/alien_stimuli/51.png,51,6,11,,,,,,,30,,,,,,,,3268.114203199977,3268.114203199977,3268.114203199977,3268.114203199977,3268.114203199977,left,7.277103599859402,6,0,0,99,0.15999999999999998,-0.16,left,7.186929400078952,,,,,3266.546221999917,3268.114203199977,0.24,-0.4,0.0,0.08,-0.4,0.24,0.28,0.24,-0.4,3265.2851372000296,3265.2851372000296,3265.2851372000296,3265.2851372000296,3265.2851372000296,3265.2851372000296,3265.2851372000296,3265.2851372000296,3265.2782547199868,1.3699680999852717,return,1.2297645998187363,,,,,,,,,,,,,,,,,,,,,,,,,,,,,,,,,L2GMRN,train_x,blue_star,bottom_right,2025-07-23_12h13.20.976,HideSeek_v1,2022.2.5,59.96242749417547,
,5,3,0,3,-5,0,11,,train_dim1_1,10,30,,,,2,0,2,0,,,,,,,,,0,0,0,0,0,9,9,9,1,0,1,0,,,,,,,,,,,,,,,,,,,,,,,,,,,,,,,,,,,,,,,,,,,,,,,,,,,,,,,,,,,,,,,,30,,,,,,,,3275.3891541999765,3275.3891541999765,3275.3891541999765,3275.3891541999765,3275.3891541999765,left,0.4762335999403149,6,0,0,99,0.07999999999999997,-0.16,left,0.39588339999318123,,,,,,,,,,,,,,,,,,,,,,,,,,,,,,,,,,,,,,,,,,,,,,,,,,,,,,,,,,,,L2GMRN,train_x,blue_star,bottom_right,2025-07-23_12h13.20.976,HideSeek_v1,2022.2.5,59.96242749417547,
,5,3,0,3,-5,0,11,,train_dim1_1,10,30,,,,2,0,2,0,,,,,,,,,0,0,0,0,0,9,9,9,2,0,2,0,,,,,,,,,,,,,,,,,,,,,,,,,,,,,,,,,,,,,,,,,,,,,,,,,,,,,,,,,,,,,,,,30,,,,,,,,3275.885704400018,3275.885704400018,3275.885704400018,3275.885704400018,3275.885704400018,left,0.443386800121516,6,0,0,99,-2.7755575615628914e-17,-0.16,left,0.34695239970460534,,,,,,,,,,,,,,,,,,,,,,,,,,,,,,,,,,,,,,,,,,,,,,,,,,,,,,,,,,,,L2GMRN,train_x,blue_star,bottom_right,2025-07-23_12h13.20.976,HideSeek_v1,2022.2.5,59.96242749417547,
,5,3,0,3,-5,0,11,,train_dim1_1,10,30,,,,2,0,2,0,,,,,,,,,0,0,0,0,0,9,9,9,3,0,3,0,,,,,,,,,,,,,,,,,,,,,,,,,,,,,,,,,,,,,,,,,,,,,,,,,,,,,,,,,,,,,,,,30,,,,,,,,3276.32250140002,3276.32250140002,3276.32250140002,3276.32250140002,3276.32250140002,left,0.4097583999391645,6,0,0,99,-0.08000000000000003,-0.16,left,0.3328934998717159,,,,,,,,,,,,,,,,,,,,,,,,,,,,,,,,,,,,,,,,,,,,,,,,,,,,,,,,,,,,L2GMRN,train_x,blue_star,bottom_right,2025-07-23_12h13.20.976,HideSeek_v1,2022.2.5,59.96242749417547,
,5,3,0,3,-5,0,11,,train_dim1_1,10,30,,,,2,0,2,0,,,,,,,,,0,0,0,0,0,9,9,9,4,0,4,0,,,,,,,,,,,,,,,,,,,,,,,,,,,,,,,,,,,,,,,,,,,,,,,,,,,,,,,,,,,,,,,,30,,,,,,,,3276.739177499898,3276.739177499898,3276.739177499898,3276.739177499898,3276.739177499898,left,0.3596888999454677,6,0,0,99,-0.16000000000000003,-0.16,left,0.28358499985188246,,,,,,,,,,,,,,,,,,,,,,,,,,,,,,,,,,,,,,,,,,,,,,,,,,,,,,,,,,,,L2GMRN,train_x,blue_star,bottom_right,2025-07-23_12h13.20.976,HideSeek_v1,2022.2.5,59.96242749417547,
,5,3,0,3,-5,0,11,,train_dim1_1,10,30,,,,2,0,2,0,,,,,,,,,0,0,0,0,0,9,9,9,5,0,5,0,,,,,,,,,,,,,,,,,,,,,,,,,,,,,,,,,,,,,,,,,,,,,,,,,,,,,,,,,,,,,,,,30,,,,,,,,3277.1061015001033,3277.1061015001033,3277.1061015001033,3277.1061015001033,3277.1061015001033,return,0.543638699920848,7,0,0,1,-0.16000000000000003,-0.16,return,0.4537246997933835,2,-20,-0.16000000000000003,-0.16,,,,,,,,,,,,,,,,,,,,,,,,,,,,,,,,,,,,,,,,,,,,,,,,,,,,,,,,L2GMRN,train_x,blue_star,bottom_right,2025-07-23_12h13.20.976,HideSeek_v1,2022.2.5,59.96242749417547,
,7,2,4,2,-3,0,31,,train_dim1_1,11,30,,,,2,0,2,0,,,,,,,,,0,0,0,0,0,10,10,10,0,0,0,0,,,,,,,,,,,,,,,,,,,,,,,,,stimuli/alien_stimuli/31.png,,,,,,,,,,,,,,,,,,,,,,,,,,,,,stimuli/alien_stimuli/11.png,11,5,12,,,,,,,30,,,,,,,,3281.809186999919,3281.809186999919,3281.809186999919,3281.809186999919,3281.809186999919,left,2.283880800008774,7,0,0,99,0.32,-0.24,left,2.1660499998833984,,,,,3280.2075410999823,3281.809186999919,-0.16,-0.16,0.0,0.4,-0.16,-0.16,0.039999999999999994,-0.16,-0.16,3279.2355176000856,3279.2355176000856,3279.2355176000856,3279.2355176000856,3279.2355176000856,3279.2355176000856,3279.2355176000856,3279.2355176000856,3279.223115779972,1.1030341000296175,return,0.9424642997328192,,,,,,,,,,,,,,,,,,,,,,,,,,,,,,,,,L2GMRN,train_x,blue_star,bottom_right,2025-07-23_12h13.20.976,HideSeek_v1,2022.2.5,59.96242749417547,
,7,2,4,2,-3,0,31,,train_dim1_1,11,30,,,,2,0,2,0,,,,,,,,,0,0,0,0,0,10,10,10,1,0,1,0,,,,,,,,,,,,,,,,,,,,,,,,,,,,,,,,,,,,,,,,,,,,,,,,,,,,,,,,,,,,,,,,30,,,,,,,,3284.0581650999375,3284.0581650999375,3284.0581650999375,3284.0581650999375,3284.0581650999375,left,0.5761919999495149,7,0,0,99,0.24,-0.24,left,0.4929595999419689,,,,,,,,,,,,,,,,,,,,,,,,,,,,,,,,,,,,,,,,,,,,,,,,,,,,,,,,,,,,L2GMRN,train_x,blue_star,bottom_right,2025-07-23_12h13.20.976,HideSeek_v1,2022.2.5,59.96242749417547,
,7,2,4,2,-3,0,31,,train_dim1_1,11,30,,,,2,0,2,0,,,,,,,,,0,0,0,0,0,10,10,10,2,0,2,0,,,,,,,,,,,,,,,,,,,,,,,,,,,,,,,,,,,,,,,,,,,,,,,,,,,,,,,,,,,,,,,,30,,,,,,,,3284.651249400107,3284.651249400107,3284.651249400107,3284.651249400107,3284.651249400107,left,1.0264388998039067,7,0,0,99,0.15999999999999998,-0.24,left,0.9330505998805165,,,,,,,,,,,,,,,,,,,,,,,,,,,,,,,,,,,,,,,,,,,,,,,,,,,,,,,,,,,,L2GMRN,train_x,blue_star,bottom_right,2025-07-23_12h13.20.976,HideSeek_v1,2022.2.5,59.96242749417547,
,7,2,4,2,-3,0,31,,train_dim1_1,11,30,,,,2,0,2,0,,,,,,,,,0,0,0,0,0,10,10,10,3,0,3,0,,,,,,,,,,,,,,,,,,,,,,,,,,,,,,,,,,,,,,,,,,,,,,,,,,,,,,,,,,,,,,,,30,,,,,,,,3285.676441400079,3285.676441400079,3285.676441400079,3285.676441400079,3285.676441400079,left,0.476734499912709,7,0,0,99,0.07999999999999997,-0.24,left,0.387659200001508,,,,,,,,,,,,,,,,,,,,,,,,,,,,,,,,,,,,,,,,,,,,,,,,,,,,,,,,,,,,L2GMRN,train_x,blue_star,bottom_right,2025-07-23_12h13.20.976,HideSeek_v1,2022.2.5,59.96242749417547,
,7,2,4,2,-3,0,31,,train_dim1_1,11,30,,,,2,0,2,0,,,,,,,,,0,0,0,0,0,10,10,10,4,0,4,0,,,,,,,,,,,,,,,,,,,,,,,,,,,,,,,,,,,,,,,,,,,,,,,,,,,,,,,,,,,,,,,,30,,,,,,,,3286.1596500999294,3286.1596500999294,3286.1596500999294,3286.1596500999294,3286.1596500999294,return,0.3598321001045406,7,1,0,0,0.07999999999999997,-0.24,return,0.2767631998285651,2,-24,0.07999999999999997,-0.24,,,,,,,,,,,,,,,,,,,,,,,,,,,,,,,,,,,,,,,,,,,,,,,,,,,,,,,,L2GMRN,train_x,blue_star,bottom_right,2025-07-23_12h13.20.976,HideSeek_v1,2022.2.5,59.96242749417547,
,5,0,1,0,-4,0,21,,train_dim1_1,12,30,,,,2,0,2,0,,,,,,,,,0,0,0,0,0,11,11,11,0,0,0,0,,,,,,,,,,,,,,,,,,,,,,,,,stimuli/alien_stimuli/21.png,,,,,,,,,,,,,,,,,,,,,,,,,,,,,stimuli/alien_stimuli/31.png,31,7,13,,,,,,,30,,,,,,,,3299.5385022999253,3299.5385022999253,3299.5385022999253,3299.5385022999253,3299.5385022999253,left,2.6081937002018094,7,1,0,99,0.15999999999999998,-0.4,left,2.5077374998945743,,,,,3297.972497599898,3299.5385022999253,0.16,-0.24,0.0,0.24,-0.24,0.16,0.28,0.16,-0.24,3288.083026899956,3288.083026899956,3288.083026899956,3288.083026899956,3288.083026899956,3288.083026899956,3288.083026899956,3288.083026899956,3288.0640694600065,9.993951300159097,return,9.860055499710143,,,,,,,,,,,,,,,,,,,,,,,,,,,,,,,,,L2GMRN,train_x,blue_star,bottom_right,2025-07-23_12h13.20.976,HideSeek_v1,2022.2.5,59.96242749417547,
,5,0,1,0,-4,0,21,,train_dim1_1,12,30,,,,2,0,2,0,,,,,,,,,0,0,0,0,0,11,11,11,1,0,1,0,,,,,,,,,,,,,,,,,,,,,,,,,,,,,,,,,,,,,,,,,,,,,,,,,,,,,,,,,,,,,,,,30,,,,,,,,3302.144997399999,3302.144997399999,3302.144997399999,3302.144997399999,3302.144997399999,left,0.5087089000735432,7,1,0,99,0.07999999999999997,-0.4,left,0.430801099864766,,,,,,,,,,,,,,,,,,,,,,,,,,,,,,,,,,,,,,,,,,,,,,,,,,,,,,,,,,,,L2GMRN,train_x,blue_star,bottom_right,2025-07-23_12h13.20.976,HideSeek_v1,2022.2.5,59.96242749417547,
,5,0,1,0,-4,0,21,,train_dim1_1,12,30,,,,2,0,2,0,,,,,,,,,0,0,0,0,0,11,11,11,2,0,2,0,,,,,,,,,,,,,,,,,,,,,,,,,,,,,,,,,,,,,,,,,,,,,,,,,,,,,,,,,,,,,,,,30,,,,,,,,3302.6623658000026,3302.6623658000026,3302.6623658000026,3302.6623658000026,3302.6623658000026,left,0.7602838000748307,7,1,0,99,-2.7755575615628914e-17,-0.4,left,0.6804668998811394,,,,,,,,,,,,,,,,,,,,,,,,,,,,,,,,,,,,,,,,,,,,,,,,,,,,,,,,,,,,L2GMRN,train_x,blue_star,bottom_right,2025-07-23_12h13.20.976,HideSeek_v1,2022.2.5,59.96242749417547,
,5,0,1,0,-4,0,21,,train_dim1_1,12,30,,,,2,0,2,0,,,,,,,,,0,0,0,0,0,11,11,11,3,0,3,0,,,,,,,,,,,,,,,,,,,,,,,,,,,,,,,,,,,,,,,,,,,,,,,,,,,,,,,,,,,,,,,,30,,,,,,,,3303.427361499984,3303.427361499984,3303.427361499984,3303.427361499984,3303.427361499984,left,1.7443167001474649,7,1,0,99,-0.08000000000000003,-0.4,left,1.6558481997344643,,,,,,,,,,,,,,,,,,,,,,,,,,,,,,,,,,,,,,,,,,,,,,,,,,,,,,,,,,,,L2GMRN,train_x,blue_star,bottom_right,2025-07-23_12h13.20.976,HideSeek_v1,2022.2.5,59.96242749417547,
,5,0,1,0,-4,0,21,,train_dim1_1,12,30,,,,2,0,2,0,,,,,,,,,0,0,0,0,0,11,11,11,4,0,4,0,,,,,,,,,,,,,,,,,,,,,,,,,,,,,,,,,,,,,,,,,,,,,,,,,,,,,,,,,,,,,,,,30,,,,,,,,3305.1787869001273,3305.1787869001273,3305.1787869001273,3305.1787869001273,3305.1787869001273,return,0.3267657000105828,8,0,0,1,-0.08000000000000003,-0.4,return,0.24935309984721243,2,-28,-0.08000000000000003,-0.4,,,,,,,,,,,,,,,,,,,,,,,,,,,,,,,,,,,,,,,,,,,,,,,,,,,,,,,,L2GMRN,train_x,blue_star,bottom_right,2025-07-23_12h13.20.976,HideSeek_v1,2022.2.5,59.96242749417547,
,5,4,4,4,-1,0,51,,train_dim1_1,13,30,,,,2,0,2,0,,,,,,,,,0,0,0,0,0,12,12,12,0,0,0,0,,,,,,,,,,,,,,,,,,,,,,,,,stimuli/alien_stimuli/51.png,,,,,,,,,,,,,,,,,,,,,,,,,,,,,stimuli/alien_stimuli/21.png,21,5,14,,,,,,,30,,,,,,,,3309.6291078000795,3309.6291078000795,3309.6291078000795,3309.6291078000795,3309.6291078000795,left,1.7727241001557559,8,0,0,99,0.15999999999999998,-0.08,left,1.6682704996783286,,,,,3308.047245899914,3309.6291078000795,-0.08,-0.4,0.0,0.32,-0.4,-0.08,0.07999999999999999,-0.08,-0.4,3307.1007230000105,3307.1007230000105,3307.1007230000105,3307.1007230000105,3307.1007230000105,3307.1007230000105,3307.1007230000105,3307.1007230000105,3307.0798905799634,1.0858427002094686,return,0.9187004999257624,,,,,,,,,,,,,,,,,,,,,,,,,,,,,,,,,L2GMRN,train_x,blue_star,bottom_right,2025-07-23_12h13.20.976,HideSeek_v1,2022.2.5,59.96242749417547,
,5,4,4,4,-1,0,51,,train_dim1_1,13,30,,,,2,0,2,0,,,,,,,,,0,0,0,0,0,12,12,12,1,0,1,0,,,,,,,,,,,,,,,,,,,,,,,,,,,,,,,,,,,,,,,,,,,,,,,,,,,,,,,,,,,,,,,,30,,,,,,,,3311.383442299906,3311.383442299906,3311.383442299906,3311.383442299906,3311.383442299906,return,0.49298730003647506,9,0,0,1,0.15999999999999998,-0.08,return,0.41640119976364076,2,-29,0.15999999999999998,-0.08,,,,,,,,,,,,,,,,,,,,,,,,,,,,,,,,,,,,,,,,,,,,,,,,,,,,,,,,L2GMRN,train_x,blue_star,bottom_right,2025-07-23_12h13.20.976,HideSeek_v1,2022.2.5,59.96242749417547,
,9,3,4,3,-5,0,11,,train_dim1_1,14,30,,,,2,0,2,0,,,,,,,,,0,0,0,0,0,13,13,13,0,0,0,0,,,,,,,,,,,,,,,,,,,,,,,,,stimuli/alien_stimuli/11.png,,,,,,,,,,,,,,,,,,,,,,,,,,,,,stimuli/alien_stimuli/51.png,51,5,15,,,,,,,30,,,,,,,,3316.3681735000573,3316.3681735000573,3316.3681735000573,3316.3681735000573,3316.3681735000573,left,1.6206819999497384,9,0,0,99,0.48000000000000004,-0.16,left,1.5385618000291288,,,,,3314.8031921999063,3316.3681735000573,0.16,-0.08,0.0,0.08,-0.08,0.16,0.2,0.16,-0.08,3313.444044300122,3313.444044300122,3313.444044300122,3313.444044300122,3313.444044300122,3313.444044300122,3313.444044300122,3313.444044300122,3313.4349432199497,1.4703376998659223,return,1.3418427999131382,,,,,,,,,,,,,,,,,,,,,,,,,,,,,,,,,L2GMRN,train_x,blue_star,bottom_right,2025-07-23_12h13.20.976,HideSeek_v1,2022.2.5,59.96242749417547,
,9,3,4,3,-5,0,11,,train_dim1_1,14,30,,,,2,0,2,0,,,,,,,,,0,0,0,0,0,13,13,13,1,0,1,0,,,,,,,,,,,,,,,,,,,,,,,,,,,,,,,,,,,,,,,,,,,,,,,,,,,,,,,,,,,,,,,,30,,,,,,,,3317.992459299974,3317.992459299974,3317.992459299974,3317.992459299974,3317.992459299974,left,0.4915126000996679,9,0,0,99,0.4,-0.16,left,0.4024715998675674,,,,,,,,,,,,,,,,,,,,,,,,,,,,,,,,,,,,,,,,,,,,,,,,,,,,,,,,,,,,L2GMRN,train_x,blue_star,bottom_right,2025-07-23_12h13.20.976,HideSeek_v1,2022.2.5,59.96242749417547,
,9,3,4,3,-5,0,11,,train_dim1_1,14,30,,,,2,0,2,0,,,,,,,,,0,0,0,0,0,13,13,13,2,0,2,0,,,,,,,,,,,,,,,,,,,,,,,,,,,,,,,,,,,,,,,,,,,,,,,,,,,,,,,,,,,,,,,,30,,,,,,,,3318.490307100117,3318.490307100117,3318.490307100117,3318.490307100117,3318.490307100117,left,0.4932935000397265,9,0,0,99,0.32,-0.16,left,0.4154311998281628,,,,,,,,,,,,,,,,,,,,,,,,,,,,,,,,,,,,,,,,,,,,,,,,,,,,,,,,,,,,L2GMRN,train_x,blue_star,bottom_right,2025-07-23_12h13.20.976,HideSeek_v1,2022.2.5,59.96242749417547,
,9,3,4,3,-5,0,11,,train_dim1_1,14,30,,,,2,0,2,0,,,,,,,,,0,0,0,0,0,13,13,13,3,0,3,0,,,,,,,,,,,,,,,,,,,,,,,,,,,,,,,,,,,,,,,,,,,,,,,,,,,,,,,,,,,,,,,,30,,,,,,,,3318.9912048999686,3318.9912048999686,3318.9912048999686,3318.9912048999686,3318.9912048999686,left,0.4931498998776078,9,0,0,99,0.24,-0.16,left,0.403442399809137,,,,,,,,,,,,,,,,,,,,,,,,,,,,,,,,,,,,,,,,,,,,,,,,,,,,,,,,,,,,L2GMRN,train_x,blue_star,bottom_right,2025-07-23_12h13.20.976,HideSeek_v1,2022.2.5,59.96242749417547,
,9,3,4,3,-5,0,11,,train_dim1_1,14,30,,,,2,0,2,0,,,,,,,,,0,0,0,0,0,13,13,13,4,0,4,0,,,,,,,,,,,,,,,,,,,,,,,,,,,,,,,,,,,,,,,,,,,,,,,,,,,,,,,,,,,,,,,,30,,,,,,,,3319.490816199919,3319.490816199919,3319.490816199919,3319.490816199919,3319.490816199919,left,0.8103811000473797,9,0,0,99,0.15999999999999998,-0.16,left,0.7308390999678522,,,,,,,,,,,,,,,,,,,,,,,,,,,,,,,,,,,,,,,,,,,,,,,,,,,,,,,,,,,,L2GMRN,train_x,blue_star,bottom_right,2025-07-23_12h13.20.976,HideSeek_v1,2022.2.5,59.96242749417547,
,9,3,4,3,-5,0,11,,train_dim1_1,14,30,,,,2,0,2,0,,,,,,,,,0,0,0,0,0,13,13,13,5,0,5,0,,,,,,,,,,,,,,,,,,,,,,,,,,,,,,,,,,,,,,,,,,,,,,,,,,,,,,,,,,,,,,,,30,,,,,,,,3320.3088442001026,3320.3088442001026,3320.3088442001026,3320.3088442001026,3320.3088442001026,right,1.7110279998742044,9,0,0,99,0.24,-0.16,right,1.6279949999880046,,,,,,,,,,,,,,,,,,,,,,,,,,,,,,,,,,,,,,,,,,,,,,,,,,,,,,,,,,,,L2GMRN,train_x,blue_star,bottom_right,2025-07-23_12h13.20.976,HideSeek_v1,2022.2.5,59.96242749417547,
,9,3,4,3,-5,0,11,,train_dim1_1,14,30,,,,2,0,2,0,,,,,,,,,0,0,0,0,0,13,13,13,6,0,6,0,,,,,,,,,,,,,,,,,,,,,,,,,,,,,,,,,,,,,,,,,,,,,,,,,,,,,,,,,,,,,,,,30,,,,,,,,3322.0270048000384,3322.0270048000384,3322.0270048000384,3322.0270048000384,3322.0270048000384,right,0.20981500018388033,9,0,0,99,0.32,-0.16,right,0.12291949987411499,,,,,,,,,,,,,,,,,,,,,,,,,,,,,,,,,,,,,,,,,,,,,,,,,,,,,,,,,,,,L2GMRN,train_x,blue_star,bottom_right,2025-07-23_12h13.20.976,HideSeek_v1,2022.2.5,59.96242749417547,
,9,3,4,3,-5,0,11,,train_dim1_1,14,30,,,,2,0,2,0,,,,,,,,,0,0,0,0,0,13,13,13,7,0,7,0,,,,,,,,,,,,,,,,,,,,,,,,,,,,,,,,,,,,,,,,,,,,,,,,,,,,,,,,,,,,,,,,30,,,,,,,,3322.2441777000204,3322.2441777000204,3322.2441777000204,3322.2441777000204,3322.2441777000204,right,0.1930986000224948,9,0,0,99,0.4,-0.16,right,0.11289279977791011,,,,,,,,,,,,,,,,,,,,,,,,,,,,,,,,,,,,,,,,,,,,,,,,,,,,,,,,,,,,L2GMRN,train_x,blue_star,bottom_right,2025-07-23_12h13.20.976,HideSeek_v1,2022.2.5,59.96242749417547,
,9,3,4,3,-5,0,11,,train_dim1_1,14,30,,,,2,0,2,0,,,,,,,,,0,0,0,0,0,13,13,13,8,0,8,0,,,,,,,,,,,,,,,,,,,,,,,,,,,,,,,,,,,,,,,,,,,,,,,,,,,,,,,,,,,,,,,,30,,,,,,,,3322.4494646000676,3322.4494646000676,3322.4494646000676,3322.4494646000676,3322.4494646000676,right,0.2097544998396188,9,0,0,99,0.48000000000000004,-0.16,right,0.12439949996769428,,,,,,,,,,,,,,,,,,,,,,,,,,,,,,,,,,,,,,,,,,,,,,,,,,,,,,,,,,,,L2GMRN,train_x,blue_star,bottom_right,2025-07-23_12h13.20.976,HideSeek_v1,2022.2.5,59.96242749417547,
,9,3,4,3,-5,0,11,,train_dim1_1,14,30,,,,2,0,2,0,,,,,,,,,0,0,0,0,0,13,13,13,9,0,9,0,,,,,,,,,,,,,,,,,,,,,,,,,,,,,,,,,,,,,,,,,,,,,,,,,,,,,,,,,,,,,,,,30,,,,,,,,3322.6608498001006,3322.6608498001006,3322.6608498001006,3322.6608498001006,3322.6608498001006,right,0.12666619988158345,9,0,0,99,0.56,-0.16,right,0.04767489992082119,,,,,,,,,,,,,,,,,,,,,,,,,,,,,,,,,,,,,,,,,,,,,,,,,,,,,,,,,,,,L2GMRN,train_x,blue_star,bottom_right,2025-07-23_12h13.20.976,HideSeek_v1,2022.2.5,59.96242749417547,
,9,3,4,3,-5,0,11,,train_dim1_1,14,30,,,,2,0,2,0,,,,,,,,,0,0,0,0,0,13,13,13,10,0,10,0,,,,,,,,,,,,,,,,,,,,,,,,,,,,,,,,,,,,,,,,,,,,,,,,,,,,,,,,,,,,,,,,30,,,,,,,,3322.795023499988,3322.795023499988,3322.795023499988,3322.795023499988,3322.795023499988,left,1.2436655999626964,9,0,0,99,0.48000000000000004,-0.16,left,1.1502027998212725,,,,,,,,,,,,,,,,,,,,,,,,,,,,,,,,,,,,,,,,,,,,,,,,,,,,,,,,,,,,L2GMRN,train_x,blue_star,bottom_right,2025-07-23_12h13.20.976,HideSeek_v1,2022.2.5,59.96242749417547,
,9,3,4,3,-5,0,11,,train_dim1_1,14,30,,,,2,0,2,0,,,,,,,,,0,0,0,0,0,13,13,13,11,0,11,0,,,,,,,,,,,,,,,,,,,,,,,,,,,,,,,,,,,,,,,,,,,,,,,,,,,,,,,,,,,,,,,,30,,,,,,,,3324.0458142000716,3324.0458142000716,3324.0458142000716,3324.0458142000716,3324.0458142000716,left,0.7103055000770837,9,0,0,99,0.4,-0.16,left,0.6271030998323113,,,,,,,,,,,,,,,,,,,,,,,,,,,,,,,,,,,,,,,,,,,,,,,,,,,,,,,,,,,,L2GMRN,train_x,blue_star,bottom_right,2025-07-23_12h13.20.976,HideSeek_v1,2022.2.5,59.96242749417547,
,9,3,4,3,-5,0,11,,train_dim1_1,14,30,,,,2,0,2,0,,,,,,,,,0,0,0,0,0,13,13,13,12,0,12,0,,,,,,,,,,,,,,,,,,,,,,,,,,,,,,,,,,,,,,,,,,,,,,,,,,,,,,,,,,,,,,,,30,,,,,,,,3324.762286900077,3324.762286900077,3324.762286900077,3324.762286900077,3324.762286900077,left,0.8096134001389146,9,0,0,99,0.32,-0.16,left,0.7312952999491245,,,,,,,,,,,,,,,,,,,,,,,,,,,,,,,,,,,,,,,,,,,,,,,,,,,,,,,,,,,,L2GMRN,train_x,blue_star,bottom_right,2025-07-23_12h13.20.976,HideSeek_v1,2022.2.5,59.96242749417547,
,9,3,4,3,-5,0,11,,train_dim1_1,14,30,,,,2,0,2,0,,,,,,,,,0,0,0,0,0,13,13,13,13,0,13,0,,,,,,,,,,,,,,,,,,,,,,,,,,,,,,,,,,,,,,,,,,,,,,,,,,,,,,,,,,,,,,,,30,,,,,,,,3325.5796501000877,3325.5796501000877,3325.5796501000877,3325.5796501000877,3325.5796501000877,left,0.6936306999996305,9,0,0,99,0.24,-0.16,left,0.6151189997326583,,,,,,,,,,,,,,,,,,,,,,,,,,,,,,,,,,,,,,,,,,,,,,,,,,,,,,,,,,,,L2GMRN,train_x,blue_star,bottom_right,2025-07-23_12h13.20.976,HideSeek_v1,2022.2.5,59.96242749417547,
,9,3,4,3,-5,0,11,,train_dim1_1,14,30,,,,2,0,2,0,,,,,,,,,0,0,0,0,0,13,13,13,14,0,14,0,,,,,,,,,,,,,,,,,,,,,,,,,,,,,,,,,,,,,,,,,,,,,,,,,,,,,,,,,,,,,,,,30,,,,,,,,3326.280477100052,3326.280477100052,3326.280477100052,3326.280477100052,3326.280477100052,left,0.6769244000315666,9,0,0,99,0.15999999999999998,-0.16,left,0.5900886000599712,,,,,,,,,,,,,,,,,,,,,,,,,,,,,,,,,,,,,,,,,,,,,,,,,,,,,,,,,,,,L2GMRN,train_x,blue_star,bottom_right,2025-07-23_12h13.20.976,HideSeek_v1,2022.2.5,59.96242749417547,
,9,3,4,3,-5,0,11,,train_dim1_1,14,30,,,,2,0,2,0,,,,,,,,,0,0,0,0,0,13,13,13,15,0,15,0,,,,,,,,,,,,,,,,,,,,,,,,,,,,,,,,,,,,,,,,,,,,,,,,,,,,,,,,,,,,,,,,30,,,,,,,,3326.9657356999815,3326.9657356999815,3326.9657356999815,3326.9657356999815,3326.9657356999815,return,10.618197199888527,10,0,0,1,0.15999999999999998,-0.16,return,10.524402800016105,2,-34,0.15999999999999998,-0.16,,,,,,,,,,,,,,,,,,,,,,,,,,,,,,,,,,,,,,,,,,,,,,,,,,,,,,,,L2GMRN,train_x,blue_star,bottom_right,2025-07-23_12h13.20.976,HideSeek_v1,2022.2.5,59.96242749417547,
,9,2,9,2,0,0,61,,train_dim1_1,15,30,,,,2,0,2,0,,,,,,,,,0,0,0,0,0,14,14,14,0,0,0,0,,,,,,,,,,,,,,,,,,,,,,,,,stimuli/alien_stimuli/61.png,,,,,,,,,,,,,,,,,,,,,,,,,,,,,stimuli/alien_stimuli/11.png,11,9,16,,,,,,,30,,,,,,,,3342.2548909999896,3342.2548909999896,3342.2548909999896,3342.2548909999896,3342.2548909999896,left,1.5868551000021398,10,0,0,99,0.48000000000000004,-0.24,left,1.4841859999578446,,,,,3340.6744101999793,3342.2548909999896,0.16,-0.16,0.0,0.4,-0.16,0.16,0.36000000000000004,0.16,-0.16,3339.1932508000173,3339.1932508000173,3339.1932508000173,3339.1932508000173,3339.1932508000173,3339.1932508000173,3339.1932508000173,3339.1932508000173,3339.1732488400535,1.6364616001956165,return,1.449342800071463,,,,,,,,,,,,,,,,,,,,,,,,,,,,,,,,,L2GMRN,train_x,blue_star,bottom_right,2025-07-23_12h13.20.976,HideSeek_v1,2022.2.5,59.96242749417547,
,9,2,9,2,0,0,61,,train_dim1_1,15,30,,,,2,0,2,0,,,,,,,,,0,0,0,0,0,14,14,14,1,0,1,0,,,,,,,,,,,,,,,,,,,,,,,,,,,,,,,,,,,,,,,,,,,,,,,,,,,,,,,,,,,,,,,,30,,,,,,,,3343.824810199905,3343.824810199905,3343.824810199905,3343.824810199905,3343.824810199905,right,0.3426196000073105,10,0,0,99,0.56,-0.24,right,0.25628669979050756,,,,,,,,,,,,,,,,,,,,,,,,,,,,,,,,,,,,,,,,,,,,,,,,,,,,,,,,,,,,L2GMRN,train_x,blue_star,bottom_right,2025-07-23_12h13.20.976,HideSeek_v1,2022.2.5,59.96242749417547,
,9,2,9,2,0,0,61,,train_dim1_1,15,30,,,,2,0,2,0,,,,,,,,,0,0,0,0,0,14,14,14,2,0,2,0,,,,,,,,,,,,,,,,,,,,,,,,,,,,,,,,,,,,,,,,,,,,,,,,,,,,,,,,,,,,,,,,30,,,,,,,,3344.174788299948,3344.174788299948,3344.174788299948,3344.174788299948,3344.174788299948,return,0.6267271998804063,11,0,0,1,0.56,-0.24,return,0.5461110998876393,2,-34,0.56,-0.24,,,,,,,,,,,,,,,,,,,,,,,,,,,,,,,,,,,,,,,,,,,,,,,,,,,,,,,,L2GMRN,train_x,blue_star,bottom_right,2025-07-23_12h13.20.976,HideSeek_v1,2022.2.5,59.96242749417547,
,8,3,7,3,-1,0,51,,train_dim1_1,16,30,,,,2,0,2,0,,,,,,,,,0,0,0,0,0,15,15,15,0,0,0,0,,,,,,,,,,,,,,,,,,,,,,,,,stimuli/alien_stimuli/51.png,,,,,,,,,,,,,,,,,,,,,,,,,,,,,stimuli/alien_stimuli/61.png,61,9,17,,,,,,,30,,,,,,,,3348.8446206999943,3348.8446206999943,3348.8446206999943,3348.8446206999943,3348.8446206999943,left,2.4387645998504013,11,0,0,99,0.39999999999999997,-0.16,left,2.34810179984197,,,,,3347.279846499907,3348.8446206999943,0.56,-0.24,0.0,0.0,-0.24,0.56,0.56,0.56,-0.24,3346.3648985000327,3346.3648985000327,3346.3648985000327,3346.3648985000327,3346.3648985000327,3346.3648985000327,3346.3648985000327,3346.3648985000327,3346.34585325988,1.019701800076291,return,0.8967277000192553,,,,,,,,,,,,,,,,,,,,,,,,,,,,,,,,,L2GMRN,train_x,blue_star,bottom_right,2025-07-23_12h13.20.976,HideSeek_v1,2022.2.5,59.96242749417547,
,8,3,7,3,-1,0,51,,train_dim1_1,16,30,,,,2,0,2,0,,,,,,,,,0,0,0,0,0,15,15,15,1,0,1,0,,,,,,,,,,,,,,,,,,,,,,,,,,,,,,,,,,,,,,,,,,,,,,,,,,,,,,,,,,,,,,,,30,,,,,,,,3351.2834622999653,3351.2834622999653,3351.2834622999653,3351.2834622999653,3351.2834622999653,return,0.6932180998846889,12,0,0,1,0.39999999999999997,-0.16,return,0.6046264998149127,2,-35,0.39999999999999997,-0.16,,,,,,,,,,,,,,,,,,,,,,,,,,,,,,,,,,,,,,,,,,,,,,,,,,,,,,,,L2GMRN,train_x,blue_star,bottom_right,2025-07-23_12h13.20.976,HideSeek_v1,2022.2.5,59.96242749417547,
,7,4,3,4,-4,0,21,,train_dim1_1,17,30,,,,2,0,2,0,,,,,,,,,0,0,0,0,0,16,16,16,0,0,0,0,,,,,,,,,,,,,,,,,,,,,,,,,stimuli/alien_stimuli/21.png,,,,,,,,,,,,,,,,,,,,,,,,,,,,,stimuli/alien_stimuli/51.png,51,8,18,,,,,,,30,,,,,,,,3355.949011400109,3355.949011400109,3355.949011400109,3355.949011400109,3355.949011400109,left,1.7730179000645876,12,0,0,99,0.32,-0.08,left,1.6853069998323917,,,,,3354.385947600007,3355.949011400109,0.4,-0.16,0.0,0.08,-0.16,0.4,0.44,0.4,-0.16,3353.543801400112,3353.543801400112,3353.543801400112,3353.543801400112,3353.543801400112,3353.543801400112,3353.543801400112,3353.543801400112,3353.535067020054,0.9529938001651317,return,0.8125350999180228,,,,,,,,,,,,,,,,,,,,,,,,,,,,,,,,,L2GMRN,train_x,blue_star,bottom_right,2025-07-23_12h13.20.976,HideSeek_v1,2022.2.5,59.96242749417547,
,7,4,3,4,-4,0,21,,train_dim1_1,17,30,,,,2,0,2,0,,,,,,,,,0,0,0,0,0,16,16,16,1,0,1,0,,,,,,,,,,,,,,,,,,,,,,,,,,,,,,,,,,,,,,,,,,,,,,,,,,,,,,,,,,,,,,,,30,,,,,,,,3357.7277092000004,3357.7277092000004,3357.7277092000004,3357.7277092000004,3357.7277092000004,left,0.5259869999717921,12,0,0,99,0.24,-0.08,left,0.43440339993685484,,,,,,,,,,,,,,,,,,,,,,,,,,,,,,,,,,,,,,,,,,,,,,,,,,,,,,,,,,,,L2GMRN,train_x,blue_star,bottom_right,2025-07-23_12h13.20.976,HideSeek_v1,2022.2.5,59.96242749417547,
,7,4,3,4,-4,0,21,,train_dim1_1,17,30,,,,2,0,2,0,,,,,,,,,0,0,0,0,0,16,16,16,2,0,2,0,,,,,,,,,,,,,,,,,,,,,,,,,,,,,,,,,,,,,,,,,,,,,,,,,,,,,,,,,,,,,,,,30,,,,,,,,3358.2570337001234,3358.2570337001234,3358.2570337001234,3358.2570337001234,3358.2570337001234,left,0.44330319995060563,12,0,0,99,0.15999999999999998,-0.08,left,0.36368419975042343,,,,,,,,,,,,,,,,,,,,,,,,,,,,,,,,,,,,,,,,,,,,,,,,,,,,,,,,,,,,L2GMRN,train_x,blue_star,bottom_right,2025-07-23_12h13.20.976,HideSeek_v1,2022.2.5,59.96242749417547,
,7,4,3,4,-4,0,21,,train_dim1_1,17,30,,,,2,0,2,0,,,,,,,,,0,0,0,0,0,16,16,16,3,0,3,0,,,,,,,,,,,,,,,,,,,,,,,,,,,,,,,,,,,,,,,,,,,,,,,,,,,,,,,,,,,,,,,,30,,,,,,,,3358.707966099959,3358.707966099959,3358.707966099959,3358.707966099959,3358.707966099959,left,0.3933879998512566,12,0,0,99,0.07999999999999997,-0.08,left,0.3054269999265671,,,,,,,,,,,,,,,,,,,,,,,,,,,,,,,,,,,,,,,,,,,,,,,,,,,,,,,,,,,,L2GMRN,train_x,blue_star,bottom_right,2025-07-23_12h13.20.976,HideSeek_v1,2022.2.5,59.96242749417547,
,7,4,3,4,-4,0,21,,train_dim1_1,17,30,,,,2,0,2,0,,,,,,,,,0,0,0,0,0,16,16,16,4,0,4,0,,,,,,,,,,,,,,,,,,,,,,,,,,,,,,,,,,,,,,,,,,,,,,,,,,,,,,,,,,,,,,,,30,,,,,,,,3359.1082721001003,3359.1082721001003,3359.1082721001003,3359.1082721001003,3359.1082721001003,return,0.4433703999966383,13,0,0,1,0.07999999999999997,-0.08,return,0.36162599991075695,2,-39,0.07999999999999997,-0.08,,,,,,,,,,,,,,,,,,,,,,,,,,,,,,,,,,,,,,,,,,,,,,,,,,,,,,,,L2GMRN,train_x,blue_star,bottom_right,2025-07-23_12h13.20.976,HideSeek_v1,2022.2.5,59.96242749417547,
,7,1,7,1,0,0,61,,train_dim1_1,18,30,,,,2,0,2,0,,,,,,,,,0,0,0,0,0,17,17,17,0,0,0,0,,,,,,,,,,,,,,,,,,,,,,,,,stimuli/alien_stimuli/61.png,,,,,,,,,,,,,,,,,,,,,,,,,,,,,stimuli/alien_stimuli/21.png,21,7,19,,,,,,,30,,,,,,,,3363.6221773999278,3363.6221773999278,3363.6221773999278,3363.6221773999278,3363.6221773999278,left,1.7902292998041958,13,0,0,99,0.32,-0.32,left,1.6875660999212414,,,,,3362.04218270001,3363.6221773999278,0.08,-0.08,0.0,0.32,-0.08,0.08,0.24000000000000002,0.08,-0.08,3361.11830620002,3361.11830620002,3361.11830620002,3361.11830620002,3361.11830620002,3361.11830620002,3361.11830620002,3361.11830620002,3361.1080486200053,1.0364411999471486,return,0.892604700056836,,,,,,,,,,,,,,,,,,,,,,,,,,,,,,,,,L2GMRN,train_x,blue_star,bottom_right,2025-07-23_12h13.20.976,HideSeek_v1,2022.2.5,59.96242749417547,
,7,1,7,1,0,0,61,,train_dim1_1,18,30,,,,2,0,2,0,,,,,,,,,0,0,0,0,0,17,17,17,1,0,1,0,,,,,,,,,,,,,,,,,,,,,,,,,,,,,,,,,,,,,,,,,,,,,,,,,,,,,,,,,,,,,,,,30,,,,,,,,3365.394140300108,3365.394140300108,3365.394140300108,3365.394140300108,3365.394140300108,right,0.39260090002790093,13,0,0,99,0.4,-0.32,right,0.3132561999373138,,,,,,,,,,,,,,,,,,,,,,,,,,,,,,,,,,,,,,,,,,,,,,,,,,,,,,,,,,,,L2GMRN,train_x,blue_star,bottom_right,2025-07-23_12h13.20.976,HideSeek_v1,2022.2.5,59.96242749417547,
,7,1,7,1,0,0,61,,train_dim1_1,18,30,,,,2,0,2,0,,,,,,,,,0,0,0,0,0,17,17,17,2,0,2,0,,,,,,,,,,,,,,,,,,,,,,,,,,,,,,,,,,,,,,,,,,,,,,,,,,,,,,,,,,,,,,,,30,,,,,,,,3365.793526900001,3365.793526900001,3365.793526900001,3365.793526900001,3365.793526900001,return,0.5434997000265867,14,0,0,1,0.4,-0.32,return,0.4541718999389559,2,-39,0.4,-0.32,,,,,,,,,,,,,,,,,,,,,,,,,,,,,,,,,,,,,,,,,,,,,,,,,,,,,,,,L2GMRN,train_x,blue_star,bottom_right,2025-07-23_12h13.20.976,HideSeek_v1,2022.2.5,59.96242749417547,
,5,3,2,3,-3,0,31,,train_dim1_1,19,30,,,,2,0,2,0,,,,,,,,,0,0,0,0,0,18,18,18,0,0,0,0,,,,,,,,,,,,,,,,,,,,,,,,,stimuli/alien_stimuli/31.png,,,,,,,,,,,,,,,,,,,,,,,,,,,,,stimuli/alien_stimuli/61.png,61,7,20,,,,,,,30,,,,,,,,3370.5090356001165,3370.5090356001165,3370.5090356001165,3370.5090356001165,3370.5090356001165,left,1.7386976000852883,14,0,0,99,0.15999999999999998,-0.16,left,1.6579499999061227,,,,,3368.948016199982,3370.5090356001165,0.4,-0.32,0.0,0.0,-0.32,0.4,0.4,0.4,-0.32,3367.9074154999107,3367.9074154999107,3367.9074154999107,3367.9074154999107,3367.9074154999107,3367.9074154999107,3367.9074154999107,3367.9074154999107,3367.8971387199826,1.1529473999980837,return,1.0233973998110741,,,,,,,,,,,,,,,,,,,,,,,,,,,,,,,,,L2GMRN,train_x,blue_star,bottom_right,2025-07-23_12h13.20.976,HideSeek_v1,2022.2.5,59.96242749417547,
,5,3,2,3,-3,0,31,,train_dim1_1,19,30,,,,2,0,2,0,,,,,,,,,0,0,0,0,0,18,18,18,1,0,1,0,,,,,,,,,,,,,,,,,,,,,,,,,,,,,,,,,,,,,,,,,,,,,,,,,,,,,,,,,,,,,,,,30,,,,,,,,3372.248993499903,3372.248993499903,3372.248993499903,3372.248993499903,3372.248993499903,left,0.5259908998850733,14,0,0,99,0.07999999999999997,-0.16,left,0.43697749986313283,,,,,,,,,,,,,,,,,,,,,,,,,,,,,,,,,,,,,,,,,,,,,,,,,,,,,,,,,,,,L2GMRN,train_x,blue_star,bottom_right,2025-07-23_12h13.20.976,HideSeek_v1,2022.2.5,59.96242749417547,
,5,3,2,3,-3,0,31,,train_dim1_1,19,30,,,,2,0,2,0,,,,,,,,,0,0,0,0,0,18,18,18,2,0,2,0,,,,,,,,,,,,,,,,,,,,,,,,,,,,,,,,,,,,,,,,,,,,,,,,,,,,,,,,,,,,,,,,30,,,,,,,,3372.782121700002,3372.782121700002,3372.782121700002,3372.782121700002,3372.782121700002,left,0.5267396999988705,14,0,0,99,-2.7755575615628914e-17,-0.16,left,0.45168699976056814,,,,,,,,,,,,,,,,,,,,,,,,,,,,,,,,,,,,,,,,,,,,,,,,,,,,,,,,,,,,L2GMRN,train_x,blue_star,bottom_right,2025-07-23_12h13.20.976,HideSeek_v1,2022.2.5,59.96242749417547,
,5,3,2,3,-3,0,31,,train_dim1_1,19,30,,,,2,0,2,0,,,,,,,,,0,0,0,0,0,18,18,18,3,0,3,0,,,,,,,,,,,,,,,,,,,,,,,,,,,,,,,,,,,,,,,,,,,,,,,,,,,,,,,,,,,,,,,,30,,,,,,,,3373.315852599917,3373.315852599917,3373.315852599917,3373.315852599917,3373.315852599917,return,0.4100713001098484,15,0,0,1,-2.7755575615628914e-17,-0.16,return,0.3257695999927819,2,-42,-2.7755575615628914e-17,-0.16,,,,,,,,,,,,,,,,,,,,,,,,,,,,,,,,,,,,,,,,,,,,,,,,,,,,,,,,L2GMRN,train_x,blue_star,bottom_right,2025-07-23_12h13.20.976,HideSeek_v1,2022.2.5,59.96242749417547,
,5,1,0,1,-5,0,11,,train_dim1_1,20,30,,,,2,0,2,0,,,,,,,,,0,0,0,0,0,19,19,19,0,0,0,0,,,,,,,,,,,,,,,,,,,,,,,,,stimuli/alien_stimuli/11.png,,,,,,,,,,,,,,,,,,,,,,,,,,,,,stimuli/alien_stimuli/31.png,31,5,21,,,,,,,30,,,,,,,,3377.599780800054,3377.599780800054,3377.599780800054,3377.599780800054,3377.599780800054,left,3.3576306998729706,15,0,0,99,0.15999999999999998,-0.32,left,3.263461499940604,,,,,3376.0374062000774,3377.599780800054,0,-0.16,0.0,0.24,-0.16,0,0.12,0,-0.16,3375.2927556999493,3375.2927556999493,3375.2927556999493,3375.2927556999493,3375.2927556999493,3375.2927556999493,3375.2927556999493,3375.2927556999493,3375.2697912599892,0.8533616000786424,return,0.7248442999552935,,,,,,,,,,,,,,,,,,,,,,,,,,,,,,,,,L2GMRN,train_x,blue_star,bottom_right,2025-07-23_12h13.20.976,HideSeek_v1,2022.2.5,59.96242749417547,
,5,1,0,1,-5,0,11,,train_dim1_1,20,30,,,,2,0,2,0,,,,,,,,,0,0,0,0,0,19,19,19,1,0,1,0,,,,,,,,,,,,,,,,,,,,,,,,,,,,,,,,,,,,,,,,,,,,,,,,,,,,,,,,,,,,,,,,30,,,,,,,,3380.960058799945,3380.960058799945,3380.960058799945,3380.960058799945,3380.960058799945,left,0.525469700107351,15,0,0,99,0.07999999999999997,-0.32,left,0.44093969999812543,,,,,,,,,,,,,,,,,,,,,,,,,,,,,,,,,,,,,,,,,,,,,,,,,,,,,,,,,,,,L2GMRN,train_x,blue_star,bottom_right,2025-07-23_12h13.20.976,HideSeek_v1,2022.2.5,59.96242749417547,
,5,1,0,1,-5,0,11,,train_dim1_1,20,30,,,,2,0,2,0,,,,,,,,,0,0,0,0,0,19,19,19,2,0,2,0,,,,,,,,,,,,,,,,,,,,,,,,,,,,,,,,,,,,,,,,,,,,,,,,,,,,,,,,,,,,,,,,30,,,,,,,,3381.49260820006,3381.49260820006,3381.49260820006,3381.49260820006,3381.49260820006,left,0.5265649000648409,15,0,0,99,-2.7755575615628914e-17,-0.32,left,0.45026239985600114,,,,,,,,,,,,,,,,,,,,,,,,,,,,,,,,,,,,,,,,,,,,,,,,,,,,,,,,,,,,L2GMRN,train_x,blue_star,bottom_right,2025-07-23_12h13.20.976,HideSeek_v1,2022.2.5,59.96242749417547,
,5,1,0,1,-5,0,11,,train_dim1_1,20,30,,,,2,0,2,0,,,,,,,,,0,0,0,0,0,19,19,19,3,0,3,0,,,,,,,,,,,,,,,,,,,,,,,,,,,,,,,,,,,,,,,,,,,,,,,,,,,,,,,,,,,,,,,,30,,,,,,,,3382.028251199983,3382.028251199983,3382.028251199983,3382.028251199983,3382.028251199983,left,0.5767912000883371,15,0,0,99,-0.08000000000000003,-0.32,left,0.4886775999329984,,,,,,,,,,,,,,,,,,,,,,,,,,,,,,,,,,,,,,,,,,,,,,,,,,,,,,,,,,,,L2GMRN,train_x,blue_star,bottom_right,2025-07-23_12h13.20.976,HideSeek_v1,2022.2.5,59.96242749417547,
,5,1,0,1,-5,0,11,,train_dim1_1,20,30,,,,2,0,2,0,,,,,,,,,0,0,0,0,0,19,19,19,4,0,4,0,,,,,,,,,,,,,,,,,,,,,,,,,,,,,,,,,,,,,,,,,,,,,,,,,,,,,,,,,,,,,,,,30,,,,,,,,3382.6101377999876,3382.6101377999876,3382.6101377999876,3382.6101377999876,3382.6101377999876,left,0.5767430998384953,15,0,0,99,-0.16000000000000003,-0.32,left,0.4928242997266352,,,,,,,,,,,,,,,,,,,,,,,,,,,,,,,,,,,,,,,,,,,,,,,,,,,,,,,,,,,,L2GMRN,train_x,blue_star,bottom_right,2025-07-23_12h13.20.976,HideSeek_v1,2022.2.5,59.96242749417547,
,5,1,0,1,-5,0,11,,train_dim1_1,20,30,,,,2,0,2,0,,,,,,,,,0,0,0,0,0,19,19,19,5,0,5,0,,,,,,,,,,,,,,,,,,,,,,,,,,,,,,,,,,,,,,,,,,,,,,,,,,,,,,,,,,,,,,,,30,,,,,,,,3383.1954977998976,3383.1954977998976,3383.1954977998976,3383.1954977998976,3383.1954977998976,return,0.6769802998751402,16,0,0,1,-0.16000000000000003,-0.32,return,0.5977757000364363,2,-47,-0.16000000000000003,-0.32,,,,,,,,,,,,,,,,,,,,,,,,,,,,,,,,,,,,,,,,,,,,,,,,,,,,,,,,L2GMRN,train_x,blue_star,bottom_right,2025-07-23_12h13.20.976,HideSeek_v1,2022.2.5,59.96242749417547,
,9,2,6,2,-3,0,31,,train_dim1_1,21,30,,,,2,0,2,0,,,,,,,,,0,0,0,0,0,20,20,20,0,0,0,0,,,,,,,,,,,,,,,,,,,,,,,,,stimuli/alien_stimuli/31.png,,,,,,,,,,,,,,,,,,,,,,,,,,,,,stimuli/alien_stimuli/11.png,11,5,22,,,,,,,30,,,,,,,,3388.0221456999425,3388.0221456999425,3388.0221456999425,3388.0221456999425,3388.0221456999425,left,1.2386190998367965,16,0,0,99,0.48000000000000004,-0.24,left,1.1387964999303222,,,,,3386.4461779000703,3388.0221456999425,-0.16,-0.32,0.0,0.4,-0.32,-0.16,0.039999999999999994,-0.16,-0.32,3385.4395626999903,3385.4395626999903,3385.4395626999903,3385.4395626999903,3385.4395626999903,3385.4395626999903,3385.4395626999903,3385.4395626999903,3385.428336219932,1.1200754998717457,return,0.9750774998683482,,,,,,,,,,,,,,,,,,,,,,,,,,,,,,,,,L2GMRN,train_x,blue_star,bottom_right,2025-07-23_12h13.20.976,HideSeek_v1,2022.2.5,59.96242749417547,
,9,2,6,2,-3,0,31,,train_dim1_1,21,30,,,,2,0,2,0,,,,,,,,,0,0,0,0,0,20,20,20,1,0,1,0,,,,,,,,,,,,,,,,,,,,,,,,,,,,,,,,,,,,,,,,,,,,,,,,,,,,,,,,,,,,,,,,30,,,,,,,,3389.246010000119,3389.246010000119,3389.246010000119,3389.246010000119,3389.246010000119,left,0.49303349992260337,16,0,0,99,0.4,-0.24,left,0.41809159982949495,,,,,,,,,,,,,,,,,,,,,,,,,,,,,,,,,,,,,,,,,,,,,,,,,,,,,,,,,,,,L2GMRN,train_x,blue_star,bottom_right,2025-07-23_12h13.20.976,HideSeek_v1,2022.2.5,59.96242749417547,
,9,2,6,2,-3,0,31,,train_dim1_1,21,30,,,,2,0,2,0,,,,,,,,,0,0,0,0,0,20,20,20,2,0,2,0,,,,,,,,,,,,,,,,,,,,,,,,,,,,,,,,,,,,,,,,,,,,,,,,,,,,,,,,,,,,,,,,30,,,,,,,,3389.7503718999214,3389.7503718999214,3389.7503718999214,3389.7503718999214,3389.7503718999214,left,0.940940799890086,16,0,0,99,0.32,-0.24,left,0.8558660000562668,,,,,,,,,,,,,,,,,,,,,,,,,,,,,,,,,,,,,,,,,,,,,,,,,,,,,,,,,,,,L2GMRN,train_x,blue_star,bottom_right,2025-07-23_12h13.20.976,HideSeek_v1,2022.2.5,59.96242749417547,
,9,2,6,2,-3,0,31,,train_dim1_1,21,30,,,,2,0,2,0,,,,,,,,,0,0,0,0,0,20,20,20,3,0,3,0,,,,,,,,,,,,,,,,,,,,,,,,,,,,,,,,,,,,,,,,,,,,,,,,,,,,,,,,,,,,,,,,30,,,,,,,,3390.69743150007,3390.69743150007,3390.69743150007,3390.69743150007,3390.69743150007,left,2.8950205999426544,16,0,0,99,0.24,-0.24,left,2.818571399897337,,,,,,,,,,,,,,,,,,,,,,,,,,,,,,,,,,,,,,,,,,,,,,,,,,,,,,,,,,,,L2GMRN,train_x,blue_star,bottom_right,2025-07-23_12h13.20.976,HideSeek_v1,2022.2.5,59.96242749417547,
,9,2,6,2,-3,0,31,,train_dim1_1,21,30,,,,2,0,2,0,,,,,,,,,0,0,0,0,0,20,20,20,4,0,4,0,,,,,,,,,,,,,,,,,,,,,,,,,,,,,,,,,,,,,,,,,,,,,,,,,,,,,,,,,,,,,,,,30,,,,,,,,3393.604084199993,3393.604084199993,3393.604084199993,3393.604084199993,3393.604084199993,return,0.12575990008190274,16,1,0,0,0.24,-0.24,return,0.046372899785637856,2,-51,0.24,-0.24,,,,,,,,,,,,,,,,,,,,,,,,,,,,,,,,,,,,,,,,,,,,,,,,,,,,,,,,L2GMRN,train_x,blue_star,bottom_right,2025-07-23_12h13.20.976,HideSeek_v1,2022.2.5,59.96242749417547,
,6,0,2,0,-4,0,21,,train_dim1_1,22,30,,,,2,0,2,0,,,,,,,,,0,0,0,0,0,21,21,21,0,0,0,0,,,,,,,,,,,,,,,,,,,,,,,,,stimuli/alien_stimuli/21.png,,,,,,,,,,,,,,,,,,,,,,,,,,,,,stimuli/alien_stimuli/31.png,31,9,23,,,,,,,30,,,,,,,,3399.2033309999388,3399.2033309999388,3399.2033309999388,3399.2033309999388,3399.2033309999388,left,1.5557850999757648,16,1,0,99,0.24,-0.4,left,1.4426482999697328,,,,,3397.6218892000616,3399.2033309999388,0.32,-0.24,0.0,0.24,-0.24,0.32,0.44000000000000006,0.32,-0.24,3395.2926153999288,3395.2926153999288,3395.2926153999288,3395.2926153999288,3395.2926153999288,3395.2926153999288,3395.2926153999288,3395.2926153999288,3395.2697336600163,2.4379231000784785,return,2.311869699973613,,,,,,,,,,,,,,,,,,,,,,,,,,,,,,,,,L2GMRN,train_x,blue_star,bottom_right,2025-07-23_12h13.20.976,HideSeek_v1,2022.2.5,59.96242749417547,
,6,0,2,0,-4,0,21,,train_dim1_1,22,30,,,,2,0,2,0,,,,,,,,,0,0,0,0,0,21,21,21,1,0,1,0,,,,,,,,,,,,,,,,,,,,,,,,,,,,,,,,,,,,,,,,,,,,,,,,,,,,,,,,,,,,,,,,30,,,,,,,,3400.745853499975,3400.745853499975,3400.745853499975,3400.745853499975,3400.745853499975,left,0.49299339996650815,16,1,0,99,0.15999999999999998,-0.4,left,0.40041229990310967,,,,,,,,,,,,,,,,,,,,,,,,,,,,,,,,,,,,,,,,,,,,,,,,,,,,,,,,,,,,L2GMRN,train_x,blue_star,bottom_right,2025-07-23_12h13.20.976,HideSeek_v1,2022.2.5,59.96242749417547,
,6,0,2,0,-4,0,21,,train_dim1_1,22,30,,,,2,0,2,0,,,,,,,,,0,0,0,0,0,21,21,21,2,0,2,0,,,,,,,,,,,,,,,,,,,,,,,,,,,,,,,,,,,,,,,,,,,,,,,,,,,,,,,,,,,,,,,,30,,,,,,,,3401.2433670999017,3401.2433670999017,3401.2433670999017,3401.2433670999017,3401.2433670999017,left,0.5101753999479115,16,1,0,99,0.07999999999999997,-0.4,left,0.4169699000194669,,,,,,,,,,,,,,,,,,,,,,,,,,,,,,,,,,,,,,,,,,,,,,,,,,,,,,,,,,,,L2GMRN,train_x,blue_star,bottom_right,2025-07-23_12h13.20.976,HideSeek_v1,2022.2.5,59.96242749417547,
,6,0,2,0,-4,0,21,,train_dim1_1,22,30,,,,2,0,2,0,,,,,,,,,0,0,0,0,0,21,21,21,3,0,3,0,,,,,,,,,,,,,,,,,,,,,,,,,,,,,,,,,,,,,,,,,,,,,,,,,,,,,,,,,,,,,,,,30,,,,,,,,3401.7598421000876,3401.7598421000876,3401.7598421000876,3401.7598421000876,3401.7598421000876,left,1.2439627998974174,16,1,0,99,-2.7755575615628914e-17,-0.4,left,1.1616859997157007,,,,,,,,,,,,,,,,,,,,,,,,,,,,,,,,,,,,,,,,,,,,,,,,,,,,,,,,,,,,L2GMRN,train_x,blue_star,bottom_right,2025-07-23_12h13.20.976,HideSeek_v1,2022.2.5,59.96242749417547,
,6,0,2,0,-4,0,21,,train_dim1_1,22,30,,,,2,0,2,0,,,,,,,,,0,0,0,0,0,21,21,21,4,0,4,0,,,,,,,,,,,,,,,,,,,,,,,,,,,,,,,,,,,,,,,,,,,,,,,,,,,,,,,,,,,,,,,,30,,,,,,,,3403.01419840008,3403.01419840008,3403.01419840008,3403.01419840008,3403.01419840008,return,0.42414899985305965,17,0,0,1,-2.7755575615628914e-17,-0.4,return,0.339281199965626,2,-55,-2.7755575615628914e-17,-0.4,,,,,,,,,,,,,,,,,,,,,,,,,,,,,,,,,,,,,,,,,,,,,,,,,,,,,,,,L2GMRN,train_x,blue_star,bottom_right,2025-07-23_12h13.20.976,HideSeek_v1,2022.2.5,59.96242749417547,
,7,1,7,1,0,0,61,,train_dim1_1,23,30,,,,2,0,2,0,,,,,,,,,0,0,0,0,0,22,22,22,0,0,0,0,,,,,,,,,,,,,,,,,,,,,,,,,stimuli/alien_stimuli/61.png,,,,,,,,,,,,,,,,,,,,,,,,,,,,,stimuli/alien_stimuli/21.png,21,6,24,,,,,,,30,,,,,,,,3407.6411359000485,3407.6411359000485,3407.6411359000485,3407.6411359000485,3407.6411359000485,left,1.071254399837926,17,0,0,99,0.32,-0.32,left,0.9607785998377949,,,,,3406.06226720009,3407.6411359000485,0,-0.4,0.0,0.32,-0.4,0,0.16,0,-0.4,3405.0089767999016,3405.0089767999016,3405.0089767999016,3405.0089767999016,3405.0089767999016,3405.0089767999016,3405.0089767999016,3405.0089767999016,3404.9944944200806,1.1699889001902193,return,1.0237235997337848,,,,,,,,,,,,,,,,,,,,,,,,,,,,,,,,,L2GMRN,train_x,blue_star,bottom_right,2025-07-23_12h13.20.976,HideSeek_v1,2022.2.5,59.96242749417547,
,7,1,7,1,0,0,61,,train_dim1_1,23,30,,,,2,0,2,0,,,,,,,,,0,0,0,0,0,22,22,22,1,0,1,0,,,,,,,,,,,,,,,,,,,,,,,,,,,,,,,,,,,,,,,,,,,,,,,,,,,,,,,,,,,,,,,,30,,,,,,,,3408.696011299966,3408.696011299966,3408.696011299966,3408.696011299966,3408.696011299966,right,0.4090702999383211,17,0,0,99,0.4,-0.32,right,0.32621879992075264,,,,,,,,,,,,,,,,,,,,,,,,,,,,,,,,,,,,,,,,,,,,,,,,,,,,,,,,,,,,L2GMRN,train_x,blue_star,bottom_right,2025-07-23_12h13.20.976,HideSeek_v1,2022.2.5,59.96242749417547,
,7,1,7,1,0,0,61,,train_dim1_1,23,30,,,,2,0,2,0,,,,,,,,,0,0,0,0,0,22,22,22,2,0,2,0,,,,,,,,,,,,,,,,,,,,,,,,,,,,,,,,,,,,,,,,,,,,,,,,,,,,,,,,,,,,,,,,30,,,,,,,,3409.1127007000614,3409.1127007000614,3409.1127007000614,3409.1127007000614,3409.1127007000614,return,1.694627400022,18,0,0,1,0.4,-0.32,return,1.611317299772054,2,-55,0.4,-0.32,,,,,,,,,,,,,,,,,,,,,,,,,,,,,,,,,,,,,,,,,,,,,,,,,,,,,,,,L2GMRN,train_x,blue_star,bottom_right,2025-07-23_12h13.20.976,HideSeek_v1,2022.2.5,59.96242749417547,
,9,4,8,4,-1,0,51,,train_dim1_1,24,30,,,,2,0,2,0,,,,,,,,,0,0,0,0,0,23,23,23,0,0,0,0,,,,,,,,,,,,,,,,,,,,,,,,,stimuli/alien_stimuli/51.png,,,,,,,,,,,,,,,,,,,,,,,,,,,,,stimuli/alien_stimuli/61.png,61,7,25,,,,,,,30,,,,,,,,3414.6491046000738,3414.6491046000738,3414.6491046000738,3414.6491046000738,3414.6491046000738,left,0.7203639000654221,18,0,0,99,0.48000000000000004,-0.08,left,0.6331701998133212,,,,,3413.084637900116,3414.6491046000738,0.4,-0.32,0.0,0.0,-0.32,0.4,0.4,0.4,-0.32,3412.370508800028,3412.370508800028,3412.370508800028,3412.370508800028,3412.370508800028,3412.370508800028,3412.370508800028,3412.370508800028,3412.3508796599695,0.8190254999790341,return,0.6827994999475777,,,,,,,,,,,,,,,,,,,,,,,,,,,,,,,,,L2GMRN,train_x,blue_star,bottom_right,2025-07-23_12h13.20.976,HideSeek_v1,2022.2.5,59.96242749417547,
,9,4,8,4,-1,0,51,,train_dim1_1,24,30,,,,2,0,2,0,,,,,,,,,0,0,0,0,0,23,23,23,1,0,1,0,,,,,,,,,,,,,,,,,,,,,,,,,,,,,,,,,,,,,,,,,,,,,,,,,,,,,,,,,,,,,,,,30,,,,,,,,3415.370367600117,3415.370367600117,3415.370367600117,3415.370367600117,3415.370367600117,return,0.6932856999337673,19,0,0,1,0.48000000000000004,-0.08,return,0.6124980999156833,2,-56,0.48000000000000004,-0.08,,,,,,,,,,,,,,,,,,,,,,,,,,,,,,,,,,,,,,,,,,,,,,,,,,,,,,,,L2GMRN,train_x,blue_star,bottom_right,2025-07-23_12h13.20.976,HideSeek_v1,2022.2.5,59.96242749417547,
,8,0,3,0,-5,0,11,,train_dim1_1,25,30,,,,2,0,2,0,,,,,,,,,0,0,0,0,0,24,24,24,0,0,0,0,,,,,,,,,,,,,,,,,,,,,,,,,stimuli/alien_stimuli/11.png,,,,,,,,,,,,,,,,,,,,,,,,,,,,,stimuli/alien_stimuli/51.png,51,9,26,,,,,,,30,,,,,,,,3420.019866599934,3420.019866599934,3420.019866599934,3420.019866599934,3420.019866599934,left,1.2378231999464333,19,0,0,99,0.39999999999999997,-0.4,left,1.1513101998716593,,,,,3418.4560167000163,3420.019866599934,0.48,-0.08,0.0,0.08,-0.08,0.48,0.52,0.48,-0.08,3417.633883100003,3417.633883100003,3417.633883100003,3417.633883100003,3417.633883100003,3417.633883100003,3417.633883100003,3417.633883100003,3417.6217818200357,0.9360183000098914,return,0.7940193999093026,,,,,,,,,,,,,,,,,,,,,,,,,,,,,,,,,L2GMRN,train_x,blue_star,bottom_right,2025-07-23_12h13.20.976,HideSeek_v1,2022.2.5,59.96242749417547,
,8,0,3,0,-5,0,11,,train_dim1_1,25,30,,,,2,0,2,0,,,,,,,,,0,0,0,0,0,24,24,24,1,0,1,0,,,,,,,,,,,,,,,,,,,,,,,,,,,,,,,,,,,,,,,,,,,,,,,,,,,,,,,,,,,,,,,,30,,,,,,,,3421.2595558001194,3421.2595558001194,3421.2595558001194,3421.2595558001194,3421.2595558001194,left,0.4766769998241216,19,0,0,99,0.31999999999999995,-0.4,left,0.38844239991158247,,,,,,,,,,,,,,,,,,,,,,,,,,,,,,,,,,,,,,,,,,,,,,,,,,,,,,,,,,,,L2GMRN,train_x,blue_star,bottom_right,2025-07-23_12h13.20.976,HideSeek_v1,2022.2.5,59.96242749417547,
,8,0,3,0,-5,0,11,,train_dim1_1,25,30,,,,2,0,2,0,,,,,,,,,0,0,0,0,0,24,24,24,2,0,2,0,,,,,,,,,,,,,,,,,,,,,,,,,,,,,,,,,,,,,,,,,,,,,,,,,,,,,,,,,,,,,,,,30,,,,,,,,3421.7435709000565,3421.7435709000565,3421.7435709000565,3421.7435709000565,3421.7435709000565,left,0.509929500054568,19,0,0,99,0.23999999999999994,-0.4,left,0.42061150004155934,,,,,,,,,,,,,,,,,,,,,,,,,,,,,,,,,,,,,,,,,,,,,,,,,,,,,,,,,,,,L2GMRN,train_x,blue_star,bottom_right,2025-07-23_12h13.20.976,HideSeek_v1,2022.2.5,59.96242749417547,
,8,0,3,0,-5,0,11,,train_dim1_1,25,30,,,,2,0,2,0,,,,,,,,,0,0,0,0,0,24,24,24,3,0,3,0,,,,,,,,,,,,,,,,,,,,,,,,,,,,,,,,,,,,,,,,,,,,,,,,,,,,,,,,,,,,,,,,30,,,,,,,,3422.2600499999244,3422.2600499999244,3422.2600499999244,3422.2600499999244,3422.2600499999244,left,0.593757800059393,19,0,0,99,0.15999999999999992,-0.4,left,0.5027159999590367,,,,,,,,,,,,,,,,,,,,,,,,,,,,,,,,,,,,,,,,,,,,,,,,,,,,,,,,,,,,L2GMRN,train_x,blue_star,bottom_right,2025-07-23_12h13.20.976,HideSeek_v1,2022.2.5,59.96242749417547,
,8,0,3,0,-5,0,11,,train_dim1_1,25,30,,,,2,0,2,0,,,,,,,,,0,0,0,0,0,24,24,24,4,0,4,0,,,,,,,,,,,,,,,,,,,,,,,,,,,,,,,,,,,,,,,,,,,,,,,,,,,,,,,,,,,,,,,,30,,,,,,,,3422.860761200078,3422.860761200078,3422.860761200078,3422.860761200078,3422.860761200078,left,0.5763989998959005,19,0,0,99,0.07999999999999992,-0.4,left,0.4948339997790754,,,,,,,,,,,,,,,,,,,,,,,,,,,,,,,,,,,,,,,,,,,,,,,,,,,,,,,,,,,,L2GMRN,train_x,blue_star,bottom_right,2025-07-23_12h13.20.976,HideSeek_v1,2022.2.5,59.96242749417547,
,8,0,3,0,-5,0,11,,train_dim1_1,25,30,,,,2,0,2,0,,,,,,,,,0,0,0,0,0,24,24,24,5,0,5,0,,,,,,,,,,,,,,,,,,,,,,,,,,,,,,,,,,,,,,,,,,,,,,,,,,,,,,,,,,,,,,,,30,,,,,,,,3423.4448088000063,3423.4448088000063,3423.4448088000063,3423.4448088000063,3423.4448088000063,return,0.5102158000227064,20,0,0,1,0.07999999999999992,-0.4,return,0.43254689988680184,2,-61,0.07999999999999992,-0.4,,,,,,,,,,,,,,,,,,,,,,,,,,,,,,,,,,,,,,,,,,,,,,,,,,,,,,,,L2GMRN,train_x,blue_star,bottom_right,2025-07-23_12h13.20.976,HideSeek_v1,2022.2.5,59.96242749417547,
,6,1,6,1,0,0,61,,train_dim1_1,26,30,,,,2,0,2,0,,,,,,,,,0,0,0,0,0,25,25,25,0,0,0,0,,,,,,,,,,,,,,,,,,,,,,,,,stimuli/alien_stimuli/61.png,,,,,,,,,,,,,,,,,,,,,,,,,,,,,stimuli/alien_stimuli/11.png,11,8,27,,,,,,,30,,,,,,,,3428.0473511999007,3428.0473511999007,3428.0473511999007,3428.0473511999007,3428.0473511999007,left,1.3399868998676538,20,0,0,99,0.24,-0.32,left,1.2345021998044103,,,,,3426.4628220000304,3428.0473511999007,0.08,-0.4,0.0,0.4,-0.4,0.08,0.27999999999999997,0.08,-0.4,3425.526564900065,3425.526564900065,3425.526564900065,3425.526564900065,3425.526564900065,3425.526564900065,3425.526564900065,3425.526564900065,3425.511644420051,1.0529247999656945,return,0.9135258998721838,,,,,,,,,,,,,,,,,,,,,,,,,,,,,,,,,L2GMRN,train_x,blue_star,bottom_right,2025-07-23_12h13.20.976,HideSeek_v1,2022.2.5,59.96242749417547,
,6,1,6,1,0,0,61,,train_dim1_1,26,30,,,,2,0,2,0,,,,,,,,,0,0,0,0,0,25,25,25,1,0,1,0,,,,,,,,,,,,,,,,,,,,,,,,,,,,,,,,,,,,,,,,,,,,,,,,,,,,,,,,,,,,,,,,30,,,,,,,,3429.3626200999133,3429.3626200999133,3429.3626200999133,3429.3626200999133,3429.3626200999133,right,0.35900980001315475,20,0,0,99,0.32,-0.32,right,0.2754206999670714,,,,,,,,,,,,,,,,,,,,,,,,,,,,,,,,,,,,,,,,,,,,,,,,,,,,,,,,,,,,L2GMRN,train_x,blue_star,bottom_right,2025-07-23_12h13.20.976,HideSeek_v1,2022.2.5,59.96242749417547,
,6,1,6,1,0,0,61,,train_dim1_1,26,30,,,,2,0,2,0,,,,,,,,,0,0,0,0,0,25,25,25,2,0,2,0,,,,,,,,,,,,,,,,,,,,,,,,,,,,,,,,,,,,,,,,,,,,,,,,,,,,,,,,,,,,,,,,30,,,,,,,,3429.7323648999445,3429.7323648999445,3429.7323648999445,3429.7323648999445,3429.7323648999445,return,0.5762061001732945,21,0,0,1,0.32,-0.32,return,0.4973928998224437,2,-61,0.32,-0.32,,,,,,,,,,,,,,,,,,,,,,,,,,,,,,,,,,,,,,,,,,,,,,,,,,,,,,,,L2GMRN,train_x,blue_star,bottom_right,2025-07-23_12h13.20.976,HideSeek_v1,2022.2.5,59.96242749417547,
,5,1,2,1,-3,0,31,,train_dim1_1,27,30,,,,2,0,2,0,,,,,,,,,0,0,0,0,0,26,26,26,0,0,0,0,,,,,,,,,,,,,,,,,,,,,,,,,stimuli/alien_stimuli/31.png,,,,,,,,,,,,,,,,,,,,,,,,,,,,,stimuli/alien_stimuli/61.png,61,6,28,,,,,,,30,,,,,,,,3434.228963200003,3434.228963200003,3434.228963200003,3434.228963200003,3434.228963200003,left,1.4049992999061942,21,0,0,99,0.15999999999999998,-0.32,left,1.3260107999667525,,,,,3432.667650300078,3434.228963200003,0.32,-0.32,0.0,0.0,-0.32,0.32,0.32,0.32,-0.32,3431.869596600067,3431.869596600067,3431.869596600067,3431.869596600067,3431.869596600067,3431.869596600067,3431.869596600067,3431.869596600067,3431.8501922600904,0.9027114000637084,return,0.7716977999079973,,,,,,,,,,,,,,,,,,,,,,,,,,,,,,,,,L2GMRN,train_x,blue_star,bottom_right,2025-07-23_12h13.20.976,HideSeek_v1,2022.2.5,59.96242749417547,
,5,1,2,1,-3,0,31,,train_dim1_1,27,30,,,,2,0,2,0,,,,,,,,,0,0,0,0,0,26,26,26,1,0,1,0,,,,,,,,,,,,,,,,,,,,,,,,,,,,,,,,,,,,,,,,,,,,,,,,,,,,,,,,,,,,,,,,30,,,,,,,,3435.6416124999523,3435.6416124999523,3435.6416124999523,3435.6416124999523,3435.6416124999523,left,0.4710389000829309,21,0,0,99,0.07999999999999997,-0.32,left,0.3894770999904722,,,,,,,,,,,,,,,,,,,,,,,,,,,,,,,,,,,,,,,,,,,,,,,,,,,,,,,,,,,,L2GMRN,train_x,blue_star,bottom_right,2025-07-23_12h13.20.976,HideSeek_v1,2022.2.5,59.96242749417547,
,5,1,2,1,-3,0,31,,train_dim1_1,27,30,,,,2,0,2,0,,,,,,,,,0,0,0,0,0,26,26,26,2,0,2,0,,,,,,,,,,,,,,,,,,,,,,,,,,,,,,,,,,,,,,,,,,,,,,,,,,,,,,,,,,,,,,,,30,,,,,,,,3436.1185300999787,3436.1185300999787,3436.1185300999787,3436.1185300999787,3436.1185300999787,left,0.44277750002220273,21,0,0,99,-2.7755575615628914e-17,-0.32,left,0.3543610000051558,,,,,,,,,,,,,,,,,,,,,,,,,,,,,,,,,,,,,,,,,,,,,,,,,,,,,,,,,,,,L2GMRN,train_x,blue_star,bottom_right,2025-07-23_12h13.20.976,HideSeek_v1,2022.2.5,59.96242749417547,
,5,1,2,1,-3,0,31,,train_dim1_1,27,30,,,,2,0,2,0,,,,,,,,,0,0,0,0,0,26,26,26,3,0,3,0,,,,,,,,,,,,,,,,,,,,,,,,,,,,,,,,,,,,,,,,,,,,,,,,,,,,,,,,,,,,,,,,30,,,,,,,,3436.568184300093,3436.568184300093,3436.568184300093,3436.568184300093,3436.568184300093,return,0.4270516000688076,22,0,0,1,-2.7755575615628914e-17,-0.32,return,0.3527624998241663,2,-64,-2.7755575615628914e-17,-0.32,,,,,,,,,,,,,,,,,,,,,,,,,,,,,,,,,,,,,,,,,,,,,,,,,,,,,,,,L2GMRN,train_x,blue_star,bottom_right,2025-07-23_12h13.20.976,HideSeek_v1,2022.2.5,59.96242749417547,
,8,1,4,1,-4,0,21,,train_dim1_1,28,30,,,,2,0,2,0,,,,,,,,,0,0,0,0,0,27,27,27,0,0,0,0,,,,,,,,,,,,,,,,,,,,,,,,,stimuli/alien_stimuli/21.png,,,,,,,,,,,,,,,,,,,,,,,,,,,,,stimuli/alien_stimuli/31.png,31,5,29,,,,,,,30,,,,,,,,3440.7981304998975,3440.7981304998975,3440.7981304998975,3440.7981304998975,3440.7981304998975,left,2.5051466999575496,22,0,0,99,0.39999999999999997,-0.32,left,2.4011035000439733,,,,,3439.223500800086,3440.7981304998975,0,-0.32,0.0,0.24,-0.32,0,0.12,0,-0.32,3438.5600211001,3438.5600211001,3438.5600211001,3438.5600211001,3438.5600211001,3438.5600211001,3438.5600211001,3438.5600211001,3438.5393354600296,0.7692886998411268,return,0.6363419997505844,,,,,,,,,,,,,,,,,,,,,,,,,,,,,,,,,L2GMRN,train_x,blue_star,bottom_right,2025-07-23_12h13.20.976,HideSeek_v1,2022.2.5,59.96242749417547,
,8,1,4,1,-4,0,21,,train_dim1_1,28,30,,,,2,0,2,0,,,,,,,,,0,0,0,0,0,27,27,27,1,0,1,0,,,,,,,,,,,,,,,,,,,,,,,,,,,,,,,,,,,,,,,,,,,,,,,,,,,,,,,,,,,,,,,,30,,,,,,,,3443.2953759999946,3443.2953759999946,3443.2953759999946,3443.2953759999946,3443.2953759999946,left,0.5431731999851763,22,0,0,99,0.31999999999999995,-0.32,left,0.4547213998157531,,,,,,,,,,,,,,,,,,,,,,,,,,,,,,,,,,,,,,,,,,,,,,,,,,,,,,,,,,,,L2GMRN,train_x,blue_star,bottom_right,2025-07-23_12h13.20.976,HideSeek_v1,2022.2.5,59.96242749417547,
,8,1,4,1,-4,0,21,,train_dim1_1,28,30,,,,2,0,2,0,,,,,,,,,0,0,0,0,0,27,27,27,2,0,2,0,,,,,,,,,,,,,,,,,,,,,,,,,,,,,,,,,,,,,,,,,,,,,,,,,,,,,,,,,,,,,,,,30,,,,,,,,3443.846266800072,3443.846266800072,3443.846266800072,3443.846266800072,3443.846266800072,left,0.5932947001419961,22,0,0,99,0.23999999999999994,-0.32,left,0.5049511999823153,,,,,,,,,,,,,,,,,,,,,,,,,,,,,,,,,,,,,,,,,,,,,,,,,,,,,,,,,,,,L2GMRN,train_x,blue_star,bottom_right,2025-07-23_12h13.20.976,HideSeek_v1,2022.2.5,59.96242749417547,
,8,1,4,1,-4,0,21,,train_dim1_1,28,30,,,,2,0,2,0,,,,,,,,,0,0,0,0,0,27,27,27,3,0,3,0,,,,,,,,,,,,,,,,,,,,,,,,,,,,,,,,,,,,,,,,,,,,,,,,,,,,,,,,,,,,,,,,30,,,,,,,,3444.44579909998,3444.44579909998,3444.44579909998,3444.44579909998,3444.44579909998,left,0.54319590004161,22,0,0,99,0.15999999999999992,-0.32,left,0.4532597998622805,,,,,,,,,,,,,,,,,,,,,,,,,,,,,,,,,,,,,,,,,,,,,,,,,,,,,,,,,,,,L2GMRN,train_x,blue_star,bottom_right,2025-07-23_12h13.20.976,HideSeek_v1,2022.2.5,59.96242749417547,
,8,1,4,1,-4,0,21,,train_dim1_1,28,30,,,,2,0,2,0,,,,,,,,,0,0,0,0,0,27,27,27,4,0,4,0,,,,,,,,,,,,,,,,,,,,,,,,,,,,,,,,,,,,,,,,,,,,,,,,,,,,,,,,,,,,,,,,30,,,,,,,,3444.998328600079,3444.998328600079,3444.998328600079,3444.998328600079,3444.998328600079,return,0.6432463999371976,23,0,0,1,0.15999999999999992,-0.32,return,0.5552873997949064,2,-68,0.15999999999999992,-0.32,,,,,,,,,,,,,,,,,,,,,,,,,,,,,,,,,,,,,,,,,,,,,,,,,,,,,,,,L2GMRN,train_x,blue_star,bottom_right,2025-07-23_12h13.20.976,HideSeek_v1,2022.2.5,59.96242749417547,
,9,0,8,0,-1,0,51,,train_dim1_1,29,30,,,,2,0,2,0,,,,,,,,,0,0,0,0,0,28,28,28,0,0,0,0,,,,,,,,,,,,,,,,,,,,,,,,,stimuli/alien_stimuli/51.png,,,,,,,,,,,,,,,,,,,,,,,,,,,,,stimuli/alien_stimuli/21.png,21,8,30,,,,,,,30,,,,,,,,3449.494494300103,3449.494494300103,3449.494494300103,3449.494494300103,3449.494494300103,left,0.871147199999541,23,0,0,99,0.48000000000000004,-0.4,left,0.7626581997610629,,,,,3447.913637999911,3449.494494300103,0.16,-0.32,0.0,0.32,-0.32,0.16,0.32,0.16,-0.32,3447.20993979997,3447.20993979997,3447.20993979997,3447.20993979997,3447.20993979997,3447.20993979997,3447.20993979997,3447.20993979997,3447.1963156199317,0.8192586000077426,return,0.6798618000466377,,,,,,,,,,,,,,,,,,,,,,,,,,,,,,,,,L2GMRN,train_x,blue_star,bottom_right,2025-07-23_12h13.20.976,HideSeek_v1,2022.2.5,59.96242749417547,
,9,0,8,0,-1,0,51,,train_dim1_1,29,30,,,,2,0,2,0,,,,,,,,,0,0,0,0,0,28,28,28,1,0,1,0,,,,,,,,,,,,,,,,,,,,,,,,,,,,,,,,,,,,,,,,,,,,,,,,,,,,,,,,,,,,,,,,30,,,,,,,,3450.3494396999013,3450.3494396999013,3450.3494396999013,3450.3494396999013,3450.3494396999013,return,0.6098685001488775,24,0,0,1,0.48000000000000004,-0.4,return,0.5341401000041515,2,-69,0.48000000000000004,-0.4,,,,,,,,,,,,,,,,,,,,,,,,,,,,,,,,,,,,,,,,,,,,,,,,,,,,,,,,L2GMRN,train_x,blue_star,bottom_right,2025-07-23_12h13.20.976,HideSeek_v1,2022.2.5,59.96242749417547,
,7,2,2,2,-5,0,11,,train_dim1_1,30,30,,,,2,0,2,0,,,,,,,,,0,0,0,0,0,29,29,29,0,0,0,0,,,,,,,,,,,,,,,,,,,,,,,,,stimuli/alien_stimuli/11.png,,,,,,,,,,,,,,,,,,,,,,,,,,,,,stimuli/alien_stimuli/51.png,51,9,31,,,,,,,30,,,,,,,,3454.7802536999807,3454.7802536999807,3454.7802536999807,3454.7802536999807,3454.7802536999807,left,0.9893708000890911,24,0,0,99,0.32,-0.24,left,0.9061159000266343,,,,,3453.218450000044,3454.7802536999807,0.48,-0.4,0.0,0.08,-0.4,0.48,0.52,0.48,-0.4,3452.532266800059,3452.532266800059,3452.532266800059,3452.532266800059,3452.532266800059,3452.532266800059,3452.532266800059,3452.532266800059,3452.5174562200673,0.8033581001218408,return,0.6655347999185324,,,,,,,,,,,,,,,,,,,,,,,,,,,,,,,,,L2GMRN,train_x,blue_star,bottom_right,2025-07-23_12h13.20.976,HideSeek_v1,2022.2.5,59.96242749417547,
,7,2,2,2,-5,0,11,,train_dim1_1,30,30,,,,2,0,2,0,,,,,,,,,0,0,0,0,0,29,29,29,1,0,1,0,,,,,,,,,,,,,,,,,,,,,,,,,,,,,,,,,,,,,,,,,,,,,,,,,,,,,,,,,,,,,,,,30,,,,,,,,3455.7724149001297,3455.7724149001297,3455.7724149001297,3455.7724149001297,3455.7724149001297,left,0.49252340011298656,24,0,0,99,0.24,-0.24,left,0.4049435998313129,,,,,,,,,,,,,,,,,,,,,,,,,,,,,,,,,,,,,,,,,,,,,,,,,,,,,,,,,,,,L2GMRN,train_x,blue_star,bottom_right,2025-07-23_12h13.20.976,HideSeek_v1,2022.2.5,59.96242749417547,
,7,2,2,2,-5,0,11,,train_dim1_1,30,30,,,,2,0,2,0,,,,,,,,,0,0,0,0,0,29,29,29,2,0,2,0,,,,,,,,,,,,,,,,,,,,,,,,,,,,,,,,,,,,,,,,,,,,,,,,,,,,,,,,,,,,,,,,30,,,,,,,,3456.282509499928,3456.282509499928,3456.282509499928,3456.282509499928,3456.282509499928,left,0.49303349992260337,24,0,0,99,0.15999999999999998,-0.24,left,0.40112449997104704,,,,,,,,,,,,,,,,,,,,,,,,,,,,,,,,,,,,,,,,,,,,,,,,,,,,,,,,,,,,L2GMRN,train_x,blue_star,bottom_right,2025-07-23_12h13.20.976,HideSeek_v1,2022.2.5,59.96242749417547,
,7,2,2,2,-5,0,11,,train_dim1_1,30,30,,,,2,0,2,0,,,,,,,,,0,0,0,0,0,29,29,29,3,0,3,0,,,,,,,,,,,,,,,,,,,,,,,,,,,,,,,,,,,,,,,,,,,,,,,,,,,,,,,,,,,,,,,,30,,,,,,,,3456.7724524999503,3456.7724524999503,3456.7724524999503,3456.7724524999503,3456.7724524999503,left,0.6434631000738591,24,0,0,99,0.07999999999999997,-0.24,left,0.5666576998773962,,,,,,,,,,,,,,,,,,,,,,,,,,,,,,,,,,,,,,,,,,,,,,,,,,,,,,,,,,,,L2GMRN,train_x,blue_star,bottom_right,2025-07-23_12h13.20.976,HideSeek_v1,2022.2.5,59.96242749417547,
,7,2,2,2,-5,0,11,,train_dim1_1,30,30,,,,2,0,2,0,,,,,,,,,0,0,0,0,0,29,29,29,4,0,4,0,,,,,,,,,,,,,,,,,,,,,,,,,,,,,,,,,,,,,,,,,,,,,,,,,,,,,,,,,,,,,,,,30,,,,,,,,3457.4221795001067,3457.4221795001067,3457.4221795001067,3457.4221795001067,3457.4221795001067,left,0.7936507000122219,24,0,0,99,-2.7755575615628914e-17,-0.24,left,0.7116604999173433,,,,,,,,,,,,,,,,,,,,,,,,,,,,,,,,,,,,,,,,,,,,,,,,,,,,,,,,,,,,L2GMRN,train_x,blue_star,bottom_right,2025-07-23_12h13.20.976,HideSeek_v1,2022.2.5,59.96242749417547,
,7,2,2,2,-5,0,11,,train_dim1_1,30,30,,,,2,0,2,0,,,,,,,,,0,0,0,0,0,29,29,29,5,0,5,0,,,,,,,,,,,,,,,,,,,,,,,,,,,,,,,,,,,,,,,,,,,,,,,,,,,,,,,,,,,,,,,,30,,,,,,,,3458.2244563000277,3458.2244563000277,3458.2244563000277,3458.2244563000277,3458.2244563000277,return,0.426551999989897,25,0,0,1,-2.7755575615628914e-17,-0.24,return,0.34895960008725524,2,-74,-2.7755575615628914e-17,-0.24,,,,,,,,,,,,,,,,,,,,,,,,,,,,,,,,,,,,,,,,,,,,,,,,,,,,,,,,L2GMRN,train_x,blue_star,bottom_right,2025-07-23_12h13.20.976,HideSeek_v1,2022.2.5,59.96242749417547,
,,,,,,,,,,,30,,,,2,0,2,0,,,,,,,,,,,,,,,,,,,,,,,,,,,,,,,,,,,,,,,,,,,,,,,,,,,,,,,,,,,,,,,,,,,,,,,,,,stimuli/alien_stimuli/11.png,11,7,32,21,0.7,1.0416666666666667,1,1,1,30,0,conditions/schedules/train_x_first/blue_star_00/bottom_right/inputTrain_2.1.xlsx,99,1,2,1,0,,,,,,,,,,,1,,,,,,,,,3461.1581127000973,3462.6991445999593,0,-0.24,0.0,0.4,-0.24,0,0.2,0,-0.24,3460.220184399979,3460.220184399979,3460.220184399979,3460.220184399979,3460.220184399979,3460.220184399979,3460.220184399979,3460.220184399979,3460.207201419934,1.0532236001454294,return,0.914899799739942,0,0.9,0,1,25,,,,,,,,,,,,,,,,,,,,,,,,,,,,L2GMRN,train_x,blue_star,bottom_right,2025-07-23_12h13.20.976,HideSeek_v1,2022.2.5,59.96242749417547,
,,,,,,,,,,,,,,,3,0,3,0,0,0,0,0,,,,,,,,,,,,,,,,,,,,,,,,,,,,,,,conditions/schedules/train_x_first/blue_star_00/bottom_right/instructions/Slide17.png,conditions/schedules/train_x_first/blue_star_00/bottom_right/instructions/Audio17.wav,3462.6991445999593,3462.692586179986,17,"[7.162690300028771, 18.48325930000283, 16.60910279978998, 19.452225300017744, 4.780659599928185, 5.519719700096175, 6.070500200148672, 11.940180799923837, 6.384869699832052, 7.7154734001960605, 10.320742500014603, 13.076083600055426, 18.07760290009901, 12.87306459993124, 30.58545080013573, 21.6574051999487, 51.46753759984858]","[0.034528200048953295, 0.08026319998316467, 0.13575950008817017, 0.06288959993980825, 0.04838110017590225, 0.06630100007168949, 0.06532399985007942, 0.06343579990789294, 0.04751820000819862, 0.07978329993784428, 0.08160370006226003, 13.076090200105682, 0.0470079998485744, 12.87307079997845, 0.03572549996897578, 21.657411700114608, 51.46754479990341]",0,,,,,,,,,,,,,,,,,,,,,,,,,,,,,,,,,,,,,,,,,,,,,,,,,,,,,,,,,,,,,,,,,,,,,,,,,,,,,,,,,,,,,,,,,,,,,,,,,,,,,,,,,,,,,,,,,,,,,,,,,,,,L2GMRN,train_x,blue_star,bottom_right,2025-07-23_12h13.20.976,HideSeek_v1,2022.2.5,59.96242749417547,
,,,,,,,,,,,,,,,3,0,3,0,1,0,1,0,,,,,,,,,,,,,,,,,,,,,,,,,,,,,,,conditions/schedules/train_x_first/blue_star_00/bottom_right/instructions/Slide18.png,conditions/schedules/train_x_first/blue_star_00/bottom_right/instructions/Audio18.wav,3514.238466199953,3514.2358630999224,18,"[7.162690300028771, 18.48325930000283, 16.60910279978998, 19.452225300017744, 4.780659599928185, 5.519719700096175, 6.070500200148672, 11.940180799923837, 6.384869699832052, 7.7154734001960605, 10.320742500014603, 13.076083600055426, 18.07760290009901, 12.87306459993124, 30.58545080013573, 21.6574051999487, 51.46753759984858, 6.800558099988848]","[0.034528200048953295, 0.08026319998316467, 0.13575950008817017, 0.06288959993980825, 0.04838110017590225, 0.06630100007168949, 0.06532399985007942, 0.06343579990789294, 0.04751820000819862, 0.07978329993784428, 0.08160370006226003, 13.076090200105682, 0.0470079998485744, 12.87307079997845, 0.03572549996897578, 21.657411700114608, 0.014212700072675943, 6.800565100042149]",0,,,,,,,,,,,,,,,,,,,,,,,,,,,,,,,,,,,,,,,,,,,,,,,,,,,,,,,,,,,,,,,,,,,,,,,,,,,,,,,,,,,,,,,,,,,,,,,,,,,,,,,,,,,,,,,,,,,,,,,,,,,,L2GMRN,train_x,blue_star,bottom_right,2025-07-23_12h13.20.976,HideSeek_v1,2022.2.5,59.96242749417547,
,,,,,,,,,,,,,,,3,0,3,0,2,0,2,0,,,,,,,,,,,,,,,,,,,,,,,,,,,,,,,conditions/schedules/train_x_first/blue_star_00/bottom_right/instructions/Slide19.png,conditions/schedules/train_x_first/blue_star_00/bottom_right/instructions/Audio19.wav,3521.0777706999797,3521.0748527799037,19,"[7.162690300028771, 18.48325930000283, 16.60910279978998, 19.452225300017744, 4.780659599928185, 5.519719700096175, 6.070500200148672, 11.940180799923837, 6.384869699832052, 7.7154734001960605, 10.320742500014603, 13.076083600055426, 18.07760290009901, 12.87306459993124, 30.58545080013573, 21.6574051999487, 51.46753759984858, 6.800558099988848, 10.670277599943802]","[0.034528200048953295, 0.08026319998316467, 0.13575950008817017, 0.06288959993980825, 0.04838110017590225, 0.06630100007168949, 0.06532399985007942, 0.06343579990789294, 0.04751820000819862, 0.07978329993784428, 0.08160370006226003, 13.076090200105682, 0.0470079998485744, 12.87307079997845, 0.03572549996897578, 21.657411700114608, 0.014212700072675943, 0.04717969987541437, 10.67028439999558]",0,,,,,,,,,,,,,,,,,,,,,,,,,,,,,,,,,,,,,,,,,,,,,,,,,,,,,,,,,,,,,,,,,,,,,,,,,,,,,,,,,,,,,,,,,,,,,,,,,,,,,,,,,,,,,,,,,,,,,,,,,,,,L2GMRN,train_x,blue_star,bottom_right,2025-07-23_12h13.20.976,HideSeek_v1,2022.2.5,59.96242749417547,
,,,,,,,,,,,,,,,3,0,3,0,3,0,3,0,,,,,,,,,,,,,,,,,,,,,,,,,,,,,,,conditions/schedules/train_x_first/blue_star_00/bottom_right/instructions/Slide20.png,conditions/schedules/train_x_first/blue_star_00/bottom_right/instructions/Audio20.wav,3531.8163844000082,3531.817029500031,20,"[7.162690300028771, 18.48325930000283, 16.60910279978998, 19.452225300017744, 4.780659599928185, 5.519719700096175, 6.070500200148672, 11.940180799923837, 6.384869699832052, 7.7154734001960605, 10.320742500014603, 13.076083600055426, 18.07760290009901, 12.87306459993124, 30.58545080013573, 21.6574051999487, 51.46753759984858, 6.800558099988848, 10.670277599943802, 14.97764250007458]","[0.034528200048953295, 0.08026319998316467, 0.13575950008817017, 0.06288959993980825, 0.04838110017590225, 0.06630100007168949, 0.06532399985007942, 0.06343579990789294, 0.04751820000819862, 0.07978329993784428, 0.08160370006226003, 13.076090200105682, 0.0470079998485744, 12.87307079997845, 0.03572549996897578, 21.657411700114608, 0.014212700072675943, 0.04717969987541437, 0.04868770018219948, 14.977650300133973]",0,,,,,,,,,,,,,,,,,,,,,,,,,,,,,,,,,,,,,,,,,,,,,,,,,,,,,,,,,,,,,,,,,,,,,,,,,,,,,,,,,,,,,,,,,,,,,,,,,,,,,,,,,,,,,,,,,,,,,,,,,,,,L2GMRN,train_x,blue_star,bottom_right,2025-07-23_12h13.20.976,HideSeek_v1,2022.2.5,59.96242749417547,
