trialInstr,x_fixStart,y_fixStart,x_corrSteps,y_corrSteps,x_nrSteps,y_nrSteps,alienID,trialLength,version,trialTrain,praclen,testlen,trial_label,break_on_off,beforeExpLoop.thisRepN,beforeExpLoop.thisTrialN,beforeExpLoop.thisN,beforeExpLoop.thisIndex,mini_instr_trials.thisRepN,mini_instr_trials.thisTrialN,mini_instr_trials.thisN,mini_instr_trials.thisIndex,instrLoop.thisRepN,instrLoop.thisTrialN,instrLoop.thisN,instrLoop.thisIndex,repeat_prac.thisRepN,repeat_prac.thisTrialN,repeat_prac.thisN,repeat_prac.thisIndex,trainLoop.thisRepN,trainLoop.thisTrialN,trainLoop.thisN,trainLoop.thisIndex,moveLoop_train.thisRepN,moveLoop_train.thisTrialN,moveLoop_train.thisN,moveLoop_train.thisIndex,experiment.thisRepN,experiment.thisTrialN,experiment.thisN,experiment.thisIndex,moveLoop_test.thisRepN,moveLoop_test.thisTrialN,moveLoop_test.thisN,moveLoop_test.thisIndex,mini_instr2_trials.thisRepN,mini_instr2_trials.thisTrialN,mini_instr2_trials.thisN,mini_instr2_trials.thisIndex,start_all_time,url,slideStim,audioStim,slides.started,sounds.started,nextButton.numClicks,nextButton.timesOn,nextButton.timesOff,prev_but.numClicks,prev_but.timesOn,prev_but.timesOff,alienStim,instrFile,alienStim_instr,gridImage_instr.started,startPos_3.started,key_instr.started,alienImage_3.started,sounds_1.started,key_instr.keys,key_instr.rt,all_x,all_y,FBy_corrSteps,FBy_fixStart,FBx_corrSteps,FBx_fixStart,FBy_pathSize_check,FBx_pathSize_check,gridImage_9.started,alienImageFB_3.started,startPosFB_3.started,keyFB_3.started,pathLine_ydir_2.started,pathLine_xdir_2.started,alienFace_3.started,sounds_2.started,RTFB_instr,keyFB_3.keys,keyFB_3.rt,draw_alienStim,draw_alienID,test_x,nrepcount,perfthres,percthres,earlierperf,earlystop,nextPrac,fileidx,praclen,saveACC_train,pracFile,nextPrac_train,addNrep,fileidx_endr,repExp,showearly,gridImage_4.started,startPos.started,movePos.started,key_resp.started,alienImage.started,buttonPress_train,RTchoice_train,cumAcctrain,aCorr,saveACC_choice,corrAns,x_movePos_end,y_movePos_end,key_resp.keys,key_resp.rt,wLy_dir,wLx_dir,x_movePos,y_movePos,text_2.started,aft_x_corrPos,aft_y_corrPos,y_pathSize_check,x_pathSize_check,y_pathdirY,x_pathdirY,x_pathdirX,x_corrPos,y_corrPos,gridImage_6.started,alienImageFB_2.started,startPosFB_2.started,movePosFB_2.started,keyFB_2.started,pathLine_xdir.started,pathLine_ydir.started,alienFace.started,sounds_4.started,RT_FBtrain,keyFB_2.keys,keyFB_2.rt,text_2.stopped,saveACC_pre,ACC,within_saveACC_train,earlystop_wloop,cumAcctrain_check,gridImage_3.started,alienImage_test.started,startPos_test.started,movePos_test.started,key_resp_test.started,wLy_dir_test,wLx_dir_test,buttonPress_test,RTchoice_test,cumAcctest,corrAns_test,key_resp_test.keys,key_resp_test.rt,text_3.started,text_3.stopped,total_time,end_all_time,key_resp_3.keys,slides_2.started,sounds_3.started,nextButton_2.numClicks,nextButton_2.timesOn,nextButton_2.timesOff,prev_but_2.numClicks,prev_but_2.timesOn,prev_but_2.timesOff,bye.started,participant,train_first,00_coordinate,starting corner,date,expName,psychopyVersion,frameRate,
,,,,,,,,,,,,,,,0,0,0,0,0,0,0,0,,,,,,,,,,,,,,,,,,,,,,,,,,,,,start_all_time,testround,conditions/schedules/train_x_first/red_square_00/top_right/instructions/Slide1.png,conditions/schedules/train_x_first/red_square_00/top_right/instructions/Audio1.wav,374.90952220000054,374.86389160000454,1,[5.671011100000214],[5.671018500000173],0,,,,,,,,,,,,,,,,,,,,,,,,,,,,,,,,,,,,,,,,,,,,,,,,,,,,,,,,,,,,,,,,,,,,,,,,,,,,,,,,,,,,,,,,,,,,,,,,,,,,,,,,,,,,,,,,,,,,,,,,,,,,LE4AFC,train_x,red_square,top_right,2025-08-07_12h18.19.542,HideSeek_v1,2022.2.5,59.95351204655068,
,,,,,,,,,,,,,,,0,0,0,0,1,0,1,0,,,,,,,,,,,,,,,,,,,,,,,,,,,,,,,conditions/schedules/train_x_first/red_square_00/top_right/instructions/Slide2.png,conditions/schedules/train_x_first/red_square_00/top_right/instructions/Audio2.wav,380.6055363000005,380.6065214000005,2,"[5.671011100000214, 18.69768320000003]","[0.014178000000356406, 18.6976896999995]",0,,,,,,,,,,,,,,,,,,,,,,,,,,,,,,,,,,,,,,,,,,,,,,,,,,,,,,,,,,,,,,,,,,,,,,,,,,,,,,,,,,,,,,,,,,,,,,,,,,,,,,,,,,,,,,,,,,,,,,,,,,,,LE4AFC,train_x,red_square,top_right,2025-08-07_12h18.19.542,HideSeek_v1,2022.2.5,59.95351204655068,
,,,,,,,,,,,,,,,0,0,0,0,2,0,2,0,,,,,,,,,,,,,,,,,,,,,,,,,,,,,,,conditions/schedules/train_x_first/red_square_00/top_right/instructions/Slide3.png,conditions/schedules/train_x_first/red_square_00/top_right/instructions/Audio3.wav,399.3822828000002,399.3721322000006,3,"[5.671011100000214, 18.69768320000003, 16.84551089999968]","[0.014178000000356406, 0.03287639999962266, 16.84552099999928]",0,,,,,,,,,,,,,,,,,,,,,,,,,,,,,,,,,,,,,,,,,,,,,,,,,,,,,,,,,,,,,,,,,,,,,,,,,,,,,,,,,,,,,,,,,,,,,,,,,,,,,,,,,,,,,,,,,,,,,,,,,,,,LE4AFC,train_x,red_square,top_right,2025-08-07_12h18.19.542,HideSeek_v1,2022.2.5,59.95351204655068,
,,,,,,,,,,,,,,,0,0,0,0,3,0,3,0,,,,,,,,,,,,,,,,,,,,,,,,,,,,,,,conditions/schedules/train_x_first/red_square_00/top_right/instructions/Slide4.png,conditions/schedules/train_x_first/red_square_00/top_right/instructions/Audio4.wav,416.3035682,416.2966568000006,4,"[5.671011100000214, 18.69768320000003, 16.84551089999968, 19.68628820000049]","[0.014178000000356406, 0.03287639999962266, 0.03676570000061474, 19.686295000000428]",0,,,,,,,,,,,,,,,,,,,,,,,,,,,,,,,,,,,,,,,,,,,,,,,,,,,,,,,,,,,,,,,,,,,,,,,,,,,,,,,,,,,,,,,,,,,,,,,,,,,,,,,,,,,,,,,,,,,,,,,,,,,,LE4AFC,train_x,red_square,top_right,2025-08-07_12h18.19.542,HideSeek_v1,2022.2.5,59.95351204655068,
,,,,,,,,,,,,,,,0,0,0,0,4,0,4,0,,,,,,,,,,,,,,,,,,,,,,,,,,,,,,,conditions/schedules/train_x_first/red_square_00/top_right/instructions/Slide5.png,conditions/schedules/train_x_first/red_square_00/top_right/instructions/Audio5.wav,436.0572473000002,436.0585298000001,5,"[5.671011100000214, 18.69768320000003, 16.84551089999968, 19.68628820000049, 5.460664999999608]","[0.014178000000356406, 0.03287639999962266, 0.03676570000061474, 0.06959049999932176, 5.460672899999736]",0,,,,,,,,,,,,,,,,,,,,,,,,,,,,,,,,,,,,,,,,,,,,,,,,,,,,,,,,,,,,,,,,,,,,,,,,,,,,,,,,,,,,,,,,,,,,,,,,,,,,,,,,,,,,,,,,,,,,,,,,,,,,LE4AFC,train_x,red_square,top_right,2025-08-07_12h18.19.542,HideSeek_v1,2022.2.5,59.95351204655068,
,,,,,,,,,,,,,,,0,0,0,0,5,0,5,0,,,,,,,,,,,,,,,,,,,,,,,,,,,,,,,conditions/schedules/train_x_first/red_square_00/top_right/instructions/Slide6.png,conditions/schedules/train_x_first/red_square_00/top_right/instructions/Audio6.wav,441.5699570000006,441.5685906999999,6,"[5.671011100000214, 18.69768320000003, 16.84551089999968, 19.68628820000049, 5.460664999999608, 5.497450500000014]","[0.014178000000356406, 0.03287639999962266, 0.03676570000061474, 0.06959049999932176, 0.034223699999529344, 5.497457599999507]",0,,,,,,,,,,,,,,,,,,,,,,,,,,,,,,,,,,,,,,,,,,,,,,,,,,,,,,,,,,,,,,,,,,,,,,,,,,,,,,,,,,,,,,,,,,,,,,,,,,,,,,,,,,,,,,,,,,,,,,,,,,,,LE4AFC,train_x,red_square,top_right,2025-08-07_12h18.19.542,HideSeek_v1,2022.2.5,59.95351204655068,
,,,,,,,,,,,,,,,0,0,0,0,6,0,6,0,,,,,,,,,,,,,,,,,,,,,,,,,,,,,,,conditions/schedules/train_x_first/red_square_00/top_right/instructions/Slide7.png,conditions/schedules/train_x_first/red_square_00/top_right/instructions/Audio7.wav,447.11972650000007,447.1203087000005,7,"[5.671011100000214, 18.69768320000003, 16.84551089999968, 19.68628820000049, 5.460664999999608, 5.497450500000014, 6.117882600000485]","[0.014178000000356406, 0.03287639999962266, 0.03676570000061474, 0.06959049999932176, 0.034223699999529344, 0.051408100000116974, 6.117890700000316]",0,,,,,,,,,,,,,,,,,,,,,,,,,,,,,,,,,,,,,,,,,,,,,,,,,,,,,,,,,,,,,,,,,,,,,,,,,,,,,,,,,,,,,,,,,,,,,,,,,,,,,,,,,,,,,,,,,,,,,,,,,,,,LE4AFC,train_x,red_square,top_right,2025-08-07_12h18.19.542,HideSeek_v1,2022.2.5,59.95351204655068,
,,,,,,,,,,,,,,,0,0,0,0,7,0,7,0,,,,,,,,,,,,,,,,,,,,,,,,,,,,,,,conditions/schedules/train_x_first/red_square_00/top_right/instructions/Slide8.png,conditions/schedules/train_x_first/red_square_00/top_right/instructions/Audio8.wav,453.2938171000005,453.29000939999986,8,"[5.671011100000214, 18.69768320000003, 16.84551089999968, 19.68628820000049, 5.460664999999608, 5.497450500000014, 6.117882600000485, 11.708081900000252]","[0.014178000000356406, 0.03287639999962266, 0.03676570000061474, 0.06959049999932176, 0.034223699999529344, 0.051408100000116974, 0.048241000000416534, 11.708088500000486]",0,,,,,,,,,,,,,,,,,,,,,,,,,,,,,,,,,,,,,,,,,,,,,,,,,,,,,,,,,,,,,,,,,,,,,,,,,,,,,,,,,,,,,,,,,,,,,,,,,,,,,,,,,,,,,,,,,,,,,,,,,,,,LE4AFC,train_x,red_square,top_right,2025-08-07_12h18.19.542,HideSeek_v1,2022.2.5,59.95351204655068,
,,,,,,,,,,,,,,,0,0,0,0,8,0,8,0,,,,,,,,,,,,,,,,,,,,,,,,,,,,,,,conditions/schedules/train_x_first/red_square_00/top_right/instructions/Slide9.png,conditions/schedules/train_x_first/red_square_00/top_right/instructions/Audio9.wav,465.0735074000004,465.0713096000004,9,"[5.671011100000214, 18.69768320000003, 16.84551089999968, 19.68628820000049, 5.460664999999608, 5.497450500000014, 6.117882600000485, 11.708081900000252, 7.006558799999766]","[0.014178000000356406, 0.03287639999962266, 0.03676570000061474, 0.06959049999932176, 0.034223699999529344, 0.051408100000116974, 0.048241000000416534, 0.05708859999958804, 7.0065663999994285]",0,,,,,,,,,,,,,,,,,,,,,,,,,,,,,,,,,,,,,,,,,,,,,,,,,,,,,,,,,,,,,,,,,,,,,,,,,,,,,,,,,,,,,,,,,,,,,,,,,,,,,,,,,,,,,,,,,,,,,,,,,,,,LE4AFC,train_x,red_square,top_right,2025-08-07_12h18.19.542,HideSeek_v1,2022.2.5,59.95351204655068,
,,,,,,,,,,,,,,,0,0,0,0,9,0,9,0,,,,,,,,,,,,,,,,,,,,,,,,,,,,,,,conditions/schedules/train_x_first/red_square_00/top_right/instructions/Slide10.png,conditions/schedules/train_x_first/red_square_00/top_right/instructions/Audio10.wav,472.11953320000066,472.1159439000002,10,"[5.671011100000214, 18.69768320000003, 16.84551089999968, 19.68628820000049, 5.460664999999608, 5.497450500000014, 6.117882600000485, 11.708081900000252, 7.006558799999766, 8.246135999999751]","[0.014178000000356406, 0.03287639999962266, 0.03676570000061474, 0.06959049999932176, 0.034223699999529344, 0.051408100000116974, 0.048241000000416534, 0.05708859999958804, 0.06980829999974958, 8.246142599999985]",0,,,,,,,,,,,,,,,,,,,,,,,,,,,,,,,,,,,,,,,,,,,,,,,,,,,,,,,,,,,,,,,,,,,,,,,,,,,,,,,,,,,,,,,,,,,,,,,,,,,,,,,,,,,,,,,,,,,,,,,,,,,,LE4AFC,train_x,red_square,top_right,2025-08-07_12h18.19.542,HideSeek_v1,2022.2.5,59.95351204655068,
,,,,,,,,,,,,,,,0,0,0,0,10,0,10,0,,,,,,,,,,,,,,,,,,,,,,,,,,,,,,,conditions/schedules/train_x_first/red_square_00/top_right/instructions/Slide11.png,conditions/schedules/train_x_first/red_square_00/top_right/instructions/Audio11.wav,480.4215776000001,480.4183924000001,11,"[5.671011100000214, 18.69768320000003, 16.84551089999968, 19.68628820000049, 5.460664999999608, 5.497450500000014, 6.117882600000485, 11.708081900000252, 7.006558799999766, 8.246135999999751, 9.985440100000233]","[0.014178000000356406, 0.03287639999962266, 0.03676570000061474, 0.06959049999932176, 0.034223699999529344, 0.051408100000116974, 0.048241000000416534, 0.05708859999958804, 0.06980829999974958, 0.05710280000039347, 9.98544740000034]",0,,,,,,,,,,,,,,,,,,,,,,,,,,,,,,,,,,,,,,,,,,,,,,,,,,,,,,,,,,,,,,,,,,,,,,,,,,,,,,,,,,,,,,,,,,,,,,,,,,,,,,,,,,,,,,,,,,,,,,,,,,,,LE4AFC,train_x,red_square,top_right,2025-08-07_12h18.19.542,HideSeek_v1,2022.2.5,59.95351204655068,
,,,,,,,,,,,,,,,0,0,0,0,11,0,11,0,,,,,,,,,,,,,,,,,,,,,,,,,,,,,,,conditions/schedules/train_x_first/red_square_00/top_right/instructions/Slide12.png,conditions/schedules/train_x_first/red_square_00/top_right/instructions/Audio12.wav,490.48076740000033,490.4759415000003,12,"[5.671011100000214, 18.69768320000003, 16.84551089999968, 19.68628820000049, 5.460664999999608, 5.497450500000014, 6.117882600000485, 11.708081900000252, 7.006558799999766, 8.246135999999751, 9.985440100000233, 13.069477000000006]","[0.014178000000356406, 0.03287639999962266, 0.03676570000061474, 0.06959049999932176, 0.034223699999529344, 0.051408100000116974, 0.048241000000416534, 0.05708859999958804, 0.06980829999974958, 0.05710280000039347, 0.013463799999954063, 13.06948519999969]",0,,,,,,,,,,,,,,,,,,,,,,,,,,,,,,,,,,,,,,,,,,,,,,,,,,,,,,,,,,,,,,,,,,,,,,,,,,,,,,,,,,,,,,,,,,,,,,,,,,,,,,,,,,,,,,,,,,,,,,,,,,,,LE4AFC,train_x,red_square,top_right,2025-08-07_12h18.19.542,HideSeek_v1,2022.2.5,59.95351204655068,
1,8,7,3,7,-5,0,66,2,instr_dim1_1,,,,,,0,0,0,0,,,,,0,0,0,0,,,,,,,,,,,,,,,,,,,,,,,,,,,,,,,,,,,,,stimuli/alien_stimuli/66.png,conditions/schedules/train_x_first/red_square_00/top_right/inputInstr_1.xlsx,stimuli/alien_stimuli/66.png,503.6523305999999,503.6523305999999,503.6523305999999,503.6523305999999,503.6530075000002,return,8.0081153000001,"[-0.16, -0.08, 0, 0.08, 0.16, 0.24, 0.32, 0.4, 0.48, 0.56]","[-0.4, -0.32, -0.24, -0.16, -0.08, 0, 0.08, 0.16, 0.24, 0.32]",7,7,3,8,0.0,0.4,511.83540859999994,511.83540859999994,511.83540859999994,511.83540859999994,511.83540859999994,511.83540859999994,511.83540859999994,511.8217926000004,6.795162600000367,return,6.618080000000191,stimuli/alien_stimuli/66.png,66,8,1,,,,,,,,,,,,,,,,,,,,,,,,,,,,,,,,,,,,,,,,,,,,,,,,,,,,,,,,,,,,,,,,,,,,,,,,,,,,,,,,,,,,,,,,,LE4AFC,train_x,red_square,top_right,2025-08-07_12h18.19.542,HideSeek_v1,2022.2.5,59.95351204655068,
,,,,,,,,,,,30,,,,0,0,0,0,,,,,,,,,,,,,,,,,,,,,,,,,,,,,,,,,,,,,,,,,,,,,,,,,,,,,,,,,,,,,,,,,,,,,,,,,,,,,,21,0.7,0,0,99,1,30,0,conditions/schedules/train_x_first/red_square_00/top_right/inputTrain_1.1.xlsx,99,1,1,1,0,,,,,,,,,,,,,,,,,,,,,,,,,,,,,,,,,,,,,,,,,,,,,,,,,,,,,,,,,,,,,,,,,,,,,,,,,,,LE4AFC,train_x,red_square,top_right,2025-08-07_12h18.19.542,HideSeek_v1,2022.2.5,59.95351204655068,
,,,,,,,,,,,,,,,1,0,1,0,0,0,0,0,,,,,,,,,,,,,,,,,,,,,,,,,,,,,,,conditions/schedules/train_x_first/red_square_00/top_right/instructions/Slide13.png,conditions/schedules/train_x_first/red_square_00/top_right/instructions/Audio13.wav,518.6140194999998,518.6159135000004,13,"[5.671011100000214, 18.69768320000003, 16.84551089999968, 19.68628820000049, 5.460664999999608, 5.497450500000014, 6.117882600000485, 11.708081900000252, 7.006558799999766, 8.246135999999751, 9.985440100000233, 13.069477000000006, 17.26222979999966]","[0.014178000000356406, 0.03287639999962266, 0.03676570000061474, 0.06959049999932176, 0.034223699999529344, 0.051408100000116974, 0.048241000000416534, 0.05708859999958804, 0.06980829999974958, 0.05710280000039347, 0.013463799999954063, 13.06948519999969, 17.262238199999956]",0,,,,,,,,,,,,,,,,,,,,,,,,,,,,,,,,,,,,,,,,,,,,,,,,,,,,,,,,,,,,,,,,,,,,,,,,,,,,,,,,,,,,,,,,,,,,,,,,,,,,,,,,,,,,,,,,,,,,,,,,,,,,LE4AFC,train_x,red_square,top_right,2025-08-07_12h18.19.542,HideSeek_v1,2022.2.5,59.95351204655068,
,,,,,,,,,,,,,,,1,0,1,0,1,0,1,0,,,,,,,,,,,,,,,,,,,,,,,,,,,,,,,conditions/schedules/train_x_first/red_square_00/top_right/instructions/Slide14.png,conditions/schedules/train_x_first/red_square_00/top_right/instructions/Audio14.wav,535.9528586000006,535.9451543,14,"[5.671011100000214, 18.69768320000003, 16.84551089999968, 19.68628820000049, 5.460664999999608, 5.497450500000014, 6.117882600000485, 11.708081900000252, 7.006558799999766, 8.246135999999751, 9.985440100000233, 13.069477000000006, 17.26222979999966, 13.30274019999979]","[0.014178000000356406, 0.03287639999962266, 0.03676570000061474, 0.06959049999932176, 0.034223699999529344, 0.051408100000116974, 0.048241000000416534, 0.05708859999958804, 0.06980829999974958, 0.05710280000039347, 0.013463799999954063, 13.06948519999969, 0.013818599999467551, 13.302747099999578]",0,,,,,,,,,,,,,,,,,,,,,,,,,,,,,,,,,,,,,,,,,,,,,,,,,,,,,,,,,,,,,,,,,,,,,,,,,,,,,,,,,,,,,,,,,,,,,,,,,,,,,,,,,,,,,,,,,,,,,,,,,,,,LE4AFC,train_x,red_square,top_right,2025-08-07_12h18.19.542,HideSeek_v1,2022.2.5,59.95351204655068,
2,9,5,9,5,0,0,16,2,instr_dim1_1,,,,,,1,0,1,0,,,,,0,0,0,0,,,,,,,,,,,,,,,,,,,,,,,,,,,,,,,,,,,,,stimuli/alien_stimuli/16.png,conditions/schedules/train_x_first/red_square_00/top_right/inputInstr_1.xlsx,stimuli/alien_stimuli/16.png,549.3431666000006,549.3431666000006,549.3431666000006,549.3431666000006,549.3414331000001,return,4.182309500000883,"[-0.16, -0.08, 0, 0.08, 0.16, 0.24, 0.32, 0.4, 0.48, 0.56]","[-0.4, -0.32, -0.24, -0.16, -0.08, 0, 0.08, 0.16, 0.24, 0.32]",5,5,9,9,0.0,0.0,553.6908493999999,553.6908493999999,553.6908493999999,553.6908493999999,553.6908493999999,553.6908493999999,553.6908493999999,553.6728252000006,6.256828499999756,return,6.096901199999593,stimuli/alien_stimuli/16.png,16,9,2,,,,,,,,,,,,,,,,,,,,,,,,,,,,,,,,,,,,,,,,,,,,,,,,,,,,,,,,,,,,,,,,,,,,,,,,,,,,,,,,,,,,,,,,,LE4AFC,train_x,red_square,top_right,2025-08-07_12h18.19.542,HideSeek_v1,2022.2.5,59.95351204655068,
,,,,,,,,,,,30,,,,1,0,1,0,,,,,,,,,,,,,,,,,,,,,,,,,,,,,,,,,,,,,,,,,,,,,,,,,,,,,,,,,,,,,,,,,,,,,,,,,,,,,,21,0.7,0,0,99,1,30,0,conditions/schedules/train_x_first/red_square_00/top_right/inputTrain_1.1.xlsx,99,1,1,1,0,,,,,,,,,,,,,,,,,,,,,,,,,,,,,,,,,,,,,,,,,,,,,,,,,,,,,,,,,,,,,,,,,,,,,,,,,,,LE4AFC,train_x,red_square,top_right,2025-08-07_12h18.19.542,HideSeek_v1,2022.2.5,59.95351204655068,
,,,,,,,,,,,,,,,2,0,2,0,0,0,0,0,,,,,,,,,,,,,,,,,,,,,,,,,,,,,,,conditions/schedules/train_x_first/red_square_00/top_right/instructions/Slide15.png,conditions/schedules/train_x_first/red_square_00/top_right/instructions/Audio15.wav,559.9498438999999,559.9446432999999,15,"[5.671011100000214, 18.69768320000003, 16.84551089999968, 19.68628820000049, 5.460664999999608, 5.497450500000014, 6.117882600000485, 11.708081900000252, 7.006558799999766, 8.246135999999751, 9.985440100000233, 13.069477000000006, 17.26222979999966, 13.30274019999979, 31.47019730000011]","[0.014178000000356406, 0.03287639999962266, 0.03676570000061474, 0.06959049999932176, 0.034223699999529344, 0.051408100000116974, 0.048241000000416534, 0.05708859999958804, 0.06980829999974958, 0.05710280000039347, 0.013463799999954063, 13.06948519999969, 0.013818599999467551, 13.302747099999578, 31.470203999999285]",0,,,,,,,,,,,,,,,,,,,,,,,,,,,,,,,,,,,,,,,,,,,,,,,,,,,,,,,,,,,,,,,,,,,,,,,,,,,,,,,,,,,,,,,,,,,,,,,,,,,,,,,,,,,,,,,,,,,,,,,,,,,,LE4AFC,train_x,red_square,top_right,2025-08-07_12h18.19.542,HideSeek_v1,2022.2.5,59.95351204655068,
,,,,,,,,,,,,,,,2,0,2,0,1,0,1,0,,,,,,,,,,,,,,,,,,,,,,,,,,,,,,,conditions/schedules/train_x_first/red_square_00/top_right/instructions/Slide16.png,conditions/schedules/train_x_first/red_square_00/top_right/instructions/Audio16.wav,591.4858062000003,591.4726609,16,"[5.671011100000214, 18.69768320000003, 16.84551089999968, 19.68628820000049, 5.460664999999608, 5.497450500000014, 6.117882600000485, 11.708081900000252, 7.006558799999766, 8.246135999999751, 9.985440100000233, 13.069477000000006, 17.26222979999966, 13.30274019999979, 31.47019730000011, 21.500827400000162]","[0.014178000000356406, 0.03287639999962266, 0.03676570000061474, 0.06959049999932176, 0.034223699999529344, 0.051408100000116974, 0.048241000000416534, 0.05708859999958804, 0.06980829999974958, 0.05710280000039347, 0.013463799999954063, 13.06948519999969, 0.013818599999467551, 13.302747099999578, 0.05145170000014332, 21.500834899999973]",0,,,,,,,,,,,,,,,,,,,,,,,,,,,,,,,,,,,,,,,,,,,,,,,,,,,,,,,,,,,,,,,,,,,,,,,,,,,,,,,,,,,,,,,,,,,,,,,,,,,,,,,,,,,,,,,,,,,,,,,,,,,,LE4AFC,train_x,red_square,top_right,2025-08-07_12h18.19.542,HideSeek_v1,2022.2.5,59.95351204655068,
,7,6,4,6,-3,0,46,,train_dim1_1,1,30,,,,2,0,2,0,,,,,,,,,0,0,0,0,0,0,0,0,0,0,0,0,,,,,,,,,,,,,,,,,,,,,,,,,stimuli/alien_stimuli/46.png,,,,,,,,,,,,,,,,,,,,,,,,,,,,,,,,,,,,,,,30,,,,,,,,613.0877448000001,613.0877448000001,613.0877448000001,613.0877448000001,613.0877448000001,down,10.869588999999905,0,0,0,99,0.4,0.0,down,10.772870800000419,,,,,,,,,,,,,,,,,,,,,,,,,,,,,,,,,,,,,,,,,,,,,,,,,,,,,,,,,,,,LE4AFC,train_x,red_square,top_right,2025-08-07_12h18.19.542,HideSeek_v1,2022.2.5,59.95351204655068,
,7,6,4,6,-3,0,46,,train_dim1_1,1,30,,,,2,0,2,0,,,,,,,,,0,0,0,0,0,0,0,0,1,0,1,0,,,,,,,,,,,,,,,,,,,,,,,,,,,,,,,,,,,,,,,,,,,,,,,,,,,,,,,,,,,,,,,,30,,,,,,,,623.9629411000005,623.9629411000005,623.9629411000005,623.9629411000005,623.9629411000005,down,1.0594062999998641,0,0,0,99,0.4,-0.08,down,0.9571720000003552,,,,,,,,,,,,,,,,,,,,,,,,,,,,,,,,,,,,,,,,,,,,,,,,,,,,,,,,,,,,LE4AFC,train_x,red_square,top_right,2025-08-07_12h18.19.542,HideSeek_v1,2022.2.5,59.95351204655068,
,7,6,4,6,-3,0,46,,train_dim1_1,1,30,,,,2,0,2,0,,,,,,,,,0,0,0,0,0,0,0,0,2,0,2,0,,,,,,,,,,,,,,,,,,,,,,,,,,,,,,,,,,,,,,,,,,,,,,,,,,,,,,,,,,,,,,,,30,,,,,,,,625.0129354000001,625.0129354000001,625.0129354000001,625.0129354000001,625.0129354000001,up,2.161493700000392,0,0,0,99,0.4,0.0,up,2.080954600000041,,,,,,,,,,,,,,,,,,,,,,,,,,,,,,,,,,,,,,,,,,,,,,,,,,,,,,,,,,,,LE4AFC,train_x,red_square,top_right,2025-08-07_12h18.19.542,HideSeek_v1,2022.2.5,59.95351204655068,
,7,6,4,6,-3,0,46,,train_dim1_1,1,30,,,,2,0,2,0,,,,,,,,,0,0,0,0,0,0,0,0,3,0,3,0,,,,,,,,,,,,,,,,,,,,,,,,,,,,,,,,,,,,,,,,,,,,,,,,,,,,,,,,,,,,,,,,30,,,,,,,,627.1844306000003,627.1844306000003,627.1844306000003,627.1844306000003,627.1844306000003,up,0.306171500000346,0,0,0,99,0.4,0.08,up,0.2237942000001567,,,,,,,,,,,,,,,,,,,,,,,,,,,,,,,,,,,,,,,,,,,,,,,,,,,,,,,,,,,,LE4AFC,train_x,red_square,top_right,2025-08-07_12h18.19.542,HideSeek_v1,2022.2.5,59.95351204655068,
,7,6,4,6,-3,0,46,,train_dim1_1,1,30,,,,2,0,2,0,,,,,,,,,0,0,0,0,0,0,0,0,4,0,4,0,,,,,,,,,,,,,,,,,,,,,,,,,,,,,,,,,,,,,,,,,,,,,,,,,,,,,,,,,,,,,,,,30,,,,,,,,627.4972312,627.4972312,627.4972312,627.4972312,627.4972312,left,10.201732300000003,0,0,0,99,0.32,0.08,left,10.114331900000252,,,,,,,,,,,,,,,,,,,,,,,,,,,,,,,,,,,,,,,,,,,,,,,,,,,,,,,,,,,,LE4AFC,train_x,red_square,top_right,2025-08-07_12h18.19.542,HideSeek_v1,2022.2.5,59.95351204655068,
,7,6,4,6,-3,0,46,,train_dim1_1,1,30,,,,2,0,2,0,,,,,,,,,0,0,0,0,0,0,0,0,5,0,5,0,,,,,,,,,,,,,,,,,,,,,,,,,,,,,,,,,,,,,,,,,,,,,,,,,,,,,,,,,,,,,,,,30,,,,,,,,637.7216597000006,637.7216597000006,637.7216597000006,637.7216597000006,637.7216597000006,left,0.8267848999994385,0,0,0,99,0.24,0.08,left,0.7237300999995568,,,,,,,,,,,,,,,,,,,,,,,,,,,,,,,,,,,,,,,,,,,,,,,,,,,,,,,,,,,,LE4AFC,train_x,red_square,top_right,2025-08-07_12h18.19.542,HideSeek_v1,2022.2.5,59.95351204655068,
,7,6,4,6,-3,0,46,,train_dim1_1,1,30,,,,2,0,2,0,,,,,,,,,0,0,0,0,0,0,0,0,6,0,6,0,,,,,,,,,,,,,,,,,,,,,,,,,,,,,,,,,,,,,,,,,,,,,,,,,,,,,,,,,,,,,,,,30,,,,,,,,638.5412295000006,638.5412295000006,638.5412295000006,638.5412295000006,638.5412295000006,left,1.5270102000004044,0,0,0,99,0.15999999999999998,0.08,left,1.4417651000003389,,,,,,,,,,,,,,,,,,,,,,,,,,,,,,,,,,,,,,,,,,,,,,,,,,,,,,,,,,,,LE4AFC,train_x,red_square,top_right,2025-08-07_12h18.19.542,HideSeek_v1,2022.2.5,59.95351204655068,
,7,6,4,6,-3,0,46,,train_dim1_1,1,30,,,,2,0,2,0,,,,,,,,,0,0,0,0,0,0,0,0,7,0,7,0,,,,,,,,,,,,,,,,,,,,,,,,,,,,,,,,,,,,,,,,,,,,,,,,,,,,,,,,,,,,,,,,30,,,,,,,,640.0751122000001,640.0751122000001,640.0751122000001,640.0751122000001,640.0751122000001,return,1.027190900000278,1,0,0,1,0.15999999999999998,0.08,return,0.9472211000002062,0,-3,0.15999999999999998,0.08,,,,,,,,,,,,,,,,,,,,,,,,,,,,,,,,,,,,,,,,,,,,,,,,,,,,,,,,LE4AFC,train_x,red_square,top_right,2025-08-07_12h18.19.542,HideSeek_v1,2022.2.5,59.95351204655068,
,7,9,7,9,0,0,16,,train_dim1_1,2,30,,,,2,0,2,0,,,,,,,,,0,0,0,0,0,1,1,1,0,0,0,0,,,,,,,,,,,,,,,,,,,,,,,,,stimuli/alien_stimuli/16.png,,,,,,,,,,,,,,,,,,,,,,,,,,,,,stimuli/alien_stimuli/46.png,46,7,3,,,,,,,30,,,,,,,,648.1373824000002,648.1373824000002,648.1373824000002,648.1373824000002,648.1373824000002,return,3.3199862000001303,2,0,0,1,0.4,0.32,return,3.234674900000755,0,-3,0.4,0.32,646.5534367,0.16,0.08,0.0,0.24,0.08,0.16,0.28,0.16,0.08,642.6933835,642.6933835,642.6933835,642.6933835,642.6933835,642.6933835,642.6933835,642.6933835,642.6803438000006,3.9747934000006353,return,3.8358060999998997,,,,,,,,,,,,,,,,,,,,,,,,,,,,,,,,,,LE4AFC,train_x,red_square,top_right,2025-08-07_12h18.19.542,HideSeek_v1,2022.2.5,59.95351204655068,
,9,9,8,9,-1,0,26,,train_dim1_1,3,30,,,,2,0,2,0,,,,,,,,,0,0,0,0,0,2,2,2,0,0,0,0,,,,,,,,,,,,,,,,,,,,,,,,,stimuli/alien_stimuli/26.png,,,,,,,,,,,,,,,,,,,,,,,,,,,,,stimuli/alien_stimuli/16.png,16,7,4,,,,,,,30,,,,,,,,660.3422494000006,660.3422494000006,660.3422494000006,660.3422494000006,660.3422494000006,left,4.407095499999741,2,0,0,99,0.48000000000000004,0.32,left,4.3102707000007285,,,,,658.7790957000007,0.4,0.32,0.0,0.0,0.32,0.4,0.4,0.4,0.32,653.0351135000001,653.0351135000001,653.0351135000001,653.0351135000001,653.0351135000001,653.0351135000001,653.0351135000001,653.0351135000001,653.0223835999999,5.8751892000000225,return,5.711255600000186,660.3422494000006,,,,,,,,,,,,,,,,,,,,,,,,,,,,,,,,,LE4AFC,train_x,red_square,top_right,2025-08-07_12h18.19.542,HideSeek_v1,2022.2.5,59.95351204655068,
,9,9,8,9,-1,0,26,,train_dim1_1,3,30,,,,2,0,2,0,,,,,,,,,0,0,0,0,0,2,2,2,1,0,1,0,,,,,,,,,,,,,,,,,,,,,,,,,,,,,,,,,,,,,,,,,,,,,,,,,,,,,,,,,,,,,,,,30,,,,,,,,664.7506136000002,664.7506136000002,664.7506136000002,664.7506136000002,664.7506136000002,return,0.9931327000003876,3,0,0,1,0.48000000000000004,0.32,return,0.9110400000008667,0,-4,0.48000000000000004,0.32,,,,,,,,,,,,,,,,,,,,,,,,,,,,,,,,,,,,,,,,,,,,,,,,,,,,,,,,LE4AFC,train_x,red_square,top_right,2025-08-07_12h18.19.542,HideSeek_v1,2022.2.5,59.95351204655068,
,7,8,3,8,-4,0,56,,train_dim1_1,4,30,,,,2,0,2,0,,,,,,,,,0,0,0,0,0,3,3,3,0,0,0,0,,,,,,,,,,,,,,,,,,,,,,,,,stimuli/alien_stimuli/56.png,,,,,,,,,,,,,,,,,,,,,,,,,,,,,stimuli/alien_stimuli/26.png,26,9,5,,,,,,,30,,,,,,,,673.6850081000002,673.6850081000002,673.6850081000002,673.6850081000002,673.6850081000002,left,6.258425500000158,3,0,0,99,0.32,0.24,left,6.16934880000008,,,,,672.1216198000002,0.48,0.32,0.0,0.08,0.32,0.48,0.52,0.48,0.32,667.3333894000007,667.3333894000007,667.3333894000007,667.3333894000007,667.3333894000007,667.3333894000007,667.3333894000007,667.3333894000007,667.3172316000004,4.916852699999254,return,4.751154800000222,667.3333894000007,,,,,,,,,,,,,,,,,,,,,,,,,,,,,,,,,LE4AFC,train_x,red_square,top_right,2025-08-07_12h18.19.542,HideSeek_v1,2022.2.5,59.95351204655068,
,7,8,3,8,-4,0,56,,train_dim1_1,4,30,,,,2,0,2,0,,,,,,,,,0,0,0,0,0,3,3,3,1,0,1,0,,,,,,,,,,,,,,,,,,,,,,,,,,,,,,,,,,,,,,,,,,,,,,,,,,,,,,,,,,,,,,,,30,,,,,,,,679.9452273000006,679.9452273000006,679.9452273000006,679.9452273000006,679.9452273000006,left,0.5097825999991983,3,0,0,99,0.24,0.24,left,0.4235744000006889,,,,,,,,,,,,,,,,,,,,,,,,,,,,,,,,,,,,,,,,,,,,,,,,,,,,,,,,,,,,LE4AFC,train_x,red_square,top_right,2025-08-07_12h18.19.542,HideSeek_v1,2022.2.5,59.95351204655068,
,7,8,3,8,-4,0,56,,train_dim1_1,4,30,,,,2,0,2,0,,,,,,,,,0,0,0,0,0,3,3,3,2,0,2,0,,,,,,,,,,,,,,,,,,,,,,,,,,,,,,,,,,,,,,,,,,,,,,,,,,,,,,,,,,,,,,,,30,,,,,,,,680.4604135,680.4604135,680.4604135,680.4604135,680.4604135,left,0.510341399999561,3,0,0,99,0.15999999999999998,0.24,left,0.42809850000048755,,,,,,,,,,,,,,,,,,,,,,,,,,,,,,,,,,,,,,,,,,,,,,,,,,,,,,,,,,,,LE4AFC,train_x,red_square,top_right,2025-08-07_12h18.19.542,HideSeek_v1,2022.2.5,59.95351204655068,
,7,8,3,8,-4,0,56,,train_dim1_1,4,30,,,,2,0,2,0,,,,,,,,,0,0,0,0,0,3,3,3,3,0,3,0,,,,,,,,,,,,,,,,,,,,,,,,,,,,,,,,,,,,,,,,,,,,,,,,,,,,,,,,,,,,,,,,30,,,,,,,,680.9774949000002,680.9774949000002,680.9774949000002,680.9774949000002,680.9774949000002,left,0.6767031999997926,3,0,0,99,0.07999999999999997,0.24,left,0.5914683000000878,,,,,,,,,,,,,,,,,,,,,,,,,,,,,,,,,,,,,,,,,,,,,,,,,,,,,,,,,,,,LE4AFC,train_x,red_square,top_right,2025-08-07_12h18.19.542,HideSeek_v1,2022.2.5,59.95351204655068,
,7,8,3,8,-4,0,56,,train_dim1_1,4,30,,,,2,0,2,0,,,,,,,,,0,0,0,0,0,3,3,3,4,0,4,0,,,,,,,,,,,,,,,,,,,,,,,,,,,,,,,,,,,,,,,,,,,,,,,,,,,,,,,,,,,,,,,,30,,,,,,,,681.6619686000004,681.6619686000004,681.6619686000004,681.6619686000004,681.6619686000004,return,1.2280520999993314,4,0,0,1,0.07999999999999997,0.24,return,1.1486986000008983,0,-8,0.07999999999999997,0.24,,,,,,,,,,,,,,,,,,,,,,,,,,,,,,,,,,,,,,,,,,,,,,,,,,,,,,,,LE4AFC,train_x,red_square,top_right,2025-08-07_12h18.19.542,HideSeek_v1,2022.2.5,59.95351204655068,
,5,7,0,7,-5,0,66,,train_dim1_1,5,30,,,,2,0,2,0,,,,,,,,,0,0,0,0,0,4,4,4,0,0,0,0,,,,,,,,,,,,,,,,,,,,,,,,,stimuli/alien_stimuli/66.png,,,,,,,,,,,,,,,,,,,,,,,,,,,,,stimuli/alien_stimuli/56.png,56,7,6,,,,,,,30,,,,,,,,690.3158161000001,690.3158161000001,690.3158161000001,690.3158161000001,690.3158161000001,left,2.686974199999895,4,0,0,99,0.15999999999999998,0.16,left,2.6029399000008198,,,,,688.7398577000004,0.08,0.24,0.0,0.32,0.24,0.08,0.24000000000000002,0.08,0.24,684.4885125999999,684.4885125999999,684.4885125999999,684.4885125999999,684.4885125999999,684.4885125999999,684.4885125999999,684.4885125999999,684.4815797000005,4.376565300000038,return,4.232747699999891,,,,,,,,,,,,,,,,,,,,,,,,,,,,,,,,,,LE4AFC,train_x,red_square,top_right,2025-08-07_12h18.19.542,HideSeek_v1,2022.2.5,59.95351204655068,
,5,7,0,7,-5,0,66,,train_dim1_1,5,30,,,,2,0,2,0,,,,,,,,,0,0,0,0,0,4,4,4,1,0,1,0,,,,,,,,,,,,,,,,,,,,,,,,,,,,,,,,,,,,,,,,,,,,,,,,,,,,,,,,,,,,,,,,30,,,,,,,,693.0024246000003,693.0024246000003,693.0024246000003,693.0024246000003,693.0024246000003,left,0.4764452999997957,4,0,0,99,0.07999999999999997,0.16,left,0.40323609999995824,,,,,,,,,,,,,,,,,,,,,,,,,,,,,,,,,,,,,,,,,,,,,,,,,,,,,,,,,,,,LE4AFC,train_x,red_square,top_right,2025-08-07_12h18.19.542,HideSeek_v1,2022.2.5,59.95351204655068,
,5,7,0,7,-5,0,66,,train_dim1_1,5,30,,,,2,0,2,0,,,,,,,,,0,0,0,0,0,4,4,4,2,0,2,0,,,,,,,,,,,,,,,,,,,,,,,,,,,,,,,,,,,,,,,,,,,,,,,,,,,,,,,,,,,,,,,,30,,,,,,,,693.4879059000004,693.4879059000004,693.4879059000004,693.4879059000004,693.4879059000004,left,0.4424490000001242,4,0,0,99,-2.7755575615628914e-17,0.16,left,0.3585326000002169,,,,,,,,,,,,,,,,,,,,,,,,,,,,,,,,,,,,,,,,,,,,,,,,,,,,,,,,,,,,LE4AFC,train_x,red_square,top_right,2025-08-07_12h18.19.542,HideSeek_v1,2022.2.5,59.95351204655068,
,5,7,0,7,-5,0,66,,train_dim1_1,5,30,,,,2,0,2,0,,,,,,,,,0,0,0,0,0,4,4,4,3,0,3,0,,,,,,,,,,,,,,,,,,,,,,,,,,,,,,,,,,,,,,,,,,,,,,,,,,,,,,,,,,,,,,,,30,,,,,,,,693.9362666000006,693.9362666000006,693.9362666000006,693.9362666000006,693.9362666000006,left,0.3769886999998562,4,0,0,99,-0.08000000000000003,0.16,left,0.3013927000001786,,,,,,,,,,,,,,,,,,,,,,,,,,,,,,,,,,,,,,,,,,,,,,,,,,,,,,,,,,,,LE4AFC,train_x,red_square,top_right,2025-08-07_12h18.19.542,HideSeek_v1,2022.2.5,59.95351204655068,
,5,7,0,7,-5,0,66,,train_dim1_1,5,30,,,,2,0,2,0,,,,,,,,,0,0,0,0,0,4,4,4,4,0,4,0,,,,,,,,,,,,,,,,,,,,,,,,,,,,,,,,,,,,,,,,,,,,,,,,,,,,,,,,,,,,,,,,30,,,,,,,,694.3206660000005,694.3206660000005,694.3206660000005,694.3206660000005,694.3206660000005,left,0.3764000000001033,4,0,0,99,-0.16000000000000003,0.16,left,0.29441380000025674,,,,,,,,,,,,,,,,,,,,,,,,,,,,,,,,,,,,,,,,,,,,,,,,,,,,,,,,,,,,LE4AFC,train_x,red_square,top_right,2025-08-07_12h18.19.542,HideSeek_v1,2022.2.5,59.95351204655068,
,5,7,0,7,-5,0,66,,train_dim1_1,5,30,,,,2,0,2,0,,,,,,,,,0,0,0,0,0,4,4,4,5,0,5,0,,,,,,,,,,,,,,,,,,,,,,,,,,,,,,,,,,,,,,,,,,,,,,,,,,,,,,,,,,,,,,,,30,,,,,,,,694.7043632000004,694.7043632000004,694.7043632000004,694.7043632000004,694.7043632000004,return,0.39341460000014195,5,0,0,1,-0.16000000000000003,0.16,return,0.30981619999965915,0,-13,-0.16000000000000003,0.16,,,,,,,,,,,,,,,,,,,,,,,,,,,,,,,,,,,,,,,,,,,,,,,,,,,,,,,,LE4AFC,train_x,red_square,top_right,2025-08-07_12h18.19.542,HideSeek_v1,2022.2.5,59.95351204655068,
,5,5,4,5,-1,0,26,,train_dim1_1,6,30,,,,2,0,2,0,,,,,,,,,0,0,0,0,0,5,5,5,0,0,0,0,,,,,,,,,,,,,,,,,,,,,,,,,stimuli/alien_stimuli/26.png,,,,,,,,,,,,,,,,,,,,,,,,,,,,,stimuli/alien_stimuli/66.png,66,5,7,,,,,,,30,,,,,,,,699.7127257000002,699.7127257000002,699.7127257000002,699.7127257000002,699.7127257000002,return,1.70397629999934,5,1,0,0,0.24,0,return,1.5847312000005331,0,-13,0.24,0,698.1265380000004,-0.16,0.16,0.0,0.4,0.16,-0.16,0.039999999999999994,-0.16,0.16,696.6728392000005,696.6728392000005,696.6728392000005,696.6728392000005,696.6728392000005,696.6728392000005,696.6728392000005,696.6728392000005,696.6584153000003,1.5638970999998492,return,1.422559600000568,696.6728392000005,,,,,,,,,,,,,,,,,,,,,,,,,,,,,,,,,LE4AFC,train_x,red_square,top_right,2025-08-07_12h18.19.542,HideSeek_v1,2022.2.5,59.95351204655068,
,8,5,3,5,-5,0,66,,train_dim1_1,7,30,,,,2,0,2,0,,,,,,,,,0,0,0,0,0,6,6,6,0,0,0,0,,,,,,,,,,,,,,,,,,,,,,,,,stimuli/alien_stimuli/66.png,,,,,,,,,,,,,,,,,,,,,,,,,,,,,stimuli/alien_stimuli/26.png,26,5,8,,,,,,,30,,,,,,,,710.5151108,710.5151108,710.5151108,710.5151108,710.5151108,left,2.5874825999999302,5,1,0,99,0.39999999999999997,0,left,2.4938580999996702,,,,,708.9407977000001,0.16,0,0.0,0.08,0.0,0.16,0.2,0.16,0,702.9761601999999,702.9761601999999,702.9761601999999,702.9761601999999,702.9761601999999,702.9761601999999,702.9761601999999,702.9761601999999,702.9634872000006,6.078982700000779,return,5.932308800000101,,,,,,,,,,,,,,,,,,,,,,,,,,,,,,,,,,LE4AFC,train_x,red_square,top_right,2025-08-07_12h18.19.542,HideSeek_v1,2022.2.5,59.95351204655068,
,8,5,3,5,-5,0,66,,train_dim1_1,7,30,,,,2,0,2,0,,,,,,,,,0,0,0,0,0,6,6,6,1,0,1,0,,,,,,,,,,,,,,,,,,,,,,,,,,,,,,,,,,,,,,,,,,,,,,,,,,,,,,,,,,,,,,,,30,,,,,,,,713.1021667000005,713.1021667000005,713.1021667000005,713.1021667000005,713.1021667000005,left,0.4939615999992384,5,1,0,99,0.31999999999999995,0,left,0.409571600000163,,,,,,,,,,,,,,,,,,,,,,,,,,,,,,,,,,,,,,,,,,,,,,,,,,,,,,,,,,,,LE4AFC,train_x,red_square,top_right,2025-08-07_12h18.19.542,HideSeek_v1,2022.2.5,59.95351204655068,
,8,5,3,5,-5,0,66,,train_dim1_1,7,30,,,,2,0,2,0,,,,,,,,,0,0,0,0,0,6,6,6,2,0,2,0,,,,,,,,,,,,,,,,,,,,,,,,,,,,,,,,,,,,,,,,,,,,,,,,,,,,,,,,,,,,,,,,30,,,,,,,,713.6042555000004,713.6042555000004,713.6042555000004,713.6042555000004,713.6042555000004,left,0.5597453000000314,5,1,0,99,0.23999999999999994,0,left,0.4800103000006857,,,,,,,,,,,,,,,,,,,,,,,,,,,,,,,,,,,,,,,,,,,,,,,,,,,,,,,,,,,,LE4AFC,train_x,red_square,top_right,2025-08-07_12h18.19.542,HideSeek_v1,2022.2.5,59.95351204655068,
,8,5,3,5,-5,0,66,,train_dim1_1,7,30,,,,2,0,2,0,,,,,,,,,0,0,0,0,0,6,6,6,3,0,3,0,,,,,,,,,,,,,,,,,,,,,,,,,,,,,,,,,,,,,,,,,,,,,,,,,,,,,,,,,,,,,,,,30,,,,,,,,714.1706128000005,714.1706128000005,714.1706128000005,714.1706128000005,714.1706128000005,left,0.5263537000000724,5,1,0,99,0.15999999999999992,0,left,0.4433059000002686,,,,,,,,,,,,,,,,,,,,,,,,,,,,,,,,,,,,,,,,,,,,,,,,,,,,,,,,,,,,LE4AFC,train_x,red_square,top_right,2025-08-07_12h18.19.542,HideSeek_v1,2022.2.5,59.95351204655068,
,8,5,3,5,-5,0,66,,train_dim1_1,7,30,,,,2,0,2,0,,,,,,,,,0,0,0,0,0,6,6,6,4,0,4,0,,,,,,,,,,,,,,,,,,,,,,,,,,,,,,,,,,,,,,,,,,,,,,,,,,,,,,,,,,,,,,,,30,,,,,,,,714.7040797999998,714.7040797999998,714.7040797999998,714.7040797999998,714.7040797999998,left,0.526825099999769,5,1,0,99,0.07999999999999992,0,left,0.44730970000000525,,,,,,,,,,,,,,,,,,,,,,,,,,,,,,,,,,,,,,,,,,,,,,,,,,,,,,,,,,,,LE4AFC,train_x,red_square,top_right,2025-08-07_12h18.19.542,HideSeek_v1,2022.2.5,59.95351204655068,
,8,5,3,5,-5,0,66,,train_dim1_1,7,30,,,,2,0,2,0,,,,,,,,,0,0,0,0,0,6,6,6,5,0,5,0,,,,,,,,,,,,,,,,,,,,,,,,,,,,,,,,,,,,,,,,,,,,,,,,,,,,,,,,,,,,,,,,30,,,,,,,,715.2374215999998,715.2374215999998,715.2374215999998,715.2374215999998,715.2374215999998,return,2.1278149999998277,6,0,0,1,0.07999999999999992,0,return,2.048706499999753,0,-18,0.07999999999999992,0,,,,,,,,,,,,,,,,,,,,,,,,,,,,,,,,,,,,,,,,,,,,,,,,,,,,,,,,LE4AFC,train_x,red_square,top_right,2025-08-07_12h18.19.542,HideSeek_v1,2022.2.5,59.95351204655068,
,5,9,2,9,-3,0,46,,train_dim1_1,8,30,,,,2,0,2,0,,,,,,,,,0,0,0,0,0,7,7,7,0,0,0,0,,,,,,,,,,,,,,,,,,,,,,,,,stimuli/alien_stimuli/46.png,,,,,,,,,,,,,,,,,,,,,,,,,,,,,stimuli/alien_stimuli/66.png,66,8,9,,,,,,,30,,,,,,,,723.1902053000003,723.1902053000003,723.1902053000003,723.1902053000003,723.1902053000003,left,3.105742000000646,6,0,0,99,0.15999999999999998,0.32,left,3.016062600000623,,,,,721.6232992000005,0.08,0,0.0,0.4,0.0,0.08,0.27999999999999997,0.08,0,718.9313323000006,718.9313323000006,718.9313323000006,718.9313323000006,718.9313323000006,718.9313323000006,718.9313323000006,718.9313323000006,718.9104445,2.7931618000002345,return,2.662713700000495,718.9313323000006,,,,,,,,,,,,,,,,,,,,,,,,,,,,,,,,,LE4AFC,train_x,red_square,top_right,2025-08-07_12h18.19.542,HideSeek_v1,2022.2.5,59.95351204655068,
,5,9,2,9,-3,0,46,,train_dim1_1,8,30,,,,2,0,2,0,,,,,,,,,0,0,0,0,0,7,7,7,1,0,1,0,,,,,,,,,,,,,,,,,,,,,,,,,,,,,,,,,,,,,,,,,,,,,,,,,,,,,,,,,,,,,,,,30,,,,,,,,726.2968559999999,726.2968559999999,726.2968559999999,726.2968559999999,726.2968559999999,left,0.39265230000000884,6,0,0,99,0.07999999999999997,0.32,left,0.3165924000004452,,,,,,,,,,,,,,,,,,,,,,,,,,,,,,,,,,,,,,,,,,,,,,,,,,,,,,,,,,,,LE4AFC,train_x,red_square,top_right,2025-08-07_12h18.19.542,HideSeek_v1,2022.2.5,59.95351204655068,
,5,9,2,9,-3,0,46,,train_dim1_1,8,30,,,,2,0,2,0,,,,,,,,,0,0,0,0,0,7,7,7,2,0,2,0,,,,,,,,,,,,,,,,,,,,,,,,,,,,,,,,,,,,,,,,,,,,,,,,,,,,,,,,,,,,,,,,30,,,,,,,,726.6969779000001,726.6969779000001,726.6969779000001,726.6969779000001,726.6969779000001,left,0.3598765999995521,6,0,0,99,-2.7755575615628914e-17,0.32,left,0.28273730000000796,,,,,,,,,,,,,,,,,,,,,,,,,,,,,,,,,,,,,,,,,,,,,,,,,,,,,,,,,,,,LE4AFC,train_x,red_square,top_right,2025-08-07_12h18.19.542,HideSeek_v1,2022.2.5,59.95351204655068,
,5,9,2,9,-3,0,46,,train_dim1_1,8,30,,,,2,0,2,0,,,,,,,,,0,0,0,0,0,7,7,7,3,0,3,0,,,,,,,,,,,,,,,,,,,,,,,,,,,,,,,,,,,,,,,,,,,,,,,,,,,,,,,,,,,,,,,,30,,,,,,,,727.0636314000003,727.0636314000003,727.0636314000003,727.0636314000003,727.0636314000003,return,0.36044789999959903,7,0,0,1,-2.7755575615628914e-17,0.32,return,0.27412900000035734,0,-21,-2.7755575615628914e-17,0.32,,,,,,,,,,,,,,,,,,,,,,,,,,,,,,,,,,,,,,,,,,,,,,,,,,,,,,,,LE4AFC,train_x,red_square,top_right,2025-08-07_12h18.19.542,HideSeek_v1,2022.2.5,59.95351204655068,
,6,5,2,5,-4,0,56,,train_dim1_1,9,30,,,,2,0,2,0,,,,,,,,,0,0,0,0,0,8,8,8,0,0,0,0,,,,,,,,,,,,,,,,,,,,,,,,,stimuli/alien_stimuli/56.png,,,,,,,,,,,,,,,,,,,,,,,,,,,,,stimuli/alien_stimuli/46.png,46,5,10,,,,,,,30,,,,,,,,732.5161583999998,732.5161583999998,732.5161583999998,732.5161583999998,732.5161583999998,left,3.0061126000000513,7,0,0,99,0.24,0,left,2.9056686000003538,,,,,730.9254876000005,0,0.32,0.0,0.24,0.32,0,0.12,0,0.32,729.0017778000001,729.0017778000001,729.0017778000001,729.0017778000001,729.0017778000001,729.0017778000001,729.0017778000001,729.0017778000001,728.9851781000004,2.0257714999997916,return,1.9042396000004373,,,,,,,,,,,,,,,,,,,,,,,,,,,,,,,,,,LE4AFC,train_x,red_square,top_right,2025-08-07_12h18.19.542,HideSeek_v1,2022.2.5,59.95351204655068,
,6,5,2,5,-4,0,56,,train_dim1_1,9,30,,,,2,0,2,0,,,,,,,,,0,0,0,0,0,8,8,8,1,0,1,0,,,,,,,,,,,,,,,,,,,,,,,,,,,,,,,,,,,,,,,,,,,,,,,,,,,,,,,,,,,,,,,,30,,,,,,,,735.5065030000005,735.5065030000005,735.5065030000005,735.5065030000005,735.5065030000005,left,0.39323630000035337,7,0,0,99,0.15999999999999998,0,left,0.30317180000020016,,,,,,,,,,,,,,,,,,,,,,,,,,,,,,,,,,,,,,,,,,,,,,,,,,,,,,,,,,,,LE4AFC,train_x,red_square,top_right,2025-08-07_12h18.19.542,HideSeek_v1,2022.2.5,59.95351204655068,
,6,5,2,5,-4,0,56,,train_dim1_1,9,30,,,,2,0,2,0,,,,,,,,,0,0,0,0,0,8,8,8,2,0,2,0,,,,,,,,,,,,,,,,,,,,,,,,,,,,,,,,,,,,,,,,,,,,,,,,,,,,,,,,,,,,,,,,30,,,,,,,,735.9072820000001,735.9072820000001,735.9072820000001,735.9072820000001,735.9072820000001,left,0.37596690000009403,7,0,0,99,0.07999999999999997,0,left,0.2987860000002911,,,,,,,,,,,,,,,,,,,,,,,,,,,,,,,,,,,,,,,,,,,,,,,,,,,,,,,,,,,,LE4AFC,train_x,red_square,top_right,2025-08-07_12h18.19.542,HideSeek_v1,2022.2.5,59.95351204655068,
,6,5,2,5,-4,0,56,,train_dim1_1,9,30,,,,2,0,2,0,,,,,,,,,0,0,0,0,0,8,8,8,3,0,3,0,,,,,,,,,,,,,,,,,,,,,,,,,,,,,,,,,,,,,,,,,,,,,,,,,,,,,,,,,,,,,,,,30,,,,,,,,736.2903784,736.2903784,736.2903784,736.2903784,736.2903784,left,0.30996219999997265,7,0,0,99,-2.7755575615628914e-17,0,left,0.2355515999997806,,,,,,,,,,,,,,,,,,,,,,,,,,,,,,,,,,,,,,,,,,,,,,,,,,,,,,,,,,,,LE4AFC,train_x,red_square,top_right,2025-08-07_12h18.19.542,HideSeek_v1,2022.2.5,59.95351204655068,
,6,5,2,5,-4,0,56,,train_dim1_1,9,30,,,,2,0,2,0,,,,,,,,,0,0,0,0,0,8,8,8,4,0,4,0,,,,,,,,,,,,,,,,,,,,,,,,,,,,,,,,,,,,,,,,,,,,,,,,,,,,,,,,,,,,,,,,30,,,,,,,,736.6064483,736.6064483,736.6064483,736.6064483,736.6064483,return,0.27652320000015607,8,0,0,1,-2.7755575615628914e-17,0,return,0.2031219999998939,0,-25,-2.7755575615628914e-17,0,,,,,,,,,,,,,,,,,,,,,,,,,,,,,,,,,,,,,,,,,,,,,,,,,,,,,,,,LE4AFC,train_x,red_square,top_right,2025-08-07_12h18.19.542,HideSeek_v1,2022.2.5,59.95351204655068,
,5,8,5,8,0,0,16,,train_dim1_1,10,30,,,,2,0,2,0,,,,,,,,,0,0,0,0,0,9,9,9,0,0,0,0,,,,,,,,,,,,,,,,,,,,,,,,,stimuli/alien_stimuli/16.png,,,,,,,,,,,,,,,,,,,,,,,,,,,,,stimuli/alien_stimuli/56.png,56,6,11,,,,,,,30,,,,,,,,741.6276432000004,741.6276432000004,741.6276432000004,741.6276432000004,741.6276432000004,return,2.458438499999829,9,0,0,1,0.24,0.24,return,2.3475303000004715,0,-25,0.24,0.24,740.0325499999999,0,0,0.0,0.32,0.0,0,0.16,0,0,738.4498655000007,738.4498655000007,738.4498655000007,738.4498655000007,738.4498655000007,738.4498655000007,738.4498655000007,738.4498655000007,738.4430588000005,1.6909164999997301,return,1.548384000000624,738.4498655000007,,,,,,,,,,,,,,,,,,,,,,,,,,,,,,,,,LE4AFC,train_x,red_square,top_right,2025-08-07_12h18.19.542,HideSeek_v1,2022.2.5,59.95351204655068,
,7,7,4,7,-3,0,46,,train_dim1_1,11,30,,,,2,0,2,0,,,,,,,,,0,0,0,0,0,10,10,10,0,0,0,0,,,,,,,,,,,,,,,,,,,,,,,,,stimuli/alien_stimuli/46.png,,,,,,,,,,,,,,,,,,,,,,,,,,,,,stimuli/alien_stimuli/16.png,16,5,12,,,,,,,30,,,,,,,,749.1104630999998,749.1104630999998,749.1104630999998,749.1104630999998,749.1104630999998,left,2.4234121999998024,9,0,0,99,0.32,0.16,left,2.3412748999999167,,,,,747.5510039999999,0.24,0.24,0.0,0.0,0.24,0.24,0.24,0.24,0.24,745.6422634,745.6422634,745.6422634,745.6422634,745.6422634,745.6422634,745.6422634,745.6422634,745.6324586000001,2.014675599999464,return,1.8647727999996278,,,,,,,,,,,,,,,,,,,,,,,,,,,,,,,,,,LE4AFC,train_x,red_square,top_right,2025-08-07_12h18.19.542,HideSeek_v1,2022.2.5,59.95351204655068,
,7,7,4,7,-3,0,46,,train_dim1_1,11,30,,,,2,0,2,0,,,,,,,,,0,0,0,0,0,10,10,10,1,0,1,0,,,,,,,,,,,,,,,,,,,,,,,,,,,,,,,,,,,,,,,,,,,,,,,,,,,,,,,,,,,,,,,,30,,,,,,,,751.5357208000005,751.5357208000005,751.5357208000005,751.5357208000005,751.5357208000005,left,0.3594033999997919,9,0,0,99,0.24,0.16,left,0.2848786000004111,,,,,,,,,,,,,,,,,,,,,,,,,,,,,,,,,,,,,,,,,,,,,,,,,,,,,,,,,,,,LE4AFC,train_x,red_square,top_right,2025-08-07_12h18.19.542,HideSeek_v1,2022.2.5,59.95351204655068,
,7,7,4,7,-3,0,46,,train_dim1_1,11,30,,,,2,0,2,0,,,,,,,,,0,0,0,0,0,10,10,10,2,0,2,0,,,,,,,,,,,,,,,,,,,,,,,,,,,,,,,,,,,,,,,,,,,,,,,,,,,,,,,,,,,,,,,,30,,,,,,,,751.9010176000002,751.9010176000002,751.9010176000002,751.9010176000002,751.9010176000002,left,0.3764139000004434,9,0,0,99,0.15999999999999998,0.16,left,0.3034159000008003,,,,,,,,,,,,,,,,,,,,,,,,,,,,,,,,,,,,,,,,,,,,,,,,,,,,,,,,,,,,LE4AFC,train_x,red_square,top_right,2025-08-07_12h18.19.542,HideSeek_v1,2022.2.5,59.95351204655068,
,7,7,4,7,-3,0,46,,train_dim1_1,11,30,,,,2,0,2,0,,,,,,,,,0,0,0,0,0,10,10,10,3,0,3,0,,,,,,,,,,,,,,,,,,,,,,,,,,,,,,,,,,,,,,,,,,,,,,,,,,,,,,,,,,,,,,,,30,,,,,,,,752.2846946,752.2846946,752.2846946,752.2846946,752.2846946,return,1.0936850000007325,10,0,0,1,0.15999999999999998,0.16,return,1.0090282999999545,0,-28,0.15999999999999998,0.16,,,,,,,,,,,,,,,,,,,,,,,,,,,,,,,,,,,,,,,,,,,,,,,,,,,,,,,,LE4AFC,train_x,red_square,top_right,2025-08-07_12h18.19.542,HideSeek_v1,2022.2.5,59.95351204655068,
,5,5,4,5,-1,0,26,,train_dim1_1,12,30,,,,2,0,2,0,,,,,,,,,0,0,0,0,0,11,11,11,0,0,0,0,,,,,,,,,,,,,,,,,,,,,,,,,stimuli/alien_stimuli/26.png,,,,,,,,,,,,,,,,,,,,,,,,,,,,,stimuli/alien_stimuli/46.png,46,7,13,,,,,,,30,,,,,,,,757.6852667000003,757.6852667000003,757.6852667000003,757.6852667000003,757.6852667000003,left,1.7896006000000853,10,0,0,99,0.15999999999999998,0,left,1.692128099999536,,,,,756.1080994000004,0.16,0.16,0.0,0.24,0.16,0.16,0.28,0.16,0.16,754.9427615000004,754.9427615000004,754.9427615000004,754.9427615000004,754.9427615000004,754.9427615000004,754.9427615000004,754.9427615000004,754.9235733000003,1.2638152999998056,return,1.137617200000932,754.9427615000004,,,,,,,,,,,,,,,,,,,,,,,,,,,,,,,,,LE4AFC,train_x,red_square,top_right,2025-08-07_12h18.19.542,HideSeek_v1,2022.2.5,59.95351204655068,
,5,5,4,5,-1,0,26,,train_dim1_1,12,30,,,,2,0,2,0,,,,,,,,,0,0,0,0,0,11,11,11,1,0,1,0,,,,,,,,,,,,,,,,,,,,,,,,,,,,,,,,,,,,,,,,,,,,,,,,,,,,,,,,,,,,,,,,30,,,,,,,,759.4629734,759.4629734,759.4629734,759.4629734,759.4629734,return,0.30890550000003714,11,0,0,1,0.15999999999999998,0,return,0.21756460000051447,0,-29,0.15999999999999998,0,,,,,,,,,,,,,,,,,,,,,,,,,,,,,,,,,,,,,,,,,,,,,,,,,,,,,,,,LE4AFC,train_x,red_square,top_right,2025-08-07_12h18.19.542,HideSeek_v1,2022.2.5,59.95351204655068,
,5,9,1,9,-4,0,56,,train_dim1_1,13,30,,,,2,0,2,0,,,,,,,,,0,0,0,0,0,12,12,12,0,0,0,0,,,,,,,,,,,,,,,,,,,,,,,,,stimuli/alien_stimuli/56.png,,,,,,,,,,,,,,,,,,,,,,,,,,,,,stimuli/alien_stimuli/26.png,26,5,14,,,,,,,30,,,,,,,,763.8051292,763.8051292,763.8051292,763.8051292,763.8051292,left,1.8575816000002305,11,0,0,99,0.15999999999999998,0.32,left,1.7711603999996441,,,,,762.2340672,0.16,0,0.0,0.08,0.0,0.16,0.2,0.16,0,761.3373398000003,761.3373398000003,761.3373398000003,761.3373398000003,761.3373398000003,761.3373398000003,761.3373398000003,761.3373398000003,761.3289855000003,1.0059753000005003,return,0.8726017999997566,761.3373398000003,,,,,,,,,,,,,,,,,,,,,,,,,,,,,,,,,LE4AFC,train_x,red_square,top_right,2025-08-07_12h18.19.542,HideSeek_v1,2022.2.5,59.95351204655068,
,5,9,1,9,-4,0,56,,train_dim1_1,13,30,,,,2,0,2,0,,,,,,,,,0,0,0,0,0,12,12,12,1,0,1,0,,,,,,,,,,,,,,,,,,,,,,,,,,,,,,,,,,,,,,,,,,,,,,,,,,,,,,,,,,,,,,,,30,,,,,,,,765.6647410000005,765.6647410000005,765.6647410000005,765.6647410000005,765.6647410000005,left,0.4261943000001338,11,0,0,99,0.07999999999999997,0.32,left,0.33686690000013186,,,,,,,,,,,,,,,,,,,,,,,,,,,,,,,,,,,,,,,,,,,,,,,,,,,,,,,,,,,,LE4AFC,train_x,red_square,top_right,2025-08-07_12h18.19.542,HideSeek_v1,2022.2.5,59.95351204655068,
,5,9,1,9,-4,0,56,,train_dim1_1,13,30,,,,2,0,2,0,,,,,,,,,0,0,0,0,0,12,12,12,2,0,2,0,,,,,,,,,,,,,,,,,,,,,,,,,,,,,,,,,,,,,,,,,,,,,,,,,,,,,,,,,,,,,,,,30,,,,,,,,766.099827,766.099827,766.099827,766.099827,766.099827,left,0.34313189999920723,11,0,0,99,-2.7755575615628914e-17,0.32,left,0.2643372000002273,,,,,,,,,,,,,,,,,,,,,,,,,,,,,,,,,,,,,,,,,,,,,,,,,,,,,,,,,,,,LE4AFC,train_x,red_square,top_right,2025-08-07_12h18.19.542,HideSeek_v1,2022.2.5,59.95351204655068,
,5,9,1,9,-4,0,56,,train_dim1_1,13,30,,,,2,0,2,0,,,,,,,,,0,0,0,0,0,12,12,12,3,0,3,0,,,,,,,,,,,,,,,,,,,,,,,,,,,,,,,,,,,,,,,,,,,,,,,,,,,,,,,,,,,,,,,,30,,,,,,,,766.4483991000006,766.4483991000006,766.4483991000006,766.4483991000006,766.4483991000006,left,0.4264696999998705,11,0,0,99,-0.08000000000000003,0.32,left,0.34619199999997363,,,,,,,,,,,,,,,,,,,,,,,,,,,,,,,,,,,,,,,,,,,,,,,,,,,,,,,,,,,,LE4AFC,train_x,red_square,top_right,2025-08-07_12h18.19.542,HideSeek_v1,2022.2.5,59.95351204655068,
,5,9,1,9,-4,0,56,,train_dim1_1,13,30,,,,2,0,2,0,,,,,,,,,0,0,0,0,0,12,12,12,4,0,4,0,,,,,,,,,,,,,,,,,,,,,,,,,,,,,,,,,,,,,,,,,,,,,,,,,,,,,,,,,,,,,,,,30,,,,,,,,766.8824705000006,766.8824705000006,766.8824705000006,766.8824705000006,766.8824705000006,return,0.3601075000005949,12,0,0,1,-0.08000000000000003,0.32,return,0.27255370000057155,0,-33,-0.08000000000000003,0.32,,,,,,,,,,,,,,,,,,,,,,,,,,,,,,,,,,,,,,,,,,,,,,,,,,,,,,,,LE4AFC,train_x,red_square,top_right,2025-08-07_12h18.19.542,HideSeek_v1,2022.2.5,59.95351204655068,
,9,8,9,8,0,0,16,,train_dim1_1,14,30,,,,2,0,2,0,,,,,,,,,0,0,0,0,0,13,13,13,0,0,0,0,,,,,,,,,,,,,,,,,,,,,,,,,stimuli/alien_stimuli/16.png,,,,,,,,,,,,,,,,,,,,,,,,,,,,,stimuli/alien_stimuli/56.png,56,5,15,,,,,,,30,,,,,,,,771.4836659000002,771.4836659000002,771.4836659000002,771.4836659000002,771.4836659000002,return,1.3217668999996022,13,0,0,1,0.56,0.24,return,1.2235458000004655,0,-33,0.56,0.24,769.9054557999998,-0.08,0.32,0.0,0.32,0.32,-0.08,0.07999999999999999,-0.08,0.32,768.8215968000004,768.8215968000004,768.8215968000004,768.8215968000004,768.8215968000004,768.8215968000004,768.8215968000004,768.8215968000004,768.8022488000006,1.2039998000000196,return,1.0578107000001182,768.8215968000004,,,,,,,,,,,,,,,,,,,,,,,,,,,,,,,,,LE4AFC,train_x,red_square,top_right,2025-08-07_12h18.19.542,HideSeek_v1,2022.2.5,59.95351204655068,
,9,7,4,7,-5,0,66,,train_dim1_1,15,30,,,,2,0,2,0,,,,,,,,,0,0,0,0,0,14,14,14,0,0,0,0,,,,,,,,,,,,,,,,,,,,,,,,,stimuli/alien_stimuli/66.png,,,,,,,,,,,,,,,,,,,,,,,,,,,,,stimuli/alien_stimuli/16.png,16,9,16,,,,,,,30,,,,,,,,776.8157931000005,776.8157931000005,776.8157931000005,776.8157931000005,776.8157931000005,left,1.5731517000003805,13,0,0,99,0.48000000000000004,0.16,left,1.4899783999999272,,,,,775.2511301000004,0.56,0.24,0.0,0.0,0.24,0.56,0.56,0.56,0.24,774.3716863999998,774.3716863999998,774.3716863999998,774.3716863999998,774.3716863999998,774.3716863999998,774.3716863999998,774.3716863999998,774.3565002000005,0.9913930000002438,return,0.8505828999996083,774.3716863999998,,,,,,,,,,,,,,,,,,,,,,,,,,,,,,,,,LE4AFC,train_x,red_square,top_right,2025-08-07_12h18.19.542,HideSeek_v1,2022.2.5,59.95351204655068,
,9,7,4,7,-5,0,66,,train_dim1_1,15,30,,,,2,0,2,0,,,,,,,,,0,0,0,0,0,14,14,14,1,0,1,0,,,,,,,,,,,,,,,,,,,,,,,,,,,,,,,,,,,,,,,,,,,,,,,,,,,,,,,,,,,,,,,,30,,,,,,,,778.3901347999999,778.3901347999999,778.3901347999999,778.3901347999999,778.3901347999999,left,0.34267369999997754,13,0,0,99,0.4,0.16,left,0.2557472999997117,,,,,,,,,,,,,,,,,,,,,,,,,,,,,,,,,,,,,,,,,,,,,,,,,,,,,,,,,,,,LE4AFC,train_x,red_square,top_right,2025-08-07_12h18.19.542,HideSeek_v1,2022.2.5,59.95351204655068,
,9,7,4,7,-5,0,66,,train_dim1_1,15,30,,,,2,0,2,0,,,,,,,,,0,0,0,0,0,14,14,14,2,0,2,0,,,,,,,,,,,,,,,,,,,,,,,,,,,,,,,,,,,,,,,,,,,,,,,,,,,,,,,,,,,,,,,,30,,,,,,,,778.7412045000001,778.7412045000001,778.7412045000001,778.7412045000001,778.7412045000001,left,0.3429684000002453,13,0,0,99,0.32,0.16,left,0.261731200000213,,,,,,,,,,,,,,,,,,,,,,,,,,,,,,,,,,,,,,,,,,,,,,,,,,,,,,,,,,,,LE4AFC,train_x,red_square,top_right,2025-08-07_12h18.19.542,HideSeek_v1,2022.2.5,59.95351204655068,
,9,7,4,7,-5,0,66,,train_dim1_1,15,30,,,,2,0,2,0,,,,,,,,,0,0,0,0,0,14,14,14,3,0,3,0,,,,,,,,,,,,,,,,,,,,,,,,,,,,,,,,,,,,,,,,,,,,,,,,,,,,,,,,,,,,,,,,30,,,,,,,,779.0909661000005,779.0909661000005,779.0909661000005,779.0909661000005,779.0909661000005,left,0.37630039999930887,13,0,0,99,0.24,0.16,left,0.29594209999959276,,,,,,,,,,,,,,,,,,,,,,,,,,,,,,,,,,,,,,,,,,,,,,,,,,,,,,,,,,,,LE4AFC,train_x,red_square,top_right,2025-08-07_12h18.19.542,HideSeek_v1,2022.2.5,59.95351204655068,
,9,7,4,7,-5,0,66,,train_dim1_1,15,30,,,,2,0,2,0,,,,,,,,,0,0,0,0,0,14,14,14,4,0,4,0,,,,,,,,,,,,,,,,,,,,,,,,,,,,,,,,,,,,,,,,,,,,,,,,,,,,,,,,,,,,,,,,30,,,,,,,,779.4754268000006,779.4754268000006,779.4754268000006,779.4754268000006,779.4754268000006,left,0.3765249000007316,13,0,0,99,0.15999999999999998,0.16,left,0.2966508999998041,,,,,,,,,,,,,,,,,,,,,,,,,,,,,,,,,,,,,,,,,,,,,,,,,,,,,,,,,,,,LE4AFC,train_x,red_square,top_right,2025-08-07_12h18.19.542,HideSeek_v1,2022.2.5,59.95351204655068,
,9,7,4,7,-5,0,66,,train_dim1_1,15,30,,,,2,0,2,0,,,,,,,,,0,0,0,0,0,14,14,14,5,0,5,0,,,,,,,,,,,,,,,,,,,,,,,,,,,,,,,,,,,,,,,,,,,,,,,,,,,,,,,,,,,,,,,,30,,,,,,,,779.8575022000005,779.8575022000005,779.8575022000005,779.8575022000005,779.8575022000005,return,0.2431710999999268,14,0,0,1,0.15999999999999998,0.16,return,0.16912760000013805,0,-38,0.15999999999999998,0.16,,,,,,,,,,,,,,,,,,,,,,,,,,,,,,,,,,,,,,,,,,,,,,,,,,,,,,,,LE4AFC,train_x,red_square,top_right,2025-08-07_12h18.19.542,HideSeek_v1,2022.2.5,59.95351204655068,
,8,8,4,8,-4,0,56,,train_dim1_1,16,30,,,,2,0,2,0,,,,,,,,,0,0,0,0,0,15,15,15,0,0,0,0,,,,,,,,,,,,,,,,,,,,,,,,,stimuli/alien_stimuli/56.png,,,,,,,,,,,,,,,,,,,,,,,,,,,,,stimuli/alien_stimuli/66.png,66,9,17,,,,,,,30,,,,,,,,783.8057960000006,783.8057960000006,783.8057960000006,783.8057960000006,783.8057960000006,left,1.6574313999999504,14,0,0,99,0.39999999999999997,0.24,left,1.5703419000001304,,,,,782.2323180000003,0.16,0.16,0.0,0.4,0.16,0.16,0.36000000000000004,0.16,0.16,781.6626944999998,781.6626944999998,781.6626944999998,781.6626944999998,781.6626944999998,781.6626944999998,781.6626944999998,781.6626944999998,781.6457248000004,0.6714796999995087,return,0.5472745999995823,781.6626944999998,,,,,,,,,,,,,,,,,,,,,,,,,,,,,,,,,LE4AFC,train_x,red_square,top_right,2025-08-07_12h18.19.542,HideSeek_v1,2022.2.5,59.95351204655068,
,8,8,4,8,-4,0,56,,train_dim1_1,16,30,,,,2,0,2,0,,,,,,,,,0,0,0,0,0,15,15,15,1,0,1,0,,,,,,,,,,,,,,,,,,,,,,,,,,,,,,,,,,,,,,,,,,,,,,,,,,,,,,,,,,,,,,,,30,,,,,,,,785.4658061999999,785.4658061999999,785.4658061999999,785.4658061999999,785.4658061999999,left,0.2925175999998828,14,0,0,99,0.31999999999999995,0.24,left,0.20687920000000304,,,,,,,,,,,,,,,,,,,,,,,,,,,,,,,,,,,,,,,,,,,,,,,,,,,,,,,,,,,,LE4AFC,train_x,red_square,top_right,2025-08-07_12h18.19.542,HideSeek_v1,2022.2.5,59.95351204655068,
,8,8,4,8,-4,0,56,,train_dim1_1,16,30,,,,2,0,2,0,,,,,,,,,0,0,0,0,0,15,15,15,2,0,2,0,,,,,,,,,,,,,,,,,,,,,,,,,,,,,,,,,,,,,,,,,,,,,,,,,,,,,,,,,,,,,,,,30,,,,,,,,785.7645608000003,785.7645608000003,785.7645608000003,785.7645608000003,785.7645608000003,left,0.32665780000024824,14,0,0,99,0.23999999999999994,0.24,left,0.24921720000020287,,,,,,,,,,,,,,,,,,,,,,,,,,,,,,,,,,,,,,,,,,,,,,,,,,,,,,,,,,,,LE4AFC,train_x,red_square,top_right,2025-08-07_12h18.19.542,HideSeek_v1,2022.2.5,59.95351204655068,
,8,8,4,8,-4,0,56,,train_dim1_1,16,30,,,,2,0,2,0,,,,,,,,,0,0,0,0,0,15,15,15,3,0,3,0,,,,,,,,,,,,,,,,,,,,,,,,,,,,,,,,,,,,,,,,,,,,,,,,,,,,,,,,,,,,,,,,30,,,,,,,,786.0987719000004,786.0987719000004,786.0987719000004,786.0987719000004,786.0987719000004,left,0.3090283999999883,14,0,0,99,0.15999999999999992,0.24,left,0.23368940000091243,,,,,,,,,,,,,,,,,,,,,,,,,,,,,,,,,,,,,,,,,,,,,,,,,,,,,,,,,,,,LE4AFC,train_x,red_square,top_right,2025-08-07_12h18.19.542,HideSeek_v1,2022.2.5,59.95351204655068,
,8,8,4,8,-4,0,56,,train_dim1_1,16,30,,,,2,0,2,0,,,,,,,,,0,0,0,0,0,15,15,15,4,0,4,0,,,,,,,,,,,,,,,,,,,,,,,,,,,,,,,,,,,,,,,,,,,,,,,,,,,,,,,,,,,,,,,,30,,,,,,,,786.4153139,786.4153139,786.4153139,786.4153139,786.4153139,return,0.2599480999997468,15,0,0,1,0.15999999999999992,0.24,return,0.17843489999995654,0,-42,0.15999999999999992,0.24,,,,,,,,,,,,,,,,,,,,,,,,,,,,,,,,,,,,,,,,,,,,,,,,,,,,,,,,LE4AFC,train_x,red_square,top_right,2025-08-07_12h18.19.542,HideSeek_v1,2022.2.5,59.95351204655068,
,7,9,6,9,-1,0,26,,train_dim1_1,17,30,,,,2,0,2,0,,,,,,,,,0,0,0,0,0,16,16,16,0,0,0,0,,,,,,,,,,,,,,,,,,,,,,,,,stimuli/alien_stimuli/26.png,,,,,,,,,,,,,,,,,,,,,,,,,,,,,stimuli/alien_stimuli/56.png,56,8,18,,,,,,,30,,,,,,,,790.4357085000001,790.4357085000001,790.4357085000001,790.4357085000001,790.4357085000001,left,1.6370829999996204,15,0,0,99,0.32,0.32,left,1.5378212000005078,,,,,788.8547982999999,0.16,0.24,0.0,0.32,0.24,0.16,0.32,0.16,0.24,788.2398580999998,788.2398580999998,788.2398580999998,788.2398580999998,788.2398580999998,788.2398580999998,788.2398580999998,788.2398580999998,788.2178172000001,0.7214656999994986,return,0.5930932999999641,788.2398580999998,,,,,,,,,,,,,,,,,,,,,,,,,,,,,,,,,LE4AFC,train_x,red_square,top_right,2025-08-07_12h18.19.542,HideSeek_v1,2022.2.5,59.95351204655068,
,7,9,6,9,-1,0,26,,train_dim1_1,17,30,,,,2,0,2,0,,,,,,,,,0,0,0,0,0,16,16,16,1,0,1,0,,,,,,,,,,,,,,,,,,,,,,,,,,,,,,,,,,,,,,,,,,,,,,,,,,,,,,,,,,,,,,,,30,,,,,,,,792.0720484000003,792.0720484000003,792.0720484000003,792.0720484000003,792.0720484000003,return,0.27831309999965015,16,0,0,1,0.32,0.32,return,0.19335340000088763,0,-43,0.32,0.32,,,,,,,,,,,,,,,,,,,,,,,,,,,,,,,,,,,,,,,,,,,,,,,,,,,,,,,,LE4AFC,train_x,red_square,top_right,2025-08-07_12h18.19.542,HideSeek_v1,2022.2.5,59.95351204655068,
,7,6,2,6,-5,0,66,,train_dim1_1,18,30,,,,2,0,2,0,,,,,,,,,0,0,0,0,0,17,17,17,0,0,0,0,,,,,,,,,,,,,,,,,,,,,,,,,stimuli/alien_stimuli/66.png,,,,,,,,,,,,,,,,,,,,,,,,,,,,,stimuli/alien_stimuli/26.png,26,7,19,,,,,,,30,,,,,,,,796.1837916000004,796.1837916000004,796.1837916000004,796.1837916000004,796.1837916000004,left,1.4226873999996315,16,0,0,99,0.32,0.08,left,1.3318841000009343,,,,,794.6235339000004,0.32,0.32,0.0,0.08,0.32,0.32,0.36,0.32,0.32,793.9333133,793.9333133,793.9333133,793.9333133,793.9333133,793.9333133,793.9333133,793.9333133,793.9228251000004,0.7969423000004099,return,0.6534260999997059,,,,,,,,,,,,,,,,,,,,,,,,,,,,,,,,,,LE4AFC,train_x,red_square,top_right,2025-08-07_12h18.19.542,HideSeek_v1,2022.2.5,59.95351204655068,
,7,6,2,6,-5,0,66,,train_dim1_1,18,30,,,,2,0,2,0,,,,,,,,,0,0,0,0,0,17,17,17,1,0,1,0,,,,,,,,,,,,,,,,,,,,,,,,,,,,,,,,,,,,,,,,,,,,,,,,,,,,,,,,,,,,,,,,30,,,,,,,,797.6065198000006,797.6065198000006,797.6065198000006,797.6065198000006,797.6065198000006,left,0.3095069999999396,16,0,0,99,0.24,0.08,left,0.23008420000041951,,,,,,,,,,,,,,,,,,,,,,,,,,,,,,,,,,,,,,,,,,,,,,,,,,,,,,,,,,,,LE4AFC,train_x,red_square,top_right,2025-08-07_12h18.19.542,HideSeek_v1,2022.2.5,59.95351204655068,
,7,6,2,6,-5,0,66,,train_dim1_1,18,30,,,,2,0,2,0,,,,,,,,,0,0,0,0,0,17,17,17,2,0,2,0,,,,,,,,,,,,,,,,,,,,,,,,,,,,,,,,,,,,,,,,,,,,,,,,,,,,,,,,,,,,,,,,30,,,,,,,,797.9224494,797.9224494,797.9224494,797.9224494,797.9224494,left,0.3598142999999254,16,0,0,99,0.15999999999999998,0.08,left,0.28021759999955975,,,,,,,,,,,,,,,,,,,,,,,,,,,,,,,,,,,,,,,,,,,,,,,,,,,,,,,,,,,,LE4AFC,train_x,red_square,top_right,2025-08-07_12h18.19.542,HideSeek_v1,2022.2.5,59.95351204655068,
,7,6,2,6,-5,0,66,,train_dim1_1,18,30,,,,2,0,2,0,,,,,,,,,0,0,0,0,0,17,17,17,3,0,3,0,,,,,,,,,,,,,,,,,,,,,,,,,,,,,,,,,,,,,,,,,,,,,,,,,,,,,,,,,,,,,,,,30,,,,,,,,798.2897204999999,798.2897204999999,798.2897204999999,798.2897204999999,798.2897204999999,left,0.41007059999992634,16,0,0,99,0.07999999999999997,0.08,left,0.3266737000003559,,,,,,,,,,,,,,,,,,,,,,,,,,,,,,,,,,,,,,,,,,,,,,,,,,,,,,,,,,,,LE4AFC,train_x,red_square,top_right,2025-08-07_12h18.19.542,HideSeek_v1,2022.2.5,59.95351204655068,
,7,6,2,6,-5,0,66,,train_dim1_1,18,30,,,,2,0,2,0,,,,,,,,,0,0,0,0,0,17,17,17,4,0,4,0,,,,,,,,,,,,,,,,,,,,,,,,,,,,,,,,,,,,,,,,,,,,,,,,,,,,,,,,,,,,,,,,30,,,,,,,,798.7065711000005,798.7065711000005,798.7065711000005,798.7065711000005,798.7065711000005,left,0.30956629999946017,16,0,0,99,-2.7755575615628914e-17,0.08,left,0.23799570000028325,,,,,,,,,,,,,,,,,,,,,,,,,,,,,,,,,,,,,,,,,,,,,,,,,,,,,,,,,,,,LE4AFC,train_x,red_square,top_right,2025-08-07_12h18.19.542,HideSeek_v1,2022.2.5,59.95351204655068,
,7,6,2,6,-5,0,66,,train_dim1_1,18,30,,,,2,0,2,0,,,,,,,,,0,0,0,0,0,17,17,17,5,0,5,0,,,,,,,,,,,,,,,,,,,,,,,,,,,,,,,,,,,,,,,,,,,,,,,,,,,,,,,,,,,,,,,,30,,,,,,,,799.0229249000004,799.0229249000004,799.0229249000004,799.0229249000004,799.0229249000004,return,0.24336119999952643,17,0,0,1,-2.7755575615628914e-17,0.08,return,0.16373589999966498,0,-48,-2.7755575615628914e-17,0.08,,,,,,,,,,,,,,,,,,,,,,,,,,,,,,,,,,,,,,,,,,,,,,,,,,,,,,,,LE4AFC,train_x,red_square,top_right,2025-08-07_12h18.19.542,HideSeek_v1,2022.2.5,59.95351204655068,
,5,8,2,8,-3,0,46,,train_dim1_1,19,30,,,,2,0,2,0,,,,,,,,,0,0,0,0,0,18,18,18,0,0,0,0,,,,,,,,,,,,,,,,,,,,,,,,,stimuli/alien_stimuli/46.png,,,,,,,,,,,,,,,,,,,,,,,,,,,,,stimuli/alien_stimuli/66.png,66,7,20,,,,,,,30,,,,,,,,803.0889123000006,803.0889123000006,803.0889123000006,803.0889123000006,803.0889123000006,left,1.5562835000000632,17,0,0,99,0.15999999999999998,0.24,left,1.4684865999997783,,,,,801.5294199,0,0.08,0.0,0.4,0.08,0,0.2,0,0.08,800.8298708000002,800.8298708000002,800.8298708000002,800.8298708000002,800.8298708000002,800.8298708000002,800.8298708000002,800.8298708000002,800.8116219999999,0.7973494999996547,return,0.6588839999994889,800.8298708000002,,,,,,,,,,,,,,,,,,,,,,,,,,,,,,,,,LE4AFC,train_x,red_square,top_right,2025-08-07_12h18.19.542,HideSeek_v1,2022.2.5,59.95351204655068,
,5,8,2,8,-3,0,46,,train_dim1_1,19,30,,,,2,0,2,0,,,,,,,,,0,0,0,0,0,18,18,18,1,0,1,0,,,,,,,,,,,,,,,,,,,,,,,,,,,,,,,,,,,,,,,,,,,,,,,,,,,,,,,,,,,,,,,,30,,,,,,,,804.6461213000002,804.6461213000002,804.6461213000002,804.6461213000002,804.6461213000002,left,0.3093490000001111,17,0,0,99,0.07999999999999997,0.24,left,0.22693960000015068,,,,,,,,,,,,,,,,,,,,,,,,,,,,,,,,,,,,,,,,,,,,,,,,,,,,,,,,,,,,LE4AFC,train_x,red_square,top_right,2025-08-07_12h18.19.542,HideSeek_v1,2022.2.5,59.95351204655068,
,5,8,2,8,-3,0,46,,train_dim1_1,19,30,,,,2,0,2,0,,,,,,,,,0,0,0,0,0,18,18,18,2,0,2,0,,,,,,,,,,,,,,,,,,,,,,,,,,,,,,,,,,,,,,,,,,,,,,,,,,,,,,,,,,,,,,,,30,,,,,,,,804.9625297000002,804.9625297000002,804.9625297000002,804.9625297000002,804.9625297000002,left,0.4765308999994886,17,0,0,99,-2.7755575615628914e-17,0.24,left,0.40287829999942915,,,,,,,,,,,,,,,,,,,,,,,,,,,,,,,,,,,,,,,,,,,,,,,,,,,,,,,,,,,,LE4AFC,train_x,red_square,top_right,2025-08-07_12h18.19.542,HideSeek_v1,2022.2.5,59.95351204655068,
,5,8,2,8,-3,0,46,,train_dim1_1,19,30,,,,2,0,2,0,,,,,,,,,0,0,0,0,0,18,18,18,3,0,3,0,,,,,,,,,,,,,,,,,,,,,,,,,,,,,,,,,,,,,,,,,,,,,,,,,,,,,,,,,,,,,,,,30,,,,,,,,805.4456522,805.4456522,805.4456522,805.4456522,805.4456522,return,0.6601424000000407,18,0,0,1,-2.7755575615628914e-17,0.24,return,0.5784621000002517,0,-51,-2.7755575615628914e-17,0.24,,,,,,,,,,,,,,,,,,,,,,,,,,,,,,,,,,,,,,,,,,,,,,,,,,,,,,,,LE4AFC,train_x,red_square,top_right,2025-08-07_12h18.19.542,HideSeek_v1,2022.2.5,59.95351204655068,
,5,6,5,6,0,0,16,,train_dim1_1,20,30,,,,2,0,2,0,,,,,,,,,0,0,0,0,0,19,19,19,0,0,0,0,,,,,,,,,,,,,,,,,,,,,,,,,stimuli/alien_stimuli/16.png,,,,,,,,,,,,,,,,,,,,,,,,,,,,,stimuli/alien_stimuli/46.png,46,5,21,,,,,,,30,,,,,,,,809.8300663,809.8300663,809.8300663,809.8300663,809.8300663,return,1.5741181000003053,19,0,0,1,0.24,0.08,return,1.4767621000000872,0,-51,0.24,0.08,808.2542561999999,0,0.24,0.0,0.24,0.24,0,0.12,0,0.24,807.6689415999999,807.6689415999999,807.6689415999999,807.6689415999999,807.6689415999999,807.6689415999999,807.6689415999999,807.6689415999999,807.6508268000005,0.6878219000000172,return,0.5548609999996188,807.6689415999999,,,,,,,,,,,,,,,,,,,,,,,,,,,,,,,,,LE4AFC,train_x,red_square,top_right,2025-08-07_12h18.19.542,HideSeek_v1,2022.2.5,59.95351204655068,
,9,7,6,7,-3,0,46,,train_dim1_1,21,30,,,,2,0,2,0,,,,,,,,,0,0,0,0,0,20,20,20,0,0,0,0,,,,,,,,,,,,,,,,,,,,,,,,,stimuli/alien_stimuli/46.png,,,,,,,,,,,,,,,,,,,,,,,,,,,,,stimuli/alien_stimuli/16.png,16,5,22,,,,,,,30,,,,,,,,815.2151541000003,815.2151541000003,815.2151541000003,815.2151541000003,815.2151541000003,left,1.3713389999993524,19,0,0,99,0.48000000000000004,0.16,left,1.2853609000003416,,,,,813.6559645000007,0.24,0.08,0.0,0.0,0.08,0.24,0.24,0.24,0.08,812.9631964,812.9631964,812.9631964,812.9631964,812.9631964,812.9631964,812.9631964,812.9631964,812.9551588000004,0.7964409999995041,return,0.6569318000001658,812.9631964,,,,,,,,,,,,,,,,,,,,,,,,,,,,,,,,,LE4AFC,train_x,red_square,top_right,2025-08-07_12h18.19.542,HideSeek_v1,2022.2.5,59.95351204655068,
,9,7,6,7,-3,0,46,,train_dim1_1,21,30,,,,2,0,2,0,,,,,,,,,0,0,0,0,0,20,20,20,1,0,1,0,,,,,,,,,,,,,,,,,,,,,,,,,,,,,,,,,,,,,,,,,,,,,,,,,,,,,,,,,,,,,,,,30,,,,,,,,816.5881301,816.5881301,816.5881301,816.5881301,816.5881301,left,0.3596996999995099,19,0,0,99,0.4,0.16,left,0.2747943000003943,,,,,,,,,,,,,,,,,,,,,,,,,,,,,,,,,,,,,,,,,,,,,,,,,,,,,,,,,,,,LE4AFC,train_x,red_square,top_right,2025-08-07_12h18.19.542,HideSeek_v1,2022.2.5,59.95351204655068,
,9,7,6,7,-3,0,46,,train_dim1_1,21,30,,,,2,0,2,0,,,,,,,,,0,0,0,0,0,20,20,20,2,0,2,0,,,,,,,,,,,,,,,,,,,,,,,,,,,,,,,,,,,,,,,,,,,,,,,,,,,,,,,,,,,,,,,,30,,,,,,,,816.9552050000002,816.9552050000002,816.9552050000002,816.9552050000002,816.9552050000002,left,0.47676380000029894,19,0,0,99,0.32,0.16,left,0.4033689999996568,,,,,,,,,,,,,,,,,,,,,,,,,,,,,,,,,,,,,,,,,,,,,,,,,,,,,,,,,,,,LE4AFC,train_x,red_square,top_right,2025-08-07_12h18.19.542,HideSeek_v1,2022.2.5,59.95351204655068,
,9,7,6,7,-3,0,46,,train_dim1_1,21,30,,,,2,0,2,0,,,,,,,,,0,0,0,0,0,20,20,20,3,0,3,0,,,,,,,,,,,,,,,,,,,,,,,,,,,,,,,,,,,,,,,,,,,,,,,,,,,,,,,,,,,,,,,,30,,,,,,,,817.4385055000002,817.4385055000002,817.4385055000002,817.4385055000002,817.4385055000002,return,0.7767866000003778,20,0,0,1,0.32,0.16,return,0.6888814000003549,0,-54,0.32,0.16,,,,,,,,,,,,,,,,,,,,,,,,,,,,,,,,,,,,,,,,,,,,,,,,,,,,,,,,LE4AFC,train_x,red_square,top_right,2025-08-07_12h18.19.542,HideSeek_v1,2022.2.5,59.95351204655068,
,6,5,5,5,-1,0,26,,train_dim1_1,22,30,,,,2,0,2,0,,,,,,,,,0,0,0,0,0,21,21,21,0,0,0,0,,,,,,,,,,,,,,,,,,,,,,,,,stimuli/alien_stimuli/26.png,,,,,,,,,,,,,,,,,,,,,,,,,,,,,stimuli/alien_stimuli/46.png,46,9,23,,,,,,,30,,,,,,,,821.6418373000006,821.6418373000006,821.6418373000006,821.6418373000006,821.6418373000006,left,2.2390437999993082,20,0,0,99,0.24,0,left,2.1413299999994706,,,,,820.0639201000004,0.32,0.16,0.0,0.24,0.16,0.32,0.44000000000000006,0.32,0.16,819.7785404000006,819.7785404000006,819.7785404000006,819.7785404000006,819.7785404000006,819.7785404000006,819.7785404000006,819.7785404000006,819.7606325000004,0.388031299999966,return,0.2507283999993888,819.7785404000006,,,,,,,,,,,,,,,,,,,,,,,,,,,,,,,,,LE4AFC,train_x,red_square,top_right,2025-08-07_12h18.19.542,HideSeek_v1,2022.2.5,59.95351204655068,
,6,5,5,5,-1,0,26,,train_dim1_1,22,30,,,,2,0,2,0,,,,,,,,,0,0,0,0,0,21,21,21,1,0,1,0,,,,,,,,,,,,,,,,,,,,,,,,,,,,,,,,,,,,,,,,,,,,,,,,,,,,,,,,,,,,,,,,30,,,,,,,,823.8827323000005,823.8827323000005,823.8827323000005,823.8827323000005,823.8827323000005,return,0.14539539999987028,21,0,0,1,0.24,0,return,0.05908070000077714,0,-55,0.24,0,,,,,,,,,,,,,,,,,,,,,,,,,,,,,,,,,,,,,,,,,,,,,,,,,,,,,,,,LE4AFC,train_x,red_square,top_right,2025-08-07_12h18.19.542,HideSeek_v1,2022.2.5,59.95351204655068,
,7,6,2,6,-5,0,66,,train_dim1_1,23,30,,,,2,0,2,0,,,,,,,,,0,0,0,0,0,22,22,22,0,0,0,0,,,,,,,,,,,,,,,,,,,,,,,,,stimuli/alien_stimuli/66.png,,,,,,,,,,,,,,,,,,,,,,,,,,,,,stimuli/alien_stimuli/26.png,26,6,24,,,,,,,30,,,,,,,,827.4896202,827.4896202,827.4896202,827.4896202,827.4896202,left,1.2309912999999142,21,0,0,99,0.32,0.08,left,1.116342999999688,,,,,825.8876664999998,0.24,0,0.0,0.08,0.0,0.24,0.28,0.24,0,825.6086544,825.6086544,825.6086544,825.6086544,825.6086544,825.6086544,825.6086544,825.6086544,825.5989979000005,0.39205779999974766,return,0.2616340000004129,,,,,,,,,,,,,,,,,,,,,,,,,,,,,,,,,,LE4AFC,train_x,red_square,top_right,2025-08-07_12h18.19.542,HideSeek_v1,2022.2.5,59.95351204655068,
,7,6,2,6,-5,0,66,,train_dim1_1,23,30,,,,2,0,2,0,,,,,,,,,0,0,0,0,0,22,22,22,1,0,1,0,,,,,,,,,,,,,,,,,,,,,,,,,,,,,,,,,,,,,,,,,,,,,,,,,,,,,,,,,,,,,,,,30,,,,,,,,828.6996096000003,828.6996096000003,828.6996096000003,828.6996096000003,828.6996096000003,left,0.3091094000001249,21,0,0,99,0.24,0.08,left,0.23213959999975486,,,,,,,,,,,,,,,,,,,,,,,,,,,,,,,,,,,,,,,,,,,,,,,,,,,,,,,,,,,,LE4AFC,train_x,red_square,top_right,2025-08-07_12h18.19.542,HideSeek_v1,2022.2.5,59.95351204655068,
,7,6,2,6,-5,0,66,,train_dim1_1,23,30,,,,2,0,2,0,,,,,,,,,0,0,0,0,0,22,22,22,2,0,2,0,,,,,,,,,,,,,,,,,,,,,,,,,,,,,,,,,,,,,,,,,,,,,,,,,,,,,,,,,,,,,,,,30,,,,,,,,829.0157840000002,829.0157840000002,829.0157840000002,829.0157840000002,829.0157840000002,left,0.3929358000004868,21,0,0,99,0.15999999999999998,0.08,left,0.31413849999989907,,,,,,,,,,,,,,,,,,,,,,,,,,,,,,,,,,,,,,,,,,,,,,,,,,,,,,,,,,,,LE4AFC,train_x,red_square,top_right,2025-08-07_12h18.19.542,HideSeek_v1,2022.2.5,59.95351204655068,
,7,6,2,6,-5,0,66,,train_dim1_1,23,30,,,,2,0,2,0,,,,,,,,,0,0,0,0,0,22,22,22,3,0,3,0,,,,,,,,,,,,,,,,,,,,,,,,,,,,,,,,,,,,,,,,,,,,,,,,,,,,,,,,,,,,,,,,30,,,,,,,,829.4154875000004,829.4154875000004,829.4154875000004,829.4154875000004,829.4154875000004,left,0.41087919999972655,21,0,0,99,0.07999999999999997,0.08,left,0.3314641000006304,,,,,,,,,,,,,,,,,,,,,,,,,,,,,,,,,,,,,,,,,,,,,,,,,,,,,,,,,,,,LE4AFC,train_x,red_square,top_right,2025-08-07_12h18.19.542,HideSeek_v1,2022.2.5,59.95351204655068,
,7,6,2,6,-5,0,66,,train_dim1_1,23,30,,,,2,0,2,0,,,,,,,,,0,0,0,0,0,22,22,22,4,0,4,0,,,,,,,,,,,,,,,,,,,,,,,,,,,,,,,,,,,,,,,,,,,,,,,,,,,,,,,,,,,,,,,,30,,,,,,,,829.8328842999999,829.8328842999999,829.8328842999999,829.8328842999999,829.8328842999999,left,0.3591544000000795,21,0,0,99,-2.7755575615628914e-17,0.08,left,0.2761382999997295,,,,,,,,,,,,,,,,,,,,,,,,,,,,,,,,,,,,,,,,,,,,,,,,,,,,,,,,,,,,LE4AFC,train_x,red_square,top_right,2025-08-07_12h18.19.542,HideSeek_v1,2022.2.5,59.95351204655068,
,7,6,2,6,-5,0,66,,train_dim1_1,23,30,,,,2,0,2,0,,,,,,,,,0,0,0,0,0,22,22,22,5,0,5,0,,,,,,,,,,,,,,,,,,,,,,,,,,,,,,,,,,,,,,,,,,,,,,,,,,,,,,,,,,,,,,,,30,,,,,,,,830.1988718000002,830.1988718000002,830.1988718000002,830.1988718000002,830.1988718000002,return,0.3433835000005274,22,0,0,1,-2.7755575615628914e-17,0.08,return,0.25950509999984206,0,-60,-2.7755575615628914e-17,0.08,,,,,,,,,,,,,,,,,,,,,,,,,,,,,,,,,,,,,,,,,,,,,,,,,,,,,,,,LE4AFC,train_x,red_square,top_right,2025-08-07_12h18.19.542,HideSeek_v1,2022.2.5,59.95351204655068,
,9,9,5,9,-4,0,56,,train_dim1_1,24,30,,,,2,0,2,0,,,,,,,,,0,0,0,0,0,23,23,23,0,0,0,0,,,,,,,,,,,,,,,,,,,,,,,,,stimuli/alien_stimuli/56.png,,,,,,,,,,,,,,,,,,,,,,,,,,,,,stimuli/alien_stimuli/66.png,66,7,25,,,,,,,30,,,,,,,,834.3842162000001,834.3842162000001,834.3842162000001,834.3842162000001,834.3842162000001,left,1.4213142999997217,22,0,0,99,0.48000000000000004,0.32,left,1.3408873000007588,,,,,832.8089897999998,0,0.08,0.0,0.4,0.08,0,0.2,0,0.08,832.1214817999999,832.1214817999999,832.1214817999999,832.1214817999999,832.1214817999999,832.1214817999999,832.1214817999999,832.1214817999999,832.1043502999999,0.7897954000000027,return,0.6534424999999828,,,,,,,,,,,,,,,,,,,,,,,,,,,,,,,,,,LE4AFC,train_x,red_square,top_right,2025-08-07_12h18.19.542,HideSeek_v1,2022.2.5,59.95351204655068,
,9,9,5,9,-4,0,56,,train_dim1_1,24,30,,,,2,0,2,0,,,,,,,,,0,0,0,0,0,23,23,23,1,0,1,0,,,,,,,,,,,,,,,,,,,,,,,,,,,,,,,,,,,,,,,,,,,,,,,,,,,,,,,,,,,,,,,,30,,,,,,,,835.8069569999998,835.8069569999998,835.8069569999998,835.8069569999998,835.8069569999998,left,0.39259450000008655,22,0,0,99,0.4,0.32,left,0.3132327000002988,,,,,,,,,,,,,,,,,,,,,,,,,,,,,,,,,,,,,,,,,,,,,,,,,,,,,,,,,,,,LE4AFC,train_x,red_square,top_right,2025-08-07_12h18.19.542,HideSeek_v1,2022.2.5,59.95351204655068,
,9,9,5,9,-4,0,56,,train_dim1_1,24,30,,,,2,0,2,0,,,,,,,,,0,0,0,0,0,23,23,23,2,0,2,0,,,,,,,,,,,,,,,,,,,,,,,,,,,,,,,,,,,,,,,,,,,,,,,,,,,,,,,,,,,,,,,,30,,,,,,,,836.2065023000005,836.2065023000005,836.2065023000005,836.2065023000005,836.2065023000005,left,0.42667579999942973,22,0,0,99,0.32,0.32,left,0.35128420000000915,,,,,,,,,,,,,,,,,,,,,,,,,,,,,,,,,,,,,,,,,,,,,,,,,,,,,,,,,,,,LE4AFC,train_x,red_square,top_right,2025-08-07_12h18.19.542,HideSeek_v1,2022.2.5,59.95351204655068,
,9,9,5,9,-4,0,56,,train_dim1_1,24,30,,,,2,0,2,0,,,,,,,,,0,0,0,0,0,23,23,23,3,0,3,0,,,,,,,,,,,,,,,,,,,,,,,,,,,,,,,,,,,,,,,,,,,,,,,,,,,,,,,,,,,,,,,,30,,,,,,,,836.640418,836.640418,836.640418,836.640418,836.640418,left,0.4433887999994113,22,0,0,99,0.24,0.32,left,0.35579450000022916,,,,,,,,,,,,,,,,,,,,,,,,,,,,,,,,,,,,,,,,,,,,,,,,,,,,,,,,,,,,LE4AFC,train_x,red_square,top_right,2025-08-07_12h18.19.542,HideSeek_v1,2022.2.5,59.95351204655068,
,9,9,5,9,-4,0,56,,train_dim1_1,24,30,,,,2,0,2,0,,,,,,,,,0,0,0,0,0,23,23,23,4,0,4,0,,,,,,,,,,,,,,,,,,,,,,,,,,,,,,,,,,,,,,,,,,,,,,,,,,,,,,,,,,,,,,,,30,,,,,,,,837.0915199000001,837.0915199000001,837.0915199000001,837.0915199000001,837.0915199000001,return,0.3599060999995345,23,0,0,1,0.24,0.32,return,0.27267250000022614,0,-64,0.24,0.32,,,,,,,,,,,,,,,,,,,,,,,,,,,,,,,,,,,,,,,,,,,,,,,,,,,,,,,,LE4AFC,train_x,red_square,top_right,2025-08-07_12h18.19.542,HideSeek_v1,2022.2.5,59.95351204655068,
,8,5,8,5,0,0,16,,train_dim1_1,25,30,,,,2,0,2,0,,,,,,,,,0,0,0,0,0,24,24,24,0,0,0,0,,,,,,,,,,,,,,,,,,,,,,,,,stimuli/alien_stimuli/16.png,,,,,,,,,,,,,,,,,,,,,,,,,,,,,stimuli/alien_stimuli/56.png,56,9,26,,,,,,,30,,,,,,,,841.4102301000003,841.4102301000003,841.4102301000003,841.4102301000003,841.4102301000003,return,1.236916999998357,24,0,0,1,0.48,0,return,1.149917200001255,0,-64,0.48,0,839.8330252000005,0.24,0.32,0.0,0.32,0.32,0.24,0.4,0.24,0.32,839.0149195000004,839.0149195000004,839.0149195000004,839.0149195000004,839.0149195000004,839.0149195000004,839.0149195000004,839.0149195000004,838.9936947000003,0.9234418999994887,return,0.7953958000007333,839.0149195000004,,,,,,,,,,,,,,,,,,,,,,,,,,,,,,,,,LE4AFC,train_x,red_square,top_right,2025-08-07_12h18.19.542,HideSeek_v1,2022.2.5,59.95351204655068,
,6,6,1,6,-5,0,66,,train_dim1_1,26,30,,,,2,0,2,0,,,,,,,,,0,0,0,0,0,25,25,25,0,0,0,0,,,,,,,,,,,,,,,,,,,,,,,,,stimuli/alien_stimuli/66.png,,,,,,,,,,,,,,,,,,,,,,,,,,,,,stimuli/alien_stimuli/16.png,16,8,27,,,,,,,30,,,,,,,,846.3937442000006,846.3937442000006,846.3937442000006,846.3937442000006,846.3937442000006,left,0.8520810000009078,24,0,0,99,0.24,0.08,left,0.769854099999975,,,,,844.8332805999999,0.48,0,0.0,0.0,0.0,0.48,0.48,0.48,0,844.2225861000006,844.2225861000006,844.2225861000006,844.2225861000006,844.2225861000006,844.2225861000006,844.2225861000006,844.2225861000006,844.2142922000003,0.7209759999987,return,0.5862575000001016,846.3937442000006,,,,,,,,,,,,,,,,,,,,,,,,,,,,,,,,,LE4AFC,train_x,red_square,top_right,2025-08-07_12h18.19.542,HideSeek_v1,2022.2.5,59.95351204655068,
,6,6,1,6,-5,0,66,,train_dim1_1,26,30,,,,2,0,2,0,,,,,,,,,0,0,0,0,0,25,25,25,1,0,1,0,,,,,,,,,,,,,,,,,,,,,,,,,,,,,,,,,,,,,,,,,,,,,,,,,,,,,,,,,,,,,,,,30,,,,,,,,847.2470996000011,847.2470996000011,847.2470996000011,847.2470996000011,847.2470996000011,left,0.3928258000014466,24,0,0,99,0.15999999999999998,0.08,left,0.3138165999998819,,,,,,,,,,,,,,,,,,,,,,,,,,,,,,,,,,,,,,,,,,,,,,,,,,,,,,,,,,,,LE4AFC,train_x,red_square,top_right,2025-08-07_12h18.19.542,HideSeek_v1,2022.2.5,59.95351204655068,
,6,6,1,6,-5,0,66,,train_dim1_1,26,30,,,,2,0,2,0,,,,,,,,,0,0,0,0,0,25,25,25,2,0,2,0,,,,,,,,,,,,,,,,,,,,,,,,,,,,,,,,,,,,,,,,,,,,,,,,,,,,,,,,,,,,,,,,30,,,,,,,,847.6468077999998,847.6468077999998,847.6468077999998,847.6468077999998,847.6468077999998,left,0.3931849999989936,24,0,0,99,0.07999999999999997,0.08,left,0.30775309999899036,,,,,,,,,,,,,,,,,,,,,,,,,,,,,,,,,,,,,,,,,,,,,,,,,,,,,,,,,,,,LE4AFC,train_x,red_square,top_right,2025-08-07_12h18.19.542,HideSeek_v1,2022.2.5,59.95351204655068,
,6,6,1,6,-5,0,66,,train_dim1_1,26,30,,,,2,0,2,0,,,,,,,,,0,0,0,0,0,25,25,25,3,0,3,0,,,,,,,,,,,,,,,,,,,,,,,,,,,,,,,,,,,,,,,,,,,,,,,,,,,,,,,,,,,,,,,,30,,,,,,,,848.0479300999996,848.0479300999996,848.0479300999996,848.0479300999996,848.0479300999996,left,0.3603770000008808,24,0,0,99,-2.7755575615628914e-17,0.08,left,0.27260370000021794,,,,,,,,,,,,,,,,,,,,,,,,,,,,,,,,,,,,,,,,,,,,,,,,,,,,,,,,,,,,LE4AFC,train_x,red_square,top_right,2025-08-07_12h18.19.542,HideSeek_v1,2022.2.5,59.95351204655068,
,6,6,1,6,-5,0,66,,train_dim1_1,26,30,,,,2,0,2,0,,,,,,,,,0,0,0,0,0,25,25,25,4,0,4,0,,,,,,,,,,,,,,,,,,,,,,,,,,,,,,,,,,,,,,,,,,,,,,,,,,,,,,,,,,,,,,,,30,,,,,,,,848.4152759000008,848.4152759000008,848.4152759000008,848.4152759000008,848.4152759000008,left,0.3764530999997078,24,0,0,99,-0.08000000000000003,0.08,left,0.3011309000003166,,,,,,,,,,,,,,,,,,,,,,,,,,,,,,,,,,,,,,,,,,,,,,,,,,,,,,,,,,,,LE4AFC,train_x,red_square,top_right,2025-08-07_12h18.19.542,HideSeek_v1,2022.2.5,59.95351204655068,
,6,6,1,6,-5,0,66,,train_dim1_1,26,30,,,,2,0,2,0,,,,,,,,,0,0,0,0,0,25,25,25,5,0,5,0,,,,,,,,,,,,,,,,,,,,,,,,,,,,,,,,,,,,,,,,,,,,,,,,,,,,,,,,,,,,,,,,30,,,,,,,,848.7982582999994,848.7982582999994,848.7982582999994,848.7982582999994,848.7982582999994,return,0.45994040000005043,25,0,0,1,-0.08000000000000003,0.08,return,0.37163280000004306,0,-69,-0.08000000000000003,0.08,,,,,,,,,,,,,,,,,,,,,,,,,,,,,,,,,,,,,,,,,,,,,,,,,,,,,,,,LE4AFC,train_x,red_square,top_right,2025-08-07_12h18.19.542,HideSeek_v1,2022.2.5,59.95351204655068,
,5,6,2,6,-3,0,46,,train_dim1_1,27,30,,,,2,0,2,0,,,,,,,,,0,0,0,0,0,26,26,26,0,0,0,0,,,,,,,,,,,,,,,,,,,,,,,,,stimuli/alien_stimuli/46.png,,,,,,,,,,,,,,,,,,,,,,,,,,,,,stimuli/alien_stimuli/66.png,66,6,28,,,,,,,30,,,,,,,,853.2318804000006,853.2318804000006,853.2318804000006,853.2318804000006,853.2318804000006,left,0.9388548000006267,25,0,0,99,0.15999999999999998,0.08,left,0.850864900000488,,,,,851.6648717000007,-0.08,0.08,0.0,0.4,0.08,-0.08,0.12,-0.08,0.08,850.8257073000004,850.8257073000004,850.8257073000004,850.8257073000004,850.8257073000004,850.8257073000004,850.8257073000004,850.8257073000004,850.8035103,0.9408504999992147,return,0.8030351999996128,850.8257073000004,,,,,,,,,,,,,,,,,,,,,,,,,,,,,,,,,LE4AFC,train_x,red_square,top_right,2025-08-07_12h18.19.542,HideSeek_v1,2022.2.5,59.95351204655068,
,5,6,2,6,-3,0,46,,train_dim1_1,27,30,,,,2,0,2,0,,,,,,,,,0,0,0,0,0,26,26,26,1,0,1,0,,,,,,,,,,,,,,,,,,,,,,,,,,,,,,,,,,,,,,,,,,,,,,,,,,,,,,,,,,,,,,,,30,,,,,,,,854.1707533999997,854.1707533999997,854.1707533999997,854.1707533999997,854.1707533999997,left,0.3600375999994867,25,0,0,99,0.07999999999999997,0.08,left,0.2825781999990795,,,,,,,,,,,,,,,,,,,,,,,,,,,,,,,,,,,,,,,,,,,,,,,,,,,,,,,,,,,,LE4AFC,train_x,red_square,top_right,2025-08-07_12h18.19.542,HideSeek_v1,2022.2.5,59.95351204655068,
,5,6,2,6,-3,0,46,,train_dim1_1,27,30,,,,2,0,2,0,,,,,,,,,0,0,0,0,0,26,26,26,2,0,2,0,,,,,,,,,,,,,,,,,,,,,,,,,,,,,,,,,,,,,,,,,,,,,,,,,,,,,,,,,,,,,,,,30,,,,,,,,854.5377745999995,854.5377745999995,854.5377745999995,854.5377745999995,854.5377745999995,left,0.3421053000001848,25,0,0,99,-2.7755575615628914e-17,0.08,left,0.2647169000001668,,,,,,,,,,,,,,,,,,,,,,,,,,,,,,,,,,,,,,,,,,,,,,,,,,,,,,,,,,,,LE4AFC,train_x,red_square,top_right,2025-08-07_12h18.19.542,HideSeek_v1,2022.2.5,59.95351204655068,
,5,6,2,6,-3,0,46,,train_dim1_1,27,30,,,,2,0,2,0,,,,,,,,,0,0,0,0,0,26,26,26,3,0,3,0,,,,,,,,,,,,,,,,,,,,,,,,,,,,,,,,,,,,,,,,,,,,,,,,,,,,,,,,,,,,,,,,30,,,,,,,,854.8867628999997,854.8867628999997,854.8867628999997,854.8867628999997,854.8867628999997,return,0.4099538999998913,26,0,0,1,-2.7755575615628914e-17,0.08,return,0.3317567999993116,0,-72,-2.7755575615628914e-17,0.08,,,,,,,,,,,,,,,,,,,,,,,,,,,,,,,,,,,,,,,,,,,,,,,,,,,,,,,,LE4AFC,train_x,red_square,top_right,2025-08-07_12h18.19.542,HideSeek_v1,2022.2.5,59.95351204655068,
,8,6,7,6,-1,0,26,,train_dim1_1,28,30,,,,2,0,2,0,,,,,,,,,0,0,0,0,0,27,27,27,0,0,0,0,,,,,,,,,,,,,,,,,,,,,,,,,stimuli/alien_stimuli/26.png,,,,,,,,,,,,,,,,,,,,,,,,,,,,,stimuli/alien_stimuli/46.png,46,5,29,,,,,,,30,,,,,,,,858.7373580000003,858.7373580000003,858.7373580000003,858.7373580000003,858.7373580000003,left,1.7903363999994326,26,0,0,99,0.39999999999999997,0.08,left,1.6951324000010572,,,,,857.1617975999998,0,0.08,0.0,0.24,0.08,0,0.12,0,0.08,856.8594458000007,856.8594458000007,856.8594458000007,856.8594458000007,856.8594458000007,856.8594458000007,856.8594458000007,856.8594458000007,856.8415616,0.4046221999997215,return,0.2749926000005871,856.8594458000007,,,,,,,,,,,,,,,,,,,,,,,,,,,,,,,,,LE4AFC,train_x,red_square,top_right,2025-08-07_12h18.19.542,HideSeek_v1,2022.2.5,59.95351204655068,
,8,6,7,6,-1,0,26,,train_dim1_1,28,30,,,,2,0,2,0,,,,,,,,,0,0,0,0,0,27,27,27,1,0,1,0,,,,,,,,,,,,,,,,,,,,,,,,,,,,,,,,,,,,,,,,,,,,,,,,,,,,,,,,,,,,,,,,30,,,,,,,,860.5296896,860.5296896,860.5296896,860.5296896,860.5296896,return,0.29272080000009737,27,0,0,1,0.39999999999999997,0.08,return,0.20858900000075664,0,-73,0.39999999999999997,0.08,,,,,,,,,,,,,,,,,,,,,,,,,,,,,,,,,,,,,,,,,,,,,,,,,,,,,,,,LE4AFC,train_x,red_square,top_right,2025-08-07_12h18.19.542,HideSeek_v1,2022.2.5,59.95351204655068,
,9,5,5,5,-4,0,56,,train_dim1_1,29,30,,,,2,0,2,0,,,,,,,,,0,0,0,0,0,28,28,28,0,0,0,0,,,,,,,,,,,,,,,,,,,,,,,,,stimuli/alien_stimuli/56.png,,,,,,,,,,,,,,,,,,,,,,,,,,,,,stimuli/alien_stimuli/26.png,26,8,30,,,,,,,30,,,,,,,,864.7253581000004,864.7253581000004,864.7253581000004,864.7253581000004,864.7253581000004,left,1.0717086999993626,27,0,0,99,0.48000000000000004,0,left,0.9768850999998904,,,,,863.1519019000007,0.4,0.08,0.0,0.08,0.08,0.4,0.44,0.4,0.08,862.3917906000006,862.3917906000006,862.3917906000006,862.3917906000006,862.3917906000006,862.3917906000006,862.3917906000006,862.3917906000006,862.3796710000006,0.8734030000014172,return,0.7294288999992204,862.3917906000006,,,,,,,,,,,,,,,,,,,,,,,,,,,,,,,,,LE4AFC,train_x,red_square,top_right,2025-08-07_12h18.19.542,HideSeek_v1,2022.2.5,59.95351204655068,
,9,5,5,5,-4,0,56,,train_dim1_1,29,30,,,,2,0,2,0,,,,,,,,,0,0,0,0,0,28,28,28,1,0,1,0,,,,,,,,,,,,,,,,,,,,,,,,,,,,,,,,,,,,,,,,,,,,,,,,,,,,,,,,,,,,,,,,30,,,,,,,,865.7985432999994,865.7985432999994,865.7985432999994,865.7985432999994,865.7985432999994,left,0.35920660000010685,27,0,0,99,0.4,0,left,0.27647240000169404,,,,,,,,,,,,,,,,,,,,,,,,,,,,,,,,,,,,,,,,,,,,,,,,,,,,,,,,,,,,LE4AFC,train_x,red_square,top_right,2025-08-07_12h18.19.542,HideSeek_v1,2022.2.5,59.95351204655068,
,9,5,5,5,-4,0,56,,train_dim1_1,29,30,,,,2,0,2,0,,,,,,,,,0,0,0,0,0,28,28,28,2,0,2,0,,,,,,,,,,,,,,,,,,,,,,,,,,,,,,,,,,,,,,,,,,,,,,,,,,,,,,,,,,,,,,,,30,,,,,,,,866.1648435000006,866.1648435000006,866.1648435000006,866.1648435000006,866.1648435000006,left,0.3767838000003394,27,0,0,99,0.32,0,left,0.29918629999974655,,,,,,,,,,,,,,,,,,,,,,,,,,,,,,,,,,,,,,,,,,,,,,,,,,,,,,,,,,,,LE4AFC,train_x,red_square,top_right,2025-08-07_12h18.19.542,HideSeek_v1,2022.2.5,59.95351204655068,
,9,5,5,5,-4,0,56,,train_dim1_1,29,30,,,,2,0,2,0,,,,,,,,,0,0,0,0,0,28,28,28,3,0,3,0,,,,,,,,,,,,,,,,,,,,,,,,,,,,,,,,,,,,,,,,,,,,,,,,,,,,,,,,,,,,,,,,30,,,,,,,,866.5483282000005,866.5483282000005,866.5483282000005,866.5483282000005,866.5483282000005,left,0.44312799999897834,27,0,0,99,0.24,0,left,0.3551502000000255,,,,,,,,,,,,,,,,,,,,,,,,,,,,,,,,,,,,,,,,,,,,,,,,,,,,,,,,,,,,LE4AFC,train_x,red_square,top_right,2025-08-07_12h18.19.542,HideSeek_v1,2022.2.5,59.95351204655068,
,9,5,5,5,-4,0,56,,train_dim1_1,29,30,,,,2,0,2,0,,,,,,,,,0,0,0,0,0,28,28,28,4,0,4,0,,,,,,,,,,,,,,,,,,,,,,,,,,,,,,,,,,,,,,,,,,,,,,,,,,,,,,,,,,,,,,,,30,,,,,,,,866.9985644999997,866.9985644999997,866.9985644999997,866.9985644999997,866.9985644999997,return,0.47669630000018515,28,0,0,1,0.24,0,return,0.39868919999844366,0,-77,0.24,0,,,,,,,,,,,,,,,,,,,,,,,,,,,,,,,,,,,,,,,,,,,,,,,,,,,,,,,,LE4AFC,train_x,red_square,top_right,2025-08-07_12h18.19.542,HideSeek_v1,2022.2.5,59.95351204655068,
,7,7,7,7,0,0,16,,train_dim1_1,30,30,,,,2,0,2,0,,,,,,,,,0,0,0,0,0,29,29,29,0,0,0,0,,,,,,,,,,,,,,,,,,,,,,,,,stimuli/alien_stimuli/16.png,,,,,,,,,,,,,,,,,,,,,,,,,,,,,stimuli/alien_stimuli/56.png,56,9,31,,,,,,,30,,,,,,,,872.4698234999996,872.4698234999996,872.4698234999996,872.4698234999996,872.4698234999996,return,1.1361973000002763,29,0,0,1,0.4,0.16,return,1.0419156999987536,0,-77,0.4,0.16,870.9053351000002,0.24,0,0.0,0.32,0.0,0.24,0.4,0.24,0,869.0550361999994,869.0550361999994,869.0550361999994,869.0550361999994,869.0550361999994,869.0550361999994,869.0550361999994,869.0550361999994,869.0346853000008,1.9559501000003365,return,1.8302724000013768,872.4698234999996,,,,,,,,,,,,,,,,,,,,,,,,,,,,,,,,,LE4AFC,train_x,red_square,top_right,2025-08-07_12h18.19.542,HideSeek_v1,2022.2.5,59.95351204655068,
,,,,,,,,,,,30,,,,2,0,2,0,,,,,,,,,,,,,,,,,,,,,,,,,,,,,,,,,,,,,,,,,,,,,,,,,,,,,,,,,,,,,,,,,,,,,,,,,,stimuli/alien_stimuli/16.png,16,7,32,21,0.7,1.2083333333333335,1,1,1,30,0,conditions/schedules/train_x_first/red_square_00/top_right/inputTrain_2.1.xlsx,99,1,2,1,0,,,,,,,,,,,1,,,,,,,,,877.0420711999996,0.4,0.16,0.0,0.0,0.16,0.4,0.4,0.4,0.16,875.1667859000008,875.1667859000008,875.1667859000008,875.1667859000008,875.1667859000008,875.1667859000008,875.1667859000008,875.1667859000008,875.1568378000011,1.9869292999992467,return,1.8475580000003902,878.5916976000008,0,0.9,0,1,29,,,,,,,,,,,,,,,,,,,,,,,,,,,,LE4AFC,train_x,red_square,top_right,2025-08-07_12h18.19.542,HideSeek_v1,2022.2.5,59.95351204655068,
,,,,,,,,,,,,,,,3,0,3,0,0,0,0,0,,,,,,,,,,,,,,,,,,,,,,,,,,,,,,,conditions/schedules/train_x_first/red_square_00/top_right/instructions/Slide17.png,conditions/schedules/train_x_first/red_square_00/top_right/instructions/Audio17.wav,878.5916976000008,878.5931926000004,17,"[5.671011100000214, 18.69768320000003, 16.84551089999968, 19.68628820000049, 5.460664999999608, 5.497450500000014, 6.117882600000485, 11.708081900000252, 7.006558799999766, 8.246135999999751, 9.985440100000233, 13.069477000000006, 17.26222979999966, 13.30274019999979, 31.47019730000011, 21.500827400000162, 59.10215700000117]","[0.014178000000356406, 0.03287639999962266, 0.03676570000061474, 0.06959049999932176, 0.034223699999529344, 0.051408100000116974, 0.048241000000416534, 0.05708859999958804, 0.06980829999974958, 0.05710280000039347, 0.013463799999954063, 13.06948519999969, 0.013818599999467551, 13.302747099999578, 0.05145170000014332, 21.500834899999973, 59.10216660000151]",0,,,,,,,,,,,,,,,,,,,,,,,,,,,,,,,,,,,,,,,,,,,,,,,,,,,,,,,,,,,,,,,,,,,,,,,,,,,,,,,,,,,,,,,,,,,,,,,,,,,,,,,,,,,,,,,,,,,,,,,,,,,,LE4AFC,train_x,red_square,top_right,2025-08-07_12h18.19.542,HideSeek_v1,2022.2.5,59.95351204655068,
,,,,,,,,,,,,,,,3,0,3,0,1,0,1,0,,,,,,,,,,,,,,,,,,,,,,,,,,,,,,,conditions/schedules/train_x_first/red_square_00/top_right/instructions/Slide18.png,conditions/schedules/train_x_first/red_square_00/top_right/instructions/Audio18.wav,937.767034800001,937.7631262999998,18,"[5.671011100000214, 18.69768320000003, 16.84551089999968, 19.68628820000049, 5.460664999999608, 5.497450500000014, 6.117882600000485, 11.708081900000252, 7.006558799999766, 8.246135999999751, 9.985440100000233, 13.069477000000006, 17.26222979999966, 13.30274019999979, 31.47019730000011, 21.500827400000162, 59.10215700000117, 8.514987700000347]","[0.014178000000356406, 0.03287639999962266, 0.03676570000061474, 0.06959049999932176, 0.034223699999529344, 0.051408100000116974, 0.048241000000416534, 0.05708859999958804, 0.06980829999974958, 0.05710280000039347, 0.013463799999954063, 13.06948519999969, 0.013818599999467551, 13.302747099999578, 0.05145170000014332, 21.500834899999973, 59.10216660000151, 8.514995100000306]",0,,,,,,,,,,,,,,,,,,,,,,,,,,,,,,,,,,,,,,,,,,,,,,,,,,,,,,,,,,,,,,,,,,,,,,,,,,,,,,,,,,,,,,,,,,,,,,,,,,,,,,,,,,,,,,,,,,,,,,,,,,,,LE4AFC,train_x,red_square,top_right,2025-08-07_12h18.19.542,HideSeek_v1,2022.2.5,59.95351204655068,
,,,,,,,,,,,,,,,3,0,3,0,2,0,2,0,,,,,,,,,,,,,,,,,,,,,,,,,,,,,,,conditions/schedules/train_x_first/red_square_00/top_right/instructions/Slide19.png,conditions/schedules/train_x_first/red_square_00/top_right/instructions/Audio19.wav,946.3236311000001,946.3181205000009,19,"[5.671011100000214, 18.69768320000003, 16.84551089999968, 19.68628820000049, 5.460664999999608, 5.497450500000014, 6.117882600000485, 11.708081900000252, 7.006558799999766, 8.246135999999751, 9.985440100000233, 13.069477000000006, 17.26222979999966, 13.30274019999979, 31.47019730000011, 21.500827400000162, 59.10215700000117, 8.514987700000347, 11.933560899999065]","[0.014178000000356406, 0.03287639999962266, 0.03676570000061474, 0.06959049999932176, 0.034223699999529344, 0.051408100000116974, 0.048241000000416534, 0.05708859999958804, 0.06980829999974958, 0.05710280000039347, 0.013463799999954063, 13.06948519999969, 0.013818599999467551, 13.302747099999578, 0.05145170000014332, 21.500834899999973, 59.10216660000151, 0.0341986999992514, 11.933568499998728]",0,,,,,,,,,,,,,,,,,,,,,,,,,,,,,,,,,,,,,,,,,,,,,,,,,,,,,,,,,,,,,,,,,,,,,,,,,,,,,,,,,,,,,,,,,,,,,,,,,,,,,,,,,,,,,,,,,,,,,,,,,,,,LE4AFC,train_x,red_square,top_right,2025-08-07_12h18.19.542,HideSeek_v1,2022.2.5,59.95351204655068,
,,,,,,,,,,,,,,,3,0,3,0,3,0,3,0,,,,,,,,,,,,,,,,,,,,,,,,,,,,,,,conditions/schedules/train_x_first/red_square_00/top_right/instructions/Slide20.png,conditions/schedules/train_x_first/red_square_00/top_right/instructions/Audio20.wav,958.3295087999995,958.3259374000004,20,"[5.671011100000214, 18.69768320000003, 16.84551089999968, 19.68628820000049, 5.460664999999608, 5.497450500000014, 6.117882600000485, 11.708081900000252, 7.006558799999766, 8.246135999999751, 9.985440100000233, 13.069477000000006, 17.26222979999966, 13.30274019999979, 31.47019730000011, 21.500827400000162, 59.10215700000117, 8.514987700000347, 11.933560899999065, 15.250975499999186]","[0.014178000000356406, 0.03287639999962266, 0.03676570000061474, 0.06959049999932176, 0.034223699999529344, 0.051408100000116974, 0.048241000000416534, 0.05708859999958804, 0.06980829999974958, 0.05710280000039347, 0.013463799999954063, 13.06948519999969, 0.013818599999467551, 13.302747099999578, 0.05145170000014332, 21.500834899999973, 59.10216660000151, 0.0341986999992514, 0.014116599999397295, 15.250982100000329]",0,,,,,,,,,,,,,,,,,,,,,,,,,,,,,,,,,,,,,,,,,,,,,,,,,,,,,,,,,,,,,,,,,,,,,,,,,,,,,,,,,,,,,,,,,,,,,,,,,,,,,,,,,,,,,,,,,,,,,,,,,,,,LE4AFC,train_x,red_square,top_right,2025-08-07_12h18.19.542,HideSeek_v1,2022.2.5,59.95351204655068,
1,7,8,7,3,0,-5,11,2,instr_dim1_2,,,,,,3,0,3,0,,,,,0,0,0,0,,,,,,,,,,,,,,,,,,,,,,,,,,,,,,,,,,,,,stimuli/alien_stimuli/11.png,conditions/schedules/train_x_first/red_square_00/top_right/inputInstr_2.xlsx,stimuli/alien_stimuli/11.png,973.6787769000002,973.6787769000002,973.6787769000002,973.6787769000002,973.6826767000002,return,6.235732800000733,"[-0.16, -0.08, 0, 0.08, 0.16, 0.24, 0.32, 0.4, 0.48, 0.56]","[-0.4, -0.32, -0.24, -0.16, -0.08, 0, 0.08, 0.16, 0.24, 0.32]",3,8,7,7,0.4,0.0,980.0768699,980.0768699,980.0768699,980.0768699,980.0768699,980.0768699,980.0768699,980.0771007000009,6.809929900000498,return,6.656555999999,stimuli/alien_stimuli/11.png,11,7,1,,,,,,,,,,,,,,,,,,,,,,,,,,,,,,,,,,,,,,,,,,,,,,,,,,,,,,,,,,,,,,,,,,,,,,,,,,,,,,,,,,,,,,,,,LE4AFC,train_x,red_square,top_right,2025-08-07_12h18.19.542,HideSeek_v1,2022.2.5,59.95351204655068,
,,,,,,,,,,,30,,,,3,0,3,0,,,,,,,,,,,,,,,,,,,,,,,,,,,,,,,,,,,,,,,,,,,,,,,,,,,,,,,,,,,,,,,,,,,,,,,,,,,,,,21,0.7,1.2083333333333335,1,99,2,30,0,conditions/schedules/train_x_first/red_square_00/top_right/inputTrain_2.1.xlsx,99,1,2,1,0,,,,,,,,,,,,,,,,,,,,,,,,,,,,,,,,,,,,,,,,,,,,,,,,,,,,,,,,,,,,,,,,,,,,,,,,,,,LE4AFC,train_x,red_square,top_right,2025-08-07_12h18.19.542,HideSeek_v1,2022.2.5,59.95351204655068,
,,,,,,,,,,,,,,,4,0,4,0,0,0,0,0,,,,,,,,,,,,,,,,,,,,,,,,,,,,,,,conditions/schedules/train_x_first/red_square_00/top_right/instructions/Slide21.png,conditions/schedules/train_x_first/red_square_00/top_right/instructions/Audio21.wav,986.9062164999996,986.9023117000006,21,"[5.671011100000214, 18.69768320000003, 16.84551089999968, 19.68628820000049, 5.460664999999608, 5.497450500000014, 6.117882600000485, 11.708081900000252, 7.006558799999766, 8.246135999999751, 9.985440100000233, 13.069477000000006, 17.26222979999966, 13.30274019999979, 31.47019730000011, 21.500827400000162, 59.10215700000117, 8.514987700000347, 11.933560899999065, 15.250975499999186, 17.14021259999936]","[0.014178000000356406, 0.03287639999962266, 0.03676570000061474, 0.06959049999932176, 0.034223699999529344, 0.051408100000116974, 0.048241000000416534, 0.05708859999958804, 0.06980829999974958, 0.05710280000039347, 0.013463799999954063, 13.06948519999969, 0.013818599999467551, 13.302747099999578, 0.05145170000014332, 21.500834899999973, 59.10216660000151, 0.0341986999992514, 0.014116599999397295, 15.250982100000329, 17.140219999999317]",0,,,,,,,,,,,,,,,,,,,,,,,,,,,,,,,,,,,,,,,,,,,,,,,,,,,,,,,,,,,,,,,,,,,,,,,,,,,,,,,,,,,,,,,,,,,,,,,,,,,,,,,,,,,,,,,,,,,,,,,,,,,,LE4AFC,train_x,red_square,top_right,2025-08-07_12h18.19.542,HideSeek_v1,2022.2.5,59.95351204655068,
2,5,8,5,8,0,0,16,2,instr_dim1_2,,,,,,4,0,4,0,,,,,0,0,0,0,,,,,,,,,,,,,,,,,,,,,,,,,,,,,,,,,,,,,stimuli/alien_stimuli/16.png,conditions/schedules/train_x_first/red_square_00/top_right/inputInstr_2.xlsx,stimuli/alien_stimuli/16.png,1004.1518656000007,1004.1518656000007,1004.1518656000007,1004.1518656000007,1004.1487223000004,return,6.801160300000447,"[-0.16, -0.08, 0, 0.08, 0.16, 0.24, 0.32, 0.4, 0.48, 0.56]","[-0.4, -0.32, -0.24, -0.16, -0.08, 0, 0.08, 0.16, 0.24, 0.32]",8,8,5,5,0.0,0.0,1011.0995566000001,1011.0995566000001,1011.0995566000001,1011.0995566000001,1011.0995566000001,1011.0995566000001,1011.0995566000001,1011.0863946000012,7.9405523000004905,return,7.774767100000645,stimuli/alien_stimuli/16.png,16,5,2,,,,,,,,,,,,,,,,,,,,,,,,,,,,,,,,,,,,,,,,,,,,,,,,,,,,,,,,,,,,,,,,,,,,,,,,,,,,,,,,,,,,,,,,,LE4AFC,train_x,red_square,top_right,2025-08-07_12h18.19.542,HideSeek_v1,2022.2.5,59.95351204655068,
,,,,,,,,,,,30,,,,4,0,4,0,,,,,,,,,,,,,,,,,,,,,,,,,,,,,,,,,,,,,,,,,,,,,,,,,,,,,,,,,,,,,,,,,,,,,,,,,,,,,,21,0.7,1.2083333333333335,1,99,2,30,0,conditions/schedules/train_x_first/red_square_00/top_right/inputTrain_2.1.xlsx,99,1,2,1,0,,,,,,,,,,,,,,,,,,,,,,,,,,,,,,,,,,,,,,,,,,,,,,,,,,,,,,,,,,,,,,,,,,,,,,,,,,,LE4AFC,train_x,red_square,top_right,2025-08-07_12h18.19.542,HideSeek_v1,2022.2.5,59.95351204655068,
,,,,,,,,,,,,,,,5,0,5,0,0,0,0,0,,,,,,,,,,,,,,,,,,,,,,,,,,,,,,,conditions/schedules/train_x_first/red_square_00/top_right/instructions/Slide22.png,conditions/schedules/train_x_first/red_square_00/top_right/instructions/Audio22.wav,1019.0708150999999,1019.0595509000004,22,"[5.671011100000214, 18.69768320000003, 16.84551089999968, 19.68628820000049, 5.460664999999608, 5.497450500000014, 6.117882600000485, 11.708081900000252, 7.006558799999766, 8.246135999999751, 9.985440100000233, 13.069477000000006, 17.26222979999966, 13.30274019999979, 31.47019730000011, 21.500827400000162, 59.10215700000117, 8.514987700000347, 11.933560899999065, 15.250975499999186, 17.14021259999936, 44.12582569999904]","[0.014178000000356406, 0.03287639999962266, 0.03676570000061474, 0.06959049999932176, 0.034223699999529344, 0.051408100000116974, 0.048241000000416534, 0.05708859999958804, 0.06980829999974958, 0.05710280000039347, 0.013463799999954063, 13.06948519999969, 0.013818599999467551, 13.302747099999578, 0.05145170000014332, 21.500834899999973, 59.10216660000151, 0.0341986999992514, 0.014116599999397295, 15.250982100000329, 17.140219999999317, 44.12583319999976]",0,,,,,,,,,,,,,,,,,,,,,,,,,,,,,,,,,,,,,,,,,,,,,,,,,,,,,,,,,,,,,,,,,,,,,,,,,,,,,,,,,,,,,,,,,,,,,,,,,,,,,,,,,,,,,,,,,,,,,,,,,,,,LE4AFC,train_x,red_square,top_right,2025-08-07_12h18.19.542,HideSeek_v1,2022.2.5,59.95351204655068,
,5,5,5,4,0,-1,15,,train_dim1_2,1,30,,,,5,0,5,0,,,,,,,,,0,0,0,0,0,0,0,0,0,0,0,0,,,,,,,,,,,,,,,,,,,,,,,,,stimuli/alien_stimuli/15.png,,,,,,,,,,,,,,,,,,,,,,,,,,,,,,,,,,,,,,,30,,,,,,,,1063.2977210000008,1063.2977210000008,1063.2977210000008,1063.2977210000008,1063.2977210000008,return,3.0430921999995917,0,1,0,0,0.24,0,return,2.9440223999999944,0,-77,0.24,0,,,,,,,,,,,,,,,,,,,,,,,,,,,,,,,,,,,,,,,,,,,,,,,,,,,,,,,,LE4AFC,train_x,red_square,top_right,2025-08-07_12h18.19.542,HideSeek_v1,2022.2.5,59.95351204655068,
,8,7,8,7,0,0,16,,train_dim1_2,2,30,,,,5,0,5,0,,,,,,,,,0,0,0,0,0,1,1,1,0,0,0,0,,,,,,,,,,,,,,,,,,,,,,,,,stimuli/alien_stimuli/16.png,,,,,,,,,,,,,,,,,,,,,,,,,,,,,stimuli/alien_stimuli/15.png,15,5,3,,,,,,,30,,,,,,,,1072.6118134000008,1072.6118134000008,1072.6118134000008,1072.6118134000008,1072.6118134000008,return,5.958669199999349,1,0,0,1,0.48,0.16,return,5.865615100000468,0,-77,0.48,0.16,1071.0548262000011,0.24,-0.08,0.08,0.0,-0.04,0.24,0.24,0.24,-0.08,1067.9217766000002,1067.9217766000002,1067.9217766000002,1067.9217766000002,1067.9217766000002,1067.9217766000002,1067.9217766000002,1067.9217766000002,1067.9167581000004,3.2563604000006308,return,3.107547099999465,1072.6118134000008,,,,,,,,,,,,,,,,,,,,,,,,,,,,,,,,,LE4AFC,train_x,red_square,top_right,2025-08-07_12h18.19.542,HideSeek_v1,2022.2.5,59.95351204655068,
,7,8,7,5,0,-3,13,,train_dim1_2,3,30,,,,5,0,5,0,,,,,,,,,0,0,0,0,0,2,2,2,0,0,0,0,,,,,,,,,,,,,,,,,,,,,,,,,stimuli/alien_stimuli/13.png,,,,,,,,,,,,,,,,,,,,,,,,,,,,,stimuli/alien_stimuli/16.png,16,8,4,,,,,,,30,,,,,,,,1083.1844342999993,1083.1844342999993,1083.1844342999993,1083.1844342999993,1083.1844342999993,down,1.8238836000000447,1,0,0,99,0.4,0.15999999999999998,down,1.7477673000003051,,,,,1081.6227338999997,0.48,0.16,0.0,0.0,0.16,0.48,0.48,0.48,0.16,1080.1708801999994,1080.1708801999994,1080.1708801999994,1080.1708801999994,1080.1708801999994,1080.1708801999994,1080.1708801999994,1080.1708801999994,1080.1601904000001,1.5764545999991242,return,1.4286399000002348,,,,,,,,,,,,,,,,,,,,,,,,,,,,,,,,,,LE4AFC,train_x,red_square,top_right,2025-08-07_12h18.19.542,HideSeek_v1,2022.2.5,59.95351204655068,
,7,8,7,5,0,-3,13,,train_dim1_2,3,30,,,,5,0,5,0,,,,,,,,,0,0,0,0,0,2,2,2,1,0,1,0,,,,,,,,,,,,,,,,,,,,,,,,,,,,,,,,,,,,,,,,,,,,,,,,,,,,,,,,,,,,,,,,30,,,,,,,,1085.0158974999995,1085.0158974999995,1085.0158974999995,1085.0158974999995,1085.0158974999995,down,0.4259197999999742,1,0,0,99,0.4,0.07999999999999997,down,0.33481529999971826,,,,,,,,,,,,,,,,,,,,,,,,,,,,,,,,,,,,,,,,,,,,,,,,,,,,,,,,,,,,LE4AFC,train_x,red_square,top_right,2025-08-07_12h18.19.542,HideSeek_v1,2022.2.5,59.95351204655068,
,7,8,7,5,0,-3,13,,train_dim1_2,3,30,,,,5,0,5,0,,,,,,,,,0,0,0,0,0,2,2,2,2,0,2,0,,,,,,,,,,,,,,,,,,,,,,,,,,,,,,,,,,,,,,,,,,,,,,,,,,,,,,,,,,,,,,,,30,,,,,,,,1085.4485322,1085.4485322,1085.4485322,1085.4485322,1085.4485322,down,0.4097498999999516,1,0,0,99,0.4,-2.7755575615628914e-17,down,0.33181320000130654,,,,,,,,,,,,,,,,,,,,,,,,,,,,,,,,,,,,,,,,,,,,,,,,,,,,,,,,,,,,LE4AFC,train_x,red_square,top_right,2025-08-07_12h18.19.542,HideSeek_v1,2022.2.5,59.95351204655068,
,7,8,7,5,0,-3,13,,train_dim1_2,3,30,,,,5,0,5,0,,,,,,,,,0,0,0,0,0,2,2,2,3,0,3,0,,,,,,,,,,,,,,,,,,,,,,,,,,,,,,,,,,,,,,,,,,,,,,,,,,,,,,,,,,,,,,,,30,,,,,,,,1085.8654126000001,1085.8654126000001,1085.8654126000001,1085.8654126000001,1085.8654126000001,down,0.35993360000065877,1,0,0,99,0.4,-0.08000000000000003,down,0.27522829999998066,,,,,,,,,,,,,,,,,,,,,,,,,,,,,,,,,,,,,,,,,,,,,,,,,,,,,,,,,,,,LE4AFC,train_x,red_square,top_right,2025-08-07_12h18.19.542,HideSeek_v1,2022.2.5,59.95351204655068,
,7,8,7,5,0,-3,13,,train_dim1_2,3,30,,,,5,0,5,0,,,,,,,,,0,0,0,0,0,2,2,2,4,0,4,0,,,,,,,,,,,,,,,,,,,,,,,,,,,,,,,,,,,,,,,,,,,,,,,,,,,,,,,,,,,,,,,,30,,,,,,,,1086.2326580000008,1086.2326580000008,1086.2326580000008,1086.2326580000008,1086.2326580000008,down,0.44347669999842765,1,0,0,99,0.4,-0.16000000000000003,down,0.3520377000013468,,,,,,,,,,,,,,,,,,,,,,,,,,,,,,,,,,,,,,,,,,,,,,,,,,,,,,,,,,,,LE4AFC,train_x,red_square,top_right,2025-08-07_12h18.19.542,HideSeek_v1,2022.2.5,59.95351204655068,
,7,8,7,5,0,-3,13,,train_dim1_2,3,30,,,,5,0,5,0,,,,,,,,,0,0,0,0,0,2,2,2,5,0,5,0,,,,,,,,,,,,,,,,,,,,,,,,,,,,,,,,,,,,,,,,,,,,,,,,,,,,,,,,,,,,,,,,30,,,,,,,,1086.6824424000006,1086.6824424000006,1086.6824424000006,1086.6824424000006,1086.6824424000006,return,3.078947199999675,1,0,0,0,0.4,-0.16000000000000003,return,3.0008198000004995,-5,-77,0.4,-0.16000000000000003,,,,,,,,,,,,,,,,,,,,,,,,,,,,,,,,,,,,,,,,,,,,,,,,,,,,,,,,LE4AFC,train_x,red_square,top_right,2025-08-07_12h18.19.542,HideSeek_v1,2022.2.5,59.95351204655068,
,5,6,5,2,0,-4,12,,train_dim1_2,4,30,,,,5,0,5,0,,,,,,,,,0,0,0,0,0,3,3,3,0,0,0,0,,,,,,,,,,,,,,,,,,,,,,,,,stimuli/alien_stimuli/12.png,,,,,,,,,,,,,,,,,,,,,,,,,,,,,stimuli/alien_stimuli/13.png,13,7,5,,,,,,,30,,,,,,,,1098.4491605000003,1098.4491605000003,1098.4491605000003,1098.4491605000003,1098.4491605000003,down,4.724558600000819,1,0,0,99,0.24,0.0,down,4.644065100000262,,,,,1096.8914944000007,0.4,0,0.24,0.0,0.12,0.4,0.4,0.4,0,1091.3561176000003,1091.3561176000003,1091.3561176000003,1091.3561176000003,1091.3561176000003,1091.3561176000003,1091.3561176000003,1091.3561176000003,1091.3529815999993,5.652105899998787,return,5.508630400000584,,,,,,,,,,,,,,,,,,,,,,,,,,,,,,,,,,LE4AFC,train_x,red_square,top_right,2025-08-07_12h18.19.542,HideSeek_v1,2022.2.5,59.95351204655068,
,5,6,5,2,0,-4,12,,train_dim1_2,4,30,,,,5,0,5,0,,,,,,,,,0,0,0,0,0,3,3,3,1,0,1,0,,,,,,,,,,,,,,,,,,,,,,,,,,,,,,,,,,,,,,,,,,,,,,,,,,,,,,,,,,,,,,,,30,,,,,,,,1103.1817033000007,1103.1817033000007,1103.1817033000007,1103.1817033000007,1103.1817033000007,down,0.5931595999991259,1,0,0,99,0.24,-0.08,down,0.5037526999994952,,,,,,,,,,,,,,,,,,,,,,,,,,,,,,,,,,,,,,,,,,,,,,,,,,,,,,,,,,,,LE4AFC,train_x,red_square,top_right,2025-08-07_12h18.19.542,HideSeek_v1,2022.2.5,59.95351204655068,
,5,6,5,2,0,-4,12,,train_dim1_2,4,30,,,,5,0,5,0,,,,,,,,,0,0,0,0,0,3,3,3,2,0,2,0,,,,,,,,,,,,,,,,,,,,,,,,,,,,,,,,,,,,,,,,,,,,,,,,,,,,,,,,,,,,,,,,30,,,,,,,,1103.7810064999994,1103.7810064999994,1103.7810064999994,1103.7810064999994,1103.7810064999994,down,0.5098132999992231,1,0,0,99,0.24,-0.16,down,0.4328356000014537,,,,,,,,,,,,,,,,,,,,,,,,,,,,,,,,,,,,,,,,,,,,,,,,,,,,,,,,,,,,LE4AFC,train_x,red_square,top_right,2025-08-07_12h18.19.542,HideSeek_v1,2022.2.5,59.95351204655068,
,5,6,5,2,0,-4,12,,train_dim1_2,4,30,,,,5,0,5,0,,,,,,,,,0,0,0,0,0,3,3,3,3,0,3,0,,,,,,,,,,,,,,,,,,,,,,,,,,,,,,,,,,,,,,,,,,,,,,,,,,,,,,,,,,,,,,,,30,,,,,,,,1104.2981032999996,1104.2981032999996,1104.2981032999996,1104.2981032999996,1104.2981032999996,down,0.6100516999995307,1,0,0,99,0.24,-0.24,down,0.5205481999992116,,,,,,,,,,,,,,,,,,,,,,,,,,,,,,,,,,,,,,,,,,,,,,,,,,,,,,,,,,,,LE4AFC,train_x,red_square,top_right,2025-08-07_12h18.19.542,HideSeek_v1,2022.2.5,59.95351204655068,
,5,6,5,2,0,-4,12,,train_dim1_2,4,30,,,,5,0,5,0,,,,,,,,,0,0,0,0,0,3,3,3,4,0,4,0,,,,,,,,,,,,,,,,,,,,,,,,,,,,,,,,,,,,,,,,,,,,,,,,,,,,,,,,,,,,,,,,30,,,,,,,,1104.9153939000007,1104.9153939000007,1104.9153939000007,1104.9153939000007,1104.9153939000007,down,0.5937150999998266,1,0,0,99,0.24,-0.32,down,0.5095348000004378,,,,,,,,,,,,,,,,,,,,,,,,,,,,,,,,,,,,,,,,,,,,,,,,,,,,,,,,,,,,LE4AFC,train_x,red_square,top_right,2025-08-07_12h18.19.542,HideSeek_v1,2022.2.5,59.95351204655068,
