trialInstr,x_fixStart,y_fixStart,x_corrSteps,y_corrSteps,x_nrSteps,y_nrSteps,alienID,trialLength,version,trialTrain,praclen,testlen,trial_label,break_on_off,beforeExpLoop.thisRepN,beforeExpLoop.thisTrialN,beforeExpLoop.thisN,beforeExpLoop.thisIndex,mini_instr_trials.thisRepN,mini_instr_trials.thisTrialN,mini_instr_trials.thisN,mini_instr_trials.thisIndex,instrLoop.thisRepN,instrLoop.thisTrialN,instrLoop.thisN,instrLoop.thisIndex,repeat_prac.thisRepN,repeat_prac.thisTrialN,repeat_prac.thisN,repeat_prac.thisIndex,trainLoop.thisRepN,trainLoop.thisTrialN,trainLoop.thisN,trainLoop.thisIndex,moveLoop_train.thisRepN,moveLoop_train.thisTrialN,moveLoop_train.thisN,moveLoop_train.thisIndex,experiment.thisRepN,experiment.thisTrialN,experiment.thisN,experiment.thisIndex,moveLoop_test.thisRepN,moveLoop_test.thisTrialN,moveLoop_test.thisN,moveLoop_test.thisIndex,mini_instr2_trials.thisRepN,mini_instr2_trials.thisTrialN,mini_instr2_trials.thisN,mini_instr2_trials.thisIndex,start_all_time,url,slideStim,audioStim,slides.started,sounds.started,nextButton.numClicks,nextButton.timesOn,nextButton.timesOff,prev_but.numClicks,prev_but.timesOn,prev_but.timesOff,alienStim,instrFile,alienStim_instr,gridImage_instr.started,startPos_3.started,key_instr.started,alienImage_3.started,sounds_1.started,key_instr.keys,key_instr.rt,all_x,all_y,FBy_corrSteps,FBy_fixStart,FBx_corrSteps,FBx_fixStart,FBy_pathSize_check,FBx_pathSize_check,gridImage_9.started,alienImageFB_3.started,startPosFB_3.started,keyFB_3.started,pathLine_ydir_2.started,pathLine_xdir_2.started,alienFace_3.started,sounds_2.started,RTFB_instr,keyFB_3.keys,keyFB_3.rt,draw_alienStim,draw_alienID,test_x,nrepcount,perfthres,percthres,earlierperf,earlystop,nextPrac,fileidx,praclen,saveACC_train,pracFile,nextPrac_train,addNrep,fileidx_endr,repExp,showearly,gridImage_4.started,startPos.started,movePos.started,key_resp.started,alienImage.started,wLy_dir,wLx_dir,x_movePos,y_movePos,buttonPress_train,RTchoice_train,cumAcctrain,aCorr,saveACC_choice,corrAns,x_movePos_end,y_movePos_end,key_resp.keys,key_resp.rt,text_2.started,text_2.stopped,aft_x_corrPos,aft_y_corrPos,y_pathSize_check,x_pathSize_check,y_pathdirY,x_pathdirY,x_pathdirX,x_corrPos,y_corrPos,gridImage_6.started,alienImageFB_2.started,startPosFB_2.started,movePosFB_2.started,keyFB_2.started,pathLine_xdir.started,pathLine_ydir.started,alienFace.started,sounds_4.started,RT_FBtrain,keyFB_2.keys,keyFB_2.rt,saveACC_pre,ACC,within_saveACC_train,earlystop_wloop,cumAcctrain_check,gridImage_3.started,alienImage_test.started,startPos_test.started,movePos_test.started,key_resp_test.started,wLy_dir_test,wLx_dir_test,buttonPress_test,RTchoice_test,cumAcctest,corrAns_test,key_resp_test.keys,key_resp_test.rt,text_3.started,text_3.stopped,total_time,end_all_time,key_resp_3.keys,slides_2.started,sounds_3.started,nextButton_2.numClicks,nextButton_2.timesOn,nextButton_2.timesOff,prev_but_2.numClicks,prev_but_2.timesOn,prev_but_2.timesOff,bye.started,participant,train_first,00_coordinate,starting corner,date,expName,psychopyVersion,frameRate,
,,,,,,,,,,,,,,,0,0,0,0,0,0,0,0,,,,,,,,,,,,,,,,,,,,,,,,,,,,,start_all_time,testround,conditions/schedules/train_y_first/red_square_00/bottom_right/instructions/Slide1.png,conditions/schedules/train_y_first/red_square_00/bottom_right/instructions/Audio1.wav,2524.6292233000277,2524.57316055838,1,[5.714454400003888],[5.714468299993314],0,,,,,,,,,,,,,,,,,,,,,,,,,,,,,,,,,,,,,,,,,,,,,,,,,,,,,,,,,,,,,,,,,,,,,,,,,,,,,,,,,,,,,,,,,,,,,,,,,,,,,,,,,,,,,,,,,,,,,,,,,,,,LGNA1L,train_y,red_square,bottom_right,2025-05-14_15h22.57.926,HideSeek_v1,2022.2.5,59.928146135870584,
,,,,,,,,,,,,,,,0,0,0,0,1,0,1,0,,,,,,,,,,,,,,,,,,,,,,,,,,,,,,,conditions/schedules/train_y_first/red_square_00/bottom_right/instructions/Slide2.png,conditions/schedules/train_y_first/red_square_00/bottom_right/instructions/Audio2.wav,2530.3607873000437,2530.3614481500117,2,"[5.714454400003888, 18.262911300058477]","[0.03125280002132058, 18.262918499996886]",0,,,,,,,,,,,,,,,,,,,,,,,,,,,,,,,,,,,,,,,,,,,,,,,,,,,,,,,,,,,,,,,,,,,,,,,,,,,,,,,,,,,,,,,,,,,,,,,,,,,,,,,,,,,,,,,,,,,,,,,,,,,,LGNA1L,train_y,red_square,bottom_right,2025-05-14_15h22.57.926,HideSeek_v1,2022.2.5,59.928146135870584,
,,,,,,,,,,,,,,,0,0,0,0,2,0,2,0,,,,,,,,,,,,,,,,,,,,,,,,,,,,,,,conditions/schedules/train_y_first/red_square_00/bottom_right/instructions/Slide3.png,conditions/schedules/train_y_first/red_square_00/bottom_right/instructions/Audio3.wav,2548.696225999971,2548.6923751500435,3,"[5.714454400003888, 18.262911300058477, 17.274863500031643]","[0.03125280002132058, 0.014004800003021955, 17.274870299967006]",0,,,,,,,,,,,,,,,,,,,,,,,,,,,,,,,,,,,,,,,,,,,,,,,,,,,,,,,,,,,,,,,,,,,,,,,,,,,,,,,,,,,,,,,,,,,,,,,,,,,,,,,,,,,,,,,,,,,,,,,,,,,,LGNA1L,train_y,red_square,bottom_right,2025-05-14_15h22.57.926,HideSeek_v1,2022.2.5,59.928146135870584,
,,,,,,,,,,,,,,,0,0,0,0,3,0,3,0,,,,,,,,,,,,,,,,,,,,,,,,,,,,,,,conditions/schedules/train_y_first/red_square_00/bottom_right/instructions/Slide4.png,conditions/schedules/train_y_first/red_square_00/bottom_right/instructions/Audio4.wav,2566.048248199979,2566.040268150042,4,"[5.714454400003888, 18.262911300058477, 17.274863500031643, 19.355851900065318]","[0.03125280002132058, 0.014004800003021955, 0.035867400001734495, 19.355858900002204]",0,,,,,,,,,,,,,,,,,,,,,,,,,,,,,,,,,,,,,,,,,,,,,,,,,,,,,,,,,,,,,,,,,,,,,,,,,,,,,,,,,,,,,,,,,,,,,,,,,,,,,,,,,,,,,,,,,,,,,,,,,,,,LGNA1L,train_y,red_square,bottom_right,2025-05-14_15h22.57.926,HideSeek_v1,2022.2.5,59.928146135870584,
,,,,,,,,,,,,,,,0,0,0,0,4,0,4,0,,,,,,,,,,,,,,,,,,,,,,,,,,,,,,,conditions/schedules/train_y_first/red_square_00/bottom_right/instructions/Slide5.png,conditions/schedules/train_y_first/red_square_00/bottom_right/instructions/Audio5.wav,2585.4683743000496,2585.456425980036,5,"[5.714454400003888, 18.262911300058477, 17.274863500031643, 19.355851900065318, 4.755887699895538]","[0.03125280002132058, 0.014004800003021955, 0.035867400001734495, 0.00020049989689141512, 4.755894499947317]",0,,,,,,,,,,,,,,,,,,,,,,,,,,,,,,,,,,,,,,,,,,,,,,,,,,,,,,,,,,,,,,,,,,,,,,,,,,,,,,,,,,,,,,,,,,,,,,,,,,,,,,,,,,,,,,,,,,,,,,,,,,,,LGNA1L,train_y,red_square,bottom_right,2025-05-14_15h22.57.926,HideSeek_v1,2022.2.5,59.928146135870584,
,,,,,,,,,,,,,,,0,0,0,0,5,0,5,0,,,,,,,,,,,,,,,,,,,,,,,,,,,,,,,conditions/schedules/train_y_first/red_square_00/bottom_right/instructions/Slide6.png,conditions/schedules/train_y_first/red_square_00/bottom_right/instructions/Audio6.wav,2590.275657900027,2590.2769313799913,6,"[5.714454400003888, 18.262911300058477, 17.274863500031643, 19.355851900065318, 4.755887699895538, 4.936762399971485]","[0.03125280002132058, 0.014004800003021955, 0.035867400001734495, 0.00020049989689141512, 0.06537089997436851, 4.936774599947967]",0,,,,,,,,,,,,,,,,,,,,,,,,,,,,,,,,,,,,,,,,,,,,,,,,,,,,,,,,,,,,,,,,,,,,,,,,,,,,,,,,,,,,,,,,,,,,,,,,,,,,,,,,,,,,,,,,,,,,,,,,,,,,LGNA1L,train_y,red_square,bottom_right,2025-05-14_15h22.57.926,HideSeek_v1,2022.2.5,59.928146135870584,
,,,,,,,,,,,,,,,0,0,0,0,6,0,6,0,,,,,,,,,,,,,,,,,,,,,,,,,,,,,,,conditions/schedules/train_y_first/red_square_00/bottom_right/instructions/Slide7.png,conditions/schedules/train_y_first/red_square_00/bottom_right/instructions/Audio7.wav,2595.2663093999727,2595.2646071799795,7,"[5.714454400003888, 18.262911300058477, 17.274863500031643, 19.355851900065318, 4.755887699895538, 4.936762399971485, 6.901115200016648]","[0.03125280002132058, 0.014004800003021955, 0.035867400001734495, 0.00020049989689141512, 0.06537089997436851, 0.013970399973914027, 6.901121899951249]",0,,,,,,,,,,,,,,,,,,,,,,,,,,,,,,,,,,,,,,,,,,,,,,,,,,,,,,,,,,,,,,,,,,,,,,,,,,,,,,,,,,,,,,,,,,,,,,,,,,,,,,,,,,,,,,,,,,,,,,,,,,,,LGNA1L,train_y,red_square,bottom_right,2025-05-14_15h22.57.926,HideSeek_v1,2022.2.5,59.928146135870584,
,,,,,,,,,,,,,,,0,0,0,0,7,0,7,0,,,,,,,,,,,,,,,,,,,,,,,,,,,,,,,conditions/schedules/train_y_first/red_square_00/bottom_right/instructions/Slide8.png,conditions/schedules/train_y_first/red_square_00/bottom_right/instructions/Audio8.wav,2602.2226103000576,2602.220245780027,8,"[5.714454400003888, 18.262911300058477, 17.274863500031643, 19.355851900065318, 4.755887699895538, 4.936762399971485, 6.901115200016648, 11.404351499979384]","[0.03125280002132058, 0.014004800003021955, 0.035867400001734495, 0.00020049989689141512, 0.06537089997436851, 0.013970399973914027, 0.02995690004900098, 11.404358300031163]",0,,,,,,,,,,,,,,,,,,,,,,,,,,,,,,,,,,,,,,,,,,,,,,,,,,,,,,,,,,,,,,,,,,,,,,,,,,,,,,,,,,,,,,,,,,,,,,,,,,,,,,,,,,,,,,,,,,,,,,,,,,,,LGNA1L,train_y,red_square,bottom_right,2025-05-14_15h22.57.926,HideSeek_v1,2022.2.5,59.928146135870584,
,,,,,,,,,,,,,,,0,0,0,0,8,0,8,0,,,,,,,,,,,,,,,,,,,,,,,,,,,,,,,conditions/schedules/train_y_first/red_square_00/bottom_right/instructions/Slide9.png,conditions/schedules/train_y_first/red_square_00/bottom_right/instructions/Audio9.wav,2613.6917573000537,2613.6796225800176,9,"[5.714454400003888, 18.262911300058477, 17.274863500031643, 19.355851900065318, 4.755887699895538, 4.936762399971485, 6.901115200016648, 11.404351499979384, 0.13569100003223866]","[0.03125280002132058, 0.014004800003021955, 0.035867400001734495, 0.00020049989689141512, 0.06537089997436851, 0.013970399973914027, 0.02995690004900098, 0.035647999960929155, 0.1356977999676019]",0,,,,,,,,,,,,,,,,,,,,,,,,,,,,,,,,,,,,,,,,,,,,,,,,,,,,,,,,,,,,,,,,,,,,,,,,,,,,,,,,,,,,,,,,,,,,,,,,,,,,,,,,,,,,,,,,,,,,,,,,,,,,LGNA1L,train_y,red_square,bottom_right,2025-05-14_15h22.57.926,HideSeek_v1,2022.2.5,59.928146135870584,
,,,,,,,,,,,,,,,0,0,0,0,9,0,9,0,,,,,,,,,,,,,,,,,,,,,,,,,,,,,,,conditions/schedules/train_y_first/red_square_00/bottom_right/instructions/Slide10.png,conditions/schedules/train_y_first/red_square_00/bottom_right/instructions/Audio10.wav,2613.86600420007,2613.863289810042,10,"[5.714454400003888, 18.262911300058477, 17.274863500031643, 19.355851900065318, 4.755887699895538, 4.936762399971485, 6.901115200016648, 11.404351499979384, 0.13569100003223866, 8.119382300064899]","[0.03125280002132058, 0.014004800003021955, 0.035867400001734495, 0.00020049989689141512, 0.06537089997436851, 0.013970399973914027, 0.02995690004900098, 0.035647999960929155, 0.00020780006889253855, 8.119389400002547]",0,,,,,,,,,,,,,,,,,,,,,,,,,,,,,,,,,,,,,,,,,,,,,,,,,,,,,,,,,,,,,,,,,,,,,,,,,,,,,,,,,,,,,,,,,,,,,,,,,,,,,,,,,,,,,,,,,,,,,,,,,,,,LGNA1L,train_y,red_square,bottom_right,2025-05-14_15h22.57.926,HideSeek_v1,2022.2.5,59.928146135870584,
,,,,,,,,,,,,,,,0,0,0,0,10,0,10,0,,,,,,,,,,,,,,,,,,,,,,,,,,,,,,,conditions/schedules/train_y_first/red_square_00/bottom_right/instructions/Slide11.png,conditions/schedules/train_y_first/red_square_00/bottom_right/instructions/Audio11.wav,2622.024505499983,2622.019771209941,11,"[5.714454400003888, 18.262911300058477, 17.274863500031643, 19.355851900065318, 4.755887699895538, 4.936762399971485, 6.901115200016648, 11.404351499979384, 0.13569100003223866, 8.119382300064899, 10.101094100042246]","[0.03125280002132058, 0.014004800003021955, 0.035867400001734495, 0.00020049989689141512, 0.06537089997436851, 0.013970399973914027, 0.02995690004900098, 0.035647999960929155, 0.00020780006889253855, 0.030107300030067563, 10.101100699976087]",0,,,,,,,,,,,,,,,,,,,,,,,,,,,,,,,,,,,,,,,,,,,,,,,,,,,,,,,,,,,,,,,,,,,,,,,,,,,,,,,,,,,,,,,,,,,,,,,,,,,,,,,,,,,,,,,,,,,,,,,,,,,,LGNA1L,train_y,red_square,bottom_right,2025-05-14_15h22.57.926,HideSeek_v1,2022.2.5,59.928146135870584,
,,,,,,,,,,,,,,,0,0,0,0,11,0,11,0,,,,,,,,,,,,,,,,,,,,,,,,,,,,,,,conditions/schedules/train_y_first/red_square_00/bottom_right/instructions/Slide12.png,conditions/schedules/train_y_first/red_square_00/bottom_right/instructions/Audio12.wav,2632.1994763000403,2632.194929149933,12,"[5.714454400003888, 18.262911300058477, 17.274863500031643, 19.355851900065318, 4.755887699895538, 4.936762399971485, 6.901115200016648, 11.404351499979384, 0.13569100003223866, 8.119382300064899, 10.101094100042246, 13.787943899980746]","[0.03125280002132058, 0.014004800003021955, 0.035867400001734495, 0.00020049989689141512, 0.06537089997436851, 0.013970399973914027, 0.02995690004900098, 0.035647999960929155, 0.00020780006889253855, 0.030107300030067563, 0.013993199914693832, 13.787950999918394]",0,,,,,,,,,,,,,,,,,,,,,,,,,,,,,,,,,,,,,,,,,,,,,,,,,,,,,,,,,,,,,,,,,,,,,,,,,,,,,,,,,,,,,,,,,,,,,,,,,,,,,,,,,,,,,,,,,,,,,,,,,,,,LGNA1L,train_y,red_square,bottom_right,2025-05-14_15h22.57.926,HideSeek_v1,2022.2.5,59.928146135870584,
1,7,3,7,8,0,5,11,2,instr_dim1_1,,,,,,0,0,0,0,,,,,0,0,0,0,,,,,,,,,,,,,,,,,,,,,,,,,,,,,,,,,,,,,stimuli/alien_stimuli/11.png,conditions/schedules/train_y_first/red_square_00/bottom_right/inputInstr_1.xlsx,stimuli/alien_stimuli/11.png,2646.095002099988,2646.095002099988,2646.095002099988,2646.095002099988,2646.090030589932,return,7.541454500053078,"[-0.16, -0.08, 0, 0.08, 0.16, 0.24, 0.32, 0.4, 0.48, 0.56]","[-0.4, -0.32, -0.24, -0.16, -0.08, 0, 0.08, 0.16, 0.24, 0.32]",8,3,7,7,0.4,0.0,2653.7955408999696,2653.7955408999696,2653.7955408999696,2653.7955408999696,2653.7955408999696,2653.7955408999696,2653.7955408999696,2653.7958922299554,9.025953700067475,return,8.869986500008963,stimuli/alien_stimuli/11.png,11,7,1,,,,,,,,,,,,,,,,,,,,,,,,,,,,,,,,,,,,,,,,,,,,,,,,,,,,,,,,,,,,,,,,,,,,,,,,,,,,,,,,,,,,,,,,,LGNA1L,train_y,red_square,bottom_right,2025-05-14_15h22.57.926,HideSeek_v1,2022.2.5,59.928146135870584,
,,,,,,,,,,,30,,,,0,0,0,0,,,,,,,,,,,,,,,,,,,,,,,,,,,,,,,,,,,,,,,,,,,,,,,,,,,,,,,,,,,,,,,,,,,,,,,,,,,,,,21,0.7,0,0,99,1,30,0,conditions/schedules/train_y_first/red_square_00/bottom_right/inputTrain_1.1.xlsx,99,1,1,1,0,,,,,,,,,,,,,,,,,,,,,,,,,,,,,,,,,,,,,,,,,,,,,,,,,,,,,,,,,,,,,,,,,,,,,,,,,,,LGNA1L,train_y,red_square,bottom_right,2025-05-14_15h22.57.926,HideSeek_v1,2022.2.5,59.928146135870584,
,,,,,,,,,,,,,,,1,0,1,0,0,0,0,0,,,,,,,,,,,,,,,,,,,,,,,,,,,,,,,conditions/schedules/train_y_first/red_square_00/bottom_right/instructions/Slide13.png,conditions/schedules/train_y_first/red_square_00/bottom_right/instructions/Audio13.wav,2662.8176385000115,2662.8040286599658,13,"[5.714454400003888, 18.262911300058477, 17.274863500031643, 19.355851900065318, 4.755887699895538, 4.936762399971485, 6.901115200016648, 11.404351499979384, 0.13569100003223866, 8.119382300064899, 10.101094100042246, 13.787943899980746, 16.497502799960785]","[0.03125280002132058, 0.014004800003021955, 0.035867400001734495, 0.00020049989689141512, 0.06537089997436851, 0.013970399973914027, 0.02995690004900098, 0.035647999960929155, 0.00020780006889253855, 0.030107300030067563, 0.013993199914693832, 13.787950999918394, 16.497509600012563]",0,,,,,,,,,,,,,,,,,,,,,,,,,,,,,,,,,,,,,,,,,,,,,,,,,,,,,,,,,,,,,,,,,,,,,,,,,,,,,,,,,,,,,,,,,,,,,,,,,,,,,,,,,,,,,,,,,,,,,,,,,,,,LGNA1L,train_y,red_square,bottom_right,2025-05-14_15h22.57.926,HideSeek_v1,2022.2.5,59.928146135870584,
,,,,,,,,,,,,,,,1,0,1,0,1,0,1,0,,,,,,,,,,,,,,,,,,,,,,,,,,,,,,,conditions/schedules/train_y_first/red_square_00/bottom_right/instructions/Slide14.png,conditions/schedules/train_y_first/red_square_00/bottom_right/instructions/Audio14.wav,2679.384540500003,2679.384197050007,14,"[5.714454400003888, 18.262911300058477, 17.274863500031643, 19.355851900065318, 4.755887699895538, 4.936762399971485, 6.901115200016648, 11.404351499979384, 0.13569100003223866, 8.119382300064899, 10.101094100042246, 13.787943899980746, 16.497502799960785, 16.644132899935357]","[0.03125280002132058, 0.014004800003021955, 0.035867400001734495, 0.00020049989689141512, 0.06537089997436851, 0.013970399973914027, 0.02995690004900098, 0.035647999960929155, 0.00020780006889253855, 0.030107300030067563, 0.013993199914693832, 13.787950999918394, 0.030958999996073544, 16.64413939998485]",0,,,,,,,,,,,,,,,,,,,,,,,,,,,,,,,,,,,,,,,,,,,,,,,,,,,,,,,,,,,,,,,,,,,,,,,,,,,,,,,,,,,,,,,,,,,,,,,,,,,,,,,,,,,,,,,,,,,,,,,,,,,,LGNA1L,train_y,red_square,bottom_right,2025-05-14_15h22.57.926,HideSeek_v1,2022.2.5,59.928146135870584,
2,5,3,5,3,0,0,16,2,instr_dim1_1,,,,,,1,0,1,0,,,,,0,0,0,0,,,,,,,,,,,,,,,,,,,,,,,,,,,,,,,,,,,,,stimuli/alien_stimuli/16.png,conditions/schedules/train_y_first/red_square_00/bottom_right/inputInstr_1.xlsx,stimuli/alien_stimuli/16.png,2696.127148400061,2696.127148400061,2696.127148400061,2696.127148400061,2696.131287189992,return,5.7679532000329345,"[-0.16, -0.08, 0, 0.08, 0.16, 0.24, 0.32, 0.4, 0.48, 0.56]","[-0.4, -0.32, -0.24, -0.16, -0.08, 0, 0.08, 0.16, 0.24, 0.32]",3,3,5,5,0.0,0.0,2702.050115799997,2702.050115799997,2702.050115799997,2702.050115799997,2702.050115799997,2702.050115799997,2702.050115799997,2702.0363744599977,4.621494599967264,return,4.46716630004812,stimuli/alien_stimuli/16.png,16,5,2,,,,,,,,,,,,,,,,,,,,,,,,,,,,,,,,,,,,,,,,,,,,,,,,,,,,,,,,,,,,,,,,,,,,,,,,,,,,,,,,,,,,,,,,,LGNA1L,train_y,red_square,bottom_right,2025-05-14_15h22.57.926,HideSeek_v1,2022.2.5,59.928146135870584,
,,,,,,,,,,,30,,,,1,0,1,0,,,,,,,,,,,,,,,,,,,,,,,,,,,,,,,,,,,,,,,,,,,,,,,,,,,,,,,,,,,,,,,,,,,,,,,,,,,,,,21,0.7,0,0,99,1,30,0,conditions/schedules/train_y_first/red_square_00/bottom_right/inputTrain_1.1.xlsx,99,1,1,1,0,,,,,,,,,,,,,,,,,,,,,,,,,,,,,,,,,,,,,,,,,,,,,,,,,,,,,,,,,,,,,,,,,,,,,,,,,,,LGNA1L,train_y,red_square,bottom_right,2025-05-14_15h22.57.926,HideSeek_v1,2022.2.5,59.928146135870584,
,,,,,,,,,,,,,,,2,0,2,0,0,0,0,0,,,,,,,,,,,,,,,,,,,,,,,,,,,,,,,conditions/schedules/train_y_first/red_square_00/bottom_right/instructions/Slide15.png,conditions/schedules/train_y_first/red_square_00/bottom_right/instructions/Audio15.wav,2706.695978700067,2706.690216899966,15,"[5.714454400003888, 18.262911300058477, 17.274863500031643, 19.355851900065318, 4.755887699895538, 4.936762399971485, 6.901115200016648, 11.404351499979384, 0.13569100003223866, 8.119382300064899, 10.101094100042246, 13.787943899980746, 16.497502799960785, 16.644132899935357, 42.76041740004439]","[0.03125280002132058, 0.014004800003021955, 0.035867400001734495, 0.00020049989689141512, 0.06537089997436851, 0.013970399973914027, 0.02995690004900098, 0.035647999960929155, 0.00020780006889253855, 0.030107300030067563, 0.013993199914693832, 13.787950999918394, 0.030958999996073544, 16.64413939998485, 42.76042409997899]",0,,,,,,,,,,,,,,,,,,,,,,,,,,,,,,,,,,,,,,,,,,,,,,,,,,,,,,,,,,,,,,,,,,,,,,,,,,,,,,,,,,,,,,,,,,,,,,,,,,,,,,,,,,,,,,,,,,,,,,,,,,,,LGNA1L,train_y,red_square,bottom_right,2025-05-14_15h22.57.926,HideSeek_v1,2022.2.5,59.928146135870584,
,,,,,,,,,,,,,,,2,0,2,0,1,0,1,0,,,,,,,,,,,,,,,,,,,,,,,,,,,,,,,conditions/schedules/train_y_first/red_square_00/bottom_right/instructions/Slide16.png,conditions/schedules/train_y_first/red_square_00/bottom_right/instructions/Audio16.wav,2749.5276378999697,2749.52571524994,16,"[5.714454400003888, 18.262911300058477, 17.274863500031643, 19.355851900065318, 4.755887699895538, 4.936762399971485, 6.901115200016648, 11.404351499979384, 0.13569100003223866, 8.119382300064899, 10.101094100042246, 13.787943899980746, 16.497502799960785, 16.644132899935357, 42.76041740004439, 20.92970520001836]","[0.03125280002132058, 0.014004800003021955, 0.035867400001734495, 0.00020049989689141512, 0.06537089997436851, 0.013970399973914027, 0.02995690004900098, 0.035647999960929155, 0.00020780006889253855, 0.030107300030067563, 0.013993199914693832, 13.787950999918394, 0.030958999996073544, 16.64413939998485, 0.06224190001375973, 20.92971260007471]",0,,,,,,,,,,,,,,,,,,,,,,,,,,,,,,,,,,,,,,,,,,,,,,,,,,,,,,,,,,,,,,,,,,,,,,,,,,,,,,,,,,,,,,,,,,,,,,,,,,,,,,,,,,,,,,,,,,,,,,,,,,,,LGNA1L,train_y,red_square,bottom_right,2025-05-14_15h22.57.926,HideSeek_v1,2022.2.5,59.928146135870584,
,5,0,5,1,0,1,15,,train_dim1_1,1,30,,,,2,0,2,0,,,,,,,,,0,0,0,0,0,0,0,0,0,0,0,0,,,,,,,,,,,,,,,,,,,,,,,,,stimuli/alien_stimuli/15.png,,,,,,,,,,,,,,,,,,,,,,,,,,,,,,,,,,,,,,,30,,,,,,,,2770.564179399982,2770.564179399982,2770.564179399982,2770.564179399982,2770.564179399982,0,0,0.24,-0.4,return,21.527737600030378,0,1,0,0,0.24,-0.4,return,21.425138400052674,,,,,,,,,,,,,,,,,,,,,,,,,,,,,,,,,,,,,,,,,,,,,,,,,,,,,,,,LGNA1L,train_y,red_square,bottom_right,2025-05-14_15h22.57.926,HideSeek_v1,2022.2.5,59.928146135870584,
,8,2,8,2,0,0,16,,train_dim1_1,2,30,,,,2,0,2,0,,,,,,,,,0,0,0,0,0,1,1,1,0,0,0,0,,,,,,,,,,,,,,,,,,,,,,,,,stimuli/alien_stimuli/16.png,,,,,,,,,,,,,,,,,,,,,,,,,,,,,stimuli/alien_stimuli/15.png,15,5,3,,,,,,,30,,,,,,,,2815.762566599995,2815.762566599995,2815.762566599995,2815.762566599995,2815.762566599995,,,,,left,2.4231985000660643,0,1,0,99,0.39999999999999997,-0.24,left,2.336814400041476,2814.1957046999596,2815.762566599995,0.24,-0.32,0.08,0.0,-0.36,0.24,0.24,0.24,-0.32,2793.655659400043,2793.655659400043,2793.655659400043,2793.655659400043,2793.655659400043,2793.655659400043,2793.655659400043,2793.655659400043,2793.64565145995,20.669050799915567,return,20.51396350003779,,,,,,,,,,,,,,,,,,,,,,,,,,,,,,,,,LGNA1L,train_y,red_square,bottom_right,2025-05-14_15h22.57.926,HideSeek_v1,2022.2.5,59.928146135870584,
,8,2,8,2,0,0,16,,train_dim1_1,2,30,,,,2,0,2,0,,,,,,,,,0,0,0,0,0,1,1,1,1,0,1,0,,,,,,,,,,,,,,,,,,,,,,,,,,,,,,,,,,,,,,,,,,,,,,,,,,,,,,,,,,,,,,,,30,,,,,,,,2818.183779000072,2818.183779000072,2818.183779000072,2818.183779000072,2818.183779000072,,,,,right,1.260095200035721,0,1,0,99,0.48,-0.24,right,1.179053800064139,,,,,,,,,,,,,,,,,,,,,,,,,,,,,,,,,,,,,,,,,,,,,,,,,,,,,,,,LGNA1L,train_y,red_square,bottom_right,2025-05-14_15h22.57.926,HideSeek_v1,2022.2.5,59.928146135870584,
,8,2,8,2,0,0,16,,train_dim1_1,2,30,,,,2,0,2,0,,,,,,,,,0,0,0,0,0,1,1,1,2,0,2,0,,,,,,,,,,,,,,,,,,,,,,,,,,,,,,,,,,,,,,,,,,,,,,,,,,,,,,,,,,,,,,,,30,,,,,,,,2819.4511807999806,2819.4511807999806,2819.4511807999806,2819.4511807999806,2819.4511807999806,0,0,0.48,-0.24,return,7.198095100000501,1,0,0,1,0.48,-0.24,return,7.119583900086582,,,,,,,,,,,,,,,,,,,,,,,,,,,,,,,,,,,,,,,,,,,,,,,,,,,,,,,,LGNA1L,train_y,red_square,bottom_right,2025-05-14_15h22.57.926,HideSeek_v1,2022.2.5,59.928146135870584,
,7,3,7,6,0,3,13,,train_dim1_1,3,30,,,,2,0,2,0,,,,,,,,,0,0,0,0,0,2,2,2,0,0,0,0,,,,,,,,,,,,,,,,,,,,,,,,,stimuli/alien_stimuli/13.png,,,,,,,,,,,,,,,,,,,,,,,,,,,,,stimuli/alien_stimuli/16.png,16,8,4,,,,,,,30,,,,,,,,2834.869453100022,2834.869453100022,2834.869453100022,2834.869453100022,2834.869453100022,,,,,up,2.458280500024557,1,0,0,99,0.4,-0.08,up,2.3682278000051156,2833.3113196999766,2834.869453100022,0.48,-0.24,0.0,0.0,-0.24,0.48,0.48,0.48,-0.24,2828.2279454000527,2828.2279454000527,2828.2279454000527,2828.2279454000527,2828.2279454000527,2828.2279454000527,2828.2279454000527,2828.2279454000527,2828.2240995599655,5.206757799955085,return,5.0679950000485405,,,,,,,,,,,,,,,,,,,,,,,,,,,,,,,,,LGNA1L,train_y,red_square,bottom_right,2025-05-14_15h22.57.926,HideSeek_v1,2022.2.5,59.928146135870584,
,7,3,7,6,0,3,13,,train_dim1_1,3,30,,,,2,0,2,0,,,,,,,,,0,0,0,0,0,2,2,2,1,0,1,0,,,,,,,,,,,,,,,,,,,,,,,,,,,,,,,,,,,,,,,,,,,,,,,,,,,,,,,,,,,,,,,,30,,,,,,,,2837.340852000052,2837.340852000052,2837.340852000052,2837.340852000052,2837.340852000052,,,,,down,1.2211607999633998,1,0,0,99,0.4,-0.16,down,1.1275543000083417,,,,,,,,,,,,,,,,,,,,,,,,,,,,,,,,,,,,,,,,,,,,,,,,,,,,,,,,LGNA1L,train_y,red_square,bottom_right,2025-05-14_15h22.57.926,HideSeek_v1,2022.2.5,59.928146135870584,
,7,3,7,6,0,3,13,,train_dim1_1,3,30,,,,2,0,2,0,,,,,,,,,0,0,0,0,0,2,2,2,2,0,2,0,,,,,,,,,,,,,,,,,,,,,,,,,,,,,,,,,,,,,,,,,,,,,,,,,,,,,,,,,,,,,,,,30,,,,,,,,2838.5656701000407,2838.5656701000407,2838.5656701000407,2838.5656701000407,2838.5656701000407,0,0,0.4,-0.16,return,0.8938366000074893,1,0,0,0,0.4,-0.16,return,0.8127307000104338,,,,,,,,,,,,,,,,,,,,,,,,,,,,,,,,,,,,,,,,,,,,,,,,,,,,,,,,LGNA1L,train_y,red_square,bottom_right,2025-05-14_15h22.57.926,HideSeek_v1,2022.2.5,59.928146135870584,
,5,1,5,5,0,4,12,,train_dim1_1,4,30,,,,2,0,2,0,,,,,,,,,0,0,0,0,0,3,3,3,0,0,0,0,,,,,,,,,,,,,,,,,,,,,,,,,stimuli/alien_stimuli/12.png,,,,,,,,,,,,,,,,,,,,,,,,,,,,,stimuli/alien_stimuli/13.png,13,7,5,,,,,,,30,,,,,,,,2851.5470566999866,2851.5470566999866,2851.5470566999866,2851.5470566999866,2851.5470566999866,,,,,up,2.4574441999429837,1,0,0,99,0.24,-0.24,up,2.3606250999728218,2849.9756833000574,2851.5470566999866,0.4,0.08,0.24,0.0,-0.04,0.4,0.4,0.4,0.08,2841.033816399984,2841.033816399984,2841.033816399984,2841.033816399984,2841.033816399984,2841.033816399984,2841.033816399984,2841.033816399984,2841.034920659987,9.059780000010505,return,8.924663999932818,,,,,,,,,,,,,,,,,,,,,,,,,,,,,,,,,LGNA1L,train_y,red_square,bottom_right,2025-05-14_15h22.57.926,HideSeek_v1,2022.2.5,59.928146135870584,
,5,1,5,5,0,4,12,,train_dim1_1,4,30,,,,2,0,2,0,,,,,,,,,0,0,0,0,0,3,3,3,1,0,1,0,,,,,,,,,,,,,,,,,,,,,,,,,,,,,,,,,,,,,,,,,,,,,,,,,,,,,,,,,,,,,,,,30,,,,,,,,2853.9969353000633,2853.9969353000633,2853.9969353000633,2853.9969353000633,2853.9969353000633,,,,,down,2.361291700042784,1,0,0,99,0.24,-0.32,down,2.2711059999419376,,,,,,,,,,,,,,,,,,,,,,,,,,,,,,,,,,,,,,,,,,,,,,,,,,,,,,,,LGNA1L,train_y,red_square,bottom_right,2025-05-14_15h22.57.926,HideSeek_v1,2022.2.5,59.928146135870584,
,5,1,5,5,0,4,12,,train_dim1_1,4,30,,,,2,0,2,0,,,,,,,,,0,0,0,0,0,3,3,3,2,0,2,0,,,,,,,,,,,,,,,,,,,,,,,,,,,,,,,,,,,,,,,,,,,,,,,,,,,,,,,,,,,,,,,,30,,,,,,,,2856.3655661999946,2856.3655661999946,2856.3655661999946,2856.3655661999946,2856.3655661999946,,,,,up,2.1609622999094427,1,0,0,99,0.24,-0.24,up,2.084646600065753,,,,,,,,,,,,,,,,,,,,,,,,,,,,,,,,,,,,,,,,,,,,,,,,,,,,,,,,LGNA1L,train_y,red_square,bottom_right,2025-05-14_15h22.57.926,HideSeek_v1,2022.2.5,59.928146135870584,
,5,1,5,5,0,4,12,,train_dim1_1,4,30,,,,2,0,2,0,,,,,,,,,0,0,0,0,0,3,3,3,3,0,3,0,,,,,,,,,,,,,,,,,,,,,,,,,,,,,,,,,,,,,,,,,,,,,,,,,,,,,,,,,,,,,,,,30,,,,,,,,2858.5330160000594,2858.5330160000594,2858.5330160000594,2858.5330160000594,2858.5330160000594,,,,,up,0.6435722999740392,1,0,0,99,0.24,-0.15999999999999998,up,0.5619513998972252,,,,,,,,,,,,,,,,,,,,,,,,,,,,,,,,,,,,,,,,,,,,,,,,,,,,,,,,LGNA1L,train_y,red_square,bottom_right,2025-05-14_15h22.57.926,HideSeek_v1,2022.2.5,59.928146135870584,
,5,1,5,5,0,4,12,,train_dim1_1,4,30,,,,2,0,2,0,,,,,,,,,0,0,0,0,0,3,3,3,4,0,4,0,,,,,,,,,,,,,,,,,,,,,,,,,,,,,,,,,,,,,,,,,,,,,,,,,,,,,,,,,,,,,,,,30,,,,,,,,2859.184733700007,2859.184733700007,2859.184733700007,2859.184733700007,2859.184733700007,,,,,left,1.2273782000411302,1,0,0,99,0.15999999999999998,-0.15999999999999998,left,1.1417737998999655,,,,,,,,,,,,,,,,,,,,,,,,,,,,,,,,,,,,,,,,,,,,,,,,,,,,,,,,LGNA1L,train_y,red_square,bottom_right,2025-05-14_15h22.57.926,HideSeek_v1,2022.2.5,59.928146135870584,
,5,1,5,5,0,4,12,,train_dim1_1,4,30,,,,2,0,2,0,,,,,,,,,0,0,0,0,0,3,3,3,5,0,5,0,,,,,,,,,,,,,,,,,,,,,,,,,,,,,,,,,,,,,,,,,,,,,,,,,,,,,,,,,,,,,,,,30,,,,,,,,2860.419814300025,2860.419814300025,2860.419814300025,2860.419814300025,2860.419814300025,,,,,left,1.4102973999688402,1,0,0,99,0.07999999999999997,-0.15999999999999998,left,1.3315277999499813,,,,,,,,,,,,,,,,,,,,,,,,,,,,,,,,,,,,,,,,,,,,,,,,,,,,,,,,LGNA1L,train_y,red_square,bottom_right,2025-05-14_15h22.57.926,HideSeek_v1,2022.2.5,59.928146135870584,
,5,1,5,5,0,4,12,,train_dim1_1,4,30,,,,2,0,2,0,,,,,,,,,0,0,0,0,0,3,3,3,6,0,6,0,,,,,,,,,,,,,,,,,,,,,,,,,,,,,,,,,,,,,,,,,,,,,,,,,,,,,,,,,,,,,,,,30,,,,,,,,2861.8357567000203,2861.8357567000203,2861.8357567000203,2861.8357567000203,2861.8357567000203,,,,,down,0.7437860000645742,1,0,0,99,0.07999999999999997,-0.24,down,0.6562941999873146,,,,,,,,,,,,,,,,,,,,,,,,,,,,,,,,,,,,,,,,,,,,,,,,,,,,,,,,LGNA1L,train_y,red_square,bottom_right,2025-05-14_15h22.57.926,HideSeek_v1,2022.2.5,59.928146135870584,
,5,1,5,5,0,4,12,,train_dim1_1,4,30,,,,2,0,2,0,,,,,,,,,0,0,0,0,0,3,3,3,7,0,7,0,,,,,,,,,,,,,,,,,,,,,,,,,,,,,,,,,,,,,,,,,,,,,,,,,,,,,,,,,,,,,,,,30,,,,,,,,2862.5861814999953,2862.5861814999953,2862.5861814999953,2862.5861814999953,2862.5861814999953,,,,,down,0.4098570999922231,1,0,0,99,0.07999999999999997,-0.32,down,0.3292925999267027,,,,,,,,,,,,,,,,,,,,,,,,,,,,,,,,,,,,,,,,,,,,,,,,,,,,,,,,LGNA1L,train_y,red_square,bottom_right,2025-05-14_15h22.57.926,HideSeek_v1,2022.2.5,59.928146135870584,
,5,1,5,5,0,4,12,,train_dim1_1,4,30,,,,2,0,2,0,,,,,,,,,0,0,0,0,0,3,3,3,8,0,8,0,,,,,,,,,,,,,,,,,,,,,,,,,,,,,,,,,,,,,,,,,,,,,,,,,,,,,,,,,,,,,,,,30,,,,,,,,2863.003086199984,2863.003086199984,2863.003086199984,2863.003086199984,2863.003086199984,,,,,right,0.9440209000604227,1,0,0,99,0.15999999999999998,-0.32,right,0.8560554999858141,,,,,,,,,,,,,,,,,,,,,,,,,,,,,,,,,,,,,,,,,,,,,,,,,,,,,,,,LGNA1L,train_y,red_square,bottom_right,2025-05-14_15h22.57.926,HideSeek_v1,2022.2.5,59.928146135870584,
,5,1,5,5,0,4,12,,train_dim1_1,4,30,,,,2,0,2,0,,,,,,,,,0,0,0,0,0,3,3,3,9,0,9,0,,,,,,,,,,,,,,,,,,,,,,,,,,,,,,,,,,,,,,,,,,,,,,,,,,,,,,,,,,,,,,,,30,,,,,,,,2863.954704300035,2863.954704300035,2863.954704300035,2863.954704300035,2863.954704300035,,,,,right,0.41003260004799813,1,0,0,99,0.24,-0.32,right,0.32877739996183664,,,,,,,,,,,,,,,,,,,,,,,,,,,,,,,,,,,,,,,,,,,,,,,,,,,,,,,,LGNA1L,train_y,red_square,bottom_right,2025-05-14_15h22.57.926,HideSeek_v1,2022.2.5,59.928146135870584,
,5,1,5,5,0,4,12,,train_dim1_1,4,30,,,,2,0,2,0,,,,,,,,,0,0,0,0,0,3,3,3,10,0,10,0,,,,,,,,,,,,,,,,,,,,,,,,,,,,,,,,,,,,,,,,,,,,,,,,,,,,,,,,,,,,,,,,30,,,,,,,,2864.3714158000657,2864.3714158000657,2864.3714158000657,2864.3714158000657,2864.3714158000657,,,,,right,3.112139599979855,1,0,0,99,0.32,-0.32,right,3.0347072000149637,,,,,,,,,,,,,,,,,,,,,,,,,,,,,,,,,,,,,,,,,,,,,,,,,,,,,,,,LGNA1L,train_y,red_square,bottom_right,2025-05-14_15h22.57.926,HideSeek_v1,2022.2.5,59.928146135870584,
,5,1,5,5,0,4,12,,train_dim1_1,4,30,,,,2,0,2,0,,,,,,,,,0,0,0,0,0,3,3,3,11,0,11,0,,,,,,,,,,,,,,,,,,,,,,,,,,,,,,,,,,,,,,,,,,,,,,,,,,,,,,,,,,,,,,,,30,,,,,,,,2867.4908422000008,2867.4908422000008,2867.4908422000008,2867.4908422000008,2867.4908422000008,,,,,up,1.7445503000635654,1,0,0,99,0.32,-0.24,up,1.6565901000285521,,,,,,,,,,,,,,,,,,,,,,,,,,,,,,,,,,,,,,,,,,,,,,,,,,,,,,,,LGNA1L,train_y,red_square,bottom_right,2025-05-14_15h22.57.926,HideSeek_v1,2022.2.5,59.928146135870584,
,5,1,5,5,0,4,12,,train_dim1_1,4,30,,,,2,0,2,0,,,,,,,,,0,0,0,0,0,3,3,3,12,0,12,0,,,,,,,,,,,,,,,,,,,,,,,,,,,,,,,,,,,,,,,,,,,,,,,,,,,,,,,,,,,,,,,,30,,,,,,,,2869.2423253000015,2869.2423253000015,2869.2423253000015,2869.2423253000015,2869.2423253000015,,,,,up,0.5935918999603018,1,0,0,99,0.32,-0.15999999999999998,up,0.5058727000141516,,,,,,,,,,,,,,,,,,,,,,,,,,,,,,,,,,,,,,,,,,,,,,,,,,,,,,,,LGNA1L,train_y,red_square,bottom_right,2025-05-14_15h22.57.926,HideSeek_v1,2022.2.5,59.928146135870584,
,5,1,5,5,0,4,12,,train_dim1_1,4,30,,,,2,0,2,0,,,,,,,,,0,0,0,0,0,3,3,3,13,0,13,0,,,,,,,,,,,,,,,,,,,,,,,,,,,,,,,,,,,,,,,,,,,,,,,,,,,,,,,,,,,,,,,,30,,,,,,,,2869.8428035000106,2869.8428035000106,2869.8428035000106,2869.8428035000106,2869.8428035000106,,,,,up,0.47652299993205816,1,0,0,99,0.32,-0.07999999999999997,up,0.39742870000191033,,,,,,,,,,,,,,,,,,,,,,,,,,,,,,,,,,,,,,,,,,,,,,,,,,,,,,,,LGNA1L,train_y,red_square,bottom_right,2025-05-14_15h22.57.926,HideSeek_v1,2022.2.5,59.928146135870584,
,5,1,5,5,0,4,12,,train_dim1_1,4,30,,,,2,0,2,0,,,,,,,,,0,0,0,0,0,3,3,3,14,0,14,0,,,,,,,,,,,,,,,,,,,,,,,,,,,,,,,,,,,,,,,,,,,,,,,,,,,,,,,,,,,,,,,,30,,,,,,,,2870.3261002000654,2870.3261002000654,2870.3261002000654,2870.3261002000654,2870.3261002000654,,,,,left,0.8104040999896824,1,0,0,99,0.24,-0.07999999999999997,left,0.7269016999052837,,,,,,,,,,,,,,,,,,,,,,,,,,,,,,,,,,,,,,,,,,,,,,,,,,,,,,,,LGNA1L,train_y,red_square,bottom_right,2025-05-14_15h22.57.926,HideSeek_v1,2022.2.5,59.928146135870584,
,5,1,5,5,0,4,12,,train_dim1_1,4,30,,,,2,0,2,0,,,,,,,,,0,0,0,0,0,3,3,3,15,0,15,0,,,,,,,,,,,,,,,,,,,,,,,,,,,,,,,,,,,,,,,,,,,,,,,,,,,,,,,,,,,,,,,,30,,,,,,,,2871.144929800066,2871.144929800066,2871.144929800066,2871.144929800066,2871.144929800066,,,,,left,0.5430325000779703,1,0,0,99,0.15999999999999998,-0.07999999999999997,left,0.4658043999224901,,,,,,,,,,,,,,,,,,,,,,,,,,,,,,,,,,,,,,,,,,,,,,,,,,,,,,,,LGNA1L,train_y,red_square,bottom_right,2025-05-14_15h22.57.926,HideSeek_v1,2022.2.5,59.928146135870584,
,5,1,5,5,0,4,12,,train_dim1_1,4,30,,,,2,0,2,0,,,,,,,,,0,0,0,0,0,3,3,3,16,0,16,0,,,,,,,,,,,,,,,,,,,,,,,,,,,,,,,,,,,,,,,,,,,,,,,,,,,,,,,,,,,,,,,,30,,,,,,,,2871.6947495000204,2871.6947495000204,2871.6947495000204,2871.6947495000204,2871.6947495000204,,,,,left,1.1607379000633955,1,0,0,99,0.07999999999999997,-0.07999999999999997,left,1.0823242999613285,,,,,,,,,,,,,,,,,,,,,,,,,,,,,,,,,,,,,,,,,,,,,,,,,,,,,,,,LGNA1L,train_y,red_square,bottom_right,2025-05-14_15h22.57.926,HideSeek_v1,2022.2.5,59.928146135870584,
,5,1,5,5,0,4,12,,train_dim1_1,4,30,,,,2,0,2,0,,,,,,,,,0,0,0,0,0,3,3,3,17,0,17,0,,,,,,,,,,,,,,,,,,,,,,,,,,,,,,,,,,,,,,,,,,,,,,,,,,,,,,,,,,,,,,,,30,,,,,,,,2872.86196010001,2872.86196010001,2872.86196010001,2872.86196010001,2872.86196010001,,,,,left,0.45998949999921024,1,0,0,99,-2.7755575615628914e-17,-0.07999999999999997,left,0.37147999997250736,,,,,,,,,,,,,,,,,,,,,,,,,,,,,,,,,,,,,,,,,,,,,,,,,,,,,,,,LGNA1L,train_y,red_square,bottom_right,2025-05-14_15h22.57.926,HideSeek_v1,2022.2.5,59.928146135870584,
,5,1,5,5,0,4,12,,train_dim1_1,4,30,,,,2,0,2,0,,,,,,,,,0,0,0,0,0,3,3,3,18,0,18,0,,,,,,,,,,,,,,,,,,,,,,,,,,,,,,,,,,,,,,,,,,,,,,,,,,,,,,,,,,,,,,,,30,,,,,,,,2873.3282316999976,2873.3282316999976,2873.3282316999976,2873.3282316999976,2873.3282316999976,,,,,right,0.8770430000731722,1,0,0,99,0.07999999999999997,-0.07999999999999997,right,0.7911699999822304,,,,,,,,,,,,,,,,,,,,,,,,,,,,,,,,,,,,,,,,,,,,,,,,,,,,,,,,LGNA1L,train_y,red_square,bottom_right,2025-05-14_15h22.57.926,HideSeek_v1,2022.2.5,59.928146135870584,
,5,1,5,5,0,4,12,,train_dim1_1,4,30,,,,2,0,2,0,,,,,,,,,0,0,0,0,0,3,3,3,19,0,19,0,,,,,,,,,,,,,,,,,,,,,,,,,,,,,,,,,,,,,,,,,,,,,,,,,,,,,,,,,,,,,,,,30,,,,,,,,2874.213517099968,2874.213517099968,2874.213517099968,2874.213517099968,2874.213517099968,,,,,right,0.4601167000364512,1,0,0,99,0.15999999999999998,-0.07999999999999997,right,0.3798473000060767,,,,,,,,,,,,,,,,,,,,,,,,,,,,,,,,,,,,,,,,,,,,,,,,,,,,,,,,LGNA1L,train_y,red_square,bottom_right,2025-05-14_15h22.57.926,HideSeek_v1,2022.2.5,59.928146135870584,
,5,1,5,5,0,4,12,,train_dim1_1,4,30,,,,2,0,2,0,,,,,,,,,0,0,0,0,0,3,3,3,20,0,20,0,,,,,,,,,,,,,,,,,,,,,,,,,,,,,,,,,,,,,,,,,,,,,,,,,,,,,,,,,,,,,,,,30,,,,,,,,2874.681022200035,2874.681022200035,2874.681022200035,2874.681022200035,2874.681022200035,,,,,right,0.29294090007897466,1,0,0,99,0.24,-0.07999999999999997,right,0.20930360001511872,,,,,,,,,,,,,,,,,,,,,,,,,,,,,,,,,,,,,,,,,,,,,,,,,,,,,,,,LGNA1L,train_y,red_square,bottom_right,2025-05-14_15h22.57.926,HideSeek_v1,2022.2.5,59.928146135870584,
,5,1,5,5,0,4,12,,train_dim1_1,4,30,,,,2,0,2,0,,,,,,,,,0,0,0,0,0,3,3,3,21,0,21,0,,,,,,,,,,,,,,,,,,,,,,,,,,,,,,,,,,,,,,,,,,,,,,,,,,,,,,,,,,,,,,,,30,,,,,,,,2874.9809703000356,2874.9809703000356,2874.9809703000356,2874.9809703000356,2874.9809703000356,,,,,right,0.2764240000396967,1,0,0,99,0.32,-0.07999999999999997,right,0.19503999990411103,,,,,,,,,,,,,,,,,,,,,,,,,,,,,,,,,,,,,,,,,,,,,,,,,,,,,,,,LGNA1L,train_y,red_square,bottom_right,2025-05-14_15h22.57.926,HideSeek_v1,2022.2.5,59.928146135870584,
,5,1,5,5,0,4,12,,train_dim1_1,4,30,,,,2,0,2,0,,,,,,,,,0,0,0,0,0,3,3,3,22,0,22,0,,,,,,,,,,,,,,,,,,,,,,,,,,,,,,,,,,,,,,,,,,,,,,,,,,,,,,,,,,,,,,,,30,,,,,,,,2875.2641953000566,2875.2641953000566,2875.2641953000566,2875.2641953000566,2875.2641953000566,,,,,right,0.2432991999667138,1,0,0,99,0.4,-0.07999999999999997,right,0.15687780000735074,,,,,,,,,,,,,,,,,,,,,,,,,,,,,,,,,,,,,,,,,,,,,,,,,,,,,,,,LGNA1L,train_y,red_square,bottom_right,2025-05-14_15h22.57.926,HideSeek_v1,2022.2.5,59.928146135870584,
,5,1,5,5,0,4,12,,train_dim1_1,4,30,,,,2,0,2,0,,,,,,,,,0,0,0,0,0,3,3,3,23,0,23,0,,,,,,,,,,,,,,,,,,,,,,,,,,,,,,,,,,,,,,,,,,,,,,,,,,,,,,,,,,,,,,,,30,,,,,,,,2875.5147152000573,2875.5147152000573,2875.5147152000573,2875.5147152000573,2875.5147152000573,,,,,right,0.2765805999515578,1,0,0,99,0.48000000000000004,-0.07999999999999997,right,0.19059099990408868,,,,,,,,,,,,,,,,,,,,,,,,,,,,,,,,,,,,,,,,,,,,,,,,,,,,,,,,LGNA1L,train_y,red_square,bottom_right,2025-05-14_15h22.57.926,HideSeek_v1,2022.2.5,59.928146135870584,
,5,1,5,5,0,4,12,,train_dim1_1,4,30,,,,2,0,2,0,,,,,,,,,0,0,0,0,0,3,3,3,24,0,24,0,,,,,,,,,,,,,,,,,,,,,,,,,,,,,,,,,,,,,,,,,,,,,,,,,,,,,,,,,,,,,,,,30,,,,,,,,2875.7979459000053,2875.7979459000053,2875.7979459000053,2875.7979459000053,2875.7979459000053,,,,,left,1.0267803999595344,1,0,0,99,0.4,-0.07999999999999997,left,0.9372597000328824,,,,,,,,,,,,,,,,,,,,,,,,,,,,,,,,,,,,,,,,,,,,,,,,,,,,,,,,LGNA1L,train_y,red_square,bottom_right,2025-05-14_15h22.57.926,HideSeek_v1,2022.2.5,59.928146135870584,
,5,1,5,5,0,4,12,,train_dim1_1,4,30,,,,2,0,2,0,,,,,,,,,0,0,0,0,0,3,3,3,25,0,25,0,,,,,,,,,,,,,,,,,,,,,,,,,,,,,,,,,,,,,,,,,,,,,,,,,,,,,,,,,,,,,,,,30,,,,,,,,2876.831711500068,2876.831711500068,2876.831711500068,2876.831711500068,2876.831711500068,,,,,up,0.5434686999069527,1,0,0,99,0.4,2.7755575615628914e-17,up,0.4539407999254763,,,,,,,,,,,,,,,,,,,,,,,,,,,,,,,,,,,,,,,,,,,,,,,,,,,,,,,,LGNA1L,train_y,red_square,bottom_right,2025-05-14_15h22.57.926,HideSeek_v1,2022.2.5,59.928146135870584,
,5,1,5,5,0,4,12,,train_dim1_1,4,30,,,,2,0,2,0,,,,,,,,,0,0,0,0,0,3,3,3,26,0,26,0,,,,,,,,,,,,,,,,,,,,,,,,,,,,,,,,,,,,,,,,,,,,,,,,,,,,,,,,,,,,,,,,30,,,,,,,,2877.382100900053,2877.382100900053,2877.382100900053,2877.382100900053,2877.382100900053,,,,,up,0.5768269000109285,1,0,0,99,0.4,0.08000000000000003,up,0.48739259992726147,,,,,,,,,,,,,,,,,,,,,,,,,,,,,,,,,,,,,,,,,,,,,,,,,,,,,,,,LGNA1L,train_y,red_square,bottom_right,2025-05-14_15h22.57.926,HideSeek_v1,2022.2.5,59.928146135870584,
,5,1,5,5,0,4,12,,train_dim1_1,4,30,,,,2,0,2,0,,,,,,,,,0,0,0,0,0,3,3,3,27,0,27,0,,,,,,,,,,,,,,,,,,,,,,,,,,,,,,,,,,,,,,,,,,,,,,,,,,,,,,,,,,,,,,,,30,,,,,,,,2877.966055799974,2877.966055799974,2877.966055799974,2877.966055799974,2877.966055799974,5,2,0.4,0.08000000000000003,return,1.427830099943094,1,0,0,0,0.4,0.08000000000000003,return,1.3431468000635505,,,,,,,,,,,,,,,,,,,,,,,,,,,,,,,,,,,,,,,,,,,,,,,,,,,,,,,,LGNA1L,train_y,red_square,bottom_right,2025-05-14_15h22.57.926,HideSeek_v1,2022.2.5,59.928146135870584,
,8,3,8,8,0,5,11,,train_dim1_1,5,30,,,,2,0,2,0,,,,,,,,,0,0,0,0,0,4,4,4,0,0,0,0,,,,,,,,,,,,,,,,,,,,,,,,,stimuli/alien_stimuli/11.png,,,,,,,,,,,,,,,,,,,,,,,,,,,,,stimuli/alien_stimuli/12.png,12,5,6,,,,,,,30,,,,,,,,2887.645721000037,2887.645721000037,2887.645721000037,2887.645721000037,2887.645721000037,,,,,up,2.040374500094913,1,0,0,99,0.48,-0.08,up,1.9480434999568388,2886.088794399984,2887.645721000037,0.24,0,0.32,0.0,-0.16,0.24,0.24,0.24,0,2880.9682645000285,2880.9682645000285,2880.9682645000285,2880.9682645000285,2880.9682645000285,2880.9682645000285,2880.9682645000285,2880.9682645000285,2880.967915360024,5.240288099972531,return,5.104884999920614,,,,,,,,,,,,,,,,,,,,,,,,,,,,,,,,,LGNA1L,train_y,red_square,bottom_right,2025-05-14_15h22.57.926,HideSeek_v1,2022.2.5,59.928146135870584,
,8,3,8,8,0,5,11,,train_dim1_1,5,30,,,,2,0,2,0,,,,,,,,,0,0,0,0,0,4,4,4,1,0,1,0,,,,,,,,,,,,,,,,,,,,,,,,,,,,,,,,,,,,,,,,,,,,,,,,,,,,,,,,,,,,,,,,30,,,,,,,,2889.6950380000053,2889.6950380000053,2889.6950380000053,2889.6950380000053,2889.6950380000053,,,,,left,1.7268772999523208,1,0,0,99,0.39999999999999997,-0.08,left,1.648999199969694,,,,,,,,,,,,,,,,,,,,,,,,,,,,,,,,,,,,,,,,,,,,,,,,,,,,,,,,LGNA1L,train_y,red_square,bottom_right,2025-05-14_15h22.57.926,HideSeek_v1,2022.2.5,59.928146135870584,
,8,3,8,8,0,5,11,,train_dim1_1,5,30,,,,2,0,2,0,,,,,,,,,0,0,0,0,0,4,4,4,2,0,2,0,,,,,,,,,,,,,,,,,,,,,,,,,,,,,,,,,,,,,,,,,,,,,,,,,,,,,,,,,,,,,,,,30,,,,,,,,2891.426710300031,2891.426710300031,2891.426710300031,2891.426710300031,2891.426710300031,,,,,right,1.4108447000617161,1,0,0,99,0.48,-0.08,right,1.3262827000580728,,,,,,,,,,,,,,,,,,,,,,,,,,,,,,,,,,,,,,,,,,,,,,,,,,,,,,,,LGNA1L,train_y,red_square,bottom_right,2025-05-14_15h22.57.926,HideSeek_v1,2022.2.5,59.928146135870584,
,8,3,8,8,0,5,11,,train_dim1_1,5,30,,,,2,0,2,0,,,,,,,,,0,0,0,0,0,4,4,4,3,0,3,0,,,,,,,,,,,,,,,,,,,,,,,,,,,,,,,,,,,,,,,,,,,,,,,,,,,,,,,,,,,,,,,,30,,,,,,,,2892.8456651000306,2892.8456651000306,2892.8456651000306,2892.8456651000306,2892.8456651000306,,,,,up,0.6099070999771357,1,0,0,99,0.48,0.0,up,0.5217399999964982,,,,,,,,,,,,,,,,,,,,,,,,,,,,,,,,,,,,,,,,,,,,,,,,,,,,,,,,LGNA1L,train_y,red_square,bottom_right,2025-05-14_15h22.57.926,HideSeek_v1,2022.2.5,59.928146135870584,
,8,3,8,8,0,5,11,,train_dim1_1,5,30,,,,2,0,2,0,,,,,,,,,0,0,0,0,0,4,4,4,4,0,4,0,,,,,,,,,,,,,,,,,,,,,,,,,,,,,,,,,,,,,,,,,,,,,,,,,,,,,,,,,,,,,,,,30,,,,,,,,2893.462193400017,2893.462193400017,2893.462193400017,2893.462193400017,2893.462193400017,,,,,up,0.5432699000230059,1,0,0,99,0.48,0.08,up,0.46508059999905527,,,,,,,,,,,,,,,,,,,,,,,,,,,,,,,,,,,,,,,,,,,,,,,,,,,,,,,,LGNA1L,train_y,red_square,bottom_right,2025-05-14_15h22.57.926,HideSeek_v1,2022.2.5,59.928146135870584,
,8,3,8,8,0,5,11,,train_dim1_1,5,30,,,,2,0,2,0,,,,,,,,,0,0,0,0,0,4,4,4,5,0,5,0,,,,,,,,,,,,,,,,,,,,,,,,,,,,,,,,,,,,,,,,,,,,,,,,,,,,,,,,,,,,,,,,30,,,,,,,,2894.013584700064,2894.013584700064,2894.013584700064,2894.013584700064,2894.013584700064,8,2,0.48,0.08,return,0.7429279000498354,1,0,0,0,0.48,0.08,return,0.6611464999150485,,,,,,,,,,,,,,,,,,,,,,,,,,,,,,,,,,,,,,,,,,,,,,,,,,,,,,,,LGNA1L,train_y,red_square,bottom_right,2025-05-14_15h22.57.926,HideSeek_v1,2022.2.5,59.928146135870584,
,6,4,6,8,0,4,12,,train_dim1_1,6,30,,,,2,0,2,0,,,,,,,,,0,0,0,0,0,5,5,5,0,0,0,0,,,,,,,,,,,,,,,,,,,,,,,,,stimuli/alien_stimuli/12.png,,,,,,,,,,,,,,,,,,,,,,,,,,,,,stimuli/alien_stimuli/11.png,11,8,7,,,,,,,30,,,,,,,,2904.360205600038,2904.360205600038,2904.360205600038,2904.360205600038,2904.360205600038,,,,,right,1.8398277999367565,1,0,0,99,0.4,-0.08,right,1.756998399971053,2902.8028165999567,2904.360205600038,0.48,0.24,0.4,0.0,0.039999999999999994,0.48,0.48,0.48,0.24,2896.325308199972,2896.325308199972,2896.325308199972,2896.325308199972,2896.325308199972,2896.325308199972,2896.325308199972,2896.325308199972,2896.313847289979,6.591523199924268,return,6.4616636000573635,,,,,,,,,,,,,,,,,,,,,,,,,,,,,,,,,LGNA1L,train_y,red_square,bottom_right,2025-05-14_15h22.57.926,HideSeek_v1,2022.2.5,59.928146135870584,
,6,4,6,8,0,4,12,,train_dim1_1,6,30,,,,2,0,2,0,,,,,,,,,0,0,0,0,0,5,5,5,1,0,1,0,,,,,,,,,,,,,,,,,,,,,,,,,,,,,,,,,,,,,,,,,,,,,,,,,,,,,,,,,,,,,,,,30,,,,,,,,2906.2067102000583,2906.2067102000583,2906.2067102000583,2906.2067102000583,2906.2067102000583,,,,,left,1.6104665000457317,1,0,0,99,0.32,-0.08,left,1.52840249997098,,,,,,,,,,,,,,,,,,,,,,,,,,,,,,,,,,,,,,,,,,,,,,,,,,,,,,,,LGNA1L,train_y,red_square,bottom_right,2025-05-14_15h22.57.926,HideSeek_v1,2022.2.5,59.928146135870584,
,6,4,6,8,0,4,12,,train_dim1_1,6,30,,,,2,0,2,0,,,,,,,,,0,0,0,0,0,5,5,5,2,0,2,0,,,,,,,,,,,,,,,,,,,,,,,,,,,,,,,,,,,,,,,,,,,,,,,,,,,,,,,,,,,,,,,,30,,,,,,,,2907.8248792999657,2907.8248792999657,2907.8248792999657,2907.8248792999657,2907.8248792999657,,,,,up,0.6602331000613049,1,0,0,99,0.32,0.0,up,0.5723087000660598,,,,,,,,,,,,,,,,,,,,,,,,,,,,,,,,,,,,,,,,,,,,,,,,,,,,,,,,LGNA1L,train_y,red_square,bottom_right,2025-05-14_15h22.57.926,HideSeek_v1,2022.2.5,59.928146135870584,
,6,4,6,8,0,4,12,,train_dim1_1,6,30,,,,2,0,2,0,,,,,,,,,0,0,0,0,0,5,5,5,3,0,3,0,,,,,,,,,,,,,,,,,,,,,,,,,,,,,,,,,,,,,,,,,,,,,,,,,,,,,,,,,,,,,,,,30,,,,,,,,2908.4922988000326,2908.4922988000326,2908.4922988000326,2908.4922988000326,2908.4922988000326,,,,,up,0.5433252999791875,1,0,0,99,0.32,0.08,up,0.45595999993383884,,,,,,,,,,,,,,,,,,,,,,,,,,,,,,,,,,,,,,,,,,,,,,,,,,,,,,,,LGNA1L,train_y,red_square,bottom_right,2025-05-14_15h22.57.926,HideSeek_v1,2022.2.5,59.928146135870584,
,6,4,6,8,0,4,12,,train_dim1_1,6,30,,,,2,0,2,0,,,,,,,,,0,0,0,0,0,5,5,5,4,0,4,0,,,,,,,,,,,,,,,,,,,,,,,,,,,,,,,,,,,,,,,,,,,,,,,,,,,,,,,,,,,,,,,,30,,,,,,,,2909.04144010006,2909.04144010006,2909.04144010006,2909.04144010006,2909.04144010006,,,,,up,0.6436752000590786,1,0,0,99,0.32,0.16,up,0.5624782999511808,,,,,,,,,,,,,,,,,,,,,,,,,,,,,,,,,,,,,,,,,,,,,,,,,,,,,,,,LGNA1L,train_y,red_square,bottom_right,2025-05-14_15h22.57.926,HideSeek_v1,2022.2.5,59.928146135870584,
,6,4,6,8,0,4,12,,train_dim1_1,6,30,,,,2,0,2,0,,,,,,,,,0,0,0,0,0,5,5,5,5,0,5,0,,,,,,,,,,,,,,,,,,,,,,,,,,,,,,,,,,,,,,,,,,,,,,,,,,,,,,,,,,,,,,,,30,,,,,,,,2909.6924250000156,2909.6924250000156,2909.6924250000156,2909.6924250000156,2909.6924250000156,11,2,0.32,0.16,return,1.5277096000500023,1,1,0,0,0.32,0.16,return,1.4365147999487817,,,,,,,,,,,,,,,,,,,,,,,,,,,,,,,,,,,,,,,,,,,,,,,,,,,,,,,,LGNA1L,train_y,red_square,bottom_right,2025-05-14_15h22.57.926,HideSeek_v1,2022.2.5,59.928146135870584,
,6,3,6,6,0,3,13,,train_dim1_1,7,30,,,,2,0,2,0,,,,,,,,,0,0,0,0,0,6,6,6,0,0,0,0,,,,,,,,,,,,,,,,,,,,,,,,,stimuli/alien_stimuli/13.png,,,,,,,,,,,,,,,,,,,,,,,,,,,,,stimuli/alien_stimuli/12.png,12,6,8,,,,,,,30,,,,,,,,2919.3078365999972,2919.3078365999972,2919.3078365999972,2919.3078365999972,2919.3078365999972,,,,,up,1.3697232999838889,1,1,0,99,0.32,-0.08,up,1.288169499952346,2917.7483945999993,2919.3078365999972,0.32,0.24,0.32,0.0,0.07999999999999999,0.32,0.32,0.32,0.24,2912.7963811999653,2912.7963811999653,2912.7963811999653,2912.7963811999653,2912.7963811999653,2912.7963811999653,2912.7963811999653,2912.7963811999653,2912.7941583600127,5.072781899943948,return,4.9204800999723375,,,,,,,,,,,,,,,,,,,,,,,,,,,,,,,,,LGNA1L,train_y,red_square,bottom_right,2025-05-14_15h22.57.926,HideSeek_v1,2022.2.5,59.928146135870584,
,6,3,6,6,0,3,13,,train_dim1_1,7,30,,,,2,0,2,0,,,,,,,,,0,0,0,0,0,6,6,6,1,0,1,0,,,,,,,,,,,,,,,,,,,,,,,,,,,,,,,,,,,,,,,,,,,,,,,,,,,,,,,,,,,,,,,,30,,,,,,,,2920.6845627999865,2920.6845627999865,2920.6845627999865,2920.6845627999865,2920.6845627999865,,,,,up,0.6432847999967635,1,1,0,99,0.32,0.0,up,0.5515763000585139,,,,,,,,,,,,,,,,,,,,,,,,,,,,,,,,,,,,,,,,,,,,,,,,,,,,,,,,LGNA1L,train_y,red_square,bottom_right,2025-05-14_15h22.57.926,HideSeek_v1,2022.2.5,59.928146135870584,
,6,3,6,6,0,3,13,,train_dim1_1,7,30,,,,2,0,2,0,,,,,,,,,0,0,0,0,0,6,6,6,2,0,2,0,,,,,,,,,,,,,,,,,,,,,,,,,,,,,,,,,,,,,,,,,,,,,,,,,,,,,,,,,,,,,,,,30,,,,,,,,2921.334843700053,2921.334843700053,2921.334843700053,2921.334843700053,2921.334843700053,,,,,up,0.44296739995479584,1,1,0,99,0.32,0.08,up,0.3630398999666795,,,,,,,,,,,,,,,,,,,,,,,,,,,,,,,,,,,,,,,,,,,,,,,,,,,,,,,,LGNA1L,train_y,red_square,bottom_right,2025-05-14_15h22.57.926,HideSeek_v1,2022.2.5,59.928146135870584,
,6,3,6,6,0,3,13,,train_dim1_1,7,30,,,,2,0,2,0,,,,,,,,,0,0,0,0,0,6,6,6,3,0,3,0,,,,,,,,,,,,,,,,,,,,,,,,,,,,,,,,,,,,,,,,,,,,,,,,,,,,,,,,,,,,,,,,30,,,,,,,,2921.7841834999854,2921.7841834999854,2921.7841834999854,2921.7841834999854,2921.7841834999854,,,,,up,1.561457599978894,1,1,0,99,0.32,0.16,up,1.476219000061974,,,,,,,,,,,,,,,,,,,,,,,,,,,,,,,,,,,,,,,,,,,,,,,,,,,,,,,,LGNA1L,train_y,red_square,bottom_right,2025-05-14_15h22.57.926,HideSeek_v1,2022.2.5,59.928146135870584,
,6,3,6,6,0,3,13,,train_dim1_1,7,30,,,,2,0,2,0,,,,,,,,,0,0,0,0,0,6,6,6,4,0,4,0,,,,,,,,,,,,,,,,,,,,,,,,,,,,,,,,,,,,,,,,,,,,,,,,,,,,,,,,,,,,,,,,30,,,,,,,,2923.3570166999707,2923.3570166999707,2923.3570166999707,2923.3570166999707,2923.3570166999707,,,,,up,0.3732734000077471,1,1,0,99,0.32,0.24,up,0.29505700001027435,,,,,,,,,,,,,,,,,,,,,,,,,,,,,,,,,,,,,,,,,,,,,,,,,,,,,,,,LGNA1L,train_y,red_square,bottom_right,2025-05-14_15h22.57.926,HideSeek_v1,2022.2.5,59.928146135870584,
,6,3,6,6,0,3,13,,train_dim1_1,7,30,,,,2,0,2,0,,,,,,,,,0,0,0,0,0,6,6,6,5,0,5,0,,,,,,,,,,,,,,,,,,,,,,,,,,,,,,,,,,,,,,,,,,,,,,,,,,,,,,,,,,,,,,,,30,,,,,,,,2923.737145000021,2923.737145000021,2923.737145000021,2923.737145000021,2923.737145000021,16,2,0.32,0.24,return,0.743701700004749,1,0,0,0,0.32,0.24,return,0.6595533000072464,,,,,,,,,,,,,,,,,,,,,,,,,,,,,,,,,,,,,,,,,,,,,,,,,,,,,,,,LGNA1L,train_y,red_square,bottom_right,2025-05-14_15h22.57.926,HideSeek_v1,2022.2.5,59.928146135870584,
,9,2,9,7,0,5,11,,train_dim1_1,8,30,,,,2,0,2,0,,,,,,,,,0,0,0,0,0,7,7,7,0,0,0,0,,,,,,,,,,,,,,,,,,,,,,,,,stimuli/alien_stimuli/11.png,,,,,,,,,,,,,,,,,,,,,,,,,,,,,stimuli/alien_stimuli/13.png,13,6,9,,,,,,,30,,,,,,,,2930.499766999972,2930.499766999972,2930.499766999972,2930.499766999972,2930.499766999972,,,,,right,8.610651100054383,1,0,0,99,0.64,-0.24,right,8.518061400041915,2928.9407804000657,2930.499766999972,0.32,0.08,0.24,0.0,-0.04,0.32,0.32,0.32,0.08,2926.059101199964,2926.059101199964,2926.059101199964,2926.059101199964,2926.059101199964,2926.059101199964,2926.059101199964,2926.059101199964,2926.055022459966,3.0048927000025287,return,2.8583977000089362,,,,,,,,,,,,,,,,,,,,,,,,,,,,,,,,,LGNA1L,train_y,red_square,bottom_right,2025-05-14_15h22.57.926,HideSeek_v1,2022.2.5,59.928146135870584,
,9,2,9,7,0,5,11,,train_dim1_1,8,30,,,,2,0,2,0,,,,,,,,,0,0,0,0,0,7,7,7,1,0,1,0,,,,,,,,,,,,,,,,,,,,,,,,,,,,,,,,,,,,,,,,,,,,,,,,,,,,,,,,,,,,,,,,30,,,,,,,,2939.117281600018,2939.117281600018,2939.117281600018,2939.117281600018,2939.117281600018,,,,,left,1.0605771000264212,1,0,0,99,0.56,-0.24,left,0.9700876999413595,,,,,,,,,,,,,,,,,,,,,,,,,,,,,,,,,,,,,,,,,,,,,,,,,,,,,,,,LGNA1L,train_y,red_square,bottom_right,2025-05-14_15h22.57.926,HideSeek_v1,2022.2.5,59.928146135870584,
,9,2,9,7,0,5,11,,train_dim1_1,8,30,,,,2,0,2,0,,,,,,,,,0,0,0,0,0,7,7,7,2,0,2,0,,,,,,,,,,,,,,,,,,,,,,,,,,,,,,,,,,,,,,,,,,,,,,,,,,,,,,,,,,,,,,,,30,,,,,,,,2940.1869113000575,2940.1869113000575,2940.1869113000575,2940.1869113000575,2940.1869113000575,,,,,left,0.7904495999682695,1,0,0,99,0.48000000000000004,-0.24,left,0.7125658999430016,,,,,,,,,,,,,,,,,,,,,,,,,,,,,,,,,,,,,,,,,,,,,,,,,,,,,,,,LGNA1L,train_y,red_square,bottom_right,2025-05-14_15h22.57.926,HideSeek_v1,2022.2.5,59.928146135870584,
,9,2,9,7,0,5,11,,train_dim1_1,8,30,,,,2,0,2,0,,,,,,,,,0,0,0,0,0,7,7,7,3,0,3,0,,,,,,,,,,,,,,,,,,,,,,,,,,,,,,,,,,,,,,,,,,,,,,,,,,,,,,,,,,,,,,,,30,,,,,,,,2940.990709600039,2940.990709600039,2940.990709600039,2940.990709600039,2940.990709600039,,,,,left,1.5940269000129774,1,0,0,99,0.4,-0.24,left,1.5030392999760807,,,,,,,,,,,,,,,,,,,,,,,,,,,,,,,,,,,,,,,,,,,,,,,,,,,,,,,,LGNA1L,train_y,red_square,bottom_right,2025-05-14_15h22.57.926,HideSeek_v1,2022.2.5,59.928146135870584,
,9,2,9,7,0,5,11,,train_dim1_1,8,30,,,,2,0,2,0,,,,,,,,,0,0,0,0,0,7,7,7,4,0,4,0,,,,,,,,,,,,,,,,,,,,,,,,,,,,,,,,,,,,,,,,,,,,,,,,,,,,,,,,,,,,,,,,30,,,,,,,,2942.587405600003,2942.587405600003,2942.587405600003,2942.587405600003,2942.587405600003,,,,,left,0.44373719999566674,1,0,0,99,0.32,-0.24,left,0.3506802999181673,,,,,,,,,,,,,,,,,,,,,,,,,,,,,,,,,,,,,,,,,,,,,,,,,,,,,,,,LGNA1L,train_y,red_square,bottom_right,2025-05-14_15h22.57.926,HideSeek_v1,2022.2.5,59.928146135870584,
,9,2,9,7,0,5,11,,train_dim1_1,8,30,,,,2,0,2,0,,,,,,,,,0,0,0,0,0,7,7,7,5,0,5,0,,,,,,,,,,,,,,,,,,,,,,,,,,,,,,,,,,,,,,,,,,,,,,,,,,,,,,,,,,,,,,,,30,,,,,,,,2943.0372686999617,2943.0372686999617,2943.0372686999617,2943.0372686999617,2943.0372686999617,16,-1,0.32,-0.24,return,0.726392799988389,1,0,0,0,0.32,-0.24,return,0.6340695000253618,,,,,,,,,,,,,,,,,,,,,,,,,,,,,,,,,,,,,,,,,,,,,,,,,,,,,,,,LGNA1L,train_y,red_square,bottom_right,2025-05-14_15h22.57.926,HideSeek_v1,2022.2.5,59.928146135870584,
,9,3,9,4,0,1,15,,train_dim1_1,9,30,,,,2,0,2,0,,,,,,,,,0,0,0,0,0,8,8,8,0,0,0,0,,,,,,,,,,,,,,,,,,,,,,,,,stimuli/alien_stimuli/15.png,,,,,,,,,,,,,,,,,,,,,,,,,,,,,stimuli/alien_stimuli/11.png,11,9,10,,,,,,,30,,,,,,,,2948.914752700017,2948.914752700017,2948.914752700017,2948.914752700017,2948.914752700017,,,,,left,12.165261000045575,1,0,0,99,0.48000000000000004,-0.16,left,12.072744800010696,2947.356309200055,2948.914752700017,0.56,0.16,0.4,0.0,-0.039999999999999994,0.56,0.56,0.56,0.16,2945.337045400054,2945.337045400054,2945.337045400054,2945.337045400054,2945.337045400054,2945.337045400054,2945.337045400054,2945.337045400054,2945.3375828599324,2.137753399903886,return,1.9956775000318885,,,,,,,,,,,,,,,,,,,,,,,,,,,,,,,,,LGNA1L,train_y,red_square,bottom_right,2025-05-14_15h22.57.926,HideSeek_v1,2022.2.5,59.928146135870584,
,9,3,9,4,0,1,15,,train_dim1_1,9,30,,,,2,0,2,0,,,,,,,,,0,0,0,0,0,8,8,8,1,0,1,0,,,,,,,,,,,,,,,,,,,,,,,,,,,,,,,,,,,,,,,,,,,,,,,,,,,,,,,,,,,,,,,,30,,,,,,,,2961.103404500056,2961.103404500056,2961.103404500056,2961.103404500056,2961.103404500056,,,,,up,1.5438878999557346,1,0,0,99,0.48000000000000004,-0.08,up,1.4417168999789283,,,,,,,,,,,,,,,,,,,,,,,,,,,,,,,,,,,,,,,,,,,,,,,,,,,,,,,,LGNA1L,train_y,red_square,bottom_right,2025-05-14_15h22.57.926,HideSeek_v1,2022.2.5,59.928146135870584,
,9,3,9,4,0,1,15,,train_dim1_1,9,30,,,,2,0,2,0,,,,,,,,,0,0,0,0,0,8,8,8,2,0,2,0,,,,,,,,,,,,,,,,,,,,,,,,,,,,,,,,,,,,,,,,,,,,,,,,,,,,,,,,,,,,,,,,30,,,,,,,,2962.637172000017,2962.637172000017,2962.637172000017,2962.637172000017,2962.637172000017,,,,,right,1.5775991999544203,1,0,0,99,0.56,-0.08,right,1.4935499000130221,,,,,,,,,,,,,,,,,,,,,,,,,,,,,,,,,,,,,,,,,,,,,,,,,,,,,,,,LGNA1L,train_y,red_square,bottom_right,2025-05-14_15h22.57.926,HideSeek_v1,2022.2.5,59.928146135870584,
,9,3,9,4,0,1,15,,train_dim1_1,9,30,,,,2,0,2,0,,,,,,,,,0,0,0,0,0,8,8,8,3,0,3,0,,,,,,,,,,,,,,,,,,,,,,,,,,,,,,,,,,,,,,,,,,,,,,,,,,,,,,,,,,,,,,,,30,,,,,,,,2964.2208816000493,2964.2208816000493,2964.2208816000493,2964.2208816000493,2964.2208816000493,,,,,up,1.3774228000547737,1,0,0,99,0.56,0.0,up,1.2957472999114543,,,,,,,,,,,,,,,,,,,,,,,,,,,,,,,,,,,,,,,,,,,,,,,,,,,,,,,,LGNA1L,train_y,red_square,bottom_right,2025-05-14_15h22.57.926,HideSeek_v1,2022.2.5,59.928146135870584,
,9,3,9,4,0,1,15,,train_dim1_1,9,30,,,,2,0,2,0,,,,,,,,,0,0,0,0,0,8,8,8,4,0,4,0,,,,,,,,,,,,,,,,,,,,,,,,,,,,,,,,,,,,,,,,,,,,,,,,,,,,,,,,,,,,,,,,30,,,,,,,,2965.605318899965,2965.605318899965,2965.605318899965,2965.605318899965,2965.605318899965,,,,,up,0.7601006000768393,1,0,0,99,0.56,0.08,up,0.6711667000781745,,,,,,,,,,,,,,,,,,,,,,,,,,,,,,,,,,,,,,,,,,,,,,,,,,,,,,,,LGNA1L,train_y,red_square,bottom_right,2025-05-14_15h22.57.926,HideSeek_v1,2022.2.5,59.928146135870584,
,9,3,9,4,0,1,15,,train_dim1_1,9,30,,,,2,0,2,0,,,,,,,,,0,0,0,0,0,8,8,8,5,0,5,0,,,,,,,,,,,,,,,,,,,,,,,,,,,,,,,,,,,,,,,,,,,,,,,,,,,,,,,,,,,,,,,,30,,,,,,,,2966.3726107999682,2966.3726107999682,2966.3726107999682,2966.3726107999682,2966.3726107999682,,,,,down,1.2110664000501856,1,0,0,99,0.56,0.0,down,1.1193174000363797,,,,,,,,,,,,,,,,,,,,,,,,,,,,,,,,,,,,,,,,,,,,,,,,,,,,,,,,LGNA1L,train_y,red_square,bottom_right,2025-05-14_15h22.57.926,HideSeek_v1,2022.2.5,59.928146135870584,
,9,3,9,4,0,1,15,,train_dim1_1,9,30,,,,2,0,2,0,,,,,,,,,0,0,0,0,0,8,8,8,6,0,6,0,,,,,,,,,,,,,,,,,,,,,,,,,,,,,,,,,,,,,,,,,,,,,,,,,,,,,,,,,,,,,,,,30,,,,,,,,2967.5897134999977,2967.5897134999977,2967.5897134999977,2967.5897134999977,2967.5897134999977,18,-1,0.56,0.0,return,0.44308819994330406,1,1,0,0,0.56,0.0,return,0.3620462999679148,,,,,,,,,,,,,,,,,,,,,,,,,,,,,,,,,,,,,,,,,,,,,,,,,,,,,,,,LGNA1L,train_y,red_square,bottom_right,2025-05-14_15h22.57.926,HideSeek_v1,2022.2.5,59.928146135870584,
,7,2,7,2,0,0,16,,train_dim1_1,10,30,,,,2,0,2,0,,,,,,,,,0,0,0,0,0,9,9,9,0,0,0,0,,,,,,,,,,,,,,,,,,,,,,,,,stimuli/alien_stimuli/16.png,,,,,,,,,,,,,,,,,,,,,,,,,,,,,stimuli/alien_stimuli/15.png,15,9,11,,,,,,,30,,,,,,,,2974.9674187999917,2974.9674187999917,2974.9674187999917,2974.9674187999917,2974.9674187999917,,,,,up,4.292559799971059,1,1,0,99,0.4,-0.15999999999999998,up,4.206472699996084,2973.411260599969,2974.9674187999917,0.56,-0.08,0.08,0.0,-0.12,0.56,0.56,0.56,-0.08,2969.607136900071,2969.607136900071,2969.607136900071,2969.607136900071,2969.607136900071,2969.607136900071,2969.607136900071,2969.607136900071,2969.6079810599563,3.921887700096704,return,3.7778883000137284,,,,,,,,,,,,,,,,,,,,,,,,,,,,,,,,,LGNA1L,train_y,red_square,bottom_right,2025-05-14_15h22.57.926,HideSeek_v1,2022.2.5,59.928146135870584,
,7,2,7,2,0,0,16,,train_dim1_1,10,30,,,,2,0,2,0,,,,,,,,,0,0,0,0,0,9,9,9,1,0,1,0,,,,,,,,,,,,,,,,,,,,,,,,,,,,,,,,,,,,,,,,,,,,,,,,,,,,,,,,,,,,,,,,30,,,,,,,,2979.2666808000067,2979.2666808000067,2979.2666808000067,2979.2666808000067,2979.2666808000067,,,,,up,1.928474000073038,1,1,0,99,0.4,-0.07999999999999997,up,1.8516781999496743,,,,,,,,,,,,,,,,,,,,,,,,,,,,,,,,,,,,,,,,,,,,,,,,,,,,,,,,LGNA1L,train_y,red_square,bottom_right,2025-05-14_15h22.57.926,HideSeek_v1,2022.2.5,59.928146135870584,
,7,2,7,2,0,0,16,,train_dim1_1,10,30,,,,2,0,2,0,,,,,,,,,0,0,0,0,0,9,9,9,2,0,2,0,,,,,,,,,,,,,,,,,,,,,,,,,,,,,,,,,,,,,,,,,,,,,,,,,,,,,,,,,,,,,,,,30,,,,,,,,2981.202067299979,2981.202067299979,2981.202067299979,2981.202067299979,2981.202067299979,,,,,up,1.1766567000886425,1,1,0,99,0.4,2.7755575615628914e-17,up,1.0889575000619516,,,,,,,,,,,,,,,,,,,,,,,,,,,,,,,,,,,,,,,,,,,,,,,,,,,,,,,,LGNA1L,train_y,red_square,bottom_right,2025-05-14_15h22.57.926,HideSeek_v1,2022.2.5,59.928146135870584,
,7,2,7,2,0,0,16,,train_dim1_1,10,30,,,,2,0,2,0,,,,,,,,,0,0,0,0,0,9,9,9,3,0,3,0,,,,,,,,,,,,,,,,,,,,,,,,,,,,,,,,,,,,,,,,,,,,,,,,,,,,,,,,,,,,,,,,30,,,,,,,,2982.3856013000477,2982.3856013000477,2982.3856013000477,2982.3856013000477,2982.3856013000477,21,-1,0.4,2.7755575615628914e-17,return,1.1772111000027508,1,0,0,0,0.4,2.7755575615628914e-17,return,1.0919289001030847,,,,,,,,,,,,,,,,,,,,,,,,,,,,,,,,,,,,,,,,,,,,,,,,,,,,,,,,LGNA1L,train_y,red_square,bottom_right,2025-05-14_15h22.57.926,HideSeek_v1,2022.2.5,59.928146135870584,
,9,1,9,2,0,1,15,,train_dim1_1,11,30,,,,2,0,2,0,,,,,,,,,0,0,0,0,0,10,10,10,0,0,0,0,,,,,,,,,,,,,,,,,,,,,,,,,stimuli/alien_stimuli/15.png,,,,,,,,,,,,,,,,,,,,,,,,,,,,,stimuli/alien_stimuli/16.png,16,7,12,,,,,,,30,,,,,,,,2990.8983060000464,2990.8983060000464,2990.8983060000464,2990.8983060000464,2990.8983060000464,,,,,up,4.826031900011003,1,0,0,99,0.56,-0.24,up,4.735418200027198,2989.3410471000243,2990.8983060000464,0.4,-0.24,0.0,0.0,-0.24,0.4,0.4,0.4,-0.24,2985.130958099966,2985.130958099966,2985.130958099966,2985.130958099966,2985.130958099966,2985.130958099966,2985.130958099966,2985.130958099966,2985.120876189996,4.322402000078,return,4.18862040003296,,,,,,,,,,,,,,,,,,,,,,,,,,,,,,,,,LGNA1L,train_y,red_square,bottom_right,2025-05-14_15h22.57.926,HideSeek_v1,2022.2.5,59.928146135870584,
,9,1,9,2,0,1,15,,train_dim1_1,11,30,,,,2,0,2,0,,,,,,,,,0,0,0,0,0,10,10,10,1,0,1,0,,,,,,,,,,,,,,,,,,,,,,,,,,,,,,,,,,,,,,,,,,,,,,,,,,,,,,,,,,,,,,,,30,,,,,,,,2995.7323183000553,2995.7323183000553,2995.7323183000553,2995.7323183000553,2995.7323183000553,,,,,up,0.47586539993062615,1,0,0,99,0.56,-0.15999999999999998,up,0.3963134998921305,,,,,,,,,,,,,,,,,,,,,,,,,,,,,,,,,,,,,,,,,,,,,,,,,,,,,,,,LGNA1L,train_y,red_square,bottom_right,2025-05-14_15h22.57.926,HideSeek_v1,2022.2.5,59.928146135870584,
,9,1,9,2,0,1,15,,train_dim1_1,11,30,,,,2,0,2,0,,,,,,,,,0,0,0,0,0,10,10,10,2,0,2,0,,,,,,,,,,,,,,,,,,,,,,,,,,,,,,,,,,,,,,,,,,,,,,,,,,,,,,,,,,,,,,,,30,,,,,,,,2996.2145260999678,2996.2145260999678,2996.2145260999678,2996.2145260999678,2996.2145260999678,,,,,up,0.6768686999566853,1,0,0,99,0.56,-0.07999999999999997,up,0.5972635000944138,,,,,,,,,,,,,,,,,,,,,,,,,,,,,,,,,,,,,,,,,,,,,,,,,,,,,,,,LGNA1L,train_y,red_square,bottom_right,2025-05-14_15h22.57.926,HideSeek_v1,2022.2.5,59.928146135870584,
,9,1,9,2,0,1,15,,train_dim1_1,11,30,,,,2,0,2,0,,,,,,,,,0,0,0,0,0,10,10,10,3,0,3,0,,,,,,,,,,,,,,,,,,,,,,,,,,,,,,,,,,,,,,,,,,,,,,,,,,,,,,,,,,,,,,,,30,,,,,,,,2996.897673700005,2996.897673700005,2996.897673700005,2996.897673700005,2996.897673700005,24,-1,0.56,-0.07999999999999997,return,1.22733329993207,1,0,0,0,0.56,-0.07999999999999997,return,1.1367734000086784,,,,,,,,,,,,,,,,,,,,,,,,,,,,,,,,,,,,,,,,,,,,,,,,,,,,,,,,LGNA1L,train_y,red_square,bottom_right,2025-05-14_15h22.57.926,HideSeek_v1,2022.2.5,59.928146135870584,
,5,0,5,5,0,5,11,,train_dim1_1,12,30,,,,2,0,2,0,,,,,,,,,0,0,0,0,0,11,11,11,0,0,0,0,,,,,,,,,,,,,,,,,,,,,,,,,stimuli/alien_stimuli/11.png,,,,,,,,,,,,,,,,,,,,,,,,,,,,,stimuli/alien_stimuli/15.png,15,9,13,,,,,,,30,,,,,,,,3003.4416061000666,3003.4416061000666,3003.4416061000666,3003.4416061000666,3003.4416061000666,,,,,up,2.1733195000560954,1,0,0,99,0.24,-0.32,up,2.0860165000194684,3001.884727400029,3003.4416061000666,0.56,-0.24,0.08,0.0,-0.28,0.56,0.56,0.56,-0.24,2999.698954500025,2999.698954500025,2999.698954500025,2999.698954500025,2999.698954500025,2999.698954500025,2999.698954500025,2999.698954500025,2999.699645160022,2.3043560000369325,return,2.161051100003533,,,,,,,,,,,,,,,,,,,,,,,,,,,,,,,,,LGNA1L,train_y,red_square,bottom_right,2025-05-14_15h22.57.926,HideSeek_v1,2022.2.5,59.928146135870584,
,5,0,5,5,0,5,11,,train_dim1_1,12,30,,,,2,0,2,0,,,,,,,,,0,0,0,0,0,11,11,11,1,0,1,0,,,,,,,,,,,,,,,,,,,,,,,,,,,,,,,,,,,,,,,,,,,,,,,,,,,,,,,,,,,,,,,,30,,,,,,,,3005.6219766000286,3005.6219766000286,3005.6219766000286,3005.6219766000286,3005.6219766000286,,,,,up,0.5598398000001907,1,0,0,99,0.24,-0.24,up,0.4788052000803873,,,,,,,,,,,,,,,,,,,,,,,,,,,,,,,,,,,,,,,,,,,,,,,,,,,,,,,,LGNA1L,train_y,red_square,bottom_right,2025-05-14_15h22.57.926,HideSeek_v1,2022.2.5,59.928146135870584,
,5,0,5,5,0,5,11,,train_dim1_1,12,30,,,,2,0,2,0,,,,,,,,,0,0,0,0,0,11,11,11,2,0,2,0,,,,,,,,,,,,,,,,,,,,,,,,,,,,,,,,,,,,,,,,,,,,,,,,,,,,,,,,,,,,,,,,30,,,,,,,,3006.1883574000094,3006.1883574000094,3006.1883574000094,3006.1883574000094,3006.1883574000094,,,,,up,1.1772344999480993,1,0,0,99,0.24,-0.15999999999999998,up,1.0925148000242189,,,,,,,,,,,,,,,,,,,,,,,,,,,,,,,,,,,,,,,,,,,,,,,,,,,,,,,,LGNA1L,train_y,red_square,bottom_right,2025-05-14_15h22.57.926,HideSeek_v1,2022.2.5,59.928146135870584,
,5,0,5,5,0,5,11,,train_dim1_1,12,30,,,,2,0,2,0,,,,,,,,,0,0,0,0,0,11,11,11,3,0,3,0,,,,,,,,,,,,,,,,,,,,,,,,,,,,,,,,,,,,,,,,,,,,,,,,,,,,,,,,,,,,,,,,30,,,,,,,,3007.373237599968,3007.373237599968,3007.373237599968,3007.373237599968,3007.373237599968,27,-1,0.24,-0.15999999999999998,return,1.2106925999978557,1,0,0,0,0.24,-0.15999999999999998,return,1.1261129000922665,,,,,,,,,,,,,,,,,,,,,,,,,,,,,,,,,,,,,,,,,,,,,,,,,,,,,,,,LGNA1L,train_y,red_square,bottom_right,2025-05-14_15h22.57.926,HideSeek_v1,2022.2.5,59.928146135870584,
,9,3,9,7,0,4,12,,train_dim1_1,13,30,,,,2,0,2,0,,,,,,,,,0,0,0,0,0,12,12,12,0,0,0,0,,,,,,,,,,,,,,,,,,,,,,,,,stimuli/alien_stimuli/12.png,,,,,,,,,,,,,,,,,,,,,,,,,,,,,stimuli/alien_stimuli/11.png,11,5,14,,,,,,,30,,,,,,,,3013.666612399975,3013.666612399975,3013.666612399975,3013.666612399975,3013.666612399975,,,,,up,50.01307200000156,1,0,0,99,0.56,-0.08,up,49.9208740000613,3012.110113700037,3013.666612399975,0.24,0,0.4,0.0,-0.2,0.24,0.24,0.24,0,3010.155974399997,3010.155974399997,3010.155974399997,3010.155974399997,3010.155974399997,3010.155974399997,3010.155974399997,3010.155974399997,3010.141774189984,2.0707827999722213,return,1.922780100023374,,,,,,,,,,,,,,,,,,,,,,,,,,,,,,,,,LGNA1L,train_y,red_square,bottom_right,2025-05-14_15h22.57.926,HideSeek_v1,2022.2.5,59.928146135870584,
,9,3,9,7,0,4,12,,train_dim1_1,13,30,,,,2,0,2,0,,,,,,,,,0,0,0,0,0,12,12,12,1,0,1,0,,,,,,,,,,,,,,,,,,,,,,,,,,,,,,,,,,,,,,,,,,,,,,,,,,,,,,,,,,,,,,,,30,,,,,,,,3063.6996744000353,3063.6996744000353,3063.6996744000353,3063.6996744000353,3063.6996744000353,,,,,up,0.6432419000193477,1,0,0,99,0.56,0.0,up,0.5462859999388456,,,,,,,,,,,,,,,,,,,,,,,,,,,,,,,,,,,,,,,,,,,,,,,,,,,,,,,,LGNA1L,train_y,red_square,bottom_right,2025-05-14_15h22.57.926,HideSeek_v1,2022.2.5,59.928146135870584,
,9,3,9,7,0,4,12,,train_dim1_1,13,30,,,,2,0,2,0,,,,,,,,,0,0,0,0,0,12,12,12,2,0,2,0,,,,,,,,,,,,,,,,,,,,,,,,,,,,,,,,,,,,,,,,,,,,,,,,,,,,,,,,,,,,,,,,30,,,,,,,,3064.3375221999595,3064.3375221999595,3064.3375221999595,3064.3375221999595,3064.3375221999595,,,,,up,1.1605691000586376,1,0,0,99,0.56,0.08,up,1.0839612999698147,,,,,,,,,,,,,,,,,,,,,,,,,,,,,,,,,,,,,,,,,,,,,,,,,,,,,,,,LGNA1L,train_y,red_square,bottom_right,2025-05-14_15h22.57.926,HideSeek_v1,2022.2.5,59.928146135870584,
,9,3,9,7,0,4,12,,train_dim1_1,13,30,,,,2,0,2,0,,,,,,,,,0,0,0,0,0,12,12,12,3,0,3,0,,,,,,,,,,,,,,,,,,,,,,,,,,,,,,,,,,,,,,,,,,,,,,,,,,,,,,,,,,,,,,,,30,,,,,,,,3065.5051457000664,3065.5051457000664,3065.5051457000664,3065.5051457000664,3065.5051457000664,30,-1,0.56,0.08,return,0.8773813999723643,1,1,0,0,0.56,0.08,return,0.7863480999367312,,,,,,,,,,,,,,,,,,,,,,,,,,,,,,,,,,,,,,,,,,,,,,,,,,,,,,,,LGNA1L,train_y,red_square,bottom_right,2025-05-14_15h22.57.926,HideSeek_v1,2022.2.5,59.928146135870584,
,7,2,7,2,0,0,16,,train_dim1_1,14,30,,,,2,0,2,0,,,,,,,,,0,0,0,0,0,13,13,13,0,0,0,0,,,,,,,,,,,,,,,,,,,,,,,,,stimuli/alien_stimuli/16.png,,,,,,,,,,,,,,,,,,,,,,,,,,,,,stimuli/alien_stimuli/12.png,12,9,15,,,,,,,30,,,,,,,,3081.1240905000595,3081.1240905000595,3081.1240905000595,3081.1240905000595,3081.1240905000595,,,,,up,3.8578760999953374,1,1,0,99,0.4,-0.15999999999999998,up,3.7520631999941543,3079.54885859997,3081.1240905000595,0.56,0.16,0.32,0.0,0.0,0.56,0.56,0.56,0.16,3067.957994800061,3067.957994800061,3067.957994800061,3067.957994800061,3067.957994800061,3067.957994800061,3067.957994800061,3067.957994800061,3067.956057559955,11.711884899996221,return,11.562769199954346,,,,,,,,,,,,,,,,,,,,,,,,,,,,,,,,,LGNA1L,train_y,red_square,bottom_right,2025-05-14_15h22.57.926,HideSeek_v1,2022.2.5,59.928146135870584,
,7,2,7,2,0,0,16,,train_dim1_1,14,30,,,,2,0,2,0,,,,,,,,,0,0,0,0,0,13,13,13,1,0,1,0,,,,,,,,,,,,,,,,,,,,,,,,,,,,,,,,,,,,,,,,,,,,,,,,,,,,,,,,,,,,,,,,30,,,,,,,,3084.9720531000057,3084.9720531000057,3084.9720531000057,3084.9720531000057,3084.9720531000057,,,,,up,1.3600399000570178,1,1,0,99,0.4,-0.07999999999999997,up,1.278303499915637,,,,,,,,,,,,,,,,,,,,,,,,,,,,,,,,,,,,,,,,,,,,,,,,,,,,,,,,LGNA1L,train_y,red_square,bottom_right,2025-05-14_15h22.57.926,HideSeek_v1,2022.2.5,59.928146135870584,
,7,2,7,2,0,0,16,,train_dim1_1,14,30,,,,2,0,2,0,,,,,,,,,0,0,0,0,0,13,13,13,2,0,2,0,,,,,,,,,,,,,,,,,,,,,,,,,,,,,,,,,,,,,,,,,,,,,,,,,,,,,,,,,,,,,,,,30,,,,,,,,3086.3382216000464,3086.3382216000464,3086.3382216000464,3086.3382216000464,3086.3382216000464,,,,,up,0.6772389999823645,1,1,0,99,0.4,2.7755575615628914e-17,up,0.5978144999826327,,,,,,,,,,,,,,,,,,,,,,,,,,,,,,,,,,,,,,,,,,,,,,,,,,,,,,,,LGNA1L,train_y,red_square,bottom_right,2025-05-14_15h22.57.926,HideSeek_v1,2022.2.5,59.928146135870584,
,7,2,7,2,0,0,16,,train_dim1_1,14,30,,,,2,0,2,0,,,,,,,,,0,0,0,0,0,13,13,13,3,0,3,0,,,,,,,,,,,,,,,,,,,,,,,,,,,,,,,,,,,,,,,,,,,,,,,,,,,,,,,,,,,,,,,,30,,,,,,,,3087.0229904999724,3087.0229904999724,3087.0229904999724,3087.0229904999724,3087.0229904999724,33,-1,0.4,2.7755575615628914e-17,return,1.2107539999997243,1,0,0,0,0.4,2.7755575615628914e-17,return,1.1236548000015318,,,,,,,,,,,,,,,,,,,,,,,,,,,,,,,,,,,,,,,,,,,,,,,,,,,,,,,,LGNA1L,train_y,red_square,bottom_right,2025-05-14_15h22.57.926,HideSeek_v1,2022.2.5,59.928146135870584,
,6,4,6,7,0,3,13,,train_dim1_1,15,30,,,,2,0,2,0,,,,,,,,,0,0,0,0,0,14,14,14,0,0,0,0,,,,,,,,,,,,,,,,,,,,,,,,,stimuli/alien_stimuli/13.png,,,,,,,,,,,,,,,,,,,,,,,,,,,,,stimuli/alien_stimuli/16.png,16,7,16,,,,,,,30,,,,,,,,3093.9489299000707,3093.9489299000707,3093.9489299000707,3093.9489299000707,3093.9489299000707,,,,,up,5.026929200044833,1,0,0,99,0.32,0.0,up,4.949609500006773,3092.392901199986,3093.9489299000707,0.4,-0.24,0.0,0.0,-0.24,0.4,0.4,0.4,-0.24,3089.8089820999885,3089.8089820999885,3089.8089820999885,3089.8089820999885,3089.8089820999885,3089.8089820999885,3089.8089820999885,3089.8089820999885,3089.807743559964,2.7042026999406517,return,2.5625784000148997,,,,,,,,,,,,,,,,,,,,,,,,,,,,,,,,,LGNA1L,train_y,red_square,bottom_right,2025-05-14_15h22.57.926,HideSeek_v1,2022.2.5,59.928146135870584,
,6,4,6,7,0,3,13,,train_dim1_1,15,30,,,,2,0,2,0,,,,,,,,,0,0,0,0,0,14,14,14,1,0,1,0,,,,,,,,,,,,,,,,,,,,,,,,,,,,,,,,,,,,,,,,,,,,,,,,,,,,,,,,,,,,,,,,30,,,,,,,,3098.983713799971,3098.983713799971,3098.983713799971,3098.983713799971,3098.983713799971,,,,,up,0.8427897000219673,1,0,0,99,0.32,0.08,up,0.7545684000942856,,,,,,,,,,,,,,,,,,,,,,,,,,,,,,,,,,,,,,,,,,,,,,,,,,,,,,,,LGNA1L,train_y,red_square,bottom_right,2025-05-14_15h22.57.926,HideSeek_v1,2022.2.5,59.928146135870584,
,6,4,6,7,0,3,13,,train_dim1_1,15,30,,,,2,0,2,0,,,,,,,,,0,0,0,0,0,14,14,14,2,0,2,0,,,,,,,,,,,,,,,,,,,,,,,,,,,,,,,,,,,,,,,,,,,,,,,,,,,,,,,,,,,,,,,,30,,,,,,,,3099.832678799983,3099.832678799983,3099.832678799983,3099.832678799983,3099.832678799983,35,-1,0.32,0.08,return,1.194218499935232,1,1,0,0,0.32,0.08,return,1.1038539999863133,,,,,,,,,,,,,,,,,,,,,,,,,,,,,,,,,,,,,,,,,,,,,,,,,,,,,,,,LGNA1L,train_y,red_square,bottom_right,2025-05-14_15h22.57.926,HideSeek_v1,2022.2.5,59.928146135870584,
,9,0,9,1,0,1,15,,train_dim1_1,16,30,,,,2,0,2,0,,,,,,,,,0,0,0,0,0,15,15,15,0,0,0,0,,,,,,,,,,,,,,,,,,,,,,,,,stimuli/alien_stimuli/15.png,,,,,,,,,,,,,,,,,,,,,,,,,,,,,stimuli/alien_stimuli/13.png,13,6,17,,,,,,,30,,,,,,,,3106.8438120000064,3106.8438120000064,3106.8438120000064,3106.8438120000064,3106.8438120000064,,,,,up,3.0251017999835312,1,1,0,99,0.56,-0.32,up,2.9439133000560105,3105.2869210999925,3106.8438120000064,0.32,0.16,0.24,0.0,0.04,0.32,0.32,0.32,0.16,3102.592981499969,3102.592981499969,3102.592981499969,3102.592981499969,3102.592981499969,3102.592981499969,3102.592981499969,3102.592981499969,3102.585054989997,2.8040828000521287,return,2.6676404000027105,,,,,,,,,,,,,,,,,,,,,,,,,,,,,,,,,LGNA1L,train_y,red_square,bottom_right,2025-05-14_15h22.57.926,HideSeek_v1,2022.2.5,59.928146135870584,
,9,0,9,1,0,1,15,,train_dim1_1,16,30,,,,2,0,2,0,,,,,,,,,0,0,0,0,0,15,15,15,1,0,1,0,,,,,,,,,,,,,,,,,,,,,,,,,,,,,,,,,,,,,,,,,,,,,,,,,,,,,,,,,,,,,,,,30,,,,,,,,3109.8762163000647,3109.8762163000647,3109.8762163000647,3109.8762163000647,3109.8762163000647,,,,,up,2.9112095999298617,1,1,0,99,0.56,-0.24,up,2.8286353999283165,,,,,,,,,,,,,,,,,,,,,,,,,,,,,,,,,,,,,,,,,,,,,,,,,,,,,,,,LGNA1L,train_y,red_square,bottom_right,2025-05-14_15h22.57.926,HideSeek_v1,2022.2.5,59.928146135870584,
,9,0,9,1,0,1,15,,train_dim1_1,16,30,,,,2,0,2,0,,,,,,,,,0,0,0,0,0,15,15,15,2,0,2,0,,,,,,,,,,,,,,,,,,,,,,,,,,,,,,,,,,,,,,,,,,,,,,,,,,,,,,,,,,,,,,,,30,,,,,,,,3112.79505960003,3112.79505960003,3112.79505960003,3112.79505960003,3112.79505960003,37,-1,0.56,-0.24,return,1.110619799932465,1,1,0,0,0.56,-0.24,return,1.0193592000287026,,,,,,,,,,,,,,,,,,,,,,,,,,,,,,,,,,,,,,,,,,,,,,,,,,,,,,,,LGNA1L,train_y,red_square,bottom_right,2025-05-14_15h22.57.926,HideSeek_v1,2022.2.5,59.928146135870584,
,8,3,8,6,0,3,13,,train_dim1_1,17,30,,,,2,0,2,0,,,,,,,,,0,0,0,0,0,16,16,16,0,0,0,0,,,,,,,,,,,,,,,,,,,,,,,,,stimuli/alien_stimuli/13.png,,,,,,,,,,,,,,,,,,,,,,,,,,,,,stimuli/alien_stimuli/15.png,15,9,18,,,,,,,30,,,,,,,,3120.0205772999907,3120.0205772999907,3120.0205772999907,3120.0205772999907,3120.0205772999907,,,,,up,4.142477299901657,1,1,0,99,0.48,-0.08,up,4.052986099966802,3118.464722700068,3120.0205772999907,0.56,-0.32,0.08,0.0,-0.36,0.56,0.56,0.56,-0.32,3115.478825900005,3115.478825900005,3115.478825900005,3115.478825900005,3115.478825900005,3115.478825900005,3115.478825900005,3115.478825900005,3115.478768060007,3.105005000019446,return,2.9647575999842957,,,,,,,,,,,,,,,,,,,,,,,,,,,,,,,,,LGNA1L,train_y,red_square,bottom_right,2025-05-14_15h22.57.926,HideSeek_v1,2022.2.5,59.928146135870584,
,8,3,8,6,0,3,13,,train_dim1_1,17,30,,,,2,0,2,0,,,,,,,,,0,0,0,0,0,16,16,16,1,0,1,0,,,,,,,,,,,,,,,,,,,,,,,,,,,,,,,,,,,,,,,,,,,,,,,,,,,,,,,,,,,,,,,,30,,,,,,,,3124.1705865999684,3124.1705865999684,3124.1705865999684,3124.1705865999684,3124.1705865999684,38,-1,0.48,-0.08,return,0.7933769000228494,1,0,0,0,0.48,-0.08,return,0.7038805999327451,,,,,,,,,,,,,,,,,,,,,,,,,,,,,,,,,,,,,,,,,,,,,,,,,,,,,,,,LGNA1L,train_y,red_square,bottom_right,2025-05-14_15h22.57.926,HideSeek_v1,2022.2.5,59.928146135870584,
,7,1,7,6,0,5,11,,train_dim1_1,18,30,,,,2,0,2,0,,,,,,,,,0,0,0,0,0,17,17,17,0,0,0,0,,,,,,,,,,,,,,,,,,,,,,,,,stimuli/alien_stimuli/11.png,,,,,,,,,,,,,,,,,,,,,,,,,,,,,stimuli/alien_stimuli/13.png,13,8,19,,,,,,,30,,,,,,,,3130.3148664999753,3130.3148664999753,3130.3148664999753,3130.3148664999753,3130.3148664999753,,,,,up,1.8887395999627188,1,0,0,99,0.4,-0.24,up,1.8071333999978378,3128.7566959999967,3130.3148664999753,0.48,0.08,0.24,0.0,-0.04,0.48,0.48,0.48,0.08,3126.542000000016,3126.542000000016,3126.542000000016,3126.542000000016,3126.542000000016,3126.542000000016,3126.542000000016,3126.542000000016,3126.5379933599847,2.3374245999148116,return,2.1879101999802515,,,,,,,,,,,,,,,,,,,,,,,,,,,,,,,,,LGNA1L,train_y,red_square,bottom_right,2025-05-14_15h22.57.926,HideSeek_v1,2022.2.5,59.928146135870584,
,7,1,7,6,0,5,11,,train_dim1_1,18,30,,,,2,0,2,0,,,,,,,,,0,0,0,0,0,17,17,17,1,0,1,0,,,,,,,,,,,,,,,,,,,,,,,,,,,,,,,,,,,,,,,,,,,,,,,,,,,,,,,,,,,,,,,,30,,,,,,,,3132.210829799995,3132.210829799995,3132.210829799995,3132.210829799995,3132.210829799995,,,,,up,0.7598517000442371,1,0,0,99,0.4,-0.15999999999999998,up,0.6671093000331894,,,,,,,,,,,,,,,,,,,,,,,,,,,,,,,,,,,,,,,,,,,,,,,,,,,,,,,,LGNA1L,train_y,red_square,bottom_right,2025-05-14_15h22.57.926,HideSeek_v1,2022.2.5,59.928146135870584,
,7,1,7,6,0,5,11,,train_dim1_1,18,30,,,,2,0,2,0,,,,,,,,,0,0,0,0,0,17,17,17,2,0,2,0,,,,,,,,,,,,,,,,,,,,,,,,,,,,,,,,,,,,,,,,,,,,,,,,,,,,,,,,,,,,,,,,30,,,,,,,,3132.977101000026,3132.977101000026,3132.977101000026,3132.977101000026,3132.977101000026,,,,,up,0.576998500037007,1,0,0,99,0.4,-0.07999999999999997,up,0.4925912000471726,,,,,,,,,,,,,,,,,,,,,,,,,,,,,,,,,,,,,,,,,,,,,,,,,,,,,,,,LGNA1L,train_y,red_square,bottom_right,2025-05-14_15h22.57.926,HideSeek_v1,2022.2.5,59.928146135870584,
,7,1,7,6,0,5,11,,train_dim1_1,18,30,,,,2,0,2,0,,,,,,,,,0,0,0,0,0,17,17,17,3,0,3,0,,,,,,,,,,,,,,,,,,,,,,,,,,,,,,,,,,,,,,,,,,,,,,,,,,,,,,,,,,,,,,,,30,,,,,,,,3133.5607334000524,3133.5607334000524,3133.5607334000524,3133.5607334000524,3133.5607334000524,41,-1,0.4,-0.07999999999999997,return,0.6266972000012174,1,0,0,0,0.4,-0.07999999999999997,return,0.5373864999273792,,,,,,,,,,,,,,,,,,,,,,,,,,,,,,,,,,,,,,,,,,,,,,,,,,,,,,,,LGNA1L,train_y,red_square,bottom_right,2025-05-14_15h22.57.926,HideSeek_v1,2022.2.5,59.928146135870584,
,5,4,5,8,0,4,12,,train_dim1_1,19,30,,,,2,0,2,0,,,,,,,,,0,0,0,0,0,18,18,18,0,0,0,0,,,,,,,,,,,,,,,,,,,,,,,,,stimuli/alien_stimuli/12.png,,,,,,,,,,,,,,,,,,,,,,,,,,,,,stimuli/alien_stimuli/11.png,11,7,20,,,,,,,30,,,,,,,,3138.803640600061,3138.803640600061,3138.803640600061,3138.803640600061,3138.803640600061,,,,,up,9.596082199946977,1,0,0,99,0.24,0.0,up,9.507366099976934,3137.2470909999683,3138.803640600061,0.4,0.08,0.4,0.0,-0.12,0.4,0.4,0.4,0.08,3135.7504982000683,3135.7504982000683,3135.7504982000683,3135.7504982000683,3135.7504982000683,3135.7504982000683,3135.7504982000683,3135.7504982000683,3135.7455875900105,1.6038691999856383,return,1.4760850999737158,,,,,,,,,,,,,,,,,,,,,,,,,,,,,,,,,LGNA1L,train_y,red_square,bottom_right,2025-05-14_15h22.57.926,HideSeek_v1,2022.2.5,59.928146135870584,
,5,4,5,8,0,4,12,,train_dim1_1,19,30,,,,2,0,2,0,,,,,,,,,0,0,0,0,0,18,18,18,1,0,1,0,,,,,,,,,,,,,,,,,,,,,,,,,,,,,,,,,,,,,,,,,,,,,,,,,,,,,,,,,,,,,,,,30,,,,,,,,3148.426331600058,3148.426331600058,3148.426331600058,3148.426331600058,3148.426331600058,,,,,up,0.6766123999841511,1,0,0,99,0.24,0.08,up,0.5739951999858022,,,,,,,,,,,,,,,,,,,,,,,,,,,,,,,,,,,,,,,,,,,,,,,,,,,,,,,,LGNA1L,train_y,red_square,bottom_right,2025-05-14_15h22.57.926,HideSeek_v1,2022.2.5,59.928146135870584,
,5,4,5,8,0,4,12,,train_dim1_1,19,30,,,,2,0,2,0,,,,,,,,,0,0,0,0,0,18,18,18,2,0,2,0,,,,,,,,,,,,,,,,,,,,,,,,,,,,,,,,,,,,,,,,,,,,,,,,,,,,,,,,,,,,,,,,30,,,,,,,,3149.0908618000103,3149.0908618000103,3149.0908618000103,3149.0908618000103,3149.0908618000103,,,,,up,0.32636069995351136,1,0,0,99,0.24,0.16,up,0.23411089996807277,,,,,,,,,,,,,,,,,,,,,,,,,,,,,,,,,,,,,,,,,,,,,,,,,,,,,,,,LGNA1L,train_y,red_square,bottom_right,2025-05-14_15h22.57.926,HideSeek_v1,2022.2.5,59.928146135870584,
,5,4,5,8,0,4,12,,train_dim1_1,19,30,,,,2,0,2,0,,,,,,,,,0,0,0,0,0,18,18,18,3,0,3,0,,,,,,,,,,,,,,,,,,,,,,,,,,,,,,,,,,,,,,,,,,,,,,,,,,,,,,,,,,,,,,,,30,,,,,,,,3149.424591799965,3149.424591799965,3149.424591799965,3149.424591799965,3149.424591799965,44,-1,0.24,0.16,return,0.5767229000339285,1,1,0,0,0.24,0.16,return,0.49796980002429336,,,,,,,,,,,,,,,,,,,,,,,,,,,,,,,,,,,,,,,,,,,,,,,,,,,,,,,,LGNA1L,train_y,red_square,bottom_right,2025-05-14_15h22.57.926,HideSeek_v1,2022.2.5,59.928146135870584,
,7,0,7,0,0,0,16,,train_dim1_1,20,30,,,,2,0,2,0,,,,,,,,,0,0,0,0,0,19,19,19,0,0,0,0,,,,,,,,,,,,,,,,,,,,,,,,,stimuli/alien_stimuli/16.png,,,,,,,,,,,,,,,,,,,,,,,,,,,,,stimuli/alien_stimuli/12.png,12,5,21,,,,,,,30,,,,,,,,3155.09999779996,3155.09999779996,3155.09999779996,3155.09999779996,3155.09999779996,,,,,up,3.908415599958971,1,1,0,99,0.4,-0.32,up,3.8301631999202073,3153.5435047000647,3155.09999779996,0.24,0.24,0.32,0.0,0.07999999999999999,0.24,0.24,0.24,0.24,3151.556418800028,3151.556418800028,3151.556418800028,3151.556418800028,3151.556418800028,3151.556418800028,3151.556418800028,3151.556418800028,3151.542159320018,2.086991799995303,return,1.9662815999472514,,,,,,,,,,,,,,,,,,,,,,,,,,,,,,,,,LGNA1L,train_y,red_square,bottom_right,2025-05-14_15h22.57.926,HideSeek_v1,2022.2.5,59.928146135870584,
,7,0,7,0,0,0,16,,train_dim1_1,20,30,,,,2,0,2,0,,,,,,,,,0,0,0,0,0,19,19,19,1,0,1,0,,,,,,,,,,,,,,,,,,,,,,,,,,,,,,,,,,,,,,,,,,,,,,,,,,,,,,,,,,,,,,,,30,,,,,,,,3159.015477100038,3159.015477100038,3159.015477100038,3159.015477100038,3159.015477100038,,,,,up,1.1269245999865234,1,1,0,99,0.4,-0.24,up,1.0393021000782028,,,,,,,,,,,,,,,,,,,,,,,,,,,,,,,,,,,,,,,,,,,,,,,,,,,,,,,,LGNA1L,train_y,red_square,bottom_right,2025-05-14_15h22.57.926,HideSeek_v1,2022.2.5,59.928146135870584,
,7,0,7,0,0,0,16,,train_dim1_1,20,30,,,,2,0,2,0,,,,,,,,,0,0,0,0,0,19,19,19,2,0,2,0,,,,,,,,,,,,,,,,,,,,,,,,,,,,,,,,,,,,,,,,,,,,,,,,,,,,,,,,,,,,,,,,30,,,,,,,,3160.149070100044,3160.149070100044,3160.149070100044,3160.149070100044,3160.149070100044,,,,,up,0.3766105000395328,1,1,0,99,0.4,-0.15999999999999998,up,0.299776199972257,,,,,,,,,,,,,,,,,,,,,,,,,,,,,,,,,,,,,,,,,,,,,,,,,,,,,,,,LGNA1L,train_y,red_square,bottom_right,2025-05-14_15h22.57.926,HideSeek_v1,2022.2.5,59.928146135870584,
,7,0,7,0,0,0,16,,train_dim1_1,20,30,,,,2,0,2,0,,,,,,,,,0,0,0,0,0,19,19,19,3,0,3,0,,,,,,,,,,,,,,,,,,,,,,,,,,,,,,,,,,,,,,,,,,,,,,,,,,,,,,,,,,,,,,,,30,,,,,,,,3160.5344582999824,3160.5344582999824,3160.5344582999824,3160.5344582999824,3160.5344582999824,47,-1,0.4,-0.15999999999999998,return,1.3106323999818414,1,0,0,0,0.4,-0.15999999999999998,return,1.2201962999533862,,,,,,,,,,,,,,,,,,,,,,,,,,,,,,,,,,,,,,,,,,,,,,,,,,,,,,,,LGNA1L,train_y,red_square,bottom_right,2025-05-14_15h22.57.926,HideSeek_v1,2022.2.5,59.928146135870584,
,7,4,7,5,0,1,15,,train_dim1_1,21,30,,,,2,0,2,0,,,,,,,,,0,0,0,0,0,20,20,20,0,0,0,0,,,,,,,,,,,,,,,,,,,,,,,,,stimuli/alien_stimuli/15.png,,,,,,,,,,,,,,,,,,,,,,,,,,,,,stimuli/alien_stimuli/16.png,16,7,22,,,,,,,30,,,,,,,,3168.430426500039,3168.430426500039,3168.430426500039,3168.430426500039,3168.430426500039,47,-1,0.4,-0.08,return,1.9719225000590086,1,1,0,0,0.4,-0.08,return,1.888704099925235,3166.871487300028,3168.430426500039,0.4,-0.4,0.0,0.0,-0.4,0.4,0.4,0.4,-0.4,3163.4163158000447,3163.4163158000447,3163.4163158000447,3163.4163158000447,3163.4163158000447,3163.4163158000447,3163.4163158000447,3163.4163158000447,3163.401725389971,3.5723784000147134,return,3.43944059999194,,,,,,,,,,,,,,,,,,,,,,,,,,,,,,,,,LGNA1L,train_y,red_square,bottom_right,2025-05-14_15h22.57.926,HideSeek_v1,2022.2.5,59.928146135870584,
,5,2,5,5,0,3,13,,train_dim1_1,22,30,,,,2,0,2,0,,,,,,,,,0,0,0,0,0,21,21,21,0,0,0,0,,,,,,,,,,,,,,,,,,,,,,,,,stimuli/alien_stimuli/13.png,,,,,,,,,,,,,,,,,,,,,,,,,,,,,stimuli/alien_stimuli/15.png,15,7,23,,,,,,,30,,,,,,,,3184.4069183999673,3184.4069183999673,3184.4069183999673,3184.4069183999673,3184.4069183999673,,,,,up,2.425007199984975,1,1,0,99,0.24,-0.15999999999999998,up,2.3282042000209913,3182.8347810000414,3184.4069183999673,0.4,0,0.08,0.0,-0.04,0.4,0.4,0.4,0,3171.9586286999984,3171.9586286999984,3171.9586286999984,3171.9586286999984,3171.9586286999984,3171.9586286999984,3171.9586286999984,3171.9586286999984,3171.9592363899337,10.977730400045402,return,10.857226199936122,,,,,,,,,,,,,,,,,,,,,,,,,,,,,,,,,LGNA1L,train_y,red_square,bottom_right,2025-05-14_15h22.57.926,HideSeek_v1,2022.2.5,59.928146135870584,
,5,2,5,5,0,3,13,,train_dim1_1,22,30,,,,2,0,2,0,,,,,,,,,0,0,0,0,0,21,21,21,1,0,1,0,,,,,,,,,,,,,,,,,,,,,,,,,,,,,,,,,,,,,,,,,,,,,,,,,,,,,,,,,,,,,,,,30,,,,,,,,3186.82256520004,3186.82256520004,3186.82256520004,3186.82256520004,3186.82256520004,,,,,up,0.09281029994599521,1,1,0,99,0.24,-0.07999999999999997,up,0.01075929997023195,,,,,,,,,,,,,,,,,,,,,,,,,,,,,,,,,,,,,,,,,,,,,,,,,,,,,,,,LGNA1L,train_y,red_square,bottom_right,2025-05-14_15h22.57.926,HideSeek_v1,2022.2.5,59.928146135870584,
,5,2,5,5,0,3,13,,train_dim1_1,22,30,,,,2,0,2,0,,,,,,,,,0,0,0,0,0,21,21,21,2,0,2,0,,,,,,,,,,,,,,,,,,,,,,,,,,,,,,,,,,,,,,,,,,,,,,,,,,,,,,,,,,,,,,,,30,,,,,,,,3186.9221801999956,3186.9221801999956,3186.9221801999956,3186.9221801999956,3186.9221801999956,,,,,up,0.6933682000963017,1,1,0,99,0.24,2.7755575615628914e-17,up,0.6042923000641167,,,,,,,,,,,,,,,,,,,,,,,,,,,,,,,,,,,,,,,,,,,,,,,,,,,,,,,,LGNA1L,train_y,red_square,bottom_right,2025-05-14_15h22.57.926,HideSeek_v1,2022.2.5,59.928146135870584,
,5,2,5,5,0,3,13,,train_dim1_1,22,30,,,,2,0,2,0,,,,,,,,,0,0,0,0,0,21,21,21,3,0,3,0,,,,,,,,,,,,,,,,,,,,,,,,,,,,,,,,,,,,,,,,,,,,,,,,,,,,,,,,,,,,,,,,30,,,,,,,,3187.622201799997,3187.622201799997,3187.622201799997,3187.622201799997,3187.622201799997,50,-1,0.24,2.7755575615628914e-17,return,1.1102744999807328,2,0,0,1,0.24,2.7755575615628914e-17,return,1.0332855000160635,,,,,,,,,,,,,,,,,,,,,,,,,,,,,,,,,,,,,,,,,,,,,,,,,,,,,,,,LGNA1L,train_y,red_square,bottom_right,2025-05-14_15h22.57.926,HideSeek_v1,2022.2.5,59.928146135870584,
,5,3,5,8,0,5,11,,train_dim1_1,23,30,,,,2,0,2,0,,,,,,,,,0,0,0,0,0,22,22,22,0,0,0,0,,,,,,,,,,,,,,,,,,,,,,,,,stimuli/alien_stimuli/11.png,,,,,,,,,,,,,,,,,,,,,,,,,,,,,stimuli/alien_stimuli/13.png,13,5,24,,,,,,,30,,,,,,,,3205.2921160999686,3205.2921160999686,3205.2921160999686,3205.2921160999686,3205.2921160999686,,,,,up,2.5083854000549763,2,0,0,99,0.24,-0.08,up,2.4038525000214577,3203.7184788000304,3205.2921160999686,0.24,0,0.24,0.0,-0.12,0.24,0.24,0.24,0,3190.3062737999717,3190.3062737999717,3190.3062737999717,3190.3062737999717,3190.3062737999717,3190.3062737999717,3190.3062737999717,3190.3062737999717,3190.30749975997,13.529964599991217,return,13.385144700063393,,,,,,,,,,,,,,,,,,,,,,,,,,,,,,,,,LGNA1L,train_y,red_square,bottom_right,2025-05-14_15h22.57.926,HideSeek_v1,2022.2.5,59.928146135870584,
,5,3,5,8,0,5,11,,train_dim1_1,23,30,,,,2,0,2,0,,,,,,,,,0,0,0,0,0,22,22,22,1,0,1,0,,,,,,,,,,,,,,,,,,,,,,,,,,,,,,,,,,,,,,,,,,,,,,,,,,,,,,,,,,,,,,,,30,,,,,,,,3207.7901613999857,3207.7901613999857,3207.7901613999857,3207.7901613999857,3207.7901613999857,,,,,up,0.7262085999827832,2,0,0,99,0.24,0.0,up,0.6490813000127673,,,,,,,,,,,,,,,,,,,,,,,,,,,,,,,,,,,,,,,,,,,,,,,,,,,,,,,,LGNA1L,train_y,red_square,bottom_right,2025-05-14_15h22.57.926,HideSeek_v1,2022.2.5,59.928146135870584,
,5,3,5,8,0,5,11,,train_dim1_1,23,30,,,,2,0,2,0,,,,,,,,,0,0,0,0,0,22,22,22,2,0,2,0,,,,,,,,,,,,,,,,,,,,,,,,,,,,,,,,,,,,,,,,,,,,,,,,,,,,,,,,,,,,,,,,30,,,,,,,,3208.5229193000123,3208.5229193000123,3208.5229193000123,3208.5229193000123,3208.5229193000123,,,,,up,0.3767791000427678,2,0,0,99,0.24,0.08,up,0.30056559992954135,,,,,,,,,,,,,,,,,,,,,,,,,,,,,,,,,,,,,,,,,,,,,,,,,,,,,,,,LGNA1L,train_y,red_square,bottom_right,2025-05-14_15h22.57.926,HideSeek_v1,2022.2.5,59.928146135870584,
,5,3,5,8,0,5,11,,train_dim1_1,23,30,,,,2,0,2,0,,,,,,,,,0,0,0,0,0,22,22,22,3,0,3,0,,,,,,,,,,,,,,,,,,,,,,,,,,,,,,,,,,,,,,,,,,,,,,,,,,,,,,,,,,,,,,,,30,,,,,,,,3208.9073595000664,3208.9073595000664,3208.9073595000664,3208.9073595000664,3208.9073595000664,53,-1,0.24,0.08,return,0.5935452000703663,2,0,0,0,0.24,0.08,return,0.5159634000156075,,,,,,,,,,,,,,,,,,,,,,,,,,,,,,,,,,,,,,,,,,,,,,,,,,,,,,,,LGNA1L,train_y,red_square,bottom_right,2025-05-14_15h22.57.926,HideSeek_v1,2022.2.5,59.928146135870584,
,8,2,8,2,0,0,16,,train_dim1_1,24,30,,,,2,0,2,0,,,,,,,,,0,0,0,0,0,23,23,23,0,0,0,0,,,,,,,,,,,,,,,,,,,,,,,,,stimuli/alien_stimuli/16.png,,,,,,,,,,,,,,,,,,,,,,,,,,,,,stimuli/alien_stimuli/11.png,11,5,25,,,,,,,30,,,,,,,,3214.198600600008,3214.198600600008,3214.198600600008,3214.198600600008,3214.198600600008,,,,,up,0.873105000006035,2,0,0,99,0.48,-0.15999999999999998,up,0.7954950999701396,3212.642804400064,3214.198600600008,0.24,0.24,0.4,0.0,0.039999999999999994,0.24,0.24,0.24,0.24,3211.0749798000325,3211.0749798000325,3211.0749798000325,3211.0749798000325,3211.0749798000325,3211.0749798000325,3211.0749798000325,3211.0749798000325,3211.0751231599365,1.686595799983479,return,1.5469437000574544,,,,,,,,,,,,,,,,,,,,,,,,,,,,,,,,,LGNA1L,train_y,red_square,bottom_right,2025-05-14_15h22.57.926,HideSeek_v1,2022.2.5,59.928146135870584,
,8,2,8,2,0,0,16,,train_dim1_1,24,30,,,,2,0,2,0,,,,,,,,,0,0,0,0,0,23,23,23,1,0,1,0,,,,,,,,,,,,,,,,,,,,,,,,,,,,,,,,,,,,,,,,,,,,,,,,,,,,,,,,,,,,,,,,30,,,,,,,,3215.0789274000563,3215.0789274000563,3215.0789274000563,3215.0789274000563,3215.0789274000563,,,,,up,0.6599841000279412,2,0,0,99,0.48,-0.07999999999999997,up,0.5750388000160456,,,,,,,,,,,,,,,,,,,,,,,,,,,,,,,,,,,,,,,,,,,,,,,,,,,,,,,,LGNA1L,train_y,red_square,bottom_right,2025-05-14_15h22.57.926,HideSeek_v1,2022.2.5,59.928146135870584,
,8,2,8,2,0,0,16,,train_dim1_1,24,30,,,,2,0,2,0,,,,,,,,,0,0,0,0,0,23,23,23,2,0,2,0,,,,,,,,,,,,,,,,,,,,,,,,,,,,,,,,,,,,,,,,,,,,,,,,,,,,,,,,,,,,,,,,30,,,,,,,,3215.7461760999868,3215.7461760999868,3215.7461760999868,3215.7461760999868,3215.7461760999868,,,,,down,1.6777248999569565,2,0,0,99,0.48,-0.15999999999999998,down,1.5936144000152126,,,,,,,,,,,,,,,,,,,,,,,,,,,,,,,,,,,,,,,,,,,,,,,,,,,,,,,,LGNA1L,train_y,red_square,bottom_right,2025-05-14_15h22.57.926,HideSeek_v1,2022.2.5,59.928146135870584,
,8,2,8,2,0,0,16,,train_dim1_1,24,30,,,,2,0,2,0,,,,,,,,,0,0,0,0,0,23,23,23,3,0,3,0,,,,,,,,,,,,,,,,,,,,,,,,,,,,,,,,,,,,,,,,,,,,,,,,,,,,,,,,,,,,,,,,30,,,,,,,,3217.4303557999665,3217.4303557999665,3217.4303557999665,3217.4303557999665,3217.4303557999665,,,,,down,0.5937122000614181,2,0,0,99,0.48,-0.24,down,0.5119320000521839,,,,,,,,,,,,,,,,,,,,,,,,,,,,,,,,,,,,,,,,,,,,,,,,,,,,,,,,LGNA1L,train_y,red_square,bottom_right,2025-05-14_15h22.57.926,HideSeek_v1,2022.2.5,59.928146135870584,
,8,2,8,2,0,0,16,,train_dim1_1,24,30,,,,2,0,2,0,,,,,,,,,0,0,0,0,0,23,23,23,4,0,4,0,,,,,,,,,,,,,,,,,,,,,,,,,,,,,,,,,,,,,,,,,,,,,,,,,,,,,,,,,,,,,,,,30,,,,,,,,3218.030678500072,3218.030678500072,3218.030678500072,3218.030678500072,3218.030678500072,53,-1,0.48,-0.24,return,0.9435491999611259,3,0,0,1,0.48,-0.24,return,0.8576977000338957,,,,,,,,,,,,,,,,,,,,,,,,,,,,,,,,,,,,,,,,,,,,,,,,,,,,,,,,LGNA1L,train_y,red_square,bottom_right,2025-05-14_15h22.57.926,HideSeek_v1,2022.2.5,59.928146135870584,
,8,3,8,7,0,4,12,,train_dim1_1,25,30,,,,2,0,2,0,,,,,,,,,0,0,0,0,0,24,24,24,0,0,0,0,,,,,,,,,,,,,,,,,,,,,,,,,stimuli/alien_stimuli/12.png,,,,,,,,,,,,,,,,,,,,,,,,,,,,,stimuli/alien_stimuli/16.png,16,8,26,,,,,,,30,,,,,,,,3229.728776199976,3229.728776199976,3229.728776199976,3229.728776199976,3229.728776199976,,,,,up,1.0895208000438288,3,0,0,99,0.48,-0.08,up,1.0082669000839815,3228.172434300068,3229.728776199976,0.48,-0.24,0.0,0.0,-0.24,0.48,0.48,0.48,-0.24,3220.5328281000257,3220.5328281000257,3220.5328281000257,3220.5328281000257,3220.5328281000257,3220.5328281000257,3220.5328281000257,3220.5328281000257,3220.5325361899795,7.742233199998736,return,7.61905489990022,,,,,,,,,,,,,,,,,,,,,,,,,,,,,,,,,LGNA1L,train_y,red_square,bottom_right,2025-05-14_15h22.57.926,HideSeek_v1,2022.2.5,59.928146135870584,
,8,3,8,7,0,4,12,,train_dim1_1,25,30,,,,2,0,2,0,,,,,,,,,0,0,0,0,0,24,24,24,1,0,1,0,,,,,,,,,,,,,,,,,,,,,,,,,,,,,,,,,,,,,,,,,,,,,,,,,,,,,,,,,,,,,,,,30,,,,,,,,3230.825064099976,3230.825064099976,3230.825064099976,3230.825064099976,3230.825064099976,,,,,up,0.9936220999807119,3,0,0,99,0.48,0.0,up,0.9051924999803305,,,,,,,,,,,,,,,,,,,,,,,,,,,,,,,,,,,,,,,,,,,,,,,,,,,,,,,,LGNA1L,train_y,red_square,bottom_right,2025-05-14_15h22.57.926,HideSeek_v1,2022.2.5,59.928146135870584,
,8,3,8,7,0,4,12,,train_dim1_1,25,30,,,,2,0,2,0,,,,,,,,,0,0,0,0,0,24,24,24,2,0,2,0,,,,,,,,,,,,,,,,,,,,,,,,,,,,,,,,,,,,,,,,,,,,,,,,,,,,,,,,,,,,,,,,30,,,,,,,,3231.825599199976,3231.825599199976,3231.825599199976,3231.825599199976,3231.825599199976,55,-1,0.48,0.0,return,1.2606962999561802,3,0,0,0,0.48,0.0,return,1.1792201000498608,,,,,,,,,,,,,,,,,,,,,,,,,,,,,,,,,,,,,,,,,,,,,,,,,,,,,,,,LGNA1L,train_y,red_square,bottom_right,2025-05-14_15h22.57.926,HideSeek_v1,2022.2.5,59.928146135870584,
,9,4,9,7,0,3,13,,train_dim1_1,26,30,,,,2,0,2,0,,,,,,,,,0,0,0,0,0,25,25,25,0,0,0,0,,,,,,,,,,,,,,,,,,,,,,,,,stimuli/alien_stimuli/13.png,,,,,,,,,,,,,,,,,,,,,,,,,,,,,stimuli/alien_stimuli/12.png,12,8,27,,,,,,,30,,,,,,,,3237.551755600027,3237.551755600027,3237.551755600027,3237.551755600027,3237.551755600027,,,,,up,1.0055489999940619,3,0,0,99,0.56,0.0,up,0.9227187000215054,3235.9953527000034,3237.551755600027,0.48,0.16,0.32,0.0,0.0,0.48,0.48,0.48,0.16,3234.66539129999,3234.66539129999,3234.66539129999,3234.66539129999,3234.66539129999,3234.66539129999,3234.66539129999,3234.66539129999,3234.6611470600124,1.45332089997828,return,1.2986225000349805,,,,,,,,,,,,,,,,,,,,,,,,,,,,,,,,,LGNA1L,train_y,red_square,bottom_right,2025-05-14_15h22.57.926,HideSeek_v1,2022.2.5,59.928146135870584,
,9,4,9,7,0,3,13,,train_dim1_1,26,30,,,,2,0,2,0,,,,,,,,,0,0,0,0,0,25,25,25,1,0,1,0,,,,,,,,,,,,,,,,,,,,,,,,,,,,,,,,,,,,,,,,,,,,,,,,,,,,,,,,,,,,,,,,30,,,,,,,,3238.565759400022,3238.565759400022,3238.565759400022,3238.565759400022,3238.565759400022,,,,,up,0.5266392000485212,3,0,0,99,0.56,0.08,up,0.4402574999257922,,,,,,,,,,,,,,,,,,,,,,,,,,,,,,,,,,,,,,,,,,,,,,,,,,,,,,,,LGNA1L,train_y,red_square,bottom_right,2025-05-14_15h22.57.926,HideSeek_v1,2022.2.5,59.928146135870584,
,9,4,9,7,0,3,13,,train_dim1_1,26,30,,,,2,0,2,0,,,,,,,,,0,0,0,0,0,25,25,25,2,0,2,0,,,,,,,,,,,,,,,,,,,,,,,,,,,,,,,,,,,,,,,,,,,,,,,,,,,,,,,,,,,,,,,,30,,,,,,,,3239.0978887999663,3239.0978887999663,3239.0978887999663,3239.0978887999663,3239.0978887999663,,,,,up,0.45999260002281517,3,0,0,99,0.56,0.16,up,0.38457260001450777,,,,,,,,,,,,,,,,,,,,,,,,,,,,,,,,,,,,,,,,,,,,,,,,,,,,,,,,LGNA1L,train_y,red_square,bottom_right,2025-05-14_15h22.57.926,HideSeek_v1,2022.2.5,59.928146135870584,
,9,4,9,7,0,3,13,,train_dim1_1,26,30,,,,2,0,2,0,,,,,,,,,0,0,0,0,0,25,25,25,3,0,3,0,,,,,,,,,,,,,,,,,,,,,,,,,,,,,,,,,,,,,,,,,,,,,,,,,,,,,,,,,,,,,,,,30,,,,,,,,3239.565562700038,3239.565562700038,3239.565562700038,3239.565562700038,3239.565562700038,58,-1,0.56,0.16,return,2.5954751999815926,4,0,0,1,0.56,0.16,return,2.5026034999173135,,,,,,,,,,,,,,,,,,,,,,,,,,,,,,,,,,,,,,,,,,,,,,,,,,,,,,,,LGNA1L,train_y,red_square,bottom_right,2025-05-14_15h22.57.926,HideSeek_v1,2022.2.5,59.928146135870584,
,8,4,8,4,0,0,16,,train_dim1_1,27,30,,,,2,0,2,0,,,,,,,,,0,0,0,0,0,26,26,26,0,0,0,0,,,,,,,,,,,,,,,,,,,,,,,,,stimuli/alien_stimuli/16.png,,,,,,,,,,,,,,,,,,,,,,,,,,,,,stimuli/alien_stimuli/13.png,13,9,28,,,,,,,30,,,,,,,,3247.643464999972,3247.643464999972,3247.643464999972,3247.643464999972,3247.643464999972,,,,,up,4.041801300016232,4,0,0,99,0.48,0.0,up,3.953271600068547,3246.087164900033,3247.643464999972,0.56,0.16,0.24,0.0,0.04,0.56,0.56,0.56,0.16,3243.718585900031,3243.718585900031,3243.718585900031,3243.718585900031,3243.718585900031,3243.718585900031,3243.718585900031,3243.718585900031,3243.718353589973,2.471282499958761,return,2.3502120000775903,,,,,,,,,,,,,,,,,,,,,,,,,,,,,,,,,LGNA1L,train_y,red_square,bottom_right,2025-05-14_15h22.57.926,HideSeek_v1,2022.2.5,59.928146135870584,
,8,4,8,4,0,0,16,,train_dim1_1,27,30,,,,2,0,2,0,,,,,,,,,0,0,0,0,0,26,26,26,1,0,1,0,,,,,,,,,,,,,,,,,,,,,,,,,,,,,,,,,,,,,,,,,,,,,,,,,,,,,,,,,,,,,,,,30,,,,,,,,3251.691920400015,3251.691920400015,3251.691920400015,3251.691920400015,3251.691920400015,,,,,down,1.8276296999538317,4,0,0,99,0.48,-0.08,down,1.7416596000548452,,,,,,,,,,,,,,,,,,,,,,,,,,,,,,,,,,,,,,,,,,,,,,,,,,,,,,,,LGNA1L,train_y,red_square,bottom_right,2025-05-14_15h22.57.926,HideSeek_v1,2022.2.5,59.928146135870584,
,8,4,8,4,0,0,16,,train_dim1_1,27,30,,,,2,0,2,0,,,,,,,,,0,0,0,0,0,26,26,26,2,0,2,0,,,,,,,,,,,,,,,,,,,,,,,,,,,,,,,,,,,,,,,,,,,,,,,,,,,,,,,,,,,,,,,,30,,,,,,,,3253.5267700999975,3253.5267700999975,3253.5267700999975,3253.5267700999975,3253.5267700999975,58,-1,0.48,-0.08,return,0.8269576000748202,5,0,0,1,0.48,-0.08,return,0.7474415999604389,,,,,,,,,,,,,,,,,,,,,,,,,,,,,,,,,,,,,,,,,,,,,,,,,,,,,,,,LGNA1L,train_y,red_square,bottom_right,2025-05-14_15h22.57.926,HideSeek_v1,2022.2.5,59.928146135870584,
,9,1,9,6,0,5,11,,train_dim1_1,28,30,,,,2,0,2,0,,,,,,,,,0,0,0,0,0,27,27,27,0,0,0,0,,,,,,,,,,,,,,,,,,,,,,,,,stimuli/alien_stimuli/11.png,,,,,,,,,,,,,,,,,,,,,,,,,,,,,stimuli/alien_stimuli/16.png,16,8,29,,,,,,,30,,,,,,,,3259.6058370000683,3259.6058370000683,3259.6058370000683,3259.6058370000683,3259.6058370000683,,,,,up,16.450066599994898,5,0,0,99,0.56,-0.24,up,16.35818800004199,3258.0468524000607,3259.6058370000683,0.48,-0.08,0.0,0.0,-0.08,0.48,0.48,0.48,-0.08,3255.928440800053,3255.928440800053,3255.928440800053,3255.928440800053,3255.928440800053,3255.928440800053,3255.928440800053,3255.928440800053,3255.928719259938,2.2370397999184206,return,2.0973817000631243,,,,,,,,,,,,,,,,,,,,,,,,,,,,,,,,,LGNA1L,train_y,red_square,bottom_right,2025-05-14_15h22.57.926,HideSeek_v1,2022.2.5,59.928146135870584,
,9,1,9,6,0,5,11,,train_dim1_1,28,30,,,,2,0,2,0,,,,,,,,,0,0,0,0,0,27,27,27,1,0,1,0,,,,,,,,,,,,,,,,,,,,,,,,,,,,,,,,,,,,,,,,,,,,,,,,,,,,,,,,,,,,,,,,30,,,,,,,,3276.0817802000092,3276.0817802000092,3276.0817802000092,3276.0817802000092,3276.0817802000092,,,,,up,2.761800199979916,5,0,0,99,0.56,-0.15999999999999998,up,2.658063599956222,,,,,,,,,,,,,,,,,,,,,,,,,,,,,,,,,,,,,,,,,,,,,,,,,,,,,,,,LGNA1L,train_y,red_square,bottom_right,2025-05-14_15h22.57.926,HideSeek_v1,2022.2.5,59.928146135870584,
,9,1,9,6,0,5,11,,train_dim1_1,28,30,,,,2,0,2,0,,,,,,,,,0,0,0,0,0,27,27,27,2,0,2,0,,,,,,,,,,,,,,,,,,,,,,,,,,,,,,,,,,,,,,,,,,,,,,,,,,,,,,,,,,,,,,,,30,,,,,,,,3278.8315154999727,3278.8315154999727,3278.8315154999727,3278.8315154999727,3278.8315154999727,,,,,up,0.37686969991773367,5,0,0,99,0.56,-0.07999999999999997,up,0.2929947000229731,,,,,,,,,,,,,,,,,,,,,,,,,,,,,,,,,,,,,,,,,,,,,,,,,,,,,,,,LGNA1L,train_y,red_square,bottom_right,2025-05-14_15h22.57.926,HideSeek_v1,2022.2.5,59.928146135870584,
,9,1,9,6,0,5,11,,train_dim1_1,28,30,,,,2,0,2,0,,,,,,,,,0,0,0,0,0,27,27,27,3,0,3,0,,,,,,,,,,,,,,,,,,,,,,,,,,,,,,,,,,,,,,,,,,,,,,,,,,,,,,,,,,,,,,,,30,,,,,,,,3279.2151536999736,3279.2151536999736,3279.2151536999736,3279.2151536999736,3279.2151536999736,,,,,up,0.34308520006015897,5,0,0,99,0.56,2.7755575615628914e-17,up,0.2619597000302747,,,,,,,,,,,,,,,,,,,,,,,,,,,,,,,,,,,,,,,,,,,,,,,,,,,,,,,,LGNA1L,train_y,red_square,bottom_right,2025-05-14_15h22.57.926,HideSeek_v1,2022.2.5,59.928146135870584,
,9,1,9,6,0,5,11,,train_dim1_1,28,30,,,,2,0,2,0,,,,,,,,,0,0,0,0,0,27,27,27,4,0,4,0,,,,,,,,,,,,,,,,,,,,,,,,,,,,,,,,,,,,,,,,,,,,,,,,,,,,,,,,,,,,,,,,30,,,,,,,,3279.5652156999568,3279.5652156999568,3279.5652156999568,3279.5652156999568,3279.5652156999568,,,,,up,0.5097757999319583,5,0,0,99,0.56,0.08000000000000003,up,0.4235377999721095,,,,,,,,,,,,,,,,,,,,,,,,,,,,,,,,,,,,,,,,,,,,,,,,,,,,,,,,LGNA1L,train_y,red_square,bottom_right,2025-05-14_15h22.57.926,HideSeek_v1,2022.2.5,59.928146135870584,
,9,1,9,6,0,5,11,,train_dim1_1,28,30,,,,2,0,2,0,,,,,,,,,0,0,0,0,0,27,27,27,5,0,5,0,,,,,,,,,,,,,,,,,,,,,,,,,,,,,,,,,,,,,,,,,,,,,,,,,,,,,,,,,,,,,,,,30,,,,,,,,3280.0818695999915,3280.0818695999915,3280.0818695999915,3280.0818695999915,3280.0818695999915,63,-1,0.56,0.08000000000000003,return,0.8274936999659985,6,0,0,1,0.56,0.08000000000000003,return,0.7456207000650465,,,,,,,,,,,,,,,,,,,,,,,,,,,,,,,,,,,,,,,,,,,,,,,,,,,,,,,,LGNA1L,train_y,red_square,bottom_right,2025-05-14_15h22.57.926,HideSeek_v1,2022.2.5,59.928146135870584,
,7,2,7,6,0,4,12,,train_dim1_1,29,30,,,,2,0,2,0,,,,,,,,,0,0,0,0,0,28,28,28,0,0,0,0,,,,,,,,,,,,,,,,,,,,,,,,,stimuli/alien_stimuli/12.png,,,,,,,,,,,,,,,,,,,,,,,,,,,,,stimuli/alien_stimuli/11.png,11,9,30,,,,,,,30,,,,,,,,3286.543959100032,3286.543959100032,3286.543959100032,3286.543959100032,3286.543959100032,,,,,up,3.6904607000760734,6,0,0,99,0.4,-0.15999999999999998,up,3.6026372000342235,3284.986086399993,3286.543959100032,0.56,0.08,0.4,0.0,-0.12,0.56,0.56,0.56,0.08,3282.4841225000564,3282.4841225000564,3282.4841225000564,3282.4841225000564,3282.4841225000564,3282.4841225000564,3282.4841225000564,3282.4841225000564,3282.4839010599767,2.6207352000055835,return,2.4714663000777364,,,,,,,,,,,,,,,,,,,,,,,,,,,,,,,,,LGNA1L,train_y,red_square,bottom_right,2025-05-14_15h22.57.926,HideSeek_v1,2022.2.5,59.928146135870584,
,7,2,7,6,0,4,12,,train_dim1_1,29,30,,,,2,0,2,0,,,,,,,,,0,0,0,0,0,28,28,28,1,0,1,0,,,,,,,,,,,,,,,,,,,,,,,,,,,,,,,,,,,,,,,,,,,,,,,,,,,,,,,,,,,,,,,,30,,,,,,,,3290.2417671000585,3290.2417671000585,3290.2417671000585,3290.2417671000585,3290.2417671000585,,,,,up,0.8929603999713436,6,0,0,99,0.4,-0.07999999999999997,up,0.8064799000276253,,,,,,,,,,,,,,,,,,,,,,,,,,,,,,,,,,,,,,,,,,,,,,,,,,,,,,,,LGNA1L,train_y,red_square,bottom_right,2025-05-14_15h22.57.926,HideSeek_v1,2022.2.5,59.928146135870584,
,7,2,7,6,0,4,12,,train_dim1_1,29,30,,,,2,0,2,0,,,,,,,,,0,0,0,0,0,28,28,28,2,0,2,0,,,,,,,,,,,,,,,,,,,,,,,,,,,,,,,,,,,,,,,,,,,,,,,,,,,,,,,,,,,,,,,,30,,,,,,,,3291.141909900005,3291.141909900005,3291.141909900005,3291.141909900005,3291.141909900005,,,,,up,0.32693390001077205,6,0,0,99,0.4,2.7755575615628914e-17,up,0.250109100015834,,,,,,,,,,,,,,,,,,,,,,,,,,,,,,,,,,,,,,,,,,,,,,,,,,,,,,,,LGNA1L,train_y,red_square,bottom_right,2025-05-14_15h22.57.926,HideSeek_v1,2022.2.5,59.928146135870584,
,7,2,7,6,0,4,12,,train_dim1_1,29,30,,,,2,0,2,0,,,,,,,,,0,0,0,0,0,28,28,28,3,0,3,0,,,,,,,,,,,,,,,,,,,,,,,,,,,,,,,,,,,,,,,,,,,,,,,,,,,,,,,,,,,,,,,,30,,,,,,,,3291.475460299989,3291.475460299989,3291.475460299989,3291.475460299989,3291.475460299989,,,,,up,0.693832500022836,6,0,0,99,0.4,0.08000000000000003,up,0.6095916000194848,,,,,,,,,,,,,,,,,,,,,,,,,,,,,,,,,,,,,,,,,,,,,,,,,,,,,,,,LGNA1L,train_y,red_square,bottom_right,2025-05-14_15h22.57.926,HideSeek_v1,2022.2.5,59.928146135870584,
,7,2,7,6,0,4,12,,train_dim1_1,29,30,,,,2,0,2,0,,,,,,,,,0,0,0,0,0,28,28,28,4,0,4,0,,,,,,,,,,,,,,,,,,,,,,,,,,,,,,,,,,,,,,,,,,,,,,,,,,,,,,,,,,,,,,,,30,,,,,,,,3292.176141200005,3292.176141200005,3292.176141200005,3292.176141200005,3292.176141200005,67,-1,0.4,0.08000000000000003,return,0.9940555000212044,7,0,0,1,0.4,0.08000000000000003,return,0.9152523999800906,,,,,,,,,,,,,,,,,,,,,,,,,,,,,,,,,,,,,,,,,,,,,,,,,,,,,,,,LGNA1L,train_y,red_square,bottom_right,2025-05-14_15h22.57.926,HideSeek_v1,2022.2.5,59.928146135870584,
,5,1,5,2,0,1,15,,train_dim1_1,30,30,,,,2,0,2,0,,,,,,,,,0,0,0,0,0,29,29,29,0,0,0,0,,,,,,,,,,,,,,,,,,,,,,,,,stimuli/alien_stimuli/15.png,,,,,,,,,,,,,,,,,,,,,,,,,,,,,stimuli/alien_stimuli/12.png,12,7,31,,,,,,,30,,,,,,,,3298.8869229999837,3298.8869229999837,3298.8869229999837,3298.8869229999837,3298.8869229999837,,,,,up,3.608050800045021,7,0,0,99,0.24,-0.24,up,3.5179943999974057,3297.329459300032,3298.8869229999837,0.4,0.08,0.32,0.0,-0.07999999999999999,0.4,0.4,0.4,0.08,3294.7438504999736,3294.7438504999736,3294.7438504999736,3294.7438504999736,3294.7438504999736,3294.7438504999736,3294.7438504999736,3294.7438504999736,3294.7441986599238,2.704541400074959,return,2.5699794000247493,,,,,,,,,,,,,,,,,,,,,,,,,,,,,,,,,LGNA1L,train_y,red_square,bottom_right,2025-05-14_15h22.57.926,HideSeek_v1,2022.2.5,59.928146135870584,
,5,1,5,2,0,1,15,,train_dim1_1,30,30,,,,2,0,2,0,,,,,,,,,0,0,0,0,0,29,29,29,1,0,1,0,,,,,,,,,,,,,,,,,,,,,,,,,,,,,,,,,,,,,,,,,,,,,,,,,,,,,,,,,,,,,,,,30,,,,,,,,3302.50199670007,3302.50199670007,3302.50199670007,3302.50199670007,3302.50199670007,,,,,down,0.9101625999901444,7,0,0,99,0.24,-0.32,down,0.8292599999113008,,,,,,,,,,,,,,,,,,,,,,,,,,,,,,,,,,,,,,,,,,,,,,,,,,,,,,,,LGNA1L,train_y,red_square,bottom_right,2025-05-14_15h22.57.926,HideSeek_v1,2022.2.5,59.928146135870584,
,5,1,5,2,0,1,15,,train_dim1_1,30,30,,,,2,0,2,0,,,,,,,,,0,0,0,0,0,29,29,29,2,0,2,0,,,,,,,,,,,,,,,,,,,,,,,,,,,,,,,,,,,,,,,,,,,,,,,,,,,,,,,,,,,,,,,,30,,,,,,,,3303.418427500059,3303.418427500059,3303.418427500059,3303.418427500059,3303.418427500059,67,-1,0.24,-0.32,return,0.46006899990607053,7,1,0,0,0.24,-0.32,return,0.38251729996409267,,,,,,,,,,,,,,,,,,,,,,,,,,,,,,,,,,,,,,,,,,,,,,,,,,,,,,,,LGNA1L,train_y,red_square,bottom_right,2025-05-14_15h22.57.926,HideSeek_v1,2022.2.5,59.928146135870584,
,,,,,,,,,,,30,,,,2,0,2,0,,,,,,,,,,,,,,,,,,,,,,,,,,,,,,,,,,,,,,,,,,,,,,,,,,,,,,,,,,,,,,,,,,,,,,,,,,stimuli/alien_stimuli/15.png,15,5,32,21,0.7,0.2916666666666667,1,1,1,30,0,conditions/schedules/train_y_first/red_square_00/bottom_right/inputTrain_2.1.xlsx,99,1,2,1,0,,,,,,,,,,,,,,,0,,,,,3308.0219287000364,3309.5655232999707,0.24,-0.24,0.08,0.0,-0.28,0.24,0.24,0.24,-0.24,3305.4346096999943,3305.4346096999943,3305.4346096999943,3305.4346096999943,3305.4346096999943,3305.4346096999943,3305.4346096999943,3305.4346096999943,3305.436364189931,2.6876897000474855,return,2.570301300031133,0,0.9,0,1,7,,,,,,,,,,,,,,,,,,,,,,,,,,,,LGNA1L,train_y,red_square,bottom_right,2025-05-14_15h22.57.926,HideSeek_v1,2022.2.5,59.928146135870584,
