trialInstr,x_fixStart,y_fixStart,x_corrSteps,y_corrSteps,x_nrSteps,y_nrSteps,alienID,trialLength,version,trialTrain,praclen,testlen,trial_label,break_on_off,beforeExpLoop.thisRepN,beforeExpLoop.thisTrialN,beforeExpLoop.thisN,beforeExpLoop.thisIndex,mini_instr_trials.thisRepN,mini_instr_trials.thisTrialN,mini_instr_trials.thisN,mini_instr_trials.thisIndex,instrLoop.thisRepN,instrLoop.thisTrialN,instrLoop.thisN,instrLoop.thisIndex,repeat_prac.thisRepN,repeat_prac.thisTrialN,repeat_prac.thisN,repeat_prac.thisIndex,trainLoop.thisRepN,trainLoop.thisTrialN,trainLoop.thisN,trainLoop.thisIndex,moveLoop_train.thisRepN,moveLoop_train.thisTrialN,moveLoop_train.thisN,moveLoop_train.thisIndex,experiment.thisRepN,experiment.thisTrialN,experiment.thisN,experiment.thisIndex,moveLoop_test.thisRepN,moveLoop_test.thisTrialN,moveLoop_test.thisN,moveLoop_test.thisIndex,mini_instr2_trials.thisRepN,mini_instr2_trials.thisTrialN,mini_instr2_trials.thisN,mini_instr2_trials.thisIndex,start_all_time,url,slideStim,audioStim,slides.started,sounds.started,nextButton.numClicks,nextButton.timesOn,nextButton.timesOff,prev_but.numClicks,prev_but.timesOn,prev_but.timesOff,alienStim,instrFile,alienStim_instr,gridImage_instr.started,startPos_3.started,key_instr.started,alienImage_3.started,sounds_1.started,key_instr.keys,key_instr.rt,all_x,all_y,FBy_corrSteps,FBy_fixStart,FBx_corrSteps,FBx_fixStart,FBy_pathSize_check,FBx_pathSize_check,gridImage_9.started,alienImageFB_3.started,startPosFB_3.started,keyFB_3.started,pathLine_ydir_2.started,pathLine_xdir_2.started,alienFace_3.started,sounds_2.started,RTFB_instr,keyFB_3.keys,keyFB_3.rt,draw_alienStim,draw_alienID,test_x,nrepcount,perfthres,percthres,earlierperf,earlystop,nextPrac,fileidx,praclen,saveACC_train,pracFile,nextPrac_train,addNrep,fileidx_endr,repExp,showearly,gridImage_4.started,startPos.started,movePos.started,key_resp.started,alienImage.started,buttonPress_train,RTchoice_train,cumAcctrain,aCorr,saveACC_choice,corrAns,x_movePos_end,y_movePos_end,key_resp.keys,key_resp.rt,wLy_dir,wLx_dir,x_movePos,y_movePos,text_2.started,text_2.stopped,aft_x_corrPos,aft_y_corrPos,y_pathSize_check,x_pathSize_check,y_pathdirY,x_pathdirY,x_pathdirX,x_corrPos,y_corrPos,gridImage_6.started,alienImageFB_2.started,startPosFB_2.started,movePosFB_2.started,keyFB_2.started,pathLine_xdir.started,pathLine_ydir.started,alienFace.started,sounds_4.started,RT_FBtrain,keyFB_2.keys,keyFB_2.rt,saveACC_pre,ACC,within_saveACC_train,earlystop_wloop,cumAcctrain_check,gridImage_3.started,alienImage_test.started,startPos_test.started,movePos_test.started,key_resp_test.started,wLy_dir_test,wLx_dir_test,buttonPress_test,RTchoice_test,cumAcctest,corrAns_test,key_resp_test.keys,key_resp_test.rt,text_3.started,text_3.stopped,total_time,end_all_time,key_resp_3.keys,slides_2.started,sounds_3.started,nextButton_2.numClicks,nextButton_2.timesOn,nextButton_2.timesOff,prev_but_2.numClicks,prev_but_2.timesOn,prev_but_2.timesOff,bye.started,participant,train_first,00_coordinate,starting corner,date,expName,psychopyVersion,frameRate,
,,,,,,,,,,,,,,,0,0,0,0,0,0,0,0,,,,,,,,,,,,,,,,,,,,,,,,,,,,,start_all_time,testround,conditions/schedules/train_y_first/red_square_00/top_right/instructions/Slide1.png,conditions/schedules/train_y_first/red_square_00/top_right/instructions/Audio1.wav,55.875621500075795,55.81375887817703,1,[6.461416799924336],[6.461429000017233],0,,,,,,,,,,,,,,,,,,,,,,,,,,,,,,,,,,,,,,,,,,,,,,,,,,,,,,,,,,,,,,,,,,,,,,,,,,,,,,,,,,,,,,,,,,,,,,,,,,,,,,,,,,,,,,,,,,,,,,,,,,,,LT28PH,train_y,red_square,top_right,2025-09-09_17h46.11.811,HideSeek_v1,2022.2.5,59.95326040334746,
,,,,,,,,,,,,,,,0,0,0,0,1,0,1,0,,,,,,,,,,,,,,,,,,,,,,,,,,,,,,,conditions/schedules/train_y_first/red_square_00/top_right/instructions/Slide2.png,conditions/schedules/train_y_first/red_square_00/top_right/instructions/Audio2.wav,62.358618000056595,62.35647765005706,2,"[6.461416799924336, 17.610957799945027]","[6.461429000017233, 17.610965200001374]",0,,,,,,,,,,,,,,,,,,,,,,,,,,,,,,,,,,,,,,,,,,,,,,,,,,,,,,,,,,,,,,,,,,,,,,,,,,,,,,,,,,,,,,,,,,,,,,,,,,,,,,,,,,,,,,,,,,,,,,,,,,,,LT28PH,train_y,red_square,top_right,2025-09-09_17h46.11.811,HideSeek_v1,2022.2.5,59.95326040334746,
,,,,,,,,,,,,,,,0,0,0,0,2,0,2,0,,,,,,,,,,,,,,,,,,,,,,,,,,,,,,,conditions/schedules/train_y_first/red_square_00/top_right/instructions/Slide3.png,conditions/schedules/train_y_first/red_square_00/top_right/instructions/Audio3.wav,80.04484700004105,80.03826825000579,3,"[6.461416799924336, 17.610957799945027, 16.587715599918738]","[6.461429000017233, 0.014284099917858839, 16.587724299984984]",0,,,,,,,,,,,,,,,,,,,,,,,,,,,,,,,,,,,,,,,,,,,,,,,,,,,,,,,,,,,,,,,,,,,,,,,,,,,,,,,,,,,,,,,,,,,,,,,,,,,,,,,,,,,,,,,,,,,,,,,,,,,,LT28PH,train_y,red_square,top_right,2025-09-09_17h46.11.811,HideSeek_v1,2022.2.5,59.95326040334746,
,,,,,,,,,,,,,,,0,0,0,0,3,0,3,0,,,,,,,,,,,,,,,,,,,,,,,,,,,,,,,conditions/schedules/train_y_first/red_square_00/top_right/instructions/Slide4.png,conditions/schedules/train_y_first/red_square_00/top_right/instructions/Audio4.wav,96.71384199999738,96.70140804996481,4,"[6.461416799924336, 17.610957799945027, 16.587715599918738, 19.0509942000499]","[6.461429000017233, 0.014284099917858839, 0.00020790006965398788, 19.051000900100917]",0,,,,,,,,,,,,,,,,,,,,,,,,,,,,,,,,,,,,,,,,,,,,,,,,,,,,,,,,,,,,,,,,,,,,,,,,,,,,,,,,,,,,,,,,,,,,,,,,,,,,,,,,,,,,,,,,,,,,,,,,,,,,LT28PH,train_y,red_square,top_right,2025-09-09_17h46.11.811,HideSeek_v1,2022.2.5,59.95326040334746,
,,,,,,,,,,,,,,,0,0,0,0,4,0,4,0,,,,,,,,,,,,,,,,,,,,,,,,,,,,,,,conditions/schedules/train_y_first/red_square_00/top_right/instructions/Slide5.png,conditions/schedules/train_y_first/red_square_00/top_right/instructions/Audio5.wav,115.83030340005644,115.8172179400688,5,"[6.461416799924336, 17.610957799945027, 16.587715599918738, 19.0509942000499, 4.388595300028101]","[6.461429000017233, 0.014284099917858839, 0.00020790006965398788, 0.014521499979309738, 4.388601999962702]",0,,,,,,,,,,,,,,,,,,,,,,,,,,,,,,,,,,,,,,,,,,,,,,,,,,,,,,,,,,,,,,,,,,,,,,,,,,,,,,,,,,,,,,,,,,,,,,,,,,,,,,,,,,,,,,,,,,,,,,,,,,,,LT28PH,train_y,red_square,top_right,2025-09-09_17h46.11.811,HideSeek_v1,2022.2.5,59.95326040334746,
,,,,,,,,,,,,,,,0,0,0,0,5,0,5,0,,,,,,,,,,,,,,,,,,,,,,,,,,,,,,,conditions/schedules/train_y_first/red_square_00/top_right/instructions/Slide6.png,conditions/schedules/train_y_first/red_square_00/top_right/instructions/Audio6.wav,120.26969860005192,120.2710619400721,6,"[6.461416799924336, 17.610957799945027, 16.587715599918738, 19.0509942000499, 4.388595300028101, 4.452388999983668]","[6.461429000017233, 0.014284099917858839, 0.00020790006965398788, 0.014521499979309738, 0.013909399975091219, 4.452396199922077]",0,,,,,,,,,,,,,,,,,,,,,,,,,,,,,,,,,,,,,,,,,,,,,,,,,,,,,,,,,,,,,,,,,,,,,,,,,,,,,,,,,,,,,,,,,,,,,,,,,,,,,,,,,,,,,,,,,,,,,,,,,,,,LT28PH,train_y,red_square,top_right,2025-09-09_17h46.11.811,HideSeek_v1,2022.2.5,59.95326040334746,
,,,,,,,,,,,,,,,0,0,0,0,6,0,6,0,,,,,,,,,,,,,,,,,,,,,,,,,,,,,,,conditions/schedules/train_y_first/red_square_00/top_right/instructions/Slide7.png,conditions/schedules/train_y_first/red_square_00/top_right/instructions/Audio7.wav,124.77312450006139,124.77463664005045,7,"[6.461416799924336, 17.610957799945027, 16.587715599918738, 19.0509942000499, 4.388595300028101, 4.452388999983668, 5.453390300041065]","[6.461429000017233, 0.014284099917858839, 0.00020790006965398788, 0.014521499979309738, 0.013909399975091219, 0.04892099997960031, 5.453397399978712]",0,,,,,,,,,,,,,,,,,,,,,,,,,,,,,,,,,,,,,,,,,,,,,,,,,,,,,,,,,,,,,,,,,,,,,,,,,,,,,,,,,,,,,,,,,,,,,,,,,,,,,,,,,,,,,,,,,,,,,,,,,,,,LT28PH,train_y,red_square,top_right,2025-09-09_17h46.11.811,HideSeek_v1,2022.2.5,59.95326040334746,
,,,,,,,,,,,,,,,0,0,0,0,7,0,7,0,,,,,,,,,,,,,,,,,,,,,,,,,,,,,,,conditions/schedules/train_y_first/red_square_00/top_right/instructions/Slide8.png,conditions/schedules/train_y_first/red_square_00/top_right/instructions/Audio8.wav,130.29974840010982,130.29591885005357,8,"[6.461416799924336, 17.610957799945027, 16.587715599918738, 19.0509942000499, 4.388595300028101, 4.452388999983668, 5.453390300041065, 11.336678799940273]","[6.461429000017233, 0.014284099917858839, 0.00020790006965398788, 0.014521499979309738, 0.013909399975091219, 0.04892099997960031, 0.030549799907021224, 11.336686499998905]",0,,,,,,,,,,,,,,,,,,,,,,,,,,,,,,,,,,,,,,,,,,,,,,,,,,,,,,,,,,,,,,,,,,,,,,,,,,,,,,,,,,,,,,,,,,,,,,,,,,,,,,,,,,,,,,,,,,,,,,,,,,,,LT28PH,train_y,red_square,top_right,2025-09-09_17h46.11.811,HideSeek_v1,2022.2.5,59.95326040334746,
,,,,,,,,,,,,,,,0,0,0,0,8,0,8,0,,,,,,,,,,,,,,,,,,,,,,,,,,,,,,,conditions/schedules/train_y_first/red_square_00/top_right/instructions/Slide9.png,conditions/schedules/train_y_first/red_square_00/top_right/instructions/Audio9.wav,141.68879540008493,141.68865694007835,9,"[6.461416799924336, 17.610957799945027, 16.587715599918738, 19.0509942000499, 4.388595300028101, 4.452388999983668, 5.453390300041065, 11.336678799940273, 5.535991000011563]","[6.461429000017233, 0.014284099917858839, 0.00020790006965398788, 0.014521499979309738, 0.013909399975091219, 0.04892099997960031, 0.030549799907021224, 0.06463709997478873, 5.535998199949972]",0,,,,,,,,,,,,,,,,,,,,,,,,,,,,,,,,,,,,,,,,,,,,,,,,,,,,,,,,,,,,,,,,,,,,,,,,,,,,,,,,,,,,,,,,,,,,,,,,,,,,,,,,,,,,,,,,,,,,,,,,,,,,LT28PH,train_y,red_square,top_right,2025-09-09_17h46.11.811,HideSeek_v1,2022.2.5,59.95326040334746,
,,,,,,,,,,,,,,,0,0,0,0,9,0,9,0,,,,,,,,,,,,,,,,,,,,,,,,,,,,,,,conditions/schedules/train_y_first/red_square_00/top_right/instructions/Slide10.png,conditions/schedules/train_y_first/red_square_00/top_right/instructions/Audio10.wav,147.26265490008518,147.26022463008994,10,"[6.461416799924336, 17.610957799945027, 16.587715599918738, 19.0509942000499, 4.388595300028101, 4.452388999983668, 5.453390300041065, 11.336678799940273, 5.535991000011563, 6.583211799967103]","[6.461429000017233, 0.014284099917858839, 0.00020790006965398788, 0.014521499979309738, 0.013909399975091219, 0.04892099997960031, 0.030549799907021224, 0.06463709997478873, 0.07827609998639673, 6.583218600018881]",0,,,,,,,,,,,,,,,,,,,,,,,,,,,,,,,,,,,,,,,,,,,,,,,,,,,,,,,,,,,,,,,,,,,,,,,,,,,,,,,,,,,,,,,,,,,,,,,,,,,,,,,,,,,,,,,,,,,,,,,,,,,,LT28PH,train_y,red_square,top_right,2025-09-09_17h46.11.811,HideSeek_v1,2022.2.5,59.95326040334746,
,,,,,,,,,,,,,,,0,0,0,0,10,0,10,0,,,,,,,,,,,,,,,,,,,,,,,,,,,,,,,conditions/schedules/train_y_first/red_square_00/top_right/instructions/Slide11.png,conditions/schedules/train_y_first/red_square_00/top_right/instructions/Audio11.wav,153.90442010003608,153.89872894000726,11,"[6.461416799924336, 17.610957799945027, 16.587715599918738, 19.0509942000499, 4.388595300028101, 4.452388999983668, 5.453390300041065, 11.336678799940273, 5.535991000011563, 6.583211799967103, 9.833423499949276]","[6.461429000017233, 0.014284099917858839, 0.00020790006965398788, 0.014521499979309738, 0.013909399975091219, 0.04892099997960031, 0.030549799907021224, 0.06463709997478873, 0.07827609998639673, 0.06394949997775257, 9.833430300001055]",0,,,,,,,,,,,,,,,,,,,,,,,,,,,,,,,,,,,,,,,,,,,,,,,,,,,,,,,,,,,,,,,,,,,,,,,,,,,,,,,,,,,,,,,,,,,,,,,,,,,,,,,,,,,,,,,,,,,,,,,,,,,,LT28PH,train_y,red_square,top_right,2025-09-09_17h46.11.811,HideSeek_v1,2022.2.5,59.95326040334746,
,,,,,,,,,,,,,,,0,0,0,0,11,0,11,0,,,,,,,,,,,,,,,,,,,,,,,,,,,,,,,conditions/schedules/train_y_first/red_square_00/top_right/instructions/Slide12.png,conditions/schedules/train_y_first/red_square_00/top_right/instructions/Audio12.wav,163.7934363000095,163.7903602399863,12,"[6.461416799924336, 17.610957799945027, 16.587715599918738, 19.0509942000499, 4.388595300028101, 4.452388999983668, 5.453390300041065, 11.336678799940273, 5.535991000011563, 6.583211799967103, 9.833423499949276, 13.705573900020681]","[6.461429000017233, 0.014284099917858839, 0.00020790006965398788, 0.014521499979309738, 0.013909399975091219, 0.04892099997960031, 0.030549799907021224, 0.06463709997478873, 0.07827609998639673, 0.06394949997775257, 0.09474969992879778, 13.705580799956806]",0,,,,,,,,,,,,,,,,,,,,,,,,,,,,,,,,,,,,,,,,,,,,,,,,,,,,,,,,,,,,,,,,,,,,,,,,,,,,,,,,,,,,,,,,,,,,,,,,,,,,,,,,,,,,,,,,,,,,,,,,,,,,LT28PH,train_y,red_square,top_right,2025-09-09_17h46.11.811,HideSeek_v1,2022.2.5,59.95326040334746,
1,7,8,7,3,0,-5,11,2,instr_dim1_1,,,,,,0,0,0,0,,,,,0,0,0,0,,,,,,,,,,,,,,,,,,,,,,,,,,,,,,,,,,,,,stimuli/alien_stimuli/11.png,conditions/schedules/train_y_first/red_square_00/top_right/inputInstr_1.xlsx,stimuli/alien_stimuli/11.png,177.60971800005063,177.60971800005063,177.60971800005063,177.60971800005063,177.6017708699568,return,14.125235699932091,"[-0.16, -0.08, 0, 0.08, 0.16, 0.24, 0.32, 0.4, 0.48, 0.56]","[-0.4, -0.32, -0.24, -0.16, -0.08, 0, 0.08, 0.16, 0.24, 0.32]",3,8,7,7,0.4,0.0,191.91009360004682,191.91009360004682,191.91009360004682,191.91009360004682,191.91009360004682,191.91009360004682,191.91009360004682,191.89719578997463,9.341661999933422,return,9.166928299935535,stimuli/alien_stimuli/11.png,11,7,1,,,,,,,,,,,,,,,,,,,,,,,,,,,,,,,,,,,,,,,,,,,,,,,,,,,,,,,,,,,,,,,,,,,,,,,,,,,,,,,,,,,,,,,,,LT28PH,train_y,red_square,top_right,2025-09-09_17h46.11.811,HideSeek_v1,2022.2.5,59.95326040334746,
,,,,,,,,,,,30,,,,0,0,0,0,,,,,,,,,,,,,,,,,,,,,,,,,,,,,,,,,,,,,,,,,,,,,,,,,,,,,,,,,,,,,,,,,,,,,,,,,,,,,,21,0.7,0,0,99,1,30,0,conditions/schedules/train_y_first/red_square_00/top_right/inputTrain_1.1.xlsx,99,1,1,1,0,,,,,,,,,,,,,,,,,,,,,,,,,,,,,,,,,,,,,,,,,,,,,,,,,,,,,,,,,,,,,,,,,,,,,,,,,,,LT28PH,train_y,red_square,top_right,2025-09-09_17h46.11.811,HideSeek_v1,2022.2.5,59.95326040334746,
,,,,,,,,,,,,,,,1,0,1,0,0,0,0,0,,,,,,,,,,,,,,,,,,,,,,,,,,,,,,,conditions/schedules/train_y_first/red_square_00/top_right/instructions/Slide13.png,conditions/schedules/train_y_first/red_square_00/top_right/instructions/Audio13.wav,201.26496680011041,201.25467819999903,13,"[6.461416799924336, 17.610957799945027, 16.587715599918738, 19.0509942000499, 4.388595300028101, 4.452388999983668, 5.453390300041065, 11.336678799940273, 5.535991000011563, 6.583211799967103, 9.833423499949276, 13.705573900020681, 17.736058000009507]","[6.461429000017233, 0.014284099917858839, 0.00020790006965398788, 0.014521499979309738, 0.013909399975091219, 0.04892099997960031, 0.030549799907021224, 0.06463709997478873, 0.07827609998639673, 0.06394949997775257, 0.09474969992879778, 13.705580799956806, 17.73606520006433]",0,,,,,,,,,,,,,,,,,,,,,,,,,,,,,,,,,,,,,,,,,,,,,,,,,,,,,,,,,,,,,,,,,,,,,,,,,,,,,,,,,,,,,,,,,,,,,,,,,,,,,,,,,,,,,,,,,,,,,,,,,,,,LT28PH,train_y,red_square,top_right,2025-09-09_17h46.11.811,HideSeek_v1,2022.2.5,59.95326040334746,
,,,,,,,,,,,,,,,1,0,1,0,1,0,1,0,,,,,,,,,,,,,,,,,,,,,,,,,,,,,,,conditions/schedules/train_y_first/red_square_00/top_right/instructions/Slide14.png,conditions/schedules/train_y_first/red_square_00/top_right/instructions/Audio14.wav,219.06867240008432,219.06950885005062,14,"[6.461416799924336, 17.610957799945027, 16.587715599918738, 19.0509942000499, 4.388595300028101, 4.452388999983668, 5.453390300041065, 11.336678799940273, 5.535991000011563, 6.583211799967103, 9.833423499949276, 13.705573900020681, 17.736058000009507, 17.21227350004483]","[6.461429000017233, 0.014284099917858839, 0.00020790006965398788, 0.014521499979309738, 0.013909399975091219, 0.04892099997960031, 0.030549799907021224, 0.06463709997478873, 0.07827609998639673, 0.06394949997775257, 0.09474969992879778, 13.705580799956806, 0.03123520000372082, 17.21228069998324]",0,,,,,,,,,,,,,,,,,,,,,,,,,,,,,,,,,,,,,,,,,,,,,,,,,,,,,,,,,,,,,,,,,,,,,,,,,,,,,,,,,,,,,,,,,,,,,,,,,,,,,,,,,,,,,,,,,,,,,,,,,,,,LT28PH,train_y,red_square,top_right,2025-09-09_17h46.11.811,HideSeek_v1,2022.2.5,59.95326040334746,
2,5,8,5,8,0,0,16,2,instr_dim1_1,,,,,,1,0,1,0,,,,,0,0,0,0,,,,,,,,,,,,,,,,,,,,,,,,,,,,,,,,,,,,,stimuli/alien_stimuli/16.png,conditions/schedules/train_y_first/red_square_00/top_right/inputInstr_1.xlsx,stimuli/alien_stimuli/16.png,236.38532170001417,236.38532170001417,236.38532170001417,236.38532170001417,236.3838521700003,return,8.451896200072952,"[-0.16, -0.08, 0, 0.08, 0.16, 0.24, 0.32, 0.4, 0.48, 0.56]","[-0.4, -0.32, -0.24, -0.16, -0.08, 0, 0.08, 0.16, 0.24, 0.32]",8,8,5,5,0.0,0.0,244.99960270000156,244.99960270000156,244.99960270000156,244.99960270000156,244.99960270000156,244.99960270000156,244.99960270000156,244.9911970900255,8.040718099917285,return,7.871799900080077,stimuli/alien_stimuli/16.png,16,5,2,,,,,,,,,,,,,,,,,,,,,,,,,,,,,,,,,,,,,,,,,,,,,,,,,,,,,,,,,,,,,,,,,,,,,,,,,,,,,,,,,,,,,,,,,LT28PH,train_y,red_square,top_right,2025-09-09_17h46.11.811,HideSeek_v1,2022.2.5,59.95326040334746,
,,,,,,,,,,,30,,,,1,0,1,0,,,,,,,,,,,,,,,,,,,,,,,,,,,,,,,,,,,,,,,,,,,,,,,,,,,,,,,,,,,,,,,,,,,,,,,,,,,,,,21,0.7,0,0,99,1,30,0,conditions/schedules/train_y_first/red_square_00/top_right/inputTrain_1.1.xlsx,99,1,1,1,0,,,,,,,,,,,,,,,,,,,,,,,,,,,,,,,,,,,,,,,,,,,,,,,,,,,,,,,,,,,,,,,,,,,,,,,,,,,LT28PH,train_y,red_square,top_right,2025-09-09_17h46.11.811,HideSeek_v1,2022.2.5,59.95326040334746,
,,,,,,,,,,,,,,,2,0,2,0,0,0,0,0,,,,,,,,,,,,,,,,,,,,,,,,,,,,,,,conditions/schedules/train_y_first/red_square_00/top_right/instructions/Slide15.png,conditions/schedules/train_y_first/red_square_00/top_right/instructions/Audio15.wav,253.06061380007304,253.04739229998086,15,"[6.461416799924336, 17.610957799945027, 16.587715599918738, 19.0509942000499, 4.388595300028101, 4.452388999983668, 5.453390300041065, 11.336678799940273, 5.535991000011563, 6.583211799967103, 9.833423499949276, 13.705573900020681, 17.736058000009507, 17.21227350004483, 43.654391999938525]","[6.461429000017233, 0.014284099917858839, 0.00020790006965398788, 0.014521499979309738, 0.013909399975091219, 0.04892099997960031, 0.030549799907021224, 0.06463709997478873, 0.07827609998639673, 0.06394949997775257, 0.09474969992879778, 13.705580799956806, 0.03123520000372082, 17.21228069998324, 43.65439909999259]",0,,,,,,,,,,,,,,,,,,,,,,,,,,,,,,,,,,,,,,,,,,,,,,,,,,,,,,,,,,,,,,,,,,,,,,,,,,,,,,,,,,,,,,,,,,,,,,,,,,,,,,,,,,,,,,,,,,,,,,,,,,,,LT28PH,train_y,red_square,top_right,2025-09-09_17h46.11.811,HideSeek_v1,2022.2.5,59.95326040334746,
,,,,,,,,,,,,,,,2,0,2,0,1,0,1,0,,,,,,,,,,,,,,,,,,,,,,,,,,,,,,,conditions/schedules/train_y_first/red_square_00/top_right/instructions/Slide16.png,conditions/schedules/train_y_first/red_square_00/top_right/instructions/Audio16.wav,296.79086160007864,296.7841070499853,16,"[6.461416799924336, 17.610957799945027, 16.587715599918738, 19.0509942000499, 4.388595300028101, 4.452388999983668, 5.453390300041065, 11.336678799940273, 5.535991000011563, 6.583211799967103, 9.833423499949276, 13.705573900020681, 17.736058000009507, 17.21227350004483, 43.654391999938525, 21.758331799996085]","[6.461429000017233, 0.014284099917858839, 0.00020790006965398788, 0.014521499979309738, 0.013909399975091219, 0.04892099997960031, 0.030549799907021224, 0.06463709997478873, 0.07827609998639673, 0.06394949997775257, 0.09474969992879778, 13.705580799956806, 0.03123520000372082, 17.21228069998324, 0.013548900024034083, 21.758338899933733]",0,,,,,,,,,,,,,,,,,,,,,,,,,,,,,,,,,,,,,,,,,,,,,,,,,,,,,,,,,,,,,,,,,,,,,,,,,,,,,,,,,,,,,,,,,,,,,,,,,,,,,,,,,,,,,,,,,,,,,,,,,,,,LT28PH,train_y,red_square,top_right,2025-09-09_17h46.11.811,HideSeek_v1,2022.2.5,59.95326040334746,
,5,5,5,4,0,-1,15,,train_dim1_1,1,30,,,,2,0,2,0,,,,,,,,,0,0,0,0,0,0,0,0,0,0,0,0,,,,,,,,,,,,,,,,,,,,,,,,,stimuli/alien_stimuli/15.png,,,,,,,,,,,,,,,,,,,,,,,,,,,,,,,,,,,,,,,30,,,,,,,,318.6545103000244,318.6545103000244,318.6545103000244,318.6545103000244,318.6545103000244,down,12.170765799935907,0,0,0,99,0.24,-0.08,down,12.064241499989294,,,,,,,,,,,,,,,,,,,,,,,,,,,,,,,,,,,,,,,,,,,,,,,,,,,,,,,,,,,,LT28PH,train_y,red_square,top_right,2025-09-09_17h46.11.811,HideSeek_v1,2022.2.5,59.95326040334746,
,5,5,5,4,0,-1,15,,train_dim1_1,1,30,,,,2,0,2,0,,,,,,,,,0,0,0,0,0,0,0,0,1,0,1,0,,,,,,,,,,,,,,,,,,,,,,,,,,,,,,,,,,,,,,,,,,,,,,,,,,,,,,,,,,,,,,,,30,,,,,,,,330.8325542000821,330.8325542000821,330.8325542000821,330.8325542000821,330.8325542000821,down,0.740437800064683,0,0,0,99,0.24,-0.16,down,0.6358007000526413,,,,,,,,,,,,,,,,,,,,,,,,,,,,,,,,,,,,,,,,,,,,,,,,,,,,,,,,,,,,LT28PH,train_y,red_square,top_right,2025-09-09_17h46.11.811,HideSeek_v1,2022.2.5,59.95326040334746,
,5,5,5,4,0,-1,15,,train_dim1_1,1,30,,,,2,0,2,0,,,,,,,,,0,0,0,0,0,0,0,0,2,0,2,0,,,,,,,,,,,,,,,,,,,,,,,,,,,,,,,,,,,,,,,,,,,,,,,,,,,,,,,,,,,,,,,,30,,,,,,,,331.56449910008814,331.56449910008814,331.56449910008814,331.56449910008814,331.56449910008814,down,0.84375,0,0,0,99,0.24,-0.24,down,0.758453999995254,,,,,,,,,,,,,,,,,,,,,,,,,,,,,,,,,,,,,,,,,,,,,,,,,,,,,,,,,,,,LT28PH,train_y,red_square,top_right,2025-09-09_17h46.11.811,HideSeek_v1,2022.2.5,59.95326040334746,
,5,5,5,4,0,-1,15,,train_dim1_1,1,30,,,,2,0,2,0,,,,,,,,,0,0,0,0,0,0,0,0,3,0,3,0,,,,,,,,,,,,,,,,,,,,,,,,,,,,,,,,,,,,,,,,,,,,,,,,,,,,,,,,,,,,,,,,30,,,,,,,,332.4148306000279,332.4148306000279,332.4148306000279,332.4148306000279,332.4148306000279,left,0.8267640999983996,0,0,0,99,0.15999999999999998,-0.24,left,0.737929799943231,,,,,,,,,,,,,,,,,,,,,,,,,,,,,,,,,,,,,,,,,,,,,,,,,,,,,,,,,,,,LT28PH,train_y,red_square,top_right,2025-09-09_17h46.11.811,HideSeek_v1,2022.2.5,59.95326040334746,
,5,5,5,4,0,-1,15,,train_dim1_1,1,30,,,,2,0,2,0,,,,,,,,,0,0,0,0,0,0,0,0,4,0,4,0,,,,,,,,,,,,,,,,,,,,,,,,,,,,,,,,,,,,,,,,,,,,,,,,,,,,,,,,,,,,,,,,30,,,,,,,,333.2529092000332,333.2529092000332,333.2529092000332,333.2529092000332,333.2529092000332,left,0.92308109998703,0,0,0,99,0.07999999999999997,-0.24,left,0.8306123000802472,,,,,,,,,,,,,,,,,,,,,,,,,,,,,,,,,,,,,,,,,,,,,,,,,,,,,,,,,,,,LT28PH,train_y,red_square,top_right,2025-09-09_17h46.11.811,HideSeek_v1,2022.2.5,59.95326040334746,
,5,5,5,4,0,-1,15,,train_dim1_1,1,30,,,,2,0,2,0,,,,,,,,,0,0,0,0,0,0,0,0,5,0,5,0,,,,,,,,,,,,,,,,,,,,,,,,,,,,,,,,,,,,,,,,,,,,,,,,,,,,,,,,,,,,,,,,30,,,,,,,,334.1845242000418,334.1845242000418,334.1845242000418,334.1845242000418,334.1845242000418,left,0.5420870000962168,0,0,0,99,-2.7755575615628914e-17,-0.24,left,0.4557618999388069,,,,,,,,,,,,,,,,,,,,,,,,,,,,,,,,,,,,,,,,,,,,,,,,,,,,,,,,,,,,LT28PH,train_y,red_square,top_right,2025-09-09_17h46.11.811,HideSeek_v1,2022.2.5,59.95326040334746,
,5,5,5,4,0,-1,15,,train_dim1_1,1,30,,,,2,0,2,0,,,,,,,,,0,0,0,0,0,0,0,0,6,0,6,0,,,,,,,,,,,,,,,,,,,,,,,,,,,,,,,,,,,,,,,,,,,,,,,,,,,,,,,,,,,,,,,,30,,,,,,,,334.73323340003844,334.73323340003844,334.73323340003844,334.73323340003844,334.73323340003844,left,1.461157700046897,0,0,0,99,-0.08000000000000003,-0.24,left,1.3832973999669775,,,,,,,,,,,,,,,,,,,,,,,,,,,,,,,,,,,,,,,,,,,,,,,,,,,,,,,,,,,,LT28PH,train_y,red_square,top_right,2025-09-09_17h46.11.811,HideSeek_v1,2022.2.5,59.95326040334746,
,5,5,5,4,0,-1,15,,train_dim1_1,1,30,,,,2,0,2,0,,,,,,,,,0,0,0,0,0,0,0,0,7,0,7,0,,,,,,,,,,,,,,,,,,,,,,,,,,,,,,,,,,,,,,,,,,,,,,,,,,,,,,,,,,,,,,,,30,,,,,,,,336.20126200001687,336.20126200001687,336.20126200001687,336.20126200001687,336.20126200001687,return,0.8598735000705346,0,0,0,0,-0.08000000000000003,-0.24,return,0.7790349000133574,-3,-4,-0.08000000000000003,-0.24,,,,,,,,,,,,,,,,,,,,,,,,,,,,,,,,,,,,,,,,,,,,,,,,,,,,,,,,LT28PH,train_y,red_square,top_right,2025-09-09_17h46.11.811,HideSeek_v1,2022.2.5,59.95326040334746,
,8,7,8,7,0,0,16,,train_dim1_1,2,30,,,,2,0,2,0,,,,,,,,,0,0,0,0,0,1,1,1,0,0,0,0,,,,,,,,,,,,,,,,,,,,,,,,,stimuli/alien_stimuli/16.png,,,,,,,,,,,,,,,,,,,,,,,,,,,,,stimuli/alien_stimuli/15.png,15,5,3,,,,,,,30,,,,,,,,353.437489700038,353.437489700038,353.437489700038,353.437489700038,353.437489700038,left,3.4053433999652043,0,0,0,99,0.39999999999999997,0.16,left,3.312822600011714,,,,,351.86336240009405,353.437489700038,0.24,-0.08,0.08,0.0,-0.04,0.24,0.24,0.24,-0.08,338.64830990007613,338.64830990007613,338.64830990007613,338.64830990007613,338.64830990007613,338.64830990007613,338.64830990007613,338.64830990007613,338.63531497996297,13.346818499965593,return,13.190508299972862,,,,,,,,,,,,,,,,,,,,,,,,,,,,,,,,,LT28PH,train_y,red_square,top_right,2025-09-09_17h46.11.811,HideSeek_v1,2022.2.5,59.95326040334746,
,8,7,8,7,0,0,16,,train_dim1_1,2,30,,,,2,0,2,0,,,,,,,,,0,0,0,0,0,1,1,1,1,0,1,0,,,,,,,,,,,,,,,,,,,,,,,,,,,,,,,,,,,,,,,,,,,,,,,,,,,,,,,,,,,,,,,,30,,,,,,,,356.83619760000147,356.83619760000147,356.83619760000147,356.83619760000147,356.83619760000147,left,1.108917300007306,0,0,0,99,0.31999999999999995,0.16,left,1.0326219000853598,,,,,,,,,,,,,,,,,,,,,,,,,,,,,,,,,,,,,,,,,,,,,,,,,,,,,,,,,,,,LT28PH,train_y,red_square,top_right,2025-09-09_17h46.11.811,HideSeek_v1,2022.2.5,59.95326040334746,
,8,7,8,7,0,0,16,,train_dim1_1,2,30,,,,2,0,2,0,,,,,,,,,0,0,0,0,0,1,1,1,2,0,2,0,,,,,,,,,,,,,,,,,,,,,,,,,,,,,,,,,,,,,,,,,,,,,,,,,,,,,,,,,,,,,,,,30,,,,,,,,357.9521486000158,357.9521486000158,357.9521486000158,357.9521486000158,357.9521486000158,left,0.4095548000186682,0,0,0,99,0.23999999999999994,0.16,left,0.3282406000653282,,,,,,,,,,,,,,,,,,,,,,,,,,,,,,,,,,,,,,,,,,,,,,,,,,,,,,,,,,,,LT28PH,train_y,red_square,top_right,2025-09-09_17h46.11.811,HideSeek_v1,2022.2.5,59.95326040334746,
,8,7,8,7,0,0,16,,train_dim1_1,2,30,,,,2,0,2,0,,,,,,,,,0,0,0,0,0,1,1,1,3,0,3,0,,,,,,,,,,,,,,,,,,,,,,,,,,,,,,,,,,,,,,,,,,,,,,,,,,,,,,,,,,,,,,,,30,,,,,,,,358.36910510004964,358.36910510004964,358.36910510004964,358.36910510004964,358.36910510004964,left,0.9436308000003919,0,0,0,99,0.15999999999999992,0.16,left,0.8596822000108659,,,,,,,,,,,,,,,,,,,,,,,,,,,,,,,,,,,,,,,,,,,,,,,,,,,,,,,,,,,,LT28PH,train_y,red_square,top_right,2025-09-09_17h46.11.811,HideSeek_v1,2022.2.5,59.95326040334746,
,8,7,8,7,0,0,16,,train_dim1_1,2,30,,,,2,0,2,0,,,,,,,,,0,0,0,0,0,1,1,1,4,0,4,0,,,,,,,,,,,,,,,,,,,,,,,,,,,,,,,,,,,,,,,,,,,,,,,,,,,,,,,,,,,,,,,,30,,,,,,,,359.3207193000708,359.3207193000708,359.3207193000708,359.3207193000708,359.3207193000708,return,0.5925512000685558,0,0,0,0,0.15999999999999992,0.16,return,0.5037169000133872,-3,-8,0.15999999999999992,0.16,,,,,,,,,,,,,,,,,,,,,,,,,,,,,,,,,,,,,,,,,,,,,,,,,,,,,,,,LT28PH,train_y,red_square,top_right,2025-09-09_17h46.11.811,HideSeek_v1,2022.2.5,59.95326040334746,
,7,8,7,5,0,-3,13,,train_dim1_1,3,30,,,,2,0,2,0,,,,,,,,,0,0,0,0,0,2,2,2,0,0,0,0,,,,,,,,,,,,,,,,,,,,,,,,,stimuli/alien_stimuli/13.png,,,,,,,,,,,,,,,,,,,,,,,,,,,,,stimuli/alien_stimuli/16.png,16,8,4,,,,,,,30,,,,,,,,366.1998653000919,366.1998653000919,366.1998653000919,366.1998653000919,366.1998653000919,down,1.8549943000543863,0,0,0,99,0.4,0.15999999999999998,down,1.7624967999290675,,,,,364.64018350001425,366.1998653000919,0.48,0.16,0.0,0.0,0.16,0.48,0.48,0.48,0.16,361.4914923000615,361.4914923000615,361.4914923000615,361.4914923000615,361.4914923000615,361.4914923000615,361.4914923000615,361.4914923000615,361.48746408000585,3.2718247999437153,return,3.1299119000323117,,,,,,,,,,,,,,,,,,,,,,,,,,,,,,,,,LT28PH,train_y,red_square,top_right,2025-09-09_17h46.11.811,HideSeek_v1,2022.2.5,59.95326040334746,
,7,8,7,5,0,-3,13,,train_dim1_1,3,30,,,,2,0,2,0,,,,,,,,,0,0,0,0,0,2,2,2,1,0,1,0,,,,,,,,,,,,,,,,,,,,,,,,,,,,,,,,,,,,,,,,,,,,,,,,,,,,,,,,,,,,,,,,30,,,,,,,,368.0605306000216,368.0605306000216,368.0605306000216,368.0605306000216,368.0605306000216,down,0.6097595000173897,0,0,0,99,0.4,0.07999999999999997,down,0.5207307999953628,,,,,,,,,,,,,,,,,,,,,,,,,,,,,,,,,,,,,,,,,,,,,,,,,,,,,,,,,,,,LT28PH,train_y,red_square,top_right,2025-09-09_17h46.11.811,HideSeek_v1,2022.2.5,59.95326040334746,
,7,8,7,5,0,-3,13,,train_dim1_1,3,30,,,,2,0,2,0,,,,,,,,,0,0,0,0,0,2,2,2,2,0,2,0,,,,,,,,,,,,,,,,,,,,,,,,,,,,,,,,,,,,,,,,,,,,,,,,,,,,,,,,,,,,,,,,30,,,,,,,,368.67693529999815,368.67693529999815,368.67693529999815,368.67693529999815,368.67693529999815,right,1.1101335000712425,0,0,0,99,0.48000000000000004,0.07999999999999997,right,1.0326788000529632,,,,,,,,,,,,,,,,,,,,,,,,,,,,,,,,,,,,,,,,,,,,,,,,,,,,,,,,,,,,LT28PH,train_y,red_square,top_right,2025-09-09_17h46.11.811,HideSeek_v1,2022.2.5,59.95326040334746,
,7,8,7,5,0,-3,13,,train_dim1_1,3,30,,,,2,0,2,0,,,,,,,,,0,0,0,0,0,2,2,2,3,0,3,0,,,,,,,,,,,,,,,,,,,,,,,,,,,,,,,,,,,,,,,,,,,,,,,,,,,,,,,,,,,,,,,,30,,,,,,,,369.7969328000909,369.7969328000909,369.7969328000909,369.7969328000909,369.7969328000909,return,0.6587850999785587,0,0,0,0,0.48000000000000004,0.07999999999999997,return,0.5811253999127075,-5,-7,0.48000000000000004,0.07999999999999997,,,,,,,,,,,,,,,,,,,,,,,,,,,,,,,,,,,,,,,,,,,,,,,,,,,,,,,,LT28PH,train_y,red_square,top_right,2025-09-09_17h46.11.811,HideSeek_v1,2022.2.5,59.95326040334746,
,5,6,5,2,0,-4,12,,train_dim1_1,4,30,,,,2,0,2,0,,,,,,,,,0,0,0,0,0,3,3,3,0,0,0,0,,,,,,,,,,,,,,,,,,,,,,,,,stimuli/alien_stimuli/12.png,,,,,,,,,,,,,,,,,,,,,,,,,,,,,stimuli/alien_stimuli/13.png,13,7,5,,,,,,,30,,,,,,,,376.42425410007127,376.42425410007127,376.42425410007127,376.42425410007127,376.42425410007127,up,2.6392187000019476,0,0,0,99,0.24,0.16,up,2.557139900047332,,,,,374.8653661001008,376.42425410007127,0.4,0,0.24,0.0,0.12,0.4,0.4,0.4,0,372.028020100086,372.028020100086,372.028020100086,372.028020100086,372.028020100086,372.028020100086,372.028020100086,372.028020100086,372.0294037800282,2.9548236000118777,return,2.807494100066833,,,,,,,,,,,,,,,,,,,,,,,,,,,,,,,,,LT28PH,train_y,red_square,top_right,2025-09-09_17h46.11.811,HideSeek_v1,2022.2.5,59.95326040334746,
,5,6,5,2,0,-4,12,,train_dim1_1,4,30,,,,2,0,2,0,,,,,,,,,0,0,0,0,0,3,3,3,1,0,1,0,,,,,,,,,,,,,,,,,,,,,,,,,,,,,,,,,,,,,,,,,,,,,,,,,,,,,,,,,,,,,,,,30,,,,,,,,379.0704662000062,379.0704662000062,379.0704662000062,379.0704662000062,379.0704662000062,up,1.5605158999096602,0,0,0,99,0.24,0.24,up,1.471082100062631,,,,,,,,,,,,,,,,,,,,,,,,,,,,,,,,,,,,,,,,,,,,,,,,,,,,,,,,,,,,LT28PH,train_y,red_square,top_right,2025-09-09_17h46.11.811,HideSeek_v1,2022.2.5,59.95326040334746,
,5,6,5,2,0,-4,12,,train_dim1_1,4,30,,,,2,0,2,0,,,,,,,,,0,0,0,0,0,3,3,3,2,0,2,0,,,,,,,,,,,,,,,,,,,,,,,,,,,,,,,,,,,,,,,,,,,,,,,,,,,,,,,,,,,,,,,,30,,,,,,,,380.6379614000907,380.6379614000907,380.6379614000907,380.6379614000907,380.6379614000907,down,1.9111457000253722,0,0,0,99,0.24,0.15999999999999998,down,1.8318713000044227,,,,,,,,,,,,,,,,,,,,,,,,,,,,,,,,,,,,,,,,,,,,,,,,,,,,,,,,,,,,LT28PH,train_y,red_square,top_right,2025-09-09_17h46.11.811,HideSeek_v1,2022.2.5,59.95326040334746,
,5,6,5,2,0,-4,12,,train_dim1_1,4,30,,,,2,0,2,0,,,,,,,,,0,0,0,0,0,3,3,3,3,0,3,0,,,,,,,,,,,,,,,,,,,,,,,,,,,,,,,,,,,,,,,,,,,,,,,,,,,,,,,,,,,,,,,,30,,,,,,,,382.5569410000462,382.5569410000462,382.5569410000462,382.5569410000462,382.5569410000462,left,0.5762013000203297,0,0,0,99,0.15999999999999998,0.15999999999999998,left,0.4835159999784082,,,,,,,,,,,,,,,,,,,,,,,,,,,,,,,,,,,,,,,,,,,,,,,,,,,,,,,,,,,,LT28PH,train_y,red_square,top_right,2025-09-09_17h46.11.811,HideSeek_v1,2022.2.5,59.95326040334746,
,5,6,5,2,0,-4,12,,train_dim1_1,4,30,,,,2,0,2,0,,,,,,,,,0,0,0,0,0,3,3,3,4,0,4,0,,,,,,,,,,,,,,,,,,,,,,,,,,,,,,,,,,,,,,,,,,,,,,,,,,,,,,,,,,,,,,,,30,,,,,,,,383.1408999999985,383.1408999999985,383.1408999999985,383.1408999999985,383.1408999999985,return,0.6766895999899134,0,0,0,0,0.15999999999999998,0.15999999999999998,return,0.5843662000261247,-4,-8,0.15999999999999998,0.15999999999999998,,,,,,,,,,,,,,,,,,,,,,,,,,,,,,,,,,,,,,,,,,,,,,,,,,,,,,,,LT28PH,train_y,red_square,top_right,2025-09-09_17h46.11.811,HideSeek_v1,2022.2.5,59.95326040334746,
,8,8,8,3,0,-5,11,,train_dim1_1,5,30,,,,2,0,2,0,,,,,,,,,0,0,0,0,0,4,4,4,0,0,0,0,,,,,,,,,,,,,,,,,,,,,,,,,stimuli/alien_stimuli/11.png,,,,,,,,,,,,,,,,,,,,,,,,,,,,,stimuli/alien_stimuli/12.png,12,5,6,,,,,,,30,,,,,,,,390.30181370000355,390.30181370000355,390.30181370000355,390.30181370000355,390.30181370000355,left,1.6051006000488997,0,0,0,99,0.39999999999999997,0.24,left,1.5257908999919891,,,,,388.7434385000961,390.30181370000355,0.24,-0.24,0.32,0.0,-0.07999999999999999,0.24,0.24,0.24,-0.24,385.39502120006364,385.39502120006364,385.39502120006364,385.39502120006364,385.39502120006364,385.39502120006364,385.39502120006364,385.39502120006364,385.39060238006056,3.4719637000234798,return,3.317068799980916,,,,,,,,,,,,,,,,,,,,,,,,,,,,,,,,,LT28PH,train_y,red_square,top_right,2025-09-09_17h46.11.811,HideSeek_v1,2022.2.5,59.95326040334746,
,8,8,8,3,0,-5,11,,train_dim1_1,5,30,,,,2,0,2,0,,,,,,,,,0,0,0,0,0,4,4,4,1,0,1,0,,,,,,,,,,,,,,,,,,,,,,,,,,,,,,,,,,,,,,,,,,,,,,,,,,,,,,,,,,,,,,,,30,,,,,,,,391.9160606000805,391.9160606000805,391.9160606000805,391.9160606000805,391.9160606000805,left,0.4582511999178678,0,0,0,99,0.31999999999999995,0.24,left,0.37556009995751083,,,,,,,,,,,,,,,,,,,,,,,,,,,,,,,,,,,,,,,,,,,,,,,,,,,,,,,,,,,,LT28PH,train_y,red_square,top_right,2025-09-09_17h46.11.811,HideSeek_v1,2022.2.5,59.95326040334746,
,8,8,8,3,0,-5,11,,train_dim1_1,5,30,,,,2,0,2,0,,,,,,,,,0,0,0,0,0,4,4,4,2,0,2,0,,,,,,,,,,,,,,,,,,,,,,,,,,,,,,,,,,,,,,,,,,,,,,,,,,,,,,,,,,,,,,,,30,,,,,,,,392.3810664000921,392.3810664000921,392.3810664000921,392.3810664000921,392.3810664000921,left,0.4432912999764085,0,0,0,99,0.23999999999999994,0.24,left,0.3542091000126675,,,,,,,,,,,,,,,,,,,,,,,,,,,,,,,,,,,,,,,,,,,,,,,,,,,,,,,,,,,,LT28PH,train_y,red_square,top_right,2025-09-09_17h46.11.811,HideSeek_v1,2022.2.5,59.95326040334746,
,8,8,8,3,0,-5,11,,train_dim1_1,5,30,,,,2,0,2,0,,,,,,,,,0,0,0,0,0,4,4,4,3,0,3,0,,,,,,,,,,,,,,,,,,,,,,,,,,,,,,,,,,,,,,,,,,,,,,,,,,,,,,,,,,,,,,,,30,,,,,,,,392.8308421000838,392.8308421000838,392.8308421000838,392.8308421000838,392.8308421000838,left,0.45984439994208515,0,0,0,99,0.15999999999999992,0.24,left,0.37914249999448657,,,,,,,,,,,,,,,,,,,,,,,,,,,,,,,,,,,,,,,,,,,,,,,,,,,,,,,,,,,,LT28PH,train_y,red_square,top_right,2025-09-09_17h46.11.811,HideSeek_v1,2022.2.5,59.95326040334746,
,8,8,8,3,0,-5,11,,train_dim1_1,5,30,,,,2,0,2,0,,,,,,,,,0,0,0,0,0,4,4,4,4,0,4,0,,,,,,,,,,,,,,,,,,,,,,,,,,,,,,,,,,,,,,,,,,,,,,,,,,,,,,,,,,,,,,,,30,,,,,,,,393.30168620008044,393.30168620008044,393.30168620008044,393.30168620008044,393.30168620008044,left,0.523870800039731,0,0,0,99,0.07999999999999992,0.24,left,0.43386129999998957,,,,,,,,,,,,,,,,,,,,,,,,,,,,,,,,,,,,,,,,,,,,,,,,,,,,,,,,,,,,LT28PH,train_y,red_square,top_right,2025-09-09_17h46.11.811,HideSeek_v1,2022.2.5,59.95326040334746,
,8,8,8,3,0,-5,11,,train_dim1_1,5,30,,,,2,0,2,0,,,,,,,,,0,0,0,0,0,4,4,4,5,0,5,0,,,,,,,,,,,,,,,,,,,,,,,,,,,,,,,,,,,,,,,,,,,,,,,,,,,,,,,,,,,,,,,,30,,,,,,,,393.83133850002196,393.83133850002196,393.83133850002196,393.83133850002196,393.83133850002196,left,0.3932578000240028,0,0,0,99,-8.326672684688674e-17,0.24,left,0.3023817000212148,,,,,,,,,,,,,,,,,,,,,,,,,,,,,,,,,,,,,,,,,,,,,,,,,,,,,,,,,,,,LT28PH,train_y,red_square,top_right,2025-09-09_17h46.11.811,HideSeek_v1,2022.2.5,59.95326040334746,
,8,8,8,3,0,-5,11,,train_dim1_1,5,30,,,,2,0,2,0,,,,,,,,,0,0,0,0,0,4,4,4,6,0,6,0,,,,,,,,,,,,,,,,,,,,,,,,,,,,,,,,,,,,,,,,,,,,,,,,,,,,,,,,,,,,,,,,30,,,,,,,,394.23256300005596,394.23256300005596,394.23256300005596,394.23256300005596,394.23256300005596,return,0.5261163000250235,0,0,0,0,-8.326672684688674e-17,0.24,return,0.43697239994071424,-4,-14,-8.326672684688674e-17,0.24,,,,,,,,,,,,,,,,,,,,,,,,,,,,,,,,,,,,,,,,,,,,,,,,,,,,,,,,LT28PH,train_y,red_square,top_right,2025-09-09_17h46.11.811,HideSeek_v1,2022.2.5,59.95326040334746,
,6,9,6,5,0,-4,12,,train_dim1_1,6,30,,,,2,0,2,0,,,,,,,,,0,0,0,0,0,5,5,5,0,0,0,0,,,,,,,,,,,,,,,,,,,,,,,,,stimuli/alien_stimuli/12.png,,,,,,,,,,,,,,,,,,,,,,,,,,,,,stimuli/alien_stimuli/11.png,11,8,7,,,,,,,30,,,,,,,,400.5102137000067,400.5102137000067,400.5102137000067,400.5102137000067,400.5102137000067,return,1.5385367000708356,0,0,0,0,0.32,0.32,return,1.4534145999932662,-4,-14,0.32,0.32,398.95209020003676,400.5102137000067,0.48,-0.16,0.4,0.0,0.039999999999999994,0.48,0.48,0.48,-0.16,396.33564790000673,396.33564790000673,396.33564790000673,396.33564790000673,396.33564790000673,396.33564790000673,396.33564790000673,396.33564790000673,396.33301537998483,2.7380857000825927,return,2.5945395999588072,,,,,,,,,,,,,,,,,,,,,,,,,,,,,,,,,LT28PH,train_y,red_square,top_right,2025-09-09_17h46.11.811,HideSeek_v1,2022.2.5,59.95326040334746,
,6,8,6,5,0,-3,13,,train_dim1_1,7,30,,,,2,0,2,0,,,,,,,,,0,0,0,0,0,6,6,6,0,0,0,0,,,,,,,,,,,,,,,,,,,,,,,,,stimuli/alien_stimuli/13.png,,,,,,,,,,,,,,,,,,,,,,,,,,,,,stimuli/alien_stimuli/12.png,12,6,8,,,,,,,30,,,,,,,,407.498883799999,407.498883799999,407.498883799999,407.498883799999,407.498883799999,down,0.7708087000064552,0,0,0,99,0.32,0.15999999999999998,down,0.6858409000560641,,,,,405.9412254000781,407.498883799999,0.32,0,0.32,0.0,0.16,0.32,0.32,0.32,0,403.60690560005605,403.60690560005605,403.60690560005605,403.60690560005605,403.60690560005605,403.60690560005605,403.60690560005605,403.60690560005605,403.6057591700577,2.4376465999521315,return,2.3050209999782965,,,,,,,,,,,,,,,,,,,,,,,,,,,,,,,,,LT28PH,train_y,red_square,top_right,2025-09-09_17h46.11.811,HideSeek_v1,2022.2.5,59.95326040334746,
,6,8,6,5,0,-3,13,,train_dim1_1,7,30,,,,2,0,2,0,,,,,,,,,0,0,0,0,0,6,6,6,1,0,1,0,,,,,,,,,,,,,,,,,,,,,,,,,,,,,,,,,,,,,,,,,,,,,,,,,,,,,,,,,,,,,,,,30,,,,,,,,408.2777486999985,408.2777486999985,408.2777486999985,408.2777486999985,408.2777486999985,down,0.4757172999670729,0,0,0,99,0.32,0.07999999999999997,down,0.393409900018014,,,,,,,,,,,,,,,,,,,,,,,,,,,,,,,,,,,,,,,,,,,,,,,,,,,,,,,,,,,,LT28PH,train_y,red_square,top_right,2025-09-09_17h46.11.811,HideSeek_v1,2022.2.5,59.95326040334746,
,6,8,6,5,0,-3,13,,train_dim1_1,7,30,,,,2,0,2,0,,,,,,,,,0,0,0,0,0,6,6,6,2,0,2,0,,,,,,,,,,,,,,,,,,,,,,,,,,,,,,,,,,,,,,,,,,,,,,,,,,,,,,,,,,,,,,,,30,,,,,,,,408.76085990003776,408.76085990003776,408.76085990003776,408.76085990003776,408.76085990003776,down,0.4935150999808684,0,0,0,99,0.32,-2.7755575615628914e-17,down,0.41580349998548627,,,,,,,,,,,,,,,,,,,,,,,,,,,,,,,,,,,,,,,,,,,,,,,,,,,,,,,,,,,,LT28PH,train_y,red_square,top_right,2025-09-09_17h46.11.811,HideSeek_v1,2022.2.5,59.95326040334746,
,6,8,6,5,0,-3,13,,train_dim1_1,7,30,,,,2,0,2,0,,,,,,,,,0,0,0,0,0,6,6,6,3,0,3,0,,,,,,,,,,,,,,,,,,,,,,,,,,,,,,,,,,,,,,,,,,,,,,,,,,,,,,,,,,,,,,,,30,,,,,,,,409.263969700085,409.263969700085,409.263969700085,409.263969700085,409.263969700085,down,0.5909920999547467,0,0,0,99,0.32,-0.08000000000000003,down,0.5114187999861315,,,,,,,,,,,,,,,,,,,,,,,,,,,,,,,,,,,,,,,,,,,,,,,,,,,,,,,,,,,,LT28PH,train_y,red_square,top_right,2025-09-09_17h46.11.811,HideSeek_v1,2022.2.5,59.95326040334746,
,6,8,6,5,0,-3,13,,train_dim1_1,7,30,,,,2,0,2,0,,,,,,,,,0,0,0,0,0,6,6,6,4,0,4,0,,,,,,,,,,,,,,,,,,,,,,,,,,,,,,,,,,,,,,,,,,,,,,,,,,,,,,,,,,,,,,,,30,,,,,,,,409.86162120010704,409.86162120010704,409.86162120010704,409.86162120010704,409.86162120010704,down,0.4763397000497207,0,0,0,99,0.32,-0.16000000000000003,down,0.3860677999909967,,,,,,,,,,,,,,,,,,,,,,,,,,,,,,,,,,,,,,,,,,,,,,,,,,,,,,,,,,,,LT28PH,train_y,red_square,top_right,2025-09-09_17h46.11.811,HideSeek_v1,2022.2.5,59.95326040334746,
,6,8,6,5,0,-3,13,,train_dim1_1,7,30,,,,2,0,2,0,,,,,,,,,0,0,0,0,0,6,6,6,5,0,5,0,,,,,,,,,,,,,,,,,,,,,,,,,,,,,,,,,,,,,,,,,,,,,,,,,,,,,,,,,,,,,,,,30,,,,,,,,410.3450742000714,410.3450742000714,410.3450742000714,410.3450742000714,410.3450742000714,return,0.8773188999621198,0,0,0,0,0.32,-0.16000000000000003,return,0.7887495999457315,-9,-14,0.32,-0.16000000000000003,,,,,,,,,,,,,,,,,,,,,,,,,,,,,,,,,,,,,,,,,,,,,,,,,,,,,,,,LT28PH,train_y,red_square,top_right,2025-09-09_17h46.11.811,HideSeek_v1,2022.2.5,59.95326040334746,
,9,7,9,2,0,-5,11,,train_dim1_1,8,30,,,,2,0,2,0,,,,,,,,,0,0,0,0,0,7,7,7,0,0,0,0,,,,,,,,,,,,,,,,,,,,,,,,,stimuli/alien_stimuli/11.png,,,,,,,,,,,,,,,,,,,,,,,,,,,,,stimuli/alien_stimuli/13.png,13,6,9,,,,,,,30,,,,,,,,416.3902524000732,416.3902524000732,416.3902524000732,416.3902524000732,416.3902524000732,left,1.2207102000247687,0,0,0,99,0.48000000000000004,0.16,left,1.1402072999626398,,,,,414.83208810002543,416.3902524000732,0.32,0,0.24,0.0,0.12,0.32,0.32,0.32,0,412.78197090001777,412.78197090001777,412.78197090001777,412.78197090001777,412.78197090001777,412.78197090001777,412.78197090001777,412.78197090001777,412.78016326999057,2.154252400039695,return,2.029843099997379,,,,,,,,,,,,,,,,,,,,,,,,,,,,,,,,,LT28PH,train_y,red_square,top_right,2025-09-09_17h46.11.811,HideSeek_v1,2022.2.5,59.95326040334746,
,9,7,9,2,0,-5,11,,train_dim1_1,8,30,,,,2,0,2,0,,,,,,,,,0,0,0,0,0,7,7,7,1,0,1,0,,,,,,,,,,,,,,,,,,,,,,,,,,,,,,,,,,,,,,,,,,,,,,,,,,,,,,,,,,,,,,,,30,,,,,,,,417.6178598999977,417.6178598999977,417.6178598999977,417.6178598999977,417.6178598999977,left,0.32616309996228665,0,0,0,99,0.4,0.16,left,0.24146309995558113,,,,,,,,,,,,,,,,,,,,,,,,,,,,,,,,,,,,,,,,,,,,,,,,,,,,,,,,,,,,LT28PH,train_y,red_square,top_right,2025-09-09_17h46.11.811,HideSeek_v1,2022.2.5,59.95326040334746,
,9,7,9,2,0,-5,11,,train_dim1_1,8,30,,,,2,0,2,0,,,,,,,,,0,0,0,0,0,7,7,7,2,0,2,0,,,,,,,,,,,,,,,,,,,,,,,,,,,,,,,,,,,,,,,,,,,,,,,,,,,,,,,,,,,,,,,,30,,,,,,,,417.9527344000526,417.9527344000526,417.9527344000526,417.9527344000526,417.9527344000526,left,0.3254737000679597,0,0,0,99,0.32,0.16,left,0.24002779996953905,,,,,,,,,,,,,,,,,,,,,,,,,,,,,,,,,,,,,,,,,,,,,,,,,,,,,,,,,,,,LT28PH,train_y,red_square,top_right,2025-09-09_17h46.11.811,HideSeek_v1,2022.2.5,59.95326040334746,
,9,7,9,2,0,-5,11,,train_dim1_1,8,30,,,,2,0,2,0,,,,,,,,,0,0,0,0,0,7,7,7,3,0,3,0,,,,,,,,,,,,,,,,,,,,,,,,,,,,,,,,,,,,,,,,,,,,,,,,,,,,,,,,,,,,,,,,30,,,,,,,,418.28559060010593,418.28559060010593,418.28559060010593,418.28559060010593,418.28559060010593,left,0.3098409998929128,0,0,0,99,0.24,0.16,left,0.22344289999455214,,,,,,,,,,,,,,,,,,,,,,,,,,,,,,,,,,,,,,,,,,,,,,,,,,,,,,,,,,,,LT28PH,train_y,red_square,top_right,2025-09-09_17h46.11.811,HideSeek_v1,2022.2.5,59.95326040334746,
,9,7,9,2,0,-5,11,,train_dim1_1,8,30,,,,2,0,2,0,,,,,,,,,0,0,0,0,0,7,7,7,4,0,4,0,,,,,,,,,,,,,,,,,,,,,,,,,,,,,,,,,,,,,,,,,,,,,,,,,,,,,,,,,,,,,,,,30,,,,,,,,418.6022339001065,418.6022339001065,418.6022339001065,418.6022339001065,418.6022339001065,left,0.3101050000404939,0,0,0,99,0.15999999999999998,0.16,left,0.23279309994541109,,,,,,,,,,,,,,,,,,,,,,,,,,,,,,,,,,,,,,,,,,,,,,,,,,,,,,,,,,,,LT28PH,train_y,red_square,top_right,2025-09-09_17h46.11.811,HideSeek_v1,2022.2.5,59.95326040334746,
,9,7,9,2,0,-5,11,,train_dim1_1,8,30,,,,2,0,2,0,,,,,,,,,0,0,0,0,0,7,7,7,5,0,5,0,,,,,,,,,,,,,,,,,,,,,,,,,,,,,,,,,,,,,,,,,,,,,,,,,,,,,,,,,,,,,,,,30,,,,,,,,418.92180060001556,418.92180060001556,418.92180060001556,418.92180060001556,418.92180060001556,left,0.6406430999049917,0,0,0,99,0.07999999999999997,0.16,left,0.5482885000528768,,,,,,,,,,,,,,,,,,,,,,,,,,,,,,,,,,,,,,,,,,,,,,,,,,,,,,,,,,,,LT28PH,train_y,red_square,top_right,2025-09-09_17h46.11.811,HideSeek_v1,2022.2.5,59.95326040334746,
,9,7,9,2,0,-5,11,,train_dim1_1,8,30,,,,2,0,2,0,,,,,,,,,0,0,0,0,0,7,7,7,6,0,6,0,,,,,,,,,,,,,,,,,,,,,,,,,,,,,,,,,,,,,,,,,,,,,,,,,,,,,,,,,,,,,,,,30,,,,,,,,419.5728817000054,419.5728817000054,419.5728817000054,419.5728817000054,419.5728817000054,return,1.4413186999736354,0,0,0,0,0.07999999999999997,0.16,return,1.3645560999866575,-9,-20,0.07999999999999997,0.16,,,,,,,,,,,,,,,,,,,,,,,,,,,,,,,,,,,,,,,,,,,,,,,,,,,,,,,,LT28PH,train_y,red_square,top_right,2025-09-09_17h46.11.811,HideSeek_v1,2022.2.5,59.95326040334746,
,9,8,9,7,0,-1,15,,train_dim1_1,9,30,,,,2,0,2,0,,,,,,,,,0,0,0,0,0,8,8,8,0,0,0,0,,,,,,,,,,,,,,,,,,,,,,,,,stimuli/alien_stimuli/15.png,,,,,,,,,,,,,,,,,,,,,,,,,,,,,stimuli/alien_stimuli/11.png,11,9,10,,,,,,,30,,,,,,,,426.4323827000335,426.4323827000335,426.4323827000335,426.4323827000335,426.4323827000335,down,1.1869416000554338,0,0,0,99,0.56,0.15999999999999998,down,1.1055608000606298,,,,,424.87371300009545,426.4323827000335,0.56,-0.24,0.4,0.0,-0.039999999999999994,0.56,0.56,0.56,-0.24,422.5748291000491,422.5748291000491,422.5748291000491,422.5748291000491,422.5748291000491,422.5748291000491,422.5748291000491,422.5748291000491,422.57129147000376,2.404675400000997,return,2.27560369996354,,,,,,,,,,,,,,,,,,,,,,,,,,,,,,,,,LT28PH,train_y,red_square,top_right,2025-09-09_17h46.11.811,HideSeek_v1,2022.2.5,59.95326040334746,
,9,8,9,7,0,-1,15,,train_dim1_1,9,30,,,,2,0,2,0,,,,,,,,,0,0,0,0,0,8,8,8,1,0,1,0,,,,,,,,,,,,,,,,,,,,,,,,,,,,,,,,,,,,,,,,,,,,,,,,,,,,,,,,,,,,,,,,30,,,,,,,,427.6273043000838,427.6273043000838,427.6273043000838,427.6273043000838,427.6273043000838,down,0.5932890999829397,0,0,0,99,0.56,0.07999999999999997,down,0.5002197999274358,,,,,,,,,,,,,,,,,,,,,,,,,,,,,,,,,,,,,,,,,,,,,,,,,,,,,,,,,,,,LT28PH,train_y,red_square,top_right,2025-09-09_17h46.11.811,HideSeek_v1,2022.2.5,59.95326040334746,
,9,8,9,7,0,-1,15,,train_dim1_1,9,30,,,,2,0,2,0,,,,,,,,,0,0,0,0,0,8,8,8,2,0,2,0,,,,,,,,,,,,,,,,,,,,,,,,,,,,,,,,,,,,,,,,,,,,,,,,,,,,,,,,,,,,,,,,30,,,,,,,,428.2272103000432,428.2272103000432,428.2272103000432,428.2272103000432,428.2272103000432,left,1.2942585999844596,0,0,0,99,0.48000000000000004,0.07999999999999997,left,1.212018599966541,,,,,,,,,,,,,,,,,,,,,,,,,,,,,,,,,,,,,,,,,,,,,,,,,,,,,,,,,,,,LT28PH,train_y,red_square,top_right,2025-09-09_17h46.11.811,HideSeek_v1,2022.2.5,59.95326040334746,
,9,8,9,7,0,-1,15,,train_dim1_1,9,30,,,,2,0,2,0,,,,,,,,,0,0,0,0,0,8,8,8,3,0,3,0,,,,,,,,,,,,,,,,,,,,,,,,,,,,,,,,,,,,,,,,,,,,,,,,,,,,,,,,,,,,,,,,30,,,,,,,,429.52964170009363,429.52964170009363,429.52964170009363,429.52964170009363,429.52964170009363,left,0.3924388000741601,0,0,0,99,0.4,0.07999999999999997,left,0.3146963999606669,,,,,,,,,,,,,,,,,,,,,,,,,,,,,,,,,,,,,,,,,,,,,,,,,,,,,,,,,,,,LT28PH,train_y,red_square,top_right,2025-09-09_17h46.11.811,HideSeek_v1,2022.2.5,59.95326040334746,
,9,8,9,7,0,-1,15,,train_dim1_1,9,30,,,,2,0,2,0,,,,,,,,,0,0,0,0,0,8,8,8,4,0,4,0,,,,,,,,,,,,,,,,,,,,,,,,,,,,,,,,,,,,,,,,,,,,,,,,,,,,,,,,,,,,,,,,30,,,,,,,,429.9309938000515,429.9309938000515,429.9309938000515,429.9309938000515,429.9309938000515,left,0.30767110001761466,0,0,0,99,0.32,0.07999999999999997,left,0.22107009997125715,,,,,,,,,,,,,,,,,,,,,,,,,,,,,,,,,,,,,,,,,,,,,,,,,,,,,,,,,,,,LT28PH,train_y,red_square,top_right,2025-09-09_17h46.11.811,HideSeek_v1,2022.2.5,59.95326040334746,
,9,8,9,7,0,-1,15,,train_dim1_1,9,30,,,,2,0,2,0,,,,,,,,,0,0,0,0,0,8,8,8,5,0,5,0,,,,,,,,,,,,,,,,,,,,,,,,,,,,,,,,,,,,,,,,,,,,,,,,,,,,,,,,,,,,,,,,30,,,,,,,,430.24605720001273,430.24605720001273,430.24605720001273,430.24605720001273,430.24605720001273,left,0.24312190001364797,0,0,0,99,0.24,0.07999999999999997,left,0.16503809997811913,,,,,,,,,,,,,,,,,,,,,,,,,,,,,,,,,,,,,,,,,,,,,,,,,,,,,,,,,,,,LT28PH,train_y,red_square,top_right,2025-09-09_17h46.11.811,HideSeek_v1,2022.2.5,59.95326040334746,
,9,8,9,7,0,-1,15,,train_dim1_1,9,30,,,,2,0,2,0,,,,,,,,,0,0,0,0,0,8,8,8,6,0,6,0,,,,,,,,,,,,,,,,,,,,,,,,,,,,,,,,,,,,,,,,,,,,,,,,,,,,,,,,,,,,,,,,30,,,,,,,,430.49595420004334,430.49595420004334,430.49595420004334,430.49595420004334,430.49595420004334,left,0.2762963999994099,0,0,0,99,0.15999999999999998,0.07999999999999997,left,0.18353499996010214,,,,,,,,,,,,,,,,,,,,,,,,,,,,,,,,,,,,,,,,,,,,,,,,,,,,,,,,,,,,LT28PH,train_y,red_square,top_right,2025-09-09_17h46.11.811,HideSeek_v1,2022.2.5,59.95326040334746,
,9,8,9,7,0,-1,15,,train_dim1_1,9,30,,,,2,0,2,0,,,,,,,,,0,0,0,0,0,8,8,8,7,0,7,0,,,,,,,,,,,,,,,,,,,,,,,,,,,,,,,,,,,,,,,,,,,,,,,,,,,,,,,,,,,,,,,,30,,,,,,,,430.78177120001055,430.78177120001055,430.78177120001055,430.78177120001055,430.78177120001055,left,0.3077104000840336,0,0,0,99,0.07999999999999997,0.07999999999999997,left,0.21532550000119954,,,,,,,,,,,,,,,,,,,,,,,,,,,,,,,,,,,,,,,,,,,,,,,,,,,,,,,,,,,,LT28PH,train_y,red_square,top_right,2025-09-09_17h46.11.811,HideSeek_v1,2022.2.5,59.95326040334746,
,9,8,9,7,0,-1,15,,train_dim1_1,9,30,,,,2,0,2,0,,,,,,,,,0,0,0,0,0,8,8,8,8,0,8,0,,,,,,,,,,,,,,,,,,,,,,,,,,,,,,,,,,,,,,,,,,,,,,,,,,,,,,,,,,,,,,,,30,,,,,,,,431.09684660006315,431.09684660006315,431.09684660006315,431.09684660006315,431.09684660006315,left,0.5268744999775663,0,0,0,99,-2.7755575615628914e-17,0.07999999999999997,left,0.4421672000316903,,,,,,,,,,,,,,,,,,,,,,,,,,,,,,,,,,,,,,,,,,,,,,,,,,,,,,,,,,,,LT28PH,train_y,red_square,top_right,2025-09-09_17h46.11.811,HideSeek_v1,2022.2.5,59.95326040334746,
,9,8,9,7,0,-1,15,,train_dim1_1,9,30,,,,2,0,2,0,,,,,,,,,0,0,0,0,0,8,8,8,9,0,9,0,,,,,,,,,,,,,,,,,,,,,,,,,,,,,,,,,,,,,,,,,,,,,,,,,,,,,,,,,,,,,,,,30,,,,,,,,431.6312583000399,431.6312583000399,431.6312583000399,431.6312583000399,431.6312583000399,up,0.5931517999852076,0,0,0,99,-2.7755575615628914e-17,0.15999999999999998,up,0.5035522000398487,,,,,,,,,,,,,,,,,,,,,,,,,,,,,,,,,,,,,,,,,,,,,,,,,,,,,,,,,,,,LT28PH,train_y,red_square,top_right,2025-09-09_17h46.11.811,HideSeek_v1,2022.2.5,59.95326040334746,
,9,8,9,7,0,-1,15,,train_dim1_1,9,30,,,,2,0,2,0,,,,,,,,,0,0,0,0,0,8,8,8,10,0,10,0,,,,,,,,,,,,,,,,,,,,,,,,,,,,,,,,,,,,,,,,,,,,,,,,,,,,,,,,,,,,,,,,30,,,,,,,,432.23025830008555,432.23025830008555,432.23025830008555,432.23025830008555,432.23025830008555,up,0.27683450002223253,0,0,0,99,-2.7755575615628914e-17,0.24,up,0.18576129991561174,,,,,,,,,,,,,,,,,,,,,,,,,,,,,,,,,,,,,,,,,,,,,,,,,,,,,,,,,,,,LT28PH,train_y,red_square,top_right,2025-09-09_17h46.11.811,HideSeek_v1,2022.2.5,59.95326040334746,
,9,8,9,7,0,-1,15,,train_dim1_1,9,30,,,,2,0,2,0,,,,,,,,,0,0,0,0,0,8,8,8,11,0,11,0,,,,,,,,,,,,,,,,,,,,,,,,,,,,,,,,,,,,,,,,,,,,,,,,,,,,,,,,,,,,,,,,30,,,,,,,,432.5146056000376,432.5146056000376,432.5146056000376,432.5146056000376,432.5146056000376,return,0.9435969000915065,0,0,0,0,-2.7755575615628914e-17,0.24,return,0.8540852000005543,-9,-27,-2.7755575615628914e-17,0.24,,,,,,,,,,,,,,,,,,,,,,,,,,,,,,,,,,,,,,,,,,,,,,,,,,,,,,,,LT28PH,train_y,red_square,top_right,2025-09-09_17h46.11.811,HideSeek_v1,2022.2.5,59.95326040334746,
,7,7,7,7,0,0,16,,train_dim1_1,10,30,,,,2,0,2,0,,,,,,,,,0,0,0,0,0,9,9,9,0,0,0,0,,,,,,,,,,,,,,,,,,,,,,,,,stimuli/alien_stimuli/16.png,,,,,,,,,,,,,,,,,,,,,,,,,,,,,stimuli/alien_stimuli/15.png,15,9,11,,,,,,,30,,,,,,,,438.5903183000628,438.5903183000628,438.5903183000628,438.5903183000628,438.5903183000628,left,0.7385920999804512,0,0,0,99,0.32,0.16,left,0.6496278999838978,,,,,437.0338236000389,438.5903183000628,0.56,0.16,0.08,0.0,0.2,0.56,0.56,0.56,0.16,435.0357553000795,435.0357553000795,435.0357553000795,435.0357553000795,435.0357553000795,435.0357553000795,435.0357553000795,435.0357553000795,435.03193087994583,2.1206831000745296,return,1.973309600027278,,,,,,,,,,,,,,,,,,,,,,,,,,,,,,,,,LT28PH,train_y,red_square,top_right,2025-09-09_17h46.11.811,HideSeek_v1,2022.2.5,59.95326040334746,
,7,7,7,7,0,0,16,,train_dim1_1,10,30,,,,2,0,2,0,,,,,,,,,0,0,0,0,0,9,9,9,1,0,1,0,,,,,,,,,,,,,,,,,,,,,,,,,,,,,,,,,,,,,,,,,,,,,,,,,,,,,,,,,,,,,,,,30,,,,,,,,439.3396543000126,439.3396543000126,439.3396543000126,439.3396543000126,439.3396543000126,left,0.289720100001432,0,0,0,99,0.24,0.16,left,0.20844760001637042,,,,,,,,,,,,,,,,,,,,,,,,,,,,,,,,,,,,,,,,,,,,,,,,,,,,,,,,,,,,LT28PH,train_y,red_square,top_right,2025-09-09_17h46.11.811,HideSeek_v1,2022.2.5,59.95326040334746,
,7,7,7,7,0,0,16,,train_dim1_1,10,30,,,,2,0,2,0,,,,,,,,,0,0,0,0,0,9,9,9,2,0,2,0,,,,,,,,,,,,,,,,,,,,,,,,,,,,,,,,,,,,,,,,,,,,,,,,,,,,,,,,,,,,,,,,30,,,,,,,,439.63940960005857,439.63940960005857,439.63940960005857,439.63940960005857,439.63940960005857,up,1.2914776999969035,0,0,0,99,0.24,0.24,up,1.2016355999512598,,,,,,,,,,,,,,,,,,,,,,,,,,,,,,,,,,,,,,,,,,,,,,,,,,,,,,,,,,,,LT28PH,train_y,red_square,top_right,2025-09-09_17h46.11.811,HideSeek_v1,2022.2.5,59.95326040334746,
,7,7,7,7,0,0,16,,train_dim1_1,10,30,,,,2,0,2,0,,,,,,,,,0,0,0,0,0,9,9,9,3,0,3,0,,,,,,,,,,,,,,,,,,,,,,,,,,,,,,,,,,,,,,,,,,,,,,,,,,,,,,,,,,,,,,,,30,,,,,,,,440.93711960001383,440.93711960001383,440.93711960001383,440.93711960001383,440.93711960001383,right,0.8933737999759614,0,0,0,99,0.32,0.24,right,0.8049733999650925,,,,,,,,,,,,,,,,,,,,,,,,,,,,,,,,,,,,,,,,,,,,,,,,,,,,,,,,,,,,LT28PH,train_y,red_square,top_right,2025-09-09_17h46.11.811,HideSeek_v1,2022.2.5,59.95326040334746,
,7,7,7,7,0,0,16,,train_dim1_1,10,30,,,,2,0,2,0,,,,,,,,,0,0,0,0,0,9,9,9,4,0,4,0,,,,,,,,,,,,,,,,,,,,,,,,,,,,,,,,,,,,,,,,,,,,,,,,,,,,,,,,,,,,,,,,30,,,,,,,,441.837974700029,441.837974700029,441.837974700029,441.837974700029,441.837974700029,right,0.32607770001050085,0,0,0,99,0.4,0.24,right,0.24248030001763254,,,,,,,,,,,,,,,,,,,,,,,,,,,,,,,,,,,,,,,,,,,,,,,,,,,,,,,,,,,,LT28PH,train_y,red_square,top_right,2025-09-09_17h46.11.811,HideSeek_v1,2022.2.5,59.95326040334746,
,7,7,7,7,0,0,16,,train_dim1_1,10,30,,,,2,0,2,0,,,,,,,,,0,0,0,0,0,9,9,9,5,0,5,0,,,,,,,,,,,,,,,,,,,,,,,,,,,,,,,,,,,,,,,,,,,,,,,,,,,,,,,,,,,,,,,,30,,,,,,,,442.1714619999984,442.1714619999984,442.1714619999984,442.1714619999984,442.1714619999984,up,0.627176999929361,0,0,0,99,0.4,0.32,up,0.5385650000534952,,,,,,,,,,,,,,,,,,,,,,,,,,,,,,,,,,,,,,,,,,,,,,,,,,,,,,,,,,,,LT28PH,train_y,red_square,top_right,2025-09-09_17h46.11.811,HideSeek_v1,2022.2.5,59.95326040334746,
,7,7,7,7,0,0,16,,train_dim1_1,10,30,,,,2,0,2,0,,,,,,,,,0,0,0,0,0,9,9,9,6,0,6,0,,,,,,,,,,,,,,,,,,,,,,,,,,,,,,,,,,,,,,,,,,,,,,,,,,,,,,,,,,,,,,,,30,,,,,,,,442.8053987000603,442.8053987000603,442.8053987000603,442.8053987000603,442.8053987000603,return,0.40991129993926734,0,0,0,0,0.4,0.32,return,0.32311479991767555,-7,-27,0.4,0.32,,,,,,,,,,,,,,,,,,,,,,,,,,,,,,,,,,,,,,,,,,,,,,,,,,,,,,,,LT28PH,train_y,red_square,top_right,2025-09-09_17h46.11.811,HideSeek_v1,2022.2.5,59.95326040334746,
,9,6,9,5,0,-1,15,,train_dim1_1,11,30,,,,2,0,2,0,,,,,,,,,0,0,0,0,0,10,10,10,0,0,0,0,,,,,,,,,,,,,,,,,,,,,,,,,stimuli/alien_stimuli/15.png,,,,,,,,,,,,,,,,,,,,,,,,,,,,,stimuli/alien_stimuli/16.png,16,7,12,,,,,,,30,,,,,,,,448.4541428000666,448.4541428000666,448.4541428000666,448.4541428000666,448.4541428000666,left,0.8005697999615222,0,0,0,99,0.48000000000000004,0.08,left,0.7151304000290111,,,,,446.8917730000103,448.4541428000666,0.4,0.16,0.0,0.0,0.16,0.4,0.4,0.4,0.16,444.772233900032,444.772233900032,444.772233900032,444.772233900032,444.772233900032,444.772233900032,444.772233900032,444.772233900032,444.773412970046,2.2206851000664756,return,2.094886500039138,,,,,,,,,,,,,,,,,,,,,,,,,,,,,,,,,LT28PH,train_y,red_square,top_right,2025-09-09_17h46.11.811,HideSeek_v1,2022.2.5,59.95326040334746,
,9,6,9,5,0,-1,15,,train_dim1_1,11,30,,,,2,0,2,0,,,,,,,,,0,0,0,0,0,10,10,10,1,0,1,0,,,,,,,,,,,,,,,,,,,,,,,,,,,,,,,,,,,,,,,,,,,,,,,,,,,,,,,,,,,,,,,,30,,,,,,,,449.26470560010057,449.26470560010057,449.26470560010057,449.26470560010057,449.26470560010057,up,2.008822900010273,0,0,0,99,0.48000000000000004,0.16,up,1.9197640001075342,,,,,,,,,,,,,,,,,,,,,,,,,,,,,,,,,,,,,,,,,,,,,,,,,,,,,,,,,,,,LT28PH,train_y,red_square,top_right,2025-09-09_17h46.11.811,HideSeek_v1,2022.2.5,59.95326040334746,
,9,6,9,5,0,-1,15,,train_dim1_1,11,30,,,,2,0,2,0,,,,,,,,,0,0,0,0,0,10,10,10,2,0,2,0,,,,,,,,,,,,,,,,,,,,,,,,,,,,,,,,,,,,,,,,,,,,,,,,,,,,,,,,,,,,,,,,30,,,,,,,,451.2793545000022,451.2793545000022,451.2793545000022,451.2793545000022,451.2793545000022,right,0.56009299994912,0,0,0,99,0.56,0.16,right,0.46953330002725124,,,,,,,,,,,,,,,,,,,,,,,,,,,,,,,,,,,,,,,,,,,,,,,,,,,,,,,,,,,,LT28PH,train_y,red_square,top_right,2025-09-09_17h46.11.811,HideSeek_v1,2022.2.5,59.95326040334746,
,9,6,9,5,0,-1,15,,train_dim1_1,11,30,,,,2,0,2,0,,,,,,,,,0,0,0,0,0,10,10,10,3,0,3,0,,,,,,,,,,,,,,,,,,,,,,,,,,,,,,,,,,,,,,,,,,,,,,,,,,,,,,,,,,,,,,,,30,,,,,,,,451.8477305000415,451.8477305000415,451.8477305000415,451.8477305000415,451.8477305000415,up,0.4934006000403315,0,0,0,99,0.56,0.24,up,0.406614699983038,,,,,,,,,,,,,,,,,,,,,,,,,,,,,,,,,,,,,,,,,,,,,,,,,,,,,,,,,,,,LT28PH,train_y,red_square,top_right,2025-09-09_17h46.11.811,HideSeek_v1,2022.2.5,59.95326040334746,
,9,6,9,5,0,-1,15,,train_dim1_1,11,30,,,,2,0,2,0,,,,,,,,,0,0,0,0,0,10,10,10,4,0,4,0,,,,,,,,,,,,,,,,,,,,,,,,,,,,,,,,,,,,,,,,,,,,,,,,,,,,,,,,,,,,,,,,30,,,,,,,,452.34970520006027,452.34970520006027,452.34970520006027,452.34970520006027,452.34970520006027,up,0.2587275999831036,0,0,0,99,0.56,0.32,up,0.1653468000004068,,,,,,,,,,,,,,,,,,,,,,,,,,,,,,,,,,,,,,,,,,,,,,,,,,,,,,,,,,,,LT28PH,train_y,red_square,top_right,2025-09-09_17h46.11.811,HideSeek_v1,2022.2.5,59.95326040334746,
,9,6,9,5,0,-1,15,,train_dim1_1,11,30,,,,2,0,2,0,,,,,,,,,0,0,0,0,0,10,10,10,5,0,5,0,,,,,,,,,,,,,,,,,,,,,,,,,,,,,,,,,,,,,,,,,,,,,,,,,,,,,,,,,,,,,,,,30,,,,,,,,452.6142443000572,452.6142443000572,452.6142443000572,452.6142443000572,452.6142443000572,return,0.6600871999980882,0,0,0,0,0.56,0.32,return,0.5805532999802381,-4,-27,0.56,0.32,,,,,,,,,,,,,,,,,,,,,,,,,,,,,,,,,,,,,,,,,,,,,,,,,,,,,,,,LT28PH,train_y,red_square,top_right,2025-09-09_17h46.11.811,HideSeek_v1,2022.2.5,59.95326040334746,
,5,5,5,0,0,-5,11,,train_dim1_1,12,30,,,,2,0,2,0,,,,,,,,,0,0,0,0,0,11,11,11,0,0,0,0,,,,,,,,,,,,,,,,,,,,,,,,,stimuli/alien_stimuli/11.png,,,,,,,,,,,,,,,,,,,,,,,,,,,,,stimuli/alien_stimuli/15.png,15,9,13,,,,,,,30,,,,,,,,458.0266398000531,458.0266398000531,458.0266398000531,458.0266398000531,458.0266398000531,down,1.385898100095801,0,0,0,99,0.24,-0.08,down,1.309758699964732,,,,,456.46660270006396,458.0266398000531,0.56,0,0.08,0.0,0.04,0.56,0.56,0.56,0,454.8368788000662,454.8368788000662,454.8368788000662,454.8368788000662,454.8368788000662,454.8368788000662,454.8368788000662,454.8368788000662,454.83170627002835,1.7370012999745086,return,1.5982507999287918,,,,,,,,,,,,,,,,,,,,,,,,,,,,,,,,,LT28PH,train_y,red_square,top_right,2025-09-09_17h46.11.811,HideSeek_v1,2022.2.5,59.95326040334746,
,5,5,5,0,0,-5,11,,train_dim1_1,12,30,,,,2,0,2,0,,,,,,,,,0,0,0,0,0,11,11,11,1,0,1,0,,,,,,,,,,,,,,,,,,,,,,,,,,,,,,,,,,,,,,,,,,,,,,,,,,,,,,,,,,,,,,,,30,,,,,,,,459.4228863000171,459.4228863000171,459.4228863000171,459.4228863000171,459.4228863000171,down,0.2893982999958098,0,0,0,99,0.24,-0.16,down,0.2078983000246808,,,,,,,,,,,,,,,,,,,,,,,,,,,,,,,,,,,,,,,,,,,,,,,,,,,,,,,,,,,,LT28PH,train_y,red_square,top_right,2025-09-09_17h46.11.811,HideSeek_v1,2022.2.5,59.95326040334746,
,5,5,5,0,0,-5,11,,train_dim1_1,12,30,,,,2,0,2,0,,,,,,,,,0,0,0,0,0,11,11,11,2,0,2,0,,,,,,,,,,,,,,,,,,,,,,,,,,,,,,,,,,,,,,,,,,,,,,,,,,,,,,,,,,,,,,,,30,,,,,,,,459.7190832000924,459.7190832000924,459.7190832000924,459.7190832000924,459.7190832000924,down,0.3100163999479264,0,0,0,99,0.24,-0.24,down,0.2251145999180153,,,,,,,,,,,,,,,,,,,,,,,,,,,,,,,,,,,,,,,,,,,,,,,,,,,,,,,,,,,,LT28PH,train_y,red_square,top_right,2025-09-09_17h46.11.811,HideSeek_v1,2022.2.5,59.95326040334746,
,5,5,5,0,0,-5,11,,train_dim1_1,12,30,,,,2,0,2,0,,,,,,,,,0,0,0,0,0,11,11,11,3,0,3,0,,,,,,,,,,,,,,,,,,,,,,,,,,,,,,,,,,,,,,,,,,,,,,,,,,,,,,,,,,,,,,,,30,,,,,,,,460.0373914000811,460.0373914000811,460.0373914000811,460.0373914000811,460.0373914000811,return,1.2610570000251755,0,0,0,0,0.24,-0.24,return,1.1746487999334931,-7,-27,0.24,-0.24,,,,,,,,,,,,,,,,,,,,,,,,,,,,,,,,,,,,,,,,,,,,,,,,,,,,,,,,LT28PH,train_y,red_square,top_right,2025-09-09_17h46.11.811,HideSeek_v1,2022.2.5,59.95326040334746,
,9,8,9,4,0,-4,12,,train_dim1_1,13,30,,,,2,0,2,0,,,,,,,,,0,0,0,0,0,12,12,12,0,0,0,0,,,,,,,,,,,,,,,,,,,,,,,,,stimuli/alien_stimuli/12.png,,,,,,,,,,,,,,,,,,,,,,,,,,,,,stimuli/alien_stimuli/11.png,11,5,14,,,,,,,30,,,,,,,,466.28313630004413,466.28313630004413,466.28313630004413,466.28313630004413,466.28313630004413,left,0.904138799989596,0,0,0,99,0.48000000000000004,0.24,left,0.8189138999441639,,,,,464.7232897001086,466.28313630004413,0.24,-0.4,0.4,0.0,-0.2,0.24,0.24,0.24,-0.4,462.8578255000757,462.8578255000757,462.8578255000757,462.8578255000757,462.8578255000757,462.8578255000757,462.8578255000757,462.8578255000757,462.85492717000886,1.9706964999204502,return,1.8347710999660194,,,,,,,,,,,,,,,,,,,,,,,,,,,,,,,,,LT28PH,train_y,red_square,top_right,2025-09-09_17h46.11.811,HideSeek_v1,2022.2.5,59.95326040334746,
,9,8,9,4,0,-4,12,,train_dim1_1,13,30,,,,2,0,2,0,,,,,,,,,0,0,0,0,0,12,12,12,1,0,1,0,,,,,,,,,,,,,,,,,,,,,,,,,,,,,,,,,,,,,,,,,,,,,,,,,,,,,,,,,,,,,,,,30,,,,,,,,467.1964737001108,467.1964737001108,467.1964737001108,467.1964737001108,467.1964737001108,left,0.42354180000256747,0,0,0,99,0.4,0.24,left,0.33233290002681315,,,,,,,,,,,,,,,,,,,,,,,,,,,,,,,,,,,,,,,,,,,,,,,,,,,,,,,,,,,,LT28PH,train_y,red_square,top_right,2025-09-09_17h46.11.811,HideSeek_v1,2022.2.5,59.95326040334746,
,9,8,9,4,0,-4,12,,train_dim1_1,13,30,,,,2,0,2,0,,,,,,,,,0,0,0,0,0,12,12,12,2,0,2,0,,,,,,,,,,,,,,,,,,,,,,,,,,,,,,,,,,,,,,,,,,,,,,,,,,,,,,,,,,,,,,,,30,,,,,,,,467.6262781000696,467.6262781000696,467.6262781000696,467.6262781000696,467.6262781000696,left,0.29324499994982034,0,0,0,99,0.32,0.24,left,0.20778359996620566,,,,,,,,,,,,,,,,,,,,,,,,,,,,,,,,,,,,,,,,,,,,,,,,,,,,,,,,,,,,LT28PH,train_y,red_square,top_right,2025-09-09_17h46.11.811,HideSeek_v1,2022.2.5,59.95326040334746,
,9,8,9,4,0,-4,12,,train_dim1_1,13,30,,,,2,0,2,0,,,,,,,,,0,0,0,0,0,12,12,12,3,0,3,0,,,,,,,,,,,,,,,,,,,,,,,,,,,,,,,,,,,,,,,,,,,,,,,,,,,,,,,,,,,,,,,,30,,,,,,,,467.9267326000845,467.9267326000845,467.9267326000845,467.9267326000845,467.9267326000845,left,0.5269804999697953,0,0,0,99,0.24,0.24,left,0.44547079992480576,,,,,,,,,,,,,,,,,,,,,,,,,,,,,,,,,,,,,,,,,,,,,,,,,,,,,,,,,,,,LT28PH,train_y,red_square,top_right,2025-09-09_17h46.11.811,HideSeek_v1,2022.2.5,59.95326040334746,
,9,8,9,4,0,-4,12,,train_dim1_1,13,30,,,,2,0,2,0,,,,,,,,,0,0,0,0,0,12,12,12,4,0,4,0,,,,,,,,,,,,,,,,,,,,,,,,,,,,,,,,,,,,,,,,,,,,,,,,,,,,,,,,,,,,,,,,30,,,,,,,,468.4610976000549,468.4610976000549,468.4610976000549,468.4610976000549,468.4610976000549,right,1.9614260999951512,0,0,0,99,0.32,0.24,right,1.871717399917543,,,,,,,,,,,,,,,,,,,,,,,,,,,,,,,,,,,,,,,,,,,,,,,,,,,,,,,,,,,,LT28PH,train_y,red_square,top_right,2025-09-09_17h46.11.811,HideSeek_v1,2022.2.5,59.95326040334746,
,9,8,9,4,0,-4,12,,train_dim1_1,13,30,,,,2,0,2,0,,,,,,,,,0,0,0,0,0,12,12,12,5,0,5,0,,,,,,,,,,,,,,,,,,,,,,,,,,,,,,,,,,,,,,,,,,,,,,,,,,,,,,,,,,,,,,,,30,,,,,,,,470.4340440001106,470.4340440001106,470.4340440001106,470.4340440001106,470.4340440001106,right,0.2382636999245733,0,0,0,99,0.4,0.24,right,0.1519857000093907,,,,,,,,,,,,,,,,,,,,,,,,,,,,,,,,,,,,,,,,,,,,,,,,,,,,,,,,,,,,LT28PH,train_y,red_square,top_right,2025-09-09_17h46.11.811,HideSeek_v1,2022.2.5,59.95326040334746,
,9,8,9,4,0,-4,12,,train_dim1_1,13,30,,,,2,0,2,0,,,,,,,,,0,0,0,0,0,12,12,12,6,0,6,0,,,,,,,,,,,,,,,,,,,,,,,,,,,,,,,,,,,,,,,,,,,,,,,,,,,,,,,,,,,,,,,,30,,,,,,,,470.68281900009606,470.68281900009606,470.68281900009606,470.68281900009606,470.68281900009606,right,0.2402433999814093,0,0,0,99,0.48000000000000004,0.24,right,0.15765559999272227,,,,,,,,,,,,,,,,,,,,,,,,,,,,,,,,,,,,,,,,,,,,,,,,,,,,,,,,,,,,LT28PH,train_y,red_square,top_right,2025-09-09_17h46.11.811,HideSeek_v1,2022.2.5,59.95326040334746,
,9,8,9,4,0,-4,12,,train_dim1_1,13,30,,,,2,0,2,0,,,,,,,,,0,0,0,0,0,12,12,12,7,0,7,0,,,,,,,,,,,,,,,,,,,,,,,,,,,,,,,,,,,,,,,,,,,,,,,,,,,,,,,,,,,,,,,,30,,,,,,,,470.93063900002744,470.93063900002744,470.93063900002744,470.93063900002744,470.93063900002744,right,0.32692660007160157,0,0,0,99,0.56,0.24,right,0.23280920006800443,,,,,,,,,,,,,,,,,,,,,,,,,,,,,,,,,,,,,,,,,,,,,,,,,,,,,,,,,,,,LT28PH,train_y,red_square,top_right,2025-09-09_17h46.11.811,HideSeek_v1,2022.2.5,59.95326040334746,
,9,8,9,4,0,-4,12,,train_dim1_1,13,30,,,,2,0,2,0,,,,,,,,,0,0,0,0,0,12,12,12,8,0,8,0,,,,,,,,,,,,,,,,,,,,,,,,,,,,,,,,,,,,,,,,,,,,,,,,,,,,,,,,,,,,,,,,30,,,,,,,,471.2628639000468,471.2628639000468,471.2628639000468,471.2628639000468,471.2628639000468,up,0.64334329997655,0,0,0,99,0.56,0.32,up,0.5538024998968467,,,,,,,,,,,,,,,,,,,,,,,,,,,,,,,,,,,,,,,,,,,,,,,,,,,,,,,,,,,,LT28PH,train_y,red_square,top_right,2025-09-09_17h46.11.811,HideSeek_v1,2022.2.5,59.95326040334746,
,9,8,9,4,0,-4,12,,train_dim1_1,13,30,,,,2,0,2,0,,,,,,,,,0,0,0,0,0,12,12,12,9,0,9,0,,,,,,,,,,,,,,,,,,,,,,,,,,,,,,,,,,,,,,,,,,,,,,,,,,,,,,,,,,,,,,,,30,,,,,,,,471.91437880008016,471.91437880008016,471.91437880008016,471.91437880008016,471.91437880008016,return,0.37606219993904233,0,0,0,0,0.56,0.32,return,0.2900621999287978,-6,-27,0.56,0.32,,,,,,,,,,,,,,,,,,,,,,,,,,,,,,,,,,,,,,,,,,,,,,,,,,,,,,,,LT28PH,train_y,red_square,top_right,2025-09-09_17h46.11.811,HideSeek_v1,2022.2.5,59.95326040334746,
,7,7,7,7,0,0,16,,train_dim1_1,14,30,,,,2,0,2,0,,,,,,,,,0,0,0,0,0,13,13,13,0,0,0,0,,,,,,,,,,,,,,,,,,,,,,,,,stimuli/alien_stimuli/16.png,,,,,,,,,,,,,,,,,,,,,,,,,,,,,stimuli/alien_stimuli/12.png,12,9,15,,,,,,,30,,,,,,,,477.0407473000232,477.0407473000232,477.0407473000232,477.0407473000232,477.0407473000232,right,1.3713051000377163,0,0,0,99,0.48000000000000004,0.16,right,1.2921407000394538,,,,,475.48234980006237,477.0407473000232,0.56,-0.08,0.32,0.0,0.07999999999999999,0.56,0.56,0.56,-0.08,473.86502500006463,473.86502500006463,473.86502500006463,473.86502500006463,473.86502500006463,473.86502500006463,473.86502500006463,473.86502500006463,473.8639847800601,1.7373181999428198,return,1.5929919000482187,,,,,,,,,,,,,,,,,,,,,,,,,,,,,,,,,LT28PH,train_y,red_square,top_right,2025-09-09_17h46.11.811,HideSeek_v1,2022.2.5,59.95326040334746,
,7,7,7,7,0,0,16,,train_dim1_1,14,30,,,,2,0,2,0,,,,,,,,,0,0,0,0,0,13,13,13,1,0,1,0,,,,,,,,,,,,,,,,,,,,,,,,,,,,,,,,,,,,,,,,,,,,,,,,,,,,,,,,,,,,,,,,30,,,,,,,,478.4198873999994,478.4198873999994,478.4198873999994,478.4198873999994,478.4198873999994,right,0.24210979999043047,0,0,0,99,0.56,0.16,right,0.15374129998963326,,,,,,,,,,,,,,,,,,,,,,,,,,,,,,,,,,,,,,,,,,,,,,,,,,,,,,,,,,,,LT28PH,train_y,red_square,top_right,2025-09-09_17h46.11.811,HideSeek_v1,2022.2.5,59.95326040334746,
,7,7,7,7,0,0,16,,train_dim1_1,14,30,,,,2,0,2,0,,,,,,,,,0,0,0,0,0,13,13,13,2,0,2,0,,,,,,,,,,,,,,,,,,,,,,,,,,,,,,,,,,,,,,,,,,,,,,,,,,,,,,,,,,,,,,,,30,,,,,,,,478.6687519000843,478.6687519000843,478.6687519000843,478.6687519000843,478.6687519000843,return,0.7102449999656528,0,0,0,0,0.56,0.16,return,0.6240583000471815,-6,-25,0.56,0.16,,,,,,,,,,,,,,,,,,,,,,,,,,,,,,,,,,,,,,,,,,,,,,,,,,,,,,,,LT28PH,train_y,red_square,top_right,2025-09-09_17h46.11.811,HideSeek_v1,2022.2.5,59.95326040334746,
,6,9,6,6,0,-3,13,,train_dim1_1,15,30,,,,2,0,2,0,,,,,,,,,0,0,0,0,0,14,14,14,0,0,0,0,,,,,,,,,,,,,,,,,,,,,,,,,stimuli/alien_stimuli/13.png,,,,,,,,,,,,,,,,,,,,,,,,,,,,,stimuli/alien_stimuli/16.png,16,7,16,,,,,,,30,,,,,,,,484.3790194001049,484.3790194001049,484.3790194001049,484.3790194001049,484.3790194001049,down,2.0056426000082865,0,0,0,99,0.32,0.24,down,1.9204233000054955,,,,,482.82166240003426,484.3790194001049,0.4,0.16,0.0,0.0,0.16,0.4,0.4,0.4,0.16,480.9345770000946,480.9345770000946,480.9345770000946,480.9345770000946,480.9345770000946,480.9345770000946,480.9345770000946,480.9345770000946,480.93651297005124,1.9873686999781057,return,1.8555248000193387,,,,,,,,,,,,,,,,,,,,,,,,,,,,,,,,,LT28PH,train_y,red_square,top_right,2025-09-09_17h46.11.811,HideSeek_v1,2022.2.5,59.95326040334746,
,6,9,6,6,0,-3,13,,train_dim1_1,15,30,,,,2,0,2,0,,,,,,,,,0,0,0,0,0,14,14,14,1,0,1,0,,,,,,,,,,,,,,,,,,,,,,,,,,,,,,,,,,,,,,,,,,,,,,,,,,,,,,,,,,,,,,,,30,,,,,,,,486.3912377000088,486.3912377000088,486.3912377000088,486.3912377000088,486.3912377000088,down,0.6264409000286832,0,0,0,99,0.32,0.15999999999999998,down,0.5437857999932021,,,,,,,,,,,,,,,,,,,,,,,,,,,,,,,,,,,,,,,,,,,,,,,,,,,,,,,,,,,,LT28PH,train_y,red_square,top_right,2025-09-09_17h46.11.811,HideSeek_v1,2022.2.5,59.95326040334746,
,6,9,6,6,0,-3,13,,train_dim1_1,15,30,,,,2,0,2,0,,,,,,,,,0,0,0,0,0,14,14,14,2,0,2,0,,,,,,,,,,,,,,,,,,,,,,,,,,,,,,,,,,,,,,,,,,,,,,,,,,,,,,,,,,,,,,,,30,,,,,,,,487.02514810010325,487.02514810010325,487.02514810010325,487.02514810010325,487.02514810010325,down,1.0276422000024468,0,0,0,99,0.32,0.07999999999999997,down,0.9393937999848276,,,,,,,,,,,,,,,,,,,,,,,,,,,,,,,,,,,,,,,,,,,,,,,,,,,,,,,,,,,,LT28PH,train_y,red_square,top_right,2025-09-09_17h46.11.811,HideSeek_v1,2022.2.5,59.95326040334746,
,6,9,6,6,0,-3,13,,train_dim1_1,15,30,,,,2,0,2,0,,,,,,,,,0,0,0,0,0,14,14,14,3,0,3,0,,,,,,,,,,,,,,,,,,,,,,,,,,,,,,,,,,,,,,,,,,,,,,,,,,,,,,,,,,,,,,,,30,,,,,,,,488.06233740004245,488.06233740004245,488.06233740004245,488.06233740004245,488.06233740004245,down,0.94118080008775,0,0,0,99,0.32,-2.7755575615628914e-17,down,0.8546489999862388,,,,,,,,,,,,,,,,,,,,,,,,,,,,,,,,,,,,,,,,,,,,,,,,,,,,,,,,,,,,LT28PH,train_y,red_square,top_right,2025-09-09_17h46.11.811,HideSeek_v1,2022.2.5,59.95326040334746,
,6,9,6,6,0,-3,13,,train_dim1_1,15,30,,,,2,0,2,0,,,,,,,,,0,0,0,0,0,14,14,14,4,0,4,0,,,,,,,,,,,,,,,,,,,,,,,,,,,,,,,,,,,,,,,,,,,,,,,,,,,,,,,,,,,,,,,,30,,,,,,,,489.01317839999683,489.01317839999683,489.01317839999683,489.01317839999683,489.01317839999683,return,0.9415782999712974,0,1,0,0,0.32,-2.7755575615628914e-17,return,0.8541782000102103,-10,-25,0.32,-2.7755575615628914e-17,,,,,,,,,,,,,,,,,,,,,,,,,,,,,,,,,,,,,,,,,,,,,,,,,,,,,,,,LT28PH,train_y,red_square,top_right,2025-09-09_17h46.11.811,HideSeek_v1,2022.2.5,59.95326040334746,
,9,5,9,4,0,-1,15,,train_dim1_1,16,30,,,,2,0,2,0,,,,,,,,,0,0,0,0,0,15,15,15,0,0,0,0,,,,,,,,,,,,,,,,,,,,,,,,,stimuli/alien_stimuli/15.png,,,,,,,,,,,,,,,,,,,,,,,,,,,,,stimuli/alien_stimuli/13.png,13,6,17,,,,,,,30,,,,,,,,503.7966662000399,503.7966662000399,503.7966662000399,503.7966662000399,503.7966662000399,left,2.437334300018847,0,1,0,99,0.48000000000000004,0,left,2.3369776000035927,,,,,502.22128980001435,503.7966662000399,0.32,0.08,0.24,0.0,0.2,0.32,0.32,0.32,0.08,491.53460140002426,491.53460140002426,491.53460140002426,491.53460140002426,491.53460140002426,491.53460140002426,491.53460140002426,491.53460140002426,491.5288370800204,10.811172399902716,return,10.66992300003767,,,,,,,,,,,,,,,,,,,,,,,,,,,,,,,,,LT28PH,train_y,red_square,top_right,2025-09-09_17h46.11.811,HideSeek_v1,2022.2.5,59.95326040334746,
,9,5,9,4,0,-1,15,,train_dim1_1,16,30,,,,2,0,2,0,,,,,,,,,0,0,0,0,0,15,15,15,1,0,1,0,,,,,,,,,,,,,,,,,,,,,,,,,,,,,,,,,,,,,,,,,,,,,,,,,,,,,,,,,,,,,,,,30,,,,,,,,506.22794320003595,506.22794320003595,506.22794320003595,506.22794320003595,506.22794320003595,left,1.3587588000809774,0,1,0,99,0.4,0,left,1.2785821000579745,,,,,,,,,,,,,,,,,,,,,,,,,,,,,,,,,,,,,,,,,,,,,,,,,,,,,,,,,,,,LT28PH,train_y,red_square,top_right,2025-09-09_17h46.11.811,HideSeek_v1,2022.2.5,59.95326040334746,
,9,5,9,4,0,-1,15,,train_dim1_1,16,30,,,,2,0,2,0,,,,,,,,,0,0,0,0,0,15,15,15,2,0,2,0,,,,,,,,,,,,,,,,,,,,,,,,,,,,,,,,,,,,,,,,,,,,,,,,,,,,,,,,,,,,,,,,30,,,,,,,,507.59236910007894,507.59236910007894,507.59236910007894,507.59236910007894,507.59236910007894,left,0.32650990004185587,0,1,0,99,0.32,0,left,0.23841150000225753,,,,,,,,,,,,,,,,,,,,,,,,,,,,,,,,,,,,,,,,,,,,,,,,,,,,,,,,,,,,LT28PH,train_y,red_square,top_right,2025-09-09_17h46.11.811,HideSeek_v1,2022.2.5,59.95326040334746,
,9,5,9,4,0,-1,15,,train_dim1_1,16,30,,,,2,0,2,0,,,,,,,,,0,0,0,0,0,15,15,15,3,0,3,0,,,,,,,,,,,,,,,,,,,,,,,,,,,,,,,,,,,,,,,,,,,,,,,,,,,,,,,,,,,,,,,,30,,,,,,,,507.93019159999676,507.93019159999676,507.93019159999676,507.93019159999676,507.93019159999676,left,0.5237863999791443,0,1,0,99,0.24,0,left,0.4346177999395877,,,,,,,,,,,,,,,,,,,,,,,,,,,,,,,,,,,,,,,,,,,,,,,,,,,,,,,,,,,,LT28PH,train_y,red_square,top_right,2025-09-09_17h46.11.811,HideSeek_v1,2022.2.5,59.95326040334746,
,9,5,9,4,0,-1,15,,train_dim1_1,16,30,,,,2,0,2,0,,,,,,,,,0,0,0,0,0,15,15,15,4,0,4,0,,,,,,,,,,,,,,,,,,,,,,,,,,,,,,,,,,,,,,,,,,,,,,,,,,,,,,,,,,,,,,,,30,,,,,,,,508.459950700053,508.459950700053,508.459950700053,508.459950700053,508.459950700053,left,0.42674290004651994,0,1,0,99,0.15999999999999998,0,left,0.3448450999567285,,,,,,,,,,,,,,,,,,,,,,,,,,,,,,,,,,,,,,,,,,,,,,,,,,,,,,,,,,,,LT28PH,train_y,red_square,top_right,2025-09-09_17h46.11.811,HideSeek_v1,2022.2.5,59.95326040334746,
,9,5,9,4,0,-1,15,,train_dim1_1,16,30,,,,2,0,2,0,,,,,,,,,0,0,0,0,0,15,15,15,5,0,5,0,,,,,,,,,,,,,,,,,,,,,,,,,,,,,,,,,,,,,,,,,,,,,,,,,,,,,,,,,,,,,,,,30,,,,,,,,508.9012711000396,508.9012711000396,508.9012711000396,508.9012711000396,508.9012711000396,return,0.6587069000815973,0,0,0,0,0.15999999999999998,0,return,0.5635871000122279,-10,-30,0.15999999999999998,0,,,,,,,,,,,,,,,,,,,,,,,,,,,,,,,,,,,,,,,,,,,,,,,,,,,,,,,,LT28PH,train_y,red_square,top_right,2025-09-09_17h46.11.811,HideSeek_v1,2022.2.5,59.95326040334746,
,8,8,8,5,0,-3,13,,train_dim1_1,17,30,,,,2,0,2,0,,,,,,,,,0,0,0,0,0,16,16,16,0,0,0,0,,,,,,,,,,,,,,,,,,,,,,,,,stimuli/alien_stimuli/13.png,,,,,,,,,,,,,,,,,,,,,,,,,,,,,stimuli/alien_stimuli/15.png,15,9,18,,,,,,,30,,,,,,,,514.1065296001034,514.1065296001034,514.1065296001034,514.1065296001034,514.1065296001034,up,2.7545722000068054,0,0,0,99,0.48,0.32,up,2.6647322000935674,,,,,512.5461665000767,514.1065296001034,0.56,-0.08,0.08,0.0,-0.04,0.56,0.56,0.56,-0.08,511.12885080010165,511.12885080010165,511.12885080010165,511.12885080010165,511.12885080010165,511.12885080010165,511.12885080010165,511.12885080010165,511.1286270800279,1.5364721999503672,return,1.3935991000616923,,,,,,,,,,,,,,,,,,,,,,,,,,,,,,,,,LT28PH,train_y,red_square,top_right,2025-09-09_17h46.11.811,HideSeek_v1,2022.2.5,59.95326040334746,
,8,8,8,5,0,-3,13,,train_dim1_1,17,30,,,,2,0,2,0,,,,,,,,,0,0,0,0,0,16,16,16,1,0,1,0,,,,,,,,,,,,,,,,,,,,,,,,,,,,,,,,,,,,,,,,,,,,,,,,,,,,,,,,,,,,,,,,30,,,,,,,,516.8712804000825,516.8712804000825,516.8712804000825,516.8712804000825,516.8712804000825,return,0.8734782999381423,0,0,0,0,0.48,0.32,return,0.7833831999450922,-9,-30,0.48,0.32,,,,,,,,,,,,,,,,,,,,,,,,,,,,,,,,,,,,,,,,,,,,,,,,,,,,,,,,LT28PH,train_y,red_square,top_right,2025-09-09_17h46.11.811,HideSeek_v1,2022.2.5,59.95326040334746,
,7,6,7,1,0,-5,11,,train_dim1_1,18,30,,,,2,0,2,0,,,,,,,,,0,0,0,0,0,17,17,17,0,0,0,0,,,,,,,,,,,,,,,,,,,,,,,,,stimuli/alien_stimuli/11.png,,,,,,,,,,,,,,,,,,,,,,,,,,,,,stimuli/alien_stimuli/13.png,13,8,19,,,,,,,30,,,,,,,,522.4458450000966,522.4458450000966,522.4458450000966,522.4458450000966,522.4458450000966,left,1.8203839000780135,0,0,0,99,0.32,0.08,left,1.7313617001054808,,,,,520.8869126000209,522.4458450000966,0.48,0,0.24,0.0,0.12,0.48,0.48,0.48,0,519.3168794000521,519.3168794000521,519.3168794000521,519.3168794000521,519.3168794000521,519.3168794000521,519.3168794000521,519.3168794000521,519.3020530699637,1.6866123999934644,return,1.5449248999357224,,,,,,,,,,,,,,,,,,,,,,,,,,,,,,,,,LT28PH,train_y,red_square,top_right,2025-09-09_17h46.11.811,HideSeek_v1,2022.2.5,59.95326040334746,
,7,6,7,1,0,-5,11,,train_dim1_1,18,30,,,,2,0,2,0,,,,,,,,,0,0,0,0,0,17,17,17,1,0,1,0,,,,,,,,,,,,,,,,,,,,,,,,,,,,,,,,,,,,,,,,,,,,,,,,,,,,,,,,,,,,,,,,30,,,,,,,,524.2733050000388,524.2733050000388,524.2733050000388,524.2733050000388,524.2733050000388,left,0.3094268999993801,0,0,0,99,0.24,0.08,left,0.22633920004591346,,,,,,,,,,,,,,,,,,,,,,,,,,,,,,,,,,,,,,,,,,,,,,,,,,,,,,,,,,,,LT28PH,train_y,red_square,top_right,2025-09-09_17h46.11.811,HideSeek_v1,2022.2.5,59.95326040334746,
,7,6,7,1,0,-5,11,,train_dim1_1,18,30,,,,2,0,2,0,,,,,,,,,0,0,0,0,0,17,17,17,2,0,2,0,,,,,,,,,,,,,,,,,,,,,,,,,,,,,,,,,,,,,,,,,,,,,,,,,,,,,,,,,,,,,,,,30,,,,,,,,524.590057100053,524.590057100053,524.590057100053,524.590057100053,524.590057100053,left,0.2766342000104487,0,0,0,99,0.15999999999999998,0.08,left,0.1885220999829471,,,,,,,,,,,,,,,,,,,,,,,,,,,,,,,,,,,,,,,,,,,,,,,,,,,,,,,,,,,,LT28PH,train_y,red_square,top_right,2025-09-09_17h46.11.811,HideSeek_v1,2022.2.5,59.95326040334746,
,7,6,7,1,0,-5,11,,train_dim1_1,18,30,,,,2,0,2,0,,,,,,,,,0,0,0,0,0,17,17,17,3,0,3,0,,,,,,,,,,,,,,,,,,,,,,,,,,,,,,,,,,,,,,,,,,,,,,,,,,,,,,,,,,,,,,,,30,,,,,,,,524.8736260000151,524.8736260000151,524.8736260000151,524.8736260000151,524.8736260000151,left,0.226437299977988,0,0,0,99,0.07999999999999997,0.08,left,0.1411348000401631,,,,,,,,,,,,,,,,,,,,,,,,,,,,,,,,,,,,,,,,,,,,,,,,,,,,,,,,,,,,LT28PH,train_y,red_square,top_right,2025-09-09_17h46.11.811,HideSeek_v1,2022.2.5,59.95326040334746,
,7,6,7,1,0,-5,11,,train_dim1_1,18,30,,,,2,0,2,0,,,,,,,,,0,0,0,0,0,17,17,17,4,0,4,0,,,,,,,,,,,,,,,,,,,,,,,,,,,,,,,,,,,,,,,,,,,,,,,,,,,,,,,,,,,,,,,,30,,,,,,,,525.1090639000759,525.1090639000759,525.1090639000759,525.1090639000759,525.1090639000759,return,0.5420993999578059,0,0,0,0,0.07999999999999997,0.08,return,0.4510753999929875,-9,-34,0.07999999999999997,0.08,,,,,,,,,,,,,,,,,,,,,,,,,,,,,,,,,,,,,,,,,,,,,,,,,,,,,,,,LT28PH,train_y,red_square,top_right,2025-09-09_17h46.11.811,HideSeek_v1,2022.2.5,59.95326040334746,
,5,9,5,5,0,-4,12,,train_dim1_1,19,30,,,,2,0,2,0,,,,,,,,,0,0,0,0,0,18,18,18,0,0,0,0,,,,,,,,,,,,,,,,,,,,,,,,,stimuli/alien_stimuli/12.png,,,,,,,,,,,,,,,,,,,,,,,,,,,,,stimuli/alien_stimuli/11.png,11,7,20,,,,,,,30,,,,,,,,529.8559614000842,529.8559614000842,529.8559614000842,529.8559614000842,529.8559614000842,down,2.2671658999752253,0,0,0,99,0.24,0.24,down,2.175218499964103,,,,,528.2927960000234,529.8559614000842,0.4,-0.32,0.4,0.0,-0.12,0.4,0.4,0.4,-0.32,527.2128721000627,527.2128721000627,527.2128721000627,527.2128721000627,527.2128721000627,527.2128721000627,527.2128721000627,527.2128721000627,527.2085338699749,1.186495199915953,return,1.0537976999767125,,,,,,,,,,,,,,,,,,,,,,,,,,,,,,,,,LT28PH,train_y,red_square,top_right,2025-09-09_17h46.11.811,HideSeek_v1,2022.2.5,59.95326040334746,
,5,9,5,5,0,-4,12,,train_dim1_1,19,30,,,,2,0,2,0,,,,,,,,,0,0,0,0,0,18,18,18,1,0,1,0,,,,,,,,,,,,,,,,,,,,,,,,,,,,,,,,,,,,,,,,,,,,,,,,,,,,,,,,,,,,,,,,30,,,,,,,,532.1305309000891,532.1305309000891,532.1305309000891,532.1305309000891,532.1305309000891,down,0.2435535000404343,0,0,0,99,0.24,0.15999999999999998,down,0.15042670001275837,,,,,,,,,,,,,,,,,,,,,,,,,,,,,,,,,,,,,,,,,,,,,,,,,,,,,,,,,,,,LT28PH,train_y,red_square,top_right,2025-09-09_17h46.11.811,HideSeek_v1,2022.2.5,59.95326040334746,
,5,9,5,5,0,-4,12,,train_dim1_1,19,30,,,,2,0,2,0,,,,,,,,,0,0,0,0,0,18,18,18,2,0,2,0,,,,,,,,,,,,,,,,,,,,,,,,,,,,,,,,,,,,,,,,,,,,,,,,,,,,,,,,,,,,,,,,30,,,,,,,,532.38113600004,532.38113600004,532.38113600004,532.38113600004,532.38113600004,down,0.22623799997381866,0,0,0,99,0.24,0.07999999999999997,down,0.1362441999372095,,,,,,,,,,,,,,,,,,,,,,,,,,,,,,,,,,,,,,,,,,,,,,,,,,,,,,,,,,,,LT28PH,train_y,red_square,top_right,2025-09-09_17h46.11.811,HideSeek_v1,2022.2.5,59.95326040334746,
,5,9,5,5,0,-4,12,,train_dim1_1,19,30,,,,2,0,2,0,,,,,,,,,0,0,0,0,0,18,18,18,3,0,3,0,,,,,,,,,,,,,,,,,,,,,,,,,,,,,,,,,,,,,,,,,,,,,,,,,,,,,,,,,,,,,,,,30,,,,,,,,532.6140609000577,532.6140609000577,532.6140609000577,532.6140609000577,532.6140609000577,return,1.5108731999062002,0,1,0,0,0.24,0.07999999999999997,return,1.4334129999624565,-12,-34,0.24,0.07999999999999997,,,,,,,,,,,,,,,,,,,,,,,,,,,,,,,,,,,,,,,,,,,,,,,,,,,,,,,,LT28PH,train_y,red_square,top_right,2025-09-09_17h46.11.811,HideSeek_v1,2022.2.5,59.95326040334746,
,7,5,7,5,0,0,16,,train_dim1_1,20,30,,,,2,0,2,0,,,,,,,,,0,0,0,0,0,19,19,19,0,0,0,0,,,,,,,,,,,,,,,,,,,,,,,,,stimuli/alien_stimuli/16.png,,,,,,,,,,,,,,,,,,,,,,,,,,,,,stimuli/alien_stimuli/12.png,12,5,21,,,,,,,30,,,,,,,,539.3564346000785,539.3564346000785,539.3564346000785,539.3564346000785,539.3564346000785,return,1.4401415000902489,1,0,0,1,0.4,0,return,1.3527315999381244,-12,-34,0.4,0,537.8008136000717,539.3564346000785,0.24,0,0.32,0.0,0.16,0.24,0.24,0.24,0,535.6965117000509,535.6965117000509,535.6965117000509,535.6965117000509,535.6965117000509,535.6965117000509,535.6965117000509,535.6965117000509,535.683462069987,2.218049999908544,return,2.077870100038126,,,,,,,,,,,,,,,,,,,,,,,,,,,,,,,,,LT28PH,train_y,red_square,top_right,2025-09-09_17h46.11.811,HideSeek_v1,2022.2.5,59.95326040334746,
,7,9,7,8,0,-1,15,,train_dim1_1,21,30,,,,2,0,2,0,,,,,,,,,0,0,0,0,0,20,20,20,0,0,0,0,,,,,,,,,,,,,,,,,,,,,,,,,stimuli/alien_stimuli/15.png,,,,,,,,,,,,,,,,,,,,,,,,,,,,,stimuli/alien_stimuli/16.png,16,7,22,,,,,,,30,,,,,,,,545.9742032000795,545.9742032000795,545.9742032000795,545.9742032000795,545.9742032000795,left,3.0176305000204593,1,0,0,99,0.32,0.32,left,2.9301923000020906,,,,,544.40621070005,545.9742032000795,0.4,0,0.0,0.0,0.0,0.4,0.4,0.4,0,542.3581874000374,542.3581874000374,542.3581874000374,542.3581874000374,542.3581874000374,542.3581874000374,542.3581874000374,542.3581874000374,542.3540372699849,2.1547703000251204,return,2.017942799953744,,,,,,,,,,,,,,,,,,,,,,,,,,,,,,,,,LT28PH,train_y,red_square,top_right,2025-09-09_17h46.11.811,HideSeek_v1,2022.2.5,59.95326040334746,
,7,9,7,8,0,-1,15,,train_dim1_1,21,30,,,,2,0,2,0,,,,,,,,,0,0,0,0,0,20,20,20,1,0,1,0,,,,,,,,,,,,,,,,,,,,,,,,,,,,,,,,,,,,,,,,,,,,,,,,,,,,,,,,,,,,,,,,30,,,,,,,,548.9955545000266,548.9955545000266,548.9955545000266,548.9955545000266,548.9955545000266,right,2.3109002000419423,1,0,0,99,0.4,0.32,right,2.2215383000439033,,,,,,,,,,,,,,,,,,,,,,,,,,,,,,,,,,,,,,,,,,,,,,,,,,,,,,,,,,,,LT28PH,train_y,red_square,top_right,2025-09-09_17h46.11.811,HideSeek_v1,2022.2.5,59.95326040334746,
,7,9,7,8,0,-1,15,,train_dim1_1,21,30,,,,2,0,2,0,,,,,,,,,0,0,0,0,0,20,20,20,2,0,2,0,,,,,,,,,,,,,,,,,,,,,,,,,,,,,,,,,,,,,,,,,,,,,,,,,,,,,,,,,,,,,,,,30,,,,,,,,551.3137372001074,551.3137372001074,551.3137372001074,551.3137372001074,551.3137372001074,right,0.2596598999807611,1,0,0,99,0.48000000000000004,0.32,right,0.1688108000671491,,,,,,,,,,,,,,,,,,,,,,,,,,,,,,,,,,,,,,,,,,,,,,,,,,,,,,,,,,,,LT28PH,train_y,red_square,top_right,2025-09-09_17h46.11.811,HideSeek_v1,2022.2.5,59.95326040334746,
,7,9,7,8,0,-1,15,,train_dim1_1,21,30,,,,2,0,2,0,,,,,,,,,0,0,0,0,0,20,20,20,3,0,3,0,,,,,,,,,,,,,,,,,,,,,,,,,,,,,,,,,,,,,,,,,,,,,,,,,,,,,,,,,,,,,,,,30,,,,,,,,551.580799800111,551.580799800111,551.580799800111,551.580799800111,551.580799800111,right,0.526564099942334,1,0,0,99,0.56,0.32,right,0.4441131000639871,,,,,,,,,,,,,,,,,,,,,,,,,,,,,,,,,,,,,,,,,,,,,,,,,,,,,,,,,,,,LT28PH,train_y,red_square,top_right,2025-09-09_17h46.11.811,HideSeek_v1,2022.2.5,59.95326040334746,
,7,9,7,8,0,-1,15,,train_dim1_1,21,30,,,,2,0,2,0,,,,,,,,,0,0,0,0,0,20,20,20,4,0,4,0,,,,,,,,,,,,,,,,,,,,,,,,,,,,,,,,,,,,,,,,,,,,,,,,,,,,,,,,,,,,,,,,30,,,,,,,,552.1135606000898,552.1135606000898,552.1135606000898,552.1135606000898,552.1135606000898,return,0.4435157999396324,1,0,0,0,0.56,0.32,return,0.3651504999725148,-12,-32,0.56,0.32,,,,,,,,,,,,,,,,,,,,,,,,,,,,,,,,,,,,,,,,,,,,,,,,,,,,,,,,LT28PH,train_y,red_square,top_right,2025-09-09_17h46.11.811,HideSeek_v1,2022.2.5,59.95326040334746,
,5,7,5,4,0,-3,13,,train_dim1_1,22,30,,,,2,0,2,0,,,,,,,,,0,0,0,0,0,21,21,21,0,0,0,0,,,,,,,,,,,,,,,,,,,,,,,,,stimuli/alien_stimuli/13.png,,,,,,,,,,,,,,,,,,,,,,,,,,,,,stimuli/alien_stimuli/15.png,15,7,23,,,,,,,30,,,,,,,,557.2286471000407,557.2286471000407,557.2286471000407,557.2286471000407,557.2286471000407,down,2.1665481999516487,1,0,0,99,0.24,0.08,down,2.082963499939069,,,,,555.6656134000514,557.2286471000407,0.4,0.24,0.08,0.0,0.28,0.4,0.4,0.4,0.24,554.1137849000515,554.1137849000515,554.1137849000515,554.1137849000515,554.1137849000515,554.1137849000515,554.1137849000515,554.1137849000515,554.1138252700098,1.6542156001087278,return,1.5200507999397814,,,,,,,,,,,,,,,,,,,,,,,,,,,,,,,,,LT28PH,train_y,red_square,top_right,2025-09-09_17h46.11.811,HideSeek_v1,2022.2.5,59.95326040334746,
,5,7,5,4,0,-3,13,,train_dim1_1,22,30,,,,2,0,2,0,,,,,,,,,0,0,0,0,0,21,21,21,1,0,1,0,,,,,,,,,,,,,,,,,,,,,,,,,,,,,,,,,,,,,,,,,,,,,,,,,,,,,,,,,,,,,,,,30,,,,,,,,559.4022609000094,559.4022609000094,559.4022609000094,559.4022609000094,559.4022609000094,down,0.6095945999259129,1,0,0,99,0.24,0.0,down,0.5322762000141665,,,,,,,,,,,,,,,,,,,,,,,,,,,,,,,,,,,,,,,,,,,,,,,,,,,,,,,,,,,,LT28PH,train_y,red_square,top_right,2025-09-09_17h46.11.811,HideSeek_v1,2022.2.5,59.95326040334746,
,5,7,5,4,0,-3,13,,train_dim1_1,22,30,,,,2,0,2,0,,,,,,,,,0,0,0,0,0,21,21,21,2,0,2,0,,,,,,,,,,,,,,,,,,,,,,,,,,,,,,,,,,,,,,,,,,,,,,,,,,,,,,,,,,,,,,,,30,,,,,,,,560.0189712001011,560.0189712001011,560.0189712001011,560.0189712001011,560.0189712001011,up,1.860903499997221,1,0,0,99,0.24,0.08,up,1.7769959999714047,,,,,,,,,,,,,,,,,,,,,,,,,,,,,,,,,,,,,,,,,,,,,,,,,,,,,,,,,,,,LT28PH,train_y,red_square,top_right,2025-09-09_17h46.11.811,HideSeek_v1,2022.2.5,59.95326040334746,
,5,7,5,4,0,-3,13,,train_dim1_1,22,30,,,,2,0,2,0,,,,,,,,,0,0,0,0,0,21,21,21,3,0,3,0,,,,,,,,,,,,,,,,,,,,,,,,,,,,,,,,,,,,,,,,,,,,,,,,,,,,,,,,,,,,,,,,30,,,,,,,,561.8905229000375,561.8905229000375,561.8905229000375,561.8905229000375,561.8905229000375,up,0.29048800002783537,1,0,0,99,0.24,0.16,up,0.20659250009339303,,,,,,,,,,,,,,,,,,,,,,,,,,,,,,,,,,,,,,,,,,,,,,,,,,,,,,,,,,,,LT28PH,train_y,red_square,top_right,2025-09-09_17h46.11.811,HideSeek_v1,2022.2.5,59.95326040334746,
,5,7,5,4,0,-3,13,,train_dim1_1,22,30,,,,2,0,2,0,,,,,,,,,0,0,0,0,0,21,21,21,4,0,4,0,,,,,,,,,,,,,,,,,,,,,,,,,,,,,,,,,,,,,,,,,,,,,,,,,,,,,,,,,,,,,,,,30,,,,,,,,562.1869282000698,562.1869282000698,562.1869282000698,562.1869282000698,562.1869282000698,left,0.5267464999342337,1,0,0,99,0.15999999999999998,0.16,left,0.4401987000601366,,,,,,,,,,,,,,,,,,,,,,,,,,,,,,,,,,,,,,,,,,,,,,,,,,,,,,,,,,,,LT28PH,train_y,red_square,top_right,2025-09-09_17h46.11.811,HideSeek_v1,2022.2.5,59.95326040334746,
,5,7,5,4,0,-3,13,,train_dim1_1,22,30,,,,2,0,2,0,,,,,,,,,0,0,0,0,0,21,21,21,5,0,5,0,,,,,,,,,,,,,,,,,,,,,,,,,,,,,,,,,,,,,,,,,,,,,,,,,,,,,,,,,,,,,,,,30,,,,,,,,562.7206503000343,562.7206503000343,562.7206503000343,562.7206503000343,562.7206503000343,left,0.3097649000119418,1,0,0,99,0.07999999999999997,0.16,left,0.22037710004951805,,,,,,,,,,,,,,,,,,,,,,,,,,,,,,,,,,,,,,,,,,,,,,,,,,,,,,,,,,,,LT28PH,train_y,red_square,top_right,2025-09-09_17h46.11.811,HideSeek_v1,2022.2.5,59.95326040334746,
,5,7,5,4,0,-3,13,,train_dim1_1,22,30,,,,2,0,2,0,,,,,,,,,0,0,0,0,0,21,21,21,6,0,6,0,,,,,,,,,,,,,,,,,,,,,,,,,,,,,,,,,,,,,,,,,,,,,,,,,,,,,,,,,,,,,,,,30,,,,,,,,563.038861200097,563.038861200097,563.038861200097,563.038861200097,563.038861200097,left,0.7602306999033317,1,0,0,99,-2.7755575615628914e-17,0.16,left,0.6679571000859141,,,,,,,,,,,,,,,,,,,,,,,,,,,,,,,,,,,,,,,,,,,,,,,,,,,,,,,,,,,,LT28PH,train_y,red_square,top_right,2025-09-09_17h46.11.811,HideSeek_v1,2022.2.5,59.95326040334746,
,5,7,5,4,0,-3,13,,train_dim1_1,22,30,,,,2,0,2,0,,,,,,,,,0,0,0,0,0,21,21,21,7,0,7,0,,,,,,,,,,,,,,,,,,,,,,,,,,,,,,,,,,,,,,,,,,,,,,,,,,,,,,,,,,,,,,,,30,,,,,,,,563.8057812000625,563.8057812000625,563.8057812000625,563.8057812000625,563.8057812000625,return,0.49321599991526455,1,0,0,0,-2.7755575615628914e-17,0.16,return,0.4016854000510648,-12,-35,-2.7755575615628914e-17,0.16,,,,,,,,,,,,,,,,,,,,,,,,,,,,,,,,,,,,,,,,,,,,,,,,,,,,,,,,LT28PH,train_y,red_square,top_right,2025-09-09_17h46.11.811,HideSeek_v1,2022.2.5,59.95326040334746,
,5,8,5,3,0,-5,11,,train_dim1_1,23,30,,,,2,0,2,0,,,,,,,,,0,0,0,0,0,22,22,22,0,0,0,0,,,,,,,,,,,,,,,,,,,,,,,,,stimuli/alien_stimuli/11.png,,,,,,,,,,,,,,,,,,,,,,,,,,,,,stimuli/alien_stimuli/13.png,13,5,24,,,,,,,30,,,,,,,,568.500969100045,568.500969100045,568.500969100045,568.500969100045,568.500969100045,down,1.0197357999859378,1,0,0,99,0.24,0.15999999999999998,down,0.9419353000121191,,,,,566.9415502001066,568.500969100045,0.24,-0.08,0.24,0.0,0.04,0.24,0.24,0.24,-0.08,565.8739098000806,565.8739098000806,565.8739098000806,565.8739098000806,565.8739098000806,565.8739098000806,565.8739098000806,565.8739098000806,565.8739813800436,1.186643399996683,return,1.0481167000252753,,,,,,,,,,,,,,,,,,,,,,,,,,,,,,,,,LT28PH,train_y,red_square,top_right,2025-09-09_17h46.11.811,HideSeek_v1,2022.2.5,59.95326040334746,
,5,8,5,3,0,-5,11,,train_dim1_1,23,30,,,,2,0,2,0,,,,,,,,,0,0,0,0,0,22,22,22,1,0,1,0,,,,,,,,,,,,,,,,,,,,,,,,,,,,,,,,,,,,,,,,,,,,,,,,,,,,,,,,,,,,,,,,30,,,,,,,,569.5284876000369,569.5284876000369,569.5284876000369,569.5284876000369,569.5284876000369,up,1.2933893000008538,1,0,0,99,0.24,0.24,up,1.2012254999717698,,,,,,,,,,,,,,,,,,,,,,,,,,,,,,,,,,,,,,,,,,,,,,,,,,,,,,,,,,,,LT28PH,train_y,red_square,top_right,2025-09-09_17h46.11.811,HideSeek_v1,2022.2.5,59.95326040334746,
,5,8,5,3,0,-5,11,,train_dim1_1,23,30,,,,2,0,2,0,,,,,,,,,0,0,0,0,0,22,22,22,2,0,2,0,,,,,,,,,,,,,,,,,,,,,,,,,,,,,,,,,,,,,,,,,,,,,,,,,,,,,,,,,,,,,,,,30,,,,,,,,570.8298036000924,570.8298036000924,570.8298036000924,570.8298036000924,570.8298036000924,left,0.45916460000444204,1,0,0,99,0.15999999999999998,0.24,left,0.3683434999547899,,,,,,,,,,,,,,,,,,,,,,,,,,,,,,,,,,,,,,,,,,,,,,,,,,,,,,,,,,,,LT28PH,train_y,red_square,top_right,2025-09-09_17h46.11.811,HideSeek_v1,2022.2.5,59.95326040334746,
,5,8,5,3,0,-5,11,,train_dim1_1,23,30,,,,2,0,2,0,,,,,,,,,0,0,0,0,0,22,22,22,3,0,3,0,,,,,,,,,,,,,,,,,,,,,,,,,,,,,,,,,,,,,,,,,,,,,,,,,,,,,,,,,,,,,,,,30,,,,,,,,571.2959179000463,571.2959179000463,571.2959179000463,571.2959179000463,571.2959179000463,left,0.30993370001669973,1,0,0,99,0.07999999999999997,0.24,left,0.22772089997306466,,,,,,,,,,,,,,,,,,,,,,,,,,,,,,,,,,,,,,,,,,,,,,,,,,,,,,,,,,,,LT28PH,train_y,red_square,top_right,2025-09-09_17h46.11.811,HideSeek_v1,2022.2.5,59.95326040334746,
,5,8,5,3,0,-5,11,,train_dim1_1,23,30,,,,2,0,2,0,,,,,,,,,0,0,0,0,0,22,22,22,4,0,4,0,,,,,,,,,,,,,,,,,,,,,,,,,,,,,,,,,,,,,,,,,,,,,,,,,,,,,,,,,,,,,,,,30,,,,,,,,571.6117166000186,571.6117166000186,571.6117166000186,571.6117166000186,571.6117166000186,right,1.2774004000239074,1,0,0,99,0.15999999999999998,0.24,right,1.186352499993518,,,,,,,,,,,,,,,,,,,,,,,,,,,,,,,,,,,,,,,,,,,,,,,,,,,,,,,,,,,,LT28PH,train_y,red_square,top_right,2025-09-09_17h46.11.811,HideSeek_v1,2022.2.5,59.95326040334746,
,5,8,5,3,0,-5,11,,train_dim1_1,23,30,,,,2,0,2,0,,,,,,,,,0,0,0,0,0,22,22,22,5,0,5,0,,,,,,,,,,,,,,,,,,,,,,,,,,,,,,,,,,,,,,,,,,,,,,,,,,,,,,,,,,,,,,,,30,,,,,,,,572.8983479000162,572.8983479000162,572.8983479000162,572.8983479000162,572.8983479000162,right,0.32597320002969354,1,0,0,99,0.24,0.24,right,0.24909659998957068,,,,,,,,,,,,,,,,,,,,,,,,,,,,,,,,,,,,,,,,,,,,,,,,,,,,,,,,,,,,LT28PH,train_y,red_square,top_right,2025-09-09_17h46.11.811,HideSeek_v1,2022.2.5,59.95326040334746,
,5,8,5,3,0,-5,11,,train_dim1_1,23,30,,,,2,0,2,0,,,,,,,,,0,0,0,0,0,22,22,22,6,0,6,0,,,,,,,,,,,,,,,,,,,,,,,,,,,,,,,,,,,,,,,,,,,,,,,,,,,,,,,,,,,,,,,,30,,,,,,,,573.2308315000264,573.2308315000264,573.2308315000264,573.2308315000264,573.2308315000264,down,0.6600550999864936,1,0,0,99,0.24,0.15999999999999998,down,0.5792623000452295,,,,,,,,,,,,,,,,,,,,,,,,,,,,,,,,,,,,,,,,,,,,,,,,,,,,,,,,,,,,LT28PH,train_y,red_square,top_right,2025-09-09_17h46.11.811,HideSeek_v1,2022.2.5,59.95326040334746,
,5,8,5,3,0,-5,11,,train_dim1_1,23,30,,,,2,0,2,0,,,,,,,,,0,0,0,0,0,22,22,22,7,0,7,0,,,,,,,,,,,,,,,,,,,,,,,,,,,,,,,,,,,,,,,,,,,,,,,,,,,,,,,,,,,,,,,,30,,,,,,,,573.8987782000331,573.8987782000331,573.8987782000331,573.8987782000331,573.8987782000331,down,0.24321530002634972,1,0,0,99,0.24,0.07999999999999997,down,0.16038290003780276,,,,,,,,,,,,,,,,,,,,,,,,,,,,,,,,,,,,,,,,,,,,,,,,,,,,,,,,,,,,LT28PH,train_y,red_square,top_right,2025-09-09_17h46.11.811,HideSeek_v1,2022.2.5,59.95326040334746,
,5,8,5,3,0,-5,11,,train_dim1_1,23,30,,,,2,0,2,0,,,,,,,,,0,0,0,0,0,22,22,22,8,0,8,0,,,,,,,,,,,,,,,,,,,,,,,,,,,,,,,,,,,,,,,,,,,,,,,,,,,,,,,,,,,,,,,,30,,,,,,,,574.1489033000544,574.1489033000544,574.1489033000544,574.1489033000544,574.1489033000544,up,0.8604212000500411,1,0,0,99,0.24,0.15999999999999998,up,0.7729297999758273,,,,,,,,,,,,,,,,,,,,,,,,,,,,,,,,,,,,,,,,,,,,,,,,,,,,,,,,,,,,LT28PH,train_y,red_square,top_right,2025-09-09_17h46.11.811,HideSeek_v1,2022.2.5,59.95326040334746,
,5,8,5,3,0,-5,11,,train_dim1_1,23,30,,,,2,0,2,0,,,,,,,,,0,0,0,0,0,22,22,22,9,0,9,0,,,,,,,,,,,,,,,,,,,,,,,,,,,,,,,,,,,,,,,,,,,,,,,,,,,,,,,,,,,,,,,,30,,,,,,,,575.0154875000007,575.0154875000007,575.0154875000007,575.0154875000007,575.0154875000007,return,0.3099042000249028,1,0,0,0,0.24,0.15999999999999998,return,0.23364069999661297,-13,-35,0.24,0.15999999999999998,,,,,,,,,,,,,,,,,,,,,,,,,,,,,,,,,,,,,,,,,,,,,,,,,,,,,,,,LT28PH,train_y,red_square,top_right,2025-09-09_17h46.11.811,HideSeek_v1,2022.2.5,59.95326040334746,
,8,7,8,7,0,0,16,,train_dim1_1,24,30,,,,2,0,2,0,,,,,,,,,0,0,0,0,0,23,23,23,0,0,0,0,,,,,,,,,,,,,,,,,,,,,,,,,stimuli/alien_stimuli/16.png,,,,,,,,,,,,,,,,,,,,,,,,,,,,,stimuli/alien_stimuli/11.png,11,5,25,,,,,,,30,,,,,,,,579.7130039000185,579.7130039000185,579.7130039000185,579.7130039000185,579.7130039000185,return,1.4852044999133795,2,0,0,1,0.48,0.16,return,1.395791899994947,-13,-35,0.48,0.16,578.1507743000984,579.7130039000185,0.24,-0.16,0.4,0.0,0.039999999999999994,0.24,0.24,0.24,-0.16,576.8841954000527,576.8841954000527,576.8841954000527,576.8841954000527,576.8841954000527,576.8841954000527,576.8841954000527,576.8841954000527,576.8829442699557,1.3703657999867573,return,1.250156700029038,,,,,,,,,,,,,,,,,,,,,,,,,,,,,,,,,LT28PH,train_y,red_square,top_right,2025-09-09_17h46.11.811,HideSeek_v1,2022.2.5,59.95326040334746,
,8,8,8,4,0,-4,12,,train_dim1_1,25,30,,,,2,0,2,0,,,,,,,,,0,0,0,0,0,24,24,24,0,0,0,0,,,,,,,,,,,,,,,,,,,,,,,,,stimuli/alien_stimuli/12.png,,,,,,,,,,,,,,,,,,,,,,,,,,,,,stimuli/alien_stimuli/16.png,16,8,26,,,,,,,30,,,,,,,,586.0479286001064,586.0479286001064,586.0479286001064,586.0479286001064,586.0479286001064,down,1.5880878999596462,2,0,0,99,0.48,0.15999999999999998,down,1.5091342000523582,,,,,584.48933640006,586.0479286001064,0.48,0.16,0.0,0.0,0.16,0.48,0.48,0.48,0.16,582.7534320000559,582.7534320000559,582.7534320000559,582.7534320000559,582.7534320000559,582.7534320000559,582.7534320000559,582.7534320000559,582.7544899699628,1.8370230000000447,return,1.7189385999226943,,,,,,,,,,,,,,,,,,,,,,,,,,,,,,,,,LT28PH,train_y,red_square,top_right,2025-09-09_17h46.11.811,HideSeek_v1,2022.2.5,59.95326040334746,
,8,8,8,4,0,-4,12,,train_dim1_1,25,30,,,,2,0,2,0,,,,,,,,,0,0,0,0,0,24,24,24,1,0,1,0,,,,,,,,,,,,,,,,,,,,,,,,,,,,,,,,,,,,,,,,,,,,,,,,,,,,,,,,,,,,,,,,30,,,,,,,,587.6440180001082,587.6440180001082,587.6440180001082,587.6440180001082,587.6440180001082,down,0.3261315000709146,2,0,0,99,0.48,0.07999999999999997,down,0.23886420007329434,,,,,,,,,,,,,,,,,,,,,,,,,,,,,,,,,,,,,,,,,,,,,,,,,,,,,,,,,,,,LT28PH,train_y,red_square,top_right,2025-09-09_17h46.11.811,HideSeek_v1,2022.2.5,59.95326040334746,
,8,8,8,4,0,-4,12,,train_dim1_1,25,30,,,,2,0,2,0,,,,,,,,,0,0,0,0,0,24,24,24,2,0,2,0,,,,,,,,,,,,,,,,,,,,,,,,,,,,,,,,,,,,,,,,,,,,,,,,,,,,,,,,,,,,,,,,30,,,,,,,,587.9759346001083,587.9759346001083,587.9759346001083,587.9759346001083,587.9759346001083,down,0.6936017000116408,2,0,0,99,0.48,-2.7755575615628914e-17,down,0.6122515000170097,,,,,,,,,,,,,,,,,,,,,,,,,,,,,,,,,,,,,,,,,,,,,,,,,,,,,,,,,,,,LT28PH,train_y,red_square,top_right,2025-09-09_17h46.11.811,HideSeek_v1,2022.2.5,59.95326040334746,
,8,8,8,4,0,-4,12,,train_dim1_1,25,30,,,,2,0,2,0,,,,,,,,,0,0,0,0,0,24,24,24,3,0,3,0,,,,,,,,,,,,,,,,,,,,,,,,,,,,,,,,,,,,,,,,,,,,,,,,,,,,,,,,,,,,,,,,30,,,,,,,,588.6775256000692,588.6775256000692,588.6775256000692,588.6775256000692,588.6775256000692,return,0.6267885999986902,2,1,0,0,0.48,-2.7755575615628914e-17,return,0.5440929000033066,-16,-35,0.48,-2.7755575615628914e-17,,,,,,,,,,,,,,,,,,,,,,,,,,,,,,,,,,,,,,,,,,,,,,,,,,,,,,,,LT28PH,train_y,red_square,top_right,2025-09-09_17h46.11.811,HideSeek_v1,2022.2.5,59.95326040334746,
,9,9,9,6,0,-3,13,,train_dim1_1,26,30,,,,2,0,2,0,,,,,,,,,0,0,0,0,0,25,25,25,0,0,0,0,,,,,,,,,,,,,,,,,,,,,,,,,stimuli/alien_stimuli/13.png,,,,,,,,,,,,,,,,,,,,,,,,,,,,,stimuli/alien_stimuli/12.png,12,8,27,,,,,,,30,,,,,,,,595.6426929000299,595.6426929000299,595.6426929000299,595.6426929000299,595.6426929000299,left,1.283880200004205,2,1,0,99,0.48000000000000004,0.32,left,1.1953110999893397,,,,,594.0805768000428,595.6426929000299,0.48,-0.08,0.32,0.0,0.07999999999999999,0.48,0.48,0.48,-0.08,590.8617339000339,590.8617339000339,590.8617339000339,590.8617339000339,590.8617339000339,590.8617339000339,590.8617339000339,590.8617339000339,590.8611142699724,3.32202160009183,return,3.200883600045927,,,,,,,,,,,,,,,,,,,,,,,,,,,,,,,,,LT28PH,train_y,red_square,top_right,2025-09-09_17h46.11.811,HideSeek_v1,2022.2.5,59.95326040334746,
,9,9,9,6,0,-3,13,,train_dim1_1,26,30,,,,2,0,2,0,,,,,,,,,0,0,0,0,0,25,25,25,1,0,1,0,,,,,,,,,,,,,,,,,,,,,,,,,,,,,,,,,,,,,,,,,,,,,,,,,,,,,,,,,,,,,,,,30,,,,,,,,596.9354316000827,596.9354316000827,596.9354316000827,596.9354316000827,596.9354316000827,right,1.5095712000038475,2,1,0,99,0.56,0.32,right,1.4272633999353275,,,,,,,,,,,,,,,,,,,,,,,,,,,,,,,,,,,,,,,,,,,,,,,,,,,,,,,,,,,,LT28PH,train_y,red_square,top_right,2025-09-09_17h46.11.811,HideSeek_v1,2022.2.5,59.95326040334746,
,9,9,9,6,0,-3,13,,train_dim1_1,26,30,,,,2,0,2,0,,,,,,,,,0,0,0,0,0,25,25,25,2,0,2,0,,,,,,,,,,,,,,,,,,,,,,,,,,,,,,,,,,,,,,,,,,,,,,,,,,,,,,,,,,,,,,,,30,,,,,,,,598.4506981000304,598.4506981000304,598.4506981000304,598.4506981000304,598.4506981000304,down,0.46008260000962764,2,1,0,99,0.56,0.24,down,0.37910360004752874,,,,,,,,,,,,,,,,,,,,,,,,,,,,,,,,,,,,,,,,,,,,,,,,,,,,,,,,,,,,LT28PH,train_y,red_square,top_right,2025-09-09_17h46.11.811,HideSeek_v1,2022.2.5,59.95326040334746,
,9,9,9,6,0,-3,13,,train_dim1_1,26,30,,,,2,0,2,0,,,,,,,,,0,0,0,0,0,25,25,25,3,0,3,0,,,,,,,,,,,,,,,,,,,,,,,,,,,,,,,,,,,,,,,,,,,,,,,,,,,,,,,,,,,,,,,,30,,,,,,,,598.9184387000278,598.9184387000278,598.9184387000278,598.9184387000278,598.9184387000278,return,0.5265363999642432,2,0,0,0,0.56,0.24,return,0.44844529998954386,-17,-35,0.56,0.24,,,,,,,,,,,,,,,,,,,,,,,,,,,,,,,,,,,,,,,,,,,,,,,,,,,,,,,,LT28PH,train_y,red_square,top_right,2025-09-09_17h46.11.811,HideSeek_v1,2022.2.5,59.95326040334746,
,8,9,8,9,0,0,16,,train_dim1_1,27,30,,,,2,0,2,0,,,,,,,,,0,0,0,0,0,26,26,26,0,0,0,0,,,,,,,,,,,,,,,,,,,,,,,,,stimuli/alien_stimuli/16.png,,,,,,,,,,,,,,,,,,,,,,,,,,,,,stimuli/alien_stimuli/13.png,13,9,28,,,,,,,30,,,,,,,,604.7331065000035,604.7331065000035,604.7331065000035,604.7331065000035,604.7331065000035,return,1.2507464999798685,3,0,0,1,0.48,0.32,return,1.16825670003891,-17,-35,0.48,0.32,603.1715582000325,604.7331065000035,0.56,0.08,0.24,0.0,0.2,0.56,0.56,0.56,0.08,600.9999096000101,600.9999096000101,600.9999096000101,600.9999096000101,600.9999096000101,600.9999096000101,600.9999096000101,600.9999096000101,600.9858652600553,2.2713212000671774,return,2.1415908000199124,,,,,,,,,,,,,,,,,,,,,,,,,,,,,,,,,LT28PH,train_y,red_square,top_right,2025-09-09_17h46.11.811,HideSeek_v1,2022.2.5,59.95326040334746,
,9,6,9,1,0,-5,11,,train_dim1_1,28,30,,,,2,0,2,0,,,,,,,,,0,0,0,0,0,27,27,27,0,0,0,0,,,,,,,,,,,,,,,,,,,,,,,,,stimuli/alien_stimuli/11.png,,,,,,,,,,,,,,,,,,,,,,,,,,,,,stimuli/alien_stimuli/16.png,16,8,29,,,,,,,30,,,,,,,,610.3028054001043,610.3028054001043,610.3028054001043,610.3028054001043,610.3028054001043,down,2.4205954999197274,3,0,0,99,0.56,0.0,down,2.334758900105953,,,,,608.7426290001022,610.3028054001043,0.48,0.32,0.0,0.0,0.32,0.48,0.48,0.48,0.32,607.5421386000235,607.5421386000235,607.5421386000235,607.5421386000235,607.5421386000235,607.5421386000235,607.5421386000235,607.5421386000235,607.5419775699615,1.302836799994111,return,1.1712028000038117,,,,,,,,,,,,,,,,,,,,,,,,,,,,,,,,,LT28PH,train_y,red_square,top_right,2025-09-09_17h46.11.811,HideSeek_v1,2022.2.5,59.95326040334746,
,9,6,9,1,0,-5,11,,train_dim1_1,28,30,,,,2,0,2,0,,,,,,,,,0,0,0,0,0,27,27,27,1,0,1,0,,,,,,,,,,,,,,,,,,,,,,,,,,,,,,,,,,,,,,,,,,,,,,,,,,,,,,,,,,,,,,,,30,,,,,,,,612.7321429000003,612.7321429000003,612.7321429000003,612.7321429000003,612.7321429000003,return,0.424851999967359,3,0,0,0,0.56,0.0,return,0.3375331999268383,-18,-35,0.56,0.0,,,,,,,,,,,,,,,,,,,,,,,,,,,,,,,,,,,,,,,,,,,,,,,,,,,,,,,,LT28PH,train_y,red_square,top_right,2025-09-09_17h46.11.811,HideSeek_v1,2022.2.5,59.95326040334746,
,7,7,7,3,0,-4,12,,train_dim1_1,29,30,,,,2,0,2,0,,,,,,,,,0,0,0,0,0,28,28,28,0,0,0,0,,,,,,,,,,,,,,,,,,,,,,,,,stimuli/alien_stimuli/12.png,,,,,,,,,,,,,,,,,,,,,,,,,,,,,stimuli/alien_stimuli/11.png,11,9,30,,,,,,,30,,,,,,,,617.3754442000063,617.3754442000063,617.3754442000063,617.3754442000063,617.3754442000063,down,1.369672300061211,3,0,0,99,0.4,0.08,down,1.2917755999369547,,,,,615.8155091000954,617.3754442000063,0.56,-0.32,0.4,0.0,-0.12,0.56,0.56,0.56,-0.32,614.715122200083,614.715122200083,614.715122200083,614.715122200083,614.715122200083,614.715122200083,614.715122200083,614.715122200083,614.714569570066,1.2030030000023544,return,1.0686104000778869,,,,,,,,,,,,,,,,,,,,,,,,,,,,,,,,,LT28PH,train_y,red_square,top_right,2025-09-09_17h46.11.811,HideSeek_v1,2022.2.5,59.95326040334746,
,7,7,7,3,0,-4,12,,train_dim1_1,29,30,,,,2,0,2,0,,,,,,,,,0,0,0,0,0,28,28,28,1,0,1,0,,,,,,,,,,,,,,,,,,,,,,,,,,,,,,,,,,,,,,,,,,,,,,,,,,,,,,,,,,,,,,,,30,,,,,,,,618.7526422000956,618.7526422000956,618.7526422000956,618.7526422000956,618.7526422000956,down,0.426132999942638,3,0,0,99,0.4,0.0,down,0.3471523999469355,,,,,,,,,,,,,,,,,,,,,,,,,,,,,,,,,,,,,,,,,,,,,,,,,,,,,,,,,,,,LT28PH,train_y,red_square,top_right,2025-09-09_17h46.11.811,HideSeek_v1,2022.2.5,59.95326040334746,
,7,7,7,3,0,-4,12,,train_dim1_1,29,30,,,,2,0,2,0,,,,,,,,,0,0,0,0,0,28,28,28,2,0,2,0,,,,,,,,,,,,,,,,,,,,,,,,,,,,,,,,,,,,,,,,,,,,,,,,,,,,,,,,,,,,,,,,30,,,,,,,,619.1855538000818,619.1855538000818,619.1855538000818,619.1855538000818,619.1855538000818,down,0.4937486000126228,3,0,0,99,0.4,-0.08,down,0.408854000037536,,,,,,,,,,,,,,,,,,,,,,,,,,,,,,,,,,,,,,,,,,,,,,,,,,,,,,,,,,,,LT28PH,train_y,red_square,top_right,2025-09-09_17h46.11.811,HideSeek_v1,2022.2.5,59.95326040334746,
,7,7,7,3,0,-4,12,,train_dim1_1,29,30,,,,2,0,2,0,,,,,,,,,0,0,0,0,0,28,28,28,3,0,3,0,,,,,,,,,,,,,,,,,,,,,,,,,,,,,,,,,,,,,,,,,,,,,,,,,,,,,,,,,,,,,,,,30,,,,,,,,619.6869225000264,619.6869225000264,619.6869225000264,619.6869225000264,619.6869225000264,up,2.962140499963425,3,0,0,99,0.4,0.0,up,2.8843950000591576,,,,,,,,,,,,,,,,,,,,,,,,,,,,,,,,,,,,,,,,,,,,,,,,,,,,,,,,,,,,LT28PH,train_y,red_square,top_right,2025-09-09_17h46.11.811,HideSeek_v1,2022.2.5,59.95326040334746,
