trialInstr,x_fixStart,y_fixStart,x_corrSteps,y_corrSteps,x_nrSteps,y_nrSteps,alienID,trialLength,version,trialTrain,praclen,testlen,trial_label,break_on_off,beforeExpLoop.thisRepN,beforeExpLoop.thisTrialN,beforeExpLoop.thisN,beforeExpLoop.thisIndex,mini_instr_trials.thisRepN,mini_instr_trials.thisTrialN,mini_instr_trials.thisN,mini_instr_trials.thisIndex,instrLoop.thisRepN,instrLoop.thisTrialN,instrLoop.thisN,instrLoop.thisIndex,repeat_prac.thisRepN,repeat_prac.thisTrialN,repeat_prac.thisN,repeat_prac.thisIndex,trainLoop.thisRepN,trainLoop.thisTrialN,trainLoop.thisN,trainLoop.thisIndex,moveLoop_train.thisRepN,moveLoop_train.thisTrialN,moveLoop_train.thisN,moveLoop_train.thisIndex,experiment.thisRepN,experiment.thisTrialN,experiment.thisN,experiment.thisIndex,moveLoop_test.thisRepN,moveLoop_test.thisTrialN,moveLoop_test.thisN,moveLoop_test.thisIndex,mini_instr2_trials.thisRepN,mini_instr2_trials.thisTrialN,mini_instr2_trials.thisN,mini_instr2_trials.thisIndex,start_all_time,url,slideStim,audioStim,slides.started,sounds.started,nextButton.numClicks,nextButton.timesOn,nextButton.timesOff,prev_but.numClicks,prev_but.timesOn,prev_but.timesOff,alienStim,instrFile,alienStim_instr,gridImage_instr.started,startPos_3.started,key_instr.started,alienImage_3.started,sounds_1.started,key_instr.keys,key_instr.rt,all_x,all_y,FBy_corrSteps,FBy_fixStart,FBx_corrSteps,FBx_fixStart,FBy_pathSize_check,FBx_pathSize_check,gridImage_9.started,alienImageFB_3.started,startPosFB_3.started,keyFB_3.started,pathLine_ydir_2.started,pathLine_xdir_2.started,alienFace_3.started,sounds_2.started,RTFB_instr,keyFB_3.keys,keyFB_3.rt,draw_alienStim,draw_alienID,test_x,nrepcount,perfthres,percthres,earlierperf,earlystop,nextPrac,fileidx,praclen,saveACC_train,pracFile,nextPrac_train,addNrep,fileidx_endr,repExp,showearly,gridImage_4.started,startPos.started,movePos.started,key_resp.started,alienImage.started,buttonPress_train,RTchoice_train,cumAcctrain,aCorr,saveACC_choice,corrAns,x_movePos_end,y_movePos_end,key_resp.keys,key_resp.rt,wLy_dir,wLx_dir,x_movePos,y_movePos,text_2.started,text_2.stopped,aft_x_corrPos,aft_y_corrPos,y_pathSize_check,x_pathSize_check,y_pathdirY,x_pathdirY,x_pathdirX,x_corrPos,y_corrPos,gridImage_6.started,alienImageFB_2.started,startPosFB_2.started,movePosFB_2.started,keyFB_2.started,pathLine_xdir.started,pathLine_ydir.started,alienFace.started,sounds_4.started,RT_FBtrain,keyFB_2.keys,keyFB_2.rt,saveACC_pre,ACC,within_saveACC_train,earlystop_wloop,cumAcctrain_check,gridImage_3.started,alienImage_test.started,startPos_test.started,movePos_test.started,key_resp_test.started,wLy_dir_test,wLx_dir_test,buttonPress_test,RTchoice_test,cumAcctest,corrAns_test,key_resp_test.keys,key_resp_test.rt,text_3.started,text_3.stopped,total_time,end_all_time,key_resp_3.keys,slides_2.started,sounds_3.started,nextButton_2.numClicks,nextButton_2.timesOn,nextButton_2.timesOff,prev_but_2.numClicks,prev_but_2.timesOn,prev_but_2.timesOff,bye.started,participant,train_first,00_coordinate,starting corner,date,expName,psychopyVersion,frameRate,
,,,,,,,,,,,,,,,0,0,0,0,0,0,0,0,,,,,,,,,,,,,,,,,,,,,,,,,,,,,start_all_time,testround,conditions/schedules/train_y_first/red_square_00/bottom_left/instructions/Slide1.png,conditions/schedules/train_y_first/red_square_00/bottom_left/instructions/Audio1.wav,107.99576800002251,107.93982563006576,1,[7.855027900019195],[7.855035100015812],0,,,,,,,,,,,,,,,,,,,,,,,,,,,,,,,,,,,,,,,,,,,,,,,,,,,,,,,,,,,,,,,,,,,,,,,,,,,,,,,,,,,,,,,,,,,,,,,,,,,,,,,,,,,,,,,,,,,,,,,,,,,,LU88XK,train_y,red_square,bottom_left,2025-05-12_16h50.54.326,HideSeek_v1,2022.2.5,59.95333233369406,
,,,,,,,,,,,,,,,0,0,0,0,1,0,1,0,,,,,,,,,,,,,,,,,,,,,,,,,,,,,,,conditions/schedules/train_y_first/red_square_00/bottom_left/instructions/Slide2.png,conditions/schedules/train_y_first/red_square_00/bottom_left/instructions/Audio2.wav,115.8715948999743,115.85791747998447,2,"[7.855027900019195, 19.150063599983696]","[0.03426369995577261, 19.150069499970414]",0,,,,,,,,,,,,,,,,,,,,,,,,,,,,,,,,,,,,,,,,,,,,,,,,,,,,,,,,,,,,,,,,,,,,,,,,,,,,,,,,,,,,,,,,,,,,,,,,,,,,,,,,,,,,,,,,,,,,,,,,,,,,LU88XK,train_y,red_square,bottom_left,2025-05-12_16h50.54.326,HideSeek_v1,2022.2.5,59.95333233369406,
,,,,,,,,,,,,,,,0,0,0,0,2,0,2,0,,,,,,,,,,,,,,,,,,,,,,,,,,,,,,,conditions/schedules/train_y_first/red_square_00/bottom_left/instructions/Slide3.png,conditions/schedules/train_y_first/red_square_00/bottom_left/instructions/Audio3.wav,135.0925393999787,135.09045185000286,3,"[7.855027900019195, 19.150063599983696, 16.375520500005223]","[0.03426369995577261, 0.046641600027214736, 16.375526899995748]",0,,,,,,,,,,,,,,,,,,,,,,,,,,,,,,,,,,,,,,,,,,,,,,,,,,,,,,,,,,,,,,,,,,,,,,,,,,,,,,,,,,,,,,,,,,,,,,,,,,,,,,,,,,,,,,,,,,,,,,,,,,,,LU88XK,train_y,red_square,bottom_left,2025-05-12_16h50.54.326,HideSeek_v1,2022.2.5,59.95333233369406,
,,,,,,,,,,,,,,,0,0,0,0,3,0,3,0,,,,,,,,,,,,,,,,,,,,,,,,,,,,,,,conditions/schedules/train_y_first/red_square_00/bottom_left/instructions/Slide4.png,conditions/schedules/train_y_first/red_square_00/bottom_left/instructions/Audio4.wav,151.54836379998596,151.53721075001522,4,"[7.855027900019195, 19.150063599983696, 16.375520500005223, 19.185530700022355]","[0.03426369995577261, 0.046641600027214736, 0.014228500018361956, 19.18553710001288]",0,,,,,,,,,,,,,,,,,,,,,,,,,,,,,,,,,,,,,,,,,,,,,,,,,,,,,,,,,,,,,,,,,,,,,,,,,,,,,,,,,,,,,,,,,,,,,,,,,,,,,,,,,,,,,,,,,,,,,,,,,,,,LU88XK,train_y,red_square,bottom_left,2025-05-12_16h50.54.326,HideSeek_v1,2022.2.5,59.95333233369406,
,,,,,,,,,,,,,,,0,0,0,0,4,0,4,0,,,,,,,,,,,,,,,,,,,,,,,,,,,,,,,conditions/schedules/train_y_first/red_square_00/bottom_left/instructions/Slide5.png,conditions/schedules/train_y_first/red_square_00/bottom_left/instructions/Audio5.wav,170.8041128999903,170.80321865002043,5,"[7.855027900019195, 19.150063599983696, 16.375520500005223, 19.185530700022355, 4.067256900016218]","[0.03426369995577261, 0.046641600027214736, 0.014228500018361956, 0.014259200019296259, 4.067264800018165]",0,,,,,,,,,,,,,,,,,,,,,,,,,,,,,,,,,,,,,,,,,,,,,,,,,,,,,,,,,,,,,,,,,,,,,,,,,,,,,,,,,,,,,,,,,,,,,,,,,,,,,,,,,,,,,,,,,,,,,,,,,,,,LU88XK,train_y,red_square,bottom_left,2025-05-12_16h50.54.326,HideSeek_v1,2022.2.5,59.95333233369406,
,,,,,,,,,,,,,,,0,0,0,0,5,0,5,0,,,,,,,,,,,,,,,,,,,,,,,,,,,,,,,conditions/schedules/train_y_first/red_square_00/bottom_left/instructions/Slide6.png,conditions/schedules/train_y_first/red_square_00/bottom_left/instructions/Audio6.wav,174.92163769999752,174.92334717999913,6,"[7.855027900019195, 19.150063599983696, 16.375520500005223, 19.185530700022355, 4.067256900016218, 4.553050199989229]","[0.03426369995577261, 0.046641600027214736, 0.014228500018361956, 0.014259200019296259, 0.0662919000023976, 4.553057099983562]",0,,,,,,,,,,,,,,,,,,,,,,,,,,,,,,,,,,,,,,,,,,,,,,,,,,,,,,,,,,,,,,,,,,,,,,,,,,,,,,,,,,,,,,,,,,,,,,,,,,,,,,,,,,,,,,,,,,,,,,,,,,,,LU88XK,train_y,red_square,bottom_left,2025-05-12_16h50.54.326,HideSeek_v1,2022.2.5,59.95333233369406,
,,,,,,,,,,,,,,,0,0,0,0,6,0,6,0,,,,,,,,,,,,,,,,,,,,,,,,,,,,,,,conditions/schedules/train_y_first/red_square_00/bottom_left/instructions/Slide7.png,conditions/schedules/train_y_first/red_square_00/bottom_left/instructions/Audio7.wav,179.52592949999962,179.52698697998423,7,"[7.855027900019195, 19.150063599983696, 16.375520500005223, 19.185530700022355, 4.067256900016218, 4.553050199989229, 5.7372363999602385]","[0.03426369995577261, 0.046641600027214736, 0.014228500018361956, 0.014259200019296259, 0.0662919000023976, 0.0492886999854818, 5.737243299954571]",0,,,,,,,,,,,,,,,,,,,,,,,,,,,,,,,,,,,,,,,,,,,,,,,,,,,,,,,,,,,,,,,,,,,,,,,,,,,,,,,,,,,,,,,,,,,,,,,,,,,,,,,,,,,,,,,,,,,,,,,,,,,,LU88XK,train_y,red_square,bottom_left,2025-05-12_16h50.54.326,HideSeek_v1,2022.2.5,59.95333233369406,
,,,,,,,,,,,,,,,0,0,0,0,7,0,7,0,,,,,,,,,,,,,,,,,,,,,,,,,,,,,,,conditions/schedules/train_y_first/red_square_00/bottom_left/instructions/Slide8.png,conditions/schedules/train_y_first/red_square_00/bottom_left/instructions/Audio8.wav,185.3166245999746,185.31532917997103,8,"[7.855027900019195, 19.150063599983696, 16.375520500005223, 19.185530700022355, 4.067256900016218, 4.553050199989229, 5.7372363999602385, 11.338858200004324]","[0.03426369995577261, 0.046641600027214736, 0.014228500018361956, 0.014259200019296259, 0.0662919000023976, 0.0492886999854818, 0.030513300036545843, 11.338864499994088]",0,,,,,,,,,,,,,,,,,,,,,,,,,,,,,,,,,,,,,,,,,,,,,,,,,,,,,,,,,,,,,,,,,,,,,,,,,,,,,,,,,,,,,,,,,,,,,,,,,,,,,,,,,,,,,,,,,,,,,,,,,,,,LU88XK,train_y,red_square,bottom_left,2025-05-12_16h50.54.326,HideSeek_v1,2022.2.5,59.95333233369406,
,,,,,,,,,,,,,,,0,0,0,0,8,0,8,0,,,,,,,,,,,,,,,,,,,,,,,,,,,,,,,conditions/schedules/train_y_first/red_square_00/bottom_left/instructions/Slide9.png,conditions/schedules/train_y_first/red_square_00/bottom_left/instructions/Audio9.wav,196.72611529997084,196.7246282500273,9,"[7.855027900019195, 19.150063599983696, 16.375520500005223, 19.185530700022355, 4.067256900016218, 4.553050199989229, 5.7372363999602385, 11.338858200004324, 5.450806199980434]","[0.03426369995577261, 0.046641600027214736, 0.014228500018361956, 0.014259200019296259, 0.0662919000023976, 0.0492886999854818, 0.030513300036545843, 0.06503659998998046, 5.450813300034497]",0,,,,,,,,,,,,,,,,,,,,,,,,,,,,,,,,,,,,,,,,,,,,,,,,,,,,,,,,,,,,,,,,,,,,,,,,,,,,,,,,,,,,,,,,,,,,,,,,,,,,,,,,,,,,,,,,,,,,,,,,,,,,LU88XK,train_y,red_square,bottom_left,2025-05-12_16h50.54.326,HideSeek_v1,2022.2.5,59.95333233369406,
,,,,,,,,,,,,,,,0,0,0,0,9,0,9,0,,,,,,,,,,,,,,,,,,,,,,,,,,,,,,,conditions/schedules/train_y_first/red_square_00/bottom_left/instructions/Slide10.png,conditions/schedules/train_y_first/red_square_00/bottom_left/instructions/Audio10.wav,202.2152387999813,202.2126064099779,10,"[7.855027900019195, 19.150063599983696, 16.375520500005223, 19.185530700022355, 4.067256900016218, 4.553050199989229, 5.7372363999602385, 11.338858200004324, 5.450806199980434, 7.317363999958616]","[0.03426369995577261, 0.046641600027214736, 0.014228500018361956, 0.014259200019296259, 0.0662919000023976, 0.0492886999854818, 0.030513300036545843, 0.06503659998998046, 0.08021409995853901, 7.317370900011156]",0,,,,,,,,,,,,,,,,,,,,,,,,,,,,,,,,,,,,,,,,,,,,,,,,,,,,,,,,,,,,,,,,,,,,,,,,,,,,,,,,,,,,,,,,,,,,,,,,,,,,,,,,,,,,,,,,,,,,,,,,,,,,LU88XK,train_y,red_square,bottom_left,2025-05-12_16h50.54.326,HideSeek_v1,2022.2.5,59.95333233369406,
,,,,,,,,,,,,,,,0,0,0,0,10,0,10,0,,,,,,,,,,,,,,,,,,,,,,,,,,,,,,,conditions/schedules/train_y_first/red_square_00/bottom_left/instructions/Slide11.png,conditions/schedules/train_y_first/red_square_00/bottom_left/instructions/Audio11.wav,209.57297779998044,209.56868950999925,11,"[7.855027900019195, 19.150063599983696, 16.375520500005223, 19.185530700022355, 4.067256900016218, 4.553050199989229, 5.7372363999602385, 11.338858200004324, 5.450806199980434, 7.317363999958616, 9.701492799969856]","[0.03426369995577261, 0.046641600027214736, 0.014228500018361956, 0.014259200019296259, 0.0662919000023976, 0.0492886999854818, 0.030513300036545843, 0.06503659998998046, 0.08021409995853901, 0.08055869996314868, 9.701499699964188]",0,,,,,,,,,,,,,,,,,,,,,,,,,,,,,,,,,,,,,,,,,,,,,,,,,,,,,,,,,,,,,,,,,,,,,,,,,,,,,,,,,,,,,,,,,,,,,,,,,,,,,,,,,,,,,,,,,,,,,,,,,,,,LU88XK,train_y,red_square,bottom_left,2025-05-12_16h50.54.326,HideSeek_v1,2022.2.5,59.95333233369406,
,,,,,,,,,,,,,,,0,0,0,0,11,0,11,0,,,,,,,,,,,,,,,,,,,,,,,,,,,,,,,conditions/schedules/train_y_first/red_square_00/bottom_left/instructions/Slide12.png,conditions/schedules/train_y_first/red_square_00/bottom_left/instructions/Audio12.wav,219.3279231999768,219.32676787999227,12,"[7.855027900019195, 19.150063599983696, 16.375520500005223, 19.185530700022355, 4.067256900016218, 4.553050199989229, 5.7372363999602385, 11.338858200004324, 5.450806199980434, 7.317363999958616, 9.701492799969856, 13.590912399988156]","[0.03426369995577261, 0.046641600027214736, 0.014228500018361956, 0.014259200019296259, 0.0662919000023976, 0.0492886999854818, 0.030513300036545843, 0.06503659998998046, 0.08021409995853901, 0.08055869996314868, 0.07928459998220205, 13.590918399975635]",0,,,,,,,,,,,,,,,,,,,,,,,,,,,,,,,,,,,,,,,,,,,,,,,,,,,,,,,,,,,,,,,,,,,,,,,,,,,,,,,,,,,,,,,,,,,,,,,,,,,,,,,,,,,,,,,,,,,,,,,,,,,,LU88XK,train_y,red_square,bottom_left,2025-05-12_16h50.54.326,HideSeek_v1,2022.2.5,59.95333233369406,
1,2,3,2,8,0,5,11,2,instr_dim1_1,,,,,,0,0,0,0,,,,,0,0,0,0,,,,,,,,,,,,,,,,,,,,,,,,,,,,,,,,,,,,,stimuli/alien_stimuli/11.png,conditions/schedules/train_y_first/red_square_00/bottom_left/inputInstr_1.xlsx,stimuli/alien_stimuli/11.png,233.023718499986,233.023718499986,233.023718499986,233.023718499986,233.02176859002213,return,13.110164600017015,"[-0.16, -0.08, 0, 0.08, 0.16, 0.24, 0.32, 0.4, 0.48, 0.56]","[-0.4, -0.32, -0.24, -0.16, -0.08, 0, 0.08, 0.16, 0.24, 0.32]",8,3,2,2,0.4,0.0,246.30314390000422,246.30314390000422,246.30314390000422,246.30314390000422,246.30314390000422,246.30314390000422,246.30314390000422,246.29911053002,35.263577199948486,return,35.09649620001437,stimuli/alien_stimuli/11.png,11,2,1,,,,,,,,,,,,,,,,,,,,,,,,,,,,,,,,,,,,,,,,,,,,,,,,,,,,,,,,,,,,,,,,,,,,,,,,,,,,,,,,,,,,,,,,,LU88XK,train_y,red_square,bottom_left,2025-05-12_16h50.54.326,HideSeek_v1,2022.2.5,59.95333233369406,
,,,,,,,,,,,30,,,,0,0,0,0,,,,,,,,,,,,,,,,,,,,,,,,,,,,,,,,,,,,,,,,,,,,,,,,,,,,,,,,,,,,,,,,,,,,,,,,,,,,,,21,0.7,0,0,99,1,30,0,conditions/schedules/train_y_first/red_square_00/bottom_left/inputTrain_1.1.xlsx,99,1,1,1,0,,,,,,,,,,,,,,,,,,,,,,,,,,,,,,,,,,,,,,,,,,,,,,,,,,,,,,,,,,,,,,,,,,,,,,,,,,,LU88XK,train_y,red_square,bottom_left,2025-05-12_16h50.54.326,HideSeek_v1,2022.2.5,59.95333233369406,
,,,,,,,,,,,,,,,1,0,1,0,0,0,0,0,,,,,,,,,,,,,,,,,,,,,,,,,,,,,,,conditions/schedules/train_y_first/red_square_00/bottom_left/instructions/Slide13.png,conditions/schedules/train_y_first/red_square_00/bottom_left/instructions/Audio13.wav,281.5669458999764,281.56167013001976,13,"[7.855027900019195, 19.150063599983696, 16.375520500005223, 19.185530700022355, 4.067256900016218, 4.553050199989229, 5.7372363999602385, 11.338858200004324, 5.450806199980434, 7.317363999958616, 9.701492799969856, 13.590912399988156, 17.523400700010825]","[0.03426369995577261, 0.046641600027214736, 0.014228500018361956, 0.014259200019296259, 0.0662919000023976, 0.0492886999854818, 0.030513300036545843, 0.06503659998998046, 0.08021409995853901, 0.08055869996314868, 0.07928459998220205, 13.590918399975635, 17.523408100008965]",0,,,,,,,,,,,,,,,,,,,,,,,,,,,,,,,,,,,,,,,,,,,,,,,,,,,,,,,,,,,,,,,,,,,,,,,,,,,,,,,,,,,,,,,,,,,,,,,,,,,,,,,,,,,,,,,,,,,,,,,,,,,,LU88XK,train_y,red_square,bottom_left,2025-05-12_16h50.54.326,HideSeek_v1,2022.2.5,59.95333233369406,
,,,,,,,,,,,,,,,1,0,1,0,1,0,1,0,,,,,,,,,,,,,,,,,,,,,,,,,,,,,,,conditions/schedules/train_y_first/red_square_00/bottom_left/instructions/Slide14.png,conditions/schedules/train_y_first/red_square_00/bottom_left/instructions/Audio14.wav,299.1668504999834,299.159732650005,14,"[7.855027900019195, 19.150063599983696, 16.375520500005223, 19.185530700022355, 4.067256900016218, 4.553050199989229, 5.7372363999602385, 11.338858200004324, 5.450806199980434, 7.317363999958616, 9.701492799969856, 13.590912399988156, 17.523400700010825, 16.553930199996103]","[0.03426369995577261, 0.046641600027214736, 0.014228500018361956, 0.014259200019296259, 0.0662919000023976, 0.0492886999854818, 0.030513300036545843, 0.06503659998998046, 0.08021409995853901, 0.08055869996314868, 0.07928459998220205, 13.590918399975635, 0.014169500034768134, 16.553936899988912]",0,,,,,,,,,,,,,,,,,,,,,,,,,,,,,,,,,,,,,,,,,,,,,,,,,,,,,,,,,,,,,,,,,,,,,,,,,,,,,,,,,,,,,,,,,,,,,,,,,,,,,,,,,,,,,,,,,,,,,,,,,,,,LU88XK,train_y,red_square,bottom_left,2025-05-12_16h50.54.326,HideSeek_v1,2022.2.5,59.95333233369406,
2,0,3,0,3,0,0,16,2,instr_dim1_1,,,,,,1,0,1,0,,,,,0,0,0,0,,,,,,,,,,,,,,,,,,,,,,,,,,,,,,,,,,,,,stimuli/alien_stimuli/16.png,conditions/schedules/train_y_first/red_square_00/bottom_left/inputInstr_1.xlsx,stimuli/alien_stimuli/16.png,315.81970230001025,315.81970230001025,315.81970230001025,315.81970230001025,315.82341079000037,return,6.627817000029609,"[-0.16, -0.08, 0, 0.08, 0.16, 0.24, 0.32, 0.4, 0.48, 0.56]","[-0.4, -0.32, -0.24, -0.16, -0.08, 0, 0.08, 0.16, 0.24, 0.32]",3,3,0,0,0.0,0.0,322.61076060001506,322.61076060001506,322.61076060001506,322.61076060001506,322.61076060001506,322.61076060001506,322.61076060001506,322.6124029300001,11.160342500021216,return,11.001731499971356,stimuli/alien_stimuli/16.png,16,0,2,,,,,,,,,,,,,,,,,,,,,,,,,,,,,,,,,,,,,,,,,,,,,,,,,,,,,,,,,,,,,,,,,,,,,,,,,,,,,,,,,,,,,,,,,LU88XK,train_y,red_square,bottom_left,2025-05-12_16h50.54.326,HideSeek_v1,2022.2.5,59.95333233369406,
,,,,,,,,,,,30,,,,1,0,1,0,,,,,,,,,,,,,,,,,,,,,,,,,,,,,,,,,,,,,,,,,,,,,,,,,,,,,,,,,,,,,,,,,,,,,,,,,,,,,,21,0.7,0,0,99,1,30,0,conditions/schedules/train_y_first/red_square_00/bottom_left/inputTrain_1.1.xlsx,99,1,1,1,0,,,,,,,,,,,,,,,,,,,,,,,,,,,,,,,,,,,,,,,,,,,,,,,,,,,,,,,,,,,,,,,,,,,,,,,,,,,LU88XK,train_y,red_square,bottom_left,2025-05-12_16h50.54.326,HideSeek_v1,2022.2.5,59.95333233369406,
,,,,,,,,,,,,,,,2,0,2,0,0,0,0,0,,,,,,,,,,,,,,,,,,,,,,,,,,,,,,,conditions/schedules/train_y_first/red_square_00/bottom_left/instructions/Slide15.png,conditions/schedules/train_y_first/red_square_00/bottom_left/instructions/Audio15.wav,333.79185610002605,333.7883455000119,15,"[7.855027900019195, 19.150063599983696, 16.375520500005223, 19.185530700022355, 4.067256900016218, 4.553050199989229, 5.7372363999602385, 11.338858200004324, 5.450806199980434, 7.317363999958616, 9.701492799969856, 13.590912399988156, 17.523400700010825, 16.553930199996103, 42.61221960000694]","[0.03426369995577261, 0.046641600027214736, 0.014228500018361956, 0.014259200019296259, 0.0662919000023976, 0.0492886999854818, 0.030513300036545843, 0.06503659998998046, 0.08021409995853901, 0.08055869996314868, 0.07928459998220205, 13.590918399975635, 0.014169500034768134, 16.553936899988912, 42.61222660000203]",0,,,,,,,,,,,,,,,,,,,,,,,,,,,,,,,,,,,,,,,,,,,,,,,,,,,,,,,,,,,,,,,,,,,,,,,,,,,,,,,,,,,,,,,,,,,,,,,,,,,,,,,,,,,,,,,,,,,,,,,,,,,,LU88XK,train_y,red_square,bottom_left,2025-05-12_16h50.54.326,HideSeek_v1,2022.2.5,59.95333233369406,
,,,,,,,,,,,,,,,2,0,2,0,1,0,1,0,,,,,,,,,,,,,,,,,,,,,,,,,,,,,,,conditions/schedules/train_y_first/red_square_00/bottom_left/instructions/Slide16.png,conditions/schedules/train_y_first/red_square_00/bottom_left/instructions/Audio16.wav,376.4767948000226,376.4736937500129,16,"[7.855027900019195, 19.150063599983696, 16.375520500005223, 19.185530700022355, 4.067256900016218, 4.553050199989229, 5.7372363999602385, 11.338858200004324, 5.450806199980434, 7.317363999958616, 9.701492799969856, 13.590912399988156, 17.523400700010825, 16.553930199996103, 42.61221960000694, 21.545249600021634]","[0.03426369995577261, 0.046641600027214736, 0.014228500018361956, 0.014259200019296259, 0.0662919000023976, 0.0492886999854818, 0.030513300036545843, 0.06503659998998046, 0.08021409995853901, 0.08055869996314868, 0.07928459998220205, 13.590918399975635, 0.014169500034768134, 16.553936899988912, 0.04647479997947812, 21.545256300014444]",0,,,,,,,,,,,,,,,,,,,,,,,,,,,,,,,,,,,,,,,,,,,,,,,,,,,,,,,,,,,,,,,,,,,,,,,,,,,,,,,,,,,,,,,,,,,,,,,,,,,,,,,,,,,,,,,,,,,,,,,,,,,,LU88XK,train_y,red_square,bottom_left,2025-05-12_16h50.54.326,HideSeek_v1,2022.2.5,59.95333233369406,
,0,0,0,1,0,1,15,,train_dim1_1,1,30,,,,2,0,2,0,,,,,,,,,0,0,0,0,0,0,0,0,0,0,0,0,,,,,,,,,,,,,,,,,,,,,,,,,stimuli/alien_stimuli/15.png,,,,,,,,,,,,,,,,,,,,,,,,,,,,,,,,,,,,,,,30,,,,,,,,398.124316499976,398.124316499976,398.124316499976,398.124316499976,398.124316499976,up,4.782204399991315,0,0,0,99,-0.16,-0.32,up,4.6833073000307195,,,,,,,,,,,,,,,,,,,,,,,,,,,,,,,,,,,,,,,,,,,,,,,,,,,,,,,,,,,,LU88XK,train_y,red_square,bottom_left,2025-05-12_16h50.54.326,HideSeek_v1,2022.2.5,59.95333233369406,
,0,0,0,1,0,1,15,,train_dim1_1,1,30,,,,2,0,2,0,,,,,,,,,0,0,0,0,0,0,0,0,1,0,1,0,,,,,,,,,,,,,,,,,,,,,,,,,,,,,,,,,,,,,,,,,,,,,,,,,,,,,,,,,,,,,,,,30,,,,,,,,402.8974866999779,402.8974866999779,402.8974866999779,402.8974866999779,402.8974866999779,up,0.8597205000114627,0,0,0,99,-0.16,-0.24,up,0.7784413999761455,,,,,,,,,,,,,,,,,,,,,,,,,,,,,,,,,,,,,,,,,,,,,,,,,,,,,,,,,,,,LU88XK,train_y,red_square,bottom_left,2025-05-12_16h50.54.326,HideSeek_v1,2022.2.5,59.95333233369406,
,0,0,0,1,0,1,15,,train_dim1_1,1,30,,,,2,0,2,0,,,,,,,,,0,0,0,0,0,0,0,0,2,0,2,0,,,,,,,,,,,,,,,,,,,,,,,,,,,,,,,,,,,,,,,,,,,,,,,,,,,,,,,,,,,,,,,,30,,,,,,,,403.7640683000209,403.7640683000209,403.7640683000209,403.7640683000209,403.7640683000209,down,2.0613417999702506,0,0,0,99,-0.16,-0.32,down,1.9688997999764979,,,,,,,,,,,,,,,,,,,,,,,,,,,,,,,,,,,,,,,,,,,,,,,,,,,,,,,,,,,,LU88XK,train_y,red_square,bottom_left,2025-05-12_16h50.54.326,HideSeek_v1,2022.2.5,59.95333233369406,
,0,0,0,1,0,1,15,,train_dim1_1,1,30,,,,2,0,2,0,,,,,,,,,0,0,0,0,0,0,0,0,3,0,3,0,,,,,,,,,,,,,,,,,,,,,,,,,,,,,,,,,,,,,,,,,,,,,,,,,,,,,,,,,,,,,,,,30,,,,,,,,405.8334473000141,405.8334473000141,405.8334473000141,405.8334473000141,405.8334473000141,down,0.37680760002695024,0,0,0,99,-0.16,-0.4,down,0.29342290002387017,,,,,,,,,,,,,,,,,,,,,,,,,,,,,,,,,,,,,,,,,,,,,,,,,,,,,,,,,,,,LU88XK,train_y,red_square,bottom_left,2025-05-12_16h50.54.326,HideSeek_v1,2022.2.5,59.95333233369406,
,0,0,0,1,0,1,15,,train_dim1_1,1,30,,,,2,0,2,0,,,,,,,,,0,0,0,0,0,0,0,0,4,0,4,0,,,,,,,,,,,,,,,,,,,,,,,,,,,,,,,,,,,,,,,,,,,,,,,,,,,,,,,,,,,,,,,,30,,,,,,,,406.21633079997264,406.21633079997264,406.21633079997264,406.21633079997264,406.21633079997264,right,0.9773818000103347,0,0,0,99,-0.08,-0.4,right,0.8959428999805823,,,,,,,,,,,,,,,,,,,,,,,,,,,,,,,,,,,,,,,,,,,,,,,,,,,,,,,,,,,,LU88XK,train_y,red_square,bottom_left,2025-05-12_16h50.54.326,HideSeek_v1,2022.2.5,59.95333233369406,
,0,0,0,1,0,1,15,,train_dim1_1,1,30,,,,2,0,2,0,,,,,,,,,0,0,0,0,0,0,0,0,5,0,5,0,,,,,,,,,,,,,,,,,,,,,,,,,,,,,,,,,,,,,,,,,,,,,,,,,,,,,,,,,,,,,,,,30,,,,,,,,407.19993760000216,407.19993760000216,407.19993760000216,407.19993760000216,407.19993760000216,right,0.9937857000040822,0,0,0,99,0.0,-0.4,right,0.9162407999974675,,,,,,,,,,,,,,,,,,,,,,,,,,,,,,,,,,,,,,,,,,,,,,,,,,,,,,,,,,,,LU88XK,train_y,red_square,bottom_left,2025-05-12_16h50.54.326,HideSeek_v1,2022.2.5,59.95333233369406,
,0,0,0,1,0,1,15,,train_dim1_1,1,30,,,,2,0,2,0,,,,,,,,,0,0,0,0,0,0,0,0,6,0,6,0,,,,,,,,,,,,,,,,,,,,,,,,,,,,,,,,,,,,,,,,,,,,,,,,,,,,,,,,,,,,,,,,30,,,,,,,,408.1997077999986,408.1997077999986,408.1997077999986,408.1997077999986,408.1997077999986,right,1.8944903000374325,0,0,0,99,0.08,-0.4,right,1.8126442999928258,,,,,,,,,,,,,,,,,,,,,,,,,,,,,,,,,,,,,,,,,,,,,,,,,,,,,,,,,,,,LU88XK,train_y,red_square,bottom_left,2025-05-12_16h50.54.326,HideSeek_v1,2022.2.5,59.95333233369406,
,0,0,0,1,0,1,15,,train_dim1_1,1,30,,,,2,0,2,0,,,,,,,,,0,0,0,0,0,0,0,0,7,0,7,0,,,,,,,,,,,,,,,,,,,,,,,,,,,,,,,,,,,,,,,,,,,,,,,,,,,,,,,,,,,,,,,,30,,,,,,,,410.1035198000027,410.1035198000027,410.1035198000027,410.1035198000027,410.1035198000027,right,1.41086639999412,0,0,0,99,0.16,-0.4,right,1.3209461999940686,,,,,,,,,,,,,,,,,,,,,,,,,,,,,,,,,,,,,,,,,,,,,,,,,,,,,,,,,,,,LU88XK,train_y,red_square,bottom_left,2025-05-12_16h50.54.326,HideSeek_v1,2022.2.5,59.95333233369406,
,0,0,0,1,0,1,15,,train_dim1_1,1,30,,,,2,0,2,0,,,,,,,,,0,0,0,0,0,0,0,0,8,0,8,0,,,,,,,,,,,,,,,,,,,,,,,,,,,,,,,,,,,,,,,,,,,,,,,,,,,,,,,,,,,,,,,,30,,,,,,,,411.5199022999732,411.5199022999732,411.5199022999732,411.5199022999732,411.5199022999732,right,11.068615700001828,0,0,0,99,0.24,-0.4,right,10.981708200008143,,,,,,,,,,,,,,,,,,,,,,,,,,,,,,,,,,,,,,,,,,,,,,,,,,,,,,,,,,,,LU88XK,train_y,red_square,bottom_left,2025-05-12_16h50.54.326,HideSeek_v1,2022.2.5,59.95333233369406,
,0,0,0,1,0,1,15,,train_dim1_1,1,30,,,,2,0,2,0,,,,,,,,,0,0,0,0,0,0,0,0,9,0,9,0,,,,,,,,,,,,,,,,,,,,,,,,,,,,,,,,,,,,,,,,,,,,,,,,,,,,,,,,,,,,,,,,30,,,,,,,,422.6173592999694,422.6173592999694,422.6173592999694,422.6173592999694,422.6173592999694,return,0.8438721999991685,0,0,0,0,0.24,-0.4,return,0.7460505000199191,0,5,0.24,-0.4,,,,,,,,,,,,,,,,,,,,,,,,,,,,,,,,,,,,,,,,,,,,,,,,,,,,,,,,LU88XK,train_y,red_square,bottom_left,2025-05-12_16h50.54.326,HideSeek_v1,2022.2.5,59.95333233369406,
,3,2,3,2,0,0,16,,train_dim1_1,2,30,,,,2,0,2,0,,,,,,,,,0,0,0,0,0,1,1,1,0,0,0,0,,,,,,,,,,,,,,,,,,,,,,,,,stimuli/alien_stimuli/16.png,,,,,,,,,,,,,,,,,,,,,,,,,,,,,stimuli/alien_stimuli/15.png,15,0,3,,,,,,,30,,,,,,,,434.6771263999981,434.6771263999981,434.6771263999981,434.6771263999981,434.6771263999981,up,3.5909361999947578,0,0,0,99,0.08,-0.15999999999999998,up,3.513912199996412,,,,,433.12047859997256,434.6771263999981,-0.16,-0.32,0.08,0.0,-0.36,-0.16,-0.16,-0.16,-0.32,425.0223127999925,425.0223127999925,425.0223127999925,425.0223127999925,425.0223127999925,425.0223127999925,425.0223127999925,425.0223127999925,425.0137294599903,8.22592200001236,return,8.072410099965055,,,,,,,,,,,,,,,,,,,,,,,,,,,,,,,,,LU88XK,train_y,red_square,bottom_left,2025-05-12_16h50.54.326,HideSeek_v1,2022.2.5,59.95333233369406,
,3,2,3,2,0,0,16,,train_dim1_1,2,30,,,,2,0,2,0,,,,,,,,,0,0,0,0,0,1,1,1,1,0,1,0,,,,,,,,,,,,,,,,,,,,,,,,,,,,,,,,,,,,,,,,,,,,,,,,,,,,,,,,,,,,,,,,30,,,,,,,,438.2754363999702,438.2754363999702,438.2754363999702,438.2754363999702,438.2754363999702,up,7.199008899973705,0,0,0,99,0.08,-0.07999999999999997,up,7.11837199999718,,,,,,,,,,,,,,,,,,,,,,,,,,,,,,,,,,,,,,,,,,,,,,,,,,,,,,,,,,,,LU88XK,train_y,red_square,bottom_left,2025-05-12_16h50.54.326,HideSeek_v1,2022.2.5,59.95333233369406,
,3,2,3,2,0,0,16,,train_dim1_1,2,30,,,,2,0,2,0,,,,,,,,,0,0,0,0,0,1,1,1,2,0,2,0,,,,,,,,,,,,,,,,,,,,,,,,,,,,,,,,,,,,,,,,,,,,,,,,,,,,,,,,,,,,,,,,30,,,,,,,,445.4818877999787,445.4818877999787,445.4818877999787,445.4818877999787,445.4818877999787,return,2.0446633999818005,0,0,0,0,0.08,-0.07999999999999997,return,1.9547533000004478,2,5,0.08,-0.07999999999999997,,,,,,,,,,,,,,,,,,,,,,,,,,,,,,,,,,,,,,,,,,,,,,,,,,,,,,,,LU88XK,train_y,red_square,bottom_left,2025-05-12_16h50.54.326,HideSeek_v1,2022.2.5,59.95333233369406,
,2,3,2,6,0,3,13,,train_dim1_1,3,30,,,,2,0,2,0,,,,,,,,,0,0,0,0,0,2,2,2,0,0,0,0,,,,,,,,,,,,,,,,,,,,,,,,,stimuli/alien_stimuli/13.png,,,,,,,,,,,,,,,,,,,,,,,,,,,,,stimuli/alien_stimuli/16.png,16,3,4,,,,,,,30,,,,,,,,479.4476891999948,479.4476891999948,479.4476891999948,479.4476891999948,479.4476891999948,right,4.0253437999635935,0,0,0,99,0.08,-0.16,right,3.9206336999777704,,,,,477.8742766000214,479.4476891999948,0.08,-0.24,0.0,0.0,-0.24,0.08,0.08,0.08,-0.24,449.0966220999835,449.0966220999835,449.0966220999835,449.0966220999835,449.0966220999835,449.0966220999835,449.0966220999835,449.0966220999835,449.0838772900112,28.893126599956304,return,28.75907259999076,,,,,,,,,,,,,,,,,,,,,,,,,,,,,,,,,LU88XK,train_y,red_square,bottom_left,2025-05-12_16h50.54.326,HideSeek_v1,2022.2.5,59.95333233369406,
,2,3,2,6,0,3,13,,train_dim1_1,3,30,,,,2,0,2,0,,,,,,,,,0,0,0,0,0,2,2,2,1,0,1,0,,,,,,,,,,,,,,,,,,,,,,,,,,,,,,,,,,,,,,,,,,,,,,,,,,,,,,,,,,,,,,,,30,,,,,,,,483.4629322999972,483.4629322999972,483.4629322999972,483.4629322999972,483.4629322999972,right,1.9607488000183366,0,0,0,99,0.16,-0.16,right,1.8695173999876715,,,,,,,,,,,,,,,,,,,,,,,,,,,,,,,,,,,,,,,,,,,,,,,,,,,,,,,,,,,,LU88XK,train_y,red_square,bottom_left,2025-05-12_16h50.54.326,HideSeek_v1,2022.2.5,59.95333233369406,
,2,3,2,6,0,3,13,,train_dim1_1,3,30,,,,2,0,2,0,,,,,,,,,0,0,0,0,0,2,2,2,2,0,2,0,,,,,,,,,,,,,,,,,,,,,,,,,,,,,,,,,,,,,,,,,,,,,,,,,,,,,,,,,,,,,,,,30,,,,,,,,485.4311852999963,485.4311852999963,485.4311852999963,485.4311852999963,485.4311852999963,right,2.7284594000084326,0,0,0,99,0.24,-0.16,right,2.6430447999737225,,,,,,,,,,,,,,,,,,,,,,,,,,,,,,,,,,,,,,,,,,,,,,,,,,,,,,,,,,,,LU88XK,train_y,red_square,bottom_left,2025-05-12_16h50.54.326,HideSeek_v1,2022.2.5,59.95333233369406,
,2,3,2,6,0,3,13,,train_dim1_1,3,30,,,,2,0,2,0,,,,,,,,,0,0,0,0,0,2,2,2,3,0,3,0,,,,,,,,,,,,,,,,,,,,,,,,,,,,,,,,,,,,,,,,,,,,,,,,,,,,,,,,,,,,,,,,30,,,,,,,,488.1660693999729,488.1660693999729,488.1660693999729,488.1660693999729,488.1660693999729,left,2.6786960999597795,0,0,0,99,0.15999999999999998,-0.16,left,2.602006100001745,,,,,,,,,,,,,,,,,,,,,,,,,,,,,,,,,,,,,,,,,,,,,,,,,,,,,,,,,,,,LU88XK,train_y,red_square,bottom_left,2025-05-12_16h50.54.326,HideSeek_v1,2022.2.5,59.95333233369406,
,2,3,2,6,0,3,13,,train_dim1_1,3,30,,,,2,0,2,0,,,,,,,,,0,0,0,0,0,2,2,2,4,0,4,0,,,,,,,,,,,,,,,,,,,,,,,,,,,,,,,,,,,,,,,,,,,,,,,,,,,,,,,,,,,,,,,,30,,,,,,,,490.85256909998134,490.85256909998134,490.85256909998134,490.85256909998134,490.85256909998134,left,0.4935463999863714,0,0,0,99,0.07999999999999997,-0.16,left,0.4082008999539539,,,,,,,,,,,,,,,,,,,,,,,,,,,,,,,,,,,,,,,,,,,,,,,,,,,,,,,,,,,,LU88XK,train_y,red_square,bottom_left,2025-05-12_16h50.54.326,HideSeek_v1,2022.2.5,59.95333233369406,
,2,3,2,6,0,3,13,,train_dim1_1,3,30,,,,2,0,2,0,,,,,,,,,0,0,0,0,0,2,2,2,5,0,5,0,,,,,,,,,,,,,,,,,,,,,,,,,,,,,,,,,,,,,,,,,,,,,,,,,,,,,,,,,,,,,,,,30,,,,,,,,491.35260380001273,491.35260380001273,491.35260380001273,491.35260380001273,491.35260380001273,right,1.2106755999848247,0,0,0,99,0.15999999999999998,-0.16,right,1.1335342000238597,,,,,,,,,,,,,,,,,,,,,,,,,,,,,,,,,,,,,,,,,,,,,,,,,,,,,,,,,,,,LU88XK,train_y,red_square,bottom_left,2025-05-12_16h50.54.326,HideSeek_v1,2022.2.5,59.95333233369406,
,2,3,2,6,0,3,13,,train_dim1_1,3,30,,,,2,0,2,0,,,,,,,,,0,0,0,0,0,2,2,2,6,0,6,0,,,,,,,,,,,,,,,,,,,,,,,,,,,,,,,,,,,,,,,,,,,,,,,,,,,,,,,,,,,,,,,,30,,,,,,,,492.5694580000127,492.5694580000127,492.5694580000127,492.5694580000127,492.5694580000127,return,0.5434292000136338,0,0,0,0,0.15999999999999998,-0.16,return,0.45840309996856377,2,7,0.15999999999999998,-0.16,,,,,,,,,,,,,,,,,,,,,,,,,,,,,,,,,,,,,,,,,,,,,,,,,,,,,,,,LU88XK,train_y,red_square,bottom_left,2025-05-12_16h50.54.326,HideSeek_v1,2022.2.5,59.95333233369406,
,0,1,0,5,0,4,12,,train_dim1_1,4,30,,,,2,0,2,0,,,,,,,,,0,0,0,0,0,3,3,3,0,0,0,0,,,,,,,,,,,,,,,,,,,,,,,,,stimuli/alien_stimuli/12.png,,,,,,,,,,,,,,,,,,,,,,,,,,,,,stimuli/alien_stimuli/13.png,13,2,5,,,,,,,30,,,,,,,,509.19233489996986,509.19233489996986,509.19233489996986,509.19233489996986,509.19233489996986,right,2.6567967000300996,0,0,0,99,-0.08,-0.32,right,2.5597197999595664,,,,,507.61574390000897,509.19233489996986,0,0.08,0.24,0.0,-0.04,0,0.0,0,0.08,494.6821493000025,494.6821493000025,494.6821493000025,494.6821493000025,494.6821493000025,494.6821493000025,494.6821493000025,494.6821493000025,494.6715155899816,13.046838100010063,return,12.916199199971743,,,,,,,,,,,,,,,,,,,,,,,,,,,,,,,,,LU88XK,train_y,red_square,bottom_left,2025-05-12_16h50.54.326,HideSeek_v1,2022.2.5,59.95333233369406,
,0,1,0,5,0,4,12,,train_dim1_1,4,30,,,,2,0,2,0,,,,,,,,,0,0,0,0,0,3,3,3,1,0,1,0,,,,,,,,,,,,,,,,,,,,,,,,,,,,,,,,,,,,,,,,,,,,,,,,,,,,,,,,,,,,,,,,30,,,,,,,,511.83695289999014,511.83695289999014,511.83695289999014,511.83695289999014,511.83695289999014,up,3.2619658000185154,0,0,0,99,-0.08,-0.24,up,3.1699537000386044,,,,,,,,,,,,,,,,,,,,,,,,,,,,,,,,,,,,,,,,,,,,,,,,,,,,,,,,,,,,LU88XK,train_y,red_square,bottom_left,2025-05-12_16h50.54.326,HideSeek_v1,2022.2.5,59.95333233369406,
,0,1,0,5,0,4,12,,train_dim1_1,4,30,,,,2,0,2,0,,,,,,,,,0,0,0,0,0,3,3,3,2,0,2,0,,,,,,,,,,,,,,,,,,,,,,,,,,,,,,,,,,,,,,,,,,,,,,,,,,,,,,,,,,,,,,,,30,,,,,,,,515.1141034999746,515.1141034999746,515.1141034999746,515.1141034999746,515.1141034999746,left,1.3776114000356756,0,0,0,99,-0.16,-0.24,left,1.280397999973502,,,,,,,,,,,,,,,,,,,,,,,,,,,,,,,,,,,,,,,,,,,,,,,,,,,,,,,,,,,,LU88XK,train_y,red_square,bottom_left,2025-05-12_16h50.54.326,HideSeek_v1,2022.2.5,59.95333233369406,
,0,1,0,5,0,4,12,,train_dim1_1,4,30,,,,2,0,2,0,,,,,,,,,0,0,0,0,0,3,3,3,3,0,3,0,,,,,,,,,,,,,,,,,,,,,,,,,,,,,,,,,,,,,,,,,,,,,,,,,,,,,,,,,,,,,,,,30,,,,,,,,516.4912539999932,516.4912539999932,516.4912539999932,516.4912539999932,516.4912539999932,up,1.1269584000110626,0,0,0,99,-0.16,-0.15999999999999998,up,1.046962500025984,,,,,,,,,,,,,,,,,,,,,,,,,,,,,,,,,,,,,,,,,,,,,,,,,,,,,,,,,,,,LU88XK,train_y,red_square,bottom_left,2025-05-12_16h50.54.326,HideSeek_v1,2022.2.5,59.95333233369406,
,0,1,0,5,0,4,12,,train_dim1_1,4,30,,,,2,0,2,0,,,,,,,,,0,0,0,0,0,3,3,3,4,0,4,0,,,,,,,,,,,,,,,,,,,,,,,,,,,,,,,,,,,,,,,,,,,,,,,,,,,,,,,,,,,,,,,,30,,,,,,,,517.625054300006,517.625054300006,517.625054300006,517.625054300006,517.625054300006,right,16.507120299967937,0,0,0,99,-0.08,-0.15999999999999998,right,16.42856860003667,,,,,,,,,,,,,,,,,,,,,,,,,,,,,,,,,,,,,,,,,,,,,,,,,,,,,,,,,,,,LU88XK,train_y,red_square,bottom_left,2025-05-12_16h50.54.326,HideSeek_v1,2022.2.5,59.95333233369406,
,0,1,0,5,0,4,12,,train_dim1_1,4,30,,,,2,0,2,0,,,,,,,,,0,0,0,0,0,3,3,3,5,0,5,0,,,,,,,,,,,,,,,,,,,,,,,,,,,,,,,,,,,,,,,,,,,,,,,,,,,,,,,,,,,,,,,,30,,,,,,,,534.1529388999916,534.1529388999916,534.1529388999916,534.1529388999916,534.1529388999916,return,2.678304000000935,0,0,0,0,-0.08,-0.15999999999999998,return,2.5876709999865852,4,8,-0.08,-0.15999999999999998,,,,,,,,,,,,,,,,,,,,,,,,,,,,,,,,,,,,,,,,,,,,,,,,,,,,,,,,LU88XK,train_y,red_square,bottom_left,2025-05-12_16h50.54.326,HideSeek_v1,2022.2.5,59.95333233369406,
,3,3,3,8,0,5,11,,train_dim1_1,5,30,,,,2,0,2,0,,,,,,,,,0,0,0,0,0,4,4,4,0,0,0,0,,,,,,,,,,,,,,,,,,,,,,,,,stimuli/alien_stimuli/11.png,,,,,,,,,,,,,,,,,,,,,,,,,,,,,stimuli/alien_stimuli/12.png,12,0,6,,,,,,,30,,,,,,,,541.8141088000266,541.8141088000266,541.8141088000266,541.8141088000266,541.8141088000266,up,1.8076781000127085,0,0,0,99,0.08,-0.08,up,1.7283892999985255,,,,,540.2593980000238,541.8141088000266,-0.16,0,0.32,0.0,-0.16,-0.16,-0.16,-0.16,0,538.4010356999934,538.4010356999934,538.4010356999934,538.4010356999934,538.4010356999934,538.4010356999934,538.4010356999934,538.4010356999934,538.3912807599758,1.9872589000151493,return,1.8306859000003897,,,,,,,,,,,,,,,,,,,,,,,,,,,,,,,,,LU88XK,train_y,red_square,bottom_left,2025-05-12_16h50.54.326,HideSeek_v1,2022.2.5,59.95333233369406,
,3,3,3,8,0,5,11,,train_dim1_1,5,30,,,,2,0,2,0,,,,,,,,,0,0,0,0,0,4,4,4,1,0,1,0,,,,,,,,,,,,,,,,,,,,,,,,,,,,,,,,,,,,,,,,,,,,,,,,,,,,,,,,,,,,,,,,30,,,,,,,,543.635500799981,543.635500799981,543.635500799981,543.635500799981,543.635500799981,up,4.780062499979977,0,0,0,99,0.08,0.0,up,4.68208500003675,,,,,,,,,,,,,,,,,,,,,,,,,,,,,,,,,,,,,,,,,,,,,,,,,,,,,,,,,,,,LU88XK,train_y,red_square,bottom_left,2025-05-12_16h50.54.326,HideSeek_v1,2022.2.5,59.95333233369406,
,3,3,3,8,0,5,11,,train_dim1_1,5,30,,,,2,0,2,0,,,,,,,,,0,0,0,0,0,4,4,4,2,0,2,0,,,,,,,,,,,,,,,,,,,,,,,,,,,,,,,,,,,,,,,,,,,,,,,,,,,,,,,,,,,,,,,,30,,,,,,,,548.4205913000042,548.4205913000042,548.4205913000042,548.4205913000042,548.4205913000042,down,2.161536499974318,0,0,0,99,0.08,-0.08,down,2.0761971999891102,,,,,,,,,,,,,,,,,,,,,,,,,,,,,,,,,,,,,,,,,,,,,,,,,,,,,,,,,,,,LU88XK,train_y,red_square,bottom_left,2025-05-12_16h50.54.326,HideSeek_v1,2022.2.5,59.95333233369406,
,3,3,3,8,0,5,11,,train_dim1_1,5,30,,,,2,0,2,0,,,,,,,,,0,0,0,0,0,4,4,4,3,0,3,0,,,,,,,,,,,,,,,,,,,,,,,,,,,,,,,,,,,,,,,,,,,,,,,,,,,,,,,,,,,,,,,,30,,,,,,,,550.5847293999977,550.5847293999977,550.5847293999977,550.5847293999977,550.5847293999977,return,0.910535599978175,0,0,0,0,0.08,-0.08,return,0.8288597000064328,5,8,0.08,-0.08,,,,,,,,,,,,,,,,,,,,,,,,,,,,,,,,,,,,,,,,,,,,,,,,,,,,,,,,LU88XK,train_y,red_square,bottom_left,2025-05-12_16h50.54.326,HideSeek_v1,2022.2.5,59.95333233369406,
,1,4,1,8,0,4,12,,train_dim1_1,6,30,,,,2,0,2,0,,,,,,,,,0,0,0,0,0,5,5,5,0,0,0,0,,,,,,,,,,,,,,,,,,,,,,,,,stimuli/alien_stimuli/12.png,,,,,,,,,,,,,,,,,,,,,,,,,,,,,stimuli/alien_stimuli/11.png,11,3,7,,,,,,,30,,,,,,,,561.331907099986,561.331907099986,561.331907099986,561.331907099986,561.331907099986,up,1.2573198999743909,0,0,0,99,-0.08,0.0,up,1.1775430000270717,,,,,559.7754760999815,561.331907099986,0.08,0.24,0.4,0.0,0.039999999999999994,0.08,0.08,0.08,0.24,553.0676299000042,553.0676299000042,553.0676299000042,553.0676299000042,553.0676299000042,553.0676299000042,553.0676299000042,553.0676299000042,553.0541245900035,6.823593200009782,return,6.687905700004194,,,,,,,,,,,,,,,,,,,,,,,,,,,,,,,,,LU88XK,train_y,red_square,bottom_left,2025-05-12_16h50.54.326,HideSeek_v1,2022.2.5,59.95333233369406,
,1,4,1,8,0,4,12,,train_dim1_1,6,30,,,,2,0,2,0,,,,,,,,,0,0,0,0,0,5,5,5,1,0,1,0,,,,,,,,,,,,,,,,,,,,,,,,,,,,,,,,,,,,,,,,,,,,,,,,,,,,,,,,,,,,,,,,30,,,,,,,,562.5958679000032,562.5958679000032,562.5958679000032,562.5958679000032,562.5958679000032,up,0.826672299997881,0,0,0,99,-0.08,0.08,up,0.7354654000373557,,,,,,,,,,,,,,,,,,,,,,,,,,,,,,,,,,,,,,,,,,,,,,,,,,,,,,,,,,,,LU88XK,train_y,red_square,bottom_left,2025-05-12_16h50.54.326,HideSeek_v1,2022.2.5,59.95333233369406,
,1,4,1,8,0,4,12,,train_dim1_1,6,30,,,,2,0,2,0,,,,,,,,,0,0,0,0,0,5,5,5,2,0,2,0,,,,,,,,,,,,,,,,,,,,,,,,,,,,,,,,,,,,,,,,,,,,,,,,,,,,,,,,,,,,,,,,30,,,,,,,,563.4306679000147,563.4306679000147,563.4306679000147,563.4306679000147,563.4306679000147,up,0.5769385999883525,0,0,0,99,-0.08,0.16,up,0.4830904999980703,,,,,,,,,,,,,,,,,,,,,,,,,,,,,,,,,,,,,,,,,,,,,,,,,,,,,,,,,,,,LU88XK,train_y,red_square,bottom_left,2025-05-12_16h50.54.326,HideSeek_v1,2022.2.5,59.95333233369406,
,1,4,1,8,0,4,12,,train_dim1_1,6,30,,,,2,0,2,0,,,,,,,,,0,0,0,0,0,5,5,5,3,0,3,0,,,,,,,,,,,,,,,,,,,,,,,,,,,,,,,,,,,,,,,,,,,,,,,,,,,,,,,,,,,,,,,,30,,,,,,,,564.0137525000027,564.0137525000027,564.0137525000027,564.0137525000027,564.0137525000027,up,0.6433003999991342,0,0,0,99,-0.08,0.24,up,0.5628689000150189,,,,,,,,,,,,,,,,,,,,,,,,,,,,,,,,,,,,,,,,,,,,,,,,,,,,,,,,,,,,LU88XK,train_y,red_square,bottom_left,2025-05-12_16h50.54.326,HideSeek_v1,2022.2.5,59.95333233369406,
,1,4,1,8,0,4,12,,train_dim1_1,6,30,,,,2,0,2,0,,,,,,,,,0,0,0,0,0,5,5,5,4,0,4,0,,,,,,,,,,,,,,,,,,,,,,,,,,,,,,,,,,,,,,,,,,,,,,,,,,,,,,,,,,,,,,,,30,,,,,,,,564.664631200023,564.664631200023,564.664631200023,564.664631200023,564.664631200023,right,1.0602103999699466,0,0,0,99,0.0,0.24,right,0.9820889999973588,,,,,,,,,,,,,,,,,,,,,,,,,,,,,,,,,,,,,,,,,,,,,,,,,,,,,,,,,,,,LU88XK,train_y,red_square,bottom_left,2025-05-12_16h50.54.326,HideSeek_v1,2022.2.5,59.95333233369406,
,1,4,1,8,0,4,12,,train_dim1_1,6,30,,,,2,0,2,0,,,,,,,,,0,0,0,0,0,5,5,5,5,0,5,0,,,,,,,,,,,,,,,,,,,,,,,,,,,,,,,,,,,,,,,,,,,,,,,,,,,,,,,,,,,,,,,,30,,,,,,,,565.7311982000247,565.7311982000247,565.7311982000247,565.7311982000247,565.7311982000247,right,0.7103034000028856,0,0,0,99,0.08,0.24,right,0.6229434999986552,,,,,,,,,,,,,,,,,,,,,,,,,,,,,,,,,,,,,,,,,,,,,,,,,,,,,,,,,,,,LU88XK,train_y,red_square,bottom_left,2025-05-12_16h50.54.326,HideSeek_v1,2022.2.5,59.95333233369406,
,1,4,1,8,0,4,12,,train_dim1_1,6,30,,,,2,0,2,0,,,,,,,,,0,0,0,0,0,5,5,5,6,0,6,0,,,,,,,,,,,,,,,,,,,,,,,,,,,,,,,,,,,,,,,,,,,,,,,,,,,,,,,,,,,,,,,,30,,,,,,,,566.4475809999858,566.4475809999858,566.4475809999858,566.4475809999858,566.4475809999858,return,0.41023910004878417,0,0,0,0,0.08,0.24,return,0.33318459999281913,9,10,0.08,0.24,,,,,,,,,,,,,,,,,,,,,,,,,,,,,,,,,,,,,,,,,,,,,,,,,,,,,,,,LU88XK,train_y,red_square,bottom_left,2025-05-12_16h50.54.326,HideSeek_v1,2022.2.5,59.95333233369406,
,1,3,1,6,0,3,13,,train_dim1_1,7,30,,,,2,0,2,0,,,,,,,,,0,0,0,0,0,6,6,6,0,0,0,0,,,,,,,,,,,,,,,,,,,,,,,,,stimuli/alien_stimuli/13.png,,,,,,,,,,,,,,,,,,,,,,,,,,,,,stimuli/alien_stimuli/12.png,12,1,8,,,,,,,30,,,,,,,,577.8471028999775,577.8471028999775,577.8471028999775,577.8471028999775,577.8471028999775,up,1.7717119000153616,0,0,0,99,-0.08,-0.08,up,1.6935678999871016,,,,,576.2893864000216,577.8471028999775,-0.08,0.24,0.32,0.0,0.07999999999999999,-0.08,-0.08,-0.08,0.24,568.4302254000213,568.4302254000213,568.4302254000213,568.4302254000213,568.4302254000213,568.4302254000213,568.4302254000213,568.4302254000213,568.4158507899788,7.9759694000240415,return,7.835262900043745,,,,,,,,,,,,,,,,,,,,,,,,,,,,,,,,,LU88XK,train_y,red_square,bottom_left,2025-05-12_16h50.54.326,HideSeek_v1,2022.2.5,59.95333233369406,
,1,3,1,6,0,3,13,,train_dim1_1,7,30,,,,2,0,2,0,,,,,,,,,0,0,0,0,0,6,6,6,1,0,1,0,,,,,,,,,,,,,,,,,,,,,,,,,,,,,,,,,,,,,,,,,,,,,,,,,,,,,,,,,,,,,,,,30,,,,,,,,579.6260482000071,579.6260482000071,579.6260482000071,579.6260482000071,579.6260482000071,up,1.143514899944421,0,0,0,99,-0.08,0.0,up,1.0628161000204273,,,,,,,,,,,,,,,,,,,,,,,,,,,,,,,,,,,,,,,,,,,,,,,,,,,,,,,,,,,,LU88XK,train_y,red_square,bottom_left,2025-05-12_16h50.54.326,HideSeek_v1,2022.2.5,59.95333233369406,
,1,3,1,6,0,3,13,,train_dim1_1,7,30,,,,2,0,2,0,,,,,,,,,0,0,0,0,0,6,6,6,2,0,2,0,,,,,,,,,,,,,,,,,,,,,,,,,,,,,,,,,,,,,,,,,,,,,,,,,,,,,,,,,,,,,,,,30,,,,,,,,580.7760161000188,580.7760161000188,580.7760161000188,580.7760161000188,580.7760161000188,up,1.1439762000227347,0,0,0,99,-0.08,0.08,up,1.0601799000287428,,,,,,,,,,,,,,,,,,,,,,,,,,,,,,,,,,,,,,,,,,,,,,,,,,,,,,,,,,,,LU88XK,train_y,red_square,bottom_left,2025-05-12_16h50.54.326,HideSeek_v1,2022.2.5,59.95333233369406,
,1,3,1,6,0,3,13,,train_dim1_1,7,30,,,,2,0,2,0,,,,,,,,,0,0,0,0,0,6,6,6,3,0,3,0,,,,,,,,,,,,,,,,,,,,,,,,,,,,,,,,,,,,,,,,,,,,,,,,,,,,,,,,,,,,,,,,30,,,,,,,,581.9268370000063,581.9268370000063,581.9268370000063,581.9268370000063,581.9268370000063,return,2.01165190001484,1,0,0,1,-0.08,0.08,return,1.9254758000024594,12,10,-0.08,0.08,,,,,,,,,,,,,,,,,,,,,,,,,,,,,,,,,,,,,,,,,,,,,,,,,,,,,,,,LU88XK,train_y,red_square,bottom_left,2025-05-12_16h50.54.326,HideSeek_v1,2022.2.5,59.95333233369406,
,4,2,4,7,0,5,11,,train_dim1_1,8,30,,,,2,0,2,0,,,,,,,,,0,0,0,0,0,7,7,7,0,0,0,0,,,,,,,,,,,,,,,,,,,,,,,,,stimuli/alien_stimuli/11.png,,,,,,,,,,,,,,,,,,,,,,,,,,,,,stimuli/alien_stimuli/13.png,13,1,9,,,,,,,30,,,,,,,,593.0936590000056,593.0936590000056,593.0936590000056,593.0936590000056,593.0936590000056,up,1.972309899982065,1,0,0,99,0.16,-0.15999999999999998,up,1.8862765000085346,,,,,591.5351475999923,593.0936590000056,-0.08,0.08,0.24,0.0,-0.04,-0.08,-0.08,-0.08,0.08,585.5082744000247,585.5082744000247,585.5082744000247,585.5082744000247,585.5082744000247,585.5082744000247,585.5082744000247,585.5082744000247,585.4968410900269,6.141269600018859,return,5.99631000001682,,,,,,,,,,,,,,,,,,,,,,,,,,,,,,,,,LU88XK,train_y,red_square,bottom_left,2025-05-12_16h50.54.326,HideSeek_v1,2022.2.5,59.95333233369406,
,4,2,4,7,0,5,11,,train_dim1_1,8,30,,,,2,0,2,0,,,,,,,,,0,0,0,0,0,7,7,7,1,0,1,0,,,,,,,,,,,,,,,,,,,,,,,,,,,,,,,,,,,,,,,,,,,,,,,,,,,,,,,,,,,,,,,,30,,,,,,,,595.0780116000096,595.0780116000096,595.0780116000096,595.0780116000096,595.0780116000096,up,0.4555652999551967,1,0,0,99,0.16,-0.07999999999999997,up,0.37272019998636097,,,,,,,,,,,,,,,,,,,,,,,,,,,,,,,,,,,,,,,,,,,,,,,,,,,,,,,,,,,,LU88XK,train_y,red_square,bottom_left,2025-05-12_16h50.54.326,HideSeek_v1,2022.2.5,59.95333233369406,
,4,2,4,7,0,5,11,,train_dim1_1,8,30,,,,2,0,2,0,,,,,,,,,0,0,0,0,0,7,7,7,2,0,2,0,,,,,,,,,,,,,,,,,,,,,,,,,,,,,,,,,,,,,,,,,,,,,,,,,,,,,,,,,,,,,,,,30,,,,,,,,595.5395471000229,595.5395471000229,595.5395471000229,595.5395471000229,595.5395471000229,return,0.5095486000063829,1,0,0,0,0.16,-0.07999999999999997,return,0.4173653000034392,14,10,0.16,-0.07999999999999997,,,,,,,,,,,,,,,,,,,,,,,,,,,,,,,,,,,,,,,,,,,,,,,,,,,,,,,,LU88XK,train_y,red_square,bottom_left,2025-05-12_16h50.54.326,HideSeek_v1,2022.2.5,59.95333233369406,
,4,3,4,4,0,1,15,,train_dim1_1,9,30,,,,2,0,2,0,,,,,,,,,0,0,0,0,0,8,8,8,0,0,0,0,,,,,,,,,,,,,,,,,,,,,,,,,stimuli/alien_stimuli/15.png,,,,,,,,,,,,,,,,,,,,,,,,,,,,,stimuli/alien_stimuli/11.png,11,4,10,,,,,,,30,,,,,,,,603.816519999993,603.816519999993,603.816519999993,603.816519999993,603.816519999993,return,1.940973800024949,1,1,0,0,0.16,-0.16,return,1.852332899987232,14,10,0.16,-0.16,602.2607202000218,603.816519999993,0.16,0.16,0.4,0.0,-0.039999999999999994,0.16,0.16,0.16,0.16,597.6359976999811,597.6359976999811,597.6359976999811,597.6359976999811,597.6359976999811,597.6359976999811,597.6359976999811,597.6359976999811,597.6243492599809,4.755406300013419,return,4.606524600007106,,,,,,,,,,,,,,,,,,,,,,,,,,,,,,,,,LU88XK,train_y,red_square,bottom_left,2025-05-12_16h50.54.326,HideSeek_v1,2022.2.5,59.95333233369406,
,2,2,2,2,0,0,16,,train_dim1_1,10,30,,,,2,0,2,0,,,,,,,,,0,0,0,0,0,9,9,9,0,0,0,0,,,,,,,,,,,,,,,,,,,,,,,,,stimuli/alien_stimuli/16.png,,,,,,,,,,,,,,,,,,,,,,,,,,,,,stimuli/alien_stimuli/15.png,15,4,11,,,,,,,30,,,,,,,,622.3592181999702,622.3592181999702,622.3592181999702,622.3592181999702,622.3592181999702,up,1.5402094000019133,1,1,0,99,0,-0.15999999999999998,up,1.4258087999769486,,,,,620.7756961999694,622.3592181999702,0.16,-0.08,0.08,0.0,-0.12,0.16,0.16,0.16,-0.08,607.3134277000208,607.3134277000208,607.3134277000208,607.3134277000208,607.3134277000208,607.3134277000208,607.3134277000208,607.3134277000208,607.3148397899872,13.56380210001953,return,13.43120310001541,,,,,,,,,,,,,,,,,,,,,,,,,,,,,,,,,LU88XK,train_y,red_square,bottom_left,2025-05-12_16h50.54.326,HideSeek_v1,2022.2.5,59.95333233369406,
,2,2,2,2,0,0,16,,train_dim1_1,10,30,,,,2,0,2,0,,,,,,,,,0,0,0,0,0,9,9,9,1,0,1,0,,,,,,,,,,,,,,,,,,,,,,,,,,,,,,,,,,,,,,,,,,,,,,,,,,,,,,,,,,,,,,,,30,,,,,,,,623.8806285000173,623.8806285000173,623.8806285000173,623.8806285000173,623.8806285000173,up,0.39215169998351485,1,1,0,99,0,-0.07999999999999997,up,0.30478589999256656,,,,,,,,,,,,,,,,,,,,,,,,,,,,,,,,,,,,,,,,,,,,,,,,,,,,,,,,,,,,LU88XK,train_y,red_square,bottom_left,2025-05-12_16h50.54.326,HideSeek_v1,2022.2.5,59.95333233369406,
,2,2,2,2,0,0,16,,train_dim1_1,10,30,,,,2,0,2,0,,,,,,,,,0,0,0,0,0,9,9,9,2,0,2,0,,,,,,,,,,,,,,,,,,,,,,,,,,,,,,,,,,,,,,,,,,,,,,,,,,,,,,,,,,,,,,,,30,,,,,,,,624.2874081999762,624.2874081999762,624.2874081999762,624.2874081999762,624.2874081999762,up,0.3934713999624364,1,1,0,99,0,2.7755575615628914e-17,up,0.2990624000085518,,,,,,,,,,,,,,,,,,,,,,,,,,,,,,,,,,,,,,,,,,,,,,,,,,,,,,,,,,,,LU88XK,train_y,red_square,bottom_left,2025-05-12_16h50.54.326,HideSeek_v1,2022.2.5,59.95333233369406,
,2,2,2,2,0,0,16,,train_dim1_1,10,30,,,,2,0,2,0,,,,,,,,,0,0,0,0,0,9,9,9,3,0,3,0,,,,,,,,,,,,,,,,,,,,,,,,,,,,,,,,,,,,,,,,,,,,,,,,,,,,,,,,,,,,,,,,30,,,,,,,,624.6805150000146,624.6805150000146,624.6805150000146,624.6805150000146,624.6805150000146,up,0.9099433000083081,1,1,0,99,0,0.08000000000000003,up,0.8215734999976121,,,,,,,,,,,,,,,,,,,,,,,,,,,,,,,,,,,,,,,,,,,,,,,,,,,,,,,,,,,,LU88XK,train_y,red_square,bottom_left,2025-05-12_16h50.54.326,HideSeek_v1,2022.2.5,59.95333233369406,
,2,2,2,2,0,0,16,,train_dim1_1,10,30,,,,2,0,2,0,,,,,,,,,0,0,0,0,0,9,9,9,4,0,4,0,,,,,,,,,,,,,,,,,,,,,,,,,,,,,,,,,,,,,,,,,,,,,,,,,,,,,,,,,,,,,,,,30,,,,,,,,625.5972523000091,625.5972523000091,625.5972523000091,625.5972523000091,625.5972523000091,return,2.8120149000314996,1,0,0,0,0,0.08000000000000003,return,2.731675399991218,18,10,0,0.08000000000000003,,,,,,,,,,,,,,,,,,,,,,,,,,,,,,,,,,,,,,,,,,,,,,,,,,,,,,,,LU88XK,train_y,red_square,bottom_left,2025-05-12_16h50.54.326,HideSeek_v1,2022.2.5,59.95333233369406,
,4,1,4,2,0,1,15,,train_dim1_1,11,30,,,,2,0,2,0,,,,,,,,,0,0,0,0,0,10,10,10,0,0,0,0,,,,,,,,,,,,,,,,,,,,,,,,,stimuli/alien_stimuli/15.png,,,,,,,,,,,,,,,,,,,,,,,,,,,,,stimuli/alien_stimuli/16.png,16,2,12,,,,,,,30,,,,,,,,636.4120406999718,636.4120406999718,636.4120406999718,636.4120406999718,636.4120406999718,up,1.790036600024905,1,0,0,99,0.16,-0.24,up,1.6962597999954596,,,,,634.8542437999859,636.4120406999718,0,-0.24,0.0,0.0,-0.24,0,0.0,0,-0.24,629.9821286000079,629.9821286000079,629.9821286000079,629.9821286000079,629.9821286000079,629.9821286000079,629.9821286000079,629.9821286000079,629.9836814600043,4.990194400015753,return,4.849648199975491,,,,,,,,,,,,,,,,,,,,,,,,,,,,,,,,,LU88XK,train_y,red_square,bottom_left,2025-05-12_16h50.54.326,HideSeek_v1,2022.2.5,59.95333233369406,
,4,1,4,2,0,1,15,,train_dim1_1,11,30,,,,2,0,2,0,,,,,,,,,0,0,0,0,0,10,10,10,1,0,1,0,,,,,,,,,,,,,,,,,,,,,,,,,,,,,,,,,,,,,,,,,,,,,,,,,,,,,,,,,,,,,,,,30,,,,,,,,638.2101168999798,638.2101168999798,638.2101168999798,638.2101168999798,638.2101168999798,up,0.7935243000392802,1,0,0,99,0.16,-0.15999999999999998,up,0.7090223000268452,,,,,,,,,,,,,,,,,,,,,,,,,,,,,,,,,,,,,,,,,,,,,,,,,,,,,,,,,,,,LU88XK,train_y,red_square,bottom_left,2025-05-12_16h50.54.326,HideSeek_v1,2022.2.5,59.95333233369406,
,4,1,4,2,0,1,15,,train_dim1_1,11,30,,,,2,0,2,0,,,,,,,,,0,0,0,0,0,10,10,10,2,0,2,0,,,,,,,,,,,,,,,,,,,,,,,,,,,,,,,,,,,,,,,,,,,,,,,,,,,,,,,,,,,,,,,,30,,,,,,,,639.0099753999966,639.0099753999966,639.0099753999966,639.0099753999966,639.0099753999966,return,2.1609329999773763,1,1,0,0,0.16,-0.15999999999999998,return,2.0683297000359744,20,10,0.16,-0.15999999999999998,,,,,,,,,,,,,,,,,,,,,,,,,,,,,,,,,,,,,,,,,,,,,,,,,,,,,,,,LU88XK,train_y,red_square,bottom_left,2025-05-12_16h50.54.326,HideSeek_v1,2022.2.5,59.95333233369406,
,0,0,0,5,0,5,11,,train_dim1_1,12,30,,,,2,0,2,0,,,,,,,,,0,0,0,0,0,11,11,11,0,0,0,0,,,,,,,,,,,,,,,,,,,,,,,,,stimuli/alien_stimuli/11.png,,,,,,,,,,,,,,,,,,,,,,,,,,,,,stimuli/alien_stimuli/15.png,15,4,13,,,,,,,30,,,,,,,,650.5894185000216,650.5894185000216,650.5894185000216,650.5894185000216,650.5894185000216,up,1.6238550000125542,1,1,0,99,-0.16,-0.32,up,1.5391471000039019,,,,,649.0327541999868,650.5894185000216,0.16,-0.24,0.08,0.0,-0.28,0.16,0.16,0.16,-0.24,642.7434447999694,642.7434447999694,642.7434447999694,642.7434447999694,642.7434447999694,642.7434447999694,642.7434447999694,642.7434447999694,642.7443525600014,6.407737800036557,return,6.26149110001279,,,,,,,,,,,,,,,,,,,,,,,,,,,,,,,,,LU88XK,train_y,red_square,bottom_left,2025-05-12_16h50.54.326,HideSeek_v1,2022.2.5,59.95333233369406,
,0,0,0,5,0,5,11,,train_dim1_1,12,30,,,,2,0,2,0,,,,,,,,,0,0,0,0,0,11,11,11,1,0,1,0,,,,,,,,,,,,,,,,,,,,,,,,,,,,,,,,,,,,,,,,,,,,,,,,,,,,,,,,,,,,,,,,30,,,,,,,,652.2196815999923,652.2196815999923,652.2196815999923,652.2196815999923,652.2196815999923,up,1.427279700001236,1,1,0,99,-0.16,-0.24,up,1.3478162999963388,,,,,,,,,,,,,,,,,,,,,,,,,,,,,,,,,,,,,,,,,,,,,,,,,,,,,,,,,,,,LU88XK,train_y,red_square,bottom_left,2025-05-12_16h50.54.326,HideSeek_v1,2022.2.5,59.95333233369406,
,0,0,0,5,0,5,11,,train_dim1_1,12,30,,,,2,0,2,0,,,,,,,,,0,0,0,0,0,11,11,11,2,0,2,0,,,,,,,,,,,,,,,,,,,,,,,,,,,,,,,,,,,,,,,,,,,,,,,,,,,,,,,,,,,,,,,,30,,,,,,,,653.6538910000236,653.6538910000236,653.6538910000236,653.6538910000236,653.6538910000236,up,2.145175800018478,1,1,0,99,-0.16,-0.15999999999999998,up,2.062753099948168,,,,,,,,,,,,,,,,,,,,,,,,,,,,,,,,,,,,,,,,,,,,,,,,,,,,,,,,,,,,LU88XK,train_y,red_square,bottom_left,2025-05-12_16h50.54.326,HideSeek_v1,2022.2.5,59.95333233369406,
,0,0,0,5,0,5,11,,train_dim1_1,12,30,,,,2,0,2,0,,,,,,,,,0,0,0,0,0,11,11,11,3,0,3,0,,,,,,,,,,,,,,,,,,,,,,,,,,,,,,,,,,,,,,,,,,,,,,,,,,,,,,,,,,,,,,,,30,,,,,,,,655.8065437999903,655.8065437999903,655.8065437999903,655.8065437999903,655.8065437999903,down,1.1275055999867618,1,1,0,99,-0.16,-0.24,down,1.0411282000131905,,,,,,,,,,,,,,,,,,,,,,,,,,,,,,,,,,,,,,,,,,,,,,,,,,,,,,,,,,,,LU88XK,train_y,red_square,bottom_left,2025-05-12_16h50.54.326,HideSeek_v1,2022.2.5,59.95333233369406,
,0,0,0,5,0,5,11,,train_dim1_1,12,30,,,,2,0,2,0,,,,,,,,,0,0,0,0,0,11,11,11,4,0,4,0,,,,,,,,,,,,,,,,,,,,,,,,,,,,,,,,,,,,,,,,,,,,,,,,,,,,,,,,,,,,,,,,30,,,,,,,,656.9407227999764,656.9407227999764,656.9407227999764,656.9407227999764,656.9407227999764,up,0.9101193999522366,1,1,0,99,-0.16,-0.15999999999999998,up,0.8334991000010632,,,,,,,,,,,,,,,,,,,,,,,,,,,,,,,,,,,,,,,,,,,,,,,,,,,,,,,,,,,,LU88XK,train_y,red_square,bottom_left,2025-05-12_16h50.54.326,HideSeek_v1,2022.2.5,59.95333233369406,
,0,0,0,5,0,5,11,,train_dim1_1,12,30,,,,2,0,2,0,,,,,,,,,0,0,0,0,0,11,11,11,5,0,5,0,,,,,,,,,,,,,,,,,,,,,,,,,,,,,,,,,,,,,,,,,,,,,,,,,,,,,,,,,,,,,,,,30,,,,,,,,657.8589397000032,657.8589397000032,657.8589397000032,657.8589397000032,657.8589397000032,up,3.9131558999652043,1,1,0,99,-0.16,-0.07999999999999997,up,3.826173799985554,,,,,,,,,,,,,,,,,,,,,,,,,,,,,,,,,,,,,,,,,,,,,,,,,,,,,,,,,,,,LU88XK,train_y,red_square,bottom_left,2025-05-12_16h50.54.326,HideSeek_v1,2022.2.5,59.95333233369406,
,0,0,0,5,0,5,11,,train_dim1_1,12,30,,,,2,0,2,0,,,,,,,,,0,0,0,0,0,11,11,11,6,0,6,0,,,,,,,,,,,,,,,,,,,,,,,,,,,,,,,,,,,,,,,,,,,,,,,,,,,,,,,,,,,,,,,,30,,,,,,,,661.7891730000265,661.7891730000265,661.7891730000265,661.7891730000265,661.7891730000265,up,0.8268689999822527,1,1,0,99,-0.16,2.7755575615628914e-17,up,0.7335001999745145,,,,,,,,,,,,,,,,,,,,,,,,,,,,,,,,,,,,,,,,,,,,,,,,,,,,,,,,,,,,LU88XK,train_y,red_square,bottom_left,2025-05-12_16h50.54.326,HideSeek_v1,2022.2.5,59.95333233369406,
,0,0,0,5,0,5,11,,train_dim1_1,12,30,,,,2,0,2,0,,,,,,,,,0,0,0,0,0,11,11,11,7,0,7,0,,,,,,,,,,,,,,,,,,,,,,,,,,,,,,,,,,,,,,,,,,,,,,,,,,,,,,,,,,,,,,,,30,,,,,,,,662.6107776999706,662.6107776999706,662.6107776999706,662.6107776999706,662.6107776999706,return,1.9280873000388965,2,0,0,1,-0.16,2.7755575615628914e-17,return,1.843303699977696,25,10,-0.16,2.7755575615628914e-17,,,,,,,,,,,,,,,,,,,,,,,,,,,,,,,,,,,,,,,,,,,,,,,,,,,,,,,,LU88XK,train_y,red_square,bottom_left,2025-05-12_16h50.54.326,HideSeek_v1,2022.2.5,59.95333233369406,
,4,3,4,7,0,4,12,,train_dim1_1,13,30,,,,2,0,2,0,,,,,,,,,0,0,0,0,0,12,12,12,0,0,0,0,,,,,,,,,,,,,,,,,,,,,,,,,stimuli/alien_stimuli/12.png,,,,,,,,,,,,,,,,,,,,,,,,,,,,,stimuli/alien_stimuli/11.png,11,0,14,,,,,,,30,,,,,,,,670.534967500018,670.534967500018,670.534967500018,670.534967500018,670.534967500018,return,0.8723123999661766,2,0,0,0,0.16,-0.16,return,0.7812403999851085,25,10,0.16,-0.16,668.9659829000011,670.534967500018,-0.16,0,0.4,0.0,-0.2,-0.16,-0.16,-0.16,0,666.1117885999847,666.1117885999847,666.1117885999847,666.1117885999847,666.1117885999847,666.1117885999847,666.1117885999847,666.1117885999847,666.0969530899833,2.9713777999859303,return,2.82480589998886,,,,,,,,,,,,,,,,,,,,,,,,,,,,,,,,,LU88XK,train_y,red_square,bottom_left,2025-05-12_16h50.54.326,HideSeek_v1,2022.2.5,59.95333233369406,
,2,2,2,2,0,0,16,,train_dim1_1,14,30,,,,2,0,2,0,,,,,,,,,0,0,0,0,0,13,13,13,0,0,0,0,,,,,,,,,,,,,,,,,,,,,,,,,stimuli/alien_stimuli/16.png,,,,,,,,,,,,,,,,,,,,,,,,,,,,,stimuli/alien_stimuli/12.png,12,4,15,,,,,,,30,,,,,,,,681.233349999995,681.233349999995,681.233349999995,681.233349999995,681.233349999995,up,2.923693099990487,2,0,0,99,0,-0.15999999999999998,up,2.830297500011511,,,,,679.6747501000063,681.233349999995,0.16,0.16,0.32,0.0,0.0,0.16,0.16,0.16,0.16,672.9506606999785,672.9506606999785,672.9506606999785,672.9506606999785,672.9506606999785,672.9506606999785,672.9506606999785,672.9506606999785,672.9360138200107,6.8245661000255495,return,6.702673899999354,,,,,,,,,,,,,,,,,,,,,,,,,,,,,,,,,LU88XK,train_y,red_square,bottom_left,2025-05-12_16h50.54.326,HideSeek_v1,2022.2.5,59.95333233369406,
,2,2,2,2,0,0,16,,train_dim1_1,14,30,,,,2,0,2,0,,,,,,,,,0,0,0,0,0,13,13,13,1,0,1,0,,,,,,,,,,,,,,,,,,,,,,,,,,,,,,,,,,,,,,,,,,,,,,,,,,,,,,,,,,,,,,,,30,,,,,,,,684.1639214999741,684.1639214999741,684.1639214999741,684.1639214999741,684.1639214999741,up,0.7766191000118852,2,0,0,99,0,-0.07999999999999997,up,0.6971305999904871,,,,,,,,,,,,,,,,,,,,,,,,,,,,,,,,,,,,,,,,,,,,,,,,,,,,,,,,,,,,LU88XK,train_y,red_square,bottom_left,2025-05-12_16h50.54.326,HideSeek_v1,2022.2.5,59.95333233369406,
,2,2,2,2,0,0,16,,train_dim1_1,14,30,,,,2,0,2,0,,,,,,,,,0,0,0,0,0,13,13,13,2,0,2,0,,,,,,,,,,,,,,,,,,,,,,,,,,,,,,,,,,,,,,,,,,,,,,,,,,,,,,,,,,,,,,,,30,,,,,,,,684.9465677000117,684.9465677000117,684.9465677000117,684.9465677000117,684.9465677000117,up,0.3600501000182703,2,0,0,99,0,2.7755575615628914e-17,up,0.28136110003106296,,,,,,,,,,,,,,,,,,,,,,,,,,,,,,,,,,,,,,,,,,,,,,,,,,,,,,,,,,,,LU88XK,train_y,red_square,bottom_left,2025-05-12_16h50.54.326,HideSeek_v1,2022.2.5,59.95333233369406,
,2,2,2,2,0,0,16,,train_dim1_1,14,30,,,,2,0,2,0,,,,,,,,,0,0,0,0,0,13,13,13,3,0,3,0,,,,,,,,,,,,,,,,,,,,,,,,,,,,,,,,,,,,,,,,,,,,,,,,,,,,,,,,,,,,,,,,30,,,,,,,,685.3131558999885,685.3131558999885,685.3131558999885,685.3131558999885,685.3131558999885,up,0.35960569995222613,2,0,0,99,0,0.08000000000000003,up,0.2805598999839276,,,,,,,,,,,,,,,,,,,,,,,,,,,,,,,,,,,,,,,,,,,,,,,,,,,,,,,,,,,,LU88XK,train_y,red_square,bottom_left,2025-05-12_16h50.54.326,HideSeek_v1,2022.2.5,59.95333233369406,
,2,2,2,2,0,0,16,,train_dim1_1,14,30,,,,2,0,2,0,,,,,,,,,0,0,0,0,0,13,13,13,4,0,4,0,,,,,,,,,,,,,,,,,,,,,,,,,,,,,,,,,,,,,,,,,,,,,,,,,,,,,,,,,,,,,,,,30,,,,,,,,685.6840989000048,685.6840989000048,685.6840989000048,685.6840989000048,685.6840989000048,down,2.128638399997726,2,0,0,99,0,2.7755575615628914e-17,down,2.0322290000040084,,,,,,,,,,,,,,,,,,,,,,,,,,,,,,,,,,,,,,,,,,,,,,,,,,,,,,,,,,,,LU88XK,train_y,red_square,bottom_left,2025-05-12_16h50.54.326,HideSeek_v1,2022.2.5,59.95333233369406,
,2,2,2,2,0,0,16,,train_dim1_1,14,30,,,,2,0,2,0,,,,,,,,,0,0,0,0,0,13,13,13,5,0,5,0,,,,,,,,,,,,,,,,,,,,,,,,,,,,,,,,,,,,,,,,,,,,,,,,,,,,,,,,,,,,,,,,30,,,,,,,,687.8181843999773,687.8181843999773,687.8181843999773,687.8181843999773,687.8181843999773,down,0.3242553999880329,2,0,0,99,0,-0.07999999999999997,down,0.23252469999715686,,,,,,,,,,,,,,,,,,,,,,,,,,,,,,,,,,,,,,,,,,,,,,,,,,,,,,,,,,,,LU88XK,train_y,red_square,bottom_left,2025-05-12_16h50.54.326,HideSeek_v1,2022.2.5,59.95333233369406,
,2,2,2,2,0,0,16,,train_dim1_1,14,30,,,,2,0,2,0,,,,,,,,,0,0,0,0,0,13,13,13,6,0,6,0,,,,,,,,,,,,,,,,,,,,,,,,,,,,,,,,,,,,,,,,,,,,,,,,,,,,,,,,,,,,,,,,30,,,,,,,,688.1487969000009,688.1487969000009,688.1487969000009,688.1487969000009,688.1487969000009,down,0.25957320001907647,2,0,0,99,0,-0.15999999999999998,down,0.17561530001694337,,,,,,,,,,,,,,,,,,,,,,,,,,,,,,,,,,,,,,,,,,,,,,,,,,,,,,,,,,,,LU88XK,train_y,red_square,bottom_left,2025-05-12_16h50.54.326,HideSeek_v1,2022.2.5,59.95333233369406,
,2,2,2,2,0,0,16,,train_dim1_1,14,30,,,,2,0,2,0,,,,,,,,,0,0,0,0,0,13,13,13,7,0,7,0,,,,,,,,,,,,,,,,,,,,,,,,,,,,,,,,,,,,,,,,,,,,,,,,,,,,,,,,,,,,,,,,30,,,,,,,,688.4157257999759,688.4157257999759,688.4157257999759,688.4157257999759,688.4157257999759,return,0.9107268999796361,2,1,0,0,0,-0.15999999999999998,return,0.8296944000176154,26,10,0,-0.15999999999999998,,,,,,,,,,,,,,,,,,,,,,,,,,,,,,,,,,,,,,,,,,,,,,,,,,,,,,,,LU88XK,train_y,red_square,bottom_left,2025-05-12_16h50.54.326,HideSeek_v1,2022.2.5,59.95333233369406,
,1,4,1,7,0,3,13,,train_dim1_1,15,30,,,,2,0,2,0,,,,,,,,,0,0,0,0,0,14,14,14,0,0,0,0,,,,,,,,,,,,,,,,,,,,,,,,,stimuli/alien_stimuli/13.png,,,,,,,,,,,,,,,,,,,,,,,,,,,,,stimuli/alien_stimuli/16.png,16,2,16,,,,,,,30,,,,,,,,695.8098310999922,695.8098310999922,695.8098310999922,695.8098310999922,695.8098310999922,up,1.4898420000099577,2,1,0,99,-0.08,0.0,up,1.4135766999679618,,,,,694.2536269999691,695.8098310999922,0,-0.24,0.0,0.0,-0.24,0,0.0,0,-0.24,690.8961404999718,690.8961404999718,690.8961404999718,690.8961404999718,690.8961404999718,690.8961404999718,690.8961404999718,690.8961404999718,690.884255490027,3.471984700008761,return,3.3397205999935977,,,,,,,,,,,,,,,,,,,,,,,,,,,,,,,,,LU88XK,train_y,red_square,bottom_left,2025-05-12_16h50.54.326,HideSeek_v1,2022.2.5,59.95333233369406,
,1,4,1,7,0,3,13,,train_dim1_1,15,30,,,,2,0,2,0,,,,,,,,,0,0,0,0,0,14,14,14,1,0,1,0,,,,,,,,,,,,,,,,,,,,,,,,,,,,,,,,,,,,,,,,,,,,,,,,,,,,,,,,,,,,,,,,30,,,,,,,,697.3067382000154,697.3067382000154,697.3067382000154,697.3067382000154,697.3067382000154,up,0.8933126000338234,2,1,0,99,-0.08,0.08,up,0.8050297000445426,,,,,,,,,,,,,,,,,,,,,,,,,,,,,,,,,,,,,,,,,,,,,,,,,,,,,,,,,,,,LU88XK,train_y,red_square,bottom_left,2025-05-12_16h50.54.326,HideSeek_v1,2022.2.5,59.95333233369406,
,1,4,1,7,0,3,13,,train_dim1_1,15,30,,,,2,0,2,0,,,,,,,,,0,0,0,0,0,14,14,14,2,0,2,0,,,,,,,,,,,,,,,,,,,,,,,,,,,,,,,,,,,,,,,,,,,,,,,,,,,,,,,,,,,,,,,,30,,,,,,,,698.2066665000166,698.2066665000166,698.2066665000166,698.2066665000166,698.2066665000166,up,0.960426900011953,2,1,0,99,-0.08,0.16,up,0.8779029999859631,,,,,,,,,,,,,,,,,,,,,,,,,,,,,,,,,,,,,,,,,,,,,,,,,,,,,,,,,,,,LU88XK,train_y,red_square,bottom_left,2025-05-12_16h50.54.326,HideSeek_v1,2022.2.5,59.95333233369406,
,1,4,1,7,0,3,13,,train_dim1_1,15,30,,,,2,0,2,0,,,,,,,,,0,0,0,0,0,14,14,14,3,0,3,0,,,,,,,,,,,,,,,,,,,,,,,,,,,,,,,,,,,,,,,,,,,,,,,,,,,,,,,,,,,,,,,,30,,,,,,,,699.1738865000079,699.1738865000079,699.1738865000079,699.1738865000079,699.1738865000079,up,2.4784847000264563,2,1,0,99,-0.08,0.24,up,2.388777200016193,,,,,,,,,,,,,,,,,,,,,,,,,,,,,,,,,,,,,,,,,,,,,,,,,,,,,,,,,,,,LU88XK,train_y,red_square,bottom_left,2025-05-12_16h50.54.326,HideSeek_v1,2022.2.5,59.95333233369406,
,1,4,1,7,0,3,13,,train_dim1_1,15,30,,,,2,0,2,0,,,,,,,,,0,0,0,0,0,14,14,14,4,0,4,0,,,,,,,,,,,,,,,,,,,,,,,,,,,,,,,,,,,,,,,,,,,,,,,,,,,,,,,,,,,,,,,,30,,,,,,,,701.659807900025,701.659807900025,701.659807900025,701.659807900025,701.659807900025,return,0.9604018999962136,2,1,0,0,-0.08,0.24,return,0.8789641999755986,30,10,-0.08,0.24,,,,,,,,,,,,,,,,,,,,,,,,,,,,,,,,,,,,,,,,,,,,,,,,,,,,,,,,LU88XK,train_y,red_square,bottom_left,2025-05-12_16h50.54.326,HideSeek_v1,2022.2.5,59.95333233369406,
,4,0,4,1,0,1,15,,train_dim1_1,16,30,,,,2,0,2,0,,,,,,,,,0,0,0,0,0,15,15,15,0,0,0,0,,,,,,,,,,,,,,,,,,,,,,,,,stimuli/alien_stimuli/15.png,,,,,,,,,,,,,,,,,,,,,,,,,,,,,stimuli/alien_stimuli/13.png,13,1,17,,,,,,,30,,,,,,,,707.9855674999999,707.9855674999999,707.9855674999999,707.9855674999999,707.9855674999999,return,2.0745239999960177,2,1,0,0,0.16,-0.4,return,1.9971093999920413,30,10,0.16,-0.4,706.430135499977,707.9855674999999,-0.08,0.16,0.24,0.0,0.04,-0.08,-0.08,-0.08,0.16,704.201666900015,704.201666900015,704.201666900015,704.201666900015,704.201666900015,704.201666900015,704.201666900015,704.201666900015,704.1952547600143,2.3542400999576785,return,2.198676300002262,,,,,,,,,,,,,,,,,,,,,,,,,,,,,,,,,LU88XK,train_y,red_square,bottom_left,2025-05-12_16h50.54.326,HideSeek_v1,2022.2.5,59.95333233369406,
,3,3,3,6,0,3,13,,train_dim1_1,17,30,,,,2,0,2,0,,,,,,,,,0,0,0,0,0,16,16,16,0,0,0,0,,,,,,,,,,,,,,,,,,,,,,,,,stimuli/alien_stimuli/13.png,,,,,,,,,,,,,,,,,,,,,,,,,,,,,stimuli/alien_stimuli/15.png,15,4,18,,,,,,,30,,,,,,,,714.5931912999949,714.5931912999949,714.5931912999949,714.5931912999949,714.5931912999949,up,0.537720900028944,2,1,0,99,0.08,-0.08,up,0.4500883999862708,,,,,713.0358805999858,714.5931912999949,0.16,-0.32,0.08,0.0,-0.36,0.16,0.16,0.16,-0.32,711.6237675999873,711.6237675999873,711.6237675999873,711.6237675999873,711.6237675999873,711.6237675999873,711.6237675999873,711.6237675999873,711.6185786899819,1.519613400043454,return,1.3948925999575295,,,,,,,,,,,,,,,,,,,,,,,,,,,,,,,,,LU88XK,train_y,red_square,bottom_left,2025-05-12_16h50.54.326,HideSeek_v1,2022.2.5,59.95333233369406,
,3,3,3,6,0,3,13,,train_dim1_1,17,30,,,,2,0,2,0,,,,,,,,,0,0,0,0,0,16,16,16,1,0,1,0,,,,,,,,,,,,,,,,,,,,,,,,,,,,,,,,,,,,,,,,,,,,,,,,,,,,,,,,,,,,,,,,30,,,,,,,,715.1578947000089,715.1578947000089,715.1578947000089,715.1578947000089,715.1578947000089,up,0.3901744000031613,2,1,0,99,0.08,0.0,up,0.28814319998491555,,,,,,,,,,,,,,,,,,,,,,,,,,,,,,,,,,,,,,,,,,,,,,,,,,,,,,,,,,,,LU88XK,train_y,red_square,bottom_left,2025-05-12_16h50.54.326,HideSeek_v1,2022.2.5,59.95333233369406,
,3,3,3,6,0,3,13,,train_dim1_1,17,30,,,,2,0,2,0,,,,,,,,,0,0,0,0,0,16,16,16,2,0,2,0,,,,,,,,,,,,,,,,,,,,,,,,,,,,,,,,,,,,,,,,,,,,,,,,,,,,,,,,,,,,,,,,30,,,,,,,,715.53868160001,715.53868160001,715.53868160001,715.53868160001,715.53868160001,up,1.4440346999908797,2,1,0,99,0.08,0.08,up,1.3564333000103943,,,,,,,,,,,,,,,,,,,,,,,,,,,,,,,,,,,,,,,,,,,,,,,,,,,,,,,,,,,,LU88XK,train_y,red_square,bottom_left,2025-05-12_16h50.54.326,HideSeek_v1,2022.2.5,59.95333233369406,
,3,3,3,6,0,3,13,,train_dim1_1,17,30,,,,2,0,2,0,,,,,,,,,0,0,0,0,0,16,16,16,3,0,3,0,,,,,,,,,,,,,,,,,,,,,,,,,,,,,,,,,,,,,,,,,,,,,,,,,,,,,,,,,,,,,,,,30,,,,,,,,716.9888038000208,716.9888038000208,716.9888038000208,716.9888038000208,716.9888038000208,up,1.8616623999550939,2,1,0,99,0.08,0.16,up,1.7848510000039823,,,,,,,,,,,,,,,,,,,,,,,,,,,,,,,,,,,,,,,,,,,,,,,,,,,,,,,,,,,,LU88XK,train_y,red_square,bottom_left,2025-05-12_16h50.54.326,HideSeek_v1,2022.2.5,59.95333233369406,
,3,3,3,6,0,3,13,,train_dim1_1,17,30,,,,2,0,2,0,,,,,,,,,0,0,0,0,0,16,16,16,4,0,4,0,,,,,,,,,,,,,,,,,,,,,,,,,,,,,,,,,,,,,,,,,,,,,,,,,,,,,,,,,,,,,,,,30,,,,,,,,718.8574887000141,718.8574887000141,718.8574887000141,718.8574887000141,718.8574887000141,return,1.2274428000091575,2,1,0,0,0.08,0.16,return,1.1440211000153795,34,10,0.08,0.16,,,,,,,,,,,,,,,,,,,,,,,,,,,,,,,,,,,,,,,,,,,,,,,,,,,,,,,,LU88XK,train_y,red_square,bottom_left,2025-05-12_16h50.54.326,HideSeek_v1,2022.2.5,59.95333233369406,
,2,1,2,6,0,5,11,,train_dim1_1,18,30,,,,2,0,2,0,,,,,,,,,0,0,0,0,0,17,17,17,0,0,0,0,,,,,,,,,,,,,,,,,,,,,,,,,stimuli/alien_stimuli/11.png,,,,,,,,,,,,,,,,,,,,,,,,,,,,,stimuli/alien_stimuli/13.png,13,3,19,,,,,,,30,,,,,,,,725.1001179000014,725.1001179000014,725.1001179000014,725.1001179000014,725.1001179000014,up,3.1920393999898806,2,1,0,99,0,-0.24,up,3.1125462000491098,,,,,723.5446119999979,725.1001179000014,0.08,0.08,0.24,0.0,-0.04,0.08,0.08,0.08,0.08,721.6427907000179,721.6427907000179,721.6427907000179,721.6427907000179,721.6427907000179,721.6427907000179,721.6427907000179,721.6427907000179,721.6431743900116,2.0040176999755204,return,1.8787615000037476,,,,,,,,,,,,,,,,,,,,,,,,,,,,,,,,,LU88XK,train_y,red_square,bottom_left,2025-05-12_16h50.54.326,HideSeek_v1,2022.2.5,59.95333233369406,
,2,1,2,6,0,5,11,,train_dim1_1,18,30,,,,2,0,2,0,,,,,,,,,0,0,0,0,0,17,17,17,1,0,1,0,,,,,,,,,,,,,,,,,,,,,,,,,,,,,,,,,,,,,,,,,,,,,,,,,,,,,,,,,,,,,,,,30,,,,,,,,728.2996414999943,728.2996414999943,728.2996414999943,728.2996414999943,728.2996414999943,return,0.5425339000066742,2,0,0,0,0,-0.24,return,0.45428479998372495,35,10,0,-0.24,,,,,,,,,,,,,,,,,,,,,,,,,,,,,,,,,,,,,,,,,,,,,,,,,,,,,,,,LU88XK,train_y,red_square,bottom_left,2025-05-12_16h50.54.326,HideSeek_v1,2022.2.5,59.95333233369406,
,0,4,0,8,0,4,12,,train_dim1_1,19,30,,,,2,0,2,0,,,,,,,,,0,0,0,0,0,18,18,18,0,0,0,0,,,,,,,,,,,,,,,,,,,,,,,,,stimuli/alien_stimuli/12.png,,,,,,,,,,,,,,,,,,,,,,,,,,,,,stimuli/alien_stimuli/11.png,11,2,20,,,,,,,30,,,,,,,,737.7113944999874,737.7113944999874,737.7113944999874,737.7113944999874,737.7113944999874,up,2.0741717999917455,2,0,0,99,-0.16,0.0,up,1.9861062000272796,,,,,736.154941899993,737.7113944999874,0,0.08,0.4,0.0,-0.12,0,0.0,0,0.08,730.4142148999963,730.4142148999963,730.4142148999963,730.4142148999963,730.4142148999963,730.4142148999963,730.4142148999963,730.4142148999963,730.4002143900084,5.857034399989061,return,5.717506799963303,,,,,,,,,,,,,,,,,,,,,,,,,,,,,,,,,LU88XK,train_y,red_square,bottom_left,2025-05-12_16h50.54.326,HideSeek_v1,2022.2.5,59.95333233369406,
,0,4,0,8,0,4,12,,train_dim1_1,19,30,,,,2,0,2,0,,,,,,,,,0,0,0,0,0,18,18,18,1,0,1,0,,,,,,,,,,,,,,,,,,,,,,,,,,,,,,,,,,,,,,,,,,,,,,,,,,,,,,,,,,,,,,,,30,,,,,,,,739.7924373999704,739.7924373999704,739.7924373999704,739.7924373999704,739.7924373999704,up,0.9767784000141546,2,0,0,99,-0.16,0.08,up,0.8845779999974184,,,,,,,,,,,,,,,,,,,,,,,,,,,,,,,,,,,,,,,,,,,,,,,,,,,,,,,,,,,,LU88XK,train_y,red_square,bottom_left,2025-05-12_16h50.54.326,HideSeek_v1,2022.2.5,59.95333233369406,
,0,4,0,8,0,4,12,,train_dim1_1,19,30,,,,2,0,2,0,,,,,,,,,0,0,0,0,0,18,18,18,2,0,2,0,,,,,,,,,,,,,,,,,,,,,,,,,,,,,,,,,,,,,,,,,,,,,,,,,,,,,,,,,,,,,,,,30,,,,,,,,740.7762222000165,740.7762222000165,740.7762222000165,740.7762222000165,740.7762222000165,up,0.8772066000383347,2,0,0,99,-0.16,0.16,up,0.7878258999553509,,,,,,,,,,,,,,,,,,,,,,,,,,,,,,,,,,,,,,,,,,,,,,,,,,,,,,,,,,,,LU88XK,train_y,red_square,bottom_left,2025-05-12_16h50.54.326,HideSeek_v1,2022.2.5,59.95333233369406,
,0,4,0,8,0,4,12,,train_dim1_1,19,30,,,,2,0,2,0,,,,,,,,,0,0,0,0,0,18,18,18,3,0,3,0,,,,,,,,,,,,,,,,,,,,,,,,,,,,,,,,,,,,,,,,,,,,,,,,,,,,,,,,,,,,,,,,30,,,,,,,,741.660811299982,741.660811299982,741.660811299982,741.660811299982,741.660811299982,return,2.8785794000141323,2,1,0,0,-0.16,0.16,return,2.800519800046459,38,10,-0.16,0.16,,,,,,,,,,,,,,,,,,,,,,,,,,,,,,,,,,,,,,,,,,,,,,,,,,,,,,,,LU88XK,train_y,red_square,bottom_left,2025-05-12_16h50.54.326,HideSeek_v1,2022.2.5,59.95333233369406,
,2,0,2,0,0,0,16,,train_dim1_1,20,30,,,,2,0,2,0,,,,,,,,,0,0,0,0,0,19,19,19,0,0,0,0,,,,,,,,,,,,,,,,,,,,,,,,,stimuli/alien_stimuli/16.png,,,,,,,,,,,,,,,,,,,,,,,,,,,,,stimuli/alien_stimuli/12.png,12,0,21,,,,,,,30,,,,,,,,750.7060880999779,750.7060880999779,750.7060880999779,750.7060880999779,750.7060880999779,up,2.890895000018645,2,1,0,99,0,-0.32,up,2.797822799999267,,,,,749.1490161999827,750.7060880999779,-0.16,0.24,0.32,0.0,0.07999999999999999,-0.16,-0.16,-0.16,0.24,746.1125766999903,746.1125766999903,746.1125766999903,746.1125766999903,746.1125766999903,746.1125766999903,746.1125766999903,746.1125766999903,746.1132842600113,3.155253399978392,return,3.0208233000012115,,,,,,,,,,,,,,,,,,,,,,,,,,,,,,,,,LU88XK,train_y,red_square,bottom_left,2025-05-12_16h50.54.326,HideSeek_v1,2022.2.5,59.95333233369406,
,2,0,2,0,0,0,16,,train_dim1_1,20,30,,,,2,0,2,0,,,,,,,,,0,0,0,0,0,19,19,19,1,0,1,0,,,,,,,,,,,,,,,,,,,,,,,,,,,,,,,,,,,,,,,,,,,,,,,,,,,,,,,,,,,,,,,,30,,,,,,,,753.6049307999783,753.6049307999783,753.6049307999783,753.6049307999783,753.6049307999783,return,0.5761370999971405,2,1,0,0,0,-0.32,return,0.48269159998744726,39,10,0,-0.32,,,,,,,,,,,,,,,,,,,,,,,,,,,,,,,,,,,,,,,,,,,,,,,,,,,,,,,,LU88XK,train_y,red_square,bottom_left,2025-05-12_16h50.54.326,HideSeek_v1,2022.2.5,59.95333233369406,
,2,4,2,5,0,1,15,,train_dim1_1,21,30,,,,2,0,2,0,,,,,,,,,0,0,0,0,0,20,20,20,0,0,0,0,,,,,,,,,,,,,,,,,,,,,,,,,stimuli/alien_stimuli/15.png,,,,,,,,,,,,,,,,,,,,,,,,,,,,,stimuli/alien_stimuli/16.png,16,2,22,,,,,,,30,,,,,,,,759.1319823000231,759.1319823000231,759.1319823000231,759.1319823000231,759.1319823000231,up,0.636806600028649,2,1,0,99,0,0.0,up,0.5440075999940746,,,,,757.572632299969,759.1319823000231,0,-0.4,0.0,0.0,-0.4,0,0.0,0,-0.4,755.7357973000035,755.7357973000035,755.7357973000035,755.7357973000035,755.7357973000035,755.7357973000035,755.7357973000035,755.7357973000035,755.7212619200116,1.9369099999894388,return,1.815590100013651,,,,,,,,,,,,,,,,,,,,,,,,,,,,,,,,,LU88XK,train_y,red_square,bottom_left,2025-05-12_16h50.54.326,HideSeek_v1,2022.2.5,59.95333233369406,
,2,4,2,5,0,1,15,,train_dim1_1,21,30,,,,2,0,2,0,,,,,,,,,0,0,0,0,0,20,20,20,1,0,1,0,,,,,,,,,,,,,,,,,,,,,,,,,,,,,,,,,,,,,,,,,,,,,,,,,,,,,,,,,,,,,,,,30,,,,,,,,759.7762124000001,759.7762124000001,759.7762124000001,759.7762124000001,759.7762124000001,up,1.377172399952542,2,1,0,99,0,0.08,up,1.2847319000284187,,,,,,,,,,,,,,,,,,,,,,,,,,,,,,,,,,,,,,,,,,,,,,,,,,,,,,,,,,,,LU88XK,train_y,red_square,bottom_left,2025-05-12_16h50.54.326,HideSeek_v1,2022.2.5,59.95333233369406,
,2,4,2,5,0,1,15,,train_dim1_1,21,30,,,,2,0,2,0,,,,,,,,,0,0,0,0,0,20,20,20,2,0,2,0,,,,,,,,,,,,,,,,,,,,,,,,,,,,,,,,,,,,,,,,,,,,,,,,,,,,,,,,,,,,,,,,30,,,,,,,,761.1599933999823,761.1599933999823,761.1599933999823,761.1599933999823,761.1599933999823,down,1.6111928999889642,2,1,0,99,0,0.0,down,1.5223070999491028,,,,,,,,,,,,,,,,,,,,,,,,,,,,,,,,,,,,,,,,,,,,,,,,,,,,,,,,,,,,LU88XK,train_y,red_square,bottom_left,2025-05-12_16h50.54.326,HideSeek_v1,2022.2.5,59.95333233369406,
,2,4,2,5,0,1,15,,train_dim1_1,21,30,,,,2,0,2,0,,,,,,,,,0,0,0,0,0,20,20,20,3,0,3,0,,,,,,,,,,,,,,,,,,,,,,,,,,,,,,,,,,,,,,,,,,,,,,,,,,,,,,,,,,,,,,,,30,,,,,,,,762.7779274000204,762.7779274000204,762.7779274000204,762.7779274000204,762.7779274000204,down,0.3763739999849349,2,1,0,99,0,-0.08,down,0.284539699961897,,,,,,,,,,,,,,,,,,,,,,,,,,,,,,,,,,,,,,,,,,,,,,,,,,,,,,,,,,,,LU88XK,train_y,red_square,bottom_left,2025-05-12_16h50.54.326,HideSeek_v1,2022.2.5,59.95333233369406,
,2,4,2,5,0,1,15,,train_dim1_1,21,30,,,,2,0,2,0,,,,,,,,,0,0,0,0,0,20,20,20,4,0,4,0,,,,,,,,,,,,,,,,,,,,,,,,,,,,,,,,,,,,,,,,,,,,,,,,,,,,,,,,,,,,,,,,30,,,,,,,,763.1613947000005,763.1613947000005,763.1613947000005,763.1613947000005,763.1613947000005,up,1.394332800002303,2,1,0,99,0,0.0,up,1.3067708000307903,,,,,,,,,,,,,,,,,,,,,,,,,,,,,,,,,,,,,,,,,,,,,,,,,,,,,,,,,,,,LU88XK,train_y,red_square,bottom_left,2025-05-12_16h50.54.326,HideSeek_v1,2022.2.5,59.95333233369406,
,2,4,2,5,0,1,15,,train_dim1_1,21,30,,,,2,0,2,0,,,,,,,,,0,0,0,0,0,20,20,20,5,0,5,0,,,,,,,,,,,,,,,,,,,,,,,,,,,,,,,,,,,,,,,,,,,,,,,,,,,,,,,,,,,,,,,,30,,,,,,,,764.5629450000124,764.5629450000124,764.5629450000124,764.5629450000124,764.5629450000124,return,0.5603567999787629,3,0,0,1,0,0.0,return,0.478682899964042,40,10,0,0.0,,,,,,,,,,,,,,,,,,,,,,,,,,,,,,,,,,,,,,,,,,,,,,,,,,,,,,,,LU88XK,train_y,red_square,bottom_left,2025-05-12_16h50.54.326,HideSeek_v1,2022.2.5,59.95333233369406,
,0,2,0,5,0,3,13,,train_dim1_1,22,30,,,,2,0,2,0,,,,,,,,,0,0,0,0,0,21,21,21,0,0,0,0,,,,,,,,,,,,,,,,,,,,,,,,,stimuli/alien_stimuli/13.png,,,,,,,,,,,,,,,,,,,,,,,,,,,,,stimuli/alien_stimuli/15.png,15,2,23,,,,,,,30,,,,,,,,771.1555156999966,771.1555156999966,771.1555156999966,771.1555156999966,771.1555156999966,up,0.8892573000048287,3,0,0,99,-0.16,-0.15999999999999998,up,0.8003633000189438,,,,,769.5992342000245,771.1555156999966,0,0,0.08,0.0,-0.04,0,0.0,0,0,766.6798458999838,766.6798458999838,766.6798458999838,766.6798458999838,766.6798458999838,766.6798458999838,766.6798458999838,766.6798458999838,766.6802273900189,3.0215363000170328,return,2.889564400014933,,,,,,,,,,,,,,,,,,,,,,,,,,,,,,,,,LU88XK,train_y,red_square,bottom_left,2025-05-12_16h50.54.326,HideSeek_v1,2022.2.5,59.95333233369406,
,0,2,0,5,0,3,13,,train_dim1_1,22,30,,,,2,0,2,0,,,,,,,,,0,0,0,0,0,21,21,21,1,0,1,0,,,,,,,,,,,,,,,,,,,,,,,,,,,,,,,,,,,,,,,,,,,,,,,,,,,,,,,,,,,,,,,,30,,,,,,,,772.0521494999994,772.0521494999994,772.0521494999994,772.0521494999994,772.0521494999994,up,0.47670330002438277,3,0,0,99,-0.16,-0.07999999999999997,up,0.39347529999213293,,,,,,,,,,,,,,,,,,,,,,,,,,,,,,,,,,,,,,,,,,,,,,,,,,,,,,,,,,,,LU88XK,train_y,red_square,bottom_left,2025-05-12_16h50.54.326,HideSeek_v1,2022.2.5,59.95333233369406,
,0,2,0,5,0,3,13,,train_dim1_1,22,30,,,,2,0,2,0,,,,,,,,,0,0,0,0,0,21,21,21,2,0,2,0,,,,,,,,,,,,,,,,,,,,,,,,,,,,,,,,,,,,,,,,,,,,,,,,,,,,,,,,,,,,,,,,30,,,,,,,,772.5354332000134,772.5354332000134,772.5354332000134,772.5354332000134,772.5354332000134,up,1.143850599997677,3,0,0,99,-0.16,2.7755575615628914e-17,up,1.0632831000257283,,,,,,,,,,,,,,,,,,,,,,,,,,,,,,,,,,,,,,,,,,,,,,,,,,,,,,,,,,,,LU88XK,train_y,red_square,bottom_left,2025-05-12_16h50.54.326,HideSeek_v1,2022.2.5,59.95333233369406,
,0,2,0,5,0,3,13,,train_dim1_1,22,30,,,,2,0,2,0,,,,,,,,,0,0,0,0,0,21,21,21,3,0,3,0,,,,,,,,,,,,,,,,,,,,,,,,,,,,,,,,,,,,,,,,,,,,,,,,,,,,,,,,,,,,,,,,30,,,,,,,,773.6864067999995,773.6864067999995,773.6864067999995,773.6864067999995,773.6864067999995,up,1.3106862000422552,3,0,0,99,-0.16,0.08000000000000003,up,1.2286704000434838,,,,,,,,,,,,,,,,,,,,,,,,,,,,,,,,,,,,,,,,,,,,,,,,,,,,,,,,,,,,LU88XK,train_y,red_square,bottom_left,2025-05-12_16h50.54.326,HideSeek_v1,2022.2.5,59.95333233369406,
,0,2,0,5,0,3,13,,train_dim1_1,22,30,,,,2,0,2,0,,,,,,,,,0,0,0,0,0,21,21,21,4,0,4,0,,,,,,,,,,,,,,,,,,,,,,,,,,,,,,,,,,,,,,,,,,,,,,,,,,,,,,,,,,,,,,,,30,,,,,,,,775.0049480000162,775.0049480000162,775.0049480000162,775.0049480000162,775.0049480000162,return,0.477083700010553,3,1,0,0,-0.16,0.08000000000000003,return,0.38564019999466836,44,10,-0.16,0.08000000000000003,,,,,,,,,,,,,,,,,,,,,,,,,,,,,,,,,,,,,,,,,,,,,,,,,,,,,,,,LU88XK,train_y,red_square,bottom_left,2025-05-12_16h50.54.326,HideSeek_v1,2022.2.5,59.95333233369406,
,0,3,0,8,0,5,11,,train_dim1_1,23,30,,,,2,0,2,0,,,,,,,,,0,0,0,0,0,22,22,22,0,0,0,0,,,,,,,,,,,,,,,,,,,,,,,,,stimuli/alien_stimuli/11.png,,,,,,,,,,,,,,,,,,,,,,,,,,,,,stimuli/alien_stimuli/13.png,13,0,24,,,,,,,30,,,,,,,,780.2633474000031,780.2633474000031,780.2633474000031,780.2633474000031,780.2633474000031,up,0.8894222999806516,3,1,0,99,-0.16,-0.08,up,0.8057337999925949,,,,,778.7067949000048,780.2633474000031,-0.16,0,0.24,0.0,-0.12,-0.16,-0.16,-0.16,0,777.0516486999695,777.0516486999695,777.0516486999695,777.0516486999695,777.0516486999695,777.0516486999695,777.0516486999695,777.0516486999695,777.0390233899757,1.7702042000018992,return,1.6281011000392027,,,,,,,,,,,,,,,,,,,,,,,,,,,,,,,,,LU88XK,train_y,red_square,bottom_left,2025-05-12_16h50.54.326,HideSeek_v1,2022.2.5,59.95333233369406,
,0,3,0,8,0,5,11,,train_dim1_1,23,30,,,,2,0,2,0,,,,,,,,,0,0,0,0,0,22,22,22,1,0,1,0,,,,,,,,,,,,,,,,,,,,,,,,,,,,,,,,,,,,,,,,,,,,,,,,,,,,,,,,,,,,,,,,30,,,,,,,,781.1599299000227,781.1599299000227,781.1599299000227,781.1599299000227,781.1599299000227,up,0.3762374999932945,3,1,0,99,-0.16,0.0,up,0.2973180999979377,,,,,,,,,,,,,,,,,,,,,,,,,,,,,,,,,,,,,,,,,,,,,,,,,,,,,,,,,,,,LU88XK,train_y,red_square,bottom_left,2025-05-12_16h50.54.326,HideSeek_v1,2022.2.5,59.95333233369406,
,0,3,0,8,0,5,11,,train_dim1_1,23,30,,,,2,0,2,0,,,,,,,,,0,0,0,0,0,22,22,22,2,0,2,0,,,,,,,,,,,,,,,,,,,,,,,,,,,,,,,,,,,,,,,,,,,,,,,,,,,,,,,,,,,,,,,,30,,,,,,,,781.5440095000085,781.5440095000085,781.5440095000085,781.5440095000085,781.5440095000085,return,3.5791973000159487,3,0,0,0,-0.16,0.0,return,3.488037900009658,46,10,-0.16,0.0,,,,,,,,,,,,,,,,,,,,,,,,,,,,,,,,,,,,,,,,,,,,,,,,,,,,,,,,LU88XK,train_y,red_square,bottom_left,2025-05-12_16h50.54.326,HideSeek_v1,2022.2.5,59.95333233369406,
,3,2,3,2,0,0,16,,train_dim1_1,24,30,,,,2,0,2,0,,,,,,,,,0,0,0,0,0,23,23,23,0,0,0,0,,,,,,,,,,,,,,,,,,,,,,,,,stimuli/alien_stimuli/16.png,,,,,,,,,,,,,,,,,,,,,,,,,,,,,stimuli/alien_stimuli/11.png,11,0,25,,,,,,,30,,,,,,,,789.7368323000264,789.7368323000264,789.7368323000264,789.7368323000264,789.7368323000264,up,2.007382999989204,3,0,0,99,0.08,-0.15999999999999998,up,1.9235000000335276,,,,,788.1814760999987,789.7368323000264,-0.16,0.24,0.4,0.0,0.039999999999999994,-0.16,-0.16,-0.16,0.24,786.6795950999949,786.6795950999949,786.6795950999949,786.6795950999949,786.6795950999949,786.6795950999949,786.6795950999949,786.6795950999949,786.6802895900269,1.6034611000213772,return,1.473762900044676,,,,,,,,,,,,,,,,,,,,,,,,,,,,,,,,,LU88XK,train_y,red_square,bottom_left,2025-05-12_16h50.54.326,HideSeek_v1,2022.2.5,59.95333233369406,
,3,2,3,2,0,0,16,,train_dim1_1,24,30,,,,2,0,2,0,,,,,,,,,0,0,0,0,0,23,23,23,1,0,1,0,,,,,,,,,,,,,,,,,,,,,,,,,,,,,,,,,,,,,,,,,,,,,,,,,,,,,,,,,,,,,,,,30,,,,,,,,791.751817899989,791.751817899989,791.751817899989,791.751817899989,791.751817899989,down,0.9433943000040017,3,0,0,99,0.08,-0.24,down,0.857631399994716,,,,,,,,,,,,,,,,,,,,,,,,,,,,,,,,,,,,,,,,,,,,,,,,,,,,,,,,,,,,LU88XK,train_y,red_square,bottom_left,2025-05-12_16h50.54.326,HideSeek_v1,2022.2.5,59.95333233369406,
,3,2,3,2,0,0,16,,train_dim1_1,24,30,,,,2,0,2,0,,,,,,,,,0,0,0,0,0,23,23,23,2,0,2,0,,,,,,,,,,,,,,,,,,,,,,,,,,,,,,,,,,,,,,,,,,,,,,,,,,,,,,,,,,,,,,,,30,,,,,,,,792.7022243000101,792.7022243000101,792.7022243000101,792.7022243000101,792.7022243000101,return,0.4602525000227615,4,0,0,1,0.08,-0.24,return,0.38345809996826574,46,10,0.08,-0.24,,,,,,,,,,,,,,,,,,,,,,,,,,,,,,,,,,,,,,,,,,,,,,,,,,,,,,,,LU88XK,train_y,red_square,bottom_left,2025-05-12_16h50.54.326,HideSeek_v1,2022.2.5,59.95333233369406,
,3,3,3,7,0,4,12,,train_dim1_1,25,30,,,,2,0,2,0,,,,,,,,,0,0,0,0,0,24,24,24,0,0,0,0,,,,,,,,,,,,,,,,,,,,,,,,,stimuli/alien_stimuli/12.png,,,,,,,,,,,,,,,,,,,,,,,,,,,,,stimuli/alien_stimuli/16.png,16,3,26,,,,,,,30,,,,,,,,797.9325227999943,797.9325227999943,797.9325227999943,797.9325227999943,797.9325227999943,up,0.6687680999748409,4,0,0,99,0.08,-0.08,up,0.5853857999900356,,,,,796.3714622000116,797.9325227999943,0.08,-0.24,0.0,0.0,-0.24,0.08,0.08,0.08,-0.24,794.738738199987,794.738738199987,794.738738199987,794.738738199987,794.738738199987,794.738738199987,794.738738199987,794.738738199987,794.7371790599776,1.7532287999638356,return,1.6022775000310503,,,,,,,,,,,,,,,,,,,,,,,,,,,,,,,,,LU88XK,train_y,red_square,bottom_left,2025-05-12_16h50.54.326,HideSeek_v1,2022.2.5,59.95333233369406,
,3,3,3,7,0,4,12,,train_dim1_1,25,30,,,,2,0,2,0,,,,,,,,,0,0,0,0,0,24,24,24,1,0,1,0,,,,,,,,,,,,,,,,,,,,,,,,,,,,,,,,,,,,,,,,,,,,,,,,,,,,,,,,,,,,,,,,30,,,,,,,,798.6078509999788,798.6078509999788,798.6078509999788,798.6078509999788,798.6078509999788,up,0.5101043999893591,4,0,0,99,0.08,0.0,up,0.42431969998870045,,,,,,,,,,,,,,,,,,,,,,,,,,,,,,,,,,,,,,,,,,,,,,,,,,,,,,,,,,,,LU88XK,train_y,red_square,bottom_left,2025-05-12_16h50.54.326,HideSeek_v1,2022.2.5,59.95333233369406,
,3,3,3,7,0,4,12,,train_dim1_1,25,30,,,,2,0,2,0,,,,,,,,,0,0,0,0,0,24,24,24,2,0,2,0,,,,,,,,,,,,,,,,,,,,,,,,,,,,,,,,,,,,,,,,,,,,,,,,,,,,,,,,,,,,,,,,30,,,,,,,,799.124598400027,799.124598400027,799.124598400027,799.124598400027,799.124598400027,return,3.4457455999800004,4,0,0,0,0.08,0.0,return,3.3570705999736674,48,10,0.08,0.0,,,,,,,,,,,,,,,,,,,,,,,,,,,,,,,,,,,,,,,,,,,,,,,,,,,,,,,,LU88XK,train_y,red_square,bottom_left,2025-05-12_16h50.54.326,HideSeek_v1,2022.2.5,59.95333233369406,
,4,4,4,7,0,3,13,,train_dim1_1,26,30,,,,2,0,2,0,,,,,,,,,0,0,0,0,0,25,25,25,0,0,0,0,,,,,,,,,,,,,,,,,,,,,,,,,stimuli/alien_stimuli/13.png,,,,,,,,,,,,,,,,,,,,,,,,,,,,,stimuli/alien_stimuli/12.png,12,3,27,,,,,,,30,,,,,,,,807.5713645999786,807.5713645999786,807.5713645999786,807.5713645999786,807.5713645999786,up,0.9397815999691375,4,0,0,99,0.16,0.0,up,0.8450867000501603,,,,,806.0128954999964,807.5713645999786,0.08,0.16,0.32,0.0,0.0,0.08,0.08,0.08,0.16,804.1350301000057,804.1350301000057,804.1350301000057,804.1350301000057,804.1350301000057,804.1350301000057,804.1350301000057,804.1350301000057,804.1281678900064,1.9873111000051722,return,1.8582128999987617,,,,,,,,,,,,,,,,,,,,,,,,,,,,,,,,,LU88XK,train_y,red_square,bottom_left,2025-05-12_16h50.54.326,HideSeek_v1,2022.2.5,59.95333233369406,
,4,4,4,7,0,3,13,,train_dim1_1,26,30,,,,2,0,2,0,,,,,,,,,0,0,0,0,0,25,25,25,1,0,1,0,,,,,,,,,,,,,,,,,,,,,,,,,,,,,,,,,,,,,,,,,,,,,,,,,,,,,,,,,,,,,,,,30,,,,,,,,808.5155912999762,808.5155912999762,808.5155912999762,808.5155912999762,808.5155912999762,up,2.7446757999714464,4,0,0,99,0.16,0.08,up,2.6535146000096574,,,,,,,,,,,,,,,,,,,,,,,,,,,,,,,,,,,,,,,,,,,,,,,,,,,,,,,,,,,,LU88XK,train_y,red_square,bottom_left,2025-05-12_16h50.54.326,HideSeek_v1,2022.2.5,59.95333233369406,
,4,4,4,7,0,3,13,,train_dim1_1,26,30,,,,2,0,2,0,,,,,,,,,0,0,0,0,0,25,25,25,2,0,2,0,,,,,,,,,,,,,,,,,,,,,,,,,,,,,,,,,,,,,,,,,,,,,,,,,,,,,,,,,,,,,,,,30,,,,,,,,811.2669915999868,811.2669915999868,811.2669915999868,811.2669915999868,811.2669915999868,up,0.7768826999817975,4,0,0,99,0.16,0.16,up,0.701842000009492,,,,,,,,,,,,,,,,,,,,,,,,,,,,,,,,,,,,,,,,,,,,,,,,,,,,,,,,,,,,LU88XK,train_y,red_square,bottom_left,2025-05-12_16h50.54.326,HideSeek_v1,2022.2.5,59.95333233369406,
,4,4,4,7,0,3,13,,train_dim1_1,26,30,,,,2,0,2,0,,,,,,,,,0,0,0,0,0,25,25,25,3,0,3,0,,,,,,,,,,,,,,,,,,,,,,,,,,,,,,,,,,,,,,,,,,,,,,,,,,,,,,,,,,,,,,,,30,,,,,,,,812.05130739999,812.05130739999,812.05130739999,812.05130739999,812.05130739999,return,0.8272728999727406,5,0,0,1,0.16,0.16,return,0.7450675999862142,51,10,0.16,0.16,,,,,,,,,,,,,,,,,,,,,,,,,,,,,,,,,,,,,,,,,,,,,,,,,,,,,,,,LU88XK,train_y,red_square,bottom_left,2025-05-12_16h50.54.326,HideSeek_v1,2022.2.5,59.95333233369406,
,3,4,3,4,0,0,16,,train_dim1_1,27,30,,,,2,0,2,0,,,,,,,,,0,0,0,0,0,26,26,26,0,0,0,0,,,,,,,,,,,,,,,,,,,,,,,,,stimuli/alien_stimuli/16.png,,,,,,,,,,,,,,,,,,,,,,,,,,,,,stimuli/alien_stimuli/13.png,13,4,28,,,,,,,30,,,,,,,,818.997317900008,818.997317900008,818.997317900008,818.997317900008,818.997317900008,up,1.1384104999597184,5,0,0,99,0.08,0.0,up,1.0601123999804258,,,,,817.4387264000252,818.997317900008,0.16,0.16,0.24,0.0,0.04,0.16,0.16,0.16,0.16,814.4570873000193,814.4570873000193,814.4570873000193,814.4570873000193,814.4570873000193,814.4570873000193,814.4570873000193,814.4570873000193,814.4532464599819,3.104835100006312,return,2.957948600000236,,,,,,,,,,,,,,,,,,,,,,,,,,,,,,,,,LU88XK,train_y,red_square,bottom_left,2025-05-12_16h50.54.326,HideSeek_v1,2022.2.5,59.95333233369406,
,3,4,3,4,0,0,16,,train_dim1_1,27,30,,,,2,0,2,0,,,,,,,,,0,0,0,0,0,26,26,26,1,0,1,0,,,,,,,,,,,,,,,,,,,,,,,,,,,,,,,,,,,,,,,,,,,,,,,,,,,,,,,,,,,,,,,,30,,,,,,,,820.1417321999907,820.1417321999907,820.1417321999907,820.1417321999907,820.1417321999907,up,0.5766136000165716,5,0,0,99,0.08,0.08,up,0.50093039998319,,,,,,,,,,,,,,,,,,,,,,,,,,,,,,,,,,,,,,,,,,,,,,,,,,,,,,,,,,,,LU88XK,train_y,red_square,bottom_left,2025-05-12_16h50.54.326,HideSeek_v1,2022.2.5,59.95333233369406,
,3,4,3,4,0,0,16,,train_dim1_1,27,30,,,,2,0,2,0,,,,,,,,,0,0,0,0,0,26,26,26,2,0,2,0,,,,,,,,,,,,,,,,,,,,,,,,,,,,,,,,,,,,,,,,,,,,,,,,,,,,,,,,,,,,,,,,30,,,,,,,,820.7450034000212,820.7450034000212,820.7450034000212,820.7450034000212,820.7450034000212,down,1.7111028000363149,5,0,0,99,0.08,0.0,down,1.615485800022725,,,,,,,,,,,,,,,,,,,,,,,,,,,,,,,,,,,,,,,,,,,,,,,,,,,,,,,,,,,,LU88XK,train_y,red_square,bottom_left,2025-05-12_16h50.54.326,HideSeek_v1,2022.2.5,59.95333233369406,
,3,4,3,4,0,0,16,,train_dim1_1,27,30,,,,2,0,2,0,,,,,,,,,0,0,0,0,0,26,26,26,3,0,3,0,,,,,,,,,,,,,,,,,,,,,,,,,,,,,,,,,,,,,,,,,,,,,,,,,,,,,,,,,,,,,,,,30,,,,,,,,822.4435982999858,822.4435982999858,822.4435982999858,822.4435982999858,822.4435982999858,down,0.3434730999870226,5,0,0,99,0.08,-0.08,down,0.2623386000050232,,,,,,,,,,,,,,,,,,,,,,,,,,,,,,,,,,,,,,,,,,,,,,,,,,,,,,,,,,,,LU88XK,train_y,red_square,bottom_left,2025-05-12_16h50.54.326,HideSeek_v1,2022.2.5,59.95333233369406,
,3,4,3,4,0,0,16,,train_dim1_1,27,30,,,,2,0,2,0,,,,,,,,,0,0,0,0,0,26,26,26,4,0,4,0,,,,,,,,,,,,,,,,,,,,,,,,,,,,,,,,,,,,,,,,,,,,,,,,,,,,,,,,,,,,,,,,30,,,,,,,,822.794898400025,822.794898400025,822.794898400025,822.794898400025,822.794898400025,return,1.1107241999707185,6,0,0,1,0.08,-0.08,return,1.0301917999750003,51,10,0.08,-0.08,,,,,,,,,,,,,,,,,,,,,,,,,,,,,,,,,,,,,,,,,,,,,,,,,,,,,,,,LU88XK,train_y,red_square,bottom_left,2025-05-12_16h50.54.326,HideSeek_v1,2022.2.5,59.95333233369406,
,4,1,4,6,0,5,11,,train_dim1_1,28,30,,,,2,0,2,0,,,,,,,,,0,0,0,0,0,27,27,27,0,0,0,0,,,,,,,,,,,,,,,,,,,,,,,,,stimuli/alien_stimuli/11.png,,,,,,,,,,,,,,,,,,,,,,,,,,,,,stimuli/alien_stimuli/16.png,16,3,29,,,,,,,30,,,,,,,,828.6877583999885,828.6877583999885,828.6877583999885,828.6877583999885,828.6877583999885,up,1.0889783999882638,6,0,0,99,0.16,-0.24,up,1.0095362000283785,,,,,827.1301475000218,828.6877583999885,0.08,-0.08,0.0,0.0,-0.08,0.08,0.08,0.08,-0.08,825.4774319999851,825.4774319999851,825.4774319999851,825.4774319999851,825.4774319999851,825.4774319999851,825.4774319999851,825.4774319999851,825.4623641900193,1.7707815999747254,return,1.63580649998039,,,,,,,,,,,,,,,,,,,,,,,,,,,,,,,,,LU88XK,train_y,red_square,bottom_left,2025-05-12_16h50.54.326,HideSeek_v1,2022.2.5,59.95333233369406,
,4,1,4,6,0,5,11,,train_dim1_1,28,30,,,,2,0,2,0,,,,,,,,,0,0,0,0,0,27,27,27,1,0,1,0,,,,,,,,,,,,,,,,,,,,,,,,,,,,,,,,,,,,,,,,,,,,,,,,,,,,,,,,,,,,,,,,30,,,,,,,,829.7838518000208,829.7838518000208,829.7838518000208,829.7838518000208,829.7838518000208,up,0.4430188999976963,6,0,0,99,0.16,-0.15999999999999998,up,0.35334879998117685,,,,,,,,,,,,,,,,,,,,,,,,,,,,,,,,,,,,,,,,,,,,,,,,,,,,,,,,,,,,LU88XK,train_y,red_square,bottom_left,2025-05-12_16h50.54.326,HideSeek_v1,2022.2.5,59.95333233369406,
,4,1,4,6,0,5,11,,train_dim1_1,28,30,,,,2,0,2,0,,,,,,,,,0,0,0,0,0,27,27,27,2,0,2,0,,,,,,,,,,,,,,,,,,,,,,,,,,,,,,,,,,,,,,,,,,,,,,,,,,,,,,,,,,,,,,,,30,,,,,,,,830.2341443999903,830.2341443999903,830.2341443999903,830.2341443999903,830.2341443999903,up,0.5436924999812618,6,0,0,99,0.16,-0.07999999999999997,up,0.4585174999665469,,,,,,,,,,,,,,,,,,,,,,,,,,,,,,,,,,,,,,,,,,,,,,,,,,,,,,,,,,,,LU88XK,train_y,red_square,bottom_left,2025-05-12_16h50.54.326,HideSeek_v1,2022.2.5,59.95333233369406,
,4,1,4,6,0,5,11,,train_dim1_1,28,30,,,,2,0,2,0,,,,,,,,,0,0,0,0,0,27,27,27,3,0,3,0,,,,,,,,,,,,,,,,,,,,,,,,,,,,,,,,,,,,,,,,,,,,,,,,,,,,,,,,,,,,,,,,30,,,,,,,,830.7850264000008,830.7850264000008,830.7850264000008,830.7850264000008,830.7850264000008,up,0.6436009000171907,6,0,0,99,0.16,2.7755575615628914e-17,up,0.5611750000389293,,,,,,,,,,,,,,,,,,,,,,,,,,,,,,,,,,,,,,,,,,,,,,,,,,,,,,,,,,,,LU88XK,train_y,red_square,bottom_left,2025-05-12_16h50.54.326,HideSeek_v1,2022.2.5,59.95333233369406,
,4,1,4,6,0,5,11,,train_dim1_1,28,30,,,,2,0,2,0,,,,,,,,,0,0,0,0,0,27,27,27,4,0,4,0,,,,,,,,,,,,,,,,,,,,,,,,,,,,,,,,,,,,,,,,,,,,,,,,,,,,,,,,,,,,,,,,30,,,,,,,,831.4344111999962,831.4344111999962,831.4344111999962,831.4344111999962,831.4344111999962,return,1.0938402999890968,6,1,0,0,0.16,2.7755575615628914e-17,return,1.005023000005167,55,10,0.16,2.7755575615628914e-17,,,,,,,,,,,,,,,,,,,,,,,,,,,,,,,,,,,,,,,,,,,,,,,,,,,,,,,,LU88XK,train_y,red_square,bottom_left,2025-05-12_16h50.54.326,HideSeek_v1,2022.2.5,59.95333233369406,
,2,2,2,6,0,4,12,,train_dim1_1,29,30,,,,2,0,2,0,,,,,,,,,0,0,0,0,0,28,28,28,0,0,0,0,,,,,,,,,,,,,,,,,,,,,,,,,stimuli/alien_stimuli/12.png,,,,,,,,,,,,,,,,,,,,,,,,,,,,,stimuli/alien_stimuli/11.png,11,4,30,,,,,,,30,,,,,,,,838.1455033000093,838.1455033000093,838.1455033000093,838.1455033000093,838.1455033000093,up,0.9888012000010349,6,1,0,99,0,-0.15999999999999998,up,0.9070793999708258,,,,,836.5881369999843,838.1455033000093,0.16,0.08,0.4,0.0,-0.12,0.16,0.16,0.16,0.08,834.0992901999853,834.0992901999853,834.0992901999853,834.0992901999853,834.0992901999853,834.0992901999853,834.0992901999853,834.0992901999853,834.0862493899708,2.6045962999924086,return,2.4671841000090353,,,,,,,,,,,,,,,,,,,,,,,,,,,,,,,,,LU88XK,train_y,red_square,bottom_left,2025-05-12_16h50.54.326,HideSeek_v1,2022.2.5,59.95333233369406,
,2,2,2,6,0,4,12,,train_dim1_1,29,30,,,,2,0,2,0,,,,,,,,,0,0,0,0,0,28,28,28,1,0,1,0,,,,,,,,,,,,,,,,,,,,,,,,,,,,,,,,,,,,,,,,,,,,,,,,,,,,,,,,,,,,,,,,30,,,,,,,,839.1417894000188,839.1417894000188,839.1417894000188,839.1417894000188,839.1417894000188,up,0.8100219999905676,6,1,0,99,0,-0.07999999999999997,up,0.72934159997385,,,,,,,,,,,,,,,,,,,,,,,,,,,,,,,,,,,,,,,,,,,,,,,,,,,,,,,,,,,,LU88XK,train_y,red_square,bottom_left,2025-05-12_16h50.54.326,HideSeek_v1,2022.2.5,59.95333233369406,
,2,2,2,6,0,4,12,,train_dim1_1,29,30,,,,2,0,2,0,,,,,,,,,0,0,0,0,0,28,28,28,2,0,2,0,,,,,,,,,,,,,,,,,,,,,,,,,,,,,,,,,,,,,,,,,,,,,,,,,,,,,,,,,,,,,,,,30,,,,,,,,839.9594024000107,839.9594024000107,839.9594024000107,839.9594024000107,839.9594024000107,up,0.8604334999690764,6,1,0,99,0,2.7755575615628914e-17,up,0.777310200035572,,,,,,,,,,,,,,,,,,,,,,,,,,,,,,,,,,,,,,,,,,,,,,,,,,,,,,,,,,,,LU88XK,train_y,red_square,bottom_left,2025-05-12_16h50.54.326,HideSeek_v1,2022.2.5,59.95333233369406,
,2,2,2,6,0,4,12,,train_dim1_1,29,30,,,,2,0,2,0,,,,,,,,,0,0,0,0,0,28,28,28,3,0,3,0,,,,,,,,,,,,,,,,,,,,,,,,,,,,,,,,,,,,,,,,,,,,,,,,,,,,,,,,,,,,,,,,30,,,,,,,,840.8259775000042,840.8259775000042,840.8259775000042,840.8259775000042,840.8259775000042,return,2.1115274999756366,6,1,0,0,0,2.7755575615628914e-17,return,2.0226710999850184,58,10,0,2.7755575615628914e-17,,,,,,,,,,,,,,,,,,,,,,,,,,,,,,,,,,,,,,,,,,,,,,,,,,,,,,,,LU88XK,train_y,red_square,bottom_left,2025-05-12_16h50.54.326,HideSeek_v1,2022.2.5,59.95333233369406,
,0,1,0,2,0,1,15,,train_dim1_1,30,30,,,,2,0,2,0,,,,,,,,,0,0,0,0,0,29,29,29,0,0,0,0,,,,,,,,,,,,,,,,,,,,,,,,,stimuli/alien_stimuli/15.png,,,,,,,,,,,,,,,,,,,,,,,,,,,,,stimuli/alien_stimuli/12.png,12,2,31,,,,,,,30,,,,,,,,848.1701858000015,848.1701858000015,848.1701858000015,848.1701858000015,848.1701858000015,up,0.9890443999902345,6,1,0,99,-0.16,-0.24,up,0.9115850999951363,,,,,846.6131768000196,848.1701858000015,0,0.08,0.32,0.0,-0.07999999999999999,0,0.0,0,0.08,844.5106084999861,844.5106084999861,844.5106084999861,844.5106084999861,844.5106084999861,844.5106084999861,844.5106084999861,844.5106084999861,844.5115725599811,2.2207762000034563,return,2.0769013999961317,,,,,,,,,,,,,,,,,,,,,,,,,,,,,,,,,LU88XK,train_y,red_square,bottom_left,2025-05-12_16h50.54.326,HideSeek_v1,2022.2.5,59.95333233369406,
,0,1,0,2,0,1,15,,train_dim1_1,30,30,,,,2,0,2,0,,,,,,,,,0,0,0,0,0,29,29,29,1,0,1,0,,,,,,,,,,,,,,,,,,,,,,,,,,,,,,,,,,,,,,,,,,,,,,,,,,,,,,,,,,,,,,,,30,,,,,,,,849.1661619999795,849.1661619999795,849.1661619999795,849.1661619999795,849.1661619999795,return,2.061037999985274,7,0,0,1,-0.16,-0.24,return,1.9788732000160962,59,10,-0.16,-0.24,,,,,,,,,,,,,,,,,,,,,,,,,,,,,,,,,,,,,,,,,,,,,,,,,,,,,,,,LU88XK,train_y,red_square,bottom_left,2025-05-12_16h50.54.326,HideSeek_v1,2022.2.5,59.95333233369406,
,,,,,,,,,,,30,,,,2,0,2,0,,,,,,,,,,,,,,,,,,,,,,,,,,,,,,,,,,,,,,,,,,,,,,,,,,,,,,,,,,,,,,,,,,,,,,,,,,stimuli/alien_stimuli/15.png,15,0,32,21,0.7,0.2916666666666667,1,1,1,30,0,conditions/schedules/train_y_first/red_square_00/bottom_left/inputTrain_2.1.xlsx,99,1,2,1,0,,,,,,,,,,,1,,,,,,,,,860.9416715999832,862.4881203999976,-0.16,-0.24,0.08,0.0,-0.28,-0.16,-0.16,-0.16,-0.24,852.8012251000036,852.8012251000036,852.8012251000036,852.8012251000036,852.8012251000036,852.8012251000036,852.8012251000036,852.8012251000036,852.8017740599811,8.25916039996082,return,8.123063499981072,0,0.9,0,1,7,,,,,,,,,,,,,,,,,,,,,,,,,,,,LU88XK,train_y,red_square,bottom_left,2025-05-12_16h50.54.326,HideSeek_v1,2022.2.5,59.95333233369406,
,,,,,,,,,,,,,,,3,0,3,0,0,0,0,0,,,,,,,,,,,,,,,,,,,,,,,,,,,,,,,conditions/schedules/train_y_first/red_square_00/bottom_left/instructions/Slide17.png,conditions/schedules/train_y_first/red_square_00/bottom_left/instructions/Audio17.wav,862.4881203999976,862.4765791100275,17,"[7.855027900019195, 19.150063599983696, 16.375520500005223, 19.185530700022355, 4.067256900016218, 4.553050199989229, 5.7372363999602385, 11.338858200004324, 5.450806199980434, 7.317363999958616, 9.701492799969856, 13.590912399988156, 17.523400700010825, 16.553930199996103, 42.61221960000694, 21.545249600021634, 112.62898119998863]","[0.03426369995577261, 0.046641600027214736, 0.014228500018361956, 0.014259200019296259, 0.0662919000023976, 0.0492886999854818, 0.030513300036545843, 0.06503659998998046, 0.08021409995853901, 0.08055869996314868, 0.07928459998220205, 13.590918399975635, 0.014169500034768134, 16.553936899988912, 0.04647479997947812, 21.545256300014444, 112.62898829998448]",0,,,,,,,,,,,,,,,,,,,,,,,,,,,,,,,,,,,,,,,,,,,,,,,,,,,,,,,,,,,,,,,,,,,,,,,,,,,,,,,,,,,,,,,,,,,,,,,,,,,,,,,,,,,,,,,,,,,,,,,,,,,,LU88XK,train_y,red_square,bottom_left,2025-05-12_16h50.54.326,HideSeek_v1,2022.2.5,59.95333233369406,
,,,,,,,,,,,,,,,3,0,3,0,1,0,1,0,,,,,,,,,,,,,,,,,,,,,,,,,,,,,,,conditions/schedules/train_y_first/red_square_00/bottom_left/instructions/Slide18.png,conditions/schedules/train_y_first/red_square_00/bottom_left/instructions/Audio18.wav,975.1853343999828,975.1865261500061,18,"[7.855027900019195, 19.150063599983696, 16.375520500005223, 19.185530700022355, 4.067256900016218, 4.553050199989229, 5.7372363999602385, 11.338858200004324, 5.450806199980434, 7.317363999958616, 9.701492799969856, 13.590912399988156, 17.523400700010825, 16.553930199996103, 42.61221960000694, 21.545249600021634, 112.62898119998863, 24.035050000005867]","[0.03426369995577261, 0.046641600027214736, 0.014228500018361956, 0.014259200019296259, 0.0662919000023976, 0.0492886999854818, 0.030513300036545843, 0.06503659998998046, 0.08021409995853901, 0.08055869996314868, 0.07928459998220205, 13.590918399975635, 0.014169500034768134, 16.553936899988912, 0.04647479997947812, 21.545256300014444, 0.014156199991703033, 24.03505629999563]",0,,,,,,,,,,,,,,,,,,,,,,,,,,,,,,,,,,,,,,,,,,,,,,,,,,,,,,,,,,,,,,,,,,,,,,,,,,,,,,,,,,,,,,,,,,,,,,,,,,,,,,,,,,,,,,,,,,,,,,,,,,,,LU88XK,train_y,red_square,bottom_left,2025-05-12_16h50.54.326,HideSeek_v1,2022.2.5,59.95333233369406,
,,,,,,,,,,,,,,,3,0,3,0,2,0,2,0,,,,,,,,,,,,,,,,,,,,,,,,,,,,,,,conditions/schedules/train_y_first/red_square_00/bottom_left/instructions/Slide19.png,conditions/schedules/train_y_first/red_square_00/bottom_left/instructions/Audio19.wav,999.2937317999895,999.2897493500204,19,"[7.855027900019195, 19.150063599983696, 16.375520500005223, 19.185530700022355, 4.067256900016218, 4.553050199989229, 5.7372363999602385, 11.338858200004324, 5.450806199980434, 7.317363999958616, 9.701492799969856, 13.590912399988156, 17.523400700010825, 16.553930199996103, 42.61221960000694, 21.545249600021634, 112.62898119998863, 24.035050000005867, 9.451814499974716]","[0.03426369995577261, 0.046641600027214736, 0.014228500018361956, 0.014259200019296259, 0.0662919000023976, 0.0492886999854818, 0.030513300036545843, 0.06503659998998046, 0.08021409995853901, 0.08055869996314868, 0.07928459998220205, 13.590918399975635, 0.014169500034768134, 16.553936899988912, 0.04647479997947812, 21.545256300014444, 0.014156199991703033, 24.03505629999563, 9.45182149996981]",0,,,,,,,,,,,,,,,,,,,,,,,,,,,,,,,,,,,,,,,,,,,,,,,,,,,,,,,,,,,,,,,,,,,,,,,,,,,,,,,,,,,,,,,,,,,,,,,,,,,,,,,,,,,,,,,,,,,,,,,,,,,,LU88XK,train_y,red_square,bottom_left,2025-05-12_16h50.54.326,HideSeek_v1,2022.2.5,59.95333233369406,
,,,,,,,,,,,,,,,3,0,3,0,3,0,3,0,,,,,,,,,,,,,,,,,,,,,,,,,,,,,,,conditions/schedules/train_y_first/red_square_00/bottom_left/instructions/Slide20.png,conditions/schedules/train_y_first/red_square_00/bottom_left/instructions/Audio20.wav,1008.7980511999922,1008.7978663800051,20,"[7.855027900019195, 19.150063599983696, 16.375520500005223, 19.185530700022355, 4.067256900016218, 4.553050199989229, 5.7372363999602385, 11.338858200004324, 5.450806199980434, 7.317363999958616, 9.701492799969856, 13.590912399988156, 17.523400700010825, 16.553930199996103, 42.61221960000694, 21.545249600021634, 112.62898119998863, 24.035050000005867, 9.451814499974716, 12.691619600052945]","[0.03426369995577261, 0.046641600027214736, 0.014228500018361956, 0.014259200019296259, 0.0662919000023976, 0.0492886999854818, 0.030513300036545843, 0.06503659998998046, 0.08021409995853901, 0.08055869996314868, 0.07928459998220205, 13.590918399975635, 0.014169500034768134, 16.553936899988912, 0.04647479997947812, 21.545256300014444, 0.014156199991703033, 24.03505629999563, 0.06344860000535846, 12.691626400046516]",0,,,,,,,,,,,,,,,,,,,,,,,,,,,,,,,,,,,,,,,,,,,,,,,,,,,,,,,,,,,,,,,,,,,,,,,,,,,,,,,,,,,,,,,,,,,,,,,,,,,,,,,,,,,,,,,,,,,,,,,,,,,,LU88XK,train_y,red_square,bottom_left,2025-05-12_16h50.54.326,HideSeek_v1,2022.2.5,59.95333233369406,
1,3,2,8,2,5,0,66,2,instr_dim1_2,,,,,,3,0,3,0,,,,,0,0,0,0,,,,,,,,,,,,,,,,,,,,,,,,,,,,,,,,,,,,,stimuli/alien_stimuli/66.png,conditions/schedules/train_y_first/red_square_00/bottom_left/inputInstr_2.xlsx,stimuli/alien_stimuli/66.png,1021.5919758999953,1021.5919758999953,1021.5919758999953,1021.5919758999953,1021.5922080899995,return,8.470882299996447,"[-0.16, -0.08, 0, 0.08, 0.16, 0.24, 0.32, 0.4, 0.48, 0.56]","[-0.4, -0.32, -0.24, -0.16, -0.08, 0, 0.08, 0.16, 0.24, 0.32]",2,2,8,3,0.0,0.4,1030.2230051999795,1030.2230051999795,1030.2230051999795,1030.2230051999795,1030.2230051999795,1030.2230051999795,1030.2230051999795,1030.2153922299797,6.406099799962249,return,6.23629869997967,stimuli/alien_stimuli/66.png,66,3,1,,,,,,,,,,,,,,,,,,,,,,,,,,,,,,,,,,,,,,,,,,,,,,,,,,,,,,,,,,,,,,,,,,,,,,,,,,,,,,,,,,,,,,,,,LU88XK,train_y,red_square,bottom_left,2025-05-12_16h50.54.326,HideSeek_v1,2022.2.5,59.95333233369406,
,,,,,,,,,,,30,,,,3,0,3,0,,,,,,,,,,,,,,,,,,,,,,,,,,,,,,,,,,,,,,,,,,,,,,,,,,,,,,,,,,,,,,,,,,,,,,,,,,,,,,21,0.7,0.2916666666666667,1,99,2,30,0,conditions/schedules/train_y_first/red_square_00/bottom_left/inputTrain_2.1.xlsx,99,1,2,1,0,,,,,,,,,,,,,,,,,,,,,,,,,,,,,,,,,,,,,,,,,,,,,,,,,,,,,,,,,,,,,,,,,,,,,,,,,,,LU88XK,train_y,red_square,bottom_left,2025-05-12_16h50.54.326,HideSeek_v1,2022.2.5,59.95333233369406,
,,,,,,,,,,,,,,,4,0,4,0,0,0,0,0,,,,,,,,,,,,,,,,,,,,,,,,,,,,,,,conditions/schedules/train_y_first/red_square_00/bottom_left/instructions/Slide21.png,conditions/schedules/train_y_first/red_square_00/bottom_left/instructions/Audio21.wav,1036.6843802999938,1036.670727240003,21,"[7.855027900019195, 19.150063599983696, 16.375520500005223, 19.185530700022355, 4.067256900016218, 4.553050199989229, 5.7372363999602385, 11.338858200004324, 5.450806199980434, 7.317363999958616, 9.701492799969856, 13.590912399988156, 17.523400700010825, 16.553930199996103, 42.61221960000694, 21.545249600021634, 112.62898119998863, 24.035050000005867, 9.451814499974716, 12.691619600052945, 12.944594000000507]","[0.03426369995577261, 0.046641600027214736, 0.014228500018361956, 0.014259200019296259, 0.0662919000023976, 0.0492886999854818, 0.030513300036545843, 0.06503659998998046, 0.08021409995853901, 0.08055869996314868, 0.07928459998220205, 13.590918399975635, 0.014169500034768134, 16.553936899988912, 0.04647479997947812, 21.545256300014444, 0.014156199991703033, 24.03505629999563, 0.06344860000535846, 12.691626400046516, 12.944600199989509]",0,,,,,,,,,,,,,,,,,,,,,,,,,,,,,,,,,,,,,,,,,,,,,,,,,,,,,,,,,,,,,,,,,,,,,,,,,,,,,,,,,,,,,,,,,,,,,,,,,,,,,,,,,,,,,,,,,,,,,,,,,,,,LU88XK,train_y,red_square,bottom_left,2025-05-12_16h50.54.326,HideSeek_v1,2022.2.5,59.95333233369406,
2,4,0,4,0,0,0,16,2,instr_dim1_2,,,,,,4,0,4,0,,,,,0,0,0,0,,,,,,,,,,,,,,,,,,,,,,,,,,,,,,,,,,,,,stimuli/alien_stimuli/16.png,conditions/schedules/train_y_first/red_square_00/bottom_left/inputInstr_2.xlsx,stimuli/alien_stimuli/16.png,1049.7314262000145,1049.7314262000145,1049.7314262000145,1049.7314262000145,1049.731698389974,return,1.3945398000068963,"[-0.16, -0.08, 0, 0.08, 0.16, 0.24, 0.32, 0.4, 0.48, 0.56]","[-0.4, -0.32, -0.24, -0.16, -0.08, 0, 0.08, 0.16, 0.24, 0.32]",0,0,4,4,0.0,0.0,1051.2941309000016,1051.2941309000016,1051.2941309000016,1051.2941309000016,1051.2941309000016,1051.2941309000016,1051.2941309000016,1051.2827501300083,5.906185500032734,return,5.738177000021096,stimuli/alien_stimuli/16.png,16,4,2,,,,,,,,,,,,,,,,,,,,,,,,,,,,,,,,,,,,,,,,,,,,,,,,,,,,,,,,,,,,,,,,,,,,,,,,,,,,,,,,,,,,,,,,,LU88XK,train_y,red_square,bottom_left,2025-05-12_16h50.54.326,HideSeek_v1,2022.2.5,59.95333233369406,
