trialInstr,x_fixStart,y_fixStart,x_corrSteps,y_corrSteps,x_nrSteps,y_nrSteps,alienID,trialLength,version,trialTrain,praclen,testlen,trial_label,break_on_off,beforeExpLoop.thisRepN,beforeExpLoop.thisTrialN,beforeExpLoop.thisN,beforeExpLoop.thisIndex,mini_instr_trials.thisRepN,mini_instr_trials.thisTrialN,mini_instr_trials.thisN,mini_instr_trials.thisIndex,instrLoop.thisRepN,instrLoop.thisTrialN,instrLoop.thisN,instrLoop.thisIndex,repeat_prac.thisRepN,repeat_prac.thisTrialN,repeat_prac.thisN,repeat_prac.thisIndex,trainLoop.thisRepN,trainLoop.thisTrialN,trainLoop.thisN,trainLoop.thisIndex,moveLoop_train.thisRepN,moveLoop_train.thisTrialN,moveLoop_train.thisN,moveLoop_train.thisIndex,experiment.thisRepN,experiment.thisTrialN,experiment.thisN,experiment.thisIndex,moveLoop_test.thisRepN,moveLoop_test.thisTrialN,moveLoop_test.thisN,moveLoop_test.thisIndex,mini_instr2_trials.thisRepN,mini_instr2_trials.thisTrialN,mini_instr2_trials.thisN,mini_instr2_trials.thisIndex,start_all_time,url,slideStim,audioStim,slides.started,sounds.started,nextButton.numClicks,nextButton.timesOn,nextButton.timesOff,prev_but.numClicks,prev_but.timesOn,prev_but.timesOff,alienStim,instrFile,alienStim_instr,gridImage_instr.started,startPos_3.started,key_instr.started,alienImage_3.started,sounds_1.started,key_instr.keys,key_instr.rt,all_x,all_y,FBy_corrSteps,FBy_fixStart,FBx_corrSteps,FBx_fixStart,FBy_pathSize_check,FBx_pathSize_check,gridImage_9.started,alienImageFB_3.started,startPosFB_3.started,keyFB_3.started,pathLine_ydir_2.started,pathLine_xdir_2.started,alienFace_3.started,sounds_2.started,RTFB_instr,keyFB_3.keys,keyFB_3.rt,draw_alienStim,draw_alienID,test_x,nrepcount,perfthres,percthres,earlierperf,earlystop,nextPrac,fileidx,praclen,saveACC_train,pracFile,nextPrac_train,addNrep,fileidx_endr,repExp,showearly,gridImage_4.started,startPos.started,movePos.started,key_resp.started,alienImage.started,buttonPress_train,RTchoice_train,cumAcctrain,aCorr,saveACC_choice,corrAns,x_movePos_end,y_movePos_end,key_resp.keys,key_resp.rt,wLy_dir,wLx_dir,x_movePos,y_movePos,text_2.started,text_2.stopped,aft_x_corrPos,aft_y_corrPos,y_pathSize_check,x_pathSize_check,y_pathdirY,x_pathdirY,x_pathdirX,x_corrPos,y_corrPos,gridImage_6.started,alienImageFB_2.started,startPosFB_2.started,movePosFB_2.started,keyFB_2.started,pathLine_xdir.started,pathLine_ydir.started,alienFace.started,sounds_4.started,RT_FBtrain,keyFB_2.keys,keyFB_2.rt,saveACC_pre,ACC,within_saveACC_train,earlystop_wloop,cumAcctrain_check,gridImage_3.started,alienImage_test.started,startPos_test.started,movePos_test.started,key_resp_test.started,wLy_dir_test,wLx_dir_test,buttonPress_test,RTchoice_test,cumAcctest,corrAns_test,key_resp_test.keys,key_resp_test.rt,text_3.started,text_3.stopped,total_time,end_all_time,key_resp_3.keys,slides_2.started,sounds_3.started,nextButton_2.numClicks,nextButton_2.timesOn,nextButton_2.timesOff,prev_but_2.numClicks,prev_but_2.timesOn,prev_but_2.timesOff,bye.started,participant,train_first,00_coordinate,starting corner,date,expName,psychopyVersion,frameRate,
,,,,,,,,,,,,,,,0,0,0,0,0,0,0,0,,,,,,,,,,,,,,,,,,,,,,,,,,,,,start_all_time,testround,conditions/schedules/train_x_first/blue_star_00/bottom_right/instructions/Slide1.png,conditions/schedules/train_x_first/blue_star_00/bottom_right/instructions/Audio1.wav,631.1126218000427,631.0606556305662,1,[8.111357900314033],[8.111365499906242],0,,,,,,,,,,,,,,,,,,,,,,,,,,,,,,,,,,,,,,,,,,,,,,,,,,,,,,,,,,,,,,,,,,,,,,,,,,,,,,,,,,,,,,,,,,,,,,,,,,,,,,,,,,,,,,,,,,,,,,,,,,,,LVTRZP,train_x,blue_star,bottom_right,2025-04-23_12h16.57.680,HideSeek_v1,2022.2.5,59.917912532312016,
,,,,,,,,,,,,,,,0,0,0,0,1,0,1,0,,,,,,,,,,,,,,,,,,,,,,,,,,,,,,,conditions/schedules/train_x_first/blue_star_00/bottom_right/instructions/Slide2.png,conditions/schedules/train_x_first/blue_star_00/bottom_right/instructions/Audio2.wav,639.2430896000005,639.2303280801513,2,"[8.111357900314033, 17.88257489958778]","[0.014319199603050947, 17.882581899873912]",0,,,,,,,,,,,,,,,,,,,,,,,,,,,,,,,,,,,,,,,,,,,,,,,,,,,,,,,,,,,,,,,,,,,,,,,,,,,,,,,,,,,,,,,,,,,,,,,,,,,,,,,,,,,,,,,,,,,,,,,,,,,,LVTRZP,train_x,blue_star,bottom_right,2025-04-23_12h16.57.680,HideSeek_v1,2022.2.5,59.917912532312016,
,,,,,,,,,,,,,,,0,0,0,0,2,0,2,0,,,,,,,,,,,,,,,,,,,,,,,,,,,,,,,conditions/schedules/train_x_first/blue_star_00/bottom_right/instructions/Slide3.png,conditions/schedules/train_x_first/blue_star_00/bottom_right/instructions/Audio3.wav,657.2023140001111,657.1949170501903,3,"[8.111357900314033, 17.88257489958778, 16.67055909987539]","[0.014319199603050947, 0.014085500035434961, 16.67056699981913]",0,,,,,,,,,,,,,,,,,,,,,,,,,,,,,,,,,,,,,,,,,,,,,,,,,,,,,,,,,,,,,,,,,,,,,,,,,,,,,,,,,,,,,,,,,,,,,,,,,,,,,,,,,,,,,,,,,,,,,,,,,,,,LVTRZP,train_x,blue_star,bottom_right,2025-04-23_12h16.57.680,HideSeek_v1,2022.2.5,59.917912532312016,
,,,,,,,,,,,,,,,0,0,0,0,3,0,3,0,,,,,,,,,,,,,,,,,,,,,,,,,,,,,,,conditions/schedules/train_x_first/blue_star_00/bottom_right/instructions/Slide4.png,conditions/schedules/train_x_first/blue_star_00/bottom_right/instructions/Audio4.wav,673.9452323000878,673.9423665502109,4,"[8.111357900314033, 17.88257489958778, 16.67055909987539, 19.410707199946046]","[0.014319199603050947, 0.014085500035434961, 0.047532500233501196, 19.410713800229132]",0,,,,,,,,,,,,,,,,,,,,,,,,,,,,,,,,,,,,,,,,,,,,,,,,,,,,,,,,,,,,,,,,,,,,,,,,,,,,,,,,,,,,,,,,,,,,,,,,,,,,,,,,,,,,,,,,,,,,,,,,,,,,LVTRZP,train_x,blue_star,bottom_right,2025-04-23_12h16.57.680,HideSeek_v1,2022.2.5,59.917912532312016,
,,,,,,,,,,,,,,,0,0,0,0,4,0,4,0,,,,,,,,,,,,,,,,,,,,,,,,,,,,,,,conditions/schedules/train_x_first/blue_star_00/bottom_right/instructions/Slide5.png,conditions/schedules/train_x_first/blue_star_00/bottom_right/instructions/Audio5.wav,693.4285213002004,693.4250593502074,5,"[8.111357900314033, 17.88257489958778, 16.67055909987539, 19.410707199946046, 5.38174910005182]","[0.014319199603050947, 0.014085500035434961, 0.047532500233501196, 0.030675300396978855, 5.381758300121874]",0,,,,,,,,,,,,,,,,,,,,,,,,,,,,,,,,,,,,,,,,,,,,,,,,,,,,,,,,,,,,,,,,,,,,,,,,,,,,,,,,,,,,,,,,,,,,,,,,,,,,,,,,,,,,,,,,,,,,,,,,,,,,LVTRZP,train_x,blue_star,bottom_right,2025-04-23_12h16.57.680,HideSeek_v1,2022.2.5,59.917912532312016,
,,,,,,,,,,,,,,,0,0,0,0,5,0,5,0,,,,,,,,,,,,,,,,,,,,,,,,,,,,,,,conditions/schedules/train_x_first/blue_star_00/bottom_right/instructions/Slide6.png,conditions/schedules/train_x_first/blue_star_00/bottom_right/instructions/Audio6.wav,698.8624353003688,698.8627668799833,6,"[8.111357900314033, 17.88257489958778, 16.67055909987539, 19.410707199946046, 5.38174910005182, 5.085727999918163]","[0.014319199603050947, 0.014085500035434961, 0.047532500233501196, 0.030675300396978855, 0.04890009993687272, 5.085734299849719]",0,,,,,,,,,,,,,,,,,,,,,,,,,,,,,,,,,,,,,,,,,,,,,,,,,,,,,,,,,,,,,,,,,,,,,,,,,,,,,,,,,,,,,,,,,,,,,,,,,,,,,,,,,,,,,,,,,,,,,,,,,,,,LVTRZP,train_x,blue_star,bottom_right,2025-04-23_12h16.57.680,HideSeek_v1,2022.2.5,59.917912532312016,
,,,,,,,,,,,,,,,0,0,0,0,6,0,6,0,,,,,,,,,,,,,,,,,,,,,,,,,,,,,,,conditions/schedules/train_x_first/blue_star_00/bottom_right/instructions/Slide7.png,conditions/schedules/train_x_first/blue_star_00/bottom_right/instructions/Audio7.wav,703.9991471003741,704.000532680098,7,"[8.111357900314033, 17.88257489958778, 16.67055909987539, 19.410707199946046, 5.38174910005182, 5.085727999918163, 5.8704188000410795]","[0.014319199603050947, 0.014085500035434961, 0.047532500233501196, 0.030675300396978855, 0.04890009993687272, 0.048803700134158134, 5.87042579986155]",0,,,,,,,,,,,,,,,,,,,,,,,,,,,,,,,,,,,,,,,,,,,,,,,,,,,,,,,,,,,,,,,,,,,,,,,,,,,,,,,,,,,,,,,,,,,,,,,,,,,,,,,,,,,,,,,,,,,,,,,,,,,,LVTRZP,train_x,blue_star,bottom_right,2025-04-23_12h16.57.680,HideSeek_v1,2022.2.5,59.917912532312016,
,,,,,,,,,,,,,,,0,0,0,0,7,0,7,0,,,,,,,,,,,,,,,,,,,,,,,,,,,,,,,conditions/schedules/train_x_first/blue_star_00/bottom_right/instructions/Slide8.png,conditions/schedules/train_x_first/blue_star_00/bottom_right/instructions/Audio8.wav,709.9253642000258,709.9221122799441,8,"[8.111357900314033, 17.88257489958778, 16.67055909987539, 19.410707199946046, 5.38174910005182, 5.085727999918163, 5.8704188000410795, 11.83760379999876]","[0.014319199603050947, 0.014085500035434961, 0.047532500233501196, 0.030675300396978855, 0.04890009993687272, 0.048803700134158134, 0.06511580012738705, 11.8376116999425]",0,,,,,,,,,,,,,,,,,,,,,,,,,,,,,,,,,,,,,,,,,,,,,,,,,,,,,,,,,,,,,,,,,,,,,,,,,,,,,,,,,,,,,,,,,,,,,,,,,,,,,,,,,,,,,,,,,,,,,,,,,,,,LVTRZP,train_x,blue_star,bottom_right,2025-04-23_12h16.57.680,HideSeek_v1,2022.2.5,59.917912532312016,
,,,,,,,,,,,,,,,0,0,0,0,8,0,8,0,,,,,,,,,,,,,,,,,,,,,,,,,,,,,,,conditions/schedules/train_x_first/blue_star_00/bottom_right/instructions/Slide9.png,conditions/schedules/train_x_first/blue_star_00/bottom_right/instructions/Audio9.wav,721.8332167002372,721.8321364503354,9,"[8.111357900314033, 17.88257489958778, 16.67055909987539, 19.410707199946046, 5.38174910005182, 5.085727999918163, 5.8704188000410795, 11.83760379999876, 6.151327300351113]","[0.014319199603050947, 0.014085500035434961, 0.047532500233501196, 0.030675300396978855, 0.04890009993687272, 0.048803700134158134, 0.06511580012738705, 0.04699960025027394, 6.151334899943322]",0,,,,,,,,,,,,,,,,,,,,,,,,,,,,,,,,,,,,,,,,,,,,,,,,,,,,,,,,,,,,,,,,,,,,,,,,,,,,,,,,,,,,,,,,,,,,,,,,,,,,,,,,,,,,,,,,,,,,,,,,,,,,LVTRZP,train_x,blue_star,bottom_right,2025-04-23_12h16.57.680,HideSeek_v1,2022.2.5,59.917912532312016,
,,,,,,,,,,,,,,,0,0,0,0,9,0,9,0,,,,,,,,,,,,,,,,,,,,,,,,,,,,,,,conditions/schedules/train_x_first/blue_star_00/bottom_right/instructions/Slide10.png,conditions/schedules/train_x_first/blue_star_00/bottom_right/instructions/Audio10.wav,728.0215595001355,728.020462710224,10,"[8.111357900314033, 17.88257489958778, 16.67055909987539, 19.410707199946046, 5.38174910005182, 5.085727999918163, 5.8704188000410795, 11.83760379999876, 6.151327300351113, 6.601450700312853]","[0.014319199603050947, 0.014085500035434961, 0.047532500233501196, 0.030675300396978855, 0.04890009993687272, 0.048803700134158134, 0.06511580012738705, 0.04699960025027394, 0.09579190006479621, 6.6014586999081075]",0,,,,,,,,,,,,,,,,,,,,,,,,,,,,,,,,,,,,,,,,,,,,,,,,,,,,,,,,,,,,,,,,,,,,,,,,,,,,,,,,,,,,,,,,,,,,,,,,,,,,,,,,,,,,,,,,,,,,,,,,,,,,LVTRZP,train_x,blue_star,bottom_right,2025-04-23_12h16.57.680,HideSeek_v1,2022.2.5,59.917912532312016,
,,,,,,,,,,,,,,,0,0,0,0,10,0,10,0,,,,,,,,,,,,,,,,,,,,,,,,,,,,,,,conditions/schedules/train_x_first/blue_star_00/bottom_right/instructions/Slide11.png,conditions/schedules/train_x_first/blue_star_00/bottom_right/instructions/Audio11.wav,734.6798746003769,734.6760670802556,11,"[8.111357900314033, 17.88257489958778, 16.67055909987539, 19.410707199946046, 5.38174910005182, 5.085727999918163, 5.8704188000410795, 11.83760379999876, 6.151327300351113, 6.601450700312853, 10.184802599716932]","[0.014319199603050947, 0.014085500035434961, 0.047532500233501196, 0.030675300396978855, 0.04890009993687272, 0.048803700134158134, 0.06511580012738705, 0.04699960025027394, 0.09579190006479621, 0.0640251999720931, 10.18480939976871]",0,,,,,,,,,,,,,,,,,,,,,,,,,,,,,,,,,,,,,,,,,,,,,,,,,,,,,,,,,,,,,,,,,,,,,,,,,,,,,,,,,,,,,,,,,,,,,,,,,,,,,,,,,,,,,,,,,,,,,,,,,,,,LVTRZP,train_x,blue_star,bottom_right,2025-04-23_12h16.57.680,HideSeek_v1,2022.2.5,59.917912532312016,
,,,,,,,,,,,,,,,0,0,0,0,11,0,11,0,,,,,,,,,,,,,,,,,,,,,,,,,,,,,,,conditions/schedules/train_x_first/blue_star_00/bottom_right/instructions/Slide12.png,conditions/schedules/train_x_first/blue_star_00/bottom_right/instructions/Audio12.wav,744.935730300378,744.9345053499565,12,"[8.111357900314033, 17.88257489958778, 16.67055909987539, 19.410707199946046, 5.38174910005182, 5.085727999918163, 5.8704188000410795, 11.83760379999876, 6.151327300351113, 6.601450700312853, 10.184802599716932, 12.489425899926573]","[0.014319199603050947, 0.014085500035434961, 0.047532500233501196, 0.030675300396978855, 0.04890009993687272, 0.048803700134158134, 0.06511580012738705, 0.04699960025027394, 0.09579190006479621, 0.0640251999720931, 0.030257700011134148, 12.489432400092483]",0,,,,,,,,,,,,,,,,,,,,,,,,,,,,,,,,,,,,,,,,,,,,,,,,,,,,,,,,,,,,,,,,,,,,,,,,,,,,,,,,,,,,,,,,,,,,,,,,,,,,,,,,,,,,,,,,,,,,,,,,,,,,LVTRZP,train_x,blue_star,bottom_right,2025-04-23_12h16.57.680,HideSeek_v1,2022.2.5,59.917912532312016,
1,9,0,4,0,-5,0,11,2,instr_dim1_1,,,,,,0,0,0,0,,,,,0,0,0,0,,,,,,,,,,,,,,,,,,,,,,,,,,,,,,,,,,,,,stimuli/alien_stimuli/11.png,conditions/schedules/train_x_first/blue_star_00/bottom_right/inputInstr_1.xlsx,stimuli/alien_stimuli/11.png,757.5283024003729,757.5283024003729,757.5283024003729,757.5283024003729,757.5285048901103,return,7.892466200049967,"[-0.16, -0.08, 0, 0.08, 0.16, 0.24, 0.32, 0.4, 0.48, 0.56]","[-0.4, -0.32, -0.24, -0.16, -0.08, 0, 0.08, 0.16, 0.24, 0.32]",0,0,4,9,0.0,0.4,765.5906683001667,765.5906683001667,765.5906683001667,765.5906683001667,765.5906683001667,765.5906683001667,765.5906683001667,765.5854141301476,8.574848299846053,return,8.40923980018124,stimuli/alien_stimuli/11.png,11,9,1,,,,,,,,,,,,,,,,,,,,,,,,,,,,,,,,,,,,,,,,,,,,,,,,,,,,,,,,,,,,,,,,,,,,,,,,,,,,,,,,,,,,,,,,,LVTRZP,train_x,blue_star,bottom_right,2025-04-23_12h16.57.680,HideSeek_v1,2022.2.5,59.917912532312016,
,,,,,,,,,,,30,,,,0,0,0,0,,,,,,,,,,,,,,,,,,,,,,,,,,,,,,,,,,,,,,,,,,,,,,,,,,,,,,,,,,,,,,,,,,,,,,,,,,,,,,21,0.7,0,0,99,1,30,0,conditions/schedules/train_x_first/blue_star_00/bottom_right/inputTrain_1.1.xlsx,99,1,1,1,0,,,,,,,,,,,,,,,,,,,,,,,,,,,,,,,,,,,,,,,,,,,,,,,,,,,,,,,,,,,,,,,,,,,,,,,,,,,LVTRZP,train_x,blue_star,bottom_right,2025-04-23_12h16.57.680,HideSeek_v1,2022.2.5,59.917912532312016,
,,,,,,,,,,,,,,,1,0,1,0,0,0,0,0,,,,,,,,,,,,,,,,,,,,,,,,,,,,,,,conditions/schedules/train_x_first/blue_star_00/bottom_right/instructions/Slide13.png,conditions/schedules/train_x_first/blue_star_00/bottom_right/instructions/Audio13.wav,774.1566842002794,774.1591921303421,13,"[8.111357900314033, 17.88257489958778, 16.67055909987539, 19.410707199946046, 5.38174910005182, 5.085727999918163, 5.8704188000410795, 11.83760379999876, 6.151327300351113, 6.601450700312853, 10.184802599716932, 12.489425899926573, 18.247601499781013]","[0.014319199603050947, 0.014085500035434961, 0.047532500233501196, 0.030675300396978855, 0.04890009993687272, 0.048803700134158134, 0.06511580012738705, 0.04699960025027394, 0.09579190006479621, 0.0640251999720931, 0.030257700011134148, 12.489432400092483, 18.247609599959105]",0,,,,,,,,,,,,,,,,,,,,,,,,,,,,,,,,,,,,,,,,,,,,,,,,,,,,,,,,,,,,,,,,,,,,,,,,,,,,,,,,,,,,,,,,,,,,,,,,,,,,,,,,,,,,,,,,,,,,,,,,,,,,LVTRZP,train_x,blue_star,bottom_right,2025-04-23_12h16.57.680,HideSeek_v1,2022.2.5,59.917912532312016,
,,,,,,,,,,,,,,,1,0,1,0,1,0,1,0,,,,,,,,,,,,,,,,,,,,,,,,,,,,,,,conditions/schedules/train_x_first/blue_star_00/bottom_right/instructions/Slide14.png,conditions/schedules/train_x_first/blue_star_00/bottom_right/instructions/Audio14.wav,792.4710910003632,792.4573143803515,14,"[8.111357900314033, 17.88257489958778, 16.67055909987539, 19.410707199946046, 5.38174910005182, 5.085727999918163, 5.8704188000410795, 11.83760379999876, 6.151327300351113, 6.601450700312853, 10.184802599716932, 12.489425899926573, 18.247601499781013, 12.494116900023073]","[0.014319199603050947, 0.014085500035434961, 0.047532500233501196, 0.030675300396978855, 0.04890009993687272, 0.048803700134158134, 0.06511580012738705, 0.04699960025027394, 0.09579190006479621, 0.0640251999720931, 0.030257700011134148, 12.489432400092483, 18.247609599959105, 12.494124599732459]",0,,,,,,,,,,,,,,,,,,,,,,,,,,,,,,,,,,,,,,,,,,,,,,,,,,,,,,,,,,,,,,,,,,,,,,,,,,,,,,,,,,,,,,,,,,,,,,,,,,,,,,,,,,,,,,,,,,,,,,,,,,,,LVTRZP,train_x,blue_star,bottom_right,2025-04-23_12h16.57.680,HideSeek_v1,2022.2.5,59.917912532312016,
2,8,2,8,2,0,0,61,2,instr_dim1_1,,,,,,1,0,1,0,,,,,0,0,0,0,,,,,,,,,,,,,,,,,,,,,,,,,,,,,,,,,,,,,stimuli/alien_stimuli/61.png,conditions/schedules/train_x_first/blue_star_00/bottom_right/inputInstr_1.xlsx,stimuli/alien_stimuli/61.png,805.0612062001601,805.0612062001601,805.0612062001601,805.0612062001601,805.0514226202853,return,6.306692599784583,"[-0.16, -0.08, 0, 0.08, 0.16, 0.24, 0.32, 0.4, 0.48, 0.56]","[-0.4, -0.32, -0.24, -0.16, -0.08, 0, 0.08, 0.16, 0.24, 0.32]",2,2,8,8,0.0,0.0,811.518334500026,811.518334500026,811.518334500026,811.518334500026,811.518334500026,811.518334500026,811.518334500026,811.5066478599794,9.29188650008291,return,9.1324742003344,stimuli/alien_stimuli/61.png,61,8,2,,,,,,,,,,,,,,,,,,,,,,,,,,,,,,,,,,,,,,,,,,,,,,,,,,,,,,,,,,,,,,,,,,,,,,,,,,,,,,,,,,,,,,,,,LVTRZP,train_x,blue_star,bottom_right,2025-04-23_12h16.57.680,HideSeek_v1,2022.2.5,59.917912532312016,
,,,,,,,,,,,30,,,,1,0,1,0,,,,,,,,,,,,,,,,,,,,,,,,,,,,,,,,,,,,,,,,,,,,,,,,,,,,,,,,,,,,,,,,,,,,,,,,,,,,,,21,0.7,0,0,99,1,30,0,conditions/schedules/train_x_first/blue_star_00/bottom_right/inputTrain_1.1.xlsx,99,1,1,1,0,,,,,,,,,,,,,,,,,,,,,,,,,,,,,,,,,,,,,,,,,,,,,,,,,,,,,,,,,,,,,,,,,,,,,,,,,,,LVTRZP,train_x,blue_star,bottom_right,2025-04-23_12h16.57.680,HideSeek_v1,2022.2.5,59.917912532312016,
,,,,,,,,,,,,,,,2,0,2,0,0,0,0,0,,,,,,,,,,,,,,,,,,,,,,,,,,,,,,,conditions/schedules/train_x_first/blue_star_00/bottom_right/instructions/Slide15.png,conditions/schedules/train_x_first/blue_star_00/bottom_right/instructions/Audio15.wav,820.8203274002299,820.8144773299806,15,"[8.111357900314033, 17.88257489958778, 16.67055909987539, 19.410707199946046, 5.38174910005182, 5.085727999918163, 5.8704188000410795, 11.83760379999876, 6.151327300351113, 6.601450700312853, 10.184802599716932, 12.489425899926573, 18.247601499781013, 12.494116900023073, 29.784009200055152]","[0.014319199603050947, 0.014085500035434961, 0.047532500233501196, 0.030675300396978855, 0.04890009993687272, 0.048803700134158134, 0.06511580012738705, 0.04699960025027394, 0.09579190006479621, 0.0640251999720931, 0.030257700011134148, 12.489432400092483, 18.247609599959105, 12.494124599732459, 29.78401659987867]",0,,,,,,,,,,,,,,,,,,,,,,,,,,,,,,,,,,,,,,,,,,,,,,,,,,,,,,,,,,,,,,,,,,,,,,,,,,,,,,,,,,,,,,,,,,,,,,,,,,,,,,,,,,,,,,,,,,,,,,,,,,,,LVTRZP,train_x,blue_star,bottom_right,2025-04-23_12h16.57.680,HideSeek_v1,2022.2.5,59.917912532312016,
,,,,,,,,,,,,,,,2,0,2,0,1,0,1,0,,,,,,,,,,,,,,,,,,,,,,,,,,,,,,,conditions/schedules/train_x_first/blue_star_00/bottom_right/instructions/Slide16.png,conditions/schedules/train_x_first/blue_star_00/bottom_right/instructions/Audio16.wav,850.6732332999818,850.673225149978,16,"[8.111357900314033, 17.88257489958778, 16.67055909987539, 19.410707199946046, 5.38174910005182, 5.085727999918163, 5.8704188000410795, 11.83760379999876, 6.151327300351113, 6.601450700312853, 10.184802599716932, 12.489425899926573, 18.247601499781013, 12.494116900023073, 29.784009200055152, 23.282126700039953]","[0.014319199603050947, 0.014085500035434961, 0.047532500233501196, 0.030675300396978855, 0.04890009993687272, 0.048803700134158134, 0.06511580012738705, 0.04699960025027394, 0.09579190006479621, 0.0640251999720931, 0.030257700011134148, 12.489432400092483, 18.247609599959105, 12.494124599732459, 29.78401659987867, 23.282134499866515]",0,,,,,,,,,,,,,,,,,,,,,,,,,,,,,,,,,,,,,,,,,,,,,,,,,,,,,,,,,,,,,,,,,,,,,,,,,,,,,,,,,,,,,,,,,,,,,,,,,,,,,,,,,,,,,,,,,,,,,,,,,,,,LVTRZP,train_x,blue_star,bottom_right,2025-04-23_12h16.57.680,HideSeek_v1,2022.2.5,59.917912532312016,
,7,1,4,1,-3,0,31,,train_dim1_1,1,30,,,,2,0,2,0,,,,,,,,,0,0,0,0,0,0,0,0,0,0,0,0,,,,,,,,,,,,,,,,,,,,,,,,,stimuli/alien_stimuli/31.png,,,,,,,,,,,,,,,,,,,,,,,,,,,,,,,,,,,,,,,30,,,,,,,,874.0564220999368,874.0564220999368,874.0564220999368,874.0564220999368,874.0564220999368,left,4.749403499998152,0,0,0,99,0.32,-0.32,left,4.6450997004285455,,,,,,,,,,,,,,,,,,,,,,,,,,,,,,,,,,,,,,,,,,,,,,,,,,,,,,,,,,,,LVTRZP,train_x,blue_star,bottom_right,2025-04-23_12h16.57.680,HideSeek_v1,2022.2.5,59.917912532312016,
,7,1,4,1,-3,0,31,,train_dim1_1,1,30,,,,2,0,2,0,,,,,,,,,0,0,0,0,0,0,0,0,1,0,1,0,,,,,,,,,,,,,,,,,,,,,,,,,,,,,,,,,,,,,,,,,,,,,,,,,,,,,,,,,,,,,,,,30,,,,,,,,878.79341319995,878.79341319995,878.79341319995,878.79341319995,878.79341319995,left,0.6764517002739012,0,0,0,99,0.24,-0.32,left,0.5962348999455571,,,,,,,,,,,,,,,,,,,,,,,,,,,,,,,,,,,,,,,,,,,,,,,,,,,,,,,,,,,,LVTRZP,train_x,blue_star,bottom_right,2025-04-23_12h16.57.680,HideSeek_v1,2022.2.5,59.917912532312016,
,7,1,4,1,-3,0,31,,train_dim1_1,1,30,,,,2,0,2,0,,,,,,,,,0,0,0,0,0,0,0,0,2,0,2,0,,,,,,,,,,,,,,,,,,,,,,,,,,,,,,,,,,,,,,,,,,,,,,,,,,,,,,,,,,,,,,,,30,,,,,,,,879.4753025001846,879.4753025001846,879.4753025001846,879.4753025001846,879.4753025001846,left,0.6105121001601219,0,0,0,99,0.15999999999999998,-0.32,left,0.5374443000182509,,,,,,,,,,,,,,,,,,,,,,,,,,,,,,,,,,,,,,,,,,,,,,,,,,,,,,,,,,,,LVTRZP,train_x,blue_star,bottom_right,2025-04-23_12h16.57.680,HideSeek_v1,2022.2.5,59.917912532312016,
,7,1,4,1,-3,0,31,,train_dim1_1,1,30,,,,2,0,2,0,,,,,,,,,0,0,0,0,0,0,0,0,3,0,3,0,,,,,,,,,,,,,,,,,,,,,,,,,,,,,,,,,,,,,,,,,,,,,,,,,,,,,,,,,,,,,,,,30,,,,,,,,880.0935108000413,880.0935108000413,880.0935108000413,880.0935108000413,880.0935108000413,left,0.6098575997166336,0,0,0,99,0.07999999999999997,-0.32,left,0.527532400097698,,,,,,,,,,,,,,,,,,,,,,,,,,,,,,,,,,,,,,,,,,,,,,,,,,,,,,,,,,,,LVTRZP,train_x,blue_star,bottom_right,2025-04-23_12h16.57.680,HideSeek_v1,2022.2.5,59.917912532312016,
,7,1,4,1,-3,0,31,,train_dim1_1,1,30,,,,2,0,2,0,,,,,,,,,0,0,0,0,0,0,0,0,4,0,4,0,,,,,,,,,,,,,,,,,,,,,,,,,,,,,,,,,,,,,,,,,,,,,,,,,,,,,,,,,,,,,,,,30,,,,,,,,880.7104327003472,880.7104327003472,880.7104327003472,880.7104327003472,880.7104327003472,left,1.2271838998422027,0,0,0,99,-2.7755575615628914e-17,-0.32,left,1.1526362001895905,,,,,,,,,,,,,,,,,,,,,,,,,,,,,,,,,,,,,,,,,,,,,,,,,,,,,,,,,,,,LVTRZP,train_x,blue_star,bottom_right,2025-04-23_12h16.57.680,HideSeek_v1,2022.2.5,59.917912532312016,
,7,1,4,1,-3,0,31,,train_dim1_1,1,30,,,,2,0,2,0,,,,,,,,,0,0,0,0,0,0,0,0,5,0,5,0,,,,,,,,,,,,,,,,,,,,,,,,,,,,,,,,,,,,,,,,,,,,,,,,,,,,,,,,,,,,,,,,30,,,,,,,,881.9476430001669,881.9476430001669,881.9476430001669,881.9476430001669,881.9476430001669,return,0.9602673999033868,0,0,0,0,-2.7755575615628914e-17,-0.32,return,0.8804580001160502,0,-5,-2.7755575615628914e-17,-0.32,,,,,,,,,,,,,,,,,,,,,,,,,,,,,,,,,,,,,,,,,,,,,,,,,,,,,,,,LVTRZP,train_x,blue_star,bottom_right,2025-04-23_12h16.57.680,HideSeek_v1,2022.2.5,59.917912532312016,
,7,4,2,4,-5,0,11,,train_dim1_1,2,30,,,,2,0,2,0,,,,,,,,,0,0,0,0,0,1,1,1,0,0,0,0,,,,,,,,,,,,,,,,,,,,,,,,,stimuli/alien_stimuli/11.png,,,,,,,,,,,,,,,,,,,,,,,,,,,,,stimuli/alien_stimuli/31.png,31,7,3,,,,,,,30,,,,,,,,906.7320783003233,906.7320783003233,906.7320783003233,906.7320783003233,906.7320783003233,left,2.474928699899465,0,0,0,99,0.32,-0.08,left,2.3645973997190595,,,,,905.1508949999698,906.7320783003233,0.16,-0.32,0.0,0.24,-0.32,0.16,0.28,0.16,-0.32,884.4764602002688,884.4764602002688,884.4764602002688,884.4764602002688,884.4764602002688,884.4764602002688,884.4764602002688,884.4764602002688,884.4671331902034,20.786895599681884,return,20.65770890004933,,,,,,,,,,,,,,,,,,,,,,,,,,,,,,,,,LVTRZP,train_x,blue_star,bottom_right,2025-04-23_12h16.57.680,HideSeek_v1,2022.2.5,59.917912532312016,
,7,4,2,4,-5,0,11,,train_dim1_1,2,30,,,,2,0,2,0,,,,,,,,,0,0,0,0,0,1,1,1,1,0,1,0,,,,,,,,,,,,,,,,,,,,,,,,,,,,,,,,,,,,,,,,,,,,,,,,,,,,,,,,,,,,,,,,30,,,,,,,,909.187977600377,909.187977600377,909.187977600377,909.187977600377,909.187977600377,left,0.4262033002451062,0,0,0,99,0.24,-0.08,left,0.33451030030846596,,,,,,,,,,,,,,,,,,,,,,,,,,,,,,,,,,,,,,,,,,,,,,,,,,,,,,,,,,,,LVTRZP,train_x,blue_star,bottom_right,2025-04-23_12h16.57.680,HideSeek_v1,2022.2.5,59.917912532312016,
,7,4,2,4,-5,0,11,,train_dim1_1,2,30,,,,2,0,2,0,,,,,,,,,0,0,0,0,0,1,1,1,2,0,2,0,,,,,,,,,,,,,,,,,,,,,,,,,,,,,,,,,,,,,,,,,,,,,,,,,,,,,,,,,,,,,,,,30,,,,,,,,909.622026400175,909.622026400175,909.622026400175,909.622026400175,909.622026400175,left,0.44370839977636933,0,0,0,99,0.15999999999999998,-0.08,left,0.3511986001394689,,,,,,,,,,,,,,,,,,,,,,,,,,,,,,,,,,,,,,,,,,,,,,,,,,,,,,,,,,,,LVTRZP,train_x,blue_star,bottom_right,2025-04-23_12h16.57.680,HideSeek_v1,2022.2.5,59.917912532312016,
,7,4,2,4,-5,0,11,,train_dim1_1,2,30,,,,2,0,2,0,,,,,,,,,0,0,0,0,0,1,1,1,3,0,3,0,,,,,,,,,,,,,,,,,,,,,,,,,,,,,,,,,,,,,,,,,,,,,,,,,,,,,,,,,,,,,,,,30,,,,,,,,910.0727051002905,910.0727051002905,910.0727051002905,910.0727051002905,910.0727051002905,left,0.3932749000377953,0,0,0,99,0.07999999999999997,-0.08,left,0.30040489975363016,,,,,,,,,,,,,,,,,,,,,,,,,,,,,,,,,,,,,,,,,,,,,,,,,,,,,,,,,,,,LVTRZP,train_x,blue_star,bottom_right,2025-04-23_12h16.57.680,HideSeek_v1,2022.2.5,59.917912532312016,
,7,4,2,4,-5,0,11,,train_dim1_1,2,30,,,,2,0,2,0,,,,,,,,,0,0,0,0,0,1,1,1,4,0,4,0,,,,,,,,,,,,,,,,,,,,,,,,,,,,,,,,,,,,,,,,,,,,,,,,,,,,,,,,,,,,,,,,30,,,,,,,,910.4721730002202,910.4721730002202,910.4721730002202,910.4721730002202,910.4721730002202,left,0.39343689987435937,0,0,0,99,-2.7755575615628914e-17,-0.08,left,0.30471180006861687,,,,,,,,,,,,,,,,,,,,,,,,,,,,,,,,,,,,,,,,,,,,,,,,,,,,,,,,,,,,LVTRZP,train_x,blue_star,bottom_right,2025-04-23_12h16.57.680,HideSeek_v1,2022.2.5,59.917912532312016,
,7,4,2,4,-5,0,11,,train_dim1_1,2,30,,,,2,0,2,0,,,,,,,,,0,0,0,0,0,1,1,1,5,0,5,0,,,,,,,,,,,,,,,,,,,,,,,,,,,,,,,,,,,,,,,,,,,,,,,,,,,,,,,,,,,,,,,,30,,,,,,,,910.8731122999452,910.8731122999452,910.8731122999452,910.8731122999452,910.8731122999452,return,0.8603370999917388,1,0,0,1,-2.7755575615628914e-17,-0.08,return,0.7764123999513686,0,-10,-2.7755575615628914e-17,-0.08,,,,,,,,,,,,,,,,,,,,,,,,,,,,,,,,,,,,,,,,,,,,,,,,,,,,,,,,LVTRZP,train_x,blue_star,bottom_right,2025-04-23_12h16.57.680,HideSeek_v1,2022.2.5,59.917912532312016,
,9,4,5,4,-4,0,21,,train_dim1_1,3,30,,,,2,0,2,0,,,,,,,,,0,0,0,0,0,2,2,2,0,0,0,0,,,,,,,,,,,,,,,,,,,,,,,,,stimuli/alien_stimuli/21.png,,,,,,,,,,,,,,,,,,,,,,,,,,,,,stimuli/alien_stimuli/11.png,11,7,4,,,,,,,30,,,,,,,,925.1764243002981,925.1764243002981,925.1764243002981,925.1764243002981,925.1764243002981,left,2.300603900104761,1,0,0,99,0.48000000000000004,-0.08,left,2.2042255997657776,,,,,923.5991565999575,925.1764243002981,0,-0.08,0.0,0.4,-0.08,0,0.2,0,-0.08,913.3105738000013,913.3105738000013,913.3105738000013,913.3105738000013,913.3105738000013,913.3105738000013,913.3105738000013,913.3105738000013,913.29127219012,10.410649299621582,return,10.271421399898827,,,,,,,,,,,,,,,,,,,,,,,,,,,,,,,,,LVTRZP,train_x,blue_star,bottom_right,2025-04-23_12h16.57.680,HideSeek_v1,2022.2.5,59.917912532312016,
,9,4,5,4,-4,0,21,,train_dim1_1,3,30,,,,2,0,2,0,,,,,,,,,0,0,0,0,0,2,2,2,1,0,1,0,,,,,,,,,,,,,,,,,,,,,,,,,,,,,,,,,,,,,,,,,,,,,,,,,,,,,,,,,,,,,,,,30,,,,,,,,927.4711914001964,927.4711914001964,927.4711914001964,927.4711914001964,927.4711914001964,left,0.4428185997530818,1,0,0,99,0.4,-0.08,left,0.36515500023961067,,,,,,,,,,,,,,,,,,,,,,,,,,,,,,,,,,,,,,,,,,,,,,,,,,,,,,,,,,,,LVTRZP,train_x,blue_star,bottom_right,2025-04-23_12h16.57.680,HideSeek_v1,2022.2.5,59.917912532312016,
,9,4,5,4,-4,0,21,,train_dim1_1,3,30,,,,2,0,2,0,,,,,,,,,0,0,0,0,0,2,2,2,2,0,2,0,,,,,,,,,,,,,,,,,,,,,,,,,,,,,,,,,,,,,,,,,,,,,,,,,,,,,,,,,,,,,,,,30,,,,,,,,927.9210817003623,927.9210817003623,927.9210817003623,927.9210817003623,927.9210817003623,left,0.4428479000926018,1,0,0,99,0.32,-0.08,left,0.35101240035146475,,,,,,,,,,,,,,,,,,,,,,,,,,,,,,,,,,,,,,,,,,,,,,,,,,,,,,,,,,,,LVTRZP,train_x,blue_star,bottom_right,2025-04-23_12h16.57.680,HideSeek_v1,2022.2.5,59.917912532312016,
,9,4,5,4,-4,0,21,,train_dim1_1,3,30,,,,2,0,2,0,,,,,,,,,0,0,0,0,0,2,2,2,3,0,3,0,,,,,,,,,,,,,,,,,,,,,,,,,,,,,,,,,,,,,,,,,,,,,,,,,,,,,,,,,,,,,,,,30,,,,,,,,928.3711673999205,928.3711673999205,928.3711673999205,928.3711673999205,928.3711673999205,return,0.776957199908793,1,1,0,0,0.32,-0.08,return,0.697408199775964,0,-13,0.32,-0.08,,,,,,,,,,,,,,,,,,,,,,,,,,,,,,,,,,,,,,,,,,,,,,,,,,,,,,,,LVTRZP,train_x,blue_star,bottom_right,2025-04-23_12h16.57.680,HideSeek_v1,2022.2.5,59.917912532312016,
,7,3,6,3,-1,0,51,,train_dim1_1,4,30,,,,2,0,2,0,,,,,,,,,0,0,0,0,0,3,3,3,0,0,0,0,,,,,,,,,,,,,,,,,,,,,,,,,stimuli/alien_stimuli/51.png,,,,,,,,,,,,,,,,,,,,,,,,,,,,,stimuli/alien_stimuli/21.png,21,9,5,,,,,,,30,,,,,,,,945.2487663002685,945.2487663002685,945.2487663002685,945.2487663002685,945.2487663002685,up,2.4357656002976,1,1,0,99,0.4,-0.08,up,2.3262287001125515,,,,,943.6657728999853,945.2487663002685,0.24,-0.08,0.0,0.32,-0.08,0.24,0.4,0.24,-0.08,930.735295300372,930.735295300372,930.735295300372,930.735295300372,930.735295300372,930.735295300372,930.735295300372,930.735295300372,930.7225529600865,13.062801899854094,return,12.907873500138521,,,,,,,,,,,,,,,,,,,,,,,,,,,,,,,,,LVTRZP,train_x,blue_star,bottom_right,2025-04-23_12h16.57.680,HideSeek_v1,2022.2.5,59.917912532312016,
,7,3,6,3,-1,0,51,,train_dim1_1,4,30,,,,2,0,2,0,,,,,,,,,0,0,0,0,0,3,3,3,1,0,1,0,,,,,,,,,,,,,,,,,,,,,,,,,,,,,,,,,,,,,,,,,,,,,,,,,,,,,,,,,,,,,,,,30,,,,,,,,947.6692264000885,947.6692264000885,947.6692264000885,947.6692264000885,947.6692264000885,up,0.5098778000101447,1,1,0,99,0.4,0.0,up,0.42922799987718463,,,,,,,,,,,,,,,,,,,,,,,,,,,,,,,,,,,,,,,,,,,,,,,,,,,,,,,,,,,,LVTRZP,train_x,blue_star,bottom_right,2025-04-23_12h16.57.680,HideSeek_v1,2022.2.5,59.917912532312016,
,7,3,6,3,-1,0,51,,train_dim1_1,4,30,,,,2,0,2,0,,,,,,,,,0,0,0,0,0,3,3,3,2,0,2,0,,,,,,,,,,,,,,,,,,,,,,,,,,,,,,,,,,,,,,,,,,,,,,,,,,,,,,,,,,,,,,,,30,,,,,,,,948.1862194002606,948.1862194002606,948.1862194002606,948.1862194002606,948.1862194002606,left,0.6761473002843559,1,1,0,99,0.32,0.0,left,0.5897031002677977,,,,,,,,,,,,,,,,,,,,,,,,,,,,,,,,,,,,,,,,,,,,,,,,,,,,,,,,,,,,LVTRZP,train_x,blue_star,bottom_right,2025-04-23_12h16.57.680,HideSeek_v1,2022.2.5,59.917912532312016,
,7,3,6,3,-1,0,51,,train_dim1_1,4,30,,,,2,0,2,0,,,,,,,,,0,0,0,0,0,3,3,3,3,0,3,0,,,,,,,,,,,,,,,,,,,,,,,,,,,,,,,,,,,,,,,,,,,,,,,,,,,,,,,,,,,,,,,,30,,,,,,,,948.8707245001569,948.8707245001569,948.8707245001569,948.8707245001569,948.8707245001569,return,0.8612110000103712,1,0,0,0,0.32,0.0,return,0.7810030002146959,2,-14,0.32,0.0,,,,,,,,,,,,,,,,,,,,,,,,,,,,,,,,,,,,,,,,,,,,,,,,,,,,,,,,LVTRZP,train_x,blue_star,bottom_right,2025-04-23_12h16.57.680,HideSeek_v1,2022.2.5,59.917912532312016,
,5,2,5,2,0,0,61,,train_dim1_1,5,30,,,,2,0,2,0,,,,,,,,,0,0,0,0,0,4,4,4,0,0,0,0,,,,,,,,,,,,,,,,,,,,,,,,,stimuli/alien_stimuli/61.png,,,,,,,,,,,,,,,,,,,,,,,,,,,,,stimuli/alien_stimuli/51.png,51,7,6,,,,,,,30,,,,,,,,957.4875660003163,957.4875660003163,957.4875660003163,957.4875660003163,957.4875660003163,left,1.3871010998263955,1,0,0,99,0.15999999999999998,-0.24,left,1.299522700253874,,,,,955.9259335999377,957.4875660003163,0.32,-0.16,0.0,0.08,-0.16,0.32,0.36,0.32,-0.16,951.305959300138,951.305959300138,951.305959300138,951.305959300138,951.305959300138,951.305959300138,951.305959300138,951.305959300138,951.2894924899563,4.739370800089091,return,4.600891100242734,,,,,,,,,,,,,,,,,,,,,,,,,,,,,,,,,LVTRZP,train_x,blue_star,bottom_right,2025-04-23_12h16.57.680,HideSeek_v1,2022.2.5,59.917912532312016,
,5,2,5,2,0,0,61,,train_dim1_1,5,30,,,,2,0,2,0,,,,,,,,,0,0,0,0,0,4,4,4,1,0,1,0,,,,,,,,,,,,,,,,,,,,,,,,,,,,,,,,,,,,,,,,,,,,,,,,,,,,,,,,,,,,,,,,30,,,,,,,,958.8762709000148,958.8762709000148,958.8762709000148,958.8762709000148,958.8762709000148,return,1.5940282000228763,1,1,0,0,0.15999999999999998,-0.24,return,1.5203009000979364,2,-15,0.15999999999999998,-0.24,,,,,,,,,,,,,,,,,,,,,,,,,,,,,,,,,,,,,,,,,,,,,,,,,,,,,,,,LVTRZP,train_x,blue_star,bottom_right,2025-04-23_12h16.57.680,HideSeek_v1,2022.2.5,59.917912532312016,
,5,0,1,0,-4,0,21,,train_dim1_1,6,30,,,,2,0,2,0,,,,,,,,,0,0,0,0,0,5,5,5,0,0,0,0,,,,,,,,,,,,,,,,,,,,,,,,,stimuli/alien_stimuli/21.png,,,,,,,,,,,,,,,,,,,,,,,,,,,,,stimuli/alien_stimuli/61.png,61,5,7,,,,,,,30,,,,,,,,972.6431840001605,972.6431840001605,972.6431840001605,972.6431840001605,972.6431840001605,left,2.9558466002345085,1,1,0,99,0.15999999999999998,-0.4,left,2.866952800191939,,,,,971.0719309002161,972.6431840001605,0.24,-0.24,0.0,0.0,-0.24,0.24,0.24,0.24,-0.24,962.0564454002306,962.0564454002306,962.0564454002306,962.0564454002306,962.0564454002306,962.0564454002306,962.0564454002306,962.0564454002306,962.0483722601085,9.143023199867457,return,8.994425000157207,,,,,,,,,,,,,,,,,,,,,,,,,,,,,,,,,LVTRZP,train_x,blue_star,bottom_right,2025-04-23_12h16.57.680,HideSeek_v1,2022.2.5,59.917912532312016,
,5,0,1,0,-4,0,21,,train_dim1_1,6,30,,,,2,0,2,0,,,,,,,,,0,0,0,0,0,5,5,5,1,0,1,0,,,,,,,,,,,,,,,,,,,,,,,,,,,,,,,,,,,,,,,,,,,,,,,,,,,,,,,,,,,,,,,,30,,,,,,,,975.5951288002543,975.5951288002543,975.5951288002543,975.5951288002543,975.5951288002543,left,0.45929190004244447,1,1,0,99,0.07999999999999997,-0.4,left,0.3732961001805961,,,,,,,,,,,,,,,,,,,,,,,,,,,,,,,,,,,,,,,,,,,,,,,,,,,,,,,,,,,,LVTRZP,train_x,blue_star,bottom_right,2025-04-23_12h16.57.680,HideSeek_v1,2022.2.5,59.917912532312016,
,5,0,1,0,-4,0,21,,train_dim1_1,6,30,,,,2,0,2,0,,,,,,,,,0,0,0,0,0,5,5,5,2,0,2,0,,,,,,,,,,,,,,,,,,,,,,,,,,,,,,,,,,,,,,,,,,,,,,,,,,,,,,,,,,,,,,,,30,,,,,,,,976.0610845000483,976.0610845000483,976.0610845000483,976.0610845000483,976.0610845000483,left,0.3928409996442497,1,1,0,99,-2.7755575615628914e-17,-0.4,left,0.316213000100106,,,,,,,,,,,,,,,,,,,,,,,,,,,,,,,,,,,,,,,,,,,,,,,,,,,,,,,,,,,,LVTRZP,train_x,blue_star,bottom_right,2025-04-23_12h16.57.680,HideSeek_v1,2022.2.5,59.917912532312016,
,5,0,1,0,-4,0,21,,train_dim1_1,6,30,,,,2,0,2,0,,,,,,,,,0,0,0,0,0,5,5,5,3,0,3,0,,,,,,,,,,,,,,,,,,,,,,,,,,,,,,,,,,,,,,,,,,,,,,,,,,,,,,,,,,,,,,,,30,,,,,,,,976.4617824000306,976.4617824000306,976.4617824000306,976.4617824000306,976.4617824000306,left,1.0273314998485148,1,1,0,99,-0.08000000000000003,-0.4,left,0.9363512001000345,,,,,,,,,,,,,,,,,,,,,,,,,,,,,,,,,,,,,,,,,,,,,,,,,,,,,,,,,,,,LVTRZP,train_x,blue_star,bottom_right,2025-04-23_12h16.57.680,HideSeek_v1,2022.2.5,59.917912532312016,
,5,0,1,0,-4,0,21,,train_dim1_1,6,30,,,,2,0,2,0,,,,,,,,,0,0,0,0,0,5,5,5,4,0,4,0,,,,,,,,,,,,,,,,,,,,,,,,,,,,,,,,,,,,,,,,,,,,,,,,,,,,,,,,,,,,,,,,30,,,,,,,,977.4950634003617,977.4950634003617,977.4950634003617,977.4950634003617,977.4950634003617,return,0.8937523001804948,2,0,0,1,-0.08000000000000003,-0.4,return,0.8098603999242187,2,-19,-0.08000000000000003,-0.4,,,,,,,,,,,,,,,,,,,,,,,,,,,,,,,,,,,,,,,,,,,,,,,,,,,,,,,,LVTRZP,train_x,blue_star,bottom_right,2025-04-23_12h16.57.680,HideSeek_v1,2022.2.5,59.917912532312016,
,8,0,8,0,0,0,61,,train_dim1_1,7,30,,,,2,0,2,0,,,,,,,,,0,0,0,0,0,6,6,6,0,0,0,0,,,,,,,,,,,,,,,,,,,,,,,,,stimuli/alien_stimuli/61.png,,,,,,,,,,,,,,,,,,,,,,,,,,,,,stimuli/alien_stimuli/21.png,21,5,8,,,,,,,30,,,,,,,,985.1578469001688,985.1578469001688,985.1578469001688,985.1578469001688,985.1578469001688,left,2.423604100011289,2,0,0,99,0.39999999999999997,-0.4,left,2.3423648001626134,,,,,983.599113299977,985.1578469001688,-0.08,-0.4,0.0,0.32,-0.4,-0.08,0.07999999999999999,-0.08,-0.4,979.9782867999747,979.9782867999747,979.9782867999747,979.9782867999747,979.9782867999747,979.9782867999747,979.9782867999747,979.9782867999747,979.9634523599408,3.7552551003172994,return,3.596365500241518,,,,,,,,,,,,,,,,,,,,,,,,,,,,,,,,,LVTRZP,train_x,blue_star,bottom_right,2025-04-23_12h16.57.680,HideSeek_v1,2022.2.5,59.917912532312016,
,8,0,8,0,0,0,61,,train_dim1_1,7,30,,,,2,0,2,0,,,,,,,,,0,0,0,0,0,6,6,6,1,0,1,0,,,,,,,,,,,,,,,,,,,,,,,,,,,,,,,,,,,,,,,,,,,,,,,,,,,,,,,,,,,,,,,,30,,,,,,,,987.5821726000868,987.5821726000868,987.5821726000868,987.5821726000868,987.5821726000868,return,0.8600665996782482,2,1,0,0,0.39999999999999997,-0.4,return,0.7756276000291109,2,-20,0.39999999999999997,-0.4,,,,,,,,,,,,,,,,,,,,,,,,,,,,,,,,,,,,,,,,,,,,,,,,,,,,,,,,LVTRZP,train_x,blue_star,bottom_right,2025-04-23_12h16.57.680,HideSeek_v1,2022.2.5,59.917912532312016,
,5,4,2,4,-3,0,31,,train_dim1_1,8,30,,,,2,0,2,0,,,,,,,,,0,0,0,0,0,7,7,7,0,0,0,0,,,,,,,,,,,,,,,,,,,,,,,,,stimuli/alien_stimuli/31.png,,,,,,,,,,,,,,,,,,,,,,,,,,,,,stimuli/alien_stimuli/61.png,61,8,9,,,,,,,30,,,,,,,,997.2058541001752,997.2058541001752,997.2058541001752,997.2058541001752,997.2058541001752,left,2.2221836000680923,2,1,0,99,0.15999999999999998,-0.08,left,2.134997900109738,,,,,995.6423770003021,997.2058541001752,0.48,-0.4,0.0,0.0,-0.4,0.48,0.48,0.48,-0.4,990.0316510000266,990.0316510000266,990.0316510000266,990.0316510000266,990.0316510000266,990.0316510000266,990.0316510000266,990.0316510000266,990.021783860214,5.739981199614704,return,5.583017099648714,,,,,,,,,,,,,,,,,,,,,,,,,,,,,,,,,LVTRZP,train_x,blue_star,bottom_right,2025-04-23_12h16.57.680,HideSeek_v1,2022.2.5,59.917912532312016,
,5,4,2,4,-3,0,31,,train_dim1_1,8,30,,,,2,0,2,0,,,,,,,,,0,0,0,0,0,7,7,7,1,0,1,0,,,,,,,,,,,,,,,,,,,,,,,,,,,,,,,,,,,,,,,,,,,,,,,,,,,,,,,,,,,,,,,,30,,,,,,,,999.4305668002926,999.4305668002926,999.4305668002926,999.4305668002926,999.4305668002926,left,0.6267726002261043,2,1,0,99,0.07999999999999997,-0.08,left,0.5446081003174186,,,,,,,,,,,,,,,,,,,,,,,,,,,,,,,,,,,,,,,,,,,,,,,,,,,,,,,,,,,,LVTRZP,train_x,blue_star,bottom_right,2025-04-23_12h16.57.680,HideSeek_v1,2022.2.5,59.917912532312016,
,5,4,2,4,-3,0,31,,train_dim1_1,8,30,,,,2,0,2,0,,,,,,,,,0,0,0,0,0,7,7,7,2,0,2,0,,,,,,,,,,,,,,,,,,,,,,,,,,,,,,,,,,,,,,,,,,,,,,,,,,,,,,,,,,,,,,,,30,,,,,,,,1000.0592894000001,1000.0592894000001,1000.0592894000001,1000.0592894000001,1000.0592894000001,return,1.0441975998692214,2,1,0,0,0.07999999999999997,-0.08,return,0.966989400330931,2,-22,0.07999999999999997,-0.08,,,,,,,,,,,,,,,,,,,,,,,,,,,,,,,,,,,,,,,,,,,,,,,,,,,,,,,,LVTRZP,train_x,blue_star,bottom_right,2025-04-23_12h16.57.680,HideSeek_v1,2022.2.5,59.917912532312016,
,6,0,5,0,-1,0,51,,train_dim1_1,9,30,,,,2,0,2,0,,,,,,,,,0,0,0,0,0,8,8,8,0,0,0,0,,,,,,,,,,,,,,,,,,,,,,,,,stimuli/alien_stimuli/51.png,,,,,,,,,,,,,,,,,,,,,,,,,,,,,stimuli/alien_stimuli/31.png,31,5,10,,,,,,,30,,,,,,,,1006.6104741003364,1006.6104741003364,1006.6104741003364,1006.6104741003364,1006.6104741003364,left,4.208503200206906,2,1,0,99,0.24,-0.4,left,4.105609400197864,,,,,1005.0335816000588,1006.6104741003364,0,-0.08,0.0,0.24,-0.08,0,0.12,0,-0.08,1002.685760400258,1002.685760400258,1002.685760400258,1002.685760400258,1002.685760400258,1002.685760400258,1002.685760400258,1002.685760400258,1002.6653710903599,2.471052599605173,return,2.325457700062543,,,,,,,,,,,,,,,,,,,,,,,,,,,,,,,,,LVTRZP,train_x,blue_star,bottom_right,2025-04-23_12h16.57.680,HideSeek_v1,2022.2.5,59.917912532312016,
,6,0,5,0,-1,0,51,,train_dim1_1,9,30,,,,2,0,2,0,,,,,,,,,0,0,0,0,0,8,8,8,1,0,1,0,,,,,,,,,,,,,,,,,,,,,,,,,,,,,,,,,,,,,,,,,,,,,,,,,,,,,,,,,,,,,,,,30,,,,,,,,1010.8066086000763,1010.8066086000763,1010.8066086000763,1010.8066086000763,1010.8066086000763,left,0.7097958000376821,2,1,0,99,0.15999999999999998,-0.4,left,0.6320746000856161,,,,,,,,,,,,,,,,,,,,,,,,,,,,,,,,,,,,,,,,,,,,,,,,,,,,,,,,,,,,LVTRZP,train_x,blue_star,bottom_right,2025-04-23_12h16.57.680,HideSeek_v1,2022.2.5,59.917912532312016,
,6,0,5,0,-1,0,51,,train_dim1_1,9,30,,,,2,0,2,0,,,,,,,,,0,0,0,0,0,8,8,8,2,0,2,0,,,,,,,,,,,,,,,,,,,,,,,,,,,,,,,,,,,,,,,,,,,,,,,,,,,,,,,,,,,,,,,,30,,,,,,,,1011.521332600154,1011.521332600154,1011.521332600154,1011.521332600154,1011.521332600154,right,1.7445665998384356,2,1,0,99,0.24,-0.4,right,1.654951199889183,,,,,,,,,,,,,,,,,,,,,,,,,,,,,,,,,,,,,,,,,,,,,,,,,,,,,,,,,,,,LVTRZP,train_x,blue_star,bottom_right,2025-04-23_12h16.57.680,HideSeek_v1,2022.2.5,59.917912532312016,
,6,0,5,0,-1,0,51,,train_dim1_1,9,30,,,,2,0,2,0,,,,,,,,,0,0,0,0,0,8,8,8,3,0,3,0,,,,,,,,,,,,,,,,,,,,,,,,,,,,,,,,,,,,,,,,,,,,,,,,,,,,,,,,,,,,,,,,30,,,,,,,,1013.276620300021,1013.276620300021,1013.276620300021,1013.276620300021,1013.276620300021,right,0.36006469978019595,2,1,0,99,0.32,-0.4,right,0.27421929966658354,,,,,,,,,,,,,,,,,,,,,,,,,,,,,,,,,,,,,,,,,,,,,,,,,,,,,,,,,,,,LVTRZP,train_x,blue_star,bottom_right,2025-04-23_12h16.57.680,HideSeek_v1,2022.2.5,59.917912532312016,
,6,0,5,0,-1,0,51,,train_dim1_1,9,30,,,,2,0,2,0,,,,,,,,,0,0,0,0,0,8,8,8,4,0,4,0,,,,,,,,,,,,,,,,,,,,,,,,,,,,,,,,,,,,,,,,,,,,,,,,,,,,,,,,,,,,,,,,30,,,,,,,,1013.6407158002257,1013.6407158002257,1013.6407158002257,1013.6407158002257,1013.6407158002257,up,0.8933371999301016,2,1,0,99,0.32,-0.32,up,0.8107529003173113,,,,,,,,,,,,,,,,,,,,,,,,,,,,,,,,,,,,,,,,,,,,,,,,,,,,,,,,,,,,LVTRZP,train_x,blue_star,bottom_right,2025-04-23_12h16.57.680,HideSeek_v1,2022.2.5,59.917912532312016,
,6,0,5,0,-1,0,51,,train_dim1_1,9,30,,,,2,0,2,0,,,,,,,,,0,0,0,0,0,8,8,8,5,0,5,0,,,,,,,,,,,,,,,,,,,,,,,,,,,,,,,,,,,,,,,,,,,,,,,,,,,,,,,,,,,,,,,,30,,,,,,,,1014.539568300359,1014.539568300359,1014.539568300359,1014.539568300359,1014.539568300359,up,0.3769999002106488,2,1,0,99,0.32,-0.24,up,0.2951142000965774,,,,,,,,,,,,,,,,,,,,,,,,,,,,,,,,,,,,,,,,,,,,,,,,,,,,,,,,,,,,LVTRZP,train_x,blue_star,bottom_right,2025-04-23_12h16.57.680,HideSeek_v1,2022.2.5,59.917912532312016,
,6,0,5,0,-1,0,51,,train_dim1_1,9,30,,,,2,0,2,0,,,,,,,,,0,0,0,0,0,8,8,8,6,0,6,0,,,,,,,,,,,,,,,,,,,,,,,,,,,,,,,,,,,,,,,,,,,,,,,,,,,,,,,,,,,,,,,,30,,,,,,,,1014.9243119000457,1014.9243119000457,1014.9243119000457,1014.9243119000457,1014.9243119000457,up,0.30995899997651577,2,1,0,99,0.32,-0.15999999999999998,up,0.22879699990153313,,,,,,,,,,,,,,,,,,,,,,,,,,,,,,,,,,,,,,,,,,,,,,,,,,,,,,,,,,,,LVTRZP,train_x,blue_star,bottom_right,2025-04-23_12h16.57.680,HideSeek_v1,2022.2.5,59.917912532312016,
,6,0,5,0,-1,0,51,,train_dim1_1,9,30,,,,2,0,2,0,,,,,,,,,0,0,0,0,0,8,8,8,7,0,7,0,,,,,,,,,,,,,,,,,,,,,,,,,,,,,,,,,,,,,,,,,,,,,,,,,,,,,,,,,,,,,,,,30,,,,,,,,1015.2411557002924,1015.2411557002924,1015.2411557002924,1015.2411557002924,1015.2411557002924,return,0.6932936999946833,2,0,0,0,0.32,-0.15999999999999998,return,0.6121821999549866,5,-22,0.32,-0.15999999999999998,,,,,,,,,,,,,,,,,,,,,,,,,,,,,,,,,,,,,,,,,,,,,,,,,,,,,,,,LVTRZP,train_x,blue_star,bottom_right,2025-04-23_12h16.57.680,HideSeek_v1,2022.2.5,59.917912532312016,
,5,3,0,3,-5,0,11,,train_dim1_1,10,30,,,,2,0,2,0,,,,,,,,,0,0,0,0,0,9,9,9,0,0,0,0,,,,,,,,,,,,,,,,,,,,,,,,,stimuli/alien_stimuli/11.png,,,,,,,,,,,,,,,,,,,,,,,,,,,,,stimuli/alien_stimuli/51.png,51,6,11,,,,,,,30,,,,,,,,1022.7426331001334,1022.7426331001334,1022.7426331001334,1022.7426331001334,1022.7426331001334,left,2.240195599850267,2,0,0,99,0.15999999999999998,-0.16,left,2.1541448002681136,,,,,1021.1804870003834,1022.7426331001334,0.24,-0.4,0.0,0.08,-0.4,0.24,0.28,0.24,-0.4,1017.5060853003524,1017.5060853003524,1017.5060853003524,1017.5060853003524,1017.5060853003524,1017.5060853003524,1017.5060853003524,1017.5060853003524,1017.4943037901073,3.7890579998493195,return,3.6512933000922203,,,,,,,,,,,,,,,,,,,,,,,,,,,,,,,,,LVTRZP,train_x,blue_star,bottom_right,2025-04-23_12h16.57.680,HideSeek_v1,2022.2.5,59.917912532312016,
,5,3,0,3,-5,0,11,,train_dim1_1,10,30,,,,2,0,2,0,,,,,,,,,0,0,0,0,0,9,9,9,1,0,1,0,,,,,,,,,,,,,,,,,,,,,,,,,,,,,,,,,,,,,,,,,,,,,,,,,,,,,,,,,,,,,,,,30,,,,,,,,1024.9848426999524,1024.9848426999524,1024.9848426999524,1024.9848426999524,1024.9848426999524,left,0.4596053999848664,2,0,0,99,0.07999999999999997,-0.16,left,0.3688019998371601,,,,,,,,,,,,,,,,,,,,,,,,,,,,,,,,,,,,,,,,,,,,,,,,,,,,,,,,,,,,LVTRZP,train_x,blue_star,bottom_right,2025-04-23_12h16.57.680,HideSeek_v1,2022.2.5,59.917912532312016,
,5,3,0,3,-5,0,11,,train_dim1_1,10,30,,,,2,0,2,0,,,,,,,,,0,0,0,0,0,9,9,9,2,0,2,0,,,,,,,,,,,,,,,,,,,,,,,,,,,,,,,,,,,,,,,,,,,,,,,,,,,,,,,,,,,,,,,,30,,,,,,,,1025.4534344002604,1025.4534344002604,1025.4534344002604,1025.4534344002604,1025.4534344002604,left,0.42386920005083084,2,0,0,99,-2.7755575615628914e-17,-0.16,left,0.33269920013844967,,,,,,,,,,,,,,,,,,,,,,,,,,,,,,,,,,,,,,,,,,,,,,,,,,,,,,,,,,,,LVTRZP,train_x,blue_star,bottom_right,2025-04-23_12h16.57.680,HideSeek_v1,2022.2.5,59.917912532312016,
,5,3,0,3,-5,0,11,,train_dim1_1,10,30,,,,2,0,2,0,,,,,,,,,0,0,0,0,0,9,9,9,3,0,3,0,,,,,,,,,,,,,,,,,,,,,,,,,,,,,,,,,,,,,,,,,,,,,,,,,,,,,,,,,,,,,,,,30,,,,,,,,1025.8850622000173,1025.8850622000173,1025.8850622000173,1025.8850622000173,1025.8850622000173,return,1.3111288999207318,2,0,0,0,-2.7755575615628914e-17,-0.16,return,1.2240900001488626,5,-25,-2.7755575615628914e-17,-0.16,,,,,,,,,,,,,,,,,,,,,,,,,,,,,,,,,,,,,,,,,,,,,,,,,,,,,,,,LVTRZP,train_x,blue_star,bottom_right,2025-04-23_12h16.57.680,HideSeek_v1,2022.2.5,59.917912532312016,
,7,2,4,2,-3,0,31,,train_dim1_1,11,30,,,,2,0,2,0,,,,,,,,,0,0,0,0,0,10,10,10,0,0,0,0,,,,,,,,,,,,,,,,,,,,,,,,,stimuli/alien_stimuli/31.png,,,,,,,,,,,,,,,,,,,,,,,,,,,,,stimuli/alien_stimuli/11.png,11,5,12,,,,,,,30,,,,,,,,1032.7483457000926,1032.7483457000926,1032.7483457000926,1032.7483457000926,1032.7483457000926,left,1.5728158000856638,2,0,0,99,0.32,-0.24,left,1.47694669989869,,,,,1031.171920100227,1032.7483457000926,-0.16,-0.16,0.0,0.4,-0.16,-0.16,0.039999999999999994,-0.16,-0.16,1028.7828060002066,1028.7828060002066,1028.7828060002066,1028.7828060002066,1028.7828060002066,1028.7828060002066,1028.7828060002066,1028.7828060002066,1028.7705030602403,2.5211426997557282,return,2.363940800074488,,,,,,,,,,,,,,,,,,,,,,,,,,,,,,,,,LVTRZP,train_x,blue_star,bottom_right,2025-04-23_12h16.57.680,HideSeek_v1,2022.2.5,59.917912532312016,
,7,2,4,2,-3,0,31,,train_dim1_1,11,30,,,,2,0,2,0,,,,,,,,,0,0,0,0,0,10,10,10,1,0,1,0,,,,,,,,,,,,,,,,,,,,,,,,,,,,,,,,,,,,,,,,,,,,,,,,,,,,,,,,,,,,,,,,30,,,,,,,,1034.3065377003513,1034.3065377003513,1034.3065377003513,1034.3065377003513,1034.3065377003513,left,0.4755930001847446,2,0,0,99,0.24,-0.24,left,0.3946159998886287,,,,,,,,,,,,,,,,,,,,,,,,,,,,,,,,,,,,,,,,,,,,,,,,,,,,,,,,,,,,LVTRZP,train_x,blue_star,bottom_right,2025-04-23_12h16.57.680,HideSeek_v1,2022.2.5,59.917912532312016,
,7,2,4,2,-3,0,31,,train_dim1_1,11,30,,,,2,0,2,0,,,,,,,,,0,0,0,0,0,10,10,10,2,0,2,0,,,,,,,,,,,,,,,,,,,,,,,,,,,,,,,,,,,,,,,,,,,,,,,,,,,,,,,,,,,,,,,,30,,,,,,,,1034.7881796001457,1034.7881796001457,1034.7881796001457,1034.7881796001457,1034.7881796001457,left,0.4102001003921032,2,0,0,99,0.15999999999999998,-0.24,left,0.33671889966353774,,,,,,,,,,,,,,,,,,,,,,,,,,,,,,,,,,,,,,,,,,,,,,,,,,,,,,,,,,,,LVTRZP,train_x,blue_star,bottom_right,2025-04-23_12h16.57.680,HideSeek_v1,2022.2.5,59.917912532312016,
,7,2,4,2,-3,0,31,,train_dim1_1,11,30,,,,2,0,2,0,,,,,,,,,0,0,0,0,0,10,10,10,3,0,3,0,,,,,,,,,,,,,,,,,,,,,,,,,,,,,,,,,,,,,,,,,,,,,,,,,,,,,,,,,,,,,,,,30,,,,,,,,1035.20512660034,1035.20512660034,1035.20512660034,1035.20512660034,1035.20512660034,return,0.9439159999601543,3,0,0,1,0.15999999999999998,-0.24,return,0.868782399687916,5,-28,0.15999999999999998,-0.24,,,,,,,,,,,,,,,,,,,,,,,,,,,,,,,,,,,,,,,,,,,,,,,,,,,,,,,,LVTRZP,train_x,blue_star,bottom_right,2025-04-23_12h16.57.680,HideSeek_v1,2022.2.5,59.917912532312016,
,5,0,1,0,-4,0,21,,train_dim1_1,12,30,,,,2,0,2,0,,,,,,,,,0,0,0,0,0,11,11,11,0,0,0,0,,,,,,,,,,,,,,,,,,,,,,,,,stimuli/alien_stimuli/21.png,,,,,,,,,,,,,,,,,,,,,,,,,,,,,stimuli/alien_stimuli/31.png,31,7,13,,,,,,,30,,,,,,,,1041.6777803003788,1041.6777803003788,1041.6777803003788,1041.6777803003788,1041.6777803003788,left,2.022272299975157,3,0,0,99,0.15999999999999998,-0.4,left,1.9093633000738919,,,,,1040.0960034001619,1041.6777803003788,0.16,-0.24,0.0,0.24,-0.24,0.16,0.28,0.16,-0.24,1037.7177789001726,1037.7177789001726,1037.7177789001726,1037.7177789001726,1037.7177789001726,1037.7177789001726,1037.7177789001726,1037.7177789001726,1037.7115437902512,2.4869845998473465,return,2.3538806000724435,,,,,,,,,,,,,,,,,,,,,,,,,,,,,,,,,LVTRZP,train_x,blue_star,bottom_right,2025-04-23_12h16.57.680,HideSeek_v1,2022.2.5,59.917912532312016,
,5,0,1,0,-4,0,21,,train_dim1_1,12,30,,,,2,0,2,0,,,,,,,,,0,0,0,0,0,11,11,11,1,0,1,0,,,,,,,,,,,,,,,,,,,,,,,,,,,,,,,,,,,,,,,,,,,,,,,,,,,,,,,,,,,,,,,,30,,,,,,,,1043.6830444000661,1043.6830444000661,1043.6830444000661,1043.6830444000661,1043.6830444000661,left,0.7434829999692738,3,0,0,99,0.07999999999999997,-0.4,left,0.6513406001031399,,,,,,,,,,,,,,,,,,,,,,,,,,,,,,,,,,,,,,,,,,,,,,,,,,,,,,,,,,,,LVTRZP,train_x,blue_star,bottom_right,2025-04-23_12h16.57.680,HideSeek_v1,2022.2.5,59.917912532312016,
,5,0,1,0,-4,0,21,,train_dim1_1,12,30,,,,2,0,2,0,,,,,,,,,0,0,0,0,0,11,11,11,2,0,2,0,,,,,,,,,,,,,,,,,,,,,,,,,,,,,,,,,,,,,,,,,,,,,,,,,,,,,,,,,,,,,,,,30,,,,,,,,1044.433468699921,1044.433468699921,1044.433468699921,1044.433468699921,1044.433468699921,left,1.9112041001208127,3,0,0,99,-2.7755575615628914e-17,-0.4,left,1.833001600112766,,,,,,,,,,,,,,,,,,,,,,,,,,,,,,,,,,,,,,,,,,,,,,,,,,,,,,,,,,,,LVTRZP,train_x,blue_star,bottom_right,2025-04-23_12h16.57.680,HideSeek_v1,2022.2.5,59.917912532312016,
,5,0,1,0,-4,0,21,,train_dim1_1,12,30,,,,2,0,2,0,,,,,,,,,0,0,0,0,0,11,11,11,3,0,3,0,,,,,,,,,,,,,,,,,,,,,,,,,,,,,,,,,,,,,,,,,,,,,,,,,,,,,,,,,,,,,,,,30,,,,,,,,1046.3532455000095,1046.3532455000095,1046.3532455000095,1046.3532455000095,1046.3532455000095,right,0.7600850998423994,3,0,0,99,0.07999999999999997,-0.4,right,0.6698180995881557,,,,,,,,,,,,,,,,,,,,,,,,,,,,,,,,,,,,,,,,,,,,,,,,,,,,,,,,,,,,LVTRZP,train_x,blue_star,bottom_right,2025-04-23_12h16.57.680,HideSeek_v1,2022.2.5,59.917912532312016,
,5,0,1,0,-4,0,21,,train_dim1_1,12,30,,,,2,0,2,0,,,,,,,,,0,0,0,0,0,11,11,11,4,0,4,0,,,,,,,,,,,,,,,,,,,,,,,,,,,,,,,,,,,,,,,,,,,,,,,,,,,,,,,,,,,,,,,,30,,,,,,,,1047.1254356000572,1047.1254356000572,1047.1254356000572,1047.1254356000572,1047.1254356000572,return,0.4935088003985584,3,0,0,0,0.07999999999999997,-0.4,return,0.4077564999461174,5,-30,0.07999999999999997,-0.4,,,,,,,,,,,,,,,,,,,,,,,,,,,,,,,,,,,,,,,,,,,,,,,,,,,,,,,,LVTRZP,train_x,blue_star,bottom_right,2025-04-23_12h16.57.680,HideSeek_v1,2022.2.5,59.917912532312016,
,5,4,4,4,-1,0,51,,train_dim1_1,13,30,,,,2,0,2,0,,,,,,,,,0,0,0,0,0,12,12,12,0,0,0,0,,,,,,,,,,,,,,,,,,,,,,,,,stimuli/alien_stimuli/51.png,,,,,,,,,,,,,,,,,,,,,,,,,,,,,stimuli/alien_stimuli/21.png,21,5,14,,,,,,,30,,,,,,,,1052.5416918001138,1052.5416918001138,1052.5416918001138,1052.5416918001138,1052.5416918001138,left,2.6909012999385595,3,0,0,99,0.15999999999999998,-0.08,left,2.592783299740404,,,,,1050.9714762000367,1052.5416918001138,-0.08,-0.4,0.0,0.32,-0.4,-0.08,0.07999999999999999,-0.08,-0.4,1049.19618620025,1049.19618620025,1049.19618620025,1049.19618620025,1049.19618620025,1049.19618620025,1049.19618620025,1049.19618620025,1049.1874945599586,1.9036118001677096,return,1.7584945997223258,,,,,,,,,,,,,,,,,,,,,,,,,,,,,,,,,LVTRZP,train_x,blue_star,bottom_right,2025-04-23_12h16.57.680,HideSeek_v1,2022.2.5,59.917912532312016,
,5,4,4,4,-1,0,51,,train_dim1_1,13,30,,,,2,0,2,0,,,,,,,,,0,0,0,0,0,12,12,12,1,0,1,0,,,,,,,,,,,,,,,,,,,,,,,,,,,,,,,,,,,,,,,,,,,,,,,,,,,,,,,,,,,,,,,,30,,,,,,,,1055.2287582000718,1055.2287582000718,1055.2287582000718,1055.2287582000718,1055.2287582000718,right,0.993561599869281,3,0,0,99,0.24,-0.08,right,0.9053217000328004,,,,,,,,,,,,,,,,,,,,,,,,,,,,,,,,,,,,,,,,,,,,,,,,,,,,,,,,,,,,LVTRZP,train_x,blue_star,bottom_right,2025-04-23_12h16.57.680,HideSeek_v1,2022.2.5,59.917912532312016,
,5,4,4,4,-1,0,51,,train_dim1_1,13,30,,,,2,0,2,0,,,,,,,,,0,0,0,0,0,12,12,12,2,0,2,0,,,,,,,,,,,,,,,,,,,,,,,,,,,,,,,,,,,,,,,,,,,,,,,,,,,,,,,,,,,,,,,,30,,,,,,,,1056.2251376002096,1056.2251376002096,1056.2251376002096,1056.2251376002096,1056.2251376002096,return,0.4766088002361357,3,1,0,0,0.24,-0.08,return,0.38640980003401637,5,-30,0.24,-0.08,,,,,,,,,,,,,,,,,,,,,,,,,,,,,,,,,,,,,,,,,,,,,,,,,,,,,,,,LVTRZP,train_x,blue_star,bottom_right,2025-04-23_12h16.57.680,HideSeek_v1,2022.2.5,59.917912532312016,
,9,3,4,3,-5,0,11,,train_dim1_1,14,30,,,,2,0,2,0,,,,,,,,,0,0,0,0,0,13,13,13,0,0,0,0,,,,,,,,,,,,,,,,,,,,,,,,,stimuli/alien_stimuli/11.png,,,,,,,,,,,,,,,,,,,,,,,,,,,,,stimuli/alien_stimuli/51.png,51,5,15,,,,,,,30,,,,,,,,1062.3328766999766,1062.3328766999766,1062.3328766999766,1062.3328766999766,1062.3328766999766,left,2.8218089998699725,3,1,0,99,0.48000000000000004,-0.16,left,2.708667299710214,,,,,1060.7465126002207,1062.3328766999766,0.16,-0.08,0.0,0.08,-0.08,0.16,0.2,0.16,-0.08,1058.2709458000027,1058.2709458000027,1058.2709458000027,1058.2709458000027,1058.2709458000027,1058.2709458000027,1058.2709458000027,1058.2709458000027,1058.261767890025,2.58736540004611,return,2.4511849000118673,,,,,,,,,,,,,,,,,,,,,,,,,,,,,,,,,LVTRZP,train_x,blue_star,bottom_right,2025-04-23_12h16.57.680,HideSeek_v1,2022.2.5,59.917912532312016,
,9,3,4,3,-5,0,11,,train_dim1_1,14,30,,,,2,0,2,0,,,,,,,,,0,0,0,0,0,13,13,13,1,0,1,0,,,,,,,,,,,,,,,,,,,,,,,,,,,,,,,,,,,,,,,,,,,,,,,,,,,,,,,,,,,,,,,,30,,,,,,,,1065.1342742000706,1065.1342742000706,1065.1342742000706,1065.1342742000706,1065.1342742000706,left,0.47657900024205446,3,1,0,99,0.4,-0.16,left,0.399008700158447,,,,,,,,,,,,,,,,,,,,,,,,,,,,,,,,,,,,,,,,,,,,,,,,,,,,,,,,,,,,LVTRZP,train_x,blue_star,bottom_right,2025-04-23_12h16.57.680,HideSeek_v1,2022.2.5,59.917912532312016,
,9,3,4,3,-5,0,11,,train_dim1_1,14,30,,,,2,0,2,0,,,,,,,,,0,0,0,0,0,13,13,13,2,0,2,0,,,,,,,,,,,,,,,,,,,,,,,,,,,,,,,,,,,,,,,,,,,,,,,,,,,,,,,,,,,,,,,,30,,,,,,,,1065.6179615999572,1065.6179615999572,1065.6179615999572,1065.6179615999572,1065.6179615999572,left,0.426704800222069,3,1,0,99,0.32,-0.16,left,0.3456504000350833,,,,,,,,,,,,,,,,,,,,,,,,,,,,,,,,,,,,,,,,,,,,,,,,,,,,,,,,,,,,LVTRZP,train_x,blue_star,bottom_right,2025-04-23_12h16.57.680,HideSeek_v1,2022.2.5,59.917912532312016,
,9,3,4,3,-5,0,11,,train_dim1_1,14,30,,,,2,0,2,0,,,,,,,,,0,0,0,0,0,13,13,13,3,0,3,0,,,,,,,,,,,,,,,,,,,,,,,,,,,,,,,,,,,,,,,,,,,,,,,,,,,,,,,,,,,,,,,,30,,,,,,,,1066.0519571001641,1066.0519571001641,1066.0519571001641,1066.0519571001641,1066.0519571001641,left,0.7939162999391556,3,1,0,99,0.24,-0.16,left,0.7054187003523111,,,,,,,,,,,,,,,,,,,,,,,,,,,,,,,,,,,,,,,,,,,,,,,,,,,,,,,,,,,,LVTRZP,train_x,blue_star,bottom_right,2025-04-23_12h16.57.680,HideSeek_v1,2022.2.5,59.917912532312016,
,9,3,4,3,-5,0,11,,train_dim1_1,14,30,,,,2,0,2,0,,,,,,,,,0,0,0,0,0,13,13,13,4,0,4,0,,,,,,,,,,,,,,,,,,,,,,,,,,,,,,,,,,,,,,,,,,,,,,,,,,,,,,,,,,,,,,,,30,,,,,,,,1066.85265409993,1066.85265409993,1066.85265409993,1066.85265409993,1066.85265409993,return,0.8103519999422133,3,1,0,0,0.24,-0.16,return,0.7315388000570238,5,-34,0.24,-0.16,,,,,,,,,,,,,,,,,,,,,,,,,,,,,,,,,,,,,,,,,,,,,,,,,,,,,,,,LVTRZP,train_x,blue_star,bottom_right,2025-04-23_12h16.57.680,HideSeek_v1,2022.2.5,59.917912532312016,
,9,2,9,2,0,0,61,,train_dim1_1,15,30,,,,2,0,2,0,,,,,,,,,0,0,0,0,0,14,14,14,0,0,0,0,,,,,,,,,,,,,,,,,,,,,,,,,stimuli/alien_stimuli/61.png,,,,,,,,,,,,,,,,,,,,,,,,,,,,,stimuli/alien_stimuli/11.png,11,9,16,,,,,,,30,,,,,,,,1072.7147030001506,1072.7147030001506,1072.7147030001506,1072.7147030001506,1072.7147030001506,left,3.27149449987337,3,1,0,99,0.48000000000000004,-0.24,left,3.1754879001528025,,,,,1071.1385671999305,1072.7147030001506,0.16,-0.16,0.0,0.4,-0.16,0.16,0.36000000000000004,0.16,-0.16,1069.2415845999494,1069.2415845999494,1069.2415845999494,1069.2415845999494,1069.2415845999494,1069.2415845999494,1069.2415845999494,1069.2415845999494,1069.2207140901128,2.020293700043112,return,1.8686780002899468,,,,,,,,,,,,,,,,,,,,,,,,,,,,,,,,,LVTRZP,train_x,blue_star,bottom_right,2025-04-23_12h16.57.680,HideSeek_v1,2022.2.5,59.917912532312016,
,9,2,9,2,0,0,61,,train_dim1_1,15,30,,,,2,0,2,0,,,,,,,,,0,0,0,0,0,14,14,14,1,0,1,0,,,,,,,,,,,,,,,,,,,,,,,,,,,,,,,,,,,,,,,,,,,,,,,,,,,,,,,,,,,,,,,,30,,,,,,,,1075.9729090002365,1075.9729090002365,1075.9729090002365,1075.9729090002365,1075.9729090002365,right,0.5926369000226259,3,1,0,99,0.56,-0.24,right,0.5163739998824894,,,,,,,,,,,,,,,,,,,,,,,,,,,,,,,,,,,,,,,,,,,,,,,,,,,,,,,,,,,,LVTRZP,train_x,blue_star,bottom_right,2025-04-23_12h16.57.680,HideSeek_v1,2022.2.5,59.917912532312016,
,9,2,9,2,0,0,61,,train_dim1_1,15,30,,,,2,0,2,0,,,,,,,,,0,0,0,0,0,14,14,14,2,0,2,0,,,,,,,,,,,,,,,,,,,,,,,,,,,,,,,,,,,,,,,,,,,,,,,,,,,,,,,,,,,,,,,,30,,,,,,,,1076.5728430999443,1076.5728430999443,1076.5728430999443,1076.5728430999443,1076.5728430999443,return,1.0439755003899336,4,0,0,1,0.56,-0.24,return,0.9705884996801615,5,-34,0.56,-0.24,,,,,,,,,,,,,,,,,,,,,,,,,,,,,,,,,,,,,,,,,,,,,,,,,,,,,,,,LVTRZP,train_x,blue_star,bottom_right,2025-04-23_12h16.57.680,HideSeek_v1,2022.2.5,59.917912532312016,
,8,3,7,3,-1,0,51,,train_dim1_1,16,30,,,,2,0,2,0,,,,,,,,,0,0,0,0,0,15,15,15,0,0,0,0,,,,,,,,,,,,,,,,,,,,,,,,,stimuli/alien_stimuli/51.png,,,,,,,,,,,,,,,,,,,,,,,,,,,,,stimuli/alien_stimuli/61.png,61,9,17,,,,,,,30,,,,,,,,1084.4459959003143,1084.4459959003143,1084.4459959003143,1084.4459959003143,1084.4459959003143,left,1.5218625999987125,4,0,0,99,0.39999999999999997,-0.16,left,1.4226811002008617,,,,,1082.881468700245,1084.4459959003143,0.56,-0.24,0.0,0.0,-0.24,0.56,0.56,0.56,-0.24,1079.18207910005,1079.18207910005,1079.18207910005,1079.18207910005,1079.18207910005,1079.18207910005,1079.18207910005,1079.18207910005,1079.1622285201215,3.8053355999290943,return,3.6748607996851206,,,,,,,,,,,,,,,,,,,,,,,,,,,,,,,,,LVTRZP,train_x,blue_star,bottom_right,2025-04-23_12h16.57.680,HideSeek_v1,2022.2.5,59.917912532312016,
,8,3,7,3,-1,0,51,,train_dim1_1,16,30,,,,2,0,2,0,,,,,,,,,0,0,0,0,0,15,15,15,1,0,1,0,,,,,,,,,,,,,,,,,,,,,,,,,,,,,,,,,,,,,,,,,,,,,,,,,,,,,,,,,,,,,,,,30,,,,,,,,1085.9666635999456,1085.9666635999456,1085.9666635999456,1085.9666635999456,1085.9666635999456,return,0.8932329998351634,5,0,0,1,0.39999999999999997,-0.16,return,0.8059670003131032,5,-35,0.39999999999999997,-0.16,,,,,,,,,,,,,,,,,,,,,,,,,,,,,,,,,,,,,,,,,,,,,,,,,,,,,,,,LVTRZP,train_x,blue_star,bottom_right,2025-04-23_12h16.57.680,HideSeek_v1,2022.2.5,59.917912532312016,
,7,4,3,4,-4,0,21,,train_dim1_1,17,30,,,,2,0,2,0,,,,,,,,,0,0,0,0,0,16,16,16,0,0,0,0,,,,,,,,,,,,,,,,,,,,,,,,,stimuli/alien_stimuli/21.png,,,,,,,,,,,,,,,,,,,,,,,,,,,,,stimuli/alien_stimuli/51.png,51,8,18,,,,,,,30,,,,,,,,1093.7913379003294,1093.7913379003294,1093.7913379003294,1093.7913379003294,1093.7913379003294,left,1.0525193000212312,5,0,0,99,0.32,-0.08,left,0.9540118002332747,,,,,1092.2226014002226,1093.7913379003294,0.4,-0.16,0.0,0.08,-0.16,0.4,0.44,0.4,-0.16,1088.4288512002677,1088.4288512002677,1088.4288512002677,1088.4288512002677,1088.4288512002677,1088.4288512002677,1088.4288512002677,1088.4288512002677,1088.4200661901386,3.9051721999421716,return,3.7682632002979517,,,,,,,,,,,,,,,,,,,,,,,,,,,,,,,,,LVTRZP,train_x,blue_star,bottom_right,2025-04-23_12h16.57.680,HideSeek_v1,2022.2.5,59.917912532312016,
,7,4,3,4,-4,0,21,,train_dim1_1,17,30,,,,2,0,2,0,,,,,,,,,0,0,0,0,0,16,16,16,1,0,1,0,,,,,,,,,,,,,,,,,,,,,,,,,,,,,,,,,,,,,,,,,,,,,,,,,,,,,,,,,,,,,,,,30,,,,,,,,1094.842164200265,1094.842164200265,1094.842164200265,1094.842164200265,1094.842164200265,left,0.3929850999265909,5,0,0,99,0.24,-0.08,left,0.31727779982611537,,,,,,,,,,,,,,,,,,,,,,,,,,,,,,,,,,,,,,,,,,,,,,,,,,,,,,,,,,,,LVTRZP,train_x,blue_star,bottom_right,2025-04-23_12h16.57.680,HideSeek_v1,2022.2.5,59.917912532312016,
,7,4,3,4,-4,0,21,,train_dim1_1,17,30,,,,2,0,2,0,,,,,,,,,0,0,0,0,0,16,16,16,2,0,2,0,,,,,,,,,,,,,,,,,,,,,,,,,,,,,,,,,,,,,,,,,,,,,,,,,,,,,,,,,,,,,,,,30,,,,,,,,1095.250066000037,1095.250066000037,1095.250066000037,1095.250066000037,1095.250066000037,left,0.35997150000184774,5,0,0,99,0.15999999999999998,-0.08,left,0.2668046001344919,,,,,,,,,,,,,,,,,,,,,,,,,,,,,,,,,,,,,,,,,,,,,,,,,,,,,,,,,,,,LVTRZP,train_x,blue_star,bottom_right,2025-04-23_12h16.57.680,HideSeek_v1,2022.2.5,59.917912532312016,
,7,4,3,4,-4,0,21,,train_dim1_1,17,30,,,,2,0,2,0,,,,,,,,,0,0,0,0,0,16,16,16,3,0,3,0,,,,,,,,,,,,,,,,,,,,,,,,,,,,,,,,,,,,,,,,,,,,,,,,,,,,,,,,,,,,,,,,30,,,,,,,,1095.6096711000428,1095.6096711000428,1095.6096711000428,1095.6096711000428,1095.6096711000428,left,0.37655499996617436,5,0,0,99,0.07999999999999997,-0.08,left,0.29206980019807816,,,,,,,,,,,,,,,,,,,,,,,,,,,,,,,,,,,,,,,,,,,,,,,,,,,,,,,,,,,,LVTRZP,train_x,blue_star,bottom_right,2025-04-23_12h16.57.680,HideSeek_v1,2022.2.5,59.917912532312016,
,7,4,3,4,-4,0,21,,train_dim1_1,17,30,,,,2,0,2,0,,,,,,,,,0,0,0,0,0,16,16,16,4,0,4,0,,,,,,,,,,,,,,,,,,,,,,,,,,,,,,,,,,,,,,,,,,,,,,,,,,,,,,,,,,,,,,,,30,,,,,,,,1095.9933609999716,1095.9933609999716,1095.9933609999716,1095.9933609999716,1095.9933609999716,left,0.2599772000685334,5,0,0,99,-2.7755575615628914e-17,-0.08,left,0.17845530016347766,,,,,,,,,,,,,,,,,,,,,,,,,,,,,,,,,,,,,,,,,,,,,,,,,,,,,,,,,,,,LVTRZP,train_x,blue_star,bottom_right,2025-04-23_12h16.57.680,HideSeek_v1,2022.2.5,59.917912532312016,
,7,4,3,4,-4,0,21,,train_dim1_1,17,30,,,,2,0,2,0,,,,,,,,,0,0,0,0,0,16,16,16,5,0,5,0,,,,,,,,,,,,,,,,,,,,,,,,,,,,,,,,,,,,,,,,,,,,,,,,,,,,,,,,,,,,,,,,30,,,,,,,,1096.259973899927,1096.259973899927,1096.259973899927,1096.259973899927,1096.259973899927,right,0.9940202999860048,5,0,0,99,0.07999999999999997,-0.08,right,0.9121751999482512,,,,,,,,,,,,,,,,,,,,,,,,,,,,,,,,,,,,,,,,,,,,,,,,,,,,,,,,,,,,LVTRZP,train_x,blue_star,bottom_right,2025-04-23_12h16.57.680,HideSeek_v1,2022.2.5,59.917912532312016,
,7,4,3,4,-4,0,21,,train_dim1_1,17,30,,,,2,0,2,0,,,,,,,,,0,0,0,0,0,16,16,16,6,0,6,0,,,,,,,,,,,,,,,,,,,,,,,,,,,,,,,,,,,,,,,,,,,,,,,,,,,,,,,,,,,,,,,,30,,,,,,,,1097.2611792003736,1097.2611792003736,1097.2611792003736,1097.2611792003736,1097.2611792003736,return,0.5939625003375113,6,0,0,1,0.07999999999999997,-0.08,return,0.5086848000064492,5,-39,0.07999999999999997,-0.08,,,,,,,,,,,,,,,,,,,,,,,,,,,,,,,,,,,,,,,,,,,,,,,,,,,,,,,,LVTRZP,train_x,blue_star,bottom_right,2025-04-23_12h16.57.680,HideSeek_v1,2022.2.5,59.917912532312016,
,7,1,7,1,0,0,61,,train_dim1_1,18,30,,,,2,0,2,0,,,,,,,,,0,0,0,0,0,17,17,17,0,0,0,0,,,,,,,,,,,,,,,,,,,,,,,,,stimuli/alien_stimuli/61.png,,,,,,,,,,,,,,,,,,,,,,,,,,,,,stimuli/alien_stimuli/21.png,21,7,19,,,,,,,30,,,,,,,,1103.609076899942,1103.609076899942,1103.609076899942,1103.609076899942,1103.609076899942,left,2.9913750998675823,6,0,0,99,0.32,-0.32,left,2.883832700084895,,,,,1102.0308345002122,1103.609076899942,0.08,-0.08,0.0,0.32,-0.08,0.08,0.24000000000000002,0.08,-0.08,1099.436265700031,1099.436265700031,1099.436265700031,1099.436265700031,1099.436265700031,1099.436265700031,1099.436265700031,1099.436265700031,1099.4293844600209,2.7210554000921547,return,2.572764300275594,,,,,,,,,,,,,,,,,,,,,,,,,,,,,,,,,LVTRZP,train_x,blue_star,bottom_right,2025-04-23_12h16.57.680,HideSeek_v1,2022.2.5,59.917912532312016,
,7,1,7,1,0,0,61,,train_dim1_1,18,30,,,,2,0,2,0,,,,,,,,,0,0,0,0,0,17,17,17,1,0,1,0,,,,,,,,,,,,,,,,,,,,,,,,,,,,,,,,,,,,,,,,,,,,,,,,,,,,,,,,,,,,,,,,30,,,,,,,,1106.5817331001163,1106.5817331001163,1106.5817331001163,1106.5817331001163,1106.5817331001163,return,1.5102264997549355,6,1,0,0,0.32,-0.32,return,1.4302888000383973,5,-40,0.32,-0.32,,,,,,,,,,,,,,,,,,,,,,,,,,,,,,,,,,,,,,,,,,,,,,,,,,,,,,,,LVTRZP,train_x,blue_star,bottom_right,2025-04-23_12h16.57.680,HideSeek_v1,2022.2.5,59.917912532312016,
,5,3,2,3,-3,0,31,,train_dim1_1,19,30,,,,2,0,2,0,,,,,,,,,0,0,0,0,0,18,18,18,0,0,0,0,,,,,,,,,,,,,,,,,,,,,,,,,stimuli/alien_stimuli/31.png,,,,,,,,,,,,,,,,,,,,,,,,,,,,,stimuli/alien_stimuli/61.png,61,7,20,,,,,,,30,,,,,,,,1113.712191300001,1113.712191300001,1113.712191300001,1113.712191300001,1113.712191300001,left,1.4222683999687433,6,1,0,99,0.15999999999999998,-0.16,left,1.3298705997876823,,,,,1112.1392260002904,1113.712191300001,0.4,-0.32,0.0,0.0,-0.32,0.4,0.4,0.4,-0.32,1109.6750938999467,1109.6750938999467,1109.6750938999467,1109.6750938999467,1109.6750938999467,1109.6750938999467,1109.6750938999467,1109.6750938999467,1109.654317690246,2.587378299795091,return,2.4403436998836696,,,,,,,,,,,,,,,,,,,,,,,,,,,,,,,,,LVTRZP,train_x,blue_star,bottom_right,2025-04-23_12h16.57.680,HideSeek_v1,2022.2.5,59.917912532312016,
,5,3,2,3,-3,0,31,,train_dim1_1,19,30,,,,2,0,2,0,,,,,,,,,0,0,0,0,0,18,18,18,1,0,1,0,,,,,,,,,,,,,,,,,,,,,,,,,,,,,,,,,,,,,,,,,,,,,,,,,,,,,,,,,,,,,,,,30,,,,,,,,1115.1265007001348,1115.1265007001348,1115.1265007001348,1115.1265007001348,1115.1265007001348,left,0.5094977002590895,6,1,0,99,0.07999999999999997,-0.16,left,0.4252308001741767,,,,,,,,,,,,,,,,,,,,,,,,,,,,,,,,,,,,,,,,,,,,,,,,,,,,,,,,,,,,LVTRZP,train_x,blue_star,bottom_right,2025-04-23_12h16.57.680,HideSeek_v1,2022.2.5,59.917912532312016,
,5,3,2,3,-3,0,31,,train_dim1_1,19,30,,,,2,0,2,0,,,,,,,,,0,0,0,0,0,18,18,18,2,0,2,0,,,,,,,,,,,,,,,,,,,,,,,,,,,,,,,,,,,,,,,,,,,,,,,,,,,,,,,,,,,,,,,,30,,,,,,,,1115.6390513000078,1115.6390513000078,1115.6390513000078,1115.6390513000078,1115.6390513000078,left,0.8267127997241914,6,1,0,99,-2.7755575615628914e-17,-0.16,left,0.7475102003663778,,,,,,,,,,,,,,,,,,,,,,,,,,,,,,,,,,,,,,,,,,,,,,,,,,,,,,,,,,,,LVTRZP,train_x,blue_star,bottom_right,2025-04-23_12h16.57.680,HideSeek_v1,2022.2.5,59.917912532312016,
,5,3,2,3,-3,0,31,,train_dim1_1,19,30,,,,2,0,2,0,,,,,,,,,0,0,0,0,0,18,18,18,3,0,3,0,,,,,,,,,,,,,,,,,,,,,,,,,,,,,,,,,,,,,,,,,,,,,,,,,,,,,,,,,,,,,,,,30,,,,,,,,1116.473066100385,1116.473066100385,1116.473066100385,1116.473066100385,1116.473066100385,left,0.5437123002484441,6,1,0,99,-0.08000000000000003,-0.16,left,0.46536749973893166,,,,,,,,,,,,,,,,,,,,,,,,,,,,,,,,,,,,,,,,,,,,,,,,,,,,,,,,,,,,LVTRZP,train_x,blue_star,bottom_right,2025-04-23_12h16.57.680,HideSeek_v1,2022.2.5,59.917912532312016,
,5,3,2,3,-3,0,31,,train_dim1_1,19,30,,,,2,0,2,0,,,,,,,,,0,0,0,0,0,18,18,18,4,0,4,0,,,,,,,,,,,,,,,,,,,,,,,,,,,,,,,,,,,,,,,,,,,,,,,,,,,,,,,,,,,,,,,,30,,,,,,,,1117.0235947002657,1117.0235947002657,1117.0235947002657,1117.0235947002657,1117.0235947002657,return,0.5599011997692287,6,1,0,0,-0.08000000000000003,-0.16,return,0.48454560013487935,5,-44,-0.08000000000000003,-0.16,,,,,,,,,,,,,,,,,,,,,,,,,,,,,,,,,,,,,,,,,,,,,,,,,,,,,,,,LVTRZP,train_x,blue_star,bottom_right,2025-04-23_12h16.57.680,HideSeek_v1,2022.2.5,59.917912532312016,
,5,1,0,1,-5,0,11,,train_dim1_1,20,30,,,,2,0,2,0,,,,,,,,,0,0,0,0,0,19,19,19,0,0,0,0,,,,,,,,,,,,,,,,,,,,,,,,,stimuli/alien_stimuli/11.png,,,,,,,,,,,,,,,,,,,,,,,,,,,,,stimuli/alien_stimuli/31.png,31,5,21,,,,,,,30,,,,,,,,1123.4304021000862,1123.4304021000862,1123.4304021000862,1123.4304021000862,1123.4304021000862,left,1.7226615999825299,6,1,0,99,0.15999999999999998,-0.32,left,1.6331263999454677,,,,,1121.863966200035,1123.4304021000862,0,-0.16,0.0,0.24,-0.16,0,0.12,0,-0.16,1119.1498475000262,1119.1498475000262,1119.1498475000262,1119.1498475000262,1119.1498475000262,1119.1498475000262,1119.1498475000262,1119.1498475000262,1119.128781820275,2.821041400078684,return,2.683635199908167,,,,,,,,,,,,,,,,,,,,,,,,,,,,,,,,,LVTRZP,train_x,blue_star,bottom_right,2025-04-23_12h16.57.680,HideSeek_v1,2022.2.5,59.917912532312016,
,5,1,0,1,-5,0,11,,train_dim1_1,20,30,,,,2,0,2,0,,,,,,,,,0,0,0,0,0,19,19,19,1,0,1,0,,,,,,,,,,,,,,,,,,,,,,,,,,,,,,,,,,,,,,,,,,,,,,,,,,,,,,,,,,,,,,,,30,,,,,,,,1125.1513354000635,1125.1513354000635,1125.1513354000635,1125.1513354000635,1125.1513354000635,left,0.39312729984521866,6,1,0,99,0.07999999999999997,-0.32,left,0.3134754002094269,,,,,,,,,,,,,,,,,,,,,,,,,,,,,,,,,,,,,,,,,,,,,,,,,,,,,,,,,,,,LVTRZP,train_x,blue_star,bottom_right,2025-04-23_12h16.57.680,HideSeek_v1,2022.2.5,59.917912532312016,
,5,1,0,1,-5,0,11,,train_dim1_1,20,30,,,,2,0,2,0,,,,,,,,,0,0,0,0,0,19,19,19,2,0,2,0,,,,,,,,,,,,,,,,,,,,,,,,,,,,,,,,,,,,,,,,,,,,,,,,,,,,,,,,,,,,,,,,30,,,,,,,,1125.5530731999315,1125.5530731999315,1125.5530731999315,1125.5530731999315,1125.5530731999315,left,0.3571705003269017,6,1,0,99,-2.7755575615628914e-17,-0.32,left,0.2764805001206696,,,,,,,,,,,,,,,,,,,,,,,,,,,,,,,,,,,,,,,,,,,,,,,,,,,,,,,,,,,,LVTRZP,train_x,blue_star,bottom_right,2025-04-23_12h16.57.680,HideSeek_v1,2022.2.5,59.917912532312016,
,5,1,0,1,-5,0,11,,train_dim1_1,20,30,,,,2,0,2,0,,,,,,,,,0,0,0,0,0,19,19,19,3,0,3,0,,,,,,,,,,,,,,,,,,,,,,,,,,,,,,,,,,,,,,,,,,,,,,,,,,,,,,,,,,,,,,,,30,,,,,,,,1125.9181295000017,1125.9181295000017,1125.9181295000017,1125.9181295000017,1125.9181295000017,left,0.4099314999766648,6,1,0,99,-0.08000000000000003,-0.32,left,0.32400419982150197,,,,,,,,,,,,,,,,,,,,,,,,,,,,,,,,,,,,,,,,,,,,,,,,,,,,,,,,,,,,LVTRZP,train_x,blue_star,bottom_right,2025-04-23_12h16.57.680,HideSeek_v1,2022.2.5,59.917912532312016,
,5,1,0,1,-5,0,11,,train_dim1_1,20,30,,,,2,0,2,0,,,,,,,,,0,0,0,0,0,19,19,19,4,0,4,0,,,,,,,,,,,,,,,,,,,,,,,,,,,,,,,,,,,,,,,,,,,,,,,,,,,,,,,,,,,,,,,,30,,,,,,,,1126.3346963003278,1126.3346963003278,1126.3346963003278,1126.3346963003278,1126.3346963003278,return,0.8435979001224041,6,1,0,0,-0.08000000000000003,-0.32,return,0.7519388999789953,5,-48,-0.08000000000000003,-0.32,,,,,,,,,,,,,,,,,,,,,,,,,,,,,,,,,,,,,,,,,,,,,,,,,,,,,,,,LVTRZP,train_x,blue_star,bottom_right,2025-04-23_12h16.57.680,HideSeek_v1,2022.2.5,59.917912532312016,
,9,2,6,2,-3,0,31,,train_dim1_1,21,30,,,,2,0,2,0,,,,,,,,,0,0,0,0,0,20,20,20,0,0,0,0,,,,,,,,,,,,,,,,,,,,,,,,,stimuli/alien_stimuli/31.png,,,,,,,,,,,,,,,,,,,,,,,,,,,,,stimuli/alien_stimuli/11.png,11,5,22,,,,,,,30,,,,,,,,1131.803496800363,1131.803496800363,1131.803496800363,1131.803496800363,1131.803496800363,left,1.3867081003263593,6,1,0,99,0.48000000000000004,-0.24,left,1.287332999985665,,,,,1130.2209553001449,1131.803496800363,-0.16,-0.32,0.0,0.4,-0.32,-0.16,0.039999999999999994,-0.16,-0.32,1128.7689730003476,1128.7689730003476,1128.7689730003476,1128.7689730003476,1128.7689730003476,1128.7689730003476,1128.7689730003476,1128.7689730003476,1128.7537216602825,1.58655249979347,return,1.4282272001728415,,,,,,,,,,,,,,,,,,,,,,,,,,,,,,,,,LVTRZP,train_x,blue_star,bottom_right,2025-04-23_12h16.57.680,HideSeek_v1,2022.2.5,59.917912532312016,
,9,2,6,2,-3,0,31,,train_dim1_1,21,30,,,,2,0,2,0,,,,,,,,,0,0,0,0,0,20,20,20,1,0,1,0,,,,,,,,,,,,,,,,,,,,,,,,,,,,,,,,,,,,,,,,,,,,,,,,,,,,,,,,,,,,,,,,30,,,,,,,,1133.1713475002907,1133.1713475002907,1133.1713475002907,1133.1713475002907,1133.1713475002907,left,0.3929976001381874,6,1,0,99,0.4,-0.24,left,0.3186636003665626,,,,,,,,,,,,,,,,,,,,,,,,,,,,,,,,,,,,,,,,,,,,,,,,,,,,,,,,,,,,LVTRZP,train_x,blue_star,bottom_right,2025-04-23_12h16.57.680,HideSeek_v1,2022.2.5,59.917912532312016,
,9,2,6,2,-3,0,31,,train_dim1_1,21,30,,,,2,0,2,0,,,,,,,,,0,0,0,0,0,20,20,20,2,0,2,0,,,,,,,,,,,,,,,,,,,,,,,,,,,,,,,,,,,,,,,,,,,,,,,,,,,,,,,,,,,,,,,,30,,,,,,,,1133.5701350001618,1133.5701350001618,1133.5701350001618,1133.5701350001618,1133.5701350001618,left,0.4266631002537906,6,1,0,99,0.32,-0.24,left,0.3389364001341164,,,,,,,,,,,,,,,,,,,,,,,,,,,,,,,,,,,,,,,,,,,,,,,,,,,,,,,,,,,,LVTRZP,train_x,blue_star,bottom_right,2025-04-23_12h16.57.680,HideSeek_v1,2022.2.5,59.917912532312016,
,9,2,6,2,-3,0,31,,train_dim1_1,21,30,,,,2,0,2,0,,,,,,,,,0,0,0,0,0,20,20,20,3,0,3,0,,,,,,,,,,,,,,,,,,,,,,,,,,,,,,,,,,,,,,,,,,,,,,,,,,,,,,,,,,,,,,,,30,,,,,,,,1134.009653000161,1134.009653000161,1134.009653000161,1134.009653000161,1134.009653000161,return,1.309616300277412,7,0,0,1,0.32,-0.24,return,1.2206379999406636,5,-51,0.32,-0.24,,,,,,,,,,,,,,,,,,,,,,,,,,,,,,,,,,,,,,,,,,,,,,,,,,,,,,,,LVTRZP,train_x,blue_star,bottom_right,2025-04-23_12h16.57.680,HideSeek_v1,2022.2.5,59.917912532312016,
,6,0,2,0,-4,0,21,,train_dim1_1,22,30,,,,2,0,2,0,,,,,,,,,0,0,0,0,0,21,21,21,0,0,0,0,,,,,,,,,,,,,,,,,,,,,,,,,stimuli/alien_stimuli/21.png,,,,,,,,,,,,,,,,,,,,,,,,,,,,,stimuli/alien_stimuli/31.png,31,9,23,,,,,,,30,,,,,,,,1139.2288880003616,1139.2288880003616,1139.2288880003616,1139.2288880003616,1139.2288880003616,left,1.2719593001529574,7,0,0,99,0.24,-0.4,left,1.1625111000612378,,,,,1137.6437224000692,1139.2288880003616,0.32,-0.24,0.0,0.24,-0.24,0.32,0.44000000000000006,0.32,-0.24,1136.8902921001427,1136.8902921001427,1136.8902921001427,1136.8902921001427,1136.8902921001427,1136.8902921001427,1136.8902921001427,1136.8902921001427,1136.8773542900572,0.868446999695152,return,0.731086500454694,,,,,,,,,,,,,,,,,,,,,,,,,,,,,,,,,LVTRZP,train_x,blue_star,bottom_right,2025-04-23_12h16.57.680,HideSeek_v1,2022.2.5,59.917912532312016,
,6,0,2,0,-4,0,21,,train_dim1_1,22,30,,,,2,0,2,0,,,,,,,,,0,0,0,0,0,21,21,21,1,0,1,0,,,,,,,,,,,,,,,,,,,,,,,,,,,,,,,,,,,,,,,,,,,,,,,,,,,,,,,,,,,,,,,,30,,,,,,,,1140.480902200099,1140.480902200099,1140.480902200099,1140.480902200099,1140.480902200099,left,0.40952830016613007,7,0,0,99,0.15999999999999998,-0.4,left,0.3171369000338018,,,,,,,,,,,,,,,,,,,,,,,,,,,,,,,,,,,,,,,,,,,,,,,,,,,,,,,,,,,,LVTRZP,train_x,blue_star,bottom_right,2025-04-23_12h16.57.680,HideSeek_v1,2022.2.5,59.917912532312016,
,6,0,2,0,-4,0,21,,train_dim1_1,22,30,,,,2,0,2,0,,,,,,,,,0,0,0,0,0,21,21,21,2,0,2,0,,,,,,,,,,,,,,,,,,,,,,,,,,,,,,,,,,,,,,,,,,,,,,,,,,,,,,,,,,,,,,,,30,,,,,,,,1140.8968013003469,1140.8968013003469,1140.8968013003469,1140.8968013003469,1140.8968013003469,left,0.34343390027061105,7,0,0,99,0.07999999999999997,-0.4,left,0.2640382996760309,,,,,,,,,,,,,,,,,,,,,,,,,,,,,,,,,,,,,,,,,,,,,,,,,,,,,,,,,,,,LVTRZP,train_x,blue_star,bottom_right,2025-04-23_12h16.57.680,HideSeek_v1,2022.2.5,59.917912532312016,
,6,0,2,0,-4,0,21,,train_dim1_1,22,30,,,,2,0,2,0,,,,,,,,,0,0,0,0,0,21,21,21,3,0,3,0,,,,,,,,,,,,,,,,,,,,,,,,,,,,,,,,,,,,,,,,,,,,,,,,,,,,,,,,,,,,,,,,30,,,,,,,,1141.2484798002988,1141.2484798002988,1141.2484798002988,1141.2484798002988,1141.2484798002988,left,0.40953899966552854,7,0,0,99,-2.7755575615628914e-17,-0.4,left,0.32493859995156527,,,,,,,,,,,,,,,,,,,,,,,,,,,,,,,,,,,,,,,,,,,,,,,,,,,,,,,,,,,,LVTRZP,train_x,blue_star,bottom_right,2025-04-23_12h16.57.680,HideSeek_v1,2022.2.5,59.917912532312016,
,6,0,2,0,-4,0,21,,train_dim1_1,22,30,,,,2,0,2,0,,,,,,,,,0,0,0,0,0,21,21,21,4,0,4,0,,,,,,,,,,,,,,,,,,,,,,,,,,,,,,,,,,,,,,,,,,,,,,,,,,,,,,,,,,,,,,,,30,,,,,,,,1141.663839300163,1141.663839300163,1141.663839300163,1141.663839300163,1141.663839300163,left,0.4769672001712024,7,0,0,99,-0.08000000000000003,-0.4,left,0.3866620003245771,,,,,,,,,,,,,,,,,,,,,,,,,,,,,,,,,,,,,,,,,,,,,,,,,,,,,,,,,,,,LVTRZP,train_x,blue_star,bottom_right,2025-04-23_12h16.57.680,HideSeek_v1,2022.2.5,59.917912532312016,
,6,0,2,0,-4,0,21,,train_dim1_1,22,30,,,,2,0,2,0,,,,,,,,,0,0,0,0,0,21,21,21,5,0,5,0,,,,,,,,,,,,,,,,,,,,,,,,,,,,,,,,,,,,,,,,,,,,,,,,,,,,,,,,,,,,,,,,30,,,,,,,,1142.1480897003785,1142.1480897003785,1142.1480897003785,1142.1480897003785,1142.1480897003785,return,0.5933282999321818,7,1,0,0,-0.08000000000000003,-0.4,return,0.5079720001667738,5,-56,-0.08000000000000003,-0.4,,,,,,,,,,,,,,,,,,,,,,,,,,,,,,,,,,,,,,,,,,,,,,,,,,,,,,,,LVTRZP,train_x,blue_star,bottom_right,2025-04-23_12h16.57.680,HideSeek_v1,2022.2.5,59.917912532312016,
,7,1,7,1,0,0,61,,train_dim1_1,23,30,,,,2,0,2,0,,,,,,,,,0,0,0,0,0,22,22,22,0,0,0,0,,,,,,,,,,,,,,,,,,,,,,,,,stimuli/alien_stimuli/61.png,,,,,,,,,,,,,,,,,,,,,,,,,,,,,stimuli/alien_stimuli/21.png,21,6,24,,,,,,,30,,,,,,,,1147.9587981002405,1147.9587981002405,1147.9587981002405,1147.9587981002405,1147.9587981002405,left,1.8883899003267288,7,1,0,99,0.32,-0.32,left,1.7933195000514388,,,,,1146.3845138000324,1147.9587981002405,0,-0.4,0.0,0.32,-0.4,0,0.16,0,-0.4,1144.3083712002262,1144.3083712002262,1144.3083712002262,1144.3083712002262,1144.3083712002262,1144.3083712002262,1144.3083712002262,1144.3083712002262,1144.2996507903563,2.187308399938047,return,2.0436533000320196,,,,,,,,,,,,,,,,,,,,,,,,,,,,,,,,,LVTRZP,train_x,blue_star,bottom_right,2025-04-23_12h16.57.680,HideSeek_v1,2022.2.5,59.917912532312016,
,7,1,7,1,0,0,61,,train_dim1_1,23,30,,,,2,0,2,0,,,,,,,,,0,0,0,0,0,22,22,22,1,0,1,0,,,,,,,,,,,,,,,,,,,,,,,,,,,,,,,,,,,,,,,,,,,,,,,,,,,,,,,,,,,,,,,,30,,,,,,,,1149.8448399002664,1149.8448399002664,1149.8448399002664,1149.8448399002664,1149.8448399002664,right,0.44302110001444817,7,1,0,99,0.4,-0.32,right,0.3520098999142647,,,,,,,,,,,,,,,,,,,,,,,,,,,,,,,,,,,,,,,,,,,,,,,,,,,,,,,,,,,,LVTRZP,train_x,blue_star,bottom_right,2025-04-23_12h16.57.680,HideSeek_v1,2022.2.5,59.917912532312016,
,7,1,7,1,0,0,61,,train_dim1_1,23,30,,,,2,0,2,0,,,,,,,,,0,0,0,0,0,22,22,22,2,0,2,0,,,,,,,,,,,,,,,,,,,,,,,,,,,,,,,,,,,,,,,,,,,,,,,,,,,,,,,,,,,,,,,,30,,,,,,,,1150.2841413002461,1150.2841413002461,1150.2841413002461,1150.2841413002461,1150.2841413002461,return,0.4934478001669049,8,0,0,1,0.4,-0.32,return,0.4167284998111427,5,-56,0.4,-0.32,,,,,,,,,,,,,,,,,,,,,,,,,,,,,,,,,,,,,,,,,,,,,,,,,,,,,,,,LVTRZP,train_x,blue_star,bottom_right,2025-04-23_12h16.57.680,HideSeek_v1,2022.2.5,59.917912532312016,
,9,4,8,4,-1,0,51,,train_dim1_1,24,30,,,,2,0,2,0,,,,,,,,,0,0,0,0,0,23,23,23,0,0,0,0,,,,,,,,,,,,,,,,,,,,,,,,,stimuli/alien_stimuli/51.png,,,,,,,,,,,,,,,,,,,,,,,,,,,,,stimuli/alien_stimuli/61.png,61,7,25,,,,,,,30,,,,,,,,1156.2548417001963,1156.2548417001963,1156.2548417001963,1156.2548417001963,1156.2548417001963,left,1.10679280012846,8,0,0,99,0.48000000000000004,-0.08,left,1.018132499884814,,,,,1154.6913302000612,1156.2548417001963,0.4,-0.32,0.0,0.0,-0.32,0.4,0.4,0.4,-0.32,1152.3436978999525,1152.3436978999525,1152.3436978999525,1152.3436978999525,1152.3436978999525,1152.3436978999525,1152.3436978999525,1152.3436978999525,1152.323161520157,2.454203899949789,return,2.3259512996301055,,,,,,,,,,,,,,,,,,,,,,,,,,,,,,,,,LVTRZP,train_x,blue_star,bottom_right,2025-04-23_12h16.57.680,HideSeek_v1,2022.2.5,59.917912532312016,
,9,4,8,4,-1,0,51,,train_dim1_1,24,30,,,,2,0,2,0,,,,,,,,,0,0,0,0,0,23,23,23,1,0,1,0,,,,,,,,,,,,,,,,,,,,,,,,,,,,,,,,,,,,,,,,,,,,,,,,,,,,,,,,,,,,,,,,30,,,,,,,,1157.3603721000254,1157.3603721000254,1157.3603721000254,1157.3603721000254,1157.3603721000254,return,1.0099665001034737,9,0,0,1,0.48000000000000004,-0.08,return,0.9190354999154806,5,-57,0.48000000000000004,-0.08,,,,,,,,,,,,,,,,,,,,,,,,,,,,,,,,,,,,,,,,,,,,,,,,,,,,,,,,LVTRZP,train_x,blue_star,bottom_right,2025-04-23_12h16.57.680,HideSeek_v1,2022.2.5,59.917912532312016,
,8,0,3,0,-5,0,11,,train_dim1_1,25,30,,,,2,0,2,0,,,,,,,,,0,0,0,0,0,24,24,24,0,0,0,0,,,,,,,,,,,,,,,,,,,,,,,,,stimuli/alien_stimuli/11.png,,,,,,,,,,,,,,,,,,,,,,,,,,,,,stimuli/alien_stimuli/51.png,51,9,26,,,,,,,30,,,,,,,,1163.7633466003463,1163.7633466003463,1163.7633466003463,1163.7633466003463,1163.7633466003463,left,1.490523500367999,9,0,0,99,0.39999999999999997,-0.4,left,1.38633090024814,,,,,1162.1806872999296,1163.7633466003463,0.48,-0.08,0.0,0.08,-0.08,0.48,0.52,0.48,-0.08,1159.9378597000614,1159.9378597000614,1159.9378597000614,1159.9378597000614,1159.9378597000614,1159.9378597000614,1159.9378597000614,1159.9378597000614,1159.9295125903564,2.354065000079572,return,2.2171148997731507,,,,,,,,,,,,,,,,,,,,,,,,,,,,,,,,,LVTRZP,train_x,blue_star,bottom_right,2025-04-23_12h16.57.680,HideSeek_v1,2022.2.5,59.917912532312016,
,8,0,3,0,-5,0,11,,train_dim1_1,25,30,,,,2,0,2,0,,,,,,,,,0,0,0,0,0,24,24,24,1,0,1,0,,,,,,,,,,,,,,,,,,,,,,,,,,,,,,,,,,,,,,,,,,,,,,,,,,,,,,,,,,,,,,,,30,,,,,,,,1165.2358186999336,1165.2358186999336,1165.2358186999336,1165.2358186999336,1165.2358186999336,left,0.39224560000002384,9,0,0,99,0.31999999999999995,-0.4,left,0.3142068996094167,,,,,,,,,,,,,,,,,,,,,,,,,,,,,,,,,,,,,,,,,,,,,,,,,,,,,,,,,,,,LVTRZP,train_x,blue_star,bottom_right,2025-04-23_12h16.57.680,HideSeek_v1,2022.2.5,59.917912532312016,
,8,0,3,0,-5,0,11,,train_dim1_1,25,30,,,,2,0,2,0,,,,,,,,,0,0,0,0,0,24,24,24,2,0,2,0,,,,,,,,,,,,,,,,,,,,,,,,,,,,,,,,,,,,,,,,,,,,,,,,,,,,,,,,,,,,,,,,30,,,,,,,,1165.6337687000632,1165.6337687000632,1165.6337687000632,1165.6337687000632,1165.6337687000632,left,0.4098690999671817,9,0,0,99,0.23999999999999994,-0.4,left,0.31981070013716817,,,,,,,,,,,,,,,,,,,,,,,,,,,,,,,,,,,,,,,,,,,,,,,,,,,,,,,,,,,,LVTRZP,train_x,blue_star,bottom_right,2025-04-23_12h16.57.680,HideSeek_v1,2022.2.5,59.917912532312016,
,8,0,3,0,-5,0,11,,train_dim1_1,25,30,,,,2,0,2,0,,,,,,,,,0,0,0,0,0,24,24,24,3,0,3,0,,,,,,,,,,,,,,,,,,,,,,,,,,,,,,,,,,,,,,,,,,,,,,,,,,,,,,,,,,,,,,,,30,,,,,,,,1166.0515195000917,1166.0515195000917,1166.0515195000917,1166.0515195000917,1166.0515195000917,left,0.3768246001563966,9,0,0,99,0.15999999999999992,-0.4,left,0.30024549970403314,,,,,,,,,,,,,,,,,,,,,,,,,,,,,,,,,,,,,,,,,,,,,,,,,,,,,,,,,,,,LVTRZP,train_x,blue_star,bottom_right,2025-04-23_12h16.57.680,HideSeek_v1,2022.2.5,59.917912532312016,
,8,0,3,0,-5,0,11,,train_dim1_1,25,30,,,,2,0,2,0,,,,,,,,,0,0,0,0,0,24,24,24,4,0,4,0,,,,,,,,,,,,,,,,,,,,,,,,,,,,,,,,,,,,,,,,,,,,,,,,,,,,,,,,,,,,,,,,30,,,,,,,,1166.4346362003125,1166.4346362003125,1166.4346362003125,1166.4346362003125,1166.4346362003125,left,0.4936378998681903,9,0,0,99,0.07999999999999992,-0.4,left,0.4031686997041106,,,,,,,,,,,,,,,,,,,,,,,,,,,,,,,,,,,,,,,,,,,,,,,,,,,,,,,,,,,,LVTRZP,train_x,blue_star,bottom_right,2025-04-23_12h16.57.680,HideSeek_v1,2022.2.5,59.917912532312016,
,8,0,3,0,-5,0,11,,train_dim1_1,25,30,,,,2,0,2,0,,,,,,,,,0,0,0,0,0,24,24,24,5,0,5,0,,,,,,,,,,,,,,,,,,,,,,,,,,,,,,,,,,,,,,,,,,,,,,,,,,,,,,,,,,,,,,,,30,,,,,,,,1166.9355381000787,1166.9355381000787,1166.9355381000787,1166.9355381000787,1166.9355381000787,return,0.47649680031463504,10,0,0,1,0.07999999999999992,-0.4,return,0.3923185998573899,5,-62,0.07999999999999992,-0.4,,,,,,,,,,,,,,,,,,,,,,,,,,,,,,,,,,,,,,,,,,,,,,,,,,,,,,,,LVTRZP,train_x,blue_star,bottom_right,2025-04-23_12h16.57.680,HideSeek_v1,2022.2.5,59.917912532312016,
,6,1,6,1,0,0,61,,train_dim1_1,26,30,,,,2,0,2,0,,,,,,,,,0,0,0,0,0,25,25,25,0,0,0,0,,,,,,,,,,,,,,,,,,,,,,,,,stimuli/alien_stimuli/61.png,,,,,,,,,,,,,,,,,,,,,,,,,,,,,stimuli/alien_stimuli/11.png,11,8,27,,,,,,,30,,,,,,,,1171.3069075001404,1171.3069075001404,1171.3069075001404,1171.3069075001404,1171.3069075001404,left,1.7730765999294817,10,0,0,99,0.24,-0.32,left,1.6758362003602087,,,,,1169.7369963000529,1171.3069075001404,0.08,-0.4,0.0,0.4,-0.4,0.08,0.27999999999999997,0.08,-0.4,1168.979269000236,1168.979269000236,1168.979269000236,1168.979269000236,1168.979269000236,1168.979269000236,1168.979269000236,1168.979269000236,1168.9703495900148,0.8695911997929215,return,0.7351788999512792,,,,,,,,,,,,,,,,,,,,,,,,,,,,,,,,,LVTRZP,train_x,blue_star,bottom_right,2025-04-23_12h16.57.680,HideSeek_v1,2022.2.5,59.917912532312016,
,6,1,6,1,0,0,61,,train_dim1_1,26,30,,,,2,0,2,0,,,,,,,,,0,0,0,0,0,25,25,25,1,0,1,0,,,,,,,,,,,,,,,,,,,,,,,,,,,,,,,,,,,,,,,,,,,,,,,,,,,,,,,,,,,,,,,,30,,,,,,,,1173.0722036003135,1173.0722036003135,1173.0722036003135,1173.0722036003135,1173.0722036003135,right,0.3091297000646591,10,0,0,99,0.32,-0.32,right,0.23559390008449554,,,,,,,,,,,,,,,,,,,,,,,,,,,,,,,,,,,,,,,,,,,,,,,,,,,,,,,,,,,,LVTRZP,train_x,blue_star,bottom_right,2025-04-23_12h16.57.680,HideSeek_v1,2022.2.5,59.917912532312016,
,6,1,6,1,0,0,61,,train_dim1_1,26,30,,,,2,0,2,0,,,,,,,,,0,0,0,0,0,25,25,25,2,0,2,0,,,,,,,,,,,,,,,,,,,,,,,,,,,,,,,,,,,,,,,,,,,,,,,,,,,,,,,,,,,,,,,,30,,,,,,,,1173.3891005003825,1173.3891005003825,1173.3891005003825,1173.3891005003825,1173.3891005003825,return,0.4089338998310268,11,0,0,1,0.32,-0.32,return,0.3276836001314223,5,-62,0.32,-0.32,,,,,,,,,,,,,,,,,,,,,,,,,,,,,,,,,,,,,,,,,,,,,,,,,,,,,,,,LVTRZP,train_x,blue_star,bottom_right,2025-04-23_12h16.57.680,HideSeek_v1,2022.2.5,59.917912532312016,
,5,1,2,1,-3,0,31,,train_dim1_1,27,30,,,,2,0,2,0,,,,,,,,,0,0,0,0,0,26,26,26,0,0,0,0,,,,,,,,,,,,,,,,,,,,,,,,,stimuli/alien_stimuli/31.png,,,,,,,,,,,,,,,,,,,,,,,,,,,,,stimuli/alien_stimuli/61.png,61,6,28,,,,,,,30,,,,,,,,1178.10568660032,1178.10568660032,1178.10568660032,1178.10568660032,1178.10568660032,left,1.3883760999888182,11,0,0,99,0.15999999999999998,-0.32,left,1.2918179999105632,,,,,1176.5426834002137,1178.10568660032,0.32,-0.32,0.0,0.0,-0.32,0.32,0.32,0.32,-0.32,1175.362245600205,1175.362245600205,1175.362245600205,1175.362245600205,1175.362245600205,1175.362245600205,1175.362245600205,1175.362245600205,1175.3420469203033,1.2866855999454856,return,1.1613185000605881,,,,,,,,,,,,,,,,,,,,,,,,,,,,,,,,,LVTRZP,train_x,blue_star,bottom_right,2025-04-23_12h16.57.680,HideSeek_v1,2022.2.5,59.917912532312016,
,5,1,2,1,-3,0,31,,train_dim1_1,27,30,,,,2,0,2,0,,,,,,,,,0,0,0,0,0,26,26,26,1,0,1,0,,,,,,,,,,,,,,,,,,,,,,,,,,,,,,,,,,,,,,,,,,,,,,,,,,,,,,,,,,,,,,,,30,,,,,,,,1179.4932838999666,1179.4932838999666,1179.4932838999666,1179.4932838999666,1179.4932838999666,left,0.39191409992054105,11,0,0,99,0.07999999999999997,-0.32,left,0.3138274997472763,,,,,,,,,,,,,,,,,,,,,,,,,,,,,,,,,,,,,,,,,,,,,,,,,,,,,,,,,,,,LVTRZP,train_x,blue_star,bottom_right,2025-04-23_12h16.57.680,HideSeek_v1,2022.2.5,59.917912532312016,
,5,1,2,1,-3,0,31,,train_dim1_1,27,30,,,,2,0,2,0,,,,,,,,,0,0,0,0,0,26,26,26,2,0,2,0,,,,,,,,,,,,,,,,,,,,,,,,,,,,,,,,,,,,,,,,,,,,,,,,,,,,,,,,,,,,,,,,30,,,,,,,,1179.8919003000483,1179.8919003000483,1179.8919003000483,1179.8919003000483,1179.8919003000483,left,0.4097802001051605,11,0,0,99,-2.7755575615628914e-17,-0.32,left,0.32605289993807673,,,,,,,,,,,,,,,,,,,,,,,,,,,,,,,,,,,,,,,,,,,,,,,,,,,,,,,,,,,,LVTRZP,train_x,blue_star,bottom_right,2025-04-23_12h16.57.680,HideSeek_v1,2022.2.5,59.917912532312016,
,5,1,2,1,-3,0,31,,train_dim1_1,27,30,,,,2,0,2,0,,,,,,,,,0,0,0,0,0,26,26,26,3,0,3,0,,,,,,,,,,,,,,,,,,,,,,,,,,,,,,,,,,,,,,,,,,,,,,,,,,,,,,,,,,,,,,,,30,,,,,,,,1180.3086968003772,1180.3086968003772,1180.3086968003772,1180.3086968003772,1180.3086968003772,left,0.443684000056237,11,0,0,99,-0.08000000000000003,-0.32,left,0.3552048997953534,,,,,,,,,,,,,,,,,,,,,,,,,,,,,,,,,,,,,,,,,,,,,,,,,,,,,,,,,,,,LVTRZP,train_x,blue_star,bottom_right,2025-04-23_12h16.57.680,HideSeek_v1,2022.2.5,59.917912532312016,
,5,1,2,1,-3,0,31,,train_dim1_1,27,30,,,,2,0,2,0,,,,,,,,,0,0,0,0,0,26,26,26,4,0,4,0,,,,,,,,,,,,,,,,,,,,,,,,,,,,,,,,,,,,,,,,,,,,,,,,,,,,,,,,,,,,,,,,30,,,,,,,,1180.7597802001983,1180.7597802001983,1180.7597802001983,1180.7597802001983,1180.7597802001983,return,0.8104739999398589,11,1,0,0,-0.08000000000000003,-0.32,return,0.7330620996654034,5,-66,-0.08000000000000003,-0.32,,,,,,,,,,,,,,,,,,,,,,,,,,,,,,,,,,,,,,,,,,,,,,,,,,,,,,,,LVTRZP,train_x,blue_star,bottom_right,2025-04-23_12h16.57.680,HideSeek_v1,2022.2.5,59.917912532312016,
,8,1,4,1,-4,0,21,,train_dim1_1,28,30,,,,2,0,2,0,,,,,,,,,0,0,0,0,0,27,27,27,0,0,0,0,,,,,,,,,,,,,,,,,,,,,,,,,stimuli/alien_stimuli/21.png,,,,,,,,,,,,,,,,,,,,,,,,,,,,,stimuli/alien_stimuli/31.png,31,5,29,,,,,,,30,,,,,,,,1186.6288451999426,1186.6288451999426,1186.6288451999426,1186.6288451999426,1186.6288451999426,left,1.1546219000592828,11,1,0,99,0.39999999999999997,-0.32,left,1.0443624001927674,,,,,1185.04978640005,1186.6288451999426,0,-0.32,0.0,0.24,-0.32,0,0.12,0,-0.32,1183.1338063003495,1183.1338063003495,1183.1338063003495,1183.1338063003495,1183.1338063003495,1183.1338063003495,1183.1338063003495,1183.1338063003495,1183.1154257199728,2.0203988002613187,return,1.8866201997734606,,,,,,,,,,,,,,,,,,,,,,,,,,,,,,,,,LVTRZP,train_x,blue_star,bottom_right,2025-04-23_12h16.57.680,HideSeek_v1,2022.2.5,59.917912532312016,
,8,1,4,1,-4,0,21,,train_dim1_1,28,30,,,,2,0,2,0,,,,,,,,,0,0,0,0,0,27,27,27,1,0,1,0,,,,,,,,,,,,,,,,,,,,,,,,,,,,,,,,,,,,,,,,,,,,,,,,,,,,,,,,,,,,,,,,30,,,,,,,,1187.770301700104,1187.770301700104,1187.770301700104,1187.770301700104,1187.770301700104,left,0.3596433000639081,11,1,0,99,0.31999999999999995,-0.32,left,0.2761065000668168,,,,,,,,,,,,,,,,,,,,,,,,,,,,,,,,,,,,,,,,,,,,,,,,,,,,,,,,,,,,LVTRZP,train_x,blue_star,bottom_right,2025-04-23_12h16.57.680,HideSeek_v1,2022.2.5,59.917912532312016,
,8,1,4,1,-4,0,21,,train_dim1_1,28,30,,,,2,0,2,0,,,,,,,,,0,0,0,0,0,27,27,27,2,0,2,0,,,,,,,,,,,,,,,,,,,,,,,,,,,,,,,,,,,,,,,,,,,,,,,,,,,,,,,,,,,,,,,,30,,,,,,,,1188.1361561999656,1188.1361561999656,1188.1361561999656,1188.1361561999656,1188.1361561999656,left,0.4100219001993537,11,1,0,99,0.23999999999999994,-0.32,left,0.3214555997401476,,,,,,,,,,,,,,,,,,,,,,,,,,,,,,,,,,,,,,,,,,,,,,,,,,,,,,,,,,,,LVTRZP,train_x,blue_star,bottom_right,2025-04-23_12h16.57.680,HideSeek_v1,2022.2.5,59.917912532312016,
,8,1,4,1,-4,0,21,,train_dim1_1,28,30,,,,2,0,2,0,,,,,,,,,0,0,0,0,0,27,27,27,3,0,3,0,,,,,,,,,,,,,,,,,,,,,,,,,,,,,,,,,,,,,,,,,,,,,,,,,,,,,,,,,,,,,,,,30,,,,,,,,1188.5598892001435,1188.5598892001435,1188.5598892001435,1188.5598892001435,1188.5598892001435,left,0.37691390002146363,11,1,0,99,0.15999999999999992,-0.32,left,0.2896900000050664,,,,,,,,,,,,,,,,,,,,,,,,,,,,,,,,,,,,,,,,,,,,,,,,,,,,,,,,,,,,LVTRZP,train_x,blue_star,bottom_right,2025-04-23_12h16.57.680,HideSeek_v1,2022.2.5,59.917912532312016,
,8,1,4,1,-4,0,21,,train_dim1_1,28,30,,,,2,0,2,0,,,,,,,,,0,0,0,0,0,27,27,27,4,0,4,0,,,,,,,,,,,,,,,,,,,,,,,,,,,,,,,,,,,,,,,,,,,,,,,,,,,,,,,,,,,,,,,,30,,,,,,,,1188.9369634999894,1188.9369634999894,1188.9369634999894,1188.9369634999894,1188.9369634999894,left,0.44357529981061816,11,1,0,99,0.07999999999999992,-0.32,left,0.3661294002085924,,,,,,,,,,,,,,,,,,,,,,,,,,,,,,,,,,,,,,,,,,,,,,,,,,,,,,,,,,,,LVTRZP,train_x,blue_star,bottom_right,2025-04-23_12h16.57.680,HideSeek_v1,2022.2.5,59.917912532312016,
,8,1,4,1,-4,0,21,,train_dim1_1,28,30,,,,2,0,2,0,,,,,,,,,0,0,0,0,0,27,27,27,5,0,5,0,,,,,,,,,,,,,,,,,,,,,,,,,,,,,,,,,,,,,,,,,,,,,,,,,,,,,,,,,,,,,,,,30,,,,,,,,1189.3874512002803,1189.3874512002803,1189.3874512002803,1189.3874512002803,1189.3874512002803,return,0.45990310003980994,11,1,0,0,0.07999999999999992,-0.32,return,0.38394050020724535,5,-71,0.07999999999999992,-0.32,,,,,,,,,,,,,,,,,,,,,,,,,,,,,,,,,,,,,,,,,,,,,,,,,,,,,,,,LVTRZP,train_x,blue_star,bottom_right,2025-04-23_12h16.57.680,HideSeek_v1,2022.2.5,59.917912532312016,
,9,0,8,0,-1,0,51,,train_dim1_1,29,30,,,,2,0,2,0,,,,,,,,,0,0,0,0,0,28,28,28,0,0,0,0,,,,,,,,,,,,,,,,,,,,,,,,,stimuli/alien_stimuli/51.png,,,,,,,,,,,,,,,,,,,,,,,,,,,,,stimuli/alien_stimuli/21.png,21,8,30,,,,,,,30,,,,,,,,1195.026599700097,1195.026599700097,1195.026599700097,1195.026599700097,1195.026599700097,left,1.5212364997714758,11,1,0,99,0.48000000000000004,-0.4,left,1.4287940999493003,,,,,1193.456827700138,1195.026599700097,0.16,-0.32,0.0,0.32,-0.32,0.16,0.32,0.16,-0.32,1191.4154119002633,1191.4154119002633,1191.4154119002633,1191.4154119002633,1191.4154119002633,1191.4154119002633,1191.4154119002633,1191.4154119002633,1191.4055372902194,2.1543908999301493,return,2.0200141998939216,,,,,,,,,,,,,,,,,,,,,,,,,,,,,,,,,LVTRZP,train_x,blue_star,bottom_right,2025-04-23_12h16.57.680,HideSeek_v1,2022.2.5,59.917912532312016,
,9,0,8,0,-1,0,51,,train_dim1_1,29,30,,,,2,0,2,0,,,,,,,,,0,0,0,0,0,28,28,28,1,0,1,0,,,,,,,,,,,,,,,,,,,,,,,,,,,,,,,,,,,,,,,,,,,,,,,,,,,,,,,,,,,,,,,,30,,,,,,,,1196.5426584002562,1196.5426584002562,1196.5426584002562,1196.5426584002562,1196.5426584002562,return,0.6428026999346912,12,0,0,1,0.48000000000000004,-0.4,return,0.552725600078702,5,-72,0.48000000000000004,-0.4,,,,,,,,,,,,,,,,,,,,,,,,,,,,,,,,,,,,,,,,,,,,,,,,,,,,,,,,LVTRZP,train_x,blue_star,bottom_right,2025-04-23_12h16.57.680,HideSeek_v1,2022.2.5,59.917912532312016,
,7,2,2,2,-5,0,11,,train_dim1_1,30,30,,,,2,0,2,0,,,,,,,,,0,0,0,0,0,29,29,29,0,0,0,0,,,,,,,,,,,,,,,,,,,,,,,,,stimuli/alien_stimuli/11.png,,,,,,,,,,,,,,,,,,,,,,,,,,,,,stimuli/alien_stimuli/51.png,51,9,31,,,,,,,30,,,,,,,,1201.5783725003712,1201.5783725003712,1201.5783725003712,1201.5783725003712,1201.5783725003712,left,1.104533700272441,12,0,0,99,0.32,-0.24,left,0.9918196001090109,,,,,1199.9953928999603,1201.5783725003712,0.48,-0.4,0.0,0.08,-0.4,0.48,0.52,0.48,-0.4,1198.7571161002852,1198.7571161002852,1198.7571161002852,1198.7571161002852,1198.7571161002852,1198.7571161002852,1198.7571161002852,1198.7571161002852,1198.745118790027,1.3527410002425313,return,1.2170902001671493,,,,,,,,,,,,,,,,,,,,,,,,,,,,,,,,,LVTRZP,train_x,blue_star,bottom_right,2025-04-23_12h16.57.680,HideSeek_v1,2022.2.5,59.917912532312016,
,7,2,2,2,-5,0,11,,train_dim1_1,30,30,,,,2,0,2,0,,,,,,,,,0,0,0,0,0,29,29,29,1,0,1,0,,,,,,,,,,,,,,,,,,,,,,,,,,,,,,,,,,,,,,,,,,,,,,,,,,,,,,,,,,,,,,,,30,,,,,,,,1202.6665933001786,1202.6665933001786,1202.6665933001786,1202.6665933001786,1202.6665933001786,left,0.5092996996827424,12,0,0,99,0.24,-0.24,left,0.4229092001914978,,,,,,,,,,,,,,,,,,,,,,,,,,,,,,,,,,,,,,,,,,,,,,,,,,,,,,,,,,,,LVTRZP,train_x,blue_star,bottom_right,2025-04-23_12h16.57.680,HideSeek_v1,2022.2.5,59.917912532312016,
,7,2,2,2,-5,0,11,,train_dim1_1,30,30,,,,2,0,2,0,,,,,,,,,0,0,0,0,0,29,29,29,2,0,2,0,,,,,,,,,,,,,,,,,,,,,,,,,,,,,,,,,,,,,,,,,,,,,,,,,,,,,,,,,,,,,,,,30,,,,,,,,1203.1821359000169,1203.1821359000169,1203.1821359000169,1203.1821359000169,1203.1821359000169,left,0.7273325002752244,12,0,0,99,0.15999999999999998,-0.24,left,0.6498390999622643,,,,,,,,,,,,,,,,,,,,,,,,,,,,,,,,,,,,,,,,,,,,,,,,,,,,,,,,,,,,LVTRZP,train_x,blue_star,bottom_right,2025-04-23_12h16.57.680,HideSeek_v1,2022.2.5,59.917912532312016,
,7,2,2,2,-5,0,11,,train_dim1_1,30,30,,,,2,0,2,0,,,,,,,,,0,0,0,0,0,29,29,29,3,0,3,0,,,,,,,,,,,,,,,,,,,,,,,,,,,,,,,,,,,,,,,,,,,,,,,,,,,,,,,,,,,,,,,,30,,,,,,,,1203.9163973000832,1203.9163973000832,1203.9163973000832,1203.9163973000832,1203.9163973000832,left,0.5769250998273492,12,0,0,99,0.07999999999999997,-0.24,left,0.49798989994451404,,,,,,,,,,,,,,,,,,,,,,,,,,,,,,,,,,,,,,,,,,,,,,,,,,,,,,,,,,,,LVTRZP,train_x,blue_star,bottom_right,2025-04-23_12h16.57.680,HideSeek_v1,2022.2.5,59.917912532312016,
,7,2,2,2,-5,0,11,,train_dim1_1,30,30,,,,2,0,2,0,,,,,,,,,0,0,0,0,0,29,29,29,4,0,4,0,,,,,,,,,,,,,,,,,,,,,,,,,,,,,,,,,,,,,,,,,,,,,,,,,,,,,,,,,,,,,,,,30,,,,,,,,1204.500907199923,1204.500907199923,1204.500907199923,1204.500907199923,1204.500907199923,left,0.5762665998190641,12,0,0,99,-2.7755575615628914e-17,-0.24,left,0.4843461997807026,,,,,,,,,,,,,,,,,,,,,,,,,,,,,,,,,,,,,,,,,,,,,,,,,,,,,,,,,,,,LVTRZP,train_x,blue_star,bottom_right,2025-04-23_12h16.57.680,HideSeek_v1,2022.2.5,59.917912532312016,
,7,2,2,2,-5,0,11,,train_dim1_1,30,30,,,,2,0,2,0,,,,,,,,,0,0,0,0,0,29,29,29,5,0,5,0,,,,,,,,,,,,,,,,,,,,,,,,,,,,,,,,,,,,,,,,,,,,,,,,,,,,,,,,,,,,,,,,30,,,,,,,,1205.0840508001857,1205.0840508001857,1205.0840508001857,1205.0840508001857,1205.0840508001857,return,0.5434999000281096,13,0,0,1,-2.7755575615628914e-17,-0.24,return,0.4589321999810636,5,-77,-2.7755575615628914e-17,-0.24,,,,,,,,,,,,,,,,,,,,,,,,,,,,,,,,,,,,,,,,,,,,,,,,,,,,,,,,LVTRZP,train_x,blue_star,bottom_right,2025-04-23_12h16.57.680,HideSeek_v1,2022.2.5,59.917912532312016,
,,,,,,,,,,,30,,,,2,0,2,0,,,,,,,,,,,,,,,,,,,,,,,,,,,,,,,,,,,,,,,,,,,,,,,,,,,,,,,,,,,,,,,,,,,,,,,,,,stimuli/alien_stimuli/11.png,11,7,32,21,0.7,0.5416666666666667,1,1,1,30,0,conditions/schedules/train_x_first/blue_star_00/bottom_right/inputTrain_2.1.xlsx,99,1,2,1,0,,,,,,,,,,,1,,,,,,,,,1208.0021807001904,1209.559093900025,0,-0.24,0.0,0.4,-0.24,0,0.2,0,-0.24,1207.193340500351,1207.193340500351,1207.193340500351,1207.193340500351,1207.193340500351,1207.193340500351,1207.193340500351,1207.193340500351,1207.1852117899807,0.919673700351268,return,0.786693500354886,0,0.9,0,1,13,,,,,,,,,,,,,,,,,,,,,,,,,,,,LVTRZP,train_x,blue_star,bottom_right,2025-04-23_12h16.57.680,HideSeek_v1,2022.2.5,59.917912532312016,
,,,,,,,,,,,,,,,3,0,3,0,0,0,0,0,,,,,,,,,,,,,,,,,,,,,,,,,,,,,,,conditions/schedules/train_x_first/blue_star_00/bottom_right/instructions/Slide17.png,conditions/schedules/train_x_first/blue_star_00/bottom_right/instructions/Audio17.wav,1209.559093900025,1209.5538294803353,17,"[8.111357900314033, 17.88257489958778, 16.67055909987539, 19.410707199946046, 5.38174910005182, 5.085727999918163, 5.8704188000410795, 11.83760379999876, 6.151327300351113, 6.601450700312853, 10.184802599716932, 12.489425899926573, 18.247601499781013, 12.494116900023073, 29.784009200055152, 23.282126700039953, 38.15668650018051]","[0.014319199603050947, 0.014085500035434961, 0.047532500233501196, 0.030675300396978855, 0.04890009993687272, 0.048803700134158134, 0.06511580012738705, 0.04699960025027394, 0.09579190006479621, 0.0640251999720931, 0.030257700011134148, 12.489432400092483, 18.247609599959105, 12.494124599732459, 29.78401659987867, 23.282134499866515, 38.15669339988381]",0,,,,,,,,,,,,,,,,,,,,,,,,,,,,,,,,,,,,,,,,,,,,,,,,,,,,,,,,,,,,,,,,,,,,,,,,,,,,,,,,,,,,,,,,,,,,,,,,,,,,,,,,,,,,,,,,,,,,,,,,,,,,LVTRZP,train_x,blue_star,bottom_right,2025-04-23_12h16.57.680,HideSeek_v1,2022.2.5,59.917912532312016,
,,,,,,,,,,,,,,,3,0,3,0,1,0,1,0,,,,,,,,,,,,,,,,,,,,,,,,,,,,,,,conditions/schedules/train_x_first/blue_star_00/bottom_right/instructions/Slide18.png,conditions/schedules/train_x_first/blue_star_00/bottom_right/instructions/Audio18.wav,1247.7797567001544,1247.7688027800993,18,"[8.111357900314033, 17.88257489958778, 16.67055909987539, 19.410707199946046, 5.38174910005182, 5.085727999918163, 5.8704188000410795, 11.83760379999876, 6.151327300351113, 6.601450700312853, 10.184802599716932, 12.489425899926573, 18.247601499781013, 12.494116900023073, 29.784009200055152, 23.282126700039953, 38.15668650018051, 6.074791599996388]","[0.014319199603050947, 0.014085500035434961, 0.047532500233501196, 0.030675300396978855, 0.04890009993687272, 0.048803700134158134, 0.06511580012738705, 0.04699960025027394, 0.09579190006479621, 0.0640251999720931, 0.030257700011134148, 12.489432400092483, 18.247609599959105, 12.494124599732459, 29.78401659987867, 23.282134499866515, 38.15669339988381, 6.074799599591643]",0,,,,,,,,,,,,,,,,,,,,,,,,,,,,,,,,,,,,,,,,,,,,,,,,,,,,,,,,,,,,,,,,,,,,,,,,,,,,,,,,,,,,,,,,,,,,,,,,,,,,,,,,,,,,,,,,,,,,,,,,,,,,LVTRZP,train_x,blue_star,bottom_right,2025-04-23_12h16.57.680,HideSeek_v1,2022.2.5,59.917912532312016,
,,,,,,,,,,,,,,,3,0,3,0,2,0,2,0,,,,,,,,,,,,,,,,,,,,,,,,,,,,,,,conditions/schedules/train_x_first/blue_star_00/bottom_right/instructions/Slide19.png,conditions/schedules/train_x_first/blue_star_00/bottom_right/instructions/Audio19.wav,1253.906643900089,1253.9071885802784,19,"[8.111357900314033, 17.88257489958778, 16.67055909987539, 19.410707199946046, 5.38174910005182, 5.085727999918163, 5.8704188000410795, 11.83760379999876, 6.151327300351113, 6.601450700312853, 10.184802599716932, 12.489425899926573, 18.247601499781013, 12.494116900023073, 29.784009200055152, 23.282126700039953, 38.15668650018051, 6.074791599996388, 10.057074300013483]","[0.014319199603050947, 0.014085500035434961, 0.047532500233501196, 0.030675300396978855, 0.04890009993687272, 0.048803700134158134, 0.06511580012738705, 0.04699960025027394, 0.09579190006479621, 0.0640251999720931, 0.030257700011134148, 12.489432400092483, 18.247609599959105, 12.494124599732459, 29.78401659987867, 23.282134499866515, 38.15669339988381, 0.03167250007390976, 10.057081500068307]",0,,,,,,,,,,,,,,,,,,,,,,,,,,,,,,,,,,,,,,,,,,,,,,,,,,,,,,,,,,,,,,,,,,,,,,,,,,,,,,,,,,,,,,,,,,,,,,,,,,,,,,,,,,,,,,,,,,,,,,,,,,,,LVTRZP,train_x,blue_star,bottom_right,2025-04-23_12h16.57.680,HideSeek_v1,2022.2.5,59.917912532312016,
,,,,,,,,,,,,,,,3,0,3,0,3,0,3,0,,,,,,,,,,,,,,,,,,,,,,,,,,,,,,,conditions/schedules/train_x_first/blue_star_00/bottom_right/instructions/Slide20.png,conditions/schedules/train_x_first/blue_star_00/bottom_right/instructions/Audio20.wav,1264.0173866003752,1264.0159024800175,20,"[8.111357900314033, 17.88257489958778, 16.67055909987539, 19.410707199946046, 5.38174910005182, 5.085727999918163, 5.8704188000410795, 11.83760379999876, 6.151327300351113, 6.601450700312853, 10.184802599716932, 12.489425899926573, 18.247601499781013, 12.494116900023073, 29.784009200055152, 23.282126700039953, 38.15668650018051, 6.074791599996388, 10.057074300013483, 13.673651499673724]","[0.014319199603050947, 0.014085500035434961, 0.047532500233501196, 0.030675300396978855, 0.04890009993687272, 0.048803700134158134, 0.06511580012738705, 0.04699960025027394, 0.09579190006479621, 0.0640251999720931, 0.030257700011134148, 12.489432400092483, 18.247609599959105, 12.494124599732459, 29.78401659987867, 23.282134499866515, 38.15669339988381, 0.03167250007390976, 0.06272719986736774, 13.673658600077033]",0,,,,,,,,,,,,,,,,,,,,,,,,,,,,,,,,,,,,,,,,,,,,,,,,,,,,,,,,,,,,,,,,,,,,,,,,,,,,,,,,,,,,,,,,,,,,,,,,,,,,,,,,,,,,,,,,,,,,,,,,,,,,LVTRZP,train_x,blue_star,bottom_right,2025-04-23_12h16.57.680,HideSeek_v1,2022.2.5,59.917912532312016,
1,5,3,5,8,0,5,66,2,instr_dim1_2,,,,,,3,0,3,0,,,,,0,0,0,0,,,,,,,,,,,,,,,,,,,,,,,,,,,,,,,,,,,,,stimuli/alien_stimuli/66.png,conditions/schedules/train_x_first/blue_star_00/bottom_right/inputInstr_2.xlsx,stimuli/alien_stimuli/66.png,1277.7838433999568,1277.7838433999568,1277.7838433999568,1277.7838433999568,1277.7772595203483,return,10.202399199828506,"[-0.16, -0.08, 0, 0.08, 0.16, 0.24, 0.32, 0.4, 0.48, 0.56]","[-0.4, -0.32, -0.24, -0.16, -0.08, 0, 0.08, 0.16, 0.24, 0.32]",8,3,5,5,0.4,0.0,1288.1405507000163,1288.1405507000163,1288.1405507000163,1288.1405507000163,1288.1405507000163,1288.1405507000163,1288.1405507000163,1288.1358196603135,7.090444100089371,return,6.944124300032854,stimuli/alien_stimuli/66.png,66,5,1,,,,,,,,,,,,,,,,,,,,,,,,,,,,,,,,,,,,,,,,,,,,,,,,,,,,,,,,,,,,,,,,,,,,,,,,,,,,,,,,,,,,,,,,,LVTRZP,train_x,blue_star,bottom_right,2025-04-23_12h16.57.680,HideSeek_v1,2022.2.5,59.917912532312016,
,,,,,,,,,,,30,,,,3,0,3,0,,,,,,,,,,,,,,,,,,,,,,,,,,,,,,,,,,,,,,,,,,,,,,,,,,,,,,,,,,,,,,,,,,,,,,,,,,,,,,21,0.7,0.5416666666666667,1,99,2,30,0,conditions/schedules/train_x_first/blue_star_00/bottom_right/inputTrain_2.1.xlsx,99,1,2,1,0,,,,,,,,,,,,,,,,,,,,,,,,,,,,,,,,,,,,,,,,,,,,,,,,,,,,,,,,,,,,,,,,,,,,,,,,,,,LVTRZP,train_x,blue_star,bottom_right,2025-04-23_12h16.57.680,HideSeek_v1,2022.2.5,59.917912532312016,
