trialInstr,x_fixStart,y_fixStart,x_corrSteps,y_corrSteps,x_nrSteps,y_nrSteps,alienID,trialLength,version,trialTrain,praclen,testlen,trial_label,break_on_off,beforeExpLoop.thisRepN,beforeExpLoop.thisTrialN,beforeExpLoop.thisN,beforeExpLoop.thisIndex,mini_instr_trials.thisRepN,mini_instr_trials.thisTrialN,mini_instr_trials.thisN,mini_instr_trials.thisIndex,instrLoop.thisRepN,instrLoop.thisTrialN,instrLoop.thisN,instrLoop.thisIndex,repeat_prac.thisRepN,repeat_prac.thisTrialN,repeat_prac.thisN,repeat_prac.thisIndex,trainLoop.thisRepN,trainLoop.thisTrialN,trainLoop.thisN,trainLoop.thisIndex,moveLoop_train.thisRepN,moveLoop_train.thisTrialN,moveLoop_train.thisN,moveLoop_train.thisIndex,experiment.thisRepN,experiment.thisTrialN,experiment.thisN,experiment.thisIndex,moveLoop_test.thisRepN,moveLoop_test.thisTrialN,moveLoop_test.thisN,moveLoop_test.thisIndex,mini_instr2_trials.thisRepN,mini_instr2_trials.thisTrialN,mini_instr2_trials.thisN,mini_instr2_trials.thisIndex,start_all_time,url,slideStim,audioStim,slides.started,sounds.started,nextButton.numClicks,nextButton.timesOn,nextButton.timesOff,prev_but.numClicks,prev_but.timesOn,prev_but.timesOff,alienStim,instrFile,alienStim_instr,gridImage_instr.started,startPos_3.started,key_instr.started,alienImage_3.started,sounds_1.started,key_instr.keys,key_instr.rt,all_x,all_y,FBy_corrSteps,FBy_fixStart,FBx_corrSteps,FBx_fixStart,FBy_pathSize_check,FBx_pathSize_check,gridImage_9.started,alienImageFB_3.started,startPosFB_3.started,keyFB_3.started,pathLine_ydir_2.started,pathLine_xdir_2.started,alienFace_3.started,sounds_2.started,RTFB_instr,keyFB_3.keys,keyFB_3.rt,draw_alienStim,draw_alienID,test_x,nrepcount,perfthres,percthres,earlierperf,earlystop,nextPrac,fileidx,praclen,saveACC_train,pracFile,nextPrac_train,addNrep,fileidx_endr,repExp,showearly,gridImage_4.started,startPos.started,movePos.started,key_resp.started,alienImage.started,buttonPress_train,RTchoice_train,cumAcctrain,aCorr,saveACC_choice,corrAns,x_movePos_end,y_movePos_end,key_resp.keys,key_resp.rt,wLy_dir,wLx_dir,x_movePos,y_movePos,text_2.started,text_2.stopped,aft_x_corrPos,aft_y_corrPos,y_pathSize_check,x_pathSize_check,y_pathdirY,x_pathdirY,x_pathdirX,x_corrPos,y_corrPos,gridImage_6.started,alienImageFB_2.started,startPosFB_2.started,movePosFB_2.started,keyFB_2.started,pathLine_xdir.started,pathLine_ydir.started,alienFace.started,sounds_4.started,RT_FBtrain,keyFB_2.keys,keyFB_2.rt,saveACC_pre,ACC,within_saveACC_train,earlystop_wloop,cumAcctrain_check,gridImage_3.started,alienImage_test.started,startPos_test.started,movePos_test.started,key_resp_test.started,wLy_dir_test,wLx_dir_test,buttonPress_test,RTchoice_test,cumAcctest,corrAns_test,key_resp_test.keys,key_resp_test.rt,text_3.started,text_3.stopped,total_time,end_all_time,key_resp_3.keys,slides_2.started,sounds_3.started,nextButton_2.numClicks,nextButton_2.timesOn,nextButton_2.timesOff,prev_but_2.numClicks,prev_but_2.timesOn,prev_but_2.timesOff,bye.started,participant,train_first,00_coordinate,starting corner,date,expName,psychopyVersion,frameRate,
,,,,,,,,,,,,,,,0,0,0,0,0,0,0,0,,,,,,,,,,,,,,,,,,,,,,,,,,,,,start_all_time,testround,conditions/schedules/train_y_first/blue_star_00/bottom_left/instructions/Slide1.png,conditions/schedules/train_y_first/blue_star_00/bottom_left/instructions/Audio1.wav,2275.210053600371,2275.1608513044193,1,[3.6270082998089492],[3.6270165001042187],0,,,,,,,,,,,,,,,,,,,,,,,,,,,,,,,,,,,,,,,,,,,,,,,,,,,,,,,,,,,,,,,,,,,,,,,,,,,,,,,,,,,,,,,,,,,,,,,,,,,,,,,,,,,,,,,,,,,,,,,,,,,,M1WG0K,train_y,blue_star,bottom_left,2025-04-29_17h19.24.094,HideSeek_v1,2022.2.5,59.963110692633514,
,,,,,,,,,,,,,,,0,0,0,0,1,0,1,0,,,,,,,,,,,,,,,,,,,,,,,,,,,,,,,conditions/schedules/train_y_first/blue_star_00/bottom_left/instructions/Slide2.png,conditions/schedules/train_y_first/blue_star_00/bottom_left/instructions/Audio2.wav,2278.8599081002176,2278.861690300517,2,"[3.6270082998089492, 18.74781779991463]","[3.6270165001042187, 18.747824399732053]",0,,,,,,,,,,,,,,,,,,,,,,,,,,,,,,,,,,,,,,,,,,,,,,,,,,,,,,,,,,,,,,,,,,,,,,,,,,,,,,,,,,,,,,,,,,,,,,,,,,,,,,,,,,,,,,,,,,,,,,,,,,,,M1WG0K,train_y,blue_star,bottom_left,2025-04-29_17h19.24.094,HideSeek_v1,2022.2.5,59.963110692633514,
,,,,,,,,,,,,,,,0,0,0,0,2,0,2,0,,,,,,,,,,,,,,,,,,,,,,,,,,,,,,,conditions/schedules/train_y_first/blue_star_00/bottom_left/instructions/Slide3.png,conditions/schedules/train_y_first/blue_star_00/bottom_left/instructions/Audio3.wav,2297.683592800051,2297.6771905003116,3,"[3.6270082998089492, 18.74781779991463, 17.33918339991942]","[3.6270165001042187, 0.00023079989477992058, 17.339190299622715]",0,,,,,,,,,,,,,,,,,,,,,,,,,,,,,,,,,,,,,,,,,,,,,,,,,,,,,,,,,,,,,,,,,,,,,,,,,,,,,,,,,,,,,,,,,,,,,,,,,,,,,,,,,,,,,,,,,,,,,,,,,,,,M1WG0K,train_y,blue_star,bottom_left,2025-04-29_17h19.24.094,HideSeek_v1,2022.2.5,59.963110692633514,
,,,,,,,,,,,,,,,0,0,0,0,3,0,3,0,,,,,,,,,,,,,,,,,,,,,,,,,,,,,,,conditions/schedules/train_y_first/blue_star_00/bottom_left/instructions/Slide4.png,conditions/schedules/train_y_first/blue_star_00/bottom_left/instructions/Audio4.wav,2315.099167800043,2315.0916567002423,4,"[3.6270082998089492, 18.74781779991463, 17.33918339991942, 19.28995080012828]","[3.6270165001042187, 0.00023079989477992058, 0.014480500016361475, 19.289958599954844]",0,,,,,,,,,,,,,,,,,,,,,,,,,,,,,,,,,,,,,,,,,,,,,,,,,,,,,,,,,,,,,,,,,,,,,,,,,,,,,,,,,,,,,,,,,,,,,,,,,,,,,,,,,,,,,,,,,,,,,,,,,,,,M1WG0K,train_y,blue_star,bottom_left,2025-04-29_17h19.24.094,HideSeek_v1,2022.2.5,59.963110692633514,
,,,,,,,,,,,,,,,0,0,0,0,4,0,4,0,,,,,,,,,,,,,,,,,,,,,,,,,,,,,,,conditions/schedules/train_y_first/blue_star_00/bottom_left/instructions/Slide5.png,conditions/schedules/train_y_first/blue_star_00/bottom_left/instructions/Audio5.wav,2334.4496959000826,2334.4412400004453,5,"[3.6270082998089492, 18.74781779991463, 17.33918339991942, 19.28995080012828, 4.275709299836308]","[3.6270165001042187, 0.00023079989477992058, 0.014480500016361475, 0.013832800090312958, 4.275716799777001]",0,,,,,,,,,,,,,,,,,,,,,,,,,,,,,,,,,,,,,,,,,,,,,,,,,,,,,,,,,,,,,,,,,,,,,,,,,,,,,,,,,,,,,,,,,,,,,,,,,,,,,,,,,,,,,,,,,,,,,,,,,,,,M1WG0K,train_y,blue_star,bottom_left,2025-04-29_17h19.24.094,HideSeek_v1,2022.2.5,59.963110692633514,
,,,,,,,,,,,,,,,0,0,0,0,5,0,5,0,,,,,,,,,,,,,,,,,,,,,,,,,,,,,,,conditions/schedules/train_y_first/blue_star_00/bottom_left/instructions/Slide6.png,conditions/schedules/train_y_first/blue_star_00/bottom_left/instructions/Audio6.wav,2338.7765456000343,2338.7782989003695,6,"[3.6270082998089492, 18.74781779991463, 17.33918339991942, 19.28995080012828, 4.275709299836308, 4.602804900147021]","[3.6270165001042187, 0.00023079989477992058, 0.014480500016361475, 0.013832800090312958, 0.013842000160366297, 4.602811499964446]",0,,,,,,,,,,,,,,,,,,,,,,,,,,,,,,,,,,,,,,,,,,,,,,,,,,,,,,,,,,,,,,,,,,,,,,,,,,,,,,,,,,,,,,,,,,,,,,,,,,,,,,,,,,,,,,,,,,,,,,,,,,,,M1WG0K,train_y,blue_star,bottom_left,2025-04-29_17h19.24.094,HideSeek_v1,2022.2.5,59.963110692633514,
,,,,,,,,,,,,,,,0,0,0,0,6,0,6,0,,,,,,,,,,,,,,,,,,,,,,,,,,,,,,,conditions/schedules/train_y_first/blue_star_00/bottom_left/instructions/Slide7.png,conditions/schedules/train_y_first/blue_star_00/bottom_left/instructions/Audio7.wav,2343.4308343003504,2343.4321225000544,7,"[3.6270082998089492, 18.74781779991463, 17.33918339991942, 19.28995080012828, 4.275709299836308, 4.602804900147021, 5.586467199958861]","[3.6270165001042187, 0.00023079989477992058, 0.014480500016361475, 0.013832800090312958, 0.013842000160366297, 0.03154100012034178, 5.586473600007594]",0,,,,,,,,,,,,,,,,,,,,,,,,,,,,,,,,,,,,,,,,,,,,,,,,,,,,,,,,,,,,,,,,,,,,,,,,,,,,,,,,,,,,,,,,,,,,,,,,,,,,,,,,,,,,,,,,,,,,,,,,,,,,M1WG0K,train_y,blue_star,bottom_left,2025-04-29_17h19.24.094,HideSeek_v1,2022.2.5,59.963110692633514,
,,,,,,,,,,,,,,,0,0,0,0,7,0,7,0,,,,,,,,,,,,,,,,,,,,,,,,,,,,,,,conditions/schedules/train_y_first/blue_star_00/bottom_left/instructions/Slide8.png,conditions/schedules/train_y_first/blue_star_00/bottom_left/instructions/Audio8.wav,2349.0885278000496,2349.0867278003134,8,"[3.6270082998089492, 18.74781779991463, 17.33918339991942, 19.28995080012828, 4.275709299836308, 4.602804900147021, 5.586467199958861, 11.871565999928862]","[3.6270165001042187, 0.00023079989477992058, 0.014480500016361475, 0.013832800090312958, 0.013842000160366297, 0.03154100012034178, 0.01353910006582737, 11.871572100091726]",0,,,,,,,,,,,,,,,,,,,,,,,,,,,,,,,,,,,,,,,,,,,,,,,,,,,,,,,,,,,,,,,,,,,,,,,,,,,,,,,,,,,,,,,,,,,,,,,,,,,,,,,,,,,,,,,,,,,,,,,,,,,,M1WG0K,train_y,blue_star,bottom_left,2025-04-29_17h19.24.094,HideSeek_v1,2022.2.5,59.963110692633514,
,,,,,,,,,,,,,,,0,0,0,0,8,0,8,0,,,,,,,,,,,,,,,,,,,,,,,,,,,,,,,conditions/schedules/train_y_first/blue_star_00/bottom_left/instructions/Slide9.png,conditions/schedules/train_y_first/blue_star_00/bottom_left/instructions/Audio9.wav,2361.0121772000566,2361.0133067000656,9,"[3.6270082998089492, 18.74781779991463, 17.33918339991942, 19.28995080012828, 4.275709299836308, 4.602804900147021, 5.586467199958861, 11.871565999928862, 6.2708219001069665]","[3.6270165001042187, 0.00023079989477992058, 0.014480500016361475, 0.013832800090312958, 0.013842000160366297, 0.03154100012034178, 0.01353910006582737, 0.06546240020543337, 6.270831299945712]",0,,,,,,,,,,,,,,,,,,,,,,,,,,,,,,,,,,,,,,,,,,,,,,,,,,,,,,,,,,,,,,,,,,,,,,,,,,,,,,,,,,,,,,,,,,,,,,,,,,,,,,,,,,,,,,,,,,,,,,,,,,,,M1WG0K,train_y,blue_star,bottom_left,2025-04-29_17h19.24.094,HideSeek_v1,2022.2.5,59.963110692633514,
,,,,,,,,,,,,,,,0,0,0,0,9,0,9,0,,,,,,,,,,,,,,,,,,,,,,,,,,,,,,,conditions/schedules/train_y_first/blue_star_00/bottom_left/instructions/Slide10.png,conditions/schedules/train_y_first/blue_star_00/bottom_left/instructions/Audio10.wav,2367.339663500432,2367.3351607000454,10,"[3.6270082998089492, 18.74781779991463, 17.33918339991942, 19.28995080012828, 4.275709299836308, 4.602804900147021, 5.586467199958861, 11.871565999928862, 6.2708219001069665, 6.898618400096893]","[3.6270165001042187, 0.00023079989477992058, 0.014480500016361475, 0.013832800090312958, 0.013842000160366297, 0.03154100012034178, 0.01353910006582737, 0.06546240020543337, 0.013718000147491693, 6.898624999914318]",0,,,,,,,,,,,,,,,,,,,,,,,,,,,,,,,,,,,,,,,,,,,,,,,,,,,,,,,,,,,,,,,,,,,,,,,,,,,,,,,,,,,,,,,,,,,,,,,,,,,,,,,,,,,,,,,,,,,,,,,,,,,,M1WG0K,train_y,blue_star,bottom_left,2025-04-29_17h19.24.094,HideSeek_v1,2022.2.5,59.963110692633514,
,,,,,,,,,,,,,,,0,0,0,0,10,0,10,0,,,,,,,,,,,,,,,,,,,,,,,,,,,,,,,conditions/schedules/train_y_first/blue_star_00/bottom_left/instructions/Slide11.png,conditions/schedules/train_y_first/blue_star_00/bottom_left/instructions/Audio11.wav,2374.2977833002806,2374.291115000285,11,"[3.6270082998089492, 18.74781779991463, 17.33918339991942, 19.28995080012828, 4.275709299836308, 4.602804900147021, 5.586467199958861, 11.871565999928862, 6.2708219001069665, 6.898618400096893, 10.065549099817872]","[3.6270165001042187, 0.00023079989477992058, 0.014480500016361475, 0.013832800090312958, 0.013842000160366297, 0.03154100012034178, 0.01353910006582737, 0.06546240020543337, 0.013718000147491693, 0.056868599727749825, 10.065555700100958]",0,,,,,,,,,,,,,,,,,,,,,,,,,,,,,,,,,,,,,,,,,,,,,,,,,,,,,,,,,,,,,,,,,,,,,,,,,,,,,,,,,,,,,,,,,,,,,,,,,,,,,,,,,,,,,,,,,,,,,,,,,,,,M1WG0K,train_y,blue_star,bottom_left,2025-04-29_17h19.24.094,HideSeek_v1,2022.2.5,59.963110692633514,
,,,,,,,,,,,,,,,0,0,0,0,11,0,11,0,,,,,,,,,,,,,,,,,,,,,,,,,,,,,,,conditions/schedules/train_y_first/blue_star_00/bottom_left/instructions/Slide12.png,conditions/schedules/train_y_first/blue_star_00/bottom_left/instructions/Audio12.wav,2384.4273252002895,2384.4162285001016,12,"[3.6270082998089492, 18.74781779991463, 17.33918339991942, 19.28995080012828, 4.275709299836308, 4.602804900147021, 5.586467199958861, 11.871565999928862, 6.2708219001069665, 6.898618400096893, 10.065549099817872, 13.747006400022656]","[3.6270165001042187, 0.00023079989477992058, 0.014480500016361475, 0.013832800090312958, 0.013842000160366297, 0.03154100012034178, 0.01353910006582737, 0.06546240020543337, 0.013718000147491693, 0.056868599727749825, 0.0522516998462379, 13.747012800071388]",0,,,,,,,,,,,,,,,,,,,,,,,,,,,,,,,,,,,,,,,,,,,,,,,,,,,,,,,,,,,,,,,,,,,,,,,,,,,,,,,,,,,,,,,,,,,,,,,,,,,,,,,,,,,,,,,,,,,,,,,,,,,,M1WG0K,train_y,blue_star,bottom_left,2025-04-29_17h19.24.094,HideSeek_v1,2022.2.5,59.963110692633514,
1,0,3,0,8,0,5,66,2,instr_dim1_1,,,,,,0,0,0,0,,,,,0,0,0,0,,,,,,,,,,,,,,,,,,,,,,,,,,,,,,,,,,,,,stimuli/alien_stimuli/66.png,conditions/schedules/train_y_first/blue_star_00/bottom_left/inputInstr_1.xlsx,stimuli/alien_stimuli/66.png,2398.275417300407,2398.275417300407,2398.275417300407,2398.275417300407,2398.277440000512,return,12.855393999721855,"[-0.16, -0.08, 0, 0.08, 0.16, 0.24, 0.32, 0.4, 0.48, 0.56]","[-0.4, -0.32, -0.24, -0.16, -0.08, 0, 0.08, 0.16, 0.24, 0.32]",8,3,0,0,0.4,0.0,2411.292201900389,2411.292201900389,2411.292201900389,2411.292201900389,2411.292201900389,2411.292201900389,2411.292201900389,2411.2880105002782,9.842649100348353,return,9.684175299946219,stimuli/alien_stimuli/66.png,66,0,1,,,,,,,,,,,,,,,,,,,,,,,,,,,,,,,,,,,,,,,,,,,,,,,,,,,,,,,,,,,,,,,,,,,,,,,,,,,,,,,,,,,,,,,,,M1WG0K,train_y,blue_star,bottom_left,2025-04-29_17h19.24.094,HideSeek_v1,2022.2.5,59.963110692633514,
,,,,,,,,,,,30,,,,0,0,0,0,,,,,,,,,,,,,,,,,,,,,,,,,,,,,,,,,,,,,,,,,,,,,,,,,,,,,,,,,,,,,,,,,,,,,,,,,,,,,,21,0.7,0,0,99,1,30,0,conditions/schedules/train_y_first/blue_star_00/bottom_left/inputTrain_1.1.xlsx,99,1,1,1,0,,,,,,,,,,,,,,,,,,,,,,,,,,,,,,,,,,,,,,,,,,,,,,,,,,,,,,,,,,,,,,,,,,,,,,,,,,,M1WG0K,train_y,blue_star,bottom_left,2025-04-29_17h19.24.094,HideSeek_v1,2022.2.5,59.963110692633514,
,,,,,,,,,,,,,,,1,0,1,0,0,0,0,0,,,,,,,,,,,,,,,,,,,,,,,,,,,,,,,conditions/schedules/train_y_first/blue_star_00/bottom_left/instructions/Slide13.png,conditions/schedules/train_y_first/blue_star_00/bottom_left/instructions/Audio13.wav,2421.1434606001712,2421.1465023001656,13,"[3.6270082998089492, 18.74781779991463, 17.33918339991942, 19.28995080012828, 4.275709299836308, 4.602804900147021, 5.586467199958861, 11.871565999928862, 6.2708219001069665, 6.898618400096893, 10.065549099817872, 13.747006400022656, 18.815621699672192]","[3.6270165001042187, 0.00023079989477992058, 0.014480500016361475, 0.013832800090312958, 0.013842000160366297, 0.03154100012034178, 0.01353910006582737, 0.06546240020543337, 0.013718000147491693, 0.056868599727749825, 0.0522516998462379, 13.747012800071388, 18.815628399606794]",0,,,,,,,,,,,,,,,,,,,,,,,,,,,,,,,,,,,,,,,,,,,,,,,,,,,,,,,,,,,,,,,,,,,,,,,,,,,,,,,,,,,,,,,,,,,,,,,,,,,,,,,,,,,,,,,,,,,,,,,,,,,,M1WG0K,train_y,blue_star,bottom_left,2025-04-29_17h19.24.094,HideSeek_v1,2022.2.5,59.963110692633514,
,,,,,,,,,,,,,,,1,0,1,0,1,0,1,0,,,,,,,,,,,,,,,,,,,,,,,,,,,,,,,conditions/schedules/train_y_first/blue_star_00/bottom_left/instructions/Slide14.png,conditions/schedules/train_y_first/blue_star_00/bottom_left/instructions/Audio14.wav,2440.0354190003127,2440.028674200177,14,"[3.6270082998089492, 18.74781779991463, 17.33918339991942, 19.28995080012828, 4.275709299836308, 4.602804900147021, 5.586467199958861, 11.871565999928862, 6.2708219001069665, 6.898618400096893, 10.065549099817872, 13.747006400022656, 18.815621699672192, 16.42152989981696]","[3.6270165001042187, 0.00023079989477992058, 0.014480500016361475, 0.013832800090312958, 0.013842000160366297, 0.03154100012034178, 0.01353910006582737, 0.06546240020543337, 0.013718000147491693, 0.056868599727749825, 0.0522516998462379, 13.747012800071388, 18.815628399606794, 16.421540999785066]",0,,,,,,,,,,,,,,,,,,,,,,,,,,,,,,,,,,,,,,,,,,,,,,,,,,,,,,,,,,,,,,,,,,,,,,,,,,,,,,,,,,,,,,,,,,,,,,,,,,,,,,,,,,,,,,,,,,,,,,,,,,,,M1WG0K,train_y,blue_star,bottom_left,2025-04-29_17h19.24.094,HideSeek_v1,2022.2.5,59.963110692633514,
2,2,3,2,3,0,0,61,2,instr_dim1_1,,,,,,1,0,1,0,,,,,0,0,0,0,,,,,,,,,,,,,,,,,,,,,,,,,,,,,,,,,,,,,stimuli/alien_stimuli/61.png,conditions/schedules/train_y_first/blue_star_00/bottom_left/inputInstr_1.xlsx,stimuli/alien_stimuli/61.png,2456.5530799999833,2456.5530799999833,2456.5530799999833,2456.5530799999833,2456.542829500139,return,5.777237900067121,"[-0.16, -0.08, 0, 0.08, 0.16, 0.24, 0.32, 0.4, 0.48, 0.56]","[-0.4, -0.32, -0.24, -0.16, -0.08, 0, 0.08, 0.16, 0.24, 0.32]",3,3,2,2,0.0,0.0,2462.4824324999936,2462.4824324999936,2462.4824324999936,2462.4824324999936,2462.4824324999936,2462.4824324999936,2462.4824324999936,2462.4805568004026,15.380213699769229,return,15.214937299955636,stimuli/alien_stimuli/61.png,61,2,2,,,,,,,,,,,,,,,,,,,,,,,,,,,,,,,,,,,,,,,,,,,,,,,,,,,,,,,,,,,,,,,,,,,,,,,,,,,,,,,,,,,,,,,,,M1WG0K,train_y,blue_star,bottom_left,2025-04-29_17h19.24.094,HideSeek_v1,2022.2.5,59.963110692633514,
,,,,,,,,,,,30,,,,1,0,1,0,,,,,,,,,,,,,,,,,,,,,,,,,,,,,,,,,,,,,,,,,,,,,,,,,,,,,,,,,,,,,,,,,,,,,,,,,,,,,,21,0.7,0,0,99,1,30,0,conditions/schedules/train_y_first/blue_star_00/bottom_left/inputTrain_1.1.xlsx,99,1,1,1,0,,,,,,,,,,,,,,,,,,,,,,,,,,,,,,,,,,,,,,,,,,,,,,,,,,,,,,,,,,,,,,,,,,,,,,,,,,,M1WG0K,train_y,blue_star,bottom_left,2025-04-29_17h19.24.094,HideSeek_v1,2022.2.5,59.963110692633514,
,,,,,,,,,,,,,,,2,0,2,0,0,0,0,0,,,,,,,,,,,,,,,,,,,,,,,,,,,,,,,conditions/schedules/train_y_first/blue_star_00/bottom_left/instructions/Slide15.png,conditions/schedules/train_y_first/blue_star_00/bottom_left/instructions/Audio15.wav,2477.877208000049,2477.8766408003867,15,"[3.6270082998089492, 18.74781779991463, 17.33918339991942, 19.28995080012828, 4.275709299836308, 4.602804900147021, 5.586467199958861, 11.871565999928862, 6.2708219001069665, 6.898618400096893, 10.065549099817872, 13.747006400022656, 18.815621699672192, 16.42152989981696, 42.44826010009274]","[3.6270165001042187, 0.00023079989477992058, 0.014480500016361475, 0.013832800090312958, 0.013842000160366297, 0.03154100012034178, 0.01353910006582737, 0.06546240020543337, 0.013718000147491693, 0.056868599727749825, 0.0522516998462379, 13.747012800071388, 18.815628399606794, 16.421540999785066, 42.44826709991321]",0,,,,,,,,,,,,,,,,,,,,,,,,,,,,,,,,,,,,,,,,,,,,,,,,,,,,,,,,,,,,,,,,,,,,,,,,,,,,,,,,,,,,,,,,,,,,,,,,,,,,,,,,,,,,,,,,,,,,,,,,,,,,M1WG0K,train_y,blue_star,bottom_left,2025-04-29_17h19.24.094,HideSeek_v1,2022.2.5,59.963110692633514,
,,,,,,,,,,,,,,,2,0,2,0,1,0,1,0,,,,,,,,,,,,,,,,,,,,,,,,,,,,,,,conditions/schedules/train_y_first/blue_star_00/bottom_left/instructions/Slide16.png,conditions/schedules/train_y_first/blue_star_00/bottom_left/instructions/Audio16.wav,2520.4033934003673,2520.3954256004654,16,"[3.6270082998089492, 18.74781779991463, 17.33918339991942, 19.28995080012828, 4.275709299836308, 4.602804900147021, 5.586467199958861, 11.871565999928862, 6.2708219001069665, 6.898618400096893, 10.065549099817872, 13.747006400022656, 18.815621699672192, 16.42152989981696, 42.44826010009274, 22.5082105002366]","[3.6270165001042187, 0.00023079989477992058, 0.014480500016361475, 0.013832800090312958, 0.013842000160366297, 0.03154100012034178, 0.01353910006582737, 0.06546240020543337, 0.013718000147491693, 0.056868599727749825, 0.0522516998462379, 13.747012800071388, 18.815628399606794, 16.421540999785066, 0.035809800028800964, 22.50821670005098]",0,,,,,,,,,,,,,,,,,,,,,,,,,,,,,,,,,,,,,,,,,,,,,,,,,,,,,,,,,,,,,,,,,,,,,,,,,,,,,,,,,,,,,,,,,,,,,,,,,,,,,,,,,,,,,,,,,,,,,,,,,,,,M1WG0K,train_y,blue_star,bottom_left,2025-04-29_17h19.24.094,HideSeek_v1,2022.2.5,59.963110692633514,
,0,0,0,4,0,4,65,,train_dim1_1,1,30,,,,2,0,2,0,,,,,,,,,0,0,0,0,0,0,0,0,0,0,0,0,,,,,,,,,,,,,,,,,,,,,,,,,stimuli/alien_stimuli/65.png,,,,,,,,,,,,,,,,,,,,,,,,,,,,,,,,,,,,,,,30,,,,,,,,2543.010415600147,2543.010415600147,2543.010415600147,2543.010415600147,2543.010415600147,up,34.7585228998214,0,0,0,99,-0.16,-0.32,up,34.65423389989883,,,,,,,,,,,,,,,,,,,,,,,,,,,,,,,,,,,,,,,,,,,,,,,,,,,,,,,,,,,,M1WG0K,train_y,blue_star,bottom_left,2025-04-29_17h19.24.094,HideSeek_v1,2022.2.5,59.963110692633514,
,0,0,0,4,0,4,65,,train_dim1_1,1,30,,,,2,0,2,0,,,,,,,,,0,0,0,0,0,0,0,0,1,0,1,0,,,,,,,,,,,,,,,,,,,,,,,,,,,,,,,,,,,,,,,,,,,,,,,,,,,,,,,,,,,,,,,,30,,,,,,,,2577.7747492003255,2577.7747492003255,2577.7747492003255,2577.7747492003255,2577.7747492003255,right,5.780445900280029,0,0,0,99,-0.08,-0.32,right,5.680104200262576,,,,,,,,,,,,,,,,,,,,,,,,,,,,,,,,,,,,,,,,,,,,,,,,,,,,,,,,,,,,M1WG0K,train_y,blue_star,bottom_left,2025-04-29_17h19.24.094,HideSeek_v1,2022.2.5,59.963110692633514,
,0,0,0,4,0,4,65,,train_dim1_1,1,30,,,,2,0,2,0,,,,,,,,,0,0,0,0,0,0,0,0,2,0,2,0,,,,,,,,,,,,,,,,,,,,,,,,,,,,,,,,,,,,,,,,,,,,,,,,,,,,,,,,,,,,,,,,30,,,,,,,,2583.545263700187,2583.545263700187,2583.545263700187,2583.545263700187,2583.545263700187,return,2.2282940996810794,0,0,0,0,-0.08,-0.32,return,2.142511300276965,1,1,-0.08,-0.32,,,,,,,,,,,,,,,,,,,,,,,,,,,,,,,,,,,,,,,,,,,,,,,,,,,,,,,,M1WG0K,train_y,blue_star,bottom_left,2025-04-29_17h19.24.094,HideSeek_v1,2022.2.5,59.963110692633514,
,3,2,3,7,0,5,66,,train_dim1_1,2,30,,,,2,0,2,0,,,,,,,,,0,0,0,0,0,1,1,1,0,0,0,0,,,,,,,,,,,,,,,,,,,,,,,,,stimuli/alien_stimuli/66.png,,,,,,,,,,,,,,,,,,,,,,,,,,,,,stimuli/alien_stimuli/65.png,65,0,3,,,,,,,30,,,,,,,,2609.422035700176,2609.422035700176,2609.422035700176,2609.422035700176,2609.422035700176,left,9.779877800028771,0,0,0,99,0.0,-0.24,left,9.679937500040978,,,,,2607.8516018004157,2609.422035700176,-0.16,-0.08,0.32,0.0,-0.24000000000000002,-0.16,-0.16,-0.16,-0.08,2587.348858500365,2587.348858500365,2587.348858500365,2587.348858500365,2587.348858500365,2587.348858500365,2587.348858500365,2587.348858500365,2587.3345979002306,20.619495700113475,return,20.4804401001893,,,,,,,,,,,,,,,,,,,,,,,,,,,,,,,,,M1WG0K,train_y,blue_star,bottom_left,2025-04-29_17h19.24.094,HideSeek_v1,2022.2.5,59.963110692633514,
,3,2,3,7,0,5,66,,train_dim1_1,2,30,,,,2,0,2,0,,,,,,,,,0,0,0,0,0,1,1,1,1,0,1,0,,,,,,,,,,,,,,,,,,,,,,,,,,,,,,,,,,,,,,,,,,,,,,,,,,,,,,,,,,,,,,,,30,,,,,,,,2619.2032150002196,2619.2032150002196,2619.2032150002196,2619.2032150002196,2619.2032150002196,right,14.104587400332093,0,0,0,99,0.08,-0.24,right,14.018419499974698,,,,,,,,,,,,,,,,,,,,,,,,,,,,,,,,,,,,,,,,,,,,,,,,,,,,,,,,,,,,M1WG0K,train_y,blue_star,bottom_left,2025-04-29_17h19.24.094,HideSeek_v1,2022.2.5,59.963110692633514,
,3,2,3,7,0,5,66,,train_dim1_1,2,30,,,,2,0,2,0,,,,,,,,,0,0,0,0,0,1,1,1,2,0,2,0,,,,,,,,,,,,,,,,,,,,,,,,,,,,,,,,,,,,,,,,,,,,,,,,,,,,,,,,,,,,,,,,30,,,,,,,,2633.3253799001686,2633.3253799001686,2633.3253799001686,2633.3253799001686,2633.3253799001686,up,2.6923035997897387,0,0,0,99,0.08,-0.15999999999999998,up,2.5993510000407696,,,,,,,,,,,,,,,,,,,,,,,,,,,,,,,,,,,,,,,,,,,,,,,,,,,,,,,,,,,,M1WG0K,train_y,blue_star,bottom_left,2025-04-29_17h19.24.094,HideSeek_v1,2022.2.5,59.963110692633514,
,3,2,3,7,0,5,66,,train_dim1_1,2,30,,,,2,0,2,0,,,,,,,,,0,0,0,0,0,1,1,1,3,0,3,0,,,,,,,,,,,,,,,,,,,,,,,,,,,,,,,,,,,,,,,,,,,,,,,,,,,,,,,,,,,,,,,,30,,,,,,,,2636.005752700381,2636.005752700381,2636.005752700381,2636.005752700381,2636.005752700381,up,1.4442755999043584,0,0,0,99,0.08,-0.07999999999999997,up,1.368768300395459,,,,,,,,,,,,,,,,,,,,,,,,,,,,,,,,,,,,,,,,,,,,,,,,,,,,,,,,,,,,M1WG0K,train_y,blue_star,bottom_left,2025-04-29_17h19.24.094,HideSeek_v1,2022.2.5,59.963110692633514,
,3,2,3,7,0,5,66,,train_dim1_1,2,30,,,,2,0,2,0,,,,,,,,,0,0,0,0,0,1,1,1,4,0,4,0,,,,,,,,,,,,,,,,,,,,,,,,,,,,,,,,,,,,,,,,,,,,,,,,,,,,,,,,,,,,,,,,30,,,,,,,,2637.4556536003947,2637.4556536003947,2637.4556536003947,2637.4556536003947,2637.4556536003947,up,1.1775310998782516,0,0,0,99,0.08,2.7755575615628914e-17,up,1.0927428998984396,,,,,,,,,,,,,,,,,,,,,,,,,,,,,,,,,,,,,,,,,,,,,,,,,,,,,,,,,,,,M1WG0K,train_y,blue_star,bottom_left,2025-04-29_17h19.24.094,HideSeek_v1,2022.2.5,59.963110692633514,
,3,2,3,7,0,5,66,,train_dim1_1,2,30,,,,2,0,2,0,,,,,,,,,0,0,0,0,0,1,1,1,5,0,5,0,,,,,,,,,,,,,,,,,,,,,,,,,,,,,,,,,,,,,,,,,,,,,,,,,,,,,,,,,,,,,,,,30,,,,,,,,2638.639879000373,2638.639879000373,2638.639879000373,2638.639879000373,2638.639879000373,up,1.1436042999848723,0,0,0,99,0.08,0.08000000000000003,up,1.059016099665314,,,,,,,,,,,,,,,,,,,,,,,,,,,,,,,,,,,,,,,,,,,,,,,,,,,,,,,,,,,,M1WG0K,train_y,blue_star,bottom_left,2025-04-29_17h19.24.094,HideSeek_v1,2022.2.5,59.963110692633514,
,3,2,3,7,0,5,66,,train_dim1_1,2,30,,,,2,0,2,0,,,,,,,,,0,0,0,0,0,1,1,1,6,0,6,0,,,,,,,,,,,,,,,,,,,,,,,,,,,,,,,,,,,,,,,,,,,,,,,,,,,,,,,,,,,,,,,,30,,,,,,,,2639.7901143003255,2639.7901143003255,2639.7901143003255,2639.7901143003255,2639.7901143003255,up,1.344025700353086,0,0,0,99,0.08,0.16000000000000003,up,1.2574849999509752,,,,,,,,,,,,,,,,,,,,,,,,,,,,,,,,,,,,,,,,,,,,,,,,,,,,,,,,,,,,M1WG0K,train_y,blue_star,bottom_left,2025-04-29_17h19.24.094,HideSeek_v1,2022.2.5,59.963110692633514,
,3,2,3,7,0,5,66,,train_dim1_1,2,30,,,,2,0,2,0,,,,,,,,,0,0,0,0,0,1,1,1,7,0,7,0,,,,,,,,,,,,,,,,,,,,,,,,,,,,,,,,,,,,,,,,,,,,,,,,,,,,,,,,,,,,,,,,30,,,,,,,,2641.141335400287,2641.141335400287,2641.141335400287,2641.141335400287,2641.141335400287,down,1.7613103999756277,0,0,0,99,0.08,0.08000000000000003,down,1.6772075002081692,,,,,,,,,,,,,,,,,,,,,,,,,,,,,,,,,,,,,,,,,,,,,,,,,,,,,,,,,,,,M1WG0K,train_y,blue_star,bottom_left,2025-04-29_17h19.24.094,HideSeek_v1,2022.2.5,59.963110692633514,
,3,2,3,7,0,5,66,,train_dim1_1,2,30,,,,2,0,2,0,,,,,,,,,0,0,0,0,0,1,1,1,8,0,8,0,,,,,,,,,,,,,,,,,,,,,,,,,,,,,,,,,,,,,,,,,,,,,,,,,,,,,,,,,,,,,,,,30,,,,,,,,2642.910058700014,2642.910058700014,2642.910058700014,2642.910058700014,2642.910058700014,return,1.3105683997273445,0,1,0,0,0.08,0.08000000000000003,return,1.2305031004361808,5,1,0.08,0.08000000000000003,,,,,,,,,,,,,,,,,,,,,,,,,,,,,,,,,,,,,,,,,,,,,,,,,,,,,,,,M1WG0K,train_y,blue_star,bottom_left,2025-04-29_17h19.24.094,HideSeek_v1,2022.2.5,59.963110692633514,
,2,3,2,6,0,3,64,,train_dim1_1,3,30,,,,2,0,2,0,,,,,,,,,0,0,0,0,0,2,2,2,0,0,0,0,,,,,,,,,,,,,,,,,,,,,,,,,stimuli/alien_stimuli/64.png,,,,,,,,,,,,,,,,,,,,,,,,,,,,,stimuli/alien_stimuli/66.png,66,3,4,,,,,,,30,,,,,,,,2663.089715400245,2663.089715400245,2663.089715400245,2663.089715400245,2663.089715400245,up,5.193235099781305,0,1,0,99,0,-0.08,up,5.11170469969511,,,,,2661.529523300007,2663.089715400245,0.08,0.16,0.4,0.0,-0.039999999999999994,0.08,0.08,0.08,0.16,2645.790302700363,2645.790302700363,2645.790302700363,2645.790302700363,2645.790302700363,2645.790302700363,2645.790302700363,2645.790302700363,2645.783177700546,15.848835499957204,return,15.72192670032382,,,,,,,,,,,,,,,,,,,,,,,,,,,,,,,,,M1WG0K,train_y,blue_star,bottom_left,2025-04-29_17h19.24.094,HideSeek_v1,2022.2.5,59.963110692633514,
,2,3,2,6,0,3,64,,train_dim1_1,3,30,,,,2,0,2,0,,,,,,,,,0,0,0,0,0,2,2,2,1,0,1,0,,,,,,,,,,,,,,,,,,,,,,,,,,,,,,,,,,,,,,,,,,,,,,,,,,,,,,,,,,,,,,,,30,,,,,,,,2668.2823014003225,2668.2823014003225,2668.2823014003225,2668.2823014003225,2668.2823014003225,up,0.6601371001452208,0,1,0,99,0,0.0,up,0.5714288000017405,,,,,,,,,,,,,,,,,,,,,,,,,,,,,,,,,,,,,,,,,,,,,,,,,,,,,,,,,,,,M1WG0K,train_y,blue_star,bottom_left,2025-04-29_17h19.24.094,HideSeek_v1,2022.2.5,59.963110692633514,
,2,3,2,6,0,3,64,,train_dim1_1,3,30,,,,2,0,2,0,,,,,,,,,0,0,0,0,0,2,2,2,2,0,2,0,,,,,,,,,,,,,,,,,,,,,,,,,,,,,,,,,,,,,,,,,,,,,,,,,,,,,,,,,,,,,,,,30,,,,,,,,2668.94818510022,2668.94818510022,2668.94818510022,2668.94818510022,2668.94818510022,up,0.8098977003246546,0,1,0,99,0,0.08,up,0.7251896001398563,,,,,,,,,,,,,,,,,,,,,,,,,,,,,,,,,,,,,,,,,,,,,,,,,,,,,,,,,,,,M1WG0K,train_y,blue_star,bottom_left,2025-04-29_17h19.24.094,HideSeek_v1,2022.2.5,59.963110692633514,
,2,3,2,6,0,3,64,,train_dim1_1,3,30,,,,2,0,2,0,,,,,,,,,0,0,0,0,0,2,2,2,3,0,3,0,,,,,,,,,,,,,,,,,,,,,,,,,,,,,,,,,,,,,,,,,,,,,,,,,,,,,,,,,,,,,,,,30,,,,,,,,2669.765597200021,2669.765597200021,2669.765597200021,2669.765597200021,2669.765597200021,up,0.777254699729383,0,1,0,99,0,0.16,up,0.7031251001171768,,,,,,,,,,,,,,,,,,,,,,,,,,,,,,,,,,,,,,,,,,,,,,,,,,,,,,,,,,,,M1WG0K,train_y,blue_star,bottom_left,2025-04-29_17h19.24.094,HideSeek_v1,2022.2.5,59.963110692633514,
,2,3,2,6,0,3,64,,train_dim1_1,3,30,,,,2,0,2,0,,,,,,,,,0,0,0,0,0,2,2,2,4,0,4,0,,,,,,,,,,,,,,,,,,,,,,,,,,,,,,,,,,,,,,,,,,,,,,,,,,,,,,,,,,,,,,,,30,,,,,,,,2670.5500790001824,2670.5500790001824,2670.5500790001824,2670.5500790001824,2670.5500790001824,up,0.8936113002710044,0,1,0,99,0,0.24,up,0.8094621999189258,,,,,,,,,,,,,,,,,,,,,,,,,,,,,,,,,,,,,,,,,,,,,,,,,,,,,,,,,,,,M1WG0K,train_y,blue_star,bottom_left,2025-04-29_17h19.24.094,HideSeek_v1,2022.2.5,59.963110692633514,
,2,3,2,6,0,3,64,,train_dim1_1,3,30,,,,2,0,2,0,,,,,,,,,0,0,0,0,0,2,2,2,5,0,5,0,,,,,,,,,,,,,,,,,,,,,,,,,,,,,,,,,,,,,,,,,,,,,,,,,,,,,,,,,,,,,,,,30,,,,,,,,2671.450275800191,2671.450275800191,2671.450275800191,2671.450275800191,2671.450275800191,return,1.0602347999811172,0,0,0,0,0,0.24,return,0.9804576998576522,10,1,0,0.24,,,,,,,,,,,,,,,,,,,,,,,,,,,,,,,,,,,,,,,,,,,,,,,,,,,,,,,,M1WG0K,train_y,blue_star,bottom_left,2025-04-29_17h19.24.094,HideSeek_v1,2022.2.5,59.963110692633514,
,0,1,0,2,0,1,62,,train_dim1_1,4,30,,,,2,0,2,0,,,,,,,,,0,0,0,0,0,3,3,3,0,0,0,0,,,,,,,,,,,,,,,,,,,,,,,,,stimuli/alien_stimuli/62.png,,,,,,,,,,,,,,,,,,,,,,,,,,,,,stimuli/alien_stimuli/64.png,64,2,5,,,,,,,30,,,,,,,,2687.655537100043,2687.655537100043,2687.655537100043,2687.655537100043,2687.655537100043,up,4.257041800301522,0,0,0,99,-0.16,-0.24,up,4.1678069001063704,,,,,2686.0998185002245,2687.655537100043,0,0.08,0.24,0.0,-0.04,0,0.0,0,0.08,2674.074025100097,2674.074025100097,2674.074025100097,2674.074025100097,2674.074025100097,2674.074025100097,2674.074025100097,2674.074025100097,2674.0732813004406,12.129176400136203,return,12.004005800001323,,,,,,,,,,,,,,,,,,,,,,,,,,,,,,,,,M1WG0K,train_y,blue_star,bottom_left,2025-04-29_17h19.24.094,HideSeek_v1,2022.2.5,59.963110692633514,
,0,1,0,2,0,1,62,,train_dim1_1,4,30,,,,2,0,2,0,,,,,,,,,0,0,0,0,0,3,3,3,1,0,1,0,,,,,,,,,,,,,,,,,,,,,,,,,,,,,,,,,,,,,,,,,,,,,,,,,,,,,,,,,,,,,,,,30,,,,,,,,2691.9185407999903,2691.9185407999903,2691.9185407999903,2691.9185407999903,2691.9185407999903,up,0.7930962000973523,0,0,0,99,-0.16,-0.15999999999999998,up,0.7083107000216842,,,,,,,,,,,,,,,,,,,,,,,,,,,,,,,,,,,,,,,,,,,,,,,,,,,,,,,,,,,,M1WG0K,train_y,blue_star,bottom_left,2025-04-29_17h19.24.094,HideSeek_v1,2022.2.5,59.963110692633514,
,0,1,0,2,0,1,62,,train_dim1_1,4,30,,,,2,0,2,0,,,,,,,,,0,0,0,0,0,3,3,3,2,0,2,0,,,,,,,,,,,,,,,,,,,,,,,,,,,,,,,,,,,,,,,,,,,,,,,,,,,,,,,,,,,,,,,,30,,,,,,,,2692.7182040000334,2692.7182040000334,2692.7182040000334,2692.7182040000334,2692.7182040000334,up,0.5603730999864638,0,0,0,99,-0.16,-0.07999999999999997,up,0.48328240029513836,,,,,,,,,,,,,,,,,,,,,,,,,,,,,,,,,,,,,,,,,,,,,,,,,,,,,,,,,,,,M1WG0K,train_y,blue_star,bottom_left,2025-04-29_17h19.24.094,HideSeek_v1,2022.2.5,59.963110692633514,
,0,1,0,2,0,1,62,,train_dim1_1,4,30,,,,2,0,2,0,,,,,,,,,0,0,0,0,0,3,3,3,3,0,3,0,,,,,,,,,,,,,,,,,,,,,,,,,,,,,,,,,,,,,,,,,,,,,,,,,,,,,,,,,,,,,,,,30,,,,,,,,2693.2862696000375,2693.2862696000375,2693.2862696000375,2693.2862696000375,2693.2862696000375,up,0.5266078002750874,0,0,0,99,-0.16,2.7755575615628914e-17,up,0.4529842999763787,,,,,,,,,,,,,,,,,,,,,,,,,,,,,,,,,,,,,,,,,,,,,,,,,,,,,,,,,,,,M1WG0K,train_y,blue_star,bottom_left,2025-04-29_17h19.24.094,HideSeek_v1,2022.2.5,59.963110692633514,
,0,1,0,2,0,1,62,,train_dim1_1,4,30,,,,2,0,2,0,,,,,,,,,0,0,0,0,0,3,3,3,4,0,4,0,,,,,,,,,,,,,,,,,,,,,,,,,,,,,,,,,,,,,,,,,,,,,,,,,,,,,,,,,,,,,,,,30,,,,,,,,2693.8199605001137,2693.8199605001137,2693.8199605001137,2693.8199605001137,2693.8199605001137,up,0.6430906001478434,0,0,0,99,-0.16,0.08000000000000003,up,0.5689492002129555,,,,,,,,,,,,,,,,,,,,,,,,,,,,,,,,,,,,,,,,,,,,,,,,,,,,,,,,,,,,M1WG0K,train_y,blue_star,bottom_left,2025-04-29_17h19.24.094,HideSeek_v1,2022.2.5,59.963110692633514,
,0,1,0,2,0,1,62,,train_dim1_1,4,30,,,,2,0,2,0,,,,,,,,,0,0,0,0,0,3,3,3,5,0,5,0,,,,,,,,,,,,,,,,,,,,,,,,,,,,,,,,,,,,,,,,,,,,,,,,,,,,,,,,,,,,,,,,30,,,,,,,,2694.4687751000747,2694.4687751000747,2694.4687751000747,2694.4687751000747,2694.4687751000747,return,1.494609400164336,0,0,0,0,-0.16,0.08000000000000003,return,1.419623399619013,15,1,-0.16,0.08000000000000003,,,,,,,,,,,,,,,,,,,,,,,,,,,,,,,,,,,,,,,,,,,,,,,,,,,,,,,,M1WG0K,train_y,blue_star,bottom_left,2025-04-29_17h19.24.094,HideSeek_v1,2022.2.5,59.963110692633514,
,3,3,3,3,0,0,61,,train_dim1_1,5,30,,,,2,0,2,0,,,,,,,,,0,0,0,0,0,4,4,4,0,0,0,0,,,,,,,,,,,,,,,,,,,,,,,,,stimuli/alien_stimuli/61.png,,,,,,,,,,,,,,,,,,,,,,,,,,,,,stimuli/alien_stimuli/62.png,62,0,6,,,,,,,30,,,,,,,,2704.1001162002794,2704.1001162002794,2704.1001162002794,2704.1001162002794,2704.1001162002794,up,3.6579202003777027,0,0,0,99,0.08,-0.08,up,3.5733872996643186,,,,,2702.5468306001276,2704.1001162002794,-0.16,-0.24,0.08,0.0,-0.28,-0.16,-0.16,-0.16,-0.24,2697.529915800318,2697.529915800318,2697.529915800318,2697.529915800318,2697.529915800318,2697.529915800318,2697.529915800318,2697.529915800318,2697.5260134001264,5.1230806997045875,return,4.995827200356871,,,,,,,,,,,,,,,,,,,,,,,,,,,,,,,,,M1WG0K,train_y,blue_star,bottom_left,2025-04-29_17h19.24.094,HideSeek_v1,2022.2.5,59.963110692633514,
,3,3,3,3,0,0,61,,train_dim1_1,5,30,,,,2,0,2,0,,,,,,,,,0,0,0,0,0,4,4,4,1,0,1,0,,,,,,,,,,,,,,,,,,,,,,,,,,,,,,,,,,,,,,,,,,,,,,,,,,,,,,,,,,,,,,,,30,,,,,,,,2707.7653142004274,2707.7653142004274,2707.7653142004274,2707.7653142004274,2707.7653142004274,return,0.9428489999845624,0,1,0,0,0.08,-0.08,return,0.8640228998847306,16,1,0.08,-0.08,,,,,,,,,,,,,,,,,,,,,,,,,,,,,,,,,,,,,,,,,,,,,,,,,,,,,,,,M1WG0K,train_y,blue_star,bottom_left,2025-04-29_17h19.24.094,HideSeek_v1,2022.2.5,59.963110692633514,
,1,4,1,5,0,1,62,,train_dim1_1,6,30,,,,2,0,2,0,,,,,,,,,0,0,0,0,0,5,5,5,0,0,0,0,,,,,,,,,,,,,,,,,,,,,,,,,stimuli/alien_stimuli/62.png,,,,,,,,,,,,,,,,,,,,,,,,,,,,,stimuli/alien_stimuli/61.png,61,3,7,,,,,,,30,,,,,,,,2723.3486819001846,2723.3486819001846,2723.3486819001846,2723.3486819001846,2723.3486819001846,return,6.610976799856871,0,1,0,0,-0.08,-0.08,return,6.525041600223631,16,1,-0.08,-0.08,2721.796286500059,2723.3486819001846,0.08,-0.16,0.0,0.0,-0.16,0.08,0.08,0.08,-0.16,2710.276551700197,2710.276551700197,2710.276551700197,2710.276551700197,2710.276551700197,2710.276551700197,2710.276551700197,2710.276551700197,2710.2698959002273,11.628454599995166,return,11.489558100234717,,,,,,,,,,,,,,,,,,,,,,,,,,,,,,,,,M1WG0K,train_y,blue_star,bottom_left,2025-04-29_17h19.24.094,HideSeek_v1,2022.2.5,59.963110692633514,
,1,3,1,6,0,3,64,,train_dim1_1,7,30,,,,2,0,2,0,,,,,,,,,0,0,0,0,0,6,6,6,0,0,0,0,,,,,,,,,,,,,,,,,,,,,,,,,stimuli/alien_stimuli/64.png,,,,,,,,,,,,,,,,,,,,,,,,,,,,,stimuli/alien_stimuli/62.png,62,1,8,,,,,,,30,,,,,,,,2740.0316068003885,2740.0316068003885,2740.0316068003885,2740.0316068003885,2740.0316068003885,up,4.542515799868852,0,1,0,99,-0.08,-0.08,up,4.465364600066096,,,,,2738.4767897999845,2740.0316068003885,-0.08,0,0.08,0.0,-0.04,-0.08,-0.08,-0.08,0,2731.5476855002344,2731.5476855002344,2731.5476855002344,2731.5476855002344,2731.5476855002344,2731.5476855002344,2731.5476855002344,2731.5476855002344,2731.5376193004663,7.058181299827993,return,6.91123089985922,,,,,,,,,,,,,,,,,,,,,,,,,,,,,,,,,M1WG0K,train_y,blue_star,bottom_left,2025-04-29_17h19.24.094,HideSeek_v1,2022.2.5,59.963110692633514,
,1,3,1,6,0,3,64,,train_dim1_1,7,30,,,,2,0,2,0,,,,,,,,,0,0,0,0,0,6,6,6,1,0,1,0,,,,,,,,,,,,,,,,,,,,,,,,,,,,,,,,,,,,,,,,,,,,,,,,,,,,,,,,,,,,,,,,30,,,,,,,,2744.5782955000177,2744.5782955000177,2744.5782955000177,2744.5782955000177,2744.5782955000177,up,0.7094803997315466,0,1,0,99,-0.08,0.0,up,0.6292610000818968,,,,,,,,,,,,,,,,,,,,,,,,,,,,,,,,,,,,,,,,,,,,,,,,,,,,,,,,,,,,M1WG0K,train_y,blue_star,bottom_left,2025-04-29_17h19.24.094,HideSeek_v1,2022.2.5,59.963110692633514,
,1,3,1,6,0,3,64,,train_dim1_1,7,30,,,,2,0,2,0,,,,,,,,,0,0,0,0,0,6,6,6,2,0,2,0,,,,,,,,,,,,,,,,,,,,,,,,,,,,,,,,,,,,,,,,,,,,,,,,,,,,,,,,,,,,,,,,30,,,,,,,,2745.294364900328,2745.294364900328,2745.294364900328,2745.294364900328,2745.294364900328,return,1.4279575999826193,0,1,0,0,-0.08,0.0,return,1.3459601998329163,18,1,-0.08,0.0,,,,,,,,,,,,,,,,,,,,,,,,,,,,,,,,,,,,,,,,,,,,,,,,,,,,,,,,M1WG0K,train_y,blue_star,bottom_left,2025-04-29_17h19.24.094,HideSeek_v1,2022.2.5,59.963110692633514,
,4,2,4,2,0,0,61,,train_dim1_1,8,30,,,,2,0,2,0,,,,,,,,,0,0,0,0,0,7,7,7,0,0,0,0,,,,,,,,,,,,,,,,,,,,,,,,,stimuli/alien_stimuli/61.png,,,,,,,,,,,,,,,,,,,,,,,,,,,,,stimuli/alien_stimuli/64.png,64,1,9,,,,,,,30,,,,,,,,2753.5080168000422,2753.5080168000422,2753.5080168000422,2753.5080168000422,2753.5080168000422,return,5.809673999901861,1,0,0,1,0.16,-0.24,return,5.734501400031149,18,1,0.16,-0.24,2751.9547376004048,2753.5080168000422,-0.08,0.08,0.24,0.0,-0.04,-0.08,-0.08,-0.08,0.08,2748.2899864003994,2748.2899864003994,2748.2899864003994,2748.2899864003994,2748.2899864003994,2748.2899864003994,2748.2899864003994,2748.2899864003994,2748.284820100479,3.7720423000864685,return,3.6390125998295844,,,,,,,,,,,,,,,,,,,,,,,,,,,,,,,,,M1WG0K,train_y,blue_star,bottom_left,2025-04-29_17h19.24.094,HideSeek_v1,2022.2.5,59.963110692633514,
,4,3,4,7,0,4,65,,train_dim1_1,9,30,,,,2,0,2,0,,,,,,,,,0,0,0,0,0,8,8,8,0,0,0,0,,,,,,,,,,,,,,,,,,,,,,,,,stimuli/alien_stimuli/65.png,,,,,,,,,,,,,,,,,,,,,,,,,,,,,stimuli/alien_stimuli/61.png,61,4,10,,,,,,,30,,,,,,,,2770.672275400255,2770.672275400255,2770.672275400255,2770.672275400255,2770.672275400255,up,4.591748700011522,1,0,0,99,0.16,-0.08,up,4.502920699771494,,,,,2769.1187634002417,2770.672275400255,0.16,-0.24,0.0,0.0,-0.24,0.16,0.16,0.16,-0.24,2760.887470900081,2760.887470900081,2760.887470900081,2760.887470900081,2760.887470900081,2760.887470900081,2760.887470900081,2760.887470900081,2760.878641100321,8.342509100213647,return,8.200816600117832,,,,,,,,,,,,,,,,,,,,,,,,,,,,,,,,,M1WG0K,train_y,blue_star,bottom_left,2025-04-29_17h19.24.094,HideSeek_v1,2022.2.5,59.963110692633514,
,4,3,4,7,0,4,65,,train_dim1_1,9,30,,,,2,0,2,0,,,,,,,,,0,0,0,0,0,8,8,8,1,0,1,0,,,,,,,,,,,,,,,,,,,,,,,,,,,,,,,,,,,,,,,,,,,,,,,,,,,,,,,,,,,,,,,,30,,,,,,,,2775.270226499997,2775.270226499997,2775.270226499997,2775.270226499997,2775.270226499997,up,0.4931056001223624,1,0,0,99,0.16,0.0,up,0.4207917000167072,,,,,,,,,,,,,,,,,,,,,,,,,,,,,,,,,,,,,,,,,,,,,,,,,,,,,,,,,,,,M1WG0K,train_y,blue_star,bottom_left,2025-04-29_17h19.24.094,HideSeek_v1,2022.2.5,59.963110692633514,
,4,3,4,7,0,4,65,,train_dim1_1,9,30,,,,2,0,2,0,,,,,,,,,0,0,0,0,0,8,8,8,2,0,2,0,,,,,,,,,,,,,,,,,,,,,,,,,,,,,,,,,,,,,,,,,,,,,,,,,,,,,,,,,,,,,,,,30,,,,,,,,2775.770392900333,2775.770392900333,2775.770392900333,2775.770392900333,2775.770392900333,up,0.526959199924022,1,0,0,99,0.16,0.08,up,0.44938599970191717,,,,,,,,,,,,,,,,,,,,,,,,,,,,,,,,,,,,,,,,,,,,,,,,,,,,,,,,,,,,M1WG0K,train_y,blue_star,bottom_left,2025-04-29_17h19.24.094,HideSeek_v1,2022.2.5,59.963110692633514,
,4,3,4,7,0,4,65,,train_dim1_1,9,30,,,,2,0,2,0,,,,,,,,,0,0,0,0,0,8,8,8,3,0,3,0,,,,,,,,,,,,,,,,,,,,,,,,,,,,,,,,,,,,,,,,,,,,,,,,,,,,,,,,,,,,,,,,30,,,,,,,,2776.303573100362,2776.303573100362,2776.303573100362,2776.303573100362,2776.303573100362,up,0.49356039986014366,1,0,0,99,0.16,0.16,up,0.4168587997555733,,,,,,,,,,,,,,,,,,,,,,,,,,,,,,,,,,,,,,,,,,,,,,,,,,,,,,,,,,,,M1WG0K,train_y,blue_star,bottom_left,2025-04-29_17h19.24.094,HideSeek_v1,2022.2.5,59.963110692633514,
,4,3,4,7,0,4,65,,train_dim1_1,9,30,,,,2,0,2,0,,,,,,,,,0,0,0,0,0,8,8,8,4,0,4,0,,,,,,,,,,,,,,,,,,,,,,,,,,,,,,,,,,,,,,,,,,,,,,,,,,,,,,,,,,,,,,,,30,,,,,,,,2776.8058709003963,2776.8058709003963,2776.8058709003963,2776.8058709003963,2776.8058709003963,up,0.4597613997757435,1,0,0,99,0.16,0.24,up,0.37693639984354377,,,,,,,,,,,,,,,,,,,,,,,,,,,,,,,,,,,,,,,,,,,,,,,,,,,,,,,,,,,,M1WG0K,train_y,blue_star,bottom_left,2025-04-29_17h19.24.094,HideSeek_v1,2022.2.5,59.963110692633514,
,4,3,4,7,0,4,65,,train_dim1_1,9,30,,,,2,0,2,0,,,,,,,,,0,0,0,0,0,8,8,8,5,0,5,0,,,,,,,,,,,,,,,,,,,,,,,,,,,,,,,,,,,,,,,,,,,,,,,,,,,,,,,,,,,,,,,,30,,,,,,,,2777.2719523003325,2777.2719523003325,2777.2719523003325,2777.2719523003325,2777.2719523003325,return,0.8099277000874281,1,1,0,0,0.16,0.24,return,0.7299514999613166,23,1,0.16,0.24,,,,,,,,,,,,,,,,,,,,,,,,,,,,,,,,,,,,,,,,,,,,,,,,,,,,,,,,M1WG0K,train_y,blue_star,bottom_left,2025-04-29_17h19.24.094,HideSeek_v1,2022.2.5,59.963110692633514,
,2,2,2,7,0,5,66,,train_dim1_1,10,30,,,,2,0,2,0,,,,,,,,,0,0,0,0,0,9,9,9,0,0,0,0,,,,,,,,,,,,,,,,,,,,,,,,,stimuli/alien_stimuli/66.png,,,,,,,,,,,,,,,,,,,,,,,,,,,,,stimuli/alien_stimuli/65.png,65,4,11,,,,,,,30,,,,,,,,2784.5168812000193,2784.5168812000193,2784.5168812000193,2784.5168812000193,2784.5168812000193,up,2.1743863997980952,1,1,0,99,0,-0.15999999999999998,up,2.095840800087899,,,,,2782.9638667004183,2784.5168812000193,0.16,0.16,0.32,0.0,0.0,0.16,0.16,0.16,0.16,2779.6478641000576,2779.6478641000576,2779.6478641000576,2779.6478641000576,2779.6478641000576,2779.6478641000576,2779.6478641000576,2779.6478641000576,2779.644342100434,3.421541600022465,return,3.287908900063485,,,,,,,,,,,,,,,,,,,,,,,,,,,,,,,,,M1WG0K,train_y,blue_star,bottom_left,2025-04-29_17h19.24.094,HideSeek_v1,2022.2.5,59.963110692633514,
,2,2,2,7,0,5,66,,train_dim1_1,10,30,,,,2,0,2,0,,,,,,,,,0,0,0,0,0,9,9,9,1,0,1,0,,,,,,,,,,,,,,,,,,,,,,,,,,,,,,,,,,,,,,,,,,,,,,,,,,,,,,,,,,,,,,,,30,,,,,,,,2786.6970459003933,2786.6970459003933,2786.6970459003933,2786.6970459003933,2786.6970459003933,up,0.6931513003073633,1,1,0,99,0,-0.07999999999999997,up,0.6201208997517824,,,,,,,,,,,,,,,,,,,,,,,,,,,,,,,,,,,,,,,,,,,,,,,,,,,,,,,,,,,,M1WG0K,train_y,blue_star,bottom_left,2025-04-29_17h19.24.094,HideSeek_v1,2022.2.5,59.963110692633514,
,2,2,2,7,0,5,66,,train_dim1_1,10,30,,,,2,0,2,0,,,,,,,,,0,0,0,0,0,9,9,9,2,0,2,0,,,,,,,,,,,,,,,,,,,,,,,,,,,,,,,,,,,,,,,,,,,,,,,,,,,,,,,,,,,,,,,,30,,,,,,,,2787.397207900416,2787.397207900416,2787.397207900416,2787.397207900416,2787.397207900416,up,0.5764302997849882,1,1,0,99,0,2.7755575615628914e-17,up,0.499613500200212,,,,,,,,,,,,,,,,,,,,,,,,,,,,,,,,,,,,,,,,,,,,,,,,,,,,,,,,,,,,M1WG0K,train_y,blue_star,bottom_left,2025-04-29_17h19.24.094,HideSeek_v1,2022.2.5,59.963110692633514,
,2,2,2,7,0,5,66,,train_dim1_1,10,30,,,,2,0,2,0,,,,,,,,,0,0,0,0,0,9,9,9,3,0,3,0,,,,,,,,,,,,,,,,,,,,,,,,,,,,,,,,,,,,,,,,,,,,,,,,,,,,,,,,,,,,,,,,30,,,,,,,,2787.9805390001275,2787.9805390001275,2787.9805390001275,2787.9805390001275,2787.9805390001275,up,0.560207599774003,1,1,0,99,0,0.08000000000000003,up,0.4814766999334097,,,,,,,,,,,,,,,,,,,,,,,,,,,,,,,,,,,,,,,,,,,,,,,,,,,,,,,,,,,,M1WG0K,train_y,blue_star,bottom_left,2025-04-29_17h19.24.094,HideSeek_v1,2022.2.5,59.963110692633514,
,2,2,2,7,0,5,66,,train_dim1_1,10,30,,,,2,0,2,0,,,,,,,,,0,0,0,0,0,9,9,9,4,0,4,0,,,,,,,,,,,,,,,,,,,,,,,,,,,,,,,,,,,,,,,,,,,,,,,,,,,,,,,,,,,,,,,,30,,,,,,,,2788.5477003999986,2788.5477003999986,2788.5477003999986,2788.5477003999986,2788.5477003999986,return,0.7271048999391496,1,1,0,0,0,0.08000000000000003,return,0.6504608998075128,27,1,0,0.08000000000000003,,,,,,,,,,,,,,,,,,,,,,,,,,,,,,,,,,,,,,,,,,,,,,,,,,,,,,,,M1WG0K,train_y,blue_star,bottom_left,2025-04-29_17h19.24.094,HideSeek_v1,2022.2.5,59.963110692633514,
,4,1,4,5,0,4,65,,train_dim1_1,11,30,,,,2,0,2,0,,,,,,,,,0,0,0,0,0,10,10,10,0,0,0,0,,,,,,,,,,,,,,,,,,,,,,,,,stimuli/alien_stimuli/65.png,,,,,,,,,,,,,,,,,,,,,,,,,,,,,stimuli/alien_stimuli/66.png,66,2,12,,,,,,,30,,,,,,,,2795.040873200167,2795.040873200167,2795.040873200167,2795.040873200167,2795.040873200167,up,1.90758189978078,1,1,0,99,0.16,-0.24,up,1.8313596998341382,,,,,2793.489107400179,2795.040873200167,0,0.16,0.4,0.0,-0.039999999999999994,0,0.0,0,0.16,2790.839195900131,2790.839195900131,2790.839195900131,2790.839195900131,2790.839195900131,2790.839195900131,2790.839195900131,2790.839195900131,2790.8367165002974,2.754653099924326,return,2.619258599821478,,,,,,,,,,,,,,,,,,,,,,,,,,,,,,,,,M1WG0K,train_y,blue_star,bottom_left,2025-04-29_17h19.24.094,HideSeek_v1,2022.2.5,59.963110692633514,
,4,1,4,5,0,4,65,,train_dim1_1,11,30,,,,2,0,2,0,,,,,,,,,0,0,0,0,0,10,10,10,1,0,1,0,,,,,,,,,,,,,,,,,,,,,,,,,,,,,,,,,,,,,,,,,,,,,,,,,,,,,,,,,,,,,,,,30,,,,,,,,2796.9550364003517,2796.9550364003517,2796.9550364003517,2796.9550364003517,2796.9550364003517,up,0.5600546002388,1,1,0,99,0.16,-0.15999999999999998,up,0.47769099986180663,,,,,,,,,,,,,,,,,,,,,,,,,,,,,,,,,,,,,,,,,,,,,,,,,,,,,,,,,,,,M1WG0K,train_y,blue_star,bottom_left,2025-04-29_17h19.24.094,HideSeek_v1,2022.2.5,59.963110692633514,
,4,1,4,5,0,4,65,,train_dim1_1,11,30,,,,2,0,2,0,,,,,,,,,0,0,0,0,0,10,10,10,2,0,2,0,,,,,,,,,,,,,,,,,,,,,,,,,,,,,,,,,,,,,,,,,,,,,,,,,,,,,,,,,,,,,,,,30,,,,,,,,2797.5220133000985,2797.5220133000985,2797.5220133000985,2797.5220133000985,2797.5220133000985,up,0.560007399879396,1,1,0,99,0.16,-0.07999999999999997,up,0.4833896001800895,,,,,,,,,,,,,,,,,,,,,,,,,,,,,,,,,,,,,,,,,,,,,,,,,,,,,,,,,,,,M1WG0K,train_y,blue_star,bottom_left,2025-04-29_17h19.24.094,HideSeek_v1,2022.2.5,59.963110692633514,
,4,1,4,5,0,4,65,,train_dim1_1,11,30,,,,2,0,2,0,,,,,,,,,0,0,0,0,0,10,10,10,3,0,3,0,,,,,,,,,,,,,,,,,,,,,,,,,,,,,,,,,,,,,,,,,,,,,,,,,,,,,,,,,,,,,,,,30,,,,,,,,2798.08873399999,2798.08873399999,2798.08873399999,2798.08873399999,2798.08873399999,up,0.6104870000854135,1,1,0,99,0.16,2.7755575615628914e-17,up,0.5372823998332024,,,,,,,,,,,,,,,,,,,,,,,,,,,,,,,,,,,,,,,,,,,,,,,,,,,,,,,,,,,,M1WG0K,train_y,blue_star,bottom_left,2025-04-29_17h19.24.094,HideSeek_v1,2022.2.5,59.963110692633514,
,4,1,4,5,0,4,65,,train_dim1_1,11,30,,,,2,0,2,0,,,,,,,,,0,0,0,0,0,10,10,10,4,0,4,0,,,,,,,,,,,,,,,,,,,,,,,,,,,,,,,,,,,,,,,,,,,,,,,,,,,,,,,,,,,,,,,,30,,,,,,,,2798.7065818002447,2798.7065818002447,2798.7065818002447,2798.7065818002447,2798.7065818002447,return,1.4444137997925282,2,0,0,1,0.16,2.7755575615628914e-17,return,1.367997100111097,31,1,0.16,2.7755575615628914e-17,,,,,,,,,,,,,,,,,,,,,,,,,,,,,,,,,,,,,,,,,,,,,,,,,,,,,,,,M1WG0K,train_y,blue_star,bottom_left,2025-04-29_17h19.24.094,HideSeek_v1,2022.2.5,59.963110692633514,
,0,0,0,0,0,0,61,,train_dim1_1,12,30,,,,2,0,2,0,,,,,,,,,0,0,0,0,0,11,11,11,0,0,0,0,,,,,,,,,,,,,,,,,,,,,,,,,stimuli/alien_stimuli/61.png,,,,,,,,,,,,,,,,,,,,,,,,,,,,,stimuli/alien_stimuli/65.png,65,4,13,,,,,,,30,,,,,,,,2811.438279900234,2811.438279900234,2811.438279900234,2811.438279900234,2811.438279900234,return,5.260453599970788,3,0,0,1,-0.16,-0.4,return,5.186625999864191,31,1,-0.16,-0.4,2809.885857600253,2811.438279900234,0.16,0,0.32,0.0,-0.16,0.16,0.16,0.16,0,2801.7179032000713,2801.7179032000713,2801.7179032000713,2801.7179032000713,2801.7179032000713,2801.7179032000713,2801.7179032000713,2801.7179032000713,2801.7126081001015,8.275633800309151,return,8.15106870001182,,,,,,,,,,,,,,,,,,,,,,,,,,,,,,,,,M1WG0K,train_y,blue_star,bottom_left,2025-04-29_17h19.24.094,HideSeek_v1,2022.2.5,59.963110692633514,
,4,3,4,4,0,1,62,,train_dim1_1,13,30,,,,2,0,2,0,,,,,,,,,0,0,0,0,0,12,12,12,0,0,0,0,,,,,,,,,,,,,,,,,,,,,,,,,stimuli/alien_stimuli/62.png,,,,,,,,,,,,,,,,,,,,,,,,,,,,,stimuli/alien_stimuli/61.png,61,0,14,,,,,,,30,,,,,,,,2825.5347781004384,2825.5347781004384,2825.5347781004384,2825.5347781004384,2825.5347781004384,up,2.7409745999611914,3,0,0,99,0.16,-0.08,up,2.666642399970442,,,,,2823.9806986004114,2825.5347781004384,-0.16,-0.4,0.0,0.0,-0.4,-0.16,-0.16,-0.16,-0.4,2818.267531800084,2818.267531800084,2818.267531800084,2818.267531800084,2818.267531800084,2818.267531800084,2818.267531800084,2818.267531800084,2818.259623400122,5.8237177999690175,return,5.692384100053459,,,,,,,,,,,,,,,,,,,,,,,,,,,,,,,,,M1WG0K,train_y,blue_star,bottom_left,2025-04-29_17h19.24.094,HideSeek_v1,2022.2.5,59.963110692633514,
,4,3,4,4,0,1,62,,train_dim1_1,13,30,,,,2,0,2,0,,,,,,,,,0,0,0,0,0,12,12,12,1,0,1,0,,,,,,,,,,,,,,,,,,,,,,,,,,,,,,,,,,,,,,,,,,,,,,,,,,,,,,,,,,,,,,,,30,,,,,,,,2828.2827666001394,2828.2827666001394,2828.2827666001394,2828.2827666001394,2828.2827666001394,return,0.6597967999987304,4,0,0,1,0.16,-0.08,return,0.5752924997359514,32,1,0.16,-0.08,,,,,,,,,,,,,,,,,,,,,,,,,,,,,,,,,,,,,,,,,,,,,,,,,,,,,,,,M1WG0K,train_y,blue_star,bottom_left,2025-04-29_17h19.24.094,HideSeek_v1,2022.2.5,59.963110692633514,
,2,2,2,7,0,5,66,,train_dim1_1,14,30,,,,2,0,2,0,,,,,,,,,0,0,0,0,0,13,13,13,0,0,0,0,,,,,,,,,,,,,,,,,,,,,,,,,stimuli/alien_stimuli/66.png,,,,,,,,,,,,,,,,,,,,,,,,,,,,,stimuli/alien_stimuli/62.png,62,4,15,,,,,,,30,,,,,,,,2834.7073896001093,2834.7073896001093,2834.7073896001093,2834.7073896001093,2834.7073896001093,up,3.542395000346005,4,0,0,99,0,-0.15999999999999998,up,3.4617387000471354,,,,,2833.155432900414,2834.7073896001093,0.16,-0.08,0.08,0.0,-0.12,0.16,0.16,0.16,-0.08,2830.5070029003546,2830.5070029003546,2830.5070029003546,2830.5070029003546,2830.5070029003546,2830.5070029003546,2830.5070029003546,2830.5070029003546,2830.502936900314,2.7549720997922122,return,2.630788799840957,,,,,,,,,,,,,,,,,,,,,,,,,,,,,,,,,M1WG0K,train_y,blue_star,bottom_left,2025-04-29_17h19.24.094,HideSeek_v1,2022.2.5,59.963110692633514,
,2,2,2,7,0,5,66,,train_dim1_1,14,30,,,,2,0,2,0,,,,,,,,,0,0,0,0,0,13,13,13,1,0,1,0,,,,,,,,,,,,,,,,,,,,,,,,,,,,,,,,,,,,,,,,,,,,,,,,,,,,,,,,,,,,,,,,30,,,,,,,,2838.2560653002,2838.2560653002,2838.2560653002,2838.2560653002,2838.2560653002,up,0.4261549999937415,4,0,0,99,0,-0.07999999999999997,up,0.3389856000430882,,,,,,,,,,,,,,,,,,,,,,,,,,,,,,,,,,,,,,,,,,,,,,,,,,,,,,,,,,,,M1WG0K,train_y,blue_star,bottom_left,2025-04-29_17h19.24.094,HideSeek_v1,2022.2.5,59.963110692633514,
,2,2,2,7,0,5,66,,train_dim1_1,14,30,,,,2,0,2,0,,,,,,,,,0,0,0,0,0,13,13,13,2,0,2,0,,,,,,,,,,,,,,,,,,,,,,,,,,,,,,,,,,,,,,,,,,,,,,,,,,,,,,,,,,,,,,,,30,,,,,,,,2838.6895945002325,2838.6895945002325,2838.6895945002325,2838.6895945002325,2838.6895945002325,up,0.3936867001466453,4,0,0,99,0,2.7755575615628914e-17,up,0.3186017000116408,,,,,,,,,,,,,,,,,,,,,,,,,,,,,,,,,,,,,,,,,,,,,,,,,,,,,,,,,,,,M1WG0K,train_y,blue_star,bottom_left,2025-04-29_17h19.24.094,HideSeek_v1,2022.2.5,59.963110692633514,
,2,2,2,7,0,5,66,,train_dim1_1,14,30,,,,2,0,2,0,,,,,,,,,0,0,0,0,0,13,13,13,3,0,3,0,,,,,,,,,,,,,,,,,,,,,,,,,,,,,,,,,,,,,,,,,,,,,,,,,,,,,,,,,,,,,,,,30,,,,,,,,2839.0900917002,2839.0900917002,2839.0900917002,2839.0900917002,2839.0900917002,up,0.42655020020902157,4,0,0,99,0,0.08000000000000003,up,0.3513882998377085,,,,,,,,,,,,,,,,,,,,,,,,,,,,,,,,,,,,,,,,,,,,,,,,,,,,,,,,,,,,M1WG0K,train_y,blue_star,bottom_left,2025-04-29_17h19.24.094,HideSeek_v1,2022.2.5,59.963110692633514,
,2,2,2,7,0,5,66,,train_dim1_1,14,30,,,,2,0,2,0,,,,,,,,,0,0,0,0,0,13,13,13,4,0,4,0,,,,,,,,,,,,,,,,,,,,,,,,,,,,,,,,,,,,,,,,,,,,,,,,,,,,,,,,,,,,,,,,30,,,,,,,,2839.523733400274,2839.523733400274,2839.523733400274,2839.523733400274,2839.523733400274,return,0.6101428000256419,4,1,0,0,0,0.08000000000000003,return,0.533464299980551,36,1,0,0.08000000000000003,,,,,,,,,,,,,,,,,,,,,,,,,,,,,,,,,,,,,,,,,,,,,,,,,,,,,,,,M1WG0K,train_y,blue_star,bottom_left,2025-04-29_17h19.24.094,HideSeek_v1,2022.2.5,59.963110692633514,
,1,4,1,7,0,3,64,,train_dim1_1,15,30,,,,2,0,2,0,,,,,,,,,0,0,0,0,0,14,14,14,0,0,0,0,,,,,,,,,,,,,,,,,,,,,,,,,stimuli/alien_stimuli/64.png,,,,,,,,,,,,,,,,,,,,,,,,,,,,,stimuli/alien_stimuli/66.png,66,2,16,,,,,,,30,,,,,,,,2845.5655643003993,2845.5655643003993,2845.5655643003993,2845.5655643003993,2845.5655643003993,up,8.77989810006693,4,1,0,99,-0.08,0.0,up,8.701017099898309,,,,,2844.014701800421,2845.5655643003993,0,0.16,0.4,0.0,-0.039999999999999994,0,0.0,0,0.16,2841.700711300131,2841.700711300131,2841.700711300131,2841.700711300131,2841.700711300131,2841.700711300131,2841.700711300131,2841.700711300131,2841.6959480002524,2.4206683998927474,return,2.281594399828464,,,,,,,,,,,,,,,,,,,,,,,,,,,,,,,,,M1WG0K,train_y,blue_star,bottom_left,2025-04-29_17h19.24.094,HideSeek_v1,2022.2.5,59.963110692633514,
,1,4,1,7,0,3,64,,train_dim1_1,15,30,,,,2,0,2,0,,,,,,,,,0,0,0,0,0,14,14,14,1,0,1,0,,,,,,,,,,,,,,,,,,,,,,,,,,,,,,,,,,,,,,,,,,,,,,,,,,,,,,,,,,,,,,,,30,,,,,,,,2854.3657643999904,2854.3657643999904,2854.3657643999904,2854.3657643999904,2854.3657643999904,up,0.9932808000594378,4,1,0,99,-0.08,0.08,up,0.8963962001726031,,,,,,,,,,,,,,,,,,,,,,,,,,,,,,,,,,,,,,,,,,,,,,,,,,,,,,,,,,,,M1WG0K,train_y,blue_star,bottom_left,2025-04-29_17h19.24.094,HideSeek_v1,2022.2.5,59.963110692633514,
,1,4,1,7,0,3,64,,train_dim1_1,15,30,,,,2,0,2,0,,,,,,,,,0,0,0,0,0,14,14,14,2,0,2,0,,,,,,,,,,,,,,,,,,,,,,,,,,,,,,,,,,,,,,,,,,,,,,,,,,,,,,,,,,,,,,,,30,,,,,,,,2855.3533334000967,2855.3533334000967,2855.3533334000967,2855.3533334000967,2855.3533334000967,up,0.6934092999435961,4,1,0,99,-0.08,0.16,up,0.6189231001771986,,,,,,,,,,,,,,,,,,,,,,,,,,,,,,,,,,,,,,,,,,,,,,,,,,,,,,,,,,,,M1WG0K,train_y,blue_star,bottom_left,2025-04-29_17h19.24.094,HideSeek_v1,2022.2.5,59.963110692633514,
,1,4,1,7,0,3,64,,train_dim1_1,15,30,,,,2,0,2,0,,,,,,,,,0,0,0,0,0,14,14,14,3,0,3,0,,,,,,,,,,,,,,,,,,,,,,,,,,,,,,,,,,,,,,,,,,,,,,,,,,,,,,,,,,,,,,,,30,,,,,,,,2856.0535816000775,2856.0535816000775,2856.0535816000775,2856.0535816000775,2856.0535816000775,up,1.9280538000166416,4,1,0,99,-0.08,0.24,up,1.8473433000035584,,,,,,,,,,,,,,,,,,,,,,,,,,,,,,,,,,,,,,,,,,,,,,,,,,,,,,,,,,,,M1WG0K,train_y,blue_star,bottom_left,2025-04-29_17h19.24.094,HideSeek_v1,2022.2.5,59.963110692633514,
,1,4,1,7,0,3,64,,train_dim1_1,15,30,,,,2,0,2,0,,,,,,,,,0,0,0,0,0,14,14,14,4,0,4,0,,,,,,,,,,,,,,,,,,,,,,,,,,,,,,,,,,,,,,,,,,,,,,,,,,,,,,,,,,,,,,,,30,,,,,,,,2857.9886515000835,2857.9886515000835,2857.9886515000835,2857.9886515000835,2857.9886515000835,down,1.8449474000371993,4,1,0,99,-0.08,0.15999999999999998,down,1.767738299909979,,,,,,,,,,,,,,,,,,,,,,,,,,,,,,,,,,,,,,,,,,,,,,,,,,,,,,,,,,,,M1WG0K,train_y,blue_star,bottom_left,2025-04-29_17h19.24.094,HideSeek_v1,2022.2.5,59.963110692633514,
,1,4,1,7,0,3,64,,train_dim1_1,15,30,,,,2,0,2,0,,,,,,,,,0,0,0,0,0,14,14,14,5,0,5,0,,,,,,,,,,,,,,,,,,,,,,,,,,,,,,,,,,,,,,,,,,,,,,,,,,,,,,,,,,,,,,,,30,,,,,,,,2859.8403657004237,2859.8403657004237,2859.8403657004237,2859.8403657004237,2859.8403657004237,return,1.1604105001315475,5,0,0,1,-0.08,0.15999999999999998,return,1.0837289998307824,39,1,-0.08,0.15999999999999998,,,,,,,,,,,,,,,,,,,,,,,,,,,,,,,,,,,,,,,,,,,,,,,,,,,,,,,,M1WG0K,train_y,blue_star,bottom_left,2025-04-29_17h19.24.094,HideSeek_v1,2022.2.5,59.963110692633514,
,4,0,4,4,0,4,65,,train_dim1_1,16,30,,,,2,0,2,0,,,,,,,,,0,0,0,0,0,15,15,15,0,0,0,0,,,,,,,,,,,,,,,,,,,,,,,,,stimuli/alien_stimuli/65.png,,,,,,,,,,,,,,,,,,,,,,,,,,,,,stimuli/alien_stimuli/64.png,64,1,17,,,,,,,30,,,,,,,,2868.403855700046,2868.403855700046,2868.403855700046,2868.403855700046,2868.403855700046,up,3.6743120001628995,5,0,0,99,0.16,-0.32,up,3.598880300298333,,,,,2866.8501371000893,2868.403855700046,-0.08,0.16,0.24,0.0,0.04,-0.08,-0.08,-0.08,0.16,2862.5692440001294,2862.5692440001294,2862.5692440001294,2862.5692440001294,2862.5692440001294,2862.5692440001294,2862.5692440001294,2862.5692440001294,2862.563132000342,4.389279800001532,return,4.262607499957085,,,,,,,,,,,,,,,,,,,,,,,,,,,,,,,,,M1WG0K,train_y,blue_star,bottom_left,2025-04-29_17h19.24.094,HideSeek_v1,2022.2.5,59.963110692633514,
,4,0,4,4,0,4,65,,train_dim1_1,16,30,,,,2,0,2,0,,,,,,,,,0,0,0,0,0,15,15,15,1,0,1,0,,,,,,,,,,,,,,,,,,,,,,,,,,,,,,,,,,,,,,,,,,,,,,,,,,,,,,,,,,,,,,,,30,,,,,,,,2872.0854197000153,2872.0854197000153,2872.0854197000153,2872.0854197000153,2872.0854197000153,up,0.4585589999333024,5,0,0,99,0.16,-0.24,up,0.37104969983920455,,,,,,,,,,,,,,,,,,,,,,,,,,,,,,,,,,,,,,,,,,,,,,,,,,,,,,,,,,,,M1WG0K,train_y,blue_star,bottom_left,2025-04-29_17h19.24.094,HideSeek_v1,2022.2.5,59.963110692633514,
,4,0,4,4,0,4,65,,train_dim1_1,16,30,,,,2,0,2,0,,,,,,,,,0,0,0,0,0,15,15,15,2,0,2,0,,,,,,,,,,,,,,,,,,,,,,,,,,,,,,,,,,,,,,,,,,,,,,,,,,,,,,,,,,,,,,,,30,,,,,,,,2872.550626500044,2872.550626500044,2872.550626500044,2872.550626500044,2872.550626500044,up,0.4099999996833503,5,0,0,99,0.16,-0.15999999999999998,up,0.3332414999604225,,,,,,,,,,,,,,,,,,,,,,,,,,,,,,,,,,,,,,,,,,,,,,,,,,,,,,,,,,,,M1WG0K,train_y,blue_star,bottom_left,2025-04-29_17h19.24.094,HideSeek_v1,2022.2.5,59.963110692633514,
,4,0,4,4,0,4,65,,train_dim1_1,16,30,,,,2,0,2,0,,,,,,,,,0,0,0,0,0,15,15,15,3,0,3,0,,,,,,,,,,,,,,,,,,,,,,,,,,,,,,,,,,,,,,,,,,,,,,,,,,,,,,,,,,,,,,,,30,,,,,,,,2872.968534000218,2872.968534000218,2872.968534000218,2872.968534000218,2872.968534000218,up,0.39319670014083385,5,0,0,99,0.16,-0.07999999999999997,up,0.3065836001187563,,,,,,,,,,,,,,,,,,,,,,,,,,,,,,,,,,,,,,,,,,,,,,,,,,,,,,,,,,,,M1WG0K,train_y,blue_star,bottom_left,2025-04-29_17h19.24.094,HideSeek_v1,2022.2.5,59.963110692633514,
,4,0,4,4,0,4,65,,train_dim1_1,16,30,,,,2,0,2,0,,,,,,,,,0,0,0,0,0,15,15,15,4,0,4,0,,,,,,,,,,,,,,,,,,,,,,,,,,,,,,,,,,,,,,,,,,,,,,,,,,,,,,,,,,,,,,,,30,,,,,,,,2873.368589100428,2873.368589100428,2873.368589100428,2873.368589100428,2873.368589100428,return,1.2270837998948991,6,0,0,1,0.16,-0.07999999999999997,return,1.1473408001475036,43,1,0.16,-0.07999999999999997,,,,,,,,,,,,,,,,,,,,,,,,,,,,,,,,,,,,,,,,,,,,,,,,,,,,,,,,M1WG0K,train_y,blue_star,bottom_left,2025-04-29_17h19.24.094,HideSeek_v1,2022.2.5,59.963110692633514,
,3,3,3,6,0,3,64,,train_dim1_1,17,30,,,,2,0,2,0,,,,,,,,,0,0,0,0,0,16,16,16,0,0,0,0,,,,,,,,,,,,,,,,,,,,,,,,,stimuli/alien_stimuli/64.png,,,,,,,,,,,,,,,,,,,,,,,,,,,,,stimuli/alien_stimuli/65.png,65,4,18,,,,,,,30,,,,,,,,2883.231157200411,2883.231157200411,2883.231157200411,2883.231157200411,2883.231157200411,up,2.0406654002144933,6,0,0,99,0.08,-0.08,up,1.9546278002671897,,,,,2881.679090999998,2883.231157200411,0.16,-0.08,0.32,0.0,-0.24000000000000002,0.16,0.16,0.16,-0.08,2876.1637157001533,2876.1637157001533,2876.1637157001533,2876.1637157001533,2876.1637157001533,2876.1637157001533,2876.1637157001533,2876.1637157001533,2876.1576302002186,5.62336410023272,return,5.4830653998069465,,,,,,,,,,,,,,,,,,,,,,,,,,,,,,,,,M1WG0K,train_y,blue_star,bottom_left,2025-04-29_17h19.24.094,HideSeek_v1,2022.2.5,59.963110692633514,
,3,3,3,6,0,3,64,,train_dim1_1,17,30,,,,2,0,2,0,,,,,,,,,0,0,0,0,0,16,16,16,1,0,1,0,,,,,,,,,,,,,,,,,,,,,,,,,,,,,,,,,,,,,,,,,,,,,,,,,,,,,,,,,,,,,,,,30,,,,,,,,2885.2783950003795,2885.2783950003795,2885.2783950003795,2885.2783950003795,2885.2783950003795,up,0.5098322001285851,6,0,0,99,0.08,0.0,up,0.4302316000685096,,,,,,,,,,,,,,,,,,,,,,,,,,,,,,,,,,,,,,,,,,,,,,,,,,,,,,,,,,,,M1WG0K,train_y,blue_star,bottom_left,2025-04-29_17h19.24.094,HideSeek_v1,2022.2.5,59.963110692633514,
,3,3,3,6,0,3,64,,train_dim1_1,17,30,,,,2,0,2,0,,,,,,,,,0,0,0,0,0,16,16,16,2,0,2,0,,,,,,,,,,,,,,,,,,,,,,,,,,,,,,,,,,,,,,,,,,,,,,,,,,,,,,,,,,,,,,,,30,,,,,,,,2885.7949618999846,2885.7949618999846,2885.7949618999846,2885.7949618999846,2885.7949618999846,up,0.40997179970145226,6,0,0,99,0.08,0.08,up,0.3304122001864016,,,,,,,,,,,,,,,,,,,,,,,,,,,,,,,,,,,,,,,,,,,,,,,,,,,,,,,,,,,,M1WG0K,train_y,blue_star,bottom_left,2025-04-29_17h19.24.094,HideSeek_v1,2022.2.5,59.963110692633514,
,3,3,3,6,0,3,64,,train_dim1_1,17,30,,,,2,0,2,0,,,,,,,,,0,0,0,0,0,16,16,16,3,0,3,0,,,,,,,,,,,,,,,,,,,,,,,,,,,,,,,,,,,,,,,,,,,,,,,,,,,,,,,,,,,,,,,,30,,,,,,,,2886.212740200106,2886.212740200106,2886.212740200106,2886.212740200106,2886.212740200106,return,0.7102981000207365,7,0,0,1,0.08,0.08,return,0.6296573998406529,46,1,0.08,0.08,,,,,,,,,,,,,,,,,,,,,,,,,,,,,,,,,,,,,,,,,,,,,,,,,,,,,,,,M1WG0K,train_y,blue_star,bottom_left,2025-04-29_17h19.24.094,HideSeek_v1,2022.2.5,59.963110692633514,
,2,1,2,1,0,0,61,,train_dim1_1,18,30,,,,2,0,2,0,,,,,,,,,0,0,0,0,0,17,17,17,0,0,0,0,,,,,,,,,,,,,,,,,,,,,,,,,stimuli/alien_stimuli/61.png,,,,,,,,,,,,,,,,,,,,,,,,,,,,,stimuli/alien_stimuli/64.png,64,3,19,,,,,,,30,,,,,,,,2891.6390730002895,2891.6390730002895,2891.6390730002895,2891.6390730002895,2891.6390730002895,return,2.423404300119728,8,0,0,1,0,-0.32,return,2.3498023999854922,46,1,0,-0.32,2890.085907100234,2891.6390730002895,0.08,0.08,0.24,0.0,-0.04,0.08,0.08,0.08,0.08,2888.4906027000397,2888.4906027000397,2888.4906027000397,2888.4906027000397,2888.4906027000397,2888.4906027000397,2888.4906027000397,2888.4906027000397,2888.484586300515,1.703835400287062,return,1.568076299969107,,,,,,,,,,,,,,,,,,,,,,,,,,,,,,,,,M1WG0K,train_y,blue_star,bottom_left,2025-04-29_17h19.24.094,HideSeek_v1,2022.2.5,59.963110692633514,
,0,4,0,5,0,1,62,,train_dim1_1,19,30,,,,2,0,2,0,,,,,,,,,0,0,0,0,0,18,18,18,0,0,0,0,,,,,,,,,,,,,,,,,,,,,,,,,stimuli/alien_stimuli/62.png,,,,,,,,,,,,,,,,,,,,,,,,,,,,,stimuli/alien_stimuli/61.png,61,2,20,,,,,,,30,,,,,,,,2902.4989216001704,2902.4989216001704,2902.4989216001704,2902.4989216001704,2902.4989216001704,return,1.7075104997493327,8,1,0,0,-0.16,-0.08,return,1.618865900207311,46,1,-0.16,-0.08,2900.9454575004056,2902.4989216001704,0,-0.32,0.0,0.0,-0.32,0,0.0,0,-0.32,2895.613725000061,2895.613725000061,2895.613725000061,2895.613725000061,2895.613725000061,2895.613725000061,2895.613725000061,2895.613725000061,2895.6070615002886,5.423712499905378,return,5.303309000097215,,,,,,,,,,,,,,,,,,,,,,,,,,,,,,,,,M1WG0K,train_y,blue_star,bottom_left,2025-04-29_17h19.24.094,HideSeek_v1,2022.2.5,59.963110692633514,
,2,0,2,5,0,5,66,,train_dim1_1,20,30,,,,2,0,2,0,,,,,,,,,0,0,0,0,0,19,19,19,0,0,0,0,,,,,,,,,,,,,,,,,,,,,,,,,stimuli/alien_stimuli/66.png,,,,,,,,,,,,,,,,,,,,,,,,,,,,,stimuli/alien_stimuli/62.png,62,0,21,,,,,,,30,,,,,,,,2910.521368500311,2910.521368500311,2910.521368500311,2910.521368500311,2910.521368500311,up,3.658909299876541,8,1,0,99,0,-0.32,up,3.57136349985376,,,,,2908.968505400233,2910.521368500311,-0.16,0,0.08,0.0,-0.04,-0.16,-0.16,-0.16,0,2905.753066400066,2905.753066400066,2905.753066400066,2905.753066400066,2905.753066400066,2905.753066400066,2905.753066400066,2905.753066400066,2905.749058400374,3.3051398997195065,return,3.1937060998752713,,,,,,,,,,,,,,,,,,,,,,,,,,,,,,,,,M1WG0K,train_y,blue_star,bottom_left,2025-04-29_17h19.24.094,HideSeek_v1,2022.2.5,59.963110692633514,
,2,0,2,5,0,5,66,,train_dim1_1,20,30,,,,2,0,2,0,,,,,,,,,0,0,0,0,0,19,19,19,1,0,1,0,,,,,,,,,,,,,,,,,,,,,,,,,,,,,,,,,,,,,,,,,,,,,,,,,,,,,,,,,,,,,,,,30,,,,,,,,2914.185855100397,2914.185855100397,2914.185855100397,2914.185855100397,2914.185855100397,up,0.6098136999644339,8,1,0,99,0,-0.24,up,0.5299871996976435,,,,,,,,,,,,,,,,,,,,,,,,,,,,,,,,,,,,,,,,,,,,,,,,,,,,,,,,,,,,M1WG0K,train_y,blue_star,bottom_left,2025-04-29_17h19.24.094,HideSeek_v1,2022.2.5,59.963110692633514,
,2,0,2,5,0,5,66,,train_dim1_1,20,30,,,,2,0,2,0,,,,,,,,,0,0,0,0,0,19,19,19,2,0,2,0,,,,,,,,,,,,,,,,,,,,,,,,,,,,,,,,,,,,,,,,,,,,,,,,,,,,,,,,,,,,,,,,30,,,,,,,,2914.802542100195,2914.802542100195,2914.802542100195,2914.802542100195,2914.802542100195,up,0.4767106999643147,8,1,0,99,0,-0.15999999999999998,up,0.40413579996675253,,,,,,,,,,,,,,,,,,,,,,,,,,,,,,,,,,,,,,,,,,,,,,,,,,,,,,,,,,,,M1WG0K,train_y,blue_star,bottom_left,2025-04-29_17h19.24.094,HideSeek_v1,2022.2.5,59.963110692633514,
,2,0,2,5,0,5,66,,train_dim1_1,20,30,,,,2,0,2,0,,,,,,,,,0,0,0,0,0,19,19,19,3,0,3,0,,,,,,,,,,,,,,,,,,,,,,,,,,,,,,,,,,,,,,,,,,,,,,,,,,,,,,,,,,,,,,,,30,,,,,,,,2915.2870124001056,2915.2870124001056,2915.2870124001056,2915.2870124001056,2915.2870124001056,up,0.4434555000625551,8,1,0,99,0,-0.07999999999999997,up,0.3632751000113785,,,,,,,,,,,,,,,,,,,,,,,,,,,,,,,,,,,,,,,,,,,,,,,,,,,,,,,,,,,,M1WG0K,train_y,blue_star,bottom_left,2025-04-29_17h19.24.094,HideSeek_v1,2022.2.5,59.963110692633514,
,2,0,2,5,0,5,66,,train_dim1_1,20,30,,,,2,0,2,0,,,,,,,,,0,0,0,0,0,19,19,19,4,0,4,0,,,,,,,,,,,,,,,,,,,,,,,,,,,,,,,,,,,,,,,,,,,,,,,,,,,,,,,,,,,,,,,,30,,,,,,,,2915.7372431000695,2915.7372431000695,2915.7372431000695,2915.7372431000695,2915.7372431000695,return,0.8600383000448346,8,1,0,0,0,-0.07999999999999997,return,0.7802999997511506,50,1,0,-0.07999999999999997,,,,,,,,,,,,,,,,,,,,,,,,,,,,,,,,,,,,,,,,,,,,,,,,,,,,,,,,M1WG0K,train_y,blue_star,bottom_left,2025-04-29_17h19.24.094,HideSeek_v1,2022.2.5,59.963110692633514,
,2,4,2,8,0,4,65,,train_dim1_1,21,30,,,,2,0,2,0,,,,,,,,,0,0,0,0,0,20,20,20,0,0,0,0,,,,,,,,,,,,,,,,,,,,,,,,,stimuli/alien_stimuli/65.png,,,,,,,,,,,,,,,,,,,,,,,,,,,,,stimuli/alien_stimuli/66.png,66,2,22,,,,,,,30,,,,,,,,2922.4295778004453,2922.4295778004453,2922.4295778004453,2922.4295778004453,2922.4295778004453,up,2.358177199959755,8,1,0,99,0,0.0,up,2.2709062001667917,,,,,2920.8783203000203,2922.4295778004453,0,0,0.4,0.0,-0.2,0,0.0,0,0,2918.1596655002795,2918.1596655002795,2918.1596655002795,2918.1596655002795,2918.1596655002795,2918.1596655002795,2918.1596655002795,2918.1596655002795,2918.159369200189,2.8212322001345456,return,2.699653800111264,,,,,,,,,,,,,,,,,,,,,,,,,,,,,,,,,M1WG0K,train_y,blue_star,bottom_left,2025-04-29_17h19.24.094,HideSeek_v1,2022.2.5,59.963110692633514,
,2,4,2,8,0,4,65,,train_dim1_1,21,30,,,,2,0,2,0,,,,,,,,,0,0,0,0,0,20,20,20,1,0,1,0,,,,,,,,,,,,,,,,,,,,,,,,,,,,,,,,,,,,,,,,,,,,,,,,,,,,,,,,,,,,,,,,30,,,,,,,,2924.795028800145,2924.795028800145,2924.795028800145,2924.795028800145,2924.795028800145,up,0.57612290000543,8,1,0,99,0,0.08,up,0.5029905997216702,,,,,,,,,,,,,,,,,,,,,,,,,,,,,,,,,,,,,,,,,,,,,,,,,,,,,,,,,,,,M1WG0K,train_y,blue_star,bottom_left,2025-04-29_17h19.24.094,HideSeek_v1,2022.2.5,59.963110692633514,
,2,4,2,8,0,4,65,,train_dim1_1,21,30,,,,2,0,2,0,,,,,,,,,0,0,0,0,0,20,20,20,2,0,2,0,,,,,,,,,,,,,,,,,,,,,,,,,,,,,,,,,,,,,,,,,,,,,,,,,,,,,,,,,,,,,,,,30,,,,,,,,2925.3782339002937,2925.3782339002937,2925.3782339002937,2925.3782339002937,2925.3782339002937,up,0.6771332998760045,8,1,0,99,0,0.16,up,0.6019815001636744,,,,,,,,,,,,,,,,,,,,,,,,,,,,,,,,,,,,,,,,,,,,,,,,,,,,,,,,,,,,M1WG0K,train_y,blue_star,bottom_left,2025-04-29_17h19.24.094,HideSeek_v1,2022.2.5,59.963110692633514,
,2,4,2,8,0,4,65,,train_dim1_1,21,30,,,,2,0,2,0,,,,,,,,,0,0,0,0,0,20,20,20,3,0,3,0,,,,,,,,,,,,,,,,,,,,,,,,,,,,,,,,,,,,,,,,,,,,,,,,,,,,,,,,,,,,,,,,30,,,,,,,,2926.0618752003647,2926.0618752003647,2926.0618752003647,2926.0618752003647,2926.0618752003647,up,0.7431609001941979,8,1,0,99,0,0.24,up,0.6562609998509288,,,,,,,,,,,,,,,,,,,,,,,,,,,,,,,,,,,,,,,,,,,,,,,,,,,,,,,,,,,,M1WG0K,train_y,blue_star,bottom_left,2025-04-29_17h19.24.094,HideSeek_v1,2022.2.5,59.963110692633514,
,2,4,2,8,0,4,65,,train_dim1_1,21,30,,,,2,0,2,0,,,,,,,,,0,0,0,0,0,20,20,20,4,0,4,0,,,,,,,,,,,,,,,,,,,,,,,,,,,,,,,,,,,,,,,,,,,,,,,,,,,,,,,,,,,,,,,,30,,,,,,,,2926.8130422001705,2926.8130422001705,2926.8130422001705,2926.8130422001705,2926.8130422001705,return,1.0439909999258816,9,0,0,1,0,0.24,return,0.9563090996816754,54,1,0,0.24,,,,,,,,,,,,,,,,,,,,,,,,,,,,,,,,,,,,,,,,,,,,,,,,,,,,,,,,M1WG0K,train_y,blue_star,bottom_left,2025-04-29_17h19.24.094,HideSeek_v1,2022.2.5,59.963110692633514,
,0,2,0,5,0,3,64,,train_dim1_1,22,30,,,,2,0,2,0,,,,,,,,,0,0,0,0,0,21,21,21,0,0,0,0,,,,,,,,,,,,,,,,,,,,,,,,,stimuli/alien_stimuli/64.png,,,,,,,,,,,,,,,,,,,,,,,,,,,,,stimuli/alien_stimuli/65.png,65,2,23,,,,,,,30,,,,,,,,2932.9893534001894,2932.9893534001894,2932.9893534001894,2932.9893534001894,2932.9893534001894,up,2.290369499940425,9,0,0,99,-0.16,-0.15999999999999998,up,2.2109597995877266,,,,,2931.4370185001753,2932.9893534001894,0,0.24,0.32,0.0,0.07999999999999999,0,0.0,0,0.24,2929.4226803001948,2929.4226803001948,2929.4226803001948,2929.4226803001948,2929.4226803001948,2929.4226803001948,2929.4226803001948,2929.4226803001948,2929.418617700413,2.1206575999967754,return,1.9914198000915349,,,,,,,,,,,,,,,,,,,,,,,,,,,,,,,,,M1WG0K,train_y,blue_star,bottom_left,2025-04-29_17h19.24.094,HideSeek_v1,2022.2.5,59.963110692633514,
,0,2,0,5,0,3,64,,train_dim1_1,22,30,,,,2,0,2,0,,,,,,,,,0,0,0,0,0,21,21,21,1,0,1,0,,,,,,,,,,,,,,,,,,,,,,,,,,,,,,,,,,,,,,,,,,,,,,,,,,,,,,,,,,,,,,,,30,,,,,,,,2935.2870430001058,2935.2870430001058,2935.2870430001058,2935.2870430001058,2935.2870430001058,up,1.293108900077641,9,0,0,99,-0.16,-0.07999999999999997,up,1.2152030002325773,,,,,,,,,,,,,,,,,,,,,,,,,,,,,,,,,,,,,,,,,,,,,,,,,,,,,,,,,,,,M1WG0K,train_y,blue_star,bottom_left,2025-04-29_17h19.24.094,HideSeek_v1,2022.2.5,59.963110692633514,
,0,2,0,5,0,3,64,,train_dim1_1,22,30,,,,2,0,2,0,,,,,,,,,0,0,0,0,0,21,21,21,2,0,2,0,,,,,,,,,,,,,,,,,,,,,,,,,,,,,,,,,,,,,,,,,,,,,,,,,,,,,,,,,,,,,,,,30,,,,,,,,2936.5867882003076,2936.5867882003076,2936.5867882003076,2936.5867882003076,2936.5867882003076,up,0.5104638002812862,9,0,0,99,-0.16,2.7755575615628914e-17,up,0.438117700163275,,,,,,,,,,,,,,,,,,,,,,,,,,,,,,,,,,,,,,,,,,,,,,,,,,,,,,,,,,,,M1WG0K,train_y,blue_star,bottom_left,2025-04-29_17h19.24.094,HideSeek_v1,2022.2.5,59.963110692633514,
,0,2,0,5,0,3,64,,train_dim1_1,22,30,,,,2,0,2,0,,,,,,,,,0,0,0,0,0,21,21,21,3,0,3,0,,,,,,,,,,,,,,,,,,,,,,,,,,,,,,,,,,,,,,,,,,,,,,,,,,,,,,,,,,,,,,,,30,,,,,,,,2937.1045380001888,2937.1045380001888,2937.1045380001888,2937.1045380001888,2937.1045380001888,up,0.9604711998254061,9,0,0,99,-0.16,0.08000000000000003,up,0.8799923998303711,,,,,,,,,,,,,,,,,,,,,,,,,,,,,,,,,,,,,,,,,,,,,,,,,,,,,,,,,,,,M1WG0K,train_y,blue_star,bottom_left,2025-04-29_17h19.24.094,HideSeek_v1,2022.2.5,59.963110692633514,
,0,2,0,5,0,3,64,,train_dim1_1,22,30,,,,2,0,2,0,,,,,,,,,0,0,0,0,0,21,21,21,4,0,4,0,,,,,,,,,,,,,,,,,,,,,,,,,,,,,,,,,,,,,,,,,,,,,,,,,,,,,,,,,,,,,,,,30,,,,,,,,2938.0719647002406,2938.0719647002406,2938.0719647002406,2938.0719647002406,2938.0719647002406,return,0.5266308998689055,9,1,0,0,-0.16,0.08000000000000003,return,0.45540199987590313,58,1,-0.16,0.08000000000000003,,,,,,,,,,,,,,,,,,,,,,,,,,,,,,,,,,,,,,,,,,,,,,,,,,,,,,,,M1WG0K,train_y,blue_star,bottom_left,2025-04-29_17h19.24.094,HideSeek_v1,2022.2.5,59.963110692633514,
,0,3,0,3,0,0,61,,train_dim1_1,23,30,,,,2,0,2,0,,,,,,,,,0,0,0,0,0,22,22,22,0,0,0,0,,,,,,,,,,,,,,,,,,,,,,,,,stimuli/alien_stimuli/61.png,,,,,,,,,,,,,,,,,,,,,,,,,,,,,stimuli/alien_stimuli/64.png,64,0,24,,,,,,,30,,,,,,,,2944.8831303003244,2944.8831303003244,2944.8831303003244,2944.8831303003244,2944.8831303003244,up,4.1591864000074565,9,1,0,99,-0.16,-0.08,up,4.078917200211436,,,,,2943.3305693999864,2944.8831303003244,-0.16,0,0.24,0.0,-0.12,-0.16,-0.16,-0.16,0,2940.166224400047,2940.166224400047,2940.166224400047,2940.166224400047,2940.166224400047,2940.166224400047,2940.166224400047,2940.166224400047,2940.1611901002007,3.271410200279206,return,3.133445999585092,,,,,,,,,,,,,,,,,,,,,,,,,,,,,,,,,M1WG0K,train_y,blue_star,bottom_left,2025-04-29_17h19.24.094,HideSeek_v1,2022.2.5,59.963110692633514,
,0,3,0,3,0,0,61,,train_dim1_1,23,30,,,,2,0,2,0,,,,,,,,,0,0,0,0,0,22,22,22,1,0,1,0,,,,,,,,,,,,,,,,,,,,,,,,,,,,,,,,,,,,,,,,,,,,,,,,,,,,,,,,,,,,,,,,30,,,,,,,,2949.049044900108,2949.049044900108,2949.049044900108,2949.049044900108,2949.049044900108,return,0.45964219979941845,9,1,0,0,-0.16,-0.08,return,0.38538380013778806,59,1,-0.16,-0.08,,,,,,,,,,,,,,,,,,,,,,,,,,,,,,,,,,,,,,,,,,,,,,,,,,,,,,,,M1WG0K,train_y,blue_star,bottom_left,2025-04-29_17h19.24.094,HideSeek_v1,2022.2.5,59.963110692633514,
,3,2,3,7,0,5,66,,train_dim1_1,24,30,,,,2,0,2,0,,,,,,,,,0,0,0,0,0,23,23,23,0,0,0,0,,,,,,,,,,,,,,,,,,,,,,,,,stimuli/alien_stimuli/66.png,,,,,,,,,,,,,,,,,,,,,,,,,,,,,stimuli/alien_stimuli/61.png,61,0,25,,,,,,,30,,,,,,,,2956.041800400242,2956.041800400242,2956.041800400242,2956.041800400242,2956.041800400242,up,2.1066126003861427,9,1,0,99,0.08,-0.15999999999999998,up,2.0238788998685777,,,,,2954.4896530001424,2956.041800400242,-0.16,-0.16,0.0,0.0,-0.16,-0.16,-0.16,-0.16,-0.16,2951.0594227002002,2951.0594227002002,2951.0594227002002,2951.0594227002002,2951.0594227002002,2951.0594227002002,2951.0594227002002,2951.0594227002002,2951.053679500334,3.521417800337076,return,3.3983652000315487,,,,,,,,,,,,,,,,,,,,,,,,,,,,,,,,,M1WG0K,train_y,blue_star,bottom_left,2025-04-29_17h19.24.094,HideSeek_v1,2022.2.5,59.963110692633514,
,3,2,3,7,0,5,66,,train_dim1_1,24,30,,,,2,0,2,0,,,,,,,,,0,0,0,0,0,23,23,23,1,0,1,0,,,,,,,,,,,,,,,,,,,,,,,,,,,,,,,,,,,,,,,,,,,,,,,,,,,,,,,,,,,,,,,,30,,,,,,,,2958.1556247002445,2958.1556247002445,2958.1556247002445,2958.1556247002445,2958.1556247002445,up,0.5100341998040676,9,1,0,99,0.08,-0.07999999999999997,up,0.4370608003810048,,,,,,,,,,,,,,,,,,,,,,,,,,,,,,,,,,,,,,,,,,,,,,,,,,,,,,,,,,,,M1WG0K,train_y,blue_star,bottom_left,2025-04-29_17h19.24.094,HideSeek_v1,2022.2.5,59.963110692633514,
,3,2,3,7,0,5,66,,train_dim1_1,24,30,,,,2,0,2,0,,,,,,,,,0,0,0,0,0,23,23,23,2,0,2,0,,,,,,,,,,,,,,,,,,,,,,,,,,,,,,,,,,,,,,,,,,,,,,,,,,,,,,,,,,,,,,,,30,,,,,,,,2958.6724420003593,2958.6724420003593,2958.6724420003593,2958.6724420003593,2958.6724420003593,up,0.49324500001966953,9,1,0,99,0.08,2.7755575615628914e-17,up,0.40779060032218695,,,,,,,,,,,,,,,,,,,,,,,,,,,,,,,,,,,,,,,,,,,,,,,,,,,,,,,,,,,,M1WG0K,train_y,blue_star,bottom_left,2025-04-29_17h19.24.094,HideSeek_v1,2022.2.5,59.963110692633514,
,3,2,3,7,0,5,66,,train_dim1_1,24,30,,,,2,0,2,0,,,,,,,,,0,0,0,0,0,23,23,23,3,0,3,0,,,,,,,,,,,,,,,,,,,,,,,,,,,,,,,,,,,,,,,,,,,,,,,,,,,,,,,,,,,,,,,,30,,,,,,,,2959.1735844002105,2959.1735844002105,2959.1735844002105,2959.1735844002105,2959.1735844002105,up,0.8102732999250293,9,1,0,99,0.08,0.08000000000000003,up,0.7276229998096824,,,,,,,,,,,,,,,,,,,,,,,,,,,,,,,,,,,,,,,,,,,,,,,,,,,,,,,,,,,,M1WG0K,train_y,blue_star,bottom_left,2025-04-29_17h19.24.094,HideSeek_v1,2022.2.5,59.963110692633514,
,3,2,3,7,0,5,66,,train_dim1_1,24,30,,,,2,0,2,0,,,,,,,,,0,0,0,0,0,23,23,23,4,0,4,0,,,,,,,,,,,,,,,,,,,,,,,,,,,,,,,,,,,,,,,,,,,,,,,,,,,,,,,,,,,,,,,,30,,,,,,,,2959.989936500322,2959.989936500322,2959.989936500322,2959.989936500322,2959.989936500322,return,0.9273606003262103,9,1,0,0,0.08,0.08000000000000003,return,0.8463747003115714,63,1,0.08,0.08000000000000003,,,,,,,,,,,,,,,,,,,,,,,,,,,,,,,,,,,,,,,,,,,,,,,,,,,,,,,,M1WG0K,train_y,blue_star,bottom_left,2025-04-29_17h19.24.094,HideSeek_v1,2022.2.5,59.963110692633514,
,3,3,3,4,0,1,62,,train_dim1_1,25,30,,,,2,0,2,0,,,,,,,,,0,0,0,0,0,24,24,24,0,0,0,0,,,,,,,,,,,,,,,,,,,,,,,,,stimuli/alien_stimuli/62.png,,,,,,,,,,,,,,,,,,,,,,,,,,,,,stimuli/alien_stimuli/66.png,66,3,26,,,,,,,30,,,,,,,,2967.8513860004023,2967.8513860004023,2967.8513860004023,2967.8513860004023,2967.8513860004023,return,2.558106199838221,9,1,0,0,0.08,-0.16,return,2.4721150998957455,63,1,0.08,-0.16,2966.299459300004,2967.8513860004023,0.08,0.16,0.4,0.0,-0.039999999999999994,0.08,0.08,0.08,0.16,2962.4859508001246,2962.4859508001246,2962.4859508001246,2962.4859508001246,2962.4859508001246,2962.4859508001246,2962.4859508001246,2962.4859508001246,2962.4794015001507,3.9219673997722566,return,3.7874359004199505,,,,,,,,,,,,,,,,,,,,,,,,,,,,,,,,,M1WG0K,train_y,blue_star,bottom_left,2025-04-29_17h19.24.094,HideSeek_v1,2022.2.5,59.963110692633514,
,4,4,4,7,0,3,64,,train_dim1_1,26,30,,,,2,0,2,0,,,,,,,,,0,0,0,0,0,25,25,25,0,0,0,0,,,,,,,,,,,,,,,,,,,,,,,,,stimuli/alien_stimuli/64.png,,,,,,,,,,,,,,,,,,,,,,,,,,,,,stimuli/alien_stimuli/62.png,62,3,27,,,,,,,30,,,,,,,,2975.473345100414,2975.473345100414,2975.473345100414,2975.473345100414,2975.473345100414,up,2.1741522001102567,9,1,0,99,0.16,0.0,up,2.086527300067246,,,,,2973.9224355001934,2975.473345100414,0.08,-0.08,0.08,0.0,-0.12,0.08,0.08,0.08,-0.08,2971.9603031002916,2971.9603031002916,2971.9603031002916,2971.9603031002916,2971.9603031002916,2971.9603031002916,2971.9603031002916,2971.9603031002916,2971.9545508004726,2.053274199832231,return,1.9302135999314487,,,,,,,,,,,,,,,,,,,,,,,,,,,,,,,,,M1WG0K,train_y,blue_star,bottom_left,2025-04-29_17h19.24.094,HideSeek_v1,2022.2.5,59.963110692633514,
,4,4,4,7,0,3,64,,train_dim1_1,26,30,,,,2,0,2,0,,,,,,,,,0,0,0,0,0,25,25,25,1,0,1,0,,,,,,,,,,,,,,,,,,,,,,,,,,,,,,,,,,,,,,,,,,,,,,,,,,,,,,,,,,,,,,,,30,,,,,,,,2977.654344000388,2977.654344000388,2977.654344000388,2977.654344000388,2977.654344000388,up,0.4601036999374628,9,1,0,99,0.16,0.08,up,0.3759015998803079,,,,,,,,,,,,,,,,,,,,,,,,,,,,,,,,,,,,,,,,,,,,,,,,,,,,,,,,,,,,M1WG0K,train_y,blue_star,bottom_left,2025-04-29_17h19.24.094,HideSeek_v1,2022.2.5,59.963110692633514,
,4,4,4,7,0,3,64,,train_dim1_1,26,30,,,,2,0,2,0,,,,,,,,,0,0,0,0,0,25,25,25,2,0,2,0,,,,,,,,,,,,,,,,,,,,,,,,,,,,,,,,,,,,,,,,,,,,,,,,,,,,,,,,,,,,,,,,30,,,,,,,,2978.1225713002495,2978.1225713002495,2978.1225713002495,2978.1225713002495,2978.1225713002495,up,0.4763691001571715,9,1,0,99,0.16,0.16,up,0.3886537002399564,,,,,,,,,,,,,,,,,,,,,,,,,,,,,,,,,,,,,,,,,,,,,,,,,,,,,,,,,,,,M1WG0K,train_y,blue_star,bottom_left,2025-04-29_17h19.24.094,HideSeek_v1,2022.2.5,59.963110692633514,
,4,4,4,7,0,3,64,,train_dim1_1,26,30,,,,2,0,2,0,,,,,,,,,0,0,0,0,0,25,25,25,3,0,3,0,,,,,,,,,,,,,,,,,,,,,,,,,,,,,,,,,,,,,,,,,,,,,,,,,,,,,,,,,,,,,,,,30,,,,,,,,2978.604917000048,2978.604917000048,2978.604917000048,2978.604917000048,2978.604917000048,down,2.1116180000826716,9,1,0,99,0.16,0.08,down,2.029600900132209,,,,,,,,,,,,,,,,,,,,,,,,,,,,,,,,,,,,,,,,,,,,,,,,,,,,,,,,,,,,M1WG0K,train_y,blue_star,bottom_left,2025-04-29_17h19.24.094,HideSeek_v1,2022.2.5,59.963110692633514,
,4,4,4,7,0,3,64,,train_dim1_1,26,30,,,,2,0,2,0,,,,,,,,,0,0,0,0,0,25,25,25,4,0,4,0,,,,,,,,,,,,,,,,,,,,,,,,,,,,,,,,,,,,,,,,,,,,,,,,,,,,,,,,,,,,,,,,30,,,,,,,,2980.724447400309,2980.724447400309,2980.724447400309,2980.724447400309,2980.724447400309,return,0.4935610997490585,9,1,0,0,0.16,0.08,return,0.4115116000175476,65,1,0.16,0.08,,,,,,,,,,,,,,,,,,,,,,,,,,,,,,,,,,,,,,,,,,,,,,,,,,,,,,,,M1WG0K,train_y,blue_star,bottom_left,2025-04-29_17h19.24.094,HideSeek_v1,2022.2.5,59.963110692633514,
,3,4,3,9,0,5,66,,train_dim1_1,27,30,,,,2,0,2,0,,,,,,,,,0,0,0,0,0,26,26,26,0,0,0,0,,,,,,,,,,,,,,,,,,,,,,,,,stimuli/alien_stimuli/66.png,,,,,,,,,,,,,,,,,,,,,,,,,,,,,stimuli/alien_stimuli/64.png,64,4,28,,,,,,,30,,,,,,,,2992.8569771000184,2992.8569771000184,2992.8569771000184,2992.8569771000184,2992.8569771000184,up,3.1572809000499547,9,1,0,99,0.08,0.0,up,3.067958999890834,,,,,2991.303287200164,2992.8569771000184,0.16,0.16,0.24,0.0,0.04,0.16,0.16,0.16,0.16,2982.780068700202,2982.780068700202,2982.780068700202,2982.780068700202,2982.780068700202,2982.780068700202,2982.780068700202,2982.780068700202,2982.77975790035,8.625958600081503,return,8.501953599974513,,,,,,,,,,,,,,,,,,,,,,,,,,,,,,,,,M1WG0K,train_y,blue_star,bottom_left,2025-04-29_17h19.24.094,HideSeek_v1,2022.2.5,59.963110692633514,
,3,4,3,9,0,5,66,,train_dim1_1,27,30,,,,2,0,2,0,,,,,,,,,0,0,0,0,0,26,26,26,1,0,1,0,,,,,,,,,,,,,,,,,,,,,,,,,,,,,,,,,,,,,,,,,,,,,,,,,,,,,,,,,,,,,,,,30,,,,,,,,2996.0207653003745,2996.0207653003745,2996.0207653003745,2996.0207653003745,2996.0207653003745,up,0.6432388001121581,9,1,0,99,0.08,0.08,up,0.5611545001156628,,,,,,,,,,,,,,,,,,,,,,,,,,,,,,,,,,,,,,,,,,,,,,,,,,,,,,,,,,,,M1WG0K,train_y,blue_star,bottom_left,2025-04-29_17h19.24.094,HideSeek_v1,2022.2.5,59.963110692633514,
,3,4,3,9,0,5,66,,train_dim1_1,27,30,,,,2,0,2,0,,,,,,,,,0,0,0,0,0,26,26,26,2,0,2,0,,,,,,,,,,,,,,,,,,,,,,,,,,,,,,,,,,,,,,,,,,,,,,,,,,,,,,,,,,,,,,,,30,,,,,,,,2996.670922000427,2996.670922000427,2996.670922000427,2996.670922000427,2996.670922000427,up,0.5269467001780868,9,1,0,99,0.08,0.16,up,0.4549665995873511,,,,,,,,,,,,,,,,,,,,,,,,,,,,,,,,,,,,,,,,,,,,,,,,,,,,,,,,,,,,M1WG0K,train_y,blue_star,bottom_left,2025-04-29_17h19.24.094,HideSeek_v1,2022.2.5,59.963110692633514,
,3,4,3,9,0,5,66,,train_dim1_1,27,30,,,,2,0,2,0,,,,,,,,,0,0,0,0,0,26,26,26,3,0,3,0,,,,,,,,,,,,,,,,,,,,,,,,,,,,,,,,,,,,,,,,,,,,,,,,,,,,,,,,,,,,,,,,30,,,,,,,,2997.2045359001495,2997.2045359001495,2997.2045359001495,2997.2045359001495,2997.2045359001495,up,0.5433518998324871,9,1,0,99,0.08,0.24,up,0.45648959977552295,,,,,,,,,,,,,,,,,,,,,,,,,,,,,,,,,,,,,,,,,,,,,,,,,,,,,,,,,,,,M1WG0K,train_y,blue_star,bottom_left,2025-04-29_17h19.24.094,HideSeek_v1,2022.2.5,59.963110692633514,
,3,4,3,9,0,5,66,,train_dim1_1,27,30,,,,2,0,2,0,,,,,,,,,0,0,0,0,0,26,26,26,4,0,4,0,,,,,,,,,,,,,,,,,,,,,,,,,,,,,,,,,,,,,,,,,,,,,,,,,,,,,,,,,,,,,,,,30,,,,,,,,2997.755014399998,2997.755014399998,2997.755014399998,2997.755014399998,2997.755014399998,up,6.448126399889588,9,1,0,99,0.08,0.32,up,6.37529360037297,,,,,,,,,,,,,,,,,,,,,,,,,,,,,,,,,,,,,,,,,,,,,,,,,,,,,,,,,,,,M1WG0K,train_y,blue_star,bottom_left,2025-04-29_17h19.24.094,HideSeek_v1,2022.2.5,59.963110692633514,
,3,4,3,9,0,5,66,,train_dim1_1,27,30,,,,2,0,2,0,,,,,,,,,0,0,0,0,0,26,26,26,5,0,5,0,,,,,,,,,,,,,,,,,,,,,,,,,,,,,,,,,,,,,,,,,,,,,,,,,,,,,,,,,,,,,,,,30,,,,,,,,3004.2100832001306,3004.2100832001306,3004.2100832001306,3004.2100832001306,3004.2100832001306,return,0.4605012000538409,10,0,0,1,0.08,0.32,return,0.37864230014383793,70,1,0.08,0.32,,,,,,,,,,,,,,,,,,,,,,,,,,,,,,,,,,,,,,,,,,,,,,,,,,,,,,,,M1WG0K,train_y,blue_star,bottom_left,2025-04-29_17h19.24.094,HideSeek_v1,2022.2.5,59.963110692633514,
,4,1,4,1,0,0,61,,train_dim1_1,28,30,,,,2,0,2,0,,,,,,,,,0,0,0,0,0,27,27,27,0,0,0,0,,,,,,,,,,,,,,,,,,,,,,,,,stimuli/alien_stimuli/61.png,,,,,,,,,,,,,,,,,,,,,,,,,,,,,stimuli/alien_stimuli/66.png,66,3,29,,,,,,,30,,,,,,,,3010.3546540001407,3010.3546540001407,3010.3546540001407,3010.3546540001407,3010.3546540001407,up,1.8732202998362482,10,0,0,99,0.16,-0.24,up,1.7881594002246857,,,,,3008.801311700139,3010.3546540001407,0.08,0.32,0.4,0.0,0.12,0.08,0.08,0.08,0.32,3006.2396301003173,3006.2396301003173,3006.2396301003173,3006.2396301003173,3006.2396301003173,3006.2396301003173,3006.2396301003173,3006.2396301003173,3006.232245600503,2.671404699794948,return,2.541062700096518,,,,,,,,,,,,,,,,,,,,,,,,,,,,,,,,,M1WG0K,train_y,blue_star,bottom_left,2025-04-29_17h19.24.094,HideSeek_v1,2022.2.5,59.963110692633514,
,4,1,4,1,0,0,61,,train_dim1_1,28,30,,,,2,0,2,0,,,,,,,,,0,0,0,0,0,27,27,27,1,0,1,0,,,,,,,,,,,,,,,,,,,,,,,,,,,,,,,,,,,,,,,,,,,,,,,,,,,,,,,,,,,,,,,,30,,,,,,,,3012.234605500009,3012.234605500009,3012.234605500009,3012.234605500009,3012.234605500009,return,0.49313449999317527,10,1,0,0,0.16,-0.24,return,0.40835419995710254,71,1,0.16,-0.24,,,,,,,,,,,,,,,,,,,,,,,,,,,,,,,,,,,,,,,,,,,,,,,,,,,,,,,,M1WG0K,train_y,blue_star,bottom_left,2025-04-29_17h19.24.094,HideSeek_v1,2022.2.5,59.963110692633514,
,2,2,2,3,0,1,62,,train_dim1_1,29,30,,,,2,0,2,0,,,,,,,,,0,0,0,0,0,28,28,28,0,0,0,0,,,,,,,,,,,,,,,,,,,,,,,,,stimuli/alien_stimuli/62.png,,,,,,,,,,,,,,,,,,,,,,,,,,,,,stimuli/alien_stimuli/61.png,61,4,30,,,,,,,30,,,,,,,,3018.4290891001,3018.4290891001,3018.4290891001,3018.4290891001,3018.4290891001,return,3.9902030997909606,10,1,0,0,0,-0.24,return,3.9149327003397048,71,1,0,-0.24,3016.8745735003613,3018.4290891001,0.16,-0.32,0.0,0.0,-0.32,0.16,0.16,0.16,-0.32,3014.2776366001926,3014.2776366001926,3014.2776366001926,3014.2776366001926,3014.2776366001926,3014.2776366001926,3014.2776366001926,3014.2776366001926,3014.272565200087,2.6874138000421226,return,2.5666784001514316,,,,,,,,,,,,,,,,,,,,,,,,,,,,,,,,,M1WG0K,train_y,blue_star,bottom_left,2025-04-29_17h19.24.094,HideSeek_v1,2022.2.5,59.963110692633514,
,0,1,0,5,0,4,65,,train_dim1_1,30,30,,,,2,0,2,0,,,,,,,,,0,0,0,0,0,29,29,29,0,0,0,0,,,,,,,,,,,,,,,,,,,,,,,,,stimuli/alien_stimuli/65.png,,,,,,,,,,,,,,,,,,,,,,,,,,,,,stimuli/alien_stimuli/62.png,62,2,31,,,,,,,30,,,,,,,,3028.1015471001156,3028.1015471001156,3028.1015471001156,3028.1015471001156,3028.1015471001156,up,1.7898674001917243,10,1,0,99,-0.16,-0.24,up,1.7091355002485216,,,,,3026.5494232000783,3028.1015471001156,0,-0.16,0.08,0.0,-0.2,0,0.0,0,-0.16,3023.986888700165,3023.986888700165,3023.986888700165,3023.986888700165,3023.986888700165,3023.986888700165,3023.986888700165,3023.986888700165,3023.9805759002456,2.671150699723512,return,2.5368495997972786,,,,,,,,,,,,,,,,,,,,,,,,,,,,,,,,,M1WG0K,train_y,blue_star,bottom_left,2025-04-29_17h19.24.094,HideSeek_v1,2022.2.5,59.963110692633514,
,0,1,0,5,0,4,65,,train_dim1_1,30,30,,,,2,0,2,0,,,,,,,,,0,0,0,0,0,29,29,29,1,0,1,0,,,,,,,,,,,,,,,,,,,,,,,,,,,,,,,,,,,,,,,,,,,,,,,,,,,,,,,,,,,,,,,,30,,,,,,,,3029.8983991001733,3029.8983991001733,3029.8983991001733,3029.8983991001733,3029.8983991001733,up,0.459521799813956,10,1,0,99,-0.16,-0.15999999999999998,up,0.3754345001652837,,,,,,,,,,,,,,,,,,,,,,,,,,,,,,,,,,,,,,,,,,,,,,,,,,,,,,,,,,,,M1WG0K,train_y,blue_star,bottom_left,2025-04-29_17h19.24.094,HideSeek_v1,2022.2.5,59.963110692633514,
,0,1,0,5,0,4,65,,train_dim1_1,30,30,,,,2,0,2,0,,,,,,,,,0,0,0,0,0,29,29,29,2,0,2,0,,,,,,,,,,,,,,,,,,,,,,,,,,,,,,,,,,,,,,,,,,,,,,,,,,,,,,,,,,,,,,,,30,,,,,,,,3030.3651351002045,3030.3651351002045,3030.3651351002045,3030.3651351002045,3030.3651351002045,up,0.39304810017347336,10,1,0,99,-0.16,-0.07999999999999997,up,0.31589700002223253,,,,,,,,,,,,,,,,,,,,,,,,,,,,,,,,,,,,,,,,,,,,,,,,,,,,,,,,,,,,M1WG0K,train_y,blue_star,bottom_left,2025-04-29_17h19.24.094,HideSeek_v1,2022.2.5,59.963110692633514,
,0,1,0,5,0,4,65,,train_dim1_1,30,30,,,,2,0,2,0,,,,,,,,,0,0,0,0,0,29,29,29,3,0,3,0,,,,,,,,,,,,,,,,,,,,,,,,,,,,,,,,,,,,,,,,,,,,,,,,,,,,,,,,,,,,,,,,30,,,,,,,,3030.765826900024,3030.765826900024,3030.765826900024,3030.765826900024,3030.765826900024,up,0.376970199868083,10,1,0,99,-0.16,2.7755575615628914e-17,up,0.292036599945277,,,,,,,,,,,,,,,,,,,,,,,,,,,,,,,,,,,,,,,,,,,,,,,,,,,,,,,,,,,,M1WG0K,train_y,blue_star,bottom_left,2025-04-29_17h19.24.094,HideSeek_v1,2022.2.5,59.963110692633514,
,0,1,0,5,0,4,65,,train_dim1_1,30,30,,,,2,0,2,0,,,,,,,,,0,0,0,0,0,29,29,29,4,0,4,0,,,,,,,,,,,,,,,,,,,,,,,,,,,,,,,,,,,,,,,,,,,,,,,,,,,,,,,,,,,,,,,,30,,,,,,,,3031.1485351002775,3031.1485351002775,3031.1485351002775,3031.1485351002775,3031.1485351002775,up,0.3432932998985052,10,1,0,99,-0.16,0.08000000000000003,up,0.26897480012848973,,,,,,,,,,,,,,,,,,,,,,,,,,,,,,,,,,,,,,,,,,,,,,,,,,,,,,,,,,,,M1WG0K,train_y,blue_star,bottom_left,2025-04-29_17h19.24.094,HideSeek_v1,2022.2.5,59.963110692633514,
,0,1,0,5,0,4,65,,train_dim1_1,30,30,,,,2,0,2,0,,,,,,,,,0,0,0,0,0,29,29,29,5,0,5,0,,,,,,,,,,,,,,,,,,,,,,,,,,,,,,,,,,,,,,,,,,,,,,,,,,,,,,,,,,,,,,,,30,,,,,,,,3031.499800800346,3031.499800800346,3031.499800800346,3031.499800800346,3031.499800800346,return,0.6437114998698235,10,1,0,0,-0.16,0.08000000000000003,return,0.5666227997280657,76,1,-0.16,0.08000000000000003,,,,,,,,,,,,,,,,,,,,,,,,,,,,,,,,,,,,,,,,,,,,,,,,,,,,,,,,M1WG0K,train_y,blue_star,bottom_left,2025-04-29_17h19.24.094,HideSeek_v1,2022.2.5,59.963110692633514,
,,,,,,,,,,,30,,,,2,0,2,0,,,,,,,,,,,,,,,,,,,,,,,,,,,,,,,,,,,,,,,,,,,,,,,,,,,,,,,,,,,,,,,,,,,,,,,,,,stimuli/alien_stimuli/65.png,65,0,32,21,0.7,0.41666666666666674,1,1,1,30,0,conditions/schedules/train_y_first/blue_star_00/bottom_left/inputTrain_2.1.xlsx,99,1,2,1,0,,,,,,,,,,,0,,,,,,,,,3037.2416678001173,3038.7845827001147,-0.16,0,0.32,0.0,-0.16,-0.16,-0.16,-0.16,0,3033.7113730004057,3033.7113730004057,3033.7113730004057,3033.7113730004057,3033.7113730004057,3033.7113730004057,3033.7113730004057,3033.7113730004057,3033.7052510005424,3.638840999919921,return,3.5107717998325825,0,0.9,0,1,10,,,,,,,,,,,,,,,,,,,,,,,,,,,,M1WG0K,train_y,blue_star,bottom_left,2025-04-29_17h19.24.094,HideSeek_v1,2022.2.5,59.963110692633514,
,,,,,,,,,,,,,,,3,0,3,0,0,0,0,0,,,,,,,,,,,,,,,,,,,,,,,,,,,,,,,conditions/schedules/train_y_first/blue_star_00/bottom_left/instructions/Slide17.png,conditions/schedules/train_y_first/blue_star_00/bottom_left/instructions/Audio17.wav,3038.7845827001147,3038.7762138003486,17,"[3.6270082998089492, 18.74781779991463, 17.33918339991942, 19.28995080012828, 4.275709299836308, 4.602804900147021, 5.586467199958861, 11.871565999928862, 6.2708219001069665, 6.898618400096893, 10.065549099817872, 13.747006400022656, 18.815621699672192, 16.42152989981696, 42.44826010009274, 22.5082105002366, 37.53762759966776]","[3.6270165001042187, 0.00023079989477992058, 0.014480500016361475, 0.013832800090312958, 0.013842000160366297, 0.03154100012034178, 0.01353910006582737, 0.06546240020543337, 0.013718000147491693, 0.056868599727749825, 0.0522516998462379, 13.747012800071388, 18.815628399606794, 16.421540999785066, 0.035809800028800964, 22.50821670005098, 37.537635299842805]",0,,,,,,,,,,,,,,,,,,,,,,,,,,,,,,,,,,,,,,,,,,,,,,,,,,,,,,,,,,,,,,,,,,,,,,,,,,,,,,,,,,,,,,,,,,,,,,,,,,,,,,,,,,,,,,,,,,,,,,,,,,,,M1WG0K,train_y,blue_star,bottom_left,2025-04-29_17h19.24.094,HideSeek_v1,2022.2.5,59.963110692633514,
,,,,,,,,,,,,,,,3,0,3,0,1,0,1,0,,,,,,,,,,,,,,,,,,,,,,,,,,,,,,,conditions/schedules/train_y_first/blue_star_00/bottom_left/instructions/Slide18.png,conditions/schedules/train_y_first/blue_star_00/bottom_left/instructions/Audio18.wav,3076.3935959003866,3076.390719400253,18,"[3.6270082998089492, 18.74781779991463, 17.33918339991942, 19.28995080012828, 4.275709299836308, 4.602804900147021, 5.586467199958861, 11.871565999928862, 6.2708219001069665, 6.898618400096893, 10.065549099817872, 13.747006400022656, 18.815621699672192, 16.42152989981696, 42.44826010009274, 22.5082105002366, 37.53762759966776, 6.3662876999005675]","[3.6270165001042187, 0.00023079989477992058, 0.014480500016361475, 0.013832800090312958, 0.013842000160366297, 0.03154100012034178, 0.01353910006582737, 0.06546240020543337, 0.013718000147491693, 0.056868599727749825, 0.0522516998462379, 13.747012800071388, 18.815628399606794, 16.421540999785066, 0.035809800028800964, 22.50821670005098, 0.013705499935895205, 6.366294799838215]",0,,,,,,,,,,,,,,,,,,,,,,,,,,,,,,,,,,,,,,,,,,,,,,,,,,,,,,,,,,,,,,,,,,,,,,,,,,,,,,,,,,,,,,,,,,,,,,,,,,,,,,,,,,,,,,,,,,,,,,,,,,,,M1WG0K,train_y,blue_star,bottom_left,2025-04-29_17h19.24.094,HideSeek_v1,2022.2.5,59.963110692633514,
,,,,,,,,,,,,,,,3,0,3,0,2,0,2,0,,,,,,,,,,,,,,,,,,,,,,,,,,,,,,,conditions/schedules/train_y_first/blue_star_00/bottom_left/instructions/Slide19.png,conditions/schedules/train_y_first/blue_star_00/bottom_left/instructions/Audio19.wav,3082.8138156002387,3082.8129734004847,19,"[3.6270082998089492, 18.74781779991463, 17.33918339991942, 19.28995080012828, 4.275709299836308, 4.602804900147021, 5.586467199958861, 11.871565999928862, 6.2708219001069665, 6.898618400096893, 10.065549099817872, 13.747006400022656, 18.815621699672192, 16.42152989981696, 42.44826010009274, 22.5082105002366, 37.53762759966776, 6.3662876999005675, 10.07109809992835]","[3.6270165001042187, 0.00023079989477992058, 0.014480500016361475, 0.013832800090312958, 0.013842000160366297, 0.03154100012034178, 0.01353910006582737, 0.06546240020543337, 0.013718000147491693, 0.056868599727749825, 0.0522516998462379, 13.747012800071388, 18.815628399606794, 16.421540999785066, 0.035809800028800964, 22.50821670005098, 0.013705499935895205, 0.013776800129562616, 10.071104600094259]",0,,,,,,,,,,,,,,,,,,,,,,,,,,,,,,,,,,,,,,,,,,,,,,,,,,,,,,,,,,,,,,,,,,,,,,,,,,,,,,,,,,,,,,,,,,,,,,,,,,,,,,,,,,,,,,,,,,,,,,,,,,,,M1WG0K,train_y,blue_star,bottom_left,2025-04-29_17h19.24.094,HideSeek_v1,2022.2.5,59.963110692633514,
,,,,,,,,,,,,,,,3,0,3,0,3,0,3,0,,,,,,,,,,,,,,,,,,,,,,,,,,,,,,,conditions/schedules/train_y_first/blue_star_00/bottom_left/instructions/Slide20.png,conditions/schedules/train_y_first/blue_star_00/bottom_left/instructions/Audio20.wav,3092.956554100383,3092.9545908002183,20,"[3.6270082998089492, 18.74781779991463, 17.33918339991942, 19.28995080012828, 4.275709299836308, 4.602804900147021, 5.586467199958861, 11.871565999928862, 6.2708219001069665, 6.898618400096893, 10.065549099817872, 13.747006400022656, 18.815621699672192, 16.42152989981696, 42.44826010009274, 22.5082105002366, 37.53762759966776, 6.3662876999005675, 10.07109809992835, 12.922267799731344]","[3.6270165001042187, 0.00023079989477992058, 0.014480500016361475, 0.013832800090312958, 0.013842000160366297, 0.03154100012034178, 0.01353910006582737, 0.06546240020543337, 0.013718000147491693, 0.056868599727749825, 0.0522516998462379, 13.747012800071388, 18.815628399606794, 16.421540999785066, 0.035809800028800964, 22.50821670005098, 0.013705499935895205, 0.013776800129562616, 0.013690399937331676, 12.922274199780077]",0,,,,,,,,,,,,,,,,,,,,,,,,,,,,,,,,,,,,,,,,,,,,,,,,,,,,,,,,,,,,,,,,,,,,,,,,,,,,,,,,,,,,,,,,,,,,,,,,,,,,,,,,,,,,,,,,,,,,,,,,,,,,M1WG0K,train_y,blue_star,bottom_left,2025-04-29_17h19.24.094,HideSeek_v1,2022.2.5,59.963110692633514,
1,4,0,9,0,5,0,11,2,instr_dim1_2,,,,,,3,0,3,0,,,,,0,0,0,0,,,,,,,,,,,,,,,,,,,,,,,,,,,,,,,,,,,,,stimuli/alien_stimuli/11.png,conditions/schedules/train_y_first/blue_star_00/bottom_left/inputInstr_2.xlsx,stimuli/alien_stimuli/11.png,3105.985048600007,3105.985048600007,3105.985048600007,3105.985048600007,3105.981910000276,return,8.342201900202781,"[-0.16, -0.08, 0, 0.08, 0.16, 0.24, 0.32, 0.4, 0.48, 0.56]","[-0.4, -0.32, -0.24, -0.16, -0.08, 0, 0.08, 0.16, 0.24, 0.32]",0,0,9,4,0.0,0.4,3114.4998712004162,3114.4998712004162,3114.4998712004162,3114.4998712004162,3114.4998712004162,3114.4998712004162,3114.4998712004162,3114.489230900444,9.892250400036573,return,9.715127899777144,stimuli/alien_stimuli/11.png,11,4,1,,,,,,,,,,,,,,,,,,,,,,,,,,,,,,,,,,,,,,,,,,,,,,,,,,,,,,,,,,,,,,,,,,,,,,,,,,,,,,,,,,,,,,,,,M1WG0K,train_y,blue_star,bottom_left,2025-04-29_17h19.24.094,HideSeek_v1,2022.2.5,59.963110692633514,
,,,,,,,,,,,30,,,,3,0,3,0,,,,,,,,,,,,,,,,,,,,,,,,,,,,,,,,,,,,,,,,,,,,,,,,,,,,,,,,,,,,,,,,,,,,,,,,,,,,,,21,0.7,0.41666666666666674,1,99,2,30,0,conditions/schedules/train_y_first/blue_star_00/bottom_left/inputTrain_2.1.xlsx,99,1,2,1,0,,,,,,,,,,,,,,,,,,,,,,,,,,,,,,,,,,,,,,,,,,,,,,,,,,,,,,,,,,,,,,,,,,,,,,,,,,,M1WG0K,train_y,blue_star,bottom_left,2025-04-29_17h19.24.094,HideSeek_v1,2022.2.5,59.963110692633514,
,,,,,,,,,,,,,,,4,0,4,0,0,0,0,0,,,,,,,,,,,,,,,,,,,,,,,,,,,,,,,conditions/schedules/train_y_first/blue_star_00/bottom_left/instructions/Slide21.png,conditions/schedules/train_y_first/blue_star_00/bottom_left/instructions/Audio21.wav,3124.3771217004396,3124.380568100512,21,"[3.6270082998089492, 18.74781779991463, 17.33918339991942, 19.28995080012828, 4.275709299836308, 4.602804900147021, 5.586467199958861, 11.871565999928862, 6.2708219001069665, 6.898618400096893, 10.065549099817872, 13.747006400022656, 18.815621699672192, 16.42152989981696, 42.44826010009274, 22.5082105002366, 37.53762759966776, 6.3662876999005675, 10.07109809992835, 12.922267799731344, 12.744101600255817]","[3.6270165001042187, 0.00023079989477992058, 0.014480500016361475, 0.013832800090312958, 0.013842000160366297, 0.03154100012034178, 0.01353910006582737, 0.06546240020543337, 0.013718000147491693, 0.056868599727749825, 0.0522516998462379, 13.747012800071388, 18.815628399606794, 16.421540999785066, 0.035809800028800964, 22.50821670005098, 0.013705499935895205, 0.013776800129562616, 0.013690399937331676, 12.922274199780077, 12.744109600316733]",0,,,,,,,,,,,,,,,,,,,,,,,,,,,,,,,,,,,,,,,,,,,,,,,,,,,,,,,,,,,,,,,,,,,,,,,,,,,,,,,,,,,,,,,,,,,,,,,,,,,,,,,,,,,,,,,,,,,,,,,,,,,,M1WG0K,train_y,blue_star,bottom_left,2025-04-29_17h19.24.094,HideSeek_v1,2022.2.5,59.963110692633514,
2,3,2,3,2,0,0,61,2,instr_dim1_2,,,,,,4,0,4,0,,,,,0,0,0,0,,,,,,,,,,,,,,,,,,,,,,,,,,,,,,,,,,,,,stimuli/alien_stimuli/61.png,conditions/schedules/train_y_first/blue_star_00/bottom_left/inputInstr_2.xlsx,stimuli/alien_stimuli/61.png,3137.220837000292,3137.220837000292,3137.220837000292,3137.220837000292,3137.208000900317,return,5.7095320001244545,"[-0.16, -0.08, 0, 0.08, 0.16, 0.24, 0.32, 0.4, 0.48, 0.56]","[-0.4, -0.32, -0.24, -0.16, -0.08, 0, 0.08, 0.16, 0.24, 0.32]",2,2,3,3,0.0,0.0,3143.0980796003714,3143.0980796003714,3143.0980796003714,3143.0980796003714,3143.0980796003714,3143.0980796003714,3143.0980796003714,3143.079327400122,8.324809100013226,return,8.162773399613798,stimuli/alien_stimuli/61.png,61,3,2,,,,,,,,,,,,,,,,,,,,,,,,,,,,,,,,,,,,,,,,,,,,,,,,,,,,,,,,,,,,,,,,,,,,,,,,,,,,,,,,,,,,,,,,,M1WG0K,train_y,blue_star,bottom_left,2025-04-29_17h19.24.094,HideSeek_v1,2022.2.5,59.963110692633514,
,,,,,,,,,,,30,,,,4,0,4,0,,,,,,,,,,,,,,,,,,,,,,,,,,,,,,,,,,,,,,,,,,,,,,,,,,,,,,,,,,,,,,,,,,,,,,,,,,,,,,21,0.7,0.41666666666666674,1,99,2,30,0,conditions/schedules/train_y_first/blue_star_00/bottom_left/inputTrain_2.1.xlsx,99,1,2,1,0,,,,,,,,,,,,,,,,,,,,,,,,,,,,,,,,,,,,,,,,,,,,,,,,,,,,,,,,,,,,,,,,,,,,,,,,,,,M1WG0K,train_y,blue_star,bottom_left,2025-04-29_17h19.24.094,HideSeek_v1,2022.2.5,59.963110692633514,
,,,,,,,,,,,,,,,5,0,5,0,0,0,0,0,,,,,,,,,,,,,,,,,,,,,,,,,,,,,,,conditions/schedules/train_y_first/blue_star_00/bottom_left/instructions/Slide22.png,conditions/schedules/train_y_first/blue_star_00/bottom_left/instructions/Audio22.wav,3151.429169600364,3151.41986530032,22,"[3.6270082998089492, 18.74781779991463, 17.33918339991942, 19.28995080012828, 4.275709299836308, 4.602804900147021, 5.586467199958861, 11.871565999928862, 6.2708219001069665, 6.898618400096893, 10.065549099817872, 13.747006400022656, 18.815621699672192, 16.42152989981696, 42.44826010009274, 22.5082105002366, 37.53762759966776, 6.3662876999005675, 10.07109809992835, 12.922267799731344, 12.744101600255817, 30.814051399938762]","[3.6270165001042187, 0.00023079989477992058, 0.014480500016361475, 0.013832800090312958, 0.013842000160366297, 0.03154100012034178, 0.01353910006582737, 0.06546240020543337, 0.013718000147491693, 0.056868599727749825, 0.0522516998462379, 13.747012800071388, 18.815628399606794, 16.421540999785066, 0.035809800028800964, 22.50821670005098, 0.013705499935895205, 0.013776800129562616, 0.013690399937331676, 12.922274199780077, 12.744109600316733, 30.814061499666423]",0,,,,,,,,,,,,,,,,,,,,,,,,,,,,,,,,,,,,,,,,,,,,,,,,,,,,,,,,,,,,,,,,,,,,,,,,,,,,,,,,,,,,,,,,,,,,,,,,,,,,,,,,,,,,,,,,,,,,,,,,,,,,M1WG0K,train_y,blue_star,bottom_left,2025-04-29_17h19.24.094,HideSeek_v1,2022.2.5,59.963110692633514,
,2,1,5,1,3,0,31,,train_dim1_2,1,30,,,,5,0,5,0,,,,,,,,,0,0,0,0,0,0,0,0,0,0,0,0,,,,,,,,,,,,,,,,,,,,,,,,,stimuli/alien_stimuli/31.png,,,,,,,,,,,,,,,,,,,,,,,,,,,,,,,,,,,,,,,30,,,,,,,,3182.3459445000626,3182.3459445000626,3182.3459445000626,3182.3459445000626,3182.3459445000626,right,8.885204799938947,0,1,0,99,0.08,-0.32,right,8.790548299904913,,,,,,,,,,,,,,,,,,,,,,,,,,,,,,,,,,,,,,,,,,,,,,,,,,,,,,,,,,,,M1WG0K,train_y,blue_star,bottom_left,2025-04-29_17h19.24.094,HideSeek_v1,2022.2.5,59.963110692633514,
,2,1,5,1,3,0,31,,train_dim1_2,1,30,,,,5,0,5,0,,,,,,,,,0,0,0,0,0,0,0,0,1,0,1,0,,,,,,,,,,,,,,,,,,,,,,,,,,,,,,,,,,,,,,,,,,,,,,,,,,,,,,,,,,,,,,,,30,,,,,,,,3191.218720300123,3191.218720300123,3191.218720300123,3191.218720300123,3191.218720300123,right,1.0759172001853585,0,1,0,99,0.16,-0.32,right,0.9961724001914263,,,,,,,,,,,,,,,,,,,,,,,,,,,,,,,,,,,,,,,,,,,,,,,,,,,,,,,,,,,,M1WG0K,train_y,blue_star,bottom_left,2025-04-29_17h19.24.094,HideSeek_v1,2022.2.5,59.963110692633514,
,2,1,5,1,3,0,31,,train_dim1_2,1,30,,,,5,0,5,0,,,,,,,,,0,0,0,0,0,0,0,0,2,0,2,0,,,,,,,,,,,,,,,,,,,,,,,,,,,,,,,,,,,,,,,,,,,,,,,,,,,,,,,,,,,,,,,,30,,,,,,,,3192.2999412002973,3192.2999412002973,3192.2999412002973,3192.2999412002973,3192.2999412002973,up,1.2942989999428391,0,1,0,99,0.16,-0.24,up,1.212773199658841,,,,,,,,,,,,,,,,,,,,,,,,,,,,,,,,,,,,,,,,,,,,,,,,,,,,,,,,,,,,M1WG0K,train_y,blue_star,bottom_left,2025-04-29_17h19.24.094,HideSeek_v1,2022.2.5,59.963110692633514,
,2,1,5,1,3,0,31,,train_dim1_2,1,30,,,,5,0,5,0,,,,,,,,,0,0,0,0,0,0,0,0,3,0,3,0,,,,,,,,,,,,,,,,,,,,,,,,,,,,,,,,,,,,,,,,,,,,,,,,,,,,,,,,,,,,,,,,30,,,,,,,,3193.600439200178,3193.600439200178,3193.600439200178,3193.600439200178,3193.600439200178,return,0.5766825000755489,0,0,0,0,0.16,-0.24,return,0.4999392996542156,77,3,0.16,-0.24,,,,,,,,,,,,,,,,,,,,,,,,,,,,,,,,,,,,,,,,,,,,,,,,,,,,,,,,M1WG0K,train_y,blue_star,bottom_left,2025-04-29_17h19.24.094,HideSeek_v1,2022.2.5,59.963110692633514,
,2,4,7,4,5,0,11,,train_dim1_2,2,30,,,,5,0,5,0,,,,,,,,,0,0,0,0,0,1,1,1,0,0,0,0,,,,,,,,,,,,,,,,,,,,,,,,,stimuli/alien_stimuli/11.png,,,,,,,,,,,,,,,,,,,,,,,,,,,,,stimuli/alien_stimuli/31.png,31,2,3,,,,,,,30,,,,,,,,3210.7944990000688,3210.7944990000688,3210.7944990000688,3210.7944990000688,3210.7944990000688,right,5.876677700318396,0,0,0,99,0.08,-0.08,right,5.7729449002072215,,,,,3209.2178458003327,3210.7944990000688,0.24,-0.32,0.0,0.24,-0.32,0.24,0.12,0.24,-0.32,3195.7568665002473,3195.7568665002473,3195.7568665002473,3195.7568665002473,3195.7568665002473,3195.7568665002473,3195.7568665002473,3195.7568665002473,3195.740049200319,13.580068499781191,return,13.439603499602526,,,,,,,,,,,,,,,,,,,,,,,,,,,,,,,,,M1WG0K,train_y,blue_star,bottom_left,2025-04-29_17h19.24.094,HideSeek_v1,2022.2.5,59.963110692633514,
,2,4,7,4,5,0,11,,train_dim1_2,2,30,,,,5,0,5,0,,,,,,,,,0,0,0,0,0,1,1,1,1,0,1,0,,,,,,,,,,,,,,,,,,,,,,,,,,,,,,,,,,,,,,,,,,,,,,,,,,,,,,,,,,,,,,,,30,,,,,,,,3216.6594174001366,3216.6594174001366,3216.6594174001366,3216.6594174001366,3216.6594174001366,right,0.5767371999099851,0,0,0,99,0.16,-0.08,right,0.4944345997646451,,,,,,,,,,,,,,,,,,,,,,,,,,,,,,,,,,,,,,,,,,,,,,,,,,,,,,,,,,,,M1WG0K,train_y,blue_star,bottom_left,2025-04-29_17h19.24.094,HideSeek_v1,2022.2.5,59.963110692633514,
,2,4,7,4,5,0,11,,train_dim1_2,2,30,,,,5,0,5,0,,,,,,,,,0,0,0,0,0,1,1,1,2,0,2,0,,,,,,,,,,,,,,,,,,,,,,,,,,,,,,,,,,,,,,,,,,,,,,,,,,,,,,,,,,,,,,,,30,,,,,,,,3217.2414537002333,3217.2414537002333,3217.2414537002333,3217.2414537002333,3217.2414537002333,right,0.5101153999567032,0,0,0,99,0.24,-0.08,right,0.42498950008302927,,,,,,,,,,,,,,,,,,,,,,,,,,,,,,,,,,,,,,,,,,,,,,,,,,,,,,,,,,,,M1WG0K,train_y,blue_star,bottom_left,2025-04-29_17h19.24.094,HideSeek_v1,2022.2.5,59.963110692633514,
,2,4,7,4,5,0,11,,train_dim1_2,2,30,,,,5,0,5,0,,,,,,,,,0,0,0,0,0,1,1,1,3,0,3,0,,,,,,,,,,,,,,,,,,,,,,,,,,,,,,,,,,,,,,,,,,,,,,,,,,,,,,,,,,,,,,,,30,,,,,,,,3217.7586925001815,3217.7586925001815,3217.7586925001815,3217.7586925001815,3217.7586925001815,right,0.5102568999864161,0,0,0,99,0.32,-0.08,right,0.4180976999923587,,,,,,,,,,,,,,,,,,,,,,,,,,,,,,,,,,,,,,,,,,,,,,,,,,,,,,,,,,,,M1WG0K,train_y,blue_star,bottom_left,2025-04-29_17h19.24.094,HideSeek_v1,2022.2.5,59.963110692633514,
