trialInstr,x_fixStart,y_fixStart,x_corrSteps,y_corrSteps,x_nrSteps,y_nrSteps,alienID,trialLength,version,trialTrain,praclen,testlen,trial_label,break_on_off,beforeExpLoop.thisRepN,beforeExpLoop.thisTrialN,beforeExpLoop.thisN,beforeExpLoop.thisIndex,mini_instr_trials.thisRepN,mini_instr_trials.thisTrialN,mini_instr_trials.thisN,mini_instr_trials.thisIndex,instrLoop.thisRepN,instrLoop.thisTrialN,instrLoop.thisN,instrLoop.thisIndex,repeat_prac.thisRepN,repeat_prac.thisTrialN,repeat_prac.thisN,repeat_prac.thisIndex,trainLoop.thisRepN,trainLoop.thisTrialN,trainLoop.thisN,trainLoop.thisIndex,moveLoop_train.thisRepN,moveLoop_train.thisTrialN,moveLoop_train.thisN,moveLoop_train.thisIndex,experiment.thisRepN,experiment.thisTrialN,experiment.thisN,experiment.thisIndex,moveLoop_test.thisRepN,moveLoop_test.thisTrialN,moveLoop_test.thisN,moveLoop_test.thisIndex,mini_instr2_trials.thisRepN,mini_instr2_trials.thisTrialN,mini_instr2_trials.thisN,mini_instr2_trials.thisIndex,start_all_time,url,slideStim,audioStim,slides.started,sounds.started,nextButton.numClicks,nextButton.timesOn,nextButton.timesOff,prev_but.numClicks,prev_but.timesOn,prev_but.timesOff,alienStim,instrFile,alienStim_instr,gridImage_instr.started,startPos_3.started,key_instr.started,alienImage_3.started,sounds_1.started,key_instr.keys,key_instr.rt,all_x,all_y,FBy_corrSteps,FBy_fixStart,FBx_corrSteps,FBx_fixStart,FBy_pathSize_check,FBx_pathSize_check,gridImage_9.started,alienImageFB_3.started,startPosFB_3.started,keyFB_3.started,pathLine_ydir_2.started,pathLine_xdir_2.started,alienFace_3.started,sounds_2.started,RTFB_instr,keyFB_3.keys,keyFB_3.rt,draw_alienStim,draw_alienID,test_x,nrepcount,perfthres,percthres,earlierperf,earlystop,nextPrac,fileidx,praclen,saveACC_train,pracFile,nextPrac_train,addNrep,fileidx_endr,repExp,showearly,gridImage_4.started,startPos.started,movePos.started,key_resp.started,alienImage.started,wLy_dir,wLx_dir,x_movePos,y_movePos,buttonPress_train,RTchoice_train,cumAcctrain,aCorr,saveACC_choice,corrAns,x_movePos_end,y_movePos_end,key_resp.keys,key_resp.rt,text_2.started,text_2.stopped,aft_x_corrPos,aft_y_corrPos,y_pathSize_check,x_pathSize_check,y_pathdirY,x_pathdirY,x_pathdirX,x_corrPos,y_corrPos,gridImage_6.started,alienImageFB_2.started,startPosFB_2.started,movePosFB_2.started,keyFB_2.started,pathLine_xdir.started,pathLine_ydir.started,alienFace.started,sounds_4.started,RT_FBtrain,keyFB_2.keys,keyFB_2.rt,saveACC_pre,ACC,within_saveACC_train,earlystop_wloop,cumAcctrain_check,gridImage_3.started,alienImage_test.started,startPos_test.started,movePos_test.started,key_resp_test.started,wLy_dir_test,wLx_dir_test,buttonPress_test,RTchoice_test,cumAcctest,corrAns_test,key_resp_test.keys,key_resp_test.rt,text_3.started,text_3.stopped,total_time,end_all_time,key_resp_3.keys,slides_2.started,sounds_3.started,nextButton_2.numClicks,nextButton_2.timesOn,nextButton_2.timesOff,prev_but_2.numClicks,prev_but_2.timesOn,prev_but_2.timesOff,bye.started,participant,train_first,00_coordinate,starting corner,date,expName,psychopyVersion,frameRate,
,,,,,,,,,,,,,,,0,0,0,0,0,0,0,0,,,,,,,,,,,,,,,,,,,,,,,,,,,,,start_all_time,testround,conditions/schedules/train_x_first/blue_star_00/top_right/instructions/Slide1.png,conditions/schedules/train_x_first/blue_star_00/top_right/instructions/Audio1.wav,1087.369141000323,1087.3178493579849,1,[3.9611370000056922],[3.96114409994334],0,,,,,,,,,,,,,,,,,,,,,,,,,,,,,,,,,,,,,,,,,,,,,,,,,,,,,,,,,,,,,,,,,,,,,,,,,,,,,,,,,,,,,,,,,,,,,,,,,,,,,,,,,,,,,,,,,,,,,,,,,,,,M9DFQN,train_x,blue_star,top_right,2025-05-05_17h11.54.010,HideSeek_v1,2022.2.5,59.98019445880729,
,,,,,,,,,,,,,,,0,0,0,0,1,0,1,0,,,,,,,,,,,,,,,,,,,,,,,,,,,,,,,conditions/schedules/train_x_first/blue_star_00/top_right/instructions/Slide2.png,conditions/schedules/train_x_first/blue_star_00/top_right/instructions/Audio2.wav,1091.3497228999622,1091.3363813001663,2,"[3.9611370000056922, 18.016038000117987]","[0.00022799987345933914, 18.016045600175858]",0,,,,,,,,,,,,,,,,,,,,,,,,,,,,,,,,,,,,,,,,,,,,,,,,,,,,,,,,,,,,,,,,,,,,,,,,,,,,,,,,,,,,,,,,,,,,,,,,,,,,,,,,,,,,,,,,,,,,,,,,,,,,M9DFQN,train_x,blue_star,top_right,2025-05-05_17h11.54.010,HideSeek_v1,2022.2.5,59.98019445880729,
,,,,,,,,,,,,,,,0,0,0,0,2,0,2,0,,,,,,,,,,,,,,,,,,,,,,,,,,,,,,,conditions/schedules/train_x_first/blue_star_00/top_right/instructions/Slide3.png,conditions/schedules/train_x_first/blue_star_00/top_right/instructions/Audio3.wav,1109.4464920000173,1109.4348650504835,3,"[3.9611370000056922, 18.016038000117987, 16.950015100184828]","[0.00022799987345933914, 0.03643700014799833, 16.950022000353783]",0,,,,,,,,,,,,,,,,,,,,,,,,,,,,,,,,,,,,,,,,,,,,,,,,,,,,,,,,,,,,,,,,,,,,,,,,,,,,,,,,,,,,,,,,,,,,,,,,,,,,,,,,,,,,,,,,,,,,,,,,,,,,M9DFQN,train_x,blue_star,top_right,2025-05-05_17h11.54.010,HideSeek_v1,2022.2.5,59.98019445880729,
,,,,,,,,,,,,,,,0,0,0,0,3,0,3,0,,,,,,,,,,,,,,,,,,,,,,,,,,,,,,,conditions/schedules/train_x_first/blue_star_00/top_right/instructions/Slide4.png,conditions/schedules/train_x_first/blue_star_00/top_right/instructions/Audio4.wav,1126.480071600061,1126.4823037001304,4,"[3.9611370000056922, 18.016038000117987, 16.950015100184828, 18.932802699971944]","[0.00022799987345933914, 0.03643700014799833, 0.06677230028435588, 18.93280990002677]",0,,,,,,,,,,,,,,,,,,,,,,,,,,,,,,,,,,,,,,,,,,,,,,,,,,,,,,,,,,,,,,,,,,,,,,,,,,,,,,,,,,,,,,,,,,,,,,,,,,,,,,,,,,,,,,,,,,,,,,,,,,,,M9DFQN,train_x,blue_star,top_right,2025-05-05_17h11.54.010,HideSeek_v1,2022.2.5,59.98019445880729,
,,,,,,,,,,,,,,,0,0,0,0,4,0,4,0,,,,,,,,,,,,,,,,,,,,,,,,,,,,,,,conditions/schedules/train_x_first/blue_star_00/top_right/instructions/Slide5.png,conditions/schedules/train_x_first/blue_star_00/top_right/instructions/Audio5.wav,1145.482956000138,1145.4816557504237,5,"[3.9611370000056922, 18.016038000117987, 16.950015100184828, 18.932802699971944, 3.9326916001737118]","[0.00022799987345933914, 0.03643700014799833, 0.06677230028435588, 0.030352000147104263, 3.9326985999941826]",0,,,,,,,,,,,,,,,,,,,,,,,,,,,,,,,,,,,,,,,,,,,,,,,,,,,,,,,,,,,,,,,,,,,,,,,,,,,,,,,,,,,,,,,,,,,,,,,,,,,,,,,,,,,,,,,,,,,,,,,,,,,,M9DFQN,train_x,blue_star,top_right,2025-05-05_17h11.54.010,HideSeek_v1,2022.2.5,59.98019445880729,
,,,,,,,,,,,,,,,0,0,0,0,5,0,5,0,,,,,,,,,,,,,,,,,,,,,,,,,,,,,,,conditions/schedules/train_x_first/blue_star_00/top_right/instructions/Slide6.png,conditions/schedules/train_x_first/blue_star_00/top_right/instructions/Audio6.wav,1149.465853100177,1149.46801660005,6,"[3.9611370000056922, 18.016038000117987, 16.950015100184828, 18.932802699971944, 3.9326916001737118, 4.236577499657869]","[0.00022799987345933914, 0.03643700014799833, 0.06677230028435588, 0.030352000147104263, 0.032927199732512236, 4.236584399826825]",0,,,,,,,,,,,,,,,,,,,,,,,,,,,,,,,,,,,,,,,,,,,,,,,,,,,,,,,,,,,,,,,,,,,,,,,,,,,,,,,,,,,,,,,,,,,,,,,,,,,,,,,,,,,,,,,,,,,,,,,,,,,,M9DFQN,train_x,blue_star,top_right,2025-05-05_17h11.54.010,HideSeek_v1,2022.2.5,59.98019445880729,
,,,,,,,,,,,,,,,0,0,0,0,6,0,6,0,,,,,,,,,,,,,,,,,,,,,,,,,,,,,,,conditions/schedules/train_x_first/blue_star_00/top_right/instructions/Slide7.png,conditions/schedules/train_x_first/blue_star_00/top_right/instructions/Audio7.wav,1153.7528511001728,1153.7549240000546,7,"[3.9611370000056922, 18.016038000117987, 16.950015100184828, 18.932802699971944, 3.9326916001737118, 4.236577499657869, 4.853587000165135]","[0.00022799987345933914, 0.03643700014799833, 0.06677230028435588, 0.030352000147104263, 0.032927199732512236, 0.08312109997496009, 4.853594200219959]",0,,,,,,,,,,,,,,,,,,,,,,,,,,,,,,,,,,,,,,,,,,,,,,,,,,,,,,,,,,,,,,,,,,,,,,,,,,,,,,,,,,,,,,,,,,,,,,,,,,,,,,,,,,,,,,,,,,,,,,,,,,,,M9DFQN,train_x,blue_star,top_right,2025-05-05_17h11.54.010,HideSeek_v1,2022.2.5,59.98019445880729,
,,,,,,,,,,,,,,,0,0,0,0,7,0,7,0,,,,,,,,,,,,,,,,,,,,,,,,,,,,,,,conditions/schedules/train_x_first/blue_star_00/top_right/instructions/Slide8.png,conditions/schedules/train_x_first/blue_star_00/top_right/instructions/Audio8.wav,1158.6591733000241,1158.659118900355,8,"[3.9611370000056922, 18.016038000117987, 16.950015100184828, 18.932802699971944, 3.9326916001737118, 4.236577499657869, 4.853587000165135, 11.423816400114447]","[0.00022799987345933914, 0.03643700014799833, 0.06677230028435588, 0.030352000147104263, 0.032927199732512236, 0.08312109997496009, 0.03087959997355938, 11.423822999931872]",0,,,,,,,,,,,,,,,,,,,,,,,,,,,,,,,,,,,,,,,,,,,,,,,,,,,,,,,,,,,,,,,,,,,,,,,,,,,,,,,,,,,,,,,,,,,,,,,,,,,,,,,,,,,,,,,,,,,,,,,,,,,,M9DFQN,train_x,blue_star,top_right,2025-05-05_17h11.54.010,HideSeek_v1,2022.2.5,59.98019445880729,
,,,,,,,,,,,,,,,0,0,0,0,8,0,8,0,,,,,,,,,,,,,,,,,,,,,,,,,,,,,,,conditions/schedules/train_x_first/blue_star_00/top_right/instructions/Slide9.png,conditions/schedules/train_x_first/blue_star_00/top_right/instructions/Audio9.wav,1170.1546885003336,1170.1520948503166,9,"[3.9611370000056922, 18.016038000117987, 16.950015100184828, 18.932802699971944, 3.9326916001737118, 4.236577499657869, 4.853587000165135, 11.423816400114447, 5.933089599944651]","[0.00022799987345933914, 0.03643700014799833, 0.06677230028435588, 0.030352000147104263, 0.032927199732512236, 0.08312109997496009, 0.03087959997355938, 0.03060860000550747, 5.9330965001136065]",0,,,,,,,,,,,,,,,,,,,,,,,,,,,,,,,,,,,,,,,,,,,,,,,,,,,,,,,,,,,,,,,,,,,,,,,,,,,,,,,,,,,,,,,,,,,,,,,,,,,,,,,,,,,,,,,,,,,,,,,,,,,,M9DFQN,train_x,blue_star,top_right,2025-05-05_17h11.54.010,HideSeek_v1,2022.2.5,59.98019445880729,
,,,,,,,,,,,,,,,0,0,0,0,9,0,9,0,,,,,,,,,,,,,,,,,,,,,,,,,,,,,,,conditions/schedules/train_x_first/blue_star_00/top_right/instructions/Slide10.png,conditions/schedules/train_x_first/blue_star_00/top_right/instructions/Audio10.wav,1176.1248874003068,1176.1235386501996,10,"[3.9611370000056922, 18.016038000117987, 16.950015100184828, 18.932802699971944, 3.9326916001737118, 4.236577499657869, 4.853587000165135, 11.423816400114447, 5.933089599944651, 6.567726300098002]","[0.00022799987345933914, 0.03643700014799833, 0.06677230028435588, 0.030352000147104263, 0.032927199732512236, 0.08312109997496009, 0.03087959997355938, 0.03060860000550747, 0.046413599979132414, 6.5677331001497805]",0,,,,,,,,,,,,,,,,,,,,,,,,,,,,,,,,,,,,,,,,,,,,,,,,,,,,,,,,,,,,,,,,,,,,,,,,,,,,,,,,,,,,,,,,,,,,,,,,,,,,,,,,,,,,,,,,,,,,,,,,,,,,M9DFQN,train_x,blue_star,top_right,2025-05-05_17h11.54.010,HideSeek_v1,2022.2.5,59.98019445880729,
,,,,,,,,,,,,,,,0,0,0,0,10,0,10,0,,,,,,,,,,,,,,,,,,,,,,,,,,,,,,,conditions/schedules/train_x_first/blue_star_00/top_right/instructions/Slide11.png,conditions/schedules/train_x_first/blue_star_00/top_right/instructions/Audio11.wav,1182.752377500292,1182.7454899002798,11,"[3.9611370000056922, 18.016038000117987, 16.950015100184828, 18.932802699971944, 3.9326916001737118, 4.236577499657869, 4.853587000165135, 11.423816400114447, 5.933089599944651, 6.567726300098002, 9.715199099853635]","[0.00022799987345933914, 0.03643700014799833, 0.06677230028435588, 0.030352000147104263, 0.032927199732512236, 0.08312109997496009, 0.03087959997355938, 0.03060860000550747, 0.046413599979132414, 0.057033800054341555, 9.715207799803466]",0,,,,,,,,,,,,,,,,,,,,,,,,,,,,,,,,,,,,,,,,,,,,,,,,,,,,,,,,,,,,,,,,,,,,,,,,,,,,,,,,,,,,,,,,,,,,,,,,,,,,,,,,,,,,,,,,,,,,,,,,,,,,M9DFQN,train_x,blue_star,top_right,2025-05-05_17h11.54.010,HideSeek_v1,2022.2.5,59.98019445880729,
,,,,,,,,,,,,,,,0,0,0,0,11,0,11,0,,,,,,,,,,,,,,,,,,,,,,,,,,,,,,,conditions/schedules/train_x_first/blue_star_00/top_right/instructions/Slide12.png,conditions/schedules/train_x_first/blue_star_00/top_right/instructions/Audio12.wav,1192.5224029002711,1192.5204917004332,12,"[3.9611370000056922, 18.016038000117987, 16.950015100184828, 18.932802699971944, 3.9326916001737118, 4.236577499657869, 4.853587000165135, 11.423816400114447, 5.933089599944651, 6.567726300098002, 9.715199099853635, 12.372597199864686]","[0.00022799987345933914, 0.03643700014799833, 0.06677230028435588, 0.030352000147104263, 0.032927199732512236, 0.08312109997496009, 0.03087959997355938, 0.03060860000550747, 0.046413599979132414, 0.057033800054341555, 0.08087059995159507, 12.372603999916464]",0,,,,,,,,,,,,,,,,,,,,,,,,,,,,,,,,,,,,,,,,,,,,,,,,,,,,,,,,,,,,,,,,,,,,,,,,,,,,,,,,,,,,,,,,,,,,,,,,,,,,,,,,,,,,,,,,,,,,,,,,,,,,M9DFQN,train_x,blue_star,top_right,2025-05-05_17h11.54.010,HideSeek_v1,2022.2.5,59.98019445880729,
1,9,5,4,5,-5,0,11,2,instr_dim1_1,,,,,,0,0,0,0,,,,,0,0,0,0,,,,,,,,,,,,,,,,,,,,,,,,,,,,,,,,,,,,,stimuli/alien_stimuli/11.png,conditions/schedules/train_x_first/blue_star_00/top_right/inputInstr_1.xlsx,stimuli/alien_stimuli/11.png,1205.0018310002051,1205.0018310002051,1205.0018310002051,1205.0018310002051,1204.997632150445,return,8.052531700115651,"[-0.16, -0.08, 0, 0.08, 0.16, 0.24, 0.32, 0.4, 0.48, 0.56]","[-0.4, -0.32, -0.24, -0.16, -0.08, 0, 0.08, 0.16, 0.24, 0.32]",5,5,4,9,0.0,0.4,1213.2089472999796,1213.2089472999796,1213.2089472999796,1213.2089472999796,1213.2089472999796,1213.2089472999796,1213.2089472999796,1213.20422655046,8.02349659986794,return,7.857916899956763,stimuli/alien_stimuli/11.png,11,9,1,,,,,,,,,,,,,,,,,,,,,,,,,,,,,,,,,,,,,,,,,,,,,,,,,,,,,,,,,,,,,,,,,,,,,,,,,,,,,,,,,,,,,,,,,M9DFQN,train_x,blue_star,top_right,2025-05-05_17h11.54.010,HideSeek_v1,2022.2.5,59.98019445880729,
,,,,,,,,,,,30,,,,0,0,0,0,,,,,,,,,,,,,,,,,,,,,,,,,,,,,,,,,,,,,,,,,,,,,,,,,,,,,,,,,,,,,,,,,,,,,,,,,,,,,,21,0.7,0,0,99,1,30,0,conditions/schedules/train_x_first/blue_star_00/top_right/inputTrain_1.1.xlsx,99,1,1,1,0,,,,,,,,,,,,,,,,,,,,,,,,,,,,,,,,,,,,,,,,,,,,,,,,,,,,,,,,,,,,,,,,,,,,,,,,,,,M9DFQN,train_x,blue_star,top_right,2025-05-05_17h11.54.010,HideSeek_v1,2022.2.5,59.98019445880729,
,,,,,,,,,,,,,,,1,0,1,0,0,0,0,0,,,,,,,,,,,,,,,,,,,,,,,,,,,,,,,conditions/schedules/train_x_first/blue_star_00/top_right/instructions/Slide13.png,conditions/schedules/train_x_first/blue_star_00/top_right/instructions/Audio13.wav,1221.2470132000744,1221.244080700446,13,"[3.9611370000056922, 18.016038000117987, 16.950015100184828, 18.932802699971944, 3.9326916001737118, 4.236577499657869, 4.853587000165135, 11.423816400114447, 5.933089599944651, 6.567726300098002, 9.715199099853635, 12.372597199864686, 17.709159299731255]","[0.00022799987345933914, 0.03643700014799833, 0.06677230028435588, 0.030352000147104263, 0.032927199732512236, 0.08312109997496009, 0.03087959997355938, 0.03060860000550747, 0.046413599979132414, 0.057033800054341555, 0.08087059995159507, 12.372603999916464, 17.709166700020432]",0,,,,,,,,,,,,,,,,,,,,,,,,,,,,,,,,,,,,,,,,,,,,,,,,,,,,,,,,,,,,,,,,,,,,,,,,,,,,,,,,,,,,,,,,,,,,,,,,,,,,,,,,,,,,,,,,,,,,,,,,,,,,M9DFQN,train_x,blue_star,top_right,2025-05-05_17h11.54.010,HideSeek_v1,2022.2.5,59.98019445880729,
,,,,,,,,,,,,,,,1,0,1,0,1,0,1,0,,,,,,,,,,,,,,,,,,,,,,,,,,,,,,,conditions/schedules/train_x_first/blue_star_00/top_right/instructions/Slide14.png,conditions/schedules/train_x_first/blue_star_00/top_right/instructions/Audio14.wav,1239.0332470000722,1239.0259054503404,14,"[3.9611370000056922, 18.016038000117987, 16.950015100184828, 18.932802699971944, 3.9326916001737118, 4.236577499657869, 4.853587000165135, 11.423816400114447, 5.933089599944651, 6.567726300098002, 9.715199099853635, 12.372597199864686, 17.709159299731255, 12.467189200222492]","[0.00022799987345933914, 0.03643700014799833, 0.06677230028435588, 0.030352000147104263, 0.032927199732512236, 0.08312109997496009, 0.03087959997355938, 0.03060860000550747, 0.046413599979132414, 0.057033800054341555, 0.08087059995159507, 12.372603999916464, 17.709166700020432, 12.467195800039917]",0,,,,,,,,,,,,,,,,,,,,,,,,,,,,,,,,,,,,,,,,,,,,,,,,,,,,,,,,,,,,,,,,,,,,,,,,,,,,,,,,,,,,,,,,,,,,,,,,,,,,,,,,,,,,,,,,,,,,,,,,,,,,M9DFQN,train_x,blue_star,top_right,2025-05-05_17h11.54.010,HideSeek_v1,2022.2.5,59.98019445880729,
2,8,7,8,7,0,0,61,2,instr_dim1_1,,,,,,1,0,1,0,,,,,0,0,0,0,,,,,,,,,,,,,,,,,,,,,,,,,,,,,,,,,,,,,stimuli/alien_stimuli/61.png,conditions/schedules/train_x_first/blue_star_00/top_right/inputInstr_1.xlsx,stimuli/alien_stimuli/61.png,1251.6010215003043,1251.6010215003043,1251.6010215003043,1251.6010215003043,1251.586409200169,return,5.309364000335336,"[-0.16, -0.08, 0, 0.08, 0.16, 0.24, 0.32, 0.4, 0.48, 0.56]","[-0.4, -0.32, -0.24, -0.16, -0.08, 0, 0.08, 0.16, 0.24, 0.32]",7,7,8,8,0.0,0.0,1257.0876760999672,1257.0876760999672,1257.0876760999672,1257.0876760999672,1257.0876760999672,1257.0876760999672,1257.0876760999672,1257.074081950169,8.678039299789816,return,8.508899500127882,stimuli/alien_stimuli/61.png,61,8,2,,,,,,,,,,,,,,,,,,,,,,,,,,,,,,,,,,,,,,,,,,,,,,,,,,,,,,,,,,,,,,,,,,,,,,,,,,,,,,,,,,,,,,,,,M9DFQN,train_x,blue_star,top_right,2025-05-05_17h11.54.010,HideSeek_v1,2022.2.5,59.98019445880729,
,,,,,,,,,,,30,,,,1,0,1,0,,,,,,,,,,,,,,,,,,,,,,,,,,,,,,,,,,,,,,,,,,,,,,,,,,,,,,,,,,,,,,,,,,,,,,,,,,,,,,21,0.7,0,0,99,1,30,0,conditions/schedules/train_x_first/blue_star_00/top_right/inputTrain_1.1.xlsx,99,1,1,1,0,,,,,,,,,,,,,,,,,,,,,,,,,,,,,,,,,,,,,,,,,,,,,,,,,,,,,,,,,,,,,,,,,,,,,,,,,,,M9DFQN,train_x,blue_star,top_right,2025-05-05_17h11.54.010,HideSeek_v1,2022.2.5,59.98019445880729,
,,,,,,,,,,,,,,,2,0,2,0,0,0,0,0,,,,,,,,,,,,,,,,,,,,,,,,,,,,,,,conditions/schedules/train_x_first/blue_star_00/top_right/instructions/Slide15.png,conditions/schedules/train_x_first/blue_star_00/top_right/instructions/Audio15.wav,1265.7787720002234,1265.7675955002196,15,"[3.9611370000056922, 18.016038000117987, 16.950015100184828, 18.932802699971944, 3.9326916001737118, 4.236577499657869, 4.853587000165135, 11.423816400114447, 5.933089599944651, 6.567726300098002, 9.715199099853635, 12.372597199864686, 17.709159299731255, 12.467189200222492, 29.67386159999296]","[0.00022799987345933914, 0.03643700014799833, 0.06677230028435588, 0.030352000147104263, 0.032927199732512236, 0.08312109997496009, 0.03087959997355938, 0.03060860000550747, 0.046413599979132414, 0.057033800054341555, 0.08087059995159507, 12.372603999916464, 17.709166700020432, 12.467195800039917, 29.673869299702346]",0,,,,,,,,,,,,,,,,,,,,,,,,,,,,,,,,,,,,,,,,,,,,,,,,,,,,,,,,,,,,,,,,,,,,,,,,,,,,,,,,,,,,,,,,,,,,,,,,,,,,,,,,,,,,,,,,,,,,,,,,,,,,M9DFQN,train_x,blue_star,top_right,2025-05-05_17h11.54.010,HideSeek_v1,2022.2.5,59.98019445880729,
,,,,,,,,,,,,,,,2,0,2,0,1,0,1,0,,,,,,,,,,,,,,,,,,,,,,,,,,,,,,,conditions/schedules/train_x_first/blue_star_00/top_right/instructions/Slide16.png,conditions/schedules/train_x_first/blue_star_00/top_right/instructions/Audio16.wav,1295.531549599953,1295.522583250422,16,"[3.9611370000056922, 18.016038000117987, 16.950015100184828, 18.932802699971944, 3.9326916001737118, 4.236577499657869, 4.853587000165135, 11.423816400114447, 5.933089599944651, 6.567726300098002, 9.715199099853635, 12.372597199864686, 17.709159299731255, 12.467189200222492, 29.67386159999296, 21.639481300022453]","[0.00022799987345933914, 0.03643700014799833, 0.06677230028435588, 0.030352000147104263, 0.032927199732512236, 0.08312109997496009, 0.03087959997355938, 0.03060860000550747, 0.046413599979132414, 0.057033800054341555, 0.08087059995159507, 12.372603999916464, 17.709166700020432, 12.467195800039917, 0.0343109997920692, 21.63948820019141]",0,,,,,,,,,,,,,,,,,,,,,,,,,,,,,,,,,,,,,,,,,,,,,,,,,,,,,,,,,,,,,,,,,,,,,,,,,,,,,,,,,,,,,,,,,,,,,,,,,,,,,,,,,,,,,,,,,,,,,,,,,,,,M9DFQN,train_x,blue_star,top_right,2025-05-05_17h11.54.010,HideSeek_v1,2022.2.5,59.98019445880729,
,7,6,4,6,-3,0,31,,train_dim1_1,1,30,,,,2,0,2,0,,,,,,,,,0,0,0,0,0,0,0,0,0,0,0,0,,,,,,,,,,,,,,,,,,,,,,,,,stimuli/alien_stimuli/31.png,,,,,,,,,,,,,,,,,,,,,,,,,,,,,,,,,,,,,,,30,,,,,,,,1317.2772813001648,1317.2772813001648,1317.2772813001648,1317.2772813001648,1317.2772813001648,0,0,0.4,0.08,return,4.841860999818891,0,0,0,0,0.4,0.08,return,4.741896300110966,,,,,,,,,,,,,,,,,,,,,,,,,,,,,,,,,,,,,,,,,,,,,,,,,,,,,,,,M9DFQN,train_x,blue_star,top_right,2025-05-05_17h11.54.010,HideSeek_v1,2022.2.5,59.98019445880729,
,7,9,2,9,-5,0,11,,train_dim1_1,2,30,,,,2,0,2,0,,,,,,,,,0,0,0,0,0,1,1,1,0,0,0,0,,,,,,,,,,,,,,,,,,,,,,,,,stimuli/alien_stimuli/11.png,,,,,,,,,,,,,,,,,,,,,,,,,,,,,stimuli/alien_stimuli/31.png,31,7,3,,,,,,,30,,,,,,,,1347.2289861999452,1347.2289861999452,1347.2289861999452,1347.2289861999452,1347.2289861999452,,,,,down,1.6327283000573516,0,0,0,99,0.4,0.24,down,1.5333984000608325,1345.6475241002627,1347.2289861999452,0.16,0.08,0.0,0.24,0.08,0.16,0.28,0.16,0.08,1323.666619000025,1323.666619000025,1323.666619000025,1323.666619000025,1323.666619000025,1323.666619000025,1323.666619000025,1323.666619000025,1323.6625994503497,22.08780789980665,return,21.959425299894065,,,,,,,,,,,,,,,,,,,,,,,,,,,,,,,,,M9DFQN,train_x,blue_star,top_right,2025-05-05_17h11.54.010,HideSeek_v1,2022.2.5,59.98019445880729,
,7,9,2,9,-5,0,11,,train_dim1_1,2,30,,,,2,0,2,0,,,,,,,,,0,0,0,0,0,1,1,1,1,0,1,0,,,,,,,,,,,,,,,,,,,,,,,,,,,,,,,,,,,,,,,,,,,,,,,,,,,,,,,,,,,,,,,,30,,,,,,,,1348.8524695001543,1348.8524695001543,1348.8524695001543,1348.8524695001543,1348.8524695001543,,,,,down,3.562009199988097,0,0,0,99,0.4,0.15999999999999998,down,3.4763560998253524,,,,,,,,,,,,,,,,,,,,,,,,,,,,,,,,,,,,,,,,,,,,,,,,,,,,,,,,M9DFQN,train_x,blue_star,top_right,2025-05-05_17h11.54.010,HideSeek_v1,2022.2.5,59.98019445880729,
,7,9,2,9,-5,0,11,,train_dim1_1,2,30,,,,2,0,2,0,,,,,,,,,0,0,0,0,0,1,1,1,2,0,2,0,,,,,,,,,,,,,,,,,,,,,,,,,,,,,,,,,,,,,,,,,,,,,,,,,,,,,,,,,,,,,,,,30,,,,,,,,1352.4207099000923,1352.4207099000923,1352.4207099000923,1352.4207099000923,1352.4207099000923,,,,,down,2.294749299995601,0,0,0,99,0.4,0.07999999999999997,down,2.210047900211066,,,,,,,,,,,,,,,,,,,,,,,,,,,,,,,,,,,,,,,,,,,,,,,,,,,,,,,,M9DFQN,train_x,blue_star,top_right,2025-05-05_17h11.54.010,HideSeek_v1,2022.2.5,59.98019445880729,
,7,9,2,9,-5,0,11,,train_dim1_1,2,30,,,,2,0,2,0,,,,,,,,,0,0,0,0,0,1,1,1,3,0,3,0,,,,,,,,,,,,,,,,,,,,,,,,,,,,,,,,,,,,,,,,,,,,,,,,,,,,,,,,,,,,,,,,30,,,,,,,,1354.7232051999308,1354.7232051999308,1354.7232051999308,1354.7232051999308,1354.7232051999308,,,,,down,1.2940477998927236,0,0,0,99,0.4,-2.7755575615628914e-17,down,1.2020874000154436,,,,,,,,,,,,,,,,,,,,,,,,,,,,,,,,,,,,,,,,,,,,,,,,,,,,,,,,M9DFQN,train_x,blue_star,top_right,2025-05-05_17h11.54.010,HideSeek_v1,2022.2.5,59.98019445880729,
,7,9,2,9,-5,0,11,,train_dim1_1,2,30,,,,2,0,2,0,,,,,,,,,0,0,0,0,0,1,1,1,4,0,4,0,,,,,,,,,,,,,,,,,,,,,,,,,,,,,,,,,,,,,,,,,,,,,,,,,,,,,,,,,,,,,,,,30,,,,,,,,1356.0238129002973,1356.0238129002973,1356.0238129002973,1356.0238129002973,1356.0238129002973,-4,0,0.4,-2.7755575615628914e-17,return,0.6264669001102448,0,0,0,0,0.4,-2.7755575615628914e-17,return,0.5493896002881229,,,,,,,,,,,,,,,,,,,,,,,,,,,,,,,,,,,,,,,,,,,,,,,,,,,,,,,,M9DFQN,train_x,blue_star,top_right,2025-05-05_17h11.54.010,HideSeek_v1,2022.2.5,59.98019445880729,
,9,9,5,9,-4,0,21,,train_dim1_1,3,30,,,,2,0,2,0,,,,,,,,,0,0,0,0,0,2,2,2,0,0,0,0,,,,,,,,,,,,,,,,,,,,,,,,,stimuli/alien_stimuli/21.png,,,,,,,,,,,,,,,,,,,,,,,,,,,,,stimuli/alien_stimuli/11.png,11,7,4,,,,,,,30,,,,,,,,1363.514134600293,1363.514134600293,1363.514134600293,1363.514134600293,1363.514134600293,,,,,left,4.835321899969131,0,0,0,99,0.48000000000000004,0.32,left,4.740915599744767,1361.9445746000856,1363.514134600293,0,0.32,0.0,0.4,0.32,0,0.2,0,0.32,1358.232299100142,1358.232299100142,1358.232299100142,1358.232299100142,1358.232299100142,1358.232299100142,1358.232299100142,1358.232299100142,1358.2246826003304,3.8389484002254903,return,3.6962187001481652,,,,,,,,,,,,,,,,,,,,,,,,,,,,,,,,,M9DFQN,train_x,blue_star,top_right,2025-05-05_17h11.54.010,HideSeek_v1,2022.2.5,59.98019445880729,
,9,9,5,9,-4,0,21,,train_dim1_1,3,30,,,,2,0,2,0,,,,,,,,,0,0,0,0,0,2,2,2,1,0,1,0,,,,,,,,,,,,,,,,,,,,,,,,,,,,,,,,,,,,,,,,,,,,,,,,,,,,,,,,,,,,,,,,30,,,,,,,,1368.3510251999833,1368.3510251999833,1368.3510251999833,1368.3510251999833,1368.3510251999833,,,,,down,3.111787899862975,0,0,0,99,0.48000000000000004,0.24,down,3.0279298000968993,,,,,,,,,,,,,,,,,,,,,,,,,,,,,,,,,,,,,,,,,,,,,,,,,,,,,,,,M9DFQN,train_x,blue_star,top_right,2025-05-05_17h11.54.010,HideSeek_v1,2022.2.5,59.98019445880729,
,9,9,5,9,-4,0,21,,train_dim1_1,3,30,,,,2,0,2,0,,,,,,,,,0,0,0,0,0,2,2,2,2,0,2,0,,,,,,,,,,,,,,,,,,,,,,,,,,,,,,,,,,,,,,,,,,,,,,,,,,,,,,,,,,,,,,,,30,,,,,,,,1371.4690285003744,1371.4690285003744,1371.4690285003744,1371.4690285003744,1371.4690285003744,,,,,down,2.361825800035149,0,0,0,99,0.48000000000000004,0.15999999999999998,down,2.2847279999405146,,,,,,,,,,,,,,,,,,,,,,,,,,,,,,,,,,,,,,,,,,,,,,,,,,,,,,,,M9DFQN,train_x,blue_star,top_right,2025-05-05_17h11.54.010,HideSeek_v1,2022.2.5,59.98019445880729,
,9,9,5,9,-4,0,21,,train_dim1_1,3,30,,,,2,0,2,0,,,,,,,,,0,0,0,0,0,2,2,2,3,0,3,0,,,,,,,,,,,,,,,,,,,,,,,,,,,,,,,,,,,,,,,,,,,,,,,,,,,,,,,,,,,,,,,,30,,,,,,,,1373.8374177999794,1373.8374177999794,1373.8374177999794,1373.8374177999794,1373.8374177999794,,,,,left,0.5763658997602761,0,0,0,99,0.4,0.15999999999999998,left,0.49637139961123466,,,,,,,,,,,,,,,,,,,,,,,,,,,,,,,,,,,,,,,,,,,,,,,,,,,,,,,,M9DFQN,train_x,blue_star,top_right,2025-05-05_17h11.54.010,HideSeek_v1,2022.2.5,59.98019445880729,
,9,9,5,9,-4,0,21,,train_dim1_1,3,30,,,,2,0,2,0,,,,,,,,,0,0,0,0,0,2,2,2,4,0,4,0,,,,,,,,,,,,,,,,,,,,,,,,,,,,,,,,,,,,,,,,,,,,,,,,,,,,,,,,,,,,,,,,30,,,,,,,,1374.4214047002606,1374.4214047002606,1374.4214047002606,1374.4214047002606,1374.4214047002606,,,,,right,4.346698299981654,0,0,0,99,0.48000000000000004,0.15999999999999998,right,4.271470500156283,,,,,,,,,,,,,,,,,,,,,,,,,,,,,,,,,,,,,,,,,,,,,,,,,,,,,,,,M9DFQN,train_x,blue_star,top_right,2025-05-05_17h11.54.010,HideSeek_v1,2022.2.5,59.98019445880729,
,9,9,5,9,-4,0,21,,train_dim1_1,3,30,,,,2,0,2,0,,,,,,,,,0,0,0,0,0,2,2,2,5,0,5,0,,,,,,,,,,,,,,,,,,,,,,,,,,,,,,,,,,,,,,,,,,,,,,,,,,,,,,,,,,,,,,,,30,,,,,,,,1378.776639800053,1378.776639800053,1378.776639800053,1378.776639800053,1378.776639800053,,,,,right,0.24282790021970868,0,0,0,99,0.56,0.15999999999999998,right,0.16191340005025268,,,,,,,,,,,,,,,,,,,,,,,,,,,,,,,,,,,,,,,,,,,,,,,,,,,,,,,,M9DFQN,train_x,blue_star,top_right,2025-05-05_17h11.54.010,HideSeek_v1,2022.2.5,59.98019445880729,
,9,9,5,9,-4,0,21,,train_dim1_1,3,30,,,,2,0,2,0,,,,,,,,,0,0,0,0,0,2,2,2,6,0,6,0,,,,,,,,,,,,,,,,,,,,,,,,,,,,,,,,,,,,,,,,,,,,,,,,,,,,,,,,,,,,,,,,30,,,,,,,,1379.0281931003556,1379.0281931003556,1379.0281931003556,1379.0281931003556,1379.0281931003556,-6,0,0.56,0.15999999999999998,return,1.7444604998454452,0,0,0,0,0.56,0.15999999999999998,return,1.6650748997926712,,,,,,,,,,,,,,,,,,,,,,,,,,,,,,,,,,,,,,,,,,,,,,,,,,,,,,,,M9DFQN,train_x,blue_star,top_right,2025-05-05_17h11.54.010,HideSeek_v1,2022.2.5,59.98019445880729,
,7,8,6,8,-1,0,51,,train_dim1_1,4,30,,,,2,0,2,0,,,,,,,,,0,0,0,0,0,3,3,3,0,0,0,0,,,,,,,,,,,,,,,,,,,,,,,,,stimuli/alien_stimuli/51.png,,,,,,,,,,,,,,,,,,,,,,,,,,,,,stimuli/alien_stimuli/21.png,21,9,5,,,,,,,30,,,,,,,,1385.460567300208,1385.460567300208,1385.460567300208,1385.460567300208,1385.460567300208,,,,,up,2.568447000347078,0,0,0,99,0.4,0.32,up,2.4679453000426292,1383.8793438002467,1385.460567300208,0.24,0.32,0.0,0.32,0.32,0.24,0.4,0.24,0.32,1382.3501948001795,1382.3501948001795,1382.3501948001795,1382.3501948001795,1382.3501948001795,1382.3501948001795,1382.3501948001795,1382.3501948001795,1382.3280195504426,1.6538105001673102,return,1.5053029996342957,,,,,,,,,,,,,,,,,,,,,,,,,,,,,,,,,M9DFQN,train_x,blue_star,top_right,2025-05-05_17h11.54.010,HideSeek_v1,2022.2.5,59.98019445880729,
,7,8,6,8,-1,0,51,,train_dim1_1,4,30,,,,2,0,2,0,,,,,,,,,0,0,0,0,0,3,3,3,1,0,1,0,,,,,,,,,,,,,,,,,,,,,,,,,,,,,,,,,,,,,,,,,,,,,,,,,,,,,,,,,,,,,,,,30,,,,,,,,1388.0155210001394,1388.0155210001394,1388.0155210001394,1388.0155210001394,1388.0155210001394,,,,,down,2.9116507000289857,0,0,0,99,0.4,0.24,down,2.8218550998717546,,,,,,,,,,,,,,,,,,,,,,,,,,,,,,,,,,,,,,,,,,,,,,,,,,,,,,,,M9DFQN,train_x,blue_star,top_right,2025-05-05_17h11.54.010,HideSeek_v1,2022.2.5,59.98019445880729,
,7,8,6,8,-1,0,51,,train_dim1_1,4,30,,,,2,0,2,0,,,,,,,,,0,0,0,0,0,3,3,3,2,0,2,0,,,,,,,,,,,,,,,,,,,,,,,,,,,,,,,,,,,,,,,,,,,,,,,,,,,,,,,,,,,,,,,,30,,,,,,,,1390.9345893003047,1390.9345893003047,1390.9345893003047,1390.9345893003047,1390.9345893003047,-6,0,0.4,0.24,return,0.6932403999380767,0,1,0,0,0.4,0.24,return,0.6096177003346384,,,,,,,,,,,,,,,,,,,,,,,,,,,,,,,,,,,,,,,,,,,,,,,,,,,,,,,,M9DFQN,train_x,blue_star,top_right,2025-05-05_17h11.54.010,HideSeek_v1,2022.2.5,59.98019445880729,
,5,7,5,7,0,0,61,,train_dim1_1,5,30,,,,2,0,2,0,,,,,,,,,0,0,0,0,0,4,4,4,0,0,0,0,,,,,,,,,,,,,,,,,,,,,,,,,stimuli/alien_stimuli/61.png,,,,,,,,,,,,,,,,,,,,,,,,,,,,,stimuli/alien_stimuli/51.png,51,7,6,,,,,,,30,,,,,,,,1408.0779369999655,1408.0779369999655,1408.0779369999655,1408.0779369999655,1408.0779369999655,,,,,up,3.551121999975294,0,1,0,99,0.24,0.24,up,3.456200299784541,1406.4981308002025,1408.0779369999655,0.32,0.24,0.0,0.08,0.24,0.32,0.36,0.32,0.24,1393.2032238002867,1393.2032238002867,1393.2032238002867,1393.2032238002867,1393.2032238002867,1393.2032238002867,1393.2032238002867,1393.2032238002867,1393.1872659501619,13.413255200255662,return,13.269137599971145,,,,,,,,,,,,,,,,,,,,,,,,,,,,,,,,,M9DFQN,train_x,blue_star,top_right,2025-05-05_17h11.54.010,HideSeek_v1,2022.2.5,59.98019445880729,
,5,7,5,7,0,0,61,,train_dim1_1,5,30,,,,2,0,2,0,,,,,,,,,0,0,0,0,0,4,4,4,1,0,1,0,,,,,,,,,,,,,,,,,,,,,,,,,,,,,,,,,,,,,,,,,,,,,,,,,,,,,,,,,,,,,,,,30,,,,,,,,1411.6156024001539,1411.6156024001539,1411.6156024001539,1411.6156024001539,1411.6156024001539,,,,,down,0.5929504996165633,0,1,0,99,0.24,0.15999999999999998,down,0.510026500094682,,,,,,,,,,,,,,,,,,,,,,,,,,,,,,,,,,,,,,,,,,,,,,,,,,,,,,,,M9DFQN,train_x,blue_star,top_right,2025-05-05_17h11.54.010,HideSeek_v1,2022.2.5,59.98019445880729,
,5,7,5,7,0,0,61,,train_dim1_1,5,30,,,,2,0,2,0,,,,,,,,,0,0,0,0,0,4,4,4,2,0,2,0,,,,,,,,,,,,,,,,,,,,,,,,,,,,,,,,,,,,,,,,,,,,,,,,,,,,,,,,,,,,,,,,30,,,,,,,,1412.2158327000216,1412.2158327000216,1412.2158327000216,1412.2158327000216,1412.2158327000216,-6,0,0.24,0.15999999999999998,return,0.543064100202173,1,0,0,1,0.24,0.15999999999999998,return,0.46612320002168417,,,,,,,,,,,,,,,,,,,,,,,,,,,,,,,,,,,,,,,,,,,,,,,,,,,,,,,,M9DFQN,train_x,blue_star,top_right,2025-05-05_17h11.54.010,HideSeek_v1,2022.2.5,59.98019445880729,
,5,5,1,5,-4,0,21,,train_dim1_1,6,30,,,,2,0,2,0,,,,,,,,,0,0,0,0,0,5,5,5,0,0,0,0,,,,,,,,,,,,,,,,,,,,,,,,,stimuli/alien_stimuli/21.png,,,,,,,,,,,,,,,,,,,,,,,,,,,,,stimuli/alien_stimuli/61.png,61,5,7,,,,,,,30,,,,,,,,1420.243363100104,1420.243363100104,1420.243363100104,1420.243363100104,1420.243363100104,,,,,left,1.3830297999083996,1,0,0,99,0.15999999999999998,0,left,1.3001488000154495,1418.6749847000465,1420.243363100104,0.24,0.16,0.0,0.0,0.16,0.24,0.24,0.24,0.16,1414.338653600309,1414.338653600309,1414.338653600309,1414.338653600309,1414.338653600309,1414.338653600309,1414.338653600309,1414.338653600309,1414.3212681504897,4.455988600384444,return,4.320059699937701,,,,,,,,,,,,,,,,,,,,,,,,,,,,,,,,,M9DFQN,train_x,blue_star,top_right,2025-05-05_17h11.54.010,HideSeek_v1,2022.2.5,59.98019445880729,
,5,5,1,5,-4,0,21,,train_dim1_1,6,30,,,,2,0,2,0,,,,,,,,,0,0,0,0,0,5,5,5,1,0,1,0,,,,,,,,,,,,,,,,,,,,,,,,,,,,,,,,,,,,,,,,,,,,,,,,,,,,,,,,,,,,,,,,30,,,,,,,,1421.6283805002458,1421.6283805002458,1421.6283805002458,1421.6283805002458,1421.6283805002458,,,,,left,0.2925879000686109,1,0,0,99,0.07999999999999997,0,left,0.2101992997340858,,,,,,,,,,,,,,,,,,,,,,,,,,,,,,,,,,,,,,,,,,,,,,,,,,,,,,,,M9DFQN,train_x,blue_star,top_right,2025-05-05_17h11.54.010,HideSeek_v1,2022.2.5,59.98019445880729,
,5,5,1,5,-4,0,21,,train_dim1_1,6,30,,,,2,0,2,0,,,,,,,,,0,0,0,0,0,5,5,5,2,0,2,0,,,,,,,,,,,,,,,,,,,,,,,,,,,,,,,,,,,,,,,,,,,,,,,,,,,,,,,,,,,,,,,,30,,,,,,,,1421.9276209999807,1421.9276209999807,1421.9276209999807,1421.9276209999807,1421.9276209999807,,,,,left,0.3098769001662731,1,0,0,99,-2.7755575615628914e-17,0,left,0.22541290009394288,,,,,,,,,,,,,,,,,,,,,,,,,,,,,,,,,,,,,,,,,,,,,,,,,,,,,,,,M9DFQN,train_x,blue_star,top_right,2025-05-05_17h11.54.010,HideSeek_v1,2022.2.5,59.98019445880729,
,5,5,1,5,-4,0,21,,train_dim1_1,6,30,,,,2,0,2,0,,,,,,,,,0,0,0,0,0,5,5,5,3,0,3,0,,,,,,,,,,,,,,,,,,,,,,,,,,,,,,,,,,,,,,,,,,,,,,,,,,,,,,,,,,,,,,,,30,,,,,,,,1422.2443870003335,1422.2443870003335,1422.2443870003335,1422.2443870003335,1422.2443870003335,,,,,left,3.2121888999827206,1,0,0,99,-0.08000000000000003,0,left,3.132513599935919,,,,,,,,,,,,,,,,,,,,,,,,,,,,,,,,,,,,,,,,,,,,,,,,,,,,,,,,M9DFQN,train_x,blue_star,top_right,2025-05-05_17h11.54.010,HideSeek_v1,2022.2.5,59.98019445880729,
,5,5,1,5,-4,0,21,,train_dim1_1,6,30,,,,2,0,2,0,,,,,,,,,0,0,0,0,0,5,5,5,4,0,4,0,,,,,,,,,,,,,,,,,,,,,,,,,,,,,,,,,,,,,,,,,,,,,,,,,,,,,,,,,,,,,,,,30,,,,,,,,1425.4655351000838,1425.4655351000838,1425.4655351000838,1425.4655351000838,1425.4655351000838,,,,,left,0.9773105001077056,1,0,0,99,-0.16000000000000003,0,left,0.895515900105238,,,,,,,,,,,,,,,,,,,,,,,,,,,,,,,,,,,,,,,,,,,,,,,,,,,,,,,,M9DFQN,train_x,blue_star,top_right,2025-05-05_17h11.54.010,HideSeek_v1,2022.2.5,59.98019445880729,
,5,5,1,5,-4,0,21,,train_dim1_1,6,30,,,,2,0,2,0,,,,,,,,,0,0,0,0,0,5,5,5,5,0,5,0,,,,,,,,,,,,,,,,,,,,,,,,,,,,,,,,,,,,,,,,,,,,,,,,,,,,,,,,,,,,,,,,30,,,,,,,,1426.44848729996,1426.44848729996,1426.44848729996,1426.44848729996,1426.44848729996,-6,-5,-0.16000000000000003,0,return,0.5433006999082863,1,1,0,0,-0.16000000000000003,0,return,0.45484960032626987,,,,,,,,,,,,,,,,,,,,,,,,,,,,,,,,,,,,,,,,,,,,,,,,,,,,,,,,M9DFQN,train_x,blue_star,top_right,2025-05-05_17h11.54.010,HideSeek_v1,2022.2.5,59.98019445880729,
,8,5,8,5,0,0,61,,train_dim1_1,7,30,,,,2,0,2,0,,,,,,,,,0,0,0,0,0,6,6,6,0,0,0,0,,,,,,,,,,,,,,,,,,,,,,,,,stimuli/alien_stimuli/61.png,,,,,,,,,,,,,,,,,,,,,,,,,,,,,stimuli/alien_stimuli/21.png,21,5,8,,,,,,,30,,,,,,,,1433.0510999001563,1433.0510999001563,1433.0510999001563,1433.0510999001563,1433.0510999001563,,,,,left,1.649399199988693,1,1,0,99,0.39999999999999997,0,left,1.5668314998038113,1431.4856072999537,1433.0510999001563,-0.08,0,0.0,0.32,0.0,-0.08,0.07999999999999999,-0.08,0,1428.570233500097,1428.570233500097,1428.570233500097,1428.570233500097,1428.570233500097,1428.570233500097,1428.570233500097,1428.570233500097,1428.5498186502605,3.038764299824834,return,2.8990809000097215,,,,,,,,,,,,,,,,,,,,,,,,,,,,,,,,,M9DFQN,train_x,blue_star,top_right,2025-05-05_17h11.54.010,HideSeek_v1,2022.2.5,59.98019445880729,
,8,5,8,5,0,0,61,,train_dim1_1,7,30,,,,2,0,2,0,,,,,,,,,0,0,0,0,0,6,6,6,1,0,1,0,,,,,,,,,,,,,,,,,,,,,,,,,,,,,,,,,,,,,,,,,,,,,,,,,,,,,,,,,,,,,,,,30,,,,,,,,1434.701924300287,1434.701924300287,1434.701924300287,1434.701924300287,1434.701924300287,-6,-6,0.39999999999999997,0,return,1.2267936998978257,1,1,0,0,0.39999999999999997,0,return,1.1441770000383258,,,,,,,,,,,,,,,,,,,,,,,,,,,,,,,,,,,,,,,,,,,,,,,,,,,,,,,,M9DFQN,train_x,blue_star,top_right,2025-05-05_17h11.54.010,HideSeek_v1,2022.2.5,59.98019445880729,
,5,9,2,9,-3,0,31,,train_dim1_1,8,30,,,,2,0,2,0,,,,,,,,,0,0,0,0,0,7,7,7,0,0,0,0,,,,,,,,,,,,,,,,,,,,,,,,,stimuli/alien_stimuli/31.png,,,,,,,,,,,,,,,,,,,,,,,,,,,,,stimuli/alien_stimuli/61.png,61,8,9,,,,,,,30,,,,,,,,1440.5547581003048,1440.5547581003048,1440.5547581003048,1440.5547581003048,1440.5547581003048,,,,,left,1.5823065997101367,1,1,0,99,0.15999999999999998,0.32,left,1.4876581002026796,1438.9751105001196,1440.5547581003048,0.48,0,0.0,0.0,0.0,0.48,0.48,0.48,0,1437.4897950002924,1437.4897950002924,1437.4897950002924,1437.4897950002924,1437.4897950002924,1437.4897950002924,1437.4897950002924,1437.4897950002924,1437.4738215005025,1.5870420997962356,return,1.4556996002793312,,,,,,,,,,,,,,,,,,,,,,,,,,,,,,,,,M9DFQN,train_x,blue_star,top_right,2025-05-05_17h11.54.010,HideSeek_v1,2022.2.5,59.98019445880729,
,5,9,2,9,-3,0,31,,train_dim1_1,8,30,,,,2,0,2,0,,,,,,,,,0,0,0,0,0,7,7,7,1,0,1,0,,,,,,,,,,,,,,,,,,,,,,,,,,,,,,,,,,,,,,,,,,,,,,,,,,,,,,,,,,,,,,,,30,,,,,,,,1442.125674800016,1442.125674800016,1442.125674800016,1442.125674800016,1442.125674800016,,,,,left,0.49259749986231327,1,1,0,99,0.07999999999999997,0.32,left,0.4049181998707354,,,,,,,,,,,,,,,,,,,,,,,,,,,,,,,,,,,,,,,,,,,,,,,,,,,,,,,,M9DFQN,train_x,blue_star,top_right,2025-05-05_17h11.54.010,HideSeek_v1,2022.2.5,59.98019445880729,
,5,9,2,9,-3,0,31,,train_dim1_1,8,30,,,,2,0,2,0,,,,,,,,,0,0,0,0,0,7,7,7,2,0,2,0,,,,,,,,,,,,,,,,,,,,,,,,,,,,,,,,,,,,,,,,,,,,,,,,,,,,,,,,,,,,,,,,30,,,,,,,,1442.6250149002299,1442.6250149002299,1442.6250149002299,1442.6250149002299,1442.6250149002299,,,,,left,0.5600984003394842,1,1,0,99,-2.7755575615628914e-17,0.32,left,0.4714744002558291,,,,,,,,,,,,,,,,,,,,,,,,,,,,,,,,,,,,,,,,,,,,,,,,,,,,,,,,M9DFQN,train_x,blue_star,top_right,2025-05-05_17h11.54.010,HideSeek_v1,2022.2.5,59.98019445880729,
,5,9,2,9,-3,0,31,,train_dim1_1,8,30,,,,2,0,2,0,,,,,,,,,0,0,0,0,0,7,7,7,3,0,3,0,,,,,,,,,,,,,,,,,,,,,,,,,,,,,,,,,,,,,,,,,,,,,,,,,,,,,,,,,,,,,,,,30,,,,,,,,1443.1920730001293,1443.1920730001293,1443.1920730001293,1443.1920730001293,1443.1920730001293,,,,,left,0.5100746001116931,1,1,0,99,-0.08000000000000003,0.32,left,0.423751899972558,,,,,,,,,,,,,,,,,,,,,,,,,,,,,,,,,,,,,,,,,,,,,,,,,,,,,,,,M9DFQN,train_x,blue_star,top_right,2025-05-05_17h11.54.010,HideSeek_v1,2022.2.5,59.98019445880729,
,5,9,2,9,-3,0,31,,train_dim1_1,8,30,,,,2,0,2,0,,,,,,,,,0,0,0,0,0,7,7,7,4,0,4,0,,,,,,,,,,,,,,,,,,,,,,,,,,,,,,,,,,,,,,,,,,,,,,,,,,,,,,,,,,,,,,,,30,,,,,,,,1443.709555500187,1443.709555500187,1443.709555500187,1443.709555500187,1443.709555500187,,,,,left,0.4765897998586297,1,1,0,99,-0.16000000000000003,0.32,left,0.40410640044137836,,,,,,,,,,,,,,,,,,,,,,,,,,,,,,,,,,,,,,,,,,,,,,,,,,,,,,,,M9DFQN,train_x,blue_star,top_right,2025-05-05_17h11.54.010,HideSeek_v1,2022.2.5,59.98019445880729,
,5,9,2,9,-3,0,31,,train_dim1_1,8,30,,,,2,0,2,0,,,,,,,,,0,0,0,0,0,7,7,7,5,0,5,0,,,,,,,,,,,,,,,,,,,,,,,,,,,,,,,,,,,,,,,,,,,,,,,,,,,,,,,,,,,,,,,,30,,,,,,,,1444.19283309998,1444.19283309998,1444.19283309998,1444.19283309998,1444.19283309998,-6,-11,-0.16000000000000003,0.32,return,0.4601447000168264,1,0,0,0,-0.16000000000000003,0.32,return,0.3839811999350786,,,,,,,,,,,,,,,,,,,,,,,,,,,,,,,,,,,,,,,,,,,,,,,,,,,,,,,,M9DFQN,train_x,blue_star,top_right,2025-05-05_17h11.54.010,HideSeek_v1,2022.2.5,59.98019445880729,
,6,5,5,5,-1,0,51,,train_dim1_1,9,30,,,,2,0,2,0,,,,,,,,,0,0,0,0,0,8,8,8,0,0,0,0,,,,,,,,,,,,,,,,,,,,,,,,,stimuli/alien_stimuli/51.png,,,,,,,,,,,,,,,,,,,,,,,,,,,,,stimuli/alien_stimuli/31.png,31,5,10,,,,,,,30,,,,,,,,1449.4835594999604,1449.4835594999604,1449.4835594999604,1449.4835594999604,1449.4835594999604,,,,,left,1.3659906000830233,1,0,0,99,0.24,0,left,1.2556193000636995,1447.8990194001235,1449.4835594999604,0,0.32,0.0,0.24,0.32,0,0.12,0,0.32,1446.2145985001698,1446.2145985001698,1446.2145985001698,1446.2145985001698,1446.2145985001698,1446.2145985001698,1446.2145985001698,1446.2145985001698,1446.1979179002344,1.7869643000885844,return,1.65461550001055,,,,,,,,,,,,,,,,,,,,,,,,,,,,,,,,,M9DFQN,train_x,blue_star,top_right,2025-05-05_17h11.54.010,HideSeek_v1,2022.2.5,59.98019445880729,
,6,5,5,5,-1,0,51,,train_dim1_1,9,30,,,,2,0,2,0,,,,,,,,,0,0,0,0,0,8,8,8,1,0,1,0,,,,,,,,,,,,,,,,,,,,,,,,,,,,,,,,,,,,,,,,,,,,,,,,,,,,,,,,,,,,,,,,30,,,,,,,,1450.8341220002621,1450.8341220002621,1450.8341220002621,1450.8341220002621,1450.8341220002621,-6,-12,0.24,0,return,0.8603596999309957,2,0,0,1,0.24,0,return,0.7804561001248658,,,,,,,,,,,,,,,,,,,,,,,,,,,,,,,,,,,,,,,,,,,,,,,,,,,,,,,,M9DFQN,train_x,blue_star,top_right,2025-05-05_17h11.54.010,HideSeek_v1,2022.2.5,59.98019445880729,
,5,8,0,8,-5,0,11,,train_dim1_1,10,30,,,,2,0,2,0,,,,,,,,,0,0,0,0,0,9,9,9,0,0,0,0,,,,,,,,,,,,,,,,,,,,,,,,,stimuli/alien_stimuli/11.png,,,,,,,,,,,,,,,,,,,,,,,,,,,,,stimuli/alien_stimuli/51.png,51,6,11,,,,,,,30,,,,,,,,1457.5251106000505,1457.5251106000505,1457.5251106000505,1457.5251106000505,1457.5251106000505,,,,,left,1.1655720002017915,2,0,0,99,0.15999999999999998,0.24,left,1.079347399994731,1455.956141100265,1457.5251106000505,0.24,0,0.0,0.08,0.0,0.24,0.28,0.24,0,1453.2568471003324,1453.2568471003324,1453.2568471003324,1453.2568471003324,1453.2568471003324,1453.2568471003324,1453.2568471003324,1453.2568471003324,1453.2371832003817,2.8042490002699196,return,2.6722409003414214,,,,,,,,,,,,,,,,,,,,,,,,,,,,,,,,,M9DFQN,train_x,blue_star,top_right,2025-05-05_17h11.54.010,HideSeek_v1,2022.2.5,59.98019445880729,
,5,8,0,8,-5,0,11,,train_dim1_1,10,30,,,,2,0,2,0,,,,,,,,,0,0,0,0,0,9,9,9,1,0,1,0,,,,,,,,,,,,,,,,,,,,,,,,,,,,,,,,,,,,,,,,,,,,,,,,,,,,,,,,,,,,,,,,30,,,,,,,,1458.6920415000059,1458.6920415000059,1458.6920415000059,1458.6920415000059,1458.6920415000059,,,,,left,0.9097212003543973,2,0,0,99,0.07999999999999997,0.24,left,0.8270450001582503,,,,,,,,,,,,,,,,,,,,,,,,,,,,,,,,,,,,,,,,,,,,,,,,,,,,,,,,M9DFQN,train_x,blue_star,top_right,2025-05-05_17h11.54.010,HideSeek_v1,2022.2.5,59.98019445880729,
,5,8,0,8,-5,0,11,,train_dim1_1,10,30,,,,2,0,2,0,,,,,,,,,0,0,0,0,0,9,9,9,2,0,2,0,,,,,,,,,,,,,,,,,,,,,,,,,,,,,,,,,,,,,,,,,,,,,,,,,,,,,,,,,,,,,,,,30,,,,,,,,1459.6100030001253,1459.6100030001253,1459.6100030001253,1459.6100030001253,1459.6100030001253,,,,,left,1.027265400160104,2,0,0,99,-2.7755575615628914e-17,0.24,left,0.9368333998136222,,,,,,,,,,,,,,,,,,,,,,,,,,,,,,,,,,,,,,,,,,,,,,,,,,,,,,,,M9DFQN,train_x,blue_star,top_right,2025-05-05_17h11.54.010,HideSeek_v1,2022.2.5,59.98019445880729,
,5,8,0,8,-5,0,11,,train_dim1_1,10,30,,,,2,0,2,0,,,,,,,,,0,0,0,0,0,9,9,9,3,0,3,0,,,,,,,,,,,,,,,,,,,,,,,,,,,,,,,,,,,,,,,,,,,,,,,,,,,,,,,,,,,,,,,,30,,,,,,,,1460.6437102002092,1460.6437102002092,1460.6437102002092,1460.6437102002092,1460.6437102002092,,,,,left,0.526450099889189,2,0,0,99,-0.08000000000000003,0.24,left,0.44566329987719655,,,,,,,,,,,,,,,,,,,,,,,,,,,,,,,,,,,,,,,,,,,,,,,,,,,,,,,,M9DFQN,train_x,blue_star,top_right,2025-05-05_17h11.54.010,HideSeek_v1,2022.2.5,59.98019445880729,
,5,8,0,8,-5,0,11,,train_dim1_1,10,30,,,,2,0,2,0,,,,,,,,,0,0,0,0,0,9,9,9,4,0,4,0,,,,,,,,,,,,,,,,,,,,,,,,,,,,,,,,,,,,,,,,,,,,,,,,,,,,,,,,,,,,,,,,30,,,,,,,,1461.1768741002306,1461.1768741002306,1461.1768741002306,1461.1768741002306,1461.1768741002306,-6,-16,-0.08000000000000003,0.24,return,0.3432450001128018,2,1,0,0,-0.08000000000000003,0.24,return,0.2620399999432266,,,,,,,,,,,,,,,,,,,,,,,,,,,,,,,,,,,,,,,,,,,,,,,,,,,,,,,,M9DFQN,train_x,blue_star,top_right,2025-05-05_17h11.54.010,HideSeek_v1,2022.2.5,59.98019445880729,
,7,7,4,7,-3,0,31,,train_dim1_1,11,30,,,,2,0,2,0,,,,,,,,,0,0,0,0,0,10,10,10,0,0,0,0,,,,,,,,,,,,,,,,,,,,,,,,,stimuli/alien_stimuli/31.png,,,,,,,,,,,,,,,,,,,,,,,,,,,,,stimuli/alien_stimuli/11.png,11,5,12,,,,,,,30,,,,,,,,1466.1603283002041,1466.1603283002041,1466.1603283002041,1466.1603283002041,1466.1603283002041,,,,,down,2.0844296999275684,2,1,0,99,0.4,0.08,down,1.9781658998690546,1464.5797164002433,1466.1603283002041,-0.16,0.24,0.0,0.4,0.24,-0.16,0.039999999999999994,-0.16,0.24,1463.0864710002206,1463.0864710002206,1463.0864710002206,1463.0864710002206,1463.0864710002206,1463.0864710002206,1463.0864710002206,1463.0864710002206,1463.078632650338,1.6035853000357747,return,1.4743554000742733,,,,,,,,,,,,,,,,,,,,,,,,,,,,,,,,,M9DFQN,train_x,blue_star,top_right,2025-05-05_17h11.54.010,HideSeek_v1,2022.2.5,59.98019445880729,
,7,7,4,7,-3,0,31,,train_dim1_1,11,30,,,,2,0,2,0,,,,,,,,,0,0,0,0,0,10,10,10,1,0,1,0,,,,,,,,,,,,,,,,,,,,,,,,,,,,,,,,,,,,,,,,,,,,,,,,,,,,,,,,,,,,,,,,30,,,,,,,,1468.2309258999303,1468.2309258999303,1468.2309258999303,1468.2309258999303,1468.2309258999303,,,,,up,1.5601822999306023,2,1,0,99,0.4,0.16,up,1.4807910001836717,,,,,,,,,,,,,,,,,,,,,,,,,,,,,,,,,,,,,,,,,,,,,,,,,,,,,,,,M9DFQN,train_x,blue_star,top_right,2025-05-05_17h11.54.010,HideSeek_v1,2022.2.5,59.98019445880729,
,7,7,4,7,-3,0,31,,train_dim1_1,11,30,,,,2,0,2,0,,,,,,,,,0,0,0,0,0,10,10,10,2,0,2,0,,,,,,,,,,,,,,,,,,,,,,,,,,,,,,,,,,,,,,,,,,,,,,,,,,,,,,,,,,,,,,,,30,,,,,,,,1469.7969805002213,1469.7969805002213,1469.7969805002213,1469.7969805002213,1469.7969805002213,,,,,left,0.46015619998797774,2,1,0,99,0.32,0.16,left,0.37661469960585237,,,,,,,,,,,,,,,,,,,,,,,,,,,,,,,,,,,,,,,,,,,,,,,,,,,,,,,,M9DFQN,train_x,blue_star,top_right,2025-05-05_17h11.54.010,HideSeek_v1,2022.2.5,59.98019445880729,
,7,7,4,7,-3,0,31,,train_dim1_1,11,30,,,,2,0,2,0,,,,,,,,,0,0,0,0,0,10,10,10,3,0,3,0,,,,,,,,,,,,,,,,,,,,,,,,,,,,,,,,,,,,,,,,,,,,,,,,,,,,,,,,,,,,,,,,30,,,,,,,,1470.264070900157,1470.264070900157,1470.264070900157,1470.264070900157,1470.264070900157,,,,,left,1.1603933000005782,2,1,0,99,0.24,0.16,left,1.0744586996734142,,,,,,,,,,,,,,,,,,,,,,,,,,,,,,,,,,,,,,,,,,,,,,,,,,,,,,,,M9DFQN,train_x,blue_star,top_right,2025-05-05_17h11.54.010,HideSeek_v1,2022.2.5,59.98019445880729,
,7,7,4,7,-3,0,31,,train_dim1_1,11,30,,,,2,0,2,0,,,,,,,,,0,0,0,0,0,10,10,10,4,0,4,0,,,,,,,,,,,,,,,,,,,,,,,,,,,,,,,,,,,,,,,,,,,,,,,,,,,,,,,,,,,,,,,,30,,,,,,,,1471.432528400328,1471.432528400328,1471.432528400328,1471.432528400328,1471.432528400328,,,,,left,0.593223299831152,2,1,0,99,0.15999999999999998,0.16,left,0.5138172996230423,,,,,,,,,,,,,,,,,,,,,,,,,,,,,,,,,,,,,,,,,,,,,,,,,,,,,,,,M9DFQN,train_x,blue_star,top_right,2025-05-05_17h11.54.010,HideSeek_v1,2022.2.5,59.98019445880729,
,7,7,4,7,-3,0,31,,train_dim1_1,11,30,,,,2,0,2,0,,,,,,,,,0,0,0,0,0,10,10,10,5,0,5,0,,,,,,,,,,,,,,,,,,,,,,,,,,,,,,,,,,,,,,,,,,,,,,,,,,,,,,,,,,,,,,,,30,,,,,,,,1472.032050400041,1472.032050400041,1472.032050400041,1472.032050400041,1472.032050400041,,,,,left,0.5432271999306977,2,1,0,99,0.07999999999999997,0.16,left,0.4673780999146402,,,,,,,,,,,,,,,,,,,,,,,,,,,,,,,,,,,,,,,,,,,,,,,,,,,,,,,,M9DFQN,train_x,blue_star,top_right,2025-05-05_17h11.54.010,HideSeek_v1,2022.2.5,59.98019445880729,
,7,7,4,7,-3,0,31,,train_dim1_1,11,30,,,,2,0,2,0,,,,,,,,,0,0,0,0,0,10,10,10,6,0,6,0,,,,,,,,,,,,,,,,,,,,,,,,,,,,,,,,,,,,,,,,,,,,,,,,,,,,,,,,,,,,,,,,30,,,,,,,,1472.5838768002577,1472.5838768002577,1472.5838768002577,1472.5838768002577,1472.5838768002577,-6,-20,0.07999999999999997,0.16,return,0.5104053001850843,2,1,0,0,0.07999999999999997,0.16,return,0.43516269978135824,,,,,,,,,,,,,,,,,,,,,,,,,,,,,,,,,,,,,,,,,,,,,,,,,,,,,,,,M9DFQN,train_x,blue_star,top_right,2025-05-05_17h11.54.010,HideSeek_v1,2022.2.5,59.98019445880729,
,5,5,1,5,-4,0,21,,train_dim1_1,12,30,,,,2,0,2,0,,,,,,,,,0,0,0,0,0,11,11,11,0,0,0,0,,,,,,,,,,,,,,,,,,,,,,,,,stimuli/alien_stimuli/21.png,,,,,,,,,,,,,,,,,,,,,,,,,,,,,stimuli/alien_stimuli/31.png,31,7,13,,,,,,,30,,,,,,,,1477.3883533002809,1477.3883533002809,1477.3883533002809,1477.3883533002809,1477.3883533002809,,,,,left,0.9656294998712838,2,1,0,99,0.15999999999999998,0,left,0.8648509997874498,1475.8058669003658,1477.3883533002809,0.16,0.16,0.0,0.24,0.16,0.16,0.28,0.16,0.16,1474.6699465001002,1474.6699465001002,1474.6699465001002,1474.6699465001002,1474.6699465001002,1474.6699465001002,1474.6699465001002,1474.6699465001002,1474.6547497505321,1.2529785996302962,return,1.112531099934131,,,,,,,,,,,,,,,,,,,,,,,,,,,,,,,,,M9DFQN,train_x,blue_star,top_right,2025-05-05_17h11.54.010,HideSeek_v1,2022.2.5,59.98019445880729,
,5,5,1,5,-4,0,21,,train_dim1_1,12,30,,,,2,0,2,0,,,,,,,,,0,0,0,0,0,11,11,11,1,0,1,0,,,,,,,,,,,,,,,,,,,,,,,,,,,,,,,,,,,,,,,,,,,,,,,,,,,,,,,,,,,,,,,,30,,,,,,,,1478.3428885000758,1478.3428885000758,1478.3428885000758,1478.3428885000758,1478.3428885000758,,,,,left,0.5758750000968575,2,1,0,99,0.07999999999999997,0,left,0.49916400015354156,,,,,,,,,,,,,,,,,,,,,,,,,,,,,,,,,,,,,,,,,,,,,,,,,,,,,,,,M9DFQN,train_x,blue_star,top_right,2025-05-05_17h11.54.010,HideSeek_v1,2022.2.5,59.98019445880729,
,5,5,1,5,-4,0,21,,train_dim1_1,12,30,,,,2,0,2,0,,,,,,,,,0,0,0,0,0,11,11,11,2,0,2,0,,,,,,,,,,,,,,,,,,,,,,,,,,,,,,,,,,,,,,,,,,,,,,,,,,,,,,,,,,,,,,,,30,,,,,,,,1478.9263341999613,1478.9263341999613,1478.9263341999613,1478.9263341999613,1478.9263341999613,,,,,left,0.6102006998844445,2,1,0,99,-2.7755575615628914e-17,0,left,0.521299900021404,,,,,,,,,,,,,,,,,,,,,,,,,,,,,,,,,,,,,,,,,,,,,,,,,,,,,,,,M9DFQN,train_x,blue_star,top_right,2025-05-05_17h11.54.010,HideSeek_v1,2022.2.5,59.98019445880729,
,5,5,1,5,-4,0,21,,train_dim1_1,12,30,,,,2,0,2,0,,,,,,,,,0,0,0,0,0,11,11,11,3,0,3,0,,,,,,,,,,,,,,,,,,,,,,,,,,,,,,,,,,,,,,,,,,,,,,,,,,,,,,,,,,,,,,,,30,,,,,,,,1479.542629600037,1479.542629600037,1479.542629600037,1479.542629600037,1479.542629600037,-6,-23,-2.7755575615628914e-17,0,return,1.5102111999876797,2,1,0,0,-2.7755575615628914e-17,0,return,1.4323207000270486,,,,,,,,,,,,,,,,,,,,,,,,,,,,,,,,,,,,,,,,,,,,,,,,,,,,,,,,M9DFQN,train_x,blue_star,top_right,2025-05-05_17h11.54.010,HideSeek_v1,2022.2.5,59.98019445880729,
,5,9,4,9,-1,0,51,,train_dim1_1,13,30,,,,2,0,2,0,,,,,,,,,0,0,0,0,0,12,12,12,0,0,0,0,,,,,,,,,,,,,,,,,,,,,,,,,stimuli/alien_stimuli/51.png,,,,,,,,,,,,,,,,,,,,,,,,,,,,,stimuli/alien_stimuli/21.png,21,5,14,,,,,,,30,,,,,,,,1485.193230499979,1485.193230499979,1485.193230499979,1485.193230499979,1485.193230499979,,,,,left,1.5808630003593862,2,1,0,99,0.15999999999999998,0.32,left,1.4837845000438392,1483.6123546003364,1485.193230499979,-0.08,0,0.0,0.32,0.0,-0.08,0.07999999999999999,-0.08,0,1482.6172831002623,1482.6172831002623,1482.6172831002623,1482.6172831002623,1482.6172831002623,1482.6172831002623,1482.6172831002623,1482.6172831002623,1482.6114609501324,1.103044900111854,return,0.9654606999829412,,,,,,,,,,,,,,,,,,,,,,,,,,,,,,,,,M9DFQN,train_x,blue_star,top_right,2025-05-05_17h11.54.010,HideSeek_v1,2022.2.5,59.98019445880729,
,5,9,4,9,-1,0,51,,train_dim1_1,13,30,,,,2,0,2,0,,,,,,,,,0,0,0,0,0,12,12,12,1,0,1,0,,,,,,,,,,,,,,,,,,,,,,,,,,,,,,,,,,,,,,,,,,,,,,,,,,,,,,,,,,,,,,,,30,,,,,,,,1486.7644616002217,1486.7644616002217,1486.7644616002217,1486.7644616002217,1486.7644616002217,,,,,right,0.4430510001257062,2,1,0,99,0.24,0.32,right,0.35926529997959733,,,,,,,,,,,,,,,,,,,,,,,,,,,,,,,,,,,,,,,,,,,,,,,,,,,,,,,,M9DFQN,train_x,blue_star,top_right,2025-05-05_17h11.54.010,HideSeek_v1,2022.2.5,59.98019445880729,
,5,9,4,9,-1,0,51,,train_dim1_1,13,30,,,,2,0,2,0,,,,,,,,,0,0,0,0,0,12,12,12,2,0,2,0,,,,,,,,,,,,,,,,,,,,,,,,,,,,,,,,,,,,,,,,,,,,,,,,,,,,,,,,,,,,,,,,30,,,,,,,,1487.2140939002857,1487.2140939002857,1487.2140939002857,1487.2140939002857,1487.2140939002857,-6,-23,0.24,0.32,return,0.44329770002514124,2,1,0,0,0.24,0.32,return,0.35682399990037084,,,,,,,,,,,,,,,,,,,,,,,,,,,,,,,,,,,,,,,,,,,,,,,,,,,,,,,,M9DFQN,train_x,blue_star,top_right,2025-05-05_17h11.54.010,HideSeek_v1,2022.2.5,59.98019445880729,
,9,8,4,8,-5,0,11,,train_dim1_1,14,30,,,,2,0,2,0,,,,,,,,,0,0,0,0,0,13,13,13,0,0,0,0,,,,,,,,,,,,,,,,,,,,,,,,,stimuli/alien_stimuli/11.png,,,,,,,,,,,,,,,,,,,,,,,,,,,,,stimuli/alien_stimuli/51.png,51,5,15,,,,,,,30,,,,,,,,1491.8878115001135,1491.8878115001135,1491.8878115001135,1491.8878115001135,1491.8878115001135,,,,,left,1.1665977002121508,2,1,0,99,0.48000000000000004,0.24,left,1.071787599939853,1490.3177478001453,1491.8878115001135,0.16,0.32,0.0,0.08,0.32,0.16,0.2,0.16,0.32,1489.2253962000832,1489.2253962000832,1489.2253962000832,1489.2253962000832,1489.2253962000832,1489.2253962000832,1489.2253962000832,1489.2253962000832,1489.2168804503976,1.2036076001822948,return,1.0718860998749733,,,,,,,,,,,,,,,,,,,,,,,,,,,,,,,,,M9DFQN,train_x,blue_star,top_right,2025-05-05_17h11.54.010,HideSeek_v1,2022.2.5,59.98019445880729,
,9,8,4,8,-5,0,11,,train_dim1_1,14,30,,,,2,0,2,0,,,,,,,,,0,0,0,0,0,13,13,13,1,0,1,0,,,,,,,,,,,,,,,,,,,,,,,,,,,,,,,,,,,,,,,,,,,,,,,,,,,,,,,,,,,,,,,,30,,,,,,,,1493.0544560002163,1493.0544560002163,1493.0544560002163,1493.0544560002163,1493.0544560002163,,,,,left,0.6594988997094333,2,1,0,99,0.4,0.24,left,0.5761378998868167,,,,,,,,,,,,,,,,,,,,,,,,,,,,,,,,,,,,,,,,,,,,,,,,,,,,,,,,M9DFQN,train_x,blue_star,top_right,2025-05-05_17h11.54.010,HideSeek_v1,2022.2.5,59.98019445880729,
,9,8,4,8,-5,0,11,,train_dim1_1,14,30,,,,2,0,2,0,,,,,,,,,0,0,0,0,0,13,13,13,2,0,2,0,,,,,,,,,,,,,,,,,,,,,,,,,,,,,,,,,,,,,,,,,,,,,,,,,,,,,,,,,,,,,,,,30,,,,,,,,1493.72371749999,1493.72371749999,1493.72371749999,1493.72371749999,1493.72371749999,,,,,left,0.5933976001106203,2,1,0,99,0.32,0.24,left,0.4989263000898063,,,,,,,,,,,,,,,,,,,,,,,,,,,,,,,,,,,,,,,,,,,,,,,,,,,,,,,,M9DFQN,train_x,blue_star,top_right,2025-05-05_17h11.54.010,HideSeek_v1,2022.2.5,59.98019445880729,
,9,8,4,8,-5,0,11,,train_dim1_1,14,30,,,,2,0,2,0,,,,,,,,,0,0,0,0,0,13,13,13,3,0,3,0,,,,,,,,,,,,,,,,,,,,,,,,,,,,,,,,,,,,,,,,,,,,,,,,,,,,,,,,,,,,,,,,30,,,,,,,,1494.3224647003226,1494.3224647003226,1494.3224647003226,1494.3224647003226,1494.3224647003226,-6,-26,0.32,0.24,return,1.2100693001411855,2,0,0,0,0.32,0.24,return,1.1235402002930641,,,,,,,,,,,,,,,,,,,,,,,,,,,,,,,,,,,,,,,,,,,,,,,,,,,,,,,,M9DFQN,train_x,blue_star,top_right,2025-05-05_17h11.54.010,HideSeek_v1,2022.2.5,59.98019445880729,
,9,7,9,7,0,0,61,,train_dim1_1,15,30,,,,2,0,2,0,,,,,,,,,0,0,0,0,0,14,14,14,0,0,0,0,,,,,,,,,,,,,,,,,,,,,,,,,stimuli/alien_stimuli/61.png,,,,,,,,,,,,,,,,,,,,,,,,,,,,,stimuli/alien_stimuli/11.png,11,9,16,,,,,,,30,,,,,,,,1499.6188819999807,1499.6188819999807,1499.6188819999807,1499.6188819999807,1499.6188819999807,,,,,left,1.150475099682808,2,0,0,99,0.48000000000000004,0.16,left,1.046321699861437,1498.0411200001836,1499.6188819999807,0.16,0.24,0.0,0.4,0.24,0.16,0.36000000000000004,0.16,0.24,1497.09872370027,1497.09872370027,1497.09872370027,1497.09872370027,1497.09872370027,1497.09872370027,1497.09872370027,1497.09872370027,1497.0900696501135,1.0531940003857017,return,0.9181098998524249,,,,,,,,,,,,,,,,,,,,,,,,,,,,,,,,,M9DFQN,train_x,blue_star,top_right,2025-05-05_17h11.54.010,HideSeek_v1,2022.2.5,59.98019445880729,
,9,7,9,7,0,0,61,,train_dim1_1,15,30,,,,2,0,2,0,,,,,,,,,0,0,0,0,0,14,14,14,1,0,1,0,,,,,,,,,,,,,,,,,,,,,,,,,,,,,,,,,,,,,,,,,,,,,,,,,,,,,,,,,,,,,,,,30,,,,,,,,1500.7564485999756,1500.7564485999756,1500.7564485999756,1500.7564485999756,1500.7564485999756,,,,,right,0.5261884997598827,2,0,0,99,0.56,0.16,right,0.4399039000272751,,,,,,,,,,,,,,,,,,,,,,,,,,,,,,,,,,,,,,,,,,,,,,,,,,,,,,,,M9DFQN,train_x,blue_star,top_right,2025-05-05_17h11.54.010,HideSeek_v1,2022.2.5,59.98019445880729,
,9,7,9,7,0,0,61,,train_dim1_1,15,30,,,,2,0,2,0,,,,,,,,,0,0,0,0,0,14,14,14,2,0,2,0,,,,,,,,,,,,,,,,,,,,,,,,,,,,,,,,,,,,,,,,,,,,,,,,,,,,,,,,,,,,,,,,30,,,,,,,,1501.2897887001745,1501.2897887001745,1501.2897887001745,1501.2897887001745,1501.2897887001745,-6,-26,0.56,0.16,return,0.4269607001915574,3,0,0,1,0.56,0.16,return,0.34351699985563755,,,,,,,,,,,,,,,,,,,,,,,,,,,,,,,,,,,,,,,,,,,,,,,,,,,,,,,,M9DFQN,train_x,blue_star,top_right,2025-05-05_17h11.54.010,HideSeek_v1,2022.2.5,59.98019445880729,
,8,8,7,8,-1,0,51,,train_dim1_1,16,30,,,,2,0,2,0,,,,,,,,,0,0,0,0,0,15,15,15,0,0,0,0,,,,,,,,,,,,,,,,,,,,,,,,,stimuli/alien_stimuli/51.png,,,,,,,,,,,,,,,,,,,,,,,,,,,,,stimuli/alien_stimuli/61.png,61,9,17,,,,,,,30,,,,,,,,1505.8311165999621,1505.8311165999621,1505.8311165999621,1505.8311165999621,1505.8311165999621,,,,,left,2.3851093999110162,3,0,0,99,0.39999999999999997,0.24,left,2.2863591997884214,1504.2632657000795,1505.8311165999621,0.56,0.16,0.0,0.0,0.16,0.56,0.56,0.56,0.16,1503.2797592002898,1503.2797592002898,1503.2797592002898,1503.2797592002898,1503.2797592002898,1503.2797592002898,1503.2797592002898,1503.2797592002898,1503.2619595003314,1.086702600121498,return,0.9672713000327349,,,,,,,,,,,,,,,,,,,,,,,,,,,,,,,,,M9DFQN,train_x,blue_star,top_right,2025-05-05_17h11.54.010,HideSeek_v1,2022.2.5,59.98019445880729,
,8,8,7,8,-1,0,51,,train_dim1_1,16,30,,,,2,0,2,0,,,,,,,,,0,0,0,0,0,15,15,15,1,0,1,0,,,,,,,,,,,,,,,,,,,,,,,,,,,,,,,,,,,,,,,,,,,,,,,,,,,,,,,,,,,,,,,,30,,,,,,,,1508.215178400278,1508.215178400278,1508.215178400278,1508.215178400278,1508.215178400278,-6,-27,0.39999999999999997,0.24,return,0.4092606999911368,4,0,0,1,0.39999999999999997,0.24,return,0.3196296999230981,,,,,,,,,,,,,,,,,,,,,,,,,,,,,,,,,,,,,,,,,,,,,,,,,,,,,,,,M9DFQN,train_x,blue_star,top_right,2025-05-05_17h11.54.010,HideSeek_v1,2022.2.5,59.98019445880729,
,7,9,3,9,-4,0,21,,train_dim1_1,17,30,,,,2,0,2,0,,,,,,,,,0,0,0,0,0,16,16,16,0,0,0,0,,,,,,,,,,,,,,,,,,,,,,,,,stimuli/alien_stimuli/21.png,,,,,,,,,,,,,,,,,,,,,,,,,,,,,stimuli/alien_stimuli/51.png,51,8,18,,,,,,,30,,,,,,,,1512.6707784002647,1512.6707784002647,1512.6707784002647,1512.6707784002647,1512.6707784002647,,,,,left,0.765656600240618,4,0,0,99,0.32,0.32,left,0.673110700212419,1511.1019309000112,1512.6707784002647,0.4,0.24,0.0,0.08,0.24,0.4,0.44,0.4,0.24,1510.1893318002112,1510.1893318002112,1510.1893318002112,1510.1893318002112,1510.1893318002112,1510.1893318002112,1510.1893318002112,1510.1893318002112,1510.167722000461,1.0193835999816656,return,0.8873759000562131,,,,,,,,,,,,,,,,,,,,,,,,,,,,,,,,,M9DFQN,train_x,blue_star,top_right,2025-05-05_17h11.54.010,HideSeek_v1,2022.2.5,59.98019445880729,
,7,9,3,9,-4,0,21,,train_dim1_1,17,30,,,,2,0,2,0,,,,,,,,,0,0,0,0,0,16,16,16,1,0,1,0,,,,,,,,,,,,,,,,,,,,,,,,,,,,,,,,,,,,,,,,,,,,,,,,,,,,,,,,,,,,,,,,30,,,,,,,,1513.437331000343,1513.437331000343,1513.437331000343,1513.437331000343,1513.437331000343,,,,,left,0.45961709972471,4,0,0,99,0.24,0.32,left,0.37883449997752905,,,,,,,,,,,,,,,,,,,,,,,,,,,,,,,,,,,,,,,,,,,,,,,,,,,,,,,,M9DFQN,train_x,blue_star,top_right,2025-05-05_17h11.54.010,HideSeek_v1,2022.2.5,59.98019445880729,
,7,9,3,9,-4,0,21,,train_dim1_1,17,30,,,,2,0,2,0,,,,,,,,,0,0,0,0,0,16,16,16,2,0,2,0,,,,,,,,,,,,,,,,,,,,,,,,,,,,,,,,,,,,,,,,,,,,,,,,,,,,,,,,,,,,,,,,30,,,,,,,,1513.9038039003499,1513.9038039003499,1513.9038039003499,1513.9038039003499,1513.9038039003499,,,,,left,0.4928836999461055,4,0,0,99,0.15999999999999998,0.32,left,0.4042529002763331,,,,,,,,,,,,,,,,,,,,,,,,,,,,,,,,,,,,,,,,,,,,,,,,,,,,,,,,M9DFQN,train_x,blue_star,top_right,2025-05-05_17h11.54.010,HideSeek_v1,2022.2.5,59.98019445880729,
,7,9,3,9,-4,0,21,,train_dim1_1,17,30,,,,2,0,2,0,,,,,,,,,0,0,0,0,0,16,16,16,3,0,3,0,,,,,,,,,,,,,,,,,,,,,,,,,,,,,,,,,,,,,,,,,,,,,,,,,,,,,,,,,,,,,,,,30,,,,,,,,1514.404762300197,1514.404762300197,1514.404762300197,1514.404762300197,1514.404762300197,,,,,left,0.4770830003544688,4,0,0,99,0.07999999999999997,0.32,left,0.39576400024816394,,,,,,,,,,,,,,,,,,,,,,,,,,,,,,,,,,,,,,,,,,,,,,,,,,,,,,,,M9DFQN,train_x,blue_star,top_right,2025-05-05_17h11.54.010,HideSeek_v1,2022.2.5,59.98019445880729,
,7,9,3,9,-4,0,21,,train_dim1_1,17,30,,,,2,0,2,0,,,,,,,,,0,0,0,0,0,16,16,16,4,0,4,0,,,,,,,,,,,,,,,,,,,,,,,,,,,,,,,,,,,,,,,,,,,,,,,,,,,,,,,,,,,,,,,,30,,,,,,,,1514.8884340003133,1514.8884340003133,1514.8884340003133,1514.8884340003133,1514.8884340003133,,,,,left,0.5098299998790026,4,0,0,99,-2.7755575615628914e-17,0.32,left,0.42658310011029243,,,,,,,,,,,,,,,,,,,,,,,,,,,,,,,,,,,,,,,,,,,,,,,,,,,,,,,,M9DFQN,train_x,blue_star,top_right,2025-05-05_17h11.54.010,HideSeek_v1,2022.2.5,59.98019445880729,
,7,9,3,9,-4,0,21,,train_dim1_1,17,30,,,,2,0,2,0,,,,,,,,,0,0,0,0,0,16,16,16,5,0,5,0,,,,,,,,,,,,,,,,,,,,,,,,,,,,,,,,,,,,,,,,,,,,,,,,,,,,,,,,,,,,,,,,30,,,,,,,,1515.4056528001092,1515.4056528001092,1515.4056528001092,1515.4056528001092,1515.4056528001092,-6,-32,-2.7755575615628914e-17,0.32,return,2.1113749002106488,4,1,0,0,-2.7755575615628914e-17,0.32,return,2.030210600234568,,,,,,,,,,,,,,,,,,,,,,,,,,,,,,,,,,,,,,,,,,,,,,,,,,,,,,,,M9DFQN,train_x,blue_star,top_right,2025-05-05_17h11.54.010,HideSeek_v1,2022.2.5,59.98019445880729,
,7,6,7,6,0,0,61,,train_dim1_1,18,30,,,,2,0,2,0,,,,,,,,,0,0,0,0,0,17,17,17,0,0,0,0,,,,,,,,,,,,,,,,,,,,,,,,,stimuli/alien_stimuli/61.png,,,,,,,,,,,,,,,,,,,,,,,,,,,,,stimuli/alien_stimuli/21.png,21,7,19,,,,,,,30,,,,,,,,1521.9525816999376,1521.9525816999376,1521.9525816999376,1521.9525816999376,1521.9525816999376,,,,,left,1.151131299789995,4,1,0,99,0.32,0.08,left,1.059053999837488,1520.3764499002136,1521.9525816999376,0.08,0.32,0.0,0.32,0.32,0.08,0.24000000000000002,0.08,0.32,1519.0802963003516,1519.0802963003516,1519.0802963003516,1519.0802963003516,1519.0802963003516,1519.0802963003516,1519.0802963003516,1519.0802963003516,1519.0582960003055,1.4038158999755979,return,1.2786753997206688,,,,,,,,,,,,,,,,,,,,,,,,,,,,,,,,,M9DFQN,train_x,blue_star,top_right,2025-05-05_17h11.54.010,HideSeek_v1,2022.2.5,59.98019445880729,
,7,6,7,6,0,0,61,,train_dim1_1,18,30,,,,2,0,2,0,,,,,,,,,0,0,0,0,0,17,17,17,1,0,1,0,,,,,,,,,,,,,,,,,,,,,,,,,,,,,,,,,,,,,,,,,,,,,,,,,,,,,,,,,,,,,,,,30,,,,,,,,1523.092590500135,1523.092590500135,1523.092590500135,1523.092590500135,1523.092590500135,,,,,right,0.4091545999981463,4,1,0,99,0.4,0.08,right,0.3314477000385523,,,,,,,,,,,,,,,,,,,,,,,,,,,,,,,,,,,,,,,,,,,,,,,,,,,,,,,,M9DFQN,train_x,blue_star,top_right,2025-05-05_17h11.54.010,HideSeek_v1,2022.2.5,59.98019445880729,
,7,6,7,6,0,0,61,,train_dim1_1,18,30,,,,2,0,2,0,,,,,,,,,0,0,0,0,0,17,17,17,2,0,2,0,,,,,,,,,,,,,,,,,,,,,,,,,,,,,,,,,,,,,,,,,,,,,,,,,,,,,,,,,,,,,,,,30,,,,,,,,1523.5087715000845,1523.5087715000845,1523.5087715000845,1523.5087715000845,1523.5087715000845,-6,-32,0.4,0.08,return,0.39351389976218343,5,0,0,1,0.4,0.08,return,0.3067910000681877,,,,,,,,,,,,,,,,,,,,,,,,,,,,,,,,,,,,,,,,,,,,,,,,,,,,,,,,M9DFQN,train_x,blue_star,top_right,2025-05-05_17h11.54.010,HideSeek_v1,2022.2.5,59.98019445880729,
,5,8,2,8,-3,0,31,,train_dim1_1,19,30,,,,2,0,2,0,,,,,,,,,0,0,0,0,0,18,18,18,0,0,0,0,,,,,,,,,,,,,,,,,,,,,,,,,stimuli/alien_stimuli/31.png,,,,,,,,,,,,,,,,,,,,,,,,,,,,,stimuli/alien_stimuli/61.png,61,7,20,,,,,,,30,,,,,,,,1527.795049500186,1527.795049500186,1527.795049500186,1527.795049500186,1527.795049500186,,,,,left,1.0505082001909614,5,0,0,99,0.15999999999999998,0.24,left,0.969253399875015,1526.2313048001379,1527.795049500186,0.4,0.08,0.0,0.0,0.08,0.4,0.4,0.4,0.08,1525.4629644001834,1525.4629644001834,1525.4629644001834,1525.4629644001834,1525.4629644001834,1525.4629644001834,1525.4629644001834,1525.4629644001834,1525.4470406004227,0.8694754000753164,return,0.7369721001014113,,,,,,,,,,,,,,,,,,,,,,,,,,,,,,,,,M9DFQN,train_x,blue_star,top_right,2025-05-05_17h11.54.010,HideSeek_v1,2022.2.5,59.98019445880729,
,5,8,2,8,-3,0,31,,train_dim1_1,19,30,,,,2,0,2,0,,,,,,,,,0,0,0,0,0,18,18,18,1,0,1,0,,,,,,,,,,,,,,,,,,,,,,,,,,,,,,,,,,,,,,,,,,,,,,,,,,,,,,,,,,,,,,,,30,,,,,,,,1528.8487264001742,1528.8487264001742,1528.8487264001742,1528.8487264001742,1528.8487264001742,,,,,left,0.42589660035446286,5,0,0,99,0.07999999999999997,0.24,left,0.3499865997582674,,,,,,,,,,,,,,,,,,,,,,,,,,,,,,,,,,,,,,,,,,,,,,,,,,,,,,,,M9DFQN,train_x,blue_star,top_right,2025-05-05_17h11.54.010,HideSeek_v1,2022.2.5,59.98019445880729,
,5,8,2,8,-3,0,31,,train_dim1_1,19,30,,,,2,0,2,0,,,,,,,,,0,0,0,0,0,18,18,18,2,0,2,0,,,,,,,,,,,,,,,,,,,,,,,,,,,,,,,,,,,,,,,,,,,,,,,,,,,,,,,,,,,,,,,,30,,,,,,,,1529.2801804002374,1529.2801804002374,1529.2801804002374,1529.2801804002374,1529.2801804002374,,,,,left,0.4766123997978866,5,0,0,99,-2.7755575615628914e-17,0.24,left,0.3887975998222828,,,,,,,,,,,,,,,,,,,,,,,,,,,,,,,,,,,,,,,,,,,,,,,,,,,,,,,,M9DFQN,train_x,blue_star,top_right,2025-05-05_17h11.54.010,HideSeek_v1,2022.2.5,59.98019445880729,
,5,8,2,8,-3,0,31,,train_dim1_1,19,30,,,,2,0,2,0,,,,,,,,,0,0,0,0,0,18,18,18,3,0,3,0,,,,,,,,,,,,,,,,,,,,,,,,,,,,,,,,,,,,,,,,,,,,,,,,,,,,,,,,,,,,,,,,30,,,,,,,,1529.76427050028,1529.76427050028,1529.76427050028,1529.76427050028,1529.76427050028,,,,,left,0.6098136999644339,5,0,0,99,-0.08000000000000003,0.24,left,0.532213700003922,,,,,,,,,,,,,,,,,,,,,,,,,,,,,,,,,,,,,,,,,,,,,,,,,,,,,,,,M9DFQN,train_x,blue_star,top_right,2025-05-05_17h11.54.010,HideSeek_v1,2022.2.5,59.98019445880729,
,5,8,2,8,-3,0,31,,train_dim1_1,19,30,,,,2,0,2,0,,,,,,,,,0,0,0,0,0,18,18,18,4,0,4,0,,,,,,,,,,,,,,,,,,,,,,,,,,,,,,,,,,,,,,,,,,,,,,,,,,,,,,,,,,,,,,,,30,,,,,,,,1530.380897700321,1530.380897700321,1530.380897700321,1530.380897700321,1530.380897700321,-6,-36,-0.08000000000000003,0.24,return,0.34366710018366575,5,1,0,0,-0.08000000000000003,0.24,return,0.27013069996610284,,,,,,,,,,,,,,,,,,,,,,,,,,,,,,,,,,,,,,,,,,,,,,,,,,,,,,,,M9DFQN,train_x,blue_star,top_right,2025-05-05_17h11.54.010,HideSeek_v1,2022.2.5,59.98019445880729,
,5,6,0,6,-5,0,11,,train_dim1_1,20,30,,,,2,0,2,0,,,,,,,,,0,0,0,0,0,19,19,19,0,0,0,0,,,,,,,,,,,,,,,,,,,,,,,,,stimuli/alien_stimuli/11.png,,,,,,,,,,,,,,,,,,,,,,,,,,,,,stimuli/alien_stimuli/31.png,31,5,21,,,,,,,30,,,,,,,,1534.4212525002658,1534.4212525002658,1534.4212525002658,1534.4212525002658,1534.4212525002658,,,,,left,1.2826498998329043,5,1,0,99,0.15999999999999998,0.08,left,1.185801099985838,1532.8534079003148,1534.4212525002658,0,0.24,0.0,0.24,0.24,0,0.12,0,0.24,1532.2843341999687,1532.2843341999687,1532.2843341999687,1532.2843341999687,1532.2843341999687,1532.2843341999687,1532.2843341999687,1532.2843341999687,1532.2693765002302,0.6693732999265194,return,0.5389490998350084,,,,,,,,,,,,,,,,,,,,,,,,,,,,,,,,,M9DFQN,train_x,blue_star,top_right,2025-05-05_17h11.54.010,HideSeek_v1,2022.2.5,59.98019445880729,
,5,6,0,6,-5,0,11,,train_dim1_1,20,30,,,,2,0,2,0,,,,,,,,,0,0,0,0,0,19,19,19,1,0,1,0,,,,,,,,,,,,,,,,,,,,,,,,,,,,,,,,,,,,,,,,,,,,,,,,,,,,,,,,,,,,,,,,30,,,,,,,,1535.70653830003,1535.70653830003,1535.70653830003,1535.70653830003,1535.70653830003,,,,,left,0.4098355998285115,5,1,0,99,0.07999999999999997,0.08,left,0.31980370031669736,,,,,,,,,,,,,,,,,,,,,,,,,,,,,,,,,,,,,,,,,,,,,,,,,,,,,,,,M9DFQN,train_x,blue_star,top_right,2025-05-05_17h11.54.010,HideSeek_v1,2022.2.5,59.98019445880729,
,5,6,0,6,-5,0,11,,train_dim1_1,20,30,,,,2,0,2,0,,,,,,,,,0,0,0,0,0,19,19,19,2,0,2,0,,,,,,,,,,,,,,,,,,,,,,,,,,,,,,,,,,,,,,,,,,,,,,,,,,,,,,,,,,,,,,,,30,,,,,,,,1536.1233334001154,1536.1233334001154,1536.1233334001154,1536.1233334001154,1536.1233334001154,,,,,left,2.0610780003480613,5,1,0,99,-2.7755575615628914e-17,0.08,left,1.9765272000804543,,,,,,,,,,,,,,,,,,,,,,,,,,,,,,,,,,,,,,,,,,,,,,,,,,,,,,,,M9DFQN,train_x,blue_star,top_right,2025-05-05_17h11.54.010,HideSeek_v1,2022.2.5,59.98019445880729,
,5,6,0,6,-5,0,11,,train_dim1_1,20,30,,,,2,0,2,0,,,,,,,,,0,0,0,0,0,19,19,19,3,0,3,0,,,,,,,,,,,,,,,,,,,,,,,,,,,,,,,,,,,,,,,,,,,,,,,,,,,,,,,,,,,,,,,,30,,,,,,,,1538.1912198001519,1538.1912198001519,1538.1912198001519,1538.1912198001519,1538.1912198001519,,,,,left,0.7770523000508547,5,1,0,99,-0.08000000000000003,0.08,left,0.691258099861443,,,,,,,,,,,,,,,,,,,,,,,,,,,,,,,,,,,,,,,,,,,,,,,,,,,,,,,,M9DFQN,train_x,blue_star,top_right,2025-05-05_17h11.54.010,HideSeek_v1,2022.2.5,59.98019445880729,
,5,6,0,6,-5,0,11,,train_dim1_1,20,30,,,,2,0,2,0,,,,,,,,,0,0,0,0,0,19,19,19,4,0,4,0,,,,,,,,,,,,,,,,,,,,,,,,,,,,,,,,,,,,,,,,,,,,,,,,,,,,,,,,,,,,,,,,30,,,,,,,,1538.9757557003759,1538.9757557003759,1538.9757557003759,1538.9757557003759,1538.9757557003759,,,,,left,0.3265280998311937,5,1,0,99,-0.16000000000000003,0.08,left,0.2354240003041923,,,,,,,,,,,,,,,,,,,,,,,,,,,,,,,,,,,,,,,,,,,,,,,,,,,,,,,,M9DFQN,train_x,blue_star,top_right,2025-05-05_17h11.54.010,HideSeek_v1,2022.2.5,59.98019445880729,
,5,6,0,6,-5,0,11,,train_dim1_1,20,30,,,,2,0,2,0,,,,,,,,,0,0,0,0,0,19,19,19,5,0,5,0,,,,,,,,,,,,,,,,,,,,,,,,,,,,,,,,,,,,,,,,,,,,,,,,,,,,,,,,,,,,,,,,30,,,,,,,,1539.308859700337,1539.308859700337,1539.308859700337,1539.308859700337,1539.308859700337,-6,-41,-0.16000000000000003,0.08,return,0.359841899946332,6,0,0,1,-0.16000000000000003,0.08,return,0.2758339000865817,,,,,,,,,,,,,,,,,,,,,,,,,,,,,,,,,,,,,,,,,,,,,,,,,,,,,,,,M9DFQN,train_x,blue_star,top_right,2025-05-05_17h11.54.010,HideSeek_v1,2022.2.5,59.98019445880729,
,9,7,6,7,-3,0,31,,train_dim1_1,21,30,,,,2,0,2,0,,,,,,,,,0,0,0,0,0,20,20,20,0,0,0,0,,,,,,,,,,,,,,,,,,,,,,,,,stimuli/alien_stimuli/31.png,,,,,,,,,,,,,,,,,,,,,,,,,,,,,stimuli/alien_stimuli/11.png,11,5,22,,,,,,,30,,,,,,,,1544.335463800002,1544.335463800002,1544.335463800002,1544.335463800002,1544.335463800002,,,,,left,0.9337474997155368,6,0,0,99,0.48000000000000004,0.16,left,0.8291505998931825,1542.7615515999496,1544.335463800002,-0.16,0.08,0.0,0.4,0.08,-0.16,0.039999999999999994,-0.16,0.08,1541.235117800068,1541.235117800068,1541.235117800068,1541.235117800068,1541.235117800068,1541.235117800068,1541.235117800068,1541.235117800068,1541.2266998504288,1.6367941997013986,return,1.49431539978832,,,,,,,,,,,,,,,,,,,,,,,,,,,,,,,,,M9DFQN,train_x,blue_star,top_right,2025-05-05_17h11.54.010,HideSeek_v1,2022.2.5,59.98019445880729,
,9,7,6,7,-3,0,31,,train_dim1_1,21,30,,,,2,0,2,0,,,,,,,,,0,0,0,0,0,20,20,20,1,0,1,0,,,,,,,,,,,,,,,,,,,,,,,,,,,,,,,,,,,,,,,,,,,,,,,,,,,,,,,,,,,,,,,,30,,,,,,,,1545.26130140014,1545.26130140014,1545.26130140014,1545.26130140014,1545.26130140014,,,,,left,0.6596758998930454,6,0,0,99,0.4,0.16,left,0.5842037997208536,,,,,,,,,,,,,,,,,,,,,,,,,,,,,,,,,,,,,,,,,,,,,,,,,,,,,,,,M9DFQN,train_x,blue_star,top_right,2025-05-05_17h11.54.010,HideSeek_v1,2022.2.5,59.98019445880729,
,9,7,6,7,-3,0,31,,train_dim1_1,21,30,,,,2,0,2,0,,,,,,,,,0,0,0,0,0,20,20,20,2,0,2,0,,,,,,,,,,,,,,,,,,,,,,,,,,,,,,,,,,,,,,,,,,,,,,,,,,,,,,,,,,,,,,,,30,,,,,,,,1545.9284022003412,1545.9284022003412,1545.9284022003412,1545.9284022003412,1545.9284022003412,,,,,left,0.810540100093931,6,0,0,99,0.32,0.16,left,0.7212680000811815,,,,,,,,,,,,,,,,,,,,,,,,,,,,,,,,,,,,,,,,,,,,,,,,,,,,,,,,M9DFQN,train_x,blue_star,top_right,2025-05-05_17h11.54.010,HideSeek_v1,2022.2.5,59.98019445880729,
,9,7,6,7,-3,0,31,,train_dim1_1,21,30,,,,2,0,2,0,,,,,,,,,0,0,0,0,0,20,20,20,3,0,3,0,,,,,,,,,,,,,,,,,,,,,,,,,,,,,,,,,,,,,,,,,,,,,,,,,,,,,,,,,,,,,,,,30,,,,,,,,1546.7448174003512,1546.7448174003512,1546.7448174003512,1546.7448174003512,1546.7448174003512,,,,,left,0.793448599986732,6,0,0,99,0.24,0.16,left,0.7078414997085929,,,,,,,,,,,,,,,,,,,,,,,,,,,,,,,,,,,,,,,,,,,,,,,,,,,,,,,,M9DFQN,train_x,blue_star,top_right,2025-05-05_17h11.54.010,HideSeek_v1,2022.2.5,59.98019445880729,
,9,7,6,7,-3,0,31,,train_dim1_1,21,30,,,,2,0,2,0,,,,,,,,,0,0,0,0,0,20,20,20,4,0,4,0,,,,,,,,,,,,,,,,,,,,,,,,,,,,,,,,,,,,,,,,,,,,,,,,,,,,,,,,,,,,,,,,30,,,,,,,,1547.5456806002185,1547.5456806002185,1547.5456806002185,1547.5456806002185,1547.5456806002185,-6,-45,0.24,0.16,return,0.3600765001028776,6,1,0,0,0.24,0.16,return,0.28626349987462163,,,,,,,,,,,,,,,,,,,,,,,,,,,,,,,,,,,,,,,,,,,,,,,,,,,,,,,,M9DFQN,train_x,blue_star,top_right,2025-05-05_17h11.54.010,HideSeek_v1,2022.2.5,59.98019445880729,
,6,5,2,5,-4,0,21,,train_dim1_1,22,30,,,,2,0,2,0,,,,,,,,,0,0,0,0,0,21,21,21,0,0,0,0,,,,,,,,,,,,,,,,,,,,,,,,,stimuli/alien_stimuli/21.png,,,,,,,,,,,,,,,,,,,,,,,,,,,,,stimuli/alien_stimuli/31.png,31,9,23,,,,,,,30,,,,,,,,1551.9479470001534,1551.9479470001534,1551.9479470001534,1551.9479470001534,1551.9479470001534,,,,,left,0.7998737003654242,6,1,0,99,0.24,0,left,0.7040697000920773,1550.367707000114,1551.9479470001534,0.32,0.16,0.0,0.24,0.16,0.32,0.44000000000000006,0.32,0.16,1549.4693440999836,1549.4693440999836,1549.4693440999836,1549.4693440999836,1549.4693440999836,1549.4693440999836,1549.4693440999836,1549.4693440999836,1549.4500884001143,1.003598100040108,return,0.8770214999094605,,,,,,,,,,,,,,,,,,,,,,,,,,,,,,,,,M9DFQN,train_x,blue_star,top_right,2025-05-05_17h11.54.010,HideSeek_v1,2022.2.5,59.98019445880729,
,6,5,2,5,-4,0,21,,train_dim1_1,22,30,,,,2,0,2,0,,,,,,,,,0,0,0,0,0,21,21,21,1,0,1,0,,,,,,,,,,,,,,,,,,,,,,,,,,,,,,,,,,,,,,,,,,,,,,,,,,,,,,,,,,,,,,,,30,,,,,,,,1552.7375912000425,1552.7375912000425,1552.7375912000425,1552.7375912000425,1552.7375912000425,,,,,left,0.5926687000319362,6,1,0,99,0.15999999999999998,0,left,0.5058810003101826,,,,,,,,,,,,,,,,,,,,,,,,,,,,,,,,,,,,,,,,,,,,,,,,,,,,,,,,M9DFQN,train_x,blue_star,top_right,2025-05-05_17h11.54.010,HideSeek_v1,2022.2.5,59.98019445880729,
,6,5,2,5,-4,0,21,,train_dim1_1,22,30,,,,2,0,2,0,,,,,,,,,0,0,0,0,0,21,21,21,2,0,2,0,,,,,,,,,,,,,,,,,,,,,,,,,,,,,,,,,,,,,,,,,,,,,,,,,,,,,,,,,,,,,,,,30,,,,,,,,1553.3369729002006,1553.3369729002006,1553.3369729002006,1553.3369729002006,1553.3369729002006,,,,,left,0.5768141001462936,6,1,0,99,0.07999999999999997,0,left,0.5011289999820292,,,,,,,,,,,,,,,,,,,,,,,,,,,,,,,,,,,,,,,,,,,,,,,,,,,,,,,,M9DFQN,train_x,blue_star,top_right,2025-05-05_17h11.54.010,HideSeek_v1,2022.2.5,59.98019445880729,
,6,5,2,5,-4,0,21,,train_dim1_1,22,30,,,,2,0,2,0,,,,,,,,,0,0,0,0,0,21,21,21,3,0,3,0,,,,,,,,,,,,,,,,,,,,,,,,,,,,,,,,,,,,,,,,,,,,,,,,,,,,,,,,,,,,,,,,30,,,,,,,,1553.9208460999653,1553.9208460999653,1553.9208460999653,1553.9208460999653,1553.9208460999653,,,,,left,0.5264745997264981,6,1,0,99,-2.7755575615628914e-17,0,left,0.4405312999151647,,,,,,,,,,,,,,,,,,,,,,,,,,,,,,,,,,,,,,,,,,,,,,,,,,,,,,,,M9DFQN,train_x,blue_star,top_right,2025-05-05_17h11.54.010,HideSeek_v1,2022.2.5,59.98019445880729,
,6,5,2,5,-4,0,21,,train_dim1_1,22,30,,,,2,0,2,0,,,,,,,,,0,0,0,0,0,21,21,21,4,0,4,0,,,,,,,,,,,,,,,,,,,,,,,,,,,,,,,,,,,,,,,,,,,,,,,,,,,,,,,,,,,,,,,,30,,,,,,,,1554.4547206000425,1554.4547206000425,1554.4547206000425,1554.4547206000425,1554.4547206000425,-6,-49,-2.7755575615628914e-17,0,return,0.3103144997730851,7,0,0,1,-2.7755575615628914e-17,0,return,0.23281329963356256,,,,,,,,,,,,,,,,,,,,,,,,,,,,,,,,,,,,,,,,,,,,,,,,,,,,,,,,M9DFQN,train_x,blue_star,top_right,2025-05-05_17h11.54.010,HideSeek_v1,2022.2.5,59.98019445880729,
,7,6,7,6,0,0,61,,train_dim1_1,23,30,,,,2,0,2,0,,,,,,,,,0,0,0,0,0,22,22,22,0,0,0,0,,,,,,,,,,,,,,,,,,,,,,,,,stimuli/alien_stimuli/61.png,,,,,,,,,,,,,,,,,,,,,,,,,,,,,stimuli/alien_stimuli/21.png,21,6,24,,,,,,,30,,,,,,,,1559.1059646001086,1559.1059646001086,1559.1059646001086,1559.1059646001086,1559.1059646001086,,,,,left,0.9329725001007318,7,0,0,99,0.32,0.08,left,0.8508589002303779,1557.540343400091,1559.1059646001086,0,0,0.0,0.32,0.0,0,0.16,0,0,1556.3292305003852,1556.3292305003852,1556.3292305003852,1556.3292305003852,1556.3292305003852,1556.3292305003852,1556.3292305003852,1556.3292305003852,1556.3225417504086,1.3198442999273539,return,1.184820800088346,,,,,,,,,,,,,,,,,,,,,,,,,,,,,,,,,M9DFQN,train_x,blue_star,top_right,2025-05-05_17h11.54.010,HideSeek_v1,2022.2.5,59.98019445880729,
,7,6,7,6,0,0,61,,train_dim1_1,23,30,,,,2,0,2,0,,,,,,,,,0,0,0,0,0,22,22,22,1,0,1,0,,,,,,,,,,,,,,,,,,,,,,,,,,,,,,,,,,,,,,,,,,,,,,,,,,,,,,,,,,,,,,,,30,,,,,,,,1560.0396814001724,1560.0396814001724,1560.0396814001724,1560.0396814001724,1560.0396814001724,,,,,right,0.4426119001582265,7,0,0,99,0.4,0.08,right,0.3588983998633921,,,,,,,,,,,,,,,,,,,,,,,,,,,,,,,,,,,,,,,,,,,,,,,,,,,,,,,,M9DFQN,train_x,blue_star,top_right,2025-05-05_17h11.54.010,HideSeek_v1,2022.2.5,59.98019445880729,
,7,6,7,6,0,0,61,,train_dim1_1,23,30,,,,2,0,2,0,,,,,,,,,0,0,0,0,0,22,22,22,2,0,2,0,,,,,,,,,,,,,,,,,,,,,,,,,,,,,,,,,,,,,,,,,,,,,,,,,,,,,,,,,,,,,,,,30,,,,,,,,1560.4894850002602,1560.4894850002602,1560.4894850002602,1560.4894850002602,1560.4894850002602,-6,-49,0.4,0.08,return,0.3431329997256398,8,0,0,1,0.4,0.08,return,0.2698258999735117,,,,,,,,,,,,,,,,,,,,,,,,,,,,,,,,,,,,,,,,,,,,,,,,,,,,,,,,M9DFQN,train_x,blue_star,top_right,2025-05-05_17h11.54.010,HideSeek_v1,2022.2.5,59.98019445880729,
,9,9,8,9,-1,0,51,,train_dim1_1,24,30,,,,2,0,2,0,,,,,,,,,0,0,0,0,0,23,23,23,0,0,0,0,,,,,,,,,,,,,,,,,,,,,,,,,stimuli/alien_stimuli/51.png,,,,,,,,,,,,,,,,,,,,,,,,,,,,,stimuli/alien_stimuli/61.png,61,7,25,,,,,,,30,,,,,,,,1565.0792177999392,1565.0792177999392,1565.0792177999392,1565.0792177999392,1565.0792177999392,,,,,left,1.3327530999667943,8,0,0,99,0.48000000000000004,0.32,left,1.2462090998888016,1563.5120882000774,1565.0792177999392,0.4,0.08,0.0,0.0,0.08,0.4,0.4,0.4,0.08,1562.3934047003277,1562.3934047003277,1562.3934047003277,1562.3934047003277,1562.3934047003277,1562.3934047003277,1562.3934047003277,1562.3934047003277,1562.3777312004938,1.21987280016765,return,1.0890013999305665,,,,,,,,,,,,,,,,,,,,,,,,,,,,,,,,,M9DFQN,train_x,blue_star,top_right,2025-05-05_17h11.54.010,HideSeek_v1,2022.2.5,59.98019445880729,
,9,9,8,9,-1,0,51,,train_dim1_1,24,30,,,,2,0,2,0,,,,,,,,,0,0,0,0,0,23,23,23,1,0,1,0,,,,,,,,,,,,,,,,,,,,,,,,,,,,,,,,,,,,,,,,,,,,,,,,,,,,,,,,,,,,,,,,30,,,,,,,,1566.4137242003344,1566.4137242003344,1566.4137242003344,1566.4137242003344,1566.4137242003344,,,,,right,1.6937734000384808,8,0,0,99,0.56,0.32,right,1.6184198004193604,,,,,,,,,,,,,,,,,,,,,,,,,,,,,,,,,,,,,,,,,,,,,,,,,,,,,,,,M9DFQN,train_x,blue_star,top_right,2025-05-05_17h11.54.010,HideSeek_v1,2022.2.5,59.98019445880729,
,9,9,8,9,-1,0,51,,train_dim1_1,24,30,,,,2,0,2,0,,,,,,,,,0,0,0,0,0,23,23,23,2,0,2,0,,,,,,,,,,,,,,,,,,,,,,,,,,,,,,,,,,,,,,,,,,,,,,,,,,,,,,,,,,,,,,,,30,,,,,,,,1568.1150172003545,1568.1150172003545,1568.1150172003545,1568.1150172003545,1568.1150172003545,,,,,left,0.5766199002973735,8,0,0,99,0.48000000000000004,0.32,left,0.49642990017309785,,,,,,,,,,,,,,,,,,,,,,,,,,,,,,,,,,,,,,,,,,,,,,,,,,,,,,,,M9DFQN,train_x,blue_star,top_right,2025-05-05_17h11.54.010,HideSeek_v1,2022.2.5,59.98019445880729,
,9,9,8,9,-1,0,51,,train_dim1_1,24,30,,,,2,0,2,0,,,,,,,,,0,0,0,0,0,23,23,23,3,0,3,0,,,,,,,,,,,,,,,,,,,,,,,,,,,,,,,,,,,,,,,,,,,,,,,,,,,,,,,,,,,,,,,,30,,,,,,,,1568.6989124002866,1568.6989124002866,1568.6989124002866,1568.6989124002866,1568.6989124002866,-6,-50,0.48000000000000004,0.32,return,0.44290100038051605,9,0,0,1,0.48000000000000004,0.32,return,0.36005500005558133,,,,,,,,,,,,,,,,,,,,,,,,,,,,,,,,,,,,,,,,,,,,,,,,,,,,,,,,M9DFQN,train_x,blue_star,top_right,2025-05-05_17h11.54.010,HideSeek_v1,2022.2.5,59.98019445880729,
,8,5,3,5,-5,0,11,,train_dim1_1,25,30,,,,2,0,2,0,,,,,,,,,0,0,0,0,0,24,24,24,0,0,0,0,,,,,,,,,,,,,,,,,,,,,,,,,stimuli/alien_stimuli/11.png,,,,,,,,,,,,,,,,,,,,,,,,,,,,,stimuli/alien_stimuli/51.png,51,9,26,,,,,,,30,,,,,,,,1573.0822282000445,1573.0822282000445,1573.0822282000445,1573.0822282000445,1573.0822282000445,,,,,left,1.3342515002004802,9,0,0,99,0.39999999999999997,0,left,1.2289083995856345,1571.501917600166,1573.0822282000445,0.48,0.32,0.0,0.08,0.32,0.48,0.52,0.48,0.32,1570.7051218003035,1570.7051218003035,1570.7051218003035,1570.7051218003035,1570.7051218003035,1570.7051218003035,1570.7051218003035,1570.7051218003035,1570.6846161002293,0.9034114996902645,return,0.7714466000907123,,,,,,,,,,,,,,,,,,,,,,,,,,,,,,,,,M9DFQN,train_x,blue_star,top_right,2025-05-05_17h11.54.010,HideSeek_v1,2022.2.5,59.98019445880729,
,8,5,3,5,-5,0,11,,train_dim1_1,25,30,,,,2,0,2,0,,,,,,,,,0,0,0,0,0,24,24,24,1,0,1,0,,,,,,,,,,,,,,,,,,,,,,,,,,,,,,,,,,,,,,,,,,,,,,,,,,,,,,,,,,,,,,,,30,,,,,,,,1574.4058300000615,1574.4058300000615,1574.4058300000615,1574.4058300000615,1574.4058300000615,,,,,left,0.7098050001077354,9,0,0,99,0.31999999999999995,0,left,0.6328127002343535,,,,,,,,,,,,,,,,,,,,,,,,,,,,,,,,,,,,,,,,,,,,,,,,,,,,,,,,M9DFQN,train_x,blue_star,top_right,2025-05-05_17h11.54.010,HideSeek_v1,2022.2.5,59.98019445880729,
,8,5,3,5,-5,0,11,,train_dim1_1,25,30,,,,2,0,2,0,,,,,,,,,0,0,0,0,0,24,24,24,2,0,2,0,,,,,,,,,,,,,,,,,,,,,,,,,,,,,,,,,,,,,,,,,,,,,,,,,,,,,,,,,,,,,,,,30,,,,,,,,1575.1231696000323,1575.1231696000323,1575.1231696000323,1575.1231696000323,1575.1231696000323,,,,,left,0.6100117000751197,9,0,0,99,0.23999999999999994,0,left,0.5305886999703944,,,,,,,,,,,,,,,,,,,,,,,,,,,,,,,,,,,,,,,,,,,,,,,,,,,,,,,,M9DFQN,train_x,blue_star,top_right,2025-05-05_17h11.54.010,HideSeek_v1,2022.2.5,59.98019445880729,
,8,5,3,5,-5,0,11,,train_dim1_1,25,30,,,,2,0,2,0,,,,,,,,,0,0,0,0,0,24,24,24,3,0,3,0,,,,,,,,,,,,,,,,,,,,,,,,,,,,,,,,,,,,,,,,,,,,,,,,,,,,,,,,,,,,,,,,30,,,,,,,,1575.7396933999844,1575.7396933999844,1575.7396933999844,1575.7396933999844,1575.7396933999844,,,,,left,0.5764838000759482,9,0,0,99,0.15999999999999992,0,left,0.49891880014911294,,,,,,,,,,,,,,,,,,,,,,,,,,,,,,,,,,,,,,,,,,,,,,,,,,,,,,,,M9DFQN,train_x,blue_star,top_right,2025-05-05_17h11.54.010,HideSeek_v1,2022.2.5,59.98019445880729,
,8,5,3,5,-5,0,11,,train_dim1_1,25,30,,,,2,0,2,0,,,,,,,,,0,0,0,0,0,24,24,24,4,0,4,0,,,,,,,,,,,,,,,,,,,,,,,,,,,,,,,,,,,,,,,,,,,,,,,,,,,,,,,,,,,,,,,,30,,,,,,,,1576.3237515999936,1576.3237515999936,1576.3237515999936,1576.3237515999936,1576.3237515999936,,,,,left,0.6432696003466845,9,0,0,99,0.07999999999999992,0,left,0.5588088999502361,,,,,,,,,,,,,,,,,,,,,,,,,,,,,,,,,,,,,,,,,,,,,,,,,,,,,,,,M9DFQN,train_x,blue_star,top_right,2025-05-05_17h11.54.010,HideSeek_v1,2022.2.5,59.98019445880729,
,8,5,3,5,-5,0,11,,train_dim1_1,25,30,,,,2,0,2,0,,,,,,,,,0,0,0,0,0,24,24,24,5,0,5,0,,,,,,,,,,,,,,,,,,,,,,,,,,,,,,,,,,,,,,,,,,,,,,,,,,,,,,,,,,,,,,,,30,,,,,,,,1576.9734535999596,1576.9734535999596,1576.9734535999596,1576.9734535999596,1576.9734535999596,,,,,left,0.5599233000539243,9,0,0,99,-8.326672684688674e-17,0,left,0.4846163000911474,,,,,,,,,,,,,,,,,,,,,,,,,,,,,,,,,,,,,,,,,,,,,,,,,,,,,,,,M9DFQN,train_x,blue_star,top_right,2025-05-05_17h11.54.010,HideSeek_v1,2022.2.5,59.98019445880729,
,8,5,3,5,-5,0,11,,train_dim1_1,25,30,,,,2,0,2,0,,,,,,,,,0,0,0,0,0,24,24,24,6,0,6,0,,,,,,,,,,,,,,,,,,,,,,,,,,,,,,,,,,,,,,,,,,,,,,,,,,,,,,,,,,,,,,,,30,,,,,,,,1577.5404746001586,1577.5404746001586,1577.5404746001586,1577.5404746001586,1577.5404746001586,-6,-56,-8.326672684688674e-17,0,return,0.4102453999221325,9,1,0,0,-8.326672684688674e-17,0,return,0.32624470023438334,,,,,,,,,,,,,,,,,,,,,,,,,,,,,,,,,,,,,,,,,,,,,,,,,,,,,,,,M9DFQN,train_x,blue_star,top_right,2025-05-05_17h11.54.010,HideSeek_v1,2022.2.5,59.98019445880729,
,6,6,6,6,0,0,61,,train_dim1_1,26,30,,,,2,0,2,0,,,,,,,,,0,0,0,0,0,25,25,25,0,0,0,0,,,,,,,,,,,,,,,,,,,,,,,,,stimuli/alien_stimuli/61.png,,,,,,,,,,,,,,,,,,,,,,,,,,,,,stimuli/alien_stimuli/11.png,11,8,27,,,,,,,30,,,,,,,,1581.77211609995,1581.77211609995,1581.77211609995,1581.77211609995,1581.77211609995,,,,,left,0.9996473998762667,9,1,0,99,0.24,0.08,left,0.8921268000267446,1580.1925368001685,1581.77211609995,0.08,0,0.0,0.4,0.0,0.08,0.27999999999999997,0.08,0,1579.5144430999644,1579.5144430999644,1579.5144430999644,1579.5144430999644,1579.5144430999644,1579.5144430999644,1579.5144430999644,1579.5144430999644,1579.5085530503652,0.7866067998111248,return,0.6469115000218153,,,,,,,,,,,,,,,,,,,,,,,,,,,,,,,,,M9DFQN,train_x,blue_star,top_right,2025-05-05_17h11.54.010,HideSeek_v1,2022.2.5,59.98019445880729,
,6,6,6,6,0,0,61,,train_dim1_1,26,30,,,,2,0,2,0,,,,,,,,,0,0,0,0,0,25,25,25,1,0,1,0,,,,,,,,,,,,,,,,,,,,,,,,,,,,,,,,,,,,,,,,,,,,,,,,,,,,,,,,,,,,,,,,30,,,,,,,,1582.7591590001248,1582.7591590001248,1582.7591590001248,1582.7591590001248,1582.7591590001248,,,,,right,0.2757158000022173,9,1,0,99,0.32,0.08,right,0.20330459997057915,,,,,,,,,,,,,,,,,,,,,,,,,,,,,,,,,,,,,,,,,,,,,,,,,,,,,,,,M9DFQN,train_x,blue_star,top_right,2025-05-05_17h11.54.010,HideSeek_v1,2022.2.5,59.98019445880729,
,6,6,6,6,0,0,61,,train_dim1_1,26,30,,,,2,0,2,0,,,,,,,,,0,0,0,0,0,25,25,25,2,0,2,0,,,,,,,,,,,,,,,,,,,,,,,,,,,,,,,,,,,,,,,,,,,,,,,,,,,,,,,,,,,,,,,,30,,,,,,,,1583.0435105999932,1583.0435105999932,1583.0435105999932,1583.0435105999932,1583.0435105999932,-6,-56,0.32,0.08,return,0.3765067998319864,10,0,0,1,0.32,0.08,return,0.2921032002195716,,,,,,,,,,,,,,,,,,,,,,,,,,,,,,,,,,,,,,,,,,,,,,,,,,,,,,,,M9DFQN,train_x,blue_star,top_right,2025-05-05_17h11.54.010,HideSeek_v1,2022.2.5,59.98019445880729,
,5,6,2,6,-3,0,31,,train_dim1_1,27,30,,,,2,0,2,0,,,,,,,,,0,0,0,0,0,26,26,26,0,0,0,0,,,,,,,,,,,,,,,,,,,,,,,,,stimuli/alien_stimuli/31.png,,,,,,,,,,,,,,,,,,,,,,,,,,,,,stimuli/alien_stimuli/61.png,61,6,28,,,,,,,30,,,,,,,,1586.9109817999415,1586.9109817999415,1586.9109817999415,1586.9109817999415,1586.9109817999415,,,,,left,0.866452899761498,10,0,0,99,0.15999999999999998,0.08,left,0.7854353003203869,1585.3468746002764,1586.9109817999415,0.32,0.08,0.0,0.0,0.08,0.32,0.32,0.32,0.08,1584.9799084002152,1584.9799084002152,1584.9799084002152,1584.9799084002152,1584.9799084002152,1584.9799084002152,1584.9799084002152,1584.9799084002152,1584.9630356004461,0.46951500000432134,return,0.3495725002139807,,,,,,,,,,,,,,,,,,,,,,,,,,,,,,,,,M9DFQN,train_x,blue_star,top_right,2025-05-05_17h11.54.010,HideSeek_v1,2022.2.5,59.98019445880729,
,5,6,2,6,-3,0,31,,train_dim1_1,27,30,,,,2,0,2,0,,,,,,,,,0,0,0,0,0,26,26,26,1,0,1,0,,,,,,,,,,,,,,,,,,,,,,,,,,,,,,,,,,,,,,,,,,,,,,,,,,,,,,,,,,,,,,,,30,,,,,,,,1587.7795232003555,1587.7795232003555,1587.7795232003555,1587.7795232003555,1587.7795232003555,,,,,left,0.3757055001333356,10,0,0,99,0.07999999999999997,0.08,left,0.30167239997535944,,,,,,,,,,,,,,,,,,,,,,,,,,,,,,,,,,,,,,,,,,,,,,,,,,,,,,,,M9DFQN,train_x,blue_star,top_right,2025-05-05_17h11.54.010,HideSeek_v1,2022.2.5,59.98019445880729,
,5,6,2,6,-3,0,31,,train_dim1_1,27,30,,,,2,0,2,0,,,,,,,,,0,0,0,0,0,26,26,26,2,0,2,0,,,,,,,,,,,,,,,,,,,,,,,,,,,,,,,,,,,,,,,,,,,,,,,,,,,,,,,,,,,,,,,,30,,,,,,,,1588.1647558002733,1588.1647558002733,1588.1647558002733,1588.1647558002733,1588.1647558002733,,,,,left,0.5440551000647247,10,0,0,99,-2.7755575615628914e-17,0.08,left,0.46891820011660457,,,,,,,,,,,,,,,,,,,,,,,,,,,,,,,,,,,,,,,,,,,,,,,,,,,,,,,,M9DFQN,train_x,blue_star,top_right,2025-05-05_17h11.54.010,HideSeek_v1,2022.2.5,59.98019445880729,
,5,6,2,6,-3,0,31,,train_dim1_1,27,30,,,,2,0,2,0,,,,,,,,,0,0,0,0,0,26,26,26,3,0,3,0,,,,,,,,,,,,,,,,,,,,,,,,,,,,,,,,,,,,,,,,,,,,,,,,,,,,,,,,,,,,,,,,30,,,,,,,,1588.7258987003006,1588.7258987003006,1588.7258987003006,1588.7258987003006,1588.7258987003006,,,,,left,0.5352743002586067,10,0,0,99,-0.08000000000000003,0.08,left,0.4450746001675725,,,,,,,,,,,,,,,,,,,,,,,,,,,,,,,,,,,,,,,,,,,,,,,,,,,,,,,,M9DFQN,train_x,blue_star,top_right,2025-05-05_17h11.54.010,HideSeek_v1,2022.2.5,59.98019445880729,
,5,6,2,6,-3,0,31,,train_dim1_1,27,30,,,,2,0,2,0,,,,,,,,,0,0,0,0,0,26,26,26,4,0,4,0,,,,,,,,,,,,,,,,,,,,,,,,,,,,,,,,,,,,,,,,,,,,,,,,,,,,,,,,,,,,,,,,30,,,,,,,,1589.2637102999724,1589.2637102999724,1589.2637102999724,1589.2637102999724,1589.2637102999724,-6,-60,-0.08000000000000003,0.08,return,0.3931463002227247,10,1,0,0,-0.08000000000000003,0.08,return,0.3080915999598801,,,,,,,,,,,,,,,,,,,,,,,,,,,,,,,,,,,,,,,,,,,,,,,,,,,,,,,,M9DFQN,train_x,blue_star,top_right,2025-05-05_17h11.54.010,HideSeek_v1,2022.2.5,59.98019445880729,
,8,6,4,6,-4,0,21,,train_dim1_1,28,30,,,,2,0,2,0,,,,,,,,,0,0,0,0,0,27,27,27,0,0,0,0,,,,,,,,,,,,,,,,,,,,,,,,,stimuli/alien_stimuli/21.png,,,,,,,,,,,,,,,,,,,,,,,,,,,,,stimuli/alien_stimuli/31.png,31,5,29,,,,,,,30,,,,,,,,1593.4383411002345,1593.4383411002345,1593.4383411002345,1593.4383411002345,1593.4383411002345,,,,,left,1.2821502001024783,10,1,0,99,0.39999999999999997,0.08,left,1.1914491998031735,1591.8689924003556,1593.4383411002345,0,0.08,0.0,0.24,0.08,0,0.12,0,0.08,1591.217839000281,1591.217839000281,1591.217839000281,1591.217839000281,1591.217839000281,1591.217839000281,1591.217839000281,1591.217839000281,1591.201695200242,0.753078400157392,return,0.6209817002527416,,,,,,,,,,,,,,,,,,,,,,,,,,,,,,,,,M9DFQN,train_x,blue_star,top_right,2025-05-05_17h11.54.010,HideSeek_v1,2022.2.5,59.98019445880729,
,8,6,4,6,-4,0,21,,train_dim1_1,28,30,,,,2,0,2,0,,,,,,,,,0,0,0,0,0,27,27,27,1,0,1,0,,,,,,,,,,,,,,,,,,,,,,,,,,,,,,,,,,,,,,,,,,,,,,,,,,,,,,,,,,,,,,,,30,,,,,,,,1594.7244448000565,1594.7244448000565,1594.7244448000565,1594.7244448000565,1594.7244448000565,,,,,left,0.4261401002295315,10,1,0,99,0.31999999999999995,0.08,left,0.3466814002022147,,,,,,,,,,,,,,,,,,,,,,,,,,,,,,,,,,,,,,,,,,,,,,,,,,,,,,,,M9DFQN,train_x,blue_star,top_right,2025-05-05_17h11.54.010,HideSeek_v1,2022.2.5,59.98019445880729,
,8,6,4,6,-4,0,21,,train_dim1_1,28,30,,,,2,0,2,0,,,,,,,,,0,0,0,0,0,27,27,27,2,0,2,0,,,,,,,,,,,,,,,,,,,,,,,,,,,,,,,,,,,,,,,,,,,,,,,,,,,,,,,,,,,,,,,,30,,,,,,,,1595.1556855002418,1595.1556855002418,1595.1556855002418,1595.1556855002418,1595.1556855002418,,,,,left,0.44302869960665703,10,1,0,99,0.23999999999999994,0.08,left,0.36166639998555183,,,,,,,,,,,,,,,,,,,,,,,,,,,,,,,,,,,,,,,,,,,,,,,,,,,,,,,,M9DFQN,train_x,blue_star,top_right,2025-05-05_17h11.54.010,HideSeek_v1,2022.2.5,59.98019445880729,
,8,6,4,6,-4,0,21,,train_dim1_1,28,30,,,,2,0,2,0,,,,,,,,,0,0,0,0,0,27,27,27,3,0,3,0,,,,,,,,,,,,,,,,,,,,,,,,,,,,,,,,,,,,,,,,,,,,,,,,,,,,,,,,,,,,,,,,30,,,,,,,,1595.6055169003084,1595.6055169003084,1595.6055169003084,1595.6055169003084,1595.6055169003084,,,,,left,0.4599976004101336,10,1,0,99,0.15999999999999992,0.08,left,0.37816459964960814,,,,,,,,,,,,,,,,,,,,,,,,,,,,,,,,,,,,,,,,,,,,,,,,,,,,,,,,M9DFQN,train_x,blue_star,top_right,2025-05-05_17h11.54.010,HideSeek_v1,2022.2.5,59.98019445880729,
,8,6,4,6,-4,0,21,,train_dim1_1,28,30,,,,2,0,2,0,,,,,,,,,0,0,0,0,0,27,27,27,4,0,4,0,,,,,,,,,,,,,,,,,,,,,,,,,,,,,,,,,,,,,,,,,,,,,,,,,,,,,,,,,,,,,,,,30,,,,,,,,1596.0730731002986,1596.0730731002986,1596.0730731002986,1596.0730731002986,1596.0730731002986,,,,,left,0.4765161001123488,10,1,0,99,0.07999999999999992,0.08,left,0.3910099999047816,,,,,,,,,,,,,,,,,,,,,,,,,,,,,,,,,,,,,,,,,,,,,,,,,,,,,,,,M9DFQN,train_x,blue_star,top_right,2025-05-05_17h11.54.010,HideSeek_v1,2022.2.5,59.98019445880729,
,8,6,4,6,-4,0,21,,train_dim1_1,28,30,,,,2,0,2,0,,,,,,,,,0,0,0,0,0,27,27,27,5,0,5,0,,,,,,,,,,,,,,,,,,,,,,,,,,,,,,,,,,,,,,,,,,,,,,,,,,,,,,,,,,,,,,,,30,,,,,,,,1596.5554627999663,1596.5554627999663,1596.5554627999663,1596.5554627999663,1596.5554627999663,-6,-65,0.07999999999999992,0.08,return,1.1941332002170384,10,1,0,0,0.07999999999999992,0.08,return,1.1132771000266075,,,,,,,,,,,,,,,,,,,,,,,,,,,,,,,,,,,,,,,,,,,,,,,,,,,,,,,,M9DFQN,train_x,blue_star,top_right,2025-05-05_17h11.54.010,HideSeek_v1,2022.2.5,59.98019445880729,
,9,5,8,5,-1,0,51,,train_dim1_1,29,30,,,,2,0,2,0,,,,,,,,,0,0,0,0,0,28,28,28,0,0,0,0,,,,,,,,,,,,,,,,,,,,,,,,,stimuli/alien_stimuli/51.png,,,,,,,,,,,,,,,,,,,,,,,,,,,,,stimuli/alien_stimuli/21.png,21,8,30,,,,,,,30,,,,,,,,1601.3932644999586,1601.3932644999586,1601.3932644999586,1601.3932644999586,1601.3932644999586,,,,,left,1.3325588000006974,10,1,0,99,0.48000000000000004,0,left,1.2361929002217948,1599.8253672001883,1601.3932644999586,0.16,0.08,0.0,0.32,0.08,0.16,0.32,0.16,0.08,1599.3153767003678,1599.3153767003678,1599.3153767003678,1599.3153767003678,1599.3153767003678,1599.3153767003678,1599.3153767003678,1599.3153767003678,1599.3085956502705,0.6192089999094605,return,0.4835880999453366,,,,,,,,,,,,,,,,,,,,,,,,,,,,,,,,,M9DFQN,train_x,blue_star,top_right,2025-05-05_17h11.54.010,HideSeek_v1,2022.2.5,59.98019445880729,
,9,5,8,5,-1,0,51,,train_dim1_1,29,30,,,,2,0,2,0,,,,,,,,,0,0,0,0,0,28,28,28,1,0,1,0,,,,,,,,,,,,,,,,,,,,,,,,,,,,,,,,,,,,,,,,,,,,,,,,,,,,,,,,,,,,,,,,30,,,,,,,,1602.7269419999793,1602.7269419999793,1602.7269419999793,1602.7269419999793,1602.7269419999793,-6,-66,0.48000000000000004,0,return,0.4429538999684155,11,0,0,1,0.48000000000000004,0,return,0.3565530003979802,,,,,,,,,,,,,,,,,,,,,,,,,,,,,,,,,,,,,,,,,,,,,,,,,,,,,,,,M9DFQN,train_x,blue_star,top_right,2025-05-05_17h11.54.010,HideSeek_v1,2022.2.5,59.98019445880729,
,7,7,2,7,-5,0,11,,train_dim1_1,30,30,,,,2,0,2,0,,,,,,,,,0,0,0,0,0,29,29,29,0,0,0,0,,,,,,,,,,,,,,,,,,,,,,,,,stimuli/alien_stimuli/11.png,,,,,,,,,,,,,,,,,,,,,,,,,,,,,stimuli/alien_stimuli/51.png,51,9,31,,,,,,,30,,,,,,,,1607.2816037000157,1607.2816037000157,1607.2816037000157,1607.2816037000157,1607.2816037000157,,,,,left,0.9833220997825265,11,0,0,99,0.32,0.16,left,0.8894979995675385,1605.7137969001196,1607.2816037000157,0.48,0,0.0,0.08,0.0,0.48,0.52,0.48,0,1604.7336439001374,1604.7336439001374,1604.7336439001374,1604.7336439001374,1604.7336439001374,1604.7336439001374,1604.7336439001374,1604.7336439001374,1604.7130018004216,1.0868105003610253,return,0.9590152003802359,,,,,,,,,,,,,,,,,,,,,,,,,,,,,,,,,M9DFQN,train_x,blue_star,top_right,2025-05-05_17h11.54.010,HideSeek_v1,2022.2.5,59.98019445880729,
,7,7,2,7,-5,0,11,,train_dim1_1,30,30,,,,2,0,2,0,,,,,,,,,0,0,0,0,0,29,29,29,1,0,1,0,,,,,,,,,,,,,,,,,,,,,,,,,,,,,,,,,,,,,,,,,,,,,,,,,,,,,,,,,,,,,,,,30,,,,,,,,1608.2665103003383,1608.2665103003383,1608.2665103003383,1608.2665103003383,1608.2665103003383,,,,,left,0.526398700196296,11,0,0,99,0.24,0.16,left,0.4495743000879884,,,,,,,,,,,,,,,,,,,,,,,,,,,,,,,,,,,,,,,,,,,,,,,,,,,,,,,,M9DFQN,train_x,blue_star,top_right,2025-05-05_17h11.54.010,HideSeek_v1,2022.2.5,59.98019445880729,
,7,7,2,7,-5,0,11,,train_dim1_1,30,30,,,,2,0,2,0,,,,,,,,,0,0,0,0,0,29,29,29,2,0,2,0,,,,,,,,,,,,,,,,,,,,,,,,,,,,,,,,,,,,,,,,,,,,,,,,,,,,,,,,,,,,,,,,30,,,,,,,,1608.8003497002646,1608.8003497002646,1608.8003497002646,1608.8003497002646,1608.8003497002646,,,,,left,0.54352440033108,11,0,0,99,0.15999999999999998,0.16,left,0.45421489980071783,,,,,,,,,,,,,,,,,,,,,,,,,,,,,,,,,,,,,,,,,,,,,,,,,,,,,,,,M9DFQN,train_x,blue_star,top_right,2025-05-05_17h11.54.010,HideSeek_v1,2022.2.5,59.98019445880729,
,7,7,2,7,-5,0,11,,train_dim1_1,30,30,,,,2,0,2,0,,,,,,,,,0,0,0,0,0,29,29,29,3,0,3,0,,,,,,,,,,,,,,,,,,,,,,,,,,,,,,,,,,,,,,,,,,,,,,,,,,,,,,,,,,,,,,,,30,,,,,,,,1609.350381700322,1609.350381700322,1609.350381700322,1609.350381700322,1609.350381700322,,,,,left,0.5598720996640623,11,0,0,99,0.07999999999999997,0.16,left,0.4700619000941515,,,,,,,,,,,,,,,,,,,,,,,,,,,,,,,,,,,,,,,,,,,,,,,,,,,,,,,,M9DFQN,train_x,blue_star,top_right,2025-05-05_17h11.54.010,HideSeek_v1,2022.2.5,59.98019445880729,
,7,7,2,7,-5,0,11,,train_dim1_1,30,30,,,,2,0,2,0,,,,,,,,,0,0,0,0,0,29,29,29,4,0,4,0,,,,,,,,,,,,,,,,,,,,,,,,,,,,,,,,,,,,,,,,,,,,,,,,,,,,,,,,,,,,,,,,30,,,,,,,,1609.917783100158,1609.917783100158,1609.917783100158,1609.917783100158,1609.917783100158,,,,,left,0.5098804999142885,11,0,0,99,-2.7755575615628914e-17,0.16,left,0.4310043998993933,,,,,,,,,,,,,,,,,,,,,,,,,,,,,,,,,,,,,,,,,,,,,,,,,,,,,,,,M9DFQN,train_x,blue_star,top_right,2025-05-05_17h11.54.010,HideSeek_v1,2022.2.5,59.98019445880729,
,7,7,2,7,-5,0,11,,train_dim1_1,30,30,,,,2,0,2,0,,,,,,,,,0,0,0,0,0,29,29,29,5,0,5,0,,,,,,,,,,,,,,,,,,,,,,,,,,,,,,,,,,,,,,,,,,,,,,,,,,,,,,,,,,,,,,,,30,,,,,,,,1610.43405609997,1610.43405609997,1610.43405609997,1610.43405609997,1610.43405609997,-6,-71,-2.7755575615628914e-17,0.16,return,0.4937244998291135,12,0,0,1,-2.7755575615628914e-17,0.16,return,0.4070322001352906,,,,,,,,,,,,,,,,,,,,,,,,,,,,,,,,,,,,,,,,,,,,,,,,,,,,,,,,M9DFQN,train_x,blue_star,top_right,2025-05-05_17h11.54.010,HideSeek_v1,2022.2.5,59.98019445880729,
,,,,,,,,,,,30,,,,2,0,2,0,,,,,,,,,,,,,,,,,,,,,,,,,,,,,,,,,,,,,,,,,,,,,,,,,,,,,,,,,,,,,,,,,,,,,,,,,,stimuli/alien_stimuli/11.png,11,7,32,21,0.7,0.5,1,1,1,30,0,conditions/schedules/train_x_first/blue_star_00/top_right/inputTrain_2.1.xlsx,99,1,2,1,0,,,,,,,,,,,,,,,1,,,,,1613.102955700364,1614.6436860002577,0,0.16,0.0,0.4,0.16,0,0.2,0,0.16,1612.490568100009,1612.490568100009,1612.490568100009,1612.490568100009,1612.490568100009,1612.490568100009,1612.490568100009,1612.490568100009,1612.4695281001739,0.7195620001293719,return,0.5942136999219656,0,0.9,0,1,12,,,,,,,,,,,,,,,,,,,,,,,,,,,,M9DFQN,train_x,blue_star,top_right,2025-05-05_17h11.54.010,HideSeek_v1,2022.2.5,59.98019445880729,
,,,,,,,,,,,,,,,3,0,3,0,0,0,0,0,,,,,,,,,,,,,,,,,,,,,,,,,,,,,,,conditions/schedules/train_x_first/blue_star_00/top_right/instructions/Slide17.png,conditions/schedules/train_x_first/blue_star_00/top_right/instructions/Audio17.wav,1614.6436860002577,1614.6375300503335,17,"[3.9611370000056922, 18.016038000117987, 16.950015100184828, 18.932802699971944, 3.9326916001737118, 4.236577499657869, 4.853587000165135, 11.423816400114447, 5.933089599944651, 6.567726300098002, 9.715199099853635, 12.372597199864686, 17.709159299731255, 12.467189200222492, 29.67386159999296, 21.639481300022453, 29.63298929994926]","[0.00022799987345933914, 0.03643700014799833, 0.06677230028435588, 0.030352000147104263, 0.032927199732512236, 0.08312109997496009, 0.03087959997355938, 0.03060860000550747, 0.046413599979132414, 0.057033800054341555, 0.08087059995159507, 12.372603999916464, 17.709166700020432, 12.467195800039917, 0.0343109997920692, 21.63948820019141, 29.632996799889952]",0,,,,,,,,,,,,,,,,,,,,,,,,,,,,,,,,,,,,,,,,,,,,,,,,,,,,,,,,,,,,,,,,,,,,,,,,,,,,,,,,,,,,,,,,,,,,,,,,,,,,,,,,,,,,,,,,,,,,,,,,,,,,M9DFQN,train_x,blue_star,top_right,2025-05-05_17h11.54.010,HideSeek_v1,2022.2.5,59.98019445880729,
,,,,,,,,,,,,,,,3,0,3,0,1,0,1,0,,,,,,,,,,,,,,,,,,,,,,,,,,,,,,,conditions/schedules/train_x_first/blue_star_00/top_right/instructions/Slide18.png,conditions/schedules/train_x_first/blue_star_00/top_right/instructions/Audio18.wav,1644.3478220002726,1644.3457996500656,18,"[3.9611370000056922, 18.016038000117987, 16.950015100184828, 18.932802699971944, 3.9326916001737118, 4.236577499657869, 4.853587000165135, 11.423816400114447, 5.933089599944651, 6.567726300098002, 9.715199099853635, 12.372597199864686, 17.709159299731255, 12.467189200222492, 29.67386159999296, 21.639481300022453, 29.63298929994926, 6.81823300011456]","[0.00022799987345933914, 0.03643700014799833, 0.06677230028435588, 0.030352000147104263, 0.032927199732512236, 0.08312109997496009, 0.03087959997355938, 0.03060860000550747, 0.046413599979132414, 0.057033800054341555, 0.08087059995159507, 12.372603999916464, 17.709166700020432, 12.467195800039917, 0.0343109997920692, 21.63948820019141, 0.00022750021889805794, 6.818239300046116]",0,,,,,,,,,,,,,,,,,,,,,,,,,,,,,,,,,,,,,,,,,,,,,,,,,,,,,,,,,,,,,,,,,,,,,,,,,,,,,,,,,,,,,,,,,,,,,,,,,,,,,,,,,,,,,,,,,,,,,,,,,,,,M9DFQN,train_x,blue_star,top_right,2025-05-05_17h11.54.010,HideSeek_v1,2022.2.5,59.98019445880729,
,,,,,,,,,,,,,,,3,0,3,0,2,0,2,0,,,,,,,,,,,,,,,,,,,,,,,,,,,,,,,conditions/schedules/train_x_first/blue_star_00/top_right/instructions/Slide19.png,conditions/schedules/train_x_first/blue_star_00/top_right/instructions/Audio19.wav,1651.2259726999328,1651.218447100185,19,"[3.9611370000056922, 18.016038000117987, 16.950015100184828, 18.932802699971944, 3.9326916001737118, 4.236577499657869, 4.853587000165135, 11.423816400114447, 5.933089599944651, 6.567726300098002, 9.715199099853635, 12.372597199864686, 17.709159299731255, 12.467189200222492, 29.67386159999296, 21.639481300022453, 29.63298929994926, 6.81823300011456, 10.49989019986242]","[0.00022799987345933914, 0.03643700014799833, 0.06677230028435588, 0.030352000147104263, 0.032927199732512236, 0.08312109997496009, 0.03087959997355938, 0.03060860000550747, 0.046413599979132414, 0.057033800054341555, 0.08087059995159507, 12.372603999916464, 17.709166700020432, 12.467195800039917, 0.0343109997920692, 21.63948820019141, 0.00022750021889805794, 0.014015300199389458, 10.499915299937129]",0,,,,,,,,,,,,,,,,,,,,,,,,,,,,,,,,,,,,,,,,,,,,,,,,,,,,,,,,,,,,,,,,,,,,,,,,,,,,,,,,,,,,,,,,,,,,,,,,,,,,,,,,,,,,,,,,,,,,,,,,,,,,M9DFQN,train_x,blue_star,top_right,2025-05-05_17h11.54.010,HideSeek_v1,2022.2.5,59.98019445880729,
,,,,,,,,,,,,,,,3,0,3,0,3,0,3,0,,,,,,,,,,,,,,,,,,,,,,,,,,,,,,,conditions/schedules/train_x_first/blue_star_00/top_right/instructions/Slide20.png,conditions/schedules/train_x_first/blue_star_00/top_right/instructions/Audio20.wav,1661.816904200241,1661.8113575002178,20,"[3.9611370000056922, 18.016038000117987, 16.950015100184828, 18.932802699971944, 3.9326916001737118, 4.236577499657869, 4.853587000165135, 11.423816400114447, 5.933089599944651, 6.567726300098002, 9.715199099853635, 12.372597199864686, 17.709159299731255, 12.467189200222492, 29.67386159999296, 21.639481300022453, 29.63298929994926, 6.81823300011456, 10.49989019986242, 13.502625700086355]","[0.00022799987345933914, 0.03643700014799833, 0.06677230028435588, 0.030352000147104263, 0.032927199732512236, 0.08312109997496009, 0.03087959997355938, 0.03060860000550747, 0.046413599979132414, 0.057033800054341555, 0.08087059995159507, 12.372603999916464, 17.709166700020432, 12.467195800039917, 0.0343109997920692, 21.63948820019141, 0.00022750021889805794, 0.014015300199389458, 10.499915299937129, 13.50263259978965]",0,,,,,,,,,,,,,,,,,,,,,,,,,,,,,,,,,,,,,,,,,,,,,,,,,,,,,,,,,,,,,,,,,,,,,,,,,,,,,,,,,,,,,,,,,,,,,,,,,,,,,,,,,,,,,,,,,,,,,,,,,,,,M9DFQN,train_x,blue_star,top_right,2025-05-05_17h11.54.010,HideSeek_v1,2022.2.5,59.98019445880729,
1,5,8,5,3,0,-5,66,2,instr_dim1_2,,,,,,3,0,3,0,,,,,0,0,0,0,,,,,,,,,,,,,,,,,,,,,,,,,,,,,,,,,,,,,stimuli/alien_stimuli/66.png,conditions/schedules/train_x_first/blue_star_00/top_right/inputInstr_2.xlsx,stimuli/alien_stimuli/66.png,1675.4175071003847,1675.4175071003847,1675.4175071003847,1675.4175071003847,1675.4218655502423,return,6.764507699757814,"[-0.16, -0.08, 0, 0.08, 0.16, 0.24, 0.32, 0.4, 0.48, 0.56]","[-0.4, -0.32, -0.24, -0.16, -0.08, 0, 0.08, 0.16, 0.24, 0.32]",3,8,5,5,0.4,0.0,1682.3335623000748,1682.3335623000748,1682.3335623000748,1682.3335623000748,1682.3335623000748,1682.3335623000748,1682.3335623000748,1682.3273861004038,6.639802999794483,return,6.485194300301373,stimuli/alien_stimuli/66.png,66,5,1,,,,,,,,,,,,,,,,,,,,,,,,,,,,,,,,,,,,,,,,,,,,,,,,,,,,,,,,,,,,,,,,,,,,,,,,,,,,,,,,,,,,,,,,,M9DFQN,train_x,blue_star,top_right,2025-05-05_17h11.54.010,HideSeek_v1,2022.2.5,59.98019445880729,
,,,,,,,,,,,30,,,,3,0,3,0,,,,,,,,,,,,,,,,,,,,,,,,,,,,,,,,,,,,,,,,,,,,,,,,,,,,,,,,,,,,,,,,,,,,,,,,,,,,,,21,0.7,0.5,1,99,2,30,0,conditions/schedules/train_x_first/blue_star_00/top_right/inputTrain_2.1.xlsx,99,1,2,1,0,,,,,,,,,,,,,,,,,,,,,,,,,,,,,,,,,,,,,,,,,,,,,,,,,,,,,,,,,,,,,,,,,,,,,,,,,,,M9DFQN,train_x,blue_star,top_right,2025-05-05_17h11.54.010,HideSeek_v1,2022.2.5,59.98019445880729,
