trialInstr,x_fixStart,y_fixStart,x_corrSteps,y_corrSteps,x_nrSteps,y_nrSteps,alienID,trialLength,version,trialTrain,praclen,testlen,trial_label,break_on_off,beforeExpLoop.thisRepN,beforeExpLoop.thisTrialN,beforeExpLoop.thisN,beforeExpLoop.thisIndex,mini_instr_trials.thisRepN,mini_instr_trials.thisTrialN,mini_instr_trials.thisN,mini_instr_trials.thisIndex,instrLoop.thisRepN,instrLoop.thisTrialN,instrLoop.thisN,instrLoop.thisIndex,repeat_prac.thisRepN,repeat_prac.thisTrialN,repeat_prac.thisN,repeat_prac.thisIndex,trainLoop.thisRepN,trainLoop.thisTrialN,trainLoop.thisN,trainLoop.thisIndex,moveLoop_train.thisRepN,moveLoop_train.thisTrialN,moveLoop_train.thisN,moveLoop_train.thisIndex,experiment.thisRepN,experiment.thisTrialN,experiment.thisN,experiment.thisIndex,moveLoop_test.thisRepN,moveLoop_test.thisTrialN,moveLoop_test.thisN,moveLoop_test.thisIndex,mini_instr2_trials.thisRepN,mini_instr2_trials.thisTrialN,mini_instr2_trials.thisN,mini_instr2_trials.thisIndex,start_all_time,url,slideStim,audioStim,slides.started,sounds.started,nextButton.numClicks,nextButton.timesOn,nextButton.timesOff,prev_but.numClicks,prev_but.timesOn,prev_but.timesOff,alienStim,instrFile,alienStim_instr,gridImage_instr.started,startPos_3.started,key_instr.started,alienImage_3.started,sounds_1.started,key_instr.keys,key_instr.rt,all_x,all_y,FBy_corrSteps,FBy_fixStart,FBx_corrSteps,FBx_fixStart,FBy_pathSize_check,FBx_pathSize_check,gridImage_9.started,alienImageFB_3.started,startPosFB_3.started,keyFB_3.started,pathLine_ydir_2.started,pathLine_xdir_2.started,alienFace_3.started,sounds_2.started,RTFB_instr,keyFB_3.keys,keyFB_3.rt,draw_alienStim,draw_alienID,test_x,nrepcount,perfthres,percthres,earlierperf,earlystop,nextPrac,fileidx,praclen,saveACC_train,pracFile,nextPrac_train,addNrep,fileidx_endr,repExp,showearly,gridImage_4.started,startPos.started,movePos.started,key_resp.started,alienImage.started,buttonPress_train,RTchoice_train,cumAcctrain,aCorr,saveACC_choice,corrAns,x_movePos_end,y_movePos_end,key_resp.keys,key_resp.rt,wLy_dir,wLx_dir,x_movePos,y_movePos,text_2.started,text_2.stopped,aft_x_corrPos,aft_y_corrPos,y_pathSize_check,x_pathSize_check,y_pathdirY,x_pathdirY,x_pathdirX,x_corrPos,y_corrPos,gridImage_6.started,alienImageFB_2.started,startPosFB_2.started,movePosFB_2.started,keyFB_2.started,pathLine_xdir.started,pathLine_ydir.started,alienFace.started,sounds_4.started,RT_FBtrain,keyFB_2.keys,keyFB_2.rt,saveACC_pre,ACC,within_saveACC_train,earlystop_wloop,cumAcctrain_check,gridImage_3.started,alienImage_test.started,startPos_test.started,movePos_test.started,key_resp_test.started,wLy_dir_test,wLx_dir_test,buttonPress_test,RTchoice_test,cumAcctest,corrAns_test,key_resp_test.keys,key_resp_test.rt,fixation_text.started,fixation_text.stopped,total_time,end_all_time,key_resp_3.keys,slides_2.started,sounds_3.started,nextButton_2.numClicks,nextButton_2.timesOn,nextButton_2.timesOff,prev_but_2.numClicks,prev_but_2.timesOn,prev_but_2.timesOff,bye.started,participant,train_first,00_coordinate,starting corner,date,expName,psychopyVersion,frameRate,
,,,,,,,,,,,,,,,0,0,0,0,0,0,0,0,,,,,,,,,,,,,,,,,,,,,,,,,,,,,start_all_time,testround,conditions/schedules/train_x_first/blue_star_00/top_left/instructions/Slide1.png,conditions/schedules/train_x_first/blue_star_00/top_left/instructions/Audio1.wav,741.3172699999996,741.2639794741059,1,[8.857361699920148],[8.857369099976495],0,,,,,,,,,,,,,,,,,,,,,,,,,,,,,,,,,,,,,,,,,,,,,,,,,,,,,,,,,,,,,,,,,,,,,,,,,,,,,,,,,,,,,,,,,,,,,,,,,,,,,,,,,,,,,,,,,,,,,,,,,,,,MM6K0C,train_x,blue_star,top_left,2024-12-06_16h01.16.516,HideSeek_v1,2022.2.5,59.907502808759205,
,,,,,,,,,,,,,,,0,0,0,0,1,0,1,0,,,,,,,,,,,,,,,,,,,,,,,,,,,,,,,conditions/schedules/train_x_first/blue_star_00/top_left/instructions/Slide2.png,conditions/schedules/train_x_first/blue_star_00/top_left/instructions/Audio2.wav,750.1884707999416,750.1756714600605,2,"[8.857361699920148, 18.366788299987093]","[8.857369099976495, 18.366795200156048]",0,,,,,,,,,,,,,,,,,,,,,,,,,,,,,,,,,,,,,,,,,,,,,,,,,,,,,,,,,,,,,,,,,,,,,,,,,,,,,,,,,,,,,,,,,,,,,,,,,,,,,,,,,,,,,,,,,,,,,,,,,,,,MM6K0C,train_x,blue_star,top_left,2024-12-06_16h01.16.516,HideSeek_v1,2022.2.5,59.907502808759205,
,,,,,,,,,,,,,,,0,0,0,0,2,0,2,0,,,,,,,,,,,,,,,,,,,,,,,,,,,,,,,conditions/schedules/train_x_first/blue_star_00/top_left/instructions/Slide3.png,conditions/schedules/train_x_first/blue_star_00/top_left/instructions/Audio3.wav,768.6303460998461,768.6243532501394,3,"[8.857361699920148, 18.366788299987093, 18.99055329989642]","[8.857369099976495, 18.366795200156048, 18.990560699952766]",0,,,,,,,,,,,,,,,,,,,,,,,,,,,,,,,,,,,,,,,,,,,,,,,,,,,,,,,,,,,,,,,,,,,,,,,,,,,,,,,,,,,,,,,,,,,,,,,,,,,,,,,,,,,,,,,,,,,,,,,,,,,,MM6K0C,train_x,blue_star,top_left,2024-12-06_16h01.16.516,HideSeek_v1,2022.2.5,59.907502808759205,
,,,,,,,,,,,,,,,0,0,0,0,3,0,3,0,,,,,,,,,,,,,,,,,,,,,,,,,,,,,,,conditions/schedules/train_x_first/blue_star_00/top_left/instructions/Slide4.png,conditions/schedules/train_x_first/blue_star_00/top_left/instructions/Audio4.wav,787.6990222998429,787.6900126499822,4,"[8.857361699920148, 18.366788299987093, 18.99055329989642, 19.971687800018117]","[8.857369099976495, 18.366795200156048, 0.03489780006930232, 19.97169480007142]",0,,,,,,,,,,,,,,,,,,,,,,,,,,,,,,,,,,,,,,,,,,,,,,,,,,,,,,,,,,,,,,,,,,,,,,,,,,,,,,,,,,,,,,,,,,,,,,,,,,,,,,,,,,,,,,,,,,,,,,,,,,,,MM6K0C,train_x,blue_star,top_left,2024-12-06_16h01.16.516,HideSeek_v1,2022.2.5,59.907502808759205,
,,,,,,,,,,,,,,,0,0,0,0,4,0,4,0,,,,,,,,,,,,,,,,,,,,,,,,,,,,,,,conditions/schedules/train_x_first/blue_star_00/top_left/instructions/Slide5.png,conditions/schedules/train_x_first/blue_star_00/top_left/instructions/Audio5.wav,807.7395041000564,807.7398714501178,5,"[8.857361699920148, 18.366788299987093, 18.99055329989642, 19.971687800018117, 5.002474999986589]","[8.857369099976495, 18.366795200156048, 0.03489780006930232, 0.00022580008953809738, 5.002481899922714]",0,,,,,,,,,,,,,,,,,,,,,,,,,,,,,,,,,,,,,,,,,,,,,,,,,,,,,,,,,,,,,,,,,,,,,,,,,,,,,,,,,,,,,,,,,,,,,,,,,,,,,,,,,,,,,,,,,,,,,,,,,,,,MM6K0C,train_x,blue_star,top_left,2024-12-06_16h01.16.516,HideSeek_v1,2022.2.5,59.907502808759205,
,,,,,,,,,,,,,,,0,0,0,0,5,0,5,0,,,,,,,,,,,,,,,,,,,,,,,,,,,,,,,conditions/schedules/train_x_first/blue_star_00/top_left/instructions/Slide6.png,conditions/schedules/train_x_first/blue_star_00/top_left/instructions/Audio6.wav,812.7935696998611,812.7942460600287,6,"[8.857361699920148, 18.366788299987093, 18.99055329989642, 19.971687800018117, 5.002474999986589, 4.702392400009558]","[8.857369099976495, 18.366795200156048, 0.03489780006930232, 0.00022580008953809738, 0.014503500191494823, 4.7024004000704736]",0,,,,,,,,,,,,,,,,,,,,,,,,,,,,,,,,,,,,,,,,,,,,,,,,,,,,,,,,,,,,,,,,,,,,,,,,,,,,,,,,,,,,,,,,,,,,,,,,,,,,,,,,,,,,,,,,,,,,,,,,,,,,MM6K0C,train_x,blue_star,top_left,2024-12-06_16h01.16.516,HideSeek_v1,2022.2.5,59.907502808759205,
,,,,,,,,,,,,,,,0,0,0,0,6,0,6,0,,,,,,,,,,,,,,,,,,,,,,,,,,,,,,,conditions/schedules/train_x_first/blue_star_00/top_left/instructions/Slide7.png,conditions/schedules/train_x_first/blue_star_00/top_left/instructions/Audio7.wav,817.5471381999087,817.5480124600698,7,"[8.857361699920148, 18.366788299987093, 18.99055329989642, 19.971687800018117, 5.002474999986589, 4.702392400009558, 5.5199150000698864]","[8.857369099976495, 18.366795200156048, 0.03489780006930232, 0.00022580008953809738, 0.014503500191494823, 0.04921519989147782, 5.519922300009057]",0,,,,,,,,,,,,,,,,,,,,,,,,,,,,,,,,,,,,,,,,,,,,,,,,,,,,,,,,,,,,,,,,,,,,,,,,,,,,,,,,,,,,,,,,,,,,,,,,,,,,,,,,,,,,,,,,,,,,,,,,,,,,MM6K0C,train_x,blue_star,top_left,2024-12-06_16h01.16.516,HideSeek_v1,2022.2.5,59.907502808759205,
,,,,,,,,,,,,,,,0,0,0,0,7,0,7,0,,,,,,,,,,,,,,,,,,,,,,,,,,,,,,,conditions/schedules/train_x_first/blue_star_00/top_left/instructions/Slide8.png,conditions/schedules/train_x_first/blue_star_00/top_left/instructions/Audio8.wav,823.1197329999413,823.1193007600494,8,"[8.857361699920148, 18.366788299987093, 18.99055329989642, 19.971687800018117, 5.002474999986589, 4.702392400009558, 5.5199150000698864, 12.073628399986774]","[8.857369099976495, 18.366795200156048, 0.03489780006930232, 0.00022580008953809738, 0.014503500191494823, 0.04921519989147782, 0.06372309988364577, 12.073635400040075]",0,,,,,,,,,,,,,,,,,,,,,,,,,,,,,,,,,,,,,,,,,,,,,,,,,,,,,,,,,,,,,,,,,,,,,,,,,,,,,,,,,,,,,,,,,,,,,,,,,,,,,,,,,,,,,,,,,,,,,,,,,,,,MM6K0C,train_x,blue_star,top_left,2024-12-06_16h01.16.516,HideSeek_v1,2022.2.5,59.907502808759205,
,,,,,,,,,,,,,,,0,0,0,0,8,0,8,0,,,,,,,,,,,,,,,,,,,,,,,,,,,,,,,conditions/schedules/train_x_first/blue_star_00/top_left/instructions/Slide9.png,conditions/schedules/train_x_first/blue_star_00/top_left/instructions/Audio9.wav,835.2579949998762,835.2461867599749,9,"[8.857361699920148, 18.366788299987093, 18.99055329989642, 19.971687800018117, 5.002474999986589, 4.702392400009558, 5.5199150000698864, 12.073628399986774, 6.624841999961063]","[8.857369099976495, 18.366795200156048, 0.03489780006930232, 0.00022580008953809738, 0.014503500191494823, 0.04921519989147782, 0.06372309988364577, 0.052883500000461936, 6.624852599808946]",0,,,,,,,,,,,,,,,,,,,,,,,,,,,,,,,,,,,,,,,,,,,,,,,,,,,,,,,,,,,,,,,,,,,,,,,,,,,,,,,,,,,,,,,,,,,,,,,,,,,,,,,,,,,,,,,,,,,,,,,,,,,,MM6K0C,train_x,blue_star,top_left,2024-12-06_16h01.16.516,HideSeek_v1,2022.2.5,59.907502808759205,
,,,,,,,,,,,,,,,0,0,0,0,9,0,9,0,,,,,,,,,,,,,,,,,,,,,,,,,,,,,,,conditions/schedules/train_x_first/blue_star_00/top_left/instructions/Slide10.png,conditions/schedules/train_x_first/blue_star_00/top_left/instructions/Audio10.wav,841.9194050999358,841.918297870108,10,"[8.857361699920148, 18.366788299987093, 18.99055329989642, 19.971687800018117, 5.002474999986589, 4.702392400009558, 5.5199150000698864, 12.073628399986774, 6.624841999961063, 7.418950399849564]","[8.857369099976495, 18.366795200156048, 0.03489780006930232, 0.00022580008953809738, 0.014503500191494823, 0.04921519989147782, 0.06372309988364577, 0.052883500000461936, 0.1131394999101758, 7.418957900023088]",0,,,,,,,,,,,,,,,,,,,,,,,,,,,,,,,,,,,,,,,,,,,,,,,,,,,,,,,,,,,,,,,,,,,,,,,,,,,,,,,,,,,,,,,,,,,,,,,,,,,,,,,,,,,,,,,,,,,,,,,,,,,,MM6K0C,train_x,blue_star,top_left,2024-12-06_16h01.16.516,HideSeek_v1,2022.2.5,59.907502808759205,
,,,,,,,,,,,,,,,0,0,0,0,10,0,10,0,,,,,,,,,,,,,,,,,,,,,,,,,,,,,,,conditions/schedules/train_x_first/blue_star_00/top_left/instructions/Slide11.png,conditions/schedules/train_x_first/blue_star_00/top_left/instructions/Audio11.wav,849.3933474998921,849.3913170599379,11,"[8.857361699920148, 18.366788299987093, 18.99055329989642, 19.971687800018117, 5.002474999986589, 4.702392400009558, 5.5199150000698864, 12.073628399986774, 6.624841999961063, 7.418950399849564, 10.355047600110993]","[8.857369099976495, 18.366795200156048, 0.03489780006930232, 0.00022580008953809738, 0.014503500191494823, 0.04921519989147782, 0.06372309988364577, 0.052883500000461936, 0.1131394999101758, 0.04761450015939772, 10.35505470004864]",0,,,,,,,,,,,,,,,,,,,,,,,,,,,,,,,,,,,,,,,,,,,,,,,,,,,,,,,,,,,,,,,,,,,,,,,,,,,,,,,,,,,,,,,,,,,,,,,,,,,,,,,,,,,,,,,,,,,,,,,,,,,,MM6K0C,train_x,blue_star,top_left,2024-12-06_16h01.16.516,HideSeek_v1,2022.2.5,59.907502808759205,
,,,,,,,,,,,,,,,0,0,0,0,11,0,11,0,,,,,,,,,,,,,,,,,,,,,,,,,,,,,,,conditions/schedules/train_x_first/blue_star_00/top_left/instructions/Slide12.png,conditions/schedules/train_x_first/blue_star_00/top_left/instructions/Audio12.wav,859.8184044000227,859.8168810500065,11,"[8.857361699920148, 18.366788299987093, 18.99055329989642, 19.971687800018117, 5.002474999986589, 4.702392400009558, 5.5199150000698864, 12.073628399986774, 6.624841999961063, 7.418950399849564, 10.355047600110993]","[8.857369099976495, 18.366795200156048, 0.03489780006930232, 0.00022580008953809738, 0.014503500191494823, 0.04921519989147782, 0.06372309988364577, 0.052883500000461936, 0.1131394999101758, 0.04761450015939772, 0.04527650005184114]",1,[7.31812629988417],[7.31813389994204],,,,,,,,,,,,,,,,,,,,,,,,,,,,,,,,,,,,,,,,,,,,,,,,,,,,,,,,,,,,,,,,,,,,,,,,,,,,,,,,,,,,,,,,,,,,,,,,,,,,,,,,,,,,,,,,,,,,,,,,,,MM6K0C,train_x,blue_star,top_left,2024-12-06_16h01.16.516,HideSeek_v1,2022.2.5,59.907502808759205,
,,,,,,,,,,,,,,,0,0,0,0,12,0,12,0,,,,,,,,,,,,,,,,,,,,,,,,,,,,,,,conditions/schedules/train_x_first/blue_star_00/top_left/instructions/Slide11.png,conditions/schedules/train_x_first/blue_star_00/top_left/instructions/Audio11.wav,867.2027203000616,867.1893566599582,12,"[8.857361699920148, 18.366788299987093, 18.99055329989642, 19.971687800018117, 5.002474999986589, 4.702392400009558, 5.5199150000698864, 12.073628399986774, 6.624841999961063, 7.418950399849564, 10.355047600110993, 12.311532899970189]","[8.857369099976495, 18.366795200156048, 0.03489780006930232, 0.00022580008953809738, 0.014503500191494823, 0.04921519989147782, 0.06372309988364577, 0.052883500000461936, 0.1131394999101758, 0.04761450015939772, 0.04527650005184114, 12.311540500028059]",1,[7.31812629988417],[0.014111800119280815],,,,,,,,,,,,,,,,,,,,,,,,,,,,,,,,,,,,,,,,,,,,,,,,,,,,,,,,,,,,,,,,,,,,,,,,,,,,,,,,,,,,,,,,,,,,,,,,,,,,,,,,,,,,,,,,,,,,,,,,,,MM6K0C,train_x,blue_star,top_left,2024-12-06_16h01.16.516,HideSeek_v1,2022.2.5,59.907502808759205,
,,,,,,,,,,,,,,,0,0,0,0,13,0,13,0,,,,,,,,,,,,,,,,,,,,,,,,,,,,,,,conditions/schedules/train_x_first/blue_star_00/top_left/instructions/Slide12.png,conditions/schedules/train_x_first/blue_star_00/top_left/instructions/Audio12.wav,879.583816499915,879.5831771501107,13,"[8.857361699920148, 18.366788299987093, 18.99055329989642, 19.971687800018117, 5.002474999986589, 4.702392400009558, 5.5199150000698864, 12.073628399986774, 6.624841999961063, 7.418950399849564, 10.355047600110993, 12.311532899970189, 12.873951400164515]","[8.857369099976495, 18.366795200156048, 0.03489780006930232, 0.00022580008953809738, 0.014503500191494823, 0.04921519989147782, 0.06372309988364577, 0.052883500000461936, 0.1131394999101758, 0.04761450015939772, 0.04527650005184114, 0.030591400107368827, 12.87395830010064]",1,[7.31812629988417],[0.014111800119280815],,,,,,,,,,,,,,,,,,,,,,,,,,,,,,,,,,,,,,,,,,,,,,,,,,,,,,,,,,,,,,,,,,,,,,,,,,,,,,,,,,,,,,,,,,,,,,,,,,,,,,,,,,,,,,,,,,,,,,,,,,MM6K0C,train_x,blue_star,top_left,2024-12-06_16h01.16.516,HideSeek_v1,2022.2.5,59.907502808759205,
1,4,5,9,5,5,0,11,2,instr_dim1_1,,,,,,0,0,0,0,,,,,0,0,0,0,,,,,,,,,,,,,,,,,,,,,,,,,,,,,,,,,,,,,stimuli/alien_stimuli/11.png,conditions/schedules/train_x_first/blue_star_00/top_left/inputInstr_1.xlsx,stimuli/alien_stimuli/11.png,892.5551686999388,892.5551686999388,892.5551686999388,892.5551686999388,892.5437951400411,return,13.251246199943125,"[-0.16, -0.08, 0, 0.08, 0.16, 0.24, 0.32, 0.4, 0.48, 0.56]","[-0.4, -0.32, -0.24, -0.16, -0.08, 0, 0.08, 0.16, 0.24, 0.32]",5,5,9,4,0.0,0.4,905.9806699999608,905.9806699999608,905.9806699999608,905.9806699999608,905.9806699999608,905.9806699999608,905.9806699999608,905.9711351101986,11.194345999974757,return,11.031805099919438,stimuli/alien_stimuli/11.png,11,4,1,,,,,,,,,,,,,,,,,,,,,,,,,,,,,,,,,,,,,,,,,,,,,,,,,,,,,,,,,,,,,,,,,,,,,,,,,,,,,,,,,,,,,,,,,MM6K0C,train_x,blue_star,top_left,2024-12-06_16h01.16.516,HideSeek_v1,2022.2.5,59.907502808759205,
,,,,,,,,,,,30,,,,0,0,0,0,,,,,,,,,,,,,,,,,,,,,,,,,,,,,,,,,,,,,,,,,,,,,,,,,,,,,,,,,,,,,,,,,,,,,,,,,,,,,,21,0.7,0,0,99,1,30,0,conditions/schedules/train_x_first/blue_star_00/top_left/inputTrain_1.1.xlsx,99,1,1,1,0,,,,,,,,,,,,,,,,,,,,,,,,,,,,,,,,,,,,,,,,,,,,,,,,,,,,,,,,,,,,,,,,,,,,,,,,,,,MM6K0C,train_x,blue_star,top_left,2024-12-06_16h01.16.516,HideSeek_v1,2022.2.5,59.907502808759205,
,,,,,,,,,,,,,,,1,0,1,0,0,0,0,0,,,,,,,,,,,,,,,,,,,,,,,,,,,,,,,conditions/schedules/train_x_first/blue_star_00/top_left/instructions/Slide13.png,conditions/schedules/train_x_first/blue_star_00/top_left/instructions/Audio13.wav,917.1706818998791,917.1640767101898,14,"[8.857361699920148, 18.366788299987093, 18.99055329989642, 19.971687800018117, 5.002474999986589, 4.702392400009558, 5.5199150000698864, 12.073628399986774, 6.624841999961063, 7.418950399849564, 10.355047600110993, 12.311532899970189, 12.873951400164515, 18.30578019982204]","[8.857369099976495, 18.366795200156048, 0.03489780006930232, 0.00022580008953809738, 0.014503500191494823, 0.04921519989147782, 0.06372309988364577, 0.052883500000461936, 0.1131394999101758, 0.04761450015939772, 0.04527650005184114, 0.030591400107368827, 12.87395830010064, 18.305787399876863]",1,[7.31812629988417],[0.014111800119280815],,,,,,,,,,,,,,,,,,,,,,,,,,,,,,,,,,,,,,,,,,,,,,,,,,,,,,,,,,,,,,,,,,,,,,,,,,,,,,,,,,,,,,,,,,,,,,,,,,,,,,,,,,,,,,,,,,,,,,,,,,MM6K0C,train_x,blue_star,top_left,2024-12-06_16h01.16.516,HideSeek_v1,2022.2.5,59.907502808759205,
,,,,,,,,,,,,,,,1,0,1,0,1,0,1,0,,,,,,,,,,,,,,,,,,,,,,,,,,,,,,,conditions/schedules/train_x_first/blue_star_00/top_left/instructions/Slide14.png,conditions/schedules/train_x_first/blue_star_00/top_left/instructions/Audio14.wav,935.5444441998843,935.5460995499743,15,"[8.857361699920148, 18.366788299987093, 18.99055329989642, 19.971687800018117, 5.002474999986589, 4.702392400009558, 5.5199150000698864, 12.073628399986774, 6.624841999961063, 7.418950399849564, 10.355047600110993, 12.311532899970189, 12.873951400164515, 18.30578019982204, 15.545377800008282]","[8.857369099976495, 18.366795200156048, 0.03489780006930232, 0.00022580008953809738, 0.014503500191494823, 0.04921519989147782, 0.06372309988364577, 0.052883500000461936, 0.1131394999101758, 0.04761450015939772, 0.04527650005184114, 0.030591400107368827, 12.87395830010064, 0.049091799883171916, 15.545384800061584]",1,[7.31812629988417],[0.014111800119280815],,,,,,,,,,,,,,,,,,,,,,,,,,,,,,,,,,,,,,,,,,,,,,,,,,,,,,,,,,,,,,,,,,,,,,,,,,,,,,,,,,,,,,,,,,,,,,,,,,,,,,,,,,,,,,,,,,,,,,,,,,MM6K0C,train_x,blue_star,top_left,2024-12-06_16h01.16.516,HideSeek_v1,2022.2.5,59.907502808759205,
2,3,7,3,7,0,0,61,2,instr_dim1_1,,,,,,1,0,1,0,,,,,0,0,0,0,,,,,,,,,,,,,,,,,,,,,,,,,,,,,,,,,,,,,stimuli/alien_stimuli/61.png,conditions/schedules/train_x_first/blue_star_00/top_left/inputInstr_1.xlsx,stimuli/alien_stimuli/61.png,951.1847732998431,951.1847732998431,951.1847732998431,951.1847732998431,951.1756393400021,return,6.462248899973929,"[-0.16, -0.08, 0, 0.08, 0.16, 0.24, 0.32, 0.4, 0.48, 0.56]","[-0.4, -0.32, -0.24, -0.16, -0.08, 0, 0.08, 0.16, 0.24, 0.32]",7,7,3,3,0.0,0.0,957.7991490999702,957.7991490999702,957.7991490999702,957.7991490999702,957.7991490999702,957.7991490999702,957.7991490999702,957.7815881200601,7.2230322998948395,return,7.062764500034973,stimuli/alien_stimuli/61.png,61,3,2,,,,,,,,,,,,,,,,,,,,,,,,,,,,,,,,,,,,,,,,,,,,,,,,,,,,,,,,,,,,,,,,,,,,,,,,,,,,,,,,,,,,,,,,,MM6K0C,train_x,blue_star,top_left,2024-12-06_16h01.16.516,HideSeek_v1,2022.2.5,59.907502808759205,
,,,,,,,,,,,30,,,,1,0,1,0,,,,,,,,,,,,,,,,,,,,,,,,,,,,,,,,,,,,,,,,,,,,,,,,,,,,,,,,,,,,,,,,,,,,,,,,,,,,,,21,0.7,0,0,99,1,30,0,conditions/schedules/train_x_first/blue_star_00/top_left/inputTrain_1.1.xlsx,99,1,1,1,0,,,,,,,,,,,,,,,,,,,,,,,,,,,,,,,,,,,,,,,,,,,,,,,,,,,,,,,,,,,,,,,,,,,,,,,,,,,MM6K0C,train_x,blue_star,top_left,2024-12-06_16h01.16.516,HideSeek_v1,2022.2.5,59.907502808759205,
,,,,,,,,,,,,,,,2,0,2,0,0,0,0,0,,,,,,,,,,,,,,,,,,,,,,,,,,,,,,,conditions/schedules/train_x_first/blue_star_00/top_left/instructions/Slide15.png,conditions/schedules/train_x_first/blue_star_00/top_left/instructions/Audio15.wav,965.0241421000101,965.0204154100037,16,"[8.857361699920148, 18.366788299987093, 18.99055329989642, 19.971687800018117, 5.002474999986589, 4.702392400009558, 5.5199150000698864, 12.073628399986774, 6.624841999961063, 7.418950399849564, 10.355047600110993, 12.311532899970189, 12.873951400164515, 18.30578019982204, 15.545377800008282, 31.636790100019425]","[8.857369099976495, 18.366795200156048, 0.03489780006930232, 0.00022580008953809738, 0.014503500191494823, 0.04921519989147782, 0.06372309988364577, 0.052883500000461936, 0.1131394999101758, 0.04761450015939772, 0.04527650005184114, 0.030591400107368827, 12.87395830010064, 0.049091799883171916, 15.545384800061584, 31.636797400191426]",1,[7.31812629988417],[0.014111800119280815],,,,,,,,,,,,,,,,,,,,,,,,,,,,,,,,,,,,,,,,,,,,,,,,,,,,,,,,,,,,,,,,,,,,,,,,,,,,,,,,,,,,,,,,,,,,,,,,,,,,,,,,,,,,,,,,,,,,,,,,,,MM6K0C,train_x,blue_star,top_left,2024-12-06_16h01.16.516,HideSeek_v1,2022.2.5,59.907502808759205,
,,,,,,,,,,,,,,,2,0,2,0,1,0,1,0,,,,,,,,,,,,,,,,,,,,,,,,,,,,,,,conditions/schedules/train_x_first/blue_star_00/top_left/instructions/Slide16.png,conditions/schedules/train_x_first/blue_star_00/top_left/instructions/Audio16.wav,996.7281022998504,996.7300825499697,17,"[8.857361699920148, 18.366788299987093, 18.99055329989642, 19.971687800018117, 5.002474999986589, 4.702392400009558, 5.5199150000698864, 12.073628399986774, 6.624841999961063, 7.418950399849564, 10.355047600110993, 12.311532899970189, 12.873951400164515, 18.30578019982204, 15.545377800008282, 31.636790100019425, 21.73448080010712]","[8.857369099976495, 18.366795200156048, 0.03489780006930232, 0.00022580008953809738, 0.014503500191494823, 0.04921519989147782, 0.06372309988364577, 0.052883500000461936, 0.1131394999101758, 0.04761450015939772, 0.04527650005184114, 0.030591400107368827, 12.87395830010064, 0.049091799883171916, 15.545384800061584, 0.032741300063207746, 21.734487999929115]",1,[7.31812629988417],[0.014111800119280815],,,,,,,,,,,,,,,,,,,,,,,,,,,,,,,,,,,,,,,,,,,,,,,,,,,,,,,,,,,,,,,,,,,,,,,,,,,,,,,,,,,,,,,,,,,,,,,,,,,,,,,,,,,,,,,,,,,,,,,,,,MM6K0C,train_x,blue_star,top_left,2024-12-06_16h01.16.516,HideSeek_v1,2022.2.5,59.907502808759205,
,2,6,5,6,3,0,31,,train_dim1_1,1,30,,,,2,0,2,0,,,,,,,,,0,0,0,0,0,0,0,0,0,0,0,0,,,,,,,,,,,,,,,,,,,,,,,,,stimuli/alien_stimuli/31.png,,,,,,,,,,,,,,,,,,,,,,,,,,,,,,,,,,,,,,,30,,,,,,,,1018.5613939999603,1018.5613939999603,1018.5613939999603,1018.5613939999603,1018.5613939999603,right,9.086261000018567,0,0,0,99,0.08,0.08,right,8.990100499941036,,,,,,,,,,,,,,,,,,,,,,,,,,,,,,,,,,,,,,,,,,,,,,,,,,,,,,,,,,,,MM6K0C,train_x,blue_star,top_left,2024-12-06_16h01.16.516,HideSeek_v1,2022.2.5,59.907502808759205,
,2,6,5,6,3,0,31,,train_dim1_1,1,30,,,,2,0,2,0,,,,,,,,,0,0,0,0,0,0,0,0,1,0,1,0,,,,,,,,,,,,,,,,,,,,,,,,,,,,,,,,,,,,,,,,,,,,,,,,,,,,,,,,,,,,,,,,30,,,,,,,,1027.6382408998907,1027.6382408998907,1027.6382408998907,1027.6382408998907,1027.6382408998907,down,8.315074999816716,0,0,0,99,0.08,0.0,down,8.229835000121966,,,,,,,,,,,,,,,,,,,,,,,,,,,,,,,,,,,,,,,,,,,,,,,,,,,,,,,,,,,,MM6K0C,train_x,blue_star,top_left,2024-12-06_16h01.16.516,HideSeek_v1,2022.2.5,59.907502808759205,
,2,6,5,6,3,0,31,,train_dim1_1,1,30,,,,2,0,2,0,,,,,,,,,0,0,0,0,0,0,0,0,2,0,2,0,,,,,,,,,,,,,,,,,,,,,,,,,,,,,,,,,,,,,,,,,,,,,,,,,,,,,,,,,,,,,,,,30,,,,,,,,1035.959496699972,1035.959496699972,1035.959496699972,1035.959496699972,1035.959496699972,right,10.351839700015262,0,0,0,99,0.16,0.0,right,10.268040800001472,,,,,,,,,,,,,,,,,,,,,,,,,,,,,,,,,,,,,,,,,,,,,,,,,,,,,,,,,,,,MM6K0C,train_x,blue_star,top_left,2024-12-06_16h01.16.516,HideSeek_v1,2022.2.5,59.907502808759205,
,2,6,5,6,3,0,31,,train_dim1_1,1,30,,,,2,0,2,0,,,,,,,,,0,0,0,0,0,0,0,0,3,0,3,0,,,,,,,,,,,,,,,,,,,,,,,,,,,,,,,,,,,,,,,,,,,,,,,,,,,,,,,,,,,,,,,,30,,,,,,,,1046.3350690999068,1046.3350690999068,1046.3350690999068,1046.3350690999068,1046.3350690999068,right,2.0111590998712927,0,0,0,99,0.24,0.0,right,1.9059036001563072,,,,,,,,,,,,,,,,,,,,,,,,,,,,,,,,,,,,,,,,,,,,,,,,,,,,,,,,,,,,MM6K0C,train_x,blue_star,top_left,2024-12-06_16h01.16.516,HideSeek_v1,2022.2.5,59.907502808759205,
,2,6,5,6,3,0,31,,train_dim1_1,1,30,,,,2,0,2,0,,,,,,,,,0,0,0,0,0,0,0,0,4,0,4,0,,,,,,,,,,,,,,,,,,,,,,,,,,,,,,,,,,,,,,,,,,,,,,,,,,,,,,,,,,,,,,,,30,,,,,,,,1048.3371770000085,1048.3371770000085,1048.3371770000085,1048.3371770000085,1048.3371770000085,right,2.3611292000859976,0,0,0,99,0.32,0.0,right,2.2815055001992732,,,,,,,,,,,,,,,,,,,,,,,,,,,,,,,,,,,,,,,,,,,,,,,,,,,,,,,,,,,,MM6K0C,train_x,blue_star,top_left,2024-12-06_16h01.16.516,HideSeek_v1,2022.2.5,59.907502808759205,
,2,6,5,6,3,0,31,,train_dim1_1,1,30,,,,2,0,2,0,,,,,,,,,0,0,0,0,0,0,0,0,5,0,5,0,,,,,,,,,,,,,,,,,,,,,,,,,,,,,,,,,,,,,,,,,,,,,,,,,,,,,,,,,,,,,,,,30,,,,,,,,1050.7046554000117,1050.7046554000117,1050.7046554000117,1050.7046554000117,1050.7046554000117,return,2.8785108998417854,0,0,0,0,0.32,0.0,return,2.795653000008315,-1,4,0.32,0.0,,,,,,,,,,,,,,,,,,,,,,,,,,,,,,,,,,,,,,,,,,,,,,,,,,,,,,,,MM6K0C,train_x,blue_star,top_left,2024-12-06_16h01.16.516,HideSeek_v1,2022.2.5,59.907502808759205,
,2,9,7,9,5,0,11,,train_dim1_1,2,30,,,,2,0,2,0,,,,,,,,,0,0,0,0,0,1,1,1,0,0,0,0,,,,,,,,,,,,,,,,,,,,,,,,,stimuli/alien_stimuli/11.png,,,,,,,,,,,,,,,,,,,,,,,,,,,,,stimuli/alien_stimuli/31.png,31,2,3,,,,,,,30,,,,,,,,1083.8502857000567,1083.8502857000567,1083.8502857000567,1083.8502857000567,1083.8502857000567,down,7.49520429992117,0,0,0,99,0,0.24,down,7.382260499987751,,,,,1082.26786240004,1083.8502857000567,0.24,0.08,0.0,0.24,0.08,0.24,0.12,0.24,0.08,1055.1569223999977,1055.1569223999977,1055.1569223999977,1055.1569223999977,1055.1569223999977,1055.1569223999977,1055.1569223999977,1055.1569223999977,1055.1451408301714,27.225415700115263,return,27.086808599997312,,,,,,,,,,,,,,,,,,,,,,,,,,,,,,,,,MM6K0C,train_x,blue_star,top_left,2024-12-06_16h01.16.516,HideSeek_v1,2022.2.5,59.907502808759205,
,2,9,7,9,5,0,11,,train_dim1_1,2,30,,,,2,0,2,0,,,,,,,,,0,0,0,0,0,1,1,1,1,0,1,0,,,,,,,,,,,,,,,,,,,,,,,,,,,,,,,,,,,,,,,,,,,,,,,,,,,,,,,,,,,,,,,,30,,,,,,,,1091.3272969999816,1091.3272969999816,1091.3272969999816,1091.3272969999816,1091.3272969999816,down,0.9264972999226302,0,0,0,99,0,0.15999999999999998,down,0.8395753998775035,,,,,,,,,,,,,,,,,,,,,,,,,,,,,,,,,,,,,,,,,,,,,,,,,,,,,,,,,,,,MM6K0C,train_x,blue_star,top_left,2024-12-06_16h01.16.516,HideSeek_v1,2022.2.5,59.907502808759205,
,2,9,7,9,5,0,11,,train_dim1_1,2,30,,,,2,0,2,0,,,,,,,,,0,0,0,0,0,1,1,1,2,0,2,0,,,,,,,,,,,,,,,,,,,,,,,,,,,,,,,,,,,,,,,,,,,,,,,,,,,,,,,,,,,,,,,,30,,,,,,,,1092.2589997998439,1092.2589997998439,1092.2589997998439,1092.2589997998439,1092.2589997998439,down,1.8276852001436055,0,0,0,99,0,0.07999999999999997,down,1.750440699979663,,,,,,,,,,,,,,,,,,,,,,,,,,,,,,,,,,,,,,,,,,,,,,,,,,,,,,,,,,,,MM6K0C,train_x,blue_star,top_left,2024-12-06_16h01.16.516,HideSeek_v1,2022.2.5,59.907502808759205,
,2,9,7,9,5,0,11,,train_dim1_1,2,30,,,,2,0,2,0,,,,,,,,,0,0,0,0,0,1,1,1,3,0,3,0,,,,,,,,,,,,,,,,,,,,,,,,,,,,,,,,,,,,,,,,,,,,,,,,,,,,,,,,,,,,,,,,30,,,,,,,,1094.0945635000244,1094.0945635000244,1094.0945635000244,1094.0945635000244,1094.0945635000244,return,2.5450671000871807,0,0,0,0,0,0.07999999999999997,return,2.4654075000435114,-4,4,0,0.07999999999999997,,,,,,,,,,,,,,,,,,,,,,,,,,,,,,,,,,,,,,,,,,,,,,,,,,,,,,,,MM6K0C,train_x,blue_star,top_left,2024-12-06_16h01.16.516,HideSeek_v1,2022.2.5,59.907502808759205,
,4,9,8,9,4,0,21,,train_dim1_1,3,30,,,,2,0,2,0,,,,,,,,,0,0,0,0,0,2,2,2,0,0,0,0,,,,,,,,,,,,,,,,,,,,,,,,,stimuli/alien_stimuli/21.png,,,,,,,,,,,,,,,,,,,,,,,,,,,,,stimuli/alien_stimuli/11.png,11,2,4,,,,,,,30,,,,,,,,1108.553009999916,1108.553009999916,1108.553009999916,1108.553009999916,1108.553009999916,right,46.89447950012982,0,0,0,99,0.24,0.32,right,46.7771483999677,,,,,1106.9716902999207,1108.553009999916,0.4,0.32,0.0,0.4,0.32,0.4,0.2,0.4,0.32,1098.2235344999935,1098.2235344999935,1098.2235344999935,1098.2235344999935,1098.2235344999935,1098.2235344999935,1098.2235344999935,1098.2235344999935,1098.2142028199976,8.87675609998405,return,8.716451399959624,,,,,,,,,,,,,,,,,,,,,,,,,,,,,,,,,MM6K0C,train_x,blue_star,top_left,2024-12-06_16h01.16.516,HideSeek_v1,2022.2.5,59.907502808759205,
,4,9,8,9,4,0,21,,train_dim1_1,3,30,,,,2,0,2,0,,,,,,,,,0,0,0,0,0,2,2,2,1,0,1,0,,,,,,,,,,,,,,,,,,,,,,,,,,,,,,,,,,,,,,,,,,,,,,,,,,,,,,,,,,,,,,,,30,,,,,,,,1155.4468966999557,1155.4468966999557,1155.4468966999557,1155.4468966999557,1155.4468966999557,right,0.8094224999658763,0,0,0,99,0.32,0.32,right,0.7085892001632601,,,,,,,,,,,,,,,,,,,,,,,,,,,,,,,,,,,,,,,,,,,,,,,,,,,,,,,,,,,,MM6K0C,train_x,blue_star,top_left,2024-12-06_16h01.16.516,HideSeek_v1,2022.2.5,59.907502808759205,
,4,9,8,9,4,0,21,,train_dim1_1,3,30,,,,2,0,2,0,,,,,,,,,0,0,0,0,0,2,2,2,2,0,2,0,,,,,,,,,,,,,,,,,,,,,,,,,,,,,,,,,,,,,,,,,,,,,,,,,,,,,,,,,,,,,,,,30,,,,,,,,1156.2462046998553,1156.2462046998553,1156.2462046998553,1156.2462046998553,1156.2462046998553,right,0.8105088002048433,0,0,0,99,0.4,0.32,right,0.7274237999226898,,,,,,,,,,,,,,,,,,,,,,,,,,,,,,,,,,,,,,,,,,,,,,,,,,,,,,,,,,,,MM6K0C,train_x,blue_star,top_left,2024-12-06_16h01.16.516,HideSeek_v1,2022.2.5,59.907502808759205,
,4,9,8,9,4,0,21,,train_dim1_1,3,30,,,,2,0,2,0,,,,,,,,,0,0,0,0,0,2,2,2,3,0,3,0,,,,,,,,,,,,,,,,,,,,,,,,,,,,,,,,,,,,,,,,,,,,,,,,,,,,,,,,,,,,,,,,30,,,,,,,,1157.0637225999963,1157.0637225999963,1157.0637225999963,1157.0637225999963,1157.0637225999963,return,1.9444246999919415,0,1,0,0,0.4,0.32,return,1.858877700055018,-4,7,0.4,0.32,,,,,,,,,,,,,,,,,,,,,,,,,,,,,,,,,,,,,,,,,,,,,,,,,,,,,,,,MM6K0C,train_x,blue_star,top_left,2024-12-06_16h01.16.516,HideSeek_v1,2022.2.5,59.907502808759205,
,2,8,3,8,1,0,51,,train_dim1_1,4,30,,,,2,0,2,0,,,,,,,,,0,0,0,0,0,3,3,3,0,0,0,0,,,,,,,,,,,,,,,,,,,,,,,,,stimuli/alien_stimuli/51.png,,,,,,,,,,,,,,,,,,,,,,,,,,,,,stimuli/alien_stimuli/21.png,21,4,5,,,,,,,30,,,,,,,,1175.6361302000005,1175.6361302000005,1175.6361302000005,1175.6361302000005,1175.6361302000005,left,10.163816099986434,0,1,0,99,-0.08,0.24,left,10.056436999933794,,,,,1174.0609416998923,1175.6361302000005,0.48,0.32,0.0,0.32,0.32,0.48,0.32,0.48,0.32,1160.5949031999335,1160.5949031999335,1160.5949031999335,1160.5949031999335,1160.5949031999335,1160.5949031999335,1160.5949031999335,1160.5949031999335,1160.5826743199957,13.598031899891794,return,13.449816399952397,,,,,,,,,,,,,,,,,,,,,,,,,,,,,,,,,MM6K0C,train_x,blue_star,top_left,2024-12-06_16h01.16.516,HideSeek_v1,2022.2.5,59.907502808759205,
,2,8,3,8,1,0,51,,train_dim1_1,4,30,,,,2,0,2,0,,,,,,,,,0,0,0,0,0,3,3,3,1,0,1,0,,,,,,,,,,,,,,,,,,,,,,,,,,,,,,,,,,,,,,,,,,,,,,,,,,,,,,,,,,,,,,,,30,,,,,,,,1185.7959354999475,1185.7959354999475,1185.7959354999475,1185.7959354999475,1185.7959354999475,left,3.7789356000721455,0,1,0,99,-0.16,0.24,left,3.694819600088522,,,,,,,,,,,,,,,,,,,,,,,,,,,,,,,,,,,,,,,,,,,,,,,,,,,,,,,,,,,,MM6K0C,train_x,blue_star,top_left,2024-12-06_16h01.16.516,HideSeek_v1,2022.2.5,59.907502808759205,
,2,8,3,8,1,0,51,,train_dim1_1,4,30,,,,2,0,2,0,,,,,,,,,0,0,0,0,0,3,3,3,2,0,2,0,,,,,,,,,,,,,,,,,,,,,,,,,,,,,,,,,,,,,,,,,,,,,,,,,,,,,,,,,,,,,,,,30,,,,,,,,1189.5727170000318,1189.5727170000318,1189.5727170000318,1189.5727170000318,1189.5727170000318,down,23.76288010017015,0,1,0,99,-0.16,0.15999999999999998,down,23.685600199969485,,,,,,,,,,,,,,,,,,,,,,,,,,,,,,,,,,,,,,,,,,,,,,,,,,,,,,,,,,,,MM6K0C,train_x,blue_star,top_left,2024-12-06_16h01.16.516,HideSeek_v1,2022.2.5,59.907502808759205,
,2,8,3,8,1,0,51,,train_dim1_1,4,30,,,,2,0,2,0,,,,,,,,,0,0,0,0,0,3,3,3,3,0,3,0,,,,,,,,,,,,,,,,,,,,,,,,,,,,,,,,,,,,,,,,,,,,,,,,,,,,,,,,,,,,,,,,30,,,,,,,,1213.3583500999957,1213.3583500999957,1213.3583500999957,1213.3583500999957,1213.3583500999957,down,2.1952430999372154,0,1,0,99,-0.16,0.07999999999999997,down,2.1000463000964373,,,,,,,,,,,,,,,,,,,,,,,,,,,,,,,,,,,,,,,,,,,,,,,,,,,,,,,,,,,,MM6K0C,train_x,blue_star,top_left,2024-12-06_16h01.16.516,HideSeek_v1,2022.2.5,59.907502808759205,
,2,8,3,8,1,0,51,,train_dim1_1,4,30,,,,2,0,2,0,,,,,,,,,0,0,0,0,0,3,3,3,4,0,4,0,,,,,,,,,,,,,,,,,,,,,,,,,,,,,,,,,,,,,,,,,,,,,,,,,,,,,,,,,,,,,,,,30,,,,,,,,1215.544801299926,1215.544801299926,1215.544801299926,1215.544801299926,1215.544801299926,right,1.7769818000961095,0,1,0,99,-0.08,0.07999999999999997,right,1.6989409001544118,,,,,,,,,,,,,,,,,,,,,,,,,,,,,,,,,,,,,,,,,,,,,,,,,,,,,,,,,,,,MM6K0C,train_x,blue_star,top_left,2024-12-06_16h01.16.516,HideSeek_v1,2022.2.5,59.907502808759205,
,2,8,3,8,1,0,51,,train_dim1_1,4,30,,,,2,0,2,0,,,,,,,,,0,0,0,0,0,3,3,3,5,0,5,0,,,,,,,,,,,,,,,,,,,,,,,,,,,,,,,,,,,,,,,,,,,,,,,,,,,,,,,,,,,,,,,,30,,,,,,,,1217.3290412998758,1217.3290412998758,1217.3290412998758,1217.3290412998758,1217.3290412998758,return,2.3453132999129593,0,0,0,0,-0.08,0.07999999999999997,return,2.2692545000463724,-6,6,-0.08,0.07999999999999997,,,,,,,,,,,,,,,,,,,,,,,,,,,,,,,,,,,,,,,,,,,,,,,,,,,,,,,,MM6K0C,train_x,blue_star,top_left,2024-12-06_16h01.16.516,HideSeek_v1,2022.2.5,59.907502808759205,
,0,7,0,7,0,0,61,,train_dim1_1,5,30,,,,2,0,2,0,,,,,,,,,0,0,0,0,0,4,4,4,0,0,0,0,,,,,,,,,,,,,,,,,,,,,,,,,stimuli/alien_stimuli/61.png,,,,,,,,,,,,,,,,,,,,,,,,,,,,,stimuli/alien_stimuli/51.png,51,2,6,,,,,,,30,,,,,,,,1227.930037099868,1227.930037099868,1227.930037099868,1227.930037099868,1227.930037099868,down,3.80921549978666,0,0,0,99,-0.16,0.08,down,3.728108400013298,,,,,1226.37093980005,1227.930037099868,0.08,0.24,0.0,0.08,0.24,0.08,0.04,0.08,0.24,1221.253861800069,1221.253861800069,1221.253861800069,1221.253861800069,1221.253861800069,1221.253861800069,1221.253861800069,1221.253861800069,1221.2331271301723,5.2404189999215305,return,5.085460999980569,,,,,,,,,,,,,,,,,,,,,,,,,,,,,,,,,MM6K0C,train_x,blue_star,top_left,2024-12-06_16h01.16.516,HideSeek_v1,2022.2.5,59.907502808759205,
,0,7,0,7,0,0,61,,train_dim1_1,5,30,,,,2,0,2,0,,,,,,,,,0,0,0,0,0,4,4,4,1,0,1,0,,,,,,,,,,,,,,,,,,,,,,,,,,,,,,,,,,,,,,,,,,,,,,,,,,,,,,,,,,,,,,,,30,,,,,,,,1231.7404105998576,1231.7404105998576,1231.7404105998576,1231.7404105998576,1231.7404105998576,right,4.679388799937442,0,0,0,99,-0.08,0.08,right,4.596252799965441,,,,,,,,,,,,,,,,,,,,,,,,,,,,,,,,,,,,,,,,,,,,,,,,,,,,,,,,,,,,MM6K0C,train_x,blue_star,top_left,2024-12-06_16h01.16.516,HideSeek_v1,2022.2.5,59.907502808759205,
,0,7,0,7,0,0,61,,train_dim1_1,5,30,,,,2,0,2,0,,,,,,,,,0,0,0,0,0,4,4,4,2,0,2,0,,,,,,,,,,,,,,,,,,,,,,,,,,,,,,,,,,,,,,,,,,,,,,,,,,,,,,,,,,,,,,,,30,,,,,,,,1236.425671899924,1236.425671899924,1236.425671899924,1236.425671899924,1236.425671899924,up,1.6112404000014067,0,0,0,99,-0.08,0.16,up,1.5366613999940455,,,,,,,,,,,,,,,,,,,,,,,,,,,,,,,,,,,,,,,,,,,,,,,,,,,,,,,,,,,,MM6K0C,train_x,blue_star,top_left,2024-12-06_16h01.16.516,HideSeek_v1,2022.2.5,59.907502808759205,
,0,7,0,7,0,0,61,,train_dim1_1,5,30,,,,2,0,2,0,,,,,,,,,0,0,0,0,0,4,4,4,3,0,3,0,,,,,,,,,,,,,,,,,,,,,,,,,,,,,,,,,,,,,,,,,,,,,,,,,,,,,,,,,,,,,,,,30,,,,,,,,1238.044194799848,1238.044194799848,1238.044194799848,1238.044194799848,1238.044194799848,right,1.7781988000497222,0,0,0,99,0.0,0.16,right,1.6944416998885572,,,,,,,,,,,,,,,,,,,,,,,,,,,,,,,,,,,,,,,,,,,,,,,,,,,,,,,,,,,,MM6K0C,train_x,blue_star,top_left,2024-12-06_16h01.16.516,HideSeek_v1,2022.2.5,59.907502808759205,
,0,7,0,7,0,0,61,,train_dim1_1,5,30,,,,2,0,2,0,,,,,,,,,0,0,0,0,0,4,4,4,4,0,4,0,,,,,,,,,,,,,,,,,,,,,,,,,,,,,,,,,,,,,,,,,,,,,,,,,,,,,,,,,,,,,,,,30,,,,,,,,1239.8289631998632,1239.8289631998632,1239.8289631998632,1239.8289631998632,1239.8289631998632,return,0.8764173998497427,0,0,0,0,0.0,0.16,return,0.7972396998666227,-6,8,0.0,0.16,,,,,,,,,,,,,,,,,,,,,,,,,,,,,,,,,,,,,,,,,,,,,,,,,,,,,,,,MM6K0C,train_x,blue_star,top_left,2024-12-06_16h01.16.516,HideSeek_v1,2022.2.5,59.907502808759205,
,0,5,4,5,4,0,21,,train_dim1_1,6,30,,,,2,0,2,0,,,,,,,,,0,0,0,0,0,5,5,5,0,0,0,0,,,,,,,,,,,,,,,,,,,,,,,,,stimuli/alien_stimuli/21.png,,,,,,,,,,,,,,,,,,,,,,,,,,,,,stimuli/alien_stimuli/61.png,61,0,7,,,,,,,30,,,,,,,,1271.8176446999423,1271.8176446999423,1271.8176446999423,1271.8176446999423,1271.8176446999423,right,11.56487870006822,0,0,0,99,-0.08,0,right,11.466167200123891,,,,,1270.2406544999685,1271.8176446999423,-0.16,0.16,0.0,0.0,0.16,-0.16,-0.16,-0.16,0.16,1242.2794687999412,1242.2794687999412,1242.2794687999412,1242.2794687999412,1242.2794687999412,1242.2794687999412,1242.2794687999412,1242.2794687999412,1242.267497129948,28.075557800009847,return,27.94033080013469,,,,,,,,,,,,,,,,,,,,,,,,,,,,,,,,,MM6K0C,train_x,blue_star,top_left,2024-12-06_16h01.16.516,HideSeek_v1,2022.2.5,59.907502808759205,
,0,5,4,5,4,0,21,,train_dim1_1,6,30,,,,2,0,2,0,,,,,,,,,0,0,0,0,0,5,5,5,1,0,1,0,,,,,,,,,,,,,,,,,,,,,,,,,,,,,,,,,,,,,,,,,,,,,,,,,,,,,,,,,,,,,,,,30,,,,,,,,1283.369836699916,1283.369836699916,1283.369836699916,1283.369836699916,1283.369836699916,right,0.7095186000224203,0,0,0,99,0.0,0,right,0.6194706000387669,,,,,,,,,,,,,,,,,,,,,,,,,,,,,,,,,,,,,,,,,,,,,,,,,,,,,,,,,,,,MM6K0C,train_x,blue_star,top_left,2024-12-06_16h01.16.516,HideSeek_v1,2022.2.5,59.907502808759205,
,0,5,4,5,4,0,21,,train_dim1_1,6,30,,,,2,0,2,0,,,,,,,,,0,0,0,0,0,5,5,5,2,0,2,0,,,,,,,,,,,,,,,,,,,,,,,,,,,,,,,,,,,,,,,,,,,,,,,,,,,,,,,,,,,,,,,,30,,,,,,,,1284.0864017999265,1284.0864017999265,1284.0864017999265,1284.0864017999265,1284.0864017999265,right,0.8102704999037087,0,0,0,99,0.08,0,right,0.7324814000166953,,,,,,,,,,,,,,,,,,,,,,,,,,,,,,,,,,,,,,,,,,,,,,,,,,,,,,,,,,,,MM6K0C,train_x,blue_star,top_left,2024-12-06_16h01.16.516,HideSeek_v1,2022.2.5,59.907502808759205,
,0,5,4,5,4,0,21,,train_dim1_1,6,30,,,,2,0,2,0,,,,,,,,,0,0,0,0,0,5,5,5,3,0,3,0,,,,,,,,,,,,,,,,,,,,,,,,,,,,,,,,,,,,,,,,,,,,,,,,,,,,,,,,,,,,,,,,30,,,,,,,,1284.9028429000173,1284.9028429000173,1284.9028429000173,1284.9028429000173,1284.9028429000173,right,1.3436930999159813,0,0,0,99,0.16,0,right,1.2531718001700938,,,,,,,,,,,,,,,,,,,,,,,,,,,,,,,,,,,,,,,,,,,,,,,,,,,,,,,,,,,,MM6K0C,train_x,blue_star,top_left,2024-12-06_16h01.16.516,HideSeek_v1,2022.2.5,59.907502808759205,
,0,5,4,5,4,0,21,,train_dim1_1,6,30,,,,2,0,2,0,,,,,,,,,0,0,0,0,0,5,5,5,4,0,4,0,,,,,,,,,,,,,,,,,,,,,,,,,,,,,,,,,,,,,,,,,,,,,,,,,,,,,,,,,,,,,,,,30,,,,,,,,1286.2541569999885,1286.2541569999885,1286.2541569999885,1286.2541569999885,1286.2541569999885,right,0.8103431998752058,0,0,0,99,0.24,0,right,0.7269824000541121,,,,,,,,,,,,,,,,,,,,,,,,,,,,,,,,,,,,,,,,,,,,,,,,,,,,,,,,,,,,MM6K0C,train_x,blue_star,top_left,2024-12-06_16h01.16.516,HideSeek_v1,2022.2.5,59.907502808759205,
,0,5,4,5,4,0,21,,train_dim1_1,6,30,,,,2,0,2,0,,,,,,,,,0,0,0,0,0,5,5,5,5,0,5,0,,,,,,,,,,,,,,,,,,,,,,,,,,,,,,,,,,,,,,,,,,,,,,,,,,,,,,,,,,,,,,,,30,,,,,,,,1287.0708629998844,1287.0708629998844,1287.0708629998844,1287.0708629998844,1287.0708629998844,return,1.7447115001268685,0,1,0,0,0.24,0,return,1.6541575000155717,-6,13,0.24,0,,,,,,,,,,,,,,,,,,,,,,,,,,,,,,,,,,,,,,,,,,,,,,,,,,,,,,,,MM6K0C,train_x,blue_star,top_left,2024-12-06_16h01.16.516,HideSeek_v1,2022.2.5,59.907502808759205,
,3,5,3,5,0,0,61,,train_dim1_1,7,30,,,,2,0,2,0,,,,,,,,,0,0,0,0,0,6,6,6,0,0,0,0,,,,,,,,,,,,,,,,,,,,,,,,,stimuli/alien_stimuli/61.png,,,,,,,,,,,,,,,,,,,,,,,,,,,,,stimuli/alien_stimuli/21.png,21,0,8,,,,,,,30,,,,,,,,1301.0423325998709,1301.0423325998709,1301.0423325998709,1301.0423325998709,1301.0423325998709,right,12.396918800193816,0,1,0,99,0.16,0,right,12.313203199999407,,,,,1299.4820057000034,1301.0423325998709,0.16,0,0.0,0.32,0.0,0.16,0.0,0.16,0,1290.4003624999896,1290.4003624999896,1290.4003624999896,1290.4003624999896,1290.4003624999896,1290.4003624999896,1290.4003624999896,1290.4003624999896,1290.3906907200815,9.210133000044152,return,9.053485400043428,,,,,,,,,,,,,,,,,,,,,,,,,,,,,,,,,MM6K0C,train_x,blue_star,top_left,2024-12-06_16h01.16.516,HideSeek_v1,2022.2.5,59.907502808759205,
,3,5,3,5,0,0,61,,train_dim1_1,7,30,,,,2,0,2,0,,,,,,,,,0,0,0,0,0,6,6,6,1,0,1,0,,,,,,,,,,,,,,,,,,,,,,,,,,,,,,,,,,,,,,,,,,,,,,,,,,,,,,,,,,,,,,,,30,,,,,,,,1313.4570249000099,1313.4570249000099,1313.4570249000099,1313.4570249000099,1313.4570249000099,return,1.0434840999078006,0,1,0,0,0.16,0,return,0.9389872001484036,-6,14,0.16,0,,,,,,,,,,,,,,,,,,,,,,,,,,,,,,,,,,,,,,,,,,,,,,,,,,,,,,,,MM6K0C,train_x,blue_star,top_left,2024-12-06_16h01.16.516,HideSeek_v1,2022.2.5,59.907502808759205,
,0,9,3,9,3,0,31,,train_dim1_1,8,30,,,,2,0,2,0,,,,,,,,,0,0,0,0,0,7,7,7,0,0,0,0,,,,,,,,,,,,,,,,,,,,,,,,,stimuli/alien_stimuli/31.png,,,,,,,,,,,,,,,,,,,,,,,,,,,,,stimuli/alien_stimuli/61.png,61,3,9,,,,,,,30,,,,,,,,1327.080648999894,1327.080648999894,1327.080648999894,1327.080648999894,1327.080648999894,right,7.259691300103441,0,1,0,99,-0.08,0.32,right,7.162969300057739,,,,,1325.5034433000255,1327.080648999894,0.08,0,0.0,0.0,0.0,0.08,0.08,0.08,0,1316.06299580005,1316.06299580005,1316.06299580005,1316.06299580005,1316.06299580005,1316.06299580005,1316.06299580005,1316.06299580005,1316.0452828299954,9.560096600092947,return,9.413722400087863,,,,,,,,,,,,,,,,,,,,,,,,,,,,,,,,,MM6K0C,train_x,blue_star,top_left,2024-12-06_16h01.16.516,HideSeek_v1,2022.2.5,59.907502808759205,
,0,9,3,9,3,0,31,,train_dim1_1,8,30,,,,2,0,2,0,,,,,,,,,0,0,0,0,0,7,7,7,1,0,1,0,,,,,,,,,,,,,,,,,,,,,,,,,,,,,,,,,,,,,,,,,,,,,,,,,,,,,,,,,,,,,,,,30,,,,,,,,1334.3258954999037,1334.3258954999037,1334.3258954999037,1334.3258954999037,1334.3258954999037,right,3.1112146000377834,0,1,0,99,0.0,0.32,right,3.025841600028798,,,,,,,,,,,,,,,,,,,,,,,,,,,,,,,,,,,,,,,,,,,,,,,,,,,,,,,,,,,,MM6K0C,train_x,blue_star,top_left,2024-12-06_16h01.16.516,HideSeek_v1,2022.2.5,59.907502808759205,
,0,9,3,9,3,0,31,,train_dim1_1,8,30,,,,2,0,2,0,,,,,,,,,0,0,0,0,0,7,7,7,2,0,2,0,,,,,,,,,,,,,,,,,,,,,,,,,,,,,,,,,,,,,,,,,,,,,,,,,,,,,,,,,,,,,,,,30,,,,,,,,1337.443417500006,1337.443417500006,1337.443417500006,1337.443417500006,1337.443417500006,return,1.527280799811706,0,1,0,0,0.0,0.32,return,1.4445899000857025,-6,16,0.0,0.32,,,,,,,,,,,,,,,,,,,,,,,,,,,,,,,,,,,,,,,,,,,,,,,,,,,,,,,,MM6K0C,train_x,blue_star,top_left,2024-12-06_16h01.16.516,HideSeek_v1,2022.2.5,59.907502808759205,
,1,5,2,5,1,0,51,,train_dim1_1,9,30,,,,2,0,2,0,,,,,,,,,0,0,0,0,0,8,8,8,0,0,0,0,,,,,,,,,,,,,,,,,,,,,,,,,stimuli/alien_stimuli/51.png,,,,,,,,,,,,,,,,,,,,,,,,,,,,,stimuli/alien_stimuli/31.png,31,0,10,,,,,,,30,,,,,,,,1347.2634010999463,1347.2634010999463,1347.2634010999463,1347.2634010999463,1347.2634010999463,down,19.722111999988556,0,1,0,99,-0.08,-0.08,down,19.636238900013268,,,,,1345.703554000007,1347.2634010999463,0.08,0.32,0.0,0.24,0.32,0.08,-0.04,0.08,0.32,1340.5495239999145,1340.5495239999145,1340.5495239999145,1340.5495239999145,1340.5495239999145,1340.5495239999145,1340.5495239999145,1340.5495239999145,1340.5324583300157,5.272937499918044,return,5.129853899823502,,,,,,,,,,,,,,,,,,,,,,,,,,,,,,,,,MM6K0C,train_x,blue_star,top_left,2024-12-06_16h01.16.516,HideSeek_v1,2022.2.5,59.907502808759205,
,1,5,2,5,1,0,51,,train_dim1_1,9,30,,,,2,0,2,0,,,,,,,,,0,0,0,0,0,8,8,8,1,0,1,0,,,,,,,,,,,,,,,,,,,,,,,,,,,,,,,,,,,,,,,,,,,,,,,,,,,,,,,,,,,,,,,,30,,,,,,,,1367.0029283000622,1367.0029283000622,1367.0029283000622,1367.0029283000622,1367.0029283000622,up,10.5512105000671,0,1,0,99,-0.08,0.0,up,10.455409899819642,,,,,,,,,,,,,,,,,,,,,,,,,,,,,,,,,,,,,,,,,,,,,,,,,,,,,,,,,,,,MM6K0C,train_x,blue_star,top_left,2024-12-06_16h01.16.516,HideSeek_v1,2022.2.5,59.907502808759205,
,1,5,2,5,1,0,51,,train_dim1_1,9,30,,,,2,0,2,0,,,,,,,,,0,0,0,0,0,8,8,8,2,0,2,0,,,,,,,,,,,,,,,,,,,,,,,,,,,,,,,,,,,,,,,,,,,,,,,,,,,,,,,,,,,,,,,,30,,,,,,,,1377.5612570999656,1377.5612570999656,1377.5612570999656,1377.5612570999656,1377.5612570999656,return,1.594635099871084,0,1,0,0,-0.08,0.0,return,1.4988822999875993,-6,16,-0.08,0.0,,,,,,,,,,,,,,,,,,,,,,,,,,,,,,,,,,,,,,,,,,,,,,,,,,,,,,,,MM6K0C,train_x,blue_star,top_left,2024-12-06_16h01.16.516,HideSeek_v1,2022.2.5,59.907502808759205,
,0,8,5,8,5,0,11,,train_dim1_1,10,30,,,,2,0,2,0,,,,,,,,,0,0,0,0,0,9,9,9,0,0,0,0,,,,,,,,,,,,,,,,,,,,,,,,,stimuli/alien_stimuli/11.png,,,,,,,,,,,,,,,,,,,,,,,,,,,,,stimuli/alien_stimuli/51.png,51,1,11,,,,,,,30,,,,,,,,1387.7669040998444,1387.7669040998444,1387.7669040998444,1387.7669040998444,1387.7669040998444,right,3.9914752000477165,0,1,0,99,-0.08,0.24,right,3.9019767998252064,,,,,1386.2036294999998,1387.7669040998444,0,0,0.0,0.08,0.0,0,-0.04,0,0,1380.717886300059,1380.717886300059,1380.717886300059,1380.717886300059,1380.717886300059,1380.717886300059,1380.717886300059,1380.717886300059,1380.6990558299935,5.607253400143236,return,5.46381920017302,,,,,,,,,,,,,,,,,,,,,,,,,,,,,,,,,MM6K0C,train_x,blue_star,top_left,2024-12-06_16h01.16.516,HideSeek_v1,2022.2.5,59.907502808759205,
,0,8,5,8,5,0,11,,train_dim1_1,10,30,,,,2,0,2,0,,,,,,,,,0,0,0,0,0,9,9,9,1,0,1,0,,,,,,,,,,,,,,,,,,,,,,,,,,,,,,,,,,,,,,,,,,,,,,,,,,,,,,,,,,,,,,,,30,,,,,,,,1391.7591889998876,1391.7591889998876,1391.7591889998876,1391.7591889998876,1391.7591889998876,right,0.7092648998368531,0,1,0,99,0.0,0.24,right,0.6318360001314431,,,,,,,,,,,,,,,,,,,,,,,,,,,,,,,,,,,,,,,,,,,,,,,,,,,,,,,,,,,,MM6K0C,train_x,blue_star,top_left,2024-12-06_16h01.16.516,HideSeek_v1,2022.2.5,59.907502808759205,
,0,8,5,8,5,0,11,,train_dim1_1,10,30,,,,2,0,2,0,,,,,,,,,0,0,0,0,0,9,9,9,2,0,2,0,,,,,,,,,,,,,,,,,,,,,,,,,,,,,,,,,,,,,,,,,,,,,,,,,,,,,,,,,,,,,,,,30,,,,,,,,1392.479240299901,1392.479240299901,1392.479240299901,1392.479240299901,1392.479240299901,right,1.5413786999415606,0,1,0,99,0.08,0.24,right,1.458563599968329,,,,,,,,,,,,,,,,,,,,,,,,,,,,,,,,,,,,,,,,,,,,,,,,,,,,,,,,,,,,MM6K0C,train_x,blue_star,top_left,2024-12-06_16h01.16.516,HideSeek_v1,2022.2.5,59.907502808759205,
,0,8,5,8,5,0,11,,train_dim1_1,10,30,,,,2,0,2,0,,,,,,,,,0,0,0,0,0,9,9,9,3,0,3,0,,,,,,,,,,,,,,,,,,,,,,,,,,,,,,,,,,,,,,,,,,,,,,,,,,,,,,,,,,,,,,,,30,,,,,,,,1394.0264772998635,1394.0264772998635,1394.0264772998635,1394.0264772998635,1394.0264772998635,right,0.6267800000496209,0,1,0,99,0.16,0.24,right,0.5503877999726683,,,,,,,,,,,,,,,,,,,,,,,,,,,,,,,,,,,,,,,,,,,,,,,,,,,,,,,,,,,,MM6K0C,train_x,blue_star,top_left,2024-12-06_16h01.16.516,HideSeek_v1,2022.2.5,59.907502808759205,
,0,8,5,8,5,0,11,,train_dim1_1,10,30,,,,2,0,2,0,,,,,,,,,0,0,0,0,0,9,9,9,4,0,4,0,,,,,,,,,,,,,,,,,,,,,,,,,,,,,,,,,,,,,,,,,,,,,,,,,,,,,,,,,,,,,,,,30,,,,,,,,1394.6639564998914,1394.6639564998914,1394.6639564998914,1394.6639564998914,1394.6639564998914,right,0.7773559000343084,0,1,0,99,0.24,0.24,right,0.6895520000252873,,,,,,,,,,,,,,,,,,,,,,,,,,,,,,,,,,,,,,,,,,,,,,,,,,,,,,,,,,,,MM6K0C,train_x,blue_star,top_left,2024-12-06_16h01.16.516,HideSeek_v1,2022.2.5,59.907502808759205,
,0,8,5,8,5,0,11,,train_dim1_1,10,30,,,,2,0,2,0,,,,,,,,,0,0,0,0,0,9,9,9,5,0,5,0,,,,,,,,,,,,,,,,,,,,,,,,,,,,,,,,,,,,,,,,,,,,,,,,,,,,,,,,,,,,,,,,30,,,,,,,,1395.444683499867,1395.444683499867,1395.444683499867,1395.444683499867,1395.444683499867,return,1.560548499925062,1,0,0,1,0.24,0.24,return,1.4726963001303375,-6,21,0.24,0.24,,,,,,,,,,,,,,,,,,,,,,,,,,,,,,,,,,,,,,,,,,,,,,,,,,,,,,,,MM6K0C,train_x,blue_star,top_left,2024-12-06_16h01.16.516,HideSeek_v1,2022.2.5,59.907502808759205,
,2,7,5,7,3,0,31,,train_dim1_1,11,30,,,,2,0,2,0,,,,,,,,,0,0,0,0,0,10,10,10,0,0,0,0,,,,,,,,,,,,,,,,,,,,,,,,,stimuli/alien_stimuli/31.png,,,,,,,,,,,,,,,,,,,,,,,,,,,,,stimuli/alien_stimuli/11.png,11,0,12,,,,,,,30,,,,,,,,1408.0118064999115,1408.0118064999115,1408.0118064999115,1408.0118064999115,1408.0118064999115,left,8.17935310001485,1,0,0,99,-0.08,0.16,left,8.095592399826273,,,,,1406.453863099916,1408.0118064999115,0.24,0.24,0.0,0.4,0.24,0.24,0.039999999999999994,0.24,0.24,1398.5887487998698,1398.5887487998698,1398.5887487998698,1398.5887487998698,1398.5887487998698,1398.5887487998698,1398.5887487998698,1398.5887487998698,1398.5805124201813,7.9925156000535935,return,7.843808300094679,,,,,,,,,,,,,,,,,,,,,,,,,,,,,,,,,MM6K0C,train_x,blue_star,top_left,2024-12-06_16h01.16.516,HideSeek_v1,2022.2.5,59.907502808759205,
,2,7,5,7,3,0,31,,train_dim1_1,11,30,,,,2,0,2,0,,,,,,,,,0,0,0,0,0,10,10,10,1,0,1,0,,,,,,,,,,,,,,,,,,,,,,,,,,,,,,,,,,,,,,,,,,,,,,,,,,,,,,,,,,,,,,,,30,,,,,,,,1416.1930306998547,1416.1930306998547,1416.1930306998547,1416.1930306998547,1416.1930306998547,down,0.9763194001279771,1,0,0,99,-0.08,0.08,down,0.8892820000182837,,,,,,,,,,,,,,,,,,,,,,,,,,,,,,,,,,,,,,,,,,,,,,,,,,,,,,,,,,,,MM6K0C,train_x,blue_star,top_left,2024-12-06_16h01.16.516,HideSeek_v1,2022.2.5,59.907502808759205,
,2,7,5,7,3,0,31,,train_dim1_1,11,30,,,,2,0,2,0,,,,,,,,,0,0,0,0,0,10,10,10,2,0,2,0,,,,,,,,,,,,,,,,,,,,,,,,,,,,,,,,,,,,,,,,,,,,,,,,,,,,,,,,,,,,,,,,30,,,,,,,,1417.175776500022,1417.175776500022,1417.175776500022,1417.175776500022,1417.175776500022,right,1.8449105999898165,1,0,0,99,0.0,0.08,right,1.7597254998981953,,,,,,,,,,,,,,,,,,,,,,,,,,,,,,,,,,,,,,,,,,,,,,,,,,,,,,,,,,,,MM6K0C,train_x,blue_star,top_left,2024-12-06_16h01.16.516,HideSeek_v1,2022.2.5,59.907502808759205,
,2,7,5,7,3,0,31,,train_dim1_1,11,30,,,,2,0,2,0,,,,,,,,,0,0,0,0,0,10,10,10,3,0,3,0,,,,,,,,,,,,,,,,,,,,,,,,,,,,,,,,,,,,,,,,,,,,,,,,,,,,,,,,,,,,,,,,30,,,,,,,,1419.0268722998444,1419.0268722998444,1419.0268722998444,1419.0268722998444,1419.0268722998444,return,2.795230999821797,1,0,0,0,0.0,0.08,return,2.7231173999607563,-7,21,0.0,0.08,,,,,,,,,,,,,,,,,,,,,,,,,,,,,,,,,,,,,,,,,,,,,,,,,,,,,,,,MM6K0C,train_x,blue_star,top_left,2024-12-06_16h01.16.516,HideSeek_v1,2022.2.5,59.907502808759205,
,0,5,4,5,4,0,21,,train_dim1_1,12,30,,,,2,0,2,0,,,,,,,,,0,0,0,0,0,11,11,11,0,0,0,0,,,,,,,,,,,,,,,,,,,,,,,,,stimuli/alien_stimuli/21.png,,,,,,,,,,,,,,,,,,,,,,,,,,,,,stimuli/alien_stimuli/31.png,31,2,13,,,,,,,30,,,,,,,,1429.6997253000736,1429.6997253000736,1429.6997253000736,1429.6997253000736,1429.6997253000736,right,4.959991400130093,1,0,0,99,-0.08,0,right,4.874528000131249,,,,,1428.1386897000484,1429.6997253000736,0.24,0.16,0.0,0.24,0.16,0.24,0.12,0.24,0.16,1423.3958365998697,1423.3958365998697,1423.3958365998697,1423.3958365998697,1423.3958365998697,1423.3958365998697,1423.3958365998697,1423.3958365998697,1423.3844765301096,4.856460300041363,return,4.7260100999847054,,,,,,,,,,,,,,,,,,,,,,,,,,,,,,,,,MM6K0C,train_x,blue_star,top_left,2024-12-06_16h01.16.516,HideSeek_v1,2022.2.5,59.907502808759205,
,0,5,4,5,4,0,21,,train_dim1_1,12,30,,,,2,0,2,0,,,,,,,,,0,0,0,0,0,11,11,11,1,0,1,0,,,,,,,,,,,,,,,,,,,,,,,,,,,,,,,,,,,,,,,,,,,,,,,,,,,,,,,,,,,,,,,,30,,,,,,,,1434.6612877999432,1434.6612877999432,1434.6612877999432,1434.6612877999432,1434.6612877999432,right,0.9269703000318259,1,0,0,99,0.0,0,right,0.8350448999553919,,,,,,,,,,,,,,,,,,,,,,,,,,,,,,,,,,,,,,,,,,,,,,,,,,,,,,,,,,,,MM6K0C,train_x,blue_star,top_left,2024-12-06_16h01.16.516,HideSeek_v1,2022.2.5,59.907502808759205,
,0,5,4,5,4,0,21,,train_dim1_1,12,30,,,,2,0,2,0,,,,,,,,,0,0,0,0,0,11,11,11,2,0,2,0,,,,,,,,,,,,,,,,,,,,,,,,,,,,,,,,,,,,,,,,,,,,,,,,,,,,,,,,,,,,,,,,30,,,,,,,,1435.5950488999952,1435.5950488999952,1435.5950488999952,1435.5950488999952,1435.5950488999952,right,0.9103753999806941,1,0,0,99,0.08,0,right,0.8291805000044405,,,,,,,,,,,,,,,,,,,,,,,,,,,,,,,,,,,,,,,,,,,,,,,,,,,,,,,,,,,,MM6K0C,train_x,blue_star,top_left,2024-12-06_16h01.16.516,HideSeek_v1,2022.2.5,59.907502808759205,
,0,5,4,5,4,0,21,,train_dim1_1,12,30,,,,2,0,2,0,,,,,,,,,0,0,0,0,0,11,11,11,3,0,3,0,,,,,,,,,,,,,,,,,,,,,,,,,,,,,,,,,,,,,,,,,,,,,,,,,,,,,,,,,,,,,,,,30,,,,,,,,1436.514115100028,1436.514115100028,1436.514115100028,1436.514115100028,1436.514115100028,right,2.0444410000927746,1,0,0,99,0.16,0,right,1.9542266000062227,,,,,,,,,,,,,,,,,,,,,,,,,,,,,,,,,,,,,,,,,,,,,,,,,,,,,,,,,,,,MM6K0C,train_x,blue_star,top_left,2024-12-06_16h01.16.516,HideSeek_v1,2022.2.5,59.907502808759205,
,0,5,4,5,4,0,21,,train_dim1_1,12,30,,,,2,0,2,0,,,,,,,,,0,0,0,0,0,11,11,11,4,0,4,0,,,,,,,,,,,,,,,,,,,,,,,,,,,,,,,,,,,,,,,,,,,,,,,,,,,,,,,,,,,,,,,,30,,,,,,,,1438.5637862998992,1438.5637862998992,1438.5637862998992,1438.5637862998992,1438.5637862998992,return,0.6603001998737454,2,0,0,1,0.16,0,return,0.5820437001530081,-7,25,0.16,0,,,,,,,,,,,,,,,,,,,,,,,,,,,,,,,,,,,,,,,,,,,,,,,,,,,,,,,,MM6K0C,train_x,blue_star,top_left,2024-12-06_16h01.16.516,HideSeek_v1,2022.2.5,59.907502808759205,
,0,9,1,9,1,0,51,,train_dim1_1,13,30,,,,2,0,2,0,,,,,,,,,0,0,0,0,0,12,12,12,0,0,0,0,,,,,,,,,,,,,,,,,,,,,,,,,stimuli/alien_stimuli/51.png,,,,,,,,,,,,,,,,,,,,,,,,,,,,,stimuli/alien_stimuli/21.png,21,0,14,,,,,,,30,,,,,,,,1445.0607866998762,1445.0607866998762,1445.0607866998762,1445.0607866998762,1445.0607866998762,return,5.844476500060409,2,1,0,0,-0.16,0.32,return,5.753531300229952,-7,25,-0.16,0.32,1443.501236199867,1445.0607866998762,0.16,0,0.0,0.32,0.0,0.16,0.0,0.16,0,1440.8103374000639,1440.8103374000639,1440.8103374000639,1440.8103374000639,1440.8103374000639,1440.8103374000639,1440.8103374000639,1440.8103374000639,1440.7986923201477,2.8214410000946373,return,2.6640833001583815,,,,,,,,,,,,,,,,,,,,,,,,,,,,,,,,,MM6K0C,train_x,blue_star,top_left,2024-12-06_16h01.16.516,HideSeek_v1,2022.2.5,59.907502808759205,
,4,8,9,8,5,0,11,,train_dim1_1,14,30,,,,2,0,2,0,,,,,,,,,0,0,0,0,0,13,13,13,0,0,0,0,,,,,,,,,,,,,,,,,,,,,,,,,stimuli/alien_stimuli/11.png,,,,,,,,,,,,,,,,,,,,,,,,,,,,,stimuli/alien_stimuli/51.png,51,0,15,,,,,,,30,,,,,,,,1457.8236332000233,1457.8236332000233,1457.8236332000233,1457.8236332000233,1457.8236332000233,right,3.0419640000909567,2,1,0,99,0.24,0.24,right,2.946789500070736,,,,,1456.2619558000006,1457.8236332000233,-0.08,0.32,0.0,0.08,0.32,-0.08,-0.12,-0.08,0.32,1452.4774245000444,1452.4774245000444,1452.4774245000444,1452.4774245000444,1452.4774245000444,1452.4774245000444,1452.4774245000444,1452.4774245000444,1452.458607030078,3.9053237000480294,return,3.7532171998173,,,,,,,,,,,,,,,,,,,,,,,,,,,,,,,,,MM6K0C,train_x,blue_star,top_left,2024-12-06_16h01.16.516,HideSeek_v1,2022.2.5,59.907502808759205,
,4,8,9,8,5,0,11,,train_dim1_1,14,30,,,,2,0,2,0,,,,,,,,,0,0,0,0,0,13,13,13,1,0,1,0,,,,,,,,,,,,,,,,,,,,,,,,,,,,,,,,,,,,,,,,,,,,,,,,,,,,,,,,,,,,,,,,30,,,,,,,,1460.8697951999493,1460.8697951999493,1460.8697951999493,1460.8697951999493,1460.8697951999493,right,0.4916852000169456,2,1,0,99,0.32,0.24,right,0.4034049999900162,,,,,,,,,,,,,,,,,,,,,,,,,,,,,,,,,,,,,,,,,,,,,,,,,,,,,,,,,,,,MM6K0C,train_x,blue_star,top_left,2024-12-06_16h01.16.516,HideSeek_v1,2022.2.5,59.907502808759205,
,4,8,9,8,5,0,11,,train_dim1_1,14,30,,,,2,0,2,0,,,,,,,,,0,0,0,0,0,13,13,13,2,0,2,0,,,,,,,,,,,,,,,,,,,,,,,,,,,,,,,,,,,,,,,,,,,,,,,,,,,,,,,,,,,,,,,,30,,,,,,,,1461.3662286000326,1461.3662286000326,1461.3662286000326,1461.3662286000326,1461.3662286000326,right,0.4268552998546511,2,1,0,99,0.4,0.24,right,0.3349929000250995,,,,,,,,,,,,,,,,,,,,,,,,,,,,,,,,,,,,,,,,,,,,,,,,,,,,,,,,,,,,MM6K0C,train_x,blue_star,top_left,2024-12-06_16h01.16.516,HideSeek_v1,2022.2.5,59.907502808759205,
,4,8,9,8,5,0,11,,train_dim1_1,14,30,,,,2,0,2,0,,,,,,,,,0,0,0,0,0,13,13,13,3,0,3,0,,,,,,,,,,,,,,,,,,,,,,,,,,,,,,,,,,,,,,,,,,,,,,,,,,,,,,,,,,,,,,,,30,,,,,,,,1461.7996912999079,1461.7996912999079,1461.7996912999079,1461.7996912999079,1461.7996912999079,right,0.39332720008678734,2,1,0,99,0.48000000000000004,0.24,right,0.3114474001340568,,,,,,,,,,,,,,,,,,,,,,,,,,,,,,,,,,,,,,,,,,,,,,,,,,,,,,,,,,,,MM6K0C,train_x,blue_star,top_left,2024-12-06_16h01.16.516,HideSeek_v1,2022.2.5,59.907502808759205,
,4,8,9,8,5,0,11,,train_dim1_1,14,30,,,,2,0,2,0,,,,,,,,,0,0,0,0,0,13,13,13,4,0,4,0,,,,,,,,,,,,,,,,,,,,,,,,,,,,,,,,,,,,,,,,,,,,,,,,,,,,,,,,,,,,,,,,30,,,,,,,,1462.2010212999303,1462.2010212999303,1462.2010212999303,1462.2010212999303,1462.2010212999303,right,1.0604181999806315,2,1,0,99,0.56,0.24,right,0.9714899000246078,,,,,,,,,,,,,,,,,,,,,,,,,,,,,,,,,,,,,,,,,,,,,,,,,,,,,,,,,,,,MM6K0C,train_x,blue_star,top_left,2024-12-06_16h01.16.516,HideSeek_v1,2022.2.5,59.907502808759205,
,4,8,9,8,5,0,11,,train_dim1_1,14,30,,,,2,0,2,0,,,,,,,,,0,0,0,0,0,13,13,13,5,0,5,0,,,,,,,,,,,,,,,,,,,,,,,,,,,,,,,,,,,,,,,,,,,,,,,,,,,,,,,,,,,,,,,,30,,,,,,,,1463.2675453000702,1463.2675453000702,1463.2675453000702,1463.2675453000702,1463.2675453000702,return,1.1108021000400186,3,0,0,1,0.56,0.24,return,1.0342188999056816,-7,30,0.56,0.24,,,,,,,,,,,,,,,,,,,,,,,,,,,,,,,,,,,,,,,,,,,,,,,,,,,,,,,,MM6K0C,train_x,blue_star,top_left,2024-12-06_16h01.16.516,HideSeek_v1,2022.2.5,59.907502808759205,
,4,7,4,7,0,0,61,,train_dim1_1,15,30,,,,2,0,2,0,,,,,,,,,0,0,0,0,0,14,14,14,0,0,0,0,,,,,,,,,,,,,,,,,,,,,,,,,stimuli/alien_stimuli/61.png,,,,,,,,,,,,,,,,,,,,,,,,,,,,,stimuli/alien_stimuli/11.png,11,4,16,,,,,,,30,,,,,,,,1469.4935727999546,1469.4935727999546,1469.4935727999546,1469.4935727999546,1469.4935727999546,return,2.124294799985364,4,0,0,1,0.16,0.16,return,2.0281988999340683,-7,30,0.16,0.16,1467.9216865999624,1469.4935727999546,0.56,0.24,0.0,0.4,0.24,0.56,0.36000000000000004,0.56,0.24,1465.9637102000415,1465.9637102000415,1465.9637102000415,1465.9637102000415,1465.9637102000415,1465.9637102000415,1465.9637102000415,1465.9637102000415,1465.952833720157,2.0875349000561982,return,1.928798799868673,,,,,,,,,,,,,,,,,,,,,,,,,,,,,,,,,MM6K0C,train_x,blue_star,top_left,2024-12-06_16h01.16.516,HideSeek_v1,2022.2.5,59.907502808759205,
,3,8,4,8,1,0,51,,train_dim1_1,16,30,,,,2,0,2,0,,,,,,,,,0,0,0,0,0,15,15,15,0,0,0,0,,,,,,,,,,,,,,,,,,,,,,,,,stimuli/alien_stimuli/51.png,,,,,,,,,,,,,,,,,,,,,,,,,,,,,stimuli/alien_stimuli/61.png,61,4,17,,,,,,,30,,,,,,,,1481.0738548999652,1481.0738548999652,1481.0738548999652,1481.0738548999652,1481.0738548999652,return,5.911070900037885,4,1,0,0,0.08,0.24,return,5.823285700054839,-7,30,0.08,0.24,1479.514738400001,1481.0738548999652,0.16,0.16,0.0,0.0,0.16,0.16,0.16,0.16,0.16,1473.1615249998868,1473.1615249998868,1473.1615249998868,1473.1615249998868,1473.1615249998868,1473.1615249998868,1473.1615249998868,1473.1615249998868,1473.1423772399314,6.4579827999696136,return,6.33277909993194,,,,,,,,,,,,,,,,,,,,,,,,,,,,,,,,,MM6K0C,train_x,blue_star,top_left,2024-12-06_16h01.16.516,HideSeek_v1,2022.2.5,59.907502808759205,
,2,9,6,9,4,0,21,,train_dim1_1,17,30,,,,2,0,2,0,,,,,,,,,0,0,0,0,0,16,16,16,0,0,0,0,,,,,,,,,,,,,,,,,,,,,,,,,stimuli/alien_stimuli/21.png,,,,,,,,,,,,,,,,,,,,,,,,,,,,,stimuli/alien_stimuli/51.png,51,3,18,,,,,,,30,,,,,,,,1494.5500996999908,1494.5500996999908,1494.5500996999908,1494.5500996999908,1494.5500996999908,right,3.9644420000258833,4,1,0,99,0.08,0.32,right,3.872490300098434,,,,,1492.9759048998822,1494.5500996999908,0.16,0.24,0.0,0.08,0.24,0.16,0.12,0.16,0.24,1488.5551368999295,1488.5551368999295,1488.5551368999295,1488.5551368999295,1488.5551368999295,1488.5551368999295,1488.5551368999295,1488.5551368999295,1488.538507230091,4.539449400035664,return,4.393413999816403,,,,,,,,,,,,,,,,,,,,,,,,,,,,,,,,,MM6K0C,train_x,blue_star,top_left,2024-12-06_16h01.16.516,HideSeek_v1,2022.2.5,59.907502808759205,
,2,9,6,9,4,0,21,,train_dim1_1,17,30,,,,2,0,2,0,,,,,,,,,0,0,0,0,0,16,16,16,1,0,1,0,,,,,,,,,,,,,,,,,,,,,,,,,,,,,,,,,,,,,,,,,,,,,,,,,,,,,,,,,,,,,,,,30,,,,,,,,1498.515274999896,1498.515274999896,1498.515274999896,1498.515274999896,1498.515274999896,right,0.45968740014359355,4,1,0,99,0.16,0.32,right,0.3793697999790311,,,,,,,,,,,,,,,,,,,,,,,,,,,,,,,,,,,,,,,,,,,,,,,,,,,,,,,,,,,,MM6K0C,train_x,blue_star,top_left,2024-12-06_16h01.16.516,HideSeek_v1,2022.2.5,59.907502808759205,
,2,9,6,9,4,0,21,,train_dim1_1,17,30,,,,2,0,2,0,,,,,,,,,0,0,0,0,0,16,16,16,2,0,2,0,,,,,,,,,,,,,,,,,,,,,,,,,,,,,,,,,,,,,,,,,,,,,,,,,,,,,,,,,,,,,,,,30,,,,,,,,1498.9809542000294,1498.9809542000294,1498.9809542000294,1498.9809542000294,1498.9809542000294,right,0.47664269991219044,4,1,0,99,0.24,0.32,right,0.38954570004716516,,,,,,,,,,,,,,,,,,,,,,,,,,,,,,,,,,,,,,,,,,,,,,,,,,,,,,,,,,,,MM6K0C,train_x,blue_star,top_left,2024-12-06_16h01.16.516,HideSeek_v1,2022.2.5,59.907502808759205,
,2,9,6,9,4,0,21,,train_dim1_1,17,30,,,,2,0,2,0,,,,,,,,,0,0,0,0,0,16,16,16,3,0,3,0,,,,,,,,,,,,,,,,,,,,,,,,,,,,,,,,,,,,,,,,,,,,,,,,,,,,,,,,,,,,,,,,30,,,,,,,,1499.4646207999904,1499.4646207999904,1499.4646207999904,1499.4646207999904,1499.4646207999904,right,0.5102216000668705,4,1,0,99,0.32,0.32,right,0.43078309996053576,,,,,,,,,,,,,,,,,,,,,,,,,,,,,,,,,,,,,,,,,,,,,,,,,,,,,,,,,,,,MM6K0C,train_x,blue_star,top_left,2024-12-06_16h01.16.516,HideSeek_v1,2022.2.5,59.907502808759205,
,2,9,6,9,4,0,21,,train_dim1_1,17,30,,,,2,0,2,0,,,,,,,,,0,0,0,0,0,16,16,16,4,0,4,0,,,,,,,,,,,,,,,,,,,,,,,,,,,,,,,,,,,,,,,,,,,,,,,,,,,,,,,,,,,,,,,,30,,,,,,,,1499.9820013998542,1499.9820013998542,1499.9820013998542,1499.9820013998542,1499.9820013998542,return,1.5110843000002205,5,0,0,1,0.32,0.32,return,1.434829699806869,-7,34,0.32,0.32,,,,,,,,,,,,,,,,,,,,,,,,,,,,,,,,,,,,,,,,,,,,,,,,,,,,,,,,MM6K0C,train_x,blue_star,top_left,2024-12-06_16h01.16.516,HideSeek_v1,2022.2.5,59.907502808759205,
,2,6,2,6,0,0,61,,train_dim1_1,18,30,,,,2,0,2,0,,,,,,,,,0,0,0,0,0,17,17,17,0,0,0,0,,,,,,,,,,,,,,,,,,,,,,,,,stimuli/alien_stimuli/61.png,,,,,,,,,,,,,,,,,,,,,,,,,,,,,stimuli/alien_stimuli/21.png,21,2,19,,,,,,,30,,,,,,,,1506.6923144999892,1506.6923144999892,1506.6923144999892,1506.6923144999892,1506.6923144999892,return,2.6246368000283837,6,0,0,1,0,0.08,return,2.528081899974495,-7,34,0,0.08,1505.1192028999794,1506.6923144999892,0.32,0.32,0.0,0.32,0.32,0.32,0.16,0.32,0.32,1503.0757583999075,1503.0757583999075,1503.0757583999075,1503.0757583999075,1503.0757583999075,1503.0757583999075,1503.0757583999075,1503.0757583999075,1503.0671118201224,2.1708421998191625,return,2.0193250000011176,,,,,,,,,,,,,,,,,,,,,,,,,,,,,,,,,MM6K0C,train_x,blue_star,top_left,2024-12-06_16h01.16.516,HideSeek_v1,2022.2.5,59.907502808759205,
,0,8,3,8,3,0,31,,train_dim1_1,19,30,,,,2,0,2,0,,,,,,,,,0,0,0,0,0,18,18,18,0,0,0,0,,,,,,,,,,,,,,,,,,,,,,,,,stimuli/alien_stimuli/31.png,,,,,,,,,,,,,,,,,,,,,,,,,,,,,stimuli/alien_stimuli/61.png,61,2,20,,,,,,,30,,,,,,,,1515.5845987999346,1515.5845987999346,1515.5845987999346,1515.5845987999346,1515.5845987999346,right,5.076888300012797,6,0,0,99,-0.08,0.24,right,4.993736200034618,,,,,1514.0266593999695,1515.5845987999346,0,0.08,0.0,0.0,0.08,0,0.0,0,0.08,1510.856333799893,1510.856333799893,1510.856333799893,1510.856333799893,1510.856333799893,1510.856333799893,1510.856333799893,1510.856333799893,1510.8404882399366,3.2714644998777658,return,3.1420527000445873,,,,,,,,,,,,,,,,,,,,,,,,,,,,,,,,,MM6K0C,train_x,blue_star,top_left,2024-12-06_16h01.16.516,HideSeek_v1,2022.2.5,59.907502808759205,
,0,8,3,8,3,0,31,,train_dim1_1,19,30,,,,2,0,2,0,,,,,,,,,0,0,0,0,0,18,18,18,1,0,1,0,,,,,,,,,,,,,,,,,,,,,,,,,,,,,,,,,,,,,,,,,,,,,,,,,,,,,,,,,,,,,,,,30,,,,,,,,1520.6622377999593,1520.6622377999593,1520.6622377999593,1520.6622377999593,1520.6622377999593,right,7.031765599967912,6,0,0,99,0.0,0.24,right,6.958529899828136,,,,,,,,,,,,,,,,,,,,,,,,,,,,,,,,,,,,,,,,,,,,,,,,,,,,,,,,,,,,MM6K0C,train_x,blue_star,top_left,2024-12-06_16h01.16.516,HideSeek_v1,2022.2.5,59.907502808759205,
,0,8,3,8,3,0,31,,train_dim1_1,19,30,,,,2,0,2,0,,,,,,,,,0,0,0,0,0,18,18,18,2,0,2,0,,,,,,,,,,,,,,,,,,,,,,,,,,,,,,,,,,,,,,,,,,,,,,,,,,,,,,,,,,,,,,,,30,,,,,,,,1527.7011402000207,1527.7011402000207,1527.7011402000207,1527.7011402000207,1527.7011402000207,right,3.2789933001622558,6,0,0,99,0.08,0.24,right,3.1998187999706715,,,,,,,,,,,,,,,,,,,,,,,,,,,,,,,,,,,,,,,,,,,,,,,,,,,,,,,,,,,,MM6K0C,train_x,blue_star,top_left,2024-12-06_16h01.16.516,HideSeek_v1,2022.2.5,59.907502808759205,
,0,8,3,8,3,0,31,,train_dim1_1,19,30,,,,2,0,2,0,,,,,,,,,0,0,0,0,0,18,18,18,3,0,3,0,,,,,,,,,,,,,,,,,,,,,,,,,,,,,,,,,,,,,,,,,,,,,,,,,,,,,,,,,,,,,,,,30,,,,,,,,1530.9867139998823,1530.9867139998823,1530.9867139998823,1530.9867139998823,1530.9867139998823,return,7.515440900111571,7,0,0,1,0.08,0.24,return,7.439089999999851,-7,37,0.08,0.24,,,,,,,,,,,,,,,,,,,,,,,,,,,,,,,,,,,,,,,,,,,,,,,,,,,,,,,,MM6K0C,train_x,blue_star,top_left,2024-12-06_16h01.16.516,HideSeek_v1,2022.2.5,59.907502808759205,
,0,6,5,6,5,0,11,,train_dim1_1,20,30,,,,2,0,2,0,,,,,,,,,0,0,0,0,0,19,19,19,0,0,0,0,,,,,,,,,,,,,,,,,,,,,,,,,stimuli/alien_stimuli/11.png,,,,,,,,,,,,,,,,,,,,,,,,,,,,,stimuli/alien_stimuli/31.png,31,0,21,,,,,,,30,,,,,,,,1543.5451611999888,1543.5451611999888,1543.5451611999888,1543.5451611999888,1543.5451611999888,right,3.3236813999246806,7,0,0,99,-0.08,0.08,right,3.216861299937591,,,,,1541.9665899998508,1543.5451611999888,0.08,0.24,0.0,0.24,0.24,0.08,-0.04,0.08,0.24,1540.084850099869,1540.084850099869,1540.084850099869,1540.084850099869,1540.084850099869,1540.084850099869,1540.084850099869,1540.084850099869,1540.0646102300148,2.004102700157091,return,1.851138300029561,,,,,,,,,,,,,,,,,,,,,,,,,,,,,,,,,MM6K0C,train_x,blue_star,top_left,2024-12-06_16h01.16.516,HideSeek_v1,2022.2.5,59.907502808759205,
,0,6,5,6,5,0,11,,train_dim1_1,20,30,,,,2,0,2,0,,,,,,,,,0,0,0,0,0,19,19,19,1,0,1,0,,,,,,,,,,,,,,,,,,,,,,,,,,,,,,,,,,,,,,,,,,,,,,,,,,,,,,,,,,,,,,,,30,,,,,,,,1546.853910600068,1546.853910600068,1546.853910600068,1546.853910600068,1546.853910600068,right,0.3932517000939697,7,0,0,99,0.0,0.08,right,0.3035483998246491,,,,,,,,,,,,,,,,,,,,,,,,,,,,,,,,,,,,,,,,,,,,,,,,,,,,,,,,,,,,MM6K0C,train_x,blue_star,top_left,2024-12-06_16h01.16.516,HideSeek_v1,2022.2.5,59.907502808759205,
,0,6,5,6,5,0,11,,train_dim1_1,20,30,,,,2,0,2,0,,,,,,,,,0,0,0,0,0,19,19,19,2,0,2,0,,,,,,,,,,,,,,,,,,,,,,,,,,,,,,,,,,,,,,,,,,,,,,,,,,,,,,,,,,,,,,,,30,,,,,,,,1547.2540106999222,1547.2540106999222,1547.2540106999222,1547.2540106999222,1547.2540106999222,right,0.3602255000732839,7,0,0,99,0.08,0.08,right,0.2731425000820309,,,,,,,,,,,,,,,,,,,,,,,,,,,,,,,,,,,,,,,,,,,,,,,,,,,,,,,,,,,,MM6K0C,train_x,blue_star,top_left,2024-12-06_16h01.16.516,HideSeek_v1,2022.2.5,59.907502808759205,
,0,6,5,6,5,0,11,,train_dim1_1,20,30,,,,2,0,2,0,,,,,,,,,0,0,0,0,0,19,19,19,3,0,3,0,,,,,,,,,,,,,,,,,,,,,,,,,,,,,,,,,,,,,,,,,,,,,,,,,,,,,,,,,,,,,,,,30,,,,,,,,1547.6211426998489,1547.6211426998489,1547.6211426998489,1547.6211426998489,1547.6211426998489,right,0.4436687999404967,7,0,0,99,0.16,0.08,right,0.35685870004817843,,,,,,,,,,,,,,,,,,,,,,,,,,,,,,,,,,,,,,,,,,,,,,,,,,,,,,,,,,,,MM6K0C,train_x,blue_star,top_left,2024-12-06_16h01.16.516,HideSeek_v1,2022.2.5,59.907502808759205,
,0,6,5,6,5,0,11,,train_dim1_1,20,30,,,,2,0,2,0,,,,,,,,,0,0,0,0,0,19,19,19,4,0,4,0,,,,,,,,,,,,,,,,,,,,,,,,,,,,,,,,,,,,,,,,,,,,,,,,,,,,,,,,,,,,,,,,30,,,,,,,,1548.071757900063,1548.071757900063,1548.071757900063,1548.071757900063,1548.071757900063,right,0.5767022001091391,7,0,0,99,0.24,0.08,right,0.4932307000271976,,,,,,,,,,,,,,,,,,,,,,,,,,,,,,,,,,,,,,,,,,,,,,,,,,,,,,,,,,,,MM6K0C,train_x,blue_star,top_left,2024-12-06_16h01.16.516,HideSeek_v1,2022.2.5,59.907502808759205,
,0,6,5,6,5,0,11,,train_dim1_1,20,30,,,,2,0,2,0,,,,,,,,,0,0,0,0,0,19,19,19,5,0,5,0,,,,,,,,,,,,,,,,,,,,,,,,,,,,,,,,,,,,,,,,,,,,,,,,,,,,,,,,,,,,,,,,30,,,,,,,,1548.6559480000287,1548.6559480000287,1548.6559480000287,1548.6559480000287,1548.6559480000287,return,3.929306000005454,8,0,0,1,0.24,0.08,return,3.8487450000829995,-7,42,0.24,0.08,,,,,,,,,,,,,,,,,,,,,,,,,,,,,,,,,,,,,,,,,,,,,,,,,,,,,,,,MM6K0C,train_x,blue_star,top_left,2024-12-06_16h01.16.516,HideSeek_v1,2022.2.5,59.907502808759205,
,4,7,7,7,3,0,31,,train_dim1_1,21,30,,,,2,0,2,0,,,,,,,,,0,0,0,0,0,20,20,20,0,0,0,0,,,,,,,,,,,,,,,,,,,,,,,,,stimuli/alien_stimuli/31.png,,,,,,,,,,,,,,,,,,,,,,,,,,,,,stimuli/alien_stimuli/11.png,11,0,22,,,,,,,30,,,,,,,,1557.7172143999487,1557.7172143999487,1557.7172143999487,1557.7172143999487,1557.7172143999487,right,3.237370999995619,8,0,0,99,0.24,0.16,right,3.132898800075054,,,,,1556.1735763000324,1554.1502425998915,0.24,0.08,0.0,0.4,0.08,0.24,0.039999999999999994,0.24,0.08,1554.1502425998915,1554.1502425998915,1554.1502425998915,1554.1502425998915,1554.1502425998915,1554.1502425998915,1554.1502425998915,1554.1502425998915,1554.142752130027,2.0873992000706494,return,1.9564111998770386,,,,,,,,,,,,,,,,,,,,,,,,,,,,,,,,,MM6K0C,train_x,blue_star,top_left,2024-12-06_16h01.16.516,HideSeek_v1,2022.2.5,59.907502808759205,
,4,7,7,7,3,0,31,,train_dim1_1,21,30,,,,2,0,2,0,,,,,,,,,0,0,0,0,0,20,20,20,1,0,1,0,,,,,,,,,,,,,,,,,,,,,,,,,,,,,,,,,,,,,,,,,,,,,,,,,,,,,,,,,,,,,,,,30,,,,,,,,1560.9453274998814,1560.9453274998814,1560.9453274998814,1560.9453274998814,1560.9453274998814,right,0.7437165000010282,8,0,0,99,0.32,0.16,right,0.6575088000390679,,,,,,,,,,,,,,,,,,,,,,,,,,,,,,,,,,,,,,,,,,,,,,,,,,,,,,,,,,,,MM6K0C,train_x,blue_star,top_left,2024-12-06_16h01.16.516,HideSeek_v1,2022.2.5,59.907502808759205,
,4,7,7,7,3,0,31,,train_dim1_1,21,30,,,,2,0,2,0,,,,,,,,,0,0,0,0,0,20,20,20,2,0,2,0,,,,,,,,,,,,,,,,,,,,,,,,,,,,,,,,,,,,,,,,,,,,,,,,,,,,,,,,,,,,,,,,30,,,,,,,,1561.696939599933,1561.696939599933,1561.696939599933,1561.696939599933,1561.696939599933,right,0.8933405999559909,8,0,0,99,0.4,0.16,right,0.8068970998283476,,,,,,,,,,,,,,,,,,,,,,,,,,,,,,,,,,,,,,,,,,,,,,,,,,,,,,,,,,,,MM6K0C,train_x,blue_star,top_left,2024-12-06_16h01.16.516,HideSeek_v1,2022.2.5,59.907502808759205,
,4,7,7,7,3,0,31,,train_dim1_1,21,30,,,,2,0,2,0,,,,,,,,,0,0,0,0,0,20,20,20,3,0,3,0,,,,,,,,,,,,,,,,,,,,,,,,,,,,,,,,,,,,,,,,,,,,,,,,,,,,,,,,,,,,,,,,30,,,,,,,,1562.5964112000074,1562.5964112000074,1562.5964112000074,1562.5964112000074,1562.5964112000074,return,0.9273389999289066,9,0,0,1,0.4,0.16,return,0.8553400000091642,-7,45,0.4,0.16,,,,,,,,,,,,,,,,,,,,,,,,,,,,,,,,,,,,,,,,,,,,,,,,,,,,,,,,MM6K0C,train_x,blue_star,top_left,2024-12-06_16h01.16.516,HideSeek_v1,2022.2.5,59.907502808759205,
,1,5,5,5,4,0,21,,train_dim1_1,22,30,,,,2,0,2,0,,,,,,,,,0,0,0,0,0,21,21,21,0,0,0,0,,,,,,,,,,,,,,,,,,,,,,,,,stimuli/alien_stimuli/21.png,,,,,,,,,,,,,,,,,,,,,,,,,,,,,stimuli/alien_stimuli/31.png,31,4,23,,,,,,,30,,,,,,,,1568.5827994998544,1568.5827994998544,1568.5827994998544,1568.5827994998544,1568.5827994998544,right,2.4575180001556873,9,0,0,99,0.0,0,right,2.35340220015496,,,,,1567.003709499957,1568.5827994998544,0.4,0.16,0.0,0.24,0.16,0.4,0.28,0.4,0.16,1565.0873732999898,1565.0873732999898,1565.0873732999898,1565.0873732999898,1565.0873732999898,1565.0873732999898,1565.0873732999898,1565.0873732999898,1565.0689017400612,2.0203188001178205,return,1.8993142999242991,,,,,,,,,,,,,,,,,,,,,,,,,,,,,,,,,MM6K0C,train_x,blue_star,top_left,2024-12-06_16h01.16.516,HideSeek_v1,2022.2.5,59.907502808759205,
,1,5,5,5,4,0,21,,train_dim1_1,22,30,,,,2,0,2,0,,,,,,,,,0,0,0,0,0,21,21,21,1,0,1,0,,,,,,,,,,,,,,,,,,,,,,,,,,,,,,,,,,,,,,,,,,,,,,,,,,,,,,,,,,,,,,,,30,,,,,,,,1571.0258158000652,1571.0258158000652,1571.0258158000652,1571.0258158000652,1571.0258158000652,right,0.49318119999952614,9,0,0,99,0.08,0,right,0.40685870009474456,,,,,,,,,,,,,,,,,,,,,,,,,,,,,,,,,,,,,,,,,,,,,,,,,,,,,,,,,,,,MM6K0C,train_x,blue_star,top_left,2024-12-06_16h01.16.516,HideSeek_v1,2022.2.5,59.907502808759205,
,1,5,5,5,4,0,21,,train_dim1_1,22,30,,,,2,0,2,0,,,,,,,,,0,0,0,0,0,21,21,21,2,0,2,0,,,,,,,,,,,,,,,,,,,,,,,,,,,,,,,,,,,,,,,,,,,,,,,,,,,,,,,,,,,,,,,,30,,,,,,,,1571.5244295999873,1571.5244295999873,1571.5244295999873,1571.5244295999873,1571.5244295999873,right,0.9440796000417322,9,0,0,99,0.16,0,right,0.8623480999376625,,,,,,,,,,,,,,,,,,,,,,,,,,,,,,,,,,,,,,,,,,,,,,,,,,,,,,,,,,,,MM6K0C,train_x,blue_star,top_left,2024-12-06_16h01.16.516,HideSeek_v1,2022.2.5,59.907502808759205,
,1,5,5,5,4,0,21,,train_dim1_1,22,30,,,,2,0,2,0,,,,,,,,,0,0,0,0,0,21,21,21,3,0,3,0,,,,,,,,,,,,,,,,,,,,,,,,,,,,,,,,,,,,,,,,,,,,,,,,,,,,,,,,,,,,,,,,30,,,,,,,,1572.4759180999827,1572.4759180999827,1572.4759180999827,1572.4759180999827,1572.4759180999827,right,1.1942573999986053,9,0,0,99,0.24,0,right,1.1116542001254857,,,,,,,,,,,,,,,,,,,,,,,,,,,,,,,,,,,,,,,,,,,,,,,,,,,,,,,,,,,,MM6K0C,train_x,blue_star,top_left,2024-12-06_16h01.16.516,HideSeek_v1,2022.2.5,59.907502808759205,
,1,5,5,5,4,0,21,,train_dim1_1,22,30,,,,2,0,2,0,,,,,,,,,0,0,0,0,0,21,21,21,4,0,4,0,,,,,,,,,,,,,,,,,,,,,,,,,,,,,,,,,,,,,,,,,,,,,,,,,,,,,,,,,,,,,,,,30,,,,,,,,1573.6766317000147,1573.6766317000147,1573.6766317000147,1573.6766317000147,1573.6766317000147,return,1.210072600049898,10,0,0,1,0.24,0,return,1.1217465000227094,-7,49,0.24,0,,,,,,,,,,,,,,,,,,,,,,,,,,,,,,,,,,,,,,,,,,,,,,,,,,,,,,,,MM6K0C,train_x,blue_star,top_left,2024-12-06_16h01.16.516,HideSeek_v1,2022.2.5,59.907502808759205,
,2,6,2,6,0,0,61,,train_dim1_1,23,30,,,,2,0,2,0,,,,,,,,,0,0,0,0,0,22,22,22,0,0,0,0,,,,,,,,,,,,,,,,,,,,,,,,,stimuli/alien_stimuli/61.png,,,,,,,,,,,,,,,,,,,,,,,,,,,,,stimuli/alien_stimuli/21.png,21,1,24,,,,,,,30,,,,,,,,1579.431920300005,1579.431920300005,1579.431920300005,1579.431920300005,1579.431920300005,return,1.8077124000992626,11,0,0,1,0,0.08,return,1.7034439998678863,-7,49,0,0.08,1577.8626274999697,1579.431920300005,0.24,0,0.0,0.32,0.0,0.24,0.07999999999999999,0.24,0,1576.4649441000074,1576.4649441000074,1576.4649441000074,1576.4649441000074,1576.4649441000074,1576.4649441000074,1576.4649441000074,1576.4649441000074,1576.4446498299717,1.5203535000327975,return,1.3658736001234502,,,,,,,,,,,,,,,,,,,,,,,,,,,,,,,,,MM6K0C,train_x,blue_star,top_left,2024-12-06_16h01.16.516,HideSeek_v1,2022.2.5,59.907502808759205,
,4,9,5,9,1,0,51,,train_dim1_1,24,30,,,,2,0,2,0,,,,,,,,,0,0,0,0,0,23,23,23,0,0,0,0,,,,,,,,,,,,,,,,,,,,,,,,,stimuli/alien_stimuli/51.png,,,,,,,,,,,,,,,,,,,,,,,,,,,,,stimuli/alien_stimuli/61.png,61,2,25,,,,,,,30,,,,,,,,1585.4439302999526,1585.4439302999526,1585.4439302999526,1585.4439302999526,1585.4439302999526,right,2.35745510016568,11,0,0,99,0.24,0.32,right,2.2620074001606554,,,,,1583.8846735998522,1585.4439302999526,0,0.08,0.0,0.0,0.08,0,0.0,0,0.08,1582.7819570999127,1582.7819570999127,1582.7819570999127,1582.7819570999127,1582.7819570999127,1582.7819570999127,1582.7819570999127,1582.7819570999127,1582.7670213401318,1.20335129997693,return,1.0861752999480814,,,,,,,,,,,,,,,,,,,,,,,,,,,,,,,,,MM6K0C,train_x,blue_star,top_left,2024-12-06_16h01.16.516,HideSeek_v1,2022.2.5,59.907502808759205,
,4,9,5,9,1,0,51,,train_dim1_1,24,30,,,,2,0,2,0,,,,,,,,,0,0,0,0,0,23,23,23,1,0,1,0,,,,,,,,,,,,,,,,,,,,,,,,,,,,,,,,,,,,,,,,,,,,,,,,,,,,,,,,,,,,,,,,30,,,,,,,,1587.8044503000565,1587.8044503000565,1587.8044503000565,1587.8044503000565,1587.8044503000565,return,0.74346649996005,12,0,0,1,0.24,0.32,return,0.6680734001565725,-7,50,0.24,0.32,,,,,,,,,,,,,,,,,,,,,,,,,,,,,,,,,,,,,,,,,,,,,,,,,,,,,,,,MM6K0C,train_x,blue_star,top_left,2024-12-06_16h01.16.516,HideSeek_v1,2022.2.5,59.907502808759205,
,3,5,8,5,5,0,11,,train_dim1_1,25,30,,,,2,0,2,0,,,,,,,,,0,0,0,0,0,24,24,24,0,0,0,0,,,,,,,,,,,,,,,,,,,,,,,,,stimuli/alien_stimuli/11.png,,,,,,,,,,,,,,,,,,,,,,,,,,,,,stimuli/alien_stimuli/51.png,51,4,26,,,,,,,30,,,,,,,,1593.6055023998488,1593.6055023998488,1593.6055023998488,1593.6055023998488,1593.6055023998488,right,1.6394615001045167,12,0,0,99,0.16,0,right,1.5315243999939412,,,,,1592.024640099844,1593.6055023998488,0.24,0.32,0.0,0.08,0.32,0.24,0.2,0.24,0.32,1590.1202994999476,1590.1202994999476,1590.1202994999476,1590.1202994999476,1590.1202994999476,1590.1202994999476,1590.1202994999476,1590.1202994999476,1590.1061742300867,2.0202444000169635,return,1.8724247999489307,,,,,,,,,,,,,,,,,,,,,,,,,,,,,,,,,MM6K0C,train_x,blue_star,top_left,2024-12-06_16h01.16.516,HideSeek_v1,2022.2.5,59.907502808759205,
,3,5,8,5,5,0,11,,train_dim1_1,25,30,,,,2,0,2,0,,,,,,,,,0,0,0,0,0,24,24,24,1,0,1,0,,,,,,,,,,,,,,,,,,,,,,,,,,,,,,,,,,,,,,,,,,,,,,,,,,,,,,,,,,,,,,,,30,,,,,,,,1595.2291659999173,1595.2291659999173,1595.2291659999173,1595.2291659999173,1595.2291659999173,right,0.37598250014707446,12,0,0,99,0.24,0,right,0.2961190000642091,,,,,,,,,,,,,,,,,,,,,,,,,,,,,,,,,,,,,,,,,,,,,,,,,,,,,,,,,,,,MM6K0C,train_x,blue_star,top_left,2024-12-06_16h01.16.516,HideSeek_v1,2022.2.5,59.907502808759205,
,3,5,8,5,5,0,11,,train_dim1_1,25,30,,,,2,0,2,0,,,,,,,,,0,0,0,0,0,24,24,24,2,0,2,0,,,,,,,,,,,,,,,,,,,,,,,,,,,,,,,,,,,,,,,,,,,,,,,,,,,,,,,,,,,,,,,,30,,,,,,,,1595.6113419998437,1595.6113419998437,1595.6113419998437,1595.6113419998437,1595.6113419998437,right,0.4267768000718206,12,0,0,99,0.32,0,right,0.34377189981751144,,,,,,,,,,,,,,,,,,,,,,,,,,,,,,,,,,,,,,,,,,,,,,,,,,,,,,,,,,,,MM6K0C,train_x,blue_star,top_left,2024-12-06_16h01.16.516,HideSeek_v1,2022.2.5,59.907502808759205,
,3,5,8,5,5,0,11,,train_dim1_1,25,30,,,,2,0,2,0,,,,,,,,,0,0,0,0,0,24,24,24,3,0,3,0,,,,,,,,,,,,,,,,,,,,,,,,,,,,,,,,,,,,,,,,,,,,,,,,,,,,,,,,,,,,,,,,30,,,,,,,,1596.0450126000214,1596.0450126000214,1596.0450126000214,1596.0450126000214,1596.0450126000214,right,0.2431256000418216,12,0,0,99,0.4,0,right,0.16585320001468062,,,,,,,,,,,,,,,,,,,,,,,,,,,,,,,,,,,,,,,,,,,,,,,,,,,,,,,,,,,,MM6K0C,train_x,blue_star,top_left,2024-12-06_16h01.16.516,HideSeek_v1,2022.2.5,59.907502808759205,
,3,5,8,5,5,0,11,,train_dim1_1,25,30,,,,2,0,2,0,,,,,,,,,0,0,0,0,0,24,24,24,4,0,4,0,,,,,,,,,,,,,,,,,,,,,,,,,,,,,,,,,,,,,,,,,,,,,,,,,,,,,,,,,,,,,,,,30,,,,,,,,1596.294935700018,1596.294935700018,1596.294935700018,1596.294935700018,1596.294935700018,right,1.3608192999381572,12,0,0,99,0.48000000000000004,0,right,1.2793635001871735,,,,,,,,,,,,,,,,,,,,,,,,,,,,,,,,,,,,,,,,,,,,,,,,,,,,,,,,,,,,MM6K0C,train_x,blue_star,top_left,2024-12-06_16h01.16.516,HideSeek_v1,2022.2.5,59.907502808759205,
,3,5,8,5,5,0,11,,train_dim1_1,25,30,,,,2,0,2,0,,,,,,,,,0,0,0,0,0,24,24,24,5,0,5,0,,,,,,,,,,,,,,,,,,,,,,,,,,,,,,,,,,,,,,,,,,,,,,,,,,,,,,,,,,,,,,,,30,,,,,,,,1597.6634340998717,1597.6634340998717,1597.6634340998717,1597.6634340998717,1597.6634340998717,right,0.17654170002788305,12,0,0,99,0.56,0,right,0.0863015002105385,,,,,,,,,,,,,,,,,,,,,,,,,,,,,,,,,,,,,,,,,,,,,,,,,,,,,,,,,,,,MM6K0C,train_x,blue_star,top_left,2024-12-06_16h01.16.516,HideSeek_v1,2022.2.5,59.907502808759205,
,3,5,8,5,5,0,11,,train_dim1_1,25,30,,,,2,0,2,0,,,,,,,,,0,0,0,0,0,24,24,24,6,0,6,0,,,,,,,,,,,,,,,,,,,,,,,,,,,,,,,,,,,,,,,,,,,,,,,,,,,,,,,,,,,,,,,,30,,,,,,,,1597.8466411000118,1597.8466411000118,1597.8466411000118,1597.8466411000118,1597.8466411000118,left,1.994727499783039,12,0,0,99,0.48000000000000004,0,left,1.9074504999443889,,,,,,,,,,,,,,,,,,,,,,,,,,,,,,,,,,,,,,,,,,,,,,,,,,,,,,,,,,,,MM6K0C,train_x,blue_star,top_left,2024-12-06_16h01.16.516,HideSeek_v1,2022.2.5,59.907502808759205,
,3,5,8,5,5,0,11,,train_dim1_1,25,30,,,,2,0,2,0,,,,,,,,,0,0,0,0,0,24,24,24,7,0,7,0,,,,,,,,,,,,,,,,,,,,,,,,,,,,,,,,,,,,,,,,,,,,,,,,,,,,,,,,,,,,,,,,30,,,,,,,,1599.847951499978,1599.847951499978,1599.847951499978,1599.847951499978,1599.847951499978,return,2.8285618000663817,13,0,0,1,0.48000000000000004,0,return,2.74551109992899,-7,55,0.48000000000000004,0,,,,,,,,,,,,,,,,,,,,,,,,,,,,,,,,,,,,,,,,,,,,,,,,,,,,,,,,MM6K0C,train_x,blue_star,top_left,2024-12-06_16h01.16.516,HideSeek_v1,2022.2.5,59.907502808759205,
,1,6,1,6,0,0,61,,train_dim1_1,26,30,,,,2,0,2,0,,,,,,,,,0,0,0,0,0,25,25,25,0,0,0,0,,,,,,,,,,,,,,,,,,,,,,,,,stimuli/alien_stimuli/61.png,,,,,,,,,,,,,,,,,,,,,,,,,,,,,stimuli/alien_stimuli/11.png,11,3,27,,,,,,,30,,,,,,,,1607.4407047999557,1607.4407047999557,1607.4407047999557,1607.4407047999557,1607.4407047999557,return,1.5639214999973774,14,0,0,1,-0.08,0.08,return,1.4546013998333365,-7,55,-0.08,0.08,1605.8526760998648,1607.4407047999557,0.48,0,0.0,0.4,0.0,0.48,0.27999999999999997,0.48,0,1604.2566879999358,1604.2566879999358,1604.2566879999358,1604.2566879999358,1604.2566879999358,1604.2566879999358,1604.2566879999358,1604.2566879999358,1604.2345363299596,1.7202584000770003,return,1.5781523999758065,,,,,,,,,,,,,,,,,,,,,,,,,,,,,,,,,MM6K0C,train_x,blue_star,top_left,2024-12-06_16h01.16.516,HideSeek_v1,2022.2.5,59.907502808759205,
,0,6,3,6,3,0,31,,train_dim1_1,27,30,,,,2,0,2,0,,,,,,,,,0,0,0,0,0,26,26,26,0,0,0,0,,,,,,,,,,,,,,,,,,,,,,,,,stimuli/alien_stimuli/31.png,,,,,,,,,,,,,,,,,,,,,,,,,,,,,stimuli/alien_stimuli/61.png,61,1,28,,,,,,,30,,,,,,,,1613.9172185000498,1613.9172185000498,1613.9172185000498,1613.9172185000498,1613.9172185000498,right,1.7893472001887858,14,0,0,99,-0.08,0.08,right,1.7049265999812633,,,,,1612.3580437998753,1613.9172185000498,-0.08,0.08,0.0,0.0,0.08,-0.08,-0.08,-0.08,0.08,1610.5408179999795,1610.5408179999795,1610.5408179999795,1610.5408179999795,1610.5408179999795,1610.5408179999795,1610.5408179999795,1610.5408179999795,1610.5232887401246,1.9201837999280542,return,1.8001121000852436,,,,,,,,,,,,,,,,,,,,,,,,,,,,,,,,,MM6K0C,train_x,blue_star,top_left,2024-12-06_16h01.16.516,HideSeek_v1,2022.2.5,59.907502808759205,
,0,6,3,6,3,0,31,,train_dim1_1,27,30,,,,2,0,2,0,,,,,,,,,0,0,0,0,0,26,26,26,1,0,1,0,,,,,,,,,,,,,,,,,,,,,,,,,,,,,,,,,,,,,,,,,,,,,,,,,,,,,,,,,,,,,,,,30,,,,,,,,1615.7072578999214,1615.7072578999214,1615.7072578999214,1615.7072578999214,1615.7072578999214,right,0.6434015999548137,14,0,0,99,0.0,0.08,right,0.568397399969399,,,,,,,,,,,,,,,,,,,,,,,,,,,,,,,,,,,,,,,,,,,,,,,,,,,,,,,,,,,,MM6K0C,train_x,blue_star,top_left,2024-12-06_16h01.16.516,HideSeek_v1,2022.2.5,59.907502808759205,
,0,6,3,6,3,0,31,,train_dim1_1,27,30,,,,2,0,2,0,,,,,,,,,0,0,0,0,0,26,26,26,2,0,2,0,,,,,,,,,,,,,,,,,,,,,,,,,,,,,,,,,,,,,,,,,,,,,,,,,,,,,,,,,,,,,,,,30,,,,,,,,1616.358845199924,1616.358845199924,1616.358845199924,1616.358845199924,1616.358845199924,right,0.6603415999561548,14,0,0,99,0.08,0.08,right,0.5780325999949127,,,,,,,,,,,,,,,,,,,,,,,,,,,,,,,,,,,,,,,,,,,,,,,,,,,,,,,,,,,,MM6K0C,train_x,blue_star,top_left,2024-12-06_16h01.16.516,HideSeek_v1,2022.2.5,59.907502808759205,
,0,6,3,6,3,0,31,,train_dim1_1,27,30,,,,2,0,2,0,,,,,,,,,0,0,0,0,0,26,26,26,3,0,3,0,,,,,,,,,,,,,,,,,,,,,,,,,,,,,,,,,,,,,,,,,,,,,,,,,,,,,,,,,,,,,,,,30,,,,,,,,1617.0264619998634,1617.0264619998634,1617.0264619998634,1617.0264619998634,1617.0264619998634,return,0.7930062001105398,15,0,0,1,0.08,0.08,return,0.7037849999032915,-7,58,0.08,0.08,,,,,,,,,,,,,,,,,,,,,,,,,,,,,,,,,,,,,,,,,,,,,,,,,,,,,,,,MM6K0C,train_x,blue_star,top_left,2024-12-06_16h01.16.516,HideSeek_v1,2022.2.5,59.907502808759205,
,3,6,7,6,4,0,21,,train_dim1_1,28,30,,,,2,0,2,0,,,,,,,,,0,0,0,0,0,27,27,27,0,0,0,0,,,,,,,,,,,,,,,,,,,,,,,,,stimuli/alien_stimuli/21.png,,,,,,,,,,,,,,,,,,,,,,,,,,,,,stimuli/alien_stimuli/31.png,31,0,29,,,,,,,30,,,,,,,,1622.29627349996,1622.29627349996,1622.29627349996,1622.29627349996,1622.29627349996,right,1.872243600198999,15,0,0,99,0.16,0.08,right,1.76998299988918,,,,,1620.715194700053,1622.29627349996,0.08,0.08,0.0,0.24,0.08,0.08,-0.04,0.08,0.08,1619.3789106998593,1619.3789106998593,1619.3789106998593,1619.3789106998593,1619.3789106998593,1619.3789106998593,1619.3789106998593,1619.3789106998593,1619.363711040048,1.4372503999620676,return,1.304869499988854,,,,,,,,,,,,,,,,,,,,,,,,,,,,,,,,,MM6K0C,train_x,blue_star,top_left,2024-12-06_16h01.16.516,HideSeek_v1,2022.2.5,59.907502808759205,
,3,6,7,6,4,0,21,,train_dim1_1,28,30,,,,2,0,2,0,,,,,,,,,0,0,0,0,0,27,27,27,1,0,1,0,,,,,,,,,,,,,,,,,,,,,,,,,,,,,,,,,,,,,,,,,,,,,,,,,,,,,,,,,,,,,,,,30,,,,,,,,1624.1525475999806,1624.1525475999806,1624.1525475999806,1624.1525475999806,1624.1525475999806,right,0.47630440001375973,15,0,0,99,0.24,0.08,right,0.3868219999130815,,,,,,,,,,,,,,,,,,,,,,,,,,,,,,,,,,,,,,,,,,,,,,,,,,,,,,,,,,,,MM6K0C,train_x,blue_star,top_left,2024-12-06_16h01.16.516,HideSeek_v1,2022.2.5,59.907502808759205,
,3,6,7,6,4,0,21,,train_dim1_1,28,30,,,,2,0,2,0,,,,,,,,,0,0,0,0,0,27,27,27,2,0,2,0,,,,,,,,,,,,,,,,,,,,,,,,,,,,,,,,,,,,,,,,,,,,,,,,,,,,,,,,,,,,,,,,30,,,,,,,,1624.6351358999964,1624.6351358999964,1624.6351358999964,1624.6351358999964,1624.6351358999964,right,0.5101419000420719,15,0,0,99,0.32,0.08,right,0.4181552999652922,,,,,,,,,,,,,,,,,,,,,,,,,,,,,,,,,,,,,,,,,,,,,,,,,,,,,,,,,,,,MM6K0C,train_x,blue_star,top_left,2024-12-06_16h01.16.516,HideSeek_v1,2022.2.5,59.907502808759205,
,3,6,7,6,4,0,21,,train_dim1_1,28,30,,,,2,0,2,0,,,,,,,,,0,0,0,0,0,27,27,27,3,0,3,0,,,,,,,,,,,,,,,,,,,,,,,,,,,,,,,,,,,,,,,,,,,,,,,,,,,,,,,,,,,,,,,,30,,,,,,,,1625.1530402998906,1625.1530402998906,1625.1530402998906,1625.1530402998906,1625.1530402998906,right,1.5277241999283433,15,0,0,99,0.4,0.08,right,1.4361634000670165,,,,,,,,,,,,,,,,,,,,,,,,,,,,,,,,,,,,,,,,,,,,,,,,,,,,,,,,,,,,MM6K0C,train_x,blue_star,top_left,2024-12-06_16h01.16.516,HideSeek_v1,2022.2.5,59.907502808759205,
,3,6,7,6,4,0,21,,train_dim1_1,28,30,,,,2,0,2,0,,,,,,,,,0,0,0,0,0,27,27,27,4,0,4,0,,,,,,,,,,,,,,,,,,,,,,,,,,,,,,,,,,,,,,,,,,,,,,,,,,,,,,,,,,,,,,,,30,,,,,,,,1626.6871807000134,1626.6871807000134,1626.6871807000134,1626.6871807000134,1626.6871807000134,return,1.1773335000034422,16,0,0,1,0.4,0.08,return,1.087574499892071,-7,62,0.4,0.08,,,,,,,,,,,,,,,,,,,,,,,,,,,,,,,,,,,,,,,,,,,,,,,,,,,,,,,,MM6K0C,train_x,blue_star,top_left,2024-12-06_16h01.16.516,HideSeek_v1,2022.2.5,59.907502808759205,
,4,5,5,5,1,0,51,,train_dim1_1,29,30,,,,2,0,2,0,,,,,,,,,0,0,0,0,0,28,28,28,0,0,0,0,,,,,,,,,,,,,,,,,,,,,,,,,stimuli/alien_stimuli/51.png,,,,,,,,,,,,,,,,,,,,,,,,,,,,,stimuli/alien_stimuli/21.png,21,3,30,,,,,,,30,,,,,,,,1632.2108428999782,1632.2108428999782,1632.2108428999782,1632.2108428999782,1632.2108428999782,right,1.6568171000108123,16,0,0,99,0.24,0,right,1.5647672000341117,,,,,1630.6400426998734,1632.2108428999782,0.4,0.08,0.0,0.32,0.08,0.4,0.24000000000000002,0.4,0.08,1629.4293039999902,1629.4293039999902,1629.4293039999902,1629.4293039999902,1629.4293039999902,1629.4293039999902,1629.4293039999902,1629.4293039999902,1629.4221820300213,1.3199511000420898,return,1.1893837999086827,,,,,,,,,,,,,,,,,,,,,,,,,,,,,,,,,MM6K0C,train_x,blue_star,top_left,2024-12-06_16h01.16.516,HideSeek_v1,2022.2.5,59.907502808759205,
,4,5,5,5,1,0,51,,train_dim1_1,29,30,,,,2,0,2,0,,,,,,,,,0,0,0,0,0,28,28,28,1,0,1,0,,,,,,,,,,,,,,,,,,,,,,,,,,,,,,,,,,,,,,,,,,,,,,,,,,,,,,,,,,,,,,,,30,,,,,,,,1633.858970399946,1633.858970399946,1633.858970399946,1633.858970399946,1633.858970399946,return,0.8096681998576969,17,0,0,1,0.24,0,return,0.7349882000125945,-7,63,0.24,0,,,,,,,,,,,,,,,,,,,,,,,,,,,,,,,,,,,,,,,,,,,,,,,,,,,,,,,,MM6K0C,train_x,blue_star,top_left,2024-12-06_16h01.16.516,HideSeek_v1,2022.2.5,59.907502808759205,
,2,7,7,7,5,0,11,,train_dim1_1,30,30,,,,2,0,2,0,,,,,,,,,0,0,0,0,0,29,29,29,0,0,0,0,,,,,,,,,,,,,,,,,,,,,,,,,stimuli/alien_stimuli/11.png,,,,,,,,,,,,,,,,,,,,,,,,,,,,,stimuli/alien_stimuli/51.png,51,4,31,,,,,,,30,,,,,,,,1640.310235899873,1640.310235899873,1640.310235899873,1640.310235899873,1640.310235899873,right,1.8395616998896003,17,0,0,99,0.08,0.16,right,1.7407382999081165,,,,,1638.7466589000542,1640.310235899873,0.24,0,0.0,0.08,0.0,0.24,0.2,0.24,0,1636.2351534999907,1636.2351534999907,1636.2351534999907,1636.2351534999907,1636.2351534999907,1636.2351534999907,1636.2351534999907,1636.2351534999907,1636.2275845301106,2.6214368001092225,return,2.4811561999376863,,,,,,,,,,,,,,,,,,,,,,,,,,,,,,,,,MM6K0C,train_x,blue_star,top_left,2024-12-06_16h01.16.516,HideSeek_v1,2022.2.5,59.907502808759205,
,2,7,7,7,5,0,11,,train_dim1_1,30,30,,,,2,0,2,0,,,,,,,,,0,0,0,0,0,29,29,29,1,0,1,0,,,,,,,,,,,,,,,,,,,,,,,,,,,,,,,,,,,,,,,,,,,,,,,,,,,,,,,,,,,,,,,,30,,,,,,,,1642.1498761000112,1642.1498761000112,1642.1498761000112,1642.1498761000112,1642.1498761000112,right,0.44315869989804924,17,0,0,99,0.16,0.16,right,0.3621133000124246,,,,,,,,,,,,,,,,,,,,,,,,,,,,,,,,,,,,,,,,,,,,,,,,,,,,,,,,,,,,MM6K0C,train_x,blue_star,top_left,2024-12-06_16h01.16.516,HideSeek_v1,2022.2.5,59.907502808759205,
,2,7,7,7,5,0,11,,train_dim1_1,30,30,,,,2,0,2,0,,,,,,,,,0,0,0,0,0,29,29,29,2,0,2,0,,,,,,,,,,,,,,,,,,,,,,,,,,,,,,,,,,,,,,,,,,,,,,,,,,,,,,,,,,,,,,,,30,,,,,,,,1642.599286200013,1642.599286200013,1642.599286200013,1642.599286200013,1642.599286200013,right,0.4266099000815302,17,0,0,99,0.24,0.16,right,0.34971809992566705,,,,,,,,,,,,,,,,,,,,,,,,,,,,,,,,,,,,,,,,,,,,,,,,,,,,,,,,,,,,MM6K0C,train_x,blue_star,top_left,2024-12-06_16h01.16.516,HideSeek_v1,2022.2.5,59.907502808759205,
,2,7,7,7,5,0,11,,train_dim1_1,30,30,,,,2,0,2,0,,,,,,,,,0,0,0,0,0,29,29,29,3,0,3,0,,,,,,,,,,,,,,,,,,,,,,,,,,,,,,,,,,,,,,,,,,,,,,,,,,,,,,,,,,,,,,,,30,,,,,,,,1643.0331749999896,1643.0331749999896,1643.0331749999896,1643.0331749999896,1643.0331749999896,right,0.660399500047788,17,0,0,99,0.32,0.16,right,0.5787603000644594,,,,,,,,,,,,,,,,,,,,,,,,,,,,,,,,,,,,,,,,,,,,,,,,,,,,,,,,,,,,MM6K0C,train_x,blue_star,top_left,2024-12-06_16h01.16.516,HideSeek_v1,2022.2.5,59.907502808759205,
,2,7,7,7,5,0,11,,train_dim1_1,30,30,,,,2,0,2,0,,,,,,,,,0,0,0,0,0,29,29,29,4,0,4,0,,,,,,,,,,,,,,,,,,,,,,,,,,,,,,,,,,,,,,,,,,,,,,,,,,,,,,,,,,,,,,,,30,,,,,,,,1643.7004152999725,1643.7004152999725,1643.7004152999725,1643.7004152999725,1643.7004152999725,right,0.8436708999797702,17,0,0,99,0.4,0.16,right,0.7529917999636382,,,,,,,,,,,,,,,,,,,,,,,,,,,,,,,,,,,,,,,,,,,,,,,,,,,,,,,,,,,,MM6K0C,train_x,blue_star,top_left,2024-12-06_16h01.16.516,HideSeek_v1,2022.2.5,59.907502808759205,
,2,7,7,7,5,0,11,,train_dim1_1,30,30,,,,2,0,2,0,,,,,,,,,0,0,0,0,0,29,29,29,5,0,5,0,,,,,,,,,,,,,,,,,,,,,,,,,,,,,,,,,,,,,,,,,,,,,,,,,,,,,,,,,,,,,,,,30,,,,,,,,1644.5509253998753,1644.5509253998753,1644.5509253998753,1644.5509253998753,1644.5509253998753,return,1.1779996000695974,18,0,0,1,0.4,0.16,return,1.0888092000968754,-7,68,0.4,0.16,,,,,,,,,,,,,,,,,,,,,,,,,,,,,,,,,,,,,,,,,,,,,,,,,,,,,,,,MM6K0C,train_x,blue_star,top_left,2024-12-06_16h01.16.516,HideSeek_v1,2022.2.5,59.907502808759205,
,,,,,,,,,,,30,,,,2,0,2,0,,,,,,,,,,,,,,,,,,,,,,,,,,,,,,,,,,,,,,,,,,,,,,,,,,,,,,,,,,,,,,,,,,,,,,,,,,stimuli/alien_stimuli/11.png,11,2,32,21,0.7,0.75,1,1,1,30,0,conditions/schedules/train_x_first/blue_star_00/top_left/inputTrain_2.1.xlsx,99,1,2,1,0,,,,,,,,,,,1,,,,,,,,,1648.621525199851,1650.1759372998495,0.4,0.16,0.0,0.4,0.16,0.4,0.2,0.4,0.16,1647.2930473000742,1647.2930473000742,1647.2930473000742,1647.2930473000742,1647.2930473000742,1647.2930473000742,1647.2930473000742,1647.2930473000742,1647.286970230029,1.4365799999795854,return,1.3011626999359578,0,0.9,0,1,18,,,,,,,,,,,,,,,,,,,,,,,,,,,,MM6K0C,train_x,blue_star,top_left,2024-12-06_16h01.16.516,HideSeek_v1,2022.2.5,59.907502808759205,
,,,,,,,,,,,,,,,3,0,3,0,0,0,0,0,,,,,,,,,,,,,,,,,,,,,,,,,,,,,,,conditions/schedules/train_x_first/blue_star_00/top_left/instructions/Slide17.png,conditions/schedules/train_x_first/blue_star_00/top_left/instructions/Audio17.wav,1650.1759372998495,1650.1727132601197,18,"[8.857361699920148, 18.366788299987093, 18.99055329989642, 19.971687800018117, 5.002474999986589, 4.702392400009558, 5.5199150000698864, 12.073628399986774, 6.624841999961063, 7.418950399849564, 10.355047600110993, 12.311532899970189, 12.873951400164515, 18.30578019982204, 15.545377800008282, 31.636790100019425, 21.73448080010712, 53.038862499874085]","[8.857369099976495, 18.366795200156048, 0.03489780006930232, 0.00022580008953809738, 0.014503500191494823, 0.04921519989147782, 0.06372309988364577, 0.052883500000461936, 0.1131394999101758, 0.04761450015939772, 0.04527650005184114, 0.030591400107368827, 12.87395830010064, 0.049091799883171916, 15.545384800061584, 0.032741300063207746, 21.734487999929115, 53.038870499935]",1,[7.31812629988417],[0.014111800119280815],,,,,,,,,,,,,,,,,,,,,,,,,,,,,,,,,,,,,,,,,,,,,,,,,,,,,,,,,,,,,,,,,,,,,,,,,,,,,,,,,,,,,,,,,,,,,,,,,,,,,,,,,,,,,,,,,,,,,,,,,,MM6K0C,train_x,blue_star,top_left,2024-12-06_16h01.16.516,HideSeek_v1,2022.2.5,59.907502808759205,
,,,,,,,,,,,,,,,3,0,3,0,1,0,1,0,,,,,,,,,,,,,,,,,,,,,,,,,,,,,,,conditions/schedules/train_x_first/blue_star_00/top_left/instructions/Slide18.png,conditions/schedules/train_x_first/blue_star_00/top_left/instructions/Audio18.wav,1703.2866805999074,1703.2836601500167,19,"[8.857361699920148, 18.366788299987093, 18.99055329989642, 19.971687800018117, 5.002474999986589, 4.702392400009558, 5.5199150000698864, 12.073628399986774, 6.624841999961063, 7.418950399849564, 10.355047600110993, 12.311532899970189, 12.873951400164515, 18.30578019982204, 15.545377800008282, 31.636790100019425, 21.73448080010712, 53.038862499874085, 6.750249000033364]","[8.857369099976495, 18.366795200156048, 0.03489780006930232, 0.00022580008953809738, 0.014503500191494823, 0.04921519989147782, 0.06372309988364577, 0.052883500000461936, 0.1131394999101758, 0.04761450015939772, 0.04527650005184114, 0.030591400107368827, 12.87395830010064, 0.049091799883171916, 15.545384800061584, 0.032741300063207746, 21.734487999929115, 0.01412419998086989, 6.7502592001110315]",1,[7.31812629988417],[0.014111800119280815],,,,,,,,,,,,,,,,,,,,,,,,,,,,,,,,,,,,,,,,,,,,,,,,,,,,,,,,,,,,,,,,,,,,,,,,,,,,,,,,,,,,,,,,,,,,,,,,,,,,,,,,,,,,,,,,,,,,,,,,,,MM6K0C,train_x,blue_star,top_left,2024-12-06_16h01.16.516,HideSeek_v1,2022.2.5,59.907502808759205,
,,,,,,,,,,,,,,,3,0,3,0,2,0,2,0,,,,,,,,,,,,,,,,,,,,,,,,,,,,,,,conditions/schedules/train_x_first/blue_star_00/top_left/instructions/Slide19.png,conditions/schedules/train_x_first/blue_star_00/top_left/instructions/Audio19.wav,1710.0747962000314,1710.072761969897,20,"[8.857361699920148, 18.366788299987093, 18.99055329989642, 19.971687800018117, 5.002474999986589, 4.702392400009558, 5.5199150000698864, 12.073628399986774, 6.624841999961063, 7.418950399849564, 10.355047600110993, 12.311532899970189, 12.873951400164515, 18.30578019982204, 15.545377800008282, 31.636790100019425, 21.73448080010712, 53.038862499874085, 6.750249000033364, 10.85481319995597]","[8.857369099976495, 18.366795200156048, 0.03489780006930232, 0.00022580008953809738, 0.014503500191494823, 0.04921519989147782, 0.06372309988364577, 0.052883500000461936, 0.1131394999101758, 0.04761450015939772, 0.04527650005184114, 0.030591400107368827, 12.87395830010064, 0.049091799883171916, 15.545384800061584, 0.032741300063207746, 21.734487999929115, 0.01412419998086989, 0.00021009985357522964, 10.854820099892095]",1,[7.31812629988417],[0.014111800119280815],,,,,,,,,,,,,,,,,,,,,,,,,,,,,,,,,,,,,,,,,,,,,,,,,,,,,,,,,,,,,,,,,,,,,,,,,,,,,,,,,,,,,,,,,,,,,,,,,,,,,,,,,,,,,,,,,,,,,,,,,,MM6K0C,train_x,blue_star,top_left,2024-12-06_16h01.16.516,HideSeek_v1,2022.2.5,59.907502808759205,
,,,,,,,,,,,,,,,3,0,3,0,3,0,3,0,,,,,,,,,,,,,,,,,,,,,,,,,,,,,,,conditions/schedules/train_x_first/blue_star_00/top_left/instructions/Slide20.png,conditions/schedules/train_x_first/blue_star_00/top_left/instructions/Audio20.wav,1720.9992887999397,1720.998333549942,21,"[8.857361699920148, 18.366788299987093, 18.99055329989642, 19.971687800018117, 5.002474999986589, 4.702392400009558, 5.5199150000698864, 12.073628399986774, 6.624841999961063, 7.418950399849564, 10.355047600110993, 12.311532899970189, 12.873951400164515, 18.30578019982204, 15.545377800008282, 31.636790100019425, 21.73448080010712, 53.038862499874085, 6.750249000033364, 10.85481319995597, 14.025215799920261]","[8.857369099976495, 18.366795200156048, 0.03489780006930232, 0.00022580008953809738, 0.014503500191494823, 0.04921519989147782, 0.06372309988364577, 0.052883500000461936, 0.1131394999101758, 0.04761450015939772, 0.04527650005184114, 0.030591400107368827, 12.87395830010064, 0.049091799883171916, 15.545384800061584, 0.032741300063207746, 21.734487999929115, 0.01412419998086989, 0.00021009985357522964, 0.014073000056669116, 14.025223199976608]",1,[7.31812629988417],[0.014111800119280815],,,,,,,,,,,,,,,,,,,,,,,,,,,,,,,,,,,,,,,,,,,,,,,,,,,,,,,,,,,,,,,,,,,,,,,,,,,,,,,,,,,,,,,,,,,,,,,,,,,,,,,,,,,,,,,,,,,,,,,,,,MM6K0C,train_x,blue_star,top_left,2024-12-06_16h01.16.516,HideSeek_v1,2022.2.5,59.907502808759205,
1,0,8,0,3,0,-5,66,2,instr_dim1_2,,,,,,3,0,3,0,,,,,0,0,0,0,,,,,,,,,,,,,,,,,,,,,,,,,,,,,,,,,,,,,stimuli/alien_stimuli/66.png,conditions/schedules/train_x_first/blue_star_00/top_left/inputInstr_2.xlsx,stimuli/alien_stimuli/66.png,1735.1220922998618,1735.1220922998618,1735.1220922998618,1735.1220922998618,1735.126810729946,return,5.538818799890578,"[-0.16, -0.08, 0, 0.08, 0.16, 0.24, 0.32, 0.4, 0.48, 0.56]","[-0.4, -0.32, -0.24, -0.16, -0.08, 0, 0.08, 0.16, 0.24, 0.32]",3,8,0,0,0.4,0.0,1740.8019222998992,1740.8019222998992,1740.8019222998992,1740.8019222998992,1740.8019222998992,1740.8019222998992,1740.8019222998992,1740.7980564200786,7.7740042000077665,return,7.631841299822554,stimuli/alien_stimuli/66.png,66,0,1,,,,,,,,,,,,,,,,,,,,,,,,,,,,,,,,,,,,,,,,,,,,,,,,,,,,,,,,,,,,,,,,,,,,,,,,,,,,,,,,,,,,,,,,,MM6K0C,train_x,blue_star,top_left,2024-12-06_16h01.16.516,HideSeek_v1,2022.2.5,59.907502808759205,
,,,,,,,,,,,30,,,,3,0,3,0,,,,,,,,,,,,,,,,,,,,,,,,,,,,,,,,,,,,,,,,,,,,,,,,,,,,,,,,,,,,,,,,,,,,,,,,,,,,,,21,0.7,0.75,1,99,2,30,0,conditions/schedules/train_x_first/blue_star_00/top_left/inputTrain_2.1.xlsx,99,1,2,1,0,,,,,,,,,,,,,,,,,,,,,,,,,,,,,,,,,,,,,,,,,,,,,,,,,,,,,,,,,,,,,,,,,,,,,,,,,,,MM6K0C,train_x,blue_star,top_left,2024-12-06_16h01.16.516,HideSeek_v1,2022.2.5,59.907502808759205,
,,,,,,,,,,,,,,,4,0,4,0,0,0,0,0,,,,,,,,,,,,,,,,,,,,,,,,,,,,,,,conditions/schedules/train_x_first/blue_star_00/top_left/instructions/Slide21.png,conditions/schedules/train_x_first/blue_star_00/top_left/instructions/Audio21.wav,1748.5992719000205,1748.5879019101383,22,"[8.857361699920148, 18.366788299987093, 18.99055329989642, 19.971687800018117, 5.002474999986589, 4.702392400009558, 5.5199150000698864, 12.073628399986774, 6.624841999961063, 7.418950399849564, 10.355047600110993, 12.311532899970189, 12.873951400164515, 18.30578019982204, 15.545377800008282, 31.636790100019425, 21.73448080010712, 53.038862499874085, 6.750249000033364, 10.85481319995597, 14.025215799920261, 17.134360800031573]","[8.857369099976495, 18.366795200156048, 0.03489780006930232, 0.00022580008953809738, 0.014503500191494823, 0.04921519989147782, 0.06372309988364577, 0.052883500000461936, 0.1131394999101758, 0.04761450015939772, 0.04527650005184114, 0.030591400107368827, 12.87395830010064, 0.049091799883171916, 15.545384800061584, 0.032741300063207746, 21.734487999929115, 0.01412419998086989, 0.00021009985357522964, 0.014073000056669116, 14.025223199976608, 17.134369099978358]",1,[7.31812629988417],[0.014111800119280815],,,,,,,,,,,,,,,,,,,,,,,,,,,,,,,,,,,,,,,,,,,,,,,,,,,,,,,,,,,,,,,,,,,,,,,,,,,,,,,,,,,,,,,,,,,,,,,,,,,,,,,,,,,,,,,,,,,,,,,,,,MM6K0C,train_x,blue_star,top_left,2024-12-06_16h01.16.516,HideSeek_v1,2022.2.5,59.907502808759205,
2,2,8,2,8,0,0,61,2,instr_dim1_2,,,,,,4,0,4,0,,,,,0,0,0,0,,,,,,,,,,,,,,,,,,,,,,,,,,,,,,,,,,,,,stimuli/alien_stimuli/61.png,conditions/schedules/train_x_first/blue_star_00/top_left/inputInstr_2.xlsx,stimuli/alien_stimuli/61.png,1765.8321288998704,1765.8321288998704,1765.8321288998704,1765.8321288998704,1765.835704730102,return,14.517033000010997,"[-0.16, -0.08, 0, 0.08, 0.16, 0.24, 0.32, 0.4, 0.48, 0.56]","[-0.4, -0.32, -0.24, -0.16, -0.08, 0, 0.08, 0.16, 0.24, 0.32]",8,8,2,2,0.0,0.0,1780.50987729989,1780.50987729989,1780.50987729989,1780.50987729989,1780.50987729989,1780.50987729989,1780.50987729989,1780.4978273200338,6.373093500034884,return,6.225796499988064,stimuli/alien_stimuli/61.png,61,2,2,,,,,,,,,,,,,,,,,,,,,,,,,,,,,,,,,,,,,,,,,,,,,,,,,,,,,,,,,,,,,,,,,,,,,,,,,,,,,,,,,,,,,,,,,MM6K0C,train_x,blue_star,top_left,2024-12-06_16h01.16.516,HideSeek_v1,2022.2.5,59.907502808759205,
,,,,,,,,,,,30,,,,4,0,4,0,,,,,,,,,,,,,,,,,,,,,,,,,,,,,,,,,,,,,,,,,,,,,,,,,,,,,,,,,,,,,,,,,,,,,,,,,,,,,,21,0.7,0.75,1,99,2,30,0,conditions/schedules/train_x_first/blue_star_00/top_left/inputTrain_2.1.xlsx,99,1,2,1,0,,,,,,,,,,,,,,,,,,,,,,,,,,,,,,,,,,,,,,,,,,,,,,,,,,,,,,,,,,,,,,,,,,,,,,,,,,,MM6K0C,train_x,blue_star,top_left,2024-12-06_16h01.16.516,HideSeek_v1,2022.2.5,59.907502808759205,
,,,,,,,,,,,,,,,5,0,5,0,0,0,0,0,,,,,,,,,,,,,,,,,,,,,,,,,,,,,,,conditions/schedules/train_x_first/blue_star_00/top_left/instructions/Slide22.png,conditions/schedules/train_x_first/blue_star_00/top_left/instructions/Audio22.wav,1786.910238099983,1786.9029540000483,23,"[8.857361699920148, 18.366788299987093, 18.99055329989642, 19.971687800018117, 5.002474999986589, 4.702392400009558, 5.5199150000698864, 12.073628399986774, 6.624841999961063, 7.418950399849564, 10.355047600110993, 12.311532899970189, 12.873951400164515, 18.30578019982204, 15.545377800008282, 31.636790100019425, 21.73448080010712, 53.038862499874085, 6.750249000033364, 10.85481319995597, 14.025215799920261, 17.134360800031573, 44.09340230002999]","[8.857369099976495, 18.366795200156048, 0.03489780006930232, 0.00022580008953809738, 0.014503500191494823, 0.04921519989147782, 0.06372309988364577, 0.052883500000461936, 0.1131394999101758, 0.04761450015939772, 0.04527650005184114, 0.030591400107368827, 12.87395830010064, 0.049091799883171916, 15.545384800061584, 0.032741300063207746, 21.734487999929115, 0.01412419998086989, 0.00021009985357522964, 0.014073000056669116, 14.025223199976608, 17.134369099978358, 44.09340910008177]",1,[7.31812629988417],[0.014111800119280815],,,,,,,,,,,,,,,,,,,,,,,,,,,,,,,,,,,,,,,,,,,,,,,,,,,,,,,,,,,,,,,,,,,,,,,,,,,,,,,,,,,,,,,,,,,,,,,,,,,,,,,,,,,,,,,,,,,,,,,,,,MM6K0C,train_x,blue_star,top_left,2024-12-06_16h01.16.516,HideSeek_v1,2022.2.5,59.907502808759205,
,0,5,0,1,0,-4,65,,train_dim1_2,1,30,,,,5,0,5,0,,,,,,,,,0,0,0,0,0,0,0,0,0,0,0,0,,,,,,,,,,,,,,,,,,,,,,,,,stimuli/alien_stimuli/65.png,,,,,,,,,,,,,,,,,,,,,,,,,,,,,,,,,,,,,,,30,,,,,,,,1831.1078677999321,1831.1078677999321,1831.1078677999321,1831.1078677999321,1831.1078677999321,return,7.216336699901149,0,0,0,0,-0.16,0,return,7.111280099954456,-7,68,-0.16,0,,,,,,,,,,,,,,,,,,,,,,,,,,,,,,,,,,,,,,,,,,,,,,,,,,,,,,,,MM6K0C,train_x,blue_star,top_left,2024-12-06_16h01.16.516,HideSeek_v1,2022.2.5,59.907502808759205,
,3,7,3,2,0,-5,66,,train_dim1_2,2,30,,,,5,0,5,0,,,,,,,,,0,0,0,0,0,1,1,1,0,0,0,0,,,,,,,,,,,,,,,,,,,,,,,,,stimuli/alien_stimuli/66.png,,,,,,,,,,,,,,,,,,,,,,,,,,,,,stimuli/alien_stimuli/65.png,65,0,3,,,,,,,30,,,,,,,,1847.4720900999382,1847.4720900999382,1847.4720900999382,1847.4720900999382,1847.4720900999382,down,11.463934800121933,0,0,0,99,0.08,0.08,down,11.383992099901661,,,,,1845.919391500065,1847.4720900999382,-0.16,-0.32,0.32,0.0,-0.16,-0.16,-0.16,-0.16,-0.32,1839.881625100039,1839.881625100039,1839.881625100039,1839.881625100039,1839.881625100039,1839.881625100039,1839.881625100039,1839.881625100039,1839.8636065299856,6.1575339999981225,return,6.015705399913713,,,,,,,,,,,,,,,,,,,,,,,,,,,,,,,,,MM6K0C,train_x,blue_star,top_left,2024-12-06_16h01.16.516,HideSeek_v1,2022.2.5,59.907502808759205,
