trialInstr,x_fixStart,y_fixStart,x_corrSteps,y_corrSteps,x_nrSteps,y_nrSteps,alienID,trialLength,version,trialTrain,praclen,testlen,trial_label,break_on_off,beforeExpLoop.thisRepN,beforeExpLoop.thisTrialN,beforeExpLoop.thisN,beforeExpLoop.thisIndex,mini_instr_trials.thisRepN,mini_instr_trials.thisTrialN,mini_instr_trials.thisN,mini_instr_trials.thisIndex,instrLoop.thisRepN,instrLoop.thisTrialN,instrLoop.thisN,instrLoop.thisIndex,repeat_prac.thisRepN,repeat_prac.thisTrialN,repeat_prac.thisN,repeat_prac.thisIndex,trainLoop.thisRepN,trainLoop.thisTrialN,trainLoop.thisN,trainLoop.thisIndex,moveLoop_train.thisRepN,moveLoop_train.thisTrialN,moveLoop_train.thisN,moveLoop_train.thisIndex,experiment.thisRepN,experiment.thisTrialN,experiment.thisN,experiment.thisIndex,moveLoop_test.thisRepN,moveLoop_test.thisTrialN,moveLoop_test.thisN,moveLoop_test.thisIndex,mini_instr2_trials.thisRepN,mini_instr2_trials.thisTrialN,mini_instr2_trials.thisN,mini_instr2_trials.thisIndex,start_all_time,url,slideStim,audioStim,slides.started,sounds.started,nextButton.numClicks,nextButton.timesOn,nextButton.timesOff,prev_but.numClicks,prev_but.timesOn,prev_but.timesOff,alienStim,instrFile,alienStim_instr,gridImage_instr.started,startPos_3.started,key_instr.started,alienImage_3.started,sounds_1.started,key_instr.keys,key_instr.rt,all_x,all_y,FBy_corrSteps,FBy_fixStart,FBx_corrSteps,FBx_fixStart,FBy_pathSize_check,FBx_pathSize_check,gridImage_9.started,alienImageFB_3.started,startPosFB_3.started,keyFB_3.started,pathLine_ydir_2.started,pathLine_xdir_2.started,alienFace_3.started,sounds_2.started,RTFB_instr,keyFB_3.keys,keyFB_3.rt,draw_alienStim,draw_alienID,test_x,nrepcount,perfthres,percthres,earlierperf,earlystop,nextPrac,fileidx,praclen,saveACC_train,pracFile,nextPrac_train,addNrep,fileidx_endr,repExp,showearly,gridImage_4.started,startPos.started,movePos.started,key_resp.started,alienImage.started,buttonPress_train,RTchoice_train,cumAcctrain,aCorr,saveACC_choice,corrAns,x_movePos_end,y_movePos_end,key_resp.keys,key_resp.rt,wLy_dir,wLx_dir,x_movePos,y_movePos,text_2.started,text_2.stopped,aft_x_corrPos,aft_y_corrPos,y_pathSize_check,x_pathSize_check,y_pathdirY,x_pathdirY,x_pathdirX,x_corrPos,y_corrPos,gridImage_6.started,alienImageFB_2.started,startPosFB_2.started,movePosFB_2.started,keyFB_2.started,pathLine_xdir.started,pathLine_ydir.started,alienFace.started,sounds_4.started,RT_FBtrain,keyFB_2.keys,keyFB_2.rt,saveACC_pre,ACC,within_saveACC_train,earlystop_wloop,cumAcctrain_check,gridImage_3.started,alienImage_test.started,startPos_test.started,movePos_test.started,key_resp_test.started,wLy_dir_test,wLx_dir_test,buttonPress_test,RTchoice_test,cumAcctest,corrAns_test,key_resp_test.keys,key_resp_test.rt,text_3.started,text_3.stopped,total_time,end_all_time,key_resp_3.keys,slides_2.started,sounds_3.started,nextButton_2.numClicks,nextButton_2.timesOn,nextButton_2.timesOff,prev_but_2.numClicks,prev_but_2.timesOn,prev_but_2.timesOff,bye.started,participant,train_first,00_coordinate,starting corner,date,expName,psychopyVersion,frameRate,
,,,,,,,,,,,,,,,0,0,0,0,0,0,0,0,,,,,,,,,,,,,,,,,,,,,,,,,,,,,start_all_time,testround,conditions/schedules/train_y_first/red_square_00/bottom_left/instructions/Slide1.png,conditions/schedules/train_y_first/red_square_00/bottom_left/instructions/Audio1.wav,1200.5936703998595,1200.5413316993508,1,[5.68156830011867],[5.681582600111142],0,,,,,,,,,,,,,,,,,,,,,,,,,,,,,,,,,,,,,,,,,,,,,,,,,,,,,,,,,,,,,,,,,,,,,,,,,,,,,,,,,,,,,,,,,,,,,,,,,,,,,,,,,,,,,,,,,,,,,,,,,,,,NE67GV,train_y,red_square,bottom_left,2025-02-13_15h38.15.348,HideSeek_v1,2022.2.5,59.96828872293273,
,,,,,,,,,,,,,,,0,0,0,0,1,0,1,0,,,,,,,,,,,,,,,,,,,,,,,,,,,,,,,conditions/schedules/train_y_first/red_square_00/bottom_left/instructions/Slide2.png,conditions/schedules/train_y_first/red_square_00/bottom_left/instructions/Audio2.wav,1206.2918930999003,1206.2923884999473,2,"[5.68156830011867, 18.896219599992037]","[0.00035009998828172684, 18.896226400043815]",0,,,,,,,,,,,,,,,,,,,,,,,,,,,,,,,,,,,,,,,,,,,,,,,,,,,,,,,,,,,,,,,,,,,,,,,,,,,,,,,,,,,,,,,,,,,,,,,,,,,,,,,,,,,,,,,,,,,,,,,,,,,,NE67GV,train_y,red_square,bottom_left,2025-02-13_15h38.15.348,HideSeek_v1,2022.2.5,59.96828872293273,
,,,,,,,,,,,,,,,0,0,0,0,2,0,2,0,,,,,,,,,,,,,,,,,,,,,,,,,,,,,,,conditions/schedules/train_y_first/red_square_00/bottom_left/instructions/Slide3.png,conditions/schedules/train_y_first/red_square_00/bottom_left/instructions/Audio3.wav,1225.271165800048,1225.273085319996,3,"[5.68156830011867, 18.896219599992037, 17.26341410004534]","[0.00035009998828172684, 18.896226400043815, 17.263420599978417]",0,,,,,,,,,,,,,,,,,,,,,,,,,,,,,,,,,,,,,,,,,,,,,,,,,,,,,,,,,,,,,,,,,,,,,,,,,,,,,,,,,,,,,,,,,,,,,,,,,,,,,,,,,,,,,,,,,,,,,,,,,,,,NE67GV,train_y,red_square,bottom_left,2025-02-13_15h38.15.348,HideSeek_v1,2022.2.5,59.96828872293273,
,,,,,,,,,,,,,,,0,0,0,0,3,0,3,0,,,,,,,,,,,,,,,,,,,,,,,,,,,,,,,conditions/schedules/train_y_first/red_square_00/bottom_left/instructions/Slide4.png,conditions/schedules/train_y_first/red_square_00/bottom_left/instructions/Audio4.wav,1242.6061734000687,1242.6038919999264,4,"[5.68156830011867, 18.896219599992037, 17.26341410004534, 20.061968799913302]","[0.00035009998828172684, 18.896226400043815, 0.013861200073733926, 20.06197510007769]",0,,,,,,,,,,,,,,,,,,,,,,,,,,,,,,,,,,,,,,,,,,,,,,,,,,,,,,,,,,,,,,,,,,,,,,,,,,,,,,,,,,,,,,,,,,,,,,,,,,,,,,,,,,,,,,,,,,,,,,,,,,,,NE67GV,train_y,red_square,bottom_left,2025-02-13_15h38.15.348,HideSeek_v1,2022.2.5,59.96828872293273,
,,,,,,,,,,,,,,,0,0,0,0,4,0,4,0,,,,,,,,,,,,,,,,,,,,,,,,,,,,,,,conditions/schedules/train_y_first/red_square_00/bottom_left/instructions/Slide5.png,conditions/schedules/train_y_first/red_square_00/bottom_left/instructions/Audio5.wav,1262.7318076998927,1262.7207751799376,5,"[5.68156830011867, 18.896219599992037, 17.26341410004534, 20.061968799913302, 6.3251823000609875]","[0.00035009998828172684, 18.896226400043815, 0.013861200073733926, 0.014143900014460087, 6.325189300114289]",0,,,,,,,,,,,,,,,,,,,,,,,,,,,,,,,,,,,,,,,,,,,,,,,,,,,,,,,,,,,,,,,,,,,,,,,,,,,,,,,,,,,,,,,,,,,,,,,,,,,,,,,,,,,,,,,,,,,,,,,,,,,,NE67GV,train_y,red_square,bottom_left,2025-02-13_15h38.15.348,HideSeek_v1,2022.2.5,59.96828872293273,
,,,,,,,,,,,,,,,0,0,0,0,5,0,5,0,,,,,,,,,,,,,,,,,,,,,,,,,,,,,,,conditions/schedules/train_y_first/red_square_00/bottom_left/instructions/Slide6.png,conditions/schedules/train_y_first/red_square_00/bottom_left/instructions/Audio6.wav,1269.1070632999763,1269.1094306799585,6,"[5.68156830011867, 18.896219599992037, 17.26341410004534, 20.061968799913302, 6.3251823000609875, 4.953305599978194]","[0.00035009998828172684, 18.896226400043815, 0.013861200073733926, 0.014143900014460087, 0.013802299974486232, 4.95331190014258]",0,,,,,,,,,,,,,,,,,,,,,,,,,,,,,,,,,,,,,,,,,,,,,,,,,,,,,,,,,,,,,,,,,,,,,,,,,,,,,,,,,,,,,,,,,,,,,,,,,,,,,,,,,,,,,,,,,,,,,,,,,,,,NE67GV,train_y,red_square,bottom_left,2025-02-13_15h38.15.348,HideSeek_v1,2022.2.5,59.96828872293273,
,,,,,,,,,,,,,,,0,0,0,0,6,0,6,0,,,,,,,,,,,,,,,,,,,,,,,,,,,,,,,conditions/schedules/train_y_first/red_square_00/bottom_left/instructions/Slide7.png,conditions/schedules/train_y_first/red_square_00/bottom_left/instructions/Audio7.wav,1274.131690399954,1274.1300432998687,7,"[5.68156830011867, 18.896219599992037, 17.26341410004534, 20.061968799913302, 6.3251823000609875, 4.953305599978194, 5.850791200064123]","[0.00035009998828172684, 18.896226400043815, 0.013861200073733926, 0.014143900014460087, 0.013802299974486232, 0.01430810010060668, 5.850797799881548]",0,,,,,,,,,,,,,,,,,,,,,,,,,,,,,,,,,,,,,,,,,,,,,,,,,,,,,,,,,,,,,,,,,,,,,,,,,,,,,,,,,,,,,,,,,,,,,,,,,,,,,,,,,,,,,,,,,,,,,,,,,,,,NE67GV,train_y,red_square,bottom_left,2025-02-13_15h38.15.348,HideSeek_v1,2022.2.5,59.96828872293273,
,,,,,,,,,,,,,,,0,0,0,0,7,0,7,0,,,,,,,,,,,,,,,,,,,,,,,,,,,,,,,conditions/schedules/train_y_first/red_square_00/bottom_left/instructions/Slide8.png,conditions/schedules/train_y_first/red_square_00/bottom_left/instructions/Audio8.wav,1280.0346715999767,1280.0350023800509,8,"[5.68156830011867, 18.896219599992037, 17.26341410004534, 20.061968799913302, 6.3251823000609875, 4.953305599978194, 5.850791200064123, 12.157570599811152]","[0.00035009998828172684, 18.896226400043815, 0.013861200073733926, 0.014143900014460087, 0.013802299974486232, 0.01430810010060668, 0.00021029985509812832, 12.157577499980107]",0,,,,,,,,,,,,,,,,,,,,,,,,,,,,,,,,,,,,,,,,,,,,,,,,,,,,,,,,,,,,,,,,,,,,,,,,,,,,,,,,,,,,,,,,,,,,,,,,,,,,,,,,,,,,,,,,,,,,,,,,,,,,NE67GV,train_y,red_square,bottom_left,2025-02-13_15h38.15.348,HideSeek_v1,2022.2.5,59.96828872293273,
,,,,,,,,,,,,,,,0,0,0,0,8,0,8,0,,,,,,,,,,,,,,,,,,,,,,,,,,,,,,,conditions/schedules/train_y_first/red_square_00/bottom_left/instructions/Slide9.png,conditions/schedules/train_y_first/red_square_00/bottom_left/instructions/Audio9.wav,1292.260979600018,1292.2617820999585,9,"[5.68156830011867, 18.896219599992037, 17.26341410004534, 20.061968799913302, 6.3251823000609875, 4.953305599978194, 5.850791200064123, 12.157570599811152, 6.386509999865666]","[0.00035009998828172684, 18.896226400043815, 0.013861200073733926, 0.014143900014460087, 0.013802299974486232, 0.01430810010060668, 0.00021029985509812832, 0.013964399928227067, 6.386516599915922]",0,,,,,,,,,,,,,,,,,,,,,,,,,,,,,,,,,,,,,,,,,,,,,,,,,,,,,,,,,,,,,,,,,,,,,,,,,,,,,,,,,,,,,,,,,,,,,,,,,,,,,,,,,,,,,,,,,,,,,,,,,,,,NE67GV,train_y,red_square,bottom_left,2025-02-13_15h38.15.348,HideSeek_v1,2022.2.5,59.96828872293273,
,,,,,,,,,,,,,,,0,0,0,0,9,0,9,0,,,,,,,,,,,,,,,,,,,,,,,,,,,,,,,conditions/schedules/train_y_first/red_square_00/bottom_left/instructions/Slide10.png,conditions/schedules/train_y_first/red_square_00/bottom_left/instructions/Audio10.wav,1298.699981099926,1298.70017247987,10,"[5.68156830011867, 18.896219599992037, 17.26341410004534, 20.061968799913302, 6.3251823000609875, 4.953305599978194, 5.850791200064123, 12.157570599811152, 6.386509999865666, 7.072480200091377]","[0.00035009998828172684, 18.896226400043815, 0.013861200073733926, 0.014143900014460087, 0.013802299974486232, 0.01430810010060668, 0.00021029985509812832, 0.013964399928227067, 0.08212250005453825, 7.072489999933168]",0,,,,,,,,,,,,,,,,,,,,,,,,,,,,,,,,,,,,,,,,,,,,,,,,,,,,,,,,,,,,,,,,,,,,,,,,,,,,,,,,,,,,,,,,,,,,,,,,,,,,,,,,,,,,,,,,,,,,,,,,,,,,NE67GV,train_y,red_square,bottom_left,2025-02-13_15h38.15.348,HideSeek_v1,2022.2.5,59.96828872293273,
,,,,,,,,,,,,,,,0,0,0,0,10,0,10,0,,,,,,,,,,,,,,,,,,,,,,,,,,,,,,,conditions/schedules/train_y_first/red_square_00/bottom_left/instructions/Slide11.png,conditions/schedules/train_y_first/red_square_00/bottom_left/instructions/Audio11.wav,1305.810586599866,1305.806395159848,11,"[5.68156830011867, 18.896219599992037, 17.26341410004534, 20.061968799913302, 6.3251823000609875, 4.953305599978194, 5.850791200064123, 12.157570599811152, 6.386509999865666, 7.072480200091377, 10.185067899990827]","[0.00035009998828172684, 18.896226400043815, 0.013861200073733926, 0.014143900014460087, 0.013802299974486232, 0.01430810010060668, 0.00021029985509812832, 0.013964399928227067, 0.08212250005453825, 0.06499420013278723, 10.18507460015826]",0,,,,,,,,,,,,,,,,,,,,,,,,,,,,,,,,,,,,,,,,,,,,,,,,,,,,,,,,,,,,,,,,,,,,,,,,,,,,,,,,,,,,,,,,,,,,,,,,,,,,,,,,,,,,,,,,,,,,,,,,,,,,NE67GV,train_y,red_square,bottom_left,2025-02-13_15h38.15.348,HideSeek_v1,2022.2.5,59.96828872293273,
,,,,,,,,,,,,,,,0,0,0,0,11,0,11,0,,,,,,,,,,,,,,,,,,,,,,,,,,,,,,,conditions/schedules/train_y_first/red_square_00/bottom_left/instructions/Slide12.png,conditions/schedules/train_y_first/red_square_00/bottom_left/instructions/Audio12.wav,1316.0680678000208,1316.0648735000286,12,"[5.68156830011867, 18.896219599992037, 17.26341410004534, 20.061968799913302, 6.3251823000609875, 4.953305599978194, 5.850791200064123, 12.157570599811152, 6.386509999865666, 7.072480200091377, 10.185067899990827, 14.174038299825042]","[0.00035009998828172684, 18.896226400043815, 0.013861200073733926, 0.014143900014460087, 0.013802299974486232, 0.01430810010060668, 0.00021029985509812832, 0.013964399928227067, 0.08212250005453825, 0.06499420013278723, 0.06440229993313551, 14.174046299885958]",0,,,,,,,,,,,,,,,,,,,,,,,,,,,,,,,,,,,,,,,,,,,,,,,,,,,,,,,,,,,,,,,,,,,,,,,,,,,,,,,,,,,,,,,,,,,,,,,,,,,,,,,,,,,,,,,,,,,,,,,,,,,,NE67GV,train_y,red_square,bottom_left,2025-02-13_15h38.15.348,HideSeek_v1,2022.2.5,59.96828872293273,
1,2,3,2,8,0,5,11,2,instr_dim1_1,,,,,,0,0,0,0,,,,,0,0,0,0,,,,,,,,,,,,,,,,,,,,,,,,,,,,,,,,,,,,,stimuli/alien_stimuli/11.png,conditions/schedules/train_y_first/red_square_00/bottom_left/inputInstr_1.xlsx,stimuli/alien_stimuli/11.png,1330.3497088998556,1330.3497088998556,1330.3497088998556,1330.3497088998556,1330.3433649399785,return,9.451091800117865,"[-0.16, -0.08, 0, 0.08, 0.16, 0.24, 0.32, 0.4, 0.48, 0.56]","[-0.4, -0.32, -0.24, -0.16, -0.08, 0, 0.08, 0.16, 0.24, 0.32]",8,3,2,2,0.4,0.0,1339.9556144999806,1339.9556144999806,1339.9556144999806,1339.9556144999806,1339.9556144999806,1339.9556144999806,1339.9556144999806,1339.9516711799895,9.507914999965578,return,9.349026600131765,stimuli/alien_stimuli/11.png,11,2,1,,,,,,,,,,,,,,,,,,,,,,,,,,,,,,,,,,,,,,,,,,,,,,,,,,,,,,,,,,,,,,,,,,,,,,,,,,,,,,,,,,,,,,,,,NE67GV,train_y,red_square,bottom_left,2025-02-13_15h38.15.348,HideSeek_v1,2022.2.5,59.96828872293273,
,,,,,,,,,,,30,,,,0,0,0,0,,,,,,,,,,,,,,,,,,,,,,,,,,,,,,,,,,,,,,,,,,,,,,,,,,,,,,,,,,,,,,,,,,,,,,,,,,,,,,21,0.7,0,0,99,1,30,0,conditions/schedules/train_y_first/red_square_00/bottom_left/inputTrain_1.1.xlsx,99,1,1,1,0,,,,,,,,,,,,,,,,,,,,,,,,,,,,,,,,,,,,,,,,,,,,,,,,,,,,,,,,,,,,,,,,,,,,,,,,,,,NE67GV,train_y,red_square,bottom_left,2025-02-13_15h38.15.348,HideSeek_v1,2022.2.5,59.96828872293273,
,,,,,,,,,,,,,,,1,0,1,0,0,0,0,0,,,,,,,,,,,,,,,,,,,,,,,,,,,,,,,conditions/schedules/train_y_first/red_square_00/bottom_left/instructions/Slide13.png,conditions/schedules/train_y_first/red_square_00/bottom_left/instructions/Audio13.wav,1349.4740854999982,1349.47587319999,13,"[5.68156830011867, 18.896219599992037, 17.26341410004534, 20.061968799913302, 6.3251823000609875, 4.953305599978194, 5.850791200064123, 12.157570599811152, 6.386509999865666, 7.072480200091377, 10.185067899990827, 14.174038299825042, 18.43131330003962]","[0.00035009998828172684, 18.896226400043815, 0.013861200073733926, 0.014143900014460087, 0.013802299974486232, 0.01430810010060668, 0.00021029985509812832, 0.013964399928227067, 0.08212250005453825, 0.06499420013278723, 0.06440229993313551, 14.174046299885958, 18.431320999981835]",0,,,,,,,,,,,,,,,,,,,,,,,,,,,,,,,,,,,,,,,,,,,,,,,,,,,,,,,,,,,,,,,,,,,,,,,,,,,,,,,,,,,,,,,,,,,,,,,,,,,,,,,,,,,,,,,,,,,,,,,,,,,,NE67GV,train_y,red_square,bottom_left,2025-02-13_15h38.15.348,HideSeek_v1,2022.2.5,59.96828872293273,
,,,,,,,,,,,,,,,1,0,1,0,1,0,1,0,,,,,,,,,,,,,,,,,,,,,,,,,,,,,,,conditions/schedules/train_y_first/red_square_00/bottom_left/instructions/Slide14.png,conditions/schedules/train_y_first/red_square_00/bottom_left/instructions/Audio14.wav,1367.975760200061,1367.9745199999306,14,"[5.68156830011867, 18.896219599992037, 17.26341410004534, 20.061968799913302, 6.3251823000609875, 4.953305599978194, 5.850791200064123, 12.157570599811152, 6.386509999865666, 7.072480200091377, 10.185067899990827, 14.174038299825042, 18.43131330003962, 16.92729389993474]","[0.00035009998828172684, 18.896226400043815, 0.013861200073733926, 0.014143900014460087, 0.013802299974486232, 0.01430810010060668, 0.00021029985509812832, 0.013964399928227067, 0.08212250005453825, 0.06499420013278723, 0.06440229993313551, 14.174046299885958, 0.06299080001190305, 16.92730290000327]",0,,,,,,,,,,,,,,,,,,,,,,,,,,,,,,,,,,,,,,,,,,,,,,,,,,,,,,,,,,,,,,,,,,,,,,,,,,,,,,,,,,,,,,,,,,,,,,,,,,,,,,,,,,,,,,,,,,,,,,,,,,,,NE67GV,train_y,red_square,bottom_left,2025-02-13_15h38.15.348,HideSeek_v1,2022.2.5,59.96828872293273,
2,0,3,0,3,0,0,16,2,instr_dim1_1,,,,,,1,0,1,0,,,,,0,0,0,0,,,,,,,,,,,,,,,,,,,,,,,,,,,,,,,,,,,,,stimuli/alien_stimuli/16.png,conditions/schedules/train_y_first/red_square_00/bottom_left/inputInstr_1.xlsx,stimuli/alien_stimuli/16.png,1385.001376299886,1385.001376299886,1385.001376299886,1385.001376299886,1385.005433740048,return,8.606217799941078,"[-0.16, -0.08, 0, 0.08, 0.16, 0.24, 0.32, 0.4, 0.48, 0.56]","[-0.4, -0.32, -0.24, -0.16, -0.08, 0, 0.08, 0.16, 0.24, 0.32]",3,3,0,0,0.0,0.0,1393.7610353999771,1393.7610353999771,1393.7610353999771,1393.7610353999771,1393.7610353999771,1393.7610353999771,1393.7610353999771,1393.7626195800492,11.91117350012064,return,11.757154899882153,stimuli/alien_stimuli/16.png,16,0,2,,,,,,,,,,,,,,,,,,,,,,,,,,,,,,,,,,,,,,,,,,,,,,,,,,,,,,,,,,,,,,,,,,,,,,,,,,,,,,,,,,,,,,,,,NE67GV,train_y,red_square,bottom_left,2025-02-13_15h38.15.348,HideSeek_v1,2022.2.5,59.96828872293273,
,,,,,,,,,,,30,,,,1,0,1,0,,,,,,,,,,,,,,,,,,,,,,,,,,,,,,,,,,,,,,,,,,,,,,,,,,,,,,,,,,,,,,,,,,,,,,,,,,,,,,21,0.7,0,0,99,1,30,0,conditions/schedules/train_y_first/red_square_00/bottom_left/inputTrain_1.1.xlsx,99,1,1,1,0,,,,,,,,,,,,,,,,,,,,,,,,,,,,,,,,,,,,,,,,,,,,,,,,,,,,,,,,,,,,,,,,,,,,,,,,,,,NE67GV,train_y,red_square,bottom_left,2025-02-13_15h38.15.348,HideSeek_v1,2022.2.5,59.96828872293273,
,,,,,,,,,,,,,,,2,0,2,0,0,0,0,0,,,,,,,,,,,,,,,,,,,,,,,,,,,,,,,conditions/schedules/train_y_first/red_square_00/bottom_left/instructions/Slide15.png,conditions/schedules/train_y_first/red_square_00/bottom_left/instructions/Audio15.wav,1405.6944869998842,1405.6893682000227,15,"[5.68156830011867, 18.896219599992037, 17.26341410004534, 20.061968799913302, 6.3251823000609875, 4.953305599978194, 5.850791200064123, 12.157570599811152, 6.386509999865666, 7.072480200091377, 10.185067899990827, 14.174038299825042, 18.43131330003962, 16.92729389993474, 43.37906159996055]","[0.00035009998828172684, 18.896226400043815, 0.013861200073733926, 0.014143900014460087, 0.013802299974486232, 0.01430810010060668, 0.00021029985509812832, 0.013964399928227067, 0.08212250005453825, 0.06499420013278723, 0.06440229993313551, 14.174046299885958, 0.06299080001190305, 16.92730290000327, 43.379068499896675]",0,,,,,,,,,,,,,,,,,,,,,,,,,,,,,,,,,,,,,,,,,,,,,,,,,,,,,,,,,,,,,,,,,,,,,,,,,,,,,,,,,,,,,,,,,,,,,,,,,,,,,,,,,,,,,,,,,,,,,,,,,,,,NE67GV,train_y,red_square,bottom_left,2025-02-13_15h38.15.348,HideSeek_v1,2022.2.5,59.96828872293273,
,,,,,,,,,,,,,,,2,0,2,0,1,0,1,0,,,,,,,,,,,,,,,,,,,,,,,,,,,,,,,conditions/schedules/train_y_first/red_square_00/bottom_left/instructions/Slide16.png,conditions/schedules/train_y_first/red_square_00/bottom_left/instructions/Audio16.wav,1449.1470170000102,1449.141975299921,16,"[5.68156830011867, 18.896219599992037, 17.26341410004534, 20.061968799913302, 6.3251823000609875, 4.953305599978194, 5.850791200064123, 12.157570599811152, 6.386509999865666, 7.072480200091377, 10.185067899990827, 14.174038299825042, 18.43131330003962, 16.92729389993474, 43.37906159996055, 22.444282499840483]","[0.00035009998828172684, 18.896226400043815, 0.013861200073733926, 0.014143900014460087, 0.013802299974486232, 0.01430810010060668, 0.00021029985509812832, 0.013964399928227067, 0.08212250005453825, 0.06499420013278723, 0.06440229993313551, 14.174046299885958, 0.06299080001190305, 16.92730290000327, 0.06296629994176328, 22.44429020001553]",0,,,,,,,,,,,,,,,,,,,,,,,,,,,,,,,,,,,,,,,,,,,,,,,,,,,,,,,,,,,,,,,,,,,,,,,,,,,,,,,,,,,,,,,,,,,,,,,,,,,,,,,,,,,,,,,,,,,,,,,,,,,,NE67GV,train_y,red_square,bottom_left,2025-02-13_15h38.15.348,HideSeek_v1,2022.2.5,59.96828872293273,
,0,0,0,1,0,1,15,,train_dim1_1,1,30,,,,2,0,2,0,,,,,,,,,0,0,0,0,0,0,0,0,0,0,0,0,,,,,,,,,,,,,,,,,,,,,,,,,stimuli/alien_stimuli/15.png,,,,,,,,,,,,,,,,,,,,,,,,,,,,,,,,,,,,,,,30,,,,,,,,1471.6980119999498,1471.6980119999498,1471.6980119999498,1471.6980119999498,1471.6980119999498,up,10.48694029985927,0,0,0,99,-0.16,-0.32,up,10.379840899957344,,,,,,,,,,,,,,,,,,,,,,,,,,,,,,,,,,,,,,,,,,,,,,,,,,,,,,,,,,,,NE67GV,train_y,red_square,bottom_left,2025-02-13_15h38.15.348,HideSeek_v1,2022.2.5,59.96828872293273,
,0,0,0,1,0,1,15,,train_dim1_1,1,30,,,,2,0,2,0,,,,,,,,,0,0,0,0,0,0,0,0,1,0,1,0,,,,,,,,,,,,,,,,,,,,,,,,,,,,,,,,,,,,,,,,,,,,,,,,,,,,,,,,,,,,,,,,30,,,,,,,,1482.1900895000435,1482.1900895000435,1482.1900895000435,1482.1900895000435,1482.1900895000435,up,13.253403099952266,0,0,0,99,-0.16,-0.24,up,13.156928200041875,,,,,,,,,,,,,,,,,,,,,,,,,,,,,,,,,,,,,,,,,,,,,,,,,,,,,,,,,,,,NE67GV,train_y,red_square,bottom_left,2025-02-13_15h38.15.348,HideSeek_v1,2022.2.5,59.96828872293273,
,0,0,0,1,0,1,15,,train_dim1_1,1,30,,,,2,0,2,0,,,,,,,,,0,0,0,0,0,0,0,0,2,0,2,0,,,,,,,,,,,,,,,,,,,,,,,,,,,,,,,,,,,,,,,,,,,,,,,,,,,,,,,,,,,,,,,,30,,,,,,,,1495.4490153000224,1495.4490153000224,1495.4490153000224,1495.4490153000224,1495.4490153000224,right,1.2942697999533266,0,0,0,99,-0.08,-0.24,right,1.1904203000012785,,,,,,,,,,,,,,,,,,,,,,,,,,,,,,,,,,,,,,,,,,,,,,,,,,,,,,,,,,,,NE67GV,train_y,red_square,bottom_left,2025-02-13_15h38.15.348,HideSeek_v1,2022.2.5,59.96828872293273,
,0,0,0,1,0,1,15,,train_dim1_1,1,30,,,,2,0,2,0,,,,,,,,,0,0,0,0,0,0,0,0,3,0,3,0,,,,,,,,,,,,,,,,,,,,,,,,,,,,,,,,,,,,,,,,,,,,,,,,,,,,,,,,,,,,,,,,30,,,,,,,,1496.7336400998756,1496.7336400998756,1496.7336400998756,1496.7336400998756,1496.7336400998756,right,0.7268550998996943,0,0,0,99,0.0,-0.24,right,0.6384771000593901,,,,,,,,,,,,,,,,,,,,,,,,,,,,,,,,,,,,,,,,,,,,,,,,,,,,,,,,,,,,NE67GV,train_y,red_square,bottom_left,2025-02-13_15h38.15.348,HideSeek_v1,2022.2.5,59.96828872293273,
,0,0,0,1,0,1,15,,train_dim1_1,1,30,,,,2,0,2,0,,,,,,,,,0,0,0,0,0,0,0,0,4,0,4,0,,,,,,,,,,,,,,,,,,,,,,,,,,,,,,,,,,,,,,,,,,,,,,,,,,,,,,,,,,,,,,,,30,,,,,,,,1497.4663505998906,1497.4663505998906,1497.4663505998906,1497.4663505998906,1497.4663505998906,right,0.4597373001743108,0,0,0,99,0.08,-0.24,right,0.3762873001396656,,,,,,,,,,,,,,,,,,,,,,,,,,,,,,,,,,,,,,,,,,,,,,,,,,,,,,,,,,,,NE67GV,train_y,red_square,bottom_left,2025-02-13_15h38.15.348,HideSeek_v1,2022.2.5,59.96828872293273,
,0,0,0,1,0,1,15,,train_dim1_1,1,30,,,,2,0,2,0,,,,,,,,,0,0,0,0,0,0,0,0,5,0,5,0,,,,,,,,,,,,,,,,,,,,,,,,,,,,,,,,,,,,,,,,,,,,,,,,,,,,,,,,,,,,,,,,30,,,,,,,,1497.9337589999195,1497.9337589999195,1497.9337589999195,1497.9337589999195,1497.9337589999195,right,0.9938561001326889,0,0,0,99,0.16,-0.24,right,0.9123595000710338,,,,,,,,,,,,,,,,,,,,,,,,,,,,,,,,,,,,,,,,,,,,,,,,,,,,,,,,,,,,NE67GV,train_y,red_square,bottom_left,2025-02-13_15h38.15.348,HideSeek_v1,2022.2.5,59.96828872293273,
,0,0,0,1,0,1,15,,train_dim1_1,1,30,,,,2,0,2,0,,,,,,,,,0,0,0,0,0,0,0,0,6,0,6,0,,,,,,,,,,,,,,,,,,,,,,,,,,,,,,,,,,,,,,,,,,,,,,,,,,,,,,,,,,,,,,,,30,,,,,,,,1498.9349988000467,1498.9349988000467,1498.9349988000467,1498.9349988000467,1498.9349988000467,up,3.0792185000609607,0,0,0,99,0.16,-0.15999999999999998,up,2.9987681000493467,,,,,,,,,,,,,,,,,,,,,,,,,,,,,,,,,,,,,,,,,,,,,,,,,,,,,,,,,,,,NE67GV,train_y,red_square,bottom_left,2025-02-13_15h38.15.348,HideSeek_v1,2022.2.5,59.96828872293273,
,0,0,0,1,0,1,15,,train_dim1_1,1,30,,,,2,0,2,0,,,,,,,,,0,0,0,0,0,0,0,0,7,0,7,0,,,,,,,,,,,,,,,,,,,,,,,,,,,,,,,,,,,,,,,,,,,,,,,,,,,,,,,,,,,,,,,,30,,,,,,,,1502.0216647998895,1502.0216647998895,1502.0216647998895,1502.0216647998895,1502.0216647998895,up,0.6428159000352025,0,0,0,99,0.16,-0.07999999999999997,up,0.5521040000021458,,,,,,,,,,,,,,,,,,,,,,,,,,,,,,,,,,,,,,,,,,,,,,,,,,,,,,,,,,,,NE67GV,train_y,red_square,bottom_left,2025-02-13_15h38.15.348,HideSeek_v1,2022.2.5,59.96828872293273,
,0,0,0,1,0,1,15,,train_dim1_1,1,30,,,,2,0,2,0,,,,,,,,,0,0,0,0,0,0,0,0,8,0,8,0,,,,,,,,,,,,,,,,,,,,,,,,,,,,,,,,,,,,,,,,,,,,,,,,,,,,,,,,,,,,,,,,30,,,,,,,,1502.6714836999308,1502.6714836999308,1502.6714836999308,1502.6714836999308,1502.6714836999308,right,2.5114480000920594,0,0,0,99,0.24,-0.07999999999999997,right,2.4327435998711735,,,,,,,,,,,,,,,,,,,,,,,,,,,,,,,,,,,,,,,,,,,,,,,,,,,,,,,,,,,,NE67GV,train_y,red_square,bottom_left,2025-02-13_15h38.15.348,HideSeek_v1,2022.2.5,59.96828872293273,
,0,0,0,1,0,1,15,,train_dim1_1,1,30,,,,2,0,2,0,,,,,,,,,0,0,0,0,0,0,0,0,9,0,9,0,,,,,,,,,,,,,,,,,,,,,,,,,,,,,,,,,,,,,,,,,,,,,,,,,,,,,,,,,,,,,,,,30,,,,,,,,1505.1895703000482,1505.1895703000482,1505.1895703000482,1505.1895703000482,1505.1895703000482,right,0.5270283001009375,0,0,0,99,0.32,-0.07999999999999997,right,0.445502599934116,,,,,,,,,,,,,,,,,,,,,,,,,,,,,,,,,,,,,,,,,,,,,,,,,,,,,,,,,,,,NE67GV,train_y,red_square,bottom_left,2025-02-13_15h38.15.348,HideSeek_v1,2022.2.5,59.96828872293273,
,0,0,0,1,0,1,15,,train_dim1_1,1,30,,,,2,0,2,0,,,,,,,,,0,0,0,0,0,0,0,0,10,0,10,0,,,,,,,,,,,,,,,,,,,,,,,,,,,,,,,,,,,,,,,,,,,,,,,,,,,,,,,,,,,,,,,,30,,,,,,,,1505.723018300021,1505.723018300021,1505.723018300021,1505.723018300021,1505.723018300021,right,0.8772848001681268,0,0,0,99,0.4,-0.07999999999999997,right,0.7995219000149518,,,,,,,,,,,,,,,,,,,,,,,,,,,,,,,,,,,,,,,,,,,,,,,,,,,,,,,,,,,,NE67GV,train_y,red_square,bottom_left,2025-02-13_15h38.15.348,HideSeek_v1,2022.2.5,59.96828872293273,
,0,0,0,1,0,1,15,,train_dim1_1,1,30,,,,2,0,2,0,,,,,,,,,0,0,0,0,0,0,0,0,11,0,11,0,,,,,,,,,,,,,,,,,,,,,,,,,,,,,,,,,,,,,,,,,,,,,,,,,,,,,,,,,,,,,,,,30,,,,,,,,1506.6077705998905,1506.6077705998905,1506.6077705998905,1506.6077705998905,1506.6077705998905,right,0.8769596000202,0,0,0,99,0.48000000000000004,-0.07999999999999997,right,0.7986379000358284,,,,,,,,,,,,,,,,,,,,,,,,,,,,,,,,,,,,,,,,,,,,,,,,,,,,,,,,,,,,NE67GV,train_y,red_square,bottom_left,2025-02-13_15h38.15.348,HideSeek_v1,2022.2.5,59.96828872293273,
,0,0,0,1,0,1,15,,train_dim1_1,1,30,,,,2,0,2,0,,,,,,,,,0,0,0,0,0,0,0,0,12,0,12,0,,,,,,,,,,,,,,,,,,,,,,,,,,,,,,,,,,,,,,,,,,,,,,,,,,,,,,,,,,,,,,,,30,,,,,,,,1507.4917663999368,1507.4917663999368,1507.4917663999368,1507.4917663999368,1507.4917663999368,up,1.3610121000092477,0,0,0,99,0.48000000000000004,2.7755575615628914e-17,up,1.2718005999922752,,,,,,,,,,,,,,,,,,,,,,,,,,,,,,,,,,,,,,,,,,,,,,,,,,,,,,,,,,,,NE67GV,train_y,red_square,bottom_left,2025-02-13_15h38.15.348,HideSeek_v1,2022.2.5,59.96828872293273,
,0,0,0,1,0,1,15,,train_dim1_1,1,30,,,,2,0,2,0,,,,,,,,,0,0,0,0,0,0,0,0,13,0,13,0,,,,,,,,,,,,,,,,,,,,,,,,,,,,,,,,,,,,,,,,,,,,,,,,,,,,,,,,,,,,,,,,30,,,,,,,,1508.8595747000072,1508.8595747000072,1508.8595747000072,1508.8595747000072,1508.8595747000072,up,0.6769171999767423,0,0,0,99,0.48000000000000004,0.08000000000000003,up,0.5990656998474151,,,,,,,,,,,,,,,,,,,,,,,,,,,,,,,,,,,,,,,,,,,,,,,,,,,,,,,,,,,,NE67GV,train_y,red_square,bottom_left,2025-02-13_15h38.15.348,HideSeek_v1,2022.2.5,59.96828872293273,
,0,0,0,1,0,1,15,,train_dim1_1,1,30,,,,2,0,2,0,,,,,,,,,0,0,0,0,0,0,0,0,14,0,14,0,,,,,,,,,,,,,,,,,,,,,,,,,,,,,,,,,,,,,,,,,,,,,,,,,,,,,,,,,,,,,,,,30,,,,,,,,1509.54386970005,1509.54386970005,1509.54386970005,1509.54386970005,1509.54386970005,up,0.6933323999401182,0,0,0,99,0.48000000000000004,0.16000000000000003,up,0.6123472000472248,,,,,,,,,,,,,,,,,,,,,,,,,,,,,,,,,,,,,,,,,,,,,,,,,,,,,,,,,,,,NE67GV,train_y,red_square,bottom_left,2025-02-13_15h38.15.348,HideSeek_v1,2022.2.5,59.96828872293273,
,0,0,0,1,0,1,15,,train_dim1_1,1,30,,,,2,0,2,0,,,,,,,,,0,0,0,0,0,0,0,0,15,0,15,0,,,,,,,,,,,,,,,,,,,,,,,,,,,,,,,,,,,,,,,,,,,,,,,,,,,,,,,,,,,,,,,,30,,,,,,,,1510.244038600009,1510.244038600009,1510.244038600009,1510.244038600009,1510.244038600009,up,0.6266900999471545,0,0,0,99,0.48000000000000004,0.24000000000000005,up,0.5467722001485527,,,,,,,,,,,,,,,,,,,,,,,,,,,,,,,,,,,,,,,,,,,,,,,,,,,,,,,,,,,,NE67GV,train_y,red_square,bottom_left,2025-02-13_15h38.15.348,HideSeek_v1,2022.2.5,59.96828872293273,
,0,0,0,1,0,1,15,,train_dim1_1,1,30,,,,2,0,2,0,,,,,,,,,0,0,0,0,0,0,0,0,16,0,16,0,,,,,,,,,,,,,,,,,,,,,,,,,,,,,,,,,,,,,,,,,,,,,,,,,,,,,,,,,,,,,,,,30,,,,,,,,1510.8775062998757,1510.8775062998757,1510.8775062998757,1510.8775062998757,1510.8775062998757,left,5.247975900070742,0,0,0,99,0.4,0.24000000000000005,left,5.165794899920002,,,,,,,,,,,,,,,,,,,,,,,,,,,,,,,,,,,,,,,,,,,,,,,,,,,,,,,,,,,,NE67GV,train_y,red_square,bottom_left,2025-02-13_15h38.15.348,HideSeek_v1,2022.2.5,59.96828872293273,
,0,0,0,1,0,1,15,,train_dim1_1,1,30,,,,2,0,2,0,,,,,,,,,0,0,0,0,0,0,0,0,17,0,17,0,,,,,,,,,,,,,,,,,,,,,,,,,,,,,,,,,,,,,,,,,,,,,,,,,,,,,,,,,,,,,,,,30,,,,,,,,1516.1374826000538,1516.1374826000538,1516.1374826000538,1516.1374826000538,1516.1374826000538,left,0.5889004000928253,0,0,0,99,0.32,0.24000000000000005,left,0.5006819998379797,,,,,,,,,,,,,,,,,,,,,,,,,,,,,,,,,,,,,,,,,,,,,,,,,,,,,,,,,,,,NE67GV,train_y,red_square,bottom_left,2025-02-13_15h38.15.348,HideSeek_v1,2022.2.5,59.96828872293273,
,0,0,0,1,0,1,15,,train_dim1_1,1,30,,,,2,0,2,0,,,,,,,,,0,0,0,0,0,0,0,0,18,0,18,0,,,,,,,,,,,,,,,,,,,,,,,,,,,,,,,,,,,,,,,,,,,,,,,,,,,,,,,,,,,,,,,,30,,,,,,,,1516.735878800042,1516.735878800042,1516.735878800042,1516.735878800042,1516.735878800042,down,4.3796999999322,0,0,0,99,0.32,0.16000000000000003,down,4.289214799879119,,,,,,,,,,,,,,,,,,,,,,,,,,,,,,,,,,,,,,,,,,,,,,,,,,,,,,,,,,,,NE67GV,train_y,red_square,bottom_left,2025-02-13_15h38.15.348,HideSeek_v1,2022.2.5,59.96828872293273,
,0,0,0,1,0,1,15,,train_dim1_1,1,30,,,,2,0,2,0,,,,,,,,,0,0,0,0,0,0,0,0,19,0,19,0,,,,,,,,,,,,,,,,,,,,,,,,,,,,,,,,,,,,,,,,,,,,,,,,,,,,,,,,,,,,,,,,30,,,,,,,,1521.1199759000447,1521.1199759000447,1521.1199759000447,1521.1199759000447,1521.1199759000447,down,0.6579712000675499,0,0,0,99,0.32,0.08000000000000003,down,0.5716591998934746,,,,,,,,,,,,,,,,,,,,,,,,,,,,,,,,,,,,,,,,,,,,,,,,,,,,,,,,,,,,NE67GV,train_y,red_square,bottom_left,2025-02-13_15h38.15.348,HideSeek_v1,2022.2.5,59.96828872293273,
,0,0,0,1,0,1,15,,train_dim1_1,1,30,,,,2,0,2,0,,,,,,,,,0,0,0,0,0,0,0,0,20,0,20,0,,,,,,,,,,,,,,,,,,,,,,,,,,,,,,,,,,,,,,,,,,,,,,,,,,,,,,,,,,,,,,,,30,,,,,,,,1521.7968093999662,1521.7968093999662,1521.7968093999662,1521.7968093999662,1521.7968093999662,down,0.6044326999690384,0,0,0,99,0.32,2.7755575615628914e-17,down,0.5114990000147372,,,,,,,,,,,,,,,,,,,,,,,,,,,,,,,,,,,,,,,,,,,,,,,,,,,,,,,,,,,,NE67GV,train_y,red_square,bottom_left,2025-02-13_15h38.15.348,HideSeek_v1,2022.2.5,59.96828872293273,
,0,0,0,1,0,1,15,,train_dim1_1,1,30,,,,2,0,2,0,,,,,,,,,0,0,0,0,0,0,0,0,21,0,21,0,,,,,,,,,,,,,,,,,,,,,,,,,,,,,,,,,,,,,,,,,,,,,,,,,,,,,,,,,,,,,,,,30,,,,,,,,1522.404050800018,1522.404050800018,1522.404050800018,1522.404050800018,1522.404050800018,left,1.177585099823773,0,0,0,99,0.24,2.7755575615628914e-17,left,1.09237219998613,,,,,,,,,,,,,,,,,,,,,,,,,,,,,,,,,,,,,,,,,,,,,,,,,,,,,,,,,,,,NE67GV,train_y,red_square,bottom_left,2025-02-13_15h38.15.348,HideSeek_v1,2022.2.5,59.96828872293273,
,0,0,0,1,0,1,15,,train_dim1_1,1,30,,,,2,0,2,0,,,,,,,,,0,0,0,0,0,0,0,0,22,0,22,0,,,,,,,,,,,,,,,,,,,,,,,,,,,,,,,,,,,,,,,,,,,,,,,,,,,,,,,,,,,,,,,,30,,,,,,,,1523.588006499922,1523.588006499922,1523.588006499922,1523.588006499922,1523.588006499922,down,1.5443673999980092,0,0,0,99,0.24,-0.07999999999999997,down,1.4594455000478774,,,,,,,,,,,,,,,,,,,,,,,,,,,,,,,,,,,,,,,,,,,,,,,,,,,,,,,,,,,,NE67GV,train_y,red_square,bottom_left,2025-02-13_15h38.15.348,HideSeek_v1,2022.2.5,59.96828872293273,
,0,0,0,1,0,1,15,,train_dim1_1,1,30,,,,2,0,2,0,,,,,,,,,0,0,0,0,0,0,0,0,23,0,23,0,,,,,,,,,,,,,,,,,,,,,,,,,,,,,,,,,,,,,,,,,,,,,,,,,,,,,,,,,,,,,,,,30,,,,,,,,1525.1396051999182,1525.1396051999182,1525.1396051999182,1525.1396051999182,1525.1396051999182,down,1.393962899921462,0,0,0,99,0.24,-0.15999999999999998,down,1.3158551000524312,,,,,,,,,,,,,,,,,,,,,,,,,,,,,,,,,,,,,,,,,,,,,,,,,,,,,,,,,,,,NE67GV,train_y,red_square,bottom_left,2025-02-13_15h38.15.348,HideSeek_v1,2022.2.5,59.96828872293273,
,0,0,0,1,0,1,15,,train_dim1_1,1,30,,,,2,0,2,0,,,,,,,,,0,0,0,0,0,0,0,0,24,0,24,0,,,,,,,,,,,,,,,,,,,,,,,,,,,,,,,,,,,,,,,,,,,,,,,,,,,,,,,,,,,,,,,,30,,,,,,,,1526.5408274999354,1526.5408274999354,1526.5408274999354,1526.5408274999354,1526.5408274999354,down,0.793605700135231,0,0,0,99,0.24,-0.24,down,0.7040887998882681,,,,,,,,,,,,,,,,,,,,,,,,,,,,,,,,,,,,,,,,,,,,,,,,,,,,,,,,,,,,NE67GV,train_y,red_square,bottom_left,2025-02-13_15h38.15.348,HideSeek_v1,2022.2.5,59.96828872293273,
,0,0,0,1,0,1,15,,train_dim1_1,1,30,,,,2,0,2,0,,,,,,,,,0,0,0,0,0,0,0,0,25,0,25,0,,,,,,,,,,,,,,,,,,,,,,,,,,,,,,,,,,,,,,,,,,,,,,,,,,,,,,,,,,,,,,,,30,,,,,,,,1527.3420277000405,1527.3420277000405,1527.3420277000405,1527.3420277000405,1527.3420277000405,down,2.028050299966708,0,0,0,99,0.24,-0.32,down,1.9486900998745114,,,,,,,,,,,,,,,,,,,,,,,,,,,,,,,,,,,,,,,,,,,,,,,,,,,,,,,,,,,,NE67GV,train_y,red_square,bottom_left,2025-02-13_15h38.15.348,HideSeek_v1,2022.2.5,59.96828872293273,
,0,0,0,1,0,1,15,,train_dim1_1,1,30,,,,2,0,2,0,,,,,,,,,0,0,0,0,0,0,0,0,26,0,26,0,,,,,,,,,,,,,,,,,,,,,,,,,,,,,,,,,,,,,,,,,,,,,,,,,,,,,,,,,,,,,,,,30,,,,,,,,1529.3761116999667,1529.3761116999667,1529.3761116999667,1529.3761116999667,1529.3761116999667,down,0.5267837999854237,0,0,0,99,0.24,-0.4,down,0.43502709991298616,,,,,,,,,,,,,,,,,,,,,,,,,,,,,,,,,,,,,,,,,,,,,,,,,,,,,,,,,,,,NE67GV,train_y,red_square,bottom_left,2025-02-13_15h38.15.348,HideSeek_v1,2022.2.5,59.96828872293273,
,0,0,0,1,0,1,15,,train_dim1_1,1,30,,,,2,0,2,0,,,,,,,,,0,0,0,0,0,0,0,0,27,0,27,0,,,,,,,,,,,,,,,,,,,,,,,,,,,,,,,,,,,,,,,,,,,,,,,,,,,,,,,,,,,,,,,,30,,,,,,,,1529.9108827000018,1529.9108827000018,1529.9108827000018,1529.9108827000018,1529.9108827000018,left,0.5765233000274748,0,0,0,99,0.15999999999999998,-0.4,left,0.4845040999352932,,,,,,,,,,,,,,,,,,,,,,,,,,,,,,,,,,,,,,,,,,,,,,,,,,,,,,,,,,,,NE67GV,train_y,red_square,bottom_left,2025-02-13_15h38.15.348,HideSeek_v1,2022.2.5,59.96828872293273,
,0,0,0,1,0,1,15,,train_dim1_1,1,30,,,,2,0,2,0,,,,,,,,,0,0,0,0,0,0,0,0,28,0,28,0,,,,,,,,,,,,,,,,,,,,,,,,,,,,,,,,,,,,,,,,,,,,,,,,,,,,,,,,,,,,,,,,30,,,,,,,,1530.4941817000508,1530.4941817000508,1530.4941817000508,1530.4941817000508,1530.4941817000508,left,0.5768422998953611,0,0,0,99,0.07999999999999997,-0.4,left,0.4933825999032706,,,,,,,,,,,,,,,,,,,,,,,,,,,,,,,,,,,,,,,,,,,,,,,,,,,,,,,,,,,,NE67GV,train_y,red_square,bottom_left,2025-02-13_15h38.15.348,HideSeek_v1,2022.2.5,59.96828872293273,
,0,0,0,1,0,1,15,,train_dim1_1,1,30,,,,2,0,2,0,,,,,,,,,0,0,0,0,0,0,0,0,29,0,29,0,,,,,,,,,,,,,,,,,,,,,,,,,,,,,,,,,,,,,,,,,,,,,,,,,,,,,,,,,,,,,,,,30,,,,,,,,1531.084930999903,1531.084930999903,1531.084930999903,1531.084930999903,1531.084930999903,left,0.3215610000770539,0,0,0,99,-2.7755575615628914e-17,-0.4,left,0.23988980008289218,,,,,,,,,,,,,,,,,,,,,,,,,,,,,,,,,,,,,,,,,,,,,,,,,,,,,,,,,,,,NE67GV,train_y,red_square,bottom_left,2025-02-13_15h38.15.348,HideSeek_v1,2022.2.5,59.96828872293273,
,0,0,0,1,0,1,15,,train_dim1_1,1,30,,,,2,0,2,0,,,,,,,,,0,0,0,0,0,0,0,0,30,0,30,0,,,,,,,,,,,,,,,,,,,,,,,,,,,,,,,,,,,,,,,,,,,,,,,,,,,,,,,,,,,,,,,,30,,,,,,,,1531.411053800024,1531.411053800024,1531.411053800024,1531.411053800024,1531.411053800024,left,0.3598136999644339,0,0,0,99,-0.08000000000000003,-0.4,left,0.27511660009622574,,,,,,,,,,,,,,,,,,,,,,,,,,,,,,,,,,,,,,,,,,,,,,,,,,,,,,,,,,,,NE67GV,train_y,red_square,bottom_left,2025-02-13_15h38.15.348,HideSeek_v1,2022.2.5,59.96828872293273,
,0,0,0,1,0,1,15,,train_dim1_1,1,30,,,,2,0,2,0,,,,,,,,,0,0,0,0,0,0,0,0,31,0,31,0,,,,,,,,,,,,,,,,,,,,,,,,,,,,,,,,,,,,,,,,,,,,,,,,,,,,,,,,,,,,,,,,30,,,,,,,,1531.7781159000006,1531.7781159000006,1531.7781159000006,1531.7781159000006,1531.7781159000006,left,0.3770850000437349,0,0,0,99,-0.16000000000000003,-0.4,left,0.2917724000290036,,,,,,,,,,,,,,,,,,,,,,,,,,,,,,,,,,,,,,,,,,,,,,,,,,,,,,,,,,,,NE67GV,train_y,red_square,bottom_left,2025-02-13_15h38.15.348,HideSeek_v1,2022.2.5,59.96828872293273,
,0,0,0,1,0,1,15,,train_dim1_1,1,30,,,,2,0,2,0,,,,,,,,,0,0,0,0,0,0,0,0,32,0,32,0,,,,,,,,,,,,,,,,,,,,,,,,,,,,,,,,,,,,,,,,,,,,,,,,,,,,,,,,,,,,,,,,30,,,,,,,,1532.1623704000376,1532.1623704000376,1532.1623704000376,1532.1623704000376,1532.1623704000376,up,1.2604291001334786,0,0,0,99,-0.16000000000000003,-0.32,up,1.1671682999003679,,,,,,,,,,,,,,,,,,,,,,,,,,,,,,,,,,,,,,,,,,,,,,,,,,,,,,,,,,,,NE67GV,train_y,red_square,bottom_left,2025-02-13_15h38.15.348,HideSeek_v1,2022.2.5,59.96828872293273,
,0,0,0,1,0,1,15,,train_dim1_1,1,30,,,,2,0,2,0,,,,,,,,,0,0,0,0,0,0,0,0,33,0,33,0,,,,,,,,,,,,,,,,,,,,,,,,,,,,,,,,,,,,,,,,,,,,,,,,,,,,,,,,,,,,,,,,30,,,,,,,,1533.4301938000135,1533.4301938000135,1533.4301938000135,1533.4301938000135,1533.4301938000135,up,0.6767595999408513,0,0,0,99,-0.16000000000000003,-0.24,up,0.5870831001084298,,,,,,,,,,,,,,,,,,,,,,,,,,,,,,,,,,,,,,,,,,,,,,,,,,,,,,,,,,,,NE67GV,train_y,red_square,bottom_left,2025-02-13_15h38.15.348,HideSeek_v1,2022.2.5,59.96828872293273,
,0,0,0,1,0,1,15,,train_dim1_1,1,30,,,,2,0,2,0,,,,,,,,,0,0,0,0,0,0,0,0,34,0,34,0,,,,,,,,,,,,,,,,,,,,,,,,,,,,,,,,,,,,,,,,,,,,,,,,,,,,,,,,,,,,,,,,30,,,,,,,,1534.1136376999784,1534.1136376999784,1534.1136376999784,1534.1136376999784,1534.1136376999784,right,2.6452788999304175,0,0,0,99,-0.08000000000000003,-0.24,right,2.5518863000907004,,,,,,,,,,,,,,,,,,,,,,,,,,,,,,,,,,,,,,,,,,,,,,,,,,,,,,,,,,,,NE67GV,train_y,red_square,bottom_left,2025-02-13_15h38.15.348,HideSeek_v1,2022.2.5,59.96828872293273,
,0,0,0,1,0,1,15,,train_dim1_1,1,30,,,,2,0,2,0,,,,,,,,,0,0,0,0,0,0,0,0,35,0,35,0,,,,,,,,,,,,,,,,,,,,,,,,,,,,,,,,,,,,,,,,,,,,,,,,,,,,,,,,,,,,,,,,30,,,,,,,,1536.7651802999899,1536.7651802999899,1536.7651802999899,1536.7651802999899,1536.7651802999899,right,0.8103130999952555,0,0,0,99,-2.7755575615628914e-17,-0.24,right,0.719832300208509,,,,,,,,,,,,,,,,,,,,,,,,,,,,,,,,,,,,,,,,,,,,,,,,,,,,,,,,,,,,NE67GV,train_y,red_square,bottom_left,2025-02-13_15h38.15.348,HideSeek_v1,2022.2.5,59.96828872293273,
,0,0,0,1,0,1,15,,train_dim1_1,1,30,,,,2,0,2,0,,,,,,,,,0,0,0,0,0,0,0,0,36,0,36,0,,,,,,,,,,,,,,,,,,,,,,,,,,,,,,,,,,,,,,,,,,,,,,,,,,,,,,,,,,,,,,,,30,,,,,,,,1537.5831484999508,1537.5831484999508,1537.5831484999508,1537.5831484999508,1537.5831484999508,right,2.06169190001674,0,0,0,99,0.07999999999999997,-0.24,right,1.9740643000695854,,,,,,,,,,,,,,,,,,,,,,,,,,,,,,,,,,,,,,,,,,,,,,,,,,,,,,,,,,,,NE67GV,train_y,red_square,bottom_left,2025-02-13_15h38.15.348,HideSeek_v1,2022.2.5,59.96828872293273,
,0,0,0,1,0,1,15,,train_dim1_1,1,30,,,,2,0,2,0,,,,,,,,,0,0,0,0,0,0,0,0,37,0,37,0,,,,,,,,,,,,,,,,,,,,,,,,,,,,,,,,,,,,,,,,,,,,,,,,,,,,,,,,,,,,,,,,30,,,,,,,,1539.65155770001,1539.65155770001,1539.65155770001,1539.65155770001,1539.65155770001,right,1.1935837001074106,0,0,0,99,0.15999999999999998,-0.24,right,1.1119701000861824,,,,,,,,,,,,,,,,,,,,,,,,,,,,,,,,,,,,,,,,,,,,,,,,,,,,,,,,,,,,NE67GV,train_y,red_square,bottom_left,2025-02-13_15h38.15.348,HideSeek_v1,2022.2.5,59.96828872293273,
,0,0,0,1,0,1,15,,train_dim1_1,1,30,,,,2,0,2,0,,,,,,,,,0,0,0,0,0,0,0,0,38,0,38,0,,,,,,,,,,,,,,,,,,,,,,,,,,,,,,,,,,,,,,,,,,,,,,,,,,,,,,,,,,,,,,,,30,,,,,,,,1540.852619000012,1540.852619000012,1540.852619000012,1540.852619000012,1540.852619000012,right,0.25999639998190105,0,0,0,99,0.24,-0.24,right,0.1814348001498729,,,,,,,,,,,,,,,,,,,,,,,,,,,,,,,,,,,,,,,,,,,,,,,,,,,,,,,,,,,,NE67GV,train_y,red_square,bottom_left,2025-02-13_15h38.15.348,HideSeek_v1,2022.2.5,59.96828872293273,
,0,0,0,1,0,1,15,,train_dim1_1,1,30,,,,2,0,2,0,,,,,,,,,0,0,0,0,0,0,0,0,39,0,39,0,,,,,,,,,,,,,,,,,,,,,,,,,,,,,,,,,,,,,,,,,,,,,,,,,,,,,,,,,,,,,,,,30,,,,,,,,1541.11923439987,1541.11923439987,1541.11923439987,1541.11923439987,1541.11923439987,right,0.5936316000297666,0,0,0,99,0.32,-0.24,right,0.5011338000185788,,,,,,,,,,,,,,,,,,,,,,,,,,,,,,,,,,,,,,,,,,,,,,,,,,,,,,,,,,,,NE67GV,train_y,red_square,bottom_left,2025-02-13_15h38.15.348,HideSeek_v1,2022.2.5,59.96828872293273,
,0,0,0,1,0,1,15,,train_dim1_1,1,30,,,,2,0,2,0,,,,,,,,,0,0,0,0,0,0,0,0,40,0,40,0,,,,,,,,,,,,,,,,,,,,,,,,,,,,,,,,,,,,,,,,,,,,,,,,,,,,,,,,,,,,,,,,30,,,,,,,,1541.7194828998763,1541.7194828998763,1541.7194828998763,1541.7194828998763,1541.7194828998763,right,0.2433715001679957,0,0,0,99,0.4,-0.24,right,0.1604883000254631,,,,,,,,,,,,,,,,,,,,,,,,,,,,,,,,,,,,,,,,,,,,,,,,,,,,,,,,,,,,NE67GV,train_y,red_square,bottom_left,2025-02-13_15h38.15.348,HideSeek_v1,2022.2.5,59.96828872293273,
,0,0,0,1,0,1,15,,train_dim1_1,1,30,,,,2,0,2,0,,,,,,,,,0,0,0,0,0,0,0,0,41,0,41,0,,,,,,,,,,,,,,,,,,,,,,,,,,,,,,,,,,,,,,,,,,,,,,,,,,,,,,,,,,,,,,,,30,,,,,,,,1541.9698462998495,1541.9698462998495,1541.9698462998495,1541.9698462998495,1541.9698462998495,right,0.3095772999804467,0,0,0,99,0.48000000000000004,-0.24,right,0.22211049986071885,,,,,,,,,,,,,,,,,,,,,,,,,,,,,,,,,,,,,,,,,,,,,,,,,,,,,,,,,,,,NE67GV,train_y,red_square,bottom_left,2025-02-13_15h38.15.348,HideSeek_v1,2022.2.5,59.96828872293273,
,0,0,0,1,0,1,15,,train_dim1_1,1,30,,,,2,0,2,0,,,,,,,,,0,0,0,0,0,0,0,0,42,0,42,0,,,,,,,,,,,,,,,,,,,,,,,,,,,,,,,,,,,,,,,,,,,,,,,,,,,,,,,,,,,,,,,,30,,,,,,,,1542.2870974000543,1542.2870974000543,1542.2870974000543,1542.2870974000543,1542.2870974000543,right,0.2269082001876086,0,0,0,99,0.56,-0.24,right,0.1363139001186937,,,,,,,,,,,,,,,,,,,,,,,,,,,,,,,,,,,,,,,,,,,,,,,,,,,,,,,,,,,,NE67GV,train_y,red_square,bottom_left,2025-02-13_15h38.15.348,HideSeek_v1,2022.2.5,59.96828872293273,
,0,0,0,1,0,1,15,,train_dim1_1,1,30,,,,2,0,2,0,,,,,,,,,0,0,0,0,0,0,0,0,43,0,43,0,,,,,,,,,,,,,,,,,,,,,,,,,,,,,,,,,,,,,,,,,,,,,,,,,,,,,,,,,,,,,,,,30,,,,,,,,1542.520446300041,1542.520446300041,1542.520446300041,1542.520446300041,1542.520446300041,right,0.49387559993192554,0,0,0,99,0.64,-0.24,right,0.40360910003073514,,,,,,,,,,,,,,,,,,,,,,,,,,,,,,,,,,,,,,,,,,,,,,,,,,,,,,,,,,,,NE67GV,train_y,red_square,bottom_left,2025-02-13_15h38.15.348,HideSeek_v1,2022.2.5,59.96828872293273,
,0,0,0,1,0,1,15,,train_dim1_1,1,30,,,,2,0,2,0,,,,,,,,,0,0,0,0,0,0,0,0,44,0,44,0,,,,,,,,,,,,,,,,,,,,,,,,,,,,,,,,,,,,,,,,,,,,,,,,,,,,,,,,,,,,,,,,30,,,,,,,,1543.0220001998823,1543.0220001998823,1543.0220001998823,1543.0220001998823,1543.0220001998823,right,1.0103426999412477,0,0,0,99,0.72,-0.24,right,0.9176878998987377,,,,,,,,,,,,,,,,,,,,,,,,,,,,,,,,,,,,,,,,,,,,,,,,,,,,,,,,,,,,NE67GV,train_y,red_square,bottom_left,2025-02-13_15h38.15.348,HideSeek_v1,2022.2.5,59.96828872293273,
,0,0,0,1,0,1,15,,train_dim1_1,1,30,,,,2,0,2,0,,,,,,,,,0,0,0,0,0,0,0,0,45,0,45,0,,,,,,,,,,,,,,,,,,,,,,,,,,,,,,,,,,,,,,,,,,,,,,,,,,,,,,,,,,,,,,,,30,,,,,,,,1544.0381394000724,1544.0381394000724,1544.0381394000724,1544.0381394000724,1544.0381394000724,left,0.9272813000716269,0,0,0,99,0.64,-0.24,left,0.846143800066784,,,,,,,,,,,,,,,,,,,,,,,,,,,,,,,,,,,,,,,,,,,,,,,,,,,,,,,,,,,,NE67GV,train_y,red_square,bottom_left,2025-02-13_15h38.15.348,HideSeek_v1,2022.2.5,59.96828872293273,
,0,0,0,1,0,1,15,,train_dim1_1,1,30,,,,2,0,2,0,,,,,,,,,0,0,0,0,0,0,0,0,46,0,46,0,,,,,,,,,,,,,,,,,,,,,,,,,,,,,,,,,,,,,,,,,,,,,,,,,,,,,,,,,,,,,,,,30,,,,,,,,1544.9724911998492,1544.9724911998492,1544.9724911998492,1544.9724911998492,1544.9724911998492,left,0.2759802001528442,0,0,0,99,0.56,-0.24,left,0.19740039994940162,,,,,,,,,,,,,,,,,,,,,,,,,,,,,,,,,,,,,,,,,,,,,,,,,,,,,,,,,,,,NE67GV,train_y,red_square,bottom_left,2025-02-13_15h38.15.348,HideSeek_v1,2022.2.5,59.96828872293273,
,0,0,0,1,0,1,15,,train_dim1_1,1,30,,,,2,0,2,0,,,,,,,,,0,0,0,0,0,0,0,0,47,0,47,0,,,,,,,,,,,,,,,,,,,,,,,,,,,,,,,,,,,,,,,,,,,,,,,,,,,,,,,,,,,,,,,,30,,,,,,,,1545.2557677999139,1545.2557677999139,1545.2557677999139,1545.2557677999139,1545.2557677999139,left,0.29310030001215637,0,0,0,99,0.48000000000000004,-0.24,left,0.2138398999813944,,,,,,,,,,,,,,,,,,,,,,,,,,,,,,,,,,,,,,,,,,,,,,,,,,,,,,,,,,,,NE67GV,train_y,red_square,bottom_left,2025-02-13_15h38.15.348,HideSeek_v1,2022.2.5,59.96828872293273,
,0,0,0,1,0,1,15,,train_dim1_1,1,30,,,,2,0,2,0,,,,,,,,,0,0,0,0,0,0,0,0,48,0,48,0,,,,,,,,,,,,,,,,,,,,,,,,,,,,,,,,,,,,,,,,,,,,,,,,,,,,,,,,,,,,,,,,30,,,,,,,,1545.5559872998856,1545.5559872998856,1545.5559872998856,1545.5559872998856,1545.5559872998856,up,1.2775616999715567,0,0,0,99,0.48000000000000004,-0.15999999999999998,up,1.1855445001274347,,,,,,,,,,,,,,,,,,,,,,,,,,,,,,,,,,,,,,,,,,,,,,,,,,,,,,,,,,,,NE67GV,train_y,red_square,bottom_left,2025-02-13_15h38.15.348,HideSeek_v1,2022.2.5,59.96828872293273,
,0,0,0,1,0,1,15,,train_dim1_1,1,30,,,,2,0,2,0,,,,,,,,,0,0,0,0,0,0,0,0,49,0,49,0,,,,,,,,,,,,,,,,,,,,,,,,,,,,,,,,,,,,,,,,,,,,,,,,,,,,,,,,,,,,,,,,30,,,,,,,,1546.8408635999076,1546.8408635999076,1546.8408635999076,1546.8408635999076,1546.8408635999076,up,0.4434124999679625,0,0,0,99,0.48000000000000004,-0.07999999999999997,up,0.3620919999666512,,,,,,,,,,,,,,,,,,,,,,,,,,,,,,,,,,,,,,,,,,,,,,,,,,,,,,,,,,,,NE67GV,train_y,red_square,bottom_left,2025-02-13_15h38.15.348,HideSeek_v1,2022.2.5,59.96828872293273,
,0,0,0,1,0,1,15,,train_dim1_1,1,30,,,,2,0,2,0,,,,,,,,,0,0,0,0,0,0,0,0,50,0,50,0,,,,,,,,,,,,,,,,,,,,,,,,,,,,,,,,,,,,,,,,,,,,,,,,,,,,,,,,,,,,,,,,30,,,,,,,,1547.2908946999814,1547.2908946999814,1547.2908946999814,1547.2908946999814,1547.2908946999814,left,4.630409599980339,0,0,0,99,0.4,-0.07999999999999997,left,4.543497999897227,,,,,,,,,,,,,,,,,,,,,,,,,,,,,,,,,,,,,,,,,,,,,,,,,,,,,,,,,,,,NE67GV,train_y,red_square,bottom_left,2025-02-13_15h38.15.348,HideSeek_v1,2022.2.5,59.96828872293273,
,0,0,0,1,0,1,15,,train_dim1_1,1,30,,,,2,0,2,0,,,,,,,,,0,0,0,0,0,0,0,0,51,0,51,0,,,,,,,,,,,,,,,,,,,,,,,,,,,,,,,,,,,,,,,,,,,,,,,,,,,,,,,,,,,,,,,,30,,,,,,,,1551.9289335999638,1551.9289335999638,1551.9289335999638,1551.9289335999638,1551.9289335999638,left,1.1106292000040412,0,0,0,99,0.32,-0.07999999999999997,left,1.029710500035435,,,,,,,,,,,,,,,,,,,,,,,,,,,,,,,,,,,,,,,,,,,,,,,,,,,,,,,,,,,,NE67GV,train_y,red_square,bottom_left,2025-02-13_15h38.15.348,HideSeek_v1,2022.2.5,59.96828872293273,
,0,0,0,1,0,1,15,,train_dim1_1,1,30,,,,2,0,2,0,,,,,,,,,0,0,0,0,0,0,0,0,52,0,52,0,,,,,,,,,,,,,,,,,,,,,,,,,,,,,,,,,,,,,,,,,,,,,,,,,,,,,,,,,,,,,,,,30,,,,,,,,1553.0454359999858,1553.0454359999858,1553.0454359999858,1553.0454359999858,1553.0454359999858,left,0.3267817001324147,0,0,0,99,0.24,-0.07999999999999997,left,0.2341640000231564,,,,,,,,,,,,,,,,,,,,,,,,,,,,,,,,,,,,,,,,,,,,,,,,,,,,,,,,,,,,NE67GV,train_y,red_square,bottom_left,2025-02-13_15h38.15.348,HideSeek_v1,2022.2.5,59.96828872293273,
,0,0,0,1,0,1,15,,train_dim1_1,1,30,,,,2,0,2,0,,,,,,,,,0,0,0,0,0,0,0,0,53,0,53,0,,,,,,,,,,,,,,,,,,,,,,,,,,,,,,,,,,,,,,,,,,,,,,,,,,,,,,,,,,,,,,,,30,,,,,,,,1553.3801239000168,1553.3801239000168,1553.3801239000168,1553.3801239000168,1553.3801239000168,left,0.29295610007829964,0,0,0,99,0.15999999999999998,-0.07999999999999997,left,0.21355749992653728,,,,,,,,,,,,,,,,,,,,,,,,,,,,,,,,,,,,,,,,,,,,,,,,,,,,,,,,,,,,NE67GV,train_y,red_square,bottom_left,2025-02-13_15h38.15.348,HideSeek_v1,2022.2.5,59.96828872293273,
,0,0,0,1,0,1,15,,train_dim1_1,1,30,,,,2,0,2,0,,,,,,,,,0,0,0,0,0,0,0,0,54,0,54,0,,,,,,,,,,,,,,,,,,,,,,,,,,,,,,,,,,,,,,,,,,,,,,,,,,,,,,,,,,,,,,,,30,,,,,,,,1553.6786283999681,1553.6786283999681,1553.6786283999681,1553.6786283999681,1553.6786283999681,left,0.44329999992623925,0,0,0,99,0.07999999999999997,-0.07999999999999997,left,0.3537157999817282,,,,,,,,,,,,,,,,,,,,,,,,,,,,,,,,,,,,,,,,,,,,,,,,,,,,,,,,,,,,NE67GV,train_y,red_square,bottom_left,2025-02-13_15h38.15.348,HideSeek_v1,2022.2.5,59.96828872293273,
,0,0,0,1,0,1,15,,train_dim1_1,1,30,,,,2,0,2,0,,,,,,,,,0,0,0,0,0,0,0,0,55,0,55,0,,,,,,,,,,,,,,,,,,,,,,,,,,,,,,,,,,,,,,,,,,,,,,,,,,,,,,,,,,,,,,,,30,,,,,,,,1554.1300180999096,1554.1300180999096,1554.1300180999096,1554.1300180999096,1554.1300180999096,left,0.2934512998908758,0,0,0,99,-2.7755575615628914e-17,-0.07999999999999997,left,0.21143519994802773,,,,,,,,,,,,,,,,,,,,,,,,,,,,,,,,,,,,,,,,,,,,,,,,,,,,,,,,,,,,NE67GV,train_y,red_square,bottom_left,2025-02-13_15h38.15.348,HideSeek_v1,2022.2.5,59.96828872293273,
,0,0,0,1,0,1,15,,train_dim1_1,1,30,,,,2,0,2,0,,,,,,,,,0,0,0,0,0,0,0,0,56,0,56,0,,,,,,,,,,,,,,,,,,,,,,,,,,,,,,,,,,,,,,,,,,,,,,,,,,,,,,,,,,,,,,,,30,,,,,,,,1554.4301529000513,1554.4301529000513,1554.4301529000513,1554.4301529000513,1554.4301529000513,left,0.3095742999576032,0,0,0,99,-0.08000000000000003,-0.07999999999999997,left,0.23334649996832013,,,,,,,,,,,,,,,,,,,,,,,,,,,,,,,,,,,,,,,,,,,,,,,,,,,,,,,,,,,,NE67GV,train_y,red_square,bottom_left,2025-02-13_15h38.15.348,HideSeek_v1,2022.2.5,59.96828872293273,
,0,0,0,1,0,1,15,,train_dim1_1,1,30,,,,2,0,2,0,,,,,,,,,0,0,0,0,0,0,0,0,57,0,57,0,,,,,,,,,,,,,,,,,,,,,,,,,,,,,,,,,,,,,,,,,,,,,,,,,,,,,,,,,,,,,,,,30,,,,,,,,1554.746861499967,1554.746861499967,1554.746861499967,1554.746861499967,1554.746861499967,left,0.3099964000284672,0,0,0,99,-0.16000000000000003,-0.07999999999999997,left,0.23358459980227053,,,,,,,,,,,,,,,,,,,,,,,,,,,,,,,,,,,,,,,,,,,,,,,,,,,,,,,,,,,,NE67GV,train_y,red_square,bottom_left,2025-02-13_15h38.15.348,HideSeek_v1,2022.2.5,59.96828872293273,
,0,0,0,1,0,1,15,,train_dim1_1,1,30,,,,2,0,2,0,,,,,,,,,0,0,0,0,0,0,0,0,58,0,58,0,,,,,,,,,,,,,,,,,,,,,,,,,,,,,,,,,,,,,,,,,,,,,,,,,,,,,,,,,,,,,,,,30,,,,,,,,1555.064218299929,1555.064218299929,1555.064218299929,1555.064218299929,1555.064218299929,left,0.34338259999640286,0,0,0,99,-0.24000000000000005,-0.07999999999999997,left,0.2550973000470549,,,,,,,,,,,,,,,,,,,,,,,,,,,,,,,,,,,,,,,,,,,,,,,,,,,,,,,,,,,,NE67GV,train_y,red_square,bottom_left,2025-02-13_15h38.15.348,HideSeek_v1,2022.2.5,59.96828872293273,
,0,0,0,1,0,1,15,,train_dim1_1,1,30,,,,2,0,2,0,,,,,,,,,0,0,0,0,0,0,0,0,59,0,59,0,,,,,,,,,,,,,,,,,,,,,,,,,,,,,,,,,,,,,,,,,,,,,,,,,,,,,,,,,,,,,,,,30,,,,,,,,1555.4150912000332,1555.4150912000332,1555.4150912000332,1555.4150912000332,1555.4150912000332,left,0.34346770006231964,0,0,0,99,-0.32000000000000006,-0.07999999999999997,left,0.2659045001491904,,,,,,,,,,,,,,,,,,,,,,,,,,,,,,,,,,,,,,,,,,,,,,,,,,,,,,,,,,,,NE67GV,train_y,red_square,bottom_left,2025-02-13_15h38.15.348,HideSeek_v1,2022.2.5,59.96828872293273,
,0,0,0,1,0,1,15,,train_dim1_1,1,30,,,,2,0,2,0,,,,,,,,,0,0,0,0,0,0,0,0,60,0,60,0,,,,,,,,,,,,,,,,,,,,,,,,,,,,,,,,,,,,,,,,,,,,,,,,,,,,,,,,,,,,,,,,30,,,,,,,,1555.7659926000051,1555.7659926000051,1555.7659926000051,1555.7659926000051,1555.7659926000051,left,0.325237900018692,0,0,0,99,-0.4000000000000001,-0.07999999999999997,left,0.23368950001895428,,,,,,,,,,,,,,,,,,,,,,,,,,,,,,,,,,,,,,,,,,,,,,,,,,,,,,,,,,,,NE67GV,train_y,red_square,bottom_left,2025-02-13_15h38.15.348,HideSeek_v1,2022.2.5,59.96828872293273,
,0,0,0,1,0,1,15,,train_dim1_1,1,30,,,,2,0,2,0,,,,,,,,,0,0,0,0,0,0,0,0,61,0,61,0,,,,,,,,,,,,,,,,,,,,,,,,,,,,,,,,,,,,,,,,,,,,,,,,,,,,,,,,,,,,,,,,30,,,,,,,,1556.099349499913,1556.099349499913,1556.099349499913,1556.099349499913,1556.099349499913,left,0.3264047000557184,0,0,0,99,-0.4800000000000001,-0.07999999999999997,left,0.24289910006336868,,,,,,,,,,,,,,,,,,,,,,,,,,,,,,,,,,,,,,,,,,,,,,,,,,,,,,,,,,,,NE67GV,train_y,red_square,bottom_left,2025-02-13_15h38.15.348,HideSeek_v1,2022.2.5,59.96828872293273,
,0,0,0,1,0,1,15,,train_dim1_1,1,30,,,,2,0,2,0,,,,,,,,,0,0,0,0,0,0,0,0,62,0,62,0,,,,,,,,,,,,,,,,,,,,,,,,,,,,,,,,,,,,,,,,,,,,,,,,,,,,,,,,,,,,,,,,30,,,,,,,,1556.4324592999183,1556.4324592999183,1556.4324592999183,1556.4324592999183,1556.4324592999183,left,0.6437394998501986,0,0,0,99,-0.56,-0.07999999999999997,left,0.5614006000105292,,,,,,,,,,,,,,,,,,,,,,,,,,,,,,,,,,,,,,,,,,,,,,,,,,,,,,,,,,,,NE67GV,train_y,red_square,bottom_left,2025-02-13_15h38.15.348,HideSeek_v1,2022.2.5,59.96828872293273,
,0,0,0,1,0,1,15,,train_dim1_1,1,30,,,,2,0,2,0,,,,,,,,,0,0,0,0,0,0,0,0,63,0,63,0,,,,,,,,,,,,,,,,,,,,,,,,,,,,,,,,,,,,,,,,,,,,,,,,,,,,,,,,,,,,,,,,30,,,,,,,,1557.0841081000399,1557.0841081000399,1557.0841081000399,1557.0841081000399,1557.0841081000399,up,0.926497699925676,0,0,0,99,-0.56,2.7755575615628914e-17,up,0.8341047000139952,,,,,,,,,,,,,,,,,,,,,,,,,,,,,,,,,,,,,,,,,,,,,,,,,,,,,,,,,,,,NE67GV,train_y,red_square,bottom_left,2025-02-13_15h38.15.348,HideSeek_v1,2022.2.5,59.96828872293273,
,0,0,0,1,0,1,15,,train_dim1_1,1,30,,,,2,0,2,0,,,,,,,,,0,0,0,0,0,0,0,0,64,0,64,0,,,,,,,,,,,,,,,,,,,,,,,,,,,,,,,,,,,,,,,,,,,,,,,,,,,,,,,,,,,,,,,,30,,,,,,,,1558.0176460999064,1558.0176460999064,1558.0176460999064,1558.0176460999064,1558.0176460999064,up,0.343198100104928,0,0,0,99,-0.56,0.08000000000000003,up,0.2649450001772493,,,,,,,,,,,,,,,,,,,,,,,,,,,,,,,,,,,,,,,,,,,,,,,,,,,,,,,,,,,,NE67GV,train_y,red_square,bottom_left,2025-02-13_15h38.15.348,HideSeek_v1,2022.2.5,59.96828872293273,
,0,0,0,1,0,1,15,,train_dim1_1,1,30,,,,2,0,2,0,,,,,,,,,0,0,0,0,0,0,0,0,65,0,65,0,,,,,,,,,,,,,,,,,,,,,,,,,,,,,,,,,,,,,,,,,,,,,,,,,,,,,,,,,,,,,,,,30,,,,,,,,1558.3678653999232,1558.3678653999232,1558.3678653999232,1558.3678653999232,1558.3678653999232,up,0.30968760000541806,0,0,0,99,-0.56,0.16000000000000003,up,0.2242244000080973,,,,,,,,,,,,,,,,,,,,,,,,,,,,,,,,,,,,,,,,,,,,,,,,,,,,,,,,,,,,NE67GV,train_y,red_square,bottom_left,2025-02-13_15h38.15.348,HideSeek_v1,2022.2.5,59.96828872293273,
,0,0,0,1,0,1,15,,train_dim1_1,1,30,,,,2,0,2,0,,,,,,,,,0,0,0,0,0,0,0,0,66,0,66,0,,,,,,,,,,,,,,,,,,,,,,,,,,,,,,,,,,,,,,,,,,,,,,,,,,,,,,,,,,,,,,,,30,,,,,,,,1558.6841921999585,1558.6841921999585,1558.6841921999585,1558.6841921999585,1558.6841921999585,down,2.0449078001547605,0,0,0,99,-0.56,0.08000000000000003,down,1.9511468999553472,,,,,,,,,,,,,,,,,,,,,,,,,,,,,,,,,,,,,,,,,,,,,,,,,,,,,,,,,,,,NE67GV,train_y,red_square,bottom_left,2025-02-13_15h38.15.348,HideSeek_v1,2022.2.5,59.96828872293273,
,0,0,0,1,0,1,15,,train_dim1_1,1,30,,,,2,0,2,0,,,,,,,,,0,0,0,0,0,0,0,0,67,0,67,0,,,,,,,,,,,,,,,,,,,,,,,,,,,,,,,,,,,,,,,,,,,,,,,,,,,,,,,,,,,,,,,,30,,,,,,,,1560.7360602000263,1560.7360602000263,1560.7360602000263,1560.7360602000263,1560.7360602000263,down,1.2169886000920087,0,0,0,99,-0.56,2.7755575615628914e-17,down,1.1298472001217306,,,,,,,,,,,,,,,,,,,,,,,,,,,,,,,,,,,,,,,,,,,,,,,,,,,,,,,,,,,,NE67GV,train_y,red_square,bottom_left,2025-02-13_15h38.15.348,HideSeek_v1,2022.2.5,59.96828872293273,
,0,0,0,1,0,1,15,,train_dim1_1,1,30,,,,2,0,2,0,,,,,,,,,0,0,0,0,0,0,0,0,68,0,68,0,,,,,,,,,,,,,,,,,,,,,,,,,,,,,,,,,,,,,,,,,,,,,,,,,,,,,,,,,,,,,,,,30,,,,,,,,1561.9698496998753,1561.9698496998753,1561.9698496998753,1561.9698496998753,1561.9698496998753,up,1.5467308999504894,0,0,0,99,-0.56,0.08000000000000003,up,1.4583608999382704,,,,,,,,,,,,,,,,,,,,,,,,,,,,,,,,,,,,,,,,,,,,,,,,,,,,,,,,,,,,NE67GV,train_y,red_square,bottom_left,2025-02-13_15h38.15.348,HideSeek_v1,2022.2.5,59.96828872293273,
,0,0,0,1,0,1,15,,train_dim1_1,1,30,,,,2,0,2,0,,,,,,,,,0,0,0,0,0,0,0,0,69,0,69,0,,,,,,,,,,,,,,,,,,,,,,,,,,,,,,,,,,,,,,,,,,,,,,,,,,,,,,,,,,,,,,,,30,,,,,,,,1563.521203899989,1563.521203899989,1563.521203899989,1563.521203899989,1563.521203899989,up,0.5432873000390828,0,0,0,99,-0.56,0.16000000000000003,up,0.4606888999696821,,,,,,,,,,,,,,,,,,,,,,,,,,,,,,,,,,,,,,,,,,,,,,,,,,,,,,,,,,,,NE67GV,train_y,red_square,bottom_left,2025-02-13_15h38.15.348,HideSeek_v1,2022.2.5,59.96828872293273,
,0,0,0,1,0,1,15,,train_dim1_1,1,30,,,,2,0,2,0,,,,,,,,,0,0,0,0,0,0,0,0,70,0,70,0,,,,,,,,,,,,,,,,,,,,,,,,,,,,,,,,,,,,,,,,,,,,,,,,,,,,,,,,,,,,,,,,30,,,,,,,,1564.0713907999452,1564.0713907999452,1564.0713907999452,1564.0713907999452,1564.0713907999452,up,0.7105388999916613,0,0,0,99,-0.56,0.24000000000000005,up,0.6226096998434514,,,,,,,,,,,,,,,,,,,,,,,,,,,,,,,,,,,,,,,,,,,,,,,,,,,,,,,,,,,,NE67GV,train_y,red_square,bottom_left,2025-02-13_15h38.15.348,HideSeek_v1,2022.2.5,59.96828872293273,
,0,0,0,1,0,1,15,,train_dim1_1,1,30,,,,2,0,2,0,,,,,,,,,0,0,0,0,0,0,0,0,71,0,71,0,,,,,,,,,,,,,,,,,,,,,,,,,,,,,,,,,,,,,,,,,,,,,,,,,,,,,,,,,,,,,,,,30,,,,,,,,1564.7941604000516,1564.7941604000516,1564.7941604000516,1564.7941604000516,1564.7941604000516,return,0.8573167999275029,0,0,0,0,-0.56,0.24000000000000005,return,0.7753419999498874,8,-5,-0.56,0.24000000000000005,,,,,,,,,,,,,,,,,,,,,,,,,,,,,,,,,,,,,,,,,,,,,,,,,,,,,,,,NE67GV,train_y,red_square,bottom_left,2025-02-13_15h38.15.348,HideSeek_v1,2022.2.5,59.96828872293273,
,3,2,3,2,0,0,16,,train_dim1_1,2,30,,,,2,0,2,0,,,,,,,,,0,0,0,0,0,1,1,1,0,0,0,0,,,,,,,,,,,,,,,,,,,,,,,,,stimuli/alien_stimuli/16.png,,,,,,,,,,,,,,,,,,,,,,,,,,,,,stimuli/alien_stimuli/15.png,15,0,3,,,,,,,30,,,,,,,,1750.7346910999622,1750.7346910999622,1750.7346910999622,1750.7346910999622,1750.7346910999622,up,7.110489699989557,0,0,0,99,0.08,-0.15999999999999998,up,7.009342000121251,,,,,1749.1571140000597,1750.7346910999622,-0.16,-0.32,0.08,0.0,-0.36,-0.16,-0.16,-0.16,-0.32,1567.2462273000274,1567.2462273000274,1567.2462273000274,1567.2462273000274,1567.2462273000274,1567.2462273000274,1567.2462273000274,1567.2462273000274,1567.2402827799322,182.05243619997054,return,181.8897553998977,,,,,,,,,,,,,,,,,,,,,,,,,,,,,,,,,NE67GV,train_y,red_square,bottom_left,2025-02-13_15h38.15.348,HideSeek_v1,2022.2.5,59.96828872293273,
,3,2,3,2,0,0,16,,train_dim1_1,2,30,,,,2,0,2,0,,,,,,,,,0,0,0,0,0,1,1,1,1,0,1,0,,,,,,,,,,,,,,,,,,,,,,,,,,,,,,,,,,,,,,,,,,,,,,,,,,,,,,,,,,,,,,,,30,,,,,,,,1757.8324911000673,1757.8324911000673,1757.8324911000673,1757.8324911000673,1757.8324911000673,left,0.7100096999201924,0,0,0,99,0.0,-0.15999999999999998,left,0.6225094001274556,,,,,,,,,,,,,,,,,,,,,,,,,,,,,,,,,,,,,,,,,,,,,,,,,,,,,,,,,,,,NE67GV,train_y,red_square,bottom_left,2025-02-13_15h38.15.348,HideSeek_v1,2022.2.5,59.96828872293273,
,3,2,3,2,0,0,16,,train_dim1_1,2,30,,,,2,0,2,0,,,,,,,,,0,0,0,0,0,1,1,1,2,0,2,0,,,,,,,,,,,,,,,,,,,,,,,,,,,,,,,,,,,,,,,,,,,,,,,,,,,,,,,,,,,,,,,,30,,,,,,,,1758.5491416000295,1758.5491416000295,1758.5491416000295,1758.5491416000295,1758.5491416000295,left,0.7935697000939399,0,0,0,99,-0.08,-0.15999999999999998,left,0.7063982000108808,,,,,,,,,,,,,,,,,,,,,,,,,,,,,,,,,,,,,,,,,,,,,,,,,,,,,,,,,,,,NE67GV,train_y,red_square,bottom_left,2025-02-13_15h38.15.348,HideSeek_v1,2022.2.5,59.96828872293273,
,3,2,3,2,0,0,16,,train_dim1_1,2,30,,,,2,0,2,0,,,,,,,,,0,0,0,0,0,1,1,1,3,0,3,0,,,,,,,,,,,,,,,,,,,,,,,,,,,,,,,,,,,,,,,,,,,,,,,,,,,,,,,,,,,,,,,,30,,,,,,,,1759.3501045999583,1759.3501045999583,1759.3501045999583,1759.3501045999583,1759.3501045999583,right,1.4269010000862181,0,0,0,99,0.0,-0.15999999999999998,right,1.3469129998702556,,,,,,,,,,,,,,,,,,,,,,,,,,,,,,,,,,,,,,,,,,,,,,,,,,,,,,,,,,,,NE67GV,train_y,red_square,bottom_left,2025-02-13_15h38.15.348,HideSeek_v1,2022.2.5,59.96828872293273,
,3,2,3,2,0,0,16,,train_dim1_1,2,30,,,,2,0,2,0,,,,,,,,,0,0,0,0,0,1,1,1,4,0,4,0,,,,,,,,,,,,,,,,,,,,,,,,,,,,,,,,,,,,,,,,,,,,,,,,,,,,,,,,,,,,,,,,30,,,,,,,,1760.7836455998477,1760.7836455998477,1760.7836455998477,1760.7836455998477,1760.7836455998477,right,0.5770606999285519,0,0,0,99,0.08,-0.15999999999999998,right,0.49022450018674135,,,,,,,,,,,,,,,,,,,,,,,,,,,,,,,,,,,,,,,,,,,,,,,,,,,,,,,,,,,,NE67GV,train_y,red_square,bottom_left,2025-02-13_15h38.15.348,HideSeek_v1,2022.2.5,59.96828872293273,
,3,2,3,2,0,0,16,,train_dim1_1,2,30,,,,2,0,2,0,,,,,,,,,0,0,0,0,0,1,1,1,5,0,5,0,,,,,,,,,,,,,,,,,,,,,,,,,,,,,,,,,,,,,,,,,,,,,,,,,,,,,,,,,,,,,,,,30,,,,,,,,1761.3674975999165,1761.3674975999165,1761.3674975999165,1761.3674975999165,1761.3674975999165,return,2.778674199944362,0,1,0,0,0.08,-0.15999999999999998,return,2.6888508000411093,9,-5,0.08,-0.15999999999999998,,,,,,,,,,,,,,,,,,,,,,,,,,,,,,,,,,,,,,,,,,,,,,,,,,,,,,,,NE67GV,train_y,red_square,bottom_left,2025-02-13_15h38.15.348,HideSeek_v1,2022.2.5,59.96828872293273,
,2,3,2,6,0,3,13,,train_dim1_1,3,30,,,,2,0,2,0,,,,,,,,,0,0,0,0,0,2,2,2,0,0,0,0,,,,,,,,,,,,,,,,,,,,,,,,,stimuli/alien_stimuli/13.png,,,,,,,,,,,,,,,,,,,,,,,,,,,,,stimuli/alien_stimuli/16.png,16,3,4,,,,,,,30,,,,,,,,1792.028003100073,1792.028003100073,1792.028003100073,1792.028003100073,1792.028003100073,up,4.0925612999126315,0,1,0,99,0,-0.08,up,3.986507299821824,,,,,1790.4579596000258,1792.028003100073,0.08,-0.24,0.0,0.0,-0.24,0.08,0.08,0.08,-0.24,1765.7234382000752,1765.7234382000752,1765.7234382000752,1765.7234382000752,1765.7234382000752,1765.7234382000752,1765.7234382000752,1765.7234382000752,1765.72089385991,24.856586000183597,return,24.71523500001058,,,,,,,,,,,,,,,,,,,,,,,,,,,,,,,,,NE67GV,train_y,red_square,bottom_left,2025-02-13_15h38.15.348,HideSeek_v1,2022.2.5,59.96828872293273,
,2,3,2,6,0,3,13,,train_dim1_1,3,30,,,,2,0,2,0,,,,,,,,,0,0,0,0,0,2,2,2,1,0,1,0,,,,,,,,,,,,,,,,,,,,,,,,,,,,,,,,,,,,,,,,,,,,,,,,,,,,,,,,,,,,,,,,30,,,,,,,,1796.1147346000653,1796.1147346000653,1796.1147346000653,1796.1147346000653,1796.1147346000653,right,1.7274172001052648,0,1,0,99,0.08,-0.08,right,1.6369199000764638,,,,,,,,,,,,,,,,,,,,,,,,,,,,,,,,,,,,,,,,,,,,,,,,,,,,,,,,,,,,NE67GV,train_y,red_square,bottom_left,2025-02-13_15h38.15.348,HideSeek_v1,2022.2.5,59.96828872293273,
,2,3,2,6,0,3,13,,train_dim1_1,3,30,,,,2,0,2,0,,,,,,,,,0,0,0,0,0,2,2,2,2,0,2,0,,,,,,,,,,,,,,,,,,,,,,,,,,,,,,,,,,,,,,,,,,,,,,,,,,,,,,,,,,,,,,,,30,,,,,,,,1797.8510596000124,1797.8510596000124,1797.8510596000124,1797.8510596000124,1797.8510596000124,right,1.2599371999967843,0,1,0,99,0.16,-0.08,right,1.1735789999365807,,,,,,,,,,,,,,,,,,,,,,,,,,,,,,,,,,,,,,,,,,,,,,,,,,,,,,,,,,,,NE67GV,train_y,red_square,bottom_left,2025-02-13_15h38.15.348,HideSeek_v1,2022.2.5,59.96828872293273,
,2,3,2,6,0,3,13,,train_dim1_1,3,30,,,,2,0,2,0,,,,,,,,,0,0,0,0,0,2,2,2,3,0,3,0,,,,,,,,,,,,,,,,,,,,,,,,,,,,,,,,,,,,,,,,,,,,,,,,,,,,,,,,,,,,,,,,30,,,,,,,,1799.1159214000218,1799.1159214000218,1799.1159214000218,1799.1159214000218,1799.1159214000218,right,0.8436958000529557,0,1,0,99,0.24,-0.08,right,0.7510344001930207,,,,,,,,,,,,,,,,,,,,,,,,,,,,,,,,,,,,,,,,,,,,,,,,,,,,,,,,,,,,NE67GV,train_y,red_square,bottom_left,2025-02-13_15h38.15.348,HideSeek_v1,2022.2.5,59.96828872293273,
,2,3,2,6,0,3,13,,train_dim1_1,3,30,,,,2,0,2,0,,,,,,,,,0,0,0,0,0,2,2,2,4,0,4,0,,,,,,,,,,,,,,,,,,,,,,,,,,,,,,,,,,,,,,,,,,,,,,,,,,,,,,,,,,,,,,,,30,,,,,,,,1799.9663281000685,1799.9663281000685,1799.9663281000685,1799.9663281000685,1799.9663281000685,up,0.9439270999282598,0,1,0,99,0.24,0.0,up,0.8520321999676526,,,,,,,,,,,,,,,,,,,,,,,,,,,,,,,,,,,,,,,,,,,,,,,,,,,,,,,,,,,,NE67GV,train_y,red_square,bottom_left,2025-02-13_15h38.15.348,HideSeek_v1,2022.2.5,59.96828872293273,
,2,3,2,6,0,3,13,,train_dim1_1,3,30,,,,2,0,2,0,,,,,,,,,0,0,0,0,0,2,2,2,5,0,5,0,,,,,,,,,,,,,,,,,,,,,,,,,,,,,,,,,,,,,,,,,,,,,,,,,,,,,,,,,,,,,,,,30,,,,,,,,1800.9167158000637,1800.9167158000637,1800.9167158000637,1800.9167158000637,1800.9167158000637,down,1.5109188999049366,0,1,0,99,0.24,-0.08,down,1.4258902999572456,,,,,,,,,,,,,,,,,,,,,,,,,,,,,,,,,,,,,,,,,,,,,,,,,,,,,,,,,,,,NE67GV,train_y,red_square,bottom_left,2025-02-13_15h38.15.348,HideSeek_v1,2022.2.5,59.96828872293273,
,2,3,2,6,0,3,13,,train_dim1_1,3,30,,,,2,0,2,0,,,,,,,,,0,0,0,0,0,2,2,2,6,0,6,0,,,,,,,,,,,,,,,,,,,,,,,,,,,,,,,,,,,,,,,,,,,,,,,,,,,,,,,,,,,,,,,,30,,,,,,,,1802.4349861999508,1802.4349861999508,1802.4349861999508,1802.4349861999508,1802.4349861999508,down,0.5099818001035601,0,1,0,99,0.24,-0.16,down,0.42510839994065464,,,,,,,,,,,,,,,,,,,,,,,,,,,,,,,,,,,,,,,,,,,,,,,,,,,,,,,,,,,,NE67GV,train_y,red_square,bottom_left,2025-02-13_15h38.15.348,HideSeek_v1,2022.2.5,59.96828872293273,
,2,3,2,6,0,3,13,,train_dim1_1,3,30,,,,2,0,2,0,,,,,,,,,0,0,0,0,0,2,2,2,7,0,7,0,,,,,,,,,,,,,,,,,,,,,,,,,,,,,,,,,,,,,,,,,,,,,,,,,,,,,,,,,,,,,,,,30,,,,,,,,1802.952594500035,1802.952594500035,1802.952594500035,1802.952594500035,1802.952594500035,return,0.6768783999141306,0,0,0,0,0.24,-0.16,return,0.5938093001022935,9,-2,0.24,-0.16,,,,,,,,,,,,,,,,,,,,,,,,,,,,,,,,,,,,,,,,,,,,,,,,,,,,,,,,NE67GV,train_y,red_square,bottom_left,2025-02-13_15h38.15.348,HideSeek_v1,2022.2.5,59.96828872293273,
,0,1,0,5,0,4,12,,train_dim1_1,4,30,,,,2,0,2,0,,,,,,,,,0,0,0,0,0,3,3,3,0,0,0,0,,,,,,,,,,,,,,,,,,,,,,,,,stimuli/alien_stimuli/12.png,,,,,,,,,,,,,,,,,,,,,,,,,,,,,stimuli/alien_stimuli/13.png,13,2,5,,,,,,,30,,,,,,,,1830.5627619998995,1830.5627619998995,1830.5627619998995,1830.5627619998995,1830.5627619998995,right,6.594518299913034,0,0,0,99,-0.08,-0.32,right,6.498367300024256,,,,,1828.9898818999063,1830.5627619998995,0,0.08,0.24,0.0,-0.04,0,0.0,0,0.08,1805.2103430998977,1805.2103430998977,1805.2103430998977,1805.2103430998977,1805.2103430998977,1805.2103430998977,1805.2103430998977,1805.2103430998977,1805.2039214598947,23.904980800114572,return,23.75821420014836,,,,,,,,,,,,,,,,,,,,,,,,,,,,,,,,,NE67GV,train_y,red_square,bottom_left,2025-02-13_15h38.15.348,HideSeek_v1,2022.2.5,59.96828872293273,
,0,1,0,5,0,4,12,,train_dim1_1,4,30,,,,2,0,2,0,,,,,,,,,0,0,0,0,0,3,3,3,1,0,1,0,,,,,,,,,,,,,,,,,,,,,,,,,,,,,,,,,,,,,,,,,,,,,,,,,,,,,,,,,,,,,,,,30,,,,,,,,1837.1486783998553,1837.1486783998553,1837.1486783998553,1837.1486783998553,1837.1486783998553,left,2.311004600021988,0,0,0,99,-0.16,-0.32,left,2.2323938999325037,,,,,,,,,,,,,,,,,,,,,,,,,,,,,,,,,,,,,,,,,,,,,,,,,,,,,,,,,,,,NE67GV,train_y,red_square,bottom_left,2025-02-13_15h38.15.348,HideSeek_v1,2022.2.5,59.96828872293273,
,0,1,0,5,0,4,12,,train_dim1_1,4,30,,,,2,0,2,0,,,,,,,,,0,0,0,0,0,3,3,3,2,0,2,0,,,,,,,,,,,,,,,,,,,,,,,,,,,,,,,,,,,,,,,,,,,,,,,,,,,,,,,,,,,,,,,,30,,,,,,,,1839.465987100033,1839.465987100033,1839.465987100033,1839.465987100033,1839.465987100033,up,1.2277333999518305,0,0,0,99,-0.16,-0.24,up,1.1424009001348168,,,,,,,,,,,,,,,,,,,,,,,,,,,,,,,,,,,,,,,,,,,,,,,,,,,,,,,,,,,,NE67GV,train_y,red_square,bottom_left,2025-02-13_15h38.15.348,HideSeek_v1,2022.2.5,59.96828872293273,
,0,1,0,5,0,4,12,,train_dim1_1,4,30,,,,2,0,2,0,,,,,,,,,0,0,0,0,0,3,3,3,3,0,3,0,,,,,,,,,,,,,,,,,,,,,,,,,,,,,,,,,,,,,,,,,,,,,,,,,,,,,,,,,,,,,,,,30,,,,,,,,1840.7006151999813,1840.7006151999813,1840.7006151999813,1840.7006151999813,1840.7006151999813,up,0.6104204000439495,0,0,0,99,-0.16,-0.15999999999999998,up,0.5241376000922173,,,,,,,,,,,,,,,,,,,,,,,,,,,,,,,,,,,,,,,,,,,,,,,,,,,,,,,,,,,,NE67GV,train_y,red_square,bottom_left,2025-02-13_15h38.15.348,HideSeek_v1,2022.2.5,59.96828872293273,
,0,1,0,5,0,4,12,,train_dim1_1,4,30,,,,2,0,2,0,,,,,,,,,0,0,0,0,0,3,3,3,4,0,4,0,,,,,,,,,,,,,,,,,,,,,,,,,,,,,,,,,,,,,,,,,,,,,,,,,,,,,,,,,,,,,,,,30,,,,,,,,1841.3173517000396,1841.3173517000396,1841.3173517000396,1841.3173517000396,1841.3173517000396,up,0.5269212999846786,0,0,0,99,-0.16,-0.07999999999999997,up,0.44248569989576936,,,,,,,,,,,,,,,,,,,,,,,,,,,,,,,,,,,,,,,,,,,,,,,,,,,,,,,,,,,,NE67GV,train_y,red_square,bottom_left,2025-02-13_15h38.15.348,HideSeek_v1,2022.2.5,59.96828872293273,
,0,1,0,5,0,4,12,,train_dim1_1,4,30,,,,2,0,2,0,,,,,,,,,0,0,0,0,0,3,3,3,5,0,5,0,,,,,,,,,,,,,,,,,,,,,,,,,,,,,,,,,,,,,,,,,,,,,,,,,,,,,,,,,,,,,,,,30,,,,,,,,1841.8571641999297,1841.8571641999297,1841.8571641999297,1841.8571641999297,1841.8571641999297,up,2.7741119998972863,0,0,0,99,-0.16,2.7755575615628914e-17,up,2.6816578002180904,,,,,,,,,,,,,,,,,,,,,,,,,,,,,,,,,,,,,,,,,,,,,,,,,,,,,,,,,,,,NE67GV,train_y,red_square,bottom_left,2025-02-13_15h38.15.348,HideSeek_v1,2022.2.5,59.96828872293273,
,0,1,0,5,0,4,12,,train_dim1_1,4,30,,,,2,0,2,0,,,,,,,,,0,0,0,0,0,3,3,3,6,0,6,0,,,,,,,,,,,,,,,,,,,,,,,,,,,,,,,,,,,,,,,,,,,,,,,,,,,,,,,,,,,,,,,,30,,,,,,,,1844.6366401000414,1844.6366401000414,1844.6366401000414,1844.6366401000414,1844.6366401000414,up,0.3600285998545587,0,0,0,99,-0.16,0.08000000000000003,up,0.284090300090611,,,,,,,,,,,,,,,,,,,,,,,,,,,,,,,,,,,,,,,,,,,,,,,,,,,,,,,,,,,,NE67GV,train_y,red_square,bottom_left,2025-02-13_15h38.15.348,HideSeek_v1,2022.2.5,59.96828872293273,
,0,1,0,5,0,4,12,,train_dim1_1,4,30,,,,2,0,2,0,,,,,,,,,0,0,0,0,0,3,3,3,7,0,7,0,,,,,,,,,,,,,,,,,,,,,,,,,,,,,,,,,,,,,,,,,,,,,,,,,,,,,,,,,,,,,,,,30,,,,,,,,1845.0052767999005,1845.0052767999005,1845.0052767999005,1845.0052767999005,1845.0052767999005,down,1.2104415001813322,0,0,0,99,-0.16,2.7755575615628914e-17,down,1.1209617999847978,,,,,,,,,,,,,,,,,,,,,,,,,,,,,,,,,,,,,,,,,,,,,,,,,,,,,,,,,,,,NE67GV,train_y,red_square,bottom_left,2025-02-13_15h38.15.348,HideSeek_v1,2022.2.5,59.96828872293273,
,0,1,0,5,0,4,12,,train_dim1_1,4,30,,,,2,0,2,0,,,,,,,,,0,0,0,0,0,3,3,3,8,0,8,0,,,,,,,,,,,,,,,,,,,,,,,,,,,,,,,,,,,,,,,,,,,,,,,,,,,,,,,,,,,,,,,,30,,,,,,,,1846.2230795000214,1846.2230795000214,1846.2230795000214,1846.2230795000214,1846.2230795000214,down,0.32621229998767376,0,0,0,99,-0.16,-0.07999999999999997,down,0.24040719983167946,,,,,,,,,,,,,,,,,,,,,,,,,,,,,,,,,,,,,,,,,,,,,,,,,,,,,,,,,,,,NE67GV,train_y,red_square,bottom_left,2025-02-13_15h38.15.348,HideSeek_v1,2022.2.5,59.96828872293273,
,0,1,0,5,0,4,12,,train_dim1_1,4,30,,,,2,0,2,0,,,,,,,,,0,0,0,0,0,3,3,3,9,0,9,0,,,,,,,,,,,,,,,,,,,,,,,,,,,,,,,,,,,,,,,,,,,,,,,,,,,,,,,,,,,,,,,,30,,,,,,,,1846.5554283999372,1846.5554283999372,1846.5554283999372,1846.5554283999372,1846.5554283999372,return,1.0941414998378605,0,1,0,0,-0.16,-0.07999999999999997,return,1.0073379001114517,12,-2,-0.16,-0.07999999999999997,,,,,,,,,,,,,,,,,,,,,,,,,,,,,,,,,,,,,,,,,,,,,,,,,,,,,,,,NE67GV,train_y,red_square,bottom_left,2025-02-13_15h38.15.348,HideSeek_v1,2022.2.5,59.96828872293273,
,3,3,3,8,0,5,11,,train_dim1_1,5,30,,,,2,0,2,0,,,,,,,,,0,0,0,0,0,4,4,4,0,0,0,0,,,,,,,,,,,,,,,,,,,,,,,,,stimuli/alien_stimuli/11.png,,,,,,,,,,,,,,,,,,,,,,,,,,,,,stimuli/alien_stimuli/12.png,12,0,6,,,,,,,30,,,,,,,,1862.157861100044,1862.157861100044,1862.157861100044,1862.157861100044,1862.157861100044,up,4.15945199993439,0,1,0,99,0.08,-0.08,up,4.051157699897885,,,,,1860.583067700034,1862.157861100044,-0.16,0,0.32,0.0,-0.16,-0.16,-0.16,-0.16,0,1849.229326999979,1849.229326999979,1849.229326999979,1849.229326999979,1849.229326999979,1849.229326999979,1849.229326999979,1849.229326999979,1849.2234975600616,11.478528500068933,return,11.336886300006881,,,,,,,,,,,,,,,,,,,,,,,,,,,,,,,,,NE67GV,train_y,red_square,bottom_left,2025-02-13_15h38.15.348,HideSeek_v1,2022.2.5,59.96828872293273,
,3,3,3,8,0,5,11,,train_dim1_1,5,30,,,,2,0,2,0,,,,,,,,,0,0,0,0,0,4,4,4,1,0,1,0,,,,,,,,,,,,,,,,,,,,,,,,,,,,,,,,,,,,,,,,,,,,,,,,,,,,,,,,,,,,,,,,30,,,,,,,,1866.3059255999979,1866.3059255999979,1866.3059255999979,1866.3059255999979,1866.3059255999979,up,0.40975589980371296,0,1,0,99,0.08,0.0,up,0.316425499971956,,,,,,,,,,,,,,,,,,,,,,,,,,,,,,,,,,,,,,,,,,,,,,,,,,,,,,,,,,,,NE67GV,train_y,red_square,bottom_left,2025-02-13_15h38.15.348,HideSeek_v1,2022.2.5,59.96828872293273,
,3,3,3,8,0,5,11,,train_dim1_1,5,30,,,,2,0,2,0,,,,,,,,,0,0,0,0,0,4,4,4,2,0,2,0,,,,,,,,,,,,,,,,,,,,,,,,,,,,,,,,,,,,,,,,,,,,,,,,,,,,,,,,,,,,,,,,30,,,,,,,,1866.72169200005,1866.72169200005,1866.72169200005,1866.72169200005,1866.72169200005,up,0.3263302000705153,0,1,0,99,0.08,0.08,up,0.24820989998988807,,,,,,,,,,,,,,,,,,,,,,,,,,,,,,,,,,,,,,,,,,,,,,,,,,,,,,,,,,,,NE67GV,train_y,red_square,bottom_left,2025-02-13_15h38.15.348,HideSeek_v1,2022.2.5,59.96828872293273,
,3,3,3,8,0,5,11,,train_dim1_1,5,30,,,,2,0,2,0,,,,,,,,,0,0,0,0,0,4,4,4,3,0,3,0,,,,,,,,,,,,,,,,,,,,,,,,,,,,,,,,,,,,,,,,,,,,,,,,,,,,,,,,,,,,,,,,30,,,,,,,,1867.0555410999805,1867.0555410999805,1867.0555410999805,1867.0555410999805,1867.0555410999805,up,1.0105400001630187,0,1,0,99,0.08,0.16,up,0.9235652000643313,,,,,,,,,,,,,,,,,,,,,,,,,,,,,,,,,,,,,,,,,,,,,,,,,,,,,,,,,,,,NE67GV,train_y,red_square,bottom_left,2025-02-13_15h38.15.348,HideSeek_v1,2022.2.5,59.96828872293273,
,3,3,3,8,0,5,11,,train_dim1_1,5,30,,,,2,0,2,0,,,,,,,,,0,0,0,0,0,4,4,4,4,0,4,0,,,,,,,,,,,,,,,,,,,,,,,,,,,,,,,,,,,,,,,,,,,,,,,,,,,,,,,,,,,,,,,,30,,,,,,,,1868.07310030004,1868.07310030004,1868.07310030004,1868.07310030004,1868.07310030004,down,1.5778655000030994,0,1,0,99,0.08,0.08,down,1.4918031999841332,,,,,,,,,,,,,,,,,,,,,,,,,,,,,,,,,,,,,,,,,,,,,,,,,,,,,,,,,,,,NE67GV,train_y,red_square,bottom_left,2025-02-13_15h38.15.348,HideSeek_v1,2022.2.5,59.96828872293273,
,3,3,3,8,0,5,11,,train_dim1_1,5,30,,,,2,0,2,0,,,,,,,,,0,0,0,0,0,4,4,4,5,0,5,0,,,,,,,,,,,,,,,,,,,,,,,,,,,,,,,,,,,,,,,,,,,,,,,,,,,,,,,,,,,,,,,,30,,,,,,,,1869.6616547999438,1869.6616547999438,1869.6616547999438,1869.6616547999438,1869.6616547999438,return,0.9911619001068175,0,0,0,0,0.08,0.08,return,0.9025779999792576,15,-2,0.08,0.08,,,,,,,,,,,,,,,,,,,,,,,,,,,,,,,,,,,,,,,,,,,,,,,,,,,,,,,,NE67GV,train_y,red_square,bottom_left,2025-02-13_15h38.15.348,HideSeek_v1,2022.2.5,59.96828872293273,
,1,4,1,8,0,4,12,,train_dim1_1,6,30,,,,2,0,2,0,,,,,,,,,0,0,0,0,0,5,5,5,0,0,0,0,,,,,,,,,,,,,,,,,,,,,,,,,stimuli/alien_stimuli/12.png,,,,,,,,,,,,,,,,,,,,,,,,,,,,,stimuli/alien_stimuli/11.png,11,3,7,,,,,,,30,,,,,,,,1893.1915227000136,1893.1915227000136,1893.1915227000136,1893.1915227000136,1893.1915227000136,up,2.863415400031954,0,0,0,99,-0.08,0.0,up,2.755191700067371,,,,,1891.6085630999878,1893.1915227000136,0.08,0.24,0.4,0.0,0.039999999999999994,0.08,0.08,0.08,0.24,1872.226535799913,1872.226535799913,1872.226535799913,1872.226535799913,1872.226535799913,1872.226535799913,1872.226535799913,1872.226535799913,1872.2258486599196,19.501883199904114,return,19.356084699975327,,,,,,,,,,,,,,,,,,,,,,,,,,,,,,,,,NE67GV,train_y,red_square,bottom_left,2025-02-13_15h38.15.348,HideSeek_v1,2022.2.5,59.96828872293273,
,1,4,1,8,0,4,12,,train_dim1_1,6,30,,,,2,0,2,0,,,,,,,,,0,0,0,0,0,5,5,5,1,0,1,0,,,,,,,,,,,,,,,,,,,,,,,,,,,,,,,,,,,,,,,,,,,,,,,,,,,,,,,,,,,,,,,,30,,,,,,,,1896.0471778998617,1896.0471778998617,1896.0471778998617,1896.0471778998617,1896.0471778998617,up,1.2941811000928283,0,0,0,99,-0.08,0.08,up,1.2170965000987053,,,,,,,,,,,,,,,,,,,,,,,,,,,,,,,,,,,,,,,,,,,,,,,,,,,,,,,,,,,,NE67GV,train_y,red_square,bottom_left,2025-02-13_15h38.15.348,HideSeek_v1,2022.2.5,59.96828872293273,
,1,4,1,8,0,4,12,,train_dim1_1,6,30,,,,2,0,2,0,,,,,,,,,0,0,0,0,0,5,5,5,2,0,2,0,,,,,,,,,,,,,,,,,,,,,,,,,,,,,,,,,,,,,,,,,,,,,,,,,,,,,,,,,,,,,,,,30,,,,,,,,1897.3480233999435,1897.3480233999435,1897.3480233999435,1897.3480233999435,1897.3480233999435,up,1.5771192000247538,0,0,0,99,-0.08,0.16,up,1.498102999990806,,,,,,,,,,,,,,,,,,,,,,,,,,,,,,,,,,,,,,,,,,,,,,,,,,,,,,,,,,,,NE67GV,train_y,red_square,bottom_left,2025-02-13_15h38.15.348,HideSeek_v1,2022.2.5,59.96828872293273,
,1,4,1,8,0,4,12,,train_dim1_1,6,30,,,,2,0,2,0,,,,,,,,,0,0,0,0,0,5,5,5,3,0,3,0,,,,,,,,,,,,,,,,,,,,,,,,,,,,,,,,,,,,,,,,,,,,,,,,,,,,,,,,,,,,,,,,30,,,,,,,,1898.932450399967,1898.932450399967,1898.932450399967,1898.932450399967,1898.932450399967,up,0.8268649999517947,0,0,0,99,-0.08,0.24,up,0.7380568999797106,,,,,,,,,,,,,,,,,,,,,,,,,,,,,,,,,,,,,,,,,,,,,,,,,,,,,,,,,,,,NE67GV,train_y,red_square,bottom_left,2025-02-13_15h38.15.348,HideSeek_v1,2022.2.5,59.96828872293273,
,1,4,1,8,0,4,12,,train_dim1_1,6,30,,,,2,0,2,0,,,,,,,,,0,0,0,0,0,5,5,5,4,0,4,0,,,,,,,,,,,,,,,,,,,,,,,,,,,,,,,,,,,,,,,,,,,,,,,,,,,,,,,,,,,,,,,,30,,,,,,,,1899.7660455000587,1899.7660455000587,1899.7660455000587,1899.7660455000587,1899.7660455000587,up,0.8771119001321495,0,0,0,99,-0.08,0.32,up,0.7894734998699278,,,,,,,,,,,,,,,,,,,,,,,,,,,,,,,,,,,,,,,,,,,,,,,,,,,,,,,,,,,,NE67GV,train_y,red_square,bottom_left,2025-02-13_15h38.15.348,HideSeek_v1,2022.2.5,59.96828872293273,
,1,4,1,8,0,4,12,,train_dim1_1,6,30,,,,2,0,2,0,,,,,,,,,0,0,0,0,0,5,5,5,5,0,5,0,,,,,,,,,,,,,,,,,,,,,,,,,,,,,,,,,,,,,,,,,,,,,,,,,,,,,,,,,,,,,,,,30,,,,,,,,1900.649711099919,1900.649711099919,1900.649711099919,1900.649711099919,1900.649711099919,return,1.5612153999973089,0,1,0,0,-0.08,0.32,return,1.4707029999699444,20,-2,-0.08,0.32,,,,,,,,,,,,,,,,,,,,,,,,,,,,,,,,,,,,,,,,,,,,,,,,,,,,,,,,NE67GV,train_y,red_square,bottom_left,2025-02-13_15h38.15.348,HideSeek_v1,2022.2.5,59.96828872293273,
,1,3,1,6,0,3,13,,train_dim1_1,7,30,,,,2,0,2,0,,,,,,,,,0,0,0,0,0,6,6,6,0,0,0,0,,,,,,,,,,,,,,,,,,,,,,,,,stimuli/alien_stimuli/13.png,,,,,,,,,,,,,,,,,,,,,,,,,,,,,stimuli/alien_stimuli/12.png,12,1,8,,,,,,,30,,,,,,,,1912.3987938000355,1912.3987938000355,1912.3987938000355,1912.3987938000355,1912.3987938000355,up,5.309564499882981,0,1,0,99,-0.08,-0.08,up,5.2238684999756515,,,,,1910.8414350000676,1912.3987938000355,-0.08,0.24,0.32,0.0,0.07999999999999999,-0.08,-0.08,-0.08,0.24,1903.7847738000564,1903.7847738000564,1903.7847738000564,1903.7847738000564,1903.7847738000564,1903.7847738000564,1903.7847738000564,1903.7847738000564,1903.785296159843,7.175368300173432,return,7.038834000006318,,,,,,,,,,,,,,,,,,,,,,,,,,,,,,,,,NE67GV,train_y,red_square,bottom_left,2025-02-13_15h38.15.348,HideSeek_v1,2022.2.5,59.96828872293273,
,1,3,1,6,0,3,13,,train_dim1_1,7,30,,,,2,0,2,0,,,,,,,,,0,0,0,0,0,6,6,6,1,0,1,0,,,,,,,,,,,,,,,,,,,,,,,,,,,,,,,,,,,,,,,,,,,,,,,,,,,,,,,,,,,,,,,,30,,,,,,,,1917.7156547000632,1917.7156547000632,1917.7156547000632,1917.7156547000632,1917.7156547000632,up,0.8928525000810623,0,1,0,99,-0.08,0.0,up,0.81181660015136,,,,,,,,,,,,,,,,,,,,,,,,,,,,,,,,,,,,,,,,,,,,,,,,,,,,,,,,,,,,NE67GV,train_y,red_square,bottom_left,2025-02-13_15h38.15.348,HideSeek_v1,2022.2.5,59.96828872293273,
,1,3,1,6,0,3,13,,train_dim1_1,7,30,,,,2,0,2,0,,,,,,,,,0,0,0,0,0,6,6,6,2,0,2,0,,,,,,,,,,,,,,,,,,,,,,,,,,,,,,,,,,,,,,,,,,,,,,,,,,,,,,,,,,,,,,,,30,,,,,,,,1918.6140987998806,1918.6140987998806,1918.6140987998806,1918.6140987998806,1918.6140987998806,up,0.7772651000414044,0,1,0,99,-0.08,0.08,up,0.6875974000431597,,,,,,,,,,,,,,,,,,,,,,,,,,,,,,,,,,,,,,,,,,,,,,,,,,,,,,,,,,,,NE67GV,train_y,red_square,bottom_left,2025-02-13_15h38.15.348,HideSeek_v1,2022.2.5,59.96828872293273,
,1,3,1,6,0,3,13,,train_dim1_1,7,30,,,,2,0,2,0,,,,,,,,,0,0,0,0,0,6,6,6,3,0,3,0,,,,,,,,,,,,,,,,,,,,,,,,,,,,,,,,,,,,,,,,,,,,,,,,,,,,,,,,,,,,,,,,30,,,,,,,,1919.398751599947,1919.398751599947,1919.398751599947,1919.398751599947,1919.398751599947,return,0.8772781998850405,1,0,0,1,-0.08,0.08,return,0.7979582999832928,23,-2,-0.08,0.08,,,,,,,,,,,,,,,,,,,,,,,,,,,,,,,,,,,,,,,,,,,,,,,,,,,,,,,,NE67GV,train_y,red_square,bottom_left,2025-02-13_15h38.15.348,HideSeek_v1,2022.2.5,59.96828872293273,
,4,2,4,7,0,5,11,,train_dim1_1,8,30,,,,2,0,2,0,,,,,,,,,0,0,0,0,0,7,7,7,0,0,0,0,,,,,,,,,,,,,,,,,,,,,,,,,stimuli/alien_stimuli/11.png,,,,,,,,,,,,,,,,,,,,,,,,,,,,,stimuli/alien_stimuli/13.png,13,1,9,,,,,,,30,,,,,,,,1944.104384599952,1944.104384599952,1944.104384599952,1944.104384599952,1944.104384599952,up,4.359757500002161,1,0,0,99,0.16,-0.15999999999999998,up,4.258294800063595,,,,,1942.5339333999436,1944.104384599952,-0.08,0.08,0.24,0.0,-0.04,-0.08,-0.08,-0.08,0.08,1921.8618308000732,1921.8618308000732,1921.8618308000732,1921.8618308000732,1921.8618308000732,1921.8618308000732,1921.8618308000732,1921.8618308000732,1921.851415260043,20.80150600010529,return,20.65077260020189,,,,,,,,,,,,,,,,,,,,,,,,,,,,,,,,,NE67GV,train_y,red_square,bottom_left,2025-02-13_15h38.15.348,HideSeek_v1,2022.2.5,59.96828872293273,
,4,2,4,7,0,5,11,,train_dim1_1,8,30,,,,2,0,2,0,,,,,,,,,0,0,0,0,0,7,7,7,1,0,1,0,,,,,,,,,,,,,,,,,,,,,,,,,,,,,,,,,,,,,,,,,,,,,,,,,,,,,,,,,,,,,,,,30,,,,,,,,1948.4575324000325,1948.4575324000325,1948.4575324000325,1948.4575324000325,1948.4575324000325,up,1.126970399869606,1,0,0,99,0.16,-0.07999999999999997,up,1.0386359998956323,,,,,,,,,,,,,,,,,,,,,,,,,,,,,,,,,,,,,,,,,,,,,,,,,,,,,,,,,,,,NE67GV,train_y,red_square,bottom_left,2025-02-13_15h38.15.348,HideSeek_v1,2022.2.5,59.96828872293273,
,4,2,4,7,0,5,11,,train_dim1_1,8,30,,,,2,0,2,0,,,,,,,,,0,0,0,0,0,7,7,7,2,0,2,0,,,,,,,,,,,,,,,,,,,,,,,,,,,,,,,,,,,,,,,,,,,,,,,,,,,,,,,,,,,,,,,,30,,,,,,,,1949.5908679000568,1949.5908679000568,1949.5908679000568,1949.5908679000568,1949.5908679000568,up,0.9272290000226349,1,0,0,99,0.16,2.7755575615628914e-17,up,0.8388545999769121,,,,,,,,,,,,,,,,,,,,,,,,,,,,,,,,,,,,,,,,,,,,,,,,,,,,,,,,,,,,NE67GV,train_y,red_square,bottom_left,2025-02-13_15h38.15.348,HideSeek_v1,2022.2.5,59.96828872293273,
,4,2,4,7,0,5,11,,train_dim1_1,8,30,,,,2,0,2,0,,,,,,,,,0,0,0,0,0,7,7,7,3,0,3,0,,,,,,,,,,,,,,,,,,,,,,,,,,,,,,,,,,,,,,,,,,,,,,,,,,,,,,,,,,,,,,,,30,,,,,,,,1950.525167600019,1950.525167600019,1950.525167600019,1950.525167600019,1950.525167600019,up,0.8436628000345081,1,0,0,99,0.16,0.08000000000000003,up,0.7623040999751538,,,,,,,,,,,,,,,,,,,,,,,,,,,,,,,,,,,,,,,,,,,,,,,,,,,,,,,,,,,,NE67GV,train_y,red_square,bottom_left,2025-02-13_15h38.15.348,HideSeek_v1,2022.2.5,59.96828872293273,
,4,2,4,7,0,5,11,,train_dim1_1,8,30,,,,2,0,2,0,,,,,,,,,0,0,0,0,0,7,7,7,4,0,4,0,,,,,,,,,,,,,,,,,,,,,,,,,,,,,,,,,,,,,,,,,,,,,,,,,,,,,,,,,,,,,,,,30,,,,,,,,1951.3756470000371,1951.3756470000371,1951.3756470000371,1951.3756470000371,1951.3756470000371,return,1.5108040999621153,1,1,0,0,0.16,0.08000000000000003,return,1.4188764998689294,27,-2,0.16,0.08000000000000003,,,,,,,,,,,,,,,,,,,,,,,,,,,,,,,,,,,,,,,,,,,,,,,,,,,,,,,,NE67GV,train_y,red_square,bottom_left,2025-02-13_15h38.15.348,HideSeek_v1,2022.2.5,59.96828872293273,
,4,3,4,4,0,1,15,,train_dim1_1,9,30,,,,2,0,2,0,,,,,,,,,0,0,0,0,0,8,8,8,0,0,0,0,,,,,,,,,,,,,,,,,,,,,,,,,stimuli/alien_stimuli/15.png,,,,,,,,,,,,,,,,,,,,,,,,,,,,,stimuli/alien_stimuli/11.png,11,4,10,,,,,,,30,,,,,,,,1964.1260343999602,1964.1260343999602,1964.1260343999602,1964.1260343999602,1964.1260343999602,return,4.657981800148264,1,1,0,0,0.16,-0.16,return,4.569085499970242,27,-2,0.16,-0.16,1962.5673008998856,1964.1260343999602,0.16,0.16,0.4,0.0,-0.039999999999999994,0.16,0.16,0.16,0.16,1954.4558381000534,1954.4558381000534,1954.4558381000534,1954.4558381000534,1954.4558381000534,1954.4558381000534,1954.4558381000534,1954.4558381000534,1954.4440134400038,8.225619899807498,return,8.086222300073132,,,,,,,,,,,,,,,,,,,,,,,,,,,,,,,,,NE67GV,train_y,red_square,bottom_left,2025-02-13_15h38.15.348,HideSeek_v1,2022.2.5,59.96828872293273,
,2,2,2,2,0,0,16,,train_dim1_1,10,30,,,,2,0,2,0,,,,,,,,,0,0,0,0,0,9,9,9,0,0,0,0,,,,,,,,,,,,,,,,,,,,,,,,,stimuli/alien_stimuli/16.png,,,,,,,,,,,,,,,,,,,,,,,,,,,,,stimuli/alien_stimuli/15.png,15,4,11,,,,,,,30,,,,,,,,1978.1874255000148,1978.1874255000148,1978.1874255000148,1978.1874255000148,1978.1874255000148,up,3.60727239982225,1,1,0,99,0,-0.15999999999999998,up,3.5289535000920296,,,,,1976.6290512999985,1978.1874255000148,0.16,-0.08,0.08,0.0,-0.12,0.16,0.16,0.16,-0.08,1970.3551185999531,1970.3551185999531,1970.3551185999531,1970.3551185999531,1970.3551185999531,1970.3551185999531,1970.3551185999531,1970.3551185999531,1970.357260959968,6.390602400060743,return,6.241999400081113,,,,,,,,,,,,,,,,,,,,,,,,,,,,,,,,,NE67GV,train_y,red_square,bottom_left,2025-02-13_15h38.15.348,HideSeek_v1,2022.2.5,59.96828872293273,
,2,2,2,2,0,0,16,,train_dim1_1,10,30,,,,2,0,2,0,,,,,,,,,0,0,0,0,0,9,9,9,1,0,1,0,,,,,,,,,,,,,,,,,,,,,,,,,,,,,,,,,,,,,,,,,,,,,,,,,,,,,,,,,,,,,,,,30,,,,,,,,1981.8012574999593,1981.8012574999593,1981.8012574999593,1981.8012574999593,1981.8012574999593,return,0.9266828999388963,1,1,0,0,0,-0.15999999999999998,return,0.8456905998755246,28,-2,0,-0.15999999999999998,,,,,,,,,,,,,,,,,,,,,,,,,,,,,,,,,,,,,,,,,,,,,,,,,,,,,,,,NE67GV,train_y,red_square,bottom_left,2025-02-13_15h38.15.348,HideSeek_v1,2022.2.5,59.96828872293273,
,4,1,4,2,0,1,15,,train_dim1_1,11,30,,,,2,0,2,0,,,,,,,,,0,0,0,0,0,10,10,10,0,0,0,0,,,,,,,,,,,,,,,,,,,,,,,,,stimuli/alien_stimuli/15.png,,,,,,,,,,,,,,,,,,,,,,,,,,,,,stimuli/alien_stimuli/16.png,16,2,12,,,,,,,30,,,,,,,,1990.0664717999753,1990.0664717999753,1990.0664717999753,1990.0664717999753,1990.0664717999753,return,2.554356799926609,1,1,0,0,0.16,-0.32,return,2.471307900035754,28,-2,0.16,-0.32,1988.5056111998856,1990.0664717999753,0,-0.24,0.0,0.0,-0.24,0,0.0,0,-0.24,1984.2993272000458,1984.2993272000458,1984.2993272000458,1984.2993272000458,1984.2993272000458,1984.2993272000458,1984.2993272000458,1984.2993272000458,1984.2859174399173,4.321711299940944,return,4.175753799965605,,,,,,,,,,,,,,,,,,,,,,,,,,,,,,,,,NE67GV,train_y,red_square,bottom_left,2025-02-13_15h38.15.348,HideSeek_v1,2022.2.5,59.96828872293273,
,0,0,0,5,0,5,11,,train_dim1_1,12,30,,,,2,0,2,0,,,,,,,,,0,0,0,0,0,11,11,11,0,0,0,0,,,,,,,,,,,,,,,,,,,,,,,,,stimuli/alien_stimuli/11.png,,,,,,,,,,,,,,,,,,,,,,,,,,,,,stimuli/alien_stimuli/15.png,15,4,13,,,,,,,30,,,,,,,,1998.2861738000065,1998.2861738000065,1998.2861738000065,1998.2861738000065,1998.2861738000065,up,2.173774499911815,1,1,0,99,-0.16,-0.32,up,2.091535700019449,,,,,1996.72902349988,1998.2861738000065,0.16,-0.24,0.08,0.0,-0.28,0.16,0.16,0.16,-0.24,1994.175855499925,1994.175855499925,1994.175855499925,1994.175855499925,1994.175855499925,1994.175855499925,1994.175855499925,1994.175855499925,1994.1770268398805,2.6544374998193234,return,2.5333263999782503,,,,,,,,,,,,,,,,,,,,,,,,,,,,,,,,,NE67GV,train_y,red_square,bottom_left,2025-02-13_15h38.15.348,HideSeek_v1,2022.2.5,59.96828872293273,
,0,0,0,5,0,5,11,,train_dim1_1,12,30,,,,2,0,2,0,,,,,,,,,0,0,0,0,0,11,11,11,1,0,1,0,,,,,,,,,,,,,,,,,,,,,,,,,,,,,,,,,,,,,,,,,,,,,,,,,,,,,,,,,,,,,,,,30,,,,,,,,2000.4663960998878,2000.4663960998878,2000.4663960998878,2000.4663960998878,2000.4663960998878,up,0.8933186000213027,1,1,0,99,-0.16,-0.24,up,0.81605160003528,,,,,,,,,,,,,,,,,,,,,,,,,,,,,,,,,,,,,,,,,,,,,,,,,,,,,,,,,,,,NE67GV,train_y,red_square,bottom_left,2025-02-13_15h38.15.348,HideSeek_v1,2022.2.5,59.96828872293273,
,0,0,0,5,0,5,11,,train_dim1_1,12,30,,,,2,0,2,0,,,,,,,,,0,0,0,0,0,11,11,11,2,0,2,0,,,,,,,,,,,,,,,,,,,,,,,,,,,,,,,,,,,,,,,,,,,,,,,,,,,,,,,,,,,,,,,,30,,,,,,,,2001.366421499988,2001.366421499988,2001.366421499988,2001.366421499988,2001.366421499988,up,0.7269313000142574,1,1,0,99,-0.16,-0.15999999999999998,up,0.6346348999068141,,,,,,,,,,,,,,,,,,,,,,,,,,,,,,,,,,,,,,,,,,,,,,,,,,,,,,,,,,,,NE67GV,train_y,red_square,bottom_left,2025-02-13_15h38.15.348,HideSeek_v1,2022.2.5,59.96828872293273,
,0,0,0,5,0,5,11,,train_dim1_1,12,30,,,,2,0,2,0,,,,,,,,,0,0,0,0,0,11,11,11,3,0,3,0,,,,,,,,,,,,,,,,,,,,,,,,,,,,,,,,,,,,,,,,,,,,,,,,,,,,,,,,,,,,,,,,30,,,,,,,,2002.1010527999606,2002.1010527999606,2002.1010527999606,2002.1010527999606,2002.1010527999606,up,0.6605690000578761,1,1,0,99,-0.16,-0.07999999999999997,up,0.5789508000016212,,,,,,,,,,,,,,,,,,,,,,,,,,,,,,,,,,,,,,,,,,,,,,,,,,,,,,,,,,,,NE67GV,train_y,red_square,bottom_left,2025-02-13_15h38.15.348,HideSeek_v1,2022.2.5,59.96828872293273,
,0,0,0,5,0,5,11,,train_dim1_1,12,30,,,,2,0,2,0,,,,,,,,,0,0,0,0,0,11,11,11,4,0,4,0,,,,,,,,,,,,,,,,,,,,,,,,,,,,,,,,,,,,,,,,,,,,,,,,,,,,,,,,,,,,,,,,30,,,,,,,,2002.7715936999302,2002.7715936999302,2002.7715936999302,2002.7715936999302,2002.7715936999302,return,1.1747979000210762,1,1,0,0,-0.16,-0.07999999999999997,return,1.0845521001610905,32,-2,-0.16,-0.07999999999999997,,,,,,,,,,,,,,,,,,,,,,,,,,,,,,,,,,,,,,,,,,,,,,,,,,,,,,,,NE67GV,train_y,red_square,bottom_left,2025-02-13_15h38.15.348,HideSeek_v1,2022.2.5,59.96828872293273,
,4,3,4,7,0,4,12,,train_dim1_1,13,30,,,,2,0,2,0,,,,,,,,,0,0,0,0,0,12,12,12,0,0,0,0,,,,,,,,,,,,,,,,,,,,,,,,,stimuli/alien_stimuli/12.png,,,,,,,,,,,,,,,,,,,,,,,,,,,,,stimuli/alien_stimuli/11.png,11,0,14,,,,,,,30,,,,,,,,2010.3155409998726,2010.3155409998726,2010.3155409998726,2010.3155409998726,2010.3155409998726,up,2.7891802000813186,1,1,0,99,0.16,-0.08,up,2.7104543999303132,,,,,2008.7555450999644,2010.3155409998726,-0.16,0,0.4,0.0,-0.2,-0.16,-0.16,-0.16,0,2005.5165762000252,2005.5165762000252,2005.5165762000252,2005.5165762000252,2005.5165762000252,2005.5165762000252,2005.5165762000252,2005.5165762000252,2005.5031046398917,3.354736400069669,return,3.2077365999575704,,,,,,,,,,,,,,,,,,,,,,,,,,,,,,,,,NE67GV,train_y,red_square,bottom_left,2025-02-13_15h38.15.348,HideSeek_v1,2022.2.5,59.96828872293273,
,4,3,4,7,0,4,12,,train_dim1_1,13,30,,,,2,0,2,0,,,,,,,,,0,0,0,0,0,12,12,12,1,0,1,0,,,,,,,,,,,,,,,,,,,,,,,,,,,,,,,,,,,,,,,,,,,,,,,,,,,,,,,,,,,,,,,,30,,,,,,,,2013.1120647999924,2013.1120647999924,2013.1120647999924,2013.1120647999924,2013.1120647999924,up,0.5428901000414044,1,1,0,99,0.16,0.0,up,0.4519923001062125,,,,,,,,,,,,,,,,,,,,,,,,,,,,,,,,,,,,,,,,,,,,,,,,,,,,,,,,,,,,NE67GV,train_y,red_square,bottom_left,2025-02-13_15h38.15.348,HideSeek_v1,2022.2.5,59.96828872293273,
,4,3,4,7,0,4,12,,train_dim1_1,13,30,,,,2,0,2,0,,,,,,,,,0,0,0,0,0,12,12,12,2,0,2,0,,,,,,,,,,,,,,,,,,,,,,,,,,,,,,,,,,,,,,,,,,,,,,,,,,,,,,,,,,,,,,,,30,,,,,,,,2013.6612261000555,2013.6612261000555,2013.6612261000555,2013.6612261000555,2013.6612261000555,up,0.6436324999667704,1,1,0,99,0.16,0.08,up,0.5590989999473095,,,,,,,,,,,,,,,,,,,,,,,,,,,,,,,,,,,,,,,,,,,,,,,,,,,,,,,,,,,,NE67GV,train_y,red_square,bottom_left,2025-02-13_15h38.15.348,HideSeek_v1,2022.2.5,59.96828872293273,
,4,3,4,7,0,4,12,,train_dim1_1,13,30,,,,2,0,2,0,,,,,,,,,0,0,0,0,0,12,12,12,3,0,3,0,,,,,,,,,,,,,,,,,,,,,,,,,,,,,,,,,,,,,,,,,,,,,,,,,,,,,,,,,,,,,,,,30,,,,,,,,2014.3117475998588,2014.3117475998588,2014.3117475998588,2014.3117475998588,2014.3117475998588,up,0.5101236999034882,1,1,0,99,0.16,0.16,up,0.42774300021119416,,,,,,,,,,,,,,,,,,,,,,,,,,,,,,,,,,,,,,,,,,,,,,,,,,,,,,,,,,,,NE67GV,train_y,red_square,bottom_left,2025-02-13_15h38.15.348,HideSeek_v1,2022.2.5,59.96828872293273,
,4,3,4,7,0,4,12,,train_dim1_1,13,30,,,,2,0,2,0,,,,,,,,,0,0,0,0,0,12,12,12,4,0,4,0,,,,,,,,,,,,,,,,,,,,,,,,,,,,,,,,,,,,,,,,,,,,,,,,,,,,,,,,,,,,,,,,30,,,,,,,,2014.8282721000724,2014.8282721000724,2014.8282721000724,2014.8282721000724,2014.8282721000724,up,0.5267463999334723,1,1,0,99,0.16,0.24,up,0.43642559996806085,,,,,,,,,,,,,,,,,,,,,,,,,,,,,,,,,,,,,,,,,,,,,,,,,,,,,,,,,,,,NE67GV,train_y,red_square,bottom_left,2025-02-13_15h38.15.348,HideSeek_v1,2022.2.5,59.96828872293273,
,4,3,4,7,0,4,12,,train_dim1_1,13,30,,,,2,0,2,0,,,,,,,,,0,0,0,0,0,12,12,12,5,0,5,0,,,,,,,,,,,,,,,,,,,,,,,,,,,,,,,,,,,,,,,,,,,,,,,,,,,,,,,,,,,,,,,,30,,,,,,,,2015.363644399913,2015.363644399913,2015.363644399913,2015.363644399913,2015.363644399913,return,0.8767117001116276,1,1,0,0,0.16,0.24,return,0.7949083999264985,37,-2,0.16,0.24,,,,,,,,,,,,,,,,,,,,,,,,,,,,,,,,,,,,,,,,,,,,,,,,,,,,,,,,NE67GV,train_y,red_square,bottom_left,2025-02-13_15h38.15.348,HideSeek_v1,2022.2.5,59.96828872293273,
,2,2,2,2,0,0,16,,train_dim1_1,14,30,,,,2,0,2,0,,,,,,,,,0,0,0,0,0,13,13,13,0,0,0,0,,,,,,,,,,,,,,,,,,,,,,,,,stimuli/alien_stimuli/16.png,,,,,,,,,,,,,,,,,,,,,,,,,,,,,stimuli/alien_stimuli/12.png,12,4,15,,,,,,,30,,,,,,,,2023.8571858999785,2023.8571858999785,2023.8571858999785,2023.8571858999785,2023.8571858999785,return,1.5233227000571787,2,0,0,1,0,-0.24,return,1.430952199967578,37,-2,0,-0.24,2022.3002075999975,2023.8571858999785,0.16,0.16,0.32,0.0,0.0,0.16,0.16,0.16,0.16,2017.8220831998624,2017.8220831998624,2017.8220831998624,2017.8220831998624,2017.8220831998624,2017.8220831998624,2017.8220831998624,2017.8220831998624,2017.8136020598934,4.605632100021467,return,4.453775299945846,,,,,,,,,,,,,,,,,,,,,,,,,,,,,,,,,NE67GV,train_y,red_square,bottom_left,2025-02-13_15h38.15.348,HideSeek_v1,2022.2.5,59.96828872293273,
,1,4,1,7,0,3,13,,train_dim1_1,15,30,,,,2,0,2,0,,,,,,,,,0,0,0,0,0,14,14,14,0,0,0,0,,,,,,,,,,,,,,,,,,,,,,,,,stimuli/alien_stimuli/13.png,,,,,,,,,,,,,,,,,,,,,,,,,,,,,stimuli/alien_stimuli/16.png,16,2,16,,,,,,,30,,,,,,,,2031.5471286000684,2031.5471286000684,2031.5471286000684,2031.5471286000684,2031.5471286000684,up,3.207157100085169,2,0,0,99,-0.08,0.0,up,3.1147072999738157,,,,,2029.9897670999635,2031.5471286000684,0,-0.24,0.0,0.0,-0.24,0,0.0,0,-0.24,2026.9356960000005,2026.9356960000005,2026.9356960000005,2026.9356960000005,2026.9356960000005,2026.9356960000005,2026.9356960000005,2026.9356960000005,2026.92082091989,3.154997899895534,return,3.031647800002247,,,,,,,,,,,,,,,,,,,,,,,,,,,,,,,,,NE67GV,train_y,red_square,bottom_left,2025-02-13_15h38.15.348,HideSeek_v1,2022.2.5,59.96828872293273,
,1,4,1,7,0,3,13,,train_dim1_1,15,30,,,,2,0,2,0,,,,,,,,,0,0,0,0,0,14,14,14,1,0,1,0,,,,,,,,,,,,,,,,,,,,,,,,,,,,,,,,,,,,,,,,,,,,,,,,,,,,,,,,,,,,,,,,30,,,,,,,,2034.7611263999715,2034.7611263999715,2034.7611263999715,2034.7611263999715,2034.7611263999715,up,0.3929614999797195,2,0,0,99,-0.08,0.08,up,0.30451110005378723,,,,,,,,,,,,,,,,,,,,,,,,,,,,,,,,,,,,,,,,,,,,,,,,,,,,,,,,,,,,NE67GV,train_y,red_square,bottom_left,2025-02-13_15h38.15.348,HideSeek_v1,2022.2.5,59.96828872293273,
,1,4,1,7,0,3,13,,train_dim1_1,15,30,,,,2,0,2,0,,,,,,,,,0,0,0,0,0,14,14,14,2,0,2,0,,,,,,,,,,,,,,,,,,,,,,,,,,,,,,,,,,,,,,,,,,,,,,,,,,,,,,,,,,,,,,,,30,,,,,,,,2035.1622440998908,2035.1622440998908,2035.1622440998908,2035.1622440998908,2035.1622440998908,up,0.5770229999907315,2,0,0,99,-0.08,0.16,up,0.4886096001137048,,,,,,,,,,,,,,,,,,,,,,,,,,,,,,,,,,,,,,,,,,,,,,,,,,,,,,,,,,,,NE67GV,train_y,red_square,bottom_left,2025-02-13_15h38.15.348,HideSeek_v1,2022.2.5,59.96828872293273,
,1,4,1,7,0,3,13,,train_dim1_1,15,30,,,,2,0,2,0,,,,,,,,,0,0,0,0,0,14,14,14,3,0,3,0,,,,,,,,,,,,,,,,,,,,,,,,,,,,,,,,,,,,,,,,,,,,,,,,,,,,,,,,,,,,,,,,30,,,,,,,,2035.7456246998627,2035.7456246998627,2035.7456246998627,2035.7456246998627,2035.7456246998627,return,0.5933415000326931,3,0,0,1,-0.08,0.16,return,0.5160336999688298,40,-2,-0.08,0.16,,,,,,,,,,,,,,,,,,,,,,,,,,,,,,,,,,,,,,,,,,,,,,,,,,,,,,,,NE67GV,train_y,red_square,bottom_left,2025-02-13_15h38.15.348,HideSeek_v1,2022.2.5,59.96828872293273,
,4,0,4,1,0,1,15,,train_dim1_1,16,30,,,,2,0,2,0,,,,,,,,,0,0,0,0,0,15,15,15,0,0,0,0,,,,,,,,,,,,,,,,,,,,,,,,,stimuli/alien_stimuli/15.png,,,,,,,,,,,,,,,,,,,,,,,,,,,,,stimuli/alien_stimuli/13.png,13,1,17,,,,,,,30,,,,,,,,2041.7075572998729,2041.7075572998729,2041.7075572998729,2041.7075572998729,2041.7075572998729,up,1.639127500122413,3,0,0,99,0.16,-0.32,up,1.5533050999511033,,,,,2040.1482543998864,2041.7075572998729,-0.08,0.16,0.24,0.0,0.04,-0.08,-0.08,-0.08,0.16,2037.9130332998466,2037.9130332998466,2037.9130332998466,2037.9130332998466,2037.9130332998466,2037.9130332998466,2037.9130332998466,2037.9130332998466,2037.9134546600283,2.3539432999677956,return,2.208446600008756,,,,,,,,,,,,,,,,,,,,,,,,,,,,,,,,,NE67GV,train_y,red_square,bottom_left,2025-02-13_15h38.15.348,HideSeek_v1,2022.2.5,59.96828872293273,
,4,0,4,1,0,1,15,,train_dim1_1,16,30,,,,2,0,2,0,,,,,,,,,0,0,0,0,0,15,15,15,1,0,1,0,,,,,,,,,,,,,,,,,,,,,,,,,,,,,,,,,,,,,,,,,,,,,,,,,,,,,,,,,,,,,,,,30,,,,,,,,2043.352876599878,2043.352876599878,2043.352876599878,2043.352876599878,2043.352876599878,up,0.5927525998558849,3,0,0,99,0.16,-0.24,up,0.5150469001382589,,,,,,,,,,,,,,,,,,,,,,,,,,,,,,,,,,,,,,,,,,,,,,,,,,,,,,,,,,,,NE67GV,train_y,red_square,bottom_left,2025-02-13_15h38.15.348,HideSeek_v1,2022.2.5,59.96828872293273,
,4,0,4,1,0,1,15,,train_dim1_1,16,30,,,,2,0,2,0,,,,,,,,,0,0,0,0,0,15,15,15,2,0,2,0,,,,,,,,,,,,,,,,,,,,,,,,,,,,,,,,,,,,,,,,,,,,,,,,,,,,,,,,,,,,,,,,30,,,,,,,,2043.9532216999214,2043.9532216999214,2043.9532216999214,2043.9532216999214,2043.9532216999214,up,0.5269504999741912,3,0,0,99,0.16,-0.15999999999999998,up,0.4249207000248134,,,,,,,,,,,,,,,,,,,,,,,,,,,,,,,,,,,,,,,,,,,,,,,,,,,,,,,,,,,,NE67GV,train_y,red_square,bottom_left,2025-02-13_15h38.15.348,HideSeek_v1,2022.2.5,59.96828872293273,
,4,0,4,1,0,1,15,,train_dim1_1,16,30,,,,2,0,2,0,,,,,,,,,0,0,0,0,0,15,15,15,3,0,3,0,,,,,,,,,,,,,,,,,,,,,,,,,,,,,,,,,,,,,,,,,,,,,,,,,,,,,,,,,,,,,,,,30,,,,,,,,2044.488262299914,2044.488262299914,2044.488262299914,2044.488262299914,2044.488262299914,up,0.4098697998560965,3,0,0,99,0.16,-0.07999999999999997,up,0.3290582001209259,,,,,,,,,,,,,,,,,,,,,,,,,,,,,,,,,,,,,,,,,,,,,,,,,,,,,,,,,,,,NE67GV,train_y,red_square,bottom_left,2025-02-13_15h38.15.348,HideSeek_v1,2022.2.5,59.96828872293273,
,4,0,4,1,0,1,15,,train_dim1_1,16,30,,,,2,0,2,0,,,,,,,,,0,0,0,0,0,15,15,15,4,0,4,0,,,,,,,,,,,,,,,,,,,,,,,,,,,,,,,,,,,,,,,,,,,,,,,,,,,,,,,,,,,,,,,,30,,,,,,,,2044.9042330998927,2044.9042330998927,2044.9042330998927,2044.9042330998927,2044.9042330998927,up,0.376662400085479,3,0,0,99,0.16,2.7755575615628914e-17,up,0.2886540999170393,,,,,,,,,,,,,,,,,,,,,,,,,,,,,,,,,,,,,,,,,,,,,,,,,,,,,,,,,,,,NE67GV,train_y,red_square,bottom_left,2025-02-13_15h38.15.348,HideSeek_v1,2022.2.5,59.96828872293273,
,4,0,4,1,0,1,15,,train_dim1_1,16,30,,,,2,0,2,0,,,,,,,,,0,0,0,0,0,15,15,15,5,0,5,0,,,,,,,,,,,,,,,,,,,,,,,,,,,,,,,,,,,,,,,,,,,,,,,,,,,,,,,,,,,,,,,,30,,,,,,,,2045.2880867000204,2045.2880867000204,2045.2880867000204,2045.2880867000204,2045.2880867000204,return,0.693393399938941,3,0,0,0,0.16,2.7755575615628914e-17,return,0.6016647999640554,45,-2,0.16,2.7755575615628914e-17,,,,,,,,,,,,,,,,,,,,,,,,,,,,,,,,,,,,,,,,,,,,,,,,,,,,,,,,NE67GV,train_y,red_square,bottom_left,2025-02-13_15h38.15.348,HideSeek_v1,2022.2.5,59.96828872293273,
,3,3,3,6,0,3,13,,train_dim1_1,17,30,,,,2,0,2,0,,,,,,,,,0,0,0,0,0,16,16,16,0,0,0,0,,,,,,,,,,,,,,,,,,,,,,,,,stimuli/alien_stimuli/13.png,,,,,,,,,,,,,,,,,,,,,,,,,,,,,stimuli/alien_stimuli/15.png,15,4,18,,,,,,,30,,,,,,,,2051.996606499888,2051.996606499888,2051.996606499888,2051.996606499888,2051.996606499888,up,2.5241312999278307,3,0,0,99,0.08,-0.08,up,2.4418140999041498,,,,,2050.44050269993,2051.996606499888,0.16,-0.32,0.08,0.0,-0.36,0.16,0.16,0.16,-0.32,2047.5591533998959,2047.5591533998959,2047.5591533998959,2047.5591533998959,2047.5591533998959,2047.5591533998959,2047.5591533998959,2047.5591533998959,2047.5550071599894,3.004937200108543,return,2.8638652998488396,,,,,,,,,,,,,,,,,,,,,,,,,,,,,,,,,NE67GV,train_y,red_square,bottom_left,2025-02-13_15h38.15.348,HideSeek_v1,2022.2.5,59.96828872293273,
,3,3,3,6,0,3,13,,train_dim1_1,17,30,,,,2,0,2,0,,,,,,,,,0,0,0,0,0,16,16,16,1,0,1,0,,,,,,,,,,,,,,,,,,,,,,,,,,,,,,,,,,,,,,,,,,,,,,,,,,,,,,,,,,,,,,,,30,,,,,,,,2054.5310203998815,2054.5310203998815,2054.5310203998815,2054.5310203998815,2054.5310203998815,up,0.5403949001338333,3,0,0,99,0.08,0.0,up,0.4530599999707192,,,,,,,,,,,,,,,,,,,,,,,,,,,,,,,,,,,,,,,,,,,,,,,,,,,,,,,,,,,,NE67GV,train_y,red_square,bottom_left,2025-02-13_15h38.15.348,HideSeek_v1,2022.2.5,59.96828872293273,
,3,3,3,6,0,3,13,,train_dim1_1,17,30,,,,2,0,2,0,,,,,,,,,0,0,0,0,0,16,16,16,2,0,2,0,,,,,,,,,,,,,,,,,,,,,,,,,,,,,,,,,,,,,,,,,,,,,,,,,,,,,,,,,,,,,,,,30,,,,,,,,2055.078155499883,2055.078155499883,2055.078155499883,2055.078155499883,2055.078155499883,up,0.3926911000162363,3,0,0,99,0.08,0.08,up,0.30681850016117096,,,,,,,,,,,,,,,,,,,,,,,,,,,,,,,,,,,,,,,,,,,,,,,,,,,,,,,,,,,,NE67GV,train_y,red_square,bottom_left,2025-02-13_15h38.15.348,HideSeek_v1,2022.2.5,59.96828872293273,
,3,3,3,6,0,3,13,,train_dim1_1,17,30,,,,2,0,2,0,,,,,,,,,0,0,0,0,0,16,16,16,3,0,3,0,,,,,,,,,,,,,,,,,,,,,,,,,,,,,,,,,,,,,,,,,,,,,,,,,,,,,,,,,,,,,,,,30,,,,,,,,2055.4802729999647,2055.4802729999647,2055.4802729999647,2055.4802729999647,2055.4802729999647,return,1.3277145000174642,4,0,0,1,0.08,0.08,return,1.2337969997897744,48,-2,0.08,0.08,,,,,,,,,,,,,,,,,,,,,,,,,,,,,,,,,,,,,,,,,,,,,,,,,,,,,,,,NE67GV,train_y,red_square,bottom_left,2025-02-13_15h38.15.348,HideSeek_v1,2022.2.5,59.96828872293273,
,2,1,2,6,0,5,11,,train_dim1_1,18,30,,,,2,0,2,0,,,,,,,,,0,0,0,0,0,17,17,17,0,0,0,0,,,,,,,,,,,,,,,,,,,,,,,,,stimuli/alien_stimuli/11.png,,,,,,,,,,,,,,,,,,,,,,,,,,,,,stimuli/alien_stimuli/13.png,13,3,19,,,,,,,30,,,,,,,,2061.766327299876,2061.766327299876,2061.766327299876,2061.766327299876,2061.766327299876,up,1.8641498000361025,4,0,0,99,0,-0.24,up,1.7713404002133757,,,,,2060.198173600016,2061.766327299876,0.08,0.08,0.24,0.0,-0.04,0.08,0.08,0.08,0.08,2058.386687600054,2058.386687600054,2058.386687600054,2058.386687600054,2058.386687600054,2058.386687600054,2058.386687600054,2058.386687600054,2058.380646060035,1.9365050001069903,return,1.7800084000919014,,,,,,,,,,,,,,,,,,,,,,,,,,,,,,,,,NE67GV,train_y,red_square,bottom_left,2025-02-13_15h38.15.348,HideSeek_v1,2022.2.5,59.96828872293273,
,2,1,2,6,0,5,11,,train_dim1_1,18,30,,,,2,0,2,0,,,,,,,,,0,0,0,0,0,17,17,17,1,0,1,0,,,,,,,,,,,,,,,,,,,,,,,,,,,,,,,,,,,,,,,,,,,,,,,,,,,,,,,,,,,,,,,,30,,,,,,,,2063.635673499899,2063.635673499899,2063.635673499899,2063.635673499899,2063.635673499899,up,0.5764622997958213,4,0,0,99,0,-0.15999999999999998,up,0.4958222000859678,,,,,,,,,,,,,,,,,,,,,,,,,,,,,,,,,,,,,,,,,,,,,,,,,,,,,,,,,,,,NE67GV,train_y,red_square,bottom_left,2025-02-13_15h38.15.348,HideSeek_v1,2022.2.5,59.96828872293273,
,2,1,2,6,0,5,11,,train_dim1_1,18,30,,,,2,0,2,0,,,,,,,,,0,0,0,0,0,17,17,17,2,0,2,0,,,,,,,,,,,,,,,,,,,,,,,,,,,,,,,,,,,,,,,,,,,,,,,,,,,,,,,,,,,,,,,,30,,,,,,,,2064.2205089000054,2064.2205089000054,2064.2205089000054,2064.2205089000054,2064.2205089000054,up,0.5769277999643236,4,0,0,99,0,-0.07999999999999997,up,0.49850989994592965,,,,,,,,,,,,,,,,,,,,,,,,,,,,,,,,,,,,,,,,,,,,,,,,,,,,,,,,,,,,NE67GV,train_y,red_square,bottom_left,2025-02-13_15h38.15.348,HideSeek_v1,2022.2.5,59.96828872293273,
,2,1,2,6,0,5,11,,train_dim1_1,18,30,,,,2,0,2,0,,,,,,,,,0,0,0,0,0,17,17,17,3,0,3,0,,,,,,,,,,,,,,,,,,,,,,,,,,,,,,,,,,,,,,,,,,,,,,,,,,,,,,,,,,,,,,,,30,,,,,,,,2064.8060909998603,2064.8060909998603,2064.8060909998603,2064.8060909998603,2064.8060909998603,up,0.5574052999727428,4,0,0,99,0,2.7755575615628914e-17,up,0.46875610016286373,,,,,,,,,,,,,,,,,,,,,,,,,,,,,,,,,,,,,,,,,,,,,,,,,,,,,,,,,,,,NE67GV,train_y,red_square,bottom_left,2025-02-13_15h38.15.348,HideSeek_v1,2022.2.5,59.96828872293273,
,2,1,2,6,0,5,11,,train_dim1_1,18,30,,,,2,0,2,0,,,,,,,,,0,0,0,0,0,17,17,17,4,0,4,0,,,,,,,,,,,,,,,,,,,,,,,,,,,,,,,,,,,,,,,,,,,,,,,,,,,,,,,,,,,,,,,,30,,,,,,,,2065.3706861999817,2065.3706861999817,2065.3706861999817,2065.3706861999817,2065.3706861999817,up,0.5435416998807341,4,0,0,99,0,0.08000000000000003,up,0.4610153001267463,,,,,,,,,,,,,,,,,,,,,,,,,,,,,,,,,,,,,,,,,,,,,,,,,,,,,,,,,,,,NE67GV,train_y,red_square,bottom_left,2025-02-13_15h38.15.348,HideSeek_v1,2022.2.5,59.96828872293273,
,2,1,2,6,0,5,11,,train_dim1_1,18,30,,,,2,0,2,0,,,,,,,,,0,0,0,0,0,17,17,17,5,0,5,0,,,,,,,,,,,,,,,,,,,,,,,,,,,,,,,,,,,,,,,,,,,,,,,,,,,,,,,,,,,,,,,,30,,,,,,,,2065.9222770999186,2065.9222770999186,2065.9222770999186,2065.9222770999186,2065.9222770999186,return,3.6125761999282986,5,0,0,1,0,0.08000000000000003,return,3.5266026000026613,53,-2,0,0.08000000000000003,,,,,,,,,,,,,,,,,,,,,,,,,,,,,,,,,,,,,,,,,,,,,,,,,,,,,,,,NE67GV,train_y,red_square,bottom_left,2025-02-13_15h38.15.348,HideSeek_v1,2022.2.5,59.96828872293273,
