trialInstr,x_fixStart,y_fixStart,x_corrSteps,y_corrSteps,x_nrSteps,y_nrSteps,alienID,trialLength,version,trialTrain,praclen,testlen,trial_label,break_on_off,beforeExpLoop.thisRepN,beforeExpLoop.thisTrialN,beforeExpLoop.thisN,beforeExpLoop.thisIndex,mini_instr_trials.thisRepN,mini_instr_trials.thisTrialN,mini_instr_trials.thisN,mini_instr_trials.thisIndex,instrLoop.thisRepN,instrLoop.thisTrialN,instrLoop.thisN,instrLoop.thisIndex,repeat_prac.thisRepN,repeat_prac.thisTrialN,repeat_prac.thisN,repeat_prac.thisIndex,trainLoop.thisRepN,trainLoop.thisTrialN,trainLoop.thisN,trainLoop.thisIndex,moveLoop_train.thisRepN,moveLoop_train.thisTrialN,moveLoop_train.thisN,moveLoop_train.thisIndex,experiment.thisRepN,experiment.thisTrialN,experiment.thisN,experiment.thisIndex,moveLoop_test.thisRepN,moveLoop_test.thisTrialN,moveLoop_test.thisN,moveLoop_test.thisIndex,mini_instr2_trials.thisRepN,mini_instr2_trials.thisTrialN,mini_instr2_trials.thisN,mini_instr2_trials.thisIndex,start_all_time,url,slideStim,audioStim,slides.started,sounds.started,nextButton.numClicks,nextButton.timesOn,nextButton.timesOff,prev_but.numClicks,prev_but.timesOn,prev_but.timesOff,alienStim,instrFile,alienStim_instr,gridImage_instr.started,startPos_3.started,key_instr.started,alienImage_3.started,sounds_1.started,key_instr.keys,key_instr.rt,all_x,all_y,FBy_corrSteps,FBy_fixStart,FBx_corrSteps,FBx_fixStart,FBy_pathSize_check,FBx_pathSize_check,gridImage_9.started,alienImageFB_3.started,startPosFB_3.started,keyFB_3.started,pathLine_ydir_2.started,pathLine_xdir_2.started,alienFace_3.started,sounds_2.started,RTFB_instr,keyFB_3.keys,keyFB_3.rt,draw_alienStim,draw_alienID,test_x,nrepcount,perfthres,percthres,earlierperf,earlystop,nextPrac,fileidx,praclen,saveACC_train,pracFile,nextPrac_train,addNrep,fileidx_endr,repExp,showearly,gridImage_4.started,startPos.started,movePos.started,key_resp.started,alienImage.started,buttonPress_train,RTchoice_train,cumAcctrain,aCorr,saveACC_choice,corrAns,x_movePos_end,y_movePos_end,key_resp.keys,key_resp.rt,wLy_dir,wLx_dir,x_movePos,y_movePos,text_2.started,text_2.stopped,aft_x_corrPos,aft_y_corrPos,y_pathSize_check,x_pathSize_check,y_pathdirY,x_pathdirY,x_pathdirX,x_corrPos,y_corrPos,gridImage_6.started,alienImageFB_2.started,startPosFB_2.started,movePosFB_2.started,keyFB_2.started,pathLine_xdir.started,pathLine_ydir.started,alienFace.started,sounds_4.started,RT_FBtrain,keyFB_2.keys,keyFB_2.rt,saveACC_pre,ACC,within_saveACC_train,earlystop_wloop,cumAcctrain_check,gridImage_3.started,alienImage_test.started,startPos_test.started,movePos_test.started,key_resp_test.started,wLy_dir_test,wLx_dir_test,buttonPress_test,RTchoice_test,cumAcctest,corrAns_test,key_resp_test.keys,key_resp_test.rt,text_3.started,text_3.stopped,total_time,end_all_time,key_resp_3.keys,slides_2.started,sounds_3.started,nextButton_2.numClicks,nextButton_2.timesOn,nextButton_2.timesOff,prev_but_2.numClicks,prev_but_2.timesOn,prev_but_2.timesOff,bye.started,participant,train_first,00_coordinate,starting corner,date,expName,psychopyVersion,frameRate,
,,,,,,,,,,,,,,,0,0,0,0,0,0,0,0,,,,,,,,,,,,,,,,,,,,,,,,,,,,,start_all_time,testround,conditions/schedules/train_y_first/red_square_00/top_right/instructions/Slide1.png,conditions/schedules/train_y_first/red_square_00/top_right/instructions/Audio1.wav,352.7531040000031,352.7119969611871,1,[7.958371099899523],[7.958378099952824],0,,,,,,,,,,,,,,,,,,,,,,,,,,,,,,,,,,,,,,,,,,,,,,,,,,,,,,,,,,,,,,,,,,,,,,,,,,,,,,,,,,,,,,,,,,,,,,,,,,,,,,,,,,,,,,,,,,,,,,,,,,,,NJNYT8,train_y,red_square,top_right,2025-06-24_17h05.18.168,HideSeek_v1,2022.2.5,59.95300879494722,
,,,,,,,,,,,,,,,0,0,0,0,1,0,1,0,,,,,,,,,,,,,,,,,,,,,,,,,,,,,,,conditions/schedules/train_y_first/red_square_00/top_right/instructions/Slide2.png,conditions/schedules/train_y_first/red_square_00/top_right/instructions/Audio2.wav,360.7367578999838,360.73807390005095,2,"[7.958371099899523, 17.76357030007057]","[7.958378099952824, 17.763577300007455]",0,,,,,,,,,,,,,,,,,,,,,,,,,,,,,,,,,,,,,,,,,,,,,,,,,,,,,,,,,,,,,,,,,,,,,,,,,,,,,,,,,,,,,,,,,,,,,,,,,,,,,,,,,,,,,,,,,,,,,,,,,,,,NJNYT8,train_y,red_square,top_right,2025-06-24_17h05.18.168,HideSeek_v1,2022.2.5,59.95300879494722,
,,,,,,,,,,,,,,,0,0,0,0,2,0,2,0,,,,,,,,,,,,,,,,,,,,,,,,,,,,,,,conditions/schedules/train_y_first/red_square_00/top_right/instructions/Slide3.png,conditions/schedules/train_y_first/red_square_00/top_right/instructions/Audio3.wav,378.5758603999857,378.56951760005904,3,"[7.958371099899523, 17.76357030007057, 16.254690899979323]","[7.958378099952824, 0.014227800071239471, 16.254699100041762]",0,,,,,,,,,,,,,,,,,,,,,,,,,,,,,,,,,,,,,,,,,,,,,,,,,,,,,,,,,,,,,,,,,,,,,,,,,,,,,,,,,,,,,,,,,,,,,,,,,,,,,,,,,,,,,,,,,,,,,,,,,,,,NJNYT8,train_y,red_square,top_right,2025-06-24_17h05.18.168,HideSeek_v1,2022.2.5,59.95300879494722,
,,,,,,,,,,,,,,,0,0,0,0,3,0,3,0,,,,,,,,,,,,,,,,,,,,,,,,,,,,,,,conditions/schedules/train_y_first/red_square_00/top_right/instructions/Slide4.png,conditions/schedules/train_y_first/red_square_00/top_right/instructions/Audio4.wav,394.90892670000903,394.8994491000776,4,"[7.958371099899523, 17.76357030007057, 16.254690899979323, 19.404121400089934]","[7.958378099952824, 0.014227800071239471, 0.034188800025731325, 19.40412830002606]",0,,,,,,,,,,,,,,,,,,,,,,,,,,,,,,,,,,,,,,,,,,,,,,,,,,,,,,,,,,,,,,,,,,,,,,,,,,,,,,,,,,,,,,,,,,,,,,,,,,,,,,,,,,,,,,,,,,,,,,,,,,,,NJNYT8,train_y,red_square,top_right,2025-06-24_17h05.18.168,HideSeek_v1,2022.2.5,59.95300879494722,
,,,,,,,,,,,,,,,0,0,0,0,4,0,4,0,,,,,,,,,,,,,,,,,,,,,,,,,,,,,,,conditions/schedules/train_y_first/red_square_00/top_right/instructions/Slide5.png,conditions/schedules/train_y_first/red_square_00/top_right/instructions/Audio5.wav,414.3789084999589,414.365615339973,5,"[7.958371099899523, 17.76357030007057, 16.254690899979323, 19.404121400089934, 4.804847599938512]","[7.958378099952824, 0.014227800071239471, 0.034188800025731325, 0.034381199977360666, 4.804854799993336]",0,,,,,,,,,,,,,,,,,,,,,,,,,,,,,,,,,,,,,,,,,,,,,,,,,,,,,,,,,,,,,,,,,,,,,,,,,,,,,,,,,,,,,,,,,,,,,,,,,,,,,,,,,,,,,,,,,,,,,,,,,,,,NJNYT8,train_y,red_square,top_right,2025-06-24_17h05.18.168,HideSeek_v1,2022.2.5,59.95300879494722,
,,,,,,,,,,,,,,,0,0,0,0,5,0,5,0,,,,,,,,,,,,,,,,,,,,,,,,,,,,,,,conditions/schedules/train_y_first/red_square_00/top_right/instructions/Slide6.png,conditions/schedules/train_y_first/red_square_00/top_right/instructions/Audio6.wav,419.2355305000674,419.23633583998304,6,"[7.958371099899523, 17.76357030007057, 16.254690899979323, 19.404121400089934, 4.804847599938512, 5.619880800019018]","[7.958378099952824, 0.014227800071239471, 0.034188800025731325, 0.034381199977360666, 0.031954300007782876, 5.619887900073081]",0,,,,,,,,,,,,,,,,,,,,,,,,,,,,,,,,,,,,,,,,,,,,,,,,,,,,,,,,,,,,,,,,,,,,,,,,,,,,,,,,,,,,,,,,,,,,,,,,,,,,,,,,,,,,,,,,,,,,,,,,,,,,NJNYT8,train_y,red_square,top_right,2025-06-24_17h05.18.168,HideSeek_v1,2022.2.5,59.95300879494722,
,,,,,,,,,,,,,,,0,0,0,0,6,0,6,0,,,,,,,,,,,,,,,,,,,,,,,,,,,,,,,conditions/schedules/train_y_first/red_square_00/top_right/instructions/Slide7.png,conditions/schedules/train_y_first/red_square_00/top_right/instructions/Audio7.wav,424.9065807000734,424.9082187400432,7,"[7.958371099899523, 17.76357030007057, 16.254690899979323, 19.404121400089934, 4.804847599938512, 5.619880800019018, 5.537021100055426]","[7.958378099952824, 0.014227800071239471, 0.034188800025731325, 0.034381199977360666, 0.031954300007782876, 0.00020250002853572369, 5.537028899998404]",0,,,,,,,,,,,,,,,,,,,,,,,,,,,,,,,,,,,,,,,,,,,,,,,,,,,,,,,,,,,,,,,,,,,,,,,,,,,,,,,,,,,,,,,,,,,,,,,,,,,,,,,,,,,,,,,,,,,,,,,,,,,,NJNYT8,train_y,red_square,top_right,2025-06-24_17h05.18.168,HideSeek_v1,2022.2.5,59.95300879494722,
,,,,,,,,,,,,,,,0,0,0,0,7,0,7,0,,,,,,,,,,,,,,,,,,,,,,,,,,,,,,,conditions/schedules/train_y_first/red_square_00/top_right/instructions/Slide8.png,conditions/schedules/train_y_first/red_square_00/top_right/instructions/Audio8.wav,430.496759200003,430.49585384004746,8,"[7.958371099899523, 17.76357030007057, 16.254690899979323, 19.404121400089934, 4.804847599938512, 5.619880800019018, 5.537021100055426, 11.239070300012827]","[7.958378099952824, 0.014227800071239471, 0.034188800025731325, 0.034381199977360666, 0.031954300007782876, 0.00020250002853572369, 0.03130949998740107, 11.239077900070697]",0,,,,,,,,,,,,,,,,,,,,,,,,,,,,,,,,,,,,,,,,,,,,,,,,,,,,,,,,,,,,,,,,,,,,,,,,,,,,,,,,,,,,,,,,,,,,,,,,,,,,,,,,,,,,,,,,,,,,,,,,,,,,NJNYT8,train_y,red_square,top_right,2025-06-24_17h05.18.168,HideSeek_v1,2022.2.5,59.95300879494722,
,,,,,,,,,,,,,,,0,0,0,0,8,0,8,0,,,,,,,,,,,,,,,,,,,,,,,,,,,,,,,conditions/schedules/train_y_first/red_square_00/top_right/instructions/Slide9.png,conditions/schedules/train_y_first/red_square_00/top_right/instructions/Audio9.wav,441.8023262000643,441.8050857000635,9,"[7.958371099899523, 17.76357030007057, 16.254690899979323, 19.404121400089934, 4.804847599938512, 5.619880800019018, 5.537021100055426, 11.239070300012827, 5.821909199934453]","[7.958378099952824, 0.014227800071239471, 0.034188800025731325, 0.034381199977360666, 0.031954300007782876, 0.00020250002853572369, 0.03130949998740107, 0.033652100013569, 5.8219175999984145]",0,,,,,,,,,,,,,,,,,,,,,,,,,,,,,,,,,,,,,,,,,,,,,,,,,,,,,,,,,,,,,,,,,,,,,,,,,,,,,,,,,,,,,,,,,,,,,,,,,,,,,,,,,,,,,,,,,,,,,,,,,,,,NJNYT8,train_y,red_square,top_right,2025-06-24_17h05.18.168,HideSeek_v1,2022.2.5,59.95300879494722,
,,,,,,,,,,,,,,,0,0,0,0,9,0,9,0,,,,,,,,,,,,,,,,,,,,,,,,,,,,,,,conditions/schedules/train_y_first/red_square_00/top_right/instructions/Slide10.png,conditions/schedules/train_y_first/red_square_00/top_right/instructions/Audio10.wav,447.66325700003654,447.6600582799758,10,"[7.958371099899523, 17.76357030007057, 16.254690899979323, 19.404121400089934, 4.804847599938512, 5.619880800019018, 5.537021100055426, 11.239070300012827, 5.821909199934453, 6.549852299969643]","[7.958378099952824, 0.014227800071239471, 0.034188800025731325, 0.034381199977360666, 0.031954300007782876, 0.00020250002853572369, 0.03130949998740107, 0.033652100013569, 0.046589900040999055, 6.5498619000427425]",0,,,,,,,,,,,,,,,,,,,,,,,,,,,,,,,,,,,,,,,,,,,,,,,,,,,,,,,,,,,,,,,,,,,,,,,,,,,,,,,,,,,,,,,,,,,,,,,,,,,,,,,,,,,,,,,,,,,,,,,,,,,,NJNYT8,train_y,red_square,top_right,2025-06-24_17h05.18.168,HideSeek_v1,2022.2.5,59.95300879494722,
,,,,,,,,,,,,,,,0,0,0,0,10,0,10,0,,,,,,,,,,,,,,,,,,,,,,,,,,,,,,,conditions/schedules/train_y_first/red_square_00/top_right/instructions/Slide11.png,conditions/schedules/train_y_first/red_square_00/top_right/instructions/Audio11.wav,454.25161020003725,454.2488758800202,11,"[7.958371099899523, 17.76357030007057, 16.254690899979323, 19.404121400089934, 4.804847599938512, 5.619880800019018, 5.537021100055426, 11.239070300012827, 5.821909199934453, 6.549852299969643, 9.736313100089319]","[7.958378099952824, 0.014227800071239471, 0.034188800025731325, 0.034381199977360666, 0.031954300007782876, 0.00020250002853572369, 0.03130949998740107, 0.033652100013569, 0.046589900040999055, 0.014087400049902499, 9.736320600030012]",0,,,,,,,,,,,,,,,,,,,,,,,,,,,,,,,,,,,,,,,,,,,,,,,,,,,,,,,,,,,,,,,,,,,,,,,,,,,,,,,,,,,,,,,,,,,,,,,,,,,,,,,,,,,,,,,,,,,,,,,,,,,,NJNYT8,train_y,red_square,top_right,2025-06-24_17h05.18.168,HideSeek_v1,2022.2.5,59.95300879494722,
,,,,,,,,,,,,,,,0,0,0,0,11,0,11,0,,,,,,,,,,,,,,,,,,,,,,,,,,,,,,,conditions/schedules/train_y_first/red_square_00/top_right/instructions/Slide12.png,conditions/schedules/train_y_first/red_square_00/top_right/instructions/Audio12.wav,464.0422988999635,464.04030334008854,12,"[7.958371099899523, 17.76357030007057, 16.254690899979323, 19.404121400089934, 4.804847599938512, 5.619880800019018, 5.537021100055426, 11.239070300012827, 5.821909199934453, 6.549852299969643, 9.736313100089319, 13.406700200052]","[7.958378099952824, 0.014227800071239471, 0.034188800025731325, 0.034381199977360666, 0.031954300007782876, 0.00020250002853572369, 0.03130949998740107, 0.033652100013569, 0.046589900040999055, 0.014087400049902499, 0.04662160004954785, 13.406709900009446]",0,,,,,,,,,,,,,,,,,,,,,,,,,,,,,,,,,,,,,,,,,,,,,,,,,,,,,,,,,,,,,,,,,,,,,,,,,,,,,,,,,,,,,,,,,,,,,,,,,,,,,,,,,,,,,,,,,,,,,,,,,,,,NJNYT8,train_y,red_square,top_right,2025-06-24_17h05.18.168,HideSeek_v1,2022.2.5,59.95300879494722,
1,7,8,7,3,0,-5,11,2,instr_dim1_1,,,,,,0,0,0,0,,,,,0,0,0,0,,,,,,,,,,,,,,,,,,,,,,,,,,,,,,,,,,,,,stimuli/alien_stimuli/11.png,conditions/schedules/train_y_first/red_square_00/top_right/inputInstr_1.xlsx,stimuli/alien_stimuli/11.png,477.5493878000416,477.5493878000416,477.5493878000416,477.5493878000416,477.55139541999665,return,11.642859200015664,"[-0.16, -0.08, 0, 0.08, 0.16, 0.24, 0.32, 0.4, 0.48, 0.56]","[-0.4, -0.32, -0.24, -0.16, -0.08, 0, 0.08, 0.16, 0.24, 0.32]",3,8,7,7,0.4,0.0,489.35802150005475,489.35802150005475,489.35802150005475,489.35802150005475,489.35802150005475,489.35802150005475,489.35802150005475,489.34468964006516,8.857758500031196,return,8.68780960002914,stimuli/alien_stimuli/11.png,11,7,1,,,,,,,,,,,,,,,,,,,,,,,,,,,,,,,,,,,,,,,,,,,,,,,,,,,,,,,,,,,,,,,,,,,,,,,,,,,,,,,,,,,,,,,,,NJNYT8,train_y,red_square,top_right,2025-06-24_17h05.18.168,HideSeek_v1,2022.2.5,59.95300879494722,
,,,,,,,,,,,30,,,,0,0,0,0,,,,,,,,,,,,,,,,,,,,,,,,,,,,,,,,,,,,,,,,,,,,,,,,,,,,,,,,,,,,,,,,,,,,,,,,,,,,,,21,0.7,0,0,99,1,30,0,conditions/schedules/train_y_first/red_square_00/top_right/inputTrain_1.1.xlsx,99,1,1,1,0,,,,,,,,,,,,,,,,,,,,,,,,,,,,,,,,,,,,,,,,,,,,,,,,,,,,,,,,,,,,,,,,,,,,,,,,,,,NJNYT8,train_y,red_square,top_right,2025-06-24_17h05.18.168,HideSeek_v1,2022.2.5,59.95300879494722,
,,,,,,,,,,,,,,,1,0,1,0,0,0,0,0,,,,,,,,,,,,,,,,,,,,,,,,,,,,,,,conditions/schedules/train_y_first/red_square_00/top_right/instructions/Slide13.png,conditions/schedules/train_y_first/red_square_00/top_right/instructions/Audio13.wav,498.1993083000416,498.20184164001836,13,"[7.958371099899523, 17.76357030007057, 16.254690899979323, 19.404121400089934, 4.804847599938512, 5.619880800019018, 5.537021100055426, 11.239070300012827, 5.821909199934453, 6.549852299969643, 9.736313100089319, 13.406700200052, 16.947353500057943]","[7.958378099952824, 0.014227800071239471, 0.034188800025731325, 0.034381199977360666, 0.031954300007782876, 0.00020250002853572369, 0.03130949998740107, 0.033652100013569, 0.046589900040999055, 0.014087400049902499, 0.04662160004954785, 13.406709900009446, 16.947361400001682]",0,,,,,,,,,,,,,,,,,,,,,,,,,,,,,,,,,,,,,,,,,,,,,,,,,,,,,,,,,,,,,,,,,,,,,,,,,,,,,,,,,,,,,,,,,,,,,,,,,,,,,,,,,,,,,,,,,,,,,,,,,,,,NJNYT8,train_y,red_square,top_right,2025-06-24_17h05.18.168,HideSeek_v1,2022.2.5,59.95300879494722,
,,,,,,,,,,,,,,,1,0,1,0,1,0,1,0,,,,,,,,,,,,,,,,,,,,,,,,,,,,,,,conditions/schedules/train_y_first/red_square_00/top_right/instructions/Slide14.png,conditions/schedules/train_y_first/red_square_00/top_right/instructions/Audio14.wav,515.2158765000058,515.2159462000127,14,"[7.958371099899523, 17.76357030007057, 16.254690899979323, 19.404121400089934, 4.804847599938512, 5.619880800019018, 5.537021100055426, 11.239070300012827, 5.821909199934453, 6.549852299969643, 9.736313100089319, 13.406700200052, 16.947353500057943, 16.94486190006137]","[7.958378099952824, 0.014227800071239471, 0.034188800025731325, 0.034381199977360666, 0.031954300007782876, 0.00020250002853572369, 0.03130949998740107, 0.033652100013569, 0.046589900040999055, 0.014087400049902499, 0.04662160004954785, 13.406709900009446, 0.013806600007228553, 16.94486849999521]",0,,,,,,,,,,,,,,,,,,,,,,,,,,,,,,,,,,,,,,,,,,,,,,,,,,,,,,,,,,,,,,,,,,,,,,,,,,,,,,,,,,,,,,,,,,,,,,,,,,,,,,,,,,,,,,,,,,,,,,,,,,,,NJNYT8,train_y,red_square,top_right,2025-06-24_17h05.18.168,HideSeek_v1,2022.2.5,59.95300879494722,
2,5,8,5,8,0,0,16,2,instr_dim1_1,,,,,,1,0,1,0,,,,,0,0,0,0,,,,,,,,,,,,,,,,,,,,,,,,,,,,,,,,,,,,,stimuli/alien_stimuli/16.png,conditions/schedules/train_y_first/red_square_00/top_right/inputInstr_1.xlsx,stimuli/alien_stimuli/16.png,532.2555801999988,532.2555801999988,532.2555801999988,532.2555801999988,532.2467292600544,return,7.161968100001104,"[-0.16, -0.08, 0, 0.08, 0.16, 0.24, 0.32, 0.4, 0.48, 0.56]","[-0.4, -0.32, -0.24, -0.16, -0.08, 0, 0.08, 0.16, 0.24, 0.32]",8,8,5,5,0.0,0.0,539.5648996999953,539.5648996999953,539.5648996999953,539.5648996999953,539.5648996999953,539.5648996999953,539.5648996999953,539.5528199800057,9.575690599973314,return,9.41448360006325,stimuli/alien_stimuli/16.png,16,5,2,,,,,,,,,,,,,,,,,,,,,,,,,,,,,,,,,,,,,,,,,,,,,,,,,,,,,,,,,,,,,,,,,,,,,,,,,,,,,,,,,,,,,,,,,NJNYT8,train_y,red_square,top_right,2025-06-24_17h05.18.168,HideSeek_v1,2022.2.5,59.95300879494722,
,,,,,,,,,,,30,,,,1,0,1,0,,,,,,,,,,,,,,,,,,,,,,,,,,,,,,,,,,,,,,,,,,,,,,,,,,,,,,,,,,,,,,,,,,,,,,,,,,,,,,21,0.7,0,0,99,1,30,0,conditions/schedules/train_y_first/red_square_00/top_right/inputTrain_1.1.xlsx,99,1,1,1,0,,,,,,,,,,,,,,,,,,,,,,,,,,,,,,,,,,,,,,,,,,,,,,,,,,,,,,,,,,,,,,,,,,,,,,,,,,,NJNYT8,train_y,red_square,top_right,2025-06-24_17h05.18.168,HideSeek_v1,2022.2.5,59.95300879494722,
,,,,,,,,,,,,,,,2,0,2,0,0,0,0,0,,,,,,,,,,,,,,,,,,,,,,,,,,,,,,,conditions/schedules/train_y_first/red_square_00/top_right/instructions/Slide15.png,conditions/schedules/train_y_first/red_square_00/top_right/instructions/Audio15.wav,549.1685923000332,549.160898800008,15,"[7.958371099899523, 17.76357030007057, 16.254690899979323, 19.404121400089934, 4.804847599938512, 5.619880800019018, 5.537021100055426, 11.239070300012827, 5.821909199934453, 6.549852299969643, 9.736313100089319, 13.406700200052, 16.947353500057943, 16.94486190006137, 43.05805190000683]","[7.958378099952824, 0.014227800071239471, 0.034188800025731325, 0.034381199977360666, 0.031954300007782876, 0.00020250002853572369, 0.03130949998740107, 0.033652100013569, 0.046589900040999055, 0.014087400049902499, 0.04662160004954785, 13.406709900009446, 0.013806600007228553, 16.94486849999521, 43.05805870005861]",0,,,,,,,,,,,,,,,,,,,,,,,,,,,,,,,,,,,,,,,,,,,,,,,,,,,,,,,,,,,,,,,,,,,,,,,,,,,,,,,,,,,,,,,,,,,,,,,,,,,,,,,,,,,,,,,,,,,,,,,,,,,,NJNYT8,train_y,red_square,top_right,2025-06-24_17h05.18.168,HideSeek_v1,2022.2.5,59.95300879494722,
,,,,,,,,,,,,,,,2,0,2,0,1,0,1,0,,,,,,,,,,,,,,,,,,,,,,,,,,,,,,,conditions/schedules/train_y_first/red_square_00/top_right/instructions/Slide16.png,conditions/schedules/train_y_first/red_square_00/top_right/instructions/Audio16.wav,592.2975627999986,592.2965813000337,16,"[7.958371099899523, 17.76357030007057, 16.254690899979323, 19.404121400089934, 4.804847599938512, 5.619880800019018, 5.537021100055426, 11.239070300012827, 5.821909199934453, 6.549852299969643, 9.736313100089319, 13.406700200052, 16.947353500057943, 16.94486190006137, 43.05805190000683, 21.03055210004095]","[7.958378099952824, 0.014227800071239471, 0.034188800025731325, 0.034381199977360666, 0.031954300007782876, 0.00020250002853572369, 0.03130949998740107, 0.033652100013569, 0.046589900040999055, 0.014087400049902499, 0.04662160004954785, 13.406709900009446, 0.013806600007228553, 16.94486849999521, 0.07969230005983263, 21.030559200095013]",0,,,,,,,,,,,,,,,,,,,,,,,,,,,,,,,,,,,,,,,,,,,,,,,,,,,,,,,,,,,,,,,,,,,,,,,,,,,,,,,,,,,,,,,,,,,,,,,,,,,,,,,,,,,,,,,,,,,,,,,,,,,,NJNYT8,train_y,red_square,top_right,2025-06-24_17h05.18.168,HideSeek_v1,2022.2.5,59.95300879494722,
,5,5,5,4,0,-1,15,,train_dim1_1,1,30,,,,2,0,2,0,,,,,,,,,0,0,0,0,0,0,0,0,0,0,0,0,,,,,,,,,,,,,,,,,,,,,,,,,stimuli/alien_stimuli/15.png,,,,,,,,,,,,,,,,,,,,,,,,,,,,,,,,,,,,,,,30,,,,,,,,613.4320614000317,613.4320614000317,613.4320614000317,613.4320614000317,613.4320614000317,down,8.202297399984673,0,0,0,99,0.24,-0.08,down,8.099393100012094,,,,,,,,,,,,,,,,,,,,,,,,,,,,,,,,,,,,,,,,,,,,,,,,,,,,,,,,,,,,NJNYT8,train_y,red_square,top_right,2025-06-24_17h05.18.168,HideSeek_v1,2022.2.5,59.95300879494722,
,5,5,5,4,0,-1,15,,train_dim1_1,1,30,,,,2,0,2,0,,,,,,,,,0,0,0,0,0,0,0,0,1,0,1,0,,,,,,,,,,,,,,,,,,,,,,,,,,,,,,,,,,,,,,,,,,,,,,,,,,,,,,,,,,,,,,,,30,,,,,,,,621.6259813000215,621.6259813000215,621.6259813000215,621.6259813000215,621.6259813000215,return,3.7769421000266448,1,0,0,1,0.24,-0.08,return,3.6931669000769034,-1,0,0.24,-0.08,,,,,,,,,,,,,,,,,,,,,,,,,,,,,,,,,,,,,,,,,,,,,,,,,,,,,,,,NJNYT8,train_y,red_square,top_right,2025-06-24_17h05.18.168,HideSeek_v1,2022.2.5,59.95300879494722,
,8,7,8,7,0,0,16,,train_dim1_1,2,30,,,,2,0,2,0,,,,,,,,,0,0,0,0,0,1,1,1,0,0,0,0,,,,,,,,,,,,,,,,,,,,,,,,,stimuli/alien_stimuli/16.png,,,,,,,,,,,,,,,,,,,,,,,,,,,,,stimuli/alien_stimuli/15.png,15,5,3,,,,,,,30,,,,,,,,638.152059199987,638.152059199987,638.152059199987,638.152059199987,638.152059199987,return,3.7497230999870226,2,0,0,1,0.48,0.16,return,3.6421722000231966,-1,0,0.48,0.16,636.5666492000455,638.152059199987,0.24,-0.08,0.08,0.0,-0.04,0.24,0.24,0.24,-0.08,627.0013710999629,627.0013710999629,627.0013710999629,627.0013710999629,627.0013710999629,627.0013710999629,627.0013710999629,627.0013710999629,626.9920298400917,9.710095099988393,return,9.535895600100048,,,,,,,,,,,,,,,,,,,,,,,,,,,,,,,,,NJNYT8,train_y,red_square,top_right,2025-06-24_17h05.18.168,HideSeek_v1,2022.2.5,59.95300879494722,
,7,8,7,5,0,-3,13,,train_dim1_1,3,30,,,,2,0,2,0,,,,,,,,,0,0,0,0,0,2,2,2,0,0,0,0,,,,,,,,,,,,,,,,,,,,,,,,,stimuli/alien_stimuli/13.png,,,,,,,,,,,,,,,,,,,,,,,,,,,,,stimuli/alien_stimuli/16.png,16,8,4,,,,,,,30,,,,,,,,648.3358067000518,648.3358067000518,648.3358067000518,648.3358067000518,648.3358067000518,down,6.506799900089391,2,0,0,99,0.4,0.15999999999999998,down,6.41932079999242,,,,,646.7750864999834,648.3358067000518,0.48,0.16,0.0,0.0,0.16,0.48,0.48,0.48,0.16,643.4542873000028,643.4542873000028,643.4542873000028,643.4542873000028,643.4542873000028,643.4542873000028,643.4542873000028,643.4542873000028,643.4558041800511,3.4378413000376895,return,3.2974109000060707,,,,,,,,,,,,,,,,,,,,,,,,,,,,,,,,,NJNYT8,train_y,red_square,top_right,2025-06-24_17h05.18.168,HideSeek_v1,2022.2.5,59.95300879494722,
,7,8,7,5,0,-3,13,,train_dim1_1,3,30,,,,2,0,2,0,,,,,,,,,0,0,0,0,0,2,2,2,1,0,1,0,,,,,,,,,,,,,,,,,,,,,,,,,,,,,,,,,,,,,,,,,,,,,,,,,,,,,,,,,,,,,,,,30,,,,,,,,654.8507618000731,654.8507618000731,654.8507618000731,654.8507618000731,654.8507618000731,down,0.9922454000916332,2,0,0,99,0.4,0.07999999999999997,down,0.9057110000867397,,,,,,,,,,,,,,,,,,,,,,,,,,,,,,,,,,,,,,,,,,,,,,,,,,,,,,,,,,,,NJNYT8,train_y,red_square,top_right,2025-06-24_17h05.18.168,HideSeek_v1,2022.2.5,59.95300879494722,
,7,8,7,5,0,-3,13,,train_dim1_1,3,30,,,,2,0,2,0,,,,,,,,,0,0,0,0,0,2,2,2,2,0,2,0,,,,,,,,,,,,,,,,,,,,,,,,,,,,,,,,,,,,,,,,,,,,,,,,,,,,,,,,,,,,,,,,30,,,,,,,,655.8489734999603,655.8489734999603,655.8489734999603,655.8489734999603,655.8489734999603,down,1.077074500033632,2,0,0,99,0.4,-2.7755575615628914e-17,down,0.9926820999244228,,,,,,,,,,,,,,,,,,,,,,,,,,,,,,,,,,,,,,,,,,,,,,,,,,,,,,,,,,,,NJNYT8,train_y,red_square,top_right,2025-06-24_17h05.18.168,HideSeek_v1,2022.2.5,59.95300879494722,
,7,8,7,5,0,-3,13,,train_dim1_1,3,30,,,,2,0,2,0,,,,,,,,,0,0,0,0,0,2,2,2,3,0,3,0,,,,,,,,,,,,,,,,,,,,,,,,,,,,,,,,,,,,,,,,,,,,,,,,,,,,,,,,,,,,,,,,30,,,,,,,,656.9375616000034,656.9375616000034,656.9375616000034,656.9375616000034,656.9375616000034,down,1.1737850999925286,2,0,0,99,0.4,-0.08000000000000003,down,1.0888259999919683,,,,,,,,,,,,,,,,,,,,,,,,,,,,,,,,,,,,,,,,,,,,,,,,,,,,,,,,,,,,NJNYT8,train_y,red_square,top_right,2025-06-24_17h05.18.168,HideSeek_v1,2022.2.5,59.95300879494722,
,7,8,7,5,0,-3,13,,train_dim1_1,3,30,,,,2,0,2,0,,,,,,,,,0,0,0,0,0,2,2,2,4,0,4,0,,,,,,,,,,,,,,,,,,,,,,,,,,,,,,,,,,,,,,,,,,,,,,,,,,,,,,,,,,,,,,,,30,,,,,,,,658.118590899976,658.118590899976,658.118590899976,658.118590899976,658.118590899976,down,0.7929833999369293,2,0,0,99,0.4,-0.16000000000000003,down,0.7062141000060365,,,,,,,,,,,,,,,,,,,,,,,,,,,,,,,,,,,,,,,,,,,,,,,,,,,,,,,,,,,,NJNYT8,train_y,red_square,top_right,2025-06-24_17h05.18.168,HideSeek_v1,2022.2.5,59.95300879494722,
,7,8,7,5,0,-3,13,,train_dim1_1,3,30,,,,2,0,2,0,,,,,,,,,0,0,0,0,0,2,2,2,5,0,5,0,,,,,,,,,,,,,,,,,,,,,,,,,,,,,,,,,,,,,,,,,,,,,,,,,,,,,,,,,,,,,,,,30,,,,,,,,658.9194874999812,658.9194874999812,658.9194874999812,658.9194874999812,658.9194874999812,down,1.277350899996236,2,0,0,99,0.4,-0.24000000000000005,down,1.1912621000083163,,,,,,,,,,,,,,,,,,,,,,,,,,,,,,,,,,,,,,,,,,,,,,,,,,,,,,,,,,,,NJNYT8,train_y,red_square,top_right,2025-06-24_17h05.18.168,HideSeek_v1,2022.2.5,59.95300879494722,
,7,8,7,5,0,-3,13,,train_dim1_1,3,30,,,,2,0,2,0,,,,,,,,,0,0,0,0,0,2,2,2,6,0,6,0,,,,,,,,,,,,,,,,,,,,,,,,,,,,,,,,,,,,,,,,,,,,,,,,,,,,,,,,,,,,,,,,30,,,,,,,,660.2033277000301,660.2033277000301,660.2033277000301,660.2033277000301,660.2033277000301,return,0.526299599907361,2,0,0,0,0.4,-0.24000000000000005,return,0.4372322999406606,-7,0,0.4,-0.24000000000000005,,,,,,,,,,,,,,,,,,,,,,,,,,,,,,,,,,,,,,,,,,,,,,,,,,,,,,,,NJNYT8,train_y,red_square,top_right,2025-06-24_17h05.18.168,HideSeek_v1,2022.2.5,59.95300879494722,
,5,6,5,2,0,-4,12,,train_dim1_1,4,30,,,,2,0,2,0,,,,,,,,,0,0,0,0,0,3,3,3,0,0,0,0,,,,,,,,,,,,,,,,,,,,,,,,,stimuli/alien_stimuli/12.png,,,,,,,,,,,,,,,,,,,,,,,,,,,,,stimuli/alien_stimuli/13.png,13,7,5,,,,,,,30,,,,,,,,669.0387209999608,669.0387209999608,669.0387209999608,669.0387209999608,669.0387209999608,down,3.7031005999306217,2,0,0,99,0.24,0.0,down,3.609777500038035,,,,,667.4756599999964,669.0387209999608,0.4,0,0.24,0.0,0.12,0.4,0.4,0.4,0,662.3097340000095,662.3097340000095,662.3097340000095,662.3097340000095,662.3097340000095,662.3097340000095,662.3097340000095,662.3097340000095,662.3047039800323,5.289648899924941,return,5.136556999990717,,,,,,,,,,,,,,,,,,,,,,,,,,,,,,,,,NJNYT8,train_y,red_square,top_right,2025-06-24_17h05.18.168,HideSeek_v1,2022.2.5,59.95300879494722,
,5,6,5,2,0,-4,12,,train_dim1_1,4,30,,,,2,0,2,0,,,,,,,,,0,0,0,0,0,3,3,3,1,0,1,0,,,,,,,,,,,,,,,,,,,,,,,,,,,,,,,,,,,,,,,,,,,,,,,,,,,,,,,,,,,,,,,,30,,,,,,,,672.7480867999839,672.7480867999839,672.7480867999839,672.7480867999839,672.7480867999839,down,1.493858000030741,2,0,0,99,0.24,-0.08,down,1.4151216000318527,,,,,,,,,,,,,,,,,,,,,,,,,,,,,,,,,,,,,,,,,,,,,,,,,,,,,,,,,,,,NJNYT8,train_y,red_square,top_right,2025-06-24_17h05.18.168,HideSeek_v1,2022.2.5,59.95300879494722,
,5,6,5,2,0,-4,12,,train_dim1_1,4,30,,,,2,0,2,0,,,,,,,,,0,0,0,0,0,3,3,3,2,0,2,0,,,,,,,,,,,,,,,,,,,,,,,,,,,,,,,,,,,,,,,,,,,,,,,,,,,,,,,,,,,,,,,,30,,,,,,,,674.2484509999631,674.2484509999631,674.2484509999631,674.2484509999631,674.2484509999631,down,0.6268022999865934,2,0,0,99,0.24,-0.16,down,0.5470418999902904,,,,,,,,,,,,,,,,,,,,,,,,,,,,,,,,,,,,,,,,,,,,,,,,,,,,,,,,,,,,NJNYT8,train_y,red_square,top_right,2025-06-24_17h05.18.168,HideSeek_v1,2022.2.5,59.95300879494722,
,5,6,5,2,0,-4,12,,train_dim1_1,4,30,,,,2,0,2,0,,,,,,,,,0,0,0,0,0,3,3,3,3,0,3,0,,,,,,,,,,,,,,,,,,,,,,,,,,,,,,,,,,,,,,,,,,,,,,,,,,,,,,,,,,,,,,,,30,,,,,,,,674.8849548000144,674.8849548000144,674.8849548000144,674.8849548000144,674.8849548000144,return,0.7245698999613523,2,1,0,0,0.24,-0.16,return,0.6403059000149369,-10,0,0.24,-0.16,,,,,,,,,,,,,,,,,,,,,,,,,,,,,,,,,,,,,,,,,,,,,,,,,,,,,,,,NJNYT8,train_y,red_square,top_right,2025-06-24_17h05.18.168,HideSeek_v1,2022.2.5,59.95300879494722,
,8,8,8,3,0,-5,11,,train_dim1_1,5,30,,,,2,0,2,0,,,,,,,,,0,0,0,0,0,4,4,4,0,0,0,0,,,,,,,,,,,,,,,,,,,,,,,,,stimuli/alien_stimuli/11.png,,,,,,,,,,,,,,,,,,,,,,,,,,,,,stimuli/alien_stimuli/12.png,12,5,6,,,,,,,30,,,,,,,,690.5863805999979,690.5863805999979,690.5863805999979,690.5863805999979,690.5863805999979,down,3.886549200047739,2,1,0,99,0.48,0.15999999999999998,down,3.7793177999556065,,,,,689.0102174000349,690.5863805999979,0.24,-0.24,0.32,0.0,-0.07999999999999999,0.24,0.24,0.24,-0.24,677.1801810000325,677.1801810000325,677.1801810000325,677.1801810000325,677.1801810000325,677.1801810000325,677.1801810000325,677.1801810000325,677.1669133200892,11.94552769989241,return,11.804597600013949,,,,,,,,,,,,,,,,,,,,,,,,,,,,,,,,,NJNYT8,train_y,red_square,top_right,2025-06-24_17h05.18.168,HideSeek_v1,2022.2.5,59.95300879494722,
,8,8,8,3,0,-5,11,,train_dim1_1,5,30,,,,2,0,2,0,,,,,,,,,0,0,0,0,0,4,4,4,1,0,1,0,,,,,,,,,,,,,,,,,,,,,,,,,,,,,,,,,,,,,,,,,,,,,,,,,,,,,,,,,,,,,,,,30,,,,,,,,694.4660228000721,694.4660228000721,694.4660228000721,694.4660228000721,694.4660228000721,down,1.2936452999711037,2,1,0,99,0.48,0.07999999999999997,down,1.2165460999822244,,,,,,,,,,,,,,,,,,,,,,,,,,,,,,,,,,,,,,,,,,,,,,,,,,,,,,,,,,,,NJNYT8,train_y,red_square,top_right,2025-06-24_17h05.18.168,HideSeek_v1,2022.2.5,59.95300879494722,
,8,8,8,3,0,-5,11,,train_dim1_1,5,30,,,,2,0,2,0,,,,,,,,,0,0,0,0,0,4,4,4,2,0,2,0,,,,,,,,,,,,,,,,,,,,,,,,,,,,,,,,,,,,,,,,,,,,,,,,,,,,,,,,,,,,,,,,30,,,,,,,,695.7659263999667,695.7659263999667,695.7659263999667,695.7659263999667,695.7659263999667,down,1.2944394999649376,2,1,0,99,0.48,-2.7755575615628914e-17,down,1.209090399905108,,,,,,,,,,,,,,,,,,,,,,,,,,,,,,,,,,,,,,,,,,,,,,,,,,,,,,,,,,,,NJNYT8,train_y,red_square,top_right,2025-06-24_17h05.18.168,HideSeek_v1,2022.2.5,59.95300879494722,
,8,8,8,3,0,-5,11,,train_dim1_1,5,30,,,,2,0,2,0,,,,,,,,,0,0,0,0,0,4,4,4,3,0,3,0,,,,,,,,,,,,,,,,,,,,,,,,,,,,,,,,,,,,,,,,,,,,,,,,,,,,,,,,,,,,,,,,30,,,,,,,,697.0701726999832,697.0701726999832,697.0701726999832,697.0701726999832,697.0701726999832,return,1.10894659999758,2,0,0,0,0.48,-2.7755575615628914e-17,return,1.0225955999922007,-13,0,0.48,-2.7755575615628914e-17,,,,,,,,,,,,,,,,,,,,,,,,,,,,,,,,,,,,,,,,,,,,,,,,,,,,,,,,NJNYT8,train_y,red_square,top_right,2025-06-24_17h05.18.168,HideSeek_v1,2022.2.5,59.95300879494722,
,6,9,6,5,0,-4,12,,train_dim1_1,6,30,,,,2,0,2,0,,,,,,,,,0,0,0,0,0,5,5,5,0,0,0,0,,,,,,,,,,,,,,,,,,,,,,,,,stimuli/alien_stimuli/12.png,,,,,,,,,,,,,,,,,,,,,,,,,,,,,stimuli/alien_stimuli/11.png,11,8,7,,,,,,,30,,,,,,,,705.6215400999645,705.6215400999645,705.6215400999645,705.6215400999645,705.6215400999645,down,2.816926500061527,2,0,0,99,0.32,0.24,down,2.7345616999082267,,,,,704.0561299000401,705.6215400999645,0.48,-0.16,0.4,0.0,0.039999999999999994,0.48,0.48,0.48,-0.16,699.7549074999988,699.7549074999988,699.7549074999988,699.7549074999988,699.7549074999988,699.7549074999988,699.7549074999988,699.7549074999988,699.7523703800281,4.422433399944566,return,4.275148699991405,,,,,,,,,,,,,,,,,,,,,,,,,,,,,,,,,NJNYT8,train_y,red_square,top_right,2025-06-24_17h05.18.168,HideSeek_v1,2022.2.5,59.95300879494722,
,6,9,6,5,0,-4,12,,train_dim1_1,6,30,,,,2,0,2,0,,,,,,,,,0,0,0,0,0,5,5,5,1,0,1,0,,,,,,,,,,,,,,,,,,,,,,,,,,,,,,,,,,,,,,,,,,,,,,,,,,,,,,,,,,,,,,,,30,,,,,,,,708.4445934999967,708.4445934999967,708.4445934999967,708.4445934999967,708.4445934999967,down,1.043084800010547,2,0,0,99,0.32,0.15999999999999998,down,0.965965099981986,,,,,,,,,,,,,,,,,,,,,,,,,,,,,,,,,,,,,,,,,,,,,,,,,,,,,,,,,,,,NJNYT8,train_y,red_square,top_right,2025-06-24_17h05.18.168,HideSeek_v1,2022.2.5,59.95300879494722,
,6,9,6,5,0,-4,12,,train_dim1_1,6,30,,,,2,0,2,0,,,,,,,,,0,0,0,0,0,5,5,5,2,0,2,0,,,,,,,,,,,,,,,,,,,,,,,,,,,,,,,,,,,,,,,,,,,,,,,,,,,,,,,,,,,,,,,,30,,,,,,,,709.4983053000178,709.4983053000178,709.4983053000178,709.4983053000178,709.4983053000178,down,1.4918373000109568,2,0,0,99,0.32,0.07999999999999997,down,1.409730999963358,,,,,,,,,,,,,,,,,,,,,,,,,,,,,,,,,,,,,,,,,,,,,,,,,,,,,,,,,,,,NJNYT8,train_y,red_square,top_right,2025-06-24_17h05.18.168,HideSeek_v1,2022.2.5,59.95300879494722,
,6,9,6,5,0,-4,12,,train_dim1_1,6,30,,,,2,0,2,0,,,,,,,,,0,0,0,0,0,5,5,5,3,0,3,0,,,,,,,,,,,,,,,,,,,,,,,,,,,,,,,,,,,,,,,,,,,,,,,,,,,,,,,,,,,,,,,,30,,,,,,,,710.9964957999764,710.9964957999764,710.9964957999764,710.9964957999764,710.9964957999764,return,1.9440989000722766,2,1,0,0,0.32,0.07999999999999997,return,1.8632131000049412,-16,0,0.32,0.07999999999999997,,,,,,,,,,,,,,,,,,,,,,,,,,,,,,,,,,,,,,,,,,,,,,,,,,,,,,,,NJNYT8,train_y,red_square,top_right,2025-06-24_17h05.18.168,HideSeek_v1,2022.2.5,59.95300879494722,
,6,8,6,5,0,-3,13,,train_dim1_1,7,30,,,,2,0,2,0,,,,,,,,,0,0,0,0,0,6,6,6,0,0,0,0,,,,,,,,,,,,,,,,,,,,,,,,,stimuli/alien_stimuli/13.png,,,,,,,,,,,,,,,,,,,,,,,,,,,,,stimuli/alien_stimuli/12.png,12,6,8,,,,,,,30,,,,,,,,719.2105132000288,719.2105132000288,719.2105132000288,719.2105132000288,719.2105132000288,down,5.5397877000505105,2,1,0,99,0.32,0.15999999999999998,down,5.461101399967447,,,,,717.6504221999785,719.2105132000288,0.32,0,0.32,0.0,0.16,0.32,0.32,0.32,0,714.5199083000189,714.5199083000189,714.5199083000189,714.5199083000189,714.5199083000189,714.5199083000189,714.5199083000189,714.5199083000189,714.5146942800376,3.2546470999950543,return,3.1039275999646634,,,,,,,,,,,,,,,,,,,,,,,,,,,,,,,,,NJNYT8,train_y,red_square,top_right,2025-06-24_17h05.18.168,HideSeek_v1,2022.2.5,59.95300879494722,
,6,8,6,5,0,-3,13,,train_dim1_1,7,30,,,,2,0,2,0,,,,,,,,,0,0,0,0,0,6,6,6,1,0,1,0,,,,,,,,,,,,,,,,,,,,,,,,,,,,,,,,,,,,,,,,,,,,,,,,,,,,,,,,,,,,,,,,30,,,,,,,,724.7567600000184,724.7567600000184,724.7567600000184,724.7567600000184,724.7567600000184,return,0.4595273999730125,2,0,0,0,0.32,0.15999999999999998,return,0.36797140003181994,-17,0,0.32,0.15999999999999998,,,,,,,,,,,,,,,,,,,,,,,,,,,,,,,,,,,,,,,,,,,,,,,,,,,,,,,,NJNYT8,train_y,red_square,top_right,2025-06-24_17h05.18.168,HideSeek_v1,2022.2.5,59.95300879494722,
,9,7,9,2,0,-5,11,,train_dim1_1,8,30,,,,2,0,2,0,,,,,,,,,0,0,0,0,0,7,7,7,0,0,0,0,,,,,,,,,,,,,,,,,,,,,,,,,stimuli/alien_stimuli/11.png,,,,,,,,,,,,,,,,,,,,,,,,,,,,,stimuli/alien_stimuli/13.png,13,6,9,,,,,,,30,,,,,,,,731.0052643000381,731.0052643000381,731.0052643000381,731.0052643000381,731.0052643000381,down,10.009856099961326,2,0,0,99,0.56,0.08,down,9.920796999940649,,,,,729.4438332000282,731.0052643000381,0.32,0,0.24,0.0,0.12,0.32,0.32,0.32,0,726.7964281999739,726.7964281999739,726.7964281999739,726.7964281999739,726.7964281999739,726.7964281999739,726.7964281999739,726.7964281999739,726.7914948800345,2.7707182000158355,return,2.6176393000641838,,,,,,,,,,,,,,,,,,,,,,,,,,,,,,,,,NJNYT8,train_y,red_square,top_right,2025-06-24_17h05.18.168,HideSeek_v1,2022.2.5,59.95300879494722,
,9,7,9,2,0,-5,11,,train_dim1_1,8,30,,,,2,0,2,0,,,,,,,,,0,0,0,0,0,7,7,7,1,0,1,0,,,,,,,,,,,,,,,,,,,,,,,,,,,,,,,,,,,,,,,,,,,,,,,,,,,,,,,,,,,,,,,,30,,,,,,,,741.0364550000522,741.0364550000522,741.0364550000522,741.0364550000522,741.0364550000522,down,7.313513399916701,2,0,0,99,0.56,0.0,down,7.217770999995992,,,,,,,,,,,,,,,,,,,,,,,,,,,,,,,,,,,,,,,,,,,,,,,,,,,,,,,,,,,,NJNYT8,train_y,red_square,top_right,2025-06-24_17h05.18.168,HideSeek_v1,2022.2.5,59.95300879494722,
,9,7,9,2,0,-5,11,,train_dim1_1,8,30,,,,2,0,2,0,,,,,,,,,0,0,0,0,0,7,7,7,2,0,2,0,,,,,,,,,,,,,,,,,,,,,,,,,,,,,,,,,,,,,,,,,,,,,,,,,,,,,,,,,,,,,,,,30,,,,,,,,748.3479762000497,748.3479762000497,748.3479762000497,748.3479762000497,748.3479762000497,down,3.76288390008267,2,0,0,99,0.56,-0.08,down,3.6736397999338806,,,,,,,,,,,,,,,,,,,,,,,,,,,,,,,,,,,,,,,,,,,,,,,,,,,,,,,,,,,,NJNYT8,train_y,red_square,top_right,2025-06-24_17h05.18.168,HideSeek_v1,2022.2.5,59.95300879494722,
,9,7,9,2,0,-5,11,,train_dim1_1,8,30,,,,2,0,2,0,,,,,,,,,0,0,0,0,0,7,7,7,3,0,3,0,,,,,,,,,,,,,,,,,,,,,,,,,,,,,,,,,,,,,,,,,,,,,,,,,,,,,,,,,,,,,,,,30,,,,,,,,752.114277799963,752.114277799963,752.114277799963,752.114277799963,752.114277799963,down,1.9439554000273347,2,0,0,99,0.56,-0.16,down,1.8574494000058621,,,,,,,,,,,,,,,,,,,,,,,,,,,,,,,,,,,,,,,,,,,,,,,,,,,,,,,,,,,,NJNYT8,train_y,red_square,top_right,2025-06-24_17h05.18.168,HideSeek_v1,2022.2.5,59.95300879494722,
,9,7,9,2,0,-5,11,,train_dim1_1,8,30,,,,2,0,2,0,,,,,,,,,0,0,0,0,0,7,7,7,4,0,4,0,,,,,,,,,,,,,,,,,,,,,,,,,,,,,,,,,,,,,,,,,,,,,,,,,,,,,,,,,,,,,,,,30,,,,,,,,754.0699842000613,754.0699842000613,754.0699842000613,754.0699842000613,754.0699842000613,return,0.6563487000530586,2,1,0,0,0.56,-0.16,return,0.5679933000355959,-21,0,0.56,-0.16,,,,,,,,,,,,,,,,,,,,,,,,,,,,,,,,,,,,,,,,,,,,,,,,,,,,,,,,NJNYT8,train_y,red_square,top_right,2025-06-24_17h05.18.168,HideSeek_v1,2022.2.5,59.95300879494722,
,9,8,9,7,0,-1,15,,train_dim1_1,9,30,,,,2,0,2,0,,,,,,,,,0,0,0,0,0,8,8,8,0,0,0,0,,,,,,,,,,,,,,,,,,,,,,,,,stimuli/alien_stimuli/15.png,,,,,,,,,,,,,,,,,,,,,,,,,,,,,stimuli/alien_stimuli/11.png,11,9,10,,,,,,,30,,,,,,,,760.1289547999622,760.1289547999622,760.1289547999622,760.1289547999622,760.1289547999622,down,2.8870647998992354,2,1,0,99,0.56,0.15999999999999998,down,2.799129500053823,,,,,758.5679721999913,760.1289547999622,0.56,-0.24,0.4,0.0,-0.039999999999999994,0.56,0.56,0.56,-0.24,756.3019596000668,756.3019596000668,756.3019596000668,756.3019596000668,756.3019596000668,756.3019596000668,756.3019596000668,756.3019596000668,756.2992271800059,2.387457500095479,return,2.237174900015816,,,,,,,,,,,,,,,,,,,,,,,,,,,,,,,,,NJNYT8,train_y,red_square,top_right,2025-06-24_17h05.18.168,HideSeek_v1,2022.2.5,59.95300879494722,
,9,8,9,7,0,-1,15,,train_dim1_1,9,30,,,,2,0,2,0,,,,,,,,,0,0,0,0,0,8,8,8,1,0,1,0,,,,,,,,,,,,,,,,,,,,,,,,,,,,,,,,,,,,,,,,,,,,,,,,,,,,,,,,,,,,,,,,30,,,,,,,,763.0242387000471,763.0242387000471,763.0242387000471,763.0242387000471,763.0242387000471,return,0.7255837999982759,3,0,0,1,0.56,0.15999999999999998,return,0.6368946000002325,-22,0,0.56,0.15999999999999998,,,,,,,,,,,,,,,,,,,,,,,,,,,,,,,,,,,,,,,,,,,,,,,,,,,,,,,,NJNYT8,train_y,red_square,top_right,2025-06-24_17h05.18.168,HideSeek_v1,2022.2.5,59.95300879494722,
,7,7,7,7,0,0,16,,train_dim1_1,10,30,,,,2,0,2,0,,,,,,,,,0,0,0,0,0,9,9,9,0,0,0,0,,,,,,,,,,,,,,,,,,,,,,,,,stimuli/alien_stimuli/16.png,,,,,,,,,,,,,,,,,,,,,,,,,,,,,stimuli/alien_stimuli/15.png,15,9,11,,,,,,,30,,,,,,,,769.418007500004,769.418007500004,769.418007500004,769.418007500004,769.418007500004,return,1.7878404000075534,4,0,0,1,0.4,0.16,return,1.7025843999581411,-22,0,0.4,0.16,767.8589290999807,769.418007500004,0.56,0.16,0.08,0.0,0.2,0.56,0.56,0.56,0.16,765.3258595999796,765.3258595999796,765.3258595999796,765.3258595999796,765.3258595999796,765.3258595999796,765.3258595999796,765.3258595999796,765.3232975800521,2.654192900052294,return,2.5070513000246137,,,,,,,,,,,,,,,,,,,,,,,,,,,,,,,,,NJNYT8,train_y,red_square,top_right,2025-06-24_17h05.18.168,HideSeek_v1,2022.2.5,59.95300879494722,
,9,6,9,5,0,-1,15,,train_dim1_1,11,30,,,,2,0,2,0,,,,,,,,,0,0,0,0,0,10,10,10,0,0,0,0,,,,,,,,,,,,,,,,,,,,,,,,,stimuli/alien_stimuli/15.png,,,,,,,,,,,,,,,,,,,,,,,,,,,,,stimuli/alien_stimuli/16.png,16,7,12,,,,,,,30,,,,,,,,777.3119969000109,777.3119969000109,777.3119969000109,777.3119969000109,777.3119969000109,down,2.3683928999817,4,0,0,99,0.56,0.0,down,2.2903490000171587,,,,,775.7486869000131,777.3119969000109,0.4,0.16,0.0,0.0,0.16,0.4,0.4,0.4,0.16,772.7599448000547,772.7599448000547,772.7599448000547,772.7599448000547,772.7599448000547,772.7599448000547,772.7599448000547,772.7599448000547,772.7461245599901,3.0880260999547318,return,2.971649300074205,,,,,,,,,,,,,,,,,,,,,,,,,,,,,,,,,NJNYT8,train_y,red_square,top_right,2025-06-24_17h05.18.168,HideSeek_v1,2022.2.5,59.95300879494722,
,9,6,9,5,0,-1,15,,train_dim1_1,11,30,,,,2,0,2,0,,,,,,,,,0,0,0,0,0,10,10,10,1,0,1,0,,,,,,,,,,,,,,,,,,,,,,,,,,,,,,,,,,,,,,,,,,,,,,,,,,,,,,,,,,,,,,,,30,,,,,,,,779.6866453000112,779.6866453000112,779.6866453000112,779.6866453000112,779.6866453000112,return,0.8603587000397965,5,0,0,1,0.56,0.0,return,0.7839737000176683,-23,0,0.56,0.0,,,,,,,,,,,,,,,,,,,,,,,,,,,,,,,,,,,,,,,,,,,,,,,,,,,,,,,,NJNYT8,train_y,red_square,top_right,2025-06-24_17h05.18.168,HideSeek_v1,2022.2.5,59.95300879494722,
,5,5,5,0,0,-5,11,,train_dim1_1,12,30,,,,2,0,2,0,,,,,,,,,0,0,0,0,0,11,11,11,0,0,0,0,,,,,,,,,,,,,,,,,,,,,,,,,stimuli/alien_stimuli/11.png,,,,,,,,,,,,,,,,,,,,,,,,,,,,,stimuli/alien_stimuli/15.png,15,9,13,,,,,,,30,,,,,,,,785.2467894000001,785.2467894000001,785.2467894000001,785.2467894000001,785.2467894000001,down,4.907215700019151,5,0,0,99,0.24,-0.08,down,4.820695300004445,,,,,783.688737199991,785.2467894000001,0.56,0,0.08,0.0,0.04,0.56,0.56,0.56,0,782.1190426000394,782.1190426000394,782.1190426000394,782.1190426000394,782.1190426000394,782.1190426000394,782.1190426000394,782.1190426000394,782.104536920099,1.6859814000781626,return,1.550275000045076,,,,,,,,,,,,,,,,,,,,,,,,,,,,,,,,,NJNYT8,train_y,red_square,top_right,2025-06-24_17h05.18.168,HideSeek_v1,2022.2.5,59.95300879494722,
,5,5,5,0,0,-5,11,,train_dim1_1,12,30,,,,2,0,2,0,,,,,,,,,0,0,0,0,0,11,11,11,1,0,1,0,,,,,,,,,,,,,,,,,,,,,,,,,,,,,,,,,,,,,,,,,,,,,,,,,,,,,,,,,,,,,,,,30,,,,,,,,790.1620067000622,790.1620067000622,790.1620067000622,790.1620067000622,790.1620067000622,down,0.5930385000538081,5,0,0,99,0.24,-0.16,down,0.5061496999114752,,,,,,,,,,,,,,,,,,,,,,,,,,,,,,,,,,,,,,,,,,,,,,,,,,,,,,,,,,,,NJNYT8,train_y,red_square,top_right,2025-06-24_17h05.18.168,HideSeek_v1,2022.2.5,59.95300879494722,
,5,5,5,0,0,-5,11,,train_dim1_1,12,30,,,,2,0,2,0,,,,,,,,,0,0,0,0,0,11,11,11,2,0,2,0,,,,,,,,,,,,,,,,,,,,,,,,,,,,,,,,,,,,,,,,,,,,,,,,,,,,,,,,,,,,,,,,30,,,,,,,,790.7661005000118,790.7661005000118,790.7661005000118,790.7661005000118,790.7661005000118,return,0.5589760999428108,5,0,0,0,0.24,-0.16,return,0.4767602999927476,-25,0,0.24,-0.16,,,,,,,,,,,,,,,,,,,,,,,,,,,,,,,,,,,,,,,,,,,,,,,,,,,,,,,,NJNYT8,train_y,red_square,top_right,2025-06-24_17h05.18.168,HideSeek_v1,2022.2.5,59.95300879494722,
,9,8,9,4,0,-4,12,,train_dim1_1,13,30,,,,2,0,2,0,,,,,,,,,0,0,0,0,0,12,12,12,0,0,0,0,,,,,,,,,,,,,,,,,,,,,,,,,stimuli/alien_stimuli/12.png,,,,,,,,,,,,,,,,,,,,,,,,,,,,,stimuli/alien_stimuli/11.png,11,5,14,,,,,,,30,,,,,,,,797.2431557000382,797.2431557000382,797.2431557000382,797.2431557000382,797.2431557000382,down,2.6529057000298053,5,0,0,99,0.56,0.15999999999999998,down,2.563511800020933,,,,,795.6818753000116,797.2431557000382,0.24,-0.4,0.4,0.0,-0.2,0.24,0.24,0.24,-0.4,792.8989580000052,792.8989580000052,792.8989580000052,792.8989580000052,792.8989580000052,792.8989580000052,792.8989580000052,792.8989580000052,792.8963562800083,2.9045487000839785,return,2.760423499974422,,,,,,,,,,,,,,,,,,,,,,,,,,,,,,,,,NJNYT8,train_y,red_square,top_right,2025-06-24_17h05.18.168,HideSeek_v1,2022.2.5,59.95300879494722,
,9,8,9,4,0,-4,12,,train_dim1_1,13,30,,,,2,0,2,0,,,,,,,,,0,0,0,0,0,12,12,12,1,0,1,0,,,,,,,,,,,,,,,,,,,,,,,,,,,,,,,,,,,,,,,,,,,,,,,,,,,,,,,,,,,,,,,,30,,,,,,,,799.9037946000462,799.9037946000462,799.9037946000462,799.9037946000462,799.9037946000462,down,1.4437219999963418,5,0,0,99,0.56,0.07999999999999997,down,1.3553723000222817,,,,,,,,,,,,,,,,,,,,,,,,,,,,,,,,,,,,,,,,,,,,,,,,,,,,,,,,,,,,NJNYT8,train_y,red_square,top_right,2025-06-24_17h05.18.168,HideSeek_v1,2022.2.5,59.95300879494722,
,9,8,9,4,0,-4,12,,train_dim1_1,13,30,,,,2,0,2,0,,,,,,,,,0,0,0,0,0,12,12,12,2,0,2,0,,,,,,,,,,,,,,,,,,,,,,,,,,,,,,,,,,,,,,,,,,,,,,,,,,,,,,,,,,,,,,,,30,,,,,,,,801.3543589999899,801.3543589999899,801.3543589999899,801.3543589999899,801.3543589999899,down,1.3100680999923497,5,0,0,99,0.56,-2.7755575615628914e-17,down,1.232864600024186,,,,,,,,,,,,,,,,,,,,,,,,,,,,,,,,,,,,,,,,,,,,,,,,,,,,,,,,,,,,NJNYT8,train_y,red_square,top_right,2025-06-24_17h05.18.168,HideSeek_v1,2022.2.5,59.95300879494722,
,9,8,9,4,0,-4,12,,train_dim1_1,13,30,,,,2,0,2,0,,,,,,,,,0,0,0,0,0,12,12,12,3,0,3,0,,,,,,,,,,,,,,,,,,,,,,,,,,,,,,,,,,,,,,,,,,,,,,,,,,,,,,,,,,,,,,,,30,,,,,,,,802.67304959998,802.67304959998,802.67304959998,802.67304959998,802.67304959998,down,1.2768724000779912,5,0,0,99,0.56,-0.08000000000000003,down,1.1967843000311404,,,,,,,,,,,,,,,,,,,,,,,,,,,,,,,,,,,,,,,,,,,,,,,,,,,,,,,,,,,,NJNYT8,train_y,red_square,top_right,2025-06-24_17h05.18.168,HideSeek_v1,2022.2.5,59.95300879494722,
,9,8,9,4,0,-4,12,,train_dim1_1,13,30,,,,2,0,2,0,,,,,,,,,0,0,0,0,0,12,12,12,4,0,4,0,,,,,,,,,,,,,,,,,,,,,,,,,,,,,,,,,,,,,,,,,,,,,,,,,,,,,,,,,,,,,,,,30,,,,,,,,803.9566253999947,803.9566253999947,803.9566253999947,803.9566253999947,803.9566253999947,down,0.8937263999832794,5,0,0,99,0.56,-0.16000000000000003,down,0.8028378000017256,,,,,,,,,,,,,,,,,,,,,,,,,,,,,,,,,,,,,,,,,,,,,,,,,,,,,,,,,,,,NJNYT8,train_y,red_square,top_right,2025-06-24_17h05.18.168,HideSeek_v1,2022.2.5,59.95300879494722,
,9,8,9,4,0,-4,12,,train_dim1_1,13,30,,,,2,0,2,0,,,,,,,,,0,0,0,0,0,12,12,12,5,0,5,0,,,,,,,,,,,,,,,,,,,,,,,,,,,,,,,,,,,,,,,,,,,,,,,,,,,,,,,,,,,,,,,,30,,,,,,,,804.8573528999696,804.8573528999696,804.8573528999696,804.8573528999696,804.8573528999696,return,0.4268418999854475,5,1,0,0,0.56,-0.16000000000000003,return,0.33909149991814047,-30,0,0.56,-0.16000000000000003,,,,,,,,,,,,,,,,,,,,,,,,,,,,,,,,,,,,,,,,,,,,,,,,,,,,,,,,NJNYT8,train_y,red_square,top_right,2025-06-24_17h05.18.168,HideSeek_v1,2022.2.5,59.95300879494722,
,7,7,7,7,0,0,16,,train_dim1_1,14,30,,,,2,0,2,0,,,,,,,,,0,0,0,0,0,13,13,13,0,0,0,0,,,,,,,,,,,,,,,,,,,,,,,,,stimuli/alien_stimuli/16.png,,,,,,,,,,,,,,,,,,,,,,,,,,,,,stimuli/alien_stimuli/12.png,12,9,15,,,,,,,30,,,,,,,,810.5861976000015,810.5861976000015,810.5861976000015,810.5861976000015,810.5861976000015,return,2.9039955000625923,6,0,0,1,0.4,0.16,return,2.8143165999790654,-30,0,0.4,0.16,809.0264619999798,810.5861976000015,0.56,-0.08,0.32,0.0,0.07999999999999999,0.56,0.56,0.56,-0.08,806.8644376000157,806.8644376000157,806.8644376000157,806.8644376000157,806.8644376000157,806.8644376000157,806.8644376000157,806.8644376000157,806.8579528800211,2.287389700068161,return,2.131178400013596,,,,,,,,,,,,,,,,,,,,,,,,,,,,,,,,,NJNYT8,train_y,red_square,top_right,2025-06-24_17h05.18.168,HideSeek_v1,2022.2.5,59.95300879494722,
,6,9,6,6,0,-3,13,,train_dim1_1,15,30,,,,2,0,2,0,,,,,,,,,0,0,0,0,0,14,14,14,0,0,0,0,,,,,,,,,,,,,,,,,,,,,,,,,stimuli/alien_stimuli/13.png,,,,,,,,,,,,,,,,,,,,,,,,,,,,,stimuli/alien_stimuli/16.png,16,7,16,,,,,,,30,,,,,,,,820.7789544999832,820.7789544999832,820.7789544999832,820.7789544999832,820.7789544999832,down,4.472829599981196,6,0,0,99,0.32,0.24,down,4.391748500056565,,,,,819.2181528999936,820.7789544999832,0.4,0.16,0.0,0.0,0.16,0.4,0.4,0.4,0.16,815.0511915000388,815.0511915000388,815.0511915000388,815.0511915000388,815.0511915000388,815.0511915000388,815.0511915000388,815.0511915000388,815.0480945200077,4.2720092999516055,return,4.136506599956192,,,,,,,,,,,,,,,,,,,,,,,,,,,,,,,,,NJNYT8,train_y,red_square,top_right,2025-06-24_17h05.18.168,HideSeek_v1,2022.2.5,59.95300879494722,
,6,9,6,6,0,-3,13,,train_dim1_1,15,30,,,,2,0,2,0,,,,,,,,,0,0,0,0,0,14,14,14,1,0,1,0,,,,,,,,,,,,,,,,,,,,,,,,,,,,,,,,,,,,,,,,,,,,,,,,,,,,,,,,,,,,,,,,30,,,,,,,,825.2579016999807,825.2579016999807,825.2579016999807,825.2579016999807,825.2579016999807,down,3.178086500032805,6,0,0,99,0.32,0.15999999999999998,down,3.100973700056784,,,,,,,,,,,,,,,,,,,,,,,,,,,,,,,,,,,,,,,,,,,,,,,,,,,,,,,,,,,,NJNYT8,train_y,red_square,top_right,2025-06-24_17h05.18.168,HideSeek_v1,2022.2.5,59.95300879494722,
,6,9,6,6,0,-3,13,,train_dim1_1,15,30,,,,2,0,2,0,,,,,,,,,0,0,0,0,0,14,14,14,2,0,2,0,,,,,,,,,,,,,,,,,,,,,,,,,,,,,,,,,,,,,,,,,,,,,,,,,,,,,,,,,,,,,,,,30,,,,,,,,828.4424357999815,828.4424357999815,828.4424357999815,828.4424357999815,828.4424357999815,down,0.8268248999956995,6,0,0,99,0.32,0.07999999999999997,down,0.7369730999926105,,,,,,,,,,,,,,,,,,,,,,,,,,,,,,,,,,,,,,,,,,,,,,,,,,,,,,,,,,,,NJNYT8,train_y,red_square,top_right,2025-06-24_17h05.18.168,HideSeek_v1,2022.2.5,59.95300879494722,
,6,9,6,6,0,-3,13,,train_dim1_1,15,30,,,,2,0,2,0,,,,,,,,,0,0,0,0,0,14,14,14,3,0,3,0,,,,,,,,,,,,,,,,,,,,,,,,,,,,,,,,,,,,,,,,,,,,,,,,,,,,,,,,,,,,,,,,30,,,,,,,,829.2768364000367,829.2768364000367,829.2768364000367,829.2768364000367,829.2768364000367,return,0.5930727999657393,7,0,0,1,0.32,0.07999999999999997,return,0.5081459999782965,-33,0,0.32,0.07999999999999997,,,,,,,,,,,,,,,,,,,,,,,,,,,,,,,,,,,,,,,,,,,,,,,,,,,,,,,,NJNYT8,train_y,red_square,top_right,2025-06-24_17h05.18.168,HideSeek_v1,2022.2.5,59.95300879494722,
,9,5,9,4,0,-1,15,,train_dim1_1,16,30,,,,2,0,2,0,,,,,,,,,0,0,0,0,0,15,15,15,0,0,0,0,,,,,,,,,,,,,,,,,,,,,,,,,stimuli/alien_stimuli/15.png,,,,,,,,,,,,,,,,,,,,,,,,,,,,,stimuli/alien_stimuli/13.png,13,6,17,,,,,,,30,,,,,,,,836.3399560999824,836.3399560999824,836.3399560999824,836.3399560999824,836.3399560999824,down,1.7716278999578208,7,0,0,99,0.56,-0.08,down,1.6946090999990702,,,,,834.7809667000547,836.3399560999824,0.32,0.08,0.24,0.0,0.2,0.32,0.32,0.32,0.08,831.4433585000224,831.4433585000224,831.4433585000224,831.4433585000224,831.4433585000224,831.4433585000224,831.4433585000224,831.4433585000224,831.4450772800948,3.4547840000595897,return,3.306522099999711,,,,,,,,,,,,,,,,,,,,,,,,,,,,,,,,,NJNYT8,train_y,red_square,top_right,2025-06-24_17h05.18.168,HideSeek_v1,2022.2.5,59.95300879494722,
,9,5,9,4,0,-1,15,,train_dim1_1,16,30,,,,2,0,2,0,,,,,,,,,0,0,0,0,0,15,15,15,1,0,1,0,,,,,,,,,,,,,,,,,,,,,,,,,,,,,,,,,,,,,,,,,,,,,,,,,,,,,,,,,,,,,,,,30,,,,,,,,838.118312900071,838.118312900071,838.118312900071,838.118312900071,838.118312900071,return,0.8933182000182569,8,0,0,1,0.56,-0.08,return,0.8101253000786528,-34,0,0.56,-0.08,,,,,,,,,,,,,,,,,,,,,,,,,,,,,,,,,,,,,,,,,,,,,,,,,,,,,,,,NJNYT8,train_y,red_square,top_right,2025-06-24_17h05.18.168,HideSeek_v1,2022.2.5,59.95300879494722,
,8,8,8,5,0,-3,13,,train_dim1_1,17,30,,,,2,0,2,0,,,,,,,,,0,0,0,0,0,16,16,16,0,0,0,0,,,,,,,,,,,,,,,,,,,,,,,,,stimuli/alien_stimuli/13.png,,,,,,,,,,,,,,,,,,,,,,,,,,,,,stimuli/alien_stimuli/15.png,15,9,18,,,,,,,30,,,,,,,,843.6118138000602,843.6118138000602,843.6118138000602,843.6118138000602,843.6118138000602,down,2.0208653999725357,8,0,0,99,0.48,0.15999999999999998,down,1.937865799991414,,,,,842.0537333000684,843.6118138000602,0.56,-0.08,0.08,0.0,-0.04,0.56,0.56,0.56,-0.08,840.5673821000382,840.5673821000382,840.5673821000382,840.5673821000382,840.5673821000382,840.5673821000382,840.5673821000382,840.5673821000382,840.5691423200885,1.586683899979107,return,1.46025689993985,,,,,,,,,,,,,,,,,,,,,,,,,,,,,,,,,NJNYT8,train_y,red_square,top_right,2025-06-24_17h05.18.168,HideSeek_v1,2022.2.5,59.95300879494722,
,8,8,8,5,0,-3,13,,train_dim1_1,17,30,,,,2,0,2,0,,,,,,,,,0,0,0,0,0,16,16,16,1,0,1,0,,,,,,,,,,,,,,,,,,,,,,,,,,,,,,,,,,,,,,,,,,,,,,,,,,,,,,,,,,,,,,,,30,,,,,,,,845.6411919000093,845.6411919000093,845.6411919000093,845.6411919000093,845.6411919000093,down,2.6272454999852926,8,0,0,99,0.48,0.07999999999999997,down,2.541398699977435,,,,,,,,,,,,,,,,,,,,,,,,,,,,,,,,,,,,,,,,,,,,,,,,,,,,,,,,,,,,NJNYT8,train_y,red_square,top_right,2025-06-24_17h05.18.168,HideSeek_v1,2022.2.5,59.95300879494722,
,8,8,8,5,0,-3,13,,train_dim1_1,17,30,,,,2,0,2,0,,,,,,,,,0,0,0,0,0,16,16,16,2,0,2,0,,,,,,,,,,,,,,,,,,,,,,,,,,,,,,,,,,,,,,,,,,,,,,,,,,,,,,,,,,,,,,,,30,,,,,,,,848.2751809000038,848.2751809000038,848.2751809000038,848.2751809000038,848.2751809000038,down,0.5601735999807715,8,0,0,99,0.48,-2.7755575615628914e-17,down,0.4800752999726683,,,,,,,,,,,,,,,,,,,,,,,,,,,,,,,,,,,,,,,,,,,,,,,,,,,,,,,,,,,,NJNYT8,train_y,red_square,top_right,2025-06-24_17h05.18.168,HideSeek_v1,2022.2.5,59.95300879494722,
,8,8,8,5,0,-3,13,,train_dim1_1,17,30,,,,2,0,2,0,,,,,,,,,0,0,0,0,0,16,16,16,3,0,3,0,,,,,,,,,,,,,,,,,,,,,,,,,,,,,,,,,,,,,,,,,,,,,,,,,,,,,,,,,,,,,,,,30,,,,,,,,848.8434625000227,848.8434625000227,848.8434625000227,848.8434625000227,848.8434625000227,return,0.5264438999583945,9,0,0,1,0.48,-2.7755575615628914e-17,return,0.44295599998440593,-37,0,0.48,-2.7755575615628914e-17,,,,,,,,,,,,,,,,,,,,,,,,,,,,,,,,,,,,,,,,,,,,,,,,,,,,,,,,NJNYT8,train_y,red_square,top_right,2025-06-24_17h05.18.168,HideSeek_v1,2022.2.5,59.95300879494722,
,7,6,7,1,0,-5,11,,train_dim1_1,18,30,,,,2,0,2,0,,,,,,,,,0,0,0,0,0,17,17,17,0,0,0,0,,,,,,,,,,,,,,,,,,,,,,,,,stimuli/alien_stimuli/11.png,,,,,,,,,,,,,,,,,,,,,,,,,,,,,stimuli/alien_stimuli/13.png,13,8,19,,,,,,,30,,,,,,,,853.7558423000155,853.7558423000155,853.7558423000155,853.7558423000155,853.7558423000155,down,2.503570800065063,9,0,0,99,0.4,0.0,down,2.4171840000199154,,,,,852.1955098999897,853.7558423000155,0.48,0,0.24,0.0,0.12,0.48,0.48,0.48,0,850.948941300041,850.948941300041,850.948941300041,850.948941300041,850.948941300041,850.948941300041,850.948941300041,850.948941300041,850.9445062800543,1.3700329000130296,return,1.227763699949719,,,,,,,,,,,,,,,,,,,,,,,,,,,,,,,,,NJNYT8,train_y,red_square,top_right,2025-06-24_17h05.18.168,HideSeek_v1,2022.2.5,59.95300879494722,
,7,6,7,1,0,-5,11,,train_dim1_1,18,30,,,,2,0,2,0,,,,,,,,,0,0,0,0,0,17,17,17,1,0,1,0,,,,,,,,,,,,,,,,,,,,,,,,,,,,,,,,,,,,,,,,,,,,,,,,,,,,,,,,,,,,,,,,30,,,,,,,,856.2661475000205,856.2661475000205,856.2661475000205,856.2661475000205,856.2661475000205,down,1.5435233999742195,9,0,0,99,0.4,-0.08,down,1.4599135000025854,,,,,,,,,,,,,,,,,,,,,,,,,,,,,,,,,,,,,,,,,,,,,,,,,,,,,,,,,,,,NJNYT8,train_y,red_square,top_right,2025-06-24_17h05.18.168,HideSeek_v1,2022.2.5,59.95300879494722,
,7,6,7,1,0,-5,11,,train_dim1_1,18,30,,,,2,0,2,0,,,,,,,,,0,0,0,0,0,17,17,17,2,0,2,0,,,,,,,,,,,,,,,,,,,,,,,,,,,,,,,,,,,,,,,,,,,,,,,,,,,,,,,,,,,,,,,,30,,,,,,,,857.817524000071,857.817524000071,857.817524000071,857.817524000071,857.817524000071,down,2.39505829999689,9,0,0,99,0.4,-0.16,down,2.313627599971369,,,,,,,,,,,,,,,,,,,,,,,,,,,,,,,,,,,,,,,,,,,,,,,,,,,,,,,,,,,,NJNYT8,train_y,red_square,top_right,2025-06-24_17h05.18.168,HideSeek_v1,2022.2.5,59.95300879494722,
,7,6,7,1,0,-5,11,,train_dim1_1,18,30,,,,2,0,2,0,,,,,,,,,0,0,0,0,0,17,17,17,3,0,3,0,,,,,,,,,,,,,,,,,,,,,,,,,,,,,,,,,,,,,,,,,,,,,,,,,,,,,,,,,,,,,,,,30,,,,,,,,860.2196121000452,860.2196121000452,860.2196121000452,860.2196121000452,860.2196121000452,down,2.7771849000127986,9,0,0,99,0.4,-0.24,down,2.692651199991815,,,,,,,,,,,,,,,,,,,,,,,,,,,,,,,,,,,,,,,,,,,,,,,,,,,,,,,,,,,,NJNYT8,train_y,red_square,top_right,2025-06-24_17h05.18.168,HideSeek_v1,2022.2.5,59.95300879494722,
,7,6,7,1,0,-5,11,,train_dim1_1,18,30,,,,2,0,2,0,,,,,,,,,0,0,0,0,0,17,17,17,4,0,4,0,,,,,,,,,,,,,,,,,,,,,,,,,,,,,,,,,,,,,,,,,,,,,,,,,,,,,,,,,,,,,,,,30,,,,,,,,863.0085308999987,863.0085308999987,863.0085308999987,863.0085308999987,863.0085308999987,return,0.457182600046508,9,1,0,0,0.4,-0.24,return,0.3700510000344366,-41,0,0.4,-0.24,,,,,,,,,,,,,,,,,,,,,,,,,,,,,,,,,,,,,,,,,,,,,,,,,,,,,,,,NJNYT8,train_y,red_square,top_right,2025-06-24_17h05.18.168,HideSeek_v1,2022.2.5,59.95300879494722,
,5,9,5,5,0,-4,12,,train_dim1_1,19,30,,,,2,0,2,0,,,,,,,,,0,0,0,0,0,18,18,18,0,0,0,0,,,,,,,,,,,,,,,,,,,,,,,,,stimuli/alien_stimuli/12.png,,,,,,,,,,,,,,,,,,,,,,,,,,,,,stimuli/alien_stimuli/11.png,11,7,20,,,,,,,30,,,,,,,,868.8168542999774,868.8168542999774,868.8168542999774,868.8168542999774,868.8168542999774,down,2.788823299924843,9,1,0,99,0.24,0.24,down,2.6998833999969065,,,,,867.2578762000194,868.8168542999774,0.4,-0.32,0.4,0.0,-0.12,0.4,0.4,0.4,-0.32,865.0412968000164,865.0412968000164,865.0412968000164,865.0412968000164,865.0412968000164,865.0412968000164,865.0412968000164,865.0412968000164,865.039359780075,2.3376684999093413,return,2.199984599952586,,,,,,,,,,,,,,,,,,,,,,,,,,,,,,,,,NJNYT8,train_y,red_square,top_right,2025-06-24_17h05.18.168,HideSeek_v1,2022.2.5,59.95300879494722,
,5,9,5,5,0,-4,12,,train_dim1_1,19,30,,,,2,0,2,0,,,,,,,,,0,0,0,0,0,18,18,18,1,0,1,0,,,,,,,,,,,,,,,,,,,,,,,,,,,,,,,,,,,,,,,,,,,,,,,,,,,,,,,,,,,,,,,,30,,,,,,,,871.6130196000449,871.6130196000449,871.6130196000449,871.6130196000449,871.6130196000449,down,3.195486700045876,9,1,0,99,0.24,0.15999999999999998,down,3.11734609992709,,,,,,,,,,,,,,,,,,,,,,,,,,,,,,,,,,,,,,,,,,,,,,,,,,,,,,,,,,,,NJNYT8,train_y,red_square,top_right,2025-06-24_17h05.18.168,HideSeek_v1,2022.2.5,59.95300879494722,
,5,9,5,5,0,-4,12,,train_dim1_1,19,30,,,,2,0,2,0,,,,,,,,,0,0,0,0,0,18,18,18,2,0,2,0,,,,,,,,,,,,,,,,,,,,,,,,,,,,,,,,,,,,,,,,,,,,,,,,,,,,,,,,,,,,,,,,30,,,,,,,,874.8143819000106,874.8143819000106,874.8143819000106,874.8143819000106,874.8143819000106,down,3.3788891999283805,9,1,0,99,0.24,0.07999999999999997,down,3.2906932999612764,,,,,,,,,,,,,,,,,,,,,,,,,,,,,,,,,,,,,,,,,,,,,,,,,,,,,,,,,,,,NJNYT8,train_y,red_square,top_right,2025-06-24_17h05.18.168,HideSeek_v1,2022.2.5,59.95300879494722,
,5,9,5,5,0,-4,12,,train_dim1_1,19,30,,,,2,0,2,0,,,,,,,,,0,0,0,0,0,18,18,18,3,0,3,0,,,,,,,,,,,,,,,,,,,,,,,,,,,,,,,,,,,,,,,,,,,,,,,,,,,,,,,,,,,,,,,,30,,,,,,,,878.199845300056,878.199845300056,878.199845300056,878.199845300056,878.199845300056,down,1.394355500000529,9,1,0,99,0.24,-2.7755575615628914e-17,down,1.3112249999539927,,,,,,,,,,,,,,,,,,,,,,,,,,,,,,,,,,,,,,,,,,,,,,,,,,,,,,,,,,,,NJNYT8,train_y,red_square,top_right,2025-06-24_17h05.18.168,HideSeek_v1,2022.2.5,59.95300879494722,
,5,9,5,5,0,-4,12,,train_dim1_1,19,30,,,,2,0,2,0,,,,,,,,,0,0,0,0,0,18,18,18,4,0,4,0,,,,,,,,,,,,,,,,,,,,,,,,,,,,,,,,,,,,,,,,,,,,,,,,,,,,,,,,,,,,,,,,30,,,,,,,,879.6027668999741,879.6027668999741,879.6027668999741,879.6027668999741,879.6027668999741,return,0.7097659999271855,10,0,0,1,0.24,-2.7755575615628914e-17,return,0.6214610999450088,-45,0,0.24,-2.7755575615628914e-17,,,,,,,,,,,,,,,,,,,,,,,,,,,,,,,,,,,,,,,,,,,,,,,,,,,,,,,,NJNYT8,train_y,red_square,top_right,2025-06-24_17h05.18.168,HideSeek_v1,2022.2.5,59.95300879494722,
,7,5,7,5,0,0,16,,train_dim1_1,20,30,,,,2,0,2,0,,,,,,,,,0,0,0,0,0,19,19,19,0,0,0,0,,,,,,,,,,,,,,,,,,,,,,,,,stimuli/alien_stimuli/16.png,,,,,,,,,,,,,,,,,,,,,,,,,,,,,stimuli/alien_stimuli/12.png,12,5,21,,,,,,,30,,,,,,,,886.4971555999946,886.4971555999946,886.4971555999946,886.4971555999946,886.4971555999946,return,1.7050310000777245,11,0,0,1,0.4,0,return,1.6231244000373408,-45,0,0.4,0,884.9392978000687,886.4971555999946,0.24,0,0.32,0.0,0.16,0.24,0.24,0.24,0,881.8893137000268,881.8893137000268,881.8893137000268,881.8893137000268,881.8893137000268,881.8893137000268,881.8893137000268,881.8893137000268,881.8868326800176,3.171477399999276,return,3.023800300084986,,,,,,,,,,,,,,,,,,,,,,,,,,,,,,,,,NJNYT8,train_y,red_square,top_right,2025-06-24_17h05.18.168,HideSeek_v1,2022.2.5,59.95300879494722,
,7,9,7,8,0,-1,15,,train_dim1_1,21,30,,,,2,0,2,0,,,,,,,,,0,0,0,0,0,20,20,20,0,0,0,0,,,,,,,,,,,,,,,,,,,,,,,,,stimuli/alien_stimuli/15.png,,,,,,,,,,,,,,,,,,,,,,,,,,,,,stimuli/alien_stimuli/16.png,16,7,22,,,,,,,30,,,,,,,,892.8213100000285,892.8213100000285,892.8213100000285,892.8213100000285,892.8213100000285,down,1.4863733999663964,11,0,0,99,0.4,0.24,down,1.4001640999922529,,,,,891.2612998000113,892.8213100000285,0.4,0,0.0,0.0,0.0,0.4,0.4,0.4,0,889.757749499986,889.757749499986,889.757749499986,889.757749499986,889.757749499986,889.757749499986,889.757749499986,889.757749499986,889.7431744599947,1.603622099966742,return,1.485987100051716,,,,,,,,,,,,,,,,,,,,,,,,,,,,,,,,,NJNYT8,train_y,red_square,top_right,2025-06-24_17h05.18.168,HideSeek_v1,2022.2.5,59.95300879494722,
,7,9,7,8,0,-1,15,,train_dim1_1,21,30,,,,2,0,2,0,,,,,,,,,0,0,0,0,0,20,20,20,1,0,1,0,,,,,,,,,,,,,,,,,,,,,,,,,,,,,,,,,,,,,,,,,,,,,,,,,,,,,,,,,,,,,,,,30,,,,,,,,894.3159310000483,894.3159310000483,894.3159310000483,894.3159310000483,894.3159310000483,return,0.8423756000120193,12,0,0,1,0.4,0.24,return,0.7648379999445751,-46,0,0.4,0.24,,,,,,,,,,,,,,,,,,,,,,,,,,,,,,,,,,,,,,,,,,,,,,,,,,,,,,,,NJNYT8,train_y,red_square,top_right,2025-06-24_17h05.18.168,HideSeek_v1,2022.2.5,59.95300879494722,
,5,7,5,4,0,-3,13,,train_dim1_1,22,30,,,,2,0,2,0,,,,,,,,,0,0,0,0,0,21,21,21,0,0,0,0,,,,,,,,,,,,,,,,,,,,,,,,,stimuli/alien_stimuli/13.png,,,,,,,,,,,,,,,,,,,,,,,,,,,,,stimuli/alien_stimuli/15.png,15,7,23,,,,,,,30,,,,,,,,899.5579986000666,899.5579986000666,899.5579986000666,899.5579986000666,899.5579986000666,down,1.9712365999585018,12,0,0,99,0.24,0.08,down,1.8841345999389887,,,,,898.0000350000337,899.5579986000666,0.4,0.24,0.08,0.0,0.28,0.4,0.4,0.4,0.24,896.7184637000319,896.7184637000319,896.7184637000319,896.7184637000319,896.7184637000319,896.7184637000319,896.7184637000319,896.7184637000319,896.715721020021,1.3864701999118552,return,1.2501228000037372,,,,,,,,,,,,,,,,,,,,,,,,,,,,,,,,,NJNYT8,train_y,red_square,top_right,2025-06-24_17h05.18.168,HideSeek_v1,2022.2.5,59.95300879494722,
,5,7,5,4,0,-3,13,,train_dim1_1,22,30,,,,2,0,2,0,,,,,,,,,0,0,0,0,0,21,21,21,1,0,1,0,,,,,,,,,,,,,,,,,,,,,,,,,,,,,,,,,,,,,,,,,,,,,,,,,,,,,,,,,,,,,,,,30,,,,,,,,901.5377146999817,901.5377146999817,901.5377146999817,901.5377146999817,901.5377146999817,down,1.4266698999563232,12,0,0,99,0.24,0.0,down,1.3492884000297636,,,,,,,,,,,,,,,,,,,,,,,,,,,,,,,,,,,,,,,,,,,,,,,,,,,,,,,,,,,,NJNYT8,train_y,red_square,top_right,2025-06-24_17h05.18.168,HideSeek_v1,2022.2.5,59.95300879494722,
,5,7,5,4,0,-3,13,,train_dim1_1,22,30,,,,2,0,2,0,,,,,,,,,0,0,0,0,0,21,21,21,2,0,2,0,,,,,,,,,,,,,,,,,,,,,,,,,,,,,,,,,,,,,,,,,,,,,,,,,,,,,,,,,,,,,,,,30,,,,,,,,902.970947099966,902.970947099966,902.970947099966,902.970947099966,902.970947099966,down,0.4434166999999434,12,0,0,99,0.24,-0.08,down,0.3666868999134749,,,,,,,,,,,,,,,,,,,,,,,,,,,,,,,,,,,,,,,,,,,,,,,,,,,,,,,,,,,,NJNYT8,train_y,red_square,top_right,2025-06-24_17h05.18.168,HideSeek_v1,2022.2.5,59.95300879494722,
,5,7,5,4,0,-3,13,,train_dim1_1,22,30,,,,2,0,2,0,,,,,,,,,0,0,0,0,0,21,21,21,3,0,3,0,,,,,,,,,,,,,,,,,,,,,,,,,,,,,,,,,,,,,,,,,,,,,,,,,,,,,,,,,,,,,,,,30,,,,,,,,903.4210960000055,903.4210960000055,903.4210960000055,903.4210960000055,903.4210960000055,return,0.5768063999712467,13,0,0,1,0.24,-0.08,return,0.4969857999822125,-49,0,0.24,-0.08,,,,,,,,,,,,,,,,,,,,,,,,,,,,,,,,,,,,,,,,,,,,,,,,,,,,,,,,NJNYT8,train_y,red_square,top_right,2025-06-24_17h05.18.168,HideSeek_v1,2022.2.5,59.95300879494722,
,5,8,5,3,0,-5,11,,train_dim1_1,23,30,,,,2,0,2,0,,,,,,,,,0,0,0,0,0,22,22,22,0,0,0,0,,,,,,,,,,,,,,,,,,,,,,,,,stimuli/alien_stimuli/11.png,,,,,,,,,,,,,,,,,,,,,,,,,,,,,stimuli/alien_stimuli/13.png,13,5,24,,,,,,,30,,,,,,,,908.2369837999577,908.2369837999577,908.2369837999577,908.2369837999577,908.2369837999577,down,2.3686099000042304,13,0,0,99,0.24,0.15999999999999998,down,2.282750599901192,,,,,906.6740425999742,908.2369837999577,0.24,-0.08,0.24,0.0,0.04,0.24,0.24,0.24,-0.08,905.5711219999939,905.5711219999939,905.5711219999939,905.5711219999939,905.5711219999939,905.5711219999939,905.5711219999939,905.5711219999939,905.5730929800076,1.2198597999522462,return,1.083637599949725,,,,,,,,,,,,,,,,,,,,,,,,,,,,,,,,,NJNYT8,train_y,red_square,top_right,2025-06-24_17h05.18.168,HideSeek_v1,2022.2.5,59.95300879494722,
,5,8,5,3,0,-5,11,,train_dim1_1,23,30,,,,2,0,2,0,,,,,,,,,0,0,0,0,0,22,22,22,1,0,1,0,,,,,,,,,,,,,,,,,,,,,,,,,,,,,,,,,,,,,,,,,,,,,,,,,,,,,,,,,,,,,,,,30,,,,,,,,910.6125953999581,910.6125953999581,910.6125953999581,910.6125953999581,910.6125953999581,down,1.460283900029026,13,0,0,99,0.24,0.07999999999999997,down,1.3691599000012502,,,,,,,,,,,,,,,,,,,,,,,,,,,,,,,,,,,,,,,,,,,,,,,,,,,,,,,,,,,,NJNYT8,train_y,red_square,top_right,2025-06-24_17h05.18.168,HideSeek_v1,2022.2.5,59.95300879494722,
,5,8,5,3,0,-5,11,,train_dim1_1,23,30,,,,2,0,2,0,,,,,,,,,0,0,0,0,0,22,22,22,2,0,2,0,,,,,,,,,,,,,,,,,,,,,,,,,,,,,,,,,,,,,,,,,,,,,,,,,,,,,,,,,,,,,,,,30,,,,,,,,912.0786139999982,912.0786139999982,912.0786139999982,912.0786139999982,912.0786139999982,down,1.6775496000191197,13,0,0,99,0.24,-2.7755575615628914e-17,down,1.58646540006157,,,,,,,,,,,,,,,,,,,,,,,,,,,,,,,,,,,,,,,,,,,,,,,,,,,,,,,,,,,,NJNYT8,train_y,red_square,top_right,2025-06-24_17h05.18.168,HideSeek_v1,2022.2.5,59.95300879494722,
,5,8,5,3,0,-5,11,,train_dim1_1,23,30,,,,2,0,2,0,,,,,,,,,0,0,0,0,0,22,22,22,3,0,3,0,,,,,,,,,,,,,,,,,,,,,,,,,,,,,,,,,,,,,,,,,,,,,,,,,,,,,,,,,,,,,,,,30,,,,,,,,913.7626081999624,913.7626081999624,913.7626081999624,913.7626081999624,913.7626081999624,return,2.511916699935682,13,0,0,0,0.24,-2.7755575615628914e-17,return,2.43176179996226,-52,0,0.24,-2.7755575615628914e-17,,,,,,,,,,,,,,,,,,,,,,,,,,,,,,,,,,,,,,,,,,,,,,,,,,,,,,,,NJNYT8,train_y,red_square,top_right,2025-06-24_17h05.18.168,HideSeek_v1,2022.2.5,59.95300879494722,
,8,7,8,7,0,0,16,,train_dim1_1,24,30,,,,2,0,2,0,,,,,,,,,0,0,0,0,0,23,23,23,0,0,0,0,,,,,,,,,,,,,,,,,,,,,,,,,stimuli/alien_stimuli/16.png,,,,,,,,,,,,,,,,,,,,,,,,,,,,,stimuli/alien_stimuli/11.png,11,5,25,,,,,,,30,,,,,,,,921.4612998999655,921.4612998999655,921.4612998999655,921.4612998999655,921.4612998999655,return,1.6527522000251338,14,0,0,1,0.48,0.16,return,1.56803020008374,-52,0,0.48,0.16,919.9015505000716,921.4612998999655,0.24,-0.16,0.4,0.0,0.039999999999999994,0.24,0.24,0.24,-0.16,917.8565029000165,917.8565029000165,917.8565029000165,917.8565029000165,917.8565029000165,917.8565029000165,917.8565029000165,917.8565029000165,917.8500104800797,2.170513499993831,return,2.026652400032617,,,,,,,,,,,,,,,,,,,,,,,,,,,,,,,,,NJNYT8,train_y,red_square,top_right,2025-06-24_17h05.18.168,HideSeek_v1,2022.2.5,59.95300879494722,
,8,8,8,4,0,-4,12,,train_dim1_1,25,30,,,,2,0,2,0,,,,,,,,,0,0,0,0,0,24,24,24,0,0,0,0,,,,,,,,,,,,,,,,,,,,,,,,,stimuli/alien_stimuli/12.png,,,,,,,,,,,,,,,,,,,,,,,,,,,,,stimuli/alien_stimuli/16.png,16,8,26,,,,,,,30,,,,,,,,927.7037737000501,927.7037737000501,927.7037737000501,927.7037737000501,927.7037737000501,down,2.2350775999948382,14,0,0,99,0.48,0.15999999999999998,down,2.1416491999989375,,,,,926.1400731999893,927.7037737000501,0.48,0.16,0.0,0.0,0.16,0.48,0.48,0.48,0.16,924.6722999999765,924.6722999999765,924.6722999999765,924.6722999999765,924.6722999999765,924.6722999999765,924.6722999999765,924.6722999999765,924.6722406200249,1.5702899999450892,return,1.449496200075373,,,,,,,,,,,,,,,,,,,,,,,,,,,,,,,,,NJNYT8,train_y,red_square,top_right,2025-06-24_17h05.18.168,HideSeek_v1,2022.2.5,59.95300879494722,
,8,8,8,4,0,-4,12,,train_dim1_1,25,30,,,,2,0,2,0,,,,,,,,,0,0,0,0,0,24,24,24,1,0,1,0,,,,,,,,,,,,,,,,,,,,,,,,,,,,,,,,,,,,,,,,,,,,,,,,,,,,,,,,,,,,,,,,30,,,,,,,,929.9445048000198,929.9445048000198,929.9445048000198,929.9445048000198,929.9445048000198,down,2.0444025000324473,14,0,0,99,0.48,0.07999999999999997,down,1.965843699988909,,,,,,,,,,,,,,,,,,,,,,,,,,,,,,,,,,,,,,,,,,,,,,,,,,,,,,,,,,,,NJNYT8,train_y,red_square,top_right,2025-06-24_17h05.18.168,HideSeek_v1,2022.2.5,59.95300879494722,
,8,8,8,4,0,-4,12,,train_dim1_1,25,30,,,,2,0,2,0,,,,,,,,,0,0,0,0,0,24,24,24,2,0,2,0,,,,,,,,,,,,,,,,,,,,,,,,,,,,,,,,,,,,,,,,,,,,,,,,,,,,,,,,,,,,,,,,30,,,,,,,,931.9959515000228,931.9959515000228,931.9959515000228,931.9959515000228,931.9959515000228,down,1.6771806000033394,14,0,0,99,0.48,-2.7755575615628914e-17,down,1.600361100048758,,,,,,,,,,,,,,,,,,,,,,,,,,,,,,,,,,,,,,,,,,,,,,,,,,,,,,,,,,,,NJNYT8,train_y,red_square,top_right,2025-06-24_17h05.18.168,HideSeek_v1,2022.2.5,59.95300879494722,
,8,8,8,4,0,-4,12,,train_dim1_1,25,30,,,,2,0,2,0,,,,,,,,,0,0,0,0,0,24,24,24,3,0,3,0,,,,,,,,,,,,,,,,,,,,,,,,,,,,,,,,,,,,,,,,,,,,,,,,,,,,,,,,,,,,,,,,30,,,,,,,,933.6798654999584,933.6798654999584,933.6798654999584,933.6798654999584,933.6798654999584,down,1.0606203000061214,14,0,0,99,0.48,-0.08000000000000003,down,0.9730058999266475,,,,,,,,,,,,,,,,,,,,,,,,,,,,,,,,,,,,,,,,,,,,,,,,,,,,,,,,,,,,NJNYT8,train_y,red_square,top_right,2025-06-24_17h05.18.168,HideSeek_v1,2022.2.5,59.95300879494722,
,8,8,8,4,0,-4,12,,train_dim1_1,25,30,,,,2,0,2,0,,,,,,,,,0,0,0,0,0,24,24,24,4,0,4,0,,,,,,,,,,,,,,,,,,,,,,,,,,,,,,,,,,,,,,,,,,,,,,,,,,,,,,,,,,,,,,,,30,,,,,,,,934.7472370000323,934.7472370000323,934.7472370000323,934.7472370000323,934.7472370000323,return,1.1107863000361249,15,0,0,1,0.48,-0.08000000000000003,return,1.0231906999833882,-56,0,0.48,-0.08000000000000003,,,,,,,,,,,,,,,,,,,,,,,,,,,,,,,,,,,,,,,,,,,,,,,,,,,,,,,,NJNYT8,train_y,red_square,top_right,2025-06-24_17h05.18.168,HideSeek_v1,2022.2.5,59.95300879494722,
,9,9,9,6,0,-3,13,,train_dim1_1,26,30,,,,2,0,2,0,,,,,,,,,0,0,0,0,0,25,25,25,0,0,0,0,,,,,,,,,,,,,,,,,,,,,,,,,stimuli/alien_stimuli/13.png,,,,,,,,,,,,,,,,,,,,,,,,,,,,,stimuli/alien_stimuli/12.png,12,8,27,,,,,,,30,,,,,,,,940.4265605000546,940.4265605000546,940.4265605000546,940.4265605000546,940.4265605000546,down,1.8869489999487996,15,0,0,99,0.56,0.24,down,1.806032199994661,,,,,938.8674135999754,940.4265605000546,0.48,-0.08,0.32,0.0,0.07999999999999999,0.48,0.48,0.48,-0.08,937.4401236000704,937.4401236000704,937.4401236000704,937.4401236000704,937.4401236000704,937.4401236000704,937.4401236000704,937.4401236000704,937.4332000799942,1.5533457000274211,return,1.4043525999877602,,,,,,,,,,,,,,,,,,,,,,,,,,,,,,,,,NJNYT8,train_y,red_square,top_right,2025-06-24_17h05.18.168,HideSeek_v1,2022.2.5,59.95300879494722,
,9,9,9,6,0,-3,13,,train_dim1_1,26,30,,,,2,0,2,0,,,,,,,,,0,0,0,0,0,25,25,25,1,0,1,0,,,,,,,,,,,,,,,,,,,,,,,,,,,,,,,,,,,,,,,,,,,,,,,,,,,,,,,,,,,,,,,,30,,,,,,,,942.319783700048,942.319783700048,942.319783700048,942.319783700048,942.319783700048,down,0.8931800000136718,15,0,0,99,0.56,0.15999999999999998,down,0.805447299964726,,,,,,,,,,,,,,,,,,,,,,,,,,,,,,,,,,,,,,,,,,,,,,,,,,,,,,,,,,,,NJNYT8,train_y,red_square,top_right,2025-06-24_17h05.18.168,HideSeek_v1,2022.2.5,59.95300879494722,
,9,9,9,6,0,-3,13,,train_dim1_1,26,30,,,,2,0,2,0,,,,,,,,,0,0,0,0,0,25,25,25,2,0,2,0,,,,,,,,,,,,,,,,,,,,,,,,,,,,,,,,,,,,,,,,,,,,,,,,,,,,,,,,,,,,,,,,30,,,,,,,,943.220241400064,943.220241400064,943.220241400064,943.220241400064,943.220241400064,down,0.46008140000049025,15,0,0,99,0.56,0.07999999999999997,down,0.3772422999609262,,,,,,,,,,,,,,,,,,,,,,,,,,,,,,,,,,,,,,,,,,,,,,,,,,,,,,,,,,,,NJNYT8,train_y,red_square,top_right,2025-06-24_17h05.18.168,HideSeek_v1,2022.2.5,59.95300879494722,
,9,9,9,6,0,-3,13,,train_dim1_1,26,30,,,,2,0,2,0,,,,,,,,,0,0,0,0,0,25,25,25,3,0,3,0,,,,,,,,,,,,,,,,,,,,,,,,,,,,,,,,,,,,,,,,,,,,,,,,,,,,,,,,,,,,,,,,30,,,,,,,,943.6878674000036,943.6878674000036,943.6878674000036,943.6878674000036,943.6878674000036,return,0.5430202001007274,16,0,0,1,0.56,0.07999999999999997,return,0.4599586999975145,-59,0,0.56,0.07999999999999997,,,,,,,,,,,,,,,,,,,,,,,,,,,,,,,,,,,,,,,,,,,,,,,,,,,,,,,,NJNYT8,train_y,red_square,top_right,2025-06-24_17h05.18.168,HideSeek_v1,2022.2.5,59.95300879494722,
,8,9,8,9,0,0,16,,train_dim1_1,27,30,,,,2,0,2,0,,,,,,,,,0,0,0,0,0,26,26,26,0,0,0,0,,,,,,,,,,,,,,,,,,,,,,,,,stimuli/alien_stimuli/16.png,,,,,,,,,,,,,,,,,,,,,,,,,,,,,stimuli/alien_stimuli/13.png,13,9,28,,,,,,,30,,,,,,,,948.302500299993,948.302500299993,948.302500299993,948.302500299993,948.302500299993,return,1.217936099972576,17,0,0,1,0.48,0.32,return,1.1300077999476343,-59,0,0.48,0.32,946.7406437000027,948.302500299993,0.56,0.08,0.24,0.0,0.2,0.56,0.56,0.56,0.08,945.8066003000131,945.8066003000131,945.8066003000131,945.8066003000131,945.8066003000131,945.8066003000131,945.8066003000131,945.8066003000131,945.806378280092,1.053059499943629,return,0.914303099969402,,,,,,,,,,,,,,,,,,,,,,,,,,,,,,,,,NJNYT8,train_y,red_square,top_right,2025-06-24_17h05.18.168,HideSeek_v1,2022.2.5,59.95300879494722,
,9,6,9,1,0,-5,11,,train_dim1_1,28,30,,,,2,0,2,0,,,,,,,,,0,0,0,0,0,27,27,27,0,0,0,0,,,,,,,,,,,,,,,,,,,,,,,,,stimuli/alien_stimuli/11.png,,,,,,,,,,,,,,,,,,,,,,,,,,,,,stimuli/alien_stimuli/16.png,16,8,29,,,,,,,30,,,,,,,,953.8870837000431,953.8870837000431,953.8870837000431,953.8870837000431,953.8870837000431,down,1.487152799963951,17,0,0,99,0.56,0.0,down,1.3997172999661416,,,,,952.3285056999885,953.8870837000431,0.48,0.32,0.0,0.0,0.32,0.48,0.48,0.48,0.32,951.0773671000497,951.0773671000497,951.0773671000497,951.0773671000497,951.0773671000497,951.0773671000497,951.0773671000497,951.0773671000497,951.0774677200359,1.3533138999482617,return,1.2353026999626309,,,,,,,,,,,,,,,,,,,,,,,,,,,,,,,,,NJNYT8,train_y,red_square,top_right,2025-06-24_17h05.18.168,HideSeek_v1,2022.2.5,59.95300879494722,
,9,6,9,1,0,-5,11,,train_dim1_1,28,30,,,,2,0,2,0,,,,,,,,,0,0,0,0,0,27,27,27,1,0,1,0,,,,,,,,,,,,,,,,,,,,,,,,,,,,,,,,,,,,,,,,,,,,,,,,,,,,,,,,,,,,,,,,30,,,,,,,,955.3851593000581,955.3851593000581,955.3851593000581,955.3851593000581,955.3851593000581,down,1.074148999992758,17,0,0,99,0.56,-0.08,down,0.9816982999909669,,,,,,,,,,,,,,,,,,,,,,,,,,,,,,,,,,,,,,,,,,,,,,,,,,,,,,,,,,,,NJNYT8,train_y,red_square,top_right,2025-06-24_17h05.18.168,HideSeek_v1,2022.2.5,59.95300879494722,
,9,6,9,1,0,-5,11,,train_dim1_1,28,30,,,,2,0,2,0,,,,,,,,,0,0,0,0,0,27,27,27,2,0,2,0,,,,,,,,,,,,,,,,,,,,,,,,,,,,,,,,,,,,,,,,,,,,,,,,,,,,,,,,,,,,,,,,30,,,,,,,,956.4677248999942,956.4677248999942,956.4677248999942,956.4677248999942,956.4677248999942,down,0.9747628999175504,17,0,0,99,0.56,-0.16,down,0.8981303999898955,,,,,,,,,,,,,,,,,,,,,,,,,,,,,,,,,,,,,,,,,,,,,,,,,,,,,,,,,,,,NJNYT8,train_y,red_square,top_right,2025-06-24_17h05.18.168,HideSeek_v1,2022.2.5,59.95300879494722,
,9,6,9,1,0,-5,11,,train_dim1_1,28,30,,,,2,0,2,0,,,,,,,,,0,0,0,0,0,27,27,27,3,0,3,0,,,,,,,,,,,,,,,,,,,,,,,,,,,,,,,,,,,,,,,,,,,,,,,,,,,,,,,,,,,,,,,,30,,,,,,,,957.4498392000096,957.4498392000096,957.4498392000096,957.4498392000096,957.4498392000096,down,1.0270778000121936,17,0,0,99,0.56,-0.24,down,0.9493767999811098,,,,,,,,,,,,,,,,,,,,,,,,,,,,,,,,,,,,,,,,,,,,,,,,,,,,,,,,,,,,NJNYT8,train_y,red_square,top_right,2025-06-24_17h05.18.168,HideSeek_v1,2022.2.5,59.95300879494722,
,9,6,9,1,0,-5,11,,train_dim1_1,28,30,,,,2,0,2,0,,,,,,,,,0,0,0,0,0,27,27,27,4,0,4,0,,,,,,,,,,,,,,,,,,,,,,,,,,,,,,,,,,,,,,,,,,,,,,,,,,,,,,,,,,,,,,,,30,,,,,,,,958.4835882000625,958.4835882000625,958.4835882000625,958.4835882000625,958.4835882000625,down,0.7436510999687016,17,0,0,99,0.56,-0.32,down,0.6592939000111073,,,,,,,,,,,,,,,,,,,,,,,,,,,,,,,,,,,,,,,,,,,,,,,,,,,,,,,,,,,,NJNYT8,train_y,red_square,top_right,2025-06-24_17h05.18.168,HideSeek_v1,2022.2.5,59.95300879494722,
,9,6,9,1,0,-5,11,,train_dim1_1,28,30,,,,2,0,2,0,,,,,,,,,0,0,0,0,0,27,27,27,5,0,5,0,,,,,,,,,,,,,,,,,,,,,,,,,,,,,,,,,,,,,,,,,,,,,,,,,,,,,,,,,,,,,,,,30,,,,,,,,959.2342494999757,959.2342494999757,959.2342494999757,959.2342494999757,959.2342494999757,return,0.5265141999116167,18,0,0,1,0.56,-0.32,return,0.4500368000008166,-64,0,0.56,-0.32,,,,,,,,,,,,,,,,,,,,,,,,,,,,,,,,,,,,,,,,,,,,,,,,,,,,,,,,NJNYT8,train_y,red_square,top_right,2025-06-24_17h05.18.168,HideSeek_v1,2022.2.5,59.95300879494722,
,7,7,7,3,0,-4,12,,train_dim1_1,29,30,,,,2,0,2,0,,,,,,,,,0,0,0,0,0,28,28,28,0,0,0,0,,,,,,,,,,,,,,,,,,,,,,,,,stimuli/alien_stimuli/12.png,,,,,,,,,,,,,,,,,,,,,,,,,,,,,stimuli/alien_stimuli/11.png,11,9,30,,,,,,,30,,,,,,,,964.3788649999769,964.3788649999769,964.3788649999769,964.3788649999769,964.3788649999769,down,2.4558244000654668,18,0,0,99,0.4,0.08,down,2.3696395000442863,,,,,962.8205884000054,964.3788649999769,0.56,-0.32,0.4,0.0,-0.12,0.56,0.56,0.56,-0.32,961.3380528000416,961.3380528000416,961.3380528000416,961.3380528000416,961.3380528000416,961.3380528000416,961.3380528000416,961.3380528000416,961.3360253799939,1.602917900076136,return,1.4604846999282017,,,,,,,,,,,,,,,,,,,,,,,,,,,,,,,,,NJNYT8,train_y,red_square,top_right,2025-06-24_17h05.18.168,HideSeek_v1,2022.2.5,59.95300879494722,
,7,7,7,3,0,-4,12,,train_dim1_1,29,30,,,,2,0,2,0,,,,,,,,,0,0,0,0,0,28,28,28,1,0,1,0,,,,,,,,,,,,,,,,,,,,,,,,,,,,,,,,,,,,,,,,,,,,,,,,,,,,,,,,,,,,,,,,30,,,,,,,,966.8426512000151,966.8426512000151,966.8426512000151,966.8426512000151,966.8426512000151,down,2.143731900025159,18,0,0,99,0.4,0.0,down,2.0655813000630587,,,,,,,,,,,,,,,,,,,,,,,,,,,,,,,,,,,,,,,,,,,,,,,,,,,,,,,,,,,,NJNYT8,train_y,red_square,top_right,2025-06-24_17h05.18.168,HideSeek_v1,2022.2.5,59.95300879494722,
,7,7,7,3,0,-4,12,,train_dim1_1,29,30,,,,2,0,2,0,,,,,,,,,0,0,0,0,0,28,28,28,2,0,2,0,,,,,,,,,,,,,,,,,,,,,,,,,,,,,,,,,,,,,,,,,,,,,,,,,,,,,,,,,,,,,,,,30,,,,,,,,968.9959745999658,968.9959745999658,968.9959745999658,968.9959745999658,968.9959745999658,down,2.158882200019434,18,0,0,99,0.4,-0.08,down,2.073009700048715,,,,,,,,,,,,,,,,,,,,,,,,,,,,,,,,,,,,,,,,,,,,,,,,,,,,,,,,,,,,NJNYT8,train_y,red_square,top_right,2025-06-24_17h05.18.168,HideSeek_v1,2022.2.5,59.95300879494722,
,7,7,7,3,0,-4,12,,train_dim1_1,29,30,,,,2,0,2,0,,,,,,,,,0,0,0,0,0,28,28,28,3,0,3,0,,,,,,,,,,,,,,,,,,,,,,,,,,,,,,,,,,,,,,,,,,,,,,,,,,,,,,,,,,,,,,,,30,,,,,,,,971.1635240999749,971.1635240999749,971.1635240999749,971.1635240999749,971.1635240999749,down,6.596719199907966,18,0,0,99,0.4,-0.16,down,6.504492300096899,,,,,,,,,,,,,,,,,,,,,,,,,,,,,,,,,,,,,,,,,,,,,,,,,,,,,,,,,,,,NJNYT8,train_y,red_square,top_right,2025-06-24_17h05.18.168,HideSeek_v1,2022.2.5,59.95300879494722,
,7,7,7,3,0,-4,12,,train_dim1_1,29,30,,,,2,0,2,0,,,,,,,,,0,0,0,0,0,28,28,28,4,0,4,0,,,,,,,,,,,,,,,,,,,,,,,,,,,,,,,,,,,,,,,,,,,,,,,,,,,,,,,,,,,,,,,,30,,,,,,,,977.7682047999697,977.7682047999697,977.7682047999697,977.7682047999697,977.7682047999697,return,0.4097374000120908,19,0,0,1,0.4,-0.16,return,0.32520889991428703,-68,0,0.4,-0.16,,,,,,,,,,,,,,,,,,,,,,,,,,,,,,,,,,,,,,,,,,,,,,,,,,,,,,,,NJNYT8,train_y,red_square,top_right,2025-06-24_17h05.18.168,HideSeek_v1,2022.2.5,59.95300879494722,
,5,6,5,5,0,-1,15,,train_dim1_1,30,30,,,,2,0,2,0,,,,,,,,,0,0,0,0,0,29,29,29,0,0,0,0,,,,,,,,,,,,,,,,,,,,,,,,,stimuli/alien_stimuli/15.png,,,,,,,,,,,,,,,,,,,,,,,,,,,,,stimuli/alien_stimuli/12.png,12,7,31,,,,,,,30,,,,,,,,982.3958766000578,982.3958766000578,982.3958766000578,982.3958766000578,982.3958766000578,down,1.4533060999820009,19,0,0,99,0.24,0.0,down,1.3658151000272483,,,,,980.8353700999869,982.3958766000578,0.4,-0.16,0.32,0.0,0.0,0.4,0.4,0.4,-0.16,979.7529929999728,979.7529929999728,979.7529929999728,979.7529929999728,979.7529929999728,979.7529929999728,979.7529929999728,979.7529929999728,979.7512344799935,1.2029097999911755,return,1.0526937999529764,,,,,,,,,,,,,,,,,,,,,,,,,,,,,,,,,NJNYT8,train_y,red_square,top_right,2025-06-24_17h05.18.168,HideSeek_v1,2022.2.5,59.95300879494722,
,5,6,5,5,0,-1,15,,train_dim1_1,30,30,,,,2,0,2,0,,,,,,,,,0,0,0,0,0,29,29,29,1,0,1,0,,,,,,,,,,,,,,,,,,,,,,,,,,,,,,,,,,,,,,,,,,,,,,,,,,,,,,,,,,,,,,,,30,,,,,,,,983.8573569,983.8573569,983.8573569,983.8573569,983.8573569,return,0.5586438000900671,20,0,0,1,0.24,0.0,return,0.46927190001588315,-69,0,0.24,0.0,,,,,,,,,,,,,,,,,,,,,,,,,,,,,,,,,,,,,,,,,,,,,,,,,,,,,,,,NJNYT8,train_y,red_square,top_right,2025-06-24_17h05.18.168,HideSeek_v1,2022.2.5,59.95300879494722,
,,,,,,,,,,,30,,,,2,0,2,0,,,,,,,,,,,,,,,,,,,,,,,,,,,,,,,,,,,,,,,,,,,,,,,,,,,,,,,,,,,,,,,,,,,,,,,,,,stimuli/alien_stimuli/15.png,15,5,32,21,0.7,0.8333333333333335,1,1,1,30,0,conditions/schedules/train_y_first/red_square_00/top_right/inputTrain_2.1.xlsx,99,1,2,1,0,,,,,,,,,,,1,,,,,,,,,987.9916248000227,989.5563958999701,0.24,0,0.08,0.0,0.04,0.24,0.24,0.24,0,985.97594569996,985.97594569996,985.97594569996,985.97594569996,985.97594569996,985.97594569996,985.97594569996,985.97594569996,985.9730317200417,2.1208470000419766,return,1.9987277000909671,0,0.9,0,1,20,,,,,,,,,,,,,,,,,,,,,,,,,,,,NJNYT8,train_y,red_square,top_right,2025-06-24_17h05.18.168,HideSeek_v1,2022.2.5,59.95300879494722,
,,,,,,,,,,,,,,,3,0,3,0,0,0,0,0,,,,,,,,,,,,,,,,,,,,,,,,,,,,,,,conditions/schedules/train_y_first/red_square_00/top_right/instructions/Slide17.png,conditions/schedules/train_y_first/red_square_00/top_right/instructions/Audio17.wav,989.5563958999701,989.5427256400231,17,"[7.958371099899523, 17.76357030007057, 16.254690899979323, 19.404121400089934, 4.804847599938512, 5.619880800019018, 5.537021100055426, 11.239070300012827, 5.821909199934453, 6.549852299969643, 9.736313100089319, 13.406700200052, 16.947353500057943, 16.94486190006137, 43.05805190000683, 21.03055210004095, 46.42231080005877]","[7.958378099952824, 0.014227800071239471, 0.034188800025731325, 0.034381199977360666, 0.031954300007782876, 0.00020250002853572369, 0.03130949998740107, 0.033652100013569, 0.046589900040999055, 0.014087400049902499, 0.04662160004954785, 13.406709900009446, 0.013806600007228553, 16.94486849999521, 0.07969230005983263, 21.030559200095013, 46.4223181999987]",0,,,,,,,,,,,,,,,,,,,,,,,,,,,,,,,,,,,,,,,,,,,,,,,,,,,,,,,,,,,,,,,,,,,,,,,,,,,,,,,,,,,,,,,,,,,,,,,,,,,,,,,,,,,,,,,,,,,,,,,,,,,,NJNYT8,train_y,red_square,top_right,2025-06-24_17h05.18.168,HideSeek_v1,2022.2.5,59.95300879494722,
,,,,,,,,,,,,,,,3,0,3,0,1,0,1,0,,,,,,,,,,,,,,,,,,,,,,,,,,,,,,,conditions/schedules/train_y_first/red_square_00/top_right/instructions/Slide18.png,conditions/schedules/train_y_first/red_square_00/top_right/instructions/Audio18.wav,1036.0507425999967,1036.0477023000713,18,"[7.958371099899523, 17.76357030007057, 16.254690899979323, 19.404121400089934, 4.804847599938512, 5.619880800019018, 5.537021100055426, 11.239070300012827, 5.821909199934453, 6.549852299969643, 9.736313100089319, 13.406700200052, 16.947353500057943, 16.94486190006137, 43.05805190000683, 21.03055210004095, 46.42231080005877, 5.899482699926011]","[7.958378099952824, 0.014227800071239471, 0.034188800025731325, 0.034381199977360666, 0.031954300007782876, 0.00020250002853572369, 0.03130949998740107, 0.033652100013569, 0.046589900040999055, 0.014087400049902499, 0.04662160004954785, 13.406709900009446, 0.013806600007228553, 16.94486849999521, 0.07969230005983263, 21.030559200095013, 46.4223181999987, 5.899489899980836]",0,,,,,,,,,,,,,,,,,,,,,,,,,,,,,,,,,,,,,,,,,,,,,,,,,,,,,,,,,,,,,,,,,,,,,,,,,,,,,,,,,,,,,,,,,,,,,,,,,,,,,,,,,,,,,,,,,,,,,,,,,,,,NJNYT8,train_y,red_square,top_right,2025-06-24_17h05.18.168,HideSeek_v1,2022.2.5,59.95300879494722,
,,,,,,,,,,,,,,,3,0,3,0,2,0,2,0,,,,,,,,,,,,,,,,,,,,,,,,,,,,,,,conditions/schedules/train_y_first/red_square_00/top_right/instructions/Slide19.png,conditions/schedules/train_y_first/red_square_00/top_right/instructions/Audio19.wav,1042.0106454000343,1042.002852140018,19,"[7.958371099899523, 17.76357030007057, 16.254690899979323, 19.404121400089934, 4.804847599938512, 5.619880800019018, 5.537021100055426, 11.239070300012827, 5.821909199934453, 6.549852299969643, 9.736313100089319, 13.406700200052, 16.947353500057943, 16.94486190006137, 43.05805190000683, 21.03055210004095, 46.42231080005877, 5.899482699926011, 9.931418200023472]","[7.958378099952824, 0.014227800071239471, 0.034188800025731325, 0.034381199977360666, 0.031954300007782876, 0.00020250002853572369, 0.03130949998740107, 0.033652100013569, 0.046589900040999055, 0.014087400049902499, 0.04662160004954785, 13.406709900009446, 0.013806600007228553, 16.94486849999521, 0.07969230005983263, 21.030559200095013, 46.4223181999987, 0.00021430000197142363, 9.931427900097333]",0,,,,,,,,,,,,,,,,,,,,,,,,,,,,,,,,,,,,,,,,,,,,,,,,,,,,,,,,,,,,,,,,,,,,,,,,,,,,,,,,,,,,,,,,,,,,,,,,,,,,,,,,,,,,,,,,,,,,,,,,,,,,NJNYT8,train_y,red_square,top_right,2025-06-24_17h05.18.168,HideSeek_v1,2022.2.5,59.95300879494722,
,,,,,,,,,,,,,,,3,0,3,0,3,0,3,0,,,,,,,,,,,,,,,,,,,,,,,,,,,,,,,conditions/schedules/train_y_first/red_square_00/top_right/instructions/Slide20.png,conditions/schedules/train_y_first/red_square_00/top_right/instructions/Audio20.wav,1051.9965808000416,1051.9946162400536,20,"[7.958371099899523, 17.76357030007057, 16.254690899979323, 19.404121400089934, 4.804847599938512, 5.619880800019018, 5.537021100055426, 11.239070300012827, 5.821909199934453, 6.549852299969643, 9.736313100089319, 13.406700200052, 16.947353500057943, 16.94486190006137, 43.05805190000683, 21.03055210004095, 46.42231080005877, 5.899482699926011, 9.931418200023472, 12.739113799994811]","[7.958378099952824, 0.014227800071239471, 0.034188800025731325, 0.034381199977360666, 0.031954300007782876, 0.00020250002853572369, 0.03130949998740107, 0.033652100013569, 0.046589900040999055, 0.014087400049902499, 0.04662160004954785, 13.406709900009446, 0.013806600007228553, 16.94486849999521, 0.07969230005983263, 21.030559200095013, 46.4223181999987, 0.00021430000197142363, 0.013821700005792081, 12.739120800048113]",0,,,,,,,,,,,,,,,,,,,,,,,,,,,,,,,,,,,,,,,,,,,,,,,,,,,,,,,,,,,,,,,,,,,,,,,,,,,,,,,,,,,,,,,,,,,,,,,,,,,,,,,,,,,,,,,,,,,,,,,,,,,,NJNYT8,train_y,red_square,top_right,2025-06-24_17h05.18.168,HideSeek_v1,2022.2.5,59.95300879494722,
1,8,7,3,7,-5,0,66,2,instr_dim1_2,,,,,,3,0,3,0,,,,,0,0,0,0,,,,,,,,,,,,,,,,,,,,,,,,,,,,,,,,,,,,,stimuli/alien_stimuli/66.png,conditions/schedules/train_y_first/red_square_00/top_right/inputInstr_2.xlsx,stimuli/alien_stimuli/66.png,1064.8406633000122,1064.8406633000122,1064.8406633000122,1064.8406633000122,1064.8384390199908,return,6.490963899996132,"[-0.16, -0.08, 0, 0.08, 0.16, 0.24, 0.32, 0.4, 0.48, 0.56]","[-0.4, -0.32, -0.24, -0.16, -0.08, 0, 0.08, 0.16, 0.24, 0.32]",7,7,3,8,0.0,0.4,1071.4982801000588,1071.4982801000588,1071.4982801000588,1071.4982801000588,1071.4982801000588,1071.4982801000588,1071.4982801000588,1071.477333180071,10.592566599952988,return,10.431556800031103,stimuli/alien_stimuli/66.png,66,8,1,,,,,,,,,,,,,,,,,,,,,,,,,,,,,,,,,,,,,,,,,,,,,,,,,,,,,,,,,,,,,,,,,,,,,,,,,,,,,,,,,,,,,,,,,NJNYT8,train_y,red_square,top_right,2025-06-24_17h05.18.168,HideSeek_v1,2022.2.5,59.95300879494722,
,,,,,,,,,,,30,,,,3,0,3,0,,,,,,,,,,,,,,,,,,,,,,,,,,,,,,,,,,,,,,,,,,,,,,,,,,,,,,,,,,,,,,,,,,,,,,,,,,,,,,21,0.7,0.8333333333333335,1,99,2,30,0,conditions/schedules/train_y_first/red_square_00/top_right/inputTrain_2.1.xlsx,99,1,2,1,0,,,,,,,,,,,,,,,,,,,,,,,,,,,,,,,,,,,,,,,,,,,,,,,,,,,,,,,,,,,,,,,,,,,,,,,,,,,NJNYT8,train_y,red_square,top_right,2025-06-24_17h05.18.168,HideSeek_v1,2022.2.5,59.95300879494722,
,,,,,,,,,,,,,,,4,0,4,0,0,0,0,0,,,,,,,,,,,,,,,,,,,,,,,,,,,,,,,conditions/schedules/train_y_first/red_square_00/top_right/instructions/Slide21.png,conditions/schedules/train_y_first/red_square_00/top_right/instructions/Audio21.wav,1082.1022552000359,1082.1024481001077,21,"[7.958371099899523, 17.76357030007057, 16.254690899979323, 19.404121400089934, 4.804847599938512, 5.619880800019018, 5.537021100055426, 11.239070300012827, 5.821909199934453, 6.549852299969643, 9.736313100089319, 13.406700200052, 16.947353500057943, 16.94486190006137, 43.05805190000683, 21.03055210004095, 46.42231080005877, 5.899482699926011, 9.931418200023472, 12.739113799994811, 14.176285700057633]","[7.958378099952824, 0.014227800071239471, 0.034188800025731325, 0.034381199977360666, 0.031954300007782876, 0.00020250002853572369, 0.03130949998740107, 0.033652100013569, 0.046589900040999055, 0.014087400049902499, 0.04662160004954785, 13.406709900009446, 0.013806600007228553, 16.94486849999521, 0.07969230005983263, 21.030559200095013, 46.4223181999987, 0.00021430000197142363, 0.013821700005792081, 12.739120800048113, 14.176296600024216]",0,,,,,,,,,,,,,,,,,,,,,,,,,,,,,,,,,,,,,,,,,,,,,,,,,,,,,,,,,,,,,,,,,,,,,,,,,,,,,,,,,,,,,,,,,,,,,,,,,,,,,,,,,,,,,,,,,,,,,,,,,,,,NJNYT8,train_y,red_square,top_right,2025-06-24_17h05.18.168,HideSeek_v1,2022.2.5,59.95300879494722,
2,9,5,9,5,0,0,16,2,instr_dim1_2,,,,,,4,0,4,0,,,,,0,0,0,0,,,,,,,,,,,,,,,,,,,,,,,,,,,,,,,,,,,,,stimuli/alien_stimuli/16.png,conditions/schedules/train_y_first/red_square_00/top_right/inputInstr_2.xlsx,stimuli/alien_stimuli/16.png,1096.3825612000655,1096.3825612000655,1096.3825612000655,1096.3825612000655,1096.380977320031,return,9.211631499929354,"[-0.16, -0.08, 0, 0.08, 0.16, 0.24, 0.32, 0.4, 0.48, 0.56]","[-0.4, -0.32, -0.24, -0.16, -0.08, 0, 0.08, 0.16, 0.24, 0.32]",5,5,9,9,0.0,0.0,1105.7656623000512,1105.7656623000512,1105.7656623000512,1105.7656623000512,1105.7656623000512,1105.7656623000512,1105.7656623000512,1105.7555509400206,6.423488800064661,return,6.255225499975495,stimuli/alien_stimuli/16.png,16,9,2,,,,,,,,,,,,,,,,,,,,,,,,,,,,,,,,,,,,,,,,,,,,,,,,,,,,,,,,,,,,,,,,,,,,,,,,,,,,,,,,,,,,,,,,,NJNYT8,train_y,red_square,top_right,2025-06-24_17h05.18.168,HideSeek_v1,2022.2.5,59.95300879494722,
,,,,,,,,,,,30,,,,4,0,4,0,,,,,,,,,,,,,,,,,,,,,,,,,,,,,,,,,,,,,,,,,,,,,,,,,,,,,,,,,,,,,,,,,,,,,,,,,,,,,,21,0.7,0.8333333333333335,1,99,2,30,0,conditions/schedules/train_y_first/red_square_00/top_right/inputTrain_2.1.xlsx,99,1,2,1,0,,,,,,,,,,,,,,,,,,,,,,,,,,,,,,,,,,,,,,,,,,,,,,,,,,,,,,,,,,,,,,,,,,,,,,,,,,,NJNYT8,train_y,red_square,top_right,2025-06-24_17h05.18.168,HideSeek_v1,2022.2.5,59.95300879494722,
,,,,,,,,,,,,,,,5,0,5,0,0,0,0,0,,,,,,,,,,,,,,,,,,,,,,,,,,,,,,,conditions/schedules/train_y_first/red_square_00/top_right/instructions/Slide22.png,conditions/schedules/train_y_first/red_square_00/top_right/instructions/Audio22.wav,1112.1867575000506,1112.177803940105,22,"[7.958371099899523, 17.76357030007057, 16.254690899979323, 19.404121400089934, 4.804847599938512, 5.619880800019018, 5.537021100055426, 11.239070300012827, 5.821909199934453, 6.549852299969643, 9.736313100089319, 13.406700200052, 16.947353500057943, 16.94486190006137, 43.05805190000683, 21.03055210004095, 46.42231080005877, 5.899482699926011, 9.931418200023472, 12.739113799994811, 14.176285700057633, 30.93079710006714]","[7.958378099952824, 0.014227800071239471, 0.034188800025731325, 0.034381199977360666, 0.031954300007782876, 0.00020250002853572369, 0.03130949998740107, 0.033652100013569, 0.046589900040999055, 0.014087400049902499, 0.04662160004954785, 13.406709900009446, 0.013806600007228553, 16.94486849999521, 0.07969230005983263, 21.030559200095013, 46.4223181999987, 0.00021430000197142363, 0.013821700005792081, 12.739120800048113, 14.176296600024216, 30.930804100004025]",0,,,,,,,,,,,,,,,,,,,,,,,,,,,,,,,,,,,,,,,,,,,,,,,,,,,,,,,,,,,,,,,,,,,,,,,,,,,,,,,,,,,,,,,,,,,,,,,,,,,,,,,,,,,,,,,,,,,,,,,,,,,,NJNYT8,train_y,red_square,top_right,2025-06-24_17h05.18.168,HideSeek_v1,2022.2.5,59.95300879494722,
,7,6,4,6,-3,0,46,,train_dim1_2,1,30,,,,5,0,5,0,,,,,,,,,0,0,0,0,0,0,0,0,0,0,0,0,,,,,,,,,,,,,,,,,,,,,,,,,stimuli/alien_stimuli/46.png,,,,,,,,,,,,,,,,,,,,,,,,,,,,,,,,,,,,,,,30,,,,,,,,1143.2178193000145,1143.2178193000145,1143.2178193000145,1143.2178193000145,1143.2178193000145,return,0.11013960000127554,0,0,0,0,0.4,0.08,return,0.005484000081196427,-69,0,0.4,0.08,,,,,,,,,,,,,,,,,,,,,,,,,,,,,,,,,,,,,,,,,,,,,,,,,,,,,,,,NJNYT8,train_y,red_square,top_right,2025-06-24_17h05.18.168,HideSeek_v1,2022.2.5,59.95300879494722,
,7,9,7,9,0,0,16,,train_dim1_2,2,30,,,,5,0,5,0,,,,,,,,,0,0,0,0,0,1,1,1,0,0,0,0,,,,,,,,,,,,,,,,,,,,,,,,,stimuli/alien_stimuli/16.png,,,,,,,,,,,,,,,,,,,,,,,,,,,,,stimuli/alien_stimuli/46.png,46,7,3,,,,,,,30,,,,,,,,1152.6429742999608,1152.6429742999608,1152.6429742999608,1152.6429742999608,1152.6429742999608,return,2.454455600003712,1,0,0,1,0.4,0.32,return,2.371234100079164,-69,0,0.4,0.32,1151.0766941000475,1152.6429742999608,0.16,0.08,0.0,0.24,0.08,0.16,0.28,0.16,0.08,1144.8853987000184,1144.8853987000184,1144.8853987000184,1144.8853987000184,1144.8853987000184,1144.8853987000184,1144.8853987000184,1144.8853987000184,1144.8710778200884,6.307613300043158,return,6.171417500008829,,,,,,,,,,,,,,,,,,,,,,,,,,,,,,,,,NJNYT8,train_y,red_square,top_right,2025-06-24_17h05.18.168,HideSeek_v1,2022.2.5,59.95300879494722,
,9,9,8,9,-1,0,26,,train_dim1_2,3,30,,,,5,0,5,0,,,,,,,,,0,0,0,0,0,2,2,2,0,0,0,0,,,,,,,,,,,,,,,,,,,,,,,,,stimuli/alien_stimuli/26.png,,,,,,,,,,,,,,,,,,,,,,,,,,,,,stimuli/alien_stimuli/16.png,16,7,4,,,,,,,30,,,,,,,,1161.1505048000254,1161.1505048000254,1161.1505048000254,1161.1505048000254,1161.1505048000254,left,2.085990099934861,1,0,0,99,0.48000000000000004,0.32,left,1.9875959999626502,,,,,1159.5838285000063,1161.1505048000254,0.4,0.32,0.0,0.0,0.32,0.4,0.4,0.4,0.32,1156.670495999977,1156.670495999977,1156.670495999977,1156.670495999977,1156.670495999977,1156.670495999977,1156.670495999977,1156.670495999977,1156.647908820084,3.0377840999281034,return,2.8853670998942107,,,,,,,,,,,,,,,,,,,,,,,,,,,,,,,,,NJNYT8,train_y,red_square,top_right,2025-06-24_17h05.18.168,HideSeek_v1,2022.2.5,59.95300879494722,
,9,9,8,9,-1,0,26,,train_dim1_2,3,30,,,,5,0,5,0,,,,,,,,,0,0,0,0,0,2,2,2,1,0,1,0,,,,,,,,,,,,,,,,,,,,,,,,,,,,,,,,,,,,,,,,,,,,,,,,,,,,,,,,,,,,,,,,30,,,,,,,,1163.2387091000564,1163.2387091000564,1163.2387091000564,1163.2387091000564,1163.2387091000564,return,0.7418700000271201,2,0,0,1,0.48000000000000004,0.32,return,0.6633061000611633,-69,-1,0.48000000000000004,0.32,,,,,,,,,,,,,,,,,,,,,,,,,,,,,,,,,,,,,,,,,,,,,,,,,,,,,,,,NJNYT8,train_y,red_square,top_right,2025-06-24_17h05.18.168,HideSeek_v1,2022.2.5,59.95300879494722,
,7,8,3,8,-4,0,56,,train_dim1_2,4,30,,,,5,0,5,0,,,,,,,,,0,0,0,0,0,3,3,3,0,0,0,0,,,,,,,,,,,,,,,,,,,,,,,,,stimuli/alien_stimuli/56.png,,,,,,,,,,,,,,,,,,,,,,,,,,,,,stimuli/alien_stimuli/26.png,26,9,5,,,,,,,30,,,,,,,,1168.4314927000087,1168.4314927000087,1168.4314927000087,1168.4314927000087,1168.4314927000087,left,5.458999800030142,2,0,0,99,0.32,0.24,left,5.356802699971013,,,,,1166.856241100002,1168.4314927000087,0.48,0.32,0.0,0.08,0.32,0.48,0.52,0.48,0.32,1165.5540222000564,1165.5540222000564,1165.5540222000564,1165.5540222000564,1165.5540222000564,1165.5540222000564,1165.5540222000564,1165.5540222000564,1165.538890120003,1.4193594999378547,return,1.2745142999337986,,,,,,,,,,,,,,,,,,,,,,,,,,,,,,,,,NJNYT8,train_y,red_square,top_right,2025-06-24_17h05.18.168,HideSeek_v1,2022.2.5,59.95300879494722,
,7,8,3,8,-4,0,56,,train_dim1_2,4,30,,,,5,0,5,0,,,,,,,,,0,0,0,0,0,3,3,3,1,0,1,0,,,,,,,,,,,,,,,,,,,,,,,,,,,,,,,,,,,,,,,,,,,,,,,,,,,,,,,,,,,,,,,,30,,,,,,,,1173.879154699971,1173.879154699971,1173.879154699971,1173.879154699971,1173.879154699971,left,1.1770153000252321,2,0,0,99,0.24,0.24,left,1.0962952999398112,,,,,,,,,,,,,,,,,,,,,,,,,,,,,,,,,,,,,,,,,,,,,,,,,,,,,,,,,,,,NJNYT8,train_y,red_square,top_right,2025-06-24_17h05.18.168,HideSeek_v1,2022.2.5,59.95300879494722,
,7,8,3,8,-4,0,56,,train_dim1_2,4,30,,,,5,0,5,0,,,,,,,,,0,0,0,0,0,3,3,3,2,0,2,0,,,,,,,,,,,,,,,,,,,,,,,,,,,,,,,,,,,,,,,,,,,,,,,,,,,,,,,,,,,,,,,,30,,,,,,,,1175.0643010999775,1175.0643010999775,1175.0643010999775,1175.0643010999775,1175.0643010999775,left,0.9753650999628007,2,0,0,99,0.15999999999999998,0.24,left,0.8890078000258654,,,,,,,,,,,,,,,,,,,,,,,,,,,,,,,,,,,,,,,,,,,,,,,,,,,,,,,,,,,,NJNYT8,train_y,red_square,top_right,2025-06-24_17h05.18.168,HideSeek_v1,2022.2.5,59.95300879494722,
,7,8,3,8,-4,0,56,,train_dim1_2,4,30,,,,5,0,5,0,,,,,,,,,0,0,0,0,0,3,3,3,3,0,3,0,,,,,,,,,,,,,,,,,,,,,,,,,,,,,,,,,,,,,,,,,,,,,,,,,,,,,,,,,,,,,,,,30,,,,,,,,1176.0451379000442,1176.0451379000442,1176.0451379000442,1176.0451379000442,1176.0451379000442,left,1.0104961999459192,2,0,0,99,0.07999999999999997,0.24,left,0.9359210000839084,,,,,,,,,,,,,,,,,,,,,,,,,,,,,,,,,,,,,,,,,,,,,,,,,,,,,,,,,,,,NJNYT8,train_y,red_square,top_right,2025-06-24_17h05.18.168,HideSeek_v1,2022.2.5,59.95300879494722,
,7,8,3,8,-4,0,56,,train_dim1_2,4,30,,,,5,0,5,0,,,,,,,,,0,0,0,0,0,3,3,3,4,0,4,0,,,,,,,,,,,,,,,,,,,,,,,,,,,,,,,,,,,,,,,,,,,,,,,,,,,,,,,,,,,,,,,,30,,,,,,,,1177.0644863999914,1177.0644863999914,1177.0644863999914,1177.0644863999914,1177.0644863999914,left,0.8913351000519469,2,0,0,99,-2.7755575615628914e-17,0.24,left,0.8174925999483094,,,,,,,,,,,,,,,,,,,,,,,,,,,,,,,,,,,,,,,,,,,,,,,,,,,,,,,,,,,,NJNYT8,train_y,red_square,top_right,2025-06-24_17h05.18.168,HideSeek_v1,2022.2.5,59.95300879494722,
,7,8,3,8,-4,0,56,,train_dim1_2,4,30,,,,5,0,5,0,,,,,,,,,0,0,0,0,0,3,3,3,5,0,5,0,,,,,,,,,,,,,,,,,,,,,,,,,,,,,,,,,,,,,,,,,,,,,,,,,,,,,,,,,,,,,,,,30,,,,,,,,1177.963797400007,1177.963797400007,1177.963797400007,1177.963797400007,1177.963797400007,left,0.5269963999744505,2,0,0,99,-0.08000000000000003,0.24,left,0.44807080004829913,,,,,,,,,,,,,,,,,,,,,,,,,,,,,,,,,,,,,,,,,,,,,,,,,,,,,,,,,,,,NJNYT8,train_y,red_square,top_right,2025-06-24_17h05.18.168,HideSeek_v1,2022.2.5,59.95300879494722,
,7,8,3,8,-4,0,56,,train_dim1_2,4,30,,,,5,0,5,0,,,,,,,,,0,0,0,0,0,3,3,3,6,0,6,0,,,,,,,,,,,,,,,,,,,,,,,,,,,,,,,,,,,,,,,,,,,,,,,,,,,,,,,,,,,,,,,,30,,,,,,,,1178.4975767000578,1178.4975767000578,1178.4975767000578,1178.4975767000578,1178.4975767000578,return,0.5265932999318466,2,0,0,0,-0.08000000000000003,0.24,return,0.44154959998559207,-69,-7,-0.08000000000000003,0.24,,,,,,,,,,,,,,,,,,,,,,,,,,,,,,,,,,,,,,,,,,,,,,,,,,,,,,,,NJNYT8,train_y,red_square,top_right,2025-06-24_17h05.18.168,HideSeek_v1,2022.2.5,59.95300879494722,
,5,7,0,7,-5,0,66,,train_dim1_2,5,30,,,,5,0,5,0,,,,,,,,,0,0,0,0,0,4,4,4,0,0,0,0,,,,,,,,,,,,,,,,,,,,,,,,,stimuli/alien_stimuli/66.png,,,,,,,,,,,,,,,,,,,,,,,,,,,,,stimuli/alien_stimuli/56.png,56,7,6,,,,,,,30,,,,,,,,1184.072765500052,1184.072765500052,1184.072765500052,1184.072765500052,1184.072765500052,left,6.075227499939501,2,0,0,99,0.15999999999999998,0.16,left,5.981257900013588,,,,,1182.5026856999611,1184.072765500052,0.08,0.24,0.0,0.32,0.24,0.08,0.24000000000000002,0.08,0.24,1180.6088342999574,1180.6088342999574,1180.6088342999574,1180.6088342999574,1180.6088342999574,1180.6088342999574,1180.6088342999574,1180.6088342999574,1180.601188780088,2.020228000008501,return,1.8625296999234706,,,,,,,,,,,,,,,,,,,,,,,,,,,,,,,,,NJNYT8,train_y,red_square,top_right,2025-06-24_17h05.18.168,HideSeek_v1,2022.2.5,59.95300879494722,
,5,7,0,7,-5,0,66,,train_dim1_2,5,30,,,,5,0,5,0,,,,,,,,,0,0,0,0,0,4,4,4,1,0,1,0,,,,,,,,,,,,,,,,,,,,,,,,,,,,,,,,,,,,,,,,,,,,,,,,,,,,,,,,,,,,,,,,30,,,,,,,,1190.141643500072,1190.141643500072,1190.141643500072,1190.141643500072,1190.141643500072,left,0.741704799933359,2,0,0,99,0.07999999999999997,0.16,left,0.6594062999356538,,,,,,,,,,,,,,,,,,,,,,,,,,,,,,,,,,,,,,,,,,,,,,,,,,,,,,,,,,,,NJNYT8,train_y,red_square,top_right,2025-06-24_17h05.18.168,HideSeek_v1,2022.2.5,59.95300879494722,
,5,7,0,7,-5,0,66,,train_dim1_2,5,30,,,,5,0,5,0,,,,,,,,,0,0,0,0,0,4,4,4,2,0,2,0,,,,,,,,,,,,,,,,,,,,,,,,,,,,,,,,,,,,,,,,,,,,,,,,,,,,,,,,,,,,,,,,30,,,,,,,,1190.8900122999912,1190.8900122999912,1190.8900122999912,1190.8900122999912,1190.8900122999912,left,0.5104991999687627,2,0,0,99,-2.7755575615628914e-17,0.16,left,0.42337239999324083,,,,,,,,,,,,,,,,,,,,,,,,,,,,,,,,,,,,,,,,,,,,,,,,,,,,,,,,,,,,NJNYT8,train_y,red_square,top_right,2025-06-24_17h05.18.168,HideSeek_v1,2022.2.5,59.95300879494722,
,5,7,0,7,-5,0,66,,train_dim1_2,5,30,,,,5,0,5,0,,,,,,,,,0,0,0,0,0,4,4,4,3,0,3,0,,,,,,,,,,,,,,,,,,,,,,,,,,,,,,,,,,,,,,,,,,,,,,,,,,,,,,,,,,,,,,,,30,,,,,,,,1191.4066467999946,1191.4066467999946,1191.4066467999946,1191.4066467999946,1191.4066467999946,left,0.49322859989479184,2,0,0,99,-0.08000000000000003,0.16,left,0.4088664000155404,,,,,,,,,,,,,,,,,,,,,,,,,,,,,,,,,,,,,,,,,,,,,,,,,,,,,,,,,,,,NJNYT8,train_y,red_square,top_right,2025-06-24_17h05.18.168,HideSeek_v1,2022.2.5,59.95300879494722,
,5,7,0,7,-5,0,66,,train_dim1_2,5,30,,,,5,0,5,0,,,,,,,,,0,0,0,0,0,4,4,4,4,0,4,0,,,,,,,,,,,,,,,,,,,,,,,,,,,,,,,,,,,,,,,,,,,,,,,,,,,,,,,,,,,,,,,,30,,,,,,,,1191.9071608000668,1191.9071608000668,1191.9071608000668,1191.9071608000668,1191.9071608000668,right,0.843788499943912,2,0,0,99,-2.7755575615628914e-17,0.16,right,0.7663387999637052,,,,,,,,,,,,,,,,,,,,,,,,,,,,,,,,,,,,,,,,,,,,,,,,,,,,,,,,,,,,NJNYT8,train_y,red_square,top_right,2025-06-24_17h05.18.168,HideSeek_v1,2022.2.5,59.95300879494722,
,5,7,0,7,-5,0,66,,train_dim1_2,5,30,,,,5,0,5,0,,,,,,,,,0,0,0,0,0,4,4,4,5,0,5,0,,,,,,,,,,,,,,,,,,,,,,,,,,,,,,,,,,,,,,,,,,,,,,,,,,,,,,,,,,,,,,,,30,,,,,,,,1192.75774739997,1192.75774739997,1192.75774739997,1192.75774739997,1192.75774739997,right,0.3101143999956548,2,0,0,99,0.07999999999999997,0.16,right,0.2347402999876067,,,,,,,,,,,,,,,,,,,,,,,,,,,,,,,,,,,,,,,,,,,,,,,,,,,,,,,,,,,,NJNYT8,train_y,red_square,top_right,2025-06-24_17h05.18.168,HideSeek_v1,2022.2.5,59.95300879494722,
,5,7,0,7,-5,0,66,,train_dim1_2,5,30,,,,5,0,5,0,,,,,,,,,0,0,0,0,0,4,4,4,6,0,6,0,,,,,,,,,,,,,,,,,,,,,,,,,,,,,,,,,,,,,,,,,,,,,,,,,,,,,,,,,,,,,,,,30,,,,,,,,1193.0743124000728,1193.0743124000728,1193.0743124000728,1193.0743124000728,1193.0743124000728,right,0.3263802999863401,2,0,0,99,0.15999999999999998,0.16,right,0.2538716000271961,,,,,,,,,,,,,,,,,,,,,,,,,,,,,,,,,,,,,,,,,,,,,,,,,,,,,,,,,,,,NJNYT8,train_y,red_square,top_right,2025-06-24_17h05.18.168,HideSeek_v1,2022.2.5,59.95300879494722,
,5,7,0,7,-5,0,66,,train_dim1_2,5,30,,,,5,0,5,0,,,,,,,,,0,0,0,0,0,4,4,4,7,0,7,0,,,,,,,,,,,,,,,,,,,,,,,,,,,,,,,,,,,,,,,,,,,,,,,,,,,,,,,,,,,,,,,,30,,,,,,,,1193.40816240001,1193.40816240001,1193.40816240001,1193.40816240001,1193.40816240001,right,0.6768649999285117,2,0,0,99,0.24,0.16,right,0.603609999991022,,,,,,,,,,,,,,,,,,,,,,,,,,,,,,,,,,,,,,,,,,,,,,,,,,,,,,,,,,,,NJNYT8,train_y,red_square,top_right,2025-06-24_17h05.18.168,HideSeek_v1,2022.2.5,59.95300879494722,
,5,7,0,7,-5,0,66,,train_dim1_2,5,30,,,,5,0,5,0,,,,,,,,,0,0,0,0,0,4,4,4,8,0,8,0,,,,,,,,,,,,,,,,,,,,,,,,,,,,,,,,,,,,,,,,,,,,,,,,,,,,,,,,,,,,,,,,30,,,,,,,,1194.091200200026,1194.091200200026,1194.091200200026,1194.091200200026,1194.091200200026,return,1.0439216999802738,2,0,0,0,0.24,0.16,return,0.9621564999688417,-69,-7,0.24,0.16,,,,,,,,,,,,,,,,,,,,,,,,,,,,,,,,,,,,,,,,,,,,,,,,,,,,,,,,NJNYT8,train_y,red_square,top_right,2025-06-24_17h05.18.168,HideSeek_v1,2022.2.5,59.95300879494722,
,5,5,4,5,-1,0,26,,train_dim1_2,6,30,,,,5,0,5,0,,,,,,,,,0,0,0,0,0,5,5,5,0,0,0,0,,,,,,,,,,,,,,,,,,,,,,,,,stimuli/alien_stimuli/26.png,,,,,,,,,,,,,,,,,,,,,,,,,,,,,stimuli/alien_stimuli/66.png,66,5,7,,,,,,,30,,,,,,,,1200.0983867000323,1200.0983867000323,1200.0983867000323,1200.0983867000323,1200.0983867000323,left,5.35471750004217,2,0,0,99,0.15999999999999998,0,left,5.241654200013727,,,,,1198.5160106000258,1200.0983867000323,-0.16,0.16,0.0,0.4,0.16,-0.16,0.039999999999999994,-0.16,0.16,1196.7121747999918,1196.7121747999918,1196.7121747999918,1196.7121747999918,1196.7121747999918,1196.7121747999918,1196.7121747999918,1196.7121747999918,1196.6977963200889,1.9202640999574214,return,1.7784540000138804,,,,,,,,,,,,,,,,,,,,,,,,,,,,,,,,,NJNYT8,train_y,red_square,top_right,2025-06-24_17h05.18.168,HideSeek_v1,2022.2.5,59.95300879494722,
,5,5,4,5,-1,0,26,,train_dim1_2,6,30,,,,5,0,5,0,,,,,,,,,0,0,0,0,0,5,5,5,1,0,1,0,,,,,,,,,,,,,,,,,,,,,,,,,,,,,,,,,,,,,,,,,,,,,,,,,,,,,,,,,,,,,,,,30,,,,,,,,1205.4399780000094,1205.4399780000094,1205.4399780000094,1205.4399780000094,1205.4399780000094,return,0.476048200041987,3,0,0,1,0.15999999999999998,0,return,0.39147419994696975,-69,-8,0.15999999999999998,0,,,,,,,,,,,,,,,,,,,,,,,,,,,,,,,,,,,,,,,,,,,,,,,,,,,,,,,,NJNYT8,train_y,red_square,top_right,2025-06-24_17h05.18.168,HideSeek_v1,2022.2.5,59.95300879494722,
