trialInstr,x_fixStart,y_fixStart,x_corrSteps,y_corrSteps,x_nrSteps,y_nrSteps,alienID,trialLength,version,trialTrain,praclen,testlen,trial_label,break_on_off,beforeExpLoop.thisRepN,beforeExpLoop.thisTrialN,beforeExpLoop.thisN,beforeExpLoop.thisIndex,mini_instr_trials.thisRepN,mini_instr_trials.thisTrialN,mini_instr_trials.thisN,mini_instr_trials.thisIndex,instrLoop.thisRepN,instrLoop.thisTrialN,instrLoop.thisN,instrLoop.thisIndex,repeat_prac.thisRepN,repeat_prac.thisTrialN,repeat_prac.thisN,repeat_prac.thisIndex,trainLoop.thisRepN,trainLoop.thisTrialN,trainLoop.thisN,trainLoop.thisIndex,moveLoop_train.thisRepN,moveLoop_train.thisTrialN,moveLoop_train.thisN,moveLoop_train.thisIndex,experiment.thisRepN,experiment.thisTrialN,experiment.thisN,experiment.thisIndex,moveLoop_test.thisRepN,moveLoop_test.thisTrialN,moveLoop_test.thisN,moveLoop_test.thisIndex,mini_instr2_trials.thisRepN,mini_instr2_trials.thisTrialN,mini_instr2_trials.thisN,mini_instr2_trials.thisIndex,start_all_time,url,slideStim,audioStim,slides.started,sounds.started,nextButton.numClicks,nextButton.timesOn,nextButton.timesOff,prev_but.numClicks,prev_but.timesOn,prev_but.timesOff,alienStim,instrFile,alienStim_instr,gridImage_instr.started,startPos_3.started,key_instr.started,alienImage_3.started,sounds_1.started,key_instr.keys,key_instr.rt,all_x,all_y,FBy_corrSteps,FBy_fixStart,FBx_corrSteps,FBx_fixStart,FBy_pathSize_check,FBx_pathSize_check,gridImage_9.started,alienImageFB_3.started,startPosFB_3.started,keyFB_3.started,pathLine_ydir_2.started,pathLine_xdir_2.started,alienFace_3.started,sounds_2.started,RTFB_instr,keyFB_3.keys,keyFB_3.rt,draw_alienStim,draw_alienID,test_x,nrepcount,perfthres,percthres,earlierperf,earlystop,nextPrac,fileidx,praclen,saveACC_train,pracFile,nextPrac_train,addNrep,fileidx_endr,repExp,showearly,gridImage_4.started,startPos.started,movePos.started,key_resp.started,alienImage.started,buttonPress_train,RTchoice_train,cumAcctrain,aCorr,saveACC_choice,corrAns,x_movePos_end,y_movePos_end,key_resp.keys,key_resp.rt,wLy_dir,wLx_dir,x_movePos,y_movePos,text_2.started,text_2.stopped,aft_x_corrPos,aft_y_corrPos,y_pathSize_check,x_pathSize_check,y_pathdirY,x_pathdirY,x_pathdirX,x_corrPos,y_corrPos,gridImage_6.started,alienImageFB_2.started,startPosFB_2.started,movePosFB_2.started,keyFB_2.started,pathLine_xdir.started,pathLine_ydir.started,alienFace.started,sounds_4.started,RT_FBtrain,keyFB_2.keys,keyFB_2.rt,saveACC_pre,ACC,within_saveACC_train,earlystop_wloop,cumAcctrain_check,gridImage_3.started,alienImage_test.started,startPos_test.started,movePos_test.started,key_resp_test.started,wLy_dir_test,wLx_dir_test,buttonPress_test,RTchoice_test,cumAcctest,corrAns_test,key_resp_test.keys,key_resp_test.rt,text_3.started,text_3.stopped,total_time,end_all_time,key_resp_3.keys,slides_2.started,sounds_3.started,nextButton_2.numClicks,nextButton_2.timesOn,nextButton_2.timesOff,prev_but_2.numClicks,prev_but_2.timesOn,prev_but_2.timesOff,bye.started,participant,train_first,00_coordinate,starting corner,date,expName,psychopyVersion,frameRate,
,,,,,,,,,,,,,,,0,0,0,0,0,0,0,0,,,,,,,,,,,,,,,,,,,,,,,,,,,,,start_all_time,testround,conditions/schedules/train_y_first/blue_star_00/top_left/instructions/Slide1.png,conditions/schedules/train_y_first/blue_star_00/top_left/instructions/Audio1.wav,638.207449199981,638.1614267507102,1,[15.954926699982025],[15.95494119997602],0,,,,,,,,,,,,,,,,,,,,,,,,,,,,,,,,,,,,,,,,,,,,,,,,,,,,,,,,,,,,,,,,,,,,,,,,,,,,,,,,,,,,,,,,,,,,,,,,,,,,,,,,,,,,,,,,,,,,,,,,,,,,NYY0JC,train_y,blue_star,top_left,2025-03-11_16h19.39.856,HideSeek_v1,2022.2.5,59.96695821272796,
,,,,,,,,,,,,,,,0,0,0,0,1,0,1,0,,,,,,,,,,,,,,,,,,,,,,,,,,,,,,,conditions/schedules/train_y_first/blue_star_00/top_left/instructions/Slide2.png,conditions/schedules/train_y_first/blue_star_00/top_left/instructions/Audio2.wav,654.1912722999696,654.1848178500077,2,"[15.954926699982025, 18.173163299972657]","[0.00026459997752681375, 18.173169999965467]",0,,,,,,,,,,,,,,,,,,,,,,,,,,,,,,,,,,,,,,,,,,,,,,,,,,,,,,,,,,,,,,,,,,,,,,,,,,,,,,,,,,,,,,,,,,,,,,,,,,,,,,,,,,,,,,,,,,,,,,,,,,,,NYY0JC,train_y,blue_star,top_left,2025-03-11_16h19.39.856,HideSeek_v1,2022.2.5,59.96695821272796,
,,,,,,,,,,,,,,,0,0,0,0,2,0,2,0,,,,,,,,,,,,,,,,,,,,,,,,,,,,,,,conditions/schedules/train_y_first/blue_star_00/top_left/instructions/Slide3.png,conditions/schedules/train_y_first/blue_star_00/top_left/instructions/Audio3.wav,672.4399700000067,672.4334906500299,3,"[15.954926699982025, 18.173163299972657, 17.02204150002217]","[0.00026459997752681375, 0.030240699998103082, 17.02204760001041]",0,,,,,,,,,,,,,,,,,,,,,,,,,,,,,,,,,,,,,,,,,,,,,,,,,,,,,,,,,,,,,,,,,,,,,,,,,,,,,,,,,,,,,,,,,,,,,,,,,,,,,,,,,,,,,,,,,,,,,,,,,,,,NYY0JC,train_y,blue_star,top_left,2025-03-11_16h19.39.856,HideSeek_v1,2022.2.5,59.96695821272796,
,,,,,,,,,,,,,,,0,0,0,0,3,0,3,0,,,,,,,,,,,,,,,,,,,,,,,,,,,,,,,conditions/schedules/train_y_first/blue_star_00/top_left/instructions/Slide4.png,conditions/schedules/train_y_first/blue_star_00/top_left/instructions/Audio4.wav,689.541678700014,689.530984950019,4,"[15.954926699982025, 18.173163299972657, 17.02204150002217, 19.16866409999784]","[0.00026459997752681375, 0.030240699998103082, 0.05300030001671985, 19.168670999992173]",0,,,,,,,,,,,,,,,,,,,,,,,,,,,,,,,,,,,,,,,,,,,,,,,,,,,,,,,,,,,,,,,,,,,,,,,,,,,,,,,,,,,,,,,,,,,,,,,,,,,,,,,,,,,,,,,,,,,,,,,,,,,,NYY0JC,train_y,blue_star,top_left,2025-03-11_16h19.39.856,HideSeek_v1,2022.2.5,59.96695821272796,
,,,,,,,,,,,,,,,0,0,0,0,4,0,4,0,,,,,,,,,,,,,,,,,,,,,,,,,,,,,,,conditions/schedules/train_y_first/blue_star_00/top_left/instructions/Slide5.png,conditions/schedules/train_y_first/blue_star_00/top_left/instructions/Audio5.wav,708.7747573999804,708.7632417599788,5,"[15.954926699982025, 18.173163299972657, 17.02204150002217, 19.16866409999784, 4.490289299981669]","[0.00026459997752681375, 0.030240699998103082, 0.05300030001671985, 0.014501700003165752, 4.490295999974478]",0,,,,,,,,,,,,,,,,,,,,,,,,,,,,,,,,,,,,,,,,,,,,,,,,,,,,,,,,,,,,,,,,,,,,,,,,,,,,,,,,,,,,,,,,,,,,,,,,,,,,,,,,,,,,,,,,,,,,,,,,,,,,NYY0JC,train_y,blue_star,top_left,2025-03-11_16h19.39.856,HideSeek_v1,2022.2.5,59.96695821272796,
,,,,,,,,,,,,,,,0,0,0,0,5,0,5,0,,,,,,,,,,,,,,,,,,,,,,,,,,,,,,,conditions/schedules/train_y_first/blue_star_00/top_left/instructions/Slide6.png,conditions/schedules/train_y_first/blue_star_00/top_left/instructions/Audio6.wav,713.3162601999938,713.3173389600241,6,"[15.954926699982025, 18.173163299972657, 17.02204150002217, 19.16866409999784, 4.490289299981669, 4.4858135000104085]","[0.00026459997752681375, 0.030240699998103082, 0.05300030001671985, 0.014501700003165752, 0.04845010000281036, 4.485821300011594]",0,,,,,,,,,,,,,,,,,,,,,,,,,,,,,,,,,,,,,,,,,,,,,,,,,,,,,,,,,,,,,,,,,,,,,,,,,,,,,,,,,,,,,,,,,,,,,,,,,,,,,,,,,,,,,,,,,,,,,,,,,,,,NYY0JC,train_y,blue_star,top_left,2025-03-11_16h19.39.856,HideSeek_v1,2022.2.5,59.96695821272796,
,,,,,,,,,,,,,,,0,0,0,0,6,0,6,0,,,,,,,,,,,,,,,,,,,,,,,,,,,,,,,conditions/schedules/train_y_first/blue_star_00/top_left/instructions/Slide7.png,conditions/schedules/train_y_first/blue_star_00/top_left/instructions/Audio7.wav,717.8532661999925,717.8542990600225,7,"[15.954926699982025, 18.173163299972657, 17.02204150002217, 19.16866409999784, 4.490289299981669, 4.4858135000104085, 5.202500500017777]","[0.00026459997752681375, 0.030240699998103082, 0.05300030001671985, 0.014501700003165752, 0.04845010000281036, 0.09836750000249594, 5.2025072000105865]",0,,,,,,,,,,,,,,,,,,,,,,,,,,,,,,,,,,,,,,,,,,,,,,,,,,,,,,,,,,,,,,,,,,,,,,,,,,,,,,,,,,,,,,,,,,,,,,,,,,,,,,,,,,,,,,,,,,,,,,,,,,,,NYY0JC,train_y,blue_star,top_left,2025-03-11_16h19.39.856,HideSeek_v1,2022.2.5,59.96695821272796,
,,,,,,,,,,,,,,,0,0,0,0,7,0,7,0,,,,,,,,,,,,,,,,,,,,,,,,,,,,,,,conditions/schedules/train_y_first/blue_star_00/top_left/instructions/Slide8.png,conditions/schedules/train_y_first/blue_star_00/top_left/instructions/Audio8.wav,723.1102069999906,723.1086053599837,8,"[15.954926699982025, 18.173163299972657, 17.02204150002217, 19.16866409999784, 4.490289299981669, 4.4858135000104085, 5.202500500017777, 12.005768499977421]","[0.00026459997752681375, 0.030240699998103082, 0.05300030001671985, 0.014501700003165752, 0.04845010000281036, 0.09836750000249594, 0.04610049998154864, 12.005775599973276]",0,,,,,,,,,,,,,,,,,,,,,,,,,,,,,,,,,,,,,,,,,,,,,,,,,,,,,,,,,,,,,,,,,,,,,,,,,,,,,,,,,,,,,,,,,,,,,,,,,,,,,,,,,,,,,,,,,,,,,,,,,,,,NYY0JC,train_y,blue_star,top_left,2025-03-11_16h19.39.856,HideSeek_v1,2022.2.5,59.96695821272796,
,,,,,,,,,,,,,,,0,0,0,0,8,0,8,0,,,,,,,,,,,,,,,,,,,,,,,,,,,,,,,conditions/schedules/train_y_first/blue_star_00/top_left/instructions/Slide9.png,conditions/schedules/train_y_first/blue_star_00/top_left/instructions/Audio9.wav,735.1815325000207,735.1686481600162,9,"[15.954926699982025, 18.173163299972657, 17.02204150002217, 19.16866409999784, 4.490289299981669, 4.4858135000104085, 5.202500500017777, 12.005768499977421, 6.256366799992975]","[0.00026459997752681375, 0.030240699998103082, 0.05300030001671985, 0.014501700003165752, 0.04845010000281036, 0.09836750000249594, 0.04610049998154864, 0.0002440999960526824, 6.256373499985784]",0,,,,,,,,,,,,,,,,,,,,,,,,,,,,,,,,,,,,,,,,,,,,,,,,,,,,,,,,,,,,,,,,,,,,,,,,,,,,,,,,,,,,,,,,,,,,,,,,,,,,,,,,,,,,,,,,,,,,,,,,,,,,NYY0JC,train_y,blue_star,top_left,2025-03-11_16h19.39.856,HideSeek_v1,2022.2.5,59.96695821272796,
,,,,,,,,,,,,,,,0,0,0,0,9,0,9,0,,,,,,,,,,,,,,,,,,,,,,,,,,,,,,,conditions/schedules/train_y_first/blue_star_00/top_left/instructions/Slide10.png,conditions/schedules/train_y_first/blue_star_00/top_left/instructions/Audio10.wav,741.475258899969,741.4738935699803,10,"[15.954926699982025, 18.173163299972657, 17.02204150002217, 19.16866409999784, 4.490289299981669, 4.4858135000104085, 5.202500500017777, 12.005768499977421, 6.256366799992975, 7.302017499983776]","[0.00026459997752681375, 0.030240699998103082, 0.05300030001671985, 0.014501700003165752, 0.04845010000281036, 0.09836750000249594, 0.04610049998154864, 0.0002440999960526824, 0.04688629996962845, 7.302024399978109]",0,,,,,,,,,,,,,,,,,,,,,,,,,,,,,,,,,,,,,,,,,,,,,,,,,,,,,,,,,,,,,,,,,,,,,,,,,,,,,,,,,,,,,,,,,,,,,,,,,,,,,,,,,,,,,,,,,,,,,,,,,,,,NYY0JC,train_y,blue_star,top_left,2025-03-11_16h19.39.856,HideSeek_v1,2022.2.5,59.96695821272796,
,,,,,,,,,,,,,,,0,0,0,0,10,0,10,0,,,,,,,,,,,,,,,,,,,,,,,,,,,,,,,conditions/schedules/train_y_first/blue_star_00/top_left/instructions/Slide11.png,conditions/schedules/train_y_first/blue_star_00/top_left/instructions/Audio11.wav,748.8154564999859,748.8133670700132,11,"[15.954926699982025, 18.173163299972657, 17.02204150002217, 19.16866409999784, 4.490289299981669, 4.4858135000104085, 5.202500500017777, 12.005768499977421, 6.256366799992975, 7.302017499983776, 10.653944400022738]","[0.00026459997752681375, 0.030240699998103082, 0.05300030001671985, 0.014501700003165752, 0.04845010000281036, 0.09836750000249594, 0.04610049998154864, 0.0002440999960526824, 0.04688629996962845, 0.04621609998866916, 10.653950800013263]",0,,,,,,,,,,,,,,,,,,,,,,,,,,,,,,,,,,,,,,,,,,,,,,,,,,,,,,,,,,,,,,,,,,,,,,,,,,,,,,,,,,,,,,,,,,,,,,,,,,,,,,,,,,,,,,,,,,,,,,,,,,,,NYY0JC,train_y,blue_star,top_left,2025-03-11_16h19.39.856,HideSeek_v1,2022.2.5,59.96695821272796,
,,,,,,,,,,,,,,,0,0,0,0,11,0,11,0,,,,,,,,,,,,,,,,,,,,,,,,,,,,,,,conditions/schedules/train_y_first/blue_star_00/top_left/instructions/Slide12.png,conditions/schedules/train_y_first/blue_star_00/top_left/instructions/Audio12.wav,759.5404829999898,759.5388962500147,12,"[15.954926699982025, 18.173163299972657, 17.02204150002217, 19.16866409999784, 4.490289299981669, 4.4858135000104085, 5.202500500017777, 12.005768499977421, 6.256366799992975, 7.302017499983776, 10.653944400022738, 14.007195900019724]","[0.00026459997752681375, 0.030240699998103082, 0.05300030001671985, 0.014501700003165752, 0.04845010000281036, 0.09836750000249594, 0.04610049998154864, 0.0002440999960526824, 0.04688629996962845, 0.04621609998866916, 0.030303000006824732, 14.007204700028524]",0,,,,,,,,,,,,,,,,,,,,,,,,,,,,,,,,,,,,,,,,,,,,,,,,,,,,,,,,,,,,,,,,,,,,,,,,,,,,,,,,,,,,,,,,,,,,,,,,,,,,,,,,,,,,,,,,,,,,,,,,,,,,NYY0JC,train_y,blue_star,top_left,2025-03-11_16h19.39.856,HideSeek_v1,2022.2.5,59.96695821272796,
1,0,8,0,3,0,-5,66,2,instr_dim1_1,,,,,,0,0,0,0,,,,,0,0,0,0,,,,,,,,,,,,,,,,,,,,,,,,,,,,,,,,,,,,,stimuli/alien_stimuli/66.png,conditions/schedules/train_y_first/blue_star_00/top_left/inputInstr_1.xlsx,stimuli/alien_stimuli/66.png,773.6518464999972,773.6518464999972,773.6518464999972,773.6518464999972,773.650807930017,return,7.877896099991631,"[-0.16, -0.08, 0, 0.08, 0.16, 0.24, 0.32, 0.4, 0.48, 0.56]","[-0.4, -0.32, -0.24, -0.16, -0.08, 0, 0.08, 0.16, 0.24, 0.32]",3,8,0,0,0.4,0.0,781.6827809999813,781.6827809999813,781.6827809999813,781.6827809999813,781.6827809999813,781.6827809999813,781.6827809999813,781.6735623200308,8.81019460002426,return,8.650998500001151,stimuli/alien_stimuli/66.png,66,0,1,,,,,,,,,,,,,,,,,,,,,,,,,,,,,,,,,,,,,,,,,,,,,,,,,,,,,,,,,,,,,,,,,,,,,,,,,,,,,,,,,,,,,,,,,NYY0JC,train_y,blue_star,top_left,2025-03-11_16h19.39.856,HideSeek_v1,2022.2.5,59.96695821272796,
,,,,,,,,,,,30,,,,0,0,0,0,,,,,,,,,,,,,,,,,,,,,,,,,,,,,,,,,,,,,,,,,,,,,,,,,,,,,,,,,,,,,,,,,,,,,,,,,,,,,,21,0.7,0,0,99,1,30,0,conditions/schedules/train_y_first/blue_star_00/top_left/inputTrain_1.1.xlsx,99,1,1,1,0,,,,,,,,,,,,,,,,,,,,,,,,,,,,,,,,,,,,,,,,,,,,,,,,,,,,,,,,,,,,,,,,,,,,,,,,,,,NYY0JC,train_y,blue_star,top_left,2025-03-11_16h19.39.856,HideSeek_v1,2022.2.5,59.96695821272796,
,,,,,,,,,,,,,,,1,0,1,0,0,0,0,0,,,,,,,,,,,,,,,,,,,,,,,,,,,,,,,conditions/schedules/train_y_first/blue_star_00/top_left/instructions/Slide13.png,conditions/schedules/train_y_first/blue_star_00/top_left/instructions/Audio13.wav,790.49346779997,790.4823759200168,13,"[15.954926699982025, 18.173163299972657, 17.02204150002217, 19.16866409999784, 4.490289299981669, 4.4858135000104085, 5.202500500017777, 12.005768499977421, 6.256366799992975, 7.302017499983776, 10.653944400022738, 14.007195900019724, 21.424768200027756]","[0.00026459997752681375, 0.030240699998103082, 0.05300030001671985, 0.014501700003165752, 0.04845010000281036, 0.09836750000249594, 0.04610049998154864, 0.0002440999960526824, 0.04688629996962845, 0.04621609998866916, 0.030303000006824732, 14.007204700028524, 21.424779100052547]",0,,,,,,,,,,,,,,,,,,,,,,,,,,,,,,,,,,,,,,,,,,,,,,,,,,,,,,,,,,,,,,,,,,,,,,,,,,,,,,,,,,,,,,,,,,,,,,,,,,,,,,,,,,,,,,,,,,,,,,,,,,,,NYY0JC,train_y,blue_star,top_left,2025-03-11_16h19.39.856,HideSeek_v1,2022.2.5,59.96695821272796,
,,,,,,,,,,,,,,,1,0,1,0,1,0,1,0,,,,,,,,,,,,,,,,,,,,,,,,,,,,,,,conditions/schedules/train_y_first/blue_star_00/top_left/instructions/Slide14.png,conditions/schedules/train_y_first/blue_star_00/top_left/instructions/Audio14.wav,811.992516600003,811.9824113500072,14,"[15.954926699982025, 18.173163299972657, 17.02204150002217, 19.16866409999784, 4.490289299981669, 4.4858135000104085, 5.202500500017777, 12.005768499977421, 6.256366799992975, 7.302017499983776, 10.653944400022738, 14.007195900019724, 21.424768200027756, 17.385289300000295]","[0.00026459997752681375, 0.030240699998103082, 0.05300030001671985, 0.014501700003165752, 0.04845010000281036, 0.09836750000249594, 0.04610049998154864, 0.0002440999960526824, 0.04688629996962845, 0.04621609998866916, 0.030303000006824732, 14.007204700028524, 0.000556300044991076, 17.385298700013664]",0,,,,,,,,,,,,,,,,,,,,,,,,,,,,,,,,,,,,,,,,,,,,,,,,,,,,,,,,,,,,,,,,,,,,,,,,,,,,,,,,,,,,,,,,,,,,,,,,,,,,,,,,,,,,,,,,,,,,,,,,,,,,NYY0JC,train_y,blue_star,top_left,2025-03-11_16h19.39.856,HideSeek_v1,2022.2.5,59.96695821272796,
2,2,8,2,8,0,0,61,2,instr_dim1_1,,,,,,1,0,1,0,,,,,0,0,0,0,,,,,,,,,,,,,,,,,,,,,,,,,,,,,,,,,,,,,stimuli/alien_stimuli/61.png,conditions/schedules/train_y_first/blue_star_00/top_left/inputInstr_1.xlsx,stimuli/alien_stimuli/61.png,829.4748881999985,829.4748881999985,829.4748881999985,829.4748881999985,829.4803683300038,return,6.066111199965235,"[-0.16, -0.08, 0, 0.08, 0.16, 0.24, 0.32, 0.4, 0.48, 0.56]","[-0.4, -0.32, -0.24, -0.16, -0.08, 0, 0.08, 0.16, 0.24, 0.32]",8,8,2,2,0.0,0.0,835.6854428999941,835.6854428999941,835.6854428999941,835.6854428999941,835.6854428999941,835.6854428999941,835.6854428999941,835.6854513199884,10.626329499995336,return,10.491244000033475,stimuli/alien_stimuli/61.png,61,2,2,,,,,,,,,,,,,,,,,,,,,,,,,,,,,,,,,,,,,,,,,,,,,,,,,,,,,,,,,,,,,,,,,,,,,,,,,,,,,,,,,,,,,,,,,NYY0JC,train_y,blue_star,top_left,2025-03-11_16h19.39.856,HideSeek_v1,2022.2.5,59.96695821272796,
,,,,,,,,,,,30,,,,1,0,1,0,,,,,,,,,,,,,,,,,,,,,,,,,,,,,,,,,,,,,,,,,,,,,,,,,,,,,,,,,,,,,,,,,,,,,,,,,,,,,,21,0.7,0,0,99,1,30,0,conditions/schedules/train_y_first/blue_star_00/top_left/inputTrain_1.1.xlsx,99,1,1,1,0,,,,,,,,,,,,,,,,,,,,,,,,,,,,,,,,,,,,,,,,,,,,,,,,,,,,,,,,,,,,,,,,,,,,,,,,,,,NYY0JC,train_y,blue_star,top_left,2025-03-11_16h19.39.856,HideSeek_v1,2022.2.5,59.96695821272796,
,,,,,,,,,,,,,,,2,0,2,0,0,0,0,0,,,,,,,,,,,,,,,,,,,,,,,,,,,,,,,conditions/schedules/train_y_first/blue_star_00/top_left/instructions/Slide15.png,conditions/schedules/train_y_first/blue_star_00/top_left/instructions/Audio15.wav,846.3479187000194,846.344019000011,15,"[15.954926699982025, 18.173163299972657, 17.02204150002217, 19.16866409999784, 4.490289299981669, 4.4858135000104085, 5.202500500017777, 12.005768499977421, 6.256366799992975, 7.302017499983776, 10.653944400022738, 14.007195900019724, 21.424768200027756, 17.385289300000295, 45.71456490003038]","[0.00026459997752681375, 0.030240699998103082, 0.05300030001671985, 0.014501700003165752, 0.04845010000281036, 0.09836750000249594, 0.04610049998154864, 0.0002440999960526824, 0.04688629996962845, 0.04621609998866916, 0.030303000006824732, 14.007204700028524, 0.000556300044991076, 17.385298700013664, 45.71457240002928]",0,,,,,,,,,,,,,,,,,,,,,,,,,,,,,,,,,,,,,,,,,,,,,,,,,,,,,,,,,,,,,,,,,,,,,,,,,,,,,,,,,,,,,,,,,,,,,,,,,,,,,,,,,,,,,,,,,,,,,,,,,,,,NYY0JC,train_y,blue_star,top_left,2025-03-11_16h19.39.856,HideSeek_v1,2022.2.5,59.96695821272796,
,,,,,,,,,,,,,,,2,0,2,0,1,0,1,0,,,,,,,,,,,,,,,,,,,,,,,,,,,,,,,conditions/schedules/train_y_first/blue_star_00/top_left/instructions/Slide16.png,conditions/schedules/train_y_first/blue_star_00/top_left/instructions/Audio16.wav,892.1413820000016,892.1323630500119,16,"[15.954926699982025, 18.173163299972657, 17.02204150002217, 19.16866409999784, 4.490289299981669, 4.4858135000104085, 5.202500500017777, 12.005768499977421, 6.256366799992975, 7.302017499983776, 10.653944400022738, 14.007195900019724, 21.424768200027756, 17.385289300000295, 45.71456490003038, 21.706519300001673]","[0.00026459997752681375, 0.030240699998103082, 0.05300030001671985, 0.014501700003165752, 0.04845010000281036, 0.09836750000249594, 0.04610049998154864, 0.0002440999960526824, 0.04688629996962845, 0.04621609998866916, 0.030303000006824732, 14.007204700028524, 0.000556300044991076, 17.385298700013664, 0.013748500030487776, 21.706527000002097]",0,,,,,,,,,,,,,,,,,,,,,,,,,,,,,,,,,,,,,,,,,,,,,,,,,,,,,,,,,,,,,,,,,,,,,,,,,,,,,,,,,,,,,,,,,,,,,,,,,,,,,,,,,,,,,,,,,,,,,,,,,,,,NYY0JC,train_y,blue_star,top_left,2025-03-11_16h19.39.856,HideSeek_v1,2022.2.5,59.96695821272796,
,0,5,0,1,0,-4,65,,train_dim1_1,1,30,,,,2,0,2,0,,,,,,,,,0,0,0,0,0,0,0,0,0,0,0,0,,,,,,,,,,,,,,,,,,,,,,,,,stimuli/alien_stimuli/65.png,,,,,,,,,,,,,,,,,,,,,,,,,,,,,,,,,,,,,,,30,,,,,,,,913.9525336999795,913.9525336999795,913.9525336999795,913.9525336999795,913.9525336999795,right,1.9778847999987192,0,0,0,99,-0.08,0,right,1.879356799996458,,,,,,,,,,,,,,,,,,,,,,,,,,,,,,,,,,,,,,,,,,,,,,,,,,,,,,,,,,,,NYY0JC,train_y,blue_star,top_left,2025-03-11_16h19.39.856,HideSeek_v1,2022.2.5,59.96695821272796,
,0,5,0,1,0,-4,65,,train_dim1_1,1,30,,,,2,0,2,0,,,,,,,,,0,0,0,0,0,0,0,0,1,0,1,0,,,,,,,,,,,,,,,,,,,,,,,,,,,,,,,,,,,,,,,,,,,,,,,,,,,,,,,,,,,,,,,,30,,,,,,,,915.915386800014,915.915386800014,915.915386800014,915.915386800014,915.915386800014,right,1.3266586000099778,0,0,0,99,0.0,0,right,1.2494503000052646,,,,,,,,,,,,,,,,,,,,,,,,,,,,,,,,,,,,,,,,,,,,,,,,,,,,,,,,,,,,NYY0JC,train_y,blue_star,top_left,2025-03-11_16h19.39.856,HideSeek_v1,2022.2.5,59.96695821272796,
,0,5,0,1,0,-4,65,,train_dim1_1,1,30,,,,2,0,2,0,,,,,,,,,0,0,0,0,0,0,0,0,2,0,2,0,,,,,,,,,,,,,,,,,,,,,,,,,,,,,,,,,,,,,,,,,,,,,,,,,,,,,,,,,,,,,,,,30,,,,,,,,917.2483471999876,917.2483471999876,917.2483471999876,917.2483471999876,917.2483471999876,up,3.0452087000012398,0,0,0,99,0.0,0.08,up,2.960038000019267,,,,,,,,,,,,,,,,,,,,,,,,,,,,,,,,,,,,,,,,,,,,,,,,,,,,,,,,,,,,NYY0JC,train_y,blue_star,top_left,2025-03-11_16h19.39.856,HideSeek_v1,2022.2.5,59.96695821272796,
,0,5,0,1,0,-4,65,,train_dim1_1,1,30,,,,2,0,2,0,,,,,,,,,0,0,0,0,0,0,0,0,3,0,3,0,,,,,,,,,,,,,,,,,,,,,,,,,,,,,,,,,,,,,,,,,,,,,,,,,,,,,,,,,,,,,,,,30,,,,,,,,920.3019313999685,920.3019313999685,920.3019313999685,920.3019313999685,920.3019313999685,right,1.1933663999661803,0,0,0,99,0.08,0.08,right,1.1170517000136897,,,,,,,,,,,,,,,,,,,,,,,,,,,,,,,,,,,,,,,,,,,,,,,,,,,,,,,,,,,,NYY0JC,train_y,blue_star,top_left,2025-03-11_16h19.39.856,HideSeek_v1,2022.2.5,59.96695821272796,
,0,5,0,1,0,-4,65,,train_dim1_1,1,30,,,,2,0,2,0,,,,,,,,,0,0,0,0,0,0,0,0,4,0,4,0,,,,,,,,,,,,,,,,,,,,,,,,,,,,,,,,,,,,,,,,,,,,,,,,,,,,,,,,,,,,,,,,30,,,,,,,,921.5036145999911,921.5036145999911,921.5036145999911,921.5036145999911,921.5036145999911,right,0.5096009999979287,0,0,0,99,0.16,0.08,right,0.425856499990914,,,,,,,,,,,,,,,,,,,,,,,,,,,,,,,,,,,,,,,,,,,,,,,,,,,,,,,,,,,,NYY0JC,train_y,blue_star,top_left,2025-03-11_16h19.39.856,HideSeek_v1,2022.2.5,59.96695821272796,
,0,5,0,1,0,-4,65,,train_dim1_1,1,30,,,,2,0,2,0,,,,,,,,,0,0,0,0,0,0,0,0,5,0,5,0,,,,,,,,,,,,,,,,,,,,,,,,,,,,,,,,,,,,,,,,,,,,,,,,,,,,,,,,,,,,,,,,30,,,,,,,,922.0201263999916,922.0201263999916,922.0201263999916,922.0201263999916,922.0201263999916,right,1.0434532999643125,0,0,0,99,0.24,0.08,right,0.9550922999624163,,,,,,,,,,,,,,,,,,,,,,,,,,,,,,,,,,,,,,,,,,,,,,,,,,,,,,,,,,,,NYY0JC,train_y,blue_star,top_left,2025-03-11_16h19.39.856,HideSeek_v1,2022.2.5,59.96695821272796,
,0,5,0,1,0,-4,65,,train_dim1_1,1,30,,,,2,0,2,0,,,,,,,,,0,0,0,0,0,0,0,0,6,0,6,0,,,,,,,,,,,,,,,,,,,,,,,,,,,,,,,,,,,,,,,,,,,,,,,,,,,,,,,,,,,,,,,,30,,,,,,,,923.0690980000072,923.0690980000072,923.0690980000072,923.0690980000072,923.0690980000072,right,0.7772890999913216,0,0,0,99,0.32,0.08,right,0.6908712000004016,,,,,,,,,,,,,,,,,,,,,,,,,,,,,,,,,,,,,,,,,,,,,,,,,,,,,,,,,,,,NYY0JC,train_y,blue_star,top_left,2025-03-11_16h19.39.856,HideSeek_v1,2022.2.5,59.96695821272796,
,0,5,0,1,0,-4,65,,train_dim1_1,1,30,,,,2,0,2,0,,,,,,,,,0,0,0,0,0,0,0,0,7,0,7,0,,,,,,,,,,,,,,,,,,,,,,,,,,,,,,,,,,,,,,,,,,,,,,,,,,,,,,,,,,,,,,,,30,,,,,,,,923.854282299988,923.854282299988,923.854282299988,923.854282299988,923.854282299988,left,1.1442333000013605,0,0,0,99,0.24,0.08,down,1.0751798000419512,,,,,,,,,,,,,,,,,,,,,,,,,,,,,,,,,,,,,,,,,,,,,,,,,,,,,,,,,,,,NYY0JC,train_y,blue_star,top_left,2025-03-11_16h19.39.856,HideSeek_v1,2022.2.5,59.96695821272796,
,0,5,0,1,0,-4,65,,train_dim1_1,1,30,,,,2,0,2,0,,,,,,,,,0,0,0,0,0,0,0,0,8,0,8,0,,,,,,,,,,,,,,,,,,,,,,,,,,,,,,,,,,,,,,,,,,,,,,,,,,,,,,,,,,,,,,,,30,,,,,,,,925.0052511999966,925.0052511999966,925.0052511999966,925.0052511999966,925.0052511999966,down,0.9267852999619208,0,0,0,99,0.24,0.0,down,0.8456760999979451,,,,,,,,,,,,,,,,,,,,,,,,,,,,,,,,,,,,,,,,,,,,,,,,,,,,,,,,,,,,NYY0JC,train_y,blue_star,top_left,2025-03-11_16h19.39.856,HideSeek_v1,2022.2.5,59.96695821272796,
,0,5,0,1,0,-4,65,,train_dim1_1,1,30,,,,2,0,2,0,,,,,,,,,0,0,0,0,0,0,0,0,9,0,9,0,,,,,,,,,,,,,,,,,,,,,,,,,,,,,,,,,,,,,,,,,,,,,,,,,,,,,,,,,,,,,,,,30,,,,,,,,925.9409176000045,925.9409176000045,925.9409176000045,925.9409176000045,925.9409176000045,down,0.35928380000405014,0,0,0,99,0.24,-0.08,down,0.28689319995464757,,,,,,,,,,,,,,,,,,,,,,,,,,,,,,,,,,,,,,,,,,,,,,,,,,,,,,,,,,,,NYY0JC,train_y,blue_star,top_left,2025-03-11_16h19.39.856,HideSeek_v1,2022.2.5,59.96695821272796,
,0,5,0,1,0,-4,65,,train_dim1_1,1,30,,,,2,0,2,0,,,,,,,,,0,0,0,0,0,0,0,0,10,0,10,0,,,,,,,,,,,,,,,,,,,,,,,,,,,,,,,,,,,,,,,,,,,,,,,,,,,,,,,,,,,,,,,,30,,,,,,,,926.3063362999819,926.3063362999819,926.3063362999819,926.3063362999819,926.3063362999819,left,0.49287369998637587,0,0,0,99,0.15999999999999998,-0.08,left,0.410486500011757,,,,,,,,,,,,,,,,,,,,,,,,,,,,,,,,,,,,,,,,,,,,,,,,,,,,,,,,,,,,NYY0JC,train_y,blue_star,top_left,2025-03-11_16h19.39.856,HideSeek_v1,2022.2.5,59.96695821272796,
,0,5,0,1,0,-4,65,,train_dim1_1,1,30,,,,2,0,2,0,,,,,,,,,0,0,0,0,0,0,0,0,11,0,11,0,,,,,,,,,,,,,,,,,,,,,,,,,,,,,,,,,,,,,,,,,,,,,,,,,,,,,,,,,,,,,,,,30,,,,,,,,926.806616100017,926.806616100017,926.806616100017,926.806616100017,926.806616100017,up,1.3274933000211604,0,0,0,99,0.15999999999999998,0.0,up,1.2505571000510827,,,,,,,,,,,,,,,,,,,,,,,,,,,,,,,,,,,,,,,,,,,,,,,,,,,,,,,,,,,,NYY0JC,train_y,blue_star,top_left,2025-03-11_16h19.39.856,HideSeek_v1,2022.2.5,59.96695821272796,
,0,5,0,1,0,-4,65,,train_dim1_1,1,30,,,,2,0,2,0,,,,,,,,,0,0,0,0,0,0,0,0,12,0,12,0,,,,,,,,,,,,,,,,,,,,,,,,,,,,,,,,,,,,,,,,,,,,,,,,,,,,,,,,,,,,,,,,30,,,,,,,,928.1454479999957,928.1454479999957,928.1454479999957,928.1454479999957,928.1454479999957,down,0.4235853000427596,0,0,0,99,0.15999999999999998,-0.08,down,0.3481157000060193,,,,,,,,,,,,,,,,,,,,,,,,,,,,,,,,,,,,,,,,,,,,,,,,,,,,,,,,,,,,NYY0JC,train_y,blue_star,top_left,2025-03-11_16h19.39.856,HideSeek_v1,2022.2.5,59.96695821272796,
,0,5,0,1,0,-4,65,,train_dim1_1,1,30,,,,2,0,2,0,,,,,,,,,0,0,0,0,0,0,0,0,13,0,13,0,,,,,,,,,,,,,,,,,,,,,,,,,,,,,,,,,,,,,,,,,,,,,,,,,,,,,,,,,,,,,,,,30,,,,,,,,928.5750409999746,928.5750409999746,928.5750409999746,928.5750409999746,928.5750409999746,down,0.5598987999837846,0,0,0,99,0.15999999999999998,-0.16,down,0.47930609999457374,,,,,,,,,,,,,,,,,,,,,,,,,,,,,,,,,,,,,,,,,,,,,,,,,,,,,,,,,,,,NYY0JC,train_y,blue_star,top_left,2025-03-11_16h19.39.856,HideSeek_v1,2022.2.5,59.96695821272796,
,0,5,0,1,0,-4,65,,train_dim1_1,1,30,,,,2,0,2,0,,,,,,,,,0,0,0,0,0,0,0,0,14,0,14,0,,,,,,,,,,,,,,,,,,,,,,,,,,,,,,,,,,,,,,,,,,,,,,,,,,,,,,,,,,,,,,,,30,,,,,,,,929.1417134000221,929.1417134000221,929.1417134000221,929.1417134000221,929.1417134000221,down,1.4106832999968901,0,0,0,99,0.15999999999999998,-0.24,down,1.3363588000065647,,,,,,,,,,,,,,,,,,,,,,,,,,,,,,,,,,,,,,,,,,,,,,,,,,,,,,,,,,,,NYY0JC,train_y,blue_star,top_left,2025-03-11_16h19.39.856,HideSeek_v1,2022.2.5,59.96695821272796,
,0,5,0,1,0,-4,65,,train_dim1_1,1,30,,,,2,0,2,0,,,,,,,,,0,0,0,0,0,0,0,0,15,0,15,0,,,,,,,,,,,,,,,,,,,,,,,,,,,,,,,,,,,,,,,,,,,,,,,,,,,,,,,,,,,,,,,,30,,,,,,,,930.5599249000079,930.5599249000079,930.5599249000079,930.5599249000079,930.5599249000079,left,0.3766159000224434,0,0,0,99,0.07999999999999997,-0.24,left,0.29504090000409633,,,,,,,,,,,,,,,,,,,,,,,,,,,,,,,,,,,,,,,,,,,,,,,,,,,,,,,,,,,,NYY0JC,train_y,blue_star,top_left,2025-03-11_16h19.39.856,HideSeek_v1,2022.2.5,59.96695821272796,
,0,5,0,1,0,-4,65,,train_dim1_1,1,30,,,,2,0,2,0,,,,,,,,,0,0,0,0,0,0,0,0,16,0,16,0,,,,,,,,,,,,,,,,,,,,,,,,,,,,,,,,,,,,,,,,,,,,,,,,,,,,,,,,,,,,,,,,30,,,,,,,,930.9435581999714,930.9435581999714,930.9435581999714,930.9435581999714,930.9435581999714,left,0.3097078000428155,0,0,0,99,-2.7755575615628914e-17,-0.24,left,0.2289621999952942,,,,,,,,,,,,,,,,,,,,,,,,,,,,,,,,,,,,,,,,,,,,,,,,,,,,,,,,,,,,NYY0JC,train_y,blue_star,top_left,2025-03-11_16h19.39.856,HideSeek_v1,2022.2.5,59.96695821272796,
,0,5,0,1,0,-4,65,,train_dim1_1,1,30,,,,2,0,2,0,,,,,,,,,0,0,0,0,0,0,0,0,17,0,17,0,,,,,,,,,,,,,,,,,,,,,,,,,,,,,,,,,,,,,,,,,,,,,,,,,,,,,,,,,,,,,,,,30,,,,,,,,931.259782899986,931.259782899986,931.259782899986,931.259782899986,931.259782899986,return,1.1272640000097454,0,0,0,0,-2.7755575615628914e-17,-0.24,return,1.045570400019642,-3,2,-2.7755575615628914e-17,-0.24,,,,,,,,,,,,,,,,,,,,,,,,,,,,,,,,,,,,,,,,,,,,,,,,,,,,,,,,NYY0JC,train_y,blue_star,top_left,2025-03-11_16h19.39.856,HideSeek_v1,2022.2.5,59.96695821272796,
,3,7,3,2,0,-5,66,,train_dim1_1,2,30,,,,2,0,2,0,,,,,,,,,0,0,0,0,0,1,1,1,0,0,0,0,,,,,,,,,,,,,,,,,,,,,,,,,stimuli/alien_stimuli/66.png,,,,,,,,,,,,,,,,,,,,,,,,,,,,,stimuli/alien_stimuli/65.png,65,0,3,,,,,,,30,,,,,,,,949.0329735999694,949.0329735999694,949.0329735999694,949.0329735999694,949.0329735999694,down,2.3074280000291765,0,0,0,99,0.08,0.08,down,2.2145967000396922,,,,,947.4614882000023,949.0329735999694,-0.16,-0.32,0.32,0.0,-0.16,-0.16,-0.16,-0.16,-0.32,933.9618041000213,933.9618041000213,933.9618041000213,933.9618041000213,933.9618041000213,933.9618041000213,933.9618041000213,933.9618041000213,933.9506777300035,13.61346510000294,return,13.46986279997509,,,,,,,,,,,,,,,,,,,,,,,,,,,,,,,,,NYY0JC,train_y,blue_star,top_left,2025-03-11_16h19.39.856,HideSeek_v1,2022.2.5,59.96695821272796,
,3,7,3,2,0,-5,66,,train_dim1_1,2,30,,,,2,0,2,0,,,,,,,,,0,0,0,0,0,1,1,1,1,0,1,0,,,,,,,,,,,,,,,,,,,,,,,,,,,,,,,,,,,,,,,,,,,,,,,,,,,,,,,,,,,,,,,,30,,,,,,,,951.3280655000126,951.3280655000126,951.3280655000126,951.3280655000126,951.3280655000126,down,0.8090468000154942,0,0,0,99,0.08,0.0,down,0.7322232000296935,,,,,,,,,,,,,,,,,,,,,,,,,,,,,,,,,,,,,,,,,,,,,,,,,,,,,,,,,,,,NYY0JC,train_y,blue_star,top_left,2025-03-11_16h19.39.856,HideSeek_v1,2022.2.5,59.96695821272796,
,3,7,3,2,0,-5,66,,train_dim1_1,2,30,,,,2,0,2,0,,,,,,,,,0,0,0,0,0,1,1,1,2,0,2,0,,,,,,,,,,,,,,,,,,,,,,,,,,,,,,,,,,,,,,,,,,,,,,,,,,,,,,,,,,,,,,,,30,,,,,,,,952.1441270000068,952.1441270000068,952.1441270000068,952.1441270000068,952.1441270000068,down,0.6600230000331067,0,0,0,99,0.08,-0.08,down,0.5883456000010483,,,,,,,,,,,,,,,,,,,,,,,,,,,,,,,,,,,,,,,,,,,,,,,,,,,,,,,,,,,,NYY0JC,train_y,blue_star,top_left,2025-03-11_16h19.39.856,HideSeek_v1,2022.2.5,59.96695821272796,
,3,7,3,2,0,-5,66,,train_dim1_1,2,30,,,,2,0,2,0,,,,,,,,,0,0,0,0,0,1,1,1,3,0,3,0,,,,,,,,,,,,,,,,,,,,,,,,,,,,,,,,,,,,,,,,,,,,,,,,,,,,,,,,,,,,,,,,30,,,,,,,,952.8122512000264,952.8122512000264,952.8122512000264,952.8122512000264,952.8122512000264,down,0.6265987000078894,0,0,0,99,0.08,-0.16,down,0.551551099983044,,,,,,,,,,,,,,,,,,,,,,,,,,,,,,,,,,,,,,,,,,,,,,,,,,,,,,,,,,,,NYY0JC,train_y,blue_star,top_left,2025-03-11_16h19.39.856,HideSeek_v1,2022.2.5,59.96695821272796,
,3,7,3,2,0,-5,66,,train_dim1_1,2,30,,,,2,0,2,0,,,,,,,,,0,0,0,0,0,1,1,1,4,0,4,0,,,,,,,,,,,,,,,,,,,,,,,,,,,,,,,,,,,,,,,,,,,,,,,,,,,,,,,,,,,,,,,,30,,,,,,,,953.4454612000263,953.4454612000263,953.4454612000263,953.4454612000263,953.4454612000263,right,3.5622586999670602,0,0,0,99,0.16,-0.16,right,3.484009600011632,,,,,,,,,,,,,,,,,,,,,,,,,,,,,,,,,,,,,,,,,,,,,,,,,,,,,,,,,,,,NYY0JC,train_y,blue_star,top_left,2025-03-11_16h19.39.856,HideSeek_v1,2022.2.5,59.96695821272796,
,3,7,3,2,0,-5,66,,train_dim1_1,2,30,,,,2,0,2,0,,,,,,,,,0,0,0,0,0,1,1,1,5,0,5,0,,,,,,,,,,,,,,,,,,,,,,,,,,,,,,,,,,,,,,,,,,,,,,,,,,,,,,,,,,,,,,,,30,,,,,,,,957.0156026000041,957.0156026000041,957.0156026000041,957.0156026000041,957.0156026000041,left,0.8101179999648593,0,0,0,99,0.08,-0.16,left,0.7354563999688253,,,,,,,,,,,,,,,,,,,,,,,,,,,,,,,,,,,,,,,,,,,,,,,,,,,,,,,,,,,,NYY0JC,train_y,blue_star,top_left,2025-03-11_16h19.39.856,HideSeek_v1,2022.2.5,59.96695821272796,
,3,7,3,2,0,-5,66,,train_dim1_1,2,30,,,,2,0,2,0,,,,,,,,,0,0,0,0,0,1,1,1,6,0,6,0,,,,,,,,,,,,,,,,,,,,,,,,,,,,,,,,,,,,,,,,,,,,,,,,,,,,,,,,,,,,,,,,30,,,,,,,,957.8325090999715,957.8325090999715,957.8325090999715,957.8325090999715,957.8325090999715,up,0.792901799955871,0,0,0,99,0.08,-0.08,up,0.7136961999931373,,,,,,,,,,,,,,,,,,,,,,,,,,,,,,,,,,,,,,,,,,,,,,,,,,,,,,,,,,,,NYY0JC,train_y,blue_star,top_left,2025-03-11_16h19.39.856,HideSeek_v1,2022.2.5,59.96695821272796,
,3,7,3,2,0,-5,66,,train_dim1_1,2,30,,,,2,0,2,0,,,,,,,,,0,0,0,0,0,1,1,1,7,0,7,0,,,,,,,,,,,,,,,,,,,,,,,,,,,,,,,,,,,,,,,,,,,,,,,,,,,,,,,,,,,,,,,,30,,,,,,,,958.6328908000141,958.6328908000141,958.6328908000141,958.6328908000141,958.6328908000141,up,0.3767838000203483,0,0,0,99,0.08,0.0,up,0.2977938000112772,,,,,,,,,,,,,,,,,,,,,,,,,,,,,,,,,,,,,,,,,,,,,,,,,,,,,,,,,,,,NYY0JC,train_y,blue_star,top_left,2025-03-11_16h19.39.856,HideSeek_v1,2022.2.5,59.96695821272796,
,3,7,3,2,0,-5,66,,train_dim1_1,2,30,,,,2,0,2,0,,,,,,,,,0,0,0,0,0,1,1,1,8,0,8,0,,,,,,,,,,,,,,,,,,,,,,,,,,,,,,,,,,,,,,,,,,,,,,,,,,,,,,,,,,,,,,,,30,,,,,,,,959.017647199973,959.017647199973,959.017647199973,959.017647199973,959.017647199973,left,0.35957410000264645,0,0,0,99,0.0,0.0,left,0.2825707999872975,,,,,,,,,,,,,,,,,,,,,,,,,,,,,,,,,,,,,,,,,,,,,,,,,,,,,,,,,,,,NYY0JC,train_y,blue_star,top_left,2025-03-11_16h19.39.856,HideSeek_v1,2022.2.5,59.96695821272796,
,3,7,3,2,0,-5,66,,train_dim1_1,2,30,,,,2,0,2,0,,,,,,,,,0,0,0,0,0,1,1,1,9,0,9,0,,,,,,,,,,,,,,,,,,,,,,,,,,,,,,,,,,,,,,,,,,,,,,,,,,,,,,,,,,,,,,,,30,,,,,,,,959.3841415999923,959.3841415999923,959.3841415999923,959.3841415999923,959.3841415999923,up,0.39332130004186183,0,0,0,99,0.0,0.08,up,0.31315709999762475,,,,,,,,,,,,,,,,,,,,,,,,,,,,,,,,,,,,,,,,,,,,,,,,,,,,,,,,,,,,NYY0JC,train_y,blue_star,top_left,2025-03-11_16h19.39.856,HideSeek_v1,2022.2.5,59.96695821272796,
,3,7,3,2,0,-5,66,,train_dim1_1,2,30,,,,2,0,2,0,,,,,,,,,0,0,0,0,0,1,1,1,10,0,10,0,,,,,,,,,,,,,,,,,,,,,,,,,,,,,,,,,,,,,,,,,,,,,,,,,,,,,,,,,,,,,,,,30,,,,,,,,959.7843885999755,959.7843885999755,959.7843885999755,959.7843885999755,959.7843885999755,up,0.3934966999804601,0,0,0,99,0.0,0.16,up,0.3217024999903515,,,,,,,,,,,,,,,,,,,,,,,,,,,,,,,,,,,,,,,,,,,,,,,,,,,,,,,,,,,,NYY0JC,train_y,blue_star,top_left,2025-03-11_16h19.39.856,HideSeek_v1,2022.2.5,59.96695821272796,
,3,7,3,2,0,-5,66,,train_dim1_1,2,30,,,,2,0,2,0,,,,,,,,,0,0,0,0,0,1,1,1,11,0,11,0,,,,,,,,,,,,,,,,,,,,,,,,,,,,,,,,,,,,,,,,,,,,,,,,,,,,,,,,,,,,,,,,30,,,,,,,,960.1846710999962,960.1846710999962,960.1846710999962,960.1846710999962,960.1846710999962,left,0.4431359000154771,0,0,0,99,-0.08,0.16,left,0.3555422999779694,,,,,,,,,,,,,,,,,,,,,,,,,,,,,,,,,,,,,,,,,,,,,,,,,,,,,,,,,,,,NYY0JC,train_y,blue_star,top_left,2025-03-11_16h19.39.856,HideSeek_v1,2022.2.5,59.96695821272796,
,3,7,3,2,0,-5,66,,train_dim1_1,2,30,,,,2,0,2,0,,,,,,,,,0,0,0,0,0,1,1,1,12,0,12,0,,,,,,,,,,,,,,,,,,,,,,,,,,,,,,,,,,,,,,,,,,,,,,,,,,,,,,,,,,,,,,,,30,,,,,,,,960.6349989000009,960.6349989000009,960.6349989000009,960.6349989000009,960.6349989000009,up,0.8103629999677651,0,0,0,99,-0.08,0.24,up,0.7283565999823622,,,,,,,,,,,,,,,,,,,,,,,,,,,,,,,,,,,,,,,,,,,,,,,,,,,,,,,,,,,,NYY0JC,train_y,blue_star,top_left,2025-03-11_16h19.39.856,HideSeek_v1,2022.2.5,59.96695821272796,
,3,7,3,2,0,-5,66,,train_dim1_1,2,30,,,,2,0,2,0,,,,,,,,,0,0,0,0,0,1,1,1,13,0,13,0,,,,,,,,,,,,,,,,,,,,,,,,,,,,,,,,,,,,,,,,,,,,,,,,,,,,,,,,,,,,,,,,30,,,,,,,,961.452585400024,961.452585400024,961.452585400024,961.452585400024,961.452585400024,right,0.8604357999865897,0,0,0,99,0.0,0.24,right,0.7769379999954253,,,,,,,,,,,,,,,,,,,,,,,,,,,,,,,,,,,,,,,,,,,,,,,,,,,,,,,,,,,,NYY0JC,train_y,blue_star,top_left,2025-03-11_16h19.39.856,HideSeek_v1,2022.2.5,59.96695821272796,
,3,7,3,2,0,-5,66,,train_dim1_1,2,30,,,,2,0,2,0,,,,,,,,,0,0,0,0,0,1,1,1,14,0,14,0,,,,,,,,,,,,,,,,,,,,,,,,,,,,,,,,,,,,,,,,,,,,,,,,,,,,,,,,,,,,,,,,30,,,,,,,,962.3193652000045,962.3193652000045,962.3193652000045,962.3193652000045,962.3193652000045,right,0.6434226999990642,0,0,0,99,0.08,0.24,right,0.5619377999682911,,,,,,,,,,,,,,,,,,,,,,,,,,,,,,,,,,,,,,,,,,,,,,,,,,,,,,,,,,,,NYY0JC,train_y,blue_star,top_left,2025-03-11_16h19.39.856,HideSeek_v1,2022.2.5,59.96695821272796,
,3,7,3,2,0,-5,66,,train_dim1_1,2,30,,,,2,0,2,0,,,,,,,,,0,0,0,0,0,1,1,1,15,0,15,0,,,,,,,,,,,,,,,,,,,,,,,,,,,,,,,,,,,,,,,,,,,,,,,,,,,,,,,,,,,,,,,,30,,,,,,,,962.9706930000102,962.9706930000102,962.9706930000102,962.9706930000102,962.9706930000102,down,1.110108199995011,0,0,0,99,0.08,0.15999999999999998,down,1.0377370999776758,,,,,,,,,,,,,,,,,,,,,,,,,,,,,,,,,,,,,,,,,,,,,,,,,,,,,,,,,,,,NYY0JC,train_y,blue_star,top_left,2025-03-11_16h19.39.856,HideSeek_v1,2022.2.5,59.96695821272796,
,3,7,3,2,0,-5,66,,train_dim1_1,2,30,,,,2,0,2,0,,,,,,,,,0,0,0,0,0,1,1,1,16,0,16,0,,,,,,,,,,,,,,,,,,,,,,,,,,,,,,,,,,,,,,,,,,,,,,,,,,,,,,,,,,,,,,,,30,,,,,,,,964.0906039000256,964.0906039000256,964.0906039000256,964.0906039000256,964.0906039000256,right,3.0444949000375345,0,0,0,99,0.16,0.15999999999999998,right,2.9652090999879874,,,,,,,,,,,,,,,,,,,,,,,,,,,,,,,,,,,,,,,,,,,,,,,,,,,,,,,,,,,,NYY0JC,train_y,blue_star,top_left,2025-03-11_16h19.39.856,HideSeek_v1,2022.2.5,59.96695821272796,
,3,7,3,2,0,-5,66,,train_dim1_1,2,30,,,,2,0,2,0,,,,,,,,,0,0,0,0,0,1,1,1,17,0,17,0,,,,,,,,,,,,,,,,,,,,,,,,,,,,,,,,,,,,,,,,,,,,,,,,,,,,,,,,,,,,,,,,30,,,,,,,,967.1408349999692,967.1408349999692,967.1408349999692,967.1408349999692,967.1408349999692,right,0.5936958999955095,0,0,0,99,0.24,0.15999999999999998,right,0.5073785000131465,,,,,,,,,,,,,,,,,,,,,,,,,,,,,,,,,,,,,,,,,,,,,,,,,,,,,,,,,,,,NYY0JC,train_y,blue_star,top_left,2025-03-11_16h19.39.856,HideSeek_v1,2022.2.5,59.96695821272796,
,3,7,3,2,0,-5,66,,train_dim1_1,2,30,,,,2,0,2,0,,,,,,,,,0,0,0,0,0,1,1,1,18,0,18,0,,,,,,,,,,,,,,,,,,,,,,,,,,,,,,,,,,,,,,,,,,,,,,,,,,,,,,,,,,,,,,,,30,,,,,,,,967.7406745000044,967.7406745000044,967.7406745000044,967.7406745000044,967.7406745000044,right,0.32641860004514456,0,0,0,99,0.32,0.15999999999999998,right,0.2460172999999486,,,,,,,,,,,,,,,,,,,,,,,,,,,,,,,,,,,,,,,,,,,,,,,,,,,,,,,,,,,,NYY0JC,train_y,blue_star,top_left,2025-03-11_16h19.39.856,HideSeek_v1,2022.2.5,59.96695821272796,
,3,7,3,2,0,-5,66,,train_dim1_1,2,30,,,,2,0,2,0,,,,,,,,,0,0,0,0,0,1,1,1,19,0,19,0,,,,,,,,,,,,,,,,,,,,,,,,,,,,,,,,,,,,,,,,,,,,,,,,,,,,,,,,,,,,,,,,30,,,,,,,,968.0745345000178,968.0745345000178,968.0745345000178,968.0745345000178,968.0745345000178,right,0.35970269999234006,0,0,0,99,0.4,0.15999999999999998,right,0.2784305999521166,,,,,,,,,,,,,,,,,,,,,,,,,,,,,,,,,,,,,,,,,,,,,,,,,,,,,,,,,,,,NYY0JC,train_y,blue_star,top_left,2025-03-11_16h19.39.856,HideSeek_v1,2022.2.5,59.96695821272796,
,3,7,3,2,0,-5,66,,train_dim1_1,2,30,,,,2,0,2,0,,,,,,,,,0,0,0,0,0,1,1,1,20,0,20,0,,,,,,,,,,,,,,,,,,,,,,,,,,,,,,,,,,,,,,,,,,,,,,,,,,,,,,,,,,,,,,,,30,,,,,,,,968.4423202999751,968.4423202999751,968.4423202999751,968.4423202999751,968.4423202999751,left,1.0274724999908358,0,0,0,99,0.32,0.15999999999999998,left,0.9418045000056736,,,,,,,,,,,,,,,,,,,,,,,,,,,,,,,,,,,,,,,,,,,,,,,,,,,,,,,,,,,,NYY0JC,train_y,blue_star,top_left,2025-03-11_16h19.39.856,HideSeek_v1,2022.2.5,59.96695821272796,
,3,7,3,2,0,-5,66,,train_dim1_1,2,30,,,,2,0,2,0,,,,,,,,,0,0,0,0,0,1,1,1,21,0,21,0,,,,,,,,,,,,,,,,,,,,,,,,,,,,,,,,,,,,,,,,,,,,,,,,,,,,,,,,,,,,,,,,30,,,,,,,,969.4765702000004,969.4765702000004,969.4765702000004,969.4765702000004,969.4765702000004,right,0.24287939997157082,0,0,0,99,0.4,0.15999999999999998,right,0.16221029998268932,,,,,,,,,,,,,,,,,,,,,,,,,,,,,,,,,,,,,,,,,,,,,,,,,,,,,,,,,,,,NYY0JC,train_y,blue_star,top_left,2025-03-11_16h19.39.856,HideSeek_v1,2022.2.5,59.96695821272796,
,3,7,3,2,0,-5,66,,train_dim1_1,2,30,,,,2,0,2,0,,,,,,,,,0,0,0,0,0,1,1,1,22,0,22,0,,,,,,,,,,,,,,,,,,,,,,,,,,,,,,,,,,,,,,,,,,,,,,,,,,,,,,,,,,,,,,,,30,,,,,,,,969.7266450999887,969.7266450999887,969.7266450999887,969.7266450999887,969.7266450999887,right,0.30972409999230877,0,0,0,99,0.48000000000000004,0.15999999999999998,right,0.23206249997019768,,,,,,,,,,,,,,,,,,,,,,,,,,,,,,,,,,,,,,,,,,,,,,,,,,,,,,,,,,,,NYY0JC,train_y,blue_star,top_left,2025-03-11_16h19.39.856,HideSeek_v1,2022.2.5,59.96695821272796,
,3,7,3,2,0,-5,66,,train_dim1_1,2,30,,,,2,0,2,0,,,,,,,,,0,0,0,0,0,1,1,1,23,0,23,0,,,,,,,,,,,,,,,,,,,,,,,,,,,,,,,,,,,,,,,,,,,,,,,,,,,,,,,,,,,,,,,,30,,,,,,,,970.0431842000107,970.0431842000107,970.0431842000107,970.0431842000107,970.0431842000107,left,0.8272041999734938,0,0,0,99,0.4,0.15999999999999998,left,0.7516314999666065,,,,,,,,,,,,,,,,,,,,,,,,,,,,,,,,,,,,,,,,,,,,,,,,,,,,,,,,,,,,NYY0JC,train_y,blue_star,top_left,2025-03-11_16h19.39.856,HideSeek_v1,2022.2.5,59.96695821272796,
,3,7,3,2,0,-5,66,,train_dim1_1,2,30,,,,2,0,2,0,,,,,,,,,0,0,0,0,0,1,1,1,24,0,24,0,,,,,,,,,,,,,,,,,,,,,,,,,,,,,,,,,,,,,,,,,,,,,,,,,,,,,,,,,,,,,,,,30,,,,,,,,970.876511999988,970.876511999988,970.876511999988,970.876511999988,970.876511999988,left,0.30974580004112795,0,0,0,99,0.32,0.15999999999999998,left,0.23138839995954186,,,,,,,,,,,,,,,,,,,,,,,,,,,,,,,,,,,,,,,,,,,,,,,,,,,,,,,,,,,,NYY0JC,train_y,blue_star,top_left,2025-03-11_16h19.39.856,HideSeek_v1,2022.2.5,59.96695821272796,
,3,7,3,2,0,-5,66,,train_dim1_1,2,30,,,,2,0,2,0,,,,,,,,,0,0,0,0,0,1,1,1,25,0,25,0,,,,,,,,,,,,,,,,,,,,,,,,,,,,,,,,,,,,,,,,,,,,,,,,,,,,,,,,,,,,,,,,30,,,,,,,,971.1934101000079,971.1934101000079,971.1934101000079,971.1934101000079,971.1934101000079,left,0.2599458000040613,0,0,0,99,0.24,0.15999999999999998,left,0.1773948999471031,,,,,,,,,,,,,,,,,,,,,,,,,,,,,,,,,,,,,,,,,,,,,,,,,,,,,,,,,,,,NYY0JC,train_y,blue_star,top_left,2025-03-11_16h19.39.856,HideSeek_v1,2022.2.5,59.96695821272796,
,3,7,3,2,0,-5,66,,train_dim1_1,2,30,,,,2,0,2,0,,,,,,,,,0,0,0,0,0,1,1,1,26,0,26,0,,,,,,,,,,,,,,,,,,,,,,,,,,,,,,,,,,,,,,,,,,,,,,,,,,,,,,,,,,,,,,,,30,,,,,,,,971.4612103999825,971.4612103999825,971.4612103999825,971.4612103999825,971.4612103999825,left,0.24299210001481697,0,0,0,99,0.15999999999999998,0.15999999999999998,left,0.16997839999385178,,,,,,,,,,,,,,,,,,,,,,,,,,,,,,,,,,,,,,,,,,,,,,,,,,,,,,,,,,,,NYY0JC,train_y,blue_star,top_left,2025-03-11_16h19.39.856,HideSeek_v1,2022.2.5,59.96695821272796,
,3,7,3,2,0,-5,66,,train_dim1_1,2,30,,,,2,0,2,0,,,,,,,,,0,0,0,0,0,1,1,1,27,0,27,0,,,,,,,,,,,,,,,,,,,,,,,,,,,,,,,,,,,,,,,,,,,,,,,,,,,,,,,,,,,,,,,,30,,,,,,,,971.7118180000107,971.7118180000107,971.7118180000107,971.7118180000107,971.7118180000107,left,0.30892690003383905,0,0,0,99,0.07999999999999997,0.15999999999999998,left,0.2359275000053458,,,,,,,,,,,,,,,,,,,,,,,,,,,,,,,,,,,,,,,,,,,,,,,,,,,,,,,,,,,,NYY0JC,train_y,blue_star,top_left,2025-03-11_16h19.39.856,HideSeek_v1,2022.2.5,59.96695821272796,
,3,7,3,2,0,-5,66,,train_dim1_1,2,30,,,,2,0,2,0,,,,,,,,,0,0,0,0,0,1,1,1,28,0,28,0,,,,,,,,,,,,,,,,,,,,,,,,,,,,,,,,,,,,,,,,,,,,,,,,,,,,,,,,,,,,,,,,30,,,,,,,,972.0280720000155,972.0280720000155,972.0280720000155,972.0280720000155,972.0280720000155,down,5.564251500007231,0,0,0,99,0.07999999999999997,0.07999999999999997,down,5.482903499971144,,,,,,,,,,,,,,,,,,,,,,,,,,,,,,,,,,,,,,,,,,,,,,,,,,,,,,,,,,,,NYY0JC,train_y,blue_star,top_left,2025-03-11_16h19.39.856,HideSeek_v1,2022.2.5,59.96695821272796,
,3,7,3,2,0,-5,66,,train_dim1_1,2,30,,,,2,0,2,0,,,,,,,,,0,0,0,0,0,1,1,1,29,0,29,0,,,,,,,,,,,,,,,,,,,,,,,,,,,,,,,,,,,,,,,,,,,,,,,,,,,,,,,,,,,,,,,,30,,,,,,,,977.6001914999797,977.6001914999797,977.6001914999797,977.6001914999797,977.6001914999797,down,0.32613090000813827,0,0,0,99,0.07999999999999997,-2.7755575615628914e-17,down,0.2500215999898501,,,,,,,,,,,,,,,,,,,,,,,,,,,,,,,,,,,,,,,,,,,,,,,,,,,,,,,,,,,,NYY0JC,train_y,blue_star,top_left,2025-03-11_16h19.39.856,HideSeek_v1,2022.2.5,59.96695821272796,
,3,7,3,2,0,-5,66,,train_dim1_1,2,30,,,,2,0,2,0,,,,,,,,,0,0,0,0,0,1,1,1,30,0,30,0,,,,,,,,,,,,,,,,,,,,,,,,,,,,,,,,,,,,,,,,,,,,,,,,,,,,,,,,,,,,,,,,30,,,,,,,,977.9324262000155,977.9324262000155,977.9324262000155,977.9324262000155,977.9324262000155,down,0.2599931000149809,0,0,0,99,0.07999999999999997,-0.08000000000000003,down,0.1782857999787666,,,,,,,,,,,,,,,,,,,,,,,,,,,,,,,,,,,,,,,,,,,,,,,,,,,,,,,,,,,,NYY0JC,train_y,blue_star,top_left,2025-03-11_16h19.39.856,HideSeek_v1,2022.2.5,59.96695821272796,
,3,7,3,2,0,-5,66,,train_dim1_1,2,30,,,,2,0,2,0,,,,,,,,,0,0,0,0,0,1,1,1,31,0,31,0,,,,,,,,,,,,,,,,,,,,,,,,,,,,,,,,,,,,,,,,,,,,,,,,,,,,,,,,,,,,,,,,30,,,,,,,,978.2018126000185,978.2018126000185,978.2018126000185,978.2018126000185,978.2018126000185,down,0.22639689996140078,0,0,0,99,0.07999999999999997,-0.16000000000000003,down,0.15241209999658167,,,,,,,,,,,,,,,,,,,,,,,,,,,,,,,,,,,,,,,,,,,,,,,,,,,,,,,,,,,,NYY0JC,train_y,blue_star,top_left,2025-03-11_16h19.39.856,HideSeek_v1,2022.2.5,59.96695821272796,
,3,7,3,2,0,-5,66,,train_dim1_1,2,30,,,,2,0,2,0,,,,,,,,,0,0,0,0,0,1,1,1,32,0,32,0,,,,,,,,,,,,,,,,,,,,,,,,,,,,,,,,,,,,,,,,,,,,,,,,,,,,,,,,,,,,,,,,30,,,,,,,,978.4335203000228,978.4335203000228,978.4335203000228,978.4335203000228,978.4335203000228,down,1.3602661000331864,0,0,0,99,0.07999999999999997,-0.24000000000000005,down,1.2805538999964483,,,,,,,,,,,,,,,,,,,,,,,,,,,,,,,,,,,,,,,,,,,,,,,,,,,,,,,,,,,,NYY0JC,train_y,blue_star,top_left,2025-03-11_16h19.39.856,HideSeek_v1,2022.2.5,59.96695821272796,
,3,7,3,2,0,-5,66,,train_dim1_1,2,30,,,,2,0,2,0,,,,,,,,,0,0,0,0,0,1,1,1,33,0,33,0,,,,,,,,,,,,,,,,,,,,,,,,,,,,,,,,,,,,,,,,,,,,,,,,,,,,,,,,,,,,,,,,30,,,,,,,,979.8016844000085,979.8016844000085,979.8016844000085,979.8016844000085,979.8016844000085,return,0.842848900007084,1,0,0,1,0.07999999999999997,-0.24000000000000005,return,0.7606563000008464,-8,2,0.07999999999999997,-0.24000000000000005,,,,,,,,,,,,,,,,,,,,,,,,,,,,,,,,,,,,,,,,,,,,,,,,,,,,,,,,NYY0JC,train_y,blue_star,top_left,2025-03-11_16h19.39.856,HideSeek_v1,2022.2.5,59.96695821272796,
,2,8,2,5,0,-3,64,,train_dim1_1,3,30,,,,2,0,2,0,,,,,,,,,0,0,0,0,0,2,2,2,0,0,0,0,,,,,,,,,,,,,,,,,,,,,,,,,stimuli/alien_stimuli/64.png,,,,,,,,,,,,,,,,,,,,,,,,,,,,,stimuli/alien_stimuli/66.png,66,3,4,,,,,,,30,,,,,,,,996.7373632999952,996.7373632999952,996.7373632999952,996.7373632999952,996.7373632999952,right,1.756946500041522,1,0,0,99,0.08,0.24,right,1.6612317999824882,,,,,995.1672835000209,996.7373632999952,0.08,-0.24,0.4,0.0,-0.039999999999999994,0.08,0.08,0.08,-0.24,982.2142592999735,982.2142592999735,982.2142592999735,982.2142592999735,982.2142592999735,982.2142592999735,982.2142592999735,982.2142592999735,982.2066420300166,13.062844000000041,return,12.927053200022783,,,,,,,,,,,,,,,,,,,,,,,,,,,,,,,,,NYY0JC,train_y,blue_star,top_left,2025-03-11_16h19.39.856,HideSeek_v1,2022.2.5,59.96695821272796,
,2,8,2,5,0,-3,64,,train_dim1_1,3,30,,,,2,0,2,0,,,,,,,,,0,0,0,0,0,2,2,2,1,0,1,0,,,,,,,,,,,,,,,,,,,,,,,,,,,,,,,,,,,,,,,,,,,,,,,,,,,,,,,,,,,,,,,,30,,,,,,,,998.4848254999961,998.4848254999961,998.4848254999961,998.4848254999961,998.4848254999961,right,1.1593633000156842,1,0,0,99,0.16,0.24,right,1.0726513999979943,,,,,,,,,,,,,,,,,,,,,,,,,,,,,,,,,,,,,,,,,,,,,,,,,,,,,,,,,,,,NYY0JC,train_y,blue_star,top_left,2025-03-11_16h19.39.856,HideSeek_v1,2022.2.5,59.96695821272796,
,2,8,2,5,0,-3,64,,train_dim1_1,3,30,,,,2,0,2,0,,,,,,,,,0,0,0,0,0,2,2,2,2,0,2,0,,,,,,,,,,,,,,,,,,,,,,,,,,,,,,,,,,,,,,,,,,,,,,,,,,,,,,,,,,,,,,,,30,,,,,,,,999.6494693999994,999.6494693999994,999.6494693999994,999.6494693999994,999.6494693999994,left,0.5265922999824397,1,0,0,99,0.08,0.24,left,0.4432858999934979,,,,,,,,,,,,,,,,,,,,,,,,,,,,,,,,,,,,,,,,,,,,,,,,,,,,,,,,,,,,NYY0JC,train_y,blue_star,top_left,2025-03-11_16h19.39.856,HideSeek_v1,2022.2.5,59.96695821272796,
,2,8,2,5,0,-3,64,,train_dim1_1,3,30,,,,2,0,2,0,,,,,,,,,0,0,0,0,0,2,2,2,3,0,3,0,,,,,,,,,,,,,,,,,,,,,,,,,,,,,,,,,,,,,,,,,,,,,,,,,,,,,,,,,,,,,,,,30,,,,,,,,1000.1839129999862,1000.1839129999862,1000.1839129999862,1000.1839129999862,1000.1839129999862,left,0.31012450001435354,1,0,0,99,0.0,0.24,left,0.22874099999899045,,,,,,,,,,,,,,,,,,,,,,,,,,,,,,,,,,,,,,,,,,,,,,,,,,,,,,,,,,,,NYY0JC,train_y,blue_star,top_left,2025-03-11_16h19.39.856,HideSeek_v1,2022.2.5,59.96695821272796,
,2,8,2,5,0,-3,64,,train_dim1_1,3,30,,,,2,0,2,0,,,,,,,,,0,0,0,0,0,2,2,2,4,0,4,0,,,,,,,,,,,,,,,,,,,,,,,,,,,,,,,,,,,,,,,,,,,,,,,,,,,,,,,,,,,,,,,,30,,,,,,,,1000.5008720000042,1000.5008720000042,1000.5008720000042,1000.5008720000042,1000.5008720000042,down,0.9104296999867074,1,0,0,99,0.0,0.15999999999999998,down,0.8341454999754205,,,,,,,,,,,,,,,,,,,,,,,,,,,,,,,,,,,,,,,,,,,,,,,,,,,,,,,,,,,,NYY0JC,train_y,blue_star,top_left,2025-03-11_16h19.39.856,HideSeek_v1,2022.2.5,59.96695821272796,
,2,8,2,5,0,-3,64,,train_dim1_1,3,30,,,,2,0,2,0,,,,,,,,,0,0,0,0,0,2,2,2,5,0,5,0,,,,,,,,,,,,,,,,,,,,,,,,,,,,,,,,,,,,,,,,,,,,,,,,,,,,,,,,,,,,,,,,30,,,,,,,,1001.4191046999767,1001.4191046999767,1001.4191046999767,1001.4191046999767,1001.4191046999767,down,0.626737900020089,1,0,0,99,0.0,0.07999999999999997,down,0.5432597000035457,,,,,,,,,,,,,,,,,,,,,,,,,,,,,,,,,,,,,,,,,,,,,,,,,,,,,,,,,,,,NYY0JC,train_y,blue_star,top_left,2025-03-11_16h19.39.856,HideSeek_v1,2022.2.5,59.96695821272796,
,2,8,2,5,0,-3,64,,train_dim1_1,3,30,,,,2,0,2,0,,,,,,,,,0,0,0,0,0,2,2,2,6,0,6,0,,,,,,,,,,,,,,,,,,,,,,,,,,,,,,,,,,,,,,,,,,,,,,,,,,,,,,,,,,,,,,,,30,,,,,,,,1002.0523353000171,1002.0523353000171,1002.0523353000171,1002.0523353000171,1002.0523353000171,down,0.35988339997129515,1,0,0,99,0.0,-2.7755575615628914e-17,down,0.28621180000482127,,,,,,,,,,,,,,,,,,,,,,,,,,,,,,,,,,,,,,,,,,,,,,,,,,,,,,,,,,,,NYY0JC,train_y,blue_star,top_left,2025-03-11_16h19.39.856,HideSeek_v1,2022.2.5,59.96695821272796,
,2,8,2,5,0,-3,64,,train_dim1_1,3,30,,,,2,0,2,0,,,,,,,,,0,0,0,0,0,2,2,2,7,0,7,0,,,,,,,,,,,,,,,,,,,,,,,,,,,,,,,,,,,,,,,,,,,,,,,,,,,,,,,,,,,,,,,,30,,,,,,,,1002.4201594999759,1002.4201594999759,1002.4201594999759,1002.4201594999759,1002.4201594999759,down,0.25959239999065176,1,0,0,99,0.0,-0.08000000000000003,down,0.18311550002545118,,,,,,,,,,,,,,,,,,,,,,,,,,,,,,,,,,,,,,,,,,,,,,,,,,,,,,,,,,,,NYY0JC,train_y,blue_star,top_left,2025-03-11_16h19.39.856,HideSeek_v1,2022.2.5,59.96695821272796,
,2,8,2,5,0,-3,64,,train_dim1_1,3,30,,,,2,0,2,0,,,,,,,,,0,0,0,0,0,2,2,2,8,0,8,0,,,,,,,,,,,,,,,,,,,,,,,,,,,,,,,,,,,,,,,,,,,,,,,,,,,,,,,,,,,,,,,,30,,,,,,,,1002.6861206999747,1002.6861206999747,1002.6861206999747,1002.6861206999747,1002.6861206999747,down,0.2934007000294514,1,0,0,99,0.0,-0.16000000000000003,down,0.20641689997864887,,,,,,,,,,,,,,,,,,,,,,,,,,,,,,,,,,,,,,,,,,,,,,,,,,,,,,,,,,,,NYY0JC,train_y,blue_star,top_left,2025-03-11_16h19.39.856,HideSeek_v1,2022.2.5,59.96695821272796,
,2,8,2,5,0,-3,64,,train_dim1_1,3,30,,,,2,0,2,0,,,,,,,,,0,0,0,0,0,2,2,2,9,0,9,0,,,,,,,,,,,,,,,,,,,,,,,,,,,,,,,,,,,,,,,,,,,,,,,,,,,,,,,,,,,,,,,,30,,,,,,,,1002.986181300017,1002.986181300017,1002.986181300017,1002.986181300017,1002.986181300017,return,10.468134199967608,1,0,0,0,0.0,-0.16000000000000003,return,10.38467410003068,-13,2,0.0,-0.16000000000000003,,,,,,,,,,,,,,,,,,,,,,,,,,,,,,,,,,,,,,,,,,,,,,,,,,,,,,,,NYY0JC,train_y,blue_star,top_left,2025-03-11_16h19.39.856,HideSeek_v1,2022.2.5,59.96695821272796,
,0,6,0,5,0,-1,62,,train_dim1_1,4,30,,,,2,0,2,0,,,,,,,,,0,0,0,0,0,3,3,3,0,0,0,0,,,,,,,,,,,,,,,,,,,,,,,,,stimuli/alien_stimuli/62.png,,,,,,,,,,,,,,,,,,,,,,,,,,,,,stimuli/alien_stimuli/64.png,64,2,5,,,,,,,30,,,,,,,,1020.0277279000147,1020.0277279000147,1020.0277279000147,1020.0277279000147,1020.0277279000147,right,1.7020643999567255,1,0,0,99,-0.08,0.08,right,1.6244209000142291,,,,,1018.4700938999886,1020.0277279000147,0,0,0.24,0.0,0.12,0,0.0,0,0,1015.021935399971,1015.021935399971,1015.021935399971,1015.021935399971,1015.021935399971,1015.021935399971,1015.021935399971,1015.021935399971,1015.0172411300359,3.555422900011763,return,3.4267975999973714,,,,,,,,,,,,,,,,,,,,,,,,,,,,,,,,,NYY0JC,train_y,blue_star,top_left,2025-03-11_16h19.39.856,HideSeek_v1,2022.2.5,59.96695821272796,
,0,6,0,5,0,-1,62,,train_dim1_1,4,30,,,,2,0,2,0,,,,,,,,,0,0,0,0,0,3,3,3,1,0,1,0,,,,,,,,,,,,,,,,,,,,,,,,,,,,,,,,,,,,,,,,,,,,,,,,,,,,,,,,,,,,,,,,30,,,,,,,,1021.7363773999969,1021.7363773999969,1021.7363773999969,1021.7363773999969,1021.7363773999969,right,0.8430791000137106,1,0,0,99,0.0,0.08,right,0.7552267999853939,,,,,,,,,,,,,,,,,,,,,,,,,,,,,,,,,,,,,,,,,,,,,,,,,,,,,,,,,,,,NYY0JC,train_y,blue_star,top_left,2025-03-11_16h19.39.856,HideSeek_v1,2022.2.5,59.96695821272796,
,0,6,0,5,0,-1,62,,train_dim1_1,4,30,,,,2,0,2,0,,,,,,,,,0,0,0,0,0,3,3,3,2,0,2,0,,,,,,,,,,,,,,,,,,,,,,,,,,,,,,,,,,,,,,,,,,,,,,,,,,,,,,,,,,,,,,,,30,,,,,,,,1022.5865494000027,1022.5865494000027,1022.5865494000027,1022.5865494000027,1022.5865494000027,left,0.9435892999754287,1,0,0,99,-0.08,0.08,left,0.8587308999849483,,,,,,,,,,,,,,,,,,,,,,,,,,,,,,,,,,,,,,,,,,,,,,,,,,,,,,,,,,,,NYY0JC,train_y,blue_star,top_left,2025-03-11_16h19.39.856,HideSeek_v1,2022.2.5,59.96695821272796,
,0,6,0,5,0,-1,62,,train_dim1_1,4,30,,,,2,0,2,0,,,,,,,,,0,0,0,0,0,3,3,3,3,0,3,0,,,,,,,,,,,,,,,,,,,,,,,,,,,,,,,,,,,,,,,,,,,,,,,,,,,,,,,,,,,,,,,,30,,,,,,,,1023.5370747999987,1023.5370747999987,1023.5370747999987,1023.5370747999987,1023.5370747999987,left,0.24298050004290417,1,0,0,99,-0.16,0.08,left,0.1653394000022672,,,,,,,,,,,,,,,,,,,,,,,,,,,,,,,,,,,,,,,,,,,,,,,,,,,,,,,,,,,,NYY0JC,train_y,blue_star,top_left,2025-03-11_16h19.39.856,HideSeek_v1,2022.2.5,59.96695821272796,
,0,6,0,5,0,-1,62,,train_dim1_1,4,30,,,,2,0,2,0,,,,,,,,,0,0,0,0,0,3,3,3,4,0,4,0,,,,,,,,,,,,,,,,,,,,,,,,,,,,,,,,,,,,,,,,,,,,,,,,,,,,,,,,,,,,,,,,30,,,,,,,,1023.7866446999833,1023.7866446999833,1023.7866446999833,1023.7866446999833,1023.7866446999833,down,0.7938331000041217,1,0,0,99,-0.16,0.0,down,0.713853899971582,,,,,,,,,,,,,,,,,,,,,,,,,,,,,,,,,,,,,,,,,,,,,,,,,,,,,,,,,,,,NYY0JC,train_y,blue_star,top_left,2025-03-11_16h19.39.856,HideSeek_v1,2022.2.5,59.96695821272796,
,0,6,0,5,0,-1,62,,train_dim1_1,4,30,,,,2,0,2,0,,,,,,,,,0,0,0,0,0,3,3,3,5,0,5,0,,,,,,,,,,,,,,,,,,,,,,,,,,,,,,,,,,,,,,,,,,,,,,,,,,,,,,,,,,,,,,,,30,,,,,,,,1024.588178200007,1024.588178200007,1024.588178200007,1024.588178200007,1024.588178200007,down,0.20954940002411604,1,0,0,99,-0.16,-0.08,down,0.12580899999011308,,,,,,,,,,,,,,,,,,,,,,,,,,,,,,,,,,,,,,,,,,,,,,,,,,,,,,,,,,,,NYY0JC,train_y,blue_star,top_left,2025-03-11_16h19.39.856,HideSeek_v1,2022.2.5,59.96695821272796,
,0,6,0,5,0,-1,62,,train_dim1_1,4,30,,,,2,0,2,0,,,,,,,,,0,0,0,0,0,3,3,3,6,0,6,0,,,,,,,,,,,,,,,,,,,,,,,,,,,,,,,,,,,,,,,,,,,,,,,,,,,,,,,,,,,,,,,,30,,,,,,,,1024.805430700013,1024.805430700013,1024.805430700013,1024.805430700013,1024.805430700013,down,0.24295899999560788,1,0,0,99,-0.16,-0.16,down,0.17066999996313825,,,,,,,,,,,,,,,,,,,,,,,,,,,,,,,,,,,,,,,,,,,,,,,,,,,,,,,,,,,,NYY0JC,train_y,blue_star,top_left,2025-03-11_16h19.39.856,HideSeek_v1,2022.2.5,59.96695821272796,
,0,6,0,5,0,-1,62,,train_dim1_1,4,30,,,,2,0,2,0,,,,,,,,,0,0,0,0,0,3,3,3,7,0,7,0,,,,,,,,,,,,,,,,,,,,,,,,,,,,,,,,,,,,,,,,,,,,,,,,,,,,,,,,,,,,,,,,30,,,,,,,,1025.0556582999998,1025.0556582999998,1025.0556582999998,1025.0556582999998,1025.0556582999998,down,0.29330970003502443,1,0,0,99,-0.16,-0.24,down,0.21888070000568405,,,,,,,,,,,,,,,,,,,,,,,,,,,,,,,,,,,,,,,,,,,,,,,,,,,,,,,,,,,,NYY0JC,train_y,blue_star,top_left,2025-03-11_16h19.39.856,HideSeek_v1,2022.2.5,59.96695821272796,
,0,6,0,5,0,-1,62,,train_dim1_1,4,30,,,,2,0,2,0,,,,,,,,,0,0,0,0,0,3,3,3,8,0,8,0,,,,,,,,,,,,,,,,,,,,,,,,,,,,,,,,,,,,,,,,,,,,,,,,,,,,,,,,,,,,,,,,30,,,,,,,,1025.3566060999874,1025.3566060999874,1025.3566060999874,1025.3566060999874,1025.3566060999874,return,2.4279507999890484,1,0,0,0,-0.16,-0.24,return,2.3387552999774925,-17,2,-0.16,-0.24,,,,,,,,,,,,,,,,,,,,,,,,,,,,,,,,,,,,,,,,,,,,,,,,,,,,,,,,NYY0JC,train_y,blue_star,top_left,2025-03-11_16h19.39.856,HideSeek_v1,2022.2.5,59.96695821272796,
,3,8,3,8,0,0,61,,train_dim1_1,5,30,,,,2,0,2,0,,,,,,,,,0,0,0,0,0,4,4,4,0,0,0,0,,,,,,,,,,,,,,,,,,,,,,,,,stimuli/alien_stimuli/61.png,,,,,,,,,,,,,,,,,,,,,,,,,,,,,stimuli/alien_stimuli/62.png,62,0,6,,,,,,,30,,,,,,,,1035.7686322000227,1035.7686322000227,1035.7686322000227,1035.7686322000227,1035.7686322000227,right,2.608262099965941,1,0,0,99,0.16,0.24,right,2.521158399991691,,,,,1034.2164301999728,1035.7686322000227,-0.16,0,0.08,0.0,0.04,-0.16,-0.16,-0.16,0,1029.3522319999756,1029.3522319999756,1029.3522319999756,1029.3522319999756,1029.3522319999756,1029.3522319999756,1029.3522319999756,1029.3522319999756,1029.3457639300382,4.973219899984542,return,4.8373152000131086,,,,,,,,,,,,,,,,,,,,,,,,,,,,,,,,,NYY0JC,train_y,blue_star,top_left,2025-03-11_16h19.39.856,HideSeek_v1,2022.2.5,59.96695821272796,
,3,8,3,8,0,0,61,,train_dim1_1,5,30,,,,2,0,2,0,,,,,,,,,0,0,0,0,0,4,4,4,1,0,1,0,,,,,,,,,,,,,,,,,,,,,,,,,,,,,,,,,,,,,,,,,,,,,,,,,,,,,,,,,,,,,,,,30,,,,,,,,1038.3832586000208,1038.3832586000208,1038.3832586000208,1038.3832586000208,1038.3832586000208,right,0.7758724000304937,1,0,0,99,0.24,0.24,right,0.694428299961146,,,,,,,,,,,,,,,,,,,,,,,,,,,,,,,,,,,,,,,,,,,,,,,,,,,,,,,,,,,,NYY0JC,train_y,blue_star,top_left,2025-03-11_16h19.39.856,HideSeek_v1,2022.2.5,59.96695821272796,
,3,8,3,8,0,0,61,,train_dim1_1,5,30,,,,2,0,2,0,,,,,,,,,0,0,0,0,0,4,4,4,2,0,2,0,,,,,,,,,,,,,,,,,,,,,,,,,,,,,,,,,,,,,,,,,,,,,,,,,,,,,,,,,,,,,,,,30,,,,,,,,1039.166456100007,1039.166456100007,1039.166456100007,1039.166456100007,1039.166456100007,left,0.810573700000532,1,0,0,99,0.15999999999999998,0.24,left,0.7316336999647319,,,,,,,,,,,,,,,,,,,,,,,,,,,,,,,,,,,,,,,,,,,,,,,,,,,,,,,,,,,,NYY0JC,train_y,blue_star,top_left,2025-03-11_16h19.39.856,HideSeek_v1,2022.2.5,59.96695821272796,
,3,8,3,8,0,0,61,,train_dim1_1,5,30,,,,2,0,2,0,,,,,,,,,0,0,0,0,0,4,4,4,3,0,3,0,,,,,,,,,,,,,,,,,,,,,,,,,,,,,,,,,,,,,,,,,,,,,,,,,,,,,,,,,,,,,,,,30,,,,,,,,1039.987149099994,1039.987149099994,1039.987149099994,1039.987149099994,1039.987149099994,left,0.3268330999999307,1,0,0,99,0.07999999999999997,0.24,left,0.23903260001679882,,,,,,,,,,,,,,,,,,,,,,,,,,,,,,,,,,,,,,,,,,,,,,,,,,,,,,,,,,,,NYY0JC,train_y,blue_star,top_left,2025-03-11_16h19.39.856,HideSeek_v1,2022.2.5,59.96695821272796,
,3,8,3,8,0,0,61,,train_dim1_1,5,30,,,,2,0,2,0,,,,,,,,,0,0,0,0,0,4,4,4,4,0,4,0,,,,,,,,,,,,,,,,,,,,,,,,,,,,,,,,,,,,,,,,,,,,,,,,,,,,,,,,,,,,,,,,30,,,,,,,,1040.317493700015,1040.317493700015,1040.317493700015,1040.317493700015,1040.317493700015,down,0.3097227999824099,1,0,0,99,0.07999999999999997,0.15999999999999998,down,0.224625599978026,,,,,,,,,,,,,,,,,,,,,,,,,,,,,,,,,,,,,,,,,,,,,,,,,,,,,,,,,,,,NYY0JC,train_y,blue_star,top_left,2025-03-11_16h19.39.856,HideSeek_v1,2022.2.5,59.96695821272796,
,3,8,3,8,0,0,61,,train_dim1_1,5,30,,,,2,0,2,0,,,,,,,,,0,0,0,0,0,4,4,4,5,0,5,0,,,,,,,,,,,,,,,,,,,,,,,,,,,,,,,,,,,,,,,,,,,,,,,,,,,,,,,,,,,,,,,,30,,,,,,,,1040.635132699972,1040.635132699972,1040.635132699972,1040.635132699972,1040.635132699972,down,0.24327029997948557,1,0,0,99,0.07999999999999997,0.07999999999999997,down,0.16391329996986315,,,,,,,,,,,,,,,,,,,,,,,,,,,,,,,,,,,,,,,,,,,,,,,,,,,,,,,,,,,,NYY0JC,train_y,blue_star,top_left,2025-03-11_16h19.39.856,HideSeek_v1,2022.2.5,59.96695821272796,
,3,8,3,8,0,0,61,,train_dim1_1,5,30,,,,2,0,2,0,,,,,,,,,0,0,0,0,0,4,4,4,6,0,6,0,,,,,,,,,,,,,,,,,,,,,,,,,,,,,,,,,,,,,,,,,,,,,,,,,,,,,,,,,,,,,,,,30,,,,,,,,1040.8855756999692,1040.8855756999692,1040.8855756999692,1040.8855756999692,1040.8855756999692,down,0.24254699994344264,1,0,0,99,0.07999999999999997,-2.7755575615628914e-17,down,0.16587980004260316,,,,,,,,,,,,,,,,,,,,,,,,,,,,,,,,,,,,,,,,,,,,,,,,,,,,,,,,,,,,NYY0JC,train_y,blue_star,top_left,2025-03-11_16h19.39.856,HideSeek_v1,2022.2.5,59.96695821272796,
,3,8,3,8,0,0,61,,train_dim1_1,5,30,,,,2,0,2,0,,,,,,,,,0,0,0,0,0,4,4,4,7,0,7,0,,,,,,,,,,,,,,,,,,,,,,,,,,,,,,,,,,,,,,,,,,,,,,,,,,,,,,,,,,,,,,,,30,,,,,,,,1041.135171699978,1041.135171699978,1041.135171699978,1041.135171699978,1041.135171699978,down,0.7263833000324667,1,0,0,99,0.07999999999999997,-0.08000000000000003,down,0.654221199976746,,,,,,,,,,,,,,,,,,,,,,,,,,,,,,,,,,,,,,,,,,,,,,,,,,,,,,,,,,,,NYY0JC,train_y,blue_star,top_left,2025-03-11_16h19.39.856,HideSeek_v1,2022.2.5,59.96695821272796,
,3,8,3,8,0,0,61,,train_dim1_1,5,30,,,,2,0,2,0,,,,,,,,,0,0,0,0,0,4,4,4,8,0,8,0,,,,,,,,,,,,,,,,,,,,,,,,,,,,,,,,,,,,,,,,,,,,,,,,,,,,,,,,,,,,,,,,30,,,,,,,,1041.8688033000217,1041.8688033000217,1041.8688033000217,1041.8688033000217,1041.8688033000217,return,0.7942242000135593,1,0,0,0,0.07999999999999997,-0.08000000000000003,return,0.7115924999816343,-21,2,0.07999999999999997,-0.08000000000000003,,,,,,,,,,,,,,,,,,,,,,,,,,,,,,,,,,,,,,,,,,,,,,,,,,,,,,,,NYY0JC,train_y,blue_star,top_left,2025-03-11_16h19.39.856,HideSeek_v1,2022.2.5,59.96695821272796,
,1,9,1,8,0,-1,62,,train_dim1_1,6,30,,,,2,0,2,0,,,,,,,,,0,0,0,0,0,5,5,5,0,0,0,0,,,,,,,,,,,,,,,,,,,,,,,,,stimuli/alien_stimuli/62.png,,,,,,,,,,,,,,,,,,,,,,,,,,,,,stimuli/alien_stimuli/61.png,61,3,7,,,,,,,30,,,,,,,,1049.3463550999877,1049.3463550999877,1049.3463550999877,1049.3463550999877,1049.3463550999877,down,2.257795299985446,1,0,0,99,-0.08,0.24,down,2.18083139997907,,,,,1047.7943100999692,1049.3463550999877,0.08,0.24,0.0,0.0,0.24,0.08,0.08,0.08,0.24,1044.2240667999722,1044.2240667999722,1044.2240667999722,1044.2240667999722,1044.2240667999722,1044.2240667999722,1044.2240667999722,1044.2240667999722,1044.2250332300086,3.6716050999821164,return,3.5394640999729745,,,,,,,,,,,,,,,,,,,,,,,,,,,,,,,,,NYY0JC,train_y,blue_star,top_left,2025-03-11_16h19.39.856,HideSeek_v1,2022.2.5,59.96695821272796,
,1,9,1,8,0,-1,62,,train_dim1_1,6,30,,,,2,0,2,0,,,,,,,,,0,0,0,0,0,5,5,5,1,0,1,0,,,,,,,,,,,,,,,,,,,,,,,,,,,,,,,,,,,,,,,,,,,,,,,,,,,,,,,,,,,,,,,,30,,,,,,,,1051.6107310000225,1051.6107310000225,1051.6107310000225,1051.6107310000225,1051.6107310000225,down,0.39256209996528924,1,0,0,99,-0.08,0.15999999999999998,down,0.31565569998929277,,,,,,,,,,,,,,,,,,,,,,,,,,,,,,,,,,,,,,,,,,,,,,,,,,,,,,,,,,,,NYY0JC,train_y,blue_star,top_left,2025-03-11_16h19.39.856,HideSeek_v1,2022.2.5,59.96695821272796,
,1,9,1,8,0,-1,62,,train_dim1_1,6,30,,,,2,0,2,0,,,,,,,,,0,0,0,0,0,5,5,5,2,0,2,0,,,,,,,,,,,,,,,,,,,,,,,,,,,,,,,,,,,,,,,,,,,,,,,,,,,,,,,,,,,,,,,,30,,,,,,,,1052.0125912000076,1052.0125912000076,1052.0125912000076,1052.0125912000076,1052.0125912000076,down,0.3096466000424698,1,0,0,99,-0.08,0.07999999999999997,down,0.2227943000034429,,,,,,,,,,,,,,,,,,,,,,,,,,,,,,,,,,,,,,,,,,,,,,,,,,,,,,,,,,,,NYY0JC,train_y,blue_star,top_left,2025-03-11_16h19.39.856,HideSeek_v1,2022.2.5,59.96695821272796,
,1,9,1,8,0,-1,62,,train_dim1_1,6,30,,,,2,0,2,0,,,,,,,,,0,0,0,0,0,5,5,5,3,0,3,0,,,,,,,,,,,,,,,,,,,,,,,,,,,,,,,,,,,,,,,,,,,,,,,,,,,,,,,,,,,,,,,,30,,,,,,,,1052.327418699977,1052.327418699977,1052.327418699977,1052.327418699977,1052.327418699977,down,0.27658740000333637,1,0,0,99,-0.08,-2.7755575615628914e-17,down,0.1975457999506034,,,,,,,,,,,,,,,,,,,,,,,,,,,,,,,,,,,,,,,,,,,,,,,,,,,,,,,,,,,,NYY0JC,train_y,blue_star,top_left,2025-03-11_16h19.39.856,HideSeek_v1,2022.2.5,59.96695821272796,
,1,9,1,8,0,-1,62,,train_dim1_1,6,30,,,,2,0,2,0,,,,,,,,,0,0,0,0,0,5,5,5,4,0,4,0,,,,,,,,,,,,,,,,,,,,,,,,,,,,,,,,,,,,,,,,,,,,,,,,,,,,,,,,,,,,,,,,30,,,,,,,,1052.6115402000141,1052.6115402000141,1052.6115402000141,1052.6115402000141,1052.6115402000141,return,3.778899199969601,1,0,0,0,-0.08,-2.7755575615628914e-17,return,3.705093000025954,-25,2,-0.08,-2.7755575615628914e-17,,,,,,,,,,,,,,,,,,,,,,,,,,,,,,,,,,,,,,,,,,,,,,,,,,,,,,,,NYY0JC,train_y,blue_star,top_left,2025-03-11_16h19.39.856,HideSeek_v1,2022.2.5,59.96695821272796,
,1,8,1,5,0,-3,64,,train_dim1_1,7,30,,,,2,0,2,0,,,,,,,,,0,0,0,0,0,6,6,6,0,0,0,0,,,,,,,,,,,,,,,,,,,,,,,,,stimuli/alien_stimuli/64.png,,,,,,,,,,,,,,,,,,,,,,,,,,,,,stimuli/alien_stimuli/62.png,62,1,8,,,,,,,30,,,,,,,,1063.457442999992,1063.457442999992,1063.457442999992,1063.457442999992,1063.457442999992,down,1.2412286000326276,1,0,0,99,-0.08,0.15999999999999998,down,1.1555168999475427,,,,,1061.9061924999696,1063.457442999992,-0.08,0.24,0.08,0.0,0.28,-0.08,-0.08,-0.08,0.24,1057.9599311000202,1057.9599311000202,1057.9599311000202,1057.9599311000202,1057.9599311000202,1057.9599311000202,1057.9599311000202,1057.9599311000202,1057.9525738300058,4.056268199987244,return,3.918892100045923,,,,,,,,,,,,,,,,,,,,,,,,,,,,,,,,,NYY0JC,train_y,blue_star,top_left,2025-03-11_16h19.39.856,HideSeek_v1,2022.2.5,59.96695821272796,
,1,8,1,5,0,-3,64,,train_dim1_1,7,30,,,,2,0,2,0,,,,,,,,,0,0,0,0,0,6,6,6,1,0,1,0,,,,,,,,,,,,,,,,,,,,,,,,,,,,,,,,,,,,,,,,,,,,,,,,,,,,,,,,,,,,,,,,30,,,,,,,,1064.7059944000212,1064.7059944000212,1064.7059944000212,1064.7059944000212,1064.7059944000212,return,1.859687699994538,1,0,0,0,-0.08,0.15999999999999998,return,1.7789695000392385,-26,2,-0.08,0.15999999999999998,,,,,,,,,,,,,,,,,,,,,,,,,,,,,,,,,,,,,,,,,,,,,,,,,,,,,,,,NYY0JC,train_y,blue_star,top_left,2025-03-11_16h19.39.856,HideSeek_v1,2022.2.5,59.96695821272796,
,4,7,4,7,0,0,61,,train_dim1_1,8,30,,,,2,0,2,0,,,,,,,,,0,0,0,0,0,7,7,7,0,0,0,0,,,,,,,,,,,,,,,,,,,,,,,,,stimuli/alien_stimuli/61.png,,,,,,,,,,,,,,,,,,,,,,,,,,,,,stimuli/alien_stimuli/64.png,64,1,9,,,,,,,30,,,,,,,,1072.1146464999765,1072.1146464999765,1072.1146464999765,1072.1146464999765,1072.1146464999765,down,2.224308300006669,1,0,0,99,0.16,0.08,down,2.141818800009787,,,,,1070.5633920999826,1072.1146464999765,-0.08,0,0.24,0.0,0.12,-0.08,-0.08,-0.08,0,1068.1152578999754,1068.1152578999754,1068.1152578999754,1068.1152578999754,1068.1152578999754,1068.1152578999754,1068.1152578999754,1068.1152578999754,1068.1111662399956,2.5376945000025444,return,2.427939899964258,,,,,,,,,,,,,,,,,,,,,,,,,,,,,,,,,NYY0JC,train_y,blue_star,top_left,2025-03-11_16h19.39.856,HideSeek_v1,2022.2.5,59.96695821272796,
,4,7,4,7,0,0,61,,train_dim1_1,8,30,,,,2,0,2,0,,,,,,,,,0,0,0,0,0,7,7,7,1,0,1,0,,,,,,,,,,,,,,,,,,,,,,,,,,,,,,,,,,,,,,,,,,,,,,,,,,,,,,,,,,,,,,,,30,,,,,,,,1074.3468236000044,1074.3468236000044,1074.3468236000044,1074.3468236000044,1074.3468236000044,down,0.44248759996844456,1,0,0,99,0.16,0.0,down,0.36137369996868074,,,,,,,,,,,,,,,,,,,,,,,,,,,,,,,,,,,,,,,,,,,,,,,,,,,,,,,,,,,,NYY0JC,train_y,blue_star,top_left,2025-03-11_16h19.39.856,HideSeek_v1,2022.2.5,59.96695821272796,
,4,7,4,7,0,0,61,,train_dim1_1,8,30,,,,2,0,2,0,,,,,,,,,0,0,0,0,0,7,7,7,2,0,2,0,,,,,,,,,,,,,,,,,,,,,,,,,,,,,,,,,,,,,,,,,,,,,,,,,,,,,,,,,,,,,,,,30,,,,,,,,1074.7966367999907,1074.7966367999907,1074.7966367999907,1074.7966367999907,1074.7966367999907,down,0.8431991999968886,1,0,0,99,0.16,-0.08,down,0.7612493999768049,,,,,,,,,,,,,,,,,,,,,,,,,,,,,,,,,,,,,,,,,,,,,,,,,,,,,,,,,,,,NYY0JC,train_y,blue_star,top_left,2025-03-11_16h19.39.856,HideSeek_v1,2022.2.5,59.96695821272796,
,4,7,4,7,0,0,61,,train_dim1_1,8,30,,,,2,0,2,0,,,,,,,,,0,0,0,0,0,7,7,7,3,0,3,0,,,,,,,,,,,,,,,,,,,,,,,,,,,,,,,,,,,,,,,,,,,,,,,,,,,,,,,,,,,,,,,,30,,,,,,,,1075.6459370999946,1075.6459370999946,1075.6459370999946,1075.6459370999946,1075.6459370999946,down,1.1443569000111893,1,0,0,99,0.16,-0.16,down,1.0678113999892958,,,,,,,,,,,,,,,,,,,,,,,,,,,,,,,,,,,,,,,,,,,,,,,,,,,,,,,,,,,,NYY0JC,train_y,blue_star,top_left,2025-03-11_16h19.39.856,HideSeek_v1,2022.2.5,59.96695821272796,
,4,7,4,7,0,0,61,,train_dim1_1,8,30,,,,2,0,2,0,,,,,,,,,0,0,0,0,0,7,7,7,4,0,4,0,,,,,,,,,,,,,,,,,,,,,,,,,,,,,,,,,,,,,,,,,,,,,,,,,,,,,,,,,,,,,,,,30,,,,,,,,1076.797896199976,1076.797896199976,1076.797896199976,1076.797896199976,1076.797896199976,return,1.3276135000051,1,0,0,0,0.16,-0.16,return,1.2454919999581762,-30,2,0.16,-0.16,,,,,,,,,,,,,,,,,,,,,,,,,,,,,,,,,,,,,,,,,,,,,,,,,,,,,,,,NYY0JC,train_y,blue_star,top_left,2025-03-11_16h19.39.856,HideSeek_v1,2022.2.5,59.96695821272796,
,4,8,4,4,0,-4,65,,train_dim1_1,9,30,,,,2,0,2,0,,,,,,,,,0,0,0,0,0,8,8,8,0,0,0,0,,,,,,,,,,,,,,,,,,,,,,,,,stimuli/alien_stimuli/65.png,,,,,,,,,,,,,,,,,,,,,,,,,,,,,stimuli/alien_stimuli/61.png,61,4,10,,,,,,,30,,,,,,,,1084.8925736999954,1084.8925736999954,1084.8925736999954,1084.8925736999954,1084.8925736999954,down,1.7908324000309221,1,0,0,99,0.16,0.15999999999999998,down,1.717455499980133,,,,,1083.3403459999827,1084.8925736999954,0.16,0.16,0.0,0.0,0.16,0.16,0.16,0.16,0.16,1079.6922236999962,1079.6922236999962,1079.6922236999962,1079.6922236999962,1079.6922236999962,1079.6922236999962,1079.6922236999962,1079.6922236999962,1079.6874517299934,3.7552920000161976,return,3.617245199973695,,,,,,,,,,,,,,,,,,,,,,,,,,,,,,,,,NYY0JC,train_y,blue_star,top_left,2025-03-11_16h19.39.856,HideSeek_v1,2022.2.5,59.96695821272796,
,4,8,4,4,0,-4,65,,train_dim1_1,9,30,,,,2,0,2,0,,,,,,,,,0,0,0,0,0,8,8,8,1,0,1,0,,,,,,,,,,,,,,,,,,,,,,,,,,,,,,,,,,,,,,,,,,,,,,,,,,,,,,,,,,,,,,,,30,,,,,,,,1086.6906191000016,1086.6906191000016,1086.6906191000016,1086.6906191000016,1086.6906191000016,down,0.4089897000230849,1,0,0,99,0.16,0.07999999999999997,down,0.32637359999353066,,,,,,,,,,,,,,,,,,,,,,,,,,,,,,,,,,,,,,,,,,,,,,,,,,,,,,,,,,,,NYY0JC,train_y,blue_star,top_left,2025-03-11_16h19.39.856,HideSeek_v1,2022.2.5,59.96695821272796,
,4,8,4,4,0,-4,65,,train_dim1_1,9,30,,,,2,0,2,0,,,,,,,,,0,0,0,0,0,8,8,8,2,0,2,0,,,,,,,,,,,,,,,,,,,,,,,,,,,,,,,,,,,,,,,,,,,,,,,,,,,,,,,,,,,,,,,,30,,,,,,,,1087.106634799973,1087.106634799973,1087.106634799973,1087.106634799973,1087.106634799973,down,0.5932669999892823,1,0,0,99,0.16,-2.7755575615628914e-17,down,0.5164835000177845,,,,,,,,,,,,,,,,,,,,,,,,,,,,,,,,,,,,,,,,,,,,,,,,,,,,,,,,,,,,NYY0JC,train_y,blue_star,top_left,2025-03-11_16h19.39.856,HideSeek_v1,2022.2.5,59.96695821272796,
,4,8,4,4,0,-4,65,,train_dim1_1,9,30,,,,2,0,2,0,,,,,,,,,0,0,0,0,0,8,8,8,3,0,3,0,,,,,,,,,,,,,,,,,,,,,,,,,,,,,,,,,,,,,,,,,,,,,,,,,,,,,,,,,,,,,,,,30,,,,,,,,1087.7065806000028,1087.7065806000028,1087.7065806000028,1087.7065806000028,1087.7065806000028,down,0.409852700016927,1,0,0,99,0.16,-0.08000000000000003,down,0.33683270000619814,,,,,,,,,,,,,,,,,,,,,,,,,,,,,,,,,,,,,,,,,,,,,,,,,,,,,,,,,,,,NYY0JC,train_y,blue_star,top_left,2025-03-11_16h19.39.856,HideSeek_v1,2022.2.5,59.96695821272796,
,4,8,4,4,0,-4,65,,train_dim1_1,9,30,,,,2,0,2,0,,,,,,,,,0,0,0,0,0,8,8,8,4,0,4,0,,,,,,,,,,,,,,,,,,,,,,,,,,,,,,,,,,,,,,,,,,,,,,,,,,,,,,,,,,,,,,,,30,,,,,,,,1088.1243254999863,1088.1243254999863,1088.1243254999863,1088.1243254999863,1088.1243254999863,down,0.40996020002057776,1,0,0,99,0.16,-0.16000000000000003,down,0.3266321999835782,,,,,,,,,,,,,,,,,,,,,,,,,,,,,,,,,,,,,,,,,,,,,,,,,,,,,,,,,,,,NYY0JC,train_y,blue_star,top_left,2025-03-11_16h19.39.856,HideSeek_v1,2022.2.5,59.96695821272796,
,4,8,4,4,0,-4,65,,train_dim1_1,9,30,,,,2,0,2,0,,,,,,,,,0,0,0,0,0,8,8,8,5,0,5,0,,,,,,,,,,,,,,,,,,,,,,,,,,,,,,,,,,,,,,,,,,,,,,,,,,,,,,,,,,,,,,,,30,,,,,,,,1088.5411293000216,1088.5411293000216,1088.5411293000216,1088.5411293000216,1088.5411293000216,down,0.4103010999970138,1,0,0,99,0.16,-0.24000000000000005,down,0.3282512000296265,,,,,,,,,,,,,,,,,,,,,,,,,,,,,,,,,,,,,,,,,,,,,,,,,,,,,,,,,,,,NYY0JC,train_y,blue_star,top_left,2025-03-11_16h19.39.856,HideSeek_v1,2022.2.5,59.96695821272796,
,4,8,4,4,0,-4,65,,train_dim1_1,9,30,,,,2,0,2,0,,,,,,,,,0,0,0,0,0,8,8,8,6,0,6,0,,,,,,,,,,,,,,,,,,,,,,,,,,,,,,,,,,,,,,,,,,,,,,,,,,,,,,,,,,,,,,,,30,,,,,,,,1088.9579472999903,1088.9579472999903,1088.9579472999903,1088.9579472999903,1088.9579472999903,return,0.7100055000046268,1,0,0,0,0.16,-0.24000000000000005,return,0.6236821000347845,-36,2,0.16,-0.24000000000000005,,,,,,,,,,,,,,,,,,,,,,,,,,,,,,,,,,,,,,,,,,,,,,,,,,,,,,,,NYY0JC,train_y,blue_star,top_left,2025-03-11_16h19.39.856,HideSeek_v1,2022.2.5,59.96695821272796,
,2,7,2,2,0,-5,66,,train_dim1_1,10,30,,,,2,0,2,0,,,,,,,,,0,0,0,0,0,9,9,9,0,0,0,0,,,,,,,,,,,,,,,,,,,,,,,,,stimuli/alien_stimuli/66.png,,,,,,,,,,,,,,,,,,,,,,,,,,,,,stimuli/alien_stimuli/65.png,65,4,11,,,,,,,30,,,,,,,,1095.2839119000128,1095.2839119000128,1095.2839119000128,1095.2839119000128,1095.2839119000128,down,1.4740103000076488,1,0,0,99,0,0.08,down,1.3993086999980733,,,,,1093.7326327000046,1095.2839119000128,0.16,-0.08,0.32,0.0,0.07999999999999999,0.16,0.16,0.16,-0.08,1091.2322430000058,1091.2322430000058,1091.2322430000058,1091.2322430000058,1091.2322430000058,1091.2322430000058,1091.2322430000058,1091.2322430000058,1091.2306179300417,2.6043357000453398,return,2.4791072999942116,,,,,,,,,,,,,,,,,,,,,,,,,,,,,,,,,NYY0JC,train_y,blue_star,top_left,2025-03-11_16h19.39.856,HideSeek_v1,2022.2.5,59.96695821272796,
,2,7,2,2,0,-5,66,,train_dim1_1,10,30,,,,2,0,2,0,,,,,,,,,0,0,0,0,0,9,9,9,1,0,1,0,,,,,,,,,,,,,,,,,,,,,,,,,,,,,,,,,,,,,,,,,,,,,,,,,,,,,,,,,,,,,,,,30,,,,,,,,1096.7647446999908,1096.7647446999908,1096.7647446999908,1096.7647446999908,1096.7647446999908,return,1.5108401000034064,1,0,0,0,0,0.08,return,1.4279329999699257,-37,2,0,0.08,,,,,,,,,,,,,,,,,,,,,,,,,,,,,,,,,,,,,,,,,,,,,,,,,,,,,,,,NYY0JC,train_y,blue_star,top_left,2025-03-11_16h19.39.856,HideSeek_v1,2022.2.5,59.96695821272796,
,4,6,4,2,0,-4,65,,train_dim1_1,11,30,,,,2,0,2,0,,,,,,,,,0,0,0,0,0,10,10,10,0,0,0,0,,,,,,,,,,,,,,,,,,,,,,,,,stimuli/alien_stimuli/65.png,,,,,,,,,,,,,,,,,,,,,,,,,,,,,stimuli/alien_stimuli/66.png,66,2,12,,,,,,,30,,,,,,,,1104.659025800007,1104.659025800007,1104.659025800007,1104.659025800007,1104.659025800007,down,1.17380420002155,1,0,0,99,0.16,0.0,down,1.0843292000354268,,,,,1103.1071011999738,1104.659025800007,0,-0.24,0.4,0.0,-0.039999999999999994,0,0.0,0,-0.24,1099.8266282000113,1099.8266282000113,1099.8266282000113,1099.8266282000113,1099.8266282000113,1099.8266282000113,1099.8266282000113,1099.8266282000113,1099.8212202400202,3.3716868000337854,return,3.2494947999948636,,,,,,,,,,,,,,,,,,,,,,,,,,,,,,,,,NYY0JC,train_y,blue_star,top_left,2025-03-11_16h19.39.856,HideSeek_v1,2022.2.5,59.96695821272796,
,4,6,4,2,0,-4,65,,train_dim1_1,11,30,,,,2,0,2,0,,,,,,,,,0,0,0,0,0,10,10,10,1,0,1,0,,,,,,,,,,,,,,,,,,,,,,,,,,,,,,,,,,,,,,,,,,,,,,,,,,,,,,,,,,,,,,,,30,,,,,,,,1105.8383646999719,1105.8383646999719,1105.8383646999719,1105.8383646999719,1105.8383646999719,down,1.0268020000075921,1,0,0,99,0.16,-0.08,down,0.9398746000370011,,,,,,,,,,,,,,,,,,,,,,,,,,,,,,,,,,,,,,,,,,,,,,,,,,,,,,,,,,,,NYY0JC,train_y,blue_star,top_left,2025-03-11_16h19.39.856,HideSeek_v1,2022.2.5,59.96695821272796,
,4,6,4,2,0,-4,65,,train_dim1_1,11,30,,,,2,0,2,0,,,,,,,,,0,0,0,0,0,10,10,10,2,0,2,0,,,,,,,,,,,,,,,,,,,,,,,,,,,,,,,,,,,,,,,,,,,,,,,,,,,,,,,,,,,,,,,,30,,,,,,,,1106.8731876999955,1106.8731876999955,1106.8731876999955,1106.8731876999955,1106.8731876999955,down,0.5599829999846406,1,0,0,99,0.16,-0.16,down,0.47362609999254346,,,,,,,,,,,,,,,,,,,,,,,,,,,,,,,,,,,,,,,,,,,,,,,,,,,,,,,,,,,,NYY0JC,train_y,blue_star,top_left,2025-03-11_16h19.39.856,HideSeek_v1,2022.2.5,59.96695821272796,
,4,6,4,2,0,-4,65,,train_dim1_1,11,30,,,,2,0,2,0,,,,,,,,,0,0,0,0,0,10,10,10,3,0,3,0,,,,,,,,,,,,,,,,,,,,,,,,,,,,,,,,,,,,,,,,,,,,,,,,,,,,,,,,,,,,,,,,30,,,,,,,,1107.4404923000257,1107.4404923000257,1107.4404923000257,1107.4404923000257,1107.4404923000257,return,0.9267994000110775,1,1,0,0,0.16,-0.16,return,0.8436350999982096,-40,2,0.16,-0.16,,,,,,,,,,,,,,,,,,,,,,,,,,,,,,,,,,,,,,,,,,,,,,,,,,,,,,,,NYY0JC,train_y,blue_star,top_left,2025-03-11_16h19.39.856,HideSeek_v1,2022.2.5,59.96695821272796,
,0,5,0,5,0,0,61,,train_dim1_1,12,30,,,,2,0,2,0,,,,,,,,,0,0,0,0,0,11,11,11,0,0,0,0,,,,,,,,,,,,,,,,,,,,,,,,,stimuli/alien_stimuli/61.png,,,,,,,,,,,,,,,,,,,,,,,,,,,,,stimuli/alien_stimuli/65.png,65,4,13,,,,,,,30,,,,,,,,1128.4428341999883,1128.4428341999883,1128.4428341999883,1128.4428341999883,1128.4428341999883,down,2.1409451000508852,1,1,0,99,-0.16,-0.08,down,2.049746499978937,,,,,1126.8767101999838,1128.4428341999883,0.16,-0.24,0.32,0.0,-0.07999999999999999,0.16,0.16,0.16,-0.24,1109.9174577000085,1109.9174577000085,1109.9174577000085,1109.9174577000085,1109.9174577000085,1109.9174577000085,1109.9174577000085,1109.9174577000085,1109.9128933400382,17.049644600017928,return,16.938833499967586,,,,,,,,,,,,,,,,,,,,,,,,,,,,,,,,,NYY0JC,train_y,blue_star,top_left,2025-03-11_16h19.39.856,HideSeek_v1,2022.2.5,59.96695821272796,
,0,5,0,5,0,0,61,,train_dim1_1,12,30,,,,2,0,2,0,,,,,,,,,0,0,0,0,0,11,11,11,1,0,1,0,,,,,,,,,,,,,,,,,,,,,,,,,,,,,,,,,,,,,,,,,,,,,,,,,,,,,,,,,,,,,,,,30,,,,,,,,1130.576913399971,1130.576913399971,1130.576913399971,1130.576913399971,1130.576913399971,up,1.4264065999886952,1,1,0,99,-0.16,0.0,up,1.3444990999996662,,,,,,,,,,,,,,,,,,,,,,,,,,,,,,,,,,,,,,,,,,,,,,,,,,,,,,,,,,,,NYY0JC,train_y,blue_star,top_left,2025-03-11_16h19.39.856,HideSeek_v1,2022.2.5,59.96695821272796,
,0,5,0,5,0,0,61,,train_dim1_1,12,30,,,,2,0,2,0,,,,,,,,,0,0,0,0,0,11,11,11,2,0,2,0,,,,,,,,,,,,,,,,,,,,,,,,,,,,,,,,,,,,,,,,,,,,,,,,,,,,,,,,,,,,,,,,30,,,,,,,,1132.0104475999833,1132.0104475999833,1132.0104475999833,1132.0104475999833,1132.0104475999833,return,0.6929762999643572,2,0,0,1,-0.16,0.0,return,0.6049667000188492,-40,2,-0.16,0.0,,,,,,,,,,,,,,,,,,,,,,,,,,,,,,,,,,,,,,,,,,,,,,,,,,,,,,,,NYY0JC,train_y,blue_star,top_left,2025-03-11_16h19.39.856,HideSeek_v1,2022.2.5,59.96695821272796,
,4,8,4,7,0,-1,62,,train_dim1_1,13,30,,,,2,0,2,0,,,,,,,,,0,0,0,0,0,12,12,12,0,0,0,0,,,,,,,,,,,,,,,,,,,,,,,,,stimuli/alien_stimuli/62.png,,,,,,,,,,,,,,,,,,,,,,,,,,,,,stimuli/alien_stimuli/61.png,61,0,14,,,,,,,30,,,,,,,,1138.8208508000243,1138.8208508000243,1138.8208508000243,1138.8208508000243,1138.8208508000243,down,1.8576814999687485,2,0,0,99,0.16,0.15999999999999998,down,1.7832935000187717,,,,,1137.2685167000163,1138.8208508000243,-0.16,0,0.0,0.0,0.0,-0.16,-0.16,-0.16,0,1134.272665700002,1134.272665700002,1134.272665700002,1134.272665700002,1134.272665700002,1134.272665700002,1134.272665700002,1134.272665700002,1134.2662543300307,3.1050205000210553,return,2.9687281000078656,,,,,,,,,,,,,,,,,,,,,,,,,,,,,,,,,NYY0JC,train_y,blue_star,top_left,2025-03-11_16h19.39.856,HideSeek_v1,2022.2.5,59.96695821272796,
,4,8,4,7,0,-1,62,,train_dim1_1,13,30,,,,2,0,2,0,,,,,,,,,0,0,0,0,0,12,12,12,1,0,1,0,,,,,,,,,,,,,,,,,,,,,,,,,,,,,,,,,,,,,,,,,,,,,,,,,,,,,,,,,,,,,,,,30,,,,,,,,1140.6847325999988,1140.6847325999988,1140.6847325999988,1140.6847325999988,1140.6847325999988,down,0.5096598999807611,2,0,0,99,0.16,0.07999999999999997,down,0.4257283000042662,,,,,,,,,,,,,,,,,,,,,,,,,,,,,,,,,,,,,,,,,,,,,,,,,,,,,,,,,,,,NYY0JC,train_y,blue_star,top_left,2025-03-11_16h19.39.856,HideSeek_v1,2022.2.5,59.96695821272796,
,4,8,4,7,0,-1,62,,train_dim1_1,13,30,,,,2,0,2,0,,,,,,,,,0,0,0,0,0,12,12,12,2,0,2,0,,,,,,,,,,,,,,,,,,,,,,,,,,,,,,,,,,,,,,,,,,,,,,,,,,,,,,,,,,,,,,,,30,,,,,,,,1141.2014424999943,1141.2014424999943,1141.2014424999943,1141.2014424999943,1141.2014424999943,return,0.9936492000124417,2,1,0,0,0.16,0.07999999999999997,return,0.9144854000187479,-42,2,0.16,0.07999999999999997,,,,,,,,,,,,,,,,,,,,,,,,,,,,,,,,,,,,,,,,,,,,,,,,,,,,,,,,NYY0JC,train_y,blue_star,top_left,2025-03-11_16h19.39.856,HideSeek_v1,2022.2.5,59.96695821272796,
,2,7,2,2,0,-5,66,,train_dim1_1,14,30,,,,2,0,2,0,,,,,,,,,0,0,0,0,0,13,13,13,0,0,0,0,,,,,,,,,,,,,,,,,,,,,,,,,stimuli/alien_stimuli/66.png,,,,,,,,,,,,,,,,,,,,,,,,,,,,,stimuli/alien_stimuli/62.png,62,4,15,,,,,,,30,,,,,,,,1155.4314275999786,1155.4314275999786,1155.4314275999786,1155.4314275999786,1155.4314275999786,down,2.55792609998025,2,1,0,99,0,0.08,down,2.4594778000027873,,,,,1153.8654163000174,1155.4314275999786,0.16,0.16,0.08,0.0,0.2,0.16,0.16,0.16,0.16,1143.7453402000247,1143.7453402000247,1143.7453402000247,1143.7453402000247,1143.7453402000247,1143.7453402000247,1143.7453402000247,1143.7453402000247,1143.7408441399923,10.210427000012714,return,10.09383569995407,,,,,,,,,,,,,,,,,,,,,,,,,,,,,,,,,NYY0JC,train_y,blue_star,top_left,2025-03-11_16h19.39.856,HideSeek_v1,2022.2.5,59.96695821272796,
,2,7,2,2,0,-5,66,,train_dim1_1,14,30,,,,2,0,2,0,,,,,,,,,0,0,0,0,0,13,13,13,1,0,1,0,,,,,,,,,,,,,,,,,,,,,,,,,,,,,,,,,,,,,,,,,,,,,,,,,,,,,,,,,,,,,,,,30,,,,,,,,1157.9840738999774,1157.9840738999774,1157.9840738999774,1157.9840738999774,1157.9840738999774,down,0.376422300003469,2,1,0,99,0,0.0,down,0.2982482999796048,,,,,,,,,,,,,,,,,,,,,,,,,,,,,,,,,,,,,,,,,,,,,,,,,,,,,,,,,,,,NYY0JC,train_y,blue_star,top_left,2025-03-11_16h19.39.856,HideSeek_v1,2022.2.5,59.96695821272796,
,2,7,2,2,0,-5,66,,train_dim1_1,14,30,,,,2,0,2,0,,,,,,,,,0,0,0,0,0,13,13,13,2,0,2,0,,,,,,,,,,,,,,,,,,,,,,,,,,,,,,,,,,,,,,,,,,,,,,,,,,,,,,,,,,,,,,,,30,,,,,,,,1158.3658143000212,1158.3658143000212,1158.3658143000212,1158.3658143000212,1158.3658143000212,down,0.27603339997585863,2,1,0,99,0,-0.08,down,0.19283630000427365,,,,,,,,,,,,,,,,,,,,,,,,,,,,,,,,,,,,,,,,,,,,,,,,,,,,,,,,,,,,NYY0JC,train_y,blue_star,top_left,2025-03-11_16h19.39.856,HideSeek_v1,2022.2.5,59.96695821272796,
,2,7,2,2,0,-5,66,,train_dim1_1,14,30,,,,2,0,2,0,,,,,,,,,0,0,0,0,0,13,13,13,3,0,3,0,,,,,,,,,,,,,,,,,,,,,,,,,,,,,,,,,,,,,,,,,,,,,,,,,,,,,,,,,,,,,,,,30,,,,,,,,1158.6490113000036,1158.6490113000036,1158.6490113000036,1158.6490113000036,1158.6490113000036,down,0.7603796999901533,2,1,0,99,0,-0.16,down,0.6780412999796681,,,,,,,,,,,,,,,,,,,,,,,,,,,,,,,,,,,,,,,,,,,,,,,,,,,,,,,,,,,,NYY0JC,train_y,blue_star,top_left,2025-03-11_16h19.39.856,HideSeek_v1,2022.2.5,59.96695821272796,
,2,7,2,2,0,-5,66,,train_dim1_1,14,30,,,,2,0,2,0,,,,,,,,,0,0,0,0,0,13,13,13,4,0,4,0,,,,,,,,,,,,,,,,,,,,,,,,,,,,,,,,,,,,,,,,,,,,,,,,,,,,,,,,,,,,,,,,30,,,,,,,,1159.4168790000258,1159.4168790000258,1159.4168790000258,1159.4168790000258,1159.4168790000258,return,0.3932545999996364,2,1,0,0,0,-0.16,return,0.3117977000074461,-46,2,0,-0.16,,,,,,,,,,,,,,,,,,,,,,,,,,,,,,,,,,,,,,,,,,,,,,,,,,,,,,,,NYY0JC,train_y,blue_star,top_left,2025-03-11_16h19.39.856,HideSeek_v1,2022.2.5,59.96695821272796,
,1,9,1,6,0,-3,64,,train_dim1_1,15,30,,,,2,0,2,0,,,,,,,,,0,0,0,0,0,14,14,14,0,0,0,0,,,,,,,,,,,,,,,,,,,,,,,,,stimuli/alien_stimuli/64.png,,,,,,,,,,,,,,,,,,,,,,,,,,,,,stimuli/alien_stimuli/66.png,66,2,16,,,,,,,30,,,,,,,,1165.0755689999787,1165.0755689999787,1165.0755689999787,1165.0755689999787,1165.0755689999787,down,5.126300400006585,2,1,0,99,-0.08,0.24,down,5.039247500011697,,,,,1163.524169399985,1165.0755689999787,0,-0.24,0.4,0.0,-0.039999999999999994,0,0.0,0,-0.24,1161.3770578000112,1161.3770578000112,1161.3770578000112,1161.3770578000112,1161.3770578000112,1161.3770578000112,1161.3770578000112,1161.3770578000112,1161.3718399299892,2.2548625000054017,return,2.1263612000038847,,,,,,,,,,,,,,,,,,,,,,,,,,,,,,,,,NYY0JC,train_y,blue_star,top_left,2025-03-11_16h19.39.856,HideSeek_v1,2022.2.5,59.96695821272796,
,1,9,1,6,0,-3,64,,train_dim1_1,15,30,,,,2,0,2,0,,,,,,,,,0,0,0,0,0,14,14,14,1,0,1,0,,,,,,,,,,,,,,,,,,,,,,,,,,,,,,,,,,,,,,,,,,,,,,,,,,,,,,,,,,,,,,,,30,,,,,,,,1170.2105757999816,1170.2105757999816,1170.2105757999816,1170.2105757999816,1170.2105757999816,return,0.8420747000491247,2,0,0,0,-0.08,0.24,return,0.7559058999759145,-47,2,-0.08,0.24,,,,,,,,,,,,,,,,,,,,,,,,,,,,,,,,,,,,,,,,,,,,,,,,,,,,,,,,NYY0JC,train_y,blue_star,top_left,2025-03-11_16h19.39.856,HideSeek_v1,2022.2.5,59.96695821272796,
,4,5,4,1,0,-4,65,,train_dim1_1,16,30,,,,2,0,2,0,,,,,,,,,0,0,0,0,0,15,15,15,0,0,0,0,,,,,,,,,,,,,,,,,,,,,,,,,stimuli/alien_stimuli/65.png,,,,,,,,,,,,,,,,,,,,,,,,,,,,,stimuli/alien_stimuli/64.png,64,1,17,,,,,,,30,,,,,,,,1177.3695539999753,1177.3695539999753,1177.3695539999753,1177.3695539999753,1177.3695539999753,down,2.508206899976358,2,0,0,99,0.16,-0.08,down,2.4299069000408053,,,,,1175.8166267999914,1177.3695539999753,-0.08,0.08,0.24,0.0,0.2,-0.08,-0.08,-0.08,0.08,1172.6186425000196,1172.6186425000196,1172.6186425000196,1172.6186425000196,1172.6186425000196,1172.6186425000196,1172.6186425000196,1172.6186425000196,1172.6146854299936,3.3048219999764115,return,3.172941799974069,,,,,,,,,,,,,,,,,,,,,,,,,,,,,,,,,NYY0JC,train_y,blue_star,top_left,2025-03-11_16h19.39.856,HideSeek_v1,2022.2.5,59.96695821272796,
,4,5,4,1,0,-4,65,,train_dim1_1,16,30,,,,2,0,2,0,,,,,,,,,0,0,0,0,0,15,15,15,1,0,1,0,,,,,,,,,,,,,,,,,,,,,,,,,,,,,,,,,,,,,,,,,,,,,,,,,,,,,,,,,,,,,,,,30,,,,,,,,1179.8826413999777,1179.8826413999777,1179.8826413999777,1179.8826413999777,1179.8826413999777,down,0.3599057999672368,2,0,0,99,0.16,-0.16,down,0.27257049997569993,,,,,,,,,,,,,,,,,,,,,,,,,,,,,,,,,,,,,,,,,,,,,,,,,,,,,,,,,,,,NYY0JC,train_y,blue_star,top_left,2025-03-11_16h19.39.856,HideSeek_v1,2022.2.5,59.96695821272796,
,4,5,4,1,0,-4,65,,train_dim1_1,16,30,,,,2,0,2,0,,,,,,,,,0,0,0,0,0,15,15,15,2,0,2,0,,,,,,,,,,,,,,,,,,,,,,,,,,,,,,,,,,,,,,,,,,,,,,,,,,,,,,,,,,,,,,,,30,,,,,,,,1180.2508952000062,1180.2508952000062,1180.2508952000062,1180.2508952000062,1180.2508952000062,return,0.4098642999888398,2,0,0,0,0.16,-0.16,return,0.3231264000060037,-49,2,0.16,-0.16,,,,,,,,,,,,,,,,,,,,,,,,,,,,,,,,,,,,,,,,,,,,,,,,,,,,,,,,NYY0JC,train_y,blue_star,top_left,2025-03-11_16h19.39.856,HideSeek_v1,2022.2.5,59.96695821272796,
,3,8,3,5,0,-3,64,,train_dim1_1,17,30,,,,2,0,2,0,,,,,,,,,0,0,0,0,0,16,16,16,0,0,0,0,,,,,,,,,,,,,,,,,,,,,,,,,stimuli/alien_stimuli/64.png,,,,,,,,,,,,,,,,,,,,,,,,,,,,,stimuli/alien_stimuli/65.png,65,4,18,,,,,,,30,,,,,,,,1185.6238256000215,1185.6238256000215,1185.6238256000215,1185.6238256000215,1185.6238256000215,down,1.8580210999934934,2,0,0,99,0.08,0.15999999999999998,down,1.7706908999825828,,,,,1184.074309699994,1185.6238256000215,0.16,-0.32,0.32,0.0,-0.16,0.16,0.16,0.16,-0.32,1182.2088178999838,1182.2088178999838,1182.2088178999838,1182.2088178999838,1182.2088178999838,1182.2088178999838,1182.2088178999838,1182.2088178999838,1182.2058220400243,1.955104599997867,return,1.8449270999990404,,,,,,,,,,,,,,,,,,,,,,,,,,,,,,,,,NYY0JC,train_y,blue_star,top_left,2025-03-11_16h19.39.856,HideSeek_v1,2022.2.5,59.96695821272796,
,3,8,3,5,0,-3,64,,train_dim1_1,17,30,,,,2,0,2,0,,,,,,,,,0,0,0,0,0,16,16,16,1,0,1,0,,,,,,,,,,,,,,,,,,,,,,,,,,,,,,,,,,,,,,,,,,,,,,,,,,,,,,,,,,,,,,,,30,,,,,,,,1187.4905160000199,1187.4905160000199,1187.4905160000199,1187.4905160000199,1187.4905160000199,down,0.2757378999958746,2,0,0,99,0.08,0.07999999999999997,down,0.1888271000352688,,,,,,,,,,,,,,,,,,,,,,,,,,,,,,,,,,,,,,,,,,,,,,,,,,,,,,,,,,,,NYY0JC,train_y,blue_star,top_left,2025-03-11_16h19.39.856,HideSeek_v1,2022.2.5,59.96695821272796,
,3,8,3,5,0,-3,64,,train_dim1_1,17,30,,,,2,0,2,0,,,,,,,,,0,0,0,0,0,16,16,16,2,0,2,0,,,,,,,,,,,,,,,,,,,,,,,,,,,,,,,,,,,,,,,,,,,,,,,,,,,,,,,,,,,,,,,,30,,,,,,,,1187.77256209997,1187.77256209997,1187.77256209997,1187.77256209997,1187.77256209997,down,0.19318940001539886,2,0,0,99,0.08,-2.7755575615628914e-17,down,0.10821320000104606,,,,,,,,,,,,,,,,,,,,,,,,,,,,,,,,,,,,,,,,,,,,,,,,,,,,,,,,,,,,NYY0JC,train_y,blue_star,top_left,2025-03-11_16h19.39.856,HideSeek_v1,2022.2.5,59.96695821272796,
,3,8,3,5,0,-3,64,,train_dim1_1,17,30,,,,2,0,2,0,,,,,,,,,0,0,0,0,0,16,16,16,3,0,3,0,,,,,,,,,,,,,,,,,,,,,,,,,,,,,,,,,,,,,,,,,,,,,,,,,,,,,,,,,,,,,,,,30,,,,,,,,1187.9731223999988,1187.9731223999988,1187.9731223999988,1187.9731223999988,1187.9731223999988,return,0.8604142999975011,3,0,0,1,0.08,-2.7755575615628914e-17,return,0.7779049000237137,-52,2,0.08,-2.7755575615628914e-17,,,,,,,,,,,,,,,,,,,,,,,,,,,,,,,,,,,,,,,,,,,,,,,,,,,,,,,,NYY0JC,train_y,blue_star,top_left,2025-03-11_16h19.39.856,HideSeek_v1,2022.2.5,59.96695821272796,
,2,6,2,6,0,0,61,,train_dim1_1,18,30,,,,2,0,2,0,,,,,,,,,0,0,0,0,0,17,17,17,0,0,0,0,,,,,,,,,,,,,,,,,,,,,,,,,stimuli/alien_stimuli/61.png,,,,,,,,,,,,,,,,,,,,,,,,,,,,,stimuli/alien_stimuli/64.png,64,3,19,,,,,,,30,,,,,,,,1194.8670991000254,1194.8670991000254,1194.8670991000254,1194.8670991000254,1194.8670991000254,return,1.8575723000103608,4,0,0,1,0,0.08,return,1.771880299958866,-52,2,0,0.08,1193.3148034000187,1194.8670991000254,0.08,0,0.24,0.0,0.12,0.08,0.08,0.08,0,1190.3825895999908,1190.3825895999908,1190.3825895999908,1190.3825895999908,1190.3825895999908,1190.3825895999908,1190.3825895999908,1190.3825895999908,1190.3794429399888,3.0212536999606527,return,2.902610999997705,,,,,,,,,,,,,,,,,,,,,,,,,,,,,,,,,NYY0JC,train_y,blue_star,top_left,2025-03-11_16h19.39.856,HideSeek_v1,2022.2.5,59.96695821272796,
,0,9,0,8,0,-1,62,,train_dim1_1,19,30,,,,2,0,2,0,,,,,,,,,0,0,0,0,0,18,18,18,0,0,0,0,,,,,,,,,,,,,,,,,,,,,,,,,stimuli/alien_stimuli/62.png,,,,,,,,,,,,,,,,,,,,,,,,,,,,,stimuli/alien_stimuli/61.png,61,2,20,,,,,,,30,,,,,,,,1203.2739273000043,1203.2739273000043,1203.2739273000043,1203.2739273000043,1203.2739273000043,down,2.7918085000128485,4,0,0,99,-0.16,0.24,down,2.7192159999976866,,,,,1201.7219318000134,1203.2739273000043,0,0.08,0.0,0.0,0.08,0,0.0,0,0.08,1198.272805000015,1198.272805000015,1198.272805000015,1198.272805000015,1198.272805000015,1198.272805000015,1198.272805000015,1198.272805000015,1198.2693961399957,3.5382654999848455,return,3.424568000016734,,,,,,,,,,,,,,,,,,,,,,,,,,,,,,,,,NYY0JC,train_y,blue_star,top_left,2025-03-11_16h19.39.856,HideSeek_v1,2022.2.5,59.96695821272796,
,0,9,0,8,0,-1,62,,train_dim1_1,19,30,,,,2,0,2,0,,,,,,,,,0,0,0,0,0,18,18,18,1,0,1,0,,,,,,,,,,,,,,,,,,,,,,,,,,,,,,,,,,,,,,,,,,,,,,,,,,,,,,,,,,,,,,,,30,,,,,,,,1206.0725038999808,1206.0725038999808,1206.0725038999808,1206.0725038999808,1206.0725038999808,return,1.4272906999685802,5,0,0,1,-0.16,0.24,return,1.3422047999920323,-53,2,-0.16,0.24,,,,,,,,,,,,,,,,,,,,,,,,,,,,,,,,,,,,,,,,,,,,,,,,,,,,,,,,NYY0JC,train_y,blue_star,top_left,2025-03-11_16h19.39.856,HideSeek_v1,2022.2.5,59.96695821272796,
,2,5,2,0,0,-5,66,,train_dim1_1,20,30,,,,2,0,2,0,,,,,,,,,0,0,0,0,0,19,19,19,0,0,0,0,,,,,,,,,,,,,,,,,,,,,,,,,stimuli/alien_stimuli/66.png,,,,,,,,,,,,,,,,,,,,,,,,,,,,,stimuli/alien_stimuli/62.png,62,0,21,,,,,,,30,,,,,,,,1213.5985100999824,1213.5985100999824,1213.5985100999824,1213.5985100999824,1213.5985100999824,down,2.091029899951536,5,0,0,99,0,-0.08,down,2.0052534000133164,,,,,1212.0472900000168,1213.5985100999824,-0.16,0.24,0.08,0.0,0.28,-0.16,-0.16,-0.16,0.24,1209.0665795999812,1209.0665795999812,1209.0665795999812,1209.0665795999812,1209.0665795999812,1209.0665795999812,1209.0665795999812,1209.0665795999812,1209.061506530014,3.087953100039158,return,2.9505798000027426,,,,,,,,,,,,,,,,,,,,,,,,,,,,,,,,,NYY0JC,train_y,blue_star,top_left,2025-03-11_16h19.39.856,HideSeek_v1,2022.2.5,59.96695821272796,
,2,5,2,0,0,-5,66,,train_dim1_1,20,30,,,,2,0,2,0,,,,,,,,,0,0,0,0,0,19,19,19,1,0,1,0,,,,,,,,,,,,,,,,,,,,,,,,,,,,,,,,,,,,,,,,,,,,,,,,,,,,,,,,,,,,,,,,30,,,,,,,,1215.6972488000174,1215.6972488000174,1215.6972488000174,1215.6972488000174,1215.6972488000174,down,0.4427016000263393,5,0,0,99,0,-0.16,down,0.3582061999477446,,,,,,,,,,,,,,,,,,,,,,,,,,,,,,,,,,,,,,,,,,,,,,,,,,,,,,,,,,,,NYY0JC,train_y,blue_star,top_left,2025-03-11_16h19.39.856,HideSeek_v1,2022.2.5,59.96695821272796,
,2,5,2,0,0,-5,66,,train_dim1_1,20,30,,,,2,0,2,0,,,,,,,,,0,0,0,0,0,19,19,19,2,0,2,0,,,,,,,,,,,,,,,,,,,,,,,,,,,,,,,,,,,,,,,,,,,,,,,,,,,,,,,,,,,,,,,,30,,,,,,,,1216.1472711000242,1216.1472711000242,1216.1472711000242,1216.1472711000242,1216.1472711000242,down,1.4936880000168458,5,0,0,99,0,-0.24,down,1.4057964999810793,,,,,,,,,,,,,,,,,,,,,,,,,,,,,,,,,,,,,,,,,,,,,,,,,,,,,,,,,,,,NYY0JC,train_y,blue_star,top_left,2025-03-11_16h19.39.856,HideSeek_v1,2022.2.5,59.96695821272796,
,2,5,2,0,0,-5,66,,train_dim1_1,20,30,,,,2,0,2,0,,,,,,,,,0,0,0,0,0,19,19,19,3,0,3,0,,,,,,,,,,,,,,,,,,,,,,,,,,,,,,,,,,,,,,,,,,,,,,,,,,,,,,,,,,,,,,,,30,,,,,,,,1217.6476611000253,1217.6476611000253,1217.6476611000253,1217.6476611000253,1217.6476611000253,return,0.293034800037276,5,0,0,0,0,-0.24,return,0.21313030004967004,-56,2,0,-0.24,,,,,,,,,,,,,,,,,,,,,,,,,,,,,,,,,,,,,,,,,,,,,,,,,,,,,,,,NYY0JC,train_y,blue_star,top_left,2025-03-11_16h19.39.856,HideSeek_v1,2022.2.5,59.96695821272796,
,2,9,2,5,0,-4,65,,train_dim1_1,21,30,,,,2,0,2,0,,,,,,,,,0,0,0,0,0,20,20,20,0,0,0,0,,,,,,,,,,,,,,,,,,,,,,,,,stimuli/alien_stimuli/65.png,,,,,,,,,,,,,,,,,,,,,,,,,,,,,stimuli/alien_stimuli/66.png,66,2,22,,,,,,,30,,,,,,,,1222.8061340000131,1222.8061340000131,1222.8061340000131,1222.8061340000131,1222.8061340000131,down,0.8732485999935307,5,0,0,99,0,0.24,down,0.7943906000000425,,,,,1221.254795500019,1222.8061340000131,0,-0.4,0.4,0.0,-0.2,0,0.0,0,-0.4,1219.5099004000076,1219.5099004000076,1219.5099004000076,1219.5099004000076,1219.5099004000076,1219.5099004000076,1219.5099004000076,1219.5099004000076,1219.5036833300023,1.8535082000307739,return,1.713997000013478,,,,,,,,,,,,,,,,,,,,,,,,,,,,,,,,,NYY0JC,train_y,blue_star,top_left,2025-03-11_16h19.39.856,HideSeek_v1,2022.2.5,59.96695821272796,
,2,9,2,5,0,-4,65,,train_dim1_1,21,30,,,,2,0,2,0,,,,,,,,,0,0,0,0,0,20,20,20,1,0,1,0,,,,,,,,,,,,,,,,,,,,,,,,,,,,,,,,,,,,,,,,,,,,,,,,,,,,,,,,,,,,,,,,30,,,,,,,,1223.6860700999969,1223.6860700999969,1223.6860700999969,1223.6860700999969,1223.6860700999969,down,1.043230900017079,5,0,0,99,0,0.15999999999999998,down,0.9666835999814793,,,,,,,,,,,,,,,,,,,,,,,,,,,,,,,,,,,,,,,,,,,,,,,,,,,,,,,,,,,,NYY0JC,train_y,blue_star,top_left,2025-03-11_16h19.39.856,HideSeek_v1,2022.2.5,59.96695821272796,
,2,9,2,5,0,-4,65,,train_dim1_1,21,30,,,,2,0,2,0,,,,,,,,,0,0,0,0,0,20,20,20,2,0,2,0,,,,,,,,,,,,,,,,,,,,,,,,,,,,,,,,,,,,,,,,,,,,,,,,,,,,,,,,,,,,,,,,30,,,,,,,,1224.7377818999812,1224.7377818999812,1224.7377818999812,1224.7377818999812,1224.7377818999812,down,0.37594779999926686,5,0,0,99,0,0.07999999999999997,down,0.2946271999971941,,,,,,,,,,,,,,,,,,,,,,,,,,,,,,,,,,,,,,,,,,,,,,,,,,,,,,,,,,,,NYY0JC,train_y,blue_star,top_left,2025-03-11_16h19.39.856,HideSeek_v1,2022.2.5,59.96695821272796,
,2,9,2,5,0,-4,65,,train_dim1_1,21,30,,,,2,0,2,0,,,,,,,,,0,0,0,0,0,20,20,20,3,0,3,0,,,,,,,,,,,,,,,,,,,,,,,,,,,,,,,,,,,,,,,,,,,,,,,,,,,,,,,,,,,,,,,,30,,,,,,,,1225.120753599971,1225.120753599971,1225.120753599971,1225.120753599971,1225.120753599971,return,0.3593220000038855,5,1,0,0,0,0.07999999999999997,return,0.277442799997516,-59,2,0,0.07999999999999997,,,,,,,,,,,,,,,,,,,,,,,,,,,,,,,,,,,,,,,,,,,,,,,,,,,,,,,,NYY0JC,train_y,blue_star,top_left,2025-03-11_16h19.39.856,HideSeek_v1,2022.2.5,59.96695821272796,
,0,7,0,4,0,-3,64,,train_dim1_1,22,30,,,,2,0,2,0,,,,,,,,,0,0,0,0,0,21,21,21,0,0,0,0,,,,,,,,,,,,,,,,,,,,,,,,,stimuli/alien_stimuli/64.png,,,,,,,,,,,,,,,,,,,,,,,,,,,,,stimuli/alien_stimuli/65.png,65,2,23,,,,,,,30,,,,,,,,1230.1955687999725,1230.1955687999725,1230.1955687999725,1230.1955687999725,1230.1955687999725,return,2.1911418000236154,5,0,0,0,-0.16,0.16,return,2.117221399967093,-59,2,-0.16,0.16,1228.6443760999828,1230.1955687999725,0,0,0.32,0.0,0.16,0,0.0,0,0,1227.0297752000042,1227.0297752000042,1227.0297752000042,1227.0297752000042,1227.0297752000042,1227.0297752000042,1227.0297752000042,1227.0297752000042,1227.0263846400078,1.7036349000409245,return,1.5866999000427313,,,,,,,,,,,,,,,,,,,,,,,,,,,,,,,,,NYY0JC,train_y,blue_star,top_left,2025-03-11_16h19.39.856,HideSeek_v1,2022.2.5,59.96695821272796,
,0,8,0,8,0,0,61,,train_dim1_1,23,30,,,,2,0,2,0,,,,,,,,,0,0,0,0,0,22,22,22,0,0,0,0,,,,,,,,,,,,,,,,,,,,,,,,,stimuli/alien_stimuli/61.png,,,,,,,,,,,,,,,,,,,,,,,,,,,,,stimuli/alien_stimuli/64.png,64,0,24,,,,,,,30,,,,,,,,1237.3013053999748,1237.3013053999748,1237.3013053999748,1237.3013053999748,1237.3013053999748,return,1.6408861000090837,6,0,0,1,-0.16,0.24,return,1.5597478999989107,-59,2,-0.16,0.24,1235.750682700018,1237.3013053999748,-0.16,-0.08,0.24,0.0,0.04,-0.16,-0.16,-0.16,-0.08,1233.9345968000125,1233.9345968000125,1233.9345968000125,1233.9345968000125,1233.9345968000125,1233.9345968000125,1233.9345968000125,1233.9345968000125,1233.932244940009,1.9039964999537915,return,1.7994536000187509,,,,,,,,,,,,,,,,,,,,,,,,,,,,,,,,,NYY0JC,train_y,blue_star,top_left,2025-03-11_16h19.39.856,HideSeek_v1,2022.2.5,59.96695821272796,
,3,7,3,2,0,-5,66,,train_dim1_1,24,30,,,,2,0,2,0,,,,,,,,,0,0,0,0,0,23,23,23,0,0,0,0,,,,,,,,,,,,,,,,,,,,,,,,,stimuli/alien_stimuli/66.png,,,,,,,,,,,,,,,,,,,,,,,,,,,,,stimuli/alien_stimuli/61.png,61,0,25,,,,,,,30,,,,,,,,1244.173972700024,1244.173972700024,1244.173972700024,1244.173972700024,1244.173972700024,down,1.4908963000052609,6,0,0,99,0.08,0.08,down,1.4131722000311129,,,,,1242.6227169000194,1244.173972700024,-0.16,0.24,0.0,0.0,0.24,-0.16,-0.16,-0.16,0.24,1240.4951877999702,1240.4951877999702,1240.4951877999702,1240.4951877999702,1240.4951877999702,1240.4951877999702,1240.4951877999702,1240.4951877999702,1240.4874836400152,2.2208737999899313,return,2.0984014000277966,,,,,,,,,,,,,,,,,,,,,,,,,,,,,,,,,NYY0JC,train_y,blue_star,top_left,2025-03-11_16h19.39.856,HideSeek_v1,2022.2.5,59.96695821272796,
,3,7,3,2,0,-5,66,,train_dim1_1,24,30,,,,2,0,2,0,,,,,,,,,0,0,0,0,0,23,23,23,1,0,1,0,,,,,,,,,,,,,,,,,,,,,,,,,,,,,,,,,,,,,,,,,,,,,,,,,,,,,,,,,,,,,,,,30,,,,,,,,1245.67136019998,1245.67136019998,1245.67136019998,1245.67136019998,1245.67136019998,down,0.2757353999768384,6,0,0,99,0.08,0.0,down,0.19669940002495423,,,,,,,,,,,,,,,,,,,,,,,,,,,,,,,,,,,,,,,,,,,,,,,,,,,,,,,,,,,,NYY0JC,train_y,blue_star,top_left,2025-03-11_16h19.39.856,HideSeek_v1,2022.2.5,59.96695821272796,
,3,7,3,2,0,-5,66,,train_dim1_1,24,30,,,,2,0,2,0,,,,,,,,,0,0,0,0,0,23,23,23,2,0,2,0,,,,,,,,,,,,,,,,,,,,,,,,,,,,,,,,,,,,,,,,,,,,,,,,,,,,,,,,,,,,,,,,30,,,,,,,,1245.9550438000006,1245.9550438000006,1245.9550438000006,1245.9550438000006,1245.9550438000006,down,0.3432084000087343,6,0,0,99,0.08,-0.08,down,0.2634801000240259,,,,,,,,,,,,,,,,,,,,,,,,,,,,,,,,,,,,,,,,,,,,,,,,,,,,,,,,,,,,NYY0JC,train_y,blue_star,top_left,2025-03-11_16h19.39.856,HideSeek_v1,2022.2.5,59.96695821272796,
,3,7,3,2,0,-5,66,,train_dim1_1,24,30,,,,2,0,2,0,,,,,,,,,0,0,0,0,0,23,23,23,3,0,3,0,,,,,,,,,,,,,,,,,,,,,,,,,,,,,,,,,,,,,,,,,,,,,,,,,,,,,,,,,,,,,,,,30,,,,,,,,1246.3068032999872,1246.3068032999872,1246.3068032999872,1246.3068032999872,1246.3068032999872,down,2.3277128000045195,6,0,0,99,0.08,-0.16,down,2.2538250999641605,,,,,,,,,,,,,,,,,,,,,,,,,,,,,,,,,,,,,,,,,,,,,,,,,,,,,,,,,,,,NYY0JC,train_y,blue_star,top_left,2025-03-11_16h19.39.856,HideSeek_v1,2022.2.5,59.96695821272796,
,3,7,3,2,0,-5,66,,train_dim1_1,24,30,,,,2,0,2,0,,,,,,,,,0,0,0,0,0,23,23,23,4,0,4,0,,,,,,,,,,,,,,,,,,,,,,,,,,,,,,,,,,,,,,,,,,,,,,,,,,,,,,,,,,,,,,,,30,,,,,,,,1248.6403951999964,1248.6403951999964,1248.6403951999964,1248.6403951999964,1248.6403951999964,down,0.6433888000319712,6,0,0,99,0.08,-0.24,down,0.57029349997174,,,,,,,,,,,,,,,,,,,,,,,,,,,,,,,,,,,,,,,,,,,,,,,,,,,,,,,,,,,,NYY0JC,train_y,blue_star,top_left,2025-03-11_16h19.39.856,HideSeek_v1,2022.2.5,59.96695821272796,
,3,7,3,2,0,-5,66,,train_dim1_1,24,30,,,,2,0,2,0,,,,,,,,,0,0,0,0,0,23,23,23,5,0,5,0,,,,,,,,,,,,,,,,,,,,,,,,,,,,,,,,,,,,,,,,,,,,,,,,,,,,,,,,,,,,,,,,30,,,,,,,,1249.2904446999892,1249.2904446999892,1249.2904446999892,1249.2904446999892,1249.2904446999892,down,0.5434367000125349,6,0,0,99,0.08,-0.32,down,0.4694706000154838,,,,,,,,,,,,,,,,,,,,,,,,,,,,,,,,,,,,,,,,,,,,,,,,,,,,,,,,,,,,NYY0JC,train_y,blue_star,top_left,2025-03-11_16h19.39.856,HideSeek_v1,2022.2.5,59.96695821272796,
,3,7,3,2,0,-5,66,,train_dim1_1,24,30,,,,2,0,2,0,,,,,,,,,0,0,0,0,0,23,23,23,6,0,6,0,,,,,,,,,,,,,,,,,,,,,,,,,,,,,,,,,,,,,,,,,,,,,,,,,,,,,,,,,,,,,,,,30,,,,,,,,1249.8417422000202,1249.8417422000202,1249.8417422000202,1249.8417422000202,1249.8417422000202,return,0.6600706000463106,6,1,0,0,0.08,-0.32,return,0.5832854000036605,-65,2,0.08,-0.32,,,,,,,,,,,,,,,,,,,,,,,,,,,,,,,,,,,,,,,,,,,,,,,,,,,,,,,,NYY0JC,train_y,blue_star,top_left,2025-03-11_16h19.39.856,HideSeek_v1,2022.2.5,59.96695821272796,
,3,8,3,7,0,-1,62,,train_dim1_1,25,30,,,,2,0,2,0,,,,,,,,,0,0,0,0,0,24,24,24,0,0,0,0,,,,,,,,,,,,,,,,,,,,,,,,,stimuli/alien_stimuli/62.png,,,,,,,,,,,,,,,,,,,,,,,,,,,,,stimuli/alien_stimuli/66.png,66,3,26,,,,,,,30,,,,,,,,1255.667307799973,1255.667307799973,1255.667307799973,1255.667307799973,1255.667307799973,down,1.6402859999798238,6,1,0,99,0.08,0.15999999999999998,down,1.5674596999888308,,,,,1254.1155873999815,1255.667307799973,0.08,-0.24,0.4,0.0,-0.039999999999999994,0.08,0.08,0.08,-0.24,1252.0684564000112,1252.0684564000112,1252.0684564000112,1252.0684564000112,1252.0684564000112,1252.0684564000112,1252.0684564000112,1252.0684564000112,1252.063893530029,2.154043999966234,return,2.0234983999980614,,,,,,,,,,,,,,,,,,,,,,,,,,,,,,,,,NYY0JC,train_y,blue_star,top_left,2025-03-11_16h19.39.856,HideSeek_v1,2022.2.5,59.96695821272796,
,3,8,3,7,0,-1,62,,train_dim1_1,25,30,,,,2,0,2,0,,,,,,,,,0,0,0,0,0,24,24,24,1,0,1,0,,,,,,,,,,,,,,,,,,,,,,,,,,,,,,,,,,,,,,,,,,,,,,,,,,,,,,,,,,,,,,,,30,,,,,,,,1257.3153027999797,1257.3153027999797,1257.3153027999797,1257.3153027999797,1257.3153027999797,return,0.44167169998399913,7,0,0,1,0.08,0.15999999999999998,return,0.3578286000411026,-66,2,0.08,0.15999999999999998,,,,,,,,,,,,,,,,,,,,,,,,,,,,,,,,,,,,,,,,,,,,,,,,,,,,,,,,NYY0JC,train_y,blue_star,top_left,2025-03-11_16h19.39.856,HideSeek_v1,2022.2.5,59.96695821272796,
,4,9,4,6,0,-3,64,,train_dim1_1,26,30,,,,2,0,2,0,,,,,,,,,0,0,0,0,0,25,25,25,0,0,0,0,,,,,,,,,,,,,,,,,,,,,,,,,stimuli/alien_stimuli/64.png,,,,,,,,,,,,,,,,,,,,,,,,,,,,,stimuli/alien_stimuli/62.png,62,3,27,,,,,,,30,,,,,,,,1263.0884826999973,1263.0884826999973,1263.0884826999973,1263.0884826999973,1263.0884826999973,down,2.7581902000238188,7,0,0,99,0.16,0.24,down,2.6706576999858953,,,,,1261.538358699996,1263.0884826999973,0.08,0.16,0.08,0.0,0.2,0.08,0.08,0.08,0.16,1259.3074989999877,1259.3074989999877,1259.3074989999877,1259.3074989999877,1259.3074989999877,1259.3074989999877,1259.3074989999877,1259.3074989999877,1259.3032190400293,2.3206790999975055,return,2.2109696000115946,,,,,,,,,,,,,,,,,,,,,,,,,,,,,,,,,NYY0JC,train_y,blue_star,top_left,2025-03-11_16h19.39.856,HideSeek_v1,2022.2.5,59.96695821272796,
,4,9,4,6,0,-3,64,,train_dim1_1,26,30,,,,2,0,2,0,,,,,,,,,0,0,0,0,0,25,25,25,1,0,1,0,,,,,,,,,,,,,,,,,,,,,,,,,,,,,,,,,,,,,,,,,,,,,,,,,,,,,,,,,,,,,,,,30,,,,,,,,1265.854528900003,1265.854528900003,1265.854528900003,1265.854528900003,1265.854528900003,down,0.2762261999887414,7,0,0,99,0.16,0.15999999999999998,down,0.20397969998884946,,,,,,,,,,,,,,,,,,,,,,,,,,,,,,,,,,,,,,,,,,,,,,,,,,,,,,,,,,,,NYY0JC,train_y,blue_star,top_left,2025-03-11_16h19.39.856,HideSeek_v1,2022.2.5,59.96695821272796,
,4,9,4,6,0,-3,64,,train_dim1_1,26,30,,,,2,0,2,0,,,,,,,,,0,0,0,0,0,25,25,25,2,0,2,0,,,,,,,,,,,,,,,,,,,,,,,,,,,,,,,,,,,,,,,,,,,,,,,,,,,,,,,,,,,,,,,,30,,,,,,,,1266.1396943000145,1266.1396943000145,1266.1396943000145,1266.1396943000145,1266.1396943000145,down,1.3270393999991938,7,0,0,99,0.16,0.07999999999999997,down,1.2387136000324972,,,,,,,,,,,,,,,,,,,,,,,,,,,,,,,,,,,,,,,,,,,,,,,,,,,,,,,,,,,,NYY0JC,train_y,blue_star,top_left,2025-03-11_16h19.39.856,HideSeek_v1,2022.2.5,59.96695821272796,
