trialInstr,x_fixStart,y_fixStart,x_corrSteps,y_corrSteps,x_nrSteps,y_nrSteps,alienID,trialLength,version,trialTrain,praclen,testlen,trial_label,break_on_off,beforeExpLoop.thisRepN,beforeExpLoop.thisTrialN,beforeExpLoop.thisN,beforeExpLoop.thisIndex,mini_instr_trials.thisRepN,mini_instr_trials.thisTrialN,mini_instr_trials.thisN,mini_instr_trials.thisIndex,instrLoop.thisRepN,instrLoop.thisTrialN,instrLoop.thisN,instrLoop.thisIndex,repeat_prac.thisRepN,repeat_prac.thisTrialN,repeat_prac.thisN,repeat_prac.thisIndex,trainLoop.thisRepN,trainLoop.thisTrialN,trainLoop.thisN,trainLoop.thisIndex,moveLoop_train.thisRepN,moveLoop_train.thisTrialN,moveLoop_train.thisN,moveLoop_train.thisIndex,experiment.thisRepN,experiment.thisTrialN,experiment.thisN,experiment.thisIndex,moveLoop_test.thisRepN,moveLoop_test.thisTrialN,moveLoop_test.thisN,moveLoop_test.thisIndex,mini_instr2_trials.thisRepN,mini_instr2_trials.thisTrialN,mini_instr2_trials.thisN,mini_instr2_trials.thisIndex,start_all_time,url,slideStim,audioStim,slides.started,sounds.started,nextButton.numClicks,nextButton.timesOn,nextButton.timesOff,prev_but.numClicks,prev_but.timesOn,prev_but.timesOff,alienStim,instrFile,alienStim_instr,gridImage_instr.started,startPos_3.started,key_instr.started,alienImage_3.started,sounds_1.started,key_instr.keys,key_instr.rt,all_x,all_y,FBy_corrSteps,FBy_fixStart,FBx_corrSteps,FBx_fixStart,FBy_pathSize_check,FBx_pathSize_check,gridImage_9.started,alienImageFB_3.started,startPosFB_3.started,keyFB_3.started,pathLine_ydir_2.started,pathLine_xdir_2.started,alienFace_3.started,sounds_2.started,RTFB_instr,keyFB_3.keys,keyFB_3.rt,draw_alienStim,draw_alienID,test_x,nrepcount,perfthres,percthres,earlierperf,earlystop,nextPrac,fileidx,praclen,saveACC_train,pracFile,nextPrac_train,addNrep,fileidx_endr,repExp,showearly,gridImage_4.started,startPos.started,movePos.started,key_resp.started,alienImage.started,buttonPress_train,RTchoice_train,cumAcctrain,aCorr,saveACC_choice,corrAns,x_movePos_end,y_movePos_end,key_resp.keys,key_resp.rt,wLy_dir,wLx_dir,x_movePos,y_movePos,text_2.started,text_2.stopped,aft_x_corrPos,aft_y_corrPos,y_pathSize_check,x_pathSize_check,y_pathdirY,x_pathdirY,x_pathdirX,x_corrPos,y_corrPos,gridImage_6.started,alienImageFB_2.started,startPosFB_2.started,movePosFB_2.started,keyFB_2.started,pathLine_xdir.started,pathLine_ydir.started,alienFace.started,sounds_4.started,RT_FBtrain,keyFB_2.keys,keyFB_2.rt,saveACC_pre,ACC,within_saveACC_train,earlystop_wloop,cumAcctrain_check,gridImage_3.started,alienImage_test.started,startPos_test.started,movePos_test.started,key_resp_test.started,wLy_dir_test,wLx_dir_test,buttonPress_test,RTchoice_test,cumAcctest,corrAns_test,key_resp_test.keys,key_resp_test.rt,text_3.started,text_3.stopped,total_time,end_all_time,key_resp_3.keys,slides_2.started,sounds_3.started,nextButton_2.numClicks,nextButton_2.timesOn,nextButton_2.timesOff,prev_but_2.numClicks,prev_but_2.timesOn,prev_but_2.timesOff,bye.started,participant,train_first,00_coordinate,starting corner,date,expName,psychopyVersion,frameRate,
,,,,,,,,,,,,,,,0,0,0,0,0,0,0,0,,,,,,,,,,,,,,,,,,,,,,,,,,,,,start_all_time,testround,conditions/schedules/train_y_first/blue_star_00/top_left/instructions/Slide1.png,conditions/schedules/train_y_first/blue_star_00/top_left/instructions/Audio1.wav,8061.220291099977,8061.165399366897,1,[7.800594500033185],[7.8006011000834405],0,,,,,,,,,,,,,,,,,,,,,,,,,,,,,,,,,,,,,,,,,,,,,,,,,,,,,,,,,,,,,,,,,,,,,,,,,,,,,,,,,,,,,,,,,,,,,,,,,,,,,,,,,,,,,,,,,,,,,,,,,,,,P42E9A,train_y,blue_star,top_left,2025-07-26_12h06.02.635,HideSeek_v1,2022.2.5,59.97753239889479,
,,,,,,,,,,,,,,,0,0,0,0,1,0,1,0,,,,,,,,,,,,,,,,,,,,,,,,,,,,,,,conditions/schedules/train_y_first/blue_star_00/top_left/instructions/Slide2.png,conditions/schedules/train_y_first/blue_star_00/top_left/instructions/Audio2.wav,8069.035501000006,8069.037668449804,2,"[7.800594500033185, 17.531518900068477]","[0.00021760002709925175, 17.531526499893516]",0,,,,,,,,,,,,,,,,,,,,,,,,,,,,,,,,,,,,,,,,,,,,,,,,,,,,,,,,,,,,,,,,,,,,,,,,,,,,,,,,,,,,,,,,,,,,,,,,,,,,,,,,,,,,,,,,,,,,,,,,,,,,P42E9A,train_y,blue_star,top_left,2025-07-26_12h06.02.635,HideSeek_v1,2022.2.5,59.97753239889479,
,,,,,,,,,,,,,,,0,0,0,0,2,0,2,0,,,,,,,,,,,,,,,,,,,,,,,,,,,,,,,conditions/schedules/train_y_first/blue_star_00/top_left/instructions/Slide3.png,conditions/schedules/train_y_first/blue_star_00/top_left/instructions/Audio3.wav,8086.637949199881,8086.635689849965,3,"[7.800594500033185, 17.531518900068477, 16.159148100065067]","[0.00021760002709925175, 0.04742199997417629, 16.159158100141212]",0,,,,,,,,,,,,,,,,,,,,,,,,,,,,,,,,,,,,,,,,,,,,,,,,,,,,,,,,,,,,,,,,,,,,,,,,,,,,,,,,,,,,,,,,,,,,,,,,,,,,,,,,,,,,,,,,,,,,,,,,,,,,P42E9A,train_y,blue_star,top_left,2025-07-26_12h06.02.635,HideSeek_v1,2022.2.5,59.97753239889479,
,,,,,,,,,,,,,,,0,0,0,0,3,0,3,0,,,,,,,,,,,,,,,,,,,,,,,,,,,,,,,conditions/schedules/train_y_first/blue_star_00/top_left/instructions/Slide4.png,conditions/schedules/train_y_first/blue_star_00/top_left/instructions/Audio4.wav,8102.879395799944,8102.866004549898,4,"[7.800594500033185, 17.531518900068477, 16.159148100065067, 19.034682699944824]","[0.00021760002709925175, 0.04742199997417629, 0.03461409988813102, 19.03469010000117]",0,,,,,,,,,,,,,,,,,,,,,,,,,,,,,,,,,,,,,,,,,,,,,,,,,,,,,,,,,,,,,,,,,,,,,,,,,,,,,,,,,,,,,,,,,,,,,,,,,,,,,,,,,,,,,,,,,,,,,,,,,,,,P42E9A,train_y,blue_star,top_left,2025-07-26_12h06.02.635,HideSeek_v1,2022.2.5,59.97753239889479,
,,,,,,,,,,,,,,,0,0,0,0,4,0,4,0,,,,,,,,,,,,,,,,,,,,,,,,,,,,,,,conditions/schedules/train_y_first/blue_star_00/top_left/instructions/Slide5.png,conditions/schedules/train_y_first/blue_star_00/top_left/instructions/Audio5.wav,8121.9679254000075,8121.964918679884,5,"[7.800594500033185, 17.531518900068477, 16.159148100065067, 19.034682699944824, 3.9980394998565316]","[0.00021760002709925175, 0.04742199997417629, 0.03461409988813102, 0.06254690000787377, 3.998046699911356]",0,,,,,,,,,,,,,,,,,,,,,,,,,,,,,,,,,,,,,,,,,,,,,,,,,,,,,,,,,,,,,,,,,,,,,,,,,,,,,,,,,,,,,,,,,,,,,,,,,,,,,,,,,,,,,,,,,,,,,,,,,,,,P42E9A,train_y,blue_star,top_left,2025-07-26_12h06.02.635,HideSeek_v1,2022.2.5,59.97753239889479,
,,,,,,,,,,,,,,,0,0,0,0,5,0,5,0,,,,,,,,,,,,,,,,,,,,,,,,,,,,,,,conditions/schedules/train_y_first/blue_star_00/top_left/instructions/Slide6.png,conditions/schedules/train_y_first/blue_star_00/top_left/instructions/Audio6.wav,8126.016482899897,8126.018472479983,6,"[7.800594500033185, 17.531518900068477, 16.159148100065067, 19.034682699944824, 3.9980394998565316, 4.75366839999333]","[0.00021760002709925175, 0.04742199997417629, 0.03461409988813102, 0.06254690000787377, 0.06586760003119707, 4.753674700157717]",0,,,,,,,,,,,,,,,,,,,,,,,,,,,,,,,,,,,,,,,,,,,,,,,,,,,,,,,,,,,,,,,,,,,,,,,,,,,,,,,,,,,,,,,,,,,,,,,,,,,,,,,,,,,,,,,,,,,,,,,,,,,,P42E9A,train_y,blue_star,top_left,2025-07-26_12h06.02.635,HideSeek_v1,2022.2.5,59.97753239889479,
,,,,,,,,,,,,,,,0,0,0,0,6,0,6,0,,,,,,,,,,,,,,,,,,,,,,,,,,,,,,,conditions/schedules/train_y_first/blue_star_00/top_left/instructions/Slide7.png,conditions/schedules/train_y_first/blue_star_00/top_left/instructions/Audio7.wav,8130.822050199844,8130.82306087981,7,"[7.800594500033185, 17.531518900068477, 16.159148100065067, 19.034682699944824, 3.9980394998565316, 4.75366839999333, 5.285493600182235]","[0.00021760002709925175, 0.04742199997417629, 0.03461409988813102, 0.06254690000787377, 0.06586760003119707, 0.014011500170454383, 5.285499700112268]",0,,,,,,,,,,,,,,,,,,,,,,,,,,,,,,,,,,,,,,,,,,,,,,,,,,,,,,,,,,,,,,,,,,,,,,,,,,,,,,,,,,,,,,,,,,,,,,,,,,,,,,,,,,,,,,,,,,,,,,,,,,,,P42E9A,train_y,blue_star,top_left,2025-07-26_12h06.02.635,HideSeek_v1,2022.2.5,59.97753239889479,
,,,,,,,,,,,,,,,0,0,0,0,7,0,7,0,,,,,,,,,,,,,,,,,,,,,,,,,,,,,,,conditions/schedules/train_y_first/blue_star_00/top_left/instructions/Slide8.png,conditions/schedules/train_y_first/blue_star_00/top_left/instructions/Audio8.wav,8136.162674600026,8136.160435179808,8,"[7.800594500033185, 17.531518900068477, 16.159148100065067, 19.034682699944824, 3.9980394998565316, 4.75366839999333, 5.285493600182235, 11.388134400127456]","[0.00021760002709925175, 0.04742199997417629, 0.03461409988813102, 0.06254690000787377, 0.06586760003119707, 0.014011500170454383, 0.030079100048169494, 11.38814130006358]",0,,,,,,,,,,,,,,,,,,,,,,,,,,,,,,,,,,,,,,,,,,,,,,,,,,,,,,,,,,,,,,,,,,,,,,,,,,,,,,,,,,,,,,,,,,,,,,,,,,,,,,,,,,,,,,,,,,,,,,,,,,,,P42E9A,train_y,blue_star,top_left,2025-07-26_12h06.02.635,HideSeek_v1,2022.2.5,59.97753239889479,
,,,,,,,,,,,,,,,0,0,0,0,8,0,8,0,,,,,,,,,,,,,,,,,,,,,,,,,,,,,,,conditions/schedules/train_y_first/blue_star_00/top_left/instructions/Slide9.png,conditions/schedules/train_y_first/blue_star_00/top_left/instructions/Audio9.wav,8147.617175899912,8147.603233279987,9,"[7.800594500033185, 17.531518900068477, 16.159148100065067, 19.034682699944824, 3.9980394998565316, 4.75366839999333, 5.285493600182235, 11.388134400127456, 5.6061937001068145]","[0.00021760002709925175, 0.04742199997417629, 0.03461409988813102, 0.06254690000787377, 0.06586760003119707, 0.014011500170454383, 0.030079100048169494, 0.03397889994084835, 5.606201600050554]",0,,,,,,,,,,,,,,,,,,,,,,,,,,,,,,,,,,,,,,,,,,,,,,,,,,,,,,,,,,,,,,,,,,,,,,,,,,,,,,,,,,,,,,,,,,,,,,,,,,,,,,,,,,,,,,,,,,,,,,,,,,,,P42E9A,train_y,blue_star,top_left,2025-07-26_12h06.02.635,HideSeek_v1,2022.2.5,59.97753239889479,
,,,,,,,,,,,,,,,0,0,0,0,9,0,9,0,,,,,,,,,,,,,,,,,,,,,,,,,,,,,,,conditions/schedules/train_y_first/blue_star_00/top_left/instructions/Slide10.png,conditions/schedules/train_y_first/blue_star_00/top_left/instructions/Audio10.wav,8153.274721799884,8153.274551979825,10,"[7.800594500033185, 17.531518900068477, 16.159148100065067, 19.034682699944824, 3.9980394998565316, 4.75366839999333, 5.285493600182235, 11.388134400127456, 5.6061937001068145, 6.869999599875882]","[0.00021760002709925175, 0.04742199997417629, 0.03461409988813102, 0.06254690000787377, 0.06586760003119707, 0.014011500170454383, 0.030079100048169494, 0.03397889994084835, 0.03152429987676442, 6.870007999939844]",0,,,,,,,,,,,,,,,,,,,,,,,,,,,,,,,,,,,,,,,,,,,,,,,,,,,,,,,,,,,,,,,,,,,,,,,,,,,,,,,,,,,,,,,,,,,,,,,,,,,,,,,,,,,,,,,,,,,,,,,,,,,,P42E9A,train_y,blue_star,top_left,2025-07-26_12h06.02.635,HideSeek_v1,2022.2.5,59.97753239889479,
,,,,,,,,,,,,,,,0,0,0,0,10,0,10,0,,,,,,,,,,,,,,,,,,,,,,,,,,,,,,,conditions/schedules/train_y_first/blue_star_00/top_left/instructions/Slide11.png,conditions/schedules/train_y_first/blue_star_00/top_left/instructions/Audio11.wav,8160.198471099837,8160.19690807988,11,"[7.800594500033185, 17.531518900068477, 16.159148100065067, 19.034682699944824, 3.9980394998565316, 4.75366839999333, 5.285493600182235, 11.388134400127456, 5.6061937001068145, 6.869999599875882, 9.77097769989632]","[0.00021760002709925175, 0.04742199997417629, 0.03461409988813102, 0.06254690000787377, 0.06586760003119707, 0.014011500170454383, 0.030079100048169494, 0.03397889994084835, 0.03152429987676442, 0.04726299992762506, 9.770984999835491]",0,,,,,,,,,,,,,,,,,,,,,,,,,,,,,,,,,,,,,,,,,,,,,,,,,,,,,,,,,,,,,,,,,,,,,,,,,,,,,,,,,,,,,,,,,,,,,,,,,,,,,,,,,,,,,,,,,,,,,,,,,,,,P42E9A,train_y,blue_star,top_left,2025-07-26_12h06.02.635,HideSeek_v1,2022.2.5,59.97753239889479,
,,,,,,,,,,,,,,,0,0,0,0,11,0,11,0,,,,,,,,,,,,,,,,,,,,,,,,,,,,,,,conditions/schedules/train_y_first/blue_star_00/top_left/instructions/Slide12.png,conditions/schedules/train_y_first/blue_star_00/top_left/instructions/Audio12.wav,8170.026271400042,8170.021844879818,12,"[7.800594500033185, 17.531518900068477, 16.159148100065067, 19.034682699944824, 3.9980394998565316, 4.75366839999333, 5.285493600182235, 11.388134400127456, 5.6061937001068145, 6.869999599875882, 9.77097769989632, 13.586933699902147]","[0.00021760002709925175, 0.04742199997417629, 0.03461409988813102, 0.06254690000787377, 0.06586760003119707, 0.014011500170454383, 0.030079100048169494, 0.03397889994084835, 0.03152429987676442, 0.04726299992762506, 0.01392549998126924, 13.586940299952403]",0,,,,,,,,,,,,,,,,,,,,,,,,,,,,,,,,,,,,,,,,,,,,,,,,,,,,,,,,,,,,,,,,,,,,,,,,,,,,,,,,,,,,,,,,,,,,,,,,,,,,,,,,,,,,,,,,,,,,,,,,,,,,P42E9A,train_y,blue_star,top_left,2025-07-26_12h06.02.635,HideSeek_v1,2022.2.5,59.97753239889479,
1,0,8,0,3,0,-5,66,2,instr_dim1_1,,,,,,0,0,0,0,,,,,0,0,0,0,,,,,,,,,,,,,,,,,,,,,,,,,,,,,,,,,,,,,stimuli/alien_stimuli/66.png,conditions/schedules/train_y_first/blue_star_00/top_left/inputInstr_1.xlsx,stimuli/alien_stimuli/66.png,8183.714092799928,8183.714092799928,8183.714092799928,8183.714092799928,8183.716022889876,return,7.9175530998036265,"[-0.16, -0.08, 0, 0.08, 0.16, 0.24, 0.32, 0.4, 0.48, 0.56]","[-0.4, -0.32, -0.24, -0.16, -0.08, 0, 0.08, 0.16, 0.24, 0.32]",3,8,0,0,0.4,0.0,8191.770394699881,8191.770394699881,8191.770394699881,8191.770394699881,8191.770394699881,8191.770394699881,8191.770394699881,8191.756046589977,8.892164300195873,return,8.756073599914089,stimuli/alien_stimuli/66.png,66,0,1,,,,,,,,,,,,,,,,,,,,,,,,,,,,,,,,,,,,,,,,,,,,,,,,,,,,,,,,,,,,,,,,,,,,,,,,,,,,,,,,,,,,,,,,,P42E9A,train_y,blue_star,top_left,2025-07-26_12h06.02.635,HideSeek_v1,2022.2.5,59.97753239889479,
,,,,,,,,,,,30,,,,0,0,0,0,,,,,,,,,,,,,,,,,,,,,,,,,,,,,,,,,,,,,,,,,,,,,,,,,,,,,,,,,,,,,,,,,,,,,,,,,,,,,,21,0.7,0,0,99,1,30,0,conditions/schedules/train_y_first/blue_star_00/top_left/inputTrain_1.1.xlsx,99,1,1,1,0,,,,,,,,,,,,,,,,,,,,,,,,,,,,,,,,,,,,,,,,,,,,,,,,,,,,,,,,,,,,,,,,,,,,,,,,,,,P42E9A,train_y,blue_star,top_left,2025-07-26_12h06.02.635,HideSeek_v1,2022.2.5,59.97753239889479,
,,,,,,,,,,,,,,,1,0,1,0,0,0,0,0,,,,,,,,,,,,,,,,,,,,,,,,,,,,,,,conditions/schedules/train_y_first/blue_star_00/top_left/instructions/Slide13.png,conditions/schedules/train_y_first/blue_star_00/top_left/instructions/Audio13.wav,8200.677036599955,8200.664139859799,13,"[7.800594500033185, 17.531518900068477, 16.159148100065067, 19.034682699944824, 3.9980394998565316, 4.75366839999333, 5.285493600182235, 11.388134400127456, 5.6061937001068145, 6.869999599875882, 9.77097769989632, 13.586933699902147, 16.480937000131235]","[0.00021760002709925175, 0.04742199997417629, 0.03461409988813102, 0.06254690000787377, 0.06586760003119707, 0.014011500170454383, 0.030079100048169494, 0.03397889994084835, 0.03152429987676442, 0.04726299992762506, 0.01392549998126924, 13.586940299952403, 16.480944500071928]",0,,,,,,,,,,,,,,,,,,,,,,,,,,,,,,,,,,,,,,,,,,,,,,,,,,,,,,,,,,,,,,,,,,,,,,,,,,,,,,,,,,,,,,,,,,,,,,,,,,,,,,,,,,,,,,,,,,,,,,,,,,,,P42E9A,train_y,blue_star,top_left,2025-07-26_12h06.02.635,HideSeek_v1,2022.2.5,59.97753239889479,
,,,,,,,,,,,,,,,1,0,1,0,1,0,1,0,,,,,,,,,,,,,,,,,,,,,,,,,,,,,,,conditions/schedules/train_y_first/blue_star_00/top_left/instructions/Slide14.png,conditions/schedules/train_y_first/blue_star_00/top_left/instructions/Audio14.wav,8217.223626999883,8217.210835679993,14,"[7.800594500033185, 17.531518900068477, 16.159148100065067, 19.034682699944824, 3.9980394998565316, 4.75366839999333, 5.285493600182235, 11.388134400127456, 5.6061937001068145, 6.869999599875882, 9.77097769989632, 13.586933699902147, 16.480937000131235, 16.3319760998711]","[0.00021760002709925175, 0.04742199997417629, 0.03461409988813102, 0.06254690000787377, 0.06586760003119707, 0.014011500170454383, 0.030079100048169494, 0.03397889994084835, 0.03152429987676442, 0.04726299992762506, 0.01392549998126924, 13.586940299952403, 0.05154030001722276, 16.331983499927446]",0,,,,,,,,,,,,,,,,,,,,,,,,,,,,,,,,,,,,,,,,,,,,,,,,,,,,,,,,,,,,,,,,,,,,,,,,,,,,,,,,,,,,,,,,,,,,,,,,,,,,,,,,,,,,,,,,,,,,,,,,,,,,P42E9A,train_y,blue_star,top_left,2025-07-26_12h06.02.635,HideSeek_v1,2022.2.5,59.97753239889479,
2,2,8,2,8,0,0,61,2,instr_dim1_1,,,,,,1,0,1,0,,,,,0,0,0,0,,,,,,,,,,,,,,,,,,,,,,,,,,,,,,,,,,,,,stimuli/alien_stimuli/61.png,conditions/schedules/train_y_first/blue_star_00/top_left/inputInstr_1.xlsx,stimuli/alien_stimuli/61.png,8233.65464730002,8233.65464730002,8233.65464730002,8233.65464730002,8233.658144289908,return,4.470735500101,"[-0.16, -0.08, 0, 0.08, 0.16, 0.24, 0.32, 0.4, 0.48, 0.56]","[-0.4, -0.32, -0.24, -0.16, -0.08, 0, 0.08, 0.16, 0.24, 0.32]",8,8,2,2,0.0,0.0,8238.267198599875,8238.267198599875,8238.267198599875,8238.267198599875,8238.267198599875,8238.267198599875,8238.267198599875,8238.261695459905,10.02624460007064,return,9.870788500178605,stimuli/alien_stimuli/61.png,61,2,2,,,,,,,,,,,,,,,,,,,,,,,,,,,,,,,,,,,,,,,,,,,,,,,,,,,,,,,,,,,,,,,,,,,,,,,,,,,,,,,,,,,,,,,,,P42E9A,train_y,blue_star,top_left,2025-07-26_12h06.02.635,HideSeek_v1,2022.2.5,59.97753239889479,
,,,,,,,,,,,30,,,,1,0,1,0,,,,,,,,,,,,,,,,,,,,,,,,,,,,,,,,,,,,,,,,,,,,,,,,,,,,,,,,,,,,,,,,,,,,,,,,,,,,,,21,0.7,0,0,99,1,30,0,conditions/schedules/train_y_first/blue_star_00/top_left/inputTrain_1.1.xlsx,99,1,1,1,0,,,,,,,,,,,,,,,,,,,,,,,,,,,,,,,,,,,,,,,,,,,,,,,,,,,,,,,,,,,,,,,,,,,,,,,,,,,P42E9A,train_y,blue_star,top_left,2025-07-26_12h06.02.635,HideSeek_v1,2022.2.5,59.97753239889479,
,,,,,,,,,,,,,,,2,0,2,0,0,0,0,0,,,,,,,,,,,,,,,,,,,,,,,,,,,,,,,conditions/schedules/train_y_first/blue_star_00/top_left/instructions/Slide15.png,conditions/schedules/train_y_first/blue_star_00/top_left/instructions/Audio15.wav,8248.32730600005,8248.320328399772,15,"[7.800594500033185, 17.531518900068477, 16.159148100065067, 19.034682699944824, 3.9980394998565316, 4.75366839999333, 5.285493600182235, 11.388134400127456, 5.6061937001068145, 6.869999599875882, 9.77097769989632, 13.586933699902147, 16.480937000131235, 16.3319760998711, 43.726389300078154]","[0.00021760002709925175, 0.04742199997417629, 0.03461409988813102, 0.06254690000787377, 0.06586760003119707, 0.014011500170454383, 0.030079100048169494, 0.03397889994084835, 0.03152429987676442, 0.04726299992762506, 0.01392549998126924, 13.586940299952403, 0.05154030001722276, 16.331983499927446, 43.72640009992756]",0,,,,,,,,,,,,,,,,,,,,,,,,,,,,,,,,,,,,,,,,,,,,,,,,,,,,,,,,,,,,,,,,,,,,,,,,,,,,,,,,,,,,,,,,,,,,,,,,,,,,,,,,,,,,,,,,,,,,,,,,,,,,P42E9A,train_y,blue_star,top_left,2025-07-26_12h06.02.635,HideSeek_v1,2022.2.5,59.97753239889479,
,,,,,,,,,,,,,,,2,0,2,0,1,0,1,0,,,,,,,,,,,,,,,,,,,,,,,,,,,,,,,conditions/schedules/train_y_first/blue_star_00/top_left/instructions/Slide16.png,conditions/schedules/train_y_first/blue_star_00/top_left/instructions/Audio16.wav,8292.137361499947,8292.13994561988,16,"[7.800594500033185, 17.531518900068477, 16.159148100065067, 19.034682699944824, 3.9980394998565316, 4.75366839999333, 5.285493600182235, 11.388134400127456, 5.6061937001068145, 6.869999599875882, 9.77097769989632, 13.586933699902147, 16.480937000131235, 16.3319760998711, 43.726389300078154, 21.634860699996352]","[0.00021760002709925175, 0.04742199997417629, 0.03461409988813102, 0.06254690000787377, 0.06586760003119707, 0.014011500170454383, 0.030079100048169494, 0.03397889994084835, 0.03152429987676442, 0.04726299992762506, 0.01392549998126924, 13.586940299952403, 0.05154030001722276, 16.331983499927446, 0.00021369988098740578, 21.63486950006336]",0,,,,,,,,,,,,,,,,,,,,,,,,,,,,,,,,,,,,,,,,,,,,,,,,,,,,,,,,,,,,,,,,,,,,,,,,,,,,,,,,,,,,,,,,,,,,,,,,,,,,,,,,,,,,,,,,,,,,,,,,,,,,P42E9A,train_y,blue_star,top_left,2025-07-26_12h06.02.635,HideSeek_v1,2022.2.5,59.97753239889479,
,0,5,0,1,0,-4,65,,train_dim1_1,1,30,,,,2,0,2,0,,,,,,,,,0,0,0,0,0,0,0,0,0,0,0,0,,,,,,,,,,,,,,,,,,,,,,,,,stimuli/alien_stimuli/65.png,,,,,,,,,,,,,,,,,,,,,,,,,,,,,,,,,,,,,,,30,,,,,,,,8313.877625999972,8313.877625999972,8313.877625999972,8313.877625999972,8313.877625999972,down,4.864557200111449,0,0,0,99,-0.16,-0.08,down,4.761521900072694,,,,,,,,,,,,,,,,,,,,,,,,,,,,,,,,,,,,,,,,,,,,,,,,,,,,,,,,,,,,P42E9A,train_y,blue_star,top_left,2025-07-26_12h06.02.635,HideSeek_v1,2022.2.5,59.97753239889479,
,0,5,0,1,0,-4,65,,train_dim1_1,1,30,,,,2,0,2,0,,,,,,,,,0,0,0,0,0,0,0,0,1,0,1,0,,,,,,,,,,,,,,,,,,,,,,,,,,,,,,,,,,,,,,,,,,,,,,,,,,,,,,,,,,,,,,,,30,,,,,,,,8318.725702699972,8318.725702699972,8318.725702699972,8318.725702699972,8318.725702699972,down,0.6763867000117898,0,0,0,99,-0.16,-0.16,down,0.589561800006777,,,,,,,,,,,,,,,,,,,,,,,,,,,,,,,,,,,,,,,,,,,,,,,,,,,,,,,,,,,,P42E9A,train_y,blue_star,top_left,2025-07-26_12h06.02.635,HideSeek_v1,2022.2.5,59.97753239889479,
,0,5,0,1,0,-4,65,,train_dim1_1,1,30,,,,2,0,2,0,,,,,,,,,0,0,0,0,0,0,0,0,2,0,2,0,,,,,,,,,,,,,,,,,,,,,,,,,,,,,,,,,,,,,,,,,,,,,,,,,,,,,,,,,,,,,,,,30,,,,,,,,8319.40896969987,8319.40896969987,8319.40896969987,8319.40896969987,8319.40896969987,down,0.8770963000133634,0,0,0,99,-0.16,-0.24,down,0.7957699000835419,,,,,,,,,,,,,,,,,,,,,,,,,,,,,,,,,,,,,,,,,,,,,,,,,,,,,,,,,,,,P42E9A,train_y,blue_star,top_left,2025-07-26_12h06.02.635,HideSeek_v1,2022.2.5,59.97753239889479,
,0,5,0,1,0,-4,65,,train_dim1_1,1,30,,,,2,0,2,0,,,,,,,,,0,0,0,0,0,0,0,0,3,0,3,0,,,,,,,,,,,,,,,,,,,,,,,,,,,,,,,,,,,,,,,,,,,,,,,,,,,,,,,,,,,,,,,,30,,,,,,,,8320.293759400025,8320.293759400025,8320.293759400025,8320.293759400025,8320.293759400025,down,0.7600216001737863,0,0,0,99,-0.16,-0.32,down,0.6875231999438256,,,,,,,,,,,,,,,,,,,,,,,,,,,,,,,,,,,,,,,,,,,,,,,,,,,,,,,,,,,,P42E9A,train_y,blue_star,top_left,2025-07-26_12h06.02.635,HideSeek_v1,2022.2.5,59.97753239889479,
,0,5,0,1,0,-4,65,,train_dim1_1,1,30,,,,2,0,2,0,,,,,,,,,0,0,0,0,0,0,0,0,4,0,4,0,,,,,,,,,,,,,,,,,,,,,,,,,,,,,,,,,,,,,,,,,,,,,,,,,,,,,,,,,,,,,,,,30,,,,,,,,8321.06062959996,8321.06062959996,8321.06062959996,8321.06062959996,8321.06062959996,down,0.6100350997876376,0,0,0,99,-0.16,-0.4,down,0.5300077002029866,,,,,,,,,,,,,,,,,,,,,,,,,,,,,,,,,,,,,,,,,,,,,,,,,,,,,,,,,,,,P42E9A,train_y,blue_star,top_left,2025-07-26_12h06.02.635,HideSeek_v1,2022.2.5,59.97753239889479,
,0,5,0,1,0,-4,65,,train_dim1_1,1,30,,,,2,0,2,0,,,,,,,,,0,0,0,0,0,0,0,0,5,0,5,0,,,,,,,,,,,,,,,,,,,,,,,,,,,,,,,,,,,,,,,,,,,,,,,,,,,,,,,,,,,,,,,,30,,,,,,,,8321.677498399979,8321.677498399979,8321.677498399979,8321.677498399979,8321.677498399979,return,0.9938471000641584,0,1,0,0,-0.16,-0.4,return,0.9117994999978691,-5,0,-0.16,-0.4,,,,,,,,,,,,,,,,,,,,,,,,,,,,,,,,,,,,,,,,,,,,,,,,,,,,,,,,P42E9A,train_y,blue_star,top_left,2025-07-26_12h06.02.635,HideSeek_v1,2022.2.5,59.97753239889479,
,3,7,3,2,0,-5,66,,train_dim1_1,2,30,,,,2,0,2,0,,,,,,,,,0,0,0,0,0,1,1,1,0,0,0,0,,,,,,,,,,,,,,,,,,,,,,,,,stimuli/alien_stimuli/66.png,,,,,,,,,,,,,,,,,,,,,,,,,,,,,stimuli/alien_stimuli/65.png,65,0,3,,,,,,,30,,,,,,,,8346.577378100017,8346.577378100017,8346.577378100017,8346.577378100017,8346.577378100017,down,5.193586100125685,0,1,0,99,0.08,0.08,down,5.096723199822009,,,,,8345.017439699965,8346.577378100017,-0.16,-0.32,0.32,0.0,-0.16,-0.16,-0.16,-0.16,-0.32,8324.246034099953,8324.246034099953,8324.246034099953,8324.246034099953,8324.246034099953,8324.246034099953,8324.246034099953,8324.246034099953,8324.23328838991,20.886072899913415,return,20.7445029001683,,,,,,,,,,,,,,,,,,,,,,,,,,,,,,,,,P42E9A,train_y,blue_star,top_left,2025-07-26_12h06.02.635,HideSeek_v1,2022.2.5,59.97753239889479,
,3,7,3,2,0,-5,66,,train_dim1_1,2,30,,,,2,0,2,0,,,,,,,,,0,0,0,0,0,1,1,1,1,0,1,0,,,,,,,,,,,,,,,,,,,,,,,,,,,,,,,,,,,,,,,,,,,,,,,,,,,,,,,,,,,,,,,,30,,,,,,,,8351.784594599856,8351.784594599856,8351.784594599856,8351.784594599856,8351.784594599856,down,0.9097877000458539,0,1,0,99,0.08,0.0,down,0.8164482999127358,,,,,,,,,,,,,,,,,,,,,,,,,,,,,,,,,,,,,,,,,,,,,,,,,,,,,,,,,,,,P42E9A,train_y,blue_star,top_left,2025-07-26_12h06.02.635,HideSeek_v1,2022.2.5,59.97753239889479,
,3,7,3,2,0,-5,66,,train_dim1_1,2,30,,,,2,0,2,0,,,,,,,,,0,0,0,0,0,1,1,1,2,0,2,0,,,,,,,,,,,,,,,,,,,,,,,,,,,,,,,,,,,,,,,,,,,,,,,,,,,,,,,,,,,,,,,,30,,,,,,,,8352.699088099878,8352.699088099878,8352.699088099878,8352.699088099878,8352.699088099878,down,1.6777035999111831,0,1,0,99,0.08,-0.08,down,1.5885764001868665,,,,,,,,,,,,,,,,,,,,,,,,,,,,,,,,,,,,,,,,,,,,,,,,,,,,,,,,,,,,P42E9A,train_y,blue_star,top_left,2025-07-26_12h06.02.635,HideSeek_v1,2022.2.5,59.97753239889479,
,3,7,3,2,0,-5,66,,train_dim1_1,2,30,,,,2,0,2,0,,,,,,,,,0,0,0,0,0,1,1,1,3,0,3,0,,,,,,,,,,,,,,,,,,,,,,,,,,,,,,,,,,,,,,,,,,,,,,,,,,,,,,,,,,,,,,,,30,,,,,,,,8354.371997399954,8354.371997399954,8354.371997399954,8354.371997399954,8354.371997399954,down,3.795970599865541,0,1,0,99,0.08,-0.16,down,3.7122297999449074,,,,,,,,,,,,,,,,,,,,,,,,,,,,,,,,,,,,,,,,,,,,,,,,,,,,,,,,,,,,P42E9A,train_y,blue_star,top_left,2025-07-26_12h06.02.635,HideSeek_v1,2022.2.5,59.97753239889479,
,3,7,3,2,0,-5,66,,train_dim1_1,2,30,,,,2,0,2,0,,,,,,,,,0,0,0,0,0,1,1,1,4,0,4,0,,,,,,,,,,,,,,,,,,,,,,,,,,,,,,,,,,,,,,,,,,,,,,,,,,,,,,,,,,,,,,,,30,,,,,,,,8358.174670899985,8358.174670899985,8358.174670899985,8358.174670899985,8358.174670899985,return,0.6771872001700103,0,1,0,0,0.08,-0.16,return,0.5991227000486106,-9,0,0.08,-0.16,,,,,,,,,,,,,,,,,,,,,,,,,,,,,,,,,,,,,,,,,,,,,,,,,,,,,,,,P42E9A,train_y,blue_star,top_left,2025-07-26_12h06.02.635,HideSeek_v1,2022.2.5,59.97753239889479,
,2,8,2,5,0,-3,64,,train_dim1_1,3,30,,,,2,0,2,0,,,,,,,,,0,0,0,0,0,2,2,2,0,0,0,0,,,,,,,,,,,,,,,,,,,,,,,,,stimuli/alien_stimuli/64.png,,,,,,,,,,,,,,,,,,,,,,,,,,,,,stimuli/alien_stimuli/66.png,66,3,4,,,,,,,30,,,,,,,,8366.426047899993,8366.426047899993,8366.426047899993,8366.426047899993,8366.426047899993,right,4.570607499917969,0,1,0,99,0.08,0.24,right,4.48844760004431,,,,,8364.867210399825,8366.426047899993,0.08,-0.24,0.4,0.0,-0.039999999999999994,0.08,0.08,0.08,-0.24,8360.417794799898,8360.417794799898,8360.417794799898,8360.417794799898,8360.417794799898,8360.417794799898,8360.417794799898,8360.417794799898,8360.413360989933,4.555718999821693,return,4.426330899819732,,,,,,,,,,,,,,,,,,,,,,,,,,,,,,,,,P42E9A,train_y,blue_star,top_left,2025-07-26_12h06.02.635,HideSeek_v1,2022.2.5,59.97753239889479,
,2,8,2,5,0,-3,64,,train_dim1_1,3,30,,,,2,0,2,0,,,,,,,,,0,0,0,0,0,2,2,2,1,0,1,0,,,,,,,,,,,,,,,,,,,,,,,,,,,,,,,,,,,,,,,,,,,,,,,,,,,,,,,,,,,,,,,,30,,,,,,,,8371.00492369989,8371.00492369989,8371.00492369989,8371.00492369989,8371.00492369989,right,0.8762422001454979,0,1,0,99,0.16,0.24,right,0.79654819983989,,,,,,,,,,,,,,,,,,,,,,,,,,,,,,,,,,,,,,,,,,,,,,,,,,,,,,,,,,,,P42E9A,train_y,blue_star,top_left,2025-07-26_12h06.02.635,HideSeek_v1,2022.2.5,59.97753239889479,
,2,8,2,5,0,-3,64,,train_dim1_1,3,30,,,,2,0,2,0,,,,,,,,,0,0,0,0,0,2,2,2,2,0,2,0,,,,,,,,,,,,,,,,,,,,,,,,,,,,,,,,,,,,,,,,,,,,,,,,,,,,,,,,,,,,,,,,30,,,,,,,,8371.885626199888,8371.885626199888,8371.885626199888,8371.885626199888,8371.885626199888,right,0.6767068998888135,0,1,0,99,0.24,0.24,right,0.5998455998487771,,,,,,,,,,,,,,,,,,,,,,,,,,,,,,,,,,,,,,,,,,,,,,,,,,,,,,,,,,,,P42E9A,train_y,blue_star,top_left,2025-07-26_12h06.02.635,HideSeek_v1,2022.2.5,59.97753239889479,
,2,8,2,5,0,-3,64,,train_dim1_1,3,30,,,,2,0,2,0,,,,,,,,,0,0,0,0,0,2,2,2,3,0,3,0,,,,,,,,,,,,,,,,,,,,,,,,,,,,,,,,,,,,,,,,,,,,,,,,,,,,,,,,,,,,,,,,30,,,,,,,,8372.57022819994,8372.57022819994,8372.57022819994,8372.57022819994,8372.57022819994,return,0.8937977000605315,0,0,0,0,0.24,0.24,return,0.8140405998565257,-9,3,0.24,0.24,,,,,,,,,,,,,,,,,,,,,,,,,,,,,,,,,,,,,,,,,,,,,,,,,,,,,,,,P42E9A,train_y,blue_star,top_left,2025-07-26_12h06.02.635,HideSeek_v1,2022.2.5,59.97753239889479,
,0,6,0,5,0,-1,62,,train_dim1_1,4,30,,,,2,0,2,0,,,,,,,,,0,0,0,0,0,3,3,3,0,0,0,0,,,,,,,,,,,,,,,,,,,,,,,,,stimuli/alien_stimuli/62.png,,,,,,,,,,,,,,,,,,,,,,,,,,,,,stimuli/alien_stimuli/64.png,64,2,5,,,,,,,30,,,,,,,,8382.904407199938,8382.904407199938,8382.904407199938,8382.904407199938,8382.904407199938,return,6.974584199953824,0,1,0,0,-0.16,0.08,return,6.891316699795425,-9,3,-0.16,0.08,8381.347466199892,8382.904407199938,0,0,0.24,0.0,0.12,0,0.0,0,0,8375.028963099932,8375.028963099932,8375.028963099932,8375.028963099932,8375.028963099932,8375.028963099932,8375.028963099932,8375.028963099932,8375.025179589913,6.424728200072423,return,6.298314000014216,,,,,,,,,,,,,,,,,,,,,,,,,,,,,,,,,P42E9A,train_y,blue_star,top_left,2025-07-26_12h06.02.635,HideSeek_v1,2022.2.5,59.97753239889479,
,3,8,3,8,0,0,61,,train_dim1_1,5,30,,,,2,0,2,0,,,,,,,,,0,0,0,0,0,4,4,4,0,0,0,0,,,,,,,,,,,,,,,,,,,,,,,,,stimuli/alien_stimuli/61.png,,,,,,,,,,,,,,,,,,,,,,,,,,,,,stimuli/alien_stimuli/62.png,62,0,6,,,,,,,30,,,,,,,,8398.529373199912,8398.529373199912,8398.529373199912,8398.529373199912,8398.529373199912,down,2.9584624997805804,0,1,0,99,0.08,0.15999999999999998,down,2.877622000174597,,,,,8396.97718889988,8398.529373199912,-0.16,0,0.08,0.0,0.04,-0.16,-0.16,-0.16,0,8391.44569809991,8391.44569809991,8391.44569809991,8391.44569809991,8391.44569809991,8391.44569809991,8391.44569809991,8391.44569809991,8391.439262989956,5.6401108000427485,return,5.500019300030544,,,,,,,,,,,,,,,,,,,,,,,,,,,,,,,,,P42E9A,train_y,blue_star,top_left,2025-07-26_12h06.02.635,HideSeek_v1,2022.2.5,59.97753239889479,
,3,8,3,8,0,0,61,,train_dim1_1,5,30,,,,2,0,2,0,,,,,,,,,0,0,0,0,0,4,4,4,1,0,1,0,,,,,,,,,,,,,,,,,,,,,,,,,,,,,,,,,,,,,,,,,,,,,,,,,,,,,,,,,,,,,,,,30,,,,,,,,8401.494249599986,8401.494249599986,8401.494249599986,8401.494249599986,8401.494249599986,return,1.0602949000895023,0,1,0,0,0.08,0.15999999999999998,return,0.9725986002013087,-10,3,0.08,0.15999999999999998,,,,,,,,,,,,,,,,,,,,,,,,,,,,,,,,,,,,,,,,,,,,,,,,,,,,,,,,P42E9A,train_y,blue_star,top_left,2025-07-26_12h06.02.635,HideSeek_v1,2022.2.5,59.97753239889479,
,1,9,1,8,0,-1,62,,train_dim1_1,6,30,,,,2,0,2,0,,,,,,,,,0,0,0,0,0,5,5,5,0,0,0,0,,,,,,,,,,,,,,,,,,,,,,,,,stimuli/alien_stimuli/62.png,,,,,,,,,,,,,,,,,,,,,,,,,,,,,stimuli/alien_stimuli/61.png,61,3,7,,,,,,,30,,,,,,,,8409.190359700006,8409.190359700006,8409.190359700006,8409.190359700006,8409.190359700006,return,2.6899679999332875,0,1,0,0,-0.08,0.32,return,2.6049961999524385,-10,3,-0.08,0.32,8407.636172199855,8409.190359700006,0.08,0.24,0.0,0.0,0.24,0.08,0.08,0.08,0.24,8404.12076770002,8404.12076770002,8404.12076770002,8404.12076770002,8404.12076770002,8404.12076770002,8404.12076770002,8404.12076770002,8404.116107489961,3.6222655000165105,return,3.4916067998856306,,,,,,,,,,,,,,,,,,,,,,,,,,,,,,,,,P42E9A,train_y,blue_star,top_left,2025-07-26_12h06.02.635,HideSeek_v1,2022.2.5,59.97753239889479,
,1,8,1,5,0,-3,64,,train_dim1_1,7,30,,,,2,0,2,0,,,,,,,,,0,0,0,0,0,6,6,6,0,0,0,0,,,,,,,,,,,,,,,,,,,,,,,,,stimuli/alien_stimuli/64.png,,,,,,,,,,,,,,,,,,,,,,,,,,,,,stimuli/alien_stimuli/62.png,62,1,8,,,,,,,30,,,,,,,,8419.299248599913,8419.299248599913,8419.299248599913,8419.299248599913,8419.299248599913,down,4.990916299866512,0,1,0,99,-0.08,0.15999999999999998,down,4.909139700001106,,,,,8417.74421559996,8419.299248599913,-0.08,0.24,0.08,0.0,0.28,-0.08,-0.08,-0.08,0.24,8413.441710199928,8413.441710199928,8413.441710199928,8413.441710199928,8413.441710199928,8413.441710199928,8413.441710199928,8413.441710199928,8413.441491989932,4.4044088998343796,return,4.272532399976626,,,,,,,,,,,,,,,,,,,,,,,,,,,,,,,,,P42E9A,train_y,blue_star,top_left,2025-07-26_12h06.02.635,HideSeek_v1,2022.2.5,59.97753239889479,
,1,8,1,5,0,-3,64,,train_dim1_1,7,30,,,,2,0,2,0,,,,,,,,,0,0,0,0,0,6,6,6,1,0,1,0,,,,,,,,,,,,,,,,,,,,,,,,,,,,,,,,,,,,,,,,,,,,,,,,,,,,,,,,,,,,,,,,30,,,,,,,,8424.297294199932,8424.297294199932,8424.297294199932,8424.297294199932,8424.297294199932,return,2.2108254998456687,0,0,0,0,-0.08,0.15999999999999998,return,2.128339499933645,-11,3,-0.08,0.15999999999999998,,,,,,,,,,,,,,,,,,,,,,,,,,,,,,,,,,,,,,,,,,,,,,,,,,,,,,,,P42E9A,train_y,blue_star,top_left,2025-07-26_12h06.02.635,HideSeek_v1,2022.2.5,59.97753239889479,
,4,7,4,7,0,0,61,,train_dim1_1,8,30,,,,2,0,2,0,,,,,,,,,0,0,0,0,0,7,7,7,0,0,0,0,,,,,,,,,,,,,,,,,,,,,,,,,stimuli/alien_stimuli/61.png,,,,,,,,,,,,,,,,,,,,,,,,,,,,,stimuli/alien_stimuli/64.png,64,1,9,,,,,,,30,,,,,,,,8434.73601610004,8434.73601610004,8434.73601610004,8434.73601610004,8434.73601610004,down,3.2391614001244307,0,0,0,99,0.16,0.08,down,3.1484975998755544,,,,,8433.173946499825,8434.73601610004,-0.08,0,0.24,0.0,0.12,-0.08,-0.08,-0.08,0,8428.072131499881,8428.072131499881,8428.072131499881,8428.072131499881,8428.072131499881,8428.072131499881,8428.072131499881,8428.072131499881,8428.069686389808,5.206320400116965,return,5.076931599993259,,,,,,,,,,,,,,,,,,,,,,,,,,,,,,,,,P42E9A,train_y,blue_star,top_left,2025-07-26_12h06.02.635,HideSeek_v1,2022.2.5,59.97753239889479,
,4,7,4,7,0,0,61,,train_dim1_1,8,30,,,,2,0,2,0,,,,,,,,,0,0,0,0,0,7,7,7,1,0,1,0,,,,,,,,,,,,,,,,,,,,,,,,,,,,,,,,,,,,,,,,,,,,,,,,,,,,,,,,,,,,,,,,30,,,,,,,,8437.975012199953,8437.975012199953,8437.975012199953,8437.975012199953,8437.975012199953,return,0.5594768000300974,0,1,0,0,0.16,0.08,return,0.4742264000233263,-12,3,0.16,0.08,,,,,,,,,,,,,,,,,,,,,,,,,,,,,,,,,,,,,,,,,,,,,,,,,,,,,,,,P42E9A,train_y,blue_star,top_left,2025-07-26_12h06.02.635,HideSeek_v1,2022.2.5,59.97753239889479,
,4,8,4,4,0,-4,65,,train_dim1_1,9,30,,,,2,0,2,0,,,,,,,,,0,0,0,0,0,8,8,8,0,0,0,0,,,,,,,,,,,,,,,,,,,,,,,,,stimuli/alien_stimuli/65.png,,,,,,,,,,,,,,,,,,,,,,,,,,,,,stimuli/alien_stimuli/61.png,61,4,10,,,,,,,30,,,,,,,,8446.48682380002,8446.48682380002,8446.48682380002,8446.48682380002,8446.48682380002,down,2.7906780999619514,0,1,0,99,0.16,0.15999999999999998,down,2.7052837999071926,,,,,8444.933872799855,8446.48682380002,0.16,0.16,0.0,0.0,0.16,0.16,0.16,0.16,0.16,8440.102105899947,8440.102105899947,8440.102105899947,8440.102105899947,8440.102105899947,8440.102105899947,8440.102105899947,8440.102105899947,8440.096232289961,4.939946200000122,return,4.815008699893951,,,,,,,,,,,,,,,,,,,,,,,,,,,,,,,,,P42E9A,train_y,blue_star,top_left,2025-07-26_12h06.02.635,HideSeek_v1,2022.2.5,59.97753239889479,
,4,8,4,4,0,-4,65,,train_dim1_1,9,30,,,,2,0,2,0,,,,,,,,,0,0,0,0,0,8,8,8,1,0,1,0,,,,,,,,,,,,,,,,,,,,,,,,,,,,,,,,,,,,,,,,,,,,,,,,,,,,,,,,,,,,,,,,30,,,,,,,,8449.28462749999,8449.28462749999,8449.28462749999,8449.28462749999,8449.28462749999,down,0.5594258001074195,0,1,0,99,0.16,0.07999999999999997,down,0.4782177999150008,,,,,,,,,,,,,,,,,,,,,,,,,,,,,,,,,,,,,,,,,,,,,,,,,,,,,,,,,,,,P42E9A,train_y,blue_star,top_left,2025-07-26_12h06.02.635,HideSeek_v1,2022.2.5,59.97753239889479,
,4,8,4,4,0,-4,65,,train_dim1_1,9,30,,,,2,0,2,0,,,,,,,,,0,0,0,0,0,8,8,8,2,0,2,0,,,,,,,,,,,,,,,,,,,,,,,,,,,,,,,,,,,,,,,,,,,,,,,,,,,,,,,,,,,,,,,,30,,,,,,,,8449.850834599929,8449.850834599929,8449.850834599929,8449.850834599929,8449.850834599929,down,0.5099235000088811,0,1,0,99,0.16,-2.7755575615628914e-17,down,0.426344099920243,,,,,,,,,,,,,,,,,,,,,,,,,,,,,,,,,,,,,,,,,,,,,,,,,,,,,,,,,,,,P42E9A,train_y,blue_star,top_left,2025-07-26_12h06.02.635,HideSeek_v1,2022.2.5,59.97753239889479,
,4,8,4,4,0,-4,65,,train_dim1_1,9,30,,,,2,0,2,0,,,,,,,,,0,0,0,0,0,8,8,8,3,0,3,0,,,,,,,,,,,,,,,,,,,,,,,,,,,,,,,,,,,,,,,,,,,,,,,,,,,,,,,,,,,,,,,,30,,,,,,,,8450.368070999859,8450.368070999859,8450.368070999859,8450.368070999859,8450.368070999859,down,0.47606410016305745,0,1,0,99,0.16,-0.08000000000000003,down,0.39625829993747175,,,,,,,,,,,,,,,,,,,,,,,,,,,,,,,,,,,,,,,,,,,,,,,,,,,,,,,,,,,,P42E9A,train_y,blue_star,top_left,2025-07-26_12h06.02.635,HideSeek_v1,2022.2.5,59.97753239889479,
,4,8,4,4,0,-4,65,,train_dim1_1,9,30,,,,2,0,2,0,,,,,,,,,0,0,0,0,0,8,8,8,4,0,4,0,,,,,,,,,,,,,,,,,,,,,,,,,,,,,,,,,,,,,,,,,,,,,,,,,,,,,,,,,,,,,,,,30,,,,,,,,8450.85299429996,8450.85299429996,8450.85299429996,8450.85299429996,8450.85299429996,return,0.6271520999725908,1,0,0,1,0.16,-0.08000000000000003,return,0.551699899835512,-16,3,0.16,-0.08000000000000003,,,,,,,,,,,,,,,,,,,,,,,,,,,,,,,,,,,,,,,,,,,,,,,,,,,,,,,,P42E9A,train_y,blue_star,top_left,2025-07-26_12h06.02.635,HideSeek_v1,2022.2.5,59.97753239889479,
,2,7,2,2,0,-5,66,,train_dim1_1,10,30,,,,2,0,2,0,,,,,,,,,0,0,0,0,0,9,9,9,0,0,0,0,,,,,,,,,,,,,,,,,,,,,,,,,stimuli/alien_stimuli/66.png,,,,,,,,,,,,,,,,,,,,,,,,,,,,,stimuli/alien_stimuli/65.png,65,4,11,,,,,,,30,,,,,,,,8461.331458099885,8461.331458099885,8461.331458099885,8461.331458099885,8461.331458099885,down,4.92672530002892,1,0,0,99,0,0.08,down,4.8500119999516755,,,,,8459.779429199873,8461.331458099885,0.16,-0.08,0.32,0.0,0.07999999999999999,0.16,0.16,0.16,-0.08,8453.043750099838,8453.043750099838,8453.043750099838,8453.043750099838,8453.043750099838,8453.043750099838,8453.043750099838,8453.043750099838,8453.04068318992,6.841089700115845,return,6.714471299899742,,,,,,,,,,,,,,,,,,,,,,,,,,,,,,,,,P42E9A,train_y,blue_star,top_left,2025-07-26_12h06.02.635,HideSeek_v1,2022.2.5,59.97753239889479,
,2,7,2,2,0,-5,66,,train_dim1_1,10,30,,,,2,0,2,0,,,,,,,,,0,0,0,0,0,9,9,9,1,0,1,0,,,,,,,,,,,,,,,,,,,,,,,,,,,,,,,,,,,,,,,,,,,,,,,,,,,,,,,,,,,,,,,,30,,,,,,,,8466.265638699988,8466.265638699988,8466.265638699988,8466.265638699988,8466.265638699988,down,0.8099275000859052,1,0,0,99,0,0.0,down,0.7316306000575423,,,,,,,,,,,,,,,,,,,,,,,,,,,,,,,,,,,,,,,,,,,,,,,,,,,,,,,,,,,,P42E9A,train_y,blue_star,top_left,2025-07-26_12h06.02.635,HideSeek_v1,2022.2.5,59.97753239889479,
,2,7,2,2,0,-5,66,,train_dim1_1,10,30,,,,2,0,2,0,,,,,,,,,0,0,0,0,0,9,9,9,2,0,2,0,,,,,,,,,,,,,,,,,,,,,,,,,,,,,,,,,,,,,,,,,,,,,,,,,,,,,,,,,,,,,,,,30,,,,,,,,8467.081532199867,8467.081532199867,8467.081532199867,8467.081532199867,8467.081532199867,down,0.543359300121665,1,0,0,99,0,-0.08,down,0.45725229987874627,,,,,,,,,,,,,,,,,,,,,,,,,,,,,,,,,,,,,,,,,,,,,,,,,,,,,,,,,,,,P42E9A,train_y,blue_star,top_left,2025-07-26_12h06.02.635,HideSeek_v1,2022.2.5,59.97753239889479,
,2,7,2,2,0,-5,66,,train_dim1_1,10,30,,,,2,0,2,0,,,,,,,,,0,0,0,0,0,9,9,9,3,0,3,0,,,,,,,,,,,,,,,,,,,,,,,,,,,,,,,,,,,,,,,,,,,,,,,,,,,,,,,,,,,,,,,,30,,,,,,,,8467.63208390004,8467.63208390004,8467.63208390004,8467.63208390004,8467.63208390004,return,0.9436200000345707,1,0,0,0,0,-0.08,return,0.8646334998775274,-19,3,0,-0.08,,,,,,,,,,,,,,,,,,,,,,,,,,,,,,,,,,,,,,,,,,,,,,,,,,,,,,,,P42E9A,train_y,blue_star,top_left,2025-07-26_12h06.02.635,HideSeek_v1,2022.2.5,59.97753239889479,
,4,6,4,2,0,-4,65,,train_dim1_1,11,30,,,,2,0,2,0,,,,,,,,,0,0,0,0,0,10,10,10,0,0,0,0,,,,,,,,,,,,,,,,,,,,,,,,,stimuli/alien_stimuli/65.png,,,,,,,,,,,,,,,,,,,,,,,,,,,,,stimuli/alien_stimuli/66.png,66,2,12,,,,,,,30,,,,,,,,8480.197172699962,8480.197172699962,8480.197172699962,8480.197172699962,8480.197172699962,down,1.859146900009364,1,0,0,99,0.16,0.0,down,1.769083500141278,,,,,8478.628211000003,8480.197172699962,0,-0.24,0.4,0.0,-0.039999999999999994,0,0.0,0,-0.24,8470.145531599876,8470.145531599876,8470.145531599876,8470.145531599876,8470.145531599876,8470.145531599876,8470.145531599876,8470.145531599876,8470.137798289816,8.592871699947864,return,8.45150849991478,,,,,,,,,,,,,,,,,,,,,,,,,,,,,,,,,P42E9A,train_y,blue_star,top_left,2025-07-26_12h06.02.635,HideSeek_v1,2022.2.5,59.97753239889479,
,4,6,4,2,0,-4,65,,train_dim1_1,11,30,,,,2,0,2,0,,,,,,,,,0,0,0,0,0,10,10,10,1,0,1,0,,,,,,,,,,,,,,,,,,,,,,,,,,,,,,,,,,,,,,,,,,,,,,,,,,,,,,,,,,,,,,,,30,,,,,,,,8482.061324300012,8482.061324300012,8482.061324300012,8482.061324300012,8482.061324300012,down,0.5595255999360234,1,0,0,99,0.16,-0.08,down,0.47366650006733835,,,,,,,,,,,,,,,,,,,,,,,,,,,,,,,,,,,,,,,,,,,,,,,,,,,,,,,,,,,,P42E9A,train_y,blue_star,top_left,2025-07-26_12h06.02.635,HideSeek_v1,2022.2.5,59.97753239889479,
,4,6,4,2,0,-4,65,,train_dim1_1,11,30,,,,2,0,2,0,,,,,,,,,0,0,0,0,0,10,10,10,2,0,2,0,,,,,,,,,,,,,,,,,,,,,,,,,,,,,,,,,,,,,,,,,,,,,,,,,,,,,,,,,,,,,,,,30,,,,,,,,8482.627900599968,8482.627900599968,8482.627900599968,8482.627900599968,8482.627900599968,down,0.5101785999722779,1,0,0,99,0.16,-0.16,down,0.43066759989596903,,,,,,,,,,,,,,,,,,,,,,,,,,,,,,,,,,,,,,,,,,,,,,,,,,,,,,,,,,,,P42E9A,train_y,blue_star,top_left,2025-07-26_12h06.02.635,HideSeek_v1,2022.2.5,59.97753239889479,
,4,6,4,2,0,-4,65,,train_dim1_1,11,30,,,,2,0,2,0,,,,,,,,,0,0,0,0,0,10,10,10,3,0,3,0,,,,,,,,,,,,,,,,,,,,,,,,,,,,,,,,,,,,,,,,,,,,,,,,,,,,,,,,,,,,,,,,30,,,,,,,,8483.144741900032,8483.144741900032,8483.144741900032,8483.144741900032,8483.144741900032,down,0.47686020005494356,1,0,0,99,0.16,-0.24,down,0.38892100006341934,,,,,,,,,,,,,,,,,,,,,,,,,,,,,,,,,,,,,,,,,,,,,,,,,,,,,,,,,,,,P42E9A,train_y,blue_star,top_left,2025-07-26_12h06.02.635,HideSeek_v1,2022.2.5,59.97753239889479,
,4,6,4,2,0,-4,65,,train_dim1_1,11,30,,,,2,0,2,0,,,,,,,,,0,0,0,0,0,10,10,10,4,0,4,0,,,,,,,,,,,,,,,,,,,,,,,,,,,,,,,,,,,,,,,,,,,,,,,,,,,,,,,,,,,,,,,,30,,,,,,,,8483.62937920005,8483.62937920005,8483.62937920005,8483.62937920005,8483.62937920005,return,0.6434326998423785,2,0,0,1,0.16,-0.24,return,0.5637841001152992,-23,3,0.16,-0.24,,,,,,,,,,,,,,,,,,,,,,,,,,,,,,,,,,,,,,,,,,,,,,,,,,,,,,,,P42E9A,train_y,blue_star,top_left,2025-07-26_12h06.02.635,HideSeek_v1,2022.2.5,59.97753239889479,
,0,5,0,5,0,0,61,,train_dim1_1,12,30,,,,2,0,2,0,,,,,,,,,0,0,0,0,0,11,11,11,0,0,0,0,,,,,,,,,,,,,,,,,,,,,,,,,stimuli/alien_stimuli/61.png,,,,,,,,,,,,,,,,,,,,,,,,,,,,,stimuli/alien_stimuli/65.png,65,4,13,,,,,,,30,,,,,,,,8490.007090699859,8490.007090699859,8490.007090699859,8490.007090699859,8490.007090699859,right,3.1907458999194205,2,0,0,99,-0.08,0,right,3.1148584000766277,,,,,8488.453116399935,8490.007090699859,0.16,-0.24,0.32,0.0,-0.07999999999999999,0.16,0.16,0.16,-0.24,8485.840183599852,8485.840183599852,8485.840183599852,8485.840183599852,8485.840183599852,8485.840183599852,8485.840183599852,8485.840183599852,8485.834360789788,2.721180799882859,return,2.5856842999346554,,,,,,,,,,,,,,,,,,,,,,,,,,,,,,,,,P42E9A,train_y,blue_star,top_left,2025-07-26_12h06.02.635,HideSeek_v1,2022.2.5,59.97753239889479,
,0,5,0,5,0,0,61,,train_dim1_1,12,30,,,,2,0,2,0,,,,,,,,,0,0,0,0,0,11,11,11,1,0,1,0,,,,,,,,,,,,,,,,,,,,,,,,,,,,,,,,,,,,,,,,,,,,,,,,,,,,,,,,,,,,,,,,30,,,,,,,,8493.204819799867,8493.204819799867,8493.204819799867,8493.204819799867,8493.204819799867,return,0.4759515000041574,2,1,0,0,-0.08,0,return,0.3953009999822825,-23,4,-0.08,0,,,,,,,,,,,,,,,,,,,,,,,,,,,,,,,,,,,,,,,,,,,,,,,,,,,,,,,,P42E9A,train_y,blue_star,top_left,2025-07-26_12h06.02.635,HideSeek_v1,2022.2.5,59.97753239889479,
,4,8,4,7,0,-1,62,,train_dim1_1,13,30,,,,2,0,2,0,,,,,,,,,0,0,0,0,0,12,12,12,0,0,0,0,,,,,,,,,,,,,,,,,,,,,,,,,stimuli/alien_stimuli/62.png,,,,,,,,,,,,,,,,,,,,,,,,,,,,,stimuli/alien_stimuli/61.png,61,0,14,,,,,,,30,,,,,,,,8500.815637100022,8500.815637100022,8500.815637100022,8500.815637100022,8500.815637100022,down,2.4906434000004083,2,1,0,99,0.16,0.15999999999999998,down,2.4073719000443816,,,,,8499.262177699944,8500.815637100022,-0.16,0,0.0,0.0,0.0,-0.16,-0.16,-0.16,0,8495.247931699967,8495.247931699967,8495.247931699967,8495.247931699967,8495.247931699967,8495.247931699967,8495.247931699967,8495.247931699967,8495.24222478997,4.122343399794772,return,3.9858792000450194,,,,,,,,,,,,,,,,,,,,,,,,,,,,,,,,,P42E9A,train_y,blue_star,top_left,2025-07-26_12h06.02.635,HideSeek_v1,2022.2.5,59.97753239889479,
,4,8,4,7,0,-1,62,,train_dim1_1,13,30,,,,2,0,2,0,,,,,,,,,0,0,0,0,0,12,12,12,1,0,1,0,,,,,,,,,,,,,,,,,,,,,,,,,,,,,,,,,,,,,,,,,,,,,,,,,,,,,,,,,,,,,,,,30,,,,,,,,8503.312122900039,8503.312122900039,8503.312122900039,8503.312122900039,8503.312122900039,return,1.3269434000831097,3,0,0,1,0.16,0.15999999999999998,return,1.2545580000150949,-24,4,0.16,0.15999999999999998,,,,,,,,,,,,,,,,,,,,,,,,,,,,,,,,,,,,,,,,,,,,,,,,,,,,,,,,P42E9A,train_y,blue_star,top_left,2025-07-26_12h06.02.635,HideSeek_v1,2022.2.5,59.97753239889479,
,2,7,2,2,0,-5,66,,train_dim1_1,14,30,,,,2,0,2,0,,,,,,,,,0,0,0,0,0,13,13,13,0,0,0,0,,,,,,,,,,,,,,,,,,,,,,,,,stimuli/alien_stimuli/66.png,,,,,,,,,,,,,,,,,,,,,,,,,,,,,stimuli/alien_stimuli/62.png,62,4,15,,,,,,,30,,,,,,,,8510.260518399999,8510.260518399999,8510.260518399999,8510.260518399999,8510.260518399999,down,4.521073099924251,3,0,0,99,0,0.08,down,4.445747500052676,,,,,8508.70329450001,8510.260518399999,0.16,0.16,0.08,0.0,0.2,0.16,0.16,0.16,0.16,8506.191755200038,8506.191755200038,8506.191755200038,8506.191755200038,8506.191755200038,8506.191755200038,8506.191755200038,8506.191755200038,8506.184839519812,2.604150000028312,return,2.488779299892485,,,,,,,,,,,,,,,,,,,,,,,,,,,,,,,,,P42E9A,train_y,blue_star,top_left,2025-07-26_12h06.02.635,HideSeek_v1,2022.2.5,59.97753239889479,
,2,7,2,2,0,-5,66,,train_dim1_1,14,30,,,,2,0,2,0,,,,,,,,,0,0,0,0,0,13,13,13,1,0,1,0,,,,,,,,,,,,,,,,,,,,,,,,,,,,,,,,,,,,,,,,,,,,,,,,,,,,,,,,,,,,,,,,30,,,,,,,,8514.789799999911,8514.789799999911,8514.789799999911,8514.789799999911,8514.789799999911,down,2.461145799839869,3,0,0,99,0,0.0,down,2.3749722000211477,,,,,,,,,,,,,,,,,,,,,,,,,,,,,,,,,,,,,,,,,,,,,,,,,,,,,,,,,,,,P42E9A,train_y,blue_star,top_left,2025-07-26_12h06.02.635,HideSeek_v1,2022.2.5,59.97753239889479,
,2,7,2,2,0,-5,66,,train_dim1_1,14,30,,,,2,0,2,0,,,,,,,,,0,0,0,0,0,13,13,13,2,0,2,0,,,,,,,,,,,,,,,,,,,,,,,,,,,,,,,,,,,,,,,,,,,,,,,,,,,,,,,,,,,,,,,,30,,,,,,,,8517.256656700047,8517.256656700047,8517.256656700047,8517.256656700047,8517.256656700047,down,1.4608958000317216,3,0,0,99,0,-0.08,down,1.3809722000733018,,,,,,,,,,,,,,,,,,,,,,,,,,,,,,,,,,,,,,,,,,,,,,,,,,,,,,,,,,,,P42E9A,train_y,blue_star,top_left,2025-07-26_12h06.02.635,HideSeek_v1,2022.2.5,59.97753239889479,
,2,7,2,2,0,-5,66,,train_dim1_1,14,30,,,,2,0,2,0,,,,,,,,,0,0,0,0,0,13,13,13,3,0,3,0,,,,,,,,,,,,,,,,,,,,,,,,,,,,,,,,,,,,,,,,,,,,,,,,,,,,,,,,,,,,,,,,30,,,,,,,,8518.725833799923,8518.725833799923,8518.725833799923,8518.725833799923,8518.725833799923,down,0.3601417001336813,3,0,0,99,0,-0.16,down,0.2713003000244498,,,,,,,,,,,,,,,,,,,,,,,,,,,,,,,,,,,,,,,,,,,,,,,,,,,,,,,,,,,,P42E9A,train_y,blue_star,top_left,2025-07-26_12h06.02.635,HideSeek_v1,2022.2.5,59.97753239889479,
,2,7,2,2,0,-5,66,,train_dim1_1,14,30,,,,2,0,2,0,,,,,,,,,0,0,0,0,0,13,13,13,4,0,4,0,,,,,,,,,,,,,,,,,,,,,,,,,,,,,,,,,,,,,,,,,,,,,,,,,,,,,,,,,,,,,,,,30,,,,,,,,8519.091758199967,8519.091758199967,8519.091758199967,8519.091758199967,8519.091758199967,return,0.47678459994494915,3,1,0,0,0,-0.16,return,0.3996484999079257,-28,4,0,-0.16,,,,,,,,,,,,,,,,,,,,,,,,,,,,,,,,,,,,,,,,,,,,,,,,,,,,,,,,P42E9A,train_y,blue_star,top_left,2025-07-26_12h06.02.635,HideSeek_v1,2022.2.5,59.97753239889479,
,1,9,1,6,0,-3,64,,train_dim1_1,15,30,,,,2,0,2,0,,,,,,,,,0,0,0,0,0,14,14,14,0,0,0,0,,,,,,,,,,,,,,,,,,,,,,,,,stimuli/alien_stimuli/64.png,,,,,,,,,,,,,,,,,,,,,,,,,,,,,stimuli/alien_stimuli/66.png,66,2,16,,,,,,,30,,,,,,,,8524.935628799954,8524.935628799954,8524.935628799954,8524.935628799954,8524.935628799954,down,4.8743847999721766,3,1,0,99,-0.08,0.24,down,4.798221499891952,,,,,8523.38239529985,8524.935628799954,0,-0.24,0.4,0.0,-0.039999999999999994,0,0.0,0,-0.24,8521.139092999976,8521.139092999976,8521.139092999976,8521.139092999976,8521.139092999976,8521.139092999976,8521.139092999976,8521.139092999976,8521.13040828989,2.354318799916655,return,2.2220801999792457,,,,,,,,,,,,,,,,,,,,,,,,,,,,,,,,,P42E9A,train_y,blue_star,top_left,2025-07-26_12h06.02.635,HideSeek_v1,2022.2.5,59.97753239889479,
,1,9,1,6,0,-3,64,,train_dim1_1,15,30,,,,2,0,2,0,,,,,,,,,0,0,0,0,0,14,14,14,1,0,1,0,,,,,,,,,,,,,,,,,,,,,,,,,,,,,,,,,,,,,,,,,,,,,,,,,,,,,,,,,,,,,,,,30,,,,,,,,8529.819094900042,8529.819094900042,8529.819094900042,8529.819094900042,8529.819094900042,down,0.5258756999392062,3,1,0,99,-0.08,0.15999999999999998,down,0.43736999994143844,,,,,,,,,,,,,,,,,,,,,,,,,,,,,,,,,,,,,,,,,,,,,,,,,,,,,,,,,,,,P42E9A,train_y,blue_star,top_left,2025-07-26_12h06.02.635,HideSeek_v1,2022.2.5,59.97753239889479,
,1,9,1,6,0,-3,64,,train_dim1_1,15,30,,,,2,0,2,0,,,,,,,,,0,0,0,0,0,14,14,14,2,0,2,0,,,,,,,,,,,,,,,,,,,,,,,,,,,,,,,,,,,,,,,,,,,,,,,,,,,,,,,,,,,,,,,,30,,,,,,,,8530.35071639996,8530.35071639996,8530.35071639996,8530.35071639996,8530.35071639996,down,0.4936494999565184,3,1,0,99,-0.08,0.07999999999999997,down,0.4204699997790158,,,,,,,,,,,,,,,,,,,,,,,,,,,,,,,,,,,,,,,,,,,,,,,,,,,,,,,,,,,,P42E9A,train_y,blue_star,top_left,2025-07-26_12h06.02.635,HideSeek_v1,2022.2.5,59.97753239889479,
,1,9,1,6,0,-3,64,,train_dim1_1,15,30,,,,2,0,2,0,,,,,,,,,0,0,0,0,0,14,14,14,3,0,3,0,,,,,,,,,,,,,,,,,,,,,,,,,,,,,,,,,,,,,,,,,,,,,,,,,,,,,,,,,,,,,,,,30,,,,,,,,8530.851513899863,8530.851513899863,8530.851513899863,8530.851513899863,8530.851513899863,down,0.493044100003317,3,1,0,99,-0.08,-2.7755575615628914e-17,down,0.41693300008773804,,,,,,,,,,,,,,,,,,,,,,,,,,,,,,,,,,,,,,,,,,,,,,,,,,,,,,,,,,,,P42E9A,train_y,blue_star,top_left,2025-07-26_12h06.02.635,HideSeek_v1,2022.2.5,59.97753239889479,
,1,9,1,6,0,-3,64,,train_dim1_1,15,30,,,,2,0,2,0,,,,,,,,,0,0,0,0,0,14,14,14,4,0,4,0,,,,,,,,,,,,,,,,,,,,,,,,,,,,,,,,,,,,,,,,,,,,,,,,,,,,,,,,,,,,,,,,30,,,,,,,,8531.352369999979,8531.352369999979,8531.352369999979,8531.352369999979,8531.352369999979,down,0.44278139993548393,3,1,0,99,-0.08,-0.08000000000000003,down,0.36664340016432106,,,,,,,,,,,,,,,,,,,,,,,,,,,,,,,,,,,,,,,,,,,,,,,,,,,,,,,,,,,,P42E9A,train_y,blue_star,top_left,2025-07-26_12h06.02.635,HideSeek_v1,2022.2.5,59.97753239889479,
,1,9,1,6,0,-3,64,,train_dim1_1,15,30,,,,2,0,2,0,,,,,,,,,0,0,0,0,0,14,14,14,5,0,5,0,,,,,,,,,,,,,,,,,,,,,,,,,,,,,,,,,,,,,,,,,,,,,,,,,,,,,,,,,,,,,,,,30,,,,,,,,8531.802733300021,8531.802733300021,8531.802733300021,8531.802733300021,8531.802733300021,down,0.476578600006178,3,1,0,99,-0.08,-0.16000000000000003,down,0.3996034001465887,,,,,,,,,,,,,,,,,,,,,,,,,,,,,,,,,,,,,,,,,,,,,,,,,,,,,,,,,,,,P42E9A,train_y,blue_star,top_left,2025-07-26_12h06.02.635,HideSeek_v1,2022.2.5,59.97753239889479,
,1,9,1,6,0,-3,64,,train_dim1_1,15,30,,,,2,0,2,0,,,,,,,,,0,0,0,0,0,14,14,14,6,0,6,0,,,,,,,,,,,,,,,,,,,,,,,,,,,,,,,,,,,,,,,,,,,,,,,,,,,,,,,,,,,,,,,,30,,,,,,,,8532.28673939989,8532.28673939989,8532.28673939989,8532.28673939989,8532.28673939989,return,0.677009099861607,3,0,0,0,-0.08,-0.16000000000000003,return,0.6013185000047088,-34,4,-0.08,-0.16000000000000003,,,,,,,,,,,,,,,,,,,,,,,,,,,,,,,,,,,,,,,,,,,,,,,,,,,,,,,,P42E9A,train_y,blue_star,top_left,2025-07-26_12h06.02.635,HideSeek_v1,2022.2.5,59.97753239889479,
,4,5,4,1,0,-4,65,,train_dim1_1,16,30,,,,2,0,2,0,,,,,,,,,0,0,0,0,0,15,15,15,0,0,0,0,,,,,,,,,,,,,,,,,,,,,,,,,stimuli/alien_stimuli/65.png,,,,,,,,,,,,,,,,,,,,,,,,,,,,,stimuli/alien_stimuli/64.png,64,1,17,,,,,,,30,,,,,,,,8540.71565899998,8540.71565899998,8540.71565899998,8540.71565899998,8540.71565899998,down,1.9902893998660147,3,0,0,99,0.16,-0.08,down,1.9024473999161273,,,,,8539.162298099836,8540.71565899998,-0.08,0.08,0.24,0.0,0.2,-0.08,-0.08,-0.08,0.08,8534.528337399941,8534.528337399941,8534.528337399941,8534.528337399941,8534.528337399941,8534.528337399941,8534.528337399941,8534.528337399941,8534.52486158982,4.740265400148928,return,4.618204199941829,,,,,,,,,,,,,,,,,,,,,,,,,,,,,,,,,P42E9A,train_y,blue_star,top_left,2025-07-26_12h06.02.635,HideSeek_v1,2022.2.5,59.97753239889479,
,4,5,4,1,0,-4,65,,train_dim1_1,16,30,,,,2,0,2,0,,,,,,,,,0,0,0,0,0,15,15,15,1,0,1,0,,,,,,,,,,,,,,,,,,,,,,,,,,,,,,,,,,,,,,,,,,,,,,,,,,,,,,,,,,,,,,,,30,,,,,,,,8542.717453500023,8542.717453500023,8542.717453500023,8542.717453500023,8542.717453500023,down,0.45508189988322556,3,0,0,99,0.16,-0.16,down,0.36829099990427494,,,,,,,,,,,,,,,,,,,,,,,,,,,,,,,,,,,,,,,,,,,,,,,,,,,,,,,,,,,,P42E9A,train_y,blue_star,top_left,2025-07-26_12h06.02.635,HideSeek_v1,2022.2.5,59.97753239889479,
,4,5,4,1,0,-4,65,,train_dim1_1,16,30,,,,2,0,2,0,,,,,,,,,0,0,0,0,0,15,15,15,2,0,2,0,,,,,,,,,,,,,,,,,,,,,,,,,,,,,,,,,,,,,,,,,,,,,,,,,,,,,,,,,,,,,,,,30,,,,,,,,8543.179489299888,8543.179489299888,8543.179489299888,8543.179489299888,8543.179489299888,down,0.42710780003108084,3,0,0,99,0.16,-0.24,down,0.35278489999473095,,,,,,,,,,,,,,,,,,,,,,,,,,,,,,,,,,,,,,,,,,,,,,,,,,,,,,,,,,,,P42E9A,train_y,blue_star,top_left,2025-07-26_12h06.02.635,HideSeek_v1,2022.2.5,59.97753239889479,
,4,5,4,1,0,-4,65,,train_dim1_1,16,30,,,,2,0,2,0,,,,,,,,,0,0,0,0,0,15,15,15,3,0,3,0,,,,,,,,,,,,,,,,,,,,,,,,,,,,,,,,,,,,,,,,,,,,,,,,,,,,,,,,,,,,,,,,30,,,,,,,,8543.61369859986,8543.61369859986,8543.61369859986,8543.61369859986,8543.61369859986,down,0.3928643998224288,3,0,0,99,0.16,-0.32,down,0.30954369995743036,,,,,,,,,,,,,,,,,,,,,,,,,,,,,,,,,,,,,,,,,,,,,,,,,,,,,,,,,,,,P42E9A,train_y,blue_star,top_left,2025-07-26_12h06.02.635,HideSeek_v1,2022.2.5,59.97753239889479,
,4,5,4,1,0,-4,65,,train_dim1_1,16,30,,,,2,0,2,0,,,,,,,,,0,0,0,0,0,15,15,15,4,0,4,0,,,,,,,,,,,,,,,,,,,,,,,,,,,,,,,,,,,,,,,,,,,,,,,,,,,,,,,,,,,,,,,,30,,,,,,,,8544.012320299866,8544.012320299866,8544.012320299866,8544.012320299866,8544.012320299866,return,0.4932572999969125,4,0,0,1,0.16,-0.32,return,0.4058751999400556,-38,4,0.16,-0.32,,,,,,,,,,,,,,,,,,,,,,,,,,,,,,,,,,,,,,,,,,,,,,,,,,,,,,,,P42E9A,train_y,blue_star,top_left,2025-07-26_12h06.02.635,HideSeek_v1,2022.2.5,59.97753239889479,
,3,8,3,5,0,-3,64,,train_dim1_1,17,30,,,,2,0,2,0,,,,,,,,,0,0,0,0,0,16,16,16,0,0,0,0,,,,,,,,,,,,,,,,,,,,,,,,,stimuli/alien_stimuli/64.png,,,,,,,,,,,,,,,,,,,,,,,,,,,,,stimuli/alien_stimuli/65.png,65,4,18,,,,,,,30,,,,,,,,8550.240077999886,8550.240077999886,8550.240077999886,8550.240077999886,8550.240077999886,down,2.023027000017464,4,0,0,99,0.08,0.15999999999999998,down,1.9382393001578748,,,,,8548.68668189994,8550.240077999886,0.16,-0.32,0.32,0.0,-0.16,0.16,0.16,0.16,-0.32,8546.080247299979,8546.080247299979,8546.080247299979,8546.080247299979,8546.080247299979,8546.080247299979,8546.080247299979,8546.080247299979,8546.067766689976,2.720981999998912,return,2.5769181000068784,,,,,,,,,,,,,,,,,,,,,,,,,,,,,,,,,P42E9A,train_y,blue_star,top_left,2025-07-26_12h06.02.635,HideSeek_v1,2022.2.5,59.97753239889479,
,3,8,3,5,0,-3,64,,train_dim1_1,17,30,,,,2,0,2,0,,,,,,,,,0,0,0,0,0,16,16,16,1,0,1,0,,,,,,,,,,,,,,,,,,,,,,,,,,,,,,,,,,,,,,,,,,,,,,,,,,,,,,,,,,,,,,,,30,,,,,,,,8552.270299099851,8552.270299099851,8552.270299099851,8552.270299099851,8552.270299099851,down,0.42637140001170337,4,0,0,99,0.08,0.07999999999999997,down,0.33830630010925233,,,,,,,,,,,,,,,,,,,,,,,,,,,,,,,,,,,,,,,,,,,,,,,,,,,,,,,,,,,,P42E9A,train_y,blue_star,top_left,2025-07-26_12h06.02.635,HideSeek_v1,2022.2.5,59.97753239889479,
,3,8,3,5,0,-3,64,,train_dim1_1,17,30,,,,2,0,2,0,,,,,,,,,0,0,0,0,0,16,16,16,2,0,2,0,,,,,,,,,,,,,,,,,,,,,,,,,,,,,,,,,,,,,,,,,,,,,,,,,,,,,,,,,,,,,,,,30,,,,,,,,8552.70396990003,8552.70396990003,8552.70396990003,8552.70396990003,8552.70396990003,down,0.3925860000308603,4,0,0,99,0.08,-2.7755575615628914e-17,down,0.3205442999023944,,,,,,,,,,,,,,,,,,,,,,,,,,,,,,,,,,,,,,,,,,,,,,,,,,,,,,,,,,,,P42E9A,train_y,blue_star,top_left,2025-07-26_12h06.02.635,HideSeek_v1,2022.2.5,59.97753239889479,
,3,8,3,5,0,-3,64,,train_dim1_1,17,30,,,,2,0,2,0,,,,,,,,,0,0,0,0,0,16,16,16,3,0,3,0,,,,,,,,,,,,,,,,,,,,,,,,,,,,,,,,,,,,,,,,,,,,,,,,,,,,,,,,,,,,,,,,30,,,,,,,,8553.103174800053,8553.103174800053,8553.103174800053,8553.103174800053,8553.103174800053,return,0.5933471000753343,5,0,0,1,0.08,-2.7755575615628914e-17,return,0.5104065998457372,-41,4,0.08,-2.7755575615628914e-17,,,,,,,,,,,,,,,,,,,,,,,,,,,,,,,,,,,,,,,,,,,,,,,,,,,,,,,,P42E9A,train_y,blue_star,top_left,2025-07-26_12h06.02.635,HideSeek_v1,2022.2.5,59.97753239889479,
,2,6,2,6,0,0,61,,train_dim1_1,18,30,,,,2,0,2,0,,,,,,,,,0,0,0,0,0,17,17,17,0,0,0,0,,,,,,,,,,,,,,,,,,,,,,,,,stimuli/alien_stimuli/61.png,,,,,,,,,,,,,,,,,,,,,,,,,,,,,stimuli/alien_stimuli/64.png,64,3,19,,,,,,,30,,,,,,,,8559.001412499929,8559.001412499929,8559.001412499929,8559.001412499929,8559.001412499929,return,5.004767100093886,6,0,0,1,0,0.08,return,4.929800399811938,-41,4,0,0.08,8557.44406530005,8559.001412499929,0.08,0,0.24,0.0,0.12,0.08,0.08,0.08,0,8555.262859500013,8555.262859500013,8555.262859500013,8555.262859500013,8555.262859500013,8555.262859500013,8555.262859500013,8555.262859500013,8555.258820689796,2.2875179999973625,return,2.151589300017804,,,,,,,,,,,,,,,,,,,,,,,,,,,,,,,,,P42E9A,train_y,blue_star,top_left,2025-07-26_12h06.02.635,HideSeek_v1,2022.2.5,59.97753239889479,
,0,9,0,8,0,-1,62,,train_dim1_1,19,30,,,,2,0,2,0,,,,,,,,,0,0,0,0,0,18,18,18,0,0,0,0,,,,,,,,,,,,,,,,,,,,,,,,,stimuli/alien_stimuli/62.png,,,,,,,,,,,,,,,,,,,,,,,,,,,,,stimuli/alien_stimuli/61.png,61,2,20,,,,,,,30,,,,,,,,8568.858503399882,8568.858503399882,8568.858503399882,8568.858503399882,8568.858503399882,down,2.9567136000841856,6,0,0,99,-0.16,0.24,down,2.868367899907753,,,,,8567.302013499895,8568.858503399882,0,0.08,0.0,0.0,0.08,0,0.0,0,0.08,8565.570743700024,8565.570743700024,8565.570743700024,8565.570743700024,8565.570743700024,8565.570743700024,8565.570743700024,8565.570743700024,8565.567202989758,1.8373163000214845,return,1.7155021999496967,,,,,,,,,,,,,,,,,,,,,,,,,,,,,,,,,P42E9A,train_y,blue_star,top_left,2025-07-26_12h06.02.635,HideSeek_v1,2022.2.5,59.97753239889479,
,0,9,0,8,0,-1,62,,train_dim1_1,19,30,,,,2,0,2,0,,,,,,,,,0,0,0,0,0,18,18,18,1,0,1,0,,,,,,,,,,,,,,,,,,,,,,,,,,,,,,,,,,,,,,,,,,,,,,,,,,,,,,,,,,,,,,,,30,,,,,,,,8571.819709499832,8571.819709499832,8571.819709499832,8571.819709499832,8571.819709499832,return,0.8932453999295831,7,0,0,1,-0.16,0.24,return,0.8137234000023454,-42,4,-0.16,0.24,,,,,,,,,,,,,,,,,,,,,,,,,,,,,,,,,,,,,,,,,,,,,,,,,,,,,,,,P42E9A,train_y,blue_star,top_left,2025-07-26_12h06.02.635,HideSeek_v1,2022.2.5,59.97753239889479,
,2,5,2,0,0,-5,66,,train_dim1_1,20,30,,,,2,0,2,0,,,,,,,,,0,0,0,0,0,19,19,19,0,0,0,0,,,,,,,,,,,,,,,,,,,,,,,,,stimuli/alien_stimuli/66.png,,,,,,,,,,,,,,,,,,,,,,,,,,,,,stimuli/alien_stimuli/62.png,62,0,21,,,,,,,30,,,,,,,,8577.711810899898,8577.711810899898,8577.711810899898,8577.711810899898,8577.711810899898,down,2.0562036999035627,7,0,0,99,0,-0.08,down,1.979677400086075,,,,,8576.159366999986,8577.711810899898,-0.16,0.24,0.08,0.0,0.28,-0.16,-0.16,-0.16,0.24,8574.278546999907,8574.278546999907,8574.278546999907,8574.278546999907,8574.278546999907,8574.278546999907,8574.278546999907,8574.278546999907,8574.274745389866,1.9869462000206113,return,1.8596787999849766,,,,,,,,,,,,,,,,,,,,,,,,,,,,,,,,,P42E9A,train_y,blue_star,top_left,2025-07-26_12h06.02.635,HideSeek_v1,2022.2.5,59.97753239889479,
,2,5,2,0,0,-5,66,,train_dim1_1,20,30,,,,2,0,2,0,,,,,,,,,0,0,0,0,0,19,19,19,1,0,1,0,,,,,,,,,,,,,,,,,,,,,,,,,,,,,,,,,,,,,,,,,,,,,,,,,,,,,,,,,,,,,,,,30,,,,,,,,8579.776553799864,8579.776553799864,8579.776553799864,8579.776553799864,8579.776553799864,down,0.4764331001788378,7,0,0,99,0,-0.16,down,0.4006668000947684,,,,,,,,,,,,,,,,,,,,,,,,,,,,,,,,,,,,,,,,,,,,,,,,,,,,,,,,,,,,P42E9A,train_y,blue_star,top_left,2025-07-26_12h06.02.635,HideSeek_v1,2022.2.5,59.97753239889479,
,2,5,2,0,0,-5,66,,train_dim1_1,20,30,,,,2,0,2,0,,,,,,,,,0,0,0,0,0,19,19,19,2,0,2,0,,,,,,,,,,,,,,,,,,,,,,,,,,,,,,,,,,,,,,,,,,,,,,,,,,,,,,,,,,,,,,,,30,,,,,,,,8580.259562499821,8580.259562499821,8580.259562499821,8580.259562499821,8580.259562499821,down,0.5100424999836832,7,0,0,99,0,-0.24,down,0.42568060010671616,,,,,,,,,,,,,,,,,,,,,,,,,,,,,,,,,,,,,,,,,,,,,,,,,,,,,,,,,,,,P42E9A,train_y,blue_star,top_left,2025-07-26_12h06.02.635,HideSeek_v1,2022.2.5,59.97753239889479,
,2,5,2,0,0,-5,66,,train_dim1_1,20,30,,,,2,0,2,0,,,,,,,,,0,0,0,0,0,19,19,19,3,0,3,0,,,,,,,,,,,,,,,,,,,,,,,,,,,,,,,,,,,,,,,,,,,,,,,,,,,,,,,,,,,,,,,,30,,,,,,,,8580.77854999993,8580.77854999993,8580.77854999993,8580.77854999993,8580.77854999993,down,0.4933545000385493,7,0,0,99,0,-0.32,down,0.40316010010428727,,,,,,,,,,,,,,,,,,,,,,,,,,,,,,,,,,,,,,,,,,,,,,,,,,,,,,,,,,,,P42E9A,train_y,blue_star,top_left,2025-07-26_12h06.02.635,HideSeek_v1,2022.2.5,59.97753239889479,
,2,5,2,0,0,-5,66,,train_dim1_1,20,30,,,,2,0,2,0,,,,,,,,,0,0,0,0,0,19,19,19,4,0,4,0,,,,,,,,,,,,,,,,,,,,,,,,,,,,,,,,,,,,,,,,,,,,,,,,,,,,,,,,,,,,,,,,30,,,,,,,,8581.27696050005,8581.27696050005,8581.27696050005,8581.27696050005,8581.27696050005,return,0.710666700033471,7,1,0,0,0,-0.32,return,0.6299093998968601,-46,4,0,-0.32,,,,,,,,,,,,,,,,,,,,,,,,,,,,,,,,,,,,,,,,,,,,,,,,,,,,,,,,P42E9A,train_y,blue_star,top_left,2025-07-26_12h06.02.635,HideSeek_v1,2022.2.5,59.97753239889479,
,2,9,2,5,0,-4,65,,train_dim1_1,21,30,,,,2,0,2,0,,,,,,,,,0,0,0,0,0,20,20,20,0,0,0,0,,,,,,,,,,,,,,,,,,,,,,,,,stimuli/alien_stimuli/65.png,,,,,,,,,,,,,,,,,,,,,,,,,,,,,stimuli/alien_stimuli/66.png,66,2,22,,,,,,,30,,,,,,,,8589.338075699983,8589.338075699983,8589.338075699983,8589.338075699983,8589.338075699983,down,5.910342399962246,7,1,0,99,0,0.24,down,5.838332900078967,,,,,8587.786020400003,8589.338075699983,0,-0.4,0.4,0.0,-0.2,0,0.0,0,-0.4,8583.54034549999,8583.54034549999,8583.54034549999,8583.54034549999,8583.54034549999,8583.54034549999,8583.54034549999,8583.54034549999,8583.532254019892,4.339397999923676,return,4.214001200161874,,,,,,,,,,,,,,,,,,,,,,,,,,,,,,,,,P42E9A,train_y,blue_star,top_left,2025-07-26_12h06.02.635,HideSeek_v1,2022.2.5,59.97753239889479,
,2,9,2,5,0,-4,65,,train_dim1_1,21,30,,,,2,0,2,0,,,,,,,,,0,0,0,0,0,20,20,20,1,0,1,0,,,,,,,,,,,,,,,,,,,,,,,,,,,,,,,,,,,,,,,,,,,,,,,,,,,,,,,,,,,,,,,,30,,,,,,,,8595.256493399851,8595.256493399851,8595.256493399851,8595.256493399851,8595.256493399851,down,2.3944339000154287,7,1,0,99,0,0.15999999999999998,down,2.3175401999615133,,,,,,,,,,,,,,,,,,,,,,,,,,,,,,,,,,,,,,,,,,,,,,,,,,,,,,,,,,,,P42E9A,train_y,blue_star,top_left,2025-07-26_12h06.02.635,HideSeek_v1,2022.2.5,59.97753239889479,
,2,9,2,5,0,-4,65,,train_dim1_1,21,30,,,,2,0,2,0,,,,,,,,,0,0,0,0,0,20,20,20,2,0,2,0,,,,,,,,,,,,,,,,,,,,,,,,,,,,,,,,,,,,,,,,,,,,,,,,,,,,,,,,,,,,,,,,30,,,,,,,,8597.657600499922,8597.657600499922,8597.657600499922,8597.657600499922,8597.657600499922,down,0.8271153999958187,7,1,0,99,0,0.07999999999999997,down,0.749145400011912,,,,,,,,,,,,,,,,,,,,,,,,,,,,,,,,,,,,,,,,,,,,,,,,,,,,,,,,,,,,P42E9A,train_y,blue_star,top_left,2025-07-26_12h06.02.635,HideSeek_v1,2022.2.5,59.97753239889479,
,2,9,2,5,0,-4,65,,train_dim1_1,21,30,,,,2,0,2,0,,,,,,,,,0,0,0,0,0,20,20,20,3,0,3,0,,,,,,,,,,,,,,,,,,,,,,,,,,,,,,,,,,,,,,,,,,,,,,,,,,,,,,,,,,,,,,,,30,,,,,,,,8598.491165600019,8598.491165600019,8598.491165600019,8598.491165600019,8598.491165600019,return,1.0771902999840677,7,1,0,0,0,0.07999999999999997,return,0.994842299958691,-49,4,0,0.07999999999999997,,,,,,,,,,,,,,,,,,,,,,,,,,,,,,,,,,,,,,,,,,,,,,,,,,,,,,,,P42E9A,train_y,blue_star,top_left,2025-07-26_12h06.02.635,HideSeek_v1,2022.2.5,59.97753239889479,
,0,7,0,4,0,-3,64,,train_dim1_1,22,30,,,,2,0,2,0,,,,,,,,,0,0,0,0,0,21,21,21,0,0,0,0,,,,,,,,,,,,,,,,,,,,,,,,,stimuli/alien_stimuli/64.png,,,,,,,,,,,,,,,,,,,,,,,,,,,,,stimuli/alien_stimuli/65.png,65,2,23,,,,,,,30,,,,,,,,8605.787293100031,8605.787293100031,8605.787293100031,8605.787293100031,8605.787293100031,down,3.6064784000627697,7,1,0,99,-0.16,0.08,down,3.525338899809867,,,,,8604.232900199946,8605.787293100031,0,0,0.32,0.0,0.16,0,0.0,0,0,8601.13326589996,8601.13326589996,8601.13326589996,8601.13326589996,8601.13326589996,8601.13326589996,8601.13326589996,8601.13326589996,8601.130334889796,3.205022699898109,return,3.081161899957806,,,,,,,,,,,,,,,,,,,,,,,,,,,,,,,,,P42E9A,train_y,blue_star,top_left,2025-07-26_12h06.02.635,HideSeek_v1,2022.2.5,59.97753239889479,
,0,7,0,4,0,-3,64,,train_dim1_1,22,30,,,,2,0,2,0,,,,,,,,,0,0,0,0,0,21,21,21,1,0,1,0,,,,,,,,,,,,,,,,,,,,,,,,,,,,,,,,,,,,,,,,,,,,,,,,,,,,,,,,,,,,,,,,30,,,,,,,,8609.400838800007,8609.400838800007,8609.400838800007,8609.400838800007,8609.400838800007,down,0.5091747001279145,7,1,0,99,-0.16,0.0,down,0.42334300000220537,,,,,,,,,,,,,,,,,,,,,,,,,,,,,,,,,,,,,,,,,,,,,,,,,,,,,,,,,,,,P42E9A,train_y,blue_star,top_left,2025-07-26_12h06.02.635,HideSeek_v1,2022.2.5,59.97753239889479,
,0,7,0,4,0,-3,64,,train_dim1_1,22,30,,,,2,0,2,0,,,,,,,,,0,0,0,0,0,21,21,21,2,0,2,0,,,,,,,,,,,,,,,,,,,,,,,,,,,,,,,,,,,,,,,,,,,,,,,,,,,,,,,,,,,,,,,,30,,,,,,,,8609.917423399864,8609.917423399864,8609.917423399864,8609.917423399864,8609.917423399864,down,0.46027739997953176,7,1,0,99,-0.16,-0.08,down,0.3806173000484705,,,,,,,,,,,,,,,,,,,,,,,,,,,,,,,,,,,,,,,,,,,,,,,,,,,,,,,,,,,,P42E9A,train_y,blue_star,top_left,2025-07-26_12h06.02.635,HideSeek_v1,2022.2.5,59.97753239889479,
,0,7,0,4,0,-3,64,,train_dim1_1,22,30,,,,2,0,2,0,,,,,,,,,0,0,0,0,0,21,21,21,3,0,3,0,,,,,,,,,,,,,,,,,,,,,,,,,,,,,,,,,,,,,,,,,,,,,,,,,,,,,,,,,,,,,,,,30,,,,,,,,8610.384734599851,8610.384734599851,8610.384734599851,8610.384734599851,8610.384734599851,return,0.4765590999741107,8,0,0,1,-0.16,-0.08,return,0.39133850019425154,-52,4,-0.16,-0.08,,,,,,,,,,,,,,,,,,,,,,,,,,,,,,,,,,,,,,,,,,,,,,,,,,,,,,,,P42E9A,train_y,blue_star,top_left,2025-07-26_12h06.02.635,HideSeek_v1,2022.2.5,59.97753239889479,
,0,8,0,8,0,0,61,,train_dim1_1,23,30,,,,2,0,2,0,,,,,,,,,0,0,0,0,0,22,22,22,0,0,0,0,,,,,,,,,,,,,,,,,,,,,,,,,stimuli/alien_stimuli/61.png,,,,,,,,,,,,,,,,,,,,,,,,,,,,,stimuli/alien_stimuli/64.png,64,0,24,,,,,,,30,,,,,,,,8616.778293999843,8616.778293999843,8616.778293999843,8616.778293999843,8616.778293999843,return,2.5574560000095516,9,0,0,1,-0.16,0.24,return,2.4740037999581546,-52,4,-0.16,0.24,8615.225465100026,8616.778293999843,-0.16,-0.08,0.24,0.0,0.04,-0.16,-0.16,-0.16,-0.08,8612.435525699984,8612.435525699984,8612.435525699984,8612.435525699984,8612.435525699984,8612.435525699984,8612.435525699984,8612.435525699984,8612.422885789816,2.905114699853584,return,2.7710813998710364,,,,,,,,,,,,,,,,,,,,,,,,,,,,,,,,,P42E9A,train_y,blue_star,top_left,2025-07-26_12h06.02.635,HideSeek_v1,2022.2.5,59.97753239889479,
,3,7,3,2,0,-5,66,,train_dim1_1,24,30,,,,2,0,2,0,,,,,,,,,0,0,0,0,0,23,23,23,0,0,0,0,,,,,,,,,,,,,,,,,,,,,,,,,stimuli/alien_stimuli/66.png,,,,,,,,,,,,,,,,,,,,,,,,,,,,,stimuli/alien_stimuli/61.png,61,0,25,,,,,,,30,,,,,,,,8626.505872099893,8626.505872099893,8626.505872099893,8626.505872099893,8626.505872099893,down,2.322252699872479,9,0,0,99,0.08,0.08,down,2.2359374000225216,,,,,8624.949941699859,8626.505872099893,-0.16,0.24,0.0,0.0,0.24,-0.16,-0.16,-0.16,0.24,8620.902578499867,8620.902578499867,8620.902578499867,8620.902578499867,8620.902578499867,8620.902578499867,8620.902578499867,8620.902578499867,8620.896785789915,4.155066999839619,return,4.020660199923441,,,,,,,,,,,,,,,,,,,,,,,,,,,,,,,,,P42E9A,train_y,blue_star,top_left,2025-07-26_12h06.02.635,HideSeek_v1,2022.2.5,59.97753239889479,
,3,7,3,2,0,-5,66,,train_dim1_1,24,30,,,,2,0,2,0,,,,,,,,,0,0,0,0,0,23,23,23,1,0,1,0,,,,,,,,,,,,,,,,,,,,,,,,,,,,,,,,,,,,,,,,,,,,,,,,,,,,,,,,,,,,,,,,30,,,,,,,,8628.833730599843,8628.833730599843,8628.833730599843,8628.833730599843,8628.833730599843,down,0.592987900134176,9,0,0,99,0.08,0.0,down,0.5130425998941064,,,,,,,,,,,,,,,,,,,,,,,,,,,,,,,,,,,,,,,,,,,,,,,,,,,,,,,,,,,,P42E9A,train_y,blue_star,top_left,2025-07-26_12h06.02.635,HideSeek_v1,2022.2.5,59.97753239889479,
,3,7,3,2,0,-5,66,,train_dim1_1,24,30,,,,2,0,2,0,,,,,,,,,0,0,0,0,0,23,23,23,2,0,2,0,,,,,,,,,,,,,,,,,,,,,,,,,,,,,,,,,,,,,,,,,,,,,,,,,,,,,,,,,,,,,,,,30,,,,,,,,8629.434130899841,8629.434130899841,8629.434130899841,8629.434130899841,8629.434130899841,down,0.6099362999666482,9,0,0,99,0.08,-0.08,down,0.532268000068143,,,,,,,,,,,,,,,,,,,,,,,,,,,,,,,,,,,,,,,,,,,,,,,,,,,,,,,,,,,,P42E9A,train_y,blue_star,top_left,2025-07-26_12h06.02.635,HideSeek_v1,2022.2.5,59.97753239889479,
,3,7,3,2,0,-5,66,,train_dim1_1,24,30,,,,2,0,2,0,,,,,,,,,0,0,0,0,0,23,23,23,3,0,3,0,,,,,,,,,,,,,,,,,,,,,,,,,,,,,,,,,,,,,,,,,,,,,,,,,,,,,,,,,,,,,,,,30,,,,,,,,8630.051447500009,8630.051447500009,8630.051447500009,8630.051447500009,8630.051447500009,down,0.59346569981426,9,0,0,99,0.08,-0.16,down,0.5124655000399798,,,,,,,,,,,,,,,,,,,,,,,,,,,,,,,,,,,,,,,,,,,,,,,,,,,,,,,,,,,,P42E9A,train_y,blue_star,top_left,2025-07-26_12h06.02.635,HideSeek_v1,2022.2.5,59.97753239889479,
,3,7,3,2,0,-5,66,,train_dim1_1,24,30,,,,2,0,2,0,,,,,,,,,0,0,0,0,0,23,23,23,4,0,4,0,,,,,,,,,,,,,,,,,,,,,,,,,,,,,,,,,,,,,,,,,,,,,,,,,,,,,,,,,,,,,,,,30,,,,,,,,8630.65306479996,8630.65306479996,8630.65306479996,8630.65306479996,8630.65306479996,return,0.7765291000250727,9,1,0,0,0.08,-0.16,return,0.6947776998858899,-56,4,0.08,-0.16,,,,,,,,,,,,,,,,,,,,,,,,,,,,,,,,,,,,,,,,,,,,,,,,,,,,,,,,P42E9A,train_y,blue_star,top_left,2025-07-26_12h06.02.635,HideSeek_v1,2022.2.5,59.97753239889479,
,3,8,3,7,0,-1,62,,train_dim1_1,25,30,,,,2,0,2,0,,,,,,,,,0,0,0,0,0,24,24,24,0,0,0,0,,,,,,,,,,,,,,,,,,,,,,,,,stimuli/alien_stimuli/62.png,,,,,,,,,,,,,,,,,,,,,,,,,,,,,stimuli/alien_stimuli/66.png,66,3,26,,,,,,,30,,,,,,,,8638.363372399937,8638.363372399937,8638.363372399937,8638.363372399937,8638.363372399937,return,4.558853900060058,9,1,0,0,0.08,0.24,return,4.485803599935025,-56,4,0.08,0.24,8636.80989210005,8638.363372399937,0.08,-0.24,0.4,0.0,-0.039999999999999994,0.08,0.08,0.08,-0.24,8632.997092499863,8632.997092499863,8632.997092499863,8632.997092499863,8632.997092499863,8632.997092499863,8632.997092499863,8632.997092499863,8632.990140889819,3.921949800103903,return,3.7875095999334008,,,,,,,,,,,,,,,,,,,,,,,,,,,,,,,,,P42E9A,train_y,blue_star,top_left,2025-07-26_12h06.02.635,HideSeek_v1,2022.2.5,59.97753239889479,
,4,9,4,6,0,-3,64,,train_dim1_1,26,30,,,,2,0,2,0,,,,,,,,,0,0,0,0,0,25,25,25,0,0,0,0,,,,,,,,,,,,,,,,,,,,,,,,,stimuli/alien_stimuli/64.png,,,,,,,,,,,,,,,,,,,,,,,,,,,,,stimuli/alien_stimuli/62.png,62,3,27,,,,,,,30,,,,,,,,8648.63788970001,8648.63788970001,8648.63788970001,8648.63788970001,8648.63788970001,down,1.790282600093633,9,1,0,99,0.16,0.24,down,1.7073719000909477,,,,,8647.085341800004,8648.63788970001,0.08,0.16,0.08,0.0,0.2,0.08,0.08,0.08,0.16,8644.495045499876,8644.495045499876,8644.495045499876,8644.495045499876,8644.495045499876,8644.495045499876,8644.495045499876,8644.495045499876,8644.483088889905,2.7043683999218047,return,2.5698063999880105,,,,,,,,,,,,,,,,,,,,,,,,,,,,,,,,,P42E9A,train_y,blue_star,top_left,2025-07-26_12h06.02.635,HideSeek_v1,2022.2.5,59.97753239889479,
,4,9,4,6,0,-3,64,,train_dim1_1,26,30,,,,2,0,2,0,,,,,,,,,0,0,0,0,0,25,25,25,1,0,1,0,,,,,,,,,,,,,,,,,,,,,,,,,,,,,,,,,,,,,,,,,,,,,,,,,,,,,,,,,,,,,,,,30,,,,,,,,8650.442858399823,8650.442858399823,8650.442858399823,8650.442858399823,8650.442858399823,down,0.41835020016878843,9,1,0,99,0.16,0.15999999999999998,down,0.3447108999826014,,,,,,,,,,,,,,,,,,,,,,,,,,,,,,,,,,,,,,,,,,,,,,,,,,,,,,,,,,,,P42E9A,train_y,blue_star,top_left,2025-07-26_12h06.02.635,HideSeek_v1,2022.2.5,59.97753239889479,
,4,9,4,6,0,-3,64,,train_dim1_1,26,30,,,,2,0,2,0,,,,,,,,,0,0,0,0,0,25,25,25,2,0,2,0,,,,,,,,,,,,,,,,,,,,,,,,,,,,,,,,,,,,,,,,,,,,,,,,,,,,,,,,,,,,,,,,30,,,,,,,,8650.868027199991,8650.868027199991,8650.868027199991,8650.868027199991,8650.868027199991,down,0.39337319997139275,9,1,0,99,0.16,0.07999999999999997,down,0.31133699999190867,,,,,,,,,,,,,,,,,,,,,,,,,,,,,,,,,,,,,,,,,,,,,,,,,,,,,,,,,,,,P42E9A,train_y,blue_star,top_left,2025-07-26_12h06.02.635,HideSeek_v1,2022.2.5,59.97753239889479,
,4,9,4,6,0,-3,64,,train_dim1_1,26,30,,,,2,0,2,0,,,,,,,,,0,0,0,0,0,25,25,25,3,0,3,0,,,,,,,,,,,,,,,,,,,,,,,,,,,,,,,,,,,,,,,,,,,,,,,,,,,,,,,,,,,,,,,,30,,,,,,,,8651.268493799958,8651.268493799958,8651.268493799958,8651.268493799958,8651.268493799958,return,0.6766516999341547,10,0,0,1,0.16,0.07999999999999997,return,0.5944942000787705,-59,4,0.16,0.07999999999999997,,,,,,,,,,,,,,,,,,,,,,,,,,,,,,,,,,,,,,,,,,,,,,,,,,,,,,,,P42E9A,train_y,blue_star,top_left,2025-07-26_12h06.02.635,HideSeek_v1,2022.2.5,59.97753239889479,
,3,9,3,4,0,-5,66,,train_dim1_1,27,30,,,,2,0,2,0,,,,,,,,,0,0,0,0,0,26,26,26,0,0,0,0,,,,,,,,,,,,,,,,,,,,,,,,,stimuli/alien_stimuli/66.png,,,,,,,,,,,,,,,,,,,,,,,,,,,,,stimuli/alien_stimuli/64.png,64,4,28,,,,,,,30,,,,,,,,8662.081643699901,8662.081643699901,8662.081643699901,8662.081643699901,8662.081643699901,down,2.6581922001205385,10,0,0,99,0.08,0.24,down,2.5745667999144644,,,,,8660.529815200018,8662.081643699901,0.16,0.08,0.24,0.0,0.2,0.16,0.16,0.16,0.08,8653.5116520999,8653.5116520999,8653.5116520999,8653.5116520999,8653.5116520999,8653.5116520999,8653.5116520999,8653.5116520999,8653.507097089943,7.124957700027153,return,7.0009996998123825,,,,,,,,,,,,,,,,,,,,,,,,,,,,,,,,,P42E9A,train_y,blue_star,top_left,2025-07-26_12h06.02.635,HideSeek_v1,2022.2.5,59.97753239889479,
,3,9,3,4,0,-5,66,,train_dim1_1,27,30,,,,2,0,2,0,,,,,,,,,0,0,0,0,0,26,26,26,1,0,1,0,,,,,,,,,,,,,,,,,,,,,,,,,,,,,,,,,,,,,,,,,,,,,,,,,,,,,,,,,,,,,,,,30,,,,,,,,8664.746848599985,8664.746848599985,8664.746848599985,8664.746848599985,8664.746848599985,down,0.5596968000754714,10,0,0,99,0.08,0.15999999999999998,down,0.4864684999920428,,,,,,,,,,,,,,,,,,,,,,,,,,,,,,,,,,,,,,,,,,,,,,,,,,,,,,,,,,,,P42E9A,train_y,blue_star,top_left,2025-07-26_12h06.02.635,HideSeek_v1,2022.2.5,59.97753239889479,
,3,9,3,4,0,-5,66,,train_dim1_1,27,30,,,,2,0,2,0,,,,,,,,,0,0,0,0,0,26,26,26,2,0,2,0,,,,,,,,,,,,,,,,,,,,,,,,,,,,,,,,,,,,,,,,,,,,,,,,,,,,,,,,,,,,,,,,30,,,,,,,,8665.314331899863,8665.314331899863,8665.314331899863,8665.314331899863,8665.314331899863,down,0.5430558999069035,10,0,0,99,0.08,0.07999999999999997,down,0.4612066999543458,,,,,,,,,,,,,,,,,,,,,,,,,,,,,,,,,,,,,,,,,,,,,,,,,,,,,,,,,,,,P42E9A,train_y,blue_star,top_left,2025-07-26_12h06.02.635,HideSeek_v1,2022.2.5,59.97753239889479,
,3,9,3,4,0,-5,66,,train_dim1_1,27,30,,,,2,0,2,0,,,,,,,,,0,0,0,0,0,26,26,26,3,0,3,0,,,,,,,,,,,,,,,,,,,,,,,,,,,,,,,,,,,,,,,,,,,,,,,,,,,,,,,,,,,,,,,,30,,,,,,,,8665.864150299923,8665.864150299923,8665.864150299923,8665.864150299923,8665.864150299923,down,0.4934024999383837,10,0,0,99,0.08,-2.7755575615628914e-17,down,0.407987899845466,,,,,,,,,,,,,,,,,,,,,,,,,,,,,,,,,,,,,,,,,,,,,,,,,,,,,,,,,,,,P42E9A,train_y,blue_star,top_left,2025-07-26_12h06.02.635,HideSeek_v1,2022.2.5,59.97753239889479,
,3,9,3,4,0,-5,66,,train_dim1_1,27,30,,,,2,0,2,0,,,,,,,,,0,0,0,0,0,26,26,26,4,0,4,0,,,,,,,,,,,,,,,,,,,,,,,,,,,,,,,,,,,,,,,,,,,,,,,,,,,,,,,,,,,,,,,,30,,,,,,,,8666.363617999945,8666.363617999945,8666.363617999945,8666.363617999945,8666.363617999945,return,0.6436346999835223,10,1,0,0,0.08,-2.7755575615628914e-17,return,0.5670233001001179,-63,4,0.08,-2.7755575615628914e-17,,,,,,,,,,,,,,,,,,,,,,,,,,,,,,,,,,,,,,,,,,,,,,,,,,,,,,,,P42E9A,train_y,blue_star,top_left,2025-07-26_12h06.02.635,HideSeek_v1,2022.2.5,59.97753239889479,
,4,6,4,6,0,0,61,,train_dim1_1,28,30,,,,2,0,2,0,,,,,,,,,0,0,0,0,0,27,27,27,0,0,0,0,,,,,,,,,,,,,,,,,,,,,,,,,stimuli/alien_stimuli/61.png,,,,,,,,,,,,,,,,,,,,,,,,,,,,,stimuli/alien_stimuli/66.png,66,3,29,,,,,,,30,,,,,,,,8673.007529299939,8673.007529299939,8673.007529299939,8673.007529299939,8673.007529299939,return,1.6744492000434548,11,0,0,1,0.16,0.08,return,1.5977471999358386,-63,4,0.16,0.08,8671.455534199951,8673.007529299939,0.08,-0.08,0.4,0.0,0.12,0.08,0.08,0.08,-0.08,8668.574474300025,8668.574474300025,8668.574474300025,8668.574474300025,8668.574474300025,8668.574474300025,8668.574474300025,8668.574474300025,8668.569650889887,2.9885827999096364,return,2.8623465998098254,,,,,,,,,,,,,,,,,,,,,,,,,,,,,,,,,P42E9A,train_y,blue_star,top_left,2025-07-26_12h06.02.635,HideSeek_v1,2022.2.5,59.97753239889479,
,2,7,2,6,0,-1,62,,train_dim1_1,29,30,,,,2,0,2,0,,,,,,,,,0,0,0,0,0,28,28,28,0,0,0,0,,,,,,,,,,,,,,,,,,,,,,,,,stimuli/alien_stimuli/62.png,,,,,,,,,,,,,,,,,,,,,,,,,,,,,stimuli/alien_stimuli/61.png,61,4,30,,,,,,,30,,,,,,,,8679.579873699928,8679.579873699928,8679.579873699928,8679.579873699928,8679.579873699928,down,2.724841000046581,11,0,0,99,0,0.08,down,2.640697800088674,,,,,8678.027848099824,8679.579873699928,0.16,0.08,0.0,0.0,0.08,0.16,0.16,0.16,0.08,8676.233834599843,8676.233834599843,8676.233834599843,8676.233834599843,8676.233834599843,8676.233834599843,8676.233834599843,8676.233834599843,8676.226243719831,1.8872722999658436,return,1.7675656001083553,,,,,,,,,,,,,,,,,,,,,,,,,,,,,,,,,P42E9A,train_y,blue_star,top_left,2025-07-26_12h06.02.635,HideSeek_v1,2022.2.5,59.97753239889479,
,2,7,2,6,0,-1,62,,train_dim1_1,29,30,,,,2,0,2,0,,,,,,,,,0,0,0,0,0,28,28,28,1,0,1,0,,,,,,,,,,,,,,,,,,,,,,,,,,,,,,,,,,,,,,,,,,,,,,,,,,,,,,,,,,,,,,,,30,,,,,,,,8682.311788899824,8682.311788899824,8682.311788899824,8682.311788899824,8682.311788899824,return,0.5094443999696523,12,0,0,1,0,0.08,return,0.43045609979890287,-64,4,0,0.08,,,,,,,,,,,,,,,,,,,,,,,,,,,,,,,,,,,,,,,,,,,,,,,,,,,,,,,,P42E9A,train_y,blue_star,top_left,2025-07-26_12h06.02.635,HideSeek_v1,2022.2.5,59.97753239889479,
,0,6,0,2,0,-4,65,,train_dim1_1,30,30,,,,2,0,2,0,,,,,,,,,0,0,0,0,0,29,29,29,0,0,0,0,,,,,,,,,,,,,,,,,,,,,,,,,stimuli/alien_stimuli/65.png,,,,,,,,,,,,,,,,,,,,,,,,,,,,,stimuli/alien_stimuli/62.png,62,2,31,,,,,,,30,,,,,,,,8687.670580799924,8687.670580799924,8687.670580799924,8687.670580799924,8687.670580799924,down,0.6043050999287516,12,0,0,99,-0.16,0.0,down,0.5304970999713987,,,,,8686.11746359989,8687.670580799924,0,0.08,0.08,0.0,0.12,0,0.0,0,0.08,8684.390121500008,8684.390121500008,8684.390121500008,8684.390121500008,8684.390121500008,8684.390121500008,8684.390121500008,8684.390121500008,8684.382972189971,1.836810200009495,return,1.7060077998321503,,,,,,,,,,,,,,,,,,,,,,,,,,,,,,,,,P42E9A,train_y,blue_star,top_left,2025-07-26_12h06.02.635,HideSeek_v1,2022.2.5,59.97753239889479,
,0,6,0,2,0,-4,65,,train_dim1_1,30,30,,,,2,0,2,0,,,,,,,,,0,0,0,0,0,29,29,29,1,0,1,0,,,,,,,,,,,,,,,,,,,,,,,,,,,,,,,,,,,,,,,,,,,,,,,,,,,,,,,,,,,,,,,,30,,,,,,,,8688.282634499948,8688.282634499948,8688.282634499948,8688.282634499948,8688.282634499948,down,0.5431934001389891,12,0,0,99,-0.16,-0.08,down,0.4701304000336677,,,,,,,,,,,,,,,,,,,,,,,,,,,,,,,,,,,,,,,,,,,,,,,,,,,,,,,,,,,,P42E9A,train_y,blue_star,top_left,2025-07-26_12h06.02.635,HideSeek_v1,2022.2.5,59.97753239889479,
,0,6,0,2,0,-4,65,,train_dim1_1,30,30,,,,2,0,2,0,,,,,,,,,0,0,0,0,0,29,29,29,2,0,2,0,,,,,,,,,,,,,,,,,,,,,,,,,,,,,,,,,,,,,,,,,,,,,,,,,,,,,,,,,,,,,,,,30,,,,,,,,8688.833262099884,8688.833262099884,8688.833262099884,8688.833262099884,8688.833262099884,down,0.5764862999785691,12,0,0,99,-0.16,-0.16,down,0.4921191001776606,,,,,,,,,,,,,,,,,,,,,,,,,,,,,,,,,,,,,,,,,,,,,,,,,,,,,,,,,,,,P42E9A,train_y,blue_star,top_left,2025-07-26_12h06.02.635,HideSeek_v1,2022.2.5,59.97753239889479,
,0,6,0,2,0,-4,65,,train_dim1_1,30,30,,,,2,0,2,0,,,,,,,,,0,0,0,0,0,29,29,29,3,0,3,0,,,,,,,,,,,,,,,,,,,,,,,,,,,,,,,,,,,,,,,,,,,,,,,,,,,,,,,,,,,,,,,,30,,,,,,,,8689.416624899954,8689.416624899954,8689.416624899954,8689.416624899954,8689.416624899954,down,0.5433722999878228,12,0,0,99,-0.16,-0.24,down,0.4615020998753607,,,,,,,,,,,,,,,,,,,,,,,,,,,,,,,,,,,,,,,,,,,,,,,,,,,,,,,,,,,,P42E9A,train_y,blue_star,top_left,2025-07-26_12h06.02.635,HideSeek_v1,2022.2.5,59.97753239889479,
,0,6,0,2,0,-4,65,,train_dim1_1,30,30,,,,2,0,2,0,,,,,,,,,0,0,0,0,0,29,29,29,4,0,4,0,,,,,,,,,,,,,,,,,,,,,,,,,,,,,,,,,,,,,,,,,,,,,,,,,,,,,,,,,,,,,,,,30,,,,,,,,8689.967596999835,8689.967596999835,8689.967596999835,8689.967596999835,8689.967596999835,down,0.5101767999585718,12,0,0,99,-0.16,-0.32,down,0.4277854999527335,,,,,,,,,,,,,,,,,,,,,,,,,,,,,,,,,,,,,,,,,,,,,,,,,,,,,,,,,,,,P42E9A,train_y,blue_star,top_left,2025-07-26_12h06.02.635,HideSeek_v1,2022.2.5,59.97753239889479,
,0,6,0,2,0,-4,65,,train_dim1_1,30,30,,,,2,0,2,0,,,,,,,,,0,0,0,0,0,29,29,29,5,0,5,0,,,,,,,,,,,,,,,,,,,,,,,,,,,,,,,,,,,,,,,,,,,,,,,,,,,,,,,,,,,,,,,,30,,,,,,,,8690.484784699976,8690.484784699976,8690.484784699976,8690.484784699976,8690.484784699976,return,0.54309880011715,12,1,0,0,-0.16,-0.32,return,0.45632670004852116,-69,4,-0.16,-0.32,,,,,,,,,,,,,,,,,,,,,,,,,,,,,,,,,,,,,,,,,,,,,,,,,,,,,,,,P42E9A,train_y,blue_star,top_left,2025-07-26_12h06.02.635,HideSeek_v1,2022.2.5,59.97753239889479,
,,,,,,,,,,,30,,,,2,0,2,0,,,,,,,,,,,,,,,,,,,,,,,,,,,,,,,,,,,,,,,,,,,,,,,,,,,,,,,,,,,,,,,,,,,,,,,,,,stimuli/alien_stimuli/65.png,65,0,32,21,0.7,0.5,1,1,1,30,0,conditions/schedules/train_y_first/blue_star_00/top_left/inputTrain_2.1.xlsx,99,1,2,1,0,,,,,,,,,,,0,,,,,,,,,8698.361365800025,8699.919236399932,-0.16,-0.24,0.32,0.0,-0.07999999999999999,-0.16,-0.16,-0.16,-0.24,8692.579900800018,8692.579900800018,8692.579900800018,8692.579900800018,8692.579900800018,8692.579900800018,8692.579900800018,8692.579900800018,8692.573217519932,5.873286899877712,return,5.758085599867627,0,0.9,0,1,12,,,,,,,,,,,,,,,,,,,,,,,,,,,,P42E9A,train_y,blue_star,top_left,2025-07-26_12h06.02.635,HideSeek_v1,2022.2.5,59.97753239889479,
,,,,,,,,,,,,,,,3,0,3,0,0,0,0,0,,,,,,,,,,,,,,,,,,,,,,,,,,,,,,,conditions/schedules/train_y_first/blue_star_00/top_left/instructions/Slide17.png,conditions/schedules/train_y_first/blue_star_00/top_left/instructions/Audio17.wav,8699.919236399932,8699.912365279952,17,"[7.800594500033185, 17.531518900068477, 16.159148100065067, 19.034682699944824, 3.9980394998565316, 4.75366839999333, 5.285493600182235, 11.388134400127456, 5.6061937001068145, 6.869999599875882, 9.77097769989632, 13.586933699902147, 16.480937000131235, 16.3319760998711, 43.726389300078154, 21.634860699996352, 71.36703359987587]","[0.00021760002709925175, 0.04742199997417629, 0.03461409988813102, 0.06254690000787377, 0.06586760003119707, 0.014011500170454383, 0.030079100048169494, 0.03397889994084835, 0.03152429987676442, 0.04726299992762506, 0.01392549998126924, 13.586940299952403, 0.05154030001722276, 16.331983499927446, 0.00021369988098740578, 21.63486950006336, 71.36704139993526]",0,,,,,,,,,,,,,,,,,,,,,,,,,,,,,,,,,,,,,,,,,,,,,,,,,,,,,,,,,,,,,,,,,,,,,,,,,,,,,,,,,,,,,,,,,,,,,,,,,,,,,,,,,,,,,,,,,,,,,,,,,,,,P42E9A,train_y,blue_star,top_left,2025-07-26_12h06.02.635,HideSeek_v1,2022.2.5,59.97753239889479,
,,,,,,,,,,,,,,,3,0,3,0,1,0,1,0,,,,,,,,,,,,,,,,,,,,,,,,,,,,,,,conditions/schedules/train_y_first/blue_star_00/top_left/instructions/Slide18.png,conditions/schedules/train_y_first/blue_star_00/top_left/instructions/Audio18.wav,8771.36059769988,8771.355472449912,18,"[7.800594500033185, 17.531518900068477, 16.159148100065067, 19.034682699944824, 3.9980394998565316, 4.75366839999333, 5.285493600182235, 11.388134400127456, 5.6061937001068145, 6.869999599875882, 9.77097769989632, 13.586933699902147, 16.480937000131235, 16.3319760998711, 43.726389300078154, 21.634860699996352, 71.36703359987587, 6.381155699957162]","[0.00021760002709925175, 0.04742199997417629, 0.03461409988813102, 0.06254690000787377, 0.06586760003119707, 0.014011500170454383, 0.030079100048169494, 0.03397889994084835, 0.03152429987676442, 0.04726299992762506, 0.01392549998126924, 13.586940299952403, 0.05154030001722276, 16.331983499927446, 0.00021369988098740578, 21.63486950006336, 71.36704139993526, 6.381162500008941]",0,,,,,,,,,,,,,,,,,,,,,,,,,,,,,,,,,,,,,,,,,,,,,,,,,,,,,,,,,,,,,,,,,,,,,,,,,,,,,,,,,,,,,,,,,,,,,,,,,,,,,,,,,,,,,,,,,,,,,,,,,,,,P42E9A,train_y,blue_star,top_left,2025-07-26_12h06.02.635,HideSeek_v1,2022.2.5,59.97753239889479,
,,,,,,,,,,,,,,,3,0,3,0,2,0,2,0,,,,,,,,,,,,,,,,,,,,,,,,,,,,,,,conditions/schedules/train_y_first/blue_star_00/top_left/instructions/Slide19.png,conditions/schedules/train_y_first/blue_star_00/top_left/instructions/Audio19.wav,8777.79646490002,8777.794178379792,19,"[7.800594500033185, 17.531518900068477, 16.159148100065067, 19.034682699944824, 3.9980394998565316, 4.75366839999333, 5.285493600182235, 11.388134400127456, 5.6061937001068145, 6.869999599875882, 9.77097769989632, 13.586933699902147, 16.480937000131235, 16.3319760998711, 43.726389300078154, 21.634860699996352, 71.36703359987587, 6.381155699957162, 9.236536900047213]","[0.00021760002709925175, 0.04742199997417629, 0.03461409988813102, 0.06254690000787377, 0.06586760003119707, 0.014011500170454383, 0.030079100048169494, 0.03397889994084835, 0.03152429987676442, 0.04726299992762506, 0.01392549998126924, 13.586940299952403, 0.05154030001722276, 16.331983499927446, 0.00021369988098740578, 21.63486950006336, 71.36704139993526, 0.046619500033557415, 9.236543900100514]",0,,,,,,,,,,,,,,,,,,,,,,,,,,,,,,,,,,,,,,,,,,,,,,,,,,,,,,,,,,,,,,,,,,,,,,,,,,,,,,,,,,,,,,,,,,,,,,,,,,,,,,,,,,,,,,,,,,,,,,,,,,,,P42E9A,train_y,blue_star,top_left,2025-07-26_12h06.02.635,HideSeek_v1,2022.2.5,59.97753239889479,
,,,,,,,,,,,,,,,3,0,3,0,3,0,3,0,,,,,,,,,,,,,,,,,,,,,,,,,,,,,,,conditions/schedules/train_y_first/blue_star_00/top_left/instructions/Slide20.png,conditions/schedules/train_y_first/blue_star_00/top_left/instructions/Audio20.wav,8787.086338100024,8787.0852577799,20,"[7.800594500033185, 17.531518900068477, 16.159148100065067, 19.034682699944824, 3.9980394998565316, 4.75366839999333, 5.285493600182235, 11.388134400127456, 5.6061937001068145, 6.869999599875882, 9.77097769989632, 13.586933699902147, 16.480937000131235, 16.3319760998711, 43.726389300078154, 21.634860699996352, 71.36703359987587, 6.381155699957162, 9.236536900047213, 12.456571499817073]","[0.00021760002709925175, 0.04742199997417629, 0.03461409988813102, 0.06254690000787377, 0.06586760003119707, 0.014011500170454383, 0.030079100048169494, 0.03397889994084835, 0.03152429987676442, 0.04726299992762506, 0.01392549998126924, 13.586940299952403, 0.05154030001722276, 16.331983499927446, 0.00021369988098740578, 21.63486950006336, 71.36704139993526, 0.046619500033557415, 0.014109199866652489, 12.456577699864283]",0,,,,,,,,,,,,,,,,,,,,,,,,,,,,,,,,,,,,,,,,,,,,,,,,,,,,,,,,,,,,,,,,,,,,,,,,,,,,,,,,,,,,,,,,,,,,,,,,,,,,,,,,,,,,,,,,,,,,,,,,,,,,P42E9A,train_y,blue_star,top_left,2025-07-26_12h06.02.635,HideSeek_v1,2022.2.5,59.97753239889479,
1,4,5,9,5,5,0,11,2,instr_dim1_2,,,,,,3,0,3,0,,,,,0,0,0,0,,,,,,,,,,,,,,,,,,,,,,,,,,,,,,,,,,,,,stimuli/alien_stimuli/11.png,conditions/schedules/train_y_first/blue_star_00/top_left/inputInstr_2.xlsx,stimuli/alien_stimuli/11.png,8799.65395940002,8799.65395940002,8799.65395940002,8799.65395940002,8799.645627689828,return,6.280779300024733,"[-0.16, -0.08, 0, 0.08, 0.16, 0.24, 0.32, 0.4, 0.48, 0.56]","[-0.4, -0.32, -0.24, -0.16, -0.08, 0, 0.08, 0.16, 0.24, 0.32]",5,5,9,4,0.0,0.4,8806.113241599873,8806.113241599873,8806.113241599873,8806.113241599873,8806.113241599873,8806.113241599873,8806.113241599873,8806.100788529822,8.474696099990979,return,8.295986599987373,stimuli/alien_stimuli/11.png,11,4,1,,,,,,,,,,,,,,,,,,,,,,,,,,,,,,,,,,,,,,,,,,,,,,,,,,,,,,,,,,,,,,,,,,,,,,,,,,,,,,,,,,,,,,,,,P42E9A,train_y,blue_star,top_left,2025-07-26_12h06.02.635,HideSeek_v1,2022.2.5,59.97753239889479,
,,,,,,,,,,,30,,,,3,0,3,0,,,,,,,,,,,,,,,,,,,,,,,,,,,,,,,,,,,,,,,,,,,,,,,,,,,,,,,,,,,,,,,,,,,,,,,,,,,,,,21,0.7,0.5,1,99,2,30,0,conditions/schedules/train_y_first/blue_star_00/top_left/inputTrain_2.1.xlsx,99,1,2,1,0,,,,,,,,,,,,,,,,,,,,,,,,,,,,,,,,,,,,,,,,,,,,,,,,,,,,,,,,,,,,,,,,,,,,,,,,,,,P42E9A,train_y,blue_star,top_left,2025-07-26_12h06.02.635,HideSeek_v1,2022.2.5,59.97753239889479,
,,,,,,,,,,,,,,,4,0,4,0,0,0,0,0,,,,,,,,,,,,,,,,,,,,,,,,,,,,,,,conditions/schedules/train_y_first/blue_star_00/top_left/instructions/Slide21.png,conditions/schedules/train_y_first/blue_star_00/top_left/instructions/Audio21.wav,8814.572023699991,8814.574567629816,21,"[7.800594500033185, 17.531518900068477, 16.159148100065067, 19.034682699944824, 3.9980394998565316, 4.75366839999333, 5.285493600182235, 11.388134400127456, 5.6061937001068145, 6.869999599875882, 9.77097769989632, 13.586933699902147, 16.480937000131235, 16.3319760998711, 43.726389300078154, 21.634860699996352, 71.36703359987587, 6.381155699957162, 9.236536900047213, 12.456571499817073, 13.77872409997508]","[0.00021760002709925175, 0.04742199997417629, 0.03461409988813102, 0.06254690000787377, 0.06586760003119707, 0.014011500170454383, 0.030079100048169494, 0.03397889994084835, 0.03152429987676442, 0.04726299992762506, 0.01392549998126924, 13.586940299952403, 0.05154030001722276, 16.331983499927446, 0.00021369988098740578, 21.63486950006336, 71.36704139993526, 0.046619500033557415, 0.014109199866652489, 12.456577699864283, 13.778732700040564]",0,,,,,,,,,,,,,,,,,,,,,,,,,,,,,,,,,,,,,,,,,,,,,,,,,,,,,,,,,,,,,,,,,,,,,,,,,,,,,,,,,,,,,,,,,,,,,,,,,,,,,,,,,,,,,,,,,,,,,,,,,,,,P42E9A,train_y,blue_star,top_left,2025-07-26_12h06.02.635,HideSeek_v1,2022.2.5,59.97753239889479,
2,3,7,3,7,0,0,61,2,instr_dim1_2,,,,,,4,0,4,0,,,,,0,0,0,0,,,,,,,,,,,,,,,,,,,,,,,,,,,,,,,,,,,,,stimuli/alien_stimuli/61.png,conditions/schedules/train_y_first/blue_star_00/top_left/inputInstr_2.xlsx,stimuli/alien_stimuli/61.png,8828.443721699994,8828.443721699994,8828.443721699994,8828.443721699994,8828.436297119968,return,5.590131999924779,"[-0.16, -0.08, 0, 0.08, 0.16, 0.24, 0.32, 0.4, 0.48, 0.56]","[-0.4, -0.32, -0.24, -0.16, -0.08, 0, 0.08, 0.16, 0.24, 0.32]",7,7,3,3,0.0,0.0,8834.173107299954,8834.173107299954,8834.173107299954,8834.173107299954,8834.173107299954,8834.173107299954,8834.173107299954,8834.157390389872,6.6394357001408935,return,6.490989599842578,stimuli/alien_stimuli/61.png,61,3,2,,,,,,,,,,,,,,,,,,,,,,,,,,,,,,,,,,,,,,,,,,,,,,,,,,,,,,,,,,,,,,,,,,,,,,,,,,,,,,,,,,,,,,,,,P42E9A,train_y,blue_star,top_left,2025-07-26_12h06.02.635,HideSeek_v1,2022.2.5,59.97753239889479,
,,,,,,,,,,,30,,,,4,0,4,0,,,,,,,,,,,,,,,,,,,,,,,,,,,,,,,,,,,,,,,,,,,,,,,,,,,,,,,,,,,,,,,,,,,,,,,,,,,,,,21,0.7,0.5,1,99,2,30,0,conditions/schedules/train_y_first/blue_star_00/top_left/inputTrain_2.1.xlsx,99,1,2,1,0,,,,,,,,,,,,,,,,,,,,,,,,,,,,,,,,,,,,,,,,,,,,,,,,,,,,,,,,,,,,,,,,,,,,,,,,,,,P42E9A,train_y,blue_star,top_left,2025-07-26_12h06.02.635,HideSeek_v1,2022.2.5,59.97753239889479,
,,,,,,,,,,,,,,,5,0,5,0,0,0,0,0,,,,,,,,,,,,,,,,,,,,,,,,,,,,,,,conditions/schedules/train_y_first/blue_star_00/top_left/instructions/Slide22.png,conditions/schedules/train_y_first/blue_star_00/top_left/instructions/Audio22.wav,8840.833330099937,8840.829633329855,22,"[7.800594500033185, 17.531518900068477, 16.159148100065067, 19.034682699944824, 3.9980394998565316, 4.75366839999333, 5.285493600182235, 11.388134400127456, 5.6061937001068145, 6.869999599875882, 9.77097769989632, 13.586933699902147, 16.480937000131235, 16.3319760998711, 43.726389300078154, 21.634860699996352, 71.36703359987587, 6.381155699957162, 9.236536900047213, 12.456571499817073, 13.77872409997508, 30.369352099951357]","[0.00021760002709925175, 0.04742199997417629, 0.03461409988813102, 0.06254690000787377, 0.06586760003119707, 0.014011500170454383, 0.030079100048169494, 0.03397889994084835, 0.03152429987676442, 0.04726299992762506, 0.01392549998126924, 13.586940299952403, 0.05154030001722276, 16.331983499927446, 0.00021369988098740578, 21.63486950006336, 71.36704139993526, 0.046619500033557415, 0.014109199866652489, 12.456577699864283, 13.778732700040564, 30.36935990001075]",0,,,,,,,,,,,,,,,,,,,,,,,,,,,,,,,,,,,,,,,,,,,,,,,,,,,,,,,,,,,,,,,,,,,,,,,,,,,,,,,,,,,,,,,,,,,,,,,,,,,,,,,,,,,,,,,,,,,,,,,,,,,,P42E9A,train_y,blue_star,top_left,2025-07-26_12h06.02.635,HideSeek_v1,2022.2.5,59.97753239889479,
,2,6,5,6,3,0,31,,train_dim1_2,1,30,,,,5,0,5,0,,,,,,,,,0,0,0,0,0,0,0,0,0,0,0,0,,,,,,,,,,,,,,,,,,,,,,,,,stimuli/alien_stimuli/31.png,,,,,,,,,,,,,,,,,,,,,,,,,,,,,,,,,,,,,,,30,,,,,,,,8871.295121500036,8871.295121500036,8871.295121500036,8871.295121500036,8871.295121500036,up,5.214579799911007,0,1,0,99,0,0.16,up,5.115435200044885,,,,,,,,,,,,,,,,,,,,,,,,,,,,,,,,,,,,,,,,,,,,,,,,,,,,,,,,,,,,P42E9A,train_y,blue_star,top_left,2025-07-26_12h06.02.635,HideSeek_v1,2022.2.5,59.97753239889479,
,2,6,5,6,3,0,31,,train_dim1_2,1,30,,,,5,0,5,0,,,,,,,,,0,0,0,0,0,0,0,0,1,0,1,0,,,,,,,,,,,,,,,,,,,,,,,,,,,,,,,,,,,,,,,,,,,,,,,,,,,,,,,,,,,,,,,,30,,,,,,,,8876.507183799986,8876.507183799986,8876.507183799986,8876.507183799986,8876.507183799986,up,0.6435096999630332,0,1,0,99,0,0.24,up,0.5695662999060005,,,,,,,,,,,,,,,,,,,,,,,,,,,,,,,,,,,,,,,,,,,,,,,,,,,,,,,,,,,,P42E9A,train_y,blue_star,top_left,2025-07-26_12h06.02.635,HideSeek_v1,2022.2.5,59.97753239889479,
,2,6,5,6,3,0,31,,train_dim1_2,1,30,,,,5,0,5,0,,,,,,,,,0,0,0,0,0,0,0,0,2,0,2,0,,,,,,,,,,,,,,,,,,,,,,,,,,,,,,,,,,,,,,,,,,,,,,,,,,,,,,,,,,,,,,,,30,,,,,,,,8877.157547699986,8877.157547699986,8877.157547699986,8877.157547699986,8877.157547699986,up,0.5932817999273539,0,1,0,99,0,0.32,up,0.5047369000967592,,,,,,,,,,,,,,,,,,,,,,,,,,,,,,,,,,,,,,,,,,,,,,,,,,,,,,,,,,,,P42E9A,train_y,blue_star,top_left,2025-07-26_12h06.02.635,HideSeek_v1,2022.2.5,59.97753239889479,
,2,6,5,6,3,0,31,,train_dim1_2,1,30,,,,5,0,5,0,,,,,,,,,0,0,0,0,0,0,0,0,3,0,3,0,,,,,,,,,,,,,,,,,,,,,,,,,,,,,,,,,,,,,,,,,,,,,,,,,,,,,,,,,,,,,,,,30,,,,,,,,8877.756911499891,8877.756911499891,8877.756911499891,8877.756911499891,8877.756911499891,return,0.8939174998085946,0,0,0,0,0,0.32,return,0.8144437000155449,-66,4,0,0.32,,,,,,,,,,,,,,,,,,,,,,,,,,,,,,,,,,,,,,,,,,,,,,,,,,,,,,,,P42E9A,train_y,blue_star,top_left,2025-07-26_12h06.02.635,HideSeek_v1,2022.2.5,59.97753239889479,
,2,9,7,9,5,0,11,,train_dim1_2,2,30,,,,5,0,5,0,,,,,,,,,0,0,0,0,0,1,1,1,0,0,0,0,,,,,,,,,,,,,,,,,,,,,,,,,stimuli/alien_stimuli/11.png,,,,,,,,,,,,,,,,,,,,,,,,,,,,,stimuli/alien_stimuli/31.png,31,2,3,,,,,,,30,,,,,,,,8888.42143519991,8888.42143519991,8888.42143519991,8888.42143519991,8888.42143519991,right,2.2528185001574457,0,0,0,99,0.08,0.32,right,2.165275000035763,,,,,8886.851242099889,8888.42143519991,0.24,0.08,0.0,0.24,0.08,0.24,0.12,0.24,0.08,8880.235363599844,8880.235363599844,8880.235363599844,8880.235363599844,8880.235363599844,8880.235363599844,8880.235363599844,8880.235363599844,8880.212372989907,6.741063899826258,return,6.590671600075439,,,,,,,,,,,,,,,,,,,,,,,,,,,,,,,,,P42E9A,train_y,blue_star,top_left,2025-07-26_12h06.02.635,HideSeek_v1,2022.2.5,59.97753239889479,
,2,9,7,9,5,0,11,,train_dim1_2,2,30,,,,5,0,5,0,,,,,,,,,0,0,0,0,0,1,1,1,1,0,1,0,,,,,,,,,,,,,,,,,,,,,,,,,,,,,,,,,,,,,,,,,,,,,,,,,,,,,,,,,,,,,,,,30,,,,,,,,8890.673053399893,8890.673053399893,8890.673053399893,8890.673053399893,8890.673053399893,right,0.5095226000994444,0,0,0,99,0.16,0.32,right,0.42879380006343126,,,,,,,,,,,,,,,,,,,,,,,,,,,,,,,,,,,,,,,,,,,,,,,,,,,,,,,,,,,,P42E9A,train_y,blue_star,top_left,2025-07-26_12h06.02.635,HideSeek_v1,2022.2.5,59.97753239889479,
,2,9,7,9,5,0,11,,train_dim1_2,2,30,,,,5,0,5,0,,,,,,,,,0,0,0,0,0,1,1,1,2,0,2,0,,,,,,,,,,,,,,,,,,,,,,,,,,,,,,,,,,,,,,,,,,,,,,,,,,,,,,,,,,,,,,,,30,,,,,,,,8891.190519799944,8891.190519799944,8891.190519799944,8891.190519799944,8891.190519799944,right,0.4610072998329997,0,0,0,99,0.24,0.32,right,0.3673602999188006,,,,,,,,,,,,,,,,,,,,,,,,,,,,,,,,,,,,,,,,,,,,,,,,,,,,,,,,,,,,P42E9A,train_y,blue_star,top_left,2025-07-26_12h06.02.635,HideSeek_v1,2022.2.5,59.97753239889479,
,2,9,7,9,5,0,11,,train_dim1_2,2,30,,,,5,0,5,0,,,,,,,,,0,0,0,0,0,1,1,1,3,0,3,0,,,,,,,,,,,,,,,,,,,,,,,,,,,,,,,,,,,,,,,,,,,,,,,,,,,,,,,,,,,,,,,,30,,,,,,,,8891.668247999856,8891.668247999856,8891.668247999856,8891.668247999856,8891.668247999856,right,0.4753537999931723,0,0,0,99,0.32,0.32,right,0.37494130013510585,,,,,,,,,,,,,,,,,,,,,,,,,,,,,,,,,,,,,,,,,,,,,,,,,,,,,,,,,,,,P42E9A,train_y,blue_star,top_left,2025-07-26_12h06.02.635,HideSeek_v1,2022.2.5,59.97753239889479,
,2,9,7,9,5,0,11,,train_dim1_2,2,30,,,,5,0,5,0,,,,,,,,,0,0,0,0,0,1,1,1,4,0,4,0,,,,,,,,,,,,,,,,,,,,,,,,,,,,,,,,,,,,,,,,,,,,,,,,,,,,,,,,,,,,,,,,30,,,,,,,,8892.140543699963,8892.140543699963,8892.140543699963,8892.140543699963,8892.140543699963,right,0.3764402999076992,0,0,0,99,0.4,0.32,right,0.28646129998378456,,,,,,,,,,,,,,,,,,,,,,,,,,,,,,,,,,,,,,,,,,,,,,,,,,,,,,,,,,,,P42E9A,train_y,blue_star,top_left,2025-07-26_12h06.02.635,HideSeek_v1,2022.2.5,59.97753239889479,
,2,9,7,9,5,0,11,,train_dim1_2,2,30,,,,5,0,5,0,,,,,,,,,0,0,0,0,0,1,1,1,5,0,5,0,,,,,,,,,,,,,,,,,,,,,,,,,,,,,,,,,,,,,,,,,,,,,,,,,,,,,,,,,,,,,,,,30,,,,,,,,8892.523681299994,8892.523681299994,8892.523681299994,8892.523681299994,8892.523681299994,return,0.5601588999852538,1,0,0,1,0.4,0.32,return,0.46828110003843904,-66,9,0.4,0.32,,,,,,,,,,,,,,,,,,,,,,,,,,,,,,,,,,,,,,,,,,,,,,,,,,,,,,,,P42E9A,train_y,blue_star,top_left,2025-07-26_12h06.02.635,HideSeek_v1,2022.2.5,59.97753239889479,
,4,9,8,9,4,0,21,,train_dim1_2,3,30,,,,5,0,5,0,,,,,,,,,0,0,0,0,0,2,2,2,0,0,0,0,,,,,,,,,,,,,,,,,,,,,,,,,stimuli/alien_stimuli/21.png,,,,,,,,,,,,,,,,,,,,,,,,,,,,,stimuli/alien_stimuli/11.png,11,2,4,,,,,,,30,,,,,,,,8898.975559500046,8898.975559500046,8898.975559500046,8898.975559500046,8898.975559500046,right,2.1895263998303562,1,0,0,99,0.24,0.32,right,2.0941554000601172,,,,,8897.410266199848,8898.975559500046,0.4,0.32,0.0,0.4,0.32,0.4,0.2,0.4,0.32,8894.673606399912,8894.673606399912,8894.673606399912,8894.673606399912,8894.673606399912,8894.673606399912,8894.673606399912,8894.673606399912,8894.657653959888,2.871353300055489,return,2.719513999996707,,,,,,,,,,,,,,,,,,,,,,,,,,,,,,,,,P42E9A,train_y,blue_star,top_left,2025-07-26_12h06.02.635,HideSeek_v1,2022.2.5,59.97753239889479,
,4,9,8,9,4,0,21,,train_dim1_2,3,30,,,,5,0,5,0,,,,,,,,,0,0,0,0,0,2,2,2,1,0,1,0,,,,,,,,,,,,,,,,,,,,,,,,,,,,,,,,,,,,,,,,,,,,,,,,,,,,,,,,,,,,,,,,30,,,,,,,,8901.164264099905,8901.164264099905,8901.164264099905,8901.164264099905,8901.164264099905,right,0.49310139985755086,1,0,0,99,0.32,0.32,right,0.4045878001488745,,,,,,,,,,,,,,,,,,,,,,,,,,,,,,,,,,,,,,,,,,,,,,,,,,,,,,,,,,,,P42E9A,train_y,blue_star,top_left,2025-07-26_12h06.02.635,HideSeek_v1,2022.2.5,59.97753239889479,
,4,9,8,9,4,0,21,,train_dim1_2,3,30,,,,5,0,5,0,,,,,,,,,0,0,0,0,0,2,2,2,2,0,2,0,,,,,,,,,,,,,,,,,,,,,,,,,,,,,,,,,,,,,,,,,,,,,,,,,,,,,,,,,,,,,,,,30,,,,,,,,8901.665927599883,8901.665927599883,8901.665927599883,8901.665927599883,8901.665927599883,right,0.4594564998988062,1,0,0,99,0.4,0.32,right,0.36733419983647764,,,,,,,,,,,,,,,,,,,,,,,,,,,,,,,,,,,,,,,,,,,,,,,,,,,,,,,,,,,,P42E9A,train_y,blue_star,top_left,2025-07-26_12h06.02.635,HideSeek_v1,2022.2.5,59.97753239889479,
,4,9,8,9,4,0,21,,train_dim1_2,3,30,,,,5,0,5,0,,,,,,,,,0,0,0,0,0,2,2,2,3,0,3,0,,,,,,,,,,,,,,,,,,,,,,,,,,,,,,,,,,,,,,,,,,,,,,,,,,,,,,,,,,,,,,,,30,,,,,,,,8902.131281399867,8902.131281399867,8902.131281399867,8902.131281399867,8902.131281399867,right,0.4433271000161767,1,0,0,99,0.48000000000000004,0.32,right,0.3620633000973612,,,,,,,,,,,,,,,,,,,,,,,,,,,,,,,,,,,,,,,,,,,,,,,,,,,,,,,,,,,,P42E9A,train_y,blue_star,top_left,2025-07-26_12h06.02.635,HideSeek_v1,2022.2.5,59.97753239889479,
,4,9,8,9,4,0,21,,train_dim1_2,3,30,,,,5,0,5,0,,,,,,,,,0,0,0,0,0,2,2,2,4,0,4,0,,,,,,,,,,,,,,,,,,,,,,,,,,,,,,,,,,,,,,,,,,,,,,,,,,,,,,,,,,,,,,,,30,,,,,,,,8902.581882999977,8902.581882999977,8902.581882999977,8902.581882999977,8902.581882999977,right,0.4099358997773379,1,0,0,99,0.56,0.32,right,0.32814179989509284,,,,,,,,,,,,,,,,,,,,,,,,,,,,,,,,,,,,,,,,,,,,,,,,,,,,,,,,,,,,P42E9A,train_y,blue_star,top_left,2025-07-26_12h06.02.635,HideSeek_v1,2022.2.5,59.97753239889479,
,4,9,8,9,4,0,21,,train_dim1_2,3,30,,,,5,0,5,0,,,,,,,,,0,0,0,0,0,2,2,2,5,0,5,0,,,,,,,,,,,,,,,,,,,,,,,,,,,,,,,,,,,,,,,,,,,,,,,,,,,,,,,,,,,,,,,,30,,,,,,,,8902.99900489999,8902.99900489999,8902.99900489999,8902.99900489999,8902.99900489999,return,0.7601290999446064,1,1,0,0,0.56,0.32,return,0.6770220999605954,-66,14,0.56,0.32,,,,,,,,,,,,,,,,,,,,,,,,,,,,,,,,,,,,,,,,,,,,,,,,,,,,,,,,P42E9A,train_y,blue_star,top_left,2025-07-26_12h06.02.635,HideSeek_v1,2022.2.5,59.97753239889479,
,2,8,3,8,1,0,51,,train_dim1_2,4,30,,,,5,0,5,0,,,,,,,,,0,0,0,0,0,3,3,3,0,0,0,0,,,,,,,,,,,,,,,,,,,,,,,,,stimuli/alien_stimuli/51.png,,,,,,,,,,,,,,,,,,,,,,,,,,,,,stimuli/alien_stimuli/21.png,21,4,5,,,,,,,30,,,,,,,,8916.840723800007,8916.840723800007,8916.840723800007,8916.840723800007,8916.840723800007,down,4.0078235999681056,1,1,0,99,0,0.15999999999999998,down,3.913488900056109,,,,,8915.274767800001,8916.840723800007,0.48,0.32,0.0,0.32,0.32,0.48,0.32,0.48,0.32,8905.348610599991,8905.348610599991,8905.348610599991,8905.348610599991,8905.348610599991,8905.348610599991,8905.348610599991,8905.348610599991,8905.333197759885,10.060891499975696,return,9.910560199990869,,,,,,,,,,,,,,,,,,,,,,,,,,,,,,,,,P42E9A,train_y,blue_star,top_left,2025-07-26_12h06.02.635,HideSeek_v1,2022.2.5,59.97753239889479,
,2,8,3,8,1,0,51,,train_dim1_2,4,30,,,,5,0,5,0,,,,,,,,,0,0,0,0,0,3,3,3,1,0,1,0,,,,,,,,,,,,,,,,,,,,,,,,,,,,,,,,,,,,,,,,,,,,,,,,,,,,,,,,,,,,,,,,30,,,,,,,,8920.845883399947,8920.845883399947,8920.845883399947,8920.845883399947,8920.845883399947,down,0.5263414999935776,1,1,0,99,0,0.07999999999999997,down,0.4431984000839293,,,,,,,,,,,,,,,,,,,,,,,,,,,,,,,,,,,,,,,,,,,,,,,,,,,,,,,,,,,,P42E9A,train_y,blue_star,top_left,2025-07-26_12h06.02.635,HideSeek_v1,2022.2.5,59.97753239889479,
,2,8,3,8,1,0,51,,train_dim1_2,4,30,,,,5,0,5,0,,,,,,,,,0,0,0,0,0,3,3,3,2,0,2,0,,,,,,,,,,,,,,,,,,,,,,,,,,,,,,,,,,,,,,,,,,,,,,,,,,,,,,,,,,,,,,,,30,,,,,,,,8921.379419900011,8921.379419900011,8921.379419900011,8921.379419900011,8921.379419900011,down,0.4772312000859529,1,1,0,99,0,-2.7755575615628914e-17,down,0.3888792998623103,,,,,,,,,,,,,,,,,,,,,,,,,,,,,,,,,,,,,,,,,,,,,,,,,,,,,,,,,,,,P42E9A,train_y,blue_star,top_left,2025-07-26_12h06.02.635,HideSeek_v1,2022.2.5,59.97753239889479,
,2,8,3,8,1,0,51,,train_dim1_2,4,30,,,,5,0,5,0,,,,,,,,,0,0,0,0,0,3,3,3,3,0,3,0,,,,,,,,,,,,,,,,,,,,,,,,,,,,,,,,,,,,,,,,,,,,,,,,,,,,,,,,,,,,,,,,30,,,,,,,,8921.864521299955,8921.864521299955,8921.864521299955,8921.864521299955,8921.864521299955,return,0.4433281999081373,1,0,0,0,0,-2.7755575615628914e-17,return,0.3608754000160843,-69,14,0,-2.7755575615628914e-17,,,,,,,,,,,,,,,,,,,,,,,,,,,,,,,,,,,,,,,,,,,,,,,,,,,,,,,,P42E9A,train_y,blue_star,top_left,2025-07-26_12h06.02.635,HideSeek_v1,2022.2.5,59.97753239889479,
,0,7,0,7,0,0,61,,train_dim1_2,5,30,,,,5,0,5,0,,,,,,,,,0,0,0,0,0,4,4,4,0,0,0,0,,,,,,,,,,,,,,,,,,,,,,,,,stimuli/alien_stimuli/61.png,,,,,,,,,,,,,,,,,,,,,,,,,,,,,stimuli/alien_stimuli/51.png,51,2,6,,,,,,,30,,,,,,,,8928.761470299913,8928.761470299913,8928.761470299913,8928.761470299913,8928.761470299913,return,3.7575592999346554,2,0,0,1,-0.16,0.16,return,3.671316900057718,-69,14,-0.16,0.16,8927.201532499865,8928.761470299913,0.08,0.24,0.0,0.08,0.24,0.08,0.04,0.08,0.24,8923.894771900028,8923.894771900028,8923.894771900028,8923.894771900028,8923.894771900028,8923.894771900028,8923.894771900028,8923.894771900028,8923.882443859895,3.4378136000595987,return,3.2861448999028653,,,,,,,,,,,,,,,,,,,,,,,,,,,,,,,,,P42E9A,train_y,blue_star,top_left,2025-07-26_12h06.02.635,HideSeek_v1,2022.2.5,59.97753239889479,
