trialInstr,x_fixStart,y_fixStart,x_corrSteps,y_corrSteps,x_nrSteps,y_nrSteps,alienID,trialLength,version,trialTrain,praclen,testlen,trial_label,break_on_off,beforeExpLoop.thisRepN,beforeExpLoop.thisTrialN,beforeExpLoop.thisN,beforeExpLoop.thisIndex,mini_instr_trials.thisRepN,mini_instr_trials.thisTrialN,mini_instr_trials.thisN,mini_instr_trials.thisIndex,instrLoop.thisRepN,instrLoop.thisTrialN,instrLoop.thisN,instrLoop.thisIndex,repeat_prac.thisRepN,repeat_prac.thisTrialN,repeat_prac.thisN,repeat_prac.thisIndex,trainLoop.thisRepN,trainLoop.thisTrialN,trainLoop.thisN,trainLoop.thisIndex,moveLoop_train.thisRepN,moveLoop_train.thisTrialN,moveLoop_train.thisN,moveLoop_train.thisIndex,experiment.thisRepN,experiment.thisTrialN,experiment.thisN,experiment.thisIndex,moveLoop_test.thisRepN,moveLoop_test.thisTrialN,moveLoop_test.thisN,moveLoop_test.thisIndex,mini_instr2_trials.thisRepN,mini_instr2_trials.thisTrialN,mini_instr2_trials.thisN,mini_instr2_trials.thisIndex,start_all_time,url,slideStim,audioStim,slides.started,sounds.started,nextButton.numClicks,nextButton.timesOn,nextButton.timesOff,prev_but.numClicks,prev_but.timesOn,prev_but.timesOff,alienStim,instrFile,alienStim_instr,gridImage_instr.started,startPos_3.started,key_instr.started,alienImage_3.started,sounds_1.started,key_instr.keys,key_instr.rt,all_x,all_y,FBy_corrSteps,FBy_fixStart,FBx_corrSteps,FBx_fixStart,FBy_pathSize_check,FBx_pathSize_check,gridImage_9.started,alienImageFB_3.started,startPosFB_3.started,keyFB_3.started,pathLine_ydir_2.started,pathLine_xdir_2.started,alienFace_3.started,sounds_2.started,RTFB_instr,keyFB_3.keys,keyFB_3.rt,draw_alienStim,draw_alienID,test_x,nrepcount,perfthres,percthres,earlierperf,earlystop,nextPrac,fileidx,praclen,saveACC_train,pracFile,nextPrac_train,addNrep,fileidx_endr,repExp,showearly,gridImage_4.started,startPos.started,movePos.started,key_resp.started,alienImage.started,buttonPress_train,RTchoice_train,cumAcctrain,aCorr,saveACC_choice,corrAns,x_movePos_end,y_movePos_end,key_resp.keys,key_resp.rt,wLy_dir,wLx_dir,x_movePos,y_movePos,text_2.started,text_2.stopped,aft_x_corrPos,aft_y_corrPos,y_pathSize_check,x_pathSize_check,y_pathdirY,x_pathdirY,x_pathdirX,x_corrPos,y_corrPos,gridImage_6.started,alienImageFB_2.started,startPosFB_2.started,movePosFB_2.started,keyFB_2.started,pathLine_xdir.started,pathLine_ydir.started,alienFace.started,sounds_4.started,RT_FBtrain,keyFB_2.keys,keyFB_2.rt,saveACC_pre,ACC,within_saveACC_train,earlystop_wloop,cumAcctrain_check,gridImage_3.started,alienImage_test.started,startPos_test.started,movePos_test.started,key_resp_test.started,wLy_dir_test,wLx_dir_test,buttonPress_test,RTchoice_test,cumAcctest,corrAns_test,key_resp_test.keys,key_resp_test.rt,text_3.started,text_3.stopped,total_time,end_all_time,key_resp_3.keys,slides_2.started,sounds_3.started,nextButton_2.numClicks,nextButton_2.timesOn,nextButton_2.timesOff,prev_but_2.numClicks,prev_but_2.timesOn,prev_but_2.timesOff,bye.started,participant,train_first,00_coordinate,starting corner,date,expName,psychopyVersion,frameRate,
,,,,,,,,,,,,,,,0,0,0,0,0,0,0,0,,,,,,,,,,,,,,,,,,,,,,,,,,,,,start_all_time,testround,conditions/schedules/train_y_first/blue_star_00/bottom_right/instructions/Slide1.png,conditions/schedules/train_y_first/blue_star_00/bottom_right/instructions/Audio1.wav,1449.0778671000153,1449.027401621174,1,[6.379530600039288],[6.37956149992533],0,,,,,,,,,,,,,,,,,,,,,,,,,,,,,,,,,,,,,,,,,,,,,,,,,,,,,,,,,,,,,,,,,,,,,,,,,,,,,,,,,,,,,,,,,,,,,,,,,,,,,,,,,,,,,,,,,,,,,,,,,,,,P6275C,train_y,blue_star,bottom_right,2025-07-31_12h11.11.490,HideSeek_v1,2022.2.5,60.042353849416195,
,,,,,,,,,,,,,,,0,0,0,0,1,0,1,0,,,,,,,,,,,,,,,,,,,,,,,,,,,,,,,conditions/schedules/train_y_first/blue_star_00/bottom_right/instructions/Slide2.png,conditions/schedules/train_y_first/blue_star_00/bottom_right/instructions/Audio2.wav,1455.4796263999306,1455.4792545000091,2,"[6.379530600039288, 19.131817299872637]","[0.03133409982547164, 19.131824400043115]",0,,,,,,,,,,,,,,,,,,,,,,,,,,,,,,,,,,,,,,,,,,,,,,,,,,,,,,,,,,,,,,,,,,,,,,,,,,,,,,,,,,,,,,,,,,,,,,,,,,,,,,,,,,,,,,,,,,,,,,,,,,,,P6275C,train_y,blue_star,bottom_right,2025-07-31_12h11.11.490,HideSeek_v1,2022.2.5,60.042353849416195,
,,,,,,,,,,,,,,,0,0,0,0,2,0,2,0,,,,,,,,,,,,,,,,,,,,,,,,,,,,,,,conditions/schedules/train_y_first/blue_star_00/bottom_right/instructions/Slide3.png,conditions/schedules/train_y_first/blue_star_00/bottom_right/instructions/Audio3.wav,1474.682012599893,1474.6788276999723,3,"[6.379530600039288, 19.131817299872637, 17.144167399965227]","[0.03133409982547164, 0.046786499908193946, 17.144175400026143]",0,,,,,,,,,,,,,,,,,,,,,,,,,,,,,,,,,,,,,,,,,,,,,,,,,,,,,,,,,,,,,,,,,,,,,,,,,,,,,,,,,,,,,,,,,,,,,,,,,,,,,,,,,,,,,,,,,,,,,,,,,,,,P6275C,train_y,blue_star,bottom_right,2025-07-31_12h11.11.490,HideSeek_v1,2022.2.5,60.042353849416195,
,,,,,,,,,,,,,,,0,0,0,0,3,0,3,0,,,,,,,,,,,,,,,,,,,,,,,,,,,,,,,conditions/schedules/train_y_first/blue_star_00/bottom_right/instructions/Slide4.png,conditions/schedules/train_y_first/blue_star_00/bottom_right/instructions/Audio4.wav,1491.9098751998972,1491.9102049399166,4,"[6.379530600039288, 19.131817299872637, 17.144167399965227, 19.847488300176337]","[0.03133409982547164, 0.046786499908193946, 0.03125470015220344, 19.847497100010514]",0,,,,,,,,,,,,,,,,,,,,,,,,,,,,,,,,,,,,,,,,,,,,,,,,,,,,,,,,,,,,,,,,,,,,,,,,,,,,,,,,,,,,,,,,,,,,,,,,,,,,,,,,,,,,,,,,,,,,,,,,,,,,P6275C,train_y,blue_star,bottom_right,2025-07-31_12h11.11.490,HideSeek_v1,2022.2.5,60.042353849416195,
,,,,,,,,,,,,,,,0,0,0,0,4,0,4,0,,,,,,,,,,,,,,,,,,,,,,,,,,,,,,,conditions/schedules/train_y_first/blue_star_00/bottom_right/instructions/Slide5.png,conditions/schedules/train_y_first/blue_star_00/bottom_right/instructions/Audio5.wav,1511.8294613999315,1511.826316199964,5,"[6.379530600039288, 19.131817299872637, 17.144167399965227, 19.847488300176337, 6.366378299891949]","[0.03133409982547164, 0.046786499908193946, 0.03125470015220344, 0.03066179994493723, 6.366385499946773]",0,,,,,,,,,,,,,,,,,,,,,,,,,,,,,,,,,,,,,,,,,,,,,,,,,,,,,,,,,,,,,,,,,,,,,,,,,,,,,,,,,,,,,,,,,,,,,,,,,,,,,,,,,,,,,,,,,,,,,,,,,,,,P6275C,train_y,blue_star,bottom_right,2025-07-31_12h11.11.490,HideSeek_v1,2022.2.5,60.042353849416195,
,,,,,,,,,,,,,,,0,0,0,0,5,0,5,0,,,,,,,,,,,,,,,,,,,,,,,,,,,,,,,conditions/schedules/train_y_first/blue_star_00/bottom_right/instructions/Slide6.png,conditions/schedules/train_y_first/blue_star_00/bottom_right/instructions/Audio6.wav,1518.248111099936,1518.2484344598836,6,"[6.379530600039288, 19.131817299872637, 17.144167399965227, 19.847488300176337, 6.366378299891949, 4.9687819997780025]","[0.03133409982547164, 0.046786499908193946, 0.03125470015220344, 0.03066179994493723, 0.06468819989822805, 4.968789099948481]",0,,,,,,,,,,,,,,,,,,,,,,,,,,,,,,,,,,,,,,,,,,,,,,,,,,,,,,,,,,,,,,,,,,,,,,,,,,,,,,,,,,,,,,,,,,,,,,,,,,,,,,,,,,,,,,,,,,,,,,,,,,,,P6275C,train_y,blue_star,bottom_right,2025-07-31_12h11.11.490,HideSeek_v1,2022.2.5,60.042353849416195,
,,,,,,,,,,,,,,,0,0,0,0,6,0,6,0,,,,,,,,,,,,,,,,,,,,,,,,,,,,,,,conditions/schedules/train_y_first/blue_star_00/bottom_right/instructions/Slide7.png,conditions/schedules/train_y_first/blue_star_00/bottom_right/instructions/Audio7.wav,1523.269202800002,1523.2694000598042,7,"[6.379530600039288, 19.131817299872637, 17.144167399965227, 19.847488300176337, 6.366378299891949, 4.9687819997780025, 5.685850000008941]","[0.03133409982547164, 0.046786499908193946, 0.03125470015220344, 0.03066179994493723, 0.06468819989822805, 0.06480970000848174, 5.685856800060719]",0,,,,,,,,,,,,,,,,,,,,,,,,,,,,,,,,,,,,,,,,,,,,,,,,,,,,,,,,,,,,,,,,,,,,,,,,,,,,,,,,,,,,,,,,,,,,,,,,,,,,,,,,,,,,,,,,,,,,,,,,,,,,P6275C,train_y,blue_star,bottom_right,2025-07-31_12h11.11.490,HideSeek_v1,2022.2.5,60.042353849416195,
,,,,,,,,,,,,,,,0,0,0,0,7,0,7,0,,,,,,,,,,,,,,,,,,,,,,,,,,,,,,,conditions/schedules/train_y_first/blue_star_00/bottom_right/instructions/Slide8.png,conditions/schedules/train_y_first/blue_star_00/bottom_right/instructions/Audio8.wav,1529.0098072998226,1529.0073134599718,8,"[6.379530600039288, 19.131817299872637, 17.144167399965227, 19.847488300176337, 6.366378299891949, 4.9687819997780025, 5.685850000008941, 12.405120000010356]","[0.03133409982547164, 0.046786499908193946, 0.03125470015220344, 0.03066179994493723, 0.06468819989822805, 0.06480970000848174, 0.03064570017158985, 12.405126500176266]",0,,,,,,,,,,,,,,,,,,,,,,,,,,,,,,,,,,,,,,,,,,,,,,,,,,,,,,,,,,,,,,,,,,,,,,,,,,,,,,,,,,,,,,,,,,,,,,,,,,,,,,,,,,,,,,,,,,,,,,,,,,,,P6275C,train_y,blue_star,bottom_right,2025-07-31_12h11.11.490,HideSeek_v1,2022.2.5,60.042353849416195,
,,,,,,,,,,,,,,,0,0,0,0,8,0,8,0,,,,,,,,,,,,,,,,,,,,,,,,,,,,,,,conditions/schedules/train_y_first/blue_star_00/bottom_right/instructions/Slide9.png,conditions/schedules/train_y_first/blue_star_00/bottom_right/instructions/Audio9.wav,1541.484605500009,1541.4842018999625,9,"[6.379530600039288, 19.131817299872637, 17.144167399965227, 19.847488300176337, 6.366378299891949, 4.9687819997780025, 5.685850000008941, 12.405120000010356, 6.485738300019875]","[0.03133409982547164, 0.046786499908193946, 0.03125470015220344, 0.03066179994493723, 0.06468819989822805, 0.06480970000848174, 0.03064570017158985, 0.030444500036537647, 6.485745700076222]",0,,,,,,,,,,,,,,,,,,,,,,,,,,,,,,,,,,,,,,,,,,,,,,,,,,,,,,,,,,,,,,,,,,,,,,,,,,,,,,,,,,,,,,,,,,,,,,,,,,,,,,,,,,,,,,,,,,,,,,,,,,,,P6275C,train_y,blue_star,bottom_right,2025-07-31_12h11.11.490,HideSeek_v1,2022.2.5,60.042353849416195,
,,,,,,,,,,,,,,,0,0,0,0,9,0,9,0,,,,,,,,,,,,,,,,,,,,,,,,,,,,,,,conditions/schedules/train_y_first/blue_star_00/bottom_right/instructions/Slide10.png,conditions/schedules/train_y_first/blue_star_00/bottom_right/instructions/Audio10.wav,1548.0259552998468,1548.0230935598722,10,"[6.379530600039288, 19.131817299872637, 17.144167399965227, 19.847488300176337, 6.366378299891949, 4.9687819997780025, 5.685850000008941, 12.405120000010356, 6.485738300019875, 7.284384000115097]","[0.03133409982547164, 0.046786499908193946, 0.03125470015220344, 0.03066179994493723, 0.06468819989822805, 0.06480970000848174, 0.03064570017158985, 0.030444500036537647, 0.030621200101450086, 7.284391000168398]",0,,,,,,,,,,,,,,,,,,,,,,,,,,,,,,,,,,,,,,,,,,,,,,,,,,,,,,,,,,,,,,,,,,,,,,,,,,,,,,,,,,,,,,,,,,,,,,,,,,,,,,,,,,,,,,,,,,,,,,,,,,,,P6275C,train_y,blue_star,bottom_right,2025-07-31_12h11.11.490,HideSeek_v1,2022.2.5,60.042353849416195,
,,,,,,,,,,,,,,,0,0,0,0,10,0,10,0,,,,,,,,,,,,,,,,,,,,,,,,,,,,,,,conditions/schedules/train_y_first/blue_star_00/bottom_right/instructions/Slide11.png,conditions/schedules/train_y_first/blue_star_00/bottom_right/instructions/Audio11.wav,1555.3508125999942,1555.346251519816,11,"[6.379530600039288, 19.131817299872637, 17.144167399965227, 19.847488300176337, 6.366378299891949, 4.9687819997780025, 5.685850000008941, 12.405120000010356, 6.485738300019875, 7.284384000115097, 10.551763799972832]","[0.03133409982547164, 0.046786499908193946, 0.03125470015220344, 0.03066179994493723, 0.06468819989822805, 0.06480970000848174, 0.03064570017158985, 0.030444500036537647, 0.030621200101450086, 0.06446780008263886, 10.551770200021565]",0,,,,,,,,,,,,,,,,,,,,,,,,,,,,,,,,,,,,,,,,,,,,,,,,,,,,,,,,,,,,,,,,,,,,,,,,,,,,,,,,,,,,,,,,,,,,,,,,,,,,,,,,,,,,,,,,,,,,,,,,,,,,P6275C,train_y,blue_star,bottom_right,2025-07-31_12h11.11.490,HideSeek_v1,2022.2.5,60.042353849416195,
,,,,,,,,,,,,,,,0,0,0,0,11,0,11,0,,,,,,,,,,,,,,,,,,,,,,,,,,,,,,,conditions/schedules/train_y_first/blue_star_00/bottom_right/instructions/Slide12.png,conditions/schedules/train_y_first/blue_star_00/bottom_right/instructions/Audio12.wav,1565.9722686999012,1565.9717089999467,12,"[6.379530600039288, 19.131817299872637, 17.144167399965227, 19.847488300176337, 6.366378299891949, 4.9687819997780025, 5.685850000008941, 12.405120000010356, 6.485738300019875, 7.284384000115097, 10.551763799972832, 14.976169599918649]","[0.03133409982547164, 0.046786499908193946, 0.03125470015220344, 0.03066179994493723, 0.06468819989822805, 0.06480970000848174, 0.03064570017158985, 0.030444500036537647, 0.030621200101450086, 0.06446780008263886, 0.03066869988106191, 14.97617659997195]",0,,,,,,,,,,,,,,,,,,,,,,,,,,,,,,,,,,,,,,,,,,,,,,,,,,,,,,,,,,,,,,,,,,,,,,,,,,,,,,,,,,,,,,,,,,,,,,,,,,,,,,,,,,,,,,,,,,,,,,,,,,,,P6275C,train_y,blue_star,bottom_right,2025-07-31_12h11.11.490,HideSeek_v1,2022.2.5,60.042353849416195,
1,5,3,5,8,0,5,66,2,instr_dim1_1,,,,,,0,0,0,0,,,,,0,0,0,0,,,,,,,,,,,,,,,,,,,,,,,,,,,,,,,,,,,,,stimuli/alien_stimuli/66.png,conditions/schedules/train_y_first/blue_star_00/bottom_right/inputInstr_1.xlsx,stimuli/alien_stimuli/66.png,1581.0482651998755,1581.0482651998755,1581.0482651998755,1581.0482651998755,1581.0508000799919,return,8.274661700241268,"[-0.16, -0.08, 0, 0.08, 0.16, 0.24, 0.32, 0.4, 0.48, 0.56]","[-0.4, -0.32, -0.24, -0.16, -0.08, 0, 0.08, 0.16, 0.24, 0.32]",8,3,5,5,0.4,0.0,1589.4620616999455,1589.4620616999455,1589.4620616999455,1589.4620616999455,1589.4620616999455,1589.4620616999455,1589.4620616999455,1589.4575422198511,8.640946100000292,return,8.487447200110182,stimuli/alien_stimuli/66.png,66,5,1,,,,,,,,,,,,,,,,,,,,,,,,,,,,,,,,,,,,,,,,,,,,,,,,,,,,,,,,,,,,,,,,,,,,,,,,,,,,,,,,,,,,,,,,,P6275C,train_y,blue_star,bottom_right,2025-07-31_12h11.11.490,HideSeek_v1,2022.2.5,60.042353849416195,
,,,,,,,,,,,30,,,,0,0,0,0,,,,,,,,,,,,,,,,,,,,,,,,,,,,,,,,,,,,,,,,,,,,,,,,,,,,,,,,,,,,,,,,,,,,,,,,,,,,,,21,0.7,0,0,99,1,30,0,conditions/schedules/train_y_first/blue_star_00/bottom_right/inputTrain_1.1.xlsx,99,1,1,1,0,,,,,,,,,,,,,,,,,,,,,,,,,,,,,,,,,,,,,,,,,,,,,,,,,,,,,,,,,,,,,,,,,,,,,,,,,,,P6275C,train_y,blue_star,bottom_right,2025-07-31_12h11.11.490,HideSeek_v1,2022.2.5,60.042353849416195,
,,,,,,,,,,,,,,,1,0,1,0,0,0,0,0,,,,,,,,,,,,,,,,,,,,,,,,,,,,,,,conditions/schedules/train_y_first/blue_star_00/bottom_right/instructions/Slide13.png,conditions/schedules/train_y_first/blue_star_00/bottom_right/instructions/Audio13.wav,1598.1158176998142,1598.1147113599347,13,"[6.379530600039288, 19.131817299872637, 17.144167399965227, 19.847488300176337, 6.366378299891949, 4.9687819997780025, 5.685850000008941, 12.405120000010356, 6.485738300019875, 7.284384000115097, 10.551763799972832, 14.976169599918649, 17.828569600125775]","[0.03133409982547164, 0.046786499908193946, 0.03125470015220344, 0.03066179994493723, 0.06468819989822805, 0.06480970000848174, 0.03064570017158985, 0.030444500036537647, 0.030621200101450086, 0.06446780008263886, 0.03066869988106191, 14.97617659997195, 17.828579199966043]",0,,,,,,,,,,,,,,,,,,,,,,,,,,,,,,,,,,,,,,,,,,,,,,,,,,,,,,,,,,,,,,,,,,,,,,,,,,,,,,,,,,,,,,,,,,,,,,,,,,,,,,,,,,,,,,,,,,,,,,,,,,,,P6275C,train_y,blue_star,bottom_right,2025-07-31_12h11.11.490,HideSeek_v1,2022.2.5,60.042353849416195,
,,,,,,,,,,,,,,,1,0,1,0,1,0,1,0,,,,,,,,,,,,,,,,,,,,,,,,,,,,,,,conditions/schedules/train_y_first/blue_star_00/bottom_right/instructions/Slide14.png,conditions/schedules/train_y_first/blue_star_00/bottom_right/instructions/Audio14.wav,1616.0088156999554,1615.9963477599433,14,"[6.379530600039288, 19.131817299872637, 17.144167399965227, 19.847488300176337, 6.366378299891949, 4.9687819997780025, 5.685850000008941, 12.405120000010356, 6.485738300019875, 7.284384000115097, 10.551763799972832, 14.976169599918649, 17.828569600125775, 17.133154700044543]","[0.03133409982547164, 0.046786499908193946, 0.03125470015220344, 0.03066179994493723, 0.06468819989822805, 0.06480970000848174, 0.03064570017158985, 0.030444500036537647, 0.030621200101450086, 0.06446780008263886, 0.03066869988106191, 14.97617659997195, 0.06871060002595186, 17.133162300102413]",0,,,,,,,,,,,,,,,,,,,,,,,,,,,,,,,,,,,,,,,,,,,,,,,,,,,,,,,,,,,,,,,,,,,,,,,,,,,,,,,,,,,,,,,,,,,,,,,,,,,,,,,,,,,,,,,,,,,,,,,,,,,,P6275C,train_y,blue_star,bottom_right,2025-07-31_12h11.11.490,HideSeek_v1,2022.2.5,60.042353849416195,
2,7,3,7,3,0,0,61,2,instr_dim1_1,,,,,,1,0,1,0,,,,,0,0,0,0,,,,,,,,,,,,,,,,,,,,,,,,,,,,,,,,,,,,,stimuli/alien_stimuli/61.png,conditions/schedules/train_y_first/blue_star_00/bottom_right/inputInstr_1.xlsx,stimuli/alien_stimuli/61.png,1633.2433845999185,1633.2433845999185,1633.2433845999185,1633.2433845999185,1633.2443715800064,return,6.030174100073054,"[-0.16, -0.08, 0, 0.08, 0.16, 0.24, 0.32, 0.4, 0.48, 0.56]","[-0.4, -0.32, -0.24, -0.16, -0.08, 0, 0.08, 0.16, 0.24, 0.32]",3,3,7,7,0.0,0.0,1639.4182340998668,1639.4182340998668,1639.4182340998668,1639.4182340998668,1639.4182340998668,1639.4182340998668,1639.4182340998668,1639.415669019986,8.024408500175923,return,7.884960599942133,stimuli/alien_stimuli/61.png,61,7,2,,,,,,,,,,,,,,,,,,,,,,,,,,,,,,,,,,,,,,,,,,,,,,,,,,,,,,,,,,,,,,,,,,,,,,,,,,,,,,,,,,,,,,,,,P6275C,train_y,blue_star,bottom_right,2025-07-31_12h11.11.490,HideSeek_v1,2022.2.5,60.042353849416195,
,,,,,,,,,,,30,,,,1,0,1,0,,,,,,,,,,,,,,,,,,,,,,,,,,,,,,,,,,,,,,,,,,,,,,,,,,,,,,,,,,,,,,,,,,,,,,,,,,,,,,21,0.7,0,0,99,1,30,0,conditions/schedules/train_y_first/blue_star_00/bottom_right/inputTrain_1.1.xlsx,99,1,1,1,0,,,,,,,,,,,,,,,,,,,,,,,,,,,,,,,,,,,,,,,,,,,,,,,,,,,,,,,,,,,,,,,,,,,,,,,,,,,P6275C,train_y,blue_star,bottom_right,2025-07-31_12h11.11.490,HideSeek_v1,2022.2.5,60.042353849416195,
,,,,,,,,,,,,,,,2,0,2,0,0,0,0,0,,,,,,,,,,,,,,,,,,,,,,,,,,,,,,,conditions/schedules/train_y_first/blue_star_00/bottom_right/instructions/Slide15.png,conditions/schedules/train_y_first/blue_star_00/bottom_right/instructions/Audio15.wav,1647.4616040999535,1647.4559280598535,15,"[6.379530600039288, 19.131817299872637, 17.144167399965227, 19.847488300176337, 6.366378299891949, 4.9687819997780025, 5.685850000008941, 12.405120000010356, 6.485738300019875, 7.284384000115097, 10.551763799972832, 14.976169599918649, 17.828569600125775, 17.133154700044543, 43.51073169987649]","[0.03133409982547164, 0.046786499908193946, 0.03125470015220344, 0.03066179994493723, 0.06468819989822805, 0.06480970000848174, 0.03064570017158985, 0.030444500036537647, 0.030621200101450086, 0.06446780008263886, 0.03066869988106191, 14.97617659997195, 0.06871060002595186, 17.133162300102413, 43.510740499943495]",0,,,,,,,,,,,,,,,,,,,,,,,,,,,,,,,,,,,,,,,,,,,,,,,,,,,,,,,,,,,,,,,,,,,,,,,,,,,,,,,,,,,,,,,,,,,,,,,,,,,,,,,,,,,,,,,,,,,,,,,,,,,,P6275C,train_y,blue_star,bottom_right,2025-07-31_12h11.11.490,HideSeek_v1,2022.2.5,60.042353849416195,
,,,,,,,,,,,,,,,2,0,2,0,1,0,1,0,,,,,,,,,,,,,,,,,,,,,,,,,,,,,,,conditions/schedules/train_y_first/blue_star_00/bottom_right/instructions/Slide16.png,conditions/schedules/train_y_first/blue_star_00/bottom_right/instructions/Audio16.wav,1691.0485032999422,1691.0419586999342,16,"[6.379530600039288, 19.131817299872637, 17.144167399965227, 19.847488300176337, 6.366378299891949, 4.9687819997780025, 5.685850000008941, 12.405120000010356, 6.485738300019875, 7.284384000115097, 10.551763799972832, 14.976169599918649, 17.828569600125775, 17.133154700044543, 43.51073169987649, 22.493119099875912]","[0.03133409982547164, 0.046786499908193946, 0.03125470015220344, 0.03066179994493723, 0.06468819989822805, 0.06480970000848174, 0.03064570017158985, 0.030444500036537647, 0.030621200101450086, 0.06446780008263886, 0.03066869988106191, 14.97617659997195, 0.06871060002595186, 17.133162300102413, 0.10756639996543527, 22.493126299930736]",0,,,,,,,,,,,,,,,,,,,,,,,,,,,,,,,,,,,,,,,,,,,,,,,,,,,,,,,,,,,,,,,,,,,,,,,,,,,,,,,,,,,,,,,,,,,,,,,,,,,,,,,,,,,,,,,,,,,,,,,,,,,,P6275C,train_y,blue_star,bottom_right,2025-07-31_12h11.11.490,HideSeek_v1,2022.2.5,60.042353849416195,
,5,0,5,4,0,4,65,,train_dim1_1,1,30,,,,2,0,2,0,,,,,,,,,0,0,0,0,0,0,0,0,0,0,0,0,,,,,,,,,,,,,,,,,,,,,,,,,stimuli/alien_stimuli/65.png,,,,,,,,,,,,,,,,,,,,,,,,,,,,,,,,,,,,,,,30,,,,,,,,1713.6476163999178,1713.6476163999178,1713.6476163999178,1713.6476163999178,1713.6476163999178,up,3.6133276000618935,0,0,0,99,0.24,-0.32,up,3.5069524999707937,,,,,,,,,,,,,,,,,,,,,,,,,,,,,,,,,,,,,,,,,,,,,,,,,,,,,,,,,,,,P6275C,train_y,blue_star,bottom_right,2025-07-31_12h11.11.490,HideSeek_v1,2022.2.5,60.042353849416195,
,5,0,5,4,0,4,65,,train_dim1_1,1,30,,,,2,0,2,0,,,,,,,,,0,0,0,0,0,0,0,0,1,0,1,0,,,,,,,,,,,,,,,,,,,,,,,,,,,,,,,,,,,,,,,,,,,,,,,,,,,,,,,,,,,,,,,,30,,,,,,,,1717.2545087998733,1717.2545087998733,1717.2545087998733,1717.2545087998733,1717.2545087998733,up,0.7593483999371529,0,0,0,99,0.24,-0.24,up,0.672458200249821,,,,,,,,,,,,,,,,,,,,,,,,,,,,,,,,,,,,,,,,,,,,,,,,,,,,,,,,,,,,P6275C,train_y,blue_star,bottom_right,2025-07-31_12h11.11.490,HideSeek_v1,2022.2.5,60.042353849416195,
,5,0,5,4,0,4,65,,train_dim1_1,1,30,,,,2,0,2,0,,,,,,,,,0,0,0,0,0,0,0,0,2,0,2,0,,,,,,,,,,,,,,,,,,,,,,,,,,,,,,,,,,,,,,,,,,,,,,,,,,,,,,,,,,,,,,,,30,,,,,,,,1718.010250199819,1718.010250199819,1718.010250199819,1718.010250199819,1718.010250199819,up,0.7270101001486182,0,0,0,99,0.24,-0.15999999999999998,up,0.6533699003048241,,,,,,,,,,,,,,,,,,,,,,,,,,,,,,,,,,,,,,,,,,,,,,,,,,,,,,,,,,,,P6275C,train_y,blue_star,bottom_right,2025-07-31_12h11.11.490,HideSeek_v1,2022.2.5,60.042353849416195,
,5,0,5,4,0,4,65,,train_dim1_1,1,30,,,,2,0,2,0,,,,,,,,,0,0,0,0,0,0,0,0,3,0,3,0,,,,,,,,,,,,,,,,,,,,,,,,,,,,,,,,,,,,,,,,,,,,,,,,,,,,,,,,,,,,,,,,30,,,,,,,,1718.7439216999337,1718.7439216999337,1718.7439216999337,1718.7439216999337,1718.7439216999337,up,0.7597926000598818,0,0,0,99,0.24,-0.07999999999999997,up,0.6860951001290232,,,,,,,,,,,,,,,,,,,,,,,,,,,,,,,,,,,,,,,,,,,,,,,,,,,,,,,,,,,,P6275C,train_y,blue_star,bottom_right,2025-07-31_12h11.11.490,HideSeek_v1,2022.2.5,60.042353849416195,
,5,0,5,4,0,4,65,,train_dim1_1,1,30,,,,2,0,2,0,,,,,,,,,0,0,0,0,0,0,0,0,4,0,4,0,,,,,,,,,,,,,,,,,,,,,,,,,,,,,,,,,,,,,,,,,,,,,,,,,,,,,,,,,,,,,,,,30,,,,,,,,1719.5120733999647,1719.5120733999647,1719.5120733999647,1719.5120733999647,1719.5120733999647,up,0.7270045001059771,0,0,0,99,0.24,2.7755575615628914e-17,up,0.6505564001854509,,,,,,,,,,,,,,,,,,,,,,,,,,,,,,,,,,,,,,,,,,,,,,,,,,,,,,,,,,,,P6275C,train_y,blue_star,bottom_right,2025-07-31_12h11.11.490,HideSeek_v1,2022.2.5,60.042353849416195,
,5,0,5,4,0,4,65,,train_dim1_1,1,30,,,,2,0,2,0,,,,,,,,,0,0,0,0,0,0,0,0,5,0,5,0,,,,,,,,,,,,,,,,,,,,,,,,,,,,,,,,,,,,,,,,,,,,,,,,,,,,,,,,,,,,,,,,30,,,,,,,,1720.2497680999804,1720.2497680999804,1720.2497680999804,1720.2497680999804,1720.2497680999804,return,0.8435949000995606,0,1,0,0,0.24,2.7755575615628914e-17,return,0.7523661002051085,5,0,0.24,2.7755575615628914e-17,,,,,,,,,,,,,,,,,,,,,,,,,,,,,,,,,,,,,,,,,,,,,,,,,,,,,,,,P6275C,train_y,blue_star,bottom_right,2025-07-31_12h11.11.490,HideSeek_v1,2022.2.5,60.042353849416195,
,8,2,8,7,0,5,66,,train_dim1_1,2,30,,,,2,0,2,0,,,,,,,,,0,0,0,0,0,1,1,1,0,0,0,0,,,,,,,,,,,,,,,,,,,,,,,,,stimuli/alien_stimuli/66.png,,,,,,,,,,,,,,,,,,,,,,,,,,,,,stimuli/alien_stimuli/65.png,65,5,3,,,,,,,30,,,,,,,,1737.0847174997907,1737.0847174997907,1737.0847174997907,1737.0847174997907,1737.0847174997907,up,5.706475699786097,0,1,0,99,0.48,-0.15999999999999998,up,5.616398700280115,,,,,1735.5123928999528,1737.0847174997907,0.24,-0.08,0.32,0.0,-0.24000000000000002,0.24,0.24,0.24,-0.08,1722.6665254998952,1722.6665254998952,1722.6665254998952,1722.6665254998952,1722.6665254998952,1722.6665254998952,1722.6665254998952,1722.6665254998952,1722.6516375798265,12.962977000046521,return,12.817688000155613,,,,,,,,,,,,,,,,,,,,,,,,,,,,,,,,,P6275C,train_y,blue_star,bottom_right,2025-07-31_12h11.11.490,HideSeek_v1,2022.2.5,60.042353849416195,
,8,2,8,7,0,5,66,,train_dim1_1,2,30,,,,2,0,2,0,,,,,,,,,0,0,0,0,0,1,1,1,1,0,1,0,,,,,,,,,,,,,,,,,,,,,,,,,,,,,,,,,,,,,,,,,,,,,,,,,,,,,,,,,,,,,,,,30,,,,,,,,1742.782762199873,1742.782762199873,1742.782762199873,1742.782762199873,1742.782762199873,up,0.6267220999579877,0,1,0,99,0.48,-0.07999999999999997,up,0.5446196000557393,,,,,,,,,,,,,,,,,,,,,,,,,,,,,,,,,,,,,,,,,,,,,,,,,,,,,,,,,,,,P6275C,train_y,blue_star,bottom_right,2025-07-31_12h11.11.490,HideSeek_v1,2022.2.5,60.042353849416195,
,8,2,8,7,0,5,66,,train_dim1_1,2,30,,,,2,0,2,0,,,,,,,,,0,0,0,0,0,1,1,1,2,0,2,0,,,,,,,,,,,,,,,,,,,,,,,,,,,,,,,,,,,,,,,,,,,,,,,,,,,,,,,,,,,,,,,,30,,,,,,,,1743.4162755999714,1743.4162755999714,1743.4162755999714,1743.4162755999714,1743.4162755999714,up,0.5598211998585612,0,1,0,99,0.48,2.7755575615628914e-17,up,0.4873088002204895,,,,,,,,,,,,,,,,,,,,,,,,,,,,,,,,,,,,,,,,,,,,,,,,,,,,,,,,,,,,P6275C,train_y,blue_star,bottom_right,2025-07-31_12h11.11.490,HideSeek_v1,2022.2.5,60.042353849416195,
,8,2,8,7,0,5,66,,train_dim1_1,2,30,,,,2,0,2,0,,,,,,,,,0,0,0,0,0,1,1,1,3,0,3,0,,,,,,,,,,,,,,,,,,,,,,,,,,,,,,,,,,,,,,,,,,,,,,,,,,,,,,,,,,,,,,,,30,,,,,,,,1743.9830635997932,1743.9830635997932,1743.9830635997932,1743.9830635997932,1743.9830635997932,up,1.0273070998955518,0,1,0,99,0.48,0.08000000000000003,up,0.9393923000898212,,,,,,,,,,,,,,,,,,,,,,,,,,,,,,,,,,,,,,,,,,,,,,,,,,,,,,,,,,,,P6275C,train_y,blue_star,bottom_right,2025-07-31_12h11.11.490,HideSeek_v1,2022.2.5,60.042353849416195,
,8,2,8,7,0,5,66,,train_dim1_1,2,30,,,,2,0,2,0,,,,,,,,,0,0,0,0,0,1,1,1,4,0,4,0,,,,,,,,,,,,,,,,,,,,,,,,,,,,,,,,,,,,,,,,,,,,,,,,,,,,,,,,,,,,,,,,30,,,,,,,,1745.0178007998038,1745.0178007998038,1745.0178007998038,1745.0178007998038,1745.0178007998038,up,0.3931072000414133,0,1,0,99,0.48,0.16000000000000003,up,0.3149506002664566,,,,,,,,,,,,,,,,,,,,,,,,,,,,,,,,,,,,,,,,,,,,,,,,,,,,,,,,,,,,P6275C,train_y,blue_star,bottom_right,2025-07-31_12h11.11.490,HideSeek_v1,2022.2.5,60.042353849416195,
,8,2,8,7,0,5,66,,train_dim1_1,2,30,,,,2,0,2,0,,,,,,,,,0,0,0,0,0,1,1,1,5,0,5,0,,,,,,,,,,,,,,,,,,,,,,,,,,,,,,,,,,,,,,,,,,,,,,,,,,,,,,,,,,,,,,,,30,,,,,,,,1745.4176128997933,1745.4176128997933,1745.4176128997933,1745.4176128997933,1745.4176128997933,return,1.4609451000578701,1,0,0,1,0.48,0.16000000000000003,return,1.383899400010705,10,0,0.48,0.16000000000000003,,,,,,,,,,,,,,,,,,,,,,,,,,,,,,,,,,,,,,,,,,,,,,,,,,,,,,,,P6275C,train_y,blue_star,bottom_right,2025-07-31_12h11.11.490,HideSeek_v1,2022.2.5,60.042353849416195,
,7,3,7,6,0,3,64,,train_dim1_1,3,30,,,,2,0,2,0,,,,,,,,,0,0,0,0,0,2,2,2,0,0,0,0,,,,,,,,,,,,,,,,,,,,,,,,,stimuli/alien_stimuli/64.png,,,,,,,,,,,,,,,,,,,,,,,,,,,,,stimuli/alien_stimuli/66.png,66,8,4,,,,,,,30,,,,,,,,1756.3001304999925,1756.3001304999925,1756.3001304999925,1756.3001304999925,1756.3001304999925,up,3.95673569990322,1,0,0,99,0.4,-0.08,up,3.875571500044316,,,,,1754.744890099857,1756.3001304999925,0.48,0.16,0.4,0.0,-0.039999999999999994,0.48,0.48,0.48,0.16,1748.4463690998964,1748.4463690998964,1748.4463690998964,1748.4463690998964,1748.4463690998964,1748.4463690998964,1748.4463690998964,1748.4463690998964,1748.4399501798207,6.407173399813473,return,6.271546000149101,,,,,,,,,,,,,,,,,,,,,,,,,,,,,,,,,P6275C,train_y,blue_star,bottom_right,2025-07-31_12h11.11.490,HideSeek_v1,2022.2.5,60.042353849416195,
,7,3,7,6,0,3,64,,train_dim1_1,3,30,,,,2,0,2,0,,,,,,,,,0,0,0,0,0,2,2,2,1,0,1,0,,,,,,,,,,,,,,,,,,,,,,,,,,,,,,,,,,,,,,,,,,,,,,,,,,,,,,,,,,,,,,,,30,,,,,,,,1760.2642961000092,1760.2642961000092,1760.2642961000092,1760.2642961000092,1760.2642961000092,up,0.5587148999329656,1,0,0,99,0.4,0.0,up,0.4811530001461506,,,,,,,,,,,,,,,,,,,,,,,,,,,,,,,,,,,,,,,,,,,,,,,,,,,,,,,,,,,,P6275C,train_y,blue_star,bottom_right,2025-07-31_12h11.11.490,HideSeek_v1,2022.2.5,60.042353849416195,
,7,3,7,6,0,3,64,,train_dim1_1,3,30,,,,2,0,2,0,,,,,,,,,0,0,0,0,0,2,2,2,2,0,2,0,,,,,,,,,,,,,,,,,,,,,,,,,,,,,,,,,,,,,,,,,,,,,,,,,,,,,,,,,,,,,,,,30,,,,,,,,1760.8298487998545,1760.8298487998545,1760.8298487998545,1760.8298487998545,1760.8298487998545,up,0.6438949999865144,1,0,0,99,0.4,0.08,up,0.5577311001252383,,,,,,,,,,,,,,,,,,,,,,,,,,,,,,,,,,,,,,,,,,,,,,,,,,,,,,,,,,,,P6275C,train_y,blue_star,bottom_right,2025-07-31_12h11.11.490,HideSeek_v1,2022.2.5,60.042353849416195,
,7,3,7,6,0,3,64,,train_dim1_1,3,30,,,,2,0,2,0,,,,,,,,,0,0,0,0,0,2,2,2,3,0,3,0,,,,,,,,,,,,,,,,,,,,,,,,,,,,,,,,,,,,,,,,,,,,,,,,,,,,,,,,,,,,,,,,30,,,,,,,,1761.4839947000146,1761.4839947000146,1761.4839947000146,1761.4839947000146,1761.4839947000146,return,0.590590899810195,2,0,0,1,0.4,0.08,return,0.5077039001043886,13,0,0.4,0.08,,,,,,,,,,,,,,,,,,,,,,,,,,,,,,,,,,,,,,,,,,,,,,,,,,,,,,,,P6275C,train_y,blue_star,bottom_right,2025-07-31_12h11.11.490,HideSeek_v1,2022.2.5,60.042353849416195,
,5,1,5,2,0,1,62,,train_dim1_1,4,30,,,,2,0,2,0,,,,,,,,,0,0,0,0,0,3,3,3,0,0,0,0,,,,,,,,,,,,,,,,,,,,,,,,,stimuli/alien_stimuli/62.png,,,,,,,,,,,,,,,,,,,,,,,,,,,,,stimuli/alien_stimuli/64.png,64,7,5,,,,,,,30,,,,,,,,1771.1294363997877,1771.1294363997877,1771.1294363997877,1771.1294363997877,1771.1294363997877,up,4.255538900149986,2,0,0,99,0.24,-0.24,up,4.166983800008893,,,,,1769.5574623998255,1771.1294363997877,0.4,0.08,0.24,0.0,-0.04,0.4,0.4,0.4,0.08,1763.6437315999065,1763.6437315999065,1763.6437315999065,1763.6437315999065,1763.6437315999065,1763.6437315999065,1763.6437315999065,1763.6437315999065,1763.6359506799372,6.023471999913454,return,5.891230300301686,,,,,,,,,,,,,,,,,,,,,,,,,,,,,,,,,P6275C,train_y,blue_star,bottom_right,2025-07-31_12h11.11.490,HideSeek_v1,2022.2.5,60.042353849416195,
,5,1,5,2,0,1,62,,train_dim1_1,4,30,,,,2,0,2,0,,,,,,,,,0,0,0,0,0,3,3,3,1,0,1,0,,,,,,,,,,,,,,,,,,,,,,,,,,,,,,,,,,,,,,,,,,,,,,,,,,,,,,,,,,,,,,,,30,,,,,,,,1775.3772244998254,1775.3772244998254,1775.3772244998254,1775.3772244998254,1775.3772244998254,up,0.49276429996825755,2,0,0,99,0.24,-0.15999999999999998,up,0.40389860002323985,,,,,,,,,,,,,,,,,,,,,,,,,,,,,,,,,,,,,,,,,,,,,,,,,,,,,,,,,,,,P6275C,train_y,blue_star,bottom_right,2025-07-31_12h11.11.490,HideSeek_v1,2022.2.5,60.042353849416195,
,5,1,5,2,0,1,62,,train_dim1_1,4,30,,,,2,0,2,0,,,,,,,,,0,0,0,0,0,3,3,3,2,0,2,0,,,,,,,,,,,,,,,,,,,,,,,,,,,,,,,,,,,,,,,,,,,,,,,,,,,,,,,,,,,,,,,,30,,,,,,,,1775.8764969999902,1775.8764969999902,1775.8764969999902,1775.8764969999902,1775.8764969999902,down,2.6784752998501062,2,0,0,99,0.24,-0.24,down,2.5983486000914127,,,,,,,,,,,,,,,,,,,,,,,,,,,,,,,,,,,,,,,,,,,,,,,,,,,,,,,,,,,,P6275C,train_y,blue_star,bottom_right,2025-07-31_12h11.11.490,HideSeek_v1,2022.2.5,60.042353849416195,
,5,1,5,2,0,1,62,,train_dim1_1,4,30,,,,2,0,2,0,,,,,,,,,0,0,0,0,0,3,3,3,3,0,3,0,,,,,,,,,,,,,,,,,,,,,,,,,,,,,,,,,,,,,,,,,,,,,,,,,,,,,,,,,,,,,,,,30,,,,,,,,1778.563511399785,1778.563511399785,1778.563511399785,1778.563511399785,1778.563511399785,return,0.660240099998191,3,0,0,1,0.24,-0.24,return,0.5808073000516742,14,0,0.24,-0.24,,,,,,,,,,,,,,,,,,,,,,,,,,,,,,,,,,,,,,,,,,,,,,,,,,,,,,,,P6275C,train_y,blue_star,bottom_right,2025-07-31_12h11.11.490,HideSeek_v1,2022.2.5,60.042353849416195,
,8,3,8,3,0,0,61,,train_dim1_1,5,30,,,,2,0,2,0,,,,,,,,,0,0,0,0,0,4,4,4,0,0,0,0,,,,,,,,,,,,,,,,,,,,,,,,,stimuli/alien_stimuli/61.png,,,,,,,,,,,,,,,,,,,,,,,,,,,,,stimuli/alien_stimuli/62.png,62,5,6,,,,,,,30,,,,,,,,1786.2113296999596,1786.2113296999596,1786.2113296999596,1786.2113296999596,1786.2113296999596,return,3.68825799995102,4,0,0,1,0.48,-0.16,return,3.612065799999982,14,0,0.48,-0.16,1784.6534324998502,1786.2113296999596,0.24,-0.24,0.08,0.0,-0.28,0.24,0.24,0.24,-0.24,1780.7934223997872,1780.7934223997872,1780.7934223997872,1780.7934223997872,1780.7934223997872,1780.7934223997872,1780.7934223997872,1780.7934223997872,1780.7836748799773,3.9718034001998603,return,3.83242390002124,,,,,,,,,,,,,,,,,,,,,,,,,,,,,,,,,P6275C,train_y,blue_star,bottom_right,2025-07-31_12h11.11.490,HideSeek_v1,2022.2.5,60.042353849416195,
,6,4,6,5,0,1,62,,train_dim1_1,6,30,,,,2,0,2,0,,,,,,,,,0,0,0,0,0,5,5,5,0,0,0,0,,,,,,,,,,,,,,,,,,,,,,,,,stimuli/alien_stimuli/62.png,,,,,,,,,,,,,,,,,,,,,,,,,,,,,stimuli/alien_stimuli/61.png,61,8,7,,,,,,,30,,,,,,,,1800.0846489998512,1800.0846489998512,1800.0846489998512,1800.0846489998512,1800.0846489998512,up,2.824241700116545,4,0,0,99,0.32,0.0,up,2.7385555000510067,,,,,1798.5314672999084,1800.0846489998512,0.48,-0.16,0.0,0.0,-0.16,0.48,0.48,0.48,-0.16,1791.4756037998013,1791.4756037998013,1791.4756037998013,1791.4756037998013,1791.4756037998013,1791.4756037998013,1791.4756037998013,1791.4756037998013,1791.4758345200214,7.174369500018656,return,7.034335600212216,,,,,,,,,,,,,,,,,,,,,,,,,,,,,,,,,P6275C,train_y,blue_star,bottom_right,2025-07-31_12h11.11.490,HideSeek_v1,2022.2.5,60.042353849416195,
,6,4,6,5,0,1,62,,train_dim1_1,6,30,,,,2,0,2,0,,,,,,,,,0,0,0,0,0,5,5,5,1,0,1,0,,,,,,,,,,,,,,,,,,,,,,,,,,,,,,,,,,,,,,,,,,,,,,,,,,,,,,,,,,,,,,,,30,,,,,,,,1802.915469700005,1802.915469700005,1802.915469700005,1802.915469700005,1802.915469700005,return,0.7933910000137985,5,0,0,1,0.32,0.0,return,0.7196722000371665,15,0,0.32,0.0,,,,,,,,,,,,,,,,,,,,,,,,,,,,,,,,,,,,,,,,,,,,,,,,,,,,,,,,P6275C,train_y,blue_star,bottom_right,2025-07-31_12h11.11.490,HideSeek_v1,2022.2.5,60.042353849416195,
,6,3,6,6,0,3,64,,train_dim1_1,7,30,,,,2,0,2,0,,,,,,,,,0,0,0,0,0,6,6,6,0,0,0,0,,,,,,,,,,,,,,,,,,,,,,,,,stimuli/alien_stimuli/64.png,,,,,,,,,,,,,,,,,,,,,,,,,,,,,stimuli/alien_stimuli/62.png,62,6,8,,,,,,,30,,,,,,,,1812.7288064998575,1812.7288064998575,1812.7288064998575,1812.7288064998575,1812.7288064998575,up,4.357804700033739,5,0,0,99,0.32,-0.08,up,4.277325100032613,,,,,1811.1752952998504,1812.7288064998575,0.32,0,0.08,0.0,-0.04,0.32,0.32,0.32,0,1805.2761020998005,1805.2761020998005,1805.2761020998005,1805.2761020998005,1805.2761020998005,1805.2761020998005,1805.2761020998005,1805.2761020998005,1805.2704418800304,6.007125200005248,return,5.876232500188053,,,,,,,,,,,,,,,,,,,,,,,,,,,,,,,,,P6275C,train_y,blue_star,bottom_right,2025-07-31_12h11.11.490,HideSeek_v1,2022.2.5,60.042353849416195,
,6,3,6,6,0,3,64,,train_dim1_1,7,30,,,,2,0,2,0,,,,,,,,,0,0,0,0,0,6,6,6,1,0,1,0,,,,,,,,,,,,,,,,,,,,,,,,,,,,,,,,,,,,,,,,,,,,,,,,,,,,,,,,,,,,,,,,30,,,,,,,,1817.096648399951,1817.096648399951,1817.096648399951,1817.096648399951,1817.096648399951,up,0.776493800105527,5,0,0,99,0.32,0.0,up,0.6887652999721467,,,,,,,,,,,,,,,,,,,,,,,,,,,,,,,,,,,,,,,,,,,,,,,,,,,,,,,,,,,,P6275C,train_y,blue_star,bottom_right,2025-07-31_12h11.11.490,HideSeek_v1,2022.2.5,60.042353849416195,
,6,3,6,6,0,3,64,,train_dim1_1,7,30,,,,2,0,2,0,,,,,,,,,0,0,0,0,0,6,6,6,2,0,2,0,,,,,,,,,,,,,,,,,,,,,,,,,,,,,,,,,,,,,,,,,,,,,,,,,,,,,,,,,,,,,,,,30,,,,,,,,1817.8775440999307,1817.8775440999307,1817.8775440999307,1817.8775440999307,1817.8775440999307,up,1.060811699833721,5,0,0,99,0.32,0.08,up,0.9782370002940297,,,,,,,,,,,,,,,,,,,,,,,,,,,,,,,,,,,,,,,,,,,,,,,,,,,,,,,,,,,,P6275C,train_y,blue_star,bottom_right,2025-07-31_12h11.11.490,HideSeek_v1,2022.2.5,60.042353849416195,
,6,3,6,6,0,3,64,,train_dim1_1,7,30,,,,2,0,2,0,,,,,,,,,0,0,0,0,0,6,6,6,3,0,3,0,,,,,,,,,,,,,,,,,,,,,,,,,,,,,,,,,,,,,,,,,,,,,,,,,,,,,,,,,,,,,,,,30,,,,,,,,1818.9451057999395,1818.9451057999395,1818.9451057999395,1818.9451057999395,1818.9451057999395,return,1.97782490006648,6,0,0,1,0.32,0.08,return,1.8942718000616878,18,0,0.32,0.08,,,,,,,,,,,,,,,,,,,,,,,,,,,,,,,,,,,,,,,,,,,,,,,,,,,,,,,,P6275C,train_y,blue_star,bottom_right,2025-07-31_12h11.11.490,HideSeek_v1,2022.2.5,60.042353849416195,
,9,2,9,2,0,0,61,,train_dim1_1,8,30,,,,2,0,2,0,,,,,,,,,0,0,0,0,0,7,7,7,0,0,0,0,,,,,,,,,,,,,,,,,,,,,,,,,stimuli/alien_stimuli/61.png,,,,,,,,,,,,,,,,,,,,,,,,,,,,,stimuli/alien_stimuli/64.png,64,6,9,,,,,,,30,,,,,,,,1826.4921928998083,1826.4921928998083,1826.4921928998083,1826.4921928998083,1826.4921928998083,return,1.9880029000341892,7,0,0,1,0.56,-0.24,return,1.9136717000510544,18,0,0.56,-0.24,1824.9366658998188,1826.4921928998083,0.32,0.08,0.24,0.0,-0.04,0.32,0.32,0.32,0.08,1822.4912624999415,1822.4912624999415,1822.4912624999415,1822.4912624999415,1822.4912624999415,1822.4912624999415,1822.4912624999415,1822.4912624999415,1822.484719579853,2.554052999941632,return,2.4195727999322116,,,,,,,,,,,,,,,,,,,,,,,,,,,,,,,,,P6275C,train_y,blue_star,bottom_right,2025-07-31_12h11.11.490,HideSeek_v1,2022.2.5,60.042353849416195,
,9,3,9,7,0,4,65,,train_dim1_1,9,30,,,,2,0,2,0,,,,,,,,,0,0,0,0,0,8,8,8,0,0,0,0,,,,,,,,,,,,,,,,,,,,,,,,,stimuli/alien_stimuli/65.png,,,,,,,,,,,,,,,,,,,,,,,,,,,,,stimuli/alien_stimuli/61.png,61,9,10,,,,,,,30,,,,,,,,1834.499609499937,1834.499609499937,1834.499609499937,1834.499609499937,1834.499609499937,up,2.33756439993158,7,0,0,99,0.56,-0.08,up,2.257115100044757,,,,,1832.9431516998447,1834.499609499937,0.56,-0.24,0.0,0.0,-0.24,0.56,0.56,0.56,-0.24,1830.033971699886,1830.033971699886,1830.033971699886,1830.033971699886,1830.033971699886,1830.033971699886,1830.033971699886,1830.033971699886,1830.02446663999,3.0047001999337226,return,2.885214200243354,,,,,,,,,,,,,,,,,,,,,,,,,,,,,,,,,P6275C,train_y,blue_star,bottom_right,2025-07-31_12h11.11.490,HideSeek_v1,2022.2.5,60.042353849416195,
,9,3,9,7,0,4,65,,train_dim1_1,9,30,,,,2,0,2,0,,,,,,,,,0,0,0,0,0,8,8,8,1,0,1,0,,,,,,,,,,,,,,,,,,,,,,,,,,,,,,,,,,,,,,,,,,,,,,,,,,,,,,,,,,,,,,,,30,,,,,,,,1836.8442212999798,1836.8442212999798,1836.8442212999798,1836.8442212999798,1836.8442212999798,up,0.509337899973616,7,0,0,99,0.56,0.0,up,0.4290892002172768,,,,,,,,,,,,,,,,,,,,,,,,,,,,,,,,,,,,,,,,,,,,,,,,,,,,,,,,,,,,P6275C,train_y,blue_star,bottom_right,2025-07-31_12h11.11.490,HideSeek_v1,2022.2.5,60.042353849416195,
,9,3,9,7,0,4,65,,train_dim1_1,9,30,,,,2,0,2,0,,,,,,,,,0,0,0,0,0,8,8,8,2,0,2,0,,,,,,,,,,,,,,,,,,,,,,,,,,,,,,,,,,,,,,,,,,,,,,,,,,,,,,,,,,,,,,,,30,,,,,,,,1837.3602514998056,1837.3602514998056,1837.3602514998056,1837.3602514998056,1837.3602514998056,up,0.5267725999001414,7,0,0,99,0.56,0.08,up,0.4420375002082437,,,,,,,,,,,,,,,,,,,,,,,,,,,,,,,,,,,,,,,,,,,,,,,,,,,,,,,,,,,,P6275C,train_y,blue_star,bottom_right,2025-07-31_12h11.11.490,HideSeek_v1,2022.2.5,60.042353849416195,
,9,3,9,7,0,4,65,,train_dim1_1,9,30,,,,2,0,2,0,,,,,,,,,0,0,0,0,0,8,8,8,3,0,3,0,,,,,,,,,,,,,,,,,,,,,,,,,,,,,,,,,,,,,,,,,,,,,,,,,,,,,,,,,,,,,,,,30,,,,,,,,1837.8941563998815,1837.8941563998815,1837.8941563998815,1837.8941563998815,1837.8941563998815,up,0.4599345000460744,7,0,0,99,0.56,0.16,up,0.38160610012710094,,,,,,,,,,,,,,,,,,,,,,,,,,,,,,,,,,,,,,,,,,,,,,,,,,,,,,,,,,,,P6275C,train_y,blue_star,bottom_right,2025-07-31_12h11.11.490,HideSeek_v1,2022.2.5,60.042353849416195,
,9,3,9,7,0,4,65,,train_dim1_1,9,30,,,,2,0,2,0,,,,,,,,,0,0,0,0,0,8,8,8,4,0,4,0,,,,,,,,,,,,,,,,,,,,,,,,,,,,,,,,,,,,,,,,,,,,,,,,,,,,,,,,,,,,,,,,30,,,,,,,,1838.362901699962,1838.362901699962,1838.362901699962,1838.362901699962,1838.362901699962,up,0.47659220010973513,7,0,0,99,0.56,0.24,up,0.39191389991901815,,,,,,,,,,,,,,,,,,,,,,,,,,,,,,,,,,,,,,,,,,,,,,,,,,,,,,,,,,,,P6275C,train_y,blue_star,bottom_right,2025-07-31_12h11.11.490,HideSeek_v1,2022.2.5,60.042353849416195,
,9,3,9,7,0,4,65,,train_dim1_1,9,30,,,,2,0,2,0,,,,,,,,,0,0,0,0,0,8,8,8,5,0,5,0,,,,,,,,,,,,,,,,,,,,,,,,,,,,,,,,,,,,,,,,,,,,,,,,,,,,,,,,,,,,,,,,30,,,,,,,,1838.8451886998955,1838.8451886998955,1838.8451886998955,1838.8451886998955,1838.8451886998955,return,0.5266642000060529,7,1,0,0,0.56,0.24,return,0.4531095002312213,23,0,0.56,0.24,,,,,,,,,,,,,,,,,,,,,,,,,,,,,,,,,,,,,,,,,,,,,,,,,,,,,,,,P6275C,train_y,blue_star,bottom_right,2025-07-31_12h11.11.490,HideSeek_v1,2022.2.5,60.042353849416195,
,7,2,7,7,0,5,66,,train_dim1_1,10,30,,,,2,0,2,0,,,,,,,,,0,0,0,0,0,9,9,9,0,0,0,0,,,,,,,,,,,,,,,,,,,,,,,,,stimuli/alien_stimuli/66.png,,,,,,,,,,,,,,,,,,,,,,,,,,,,,stimuli/alien_stimuli/65.png,65,9,11,,,,,,,30,,,,,,,,1844.376338099828,1844.376338099828,1844.376338099828,1844.376338099828,1844.376338099828,up,3.6366729999426752,7,1,0,99,0.4,-0.15999999999999998,up,3.5584927001036704,,,,,1842.8182298999745,1844.376338099828,0.56,0.16,0.32,0.0,0.0,0.56,0.56,0.56,0.16,1840.9379921997897,1840.9379921997897,1840.9379921997897,1840.9379921997897,1840.9379921997897,1840.9379921997897,1840.9379921997897,1840.9379921997897,1840.9334410799665,1.9868463999591768,return,1.849265299970284,,,,,,,,,,,,,,,,,,,,,,,,,,,,,,,,,P6275C,train_y,blue_star,bottom_right,2025-07-31_12h11.11.490,HideSeek_v1,2022.2.5,60.042353849416195,
,7,2,7,7,0,5,66,,train_dim1_1,10,30,,,,2,0,2,0,,,,,,,,,0,0,0,0,0,9,9,9,1,0,1,0,,,,,,,,,,,,,,,,,,,,,,,,,,,,,,,,,,,,,,,,,,,,,,,,,,,,,,,,,,,,,,,,30,,,,,,,,1848.020258500008,1848.020258500008,1848.020258500008,1848.020258500008,1848.020258500008,up,0.49279350019060075,7,1,0,99,0.4,-0.07999999999999997,up,0.4132433000486344,,,,,,,,,,,,,,,,,,,,,,,,,,,,,,,,,,,,,,,,,,,,,,,,,,,,,,,,,,,,P6275C,train_y,blue_star,bottom_right,2025-07-31_12h11.11.490,HideSeek_v1,2022.2.5,60.042353849416195,
,7,2,7,7,0,5,66,,train_dim1_1,10,30,,,,2,0,2,0,,,,,,,,,0,0,0,0,0,9,9,9,2,0,2,0,,,,,,,,,,,,,,,,,,,,,,,,,,,,,,,,,,,,,,,,,,,,,,,,,,,,,,,,,,,,,,,,30,,,,,,,,1848.5246084998362,1848.5246084998362,1848.5246084998362,1848.5246084998362,1848.5246084998362,up,0.5572037999518216,7,1,0,99,0.4,2.7755575615628914e-17,up,0.48208920028992,,,,,,,,,,,,,,,,,,,,,,,,,,,,,,,,,,,,,,,,,,,,,,,,,,,,,,,,,,,,P6275C,train_y,blue_star,bottom_right,2025-07-31_12h11.11.490,HideSeek_v1,2022.2.5,60.042353849416195,
,7,2,7,7,0,5,66,,train_dim1_1,10,30,,,,2,0,2,0,,,,,,,,,0,0,0,0,0,9,9,9,3,0,3,0,,,,,,,,,,,,,,,,,,,,,,,,,,,,,,,,,,,,,,,,,,,,,,,,,,,,,,,,,,,,,,,,30,,,,,,,,1849.0894899999257,1849.0894899999257,1849.0894899999257,1849.0894899999257,1849.0894899999257,up,0.7101672000717372,7,1,0,99,0.4,0.08000000000000003,up,0.6203050999902189,,,,,,,,,,,,,,,,,,,,,,,,,,,,,,,,,,,,,,,,,,,,,,,,,,,,,,,,,,,,P6275C,train_y,blue_star,bottom_right,2025-07-31_12h11.11.490,HideSeek_v1,2022.2.5,60.042353849416195,
,7,2,7,7,0,5,66,,train_dim1_1,10,30,,,,2,0,2,0,,,,,,,,,0,0,0,0,0,9,9,9,4,0,4,0,,,,,,,,,,,,,,,,,,,,,,,,,,,,,,,,,,,,,,,,,,,,,,,,,,,,,,,,,,,,,,,,30,,,,,,,,1849.8046558999922,1849.8046558999922,1849.8046558999922,1849.8046558999922,1849.8046558999922,up,0.8436487999279052,7,1,0,99,0.4,0.16000000000000003,up,0.760285000083968,,,,,,,,,,,,,,,,,,,,,,,,,,,,,,,,,,,,,,,,,,,,,,,,,,,,,,,,,,,,P6275C,train_y,blue_star,bottom_right,2025-07-31_12h11.11.490,HideSeek_v1,2022.2.5,60.042353849416195,
,7,2,7,7,0,5,66,,train_dim1_1,10,30,,,,2,0,2,0,,,,,,,,,0,0,0,0,0,9,9,9,5,0,5,0,,,,,,,,,,,,,,,,,,,,,,,,,,,,,,,,,,,,,,,,,,,,,,,,,,,,,,,,,,,,,,,,30,,,,,,,,1850.6543691998813,1850.6543691998813,1850.6543691998813,1850.6543691998813,1850.6543691998813,return,0.45999529981054366,8,0,0,1,0.4,0.16000000000000003,return,0.3801034002099186,28,0,0.4,0.16000000000000003,,,,,,,,,,,,,,,,,,,,,,,,,,,,,,,,,,,,,,,,,,,,,,,,,,,,,,,,P6275C,train_y,blue_star,bottom_right,2025-07-31_12h11.11.490,HideSeek_v1,2022.2.5,60.042353849416195,
,9,1,9,5,0,4,65,,train_dim1_1,11,30,,,,2,0,2,0,,,,,,,,,0,0,0,0,0,10,10,10,0,0,0,0,,,,,,,,,,,,,,,,,,,,,,,,,stimuli/alien_stimuli/65.png,,,,,,,,,,,,,,,,,,,,,,,,,,,,,stimuli/alien_stimuli/66.png,66,7,12,,,,,,,30,,,,,,,,1856.4548872997984,1856.4548872997984,1856.4548872997984,1856.4548872997984,1856.4548872997984,up,1.4883141000755131,8,0,0,99,0.56,-0.24,up,1.4070088001899421,,,,,1854.8950243999716,1856.4548872997984,0.4,0.16,0.4,0.0,-0.039999999999999994,0.4,0.4,0.4,0.16,1852.6859772999305,1852.6859772999305,1852.6859772999305,1852.6859772999305,1852.6859772999305,1852.6859772999305,1852.6859772999305,1852.6859772999305,1852.6765338799914,2.3208027000073344,return,2.1887123002670705,,,,,,,,,,,,,,,,,,,,,,,,,,,,,,,,,P6275C,train_y,blue_star,bottom_right,2025-07-31_12h11.11.490,HideSeek_v1,2022.2.5,60.042353849416195,
,9,1,9,5,0,4,65,,train_dim1_1,11,30,,,,2,0,2,0,,,,,,,,,0,0,0,0,0,10,10,10,1,0,1,0,,,,,,,,,,,,,,,,,,,,,,,,,,,,,,,,,,,,,,,,,,,,,,,,,,,,,,,,,,,,,,,,30,,,,,,,,1857.9442657998297,1857.9442657998297,1857.9442657998297,1857.9442657998297,1857.9442657998297,up,0.4431473999284208,8,0,0,99,0.56,-0.15999999999999998,up,0.36922320001758635,,,,,,,,,,,,,,,,,,,,,,,,,,,,,,,,,,,,,,,,,,,,,,,,,,,,,,,,,,,,P6275C,train_y,blue_star,bottom_right,2025-07-31_12h11.11.490,HideSeek_v1,2022.2.5,60.042353849416195,
,9,1,9,5,0,4,65,,train_dim1_1,11,30,,,,2,0,2,0,,,,,,,,,0,0,0,0,0,10,10,10,2,0,2,0,,,,,,,,,,,,,,,,,,,,,,,,,,,,,,,,,,,,,,,,,,,,,,,,,,,,,,,,,,,,,,,,30,,,,,,,,1858.3944678998087,1858.3944678998087,1858.3944678998087,1858.3944678998087,1858.3944678998087,up,0.4762703001033515,8,0,0,99,0.56,-0.07999999999999997,up,0.39518680004402995,,,,,,,,,,,,,,,,,,,,,,,,,,,,,,,,,,,,,,,,,,,,,,,,,,,,,,,,,,,,P6275C,train_y,blue_star,bottom_right,2025-07-31_12h11.11.490,HideSeek_v1,2022.2.5,60.042353849416195,
,9,1,9,5,0,4,65,,train_dim1_1,11,30,,,,2,0,2,0,,,,,,,,,0,0,0,0,0,10,10,10,3,0,3,0,,,,,,,,,,,,,,,,,,,,,,,,,,,,,,,,,,,,,,,,,,,,,,,,,,,,,,,,,,,,,,,,30,,,,,,,,1858.878507499816,1858.878507499816,1858.878507499816,1858.878507499816,1858.878507499816,up,0.5933838998898864,8,0,0,99,0.56,2.7755575615628914e-17,up,0.505805800203234,,,,,,,,,,,,,,,,,,,,,,,,,,,,,,,,,,,,,,,,,,,,,,,,,,,,,,,,,,,,P6275C,train_y,blue_star,bottom_right,2025-07-31_12h11.11.490,HideSeek_v1,2022.2.5,60.042353849416195,
,9,1,9,5,0,4,65,,train_dim1_1,11,30,,,,2,0,2,0,,,,,,,,,0,0,0,0,0,10,10,10,4,0,4,0,,,,,,,,,,,,,,,,,,,,,,,,,,,,,,,,,,,,,,,,,,,,,,,,,,,,,,,,,,,,,,,,30,,,,,,,,1859.4784035999328,1859.4784035999328,1859.4784035999328,1859.4784035999328,1859.4784035999328,return,0.45995820011012256,9,0,0,1,0.56,2.7755575615628914e-17,return,0.38684940012171865,32,0,0.56,2.7755575615628914e-17,,,,,,,,,,,,,,,,,,,,,,,,,,,,,,,,,,,,,,,,,,,,,,,,,,,,,,,,P6275C,train_y,blue_star,bottom_right,2025-07-31_12h11.11.490,HideSeek_v1,2022.2.5,60.042353849416195,
,5,0,5,0,0,0,61,,train_dim1_1,12,30,,,,2,0,2,0,,,,,,,,,0,0,0,0,0,11,11,11,0,0,0,0,,,,,,,,,,,,,,,,,,,,,,,,,stimuli/alien_stimuli/61.png,,,,,,,,,,,,,,,,,,,,,,,,,,,,,stimuli/alien_stimuli/65.png,65,9,13,,,,,,,30,,,,,,,,1863.3701070998795,1863.3701070998795,1863.3701070998795,1863.3701070998795,1863.3701070998795,up,3.073846599785611,9,0,0,99,0.24,-0.32,up,2.9883034001104534,,,,,1861.8174471999519,1863.3701070998795,0.56,0,0.32,0.0,-0.16,0.56,0.56,0.56,0,1861.491898600012,1861.491898600012,1861.491898600012,1861.491898600012,1861.491898600012,1861.491898600012,1861.491898600012,1861.491898600012,1861.4839233398902,0.418911200016737,return,0.30821870011277497,,,,,,,,,,,,,,,,,,,,,,,,,,,,,,,,,P6275C,train_y,blue_star,bottom_right,2025-07-31_12h11.11.490,HideSeek_v1,2022.2.5,60.042353849416195,
,5,0,5,0,0,0,61,,train_dim1_1,12,30,,,,2,0,2,0,,,,,,,,,0,0,0,0,0,11,11,11,1,0,1,0,,,,,,,,,,,,,,,,,,,,,,,,,,,,,,,,,,,,,,,,,,,,,,,,,,,,,,,,,,,,,,,,30,,,,,,,,1866.451769999927,1866.451769999927,1866.451769999927,1866.451769999927,1866.451769999927,up,0.5929836998693645,9,0,0,99,0.24,-0.24,up,0.5072989002801478,,,,,,,,,,,,,,,,,,,,,,,,,,,,,,,,,,,,,,,,,,,,,,,,,,,,,,,,,,,,P6275C,train_y,blue_star,bottom_right,2025-07-31_12h11.11.490,HideSeek_v1,2022.2.5,60.042353849416195,
,5,0,5,0,0,0,61,,train_dim1_1,12,30,,,,2,0,2,0,,,,,,,,,0,0,0,0,0,11,11,11,2,0,2,0,,,,,,,,,,,,,,,,,,,,,,,,,,,,,,,,,,,,,,,,,,,,,,,,,,,,,,,,,,,,,,,,30,,,,,,,,1867.05222949991,1867.05222949991,1867.05222949991,1867.05222949991,1867.05222949991,down,2.195445599965751,9,0,0,99,0.24,-0.32,down,2.109532100148499,,,,,,,,,,,,,,,,,,,,,,,,,,,,,,,,,,,,,,,,,,,,,,,,,,,,,,,,,,,,P6275C,train_y,blue_star,bottom_right,2025-07-31_12h11.11.490,HideSeek_v1,2022.2.5,60.042353849416195,
,5,0,5,0,0,0,61,,train_dim1_1,12,30,,,,2,0,2,0,,,,,,,,,0,0,0,0,0,11,11,11,3,0,3,0,,,,,,,,,,,,,,,,,,,,,,,,,,,,,,,,,,,,,,,,,,,,,,,,,,,,,,,,,,,,,,,,30,,,,,,,,1869.2591302997898,1869.2591302997898,1869.2591302997898,1869.2591302997898,1869.2591302997898,return,0.6891391999088228,9,1,0,0,0.24,-0.32,return,0.6143750001210719,33,0,0.24,-0.32,,,,,,,,,,,,,,,,,,,,,,,,,,,,,,,,,,,,,,,,,,,,,,,,,,,,,,,,P6275C,train_y,blue_star,bottom_right,2025-07-31_12h11.11.490,HideSeek_v1,2022.2.5,60.042353849416195,
,9,3,9,4,0,1,62,,train_dim1_1,13,30,,,,2,0,2,0,,,,,,,,,0,0,0,0,0,12,12,12,0,0,0,0,,,,,,,,,,,,,,,,,,,,,,,,,stimuli/alien_stimuli/62.png,,,,,,,,,,,,,,,,,,,,,,,,,,,,,stimuli/alien_stimuli/61.png,61,5,14,,,,,,,30,,,,,,,,1874.1314468998462,1874.1314468998462,1874.1314468998462,1874.1314468998462,1874.1314468998462,up,2.2053944999352098,9,1,0,99,0.56,-0.08,up,2.1221522002015263,,,,,1872.5763952999841,1874.1314468998462,0.24,-0.4,0.0,0.0,-0.4,0.24,0.24,0.24,-0.4,1871.5264692998026,1871.5264692998026,1871.5264692998026,1871.5264692998026,1871.5264692998026,1871.5264692998026,1871.5264692998026,1871.5264692998026,1871.525591319846,1.1694329001475126,return,1.0234525001142174,,,,,,,,,,,,,,,,,,,,,,,,,,,,,,,,,P6275C,train_y,blue_star,bottom_right,2025-07-31_12h11.11.490,HideSeek_v1,2022.2.5,60.042353849416195,
,9,3,9,4,0,1,62,,train_dim1_1,13,30,,,,2,0,2,0,,,,,,,,,0,0,0,0,0,12,12,12,1,0,1,0,,,,,,,,,,,,,,,,,,,,,,,,,,,,,,,,,,,,,,,,,,,,,,,,,,,,,,,,,,,,,,,,30,,,,,,,,1876.343544299947,1876.343544299947,1876.343544299947,1876.343544299947,1876.343544299947,return,0.42610849998891354,10,0,0,1,0.56,-0.08,return,0.34868800011463463,34,0,0.56,-0.08,,,,,,,,,,,,,,,,,,,,,,,,,,,,,,,,,,,,,,,,,,,,,,,,,,,,,,,,P6275C,train_y,blue_star,bottom_right,2025-07-31_12h11.11.490,HideSeek_v1,2022.2.5,60.042353849416195,
,7,2,7,7,0,5,66,,train_dim1_1,14,30,,,,2,0,2,0,,,,,,,,,0,0,0,0,0,13,13,13,0,0,0,0,,,,,,,,,,,,,,,,,,,,,,,,,stimuli/alien_stimuli/66.png,,,,,,,,,,,,,,,,,,,,,,,,,,,,,stimuli/alien_stimuli/62.png,62,9,15,,,,,,,30,,,,,,,,1883.1077818998601,1883.1077818998601,1883.1077818998601,1883.1077818998601,1883.1077818998601,up,2.619599200086668,10,0,0,99,0.4,-0.15999999999999998,up,2.5469400002621114,,,,,1881.5505874999799,1883.1077818998601,0.56,-0.08,0.08,0.0,-0.12,0.56,0.56,0.56,-0.08,1878.325171599863,1878.325171599863,1878.325171599863,1878.325171599863,1878.325171599863,1878.325171599863,1878.325171599863,1878.325171599863,1878.314558139909,3.3216756999026984,return,3.207562800263986,,,,,,,,,,,,,,,,,,,,,,,,,,,,,,,,,P6275C,train_y,blue_star,bottom_right,2025-07-31_12h11.11.490,HideSeek_v1,2022.2.5,60.042353849416195,
,7,2,7,7,0,5,66,,train_dim1_1,14,30,,,,2,0,2,0,,,,,,,,,0,0,0,0,0,13,13,13,1,0,1,0,,,,,,,,,,,,,,,,,,,,,,,,,,,,,,,,,,,,,,,,,,,,,,,,,,,,,,,,,,,,,,,,30,,,,,,,,1885.7342483999673,1885.7342483999673,1885.7342483999673,1885.7342483999673,1885.7342483999673,up,0.5929022999480367,10,0,0,99,0.4,-0.07999999999999997,up,0.5109909002203494,,,,,,,,,,,,,,,,,,,,,,,,,,,,,,,,,,,,,,,,,,,,,,,,,,,,,,,,,,,,P6275C,train_y,blue_star,bottom_right,2025-07-31_12h11.11.490,HideSeek_v1,2022.2.5,60.042353849416195,
,7,2,7,7,0,5,66,,train_dim1_1,14,30,,,,2,0,2,0,,,,,,,,,0,0,0,0,0,13,13,13,2,0,2,0,,,,,,,,,,,,,,,,,,,,,,,,,,,,,,,,,,,,,,,,,,,,,,,,,,,,,,,,,,,,,,,,30,,,,,,,,1886.3357227998786,1886.3357227998786,1886.3357227998786,1886.3357227998786,1886.3357227998786,up,0.52802349999547,10,0,0,99,0.4,2.7755575615628914e-17,up,0.44399750023148954,,,,,,,,,,,,,,,,,,,,,,,,,,,,,,,,,,,,,,,,,,,,,,,,,,,,,,,,,,,,P6275C,train_y,blue_star,bottom_right,2025-07-31_12h11.11.490,HideSeek_v1,2022.2.5,60.042353849416195,
,7,2,7,7,0,5,66,,train_dim1_1,14,30,,,,2,0,2,0,,,,,,,,,0,0,0,0,0,13,13,13,3,0,3,0,,,,,,,,,,,,,,,,,,,,,,,,,,,,,,,,,,,,,,,,,,,,,,,,,,,,,,,,,,,,,,,,30,,,,,,,,1886.8875441998243,1886.8875441998243,1886.8875441998243,1886.8875441998243,1886.8875441998243,up,0.5288149998523295,10,0,0,99,0.4,0.08000000000000003,up,0.4511233000084758,,,,,,,,,,,,,,,,,,,,,,,,,,,,,,,,,,,,,,,,,,,,,,,,,,,,,,,,,,,,P6275C,train_y,blue_star,bottom_right,2025-07-31_12h11.11.490,HideSeek_v1,2022.2.5,60.042353849416195,
,7,2,7,7,0,5,66,,train_dim1_1,14,30,,,,2,0,2,0,,,,,,,,,0,0,0,0,0,13,13,13,4,0,4,0,,,,,,,,,,,,,,,,,,,,,,,,,,,,,,,,,,,,,,,,,,,,,,,,,,,,,,,,,,,,,,,,30,,,,,,,,1887.419263099786,1887.419263099786,1887.419263099786,1887.419263099786,1887.419263099786,up,0.5103301000781357,10,0,0,99,0.4,0.16000000000000003,up,0.4223676002584398,,,,,,,,,,,,,,,,,,,,,,,,,,,,,,,,,,,,,,,,,,,,,,,,,,,,,,,,,,,,P6275C,train_y,blue_star,bottom_right,2025-07-31_12h11.11.490,HideSeek_v1,2022.2.5,60.042353849416195,
,7,2,7,7,0,5,66,,train_dim1_1,14,30,,,,2,0,2,0,,,,,,,,,0,0,0,0,0,13,13,13,5,0,5,0,,,,,,,,,,,,,,,,,,,,,,,,,,,,,,,,,,,,,,,,,,,,,,,,,,,,,,,,,,,,,,,,30,,,,,,,,1887.9352622998413,1887.9352622998413,1887.9352622998413,1887.9352622998413,1887.9352622998413,return,0.5765119001735002,11,0,0,1,0.4,0.16000000000000003,return,0.49939960008487105,39,0,0.4,0.16000000000000003,,,,,,,,,,,,,,,,,,,,,,,,,,,,,,,,,,,,,,,,,,,,,,,,,,,,,,,,P6275C,train_y,blue_star,bottom_right,2025-07-31_12h11.11.490,HideSeek_v1,2022.2.5,60.042353849416195,
,6,4,6,7,0,3,64,,train_dim1_1,15,30,,,,2,0,2,0,,,,,,,,,0,0,0,0,0,14,14,14,0,0,0,0,,,,,,,,,,,,,,,,,,,,,,,,,stimuli/alien_stimuli/64.png,,,,,,,,,,,,,,,,,,,,,,,,,,,,,stimuli/alien_stimuli/66.png,66,7,16,,,,,,,30,,,,,,,,1895.3660035999492,1895.3660035999492,1895.3660035999492,1895.3660035999492,1895.3660035999492,up,3.2717282997909933,11,0,0,99,0.32,0.0,up,3.1995278000831604,,,,,1893.8106185998768,1895.3660035999492,0.4,0.16,0.4,0.0,-0.039999999999999994,0.4,0.4,0.4,0.16,1890.0855069998652,1890.0855069998652,1890.0855069998652,1890.0855069998652,1890.0855069998652,1890.0855069998652,1890.0855069998652,1890.0855069998652,1890.0743531799408,3.8388480998110026,return,3.706341600045562,,,,,,,,,,,,,,,,,,,,,,,,,,,,,,,,,P6275C,train_y,blue_star,bottom_right,2025-07-31_12h11.11.490,HideSeek_v1,2022.2.5,60.042353849416195,
,6,4,6,7,0,3,64,,train_dim1_1,15,30,,,,2,0,2,0,,,,,,,,,0,0,0,0,0,14,14,14,1,0,1,0,,,,,,,,,,,,,,,,,,,,,,,,,,,,,,,,,,,,,,,,,,,,,,,,,,,,,,,,,,,,,,,,30,,,,,,,,1898.6448675999418,1898.6448675999418,1898.6448675999418,1898.6448675999418,1898.6448675999418,up,0.42604589997790754,11,0,0,99,0.32,0.08,up,0.34868789999745786,,,,,,,,,,,,,,,,,,,,,,,,,,,,,,,,,,,,,,,,,,,,,,,,,,,,,,,,,,,,P6275C,train_y,blue_star,bottom_right,2025-07-31_12h11.11.490,HideSeek_v1,2022.2.5,60.042353849416195,
,6,4,6,7,0,3,64,,train_dim1_1,15,30,,,,2,0,2,0,,,,,,,,,0,0,0,0,0,14,14,14,2,0,2,0,,,,,,,,,,,,,,,,,,,,,,,,,,,,,,,,,,,,,,,,,,,,,,,,,,,,,,,,,,,,,,,,30,,,,,,,,1899.0907367998734,1899.0907367998734,1899.0907367998734,1899.0907367998734,1899.0907367998734,up,0.4419217000249773,11,0,0,99,0.32,0.16,up,0.3486840999685228,,,,,,,,,,,,,,,,,,,,,,,,,,,,,,,,,,,,,,,,,,,,,,,,,,,,,,,,,,,,P6275C,train_y,blue_star,bottom_right,2025-07-31_12h11.11.490,HideSeek_v1,2022.2.5,60.042353849416195,
,6,4,6,7,0,3,64,,train_dim1_1,15,30,,,,2,0,2,0,,,,,,,,,0,0,0,0,0,14,14,14,3,0,3,0,,,,,,,,,,,,,,,,,,,,,,,,,,,,,,,,,,,,,,,,,,,,,,,,,,,,,,,,,,,,,,,,30,,,,,,,,1899.528584399959,1899.528584399959,1899.528584399959,1899.528584399959,1899.528584399959,return,0.5102205001749098,12,0,0,1,0.32,0.16,return,0.42172220000065863,42,0,0.32,0.16,,,,,,,,,,,,,,,,,,,,,,,,,,,,,,,,,,,,,,,,,,,,,,,,,,,,,,,,P6275C,train_y,blue_star,bottom_right,2025-07-31_12h11.11.490,HideSeek_v1,2022.2.5,60.042353849416195,
,9,0,9,4,0,4,65,,train_dim1_1,16,30,,,,2,0,2,0,,,,,,,,,0,0,0,0,0,15,15,15,0,0,0,0,,,,,,,,,,,,,,,,,,,,,,,,,stimuli/alien_stimuli/65.png,,,,,,,,,,,,,,,,,,,,,,,,,,,,,stimuli/alien_stimuli/64.png,64,6,17,,,,,,,30,,,,,,,,1907.4235612999182,1907.4235612999182,1907.4235612999182,1907.4235612999182,1907.4235612999182,up,3.307172199944034,12,0,0,99,0.56,-0.32,up,3.2269242003094405,,,,,1905.870642399881,1907.4235612999182,0.32,0.16,0.24,0.0,0.04,0.32,0.32,0.32,0.16,1901.6058373998385,1901.6058373998385,1901.6058373998385,1901.6058373998385,1901.6058373998385,1901.6058373998385,1901.6058373998385,1901.6058373998385,1901.6005430799441,4.372592699946836,return,4.243854300118983,,,,,,,,,,,,,,,,,,,,,,,,,,,,,,,,,P6275C,train_y,blue_star,bottom_right,2025-07-31_12h11.11.490,HideSeek_v1,2022.2.5,60.042353849416195,
,9,0,9,4,0,4,65,,train_dim1_1,16,30,,,,2,0,2,0,,,,,,,,,0,0,0,0,0,15,15,15,1,0,1,0,,,,,,,,,,,,,,,,,,,,,,,,,,,,,,,,,,,,,,,,,,,,,,,,,,,,,,,,,,,,,,,,30,,,,,,,,1910.7406254999805,1910.7406254999805,1910.7406254999805,1910.7406254999805,1910.7406254999805,up,0.5257935000117868,12,0,0,99,0.56,-0.24,up,0.44893510011024773,,,,,,,,,,,,,,,,,,,,,,,,,,,,,,,,,,,,,,,,,,,,,,,,,,,,,,,,,,,,P6275C,train_y,blue_star,bottom_right,2025-07-31_12h11.11.490,HideSeek_v1,2022.2.5,60.042353849416195,
,9,0,9,4,0,4,65,,train_dim1_1,16,30,,,,2,0,2,0,,,,,,,,,0,0,0,0,0,15,15,15,2,0,2,0,,,,,,,,,,,,,,,,,,,,,,,,,,,,,,,,,,,,,,,,,,,,,,,,,,,,,,,,,,,,,,,,30,,,,,,,,1911.2715143999085,1911.2715143999085,1911.2715143999085,1911.2715143999085,1911.2715143999085,up,0.47696460015140474,12,0,0,99,0.56,-0.15999999999999998,up,0.3919822003226727,,,,,,,,,,,,,,,,,,,,,,,,,,,,,,,,,,,,,,,,,,,,,,,,,,,,,,,,,,,,P6275C,train_y,blue_star,bottom_right,2025-07-31_12h11.11.490,HideSeek_v1,2022.2.5,60.042353849416195,
,9,0,9,4,0,4,65,,train_dim1_1,16,30,,,,2,0,2,0,,,,,,,,,0,0,0,0,0,15,15,15,3,0,3,0,,,,,,,,,,,,,,,,,,,,,,,,,,,,,,,,,,,,,,,,,,,,,,,,,,,,,,,,,,,,,,,,30,,,,,,,,1911.7582067998592,1911.7582067998592,1911.7582067998592,1911.7582067998592,1911.7582067998592,up,0.5084903999231756,12,0,0,99,0.56,-0.07999999999999997,up,0.42248420021496713,,,,,,,,,,,,,,,,,,,,,,,,,,,,,,,,,,,,,,,,,,,,,,,,,,,,,,,,,,,,P6275C,train_y,blue_star,bottom_right,2025-07-31_12h11.11.490,HideSeek_v1,2022.2.5,60.042353849416195,
,9,0,9,4,0,4,65,,train_dim1_1,16,30,,,,2,0,2,0,,,,,,,,,0,0,0,0,0,15,15,15,4,0,4,0,,,,,,,,,,,,,,,,,,,,,,,,,,,,,,,,,,,,,,,,,,,,,,,,,,,,,,,,,,,,,,,,30,,,,,,,,1912.2730258000083,1912.2730258000083,1912.2730258000083,1912.2730258000083,1912.2730258000083,up,1.8610529000870883,12,0,0,99,0.56,2.7755575615628914e-17,up,1.7861830003093928,,,,,,,,,,,,,,,,,,,,,,,,,,,,,,,,,,,,,,,,,,,,,,,,,,,,,,,,,,,,P6275C,train_y,blue_star,bottom_right,2025-07-31_12h11.11.490,HideSeek_v1,2022.2.5,60.042353849416195,
,9,0,9,4,0,4,65,,train_dim1_1,16,30,,,,2,0,2,0,,,,,,,,,0,0,0,0,0,15,15,15,5,0,5,0,,,,,,,,,,,,,,,,,,,,,,,,,,,,,,,,,,,,,,,,,,,,,,,,,,,,,,,,,,,,,,,,30,,,,,,,,1914.141351299826,1914.141351299826,1914.141351299826,1914.141351299826,1914.141351299826,return,0.6935576999094337,12,1,0,0,0.56,2.7755575615628914e-17,return,0.6135367001406848,47,0,0.56,2.7755575615628914e-17,,,,,,,,,,,,,,,,,,,,,,,,,,,,,,,,,,,,,,,,,,,,,,,,,,,,,,,,P6275C,train_y,blue_star,bottom_right,2025-07-31_12h11.11.490,HideSeek_v1,2022.2.5,60.042353849416195,
,8,3,8,6,0,3,64,,train_dim1_1,17,30,,,,2,0,2,0,,,,,,,,,0,0,0,0,0,16,16,16,0,0,0,0,,,,,,,,,,,,,,,,,,,,,,,,,stimuli/alien_stimuli/64.png,,,,,,,,,,,,,,,,,,,,,,,,,,,,,stimuli/alien_stimuli/65.png,65,9,18,,,,,,,30,,,,,,,,1923.0717899999581,1923.0717899999581,1923.0717899999581,1923.0717899999581,1923.0717899999581,up,1.6881347999442369,12,1,0,99,0.48,-0.08,up,1.6126324001234025,,,,,1921.5170308998786,1923.0717899999581,0.56,-0.08,0.32,0.0,-0.24000000000000002,0.56,0.56,0.56,-0.08,1916.4024803999346,1916.4024803999346,1916.4024803999346,1916.4024803999346,1916.4024803999346,1916.4024803999346,1916.4024803999346,1916.4024803999346,1916.3963917799292,5.222685400163755,return,5.086656900122762,,,,,,,,,,,,,,,,,,,,,,,,,,,,,,,,,P6275C,train_y,blue_star,bottom_right,2025-07-31_12h11.11.490,HideSeek_v1,2022.2.5,60.042353849416195,
,8,3,8,6,0,3,64,,train_dim1_1,17,30,,,,2,0,2,0,,,,,,,,,0,0,0,0,0,16,16,16,1,0,1,0,,,,,,,,,,,,,,,,,,,,,,,,,,,,,,,,,,,,,,,,,,,,,,,,,,,,,,,,,,,,,,,,30,,,,,,,,1924.7696255999617,1924.7696255999617,1924.7696255999617,1924.7696255999617,1924.7696255999617,up,0.5578979998826981,12,1,0,99,0.48,0.0,up,0.48275040020234883,,,,,,,,,,,,,,,,,,,,,,,,,,,,,,,,,,,,,,,,,,,,,,,,,,,,,,,,,,,,P6275C,train_y,blue_star,bottom_right,2025-07-31_12h11.11.490,HideSeek_v1,2022.2.5,60.042353849416195,
,8,3,8,6,0,3,64,,train_dim1_1,17,30,,,,2,0,2,0,,,,,,,,,0,0,0,0,0,16,16,16,2,0,2,0,,,,,,,,,,,,,,,,,,,,,,,,,,,,,,,,,,,,,,,,,,,,,,,,,,,,,,,,,,,,,,,,30,,,,,,,,1925.3330609998666,1925.3330609998666,1925.3330609998666,1925.3330609998666,1925.3330609998666,up,0.5433619001414627,12,1,0,99,0.48,0.08,up,0.46670490014366806,,,,,,,,,,,,,,,,,,,,,,,,,,,,,,,,,,,,,,,,,,,,,,,,,,,,,,,,,,,,P6275C,train_y,blue_star,bottom_right,2025-07-31_12h11.11.490,HideSeek_v1,2022.2.5,60.042353849416195,
,8,3,8,6,0,3,64,,train_dim1_1,17,30,,,,2,0,2,0,,,,,,,,,0,0,0,0,0,16,16,16,3,0,3,0,,,,,,,,,,,,,,,,,,,,,,,,,,,,,,,,,,,,,,,,,,,,,,,,,,,,,,,,,,,,,,,,30,,,,,,,,1925.8845664998516,1925.8845664998516,1925.8845664998516,1925.8845664998516,1925.8845664998516,return,0.6433284999802709,13,0,0,1,0.48,0.08,return,0.557847100077197,50,0,0.48,0.08,,,,,,,,,,,,,,,,,,,,,,,,,,,,,,,,,,,,,,,,,,,,,,,,,,,,,,,,P6275C,train_y,blue_star,bottom_right,2025-07-31_12h11.11.490,HideSeek_v1,2022.2.5,60.042353849416195,
,7,1,7,1,0,0,61,,train_dim1_1,18,30,,,,2,0,2,0,,,,,,,,,0,0,0,0,0,17,17,17,0,0,0,0,,,,,,,,,,,,,,,,,,,,,,,,,stimuli/alien_stimuli/61.png,,,,,,,,,,,,,,,,,,,,,,,,,,,,,stimuli/alien_stimuli/64.png,64,8,19,,,,,,,30,,,,,,,,1931.0934924997855,1931.0934924997855,1931.0934924997855,1931.0934924997855,1931.0934924997855,up,2.6567279000300914,13,0,0,99,0.4,-0.24,up,2.5791741001885384,,,,,1929.5407443000004,1931.0934924997855,0.48,0.08,0.24,0.0,-0.04,0.48,0.48,0.48,0.08,1928.0965038998984,1928.0965038998984,1928.0965038998984,1928.0965038998984,1928.0965038998984,1928.0965038998984,1928.0965038998984,1928.0965038998984,1928.0893345799295,1.5540952999144793,return,1.425262600183487,,,,,,,,,,,,,,,,,,,,,,,,,,,,,,,,,P6275C,train_y,blue_star,bottom_right,2025-07-31_12h11.11.490,HideSeek_v1,2022.2.5,60.042353849416195,
,7,1,7,1,0,0,61,,train_dim1_1,18,30,,,,2,0,2,0,,,,,,,,,0,0,0,0,0,17,17,17,1,0,1,0,,,,,,,,,,,,,,,,,,,,,,,,,,,,,,,,,,,,,,,,,,,,,,,,,,,,,,,,,,,,,,,,30,,,,,,,,1933.7656282999087,1933.7656282999087,1933.7656282999087,1933.7656282999087,1933.7656282999087,down,1.2268916999455541,13,0,0,99,0.4,-0.32,down,1.141293300082907,,,,,,,,,,,,,,,,,,,,,,,,,,,,,,,,,,,,,,,,,,,,,,,,,,,,,,,,,,,,P6275C,train_y,blue_star,bottom_right,2025-07-31_12h11.11.490,HideSeek_v1,2022.2.5,60.042353849416195,
,7,1,7,1,0,0,61,,train_dim1_1,18,30,,,,2,0,2,0,,,,,,,,,0,0,0,0,0,17,17,17,2,0,2,0,,,,,,,,,,,,,,,,,,,,,,,,,,,,,,,,,,,,,,,,,,,,,,,,,,,,,,,,,,,,,,,,30,,,,,,,,1934.9916689000092,1934.9916689000092,1934.9916689000092,1934.9916689000092,1934.9916689000092,return,0.3931774999946356,14,0,0,1,0.4,-0.32,return,0.32124279998242855,50,0,0.4,-0.32,,,,,,,,,,,,,,,,,,,,,,,,,,,,,,,,,,,,,,,,,,,,,,,,,,,,,,,,P6275C,train_y,blue_star,bottom_right,2025-07-31_12h11.11.490,HideSeek_v1,2022.2.5,60.042353849416195,
,5,4,5,5,0,1,62,,train_dim1_1,19,30,,,,2,0,2,0,,,,,,,,,0,0,0,0,0,18,18,18,0,0,0,0,,,,,,,,,,,,,,,,,,,,,,,,,stimuli/alien_stimuli/62.png,,,,,,,,,,,,,,,,,,,,,,,,,,,,,stimuli/alien_stimuli/61.png,61,7,20,,,,,,,30,,,,,,,,1939.500759899849,1939.500759899849,1939.500759899849,1939.500759899849,1939.500759899849,up,1.688944699941203,14,0,0,99,0.24,0.0,up,1.600806500064209,,,,,1937.9473363999277,1939.500759899849,0.4,-0.32,0.0,0.0,-0.32,0.4,0.4,0.4,-0.32,1936.9381597999018,1936.9381597999018,1936.9381597999018,1936.9381597999018,1936.9381597999018,1936.9381597999018,1936.9381597999018,1936.9381597999018,1936.9300069398246,1.1028287999797612,return,0.9851145001593977,,,,,,,,,,,,,,,,,,,,,,,,,,,,,,,,,P6275C,train_y,blue_star,bottom_right,2025-07-31_12h11.11.490,HideSeek_v1,2022.2.5,60.042353849416195,
,5,4,5,5,0,1,62,,train_dim1_1,19,30,,,,2,0,2,0,,,,,,,,,0,0,0,0,0,18,18,18,1,0,1,0,,,,,,,,,,,,,,,,,,,,,,,,,,,,,,,,,,,,,,,,,,,,,,,,,,,,,,,,,,,,,,,,30,,,,,,,,1941.1975928999018,1941.1975928999018,1941.1975928999018,1941.1975928999018,1941.1975928999018,up,0.4425335999112576,14,0,0,99,0.24,0.08,up,0.3679233000148088,,,,,,,,,,,,,,,,,,,,,,,,,,,,,,,,,,,,,,,,,,,,,,,,,,,,,,,,,,,,P6275C,train_y,blue_star,bottom_right,2025-07-31_12h11.11.490,HideSeek_v1,2022.2.5,60.042353849416195,
,5,4,5,5,0,1,62,,train_dim1_1,19,30,,,,2,0,2,0,,,,,,,,,0,0,0,0,0,18,18,18,2,0,2,0,,,,,,,,,,,,,,,,,,,,,,,,,,,,,,,,,,,,,,,,,,,,,,,,,,,,,,,,,,,,,,,,30,,,,,,,,1941.6471702000126,1941.6471702000126,1941.6471702000126,1941.6471702000126,1941.6471702000126,return,0.7771872000303119,14,1,0,0,0.24,0.08,return,0.6890918000135571,52,0,0.24,0.08,,,,,,,,,,,,,,,,,,,,,,,,,,,,,,,,,,,,,,,,,,,,,,,,,,,,,,,,P6275C,train_y,blue_star,bottom_right,2025-07-31_12h11.11.490,HideSeek_v1,2022.2.5,60.042353849416195,
,7,0,7,5,0,5,66,,train_dim1_1,20,30,,,,2,0,2,0,,,,,,,,,0,0,0,0,0,19,19,19,0,0,0,0,,,,,,,,,,,,,,,,,,,,,,,,,stimuli/alien_stimuli/66.png,,,,,,,,,,,,,,,,,,,,,,,,,,,,,stimuli/alien_stimuli/62.png,62,5,21,,,,,,,30,,,,,,,,1947.9494000999257,1947.9494000999257,1947.9494000999257,1947.9494000999257,1947.9494000999257,up,3.5673740000929683,14,1,0,99,0.4,-0.32,up,3.4775624002795666,,,,,1946.3877560999244,1947.9494000999257,0.24,0,0.08,0.0,-0.04,0.24,0.24,0.24,0,1943.9794243997894,1943.9794243997894,1943.9794243997894,1943.9794243997894,1943.9794243997894,1943.9794243997894,1943.9794243997894,1943.9794243997894,1943.9691911399364,2.504283499903977,return,2.3908054002095014,,,,,,,,,,,,,,,,,,,,,,,,,,,,,,,,,P6275C,train_y,blue_star,bottom_right,2025-07-31_12h11.11.490,HideSeek_v1,2022.2.5,60.042353849416195,
,7,0,7,5,0,5,66,,train_dim1_1,20,30,,,,2,0,2,0,,,,,,,,,0,0,0,0,0,19,19,19,1,0,1,0,,,,,,,,,,,,,,,,,,,,,,,,,,,,,,,,,,,,,,,,,,,,,,,,,,,,,,,,,,,,,,,,30,,,,,,,,1951.522370699793,1951.522370699793,1951.522370699793,1951.522370699793,1951.522370699793,up,0.37613440002314746,14,1,0,99,0.4,-0.24,up,0.2994608001317829,,,,,,,,,,,,,,,,,,,,,,,,,,,,,,,,,,,,,,,,,,,,,,,,,,,,,,,,,,,,P6275C,train_y,blue_star,bottom_right,2025-07-31_12h11.11.490,HideSeek_v1,2022.2.5,60.042353849416195,
,7,0,7,5,0,5,66,,train_dim1_1,20,30,,,,2,0,2,0,,,,,,,,,0,0,0,0,0,19,19,19,2,0,2,0,,,,,,,,,,,,,,,,,,,,,,,,,,,,,,,,,,,,,,,,,,,,,,,,,,,,,,,,,,,,,,,,30,,,,,,,,1951.9060939999763,1951.9060939999763,1951.9060939999763,1951.9060939999763,1951.9060939999763,up,0.5596078000962734,14,1,0,99,0.4,-0.15999999999999998,up,0.47149610007181764,,,,,,,,,,,,,,,,,,,,,,,,,,,,,,,,,,,,,,,,,,,,,,,,,,,,,,,,,,,,P6275C,train_y,blue_star,bottom_right,2025-07-31_12h11.11.490,HideSeek_v1,2022.2.5,60.042353849416195,
,7,0,7,5,0,5,66,,train_dim1_1,20,30,,,,2,0,2,0,,,,,,,,,0,0,0,0,0,19,19,19,3,0,3,0,,,,,,,,,,,,,,,,,,,,,,,,,,,,,,,,,,,,,,,,,,,,,,,,,,,,,,,,,,,,,,,,30,,,,,,,,1952.4745388999581,1952.4745388999581,1952.4745388999581,1952.4745388999581,1952.4745388999581,up,0.5933108001481742,14,1,0,99,0.4,-0.07999999999999997,up,0.5054777001496404,,,,,,,,,,,,,,,,,,,,,,,,,,,,,,,,,,,,,,,,,,,,,,,,,,,,,,,,,,,,P6275C,train_y,blue_star,bottom_right,2025-07-31_12h11.11.490,HideSeek_v1,2022.2.5,60.042353849416195,
,7,0,7,5,0,5,66,,train_dim1_1,20,30,,,,2,0,2,0,,,,,,,,,0,0,0,0,0,19,19,19,4,0,4,0,,,,,,,,,,,,,,,,,,,,,,,,,,,,,,,,,,,,,,,,,,,,,,,,,,,,,,,,,,,,,,,,30,,,,,,,,1953.0743503998965,1953.0743503998965,1953.0743503998965,1953.0743503998965,1953.0743503998965,up,0.977021899772808,14,1,0,99,0.4,2.7755575615628914e-17,up,0.8988228002563119,,,,,,,,,,,,,,,,,,,,,,,,,,,,,,,,,,,,,,,,,,,,,,,,,,,,,,,,,,,,P6275C,train_y,blue_star,bottom_right,2025-07-31_12h11.11.490,HideSeek_v1,2022.2.5,60.042353849416195,
,7,0,7,5,0,5,66,,train_dim1_1,20,30,,,,2,0,2,0,,,,,,,,,0,0,0,0,0,19,19,19,5,0,5,0,,,,,,,,,,,,,,,,,,,,,,,,,,,,,,,,,,,,,,,,,,,,,,,,,,,,,,,,,,,,,,,,30,,,,,,,,1954.0575766998809,1954.0575766998809,1954.0575766998809,1954.0575766998809,1954.0575766998809,return,0.5768911999184638,15,0,0,1,0.4,2.7755575615628914e-17,return,0.4931845001410693,57,0,0.4,2.7755575615628914e-17,,,,,,,,,,,,,,,,,,,,,,,,,,,,,,,,,,,,,,,,,,,,,,,,,,,,,,,,P6275C,train_y,blue_star,bottom_right,2025-07-31_12h11.11.490,HideSeek_v1,2022.2.5,60.042353849416195,
,7,4,7,8,0,4,65,,train_dim1_1,21,30,,,,2,0,2,0,,,,,,,,,0,0,0,0,0,20,20,20,0,0,0,0,,,,,,,,,,,,,,,,,,,,,,,,,stimuli/alien_stimuli/65.png,,,,,,,,,,,,,,,,,,,,,,,,,,,,,stimuli/alien_stimuli/66.png,66,7,22,,,,,,,30,,,,,,,,1959.032102999976,1959.032102999976,1959.032102999976,1959.032102999976,1959.032102999976,up,2.9418721001129597,15,0,0,99,0.4,0.0,up,2.859624900156632,,,,,1957.4803125998005,1959.032102999976,0.4,0,0.4,0.0,-0.2,0.4,0.4,0.4,0,1956.204876099946,1956.204876099946,1956.204876099946,1956.204876099946,1956.204876099946,1956.204876099946,1956.204876099946,1956.204876099946,1956.1954843798185,1.3868791998829693,return,1.249486800050363,,,,,,,,,,,,,,,,,,,,,,,,,,,,,,,,,P6275C,train_y,blue_star,bottom_right,2025-07-31_12h11.11.490,HideSeek_v1,2022.2.5,60.042353849416195,
,7,4,7,8,0,4,65,,train_dim1_1,21,30,,,,2,0,2,0,,,,,,,,,0,0,0,0,0,20,20,20,1,0,1,0,,,,,,,,,,,,,,,,,,,,,,,,,,,,,,,,,,,,,,,,,,,,,,,,,,,,,,,,,,,,,,,,30,,,,,,,,1961.991562699899,1961.991562699899,1961.991562699899,1961.991562699899,1961.991562699899,up,0.5267665998544544,15,0,0,99,0.4,0.08,up,0.4357902999036014,,,,,,,,,,,,,,,,,,,,,,,,,,,,,,,,,,,,,,,,,,,,,,,,,,,,,,,,,,,,P6275C,train_y,blue_star,bottom_right,2025-07-31_12h11.11.490,HideSeek_v1,2022.2.5,60.042353849416195,
,7,4,7,8,0,4,65,,train_dim1_1,21,30,,,,2,0,2,0,,,,,,,,,0,0,0,0,0,20,20,20,2,0,2,0,,,,,,,,,,,,,,,,,,,,,,,,,,,,,,,,,,,,,,,,,,,,,,,,,,,,,,,,,,,,,,,,30,,,,,,,,1962.5151982000098,1962.5151982000098,1962.5151982000098,1962.5151982000098,1962.5151982000098,up,0.6097575000021607,15,0,0,99,0.4,0.16,up,0.525138100143522,,,,,,,,,,,,,,,,,,,,,,,,,,,,,,,,,,,,,,,,,,,,,,,,,,,,,,,,,,,,P6275C,train_y,blue_star,bottom_right,2025-07-31_12h11.11.490,HideSeek_v1,2022.2.5,60.042353849416195,
,7,4,7,8,0,4,65,,train_dim1_1,21,30,,,,2,0,2,0,,,,,,,,,0,0,0,0,0,20,20,20,3,0,3,0,,,,,,,,,,,,,,,,,,,,,,,,,,,,,,,,,,,,,,,,,,,,,,,,,,,,,,,,,,,,,,,,30,,,,,,,,1963.1401629999746,1963.1401629999746,1963.1401629999746,1963.1401629999746,1963.1401629999746,up,2.3615439999848604,15,0,0,99,0.4,0.24,up,2.2695679999887943,,,,,,,,,,,,,,,,,,,,,,,,,,,,,,,,,,,,,,,,,,,,,,,,,,,,,,,,,,,,P6275C,train_y,blue_star,bottom_right,2025-07-31_12h11.11.490,HideSeek_v1,2022.2.5,60.042353849416195,
,7,4,7,8,0,4,65,,train_dim1_1,21,30,,,,2,0,2,0,,,,,,,,,0,0,0,0,0,20,20,20,4,0,4,0,,,,,,,,,,,,,,,,,,,,,,,,,,,,,,,,,,,,,,,,,,,,,,,,,,,,,,,,,,,,,,,,30,,,,,,,,1965.5014906998258,1965.5014906998258,1965.5014906998258,1965.5014906998258,1965.5014906998258,return,0.7772303998935968,16,0,0,1,0.4,0.24,return,0.692548300139606,61,0,0.4,0.24,,,,,,,,,,,,,,,,,,,,,,,,,,,,,,,,,,,,,,,,,,,,,,,,,,,,,,,,P6275C,train_y,blue_star,bottom_right,2025-07-31_12h11.11.490,HideSeek_v1,2022.2.5,60.042353849416195,
,5,2,5,5,0,3,64,,train_dim1_1,22,30,,,,2,0,2,0,,,,,,,,,0,0,0,0,0,21,21,21,0,0,0,0,,,,,,,,,,,,,,,,,,,,,,,,,stimuli/alien_stimuli/64.png,,,,,,,,,,,,,,,,,,,,,,,,,,,,,stimuli/alien_stimuli/65.png,65,7,23,,,,,,,30,,,,,,,,1970.4283623998053,1970.4283623998053,1970.4283623998053,1970.4283623998053,1970.4283623998053,up,4.322657399810851,16,0,0,99,0.24,-0.15999999999999998,up,4.245025800075382,,,,,1968.8732149999123,1970.4283623998053,0.4,0.24,0.32,0.0,0.07999999999999999,0.4,0.4,0.4,0.24,1967.8453322998248,1967.8453322998248,1967.8453322998248,1967.8453322998248,1967.8453322998248,1967.8453322998248,1967.8453322998248,1967.8453322998248,1967.839501580037,1.1361784001346678,return,0.9997491003014147,,,,,,,,,,,,,,,,,,,,,,,,,,,,,,,,,P6275C,train_y,blue_star,bottom_right,2025-07-31_12h11.11.490,HideSeek_v1,2022.2.5,60.042353849416195,
,5,2,5,5,0,3,64,,train_dim1_1,22,30,,,,2,0,2,0,,,,,,,,,0,0,0,0,0,21,21,21,1,0,1,0,,,,,,,,,,,,,,,,,,,,,,,,,,,,,,,,,,,,,,,,,,,,,,,,,,,,,,,,,,,,,,,,30,,,,,,,,1974.7591073999647,1974.7591073999647,1974.7591073999647,1974.7591073999647,1974.7591073999647,up,0.4096446998883039,16,0,0,99,0.24,-0.07999999999999997,up,0.33151899999938905,,,,,,,,,,,,,,,,,,,,,,,,,,,,,,,,,,,,,,,,,,,,,,,,,,,,,,,,,,,,P6275C,train_y,blue_star,bottom_right,2025-07-31_12h11.11.490,HideSeek_v1,2022.2.5,60.042353849416195,
,5,2,5,5,0,3,64,,train_dim1_1,22,30,,,,2,0,2,0,,,,,,,,,0,0,0,0,0,21,21,21,2,0,2,0,,,,,,,,,,,,,,,,,,,,,,,,,,,,,,,,,,,,,,,,,,,,,,,,,,,,,,,,,,,,,,,,30,,,,,,,,1975.1751659999136,1975.1751659999136,1975.1751659999136,1975.1751659999136,1975.1751659999136,up,0.40999810001812875,16,0,0,99,0.24,2.7755575615628914e-17,up,0.331932500237599,,,,,,,,,,,,,,,,,,,,,,,,,,,,,,,,,,,,,,,,,,,,,,,,,,,,,,,,,,,,P6275C,train_y,blue_star,bottom_right,2025-07-31_12h11.11.490,HideSeek_v1,2022.2.5,60.042353849416195,
,5,2,5,5,0,3,64,,train_dim1_1,22,30,,,,2,0,2,0,,,,,,,,,0,0,0,0,0,21,21,21,3,0,3,0,,,,,,,,,,,,,,,,,,,,,,,,,,,,,,,,,,,,,,,,,,,,,,,,,,,,,,,,,,,,,,,,30,,,,,,,,1975.5926739999559,1975.5926739999559,1975.5926739999559,1975.5926739999559,1975.5926739999559,return,0.34360640007071197,17,0,0,1,0.24,2.7755575615628914e-17,return,0.25877530011348426,64,0,0.24,2.7755575615628914e-17,,,,,,,,,,,,,,,,,,,,,,,,,,,,,,,,,,,,,,,,,,,,,,,,,,,,,,,,P6275C,train_y,blue_star,bottom_right,2025-07-31_12h11.11.490,HideSeek_v1,2022.2.5,60.042353849416195,
,5,3,5,3,0,0,61,,train_dim1_1,23,30,,,,2,0,2,0,,,,,,,,,0,0,0,0,0,22,22,22,0,0,0,0,,,,,,,,,,,,,,,,,,,,,,,,,stimuli/alien_stimuli/61.png,,,,,,,,,,,,,,,,,,,,,,,,,,,,,stimuli/alien_stimuli/64.png,64,5,24,,,,,,,30,,,,,,,,1980.08785419981,1980.08785419981,1980.08785419981,1980.08785419981,1980.08785419981,up,3.571641799993813,17,0,0,99,0.24,-0.08,up,3.4959822001401335,,,,,1978.5311531999614,1980.08785419981,0.24,0,0.24,0.0,-0.12,0.24,0.24,0.24,0,1977.4890965998638,1977.4890965998638,1977.4890965998638,1977.4890965998638,1977.4890965998638,1977.4890965998638,1977.4890965998638,1977.4890965998638,1977.480358039867,1.1364364000037313,return,1.0232361999806017,,,,,,,,,,,,,,,,,,,,,,,,,,,,,,,,,P6275C,train_y,blue_star,bottom_right,2025-07-31_12h11.11.490,HideSeek_v1,2022.2.5,60.042353849416195,
,5,3,5,3,0,0,61,,train_dim1_1,23,30,,,,2,0,2,0,,,,,,,,,0,0,0,0,0,22,22,22,1,0,1,0,,,,,,,,,,,,,,,,,,,,,,,,,,,,,,,,,,,,,,,,,,,,,,,,,,,,,,,,,,,,,,,,30,,,,,,,,1983.6699812998995,1983.6699812998995,1983.6699812998995,1983.6699812998995,1983.6699812998995,down,1.560457699932158,17,0,0,99,0.24,-0.16,down,1.4800736003089696,,,,,,,,,,,,,,,,,,,,,,,,,,,,,,,,,,,,,,,,,,,,,,,,,,,,,,,,,,,,P6275C,train_y,blue_star,bottom_right,2025-07-31_12h11.11.490,HideSeek_v1,2022.2.5,60.042353849416195,
,5,3,5,3,0,0,61,,train_dim1_1,23,30,,,,2,0,2,0,,,,,,,,,0,0,0,0,0,22,22,22,2,0,2,0,,,,,,,,,,,,,,,,,,,,,,,,,,,,,,,,,,,,,,,,,,,,,,,,,,,,,,,,,,,,,,,,30,,,,,,,,1985.2341990999412,1985.2341990999412,1985.2341990999412,1985.2341990999412,1985.2341990999412,return,0.34327810001559556,18,0,0,1,0.24,-0.16,return,0.2690418001729995,64,0,0.24,-0.16,,,,,,,,,,,,,,,,,,,,,,,,,,,,,,,,,,,,,,,,,,,,,,,,,,,,,,,,P6275C,train_y,blue_star,bottom_right,2025-07-31_12h11.11.490,HideSeek_v1,2022.2.5,60.042353849416195,
,8,2,8,7,0,5,66,,train_dim1_1,24,30,,,,2,0,2,0,,,,,,,,,0,0,0,0,0,23,23,23,0,0,0,0,,,,,,,,,,,,,,,,,,,,,,,,,stimuli/alien_stimuli/66.png,,,,,,,,,,,,,,,,,,,,,,,,,,,,,stimuli/alien_stimuli/61.png,61,5,25,,,,,,,30,,,,,,,,1989.6154026999138,1989.6154026999138,1989.6154026999138,1989.6154026999138,1989.6154026999138,up,1.966757700080052,18,0,0,99,0.48,-0.15999999999999998,up,1.8776680000592023,,,,,1988.055909999879,1989.6154026999138,0.24,-0.16,0.0,0.0,-0.16,0.24,0.24,0.24,-0.16,1987.1297671999782,1987.1297671999782,1987.1297671999782,1987.1297671999782,1987.1297671999782,1987.1297671999782,1987.1297671999782,1987.1297671999782,1987.1217415399383,1.019732299959287,return,0.8999618999660015,,,,,,,,,,,,,,,,,,,,,,,,,,,,,,,,,P6275C,train_y,blue_star,bottom_right,2025-07-31_12h11.11.490,HideSeek_v1,2022.2.5,60.042353849416195,
,8,2,8,7,0,5,66,,train_dim1_1,24,30,,,,2,0,2,0,,,,,,,,,0,0,0,0,0,23,23,23,1,0,1,0,,,,,,,,,,,,,,,,,,,,,,,,,,,,,,,,,,,,,,,,,,,,,,,,,,,,,,,,,,,,,,,,30,,,,,,,,1991.5891292998567,1991.5891292998567,1991.5891292998567,1991.5891292998567,1991.5891292998567,up,0.35961699998006225,18,0,0,99,0.48,-0.07999999999999997,up,0.2760258000344038,,,,,,,,,,,,,,,,,,,,,,,,,,,,,,,,,,,,,,,,,,,,,,,,,,,,,,,,,,,,P6275C,train_y,blue_star,bottom_right,2025-07-31_12h11.11.490,HideSeek_v1,2022.2.5,60.042353849416195,
,8,2,8,7,0,5,66,,train_dim1_1,24,30,,,,2,0,2,0,,,,,,,,,0,0,0,0,0,23,23,23,2,0,2,0,,,,,,,,,,,,,,,,,,,,,,,,,,,,,,,,,,,,,,,,,,,,,,,,,,,,,,,,,,,,,,,,30,,,,,,,,1991.9558967999183,1991.9558967999183,1991.9558967999183,1991.9558967999183,1991.9558967999183,up,0.45980379986576736,18,0,0,99,0.48,2.7755575615628914e-17,up,0.37976100016385317,,,,,,,,,,,,,,,,,,,,,,,,,,,,,,,,,,,,,,,,,,,,,,,,,,,,,,,,,,,,P6275C,train_y,blue_star,bottom_right,2025-07-31_12h11.11.490,HideSeek_v1,2022.2.5,60.042353849416195,
,8,2,8,7,0,5,66,,train_dim1_1,24,30,,,,2,0,2,0,,,,,,,,,0,0,0,0,0,23,23,23,3,0,3,0,,,,,,,,,,,,,,,,,,,,,,,,,,,,,,,,,,,,,,,,,,,,,,,,,,,,,,,,,,,,,,,,30,,,,,,,,1992.4235565999988,1992.4235565999988,1992.4235565999988,1992.4235565999988,1992.4235565999988,up,0.45997879980131984,18,0,0,99,0.48,0.08000000000000003,up,0.38576370012015104,,,,,,,,,,,,,,,,,,,,,,,,,,,,,,,,,,,,,,,,,,,,,,,,,,,,,,,,,,,,P6275C,train_y,blue_star,bottom_right,2025-07-31_12h11.11.490,HideSeek_v1,2022.2.5,60.042353849416195,
,8,2,8,7,0,5,66,,train_dim1_1,24,30,,,,2,0,2,0,,,,,,,,,0,0,0,0,0,23,23,23,4,0,4,0,,,,,,,,,,,,,,,,,,,,,,,,,,,,,,,,,,,,,,,,,,,,,,,,,,,,,,,,,,,,,,,,30,,,,,,,,1992.8907866999507,1992.8907866999507,1992.8907866999507,1992.8907866999507,1992.8907866999507,up,0.6936298999935389,18,0,0,99,0.48,0.16000000000000003,up,0.615892100147903,,,,,,,,,,,,,,,,,,,,,,,,,,,,,,,,,,,,,,,,,,,,,,,,,,,,,,,,,,,,P6275C,train_y,blue_star,bottom_right,2025-07-31_12h11.11.490,HideSeek_v1,2022.2.5,60.042353849416195,
,8,2,8,7,0,5,66,,train_dim1_1,24,30,,,,2,0,2,0,,,,,,,,,0,0,0,0,0,23,23,23,5,0,5,0,,,,,,,,,,,,,,,,,,,,,,,,,,,,,,,,,,,,,,,,,,,,,,,,,,,,,,,,,,,,,,,,30,,,,,,,,1993.5904445999768,1993.5904445999768,1993.5904445999768,1993.5904445999768,1993.5904445999768,return,0.8102905999403447,19,0,0,1,0.48,0.16000000000000003,return,0.7281625000759959,69,0,0.48,0.16000000000000003,,,,,,,,,,,,,,,,,,,,,,,,,,,,,,,,,,,,,,,,,,,,,,,,,,,,,,,,P6275C,train_y,blue_star,bottom_right,2025-07-31_12h11.11.490,HideSeek_v1,2022.2.5,60.042353849416195,
,8,3,8,4,0,1,62,,train_dim1_1,25,30,,,,2,0,2,0,,,,,,,,,0,0,0,0,0,24,24,24,0,0,0,0,,,,,,,,,,,,,,,,,,,,,,,,,stimuli/alien_stimuli/62.png,,,,,,,,,,,,,,,,,,,,,,,,,,,,,stimuli/alien_stimuli/66.png,66,8,26,,,,,,,30,,,,,,,,1998.7523139999248,1998.7523139999248,1998.7523139999248,1998.7523139999248,1998.7523139999248,return,3.98881969996728,19,1,0,0,0.48,-0.16,return,3.9072233003098518,69,0,0.48,-0.16,1997.1966355999466,1998.7523139999248,0.48,0.16,0.4,0.0,-0.039999999999999994,0.48,0.48,0.48,0.16,1995.958398599876,1995.958398599876,1995.958398599876,1995.958398599876,1995.958398599876,1995.958398599876,1995.958398599876,1995.958398599876,1995.9463034399319,1.335789900040254,return,1.2119448999874294,,,,,,,,,,,,,,,,,,,,,,,,,,,,,,,,,P6275C,train_y,blue_star,bottom_right,2025-07-31_12h11.11.490,HideSeek_v1,2022.2.5,60.042353849416195,
,9,4,9,7,0,3,64,,train_dim1_1,26,30,,,,2,0,2,0,,,,,,,,,0,0,0,0,0,25,25,25,0,0,0,0,,,,,,,,,,,,,,,,,,,,,,,,,stimuli/alien_stimuli/64.png,,,,,,,,,,,,,,,,,,,,,,,,,,,,,stimuli/alien_stimuli/62.png,62,8,27,,,,,,,30,,,,,,,,2008.2046185999643,2008.2046185999643,2008.2046185999643,2008.2046185999643,2008.2046185999643,up,1.0264510998968035,19,1,0,99,0.56,0.0,up,0.9473540000617504,,,,,2006.6381884999573,2008.2046185999643,0.48,-0.08,0.08,0.0,-0.12,0.48,0.48,0.48,-0.08,2004.2982235997915,2004.2982235997915,2004.2982235997915,2004.2982235997915,2004.2982235997915,2004.2982235997915,2004.2982235997915,2004.2982235997915,2004.2862158398143,2.437677300069481,return,2.314388800179586,,,,,,,,,,,,,,,,,,,,,,,,,,,,,,,,,P6275C,train_y,blue_star,bottom_right,2025-07-31_12h11.11.490,HideSeek_v1,2022.2.5,60.042353849416195,
,9,4,9,7,0,3,64,,train_dim1_1,26,30,,,,2,0,2,0,,,,,,,,,0,0,0,0,0,25,25,25,1,0,1,0,,,,,,,,,,,,,,,,,,,,,,,,,,,,,,,,,,,,,,,,,,,,,,,,,,,,,,,,,,,,,,,,30,,,,,,,,2009.2372768998612,2009.2372768998612,2009.2372768998612,2009.2372768998612,2009.2372768998612,up,0.4426156999543309,19,1,0,99,0.56,0.08,up,0.36952540022321045,,,,,,,,,,,,,,,,,,,,,,,,,,,,,,,,,,,,,,,,,,,,,,,,,,,,,,,,,,,,P6275C,train_y,blue_star,bottom_right,2025-07-31_12h11.11.490,HideSeek_v1,2022.2.5,60.042353849416195,
,9,4,9,7,0,3,64,,train_dim1_1,26,30,,,,2,0,2,0,,,,,,,,,0,0,0,0,0,25,25,25,2,0,2,0,,,,,,,,,,,,,,,,,,,,,,,,,,,,,,,,,,,,,,,,,,,,,,,,,,,,,,,,,,,,,,,,30,,,,,,,,2009.6866605998948,2009.6866605998948,2009.6866605998948,2009.6866605998948,2009.6866605998948,up,0.6938748999964446,19,1,0,99,0.56,0.16,up,0.6064128000289202,,,,,,,,,,,,,,,,,,,,,,,,,,,,,,,,,,,,,,,,,,,,,,,,,,,,,,,,,,,,P6275C,train_y,blue_star,bottom_right,2025-07-31_12h11.11.490,HideSeek_v1,2022.2.5,60.042353849416195,
,9,4,9,7,0,3,64,,train_dim1_1,26,30,,,,2,0,2,0,,,,,,,,,0,0,0,0,0,25,25,25,3,0,3,0,,,,,,,,,,,,,,,,,,,,,,,,,,,,,,,,,,,,,,,,,,,,,,,,,,,,,,,,,,,,,,,,30,,,,,,,,2010.3876865999773,2010.3876865999773,2010.3876865999773,2010.3876865999773,2010.3876865999773,return,1.1936993999406695,20,0,0,1,0.56,0.16,return,1.1085133000742644,72,0,0.56,0.16,,,,,,,,,,,,,,,,,,,,,,,,,,,,,,,,,,,,,,,,,,,,,,,,,,,,,,,,P6275C,train_y,blue_star,bottom_right,2025-07-31_12h11.11.490,HideSeek_v1,2022.2.5,60.042353849416195,
,8,4,8,9,0,5,66,,train_dim1_1,27,30,,,,2,0,2,0,,,,,,,,,0,0,0,0,0,26,26,26,0,0,0,0,,,,,,,,,,,,,,,,,,,,,,,,,stimuli/alien_stimuli/66.png,,,,,,,,,,,,,,,,,,,,,,,,,,,,,stimuli/alien_stimuli/64.png,64,9,28,,,,,,,30,,,,,,,,2016.0482174998615,2016.0482174998615,2016.0482174998615,2016.0482174998615,2016.0482174998615,up,1.8218607001472265,20,0,0,99,0.48,0.0,up,1.7365912001114339,,,,,2014.4943216999527,2016.0482174998615,0.56,0.16,0.24,0.0,0.04,0.56,0.56,0.56,0.16,2013.1375615999568,2013.1375615999568,2013.1375615999568,2013.1375615999568,2013.1375615999568,2013.1375615999568,2013.1375615999568,2013.1375615999568,2013.126854339987,1.453023999929428,return,1.3254764000885189,,,,,,,,,,,,,,,,,,,,,,,,,,,,,,,,,P6275C,train_y,blue_star,bottom_right,2025-07-31_12h11.11.490,HideSeek_v1,2022.2.5,60.042353849416195,
,8,4,8,9,0,5,66,,train_dim1_1,27,30,,,,2,0,2,0,,,,,,,,,0,0,0,0,0,26,26,26,1,0,1,0,,,,,,,,,,,,,,,,,,,,,,,,,,,,,,,,,,,,,,,,,,,,,,,,,,,,,,,,,,,,,,,,30,,,,,,,,2017.8779797998723,2017.8779797998723,2017.8779797998723,2017.8779797998723,2017.8779797998723,up,0.3761074999347329,20,0,0,99,0.48,0.08,up,0.2994973002932966,,,,,,,,,,,,,,,,,,,,,,,,,,,,,,,,,,,,,,,,,,,,,,,,,,,,,,,,,,,,P6275C,train_y,blue_star,bottom_right,2025-07-31_12h11.11.490,HideSeek_v1,2022.2.5,60.042353849416195,
,8,4,8,9,0,5,66,,train_dim1_1,27,30,,,,2,0,2,0,,,,,,,,,0,0,0,0,0,26,26,26,2,0,2,0,,,,,,,,,,,,,,,,,,,,,,,,,,,,,,,,,,,,,,,,,,,,,,,,,,,,,,,,,,,,,,,,30,,,,,,,,2018.261739499867,2018.261739499867,2018.261739499867,2018.261739499867,2018.261739499867,up,0.40994400018826127,20,0,0,99,0.48,0.16,up,0.3223765001166612,,,,,,,,,,,,,,,,,,,,,,,,,,,,,,,,,,,,,,,,,,,,,,,,,,,,,,,,,,,,P6275C,train_y,blue_star,bottom_right,2025-07-31_12h11.11.490,HideSeek_v1,2022.2.5,60.042353849416195,
,8,4,8,9,0,5,66,,train_dim1_1,27,30,,,,2,0,2,0,,,,,,,,,0,0,0,0,0,26,26,26,3,0,3,0,,,,,,,,,,,,,,,,,,,,,,,,,,,,,,,,,,,,,,,,,,,,,,,,,,,,,,,,,,,,,,,,30,,,,,,,,2018.6775136999786,2018.6775136999786,2018.6775136999786,2018.6775136999786,2018.6775136999786,up,0.4101313001010567,20,0,0,99,0.48,0.24,up,0.3329593001399189,,,,,,,,,,,,,,,,,,,,,,,,,,,,,,,,,,,,,,,,,,,,,,,,,,,,,,,,,,,,P6275C,train_y,blue_star,bottom_right,2025-07-31_12h11.11.490,HideSeek_v1,2022.2.5,60.042353849416195,
,8,4,8,9,0,5,66,,train_dim1_1,27,30,,,,2,0,2,0,,,,,,,,,0,0,0,0,0,26,26,26,4,0,4,0,,,,,,,,,,,,,,,,,,,,,,,,,,,,,,,,,,,,,,,,,,,,,,,,,,,,,,,,,,,,,,,,30,,,,,,,,2019.0955322999507,2019.0955322999507,2019.0955322999507,2019.0955322999507,2019.0955322999507,up,0.6103240998927504,20,0,0,99,0.48,0.32,up,0.5264943002257496,,,,,,,,,,,,,,,,,,,,,,,,,,,,,,,,,,,,,,,,,,,,,,,,,,,,,,,,,,,,P6275C,train_y,blue_star,bottom_right,2025-07-31_12h11.11.490,HideSeek_v1,2022.2.5,60.042353849416195,
,8,4,8,9,0,5,66,,train_dim1_1,27,30,,,,2,0,2,0,,,,,,,,,0,0,0,0,0,26,26,26,5,0,5,0,,,,,,,,,,,,,,,,,,,,,,,,,,,,,,,,,,,,,,,,,,,,,,,,,,,,,,,,,,,,,,,,30,,,,,,,,2019.7133004998323,2019.7133004998323,2019.7133004998323,2019.7133004998323,2019.7133004998323,return,0.7267430999781936,21,0,0,1,0.48,0.32,return,0.6466014001052827,77,0,0.48,0.32,,,,,,,,,,,,,,,,,,,,,,,,,,,,,,,,,,,,,,,,,,,,,,,,,,,,,,,,P6275C,train_y,blue_star,bottom_right,2025-07-31_12h11.11.490,HideSeek_v1,2022.2.5,60.042353849416195,
,9,1,9,1,0,0,61,,train_dim1_1,28,30,,,,2,0,2,0,,,,,,,,,0,0,0,0,0,27,27,27,0,0,0,0,,,,,,,,,,,,,,,,,,,,,,,,,stimuli/alien_stimuli/61.png,,,,,,,,,,,,,,,,,,,,,,,,,,,,,stimuli/alien_stimuli/66.png,66,8,29,,,,,,,30,,,,,,,,2024.7733485999051,2024.7733485999051,2024.7733485999051,2024.7733485999051,2024.7733485999051,up,2.2551650998648256,21,0,0,99,0.56,-0.24,up,2.1800545000005513,,,,,2023.2183874999173,2024.7733485999051,0.48,0.32,0.4,0.0,0.12,0.48,0.48,0.48,0.32,2021.9907940998673,2021.9907940998673,2021.9907940998673,2021.9907940998673,2021.9907940998673,2021.9907940998673,2021.9907940998673,2021.9907940998673,2021.9841948399785,1.319855900015682,return,1.200235800119117,,,,,,,,,,,,,,,,,,,,,,,,,,,,,,,,,P6275C,train_y,blue_star,bottom_right,2025-07-31_12h11.11.490,HideSeek_v1,2022.2.5,60.042353849416195,
,9,1,9,1,0,0,61,,train_dim1_1,28,30,,,,2,0,2,0,,,,,,,,,0,0,0,0,0,27,27,27,1,0,1,0,,,,,,,,,,,,,,,,,,,,,,,,,,,,,,,,,,,,,,,,,,,,,,,,,,,,,,,,,,,,,,,,30,,,,,,,,2027.035869400017,2027.035869400017,2027.035869400017,2027.035869400017,2027.035869400017,return,0.9601935998070985,21,1,0,0,0.56,-0.24,return,0.881886700168252,78,0,0.56,-0.24,,,,,,,,,,,,,,,,,,,,,,,,,,,,,,,,,,,,,,,,,,,,,,,,,,,,,,,,P6275C,train_y,blue_star,bottom_right,2025-07-31_12h11.11.490,HideSeek_v1,2022.2.5,60.042353849416195,
,7,2,7,3,0,1,62,,train_dim1_1,29,30,,,,2,0,2,0,,,,,,,,,0,0,0,0,0,28,28,28,0,0,0,0,,,,,,,,,,,,,,,,,,,,,,,,,stimuli/alien_stimuli/62.png,,,,,,,,,,,,,,,,,,,,,,,,,,,,,stimuli/alien_stimuli/61.png,61,9,30,,,,,,,30,,,,,,,,2033.716765299905,2033.716765299905,2033.716765299905,2033.716765299905,2033.716765299905,up,2.604340099962428,21,1,0,99,0.4,-0.15999999999999998,up,2.5286105000413954,,,,,2032.1592436998617,2033.716765299905,0.56,-0.32,0.0,0.0,-0.32,0.56,0.56,0.56,-0.32,2029.5503660999238,2029.5503660999238,2029.5503660999238,2029.5503660999238,2029.5503660999238,2029.5503660999238,2029.5503660999238,2029.5503660999238,2029.5405564400367,2.70430690003559,return,2.5840250002220273,,,,,,,,,,,,,,,,,,,,,,,,,,,,,,,,,P6275C,train_y,blue_star,bottom_right,2025-07-31_12h11.11.490,HideSeek_v1,2022.2.5,60.042353849416195,
,7,2,7,3,0,1,62,,train_dim1_1,29,30,,,,2,0,2,0,,,,,,,,,0,0,0,0,0,28,28,28,1,0,1,0,,,,,,,,,,,,,,,,,,,,,,,,,,,,,,,,,,,,,,,,,,,,,,,,,,,,,,,,,,,,,,,,30,,,,,,,,2036.3269972999115,2036.3269972999115,2036.3269972999115,2036.3269972999115,2036.3269972999115,return,0.4433631000574678,22,0,0,1,0.4,-0.15999999999999998,return,0.367292300099507,79,0,0.4,-0.15999999999999998,,,,,,,,,,,,,,,,,,,,,,,,,,,,,,,,,,,,,,,,,,,,,,,,,,,,,,,,P6275C,train_y,blue_star,bottom_right,2025-07-31_12h11.11.490,HideSeek_v1,2022.2.5,60.042353849416195,
,5,1,5,5,0,4,65,,train_dim1_1,30,30,,,,2,0,2,0,,,,,,,,,0,0,0,0,0,29,29,29,0,0,0,0,,,,,,,,,,,,,,,,,,,,,,,,,stimuli/alien_stimuli/65.png,,,,,,,,,,,,,,,,,,,,,,,,,,,,,stimuli/alien_stimuli/62.png,62,7,31,,,,,,,30,,,,,,,,2041.3844014999922,2041.3844014999922,2041.3844014999922,2041.3844014999922,2041.3844014999922,up,2.2904294000472873,22,0,0,99,0.24,-0.24,up,2.2127314002718776,,,,,2039.8327949999366,2041.3844014999922,0.4,-0.16,0.08,0.0,-0.2,0.4,0.4,0.4,-0.16,2038.3245931998827,2038.3245931998827,2038.3245931998827,2038.3245931998827,2038.3245931998827,2038.3245931998827,2038.3245931998827,2038.3245931998827,2038.3142793398815,1.6041174998972565,return,1.4771044000517577,,,,,,,,,,,,,,,,,,,,,,,,,,,,,,,,,P6275C,train_y,blue_star,bottom_right,2025-07-31_12h11.11.490,HideSeek_v1,2022.2.5,60.042353849416195,
,5,1,5,5,0,4,65,,train_dim1_1,30,30,,,,2,0,2,0,,,,,,,,,0,0,0,0,0,29,29,29,1,0,1,0,,,,,,,,,,,,,,,,,,,,,,,,,,,,,,,,,,,,,,,,,,,,,,,,,,,,,,,,,,,,,,,,30,,,,,,,,2043.6826449998189,2043.6826449998189,2043.6826449998189,2043.6826449998189,2043.6826449998189,up,1.0433499000500888,22,0,0,99,0.24,-0.15999999999999998,up,0.9712234002072364,,,,,,,,,,,,,,,,,,,,,,,,,,,,,,,,,,,,,,,,,,,,,,,,,,,,,,,,,,,,P6275C,train_y,blue_star,bottom_right,2025-07-31_12h11.11.490,HideSeek_v1,2022.2.5,60.042353849416195,
,5,1,5,5,0,4,65,,train_dim1_1,30,30,,,,2,0,2,0,,,,,,,,,0,0,0,0,0,29,29,29,2,0,2,0,,,,,,,,,,,,,,,,,,,,,,,,,,,,,,,,,,,,,,,,,,,,,,,,,,,,,,,,,,,,,,,,30,,,,,,,,2044.7349921998102,2044.7349921998102,2044.7349921998102,2044.7349921998102,2044.7349921998102,up,0.5256788001861423,22,0,0,99,0.24,-0.07999999999999997,up,0.45005920017138124,,,,,,,,,,,,,,,,,,,,,,,,,,,,,,,,,,,,,,,,,,,,,,,,,,,,,,,,,,,,P6275C,train_y,blue_star,bottom_right,2025-07-31_12h11.11.490,HideSeek_v1,2022.2.5,60.042353849416195,
,5,1,5,5,0,4,65,,train_dim1_1,30,30,,,,2,0,2,0,,,,,,,,,0,0,0,0,0,29,29,29,3,0,3,0,,,,,,,,,,,,,,,,,,,,,,,,,,,,,,,,,,,,,,,,,,,,,,,,,,,,,,,,,,,,,,,,30,,,,,,,,2045.267125299899,2045.267125299899,2045.267125299899,2045.267125299899,2045.267125299899,up,0.476564500015229,22,0,0,99,0.24,2.7755575615628914e-17,up,0.3982642001938075,,,,,,,,,,,,,,,,,,,,,,,,,,,,,,,,,,,,,,,,,,,,,,,,,,,,,,,,,,,,P6275C,train_y,blue_star,bottom_right,2025-07-31_12h11.11.490,HideSeek_v1,2022.2.5,60.042353849416195,
,5,1,5,5,0,4,65,,train_dim1_1,30,30,,,,2,0,2,0,,,,,,,,,0,0,0,0,0,29,29,29,4,0,4,0,,,,,,,,,,,,,,,,,,,,,,,,,,,,,,,,,,,,,,,,,,,,,,,,,,,,,,,,,,,,,,,,30,,,,,,,,2045.7506307999138,2045.7506307999138,2045.7506307999138,2045.7506307999138,2045.7506307999138,return,0.3598690000362694,23,0,0,1,0.24,2.7755575615628914e-17,return,0.28221240011043847,83,0,0.24,2.7755575615628914e-17,,,,,,,,,,,,,,,,,,,,,,,,,,,,,,,,,,,,,,,,,,,,,,,,,,,,,,,,P6275C,train_y,blue_star,bottom_right,2025-07-31_12h11.11.490,HideSeek_v1,2022.2.5,60.042353849416195,
,,,,,,,,,,,30,,,,2,0,2,0,,,,,,,,,,,,,,,,,,,,,,,,,,,,,,,,,,,,,,,,,,,,,,,,,,,,,,,,,,,,,,,,,,,,,,,,,,stimuli/alien_stimuli/65.png,65,5,32,21,0.7,0.9583333333333335,1,1,1,30,0,conditions/schedules/train_y_first/blue_star_00/bottom_right/inputTrain_2.1.xlsx,99,1,2,1,0,,,,,,,,,,,1,,,,,,,,,2048.8897686998826,2050.4566487998236,0.24,0,0.32,0.0,-0.16,0.24,0.24,0.24,0,2047.664308300009,2047.664308300009,2047.664308300009,2047.664308300009,2047.664308300009,2047.664308300009,2047.664308300009,2047.664308300009,2047.6554321398958,1.3199176001362503,return,1.2084731000941247,0,0.9,0,1,23,,,,,,,,,,,,,,,,,,,,,,,,,,,,P6275C,train_y,blue_star,bottom_right,2025-07-31_12h11.11.490,HideSeek_v1,2022.2.5,60.042353849416195,
,,,,,,,,,,,,,,,3,0,3,0,0,0,0,0,,,,,,,,,,,,,,,,,,,,,,,,,,,,,,,conditions/schedules/train_y_first/blue_star_00/bottom_right/instructions/Slide17.png,conditions/schedules/train_y_first/blue_star_00/bottom_right/instructions/Audio17.wav,2050.4566487998236,2050.4576478998642,17,"[6.379530600039288, 19.131817299872637, 17.144167399965227, 19.847488300176337, 6.366378299891949, 4.9687819997780025, 5.685850000008941, 12.405120000010356, 6.485738300019875, 7.284384000115097, 10.551763799972832, 14.976169599918649, 17.828569600125775, 17.133154700044543, 43.51073169987649, 22.493119099875912, 49.14092990010977]","[0.03133409982547164, 0.046786499908193946, 0.03125470015220344, 0.03066179994493723, 0.06468819989822805, 0.06480970000848174, 0.03064570017158985, 0.030444500036537647, 0.030621200101450086, 0.06446780008263886, 0.03066869988106191, 14.97617659997195, 0.06871060002595186, 17.133162300102413, 0.10756639996543527, 22.493126299930736, 49.140939000062644]",0,,,,,,,,,,,,,,,,,,,,,,,,,,,,,,,,,,,,,,,,,,,,,,,,,,,,,,,,,,,,,,,,,,,,,,,,,,,,,,,,,,,,,,,,,,,,,,,,,,,,,,,,,,,,,,,,,,,,,,,,,,,,P6275C,train_y,blue_star,bottom_right,2025-07-31_12h11.11.490,HideSeek_v1,2022.2.5,60.042353849416195,
,,,,,,,,,,,,,,,3,0,3,0,1,0,1,0,,,,,,,,,,,,,,,,,,,,,,,,,,,,,,,conditions/schedules/train_y_first/blue_star_00/bottom_right/instructions/Slide18.png,conditions/schedules/train_y_first/blue_star_00/bottom_right/instructions/Audio18.wav,2099.6658061998896,2099.665633499855,18,"[6.379530600039288, 19.131817299872637, 17.144167399965227, 19.847488300176337, 6.366378299891949, 4.9687819997780025, 5.685850000008941, 12.405120000010356, 6.485738300019875, 7.284384000115097, 10.551763799972832, 14.976169599918649, 17.828569600125775, 17.133154700044543, 43.51073169987649, 22.493119099875912, 49.14092990010977, 6.853536200011149]","[0.03133409982547164, 0.046786499908193946, 0.03125470015220344, 0.03066179994493723, 0.06468819989822805, 0.06480970000848174, 0.03064570017158985, 0.030444500036537647, 0.030621200101450086, 0.06446780008263886, 0.03066869988106191, 14.97617659997195, 0.06871060002595186, 17.133162300102413, 0.10756639996543527, 22.493126299930736, 0.03171060001477599, 6.853542299941182]",0,,,,,,,,,,,,,,,,,,,,,,,,,,,,,,,,,,,,,,,,,,,,,,,,,,,,,,,,,,,,,,,,,,,,,,,,,,,,,,,,,,,,,,,,,,,,,,,,,,,,,,,,,,,,,,,,,,,,,,,,,,,,P6275C,train_y,blue_star,bottom_right,2025-07-31_12h11.11.490,HideSeek_v1,2022.2.5,60.042353849416195,
,,,,,,,,,,,,,,,3,0,3,0,2,0,2,0,,,,,,,,,,,,,,,,,,,,,,,,,,,,,,,conditions/schedules/train_y_first/blue_star_00/bottom_right/instructions/Slide19.png,conditions/schedules/train_y_first/blue_star_00/bottom_right/instructions/Audio19.wav,2106.5743030998856,2106.571538659837,19,"[6.379530600039288, 19.131817299872637, 17.144167399965227, 19.847488300176337, 6.366378299891949, 4.9687819997780025, 5.685850000008941, 12.405120000010356, 6.485738300019875, 7.284384000115097, 10.551763799972832, 14.976169599918649, 17.828569600125775, 17.133154700044543, 43.51073169987649, 22.493119099875912, 49.14092990010977, 6.853536200011149, 10.269798199879006]","[0.03133409982547164, 0.046786499908193946, 0.03125470015220344, 0.03066179994493723, 0.06468819989822805, 0.06480970000848174, 0.03064570017158985, 0.030444500036537647, 0.030621200101450086, 0.06446780008263886, 0.03066869988106191, 14.97617659997195, 0.06871060002595186, 17.133162300102413, 0.10756639996543527, 22.493126299930736, 0.03171060001477599, 0.0635088998824358, 10.269804900046438]",0,,,,,,,,,,,,,,,,,,,,,,,,,,,,,,,,,,,,,,,,,,,,,,,,,,,,,,,,,,,,,,,,,,,,,,,,,,,,,,,,,,,,,,,,,,,,,,,,,,,,,,,,,,,,,,,,,,,,,,,,,,,,P6275C,train_y,blue_star,bottom_right,2025-07-31_12h11.11.490,HideSeek_v1,2022.2.5,60.042353849416195,
,,,,,,,,,,,,,,,3,0,3,0,3,0,3,0,,,,,,,,,,,,,,,,,,,,,,,,,,,,,,,conditions/schedules/train_y_first/blue_star_00/bottom_right/instructions/Slide20.png,conditions/schedules/train_y_first/blue_star_00/bottom_right/instructions/Audio20.wav,2116.917891099816,2116.913239999907,20,"[6.379530600039288, 19.131817299872637, 17.144167399965227, 19.847488300176337, 6.366378299891949, 4.9687819997780025, 5.685850000008941, 12.405120000010356, 6.485738300019875, 7.284384000115097, 10.551763799972832, 14.976169599918649, 17.828569600125775, 17.133154700044543, 43.51073169987649, 22.493119099875912, 49.14092990010977, 6.853536200011149, 10.269798199879006, 13.93808660004288]","[0.03133409982547164, 0.046786499908193946, 0.03125470015220344, 0.03066179994493723, 0.06468819989822805, 0.06480970000848174, 0.03064570017158985, 0.030444500036537647, 0.030621200101450086, 0.06446780008263886, 0.03066869988106191, 14.97617659997195, 0.06871060002595186, 17.133162300102413, 0.10756639996543527, 22.493126299930736, 0.03171060001477599, 0.0635088998824358, 0.09605899988673627, 13.93809389998205]",0,,,,,,,,,,,,,,,,,,,,,,,,,,,,,,,,,,,,,,,,,,,,,,,,,,,,,,,,,,,,,,,,,,,,,,,,,,,,,,,,,,,,,,,,,,,,,,,,,,,,,,,,,,,,,,,,,,,,,,,,,,,,P6275C,train_y,blue_star,bottom_right,2025-07-31_12h11.11.490,HideSeek_v1,2022.2.5,60.042353849416195,
1,9,0,4,0,-5,0,11,2,instr_dim1_2,,,,,,3,0,3,0,,,,,0,0,0,0,,,,,,,,,,,,,,,,,,,,,,,,,,,,,,,,,,,,,stimuli/alien_stimuli/11.png,conditions/schedules/train_y_first/blue_star_00/bottom_right/inputInstr_2.xlsx,stimuli/alien_stimuli/11.png,2130.9646842000075,2130.9646842000075,2130.9646842000075,2130.9646842000075,2130.958227979997,return,8.276723200222477,"[-0.16, -0.08, 0, 0.08, 0.16, 0.24, 0.32, 0.4, 0.48, 0.56]","[-0.4, -0.32, -0.24, -0.16, -0.08, 0, 0.08, 0.16, 0.24, 0.32]",0,0,4,9,0.0,0.4,2139.430096699856,2139.430096699856,2139.430096699856,2139.430096699856,2139.430096699856,2139.430096699856,2139.430096699856,2139.4150451000314,7.190264000091702,return,6.999806100036949,stimuli/alien_stimuli/11.png,11,9,1,,,,,,,,,,,,,,,,,,,,,,,,,,,,,,,,,,,,,,,,,,,,,,,,,,,,,,,,,,,,,,,,,,,,,,,,,,,,,,,,,,,,,,,,,P6275C,train_y,blue_star,bottom_right,2025-07-31_12h11.11.490,HideSeek_v1,2022.2.5,60.042353849416195,
,,,,,,,,,,,30,,,,3,0,3,0,,,,,,,,,,,,,,,,,,,,,,,,,,,,,,,,,,,,,,,,,,,,,,,,,,,,,,,,,,,,,,,,,,,,,,,,,,,,,,21,0.7,0.9583333333333335,1,99,2,30,0,conditions/schedules/train_y_first/blue_star_00/bottom_right/inputTrain_2.1.xlsx,99,1,2,1,0,,,,,,,,,,,,,,,,,,,,,,,,,,,,,,,,,,,,,,,,,,,,,,,,,,,,,,,,,,,,,,,,,,,,,,,,,,,P6275C,train_y,blue_star,bottom_right,2025-07-31_12h11.11.490,HideSeek_v1,2022.2.5,60.042353849416195,
,,,,,,,,,,,,,,,4,0,4,0,0,0,0,0,,,,,,,,,,,,,,,,,,,,,,,,,,,,,,,conditions/schedules/train_y_first/blue_star_00/bottom_right/instructions/Slide21.png,conditions/schedules/train_y_first/blue_star_00/bottom_right/instructions/Audio21.wav,2146.5906989998184,2146.5876306599007,21,"[6.379530600039288, 19.131817299872637, 17.144167399965227, 19.847488300176337, 6.366378299891949, 4.9687819997780025, 5.685850000008941, 12.405120000010356, 6.485738300019875, 7.284384000115097, 10.551763799972832, 14.976169599918649, 17.828569600125775, 17.133154700044543, 43.51073169987649, 22.493119099875912, 49.14092990010977, 6.853536200011149, 10.269798199879006, 13.93808660004288, 13.67266029980965]","[0.03133409982547164, 0.046786499908193946, 0.03125470015220344, 0.03066179994493723, 0.06468819989822805, 0.06480970000848174, 0.03064570017158985, 0.030444500036537647, 0.030621200101450086, 0.06446780008263886, 0.03066869988106191, 14.97617659997195, 0.06871060002595186, 17.133162300102413, 0.10756639996543527, 22.493126299930736, 0.03171060001477599, 0.0635088998824358, 0.09605899988673627, 13.93809389998205, 13.672669699881226]",0,,,,,,,,,,,,,,,,,,,,,,,,,,,,,,,,,,,,,,,,,,,,,,,,,,,,,,,,,,,,,,,,,,,,,,,,,,,,,,,,,,,,,,,,,,,,,,,,,,,,,,,,,,,,,,,,,,,,,,,,,,,,P6275C,train_y,blue_star,bottom_right,2025-07-31_12h11.11.490,HideSeek_v1,2022.2.5,60.042353849416195,
2,8,2,8,2,0,0,61,2,instr_dim1_2,,,,,,4,0,4,0,,,,,0,0,0,0,,,,,,,,,,,,,,,,,,,,,,,,,,,,,,,,,,,,,stimuli/alien_stimuli/61.png,conditions/schedules/train_y_first/blue_star_00/bottom_right/inputInstr_2.xlsx,stimuli/alien_stimuli/61.png,2160.3540069998708,2160.3540069998708,2160.3540069998708,2160.3540069998708,2160.3494979398324,return,4.10896009998396,"[-0.16, -0.08, 0, 0.08, 0.16, 0.24, 0.32, 0.4, 0.48, 0.56]","[-0.4, -0.32, -0.24, -0.16, -0.08, 0, 0.08, 0.16, 0.24, 0.32]",2,2,8,8,0.0,0.0,2164.622458699858,2164.622458699858,2164.622458699858,2164.622458699858,2164.622458699858,2164.622458699858,2164.622458699858,2164.6032602199816,8.374243499943987,return,8.211610700003803,stimuli/alien_stimuli/61.png,61,8,2,,,,,,,,,,,,,,,,,,,,,,,,,,,,,,,,,,,,,,,,,,,,,,,,,,,,,,,,,,,,,,,,,,,,,,,,,,,,,,,,,,,,,,,,,P6275C,train_y,blue_star,bottom_right,2025-07-31_12h11.11.490,HideSeek_v1,2022.2.5,60.042353849416195,
,,,,,,,,,,,30,,,,4,0,4,0,,,,,,,,,,,,,,,,,,,,,,,,,,,,,,,,,,,,,,,,,,,,,,,,,,,,,,,,,,,,,,,,,,,,,,,,,,,,,,21,0.7,0.9583333333333335,1,99,2,30,0,conditions/schedules/train_y_first/blue_star_00/bottom_right/inputTrain_2.1.xlsx,99,1,2,1,0,,,,,,,,,,,,,,,,,,,,,,,,,,,,,,,,,,,,,,,,,,,,,,,,,,,,,,,,,,,,,,,,,,,,,,,,,,,P6275C,train_y,blue_star,bottom_right,2025-07-31_12h11.11.490,HideSeek_v1,2022.2.5,60.042353849416195,
,,,,,,,,,,,,,,,5,0,5,0,0,0,0,0,,,,,,,,,,,,,,,,,,,,,,,,,,,,,,,conditions/schedules/train_y_first/blue_star_00/bottom_right/instructions/Slide22.png,conditions/schedules/train_y_first/blue_star_00/bottom_right/instructions/Audio22.wav,2172.9990702997893,2172.9931195600425,22,"[6.379530600039288, 19.131817299872637, 17.144167399965227, 19.847488300176337, 6.366378299891949, 4.9687819997780025, 5.685850000008941, 12.405120000010356, 6.485738300019875, 7.284384000115097, 10.551763799972832, 14.976169599918649, 17.828569600125775, 17.133154700044543, 43.51073169987649, 22.493119099875912, 49.14092990010977, 6.853536200011149, 10.269798199879006, 13.93808660004288, 13.67266029980965, 31.167621599975973]","[0.03133409982547164, 0.046786499908193946, 0.03125470015220344, 0.03066179994493723, 0.06468819989822805, 0.06480970000848174, 0.03064570017158985, 0.030444500036537647, 0.030621200101450086, 0.06446780008263886, 0.03066869988106191, 14.97617659997195, 0.06871060002595186, 17.133162300102413, 0.10756639996543527, 22.493126299930736, 0.03171060001477599, 0.0635088998824358, 0.09605899988673627, 13.93809389998205, 13.672669699881226, 31.16763039981015]",0,,,,,,,,,,,,,,,,,,,,,,,,,,,,,,,,,,,,,,,,,,,,,,,,,,,,,,,,,,,,,,,,,,,,,,,,,,,,,,,,,,,,,,,,,,,,,,,,,,,,,,,,,,,,,,,,,,,,,,,,,,,,P6275C,train_y,blue_star,bottom_right,2025-07-31_12h11.11.490,HideSeek_v1,2022.2.5,60.042353849416195,
,7,1,4,1,-3,0,31,,train_dim1_2,1,30,,,,5,0,5,0,,,,,,,,,0,0,0,0,0,0,0,0,0,0,0,0,,,,,,,,,,,,,,,,,,,,,,,,,stimuli/alien_stimuli/31.png,,,,,,,,,,,,,,,,,,,,,,,,,,,,,,,,,,,,,,,30,,,,,,,,2204.261082699988,2204.261082699988,2204.261082699988,2204.261082699988,2204.261082699988,left,6.348443000111729,0,0,0,99,0.32,-0.32,left,6.2558788000606,,,,,,,,,,,,,,,,,,,,,,,,,,,,,,,,,,,,,,,,,,,,,,,,,,,,,,,,,,,,P6275C,train_y,blue_star,bottom_right,2025-07-31_12h11.11.490,HideSeek_v1,2022.2.5,60.042353849416195,
,7,1,4,1,-3,0,31,,train_dim1_2,1,30,,,,5,0,5,0,,,,,,,,,0,0,0,0,0,0,0,0,1,0,1,0,,,,,,,,,,,,,,,,,,,,,,,,,,,,,,,,,,,,,,,,,,,,,,,,,,,,,,,,,,,,,,,,30,,,,,,,,2210.6067140998784,2210.6067140998784,2210.6067140998784,2210.6067140998784,2210.6067140998784,left,0.3758543999865651,0,0,0,99,0.24,-0.32,left,0.29707450000569224,,,,,,,,,,,,,,,,,,,,,,,,,,,,,,,,,,,,,,,,,,,,,,,,,,,,,,,,,,,,P6275C,train_y,blue_star,bottom_right,2025-07-31_12h11.11.490,HideSeek_v1,2022.2.5,60.042353849416195,
