trialInstr,x_fixStart,y_fixStart,x_corrSteps,y_corrSteps,x_nrSteps,y_nrSteps,alienID,trialLength,version,trialTrain,praclen,testlen,trial_label,break_on_off,beforeExpLoop.thisRepN,beforeExpLoop.thisTrialN,beforeExpLoop.thisN,beforeExpLoop.thisIndex,mini_instr_trials.thisRepN,mini_instr_trials.thisTrialN,mini_instr_trials.thisN,mini_instr_trials.thisIndex,instrLoop.thisRepN,instrLoop.thisTrialN,instrLoop.thisN,instrLoop.thisIndex,repeat_prac.thisRepN,repeat_prac.thisTrialN,repeat_prac.thisN,repeat_prac.thisIndex,trainLoop.thisRepN,trainLoop.thisTrialN,trainLoop.thisN,trainLoop.thisIndex,moveLoop_train.thisRepN,moveLoop_train.thisTrialN,moveLoop_train.thisN,moveLoop_train.thisIndex,experiment.thisRepN,experiment.thisTrialN,experiment.thisN,experiment.thisIndex,moveLoop_test.thisRepN,moveLoop_test.thisTrialN,moveLoop_test.thisN,moveLoop_test.thisIndex,mini_instr2_trials.thisRepN,mini_instr2_trials.thisTrialN,mini_instr2_trials.thisN,mini_instr2_trials.thisIndex,start_all_time,url,slideStim,audioStim,slides.started,sounds.started,nextButton.numClicks,nextButton.timesOn,nextButton.timesOff,prev_but.numClicks,prev_but.timesOn,prev_but.timesOff,alienStim,instrFile,alienStim_instr,gridImage_instr.started,startPos_3.started,key_instr.started,alienImage_3.started,sounds_1.started,key_instr.keys,key_instr.rt,all_x,all_y,FBy_corrSteps,FBy_fixStart,FBx_corrSteps,FBx_fixStart,FBy_pathSize_check,FBx_pathSize_check,gridImage_9.started,alienImageFB_3.started,startPosFB_3.started,keyFB_3.started,pathLine_ydir_2.started,pathLine_xdir_2.started,alienFace_3.started,sounds_2.started,RTFB_instr,keyFB_3.keys,keyFB_3.rt,draw_alienStim,draw_alienID,test_x,nrepcount,perfthres,percthres,earlierperf,earlystop,nextPrac,fileidx,praclen,saveACC_train,pracFile,nextPrac_train,addNrep,fileidx_endr,repExp,showearly,gridImage_4.started,startPos.started,movePos.started,key_resp.started,alienImage.started,wLy_dir,wLx_dir,x_movePos,y_movePos,buttonPress_train,RTchoice_train,cumAcctrain,aCorr,saveACC_choice,corrAns,x_movePos_end,y_movePos_end,key_resp.keys,key_resp.rt,text_2.started,text_2.stopped,aft_x_corrPos,aft_y_corrPos,y_pathSize_check,x_pathSize_check,y_pathdirY,x_pathdirY,x_pathdirX,x_corrPos,y_corrPos,gridImage_6.started,alienImageFB_2.started,startPosFB_2.started,movePosFB_2.started,keyFB_2.started,pathLine_xdir.started,pathLine_ydir.started,alienFace.started,sounds_4.started,RT_FBtrain,keyFB_2.keys,keyFB_2.rt,saveACC_pre,ACC,within_saveACC_train,earlystop_wloop,cumAcctrain_check,gridImage_3.started,alienImage_test.started,startPos_test.started,movePos_test.started,key_resp_test.started,wLy_dir_test,wLx_dir_test,buttonPress_test,RTchoice_test,cumAcctest,corrAns_test,key_resp_test.keys,key_resp_test.rt,text_3.started,text_3.stopped,total_time,end_all_time,key_resp_3.keys,slides_2.started,sounds_3.started,nextButton_2.numClicks,nextButton_2.timesOn,nextButton_2.timesOff,prev_but_2.numClicks,prev_but_2.timesOn,prev_but_2.timesOff,bye.started,participant,train_first,00_coordinate,starting corner,date,expName,psychopyVersion,frameRate,
,,,,,,,,,,,,,,,0,0,0,0,0,0,0,0,,,,,,,,,,,,,,,,,,,,,,,,,,,,,start_all_time,testround,conditions/schedules/train_y_first/red_square_00/top_left/instructions/Slide1.png,conditions/schedules/train_y_first/red_square_00/top_left/instructions/Audio1.wav,1183.8725492999656,1183.815880099358,1,[3.8870445999782532],[3.887054199934937],0,,,,,,,,,,,,,,,,,,,,,,,,,,,,,,,,,,,,,,,,,,,,,,,,,,,,,,,,,,,,,,,,,,,,,,,,,,,,,,,,,,,,,,,,,,,,,,,,,,,,,,,,,,,,,,,,,,,,,,,,,,,,P6AQXX,train_y,red_square,top_left,2025-06-05_17h09.38.722,HideSeek_v1,2022.2.5,59.935114239667584,
,,,,,,,,,,,,,,,0,0,0,0,1,0,1,0,,,,,,,,,,,,,,,,,,,,,,,,,,,,,,,conditions/schedules/train_y_first/red_square_00/top_left/instructions/Slide2.png,conditions/schedules/train_y_first/red_square_00/top_left/instructions/Audio2.wav,1187.7780091000022,1187.7799538000254,2,"[3.8870445999782532, 18.381498500006273]","[0.00029170000925660133, 18.381505299941637]",0,,,,,,,,,,,,,,,,,,,,,,,,,,,,,,,,,,,,,,,,,,,,,,,,,,,,,,,,,,,,,,,,,,,,,,,,,,,,,,,,,,,,,,,,,,,,,,,,,,,,,,,,,,,,,,,,,,,,,,,,,,,,P6AQXX,train_y,red_square,top_left,2025-06-05_17h09.38.722,HideSeek_v1,2022.2.5,59.935114239667584,
,,,,,,,,,,,,,,,0,0,0,0,2,0,2,0,,,,,,,,,,,,,,,,,,,,,,,,,,,,,,,conditions/schedules/train_y_first/red_square_00/top_left/instructions/Slide3.png,conditions/schedules/train_y_first/red_square_00/top_left/instructions/Audio3.wav,1206.2389796000207,1206.228227399988,3,"[3.8870445999782532, 18.381498500006273, 16.583437499939464]","[0.00029170000925660133, 18.381505299941637, 16.583444399992004]",0,,,,,,,,,,,,,,,,,,,,,,,,,,,,,,,,,,,,,,,,,,,,,,,,,,,,,,,,,,,,,,,,,,,,,,,,,,,,,,,,,,,,,,,,,,,,,,,,,,,,,,,,,,,,,,,,,,,,,,,,,,,,P6AQXX,train_y,red_square,top_left,2025-06-05_17h09.38.722,HideSeek_v1,2022.2.5,59.935114239667584,
,,,,,,,,,,,,,,,0,0,0,0,3,0,3,0,,,,,,,,,,,,,,,,,,,,,,,,,,,,,,,conditions/schedules/train_y_first/red_square_00/top_left/instructions/Slide4.png,conditions/schedules/train_y_first/red_square_00/top_left/instructions/Audio4.wav,1222.902112700045,1222.8916820000159,4,"[3.8870445999782532, 18.381498500006273, 16.583437499939464, 19.01990279997699]","[0.00029170000925660133, 18.381505299941637, 0.014374300022609532, 19.019909699913114]",0,,,,,,,,,,,,,,,,,,,,,,,,,,,,,,,,,,,,,,,,,,,,,,,,,,,,,,,,,,,,,,,,,,,,,,,,,,,,,,,,,,,,,,,,,,,,,,,,,,,,,,,,,,,,,,,,,,,,,,,,,,,,P6AQXX,train_y,red_square,top_left,2025-06-05_17h09.38.722,HideSeek_v1,2022.2.5,59.935114239667584,
,,,,,,,,,,,,,,,0,0,0,0,4,0,4,0,,,,,,,,,,,,,,,,,,,,,,,,,,,,,,,conditions/schedules/train_y_first/red_square_00/top_left/instructions/Slide5.png,conditions/schedules/train_y_first/red_square_00/top_left/instructions/Audio5.wav,1241.9859723999398,1241.9744704999264,5,"[3.8870445999782532, 18.381498500006273, 16.583437499939464, 19.01990279997699, 4.623559600091539]","[0.00029170000925660133, 18.381505299941637, 0.014374300022609532, 0.053147500031627715, 4.623567000031471]",0,,,,,,,,,,,,,,,,,,,,,,,,,,,,,,,,,,,,,,,,,,,,,,,,,,,,,,,,,,,,,,,,,,,,,,,,,,,,,,,,,,,,,,,,,,,,,,,,,,,,,,,,,,,,,,,,,,,,,,,,,,,,P6AQXX,train_y,red_square,top_left,2025-06-05_17h09.38.722,HideSeek_v1,2022.2.5,59.935114239667584,
,,,,,,,,,,,,,,,0,0,0,0,5,0,5,0,,,,,,,,,,,,,,,,,,,,,,,,,,,,,,,conditions/schedules/train_y_first/red_square_00/top_left/instructions/Slide6.png,conditions/schedules/train_y_first/red_square_00/top_left/instructions/Audio6.wav,1246.6598851999734,1246.6616940000329,6,"[3.8870445999782532, 18.381498500006273, 16.583437499939464, 19.01990279997699, 4.623559600091539, 4.419617400038987]","[0.00029170000925660133, 18.381505299941637, 0.014374300022609532, 0.053147500031627715, 0.13248780008871108, 4.41962450009305]",0,,,,,,,,,,,,,,,,,,,,,,,,,,,,,,,,,,,,,,,,,,,,,,,,,,,,,,,,,,,,,,,,,,,,,,,,,,,,,,,,,,,,,,,,,,,,,,,,,,,,,,,,,,,,,,,,,,,,,,,,,,,,P6AQXX,train_y,red_square,top_left,2025-06-05_17h09.38.722,HideSeek_v1,2022.2.5,59.935114239667584,
,,,,,,,,,,,,,,,0,0,0,0,6,0,6,0,,,,,,,,,,,,,,,,,,,,,,,,,,,,,,,conditions/schedules/train_y_first/red_square_00/top_left/instructions/Slide7.png,conditions/schedules/train_y_first/red_square_00/top_left/instructions/Audio7.wav,1251.1305278999498,1251.132103899983,7,"[3.8870445999782532, 18.381498500006273, 16.583437499939464, 19.01990279997699, 4.623559600091539, 4.419617400038987, 5.320383599959314]","[0.00029170000925660133, 18.381505299941637, 0.014374300022609532, 0.053147500031627715, 0.13248780008871108, 0.06562629994004965, 5.320390700013377]",0,,,,,,,,,,,,,,,,,,,,,,,,,,,,,,,,,,,,,,,,,,,,,,,,,,,,,,,,,,,,,,,,,,,,,,,,,,,,,,,,,,,,,,,,,,,,,,,,,,,,,,,,,,,,,,,,,,,,,,,,,,,,P6AQXX,train_y,red_square,top_left,2025-06-05_17h09.38.722,HideSeek_v1,2022.2.5,59.935114239667584,
,,,,,,,,,,,,,,,0,0,0,0,7,0,7,0,,,,,,,,,,,,,,,,,,,,,,,,,,,,,,,conditions/schedules/train_y_first/red_square_00/top_left/instructions/Slide8.png,conditions/schedules/train_y_first/red_square_00/top_left/instructions/Audio8.wav,1256.5035994999344,1256.5032015999548,8,"[3.8870445999782532, 18.381498500006273, 16.583437499939464, 19.01990279997699, 4.623559600091539, 4.419617400038987, 5.320383599959314, 12.190337000065483]","[0.00029170000925660133, 18.381505299941637, 0.014374300022609532, 0.053147500031627715, 0.13248780008871108, 0.06562629994004965, 0.09726399998180568, 12.1903433999978]",0,,,,,,,,,,,,,,,,,,,,,,,,,,,,,,,,,,,,,,,,,,,,,,,,,,,,,,,,,,,,,,,,,,,,,,,,,,,,,,,,,,,,,,,,,,,,,,,,,,,,,,,,,,,,,,,,,,,,,,,,,,,,P6AQXX,train_y,red_square,top_left,2025-06-05_17h09.38.722,HideSeek_v1,2022.2.5,59.935114239667584,
,,,,,,,,,,,,,,,0,0,0,0,8,0,8,0,,,,,,,,,,,,,,,,,,,,,,,,,,,,,,,conditions/schedules/train_y_first/red_square_00/top_left/instructions/Slide9.png,conditions/schedules/train_y_first/red_square_00/top_left/instructions/Audio9.wav,1268.7619088999927,1268.7632374999812,9,"[3.8870445999782532, 18.381498500006273, 16.583437499939464, 19.01990279997699, 4.623559600091539, 4.419617400038987, 5.320383599959314, 12.190337000065483, 6.988656200002879]","[0.00029170000925660133, 18.381505299941637, 0.014374300022609532, 0.053147500031627715, 0.13248780008871108, 0.06562629994004965, 0.09726399998180568, 0.0492025000276044, 6.988679999951273]",0,,,,,,,,,,,,,,,,,,,,,,,,,,,,,,,,,,,,,,,,,,,,,,,,,,,,,,,,,,,,,,,,,,,,,,,,,,,,,,,,,,,,,,,,,,,,,,,,,,,,,,,,,,,,,,,,,,,,,,,,,,,,P6AQXX,train_y,red_square,top_left,2025-06-05_17h09.38.722,HideSeek_v1,2022.2.5,59.935114239667584,
,,,,,,,,,,,,,,,0,0,0,0,9,0,9,0,,,,,,,,,,,,,,,,,,,,,,,,,,,,,,,conditions/schedules/train_y_first/red_square_00/top_left/instructions/Slide10.png,conditions/schedules/train_y_first/red_square_00/top_left/instructions/Audio10.wav,1275.789241499966,1275.7861317999661,10,"[3.8870445999782532, 18.381498500006273, 16.583437499939464, 19.01990279997699, 4.623559600091539, 4.419617400038987, 5.320383599959314, 12.190337000065483, 6.988656200002879, 6.716418799944222]","[0.00029170000925660133, 18.381505299941637, 0.014374300022609532, 0.053147500031627715, 0.13248780008871108, 0.06562629994004965, 0.09726399998180568, 0.0492025000276044, 0.06404540000949055, 6.716426600003615]",0,,,,,,,,,,,,,,,,,,,,,,,,,,,,,,,,,,,,,,,,,,,,,,,,,,,,,,,,,,,,,,,,,,,,,,,,,,,,,,,,,,,,,,,,,,,,,,,,,,,,,,,,,,,,,,,,,,,,,,,,,,,,P6AQXX,train_y,red_square,top_left,2025-06-05_17h09.38.722,HideSeek_v1,2022.2.5,59.935114239667584,
,,,,,,,,,,,,,,,0,0,0,0,10,0,10,0,,,,,,,,,,,,,,,,,,,,,,,,,,,,,,,conditions/schedules/train_y_first/red_square_00/top_left/instructions/Slide11.png,conditions/schedules/train_y_first/red_square_00/top_left/instructions/Audio11.wav,1282.5615784999682,1282.5581107000123,11,"[3.8870445999782532, 18.381498500006273, 16.583437499939464, 19.01990279997699, 4.623559600091539, 4.419617400038987, 5.320383599959314, 12.190337000065483, 6.988656200002879, 6.716418799944222, 10.269426600076258]","[0.00029170000925660133, 18.381505299941637, 0.014374300022609532, 0.053147500031627715, 0.13248780008871108, 0.06562629994004965, 0.09726399998180568, 0.0492025000276044, 0.06404540000949055, 0.07896780001465231, 10.269435200025328]",0,,,,,,,,,,,,,,,,,,,,,,,,,,,,,,,,,,,,,,,,,,,,,,,,,,,,,,,,,,,,,,,,,,,,,,,,,,,,,,,,,,,,,,,,,,,,,,,,,,,,,,,,,,,,,,,,,,,,,,,,,,,,P6AQXX,train_y,red_square,top_left,2025-06-05_17h09.38.722,HideSeek_v1,2022.2.5,59.935114239667584,
,,,,,,,,,,,,,,,0,0,0,0,11,0,11,0,,,,,,,,,,,,,,,,,,,,,,,,,,,,,,,conditions/schedules/train_y_first/red_square_00/top_left/instructions/Slide12.png,conditions/schedules/train_y_first/red_square_00/top_left/instructions/Audio12.wav,1292.919700199971,1292.9166870999384,12,"[3.8870445999782532, 18.381498500006273, 16.583437499939464, 19.01990279997699, 4.623559600091539, 4.419617400038987, 5.320383599959314, 12.190337000065483, 6.988656200002879, 6.716418799944222, 10.269426600076258, 14.292086299974471]","[0.00029170000925660133, 18.381505299941637, 0.014374300022609532, 0.053147500031627715, 0.13248780008871108, 0.06562629994004965, 0.09726399998180568, 0.0492025000276044, 0.06404540000949055, 0.07896780001465231, 0.06422449997626245, 14.292093900032341]",0,,,,,,,,,,,,,,,,,,,,,,,,,,,,,,,,,,,,,,,,,,,,,,,,,,,,,,,,,,,,,,,,,,,,,,,,,,,,,,,,,,,,,,,,,,,,,,,,,,,,,,,,,,,,,,,,,,,,,,,,,,,,P6AQXX,train_y,red_square,top_left,2025-06-05_17h09.38.722,HideSeek_v1,2022.2.5,59.935114239667584,
1,2,8,2,3,0,-5,11,2,instr_dim1_1,,,,,,0,0,0,0,,,,,0,0,0,0,,,,,,,,,,,,,,,,,,,,,,,,,,,,,,,,,,,,,stimuli/alien_stimuli/11.png,conditions/schedules/train_y_first/red_square_00/top_left/inputInstr_1.xlsx,stimuli/alien_stimuli/11.png,1307.3183895000257,1307.3183895000257,1307.3183895000257,1307.3183895000257,1307.3120729999619,return,9.002762299962342,"[-0.16, -0.08, 0, 0.08, 0.16, 0.24, 0.32, 0.4, 0.48, 0.56]","[-0.4, -0.32, -0.24, -0.16, -0.08, 0, 0.08, 0.16, 0.24, 0.32]",3,8,2,2,0.4,0.0,1316.4783182999818,1316.4783182999818,1316.4783182999818,1316.4783182999818,1316.4783182999818,1316.4783182999818,1316.4783182999818,1316.4696614000015,15.496811599936336,return,15.343191700056195,stimuli/alien_stimuli/11.png,11,2,1,,,,,,,,,,,,,,,,,,,,,,,,,,,,,,,,,,,,,,,,,,,,,,,,,,,,,,,,,,,,,,,,,,,,,,,,,,,,,,,,,,,,,,,,,P6AQXX,train_y,red_square,top_left,2025-06-05_17h09.38.722,HideSeek_v1,2022.2.5,59.935114239667584,
,,,,,,,,,,,30,,,,0,0,0,0,,,,,,,,,,,,,,,,,,,,,,,,,,,,,,,,,,,,,,,,,,,,,,,,,,,,,,,,,,,,,,,,,,,,,,,,,,,,,,21,0.7,0,0,99,1,30,0,conditions/schedules/train_y_first/red_square_00/top_left/inputTrain_1.1.xlsx,99,1,1,1,0,,,,,,,,,,,,,,,,,,,,,,,,,,,,,,,,,,,,,,,,,,,,,,,,,,,,,,,,,,,,,,,,,,,,,,,,,,,P6AQXX,train_y,red_square,top_left,2025-06-05_17h09.38.722,HideSeek_v1,2022.2.5,59.935114239667584,
,,,,,,,,,,,,,,,1,0,1,0,0,0,0,0,,,,,,,,,,,,,,,,,,,,,,,,,,,,,,,conditions/schedules/train_y_first/red_square_00/top_left/instructions/Slide13.png,conditions/schedules/train_y_first/red_square_00/top_left/instructions/Audio13.wav,1331.9891746999929,1331.9822479000084,13,"[3.8870445999782532, 18.381498500006273, 16.583437499939464, 19.01990279997699, 4.623559600091539, 4.419617400038987, 5.320383599959314, 12.190337000065483, 6.988656200002879, 6.716418799944222, 10.269426600076258, 14.292086299974471, 19.006193800014444]","[0.00029170000925660133, 18.381505299941637, 0.014374300022609532, 0.053147500031627715, 0.13248780008871108, 0.06562629994004965, 0.09726399998180568, 0.0492025000276044, 0.06404540000949055, 0.07896780001465231, 0.06422449997626245, 14.292093900032341, 19.006200700066984]",0,,,,,,,,,,,,,,,,,,,,,,,,,,,,,,,,,,,,,,,,,,,,,,,,,,,,,,,,,,,,,,,,,,,,,,,,,,,,,,,,,,,,,,,,,,,,,,,,,,,,,,,,,,,,,,,,,,,,,,,,,,,,P6AQXX,train_y,red_square,top_left,2025-06-05_17h09.38.722,HideSeek_v1,2022.2.5,59.935114239667584,
,,,,,,,,,,,,,,,1,0,1,0,1,0,1,0,,,,,,,,,,,,,,,,,,,,,,,,,,,,,,,conditions/schedules/train_y_first/red_square_00/top_left/instructions/Slide14.png,conditions/schedules/train_y_first/red_square_00/top_left/instructions/Audio14.wav,1351.0665067000082,1351.0649037000258,14,"[3.8870445999782532, 18.381498500006273, 16.583437499939464, 19.01990279997699, 4.623559600091539, 4.419617400038987, 5.320383599959314, 12.190337000065483, 6.988656200002879, 6.716418799944222, 10.269426600076258, 14.292086299974471, 19.006193800014444, 16.30935439991299]","[0.00029170000925660133, 18.381505299941637, 0.014374300022609532, 0.053147500031627715, 0.13248780008871108, 0.06562629994004965, 0.09726399998180568, 0.0492025000276044, 0.06404540000949055, 0.07896780001465231, 0.06422449997626245, 14.292093900032341, 0.02997409994713962, 16.30936129996553]",0,,,,,,,,,,,,,,,,,,,,,,,,,,,,,,,,,,,,,,,,,,,,,,,,,,,,,,,,,,,,,,,,,,,,,,,,,,,,,,,,,,,,,,,,,,,,,,,,,,,,,,,,,,,,,,,,,,,,,,,,,,,,P6AQXX,train_y,red_square,top_left,2025-06-05_17h09.38.722,HideSeek_v1,2022.2.5,59.935114239667584,
2,0,8,0,8,0,0,16,2,instr_dim1_1,,,,,,1,0,1,0,,,,,0,0,0,0,,,,,,,,,,,,,,,,,,,,,,,,,,,,,,,,,,,,,stimuli/alien_stimuli/16.png,conditions/schedules/train_y_first/red_square_00/top_left/inputInstr_1.xlsx,stimuli/alien_stimuli/16.png,1367.4778522000415,1367.4778522000415,1367.4778522000415,1367.4778522000415,1367.4785819999643,return,5.007471000077203,"[-0.16, -0.08, 0, 0.08, 0.16, 0.24, 0.32, 0.4, 0.48, 0.56]","[-0.4, -0.32, -0.24, -0.16, -0.08, 0, 0.08, 0.16, 0.24, 0.32]",8,8,0,0,0.0,0.0,1372.6452876999974,1372.6452876999974,1372.6452876999974,1372.6452876999974,1372.6452876999974,1372.6452876999974,1372.6452876999974,1372.6328284999356,19.18333180004265,return,19.024001600104384,stimuli/alien_stimuli/16.png,16,0,2,,,,,,,,,,,,,,,,,,,,,,,,,,,,,,,,,,,,,,,,,,,,,,,,,,,,,,,,,,,,,,,,,,,,,,,,,,,,,,,,,,,,,,,,,P6AQXX,train_y,red_square,top_left,2025-06-05_17h09.38.722,HideSeek_v1,2022.2.5,59.935114239667584,
,,,,,,,,,,,30,,,,1,0,1,0,,,,,,,,,,,,,,,,,,,,,,,,,,,,,,,,,,,,,,,,,,,,,,,,,,,,,,,,,,,,,,,,,,,,,,,,,,,,,,21,0.7,0,0,99,1,30,0,conditions/schedules/train_y_first/red_square_00/top_left/inputTrain_1.1.xlsx,99,1,1,1,0,,,,,,,,,,,,,,,,,,,,,,,,,,,,,,,,,,,,,,,,,,,,,,,,,,,,,,,,,,,,,,,,,,,,,,,,,,,P6AQXX,train_y,red_square,top_left,2025-06-05_17h09.38.722,HideSeek_v1,2022.2.5,59.935114239667584,
,,,,,,,,,,,,,,,2,0,2,0,0,0,0,0,,,,,,,,,,,,,,,,,,,,,,,,,,,,,,,conditions/schedules/train_y_first/red_square_00/top_left/instructions/Slide15.png,conditions/schedules/train_y_first/red_square_00/top_left/instructions/Audio15.wav,1391.8568016999634,1391.8485862999223,15,"[3.8870445999782532, 18.381498500006273, 16.583437499939464, 19.01990279997699, 4.623559600091539, 4.419617400038987, 5.320383599959314, 12.190337000065483, 6.988656200002879, 6.716418799944222, 10.269426600076258, 14.292086299974471, 19.006193800014444, 16.30935439991299, 43.77534839999862]","[0.00029170000925660133, 18.381505299941637, 0.014374300022609532, 0.053147500031627715, 0.13248780008871108, 0.06562629994004965, 0.09726399998180568, 0.0492025000276044, 0.06404540000949055, 0.07896780001465231, 0.06422449997626245, 14.292093900032341, 0.02997409994713962, 16.30936129996553, 43.775355299934745]",0,,,,,,,,,,,,,,,,,,,,,,,,,,,,,,,,,,,,,,,,,,,,,,,,,,,,,,,,,,,,,,,,,,,,,,,,,,,,,,,,,,,,,,,,,,,,,,,,,,,,,,,,,,,,,,,,,,,,,,,,,,,,P6AQXX,train_y,red_square,top_left,2025-06-05_17h09.38.722,HideSeek_v1,2022.2.5,59.935114239667584,
,,,,,,,,,,,,,,,2,0,2,0,1,0,1,0,,,,,,,,,,,,,,,,,,,,,,,,,,,,,,,conditions/schedules/train_y_first/red_square_00/top_left/instructions/Slide16.png,conditions/schedules/train_y_first/red_square_00/top_left/instructions/Audio16.wav,1435.7089434999507,1435.7016136000166,16,"[3.8870445999782532, 18.381498500006273, 16.583437499939464, 19.01990279997699, 4.623559600091539, 4.419617400038987, 5.320383599959314, 12.190337000065483, 6.988656200002879, 6.716418799944222, 10.269426600076258, 14.292086299974471, 19.006193800014444, 16.30935439991299, 43.77534839999862, 22.20848270005081]","[0.00029170000925660133, 18.381505299941637, 0.014374300022609532, 0.053147500031627715, 0.13248780008871108, 0.06562629994004965, 0.09726399998180568, 0.0492025000276044, 0.06404540000949055, 0.07896780001465231, 0.06422449997626245, 14.292093900032341, 0.02997409994713962, 16.30936129996553, 0.013912200112827122, 22.208489500102587]",0,,,,,,,,,,,,,,,,,,,,,,,,,,,,,,,,,,,,,,,,,,,,,,,,,,,,,,,,,,,,,,,,,,,,,,,,,,,,,,,,,,,,,,,,,,,,,,,,,,,,,,,,,,,,,,,,,,,,,,,,,,,,P6AQXX,train_y,red_square,top_left,2025-06-05_17h09.38.722,HideSeek_v1,2022.2.5,59.935114239667584,
,0,5,0,4,0,-1,15,,train_dim1_1,1,30,,,,2,0,2,0,,,,,,,,,0,0,0,0,0,0,0,0,0,0,0,0,,,,,,,,,,,,,,,,,,,,,,,,,stimuli/alien_stimuli/15.png,,,,,,,,,,,,,,,,,,,,,,,,,,,,,,,,,,,,,,,30,,,,,,,,1458.0230670999736,1458.0230670999736,1458.0230670999736,1458.0230670999736,1458.0230670999736,0,0,-0.16,0,return,6.316513300058432,0,1,0,0,-0.16,0,return,6.210392100038007,,,,,,,,,,,,,,,,,,,,,,,,,,,,,,,,,,,,,,,,,,,,,,,,,,,,,,,,P6AQXX,train_y,red_square,top_left,2025-06-05_17h09.38.722,HideSeek_v1,2022.2.5,59.935114239667584,
,3,7,3,7,0,0,16,,train_dim1_1,2,30,,,,2,0,2,0,,,,,,,,,0,0,0,0,0,1,1,1,0,0,0,0,,,,,,,,,,,,,,,,,,,,,,,,,stimuli/alien_stimuli/16.png,,,,,,,,,,,,,,,,,,,,,,,,,,,,,stimuli/alien_stimuli/15.png,15,0,3,,,,,,,30,,,,,,,,1491.0904609999852,1491.0904609999852,1491.0904609999852,1491.0904609999852,1491.0904609999852,,,,,down,3.9742214999860153,0,1,0,99,0.08,0.08,down,3.8928058999590576,1489.5292752999812,1491.0904609999852,-0.16,-0.08,0.08,0.0,-0.04,-0.16,-0.16,-0.16,-0.08,1465.9042984000407,1465.9042984000407,1465.9042984000407,1465.9042984000407,1465.9042984000407,1465.9042984000407,1465.9042984000407,1465.9042984000407,1465.8933648999548,23.754923700005747,return,23.606286499998532,,,,,,,,,,,,,,,,,,,,,,,,,,,,,,,,,P6AQXX,train_y,red_square,top_left,2025-06-05_17h09.38.722,HideSeek_v1,2022.2.5,59.935114239667584,
,3,7,3,7,0,0,16,,train_dim1_1,2,30,,,,2,0,2,0,,,,,,,,,0,0,0,0,0,1,1,1,1,0,1,0,,,,,,,,,,,,,,,,,,,,,,,,,,,,,,,,,,,,,,,,,,,,,,,,,,,,,,,,,,,,,,,,30,,,,,,,,1495.068600300001,1495.068600300001,1495.068600300001,1495.068600300001,1495.068600300001,-1,0,0.08,0.08,return,1.4769209999358281,0,1,0,0,0.08,0.08,return,1.3915053999517113,,,,,,,,,,,,,,,,,,,,,,,,,,,,,,,,,,,,,,,,,,,,,,,,,,,,,,,,P6AQXX,train_y,red_square,top_left,2025-06-05_17h09.38.722,HideSeek_v1,2022.2.5,59.935114239667584,
,2,8,2,5,0,-3,13,,train_dim1_1,3,30,,,,2,0,2,0,,,,,,,,,0,0,0,0,0,2,2,2,0,0,0,0,,,,,,,,,,,,,,,,,,,,,,,,,stimuli/alien_stimuli/13.png,,,,,,,,,,,,,,,,,,,,,,,,,,,,,stimuli/alien_stimuli/16.png,16,3,4,,,,,,,30,,,,,,,,1511.153756899992,1511.153756899992,1511.153756899992,1511.153756899992,1511.153756899992,,,,,right,4.391004999983124,0,1,0,99,0.08,0.24,right,4.2855959999142215,1509.5795727999648,1511.153756899992,0.08,0.16,0.0,0.0,0.16,0.08,0.08,0.08,0.16,1498.116426600027,1498.116426600027,1498.116426600027,1498.116426600027,1498.116426600027,1498.116426600027,1498.116426600027,1498.116426600027,1498.1031966999408,11.578417300013825,return,11.446197799989022,,,,,,,,,,,,,,,,,,,,,,,,,,,,,,,,,P6AQXX,train_y,red_square,top_left,2025-06-05_17h09.38.722,HideSeek_v1,2022.2.5,59.935114239667584,
,2,8,2,5,0,-3,13,,train_dim1_1,3,30,,,,2,0,2,0,,,,,,,,,0,0,0,0,0,2,2,2,1,0,1,0,,,,,,,,,,,,,,,,,,,,,,,,,,,,,,,,,,,,,,,,,,,,,,,,,,,,,,,,,,,,,,,,30,,,,,,,,1515.5377619999927,1515.5377619999927,1515.5377619999927,1515.5377619999927,1515.5377619999927,,,,,right,0.27432939992286265,0,1,0,99,0.16,0.24,right,0.19249319995287806,,,,,,,,,,,,,,,,,,,,,,,,,,,,,,,,,,,,,,,,,,,,,,,,,,,,,,,,P6AQXX,train_y,red_square,top_left,2025-06-05_17h09.38.722,HideSeek_v1,2022.2.5,59.935114239667584,
,2,8,2,5,0,-3,13,,train_dim1_1,3,30,,,,2,0,2,0,,,,,,,,,0,0,0,0,0,2,2,2,2,0,2,0,,,,,,,,,,,,,,,,,,,,,,,,,,,,,,,,,,,,,,,,,,,,,,,,,,,,,,,,,,,,,,,,30,,,,,,,,1515.8180558000458,1515.8180558000458,1515.8180558000458,1515.8180558000458,1515.8180558000458,,,,,right,0.2261543000349775,0,1,0,99,0.24,0.24,right,0.14957490004599094,,,,,,,,,,,,,,,,,,,,,,,,,,,,,,,,,,,,,,,,,,,,,,,,,,,,,,,,P6AQXX,train_y,red_square,top_left,2025-06-05_17h09.38.722,HideSeek_v1,2022.2.5,59.935114239667584,
,2,8,2,5,0,-3,13,,train_dim1_1,3,30,,,,2,0,2,0,,,,,,,,,0,0,0,0,0,2,2,2,3,0,3,0,,,,,,,,,,,,,,,,,,,,,,,,,,,,,,,,,,,,,,,,,,,,,,,,,,,,,,,,,,,,,,,,30,,,,,,,,1516.051599600003,1516.051599600003,1516.051599600003,1516.051599600003,1516.051599600003,-1,3,0.24,0.24,return,1.0272468000184745,0,0,0,0,0.24,0.24,return,0.9435238000005484,,,,,,,,,,,,,,,,,,,,,,,,,,,,,,,,,,,,,,,,,,,,,,,,,,,,,,,,P6AQXX,train_y,red_square,top_left,2025-06-05_17h09.38.722,HideSeek_v1,2022.2.5,59.935114239667584,
,0,6,0,2,0,-4,12,,train_dim1_1,4,30,,,,2,0,2,0,,,,,,,,,0,0,0,0,0,3,3,3,0,0,0,0,,,,,,,,,,,,,,,,,,,,,,,,,stimuli/alien_stimuli/12.png,,,,,,,,,,,,,,,,,,,,,,,,,,,,,stimuli/alien_stimuli/13.png,13,2,5,,,,,,,30,,,,,,,,1546.7284500999376,1546.7284500999376,1546.7284500999376,1546.7284500999376,1546.7284500999376,-1,3,-0.16,0.08,return,13.809807499987073,0,0,0,0,-0.16,0.08,return,13.709820799995214,1545.14220630005,1546.7284500999376,0,0,0.24,0.0,0.12,0,0.0,0,0,1518.6529607999837,1518.6529607999837,1518.6529607999837,1518.6529607999837,1518.6529607999837,1518.6529607999837,1518.6529607999837,1518.6529607999837,1518.6538392999676,26.60746760002803,return,26.46307049994357,,,,,,,,,,,,,,,,,,,,,,,,,,,,,,,,,P6AQXX,train_y,red_square,top_left,2025-06-05_17h09.38.722,HideSeek_v1,2022.2.5,59.935114239667584,
,3,8,3,3,0,-5,11,,train_dim1_1,5,30,,,,2,0,2,0,,,,,,,,,0,0,0,0,0,4,4,4,0,0,0,0,,,,,,,,,,,,,,,,,,,,,,,,,stimuli/alien_stimuli/11.png,,,,,,,,,,,,,,,,,,,,,,,,,,,,,stimuli/alien_stimuli/12.png,12,0,6,,,,,,,30,,,,,,,,1596.2573369999882,1596.2573369999882,1596.2573369999882,1596.2573369999882,1596.2573369999882,,,,,down,3.288456300040707,0,0,0,99,0.08,0.15999999999999998,down,3.1881613000296056,1594.683386699995,1596.2573369999882,-0.16,-0.24,0.32,0.0,-0.07999999999999999,-0.16,-0.16,-0.16,-0.24,1562.1101575000212,1562.1101575000212,1562.1101575000212,1562.1101575000212,1562.1101575000212,1562.1101575000212,1562.1101575000212,1562.1101575000212,1562.106514000008,32.712896000011824,return,32.55318519996945,,,,,,,,,,,,,,,,,,,,,,,,,,,,,,,,,P6AQXX,train_y,red_square,top_left,2025-06-05_17h09.38.722,HideSeek_v1,2022.2.5,59.935114239667584,
,3,8,3,3,0,-5,11,,train_dim1_1,5,30,,,,2,0,2,0,,,,,,,,,0,0,0,0,0,4,4,4,1,0,1,0,,,,,,,,,,,,,,,,,,,,,,,,,,,,,,,,,,,,,,,,,,,,,,,,,,,,,,,,,,,,,,,,30,,,,,,,,1599.539904300007,1599.539904300007,1599.539904300007,1599.539904300007,1599.539904300007,-2,3,0.08,0.15999999999999998,return,0.8933877000818029,0,0,0,0,0.08,0.15999999999999998,return,0.8086745999753475,,,,,,,,,,,,,,,,,,,,,,,,,,,,,,,,,,,,,,,,,,,,,,,,,,,,,,,,P6AQXX,train_y,red_square,top_left,2025-06-05_17h09.38.722,HideSeek_v1,2022.2.5,59.935114239667584,
,1,9,1,5,0,-4,12,,train_dim1_1,6,30,,,,2,0,2,0,,,,,,,,,0,0,0,0,0,5,5,5,0,0,0,0,,,,,,,,,,,,,,,,,,,,,,,,,stimuli/alien_stimuli/12.png,,,,,,,,,,,,,,,,,,,,,,,,,,,,,stimuli/alien_stimuli/11.png,11,3,7,,,,,,,30,,,,,,,,1611.3937982999487,1611.3937982999487,1611.3937982999487,1611.3937982999487,1611.3937982999487,,,,,down,3.434895300073549,0,0,0,99,-0.08,0.24,down,3.344996700063348,1609.8290586000076,1611.3937982999487,0.08,-0.16,0.4,0.0,0.039999999999999994,0.08,0.08,0.08,-0.16,1602.0064609999536,1602.0064609999536,1602.0064609999536,1602.0064609999536,1602.0064609999536,1602.0064609999536,1602.0064609999536,1602.0064609999536,1602.006084199925,7.94255479995627,return,7.80473550001625,,,,,,,,,,,,,,,,,,,,,,,,,,,,,,,,,P6AQXX,train_y,red_square,top_left,2025-06-05_17h09.38.722,HideSeek_v1,2022.2.5,59.935114239667584,
,1,9,1,5,0,-4,12,,train_dim1_1,6,30,,,,2,0,2,0,,,,,,,,,0,0,0,0,0,5,5,5,1,0,1,0,,,,,,,,,,,,,,,,,,,,,,,,,,,,,,,,,,,,,,,,,,,,,,,,,,,,,,,,,,,,,,,,30,,,,,,,,1614.8349522999488,1614.8349522999488,1614.8349522999488,1614.8349522999488,1614.8349522999488,-3,3,-0.08,0.24,return,0.7433218999067321,0,0,0,0,-0.08,0.24,return,0.6582276000408456,,,,,,,,,,,,,,,,,,,,,,,,,,,,,,,,,,,,,,,,,,,,,,,,,,,,,,,,P6AQXX,train_y,red_square,top_left,2025-06-05_17h09.38.722,HideSeek_v1,2022.2.5,59.935114239667584,
,1,8,1,5,0,-3,13,,train_dim1_1,7,30,,,,2,0,2,0,,,,,,,,,0,0,0,0,0,6,6,6,0,0,0,0,,,,,,,,,,,,,,,,,,,,,,,,,stimuli/alien_stimuli/13.png,,,,,,,,,,,,,,,,,,,,,,,,,,,,,stimuli/alien_stimuli/12.png,12,1,8,,,,,,,30,,,,,,,,1623.6516405999428,1623.6516405999428,1623.6516405999428,1623.6516405999428,1623.6516405999428,,,,,down,5.873422599979676,0,0,0,99,-0.08,0.15999999999999998,down,5.7807915000012144,1622.0895172000164,1623.6516405999428,-0.08,0,0.32,0.0,0.16,-0.08,-0.08,-0.08,0,1617.154620300047,1617.154620300047,1617.154620300047,1617.154620300047,1617.154620300047,1617.154620300047,1617.154620300047,1617.154620300047,1617.1520385999931,5.056366000091657,return,4.908169300062582,,,,,,,,,,,,,,,,,,,,,,,,,,,,,,,,,P6AQXX,train_y,red_square,top_left,2025-06-05_17h09.38.722,HideSeek_v1,2022.2.5,59.935114239667584,
,1,8,1,5,0,-3,13,,train_dim1_1,7,30,,,,2,0,2,0,,,,,,,,,0,0,0,0,0,6,6,6,1,0,1,0,,,,,,,,,,,,,,,,,,,,,,,,,,,,,,,,,,,,,,,,,,,,,,,,,,,,,,,,,,,,,,,,30,,,,,,,,1629.5328371999785,1629.5328371999785,1629.5328371999785,1629.5328371999785,1629.5328371999785,-4,3,-0.08,0.15999999999999998,return,0.442628400051035,0,0,0,0,-0.08,0.15999999999999998,return,0.3624111999524757,,,,,,,,,,,,,,,,,,,,,,,,,,,,,,,,,,,,,,,,,,,,,,,,,,,,,,,,P6AQXX,train_y,red_square,top_left,2025-06-05_17h09.38.722,HideSeek_v1,2022.2.5,59.935114239667584,
,4,7,4,2,0,-5,11,,train_dim1_1,8,30,,,,2,0,2,0,,,,,,,,,0,0,0,0,0,7,7,7,0,0,0,0,,,,,,,,,,,,,,,,,,,,,,,,,stimuli/alien_stimuli/11.png,,,,,,,,,,,,,,,,,,,,,,,,,,,,,stimuli/alien_stimuli/13.png,13,1,9,,,,,,,30,,,,,,,,1635.7428749999963,1635.7428749999963,1635.7428749999963,1635.7428749999963,1635.7428749999963,,,,,down,2.821997999912128,0,0,0,99,0.16,0.08,down,2.7374714999459684,1634.1826580000343,1635.7428749999963,-0.08,0,0.24,0.0,0.12,-0.08,-0.08,-0.08,0,1631.5560724999523,1631.5560724999523,1631.5560724999523,1631.5560724999523,1631.5560724999523,1631.5560724999523,1631.5560724999523,1631.5560724999523,1631.5471770000179,2.7551036999793723,return,2.6110373999690637,,,,,,,,,,,,,,,,,,,,,,,,,,,,,,,,,P6AQXX,train_y,red_square,top_left,2025-06-05_17h09.38.722,HideSeek_v1,2022.2.5,59.935114239667584,
,4,7,4,2,0,-5,11,,train_dim1_1,8,30,,,,2,0,2,0,,,,,,,,,0,0,0,0,0,7,7,7,1,0,1,0,,,,,,,,,,,,,,,,,,,,,,,,,,,,,,,,,,,,,,,,,,,,,,,,,,,,,,,,,,,,,,,,30,,,,,,,,1638.5757744000293,1638.5757744000293,1638.5757744000293,1638.5757744000293,1638.5757744000293,,,,,down,0.8065866000251845,0,0,0,99,0.16,0.0,down,0.712269299896434,,,,,,,,,,,,,,,,,,,,,,,,,,,,,,,,,,,,,,,,,,,,,,,,,,,,,,,,P6AQXX,train_y,red_square,top_left,2025-06-05_17h09.38.722,HideSeek_v1,2022.2.5,59.935114239667584,
,4,7,4,2,0,-5,11,,train_dim1_1,8,30,,,,2,0,2,0,,,,,,,,,0,0,0,0,0,7,7,7,2,0,2,0,,,,,,,,,,,,,,,,,,,,,,,,,,,,,,,,,,,,,,,,,,,,,,,,,,,,,,,,,,,,,,,,30,,,,,,,,1639.3884456999367,1639.3884456999367,1639.3884456999367,1639.3884456999367,1639.3884456999367,,,,,down,0.6437537999590859,0,0,0,99,0.16,-0.08,down,0.551444899989292,,,,,,,,,,,,,,,,,,,,,,,,,,,,,,,,,,,,,,,,,,,,,,,,,,,,,,,,P6AQXX,train_y,red_square,top_left,2025-06-05_17h09.38.722,HideSeek_v1,2022.2.5,59.935114239667584,
,4,7,4,2,0,-5,11,,train_dim1_1,8,30,,,,2,0,2,0,,,,,,,,,0,0,0,0,0,7,7,7,3,0,3,0,,,,,,,,,,,,,,,,,,,,,,,,,,,,,,,,,,,,,,,,,,,,,,,,,,,,,,,,,,,,,,,,30,,,,,,,,1640.042139200028,1640.042139200028,1640.042139200028,1640.042139200028,1640.042139200028,,,,,down,0.7412475999444723,0,0,0,99,0.16,-0.16,down,0.6502147999126464,,,,,,,,,,,,,,,,,,,,,,,,,,,,,,,,,,,,,,,,,,,,,,,,,,,,,,,,P6AQXX,train_y,red_square,top_left,2025-06-05_17h09.38.722,HideSeek_v1,2022.2.5,59.935114239667584,
,4,7,4,2,0,-5,11,,train_dim1_1,8,30,,,,2,0,2,0,,,,,,,,,0,0,0,0,0,7,7,7,4,0,4,0,,,,,,,,,,,,,,,,,,,,,,,,,,,,,,,,,,,,,,,,,,,,,,,,,,,,,,,,,,,,,,,,30,,,,,,,,1640.7910978000145,1640.7910978000145,1640.7910978000145,1640.7910978000145,1640.7910978000145,,,,,down,0.4768897000467405,0,0,0,99,0.16,-0.24,down,0.3850072999484837,,,,,,,,,,,,,,,,,,,,,,,,,,,,,,,,,,,,,,,,,,,,,,,,,,,,,,,,P6AQXX,train_y,red_square,top_left,2025-06-05_17h09.38.722,HideSeek_v1,2022.2.5,59.935114239667584,
,4,7,4,2,0,-5,11,,train_dim1_1,8,30,,,,2,0,2,0,,,,,,,,,0,0,0,0,0,7,7,7,5,0,5,0,,,,,,,,,,,,,,,,,,,,,,,,,,,,,,,,,,,,,,,,,,,,,,,,,,,,,,,,,,,,,,,,30,,,,,,,,1641.2735508000478,1641.2735508000478,1641.2735508000478,1641.2735508000478,1641.2735508000478,-9,3,0.16,-0.24,return,0.7103120000101626,1,0,0,1,0.16,-0.24,return,0.6227567000314593,,,,,,,,,,,,,,,,,,,,,,,,,,,,,,,,,,,,,,,,,,,,,,,,,,,,,,,,P6AQXX,train_y,red_square,top_left,2025-06-05_17h09.38.722,HideSeek_v1,2022.2.5,59.935114239667584,
,4,8,4,7,0,-1,15,,train_dim1_1,9,30,,,,2,0,2,0,,,,,,,,,0,0,0,0,0,8,8,8,0,0,0,0,,,,,,,,,,,,,,,,,,,,,,,,,stimuli/alien_stimuli/15.png,,,,,,,,,,,,,,,,,,,,,,,,,,,,,stimuli/alien_stimuli/11.png,11,4,10,,,,,,,30,,,,,,,,1649.2192805999657,1649.2192805999657,1649.2192805999657,1649.2192805999657,1649.2192805999657,,,,,down,5.608252599951811,1,0,0,99,0.16,0.15999999999999998,down,5.521533000050113,1647.6609032000415,1649.2192805999657,0.16,-0.24,0.4,0.0,-0.039999999999999994,0.16,0.16,0.16,-0.24,1643.5585460000439,1643.5585460000439,1643.5585460000439,1643.5585460000439,1643.5585460000439,1643.5585460000439,1643.5585460000439,1643.5585460000439,1643.557314700028,4.22248610004317,return,4.078144499915652,,,,,,,,,,,,,,,,,,,,,,,,,,,,,,,,,P6AQXX,train_y,red_square,top_left,2025-06-05_17h09.38.722,HideSeek_v1,2022.2.5,59.935114239667584,
,4,8,4,7,0,-1,15,,train_dim1_1,9,30,,,,2,0,2,0,,,,,,,,,0,0,0,0,0,8,8,8,1,0,1,0,,,,,,,,,,,,,,,,,,,,,,,,,,,,,,,,,,,,,,,,,,,,,,,,,,,,,,,,,,,,,,,,30,,,,,,,,1654.8526055000257,1654.8526055000257,1654.8526055000257,1654.8526055000257,1654.8526055000257,-10,3,0.16,0.15999999999999998,return,0.4266032000305131,2,0,0,1,0.16,0.15999999999999998,return,0.32958399993367493,,,,,,,,,,,,,,,,,,,,,,,,,,,,,,,,,,,,,,,,,,,,,,,,,,,,,,,,P6AQXX,train_y,red_square,top_left,2025-06-05_17h09.38.722,HideSeek_v1,2022.2.5,59.935114239667584,
,2,7,2,7,0,0,16,,train_dim1_1,10,30,,,,2,0,2,0,,,,,,,,,0,0,0,0,0,9,9,9,0,0,0,0,,,,,,,,,,,,,,,,,,,,,,,,,stimuli/alien_stimuli/16.png,,,,,,,,,,,,,,,,,,,,,,,,,,,,,stimuli/alien_stimuli/15.png,15,4,11,,,,,,,30,,,,,,,,1663.9017598000355,1663.9017598000355,1663.9017598000355,1663.9017598000355,1663.9017598000355,,,,,down,3.1367432000115514,2,0,0,99,0,0.08,down,3.0469752999488264,1662.3393459999934,1663.9017598000355,0.16,0.16,0.08,0.0,0.2,0.16,0.16,0.16,0.16,1656.824532700004,1656.824532700004,1656.824532700004,1656.824532700004,1656.824532700004,1656.824532700004,1656.824532700004,1656.824532700004,1656.8183342000239,5.623237199964933,return,5.4853904999326915,,,,,,,,,,,,,,,,,,,,,,,,,,,,,,,,,P6AQXX,train_y,red_square,top_left,2025-06-05_17h09.38.722,HideSeek_v1,2022.2.5,59.935114239667584,
,2,7,2,7,0,0,16,,train_dim1_1,10,30,,,,2,0,2,0,,,,,,,,,0,0,0,0,0,9,9,9,1,0,1,0,,,,,,,,,,,,,,,,,,,,,,,,,,,,,,,,,,,,,,,,,,,,,,,,,,,,,,,,,,,,,,,,30,,,,,,,,1667.0447012999794,1667.0447012999794,1667.0447012999794,1667.0447012999794,1667.0447012999794,-11,3,0,0.08,return,0.45952729997225106,2,1,0,0,0,0.08,return,0.36872699996456504,,,,,,,,,,,,,,,,,,,,,,,,,,,,,,,,,,,,,,,,,,,,,,,,,,,,,,,,P6AQXX,train_y,red_square,top_left,2025-06-05_17h09.38.722,HideSeek_v1,2022.2.5,59.935114239667584,
,4,6,4,5,0,-1,15,,train_dim1_1,11,30,,,,2,0,2,0,,,,,,,,,0,0,0,0,0,10,10,10,0,0,0,0,,,,,,,,,,,,,,,,,,,,,,,,,stimuli/alien_stimuli/15.png,,,,,,,,,,,,,,,,,,,,,,,,,,,,,stimuli/alien_stimuli/16.png,16,2,12,,,,,,,30,,,,,,,,1683.1647934999783,1683.1647934999783,1683.1647934999783,1683.1647934999783,1683.1647934999783,,,,,down,2.906412599957548,2,1,0,99,0.16,0.0,down,2.804431900032796,1681.5886993999593,1683.1647934999783,0,0.16,0.0,0.0,0.16,0,0.0,0,0.16,1669.0826060000109,1669.0826060000109,1669.0826060000109,1669.0826060000109,1669.0826060000109,1669.0826060000109,1669.0826060000109,1669.0826060000109,1669.0784009999363,12.629059700062498,return,12.48135200003162,,,,,,,,,,,,,,,,,,,,,,,,,,,,,,,,,P6AQXX,train_y,red_square,top_left,2025-06-05_17h09.38.722,HideSeek_v1,2022.2.5,59.935114239667584,
,4,6,4,5,0,-1,15,,train_dim1_1,11,30,,,,2,0,2,0,,,,,,,,,0,0,0,0,0,10,10,10,1,0,1,0,,,,,,,,,,,,,,,,,,,,,,,,,,,,,,,,,,,,,,,,,,,,,,,,,,,,,,,,,,,,,,,,30,,,,,,,,1686.0625423999736,1686.0625423999736,1686.0625423999736,1686.0625423999736,1686.0625423999736,-12,3,0.16,0.0,return,0.5087505000410601,3,0,0,1,0.16,0.0,return,0.41818629996851087,,,,,,,,,,,,,,,,,,,,,,,,,,,,,,,,,,,,,,,,,,,,,,,,,,,,,,,,P6AQXX,train_y,red_square,top_left,2025-06-05_17h09.38.722,HideSeek_v1,2022.2.5,59.935114239667584,
,0,5,0,0,0,-5,11,,train_dim1_1,12,30,,,,2,0,2,0,,,,,,,,,0,0,0,0,0,11,11,11,0,0,0,0,,,,,,,,,,,,,,,,,,,,,,,,,stimuli/alien_stimuli/11.png,,,,,,,,,,,,,,,,,,,,,,,,,,,,,stimuli/alien_stimuli/15.png,15,4,13,,,,,,,30,,,,,,,,1692.1592949000187,1692.1592949000187,1692.1592949000187,1692.1592949000187,1692.1592949000187,,,,,down,5.821211999980733,3,0,0,99,-0.16,-0.08,down,5.735655499971472,1690.596128599951,1692.1592949000187,0.16,0,0.08,0.0,0.04,0.16,0.16,0.16,0,1688.1545433000429,1688.1545433000429,1688.1545433000429,1688.1545433000429,1688.1545433000429,1688.1545433000429,1688.1545433000429,1688.1545433000429,1688.1443339999998,2.570642599952407,return,2.4243078000145033,,,,,,,,,,,,,,,,,,,,,,,,,,,,,,,,,P6AQXX,train_y,red_square,top_left,2025-06-05_17h09.38.722,HideSeek_v1,2022.2.5,59.935114239667584,
,0,5,0,0,0,-5,11,,train_dim1_1,12,30,,,,2,0,2,0,,,,,,,,,0,0,0,0,0,11,11,11,1,0,1,0,,,,,,,,,,,,,,,,,,,,,,,,,,,,,,,,,,,,,,,,,,,,,,,,,,,,,,,,,,,,,,,,30,,,,,,,,1697.986849799985,1697.986849799985,1697.986849799985,1697.986849799985,1697.986849799985,,,,,down,0.35980520001612604,3,0,0,99,-0.16,-0.16,down,0.2708081000018865,,,,,,,,,,,,,,,,,,,,,,,,,,,,,,,,,,,,,,,,,,,,,,,,,,,,,,,,P6AQXX,train_y,red_square,top_left,2025-06-05_17h09.38.722,HideSeek_v1,2022.2.5,59.935114239667584,
,0,5,0,0,0,-5,11,,train_dim1_1,12,30,,,,2,0,2,0,,,,,,,,,0,0,0,0,0,11,11,11,2,0,2,0,,,,,,,,,,,,,,,,,,,,,,,,,,,,,,,,,,,,,,,,,,,,,,,,,,,,,,,,,,,,,,,,30,,,,,,,,1698.3548414999386,1698.3548414999386,1698.3548414999386,1698.3548414999386,1698.3548414999386,,,,,down,0.3271459999959916,3,0,0,99,-0.16,-0.24,down,0.24317170004360378,,,,,,,,,,,,,,,,,,,,,,,,,,,,,,,,,,,,,,,,,,,,,,,,,,,,,,,,P6AQXX,train_y,red_square,top_left,2025-06-05_17h09.38.722,HideSeek_v1,2022.2.5,59.935114239667584,
,0,5,0,0,0,-5,11,,train_dim1_1,12,30,,,,2,0,2,0,,,,,,,,,0,0,0,0,0,11,11,11,3,0,3,0,,,,,,,,,,,,,,,,,,,,,,,,,,,,,,,,,,,,,,,,,,,,,,,,,,,,,,,,,,,,,,,,30,,,,,,,,1698.6881826999597,1698.6881826999597,1698.6881826999597,1698.6881826999597,1698.6881826999597,,,,,down,0.3764369999989867,3,0,0,99,-0.16,-0.32,down,0.2909844999667257,,,,,,,,,,,,,,,,,,,,,,,,,,,,,,,,,,,,,,,,,,,,,,,,,,,,,,,,P6AQXX,train_y,red_square,top_left,2025-06-05_17h09.38.722,HideSeek_v1,2022.2.5,59.935114239667584,
,0,5,0,0,0,-5,11,,train_dim1_1,12,30,,,,2,0,2,0,,,,,,,,,0,0,0,0,0,11,11,11,4,0,4,0,,,,,,,,,,,,,,,,,,,,,,,,,,,,,,,,,,,,,,,,,,,,,,,,,,,,,,,,,,,,,,,,30,,,,,,,,1699.0742696999805,1699.0742696999805,1699.0742696999805,1699.0742696999805,1699.0742696999805,,,,,down,0.46013460005633533,3,0,0,99,-0.16,-0.4,down,0.3679750000592321,,,,,,,,,,,,,,,,,,,,,,,,,,,,,,,,,,,,,,,,,,,,,,,,,,,,,,,,P6AQXX,train_y,red_square,top_left,2025-06-05_17h09.38.722,HideSeek_v1,2022.2.5,59.935114239667584,
,0,5,0,0,0,-5,11,,train_dim1_1,12,30,,,,2,0,2,0,,,,,,,,,0,0,0,0,0,11,11,11,5,0,5,0,,,,,,,,,,,,,,,,,,,,,,,,,,,,,,,,,,,,,,,,,,,,,,,,,,,,,,,,,,,,,,,,30,,,,,,,,1699.5389450000366,1699.5389450000366,1699.5389450000366,1699.5389450000366,1699.5389450000366,-17,3,-0.16,-0.4,return,0.5601132999872789,4,0,0,1,-0.16,-0.4,return,0.467269399901852,,,,,,,,,,,,,,,,,,,,,,,,,,,,,,,,,,,,,,,,,,,,,,,,,,,,,,,,P6AQXX,train_y,red_square,top_left,2025-06-05_17h09.38.722,HideSeek_v1,2022.2.5,59.935114239667584,
,4,8,4,4,0,-4,12,,train_dim1_1,13,30,,,,2,0,2,0,,,,,,,,,0,0,0,0,0,12,12,12,0,0,0,0,,,,,,,,,,,,,,,,,,,,,,,,,stimuli/alien_stimuli/12.png,,,,,,,,,,,,,,,,,,,,,,,,,,,,,stimuli/alien_stimuli/11.png,11,0,14,,,,,,,30,,,,,,,,1705.5004136000061,1705.5004136000061,1705.5004136000061,1705.5004136000061,1705.5004136000061,,,,,down,3.3557166000828147,4,0,0,99,0.16,0.15999999999999998,down,3.268943900009617,1703.94048999995,1705.5004136000061,-0.16,-0.4,0.4,0.0,-0.2,-0.16,-0.16,-0.16,-0.4,1701.6737745000282,1701.6737745000282,1701.6737745000282,1701.6737745000282,1701.6737745000282,1701.6737745000282,1701.6737745000282,1701.6737745000282,1701.6720965999878,2.3872854000655934,return,2.2370168000925332,,,,,,,,,,,,,,,,,,,,,,,,,,,,,,,,,P6AQXX,train_y,red_square,top_left,2025-06-05_17h09.38.722,HideSeek_v1,2022.2.5,59.935114239667584,
,4,8,4,4,0,-4,12,,train_dim1_1,13,30,,,,2,0,2,0,,,,,,,,,0,0,0,0,0,12,12,12,1,0,1,0,,,,,,,,,,,,,,,,,,,,,,,,,,,,,,,,,,,,,,,,,,,,,,,,,,,,,,,,,,,,,,,,30,,,,,,,,1708.8632562999846,1708.8632562999846,1708.8632562999846,1708.8632562999846,1708.8632562999846,,,,,down,0.47584059997461736,4,0,0,99,0.16,0.07999999999999997,down,0.3960258999140933,,,,,,,,,,,,,,,,,,,,,,,,,,,,,,,,,,,,,,,,,,,,,,,,,,,,,,,,P6AQXX,train_y,red_square,top_left,2025-06-05_17h09.38.722,HideSeek_v1,2022.2.5,59.935114239667584,
,4,8,4,4,0,-4,12,,train_dim1_1,13,30,,,,2,0,2,0,,,,,,,,,0,0,0,0,0,12,12,12,2,0,2,0,,,,,,,,,,,,,,,,,,,,,,,,,,,,,,,,,,,,,,,,,,,,,,,,,,,,,,,,,,,,,,,,30,,,,,,,,1709.3475170000456,1709.3475170000456,1709.3475170000456,1709.3475170000456,1709.3475170000456,,,,,down,0.4767259999644011,4,0,0,99,0.16,-2.7755575615628914e-17,down,0.39348920003976673,,,,,,,,,,,,,,,,,,,,,,,,,,,,,,,,,,,,,,,,,,,,,,,,,,,,,,,,P6AQXX,train_y,red_square,top_left,2025-06-05_17h09.38.722,HideSeek_v1,2022.2.5,59.935114239667584,
,4,8,4,4,0,-4,12,,train_dim1_1,13,30,,,,2,0,2,0,,,,,,,,,0,0,0,0,0,12,12,12,3,0,3,0,,,,,,,,,,,,,,,,,,,,,,,,,,,,,,,,,,,,,,,,,,,,,,,,,,,,,,,,,,,,,,,,30,,,,,,,,1709.8295936000068,1709.8295936000068,1709.8295936000068,1709.8295936000068,1709.8295936000068,,,,,down,0.6936006000032648,4,0,0,99,0.16,-0.08000000000000003,down,0.6016252000117674,,,,,,,,,,,,,,,,,,,,,,,,,,,,,,,,,,,,,,,,,,,,,,,,,,,,,,,,P6AQXX,train_y,red_square,top_left,2025-06-05_17h09.38.722,HideSeek_v1,2022.2.5,59.935114239667584,
,4,8,4,4,0,-4,12,,train_dim1_1,13,30,,,,2,0,2,0,,,,,,,,,0,0,0,0,0,12,12,12,4,0,4,0,,,,,,,,,,,,,,,,,,,,,,,,,,,,,,,,,,,,,,,,,,,,,,,,,,,,,,,,,,,,,,,,30,,,,,,,,1710.5324418999953,1710.5324418999953,1710.5324418999953,1710.5324418999953,1710.5324418999953,-21,3,0.16,-0.08000000000000003,return,0.6770223999628797,5,0,0,1,0.16,-0.08000000000000003,return,0.5958656000439078,,,,,,,,,,,,,,,,,,,,,,,,,,,,,,,,,,,,,,,,,,,,,,,,,,,,,,,,P6AQXX,train_y,red_square,top_left,2025-06-05_17h09.38.722,HideSeek_v1,2022.2.5,59.935114239667584,
,2,7,2,7,0,0,16,,train_dim1_1,14,30,,,,2,0,2,0,,,,,,,,,0,0,0,0,0,13,13,13,0,0,0,0,,,,,,,,,,,,,,,,,,,,,,,,,stimuli/alien_stimuli/16.png,,,,,,,,,,,,,,,,,,,,,,,,,,,,,stimuli/alien_stimuli/12.png,12,4,15,,,,,,,30,,,,,,,,1727.537994000013,1727.537994000013,1727.537994000013,1727.537994000013,1727.537994000013,-21,3,0,0.16,return,3.3225292999995872,6,0,0,1,0,0.16,return,3.2249223000835627,1725.9590582000092,1727.537994000013,0.16,-0.08,0.32,0.0,0.07999999999999999,0.16,0.16,0.16,-0.08,1712.7874272000045,1712.7874272000045,1712.7874272000045,1712.7874272000045,1712.7874272000045,1712.7874272000045,1712.7874272000045,1712.7874272000045,1712.7813693000237,13.296789700048976,return,13.15375800000038,,,,,,,,,,,,,,,,,,,,,,,,,,,,,,,,,P6AQXX,train_y,red_square,top_left,2025-06-05_17h09.38.722,HideSeek_v1,2022.2.5,59.935114239667584,
,1,9,1,6,0,-3,13,,train_dim1_1,15,30,,,,2,0,2,0,,,,,,,,,0,0,0,0,0,14,14,14,0,0,0,0,,,,,,,,,,,,,,,,,,,,,,,,,stimuli/alien_stimuli/13.png,,,,,,,,,,,,,,,,,,,,,,,,,,,,,stimuli/alien_stimuli/16.png,16,2,16,,,,,,,30,,,,,,,,1735.7235077000223,1735.7235077000223,1735.7235077000223,1735.7235077000223,1735.7235077000223,,,,,down,2.305572499986738,6,0,0,99,-0.08,0.24,down,2.229142799973488,1734.1655754999956,1735.7235077000223,0,0.16,0.0,0.0,0.16,0,0.0,0,0.16,1732.4145458999556,1732.4145458999556,1732.4145458999556,1732.4145458999556,1732.4145458999556,1732.4145458999556,1732.4145458999556,1732.4145458999556,1732.4142274000217,1.8704992999555543,return,1.7340148999355733,,,,,,,,,,,,,,,,,,,,,,,,,,,,,,,,,P6AQXX,train_y,red_square,top_left,2025-06-05_17h09.38.722,HideSeek_v1,2022.2.5,59.935114239667584,
,1,9,1,6,0,-3,13,,train_dim1_1,15,30,,,,2,0,2,0,,,,,,,,,0,0,0,0,0,14,14,14,1,0,1,0,,,,,,,,,,,,,,,,,,,,,,,,,,,,,,,,,,,,,,,,,,,,,,,,,,,,,,,,,,,,,,,,30,,,,,,,,1738.0364418999525,1738.0364418999525,1738.0364418999525,1738.0364418999525,1738.0364418999525,,,,,down,0.37627869995776564,6,0,0,99,-0.08,0.15999999999999998,down,0.28918960003647953,,,,,,,,,,,,,,,,,,,,,,,,,,,,,,,,,,,,,,,,,,,,,,,,,,,,,,,,P6AQXX,train_y,red_square,top_left,2025-06-05_17h09.38.722,HideSeek_v1,2022.2.5,59.935114239667584,
,1,9,1,6,0,-3,13,,train_dim1_1,15,30,,,,2,0,2,0,,,,,,,,,0,0,0,0,0,14,14,14,2,0,2,0,,,,,,,,,,,,,,,,,,,,,,,,,,,,,,,,,,,,,,,,,,,,,,,,,,,,,,,,,,,,,,,,30,,,,,,,,1738.4211995999794,1738.4211995999794,1738.4211995999794,1738.4211995999794,1738.4211995999794,,,,,down,0.3766347001073882,6,0,0,99,-0.08,0.07999999999999997,down,0.2856255000224337,,,,,,,,,,,,,,,,,,,,,,,,,,,,,,,,,,,,,,,,,,,,,,,,,,,,,,,,P6AQXX,train_y,red_square,top_left,2025-06-05_17h09.38.722,HideSeek_v1,2022.2.5,59.935114239667584,
,1,9,1,6,0,-3,13,,train_dim1_1,15,30,,,,2,0,2,0,,,,,,,,,0,0,0,0,0,14,14,14,3,0,3,0,,,,,,,,,,,,,,,,,,,,,,,,,,,,,,,,,,,,,,,,,,,,,,,,,,,,,,,,,,,,,,,,30,,,,,,,,1738.805695899995,1738.805695899995,1738.805695899995,1738.805695899995,1738.805695899995,-24,3,-0.08,0.07999999999999997,return,0.8436044999398291,7,0,0,1,-0.08,0.07999999999999997,return,0.7596053000306711,,,,,,,,,,,,,,,,,,,,,,,,,,,,,,,,,,,,,,,,,,,,,,,,,,,,,,,,P6AQXX,train_y,red_square,top_left,2025-06-05_17h09.38.722,HideSeek_v1,2022.2.5,59.935114239667584,
,4,5,4,4,0,-1,15,,train_dim1_1,16,30,,,,2,0,2,0,,,,,,,,,0,0,0,0,0,15,15,15,0,0,0,0,,,,,,,,,,,,,,,,,,,,,,,,,stimuli/alien_stimuli/15.png,,,,,,,,,,,,,,,,,,,,,,,,,,,,,stimuli/alien_stimuli/13.png,13,1,17,,,,,,,30,,,,,,,,1744.5510983000277,1744.5510983000277,1744.5510983000277,1744.5510983000277,1744.5510983000277,,,,,down,1.7201006000395864,7,0,0,99,0.16,-0.08,down,1.636989500024356,1742.9895564999897,1744.5510983000277,-0.08,0.08,0.24,0.0,0.2,-0.08,-0.08,-0.08,0.08,1741.2049281999934,1741.2049281999934,1741.2049281999934,1741.2049281999934,1741.2049281999934,1741.2049281999934,1741.2049281999934,1741.2049281999934,1741.2049495999936,1.8868495000060648,return,1.763366699917242,,,,,,,,,,,,,,,,,,,,,,,,,,,,,,,,,P6AQXX,train_y,red_square,top_left,2025-06-05_17h09.38.722,HideSeek_v1,2022.2.5,59.935114239667584,
,4,5,4,4,0,-1,15,,train_dim1_1,16,30,,,,2,0,2,0,,,,,,,,,0,0,0,0,0,15,15,15,1,0,1,0,,,,,,,,,,,,,,,,,,,,,,,,,,,,,,,,,,,,,,,,,,,,,,,,,,,,,,,,,,,,,,,,30,,,,,,,,1746.2770241999533,1746.2770241999533,1746.2770241999533,1746.2770241999533,1746.2770241999533,-25,3,0.16,-0.08,return,0.5600316000636667,8,0,0,1,0.16,-0.08,return,0.48309730004984885,,,,,,,,,,,,,,,,,,,,,,,,,,,,,,,,,,,,,,,,,,,,,,,,,,,,,,,,P6AQXX,train_y,red_square,top_left,2025-06-05_17h09.38.722,HideSeek_v1,2022.2.5,59.935114239667584,
,3,8,3,5,0,-3,13,,train_dim1_1,17,30,,,,2,0,2,0,,,,,,,,,0,0,0,0,0,16,16,16,0,0,0,0,,,,,,,,,,,,,,,,,,,,,,,,,stimuli/alien_stimuli/13.png,,,,,,,,,,,,,,,,,,,,,,,,,,,,,stimuli/alien_stimuli/15.png,15,4,18,,,,,,,30,,,,,,,,1754.2696957000298,1754.2696957000298,1754.2696957000298,1754.2696957000298,1754.2696957000298,,,,,down,1.8881684000371024,8,0,0,99,0.08,0.15999999999999998,down,1.7982294000685215,1752.697367100045,1754.2696957000298,0.16,-0.08,0.08,0.0,-0.04,0.16,0.16,0.16,-0.08,1748.4145529000089,1748.4145529000089,1748.4145529000089,1748.4145529000089,1748.4145529000089,1748.4145529000089,1748.4145529000089,1748.4145529000089,1748.411278499919,4.405360299977474,return,4.259917599963956,,,,,,,,,,,,,,,,,,,,,,,,,,,,,,,,,P6AQXX,train_y,red_square,top_left,2025-06-05_17h09.38.722,HideSeek_v1,2022.2.5,59.935114239667584,
,3,8,3,5,0,-3,13,,train_dim1_1,17,30,,,,2,0,2,0,,,,,,,,,0,0,0,0,0,16,16,16,1,0,1,0,,,,,,,,,,,,,,,,,,,,,,,,,,,,,,,,,,,,,,,,,,,,,,,,,,,,,,,,,,,,,,,,30,,,,,,,,1756.1518909999868,1756.1518909999868,1756.1518909999868,1756.1518909999868,1756.1518909999868,,,,,down,0.40967850002925843,8,0,0,99,0.08,0.07999999999999997,down,0.31887730001471937,,,,,,,,,,,,,,,,,,,,,,,,,,,,,,,,,,,,,,,,,,,,,,,,,,,,,,,,P6AQXX,train_y,red_square,top_left,2025-06-05_17h09.38.722,HideSeek_v1,2022.2.5,59.935114239667584,
,3,8,3,5,0,-3,13,,train_dim1_1,17,30,,,,2,0,2,0,,,,,,,,,0,0,0,0,0,16,16,16,2,0,2,0,,,,,,,,,,,,,,,,,,,,,,,,,,,,,,,,,,,,,,,,,,,,,,,,,,,,,,,,,,,,,,,,30,,,,,,,,1756.5686249999562,1756.5686249999562,1756.5686249999562,1756.5686249999562,1756.5686249999562,,,,,down,0.3765948999207467,8,0,0,99,0.08,-2.7755575615628914e-17,down,0.2857102999696508,,,,,,,,,,,,,,,,,,,,,,,,,,,,,,,,,,,,,,,,,,,,,,,,,,,,,,,,P6AQXX,train_y,red_square,top_left,2025-06-05_17h09.38.722,HideSeek_v1,2022.2.5,59.935114239667584,
,3,8,3,5,0,-3,13,,train_dim1_1,17,30,,,,2,0,2,0,,,,,,,,,0,0,0,0,0,16,16,16,3,0,3,0,,,,,,,,,,,,,,,,,,,,,,,,,,,,,,,,,,,,,,,,,,,,,,,,,,,,,,,,,,,,,,,,30,,,,,,,,1756.9558184000198,1756.9558184000198,1756.9558184000198,1756.9558184000198,1756.9558184000198,-28,3,0.08,-2.7755575615628914e-17,return,1.3439799000043422,9,0,0,1,0.08,-2.7755575615628914e-17,return,1.2603878000518307,,,,,,,,,,,,,,,,,,,,,,,,,,,,,,,,,,,,,,,,,,,,,,,,,,,,,,,,P6AQXX,train_y,red_square,top_left,2025-06-05_17h09.38.722,HideSeek_v1,2022.2.5,59.935114239667584,
,2,6,2,1,0,-5,11,,train_dim1_1,18,30,,,,2,0,2,0,,,,,,,,,0,0,0,0,0,17,17,17,0,0,0,0,,,,,,,,,,,,,,,,,,,,,,,,,stimuli/alien_stimuli/11.png,,,,,,,,,,,,,,,,,,,,,,,,,,,,,stimuli/alien_stimuli/13.png,13,3,19,,,,,,,30,,,,,,,,1765.598414100008,1765.598414100008,1765.598414100008,1765.598414100008,1765.598414100008,,,,,down,3.4899870000081137,9,0,0,99,0,0.0,down,3.4015009999275208,1764.040386299952,1765.598414100008,0.08,0,0.24,0.0,0.12,0.08,0.08,0.08,0,1759.8728147000074,1759.8728147000074,1759.8728147000074,1759.8728147000074,1759.8728147000074,1759.8728147000074,1759.8728147000074,1759.8728147000074,1759.8701611999888,4.289441699977033,return,4.137842600001022,,,,,,,,,,,,,,,,,,,,,,,,,,,,,,,,,P6AQXX,train_y,red_square,top_left,2025-06-05_17h09.38.722,HideSeek_v1,2022.2.5,59.935114239667584,
,2,6,2,1,0,-5,11,,train_dim1_1,18,30,,,,2,0,2,0,,,,,,,,,0,0,0,0,0,17,17,17,1,0,1,0,,,,,,,,,,,,,,,,,,,,,,,,,,,,,,,,,,,,,,,,,,,,,,,,,,,,,,,,,,,,,,,,30,,,,,,,,1769.0955558000132,1769.0955558000132,1769.0955558000132,1769.0955558000132,1769.0955558000132,,,,,down,0.45923459995537996,9,0,0,99,0,-0.08,down,0.3714386000065133,,,,,,,,,,,,,,,,,,,,,,,,,,,,,,,,,,,,,,,,,,,,,,,,,,,,,,,,P6AQXX,train_y,red_square,top_left,2025-06-05_17h09.38.722,HideSeek_v1,2022.2.5,59.935114239667584,
,2,6,2,1,0,-5,11,,train_dim1_1,18,30,,,,2,0,2,0,,,,,,,,,0,0,0,0,0,17,17,17,2,0,2,0,,,,,,,,,,,,,,,,,,,,,,,,,,,,,,,,,,,,,,,,,,,,,,,,,,,,,,,,,,,,,,,,30,,,,,,,,1769.563780699973,1769.563780699973,1769.563780699973,1769.563780699973,1769.563780699973,,,,,down,0.37572700006421655,9,0,0,99,0,-0.16,down,0.2900993999792263,,,,,,,,,,,,,,,,,,,,,,,,,,,,,,,,,,,,,,,,,,,,,,,,,,,,,,,,P6AQXX,train_y,red_square,top_left,2025-06-05_17h09.38.722,HideSeek_v1,2022.2.5,59.935114239667584,
,2,6,2,1,0,-5,11,,train_dim1_1,18,30,,,,2,0,2,0,,,,,,,,,0,0,0,0,0,17,17,17,3,0,3,0,,,,,,,,,,,,,,,,,,,,,,,,,,,,,,,,,,,,,,,,,,,,,,,,,,,,,,,,,,,,,,,,30,,,,,,,,1769.947327199974,1769.947327199974,1769.947327199974,1769.947327199974,1769.947327199974,,,,,down,0.41019279998727143,9,0,0,99,0,-0.24,down,0.33051800006069243,,,,,,,,,,,,,,,,,,,,,,,,,,,,,,,,,,,,,,,,,,,,,,,,,,,,,,,,P6AQXX,train_y,red_square,top_left,2025-06-05_17h09.38.722,HideSeek_v1,2022.2.5,59.935114239667584,
,2,6,2,1,0,-5,11,,train_dim1_1,18,30,,,,2,0,2,0,,,,,,,,,0,0,0,0,0,17,17,17,4,0,4,0,,,,,,,,,,,,,,,,,,,,,,,,,,,,,,,,,,,,,,,,,,,,,,,,,,,,,,,,,,,,,,,,30,,,,,,,,1770.365066200029,1770.365066200029,1770.365066200029,1770.365066200029,1770.365066200029,,,,,down,0.42658680002205074,9,0,0,99,0,-0.32,down,0.33799839997664094,,,,,,,,,,,,,,,,,,,,,,,,,,,,,,,,,,,,,,,,,,,,,,,,,,,,,,,,P6AQXX,train_y,red_square,top_left,2025-06-05_17h09.38.722,HideSeek_v1,2022.2.5,59.935114239667584,
,2,6,2,1,0,-5,11,,train_dim1_1,18,30,,,,2,0,2,0,,,,,,,,,0,0,0,0,0,17,17,17,5,0,5,0,,,,,,,,,,,,,,,,,,,,,,,,,,,,,,,,,,,,,,,,,,,,,,,,,,,,,,,,,,,,,,,,30,,,,,,,,1770.7973319999874,1770.7973319999874,1770.7973319999874,1770.7973319999874,1770.7973319999874,-33,3,0,-0.32,return,0.6437062000622973,10,0,0,1,0,-0.32,return,0.5510084999259561,,,,,,,,,,,,,,,,,,,,,,,,,,,,,,,,,,,,,,,,,,,,,,,,,,,,,,,,P6AQXX,train_y,red_square,top_left,2025-06-05_17h09.38.722,HideSeek_v1,2022.2.5,59.935114239667584,
,0,9,0,5,0,-4,12,,train_dim1_1,19,30,,,,2,0,2,0,,,,,,,,,0,0,0,0,0,18,18,18,0,0,0,0,,,,,,,,,,,,,,,,,,,,,,,,,stimuli/alien_stimuli/12.png,,,,,,,,,,,,,,,,,,,,,,,,,,,,,stimuli/alien_stimuli/11.png,11,2,20,,,,,,,30,,,,,,,,1776.2747723000357,1776.2747723000357,1776.2747723000357,1776.2747723000357,1776.2747723000357,,,,,down,7.226008200086653,10,0,0,99,-0.16,0.24,down,7.144428399973549,1774.7158559999662,1776.2747723000357,0,-0.32,0.4,0.0,-0.12,0,0.0,0,-0.32,1773.0151251000352,1773.0151251000352,1773.0151251000352,1773.0151251000352,1773.0151251000352,1773.0151251000352,1773.0151251000352,1773.0151251000352,1773.0145914999769,1.8201420999830589,return,1.670060500036925,,,,,,,,,,,,,,,,,,,,,,,,,,,,,,,,,P6AQXX,train_y,red_square,top_left,2025-06-05_17h09.38.722,HideSeek_v1,2022.2.5,59.935114239667584,
,0,9,0,5,0,-4,12,,train_dim1_1,19,30,,,,2,0,2,0,,,,,,,,,0,0,0,0,0,18,18,18,1,0,1,0,,,,,,,,,,,,,,,,,,,,,,,,,,,,,,,,,,,,,,,,,,,,,,,,,,,,,,,,,,,,,,,,30,,,,,,,,1783.5119298000354,1783.5119298000354,1783.5119298000354,1783.5119298000354,1783.5119298000354,,,,,down,2.5762439999962226,10,0,0,99,-0.16,0.15999999999999998,down,2.4915316998958588,,,,,,,,,,,,,,,,,,,,,,,,,,,,,,,,,,,,,,,,,,,,,,,,,,,,,,,,P6AQXX,train_y,red_square,top_left,2025-06-05_17h09.38.722,HideSeek_v1,2022.2.5,59.935114239667584,
,0,9,0,5,0,-4,12,,train_dim1_1,19,30,,,,2,0,2,0,,,,,,,,,0,0,0,0,0,18,18,18,2,0,2,0,,,,,,,,,,,,,,,,,,,,,,,,,,,,,,,,,,,,,,,,,,,,,,,,,,,,,,,,,,,,,,,,30,,,,,,,,1786.0931229999987,1786.0931229999987,1786.0931229999987,1786.0931229999987,1786.0931229999987,,,,,down,0.4598956999834627,10,0,0,99,-0.16,0.07999999999999997,down,0.3723951999563724,,,,,,,,,,,,,,,,,,,,,,,,,,,,,,,,,,,,,,,,,,,,,,,,,,,,,,,,P6AQXX,train_y,red_square,top_left,2025-06-05_17h09.38.722,HideSeek_v1,2022.2.5,59.935114239667584,
,0,9,0,5,0,-4,12,,train_dim1_1,19,30,,,,2,0,2,0,,,,,,,,,0,0,0,0,0,18,18,18,3,0,3,0,,,,,,,,,,,,,,,,,,,,,,,,,,,,,,,,,,,,,,,,,,,,,,,,,,,,,,,,,,,,,,,,30,,,,,,,,1786.5666690999642,1786.5666690999642,1786.5666690999642,1786.5666690999642,1786.5666690999642,,,,,down,2.112019899999723,10,0,0,99,-0.16,-2.7755575615628914e-17,down,2.0165747000137344,,,,,,,,,,,,,,,,,,,,,,,,,,,,,,,,,,,,,,,,,,,,,,,,,,,,,,,,P6AQXX,train_y,red_square,top_left,2025-06-05_17h09.38.722,HideSeek_v1,2022.2.5,59.935114239667584,
,0,9,0,5,0,-4,12,,train_dim1_1,19,30,,,,2,0,2,0,,,,,,,,,0,0,0,0,0,18,18,18,4,0,4,0,,,,,,,,,,,,,,,,,,,,,,,,,,,,,,,,,,,,,,,,,,,,,,,,,,,,,,,,,,,,,,,,30,,,,,,,,1788.680415699957,1788.680415699957,1788.680415699957,1788.680415699957,1788.680415699957,-37,3,-0.16,-2.7755575615628914e-17,return,0.5247588000493124,11,0,0,1,-0.16,-2.7755575615628914e-17,return,0.44519610004499555,,,,,,,,,,,,,,,,,,,,,,,,,,,,,,,,,,,,,,,,,,,,,,,,,,,,,,,,P6AQXX,train_y,red_square,top_left,2025-06-05_17h09.38.722,HideSeek_v1,2022.2.5,59.935114239667584,
,2,5,2,5,0,0,16,,train_dim1_1,20,30,,,,2,0,2,0,,,,,,,,,0,0,0,0,0,19,19,19,0,0,0,0,,,,,,,,,,,,,,,,,,,,,,,,,stimuli/alien_stimuli/16.png,,,,,,,,,,,,,,,,,,,,,,,,,,,,,stimuli/alien_stimuli/12.png,12,0,21,,,,,,,30,,,,,,,,1793.805986499996,1793.805986499996,1793.805986499996,1793.805986499996,1793.805986499996,-37,3,0,0,return,1.4870605999603868,12,0,0,1,0,0,return,1.4055313999997452,1792.2471730000107,1793.805986499996,-0.16,0,0.32,0.0,0.16,-0.16,-0.16,-0.16,0,1790.7823005999671,1790.7823005999671,1790.7823005999671,1790.7823005999671,1790.7823005999671,1790.7823005999671,1790.7823005999671,1790.7823005999671,1790.7792452000315,1.5869847999420017,return,1.4371255999431014,,,,,,,,,,,,,,,,,,,,,,,,,,,,,,,,,P6AQXX,train_y,red_square,top_left,2025-06-05_17h09.38.722,HideSeek_v1,2022.2.5,59.935114239667584,
,2,9,2,8,0,-1,15,,train_dim1_1,21,30,,,,2,0,2,0,,,,,,,,,0,0,0,0,0,20,20,20,0,0,0,0,,,,,,,,,,,,,,,,,,,,,,,,,stimuli/alien_stimuli/15.png,,,,,,,,,,,,,,,,,,,,,,,,,,,,,stimuli/alien_stimuli/16.png,16,2,22,,,,,,,30,,,,,,,,1799.711540200049,1799.711540200049,1799.711540200049,1799.711540200049,1799.711540200049,,,,,down,2.037428200012073,12,0,0,99,0,0.24,down,1.9442675000755116,1798.1518963000271,1799.711540200049,0,0,0.0,0.0,0.0,0,0.0,0,0,1796.856104400009,1796.856104400009,1796.856104400009,1796.856104400009,1796.856104400009,1796.856104400009,1796.856104400009,1796.856104400009,1796.8510490000017,1.4027995000360534,return,1.2652739000041038,,,,,,,,,,,,,,,,,,,,,,,,,,,,,,,,,P6AQXX,train_y,red_square,top_left,2025-06-05_17h09.38.722,HideSeek_v1,2022.2.5,59.935114239667584,
,2,9,2,8,0,-1,15,,train_dim1_1,21,30,,,,2,0,2,0,,,,,,,,,0,0,0,0,0,20,20,20,1,0,1,0,,,,,,,,,,,,,,,,,,,,,,,,,,,,,,,,,,,,,,,,,,,,,,,,,,,,,,,,,,,,,,,,30,,,,,,,,1801.7568846000358,1801.7568846000358,1801.7568846000358,1801.7568846000358,1801.7568846000358,-38,3,0,0.24,return,0.3430810000281781,13,0,0,1,0,0.24,return,0.2573911000508815,,,,,,,,,,,,,,,,,,,,,,,,,,,,,,,,,,,,,,,,,,,,,,,,,,,,,,,,P6AQXX,train_y,red_square,top_left,2025-06-05_17h09.38.722,HideSeek_v1,2022.2.5,59.935114239667584,
,0,7,0,4,0,-3,13,,train_dim1_1,22,30,,,,2,0,2,0,,,,,,,,,0,0,0,0,0,21,21,21,0,0,0,0,,,,,,,,,,,,,,,,,,,,,,,,,stimuli/alien_stimuli/13.png,,,,,,,,,,,,,,,,,,,,,,,,,,,,,stimuli/alien_stimuli/15.png,15,2,23,,,,,,,30,,,,,,,,1807.3021103999345,1807.3021103999345,1807.3021103999345,1807.3021103999345,1807.3021103999345,,,,,down,1.6522704000817612,13,0,0,99,-0.16,0.08,down,1.5748259000247344,1805.7418353999965,1807.3021103999345,0,0.24,0.08,0.0,0.28,0,0.0,0,0.24,1803.6626790999435,1803.6626790999435,1803.6626790999435,1803.6626790999435,1803.6626790999435,1803.6626790999435,1803.6626790999435,1803.6626790999435,1803.6567595999923,2.187697899993509,return,2.0604238000232726,,,,,,,,,,,,,,,,,,,,,,,,,,,,,,,,,P6AQXX,train_y,red_square,top_left,2025-06-05_17h09.38.722,HideSeek_v1,2022.2.5,59.935114239667584,
,0,7,0,4,0,-3,13,,train_dim1_1,22,30,,,,2,0,2,0,,,,,,,,,0,0,0,0,0,21,21,21,1,0,1,0,,,,,,,,,,,,,,,,,,,,,,,,,,,,,,,,,,,,,,,,,,,,,,,,,,,,,,,,,,,,,,,,30,,,,,,,,1808.960850100033,1808.960850100033,1808.960850100033,1808.960850100033,1808.960850100033,,,,,down,0.37676010001450777,13,0,0,99,-0.16,0.0,down,0.29836290003731847,,,,,,,,,,,,,,,,,,,,,,,,,,,,,,,,,,,,,,,,,,,,,,,,,,,,,,,,P6AQXX,train_y,red_square,top_left,2025-06-05_17h09.38.722,HideSeek_v1,2022.2.5,59.935114239667584,
,0,7,0,4,0,-3,13,,train_dim1_1,22,30,,,,2,0,2,0,,,,,,,,,0,0,0,0,0,21,21,21,2,0,2,0,,,,,,,,,,,,,,,,,,,,,,,,,,,,,,,,,,,,,,,,,,,,,,,,,,,,,,,,,,,,,,,,30,,,,,,,,1809.3468807999743,1809.3468807999743,1809.3468807999743,1809.3468807999743,1809.3468807999743,,,,,down,0.3594882999313995,13,0,0,99,-0.16,-0.08,down,0.27074139995966107,,,,,,,,,,,,,,,,,,,,,,,,,,,,,,,,,,,,,,,,,,,,,,,,,,,,,,,,P6AQXX,train_y,red_square,top_left,2025-06-05_17h09.38.722,HideSeek_v1,2022.2.5,59.935114239667584,
,0,7,0,4,0,-3,13,,train_dim1_1,22,30,,,,2,0,2,0,,,,,,,,,0,0,0,0,0,21,21,21,3,0,3,0,,,,,,,,,,,,,,,,,,,,,,,,,,,,,,,,,,,,,,,,,,,,,,,,,,,,,,,,,,,,,,,,30,,,,,,,,1809.714710899978,1809.714710899978,1809.714710899978,1809.714710899978,1809.714710899978,-41,3,-0.16,-0.08,return,0.5270048999227583,14,0,0,1,-0.16,-0.08,return,0.4351070000557229,,,,,,,,,,,,,,,,,,,,,,,,,,,,,,,,,,,,,,,,,,,,,,,,,,,,,,,,P6AQXX,train_y,red_square,top_left,2025-06-05_17h09.38.722,HideSeek_v1,2022.2.5,59.935114239667584,
,0,8,0,3,0,-5,11,,train_dim1_1,23,30,,,,2,0,2,0,,,,,,,,,0,0,0,0,0,22,22,22,0,0,0,0,,,,,,,,,,,,,,,,,,,,,,,,,stimuli/alien_stimuli/11.png,,,,,,,,,,,,,,,,,,,,,,,,,,,,,stimuli/alien_stimuli/13.png,13,0,24,,,,,,,30,,,,,,,,1815.6748654999537,1815.6748654999537,1815.6748654999537,1815.6748654999537,1815.6748654999537,,,,,down,6.077139200060628,14,0,0,99,-0.16,0.15999999999999998,down,5.988574100076221,1814.1153582000406,1815.6748654999537,-0.16,-0.08,0.24,0.0,0.04,-0.16,-0.16,-0.16,-0.08,1811.8148863000097,1811.8148863000097,1811.8148863000097,1811.8148863000097,1811.8148863000097,1811.8148863000097,1811.8148863000097,1811.8148863000097,1811.8134882000043,2.420882700011134,return,2.2769429000327364,,,,,,,,,,,,,,,,,,,,,,,,,,,,,,,,,P6AQXX,train_y,red_square,top_left,2025-06-05_17h09.38.722,HideSeek_v1,2022.2.5,59.935114239667584,
,0,8,0,3,0,-5,11,,train_dim1_1,23,30,,,,2,0,2,0,,,,,,,,,0,0,0,0,0,22,22,22,1,0,1,0,,,,,,,,,,,,,,,,,,,,,,,,,,,,,,,,,,,,,,,,,,,,,,,,,,,,,,,,,,,,,,,,30,,,,,,,,1821.7583217000356,1821.7583217000356,1821.7583217000356,1821.7583217000356,1821.7583217000356,,,,,down,0.39243750006426126,14,0,0,99,-0.16,0.07999999999999997,down,0.310697800014168,,,,,,,,,,,,,,,,,,,,,,,,,,,,,,,,,,,,,,,,,,,,,,,,,,,,,,,,P6AQXX,train_y,red_square,top_left,2025-06-05_17h09.38.722,HideSeek_v1,2022.2.5,59.935114239667584,
,0,8,0,3,0,-5,11,,train_dim1_1,23,30,,,,2,0,2,0,,,,,,,,,0,0,0,0,0,22,22,22,2,0,2,0,,,,,,,,,,,,,,,,,,,,,,,,,,,,,,,,,,,,,,,,,,,,,,,,,,,,,,,,,,,,,,,,30,,,,,,,,1822.155605899985,1822.155605899985,1822.155605899985,1822.155605899985,1822.155605899985,,,,,down,0.3934149000560865,14,0,0,99,-0.16,-2.7755575615628914e-17,down,0.3151190000353381,,,,,,,,,,,,,,,,,,,,,,,,,,,,,,,,,,,,,,,,,,,,,,,,,,,,,,,,P6AQXX,train_y,red_square,top_left,2025-06-05_17h09.38.722,HideSeek_v1,2022.2.5,59.935114239667584,
,0,8,0,3,0,-5,11,,train_dim1_1,23,30,,,,2,0,2,0,,,,,,,,,0,0,0,0,0,22,22,22,3,0,3,0,,,,,,,,,,,,,,,,,,,,,,,,,,,,,,,,,,,,,,,,,,,,,,,,,,,,,,,,,,,,,,,,30,,,,,,,,1822.5601594999898,1822.5601594999898,1822.5601594999898,1822.5601594999898,1822.5601594999898,,,,,down,0.3765381999546662,14,0,0,99,-0.16,-0.08000000000000003,down,0.291003999998793,,,,,,,,,,,,,,,,,,,,,,,,,,,,,,,,,,,,,,,,,,,,,,,,,,,,,,,,P6AQXX,train_y,red_square,top_left,2025-06-05_17h09.38.722,HideSeek_v1,2022.2.5,59.935114239667584,
,0,8,0,3,0,-5,11,,train_dim1_1,23,30,,,,2,0,2,0,,,,,,,,,0,0,0,0,0,22,22,22,4,0,4,0,,,,,,,,,,,,,,,,,,,,,,,,,,,,,,,,,,,,,,,,,,,,,,,,,,,,,,,,,,,,,,,,30,,,,,,,,1822.941516699968,1822.941516699968,1822.941516699968,1822.941516699968,1822.941516699968,,,,,down,0.37683930003549904,14,0,0,99,-0.16,-0.16000000000000003,down,0.29764080001041293,,,,,,,,,,,,,,,,,,,,,,,,,,,,,,,,,,,,,,,,,,,,,,,,,,,,,,,,P6AQXX,train_y,red_square,top_left,2025-06-05_17h09.38.722,HideSeek_v1,2022.2.5,59.935114239667584,
,0,8,0,3,0,-5,11,,train_dim1_1,23,30,,,,2,0,2,0,,,,,,,,,0,0,0,0,0,22,22,22,5,0,5,0,,,,,,,,,,,,,,,,,,,,,,,,,,,,,,,,,,,,,,,,,,,,,,,,,,,,,,,,,,,,,,,,30,,,,,,,,1823.3248344999738,1823.3248344999738,1823.3248344999738,1823.3248344999738,1823.3248344999738,-46,3,-0.16,-0.16000000000000003,return,0.7097730999812484,15,0,0,1,-0.16,-0.16000000000000003,return,0.6277520000003278,,,,,,,,,,,,,,,,,,,,,,,,,,,,,,,,,,,,,,,,,,,,,,,,,,,,,,,,P6AQXX,train_y,red_square,top_left,2025-06-05_17h09.38.722,HideSeek_v1,2022.2.5,59.935114239667584,
,3,7,3,7,0,0,16,,train_dim1_1,24,30,,,,2,0,2,0,,,,,,,,,0,0,0,0,0,23,23,23,0,0,0,0,,,,,,,,,,,,,,,,,,,,,,,,,stimuli/alien_stimuli/16.png,,,,,,,,,,,,,,,,,,,,,,,,,,,,,stimuli/alien_stimuli/11.png,11,0,25,,,,,,,30,,,,,,,,1828.399787500035,1828.399787500035,1828.399787500035,1828.399787500035,1828.399787500035,-46,3,0.08,0.16,return,2.939572299947031,16,0,0,1,0.08,0.16,return,2.8594448000658303,1826.8422593999421,1828.399787500035,-0.16,-0.16,0.4,0.0,0.039999999999999994,-0.16,-0.16,-0.16,-0.16,1825.6106596000027,1825.6106596000027,1825.6106596000027,1825.6106596000027,1825.6106596000027,1825.6106596000027,1825.6106596000027,1825.6106596000027,1825.6081853999524,1.3528637000126764,return,1.2001154000172392,,,,,,,,,,,,,,,,,,,,,,,,,,,,,,,,,P6AQXX,train_y,red_square,top_left,2025-06-05_17h09.38.722,HideSeek_v1,2022.2.5,59.935114239667584,
,3,8,3,4,0,-4,12,,train_dim1_1,25,30,,,,2,0,2,0,,,,,,,,,0,0,0,0,0,24,24,24,0,0,0,0,,,,,,,,,,,,,,,,,,,,,,,,,stimuli/alien_stimuli/12.png,,,,,,,,,,,,,,,,,,,,,,,,,,,,,stimuli/alien_stimuli/16.png,16,3,26,,,,,,,30,,,,,,,,1836.9436564999633,1836.9436564999633,1836.9436564999633,1836.9436564999633,1836.9436564999633,,,,,down,5.59014829993248,16,0,0,99,0.08,0.15999999999999998,down,5.508310799952596,1835.3829096000409,1836.9436564999633,0.08,0.16,0.0,0.0,0.16,0.08,0.08,0.08,0.16,1832.8977067000233,1832.8977067000233,1832.8977067000233,1832.8977067000233,1832.8977067000233,1832.8977067000233,1832.8977067000233,1832.8977067000233,1832.8978941000069,2.587265699985437,return,2.4542334000580013,,,,,,,,,,,,,,,,,,,,,,,,,,,,,,,,,P6AQXX,train_y,red_square,top_left,2025-06-05_17h09.38.722,HideSeek_v1,2022.2.5,59.935114239667584,
,3,8,3,4,0,-4,12,,train_dim1_1,25,30,,,,2,0,2,0,,,,,,,,,0,0,0,0,0,24,24,24,1,0,1,0,,,,,,,,,,,,,,,,,,,,,,,,,,,,,,,,,,,,,,,,,,,,,,,,,,,,,,,,,,,,,,,,30,,,,,,,,1842.5415189999621,1842.5415189999621,1842.5415189999621,1842.5415189999621,1842.5415189999621,,,,,down,0.4597310000099242,16,0,0,99,0.08,0.07999999999999997,down,0.37666529999114573,,,,,,,,,,,,,,,,,,,,,,,,,,,,,,,,,,,,,,,,,,,,,,,,,,,,,,,,P6AQXX,train_y,red_square,top_left,2025-06-05_17h09.38.722,HideSeek_v1,2022.2.5,59.935114239667584,
,3,8,3,4,0,-4,12,,train_dim1_1,25,30,,,,2,0,2,0,,,,,,,,,0,0,0,0,0,24,24,24,2,0,2,0,,,,,,,,,,,,,,,,,,,,,,,,,,,,,,,,,,,,,,,,,,,,,,,,,,,,,,,,,,,,,,,,30,,,,,,,,1843.0089080999605,1843.0089080999605,1843.0089080999605,1843.0089080999605,1843.0089080999605,,,,,down,0.44358900003135204,16,0,0,99,0.08,-2.7755575615628914e-17,down,0.36108890001196414,,,,,,,,,,,,,,,,,,,,,,,,,,,,,,,,,,,,,,,,,,,,,,,,,,,,,,,,P6AQXX,train_y,red_square,top_left,2025-06-05_17h09.38.722,HideSeek_v1,2022.2.5,59.935114239667584,
,3,8,3,4,0,-4,12,,train_dim1_1,25,30,,,,2,0,2,0,,,,,,,,,0,0,0,0,0,24,24,24,3,0,3,0,,,,,,,,,,,,,,,,,,,,,,,,,,,,,,,,,,,,,,,,,,,,,,,,,,,,,,,,,,,,,,,,30,,,,,,,,1843.456788499956,1843.456788499956,1843.456788499956,1843.456788499956,1843.456788499956,,,,,down,0.19326890003867447,16,0,0,99,0.08,-0.08000000000000003,down,0.11690380005165935,,,,,,,,,,,,,,,,,,,,,,,,,,,,,,,,,,,,,,,,,,,,,,,,,,,,,,,,P6AQXX,train_y,red_square,top_left,2025-06-05_17h09.38.722,HideSeek_v1,2022.2.5,59.935114239667584,
,3,8,3,4,0,-4,12,,train_dim1_1,25,30,,,,2,0,2,0,,,,,,,,,0,0,0,0,0,24,24,24,4,0,4,0,,,,,,,,,,,,,,,,,,,,,,,,,,,,,,,,,,,,,,,,,,,,,,,,,,,,,,,,,,,,,,,,30,,,,,,,,1843.6645559000317,1843.6645559000317,1843.6645559000317,1843.6645559000317,1843.6645559000317,-50,3,0.08,-0.08000000000000003,return,1.1608456999529153,17,0,0,1,0.08,-0.08000000000000003,return,1.075113800005056,,,,,,,,,,,,,,,,,,,,,,,,,,,,,,,,,,,,,,,,,,,,,,,,,,,,,,,,P6AQXX,train_y,red_square,top_left,2025-06-05_17h09.38.722,HideSeek_v1,2022.2.5,59.935114239667584,
,4,9,4,6,0,-3,13,,train_dim1_1,26,30,,,,2,0,2,0,,,,,,,,,0,0,0,0,0,25,25,25,0,0,0,0,,,,,,,,,,,,,,,,,,,,,,,,,stimuli/alien_stimuli/13.png,,,,,,,,,,,,,,,,,,,,,,,,,,,,,stimuli/alien_stimuli/12.png,12,3,27,,,,,,,30,,,,,,,,1849.2833128999919,1849.2833128999919,1849.2833128999919,1849.2833128999919,1849.2833128999919,,,,,down,2.0395204999949783,17,0,0,99,0.16,0.24,down,1.9502537000225857,1847.7262482999358,1849.2833128999919,0.08,-0.08,0.32,0.0,0.07999999999999999,0.08,0.08,0.08,-0.08,1846.3935920000076,1846.3935920000076,1846.3935920000076,1846.3935920000076,1846.3935920000076,1846.3935920000076,1846.3935920000076,1846.3935920000076,1846.3920420000097,1.453298099921085,return,1.3084165999898687,,,,,,,,,,,,,,,,,,,,,,,,,,,,,,,,,P6AQXX,train_y,red_square,top_left,2025-06-05_17h09.38.722,HideSeek_v1,2022.2.5,59.935114239667584,
,4,9,4,6,0,-3,13,,train_dim1_1,26,30,,,,2,0,2,0,,,,,,,,,0,0,0,0,0,25,25,25,1,0,1,0,,,,,,,,,,,,,,,,,,,,,,,,,,,,,,,,,,,,,,,,,,,,,,,,,,,,,,,,,,,,,,,,30,,,,,,,,1851.3303179999348,1851.3303179999348,1851.3303179999348,1851.3303179999348,1851.3303179999348,,,,,down,0.3925514000002295,17,0,0,99,0.16,0.15999999999999998,down,0.3116599000059068,,,,,,,,,,,,,,,,,,,,,,,,,,,,,,,,,,,,,,,,,,,,,,,,,,,,,,,,P6AQXX,train_y,red_square,top_left,2025-06-05_17h09.38.722,HideSeek_v1,2022.2.5,59.935114239667584,
,4,9,4,6,0,-3,13,,train_dim1_1,26,30,,,,2,0,2,0,,,,,,,,,0,0,0,0,0,25,25,25,2,0,2,0,,,,,,,,,,,,,,,,,,,,,,,,,,,,,,,,,,,,,,,,,,,,,,,,,,,,,,,,,,,,,,,,30,,,,,,,,1851.7307103000348,1851.7307103000348,1851.7307103000348,1851.7307103000348,1851.7307103000348,,,,,down,0.44367830001283437,17,0,0,99,0.16,0.07999999999999997,down,0.3614039000822231,,,,,,,,,,,,,,,,,,,,,,,,,,,,,,,,,,,,,,,,,,,,,,,,,,,,,,,,P6AQXX,train_y,red_square,top_left,2025-06-05_17h09.38.722,HideSeek_v1,2022.2.5,59.935114239667584,
,4,9,4,6,0,-3,13,,train_dim1_1,26,30,,,,2,0,2,0,,,,,,,,,0,0,0,0,0,25,25,25,3,0,3,0,,,,,,,,,,,,,,,,,,,,,,,,,,,,,,,,,,,,,,,,,,,,,,,,,,,,,,,,,,,,,,,,30,,,,,,,,1852.1827151000034,1852.1827151000034,1852.1827151000034,1852.1827151000034,1852.1827151000034,-53,3,0.16,0.07999999999999997,return,0.7937718000030145,18,0,0,1,0.16,0.07999999999999997,return,0.7099397999700159,,,,,,,,,,,,,,,,,,,,,,,,,,,,,,,,,,,,,,,,,,,,,,,,,,,,,,,,P6AQXX,train_y,red_square,top_left,2025-06-05_17h09.38.722,HideSeek_v1,2022.2.5,59.935114239667584,
,3,9,3,9,0,0,16,,train_dim1_1,27,30,,,,2,0,2,0,,,,,,,,,0,0,0,0,0,26,26,26,0,0,0,0,,,,,,,,,,,,,,,,,,,,,,,,,stimuli/alien_stimuli/16.png,,,,,,,,,,,,,,,,,,,,,,,,,,,,,stimuli/alien_stimuli/13.png,13,4,28,,,,,,,30,,,,,,,,1857.8935314000119,1857.8935314000119,1857.8935314000119,1857.8935314000119,1857.8935314000119,-53,3,0.08,0.32,return,1.6704938999610022,19,0,0,1,0.08,0.32,return,1.5895230000605807,1856.3334040000336,1857.8935314000119,0.16,0.08,0.24,0.0,0.2,0.16,0.16,0.16,0.08,1854.53207820002,1854.53207820002,1854.53207820002,1854.53207820002,1854.53207820002,1854.53207820002,1854.53207820002,1854.53207820002,1854.531976100011,1.9039168000454083,return,1.7812503000022843,,,,,,,,,,,,,,,,,,,,,,,,,,,,,,,,,P6AQXX,train_y,red_square,top_left,2025-06-05_17h09.38.722,HideSeek_v1,2022.2.5,59.935114239667584,
,4,6,4,1,0,-5,11,,train_dim1_1,28,30,,,,2,0,2,0,,,,,,,,,0,0,0,0,0,27,27,27,0,0,0,0,,,,,,,,,,,,,,,,,,,,,,,,,stimuli/alien_stimuli/11.png,,,,,,,,,,,,,,,,,,,,,,,,,,,,,stimuli/alien_stimuli/16.png,16,3,29,,,,,,,30,,,,,,,,1864.0778177999891,1864.0778177999891,1864.0778177999891,1864.0778177999891,1864.0778177999891,,,,,down,2.0407639000331983,19,0,0,99,0.16,0.0,down,1.9535053999861702,1862.5219942999538,1864.0778177999891,0.08,0.32,0.0,0.0,0.32,0.08,0.08,0.08,0.32,1861.1223638999509,1861.1223638999509,1861.1223638999509,1861.1223638999509,1861.1223638999509,1861.1223638999509,1861.1223638999509,1861.1223638999509,1861.1211345999736,1.5034544999944046,return,1.383265299955383,,,,,,,,,,,,,,,,,,,,,,,,,,,,,,,,,P6AQXX,train_y,red_square,top_left,2025-06-05_17h09.38.722,HideSeek_v1,2022.2.5,59.935114239667584,
,4,6,4,1,0,-5,11,,train_dim1_1,28,30,,,,2,0,2,0,,,,,,,,,0,0,0,0,0,27,27,27,1,0,1,0,,,,,,,,,,,,,,,,,,,,,,,,,,,,,,,,,,,,,,,,,,,,,,,,,,,,,,,,,,,,,,,,30,,,,,,,,1866.1264291999396,1866.1264291999396,1866.1264291999396,1866.1264291999396,1866.1264291999396,,,,,down,0.39293009997345507,19,0,0,99,0.16,-0.08,down,0.300983399967663,,,,,,,,,,,,,,,,,,,,,,,,,,,,,,,,,,,,,,,,,,,,,,,,,,,,,,,,P6AQXX,train_y,red_square,top_left,2025-06-05_17h09.38.722,HideSeek_v1,2022.2.5,59.935114239667584,
,4,6,4,1,0,-5,11,,train_dim1_1,28,30,,,,2,0,2,0,,,,,,,,,0,0,0,0,0,27,27,27,2,0,2,0,,,,,,,,,,,,,,,,,,,,,,,,,,,,,,,,,,,,,,,,,,,,,,,,,,,,,,,,,,,,,,,,30,,,,,,,,1866.525499499985,1866.525499499985,1866.525499499985,1866.525499499985,1866.525499499985,,,,,down,0.3601899000350386,19,0,0,99,0.16,-0.16,down,0.27988589997403324,,,,,,,,,,,,,,,,,,,,,,,,,,,,,,,,,,,,,,,,,,,,,,,,,,,,,,,,P6AQXX,train_y,red_square,top_left,2025-06-05_17h09.38.722,HideSeek_v1,2022.2.5,59.935114239667584,
,4,6,4,1,0,-5,11,,train_dim1_1,28,30,,,,2,0,2,0,,,,,,,,,0,0,0,0,0,27,27,27,3,0,3,0,,,,,,,,,,,,,,,,,,,,,,,,,,,,,,,,,,,,,,,,,,,,,,,,,,,,,,,,,,,,,,,,30,,,,,,,,1866.9109417999862,1866.9109417999862,1866.9109417999862,1866.9109417999862,1866.9109417999862,,,,,down,0.42652019998058677,19,0,0,99,0.16,-0.24,down,0.31928379996679723,,,,,,,,,,,,,,,,,,,,,,,,,,,,,,,,,,,,,,,,,,,,,,,,,,,,,,,,P6AQXX,train_y,red_square,top_left,2025-06-05_17h09.38.722,HideSeek_v1,2022.2.5,59.935114239667584,
,4,6,4,1,0,-5,11,,train_dim1_1,28,30,,,,2,0,2,0,,,,,,,,,0,0,0,0,0,27,27,27,4,0,4,0,,,,,,,,,,,,,,,,,,,,,,,,,,,,,,,,,,,,,,,,,,,,,,,,,,,,,,,,,,,,,,,,30,,,,,,,,1867.3289429999422,1867.3289429999422,1867.3289429999422,1867.3289429999422,1867.3289429999422,,,,,down,0.39353809994645417,19,0,0,99,0.16,-0.32,down,0.3015826999908313,,,,,,,,,,,,,,,,,,,,,,,,,,,,,,,,,,,,,,,,,,,,,,,,,,,,,,,,P6AQXX,train_y,red_square,top_left,2025-06-05_17h09.38.722,HideSeek_v1,2022.2.5,59.935114239667584,
,4,6,4,1,0,-5,11,,train_dim1_1,28,30,,,,2,0,2,0,,,,,,,,,0,0,0,0,0,27,27,27,5,0,5,0,,,,,,,,,,,,,,,,,,,,,,,,,,,,,,,,,,,,,,,,,,,,,,,,,,,,,,,,,,,,,,,,30,,,,,,,,1867.7294064000016,1867.7294064000016,1867.7294064000016,1867.7294064000016,1867.7294064000016,-58,3,0.16,-0.32,return,0.6267679000739008,20,0,0,1,0.16,-0.32,return,0.5448121000081301,,,,,,,,,,,,,,,,,,,,,,,,,,,,,,,,,,,,,,,,,,,,,,,,,,,,,,,,P6AQXX,train_y,red_square,top_left,2025-06-05_17h09.38.722,HideSeek_v1,2022.2.5,59.935114239667584,
,2,7,2,3,0,-4,12,,train_dim1_1,29,30,,,,2,0,2,0,,,,,,,,,0,0,0,0,0,28,28,28,0,0,0,0,,,,,,,,,,,,,,,,,,,,,,,,,stimuli/alien_stimuli/12.png,,,,,,,,,,,,,,,,,,,,,,,,,,,,,stimuli/alien_stimuli/11.png,11,4,30,,,,,,,30,,,,,,,,1874.5079811000032,1874.5079811000032,1874.5079811000032,1874.5079811000032,1874.5079811000032,,,,,down,2.0060215000994503,20,0,0,99,0,0.08,down,1.9133647999260575,1872.9470606000395,1874.5079811000032,0.16,-0.32,0.4,0.0,-0.12,0.16,0.16,0.16,-0.32,1869.9305025000358,1869.9305025000358,1869.9305025000358,1869.9305025000358,1869.9305025000358,1869.9305025000358,1869.9305025000358,1869.9305025000358,1869.9282467000187,3.138022900093347,return,2.9902255000779405,,,,,,,,,,,,,,,,,,,,,,,,,,,,,,,,,P6AQXX,train_y,red_square,top_left,2025-06-05_17h09.38.722,HideSeek_v1,2022.2.5,59.935114239667584,
,2,7,2,3,0,-4,12,,train_dim1_1,29,30,,,,2,0,2,0,,,,,,,,,0,0,0,0,0,28,28,28,1,0,1,0,,,,,,,,,,,,,,,,,,,,,,,,,,,,,,,,,,,,,,,,,,,,,,,,,,,,,,,,,,,,,,,,30,,,,,,,,1876.519187400001,1876.519187400001,1876.519187400001,1876.519187400001,1876.519187400001,,,,,down,0.40925959998276085,20,0,0,99,0,0.0,down,0.3283638999564573,,,,,,,,,,,,,,,,,,,,,,,,,,,,,,,,,,,,,,,,,,,,,,,,,,,,,,,,P6AQXX,train_y,red_square,top_left,2025-06-05_17h09.38.722,HideSeek_v1,2022.2.5,59.935114239667584,
,2,7,2,3,0,-4,12,,train_dim1_1,29,30,,,,2,0,2,0,,,,,,,,,0,0,0,0,0,28,28,28,2,0,2,0,,,,,,,,,,,,,,,,,,,,,,,,,,,,,,,,,,,,,,,,,,,,,,,,,,,,,,,,,,,,,,,,30,,,,,,,,1876.934911499964,1876.934911499964,1876.934911499964,1876.934911499964,1876.934911499964,,,,,down,0.39326689997687936,20,0,0,99,0,-0.08,down,0.30879989999812096,,,,,,,,,,,,,,,,,,,,,,,,,,,,,,,,,,,,,,,,,,,,,,,,,,,,,,,,P6AQXX,train_y,red_square,top_left,2025-06-05_17h09.38.722,HideSeek_v1,2022.2.5,59.935114239667584,
,2,7,2,3,0,-4,12,,train_dim1_1,29,30,,,,2,0,2,0,,,,,,,,,0,0,0,0,0,28,28,28,3,0,3,0,,,,,,,,,,,,,,,,,,,,,,,,,,,,,,,,,,,,,,,,,,,,,,,,,,,,,,,,,,,,,,,,30,,,,,,,,1877.3379214999732,1877.3379214999732,1877.3379214999732,1877.3379214999732,1877.3379214999732,,,,,down,0.676916699972935,20,0,0,99,0,-0.16,down,0.5864168999250978,,,,,,,,,,,,,,,,,,,,,,,,,,,,,,,,,,,,,,,,,,,,,,,,,,,,,,,,P6AQXX,train_y,red_square,top_left,2025-06-05_17h09.38.722,HideSeek_v1,2022.2.5,59.935114239667584,
,2,7,2,3,0,-4,12,,train_dim1_1,29,30,,,,2,0,2,0,,,,,,,,,0,0,0,0,0,28,28,28,4,0,4,0,,,,,,,,,,,,,,,,,,,,,,,,,,,,,,,,,,,,,,,,,,,,,,,,,,,,,,,,,,,,,,,,30,,,,,,,,1878.0204482999397,1878.0204482999397,1878.0204482999397,1878.0204482999397,1878.0204482999397,-62,3,0,-0.16,return,0.6605161998886615,21,0,0,1,0,-0.16,return,0.5771763999946415,,,,,,,,,,,,,,,,,,,,,,,,,,,,,,,,,,,,,,,,,,,,,,,,,,,,,,,,P6AQXX,train_y,red_square,top_left,2025-06-05_17h09.38.722,HideSeek_v1,2022.2.5,59.935114239667584,
,0,6,0,5,0,-1,15,,train_dim1_1,30,30,,,,2,0,2,0,,,,,,,,,0,0,0,0,0,29,29,29,0,0,0,0,,,,,,,,,,,,,,,,,,,,,,,,,stimuli/alien_stimuli/15.png,,,,,,,,,,,,,,,,,,,,,,,,,,,,,stimuli/alien_stimuli/12.png,12,2,31,,,,,,,30,,,,,,,,1883.2335317999823,1883.2335317999823,1883.2335317999823,1883.2335317999823,1883.2335317999823,,,,,down,4.070862099993974,21,0,0,99,-0.16,0.0,down,3.9905860000289977,1881.671069300035,1883.2335317999823,0,-0.16,0.32,0.0,0.0,0,0.0,0,-0.16,1880.2584479999496,1880.2584479999496,1880.2584479999496,1880.2584479999496,1880.2584479999496,1880.2584479999496,1880.2584479999496,1880.2584479999496,1880.253458899958,1.5365896000294015,return,1.3823057999834418,,,,,,,,,,,,,,,,,,,,,,,,,,,,,,,,,P6AQXX,train_y,red_square,top_left,2025-06-05_17h09.38.722,HideSeek_v1,2022.2.5,59.935114239667584,
,0,6,0,5,0,-1,15,,train_dim1_1,30,30,,,,2,0,2,0,,,,,,,,,0,0,0,0,0,29,29,29,1,0,1,0,,,,,,,,,,,,,,,,,,,,,,,,,,,,,,,,,,,,,,,,,,,,,,,,,,,,,,,,,,,,,,,,30,,,,,,,,1887.3147933,1887.3147933,1887.3147933,1887.3147933,1887.3147933,-63,3,-0.16,0.0,return,0.7403686000034213,22,0,0,1,-0.16,0.0,return,0.6543047999730334,,,,,,,,,,,,,,,,,,,,,,,,,,,,,,,,,,,,,,,,,,,,,,,,,,,,,,,,P6AQXX,train_y,red_square,top_left,2025-06-05_17h09.38.722,HideSeek_v1,2022.2.5,59.935114239667584,
,,,,,,,,,,,30,,,,2,0,2,0,,,,,,,,,,,,,,,,,,,,,,,,,,,,,,,,,,,,,,,,,,,,,,,,,,,,,,,,,,,,,,,,,,,,,,,,,,stimuli/alien_stimuli/15.png,15,0,32,21,0.7,0.9166666666666667,1,1,1,30,0,conditions/schedules/train_y_first/red_square_00/top_left/inputTrain_2.1.xlsx,99,1,2,1,0,,,,,,,,,,,,,,,1,,,,,1890.9454895999515,1892.50937720004,-0.16,0,0.08,0.0,0.04,-0.16,-0.16,-0.16,0,1889.6158056999557,1889.6158056999557,1889.6158056999557,1889.6158056999557,1889.6158056999557,1889.6158056999557,1889.6158056999557,1889.6158056999557,1889.6110370999204,1.4369475999847054,return,1.3117273000534624,0,0.9,0,1,22,,,,,,,,,,,,,,,,,,,,,,,,,,,,P6AQXX,train_y,red_square,top_left,2025-06-05_17h09.38.722,HideSeek_v1,2022.2.5,59.935114239667584,
,,,,,,,,,,,,,,,3,0,3,0,0,0,0,0,,,,,,,,,,,,,,,,,,,,,,,,,,,,,,,conditions/schedules/train_y_first/red_square_00/top_left/instructions/Slide17.png,conditions/schedules/train_y_first/red_square_00/top_left/instructions/Audio17.wav,1892.50937720004,1892.497245500004,17,"[3.8870445999782532, 18.381498500006273, 16.583437499939464, 19.01990279997699, 4.623559600091539, 4.419617400038987, 5.320383599959314, 12.190337000065483, 6.988656200002879, 6.716418799944222, 10.269426600076258, 14.292086299974471, 19.006193800014444, 16.30935439991299, 43.77534839999862, 22.20848270005081, 40.553310400107875]","[0.00029170000925660133, 18.381505299941637, 0.014374300022609532, 0.053147500031627715, 0.13248780008871108, 0.06562629994004965, 0.09726399998180568, 0.0492025000276044, 0.06404540000949055, 0.07896780001465231, 0.06422449997626245, 14.292093900032341, 0.02997409994713962, 16.30936129996553, 0.013912200112827122, 22.208489500102587, 40.55331800004933]",0,,,,,,,,,,,,,,,,,,,,,,,,,,,,,,,,,,,,,,,,,,,,,,,,,,,,,,,,,,,,,,,,,,,,,,,,,,,,,,,,,,,,,,,,,,,,,,,,,,,,,,,,,,,,,,,,,,,,,,,,,,,,P6AQXX,train_y,red_square,top_left,2025-06-05_17h09.38.722,HideSeek_v1,2022.2.5,59.935114239667584,
,,,,,,,,,,,,,,,3,0,3,0,1,0,1,0,,,,,,,,,,,,,,,,,,,,,,,,,,,,,,,conditions/schedules/train_y_first/red_square_00/top_left/instructions/Slide18.png,conditions/schedules/train_y_first/red_square_00/top_left/instructions/Audio18.wav,1933.1303032999858,1933.1312713000225,18,"[3.8870445999782532, 18.381498500006273, 16.583437499939464, 19.01990279997699, 4.623559600091539, 4.419617400038987, 5.320383599959314, 12.190337000065483, 6.988656200002879, 6.716418799944222, 10.269426600076258, 14.292086299974471, 19.006193800014444, 16.30935439991299, 43.77534839999862, 22.20848270005081, 40.553310400107875, 6.636470199911855]","[0.00029170000925660133, 18.381505299941637, 0.014374300022609532, 0.053147500031627715, 0.13248780008871108, 0.06562629994004965, 0.09726399998180568, 0.0492025000276044, 0.06404540000949055, 0.07896780001465231, 0.06422449997626245, 14.292093900032341, 0.02997409994713962, 16.30936129996553, 0.013912200112827122, 22.208489500102587, 40.55331800004933, 6.636476799962111]",0,,,,,,,,,,,,,,,,,,,,,,,,,,,,,,,,,,,,,,,,,,,,,,,,,,,,,,,,,,,,,,,,,,,,,,,,,,,,,,,,,,,,,,,,,,,,,,,,,,,,,,,,,,,,,,,,,,,,,,,,,,,,P6AQXX,train_y,red_square,top_left,2025-06-05_17h09.38.722,HideSeek_v1,2022.2.5,59.935114239667584,
,,,,,,,,,,,,,,,3,0,3,0,2,0,2,0,,,,,,,,,,,,,,,,,,,,,,,,,,,,,,,conditions/schedules/train_y_first/red_square_00/top_left/instructions/Slide19.png,conditions/schedules/train_y_first/red_square_00/top_left/instructions/Audio19.wav,1939.8211256000213,1939.8193353000331,19,"[3.8870445999782532, 18.381498500006273, 16.583437499939464, 19.01990279997699, 4.623559600091539, 4.419617400038987, 5.320383599959314, 12.190337000065483, 6.988656200002879, 6.716418799944222, 10.269426600076258, 14.292086299974471, 19.006193800014444, 16.30935439991299, 43.77534839999862, 22.20848270005081, 40.553310400107875, 6.636470199911855, 10.971707599936053]","[0.00029170000925660133, 18.381505299941637, 0.014374300022609532, 0.053147500031627715, 0.13248780008871108, 0.06562629994004965, 0.09726399998180568, 0.0492025000276044, 0.06404540000949055, 0.07896780001465231, 0.06422449997626245, 14.292093900032341, 0.02997409994713962, 16.30936129996553, 0.013912200112827122, 22.208489500102587, 40.55331800004933, 0.014317599940113723, 10.97171429998707]",0,,,,,,,,,,,,,,,,,,,,,,,,,,,,,,,,,,,,,,,,,,,,,,,,,,,,,,,,,,,,,,,,,,,,,,,,,,,,,,,,,,,,,,,,,,,,,,,,,,,,,,,,,,,,,,,,,,,,,,,,,,,,P6AQXX,train_y,red_square,top_left,2025-06-05_17h09.38.722,HideSeek_v1,2022.2.5,59.935114239667584,
,,,,,,,,,,,,,,,3,0,3,0,3,0,3,0,,,,,,,,,,,,,,,,,,,,,,,,,,,,,,,conditions/schedules/train_y_first/red_square_00/top_left/instructions/Slide20.png,conditions/schedules/train_y_first/red_square_00/top_left/instructions/Audio20.wav,1950.864662899985,1950.8621085999766,20,"[3.8870445999782532, 18.381498500006273, 16.583437499939464, 19.01990279997699, 4.623559600091539, 4.419617400038987, 5.320383599959314, 12.190337000065483, 6.988656200002879, 6.716418799944222, 10.269426600076258, 14.292086299974471, 19.006193800014444, 16.30935439991299, 43.77534839999862, 22.20848270005081, 40.553310400107875, 6.636470199911855, 10.971707599936053, 12.722321100067347]","[0.00029170000925660133, 18.381505299941637, 0.014374300022609532, 0.053147500031627715, 0.13248780008871108, 0.06562629994004965, 0.09726399998180568, 0.0492025000276044, 0.06404540000949055, 0.07896780001465231, 0.06422449997626245, 14.292093900032341, 0.02997409994713962, 16.30936129996553, 0.013912200112827122, 22.208489500102587, 40.55331800004933, 0.014317599940113723, 0.030642200028523803, 12.722328000003472]",0,,,,,,,,,,,,,,,,,,,,,,,,,,,,,,,,,,,,,,,,,,,,,,,,,,,,,,,,,,,,,,,,,,,,,,,,,,,,,,,,,,,,,,,,,,,,,,,,,,,,,,,,,,,,,,,,,,,,,,,,,,,,P6AQXX,train_y,red_square,top_left,2025-06-05_17h09.38.722,HideSeek_v1,2022.2.5,59.935114239667584,
1,3,7,8,7,5,0,66,2,instr_dim1_2,,,,,,3,0,3,0,,,,,0,0,0,0,,,,,,,,,,,,,,,,,,,,,,,,,,,,,,,,,,,,,stimuli/alien_stimuli/66.png,conditions/schedules/train_y_first/red_square_00/top_left/inputInstr_2.xlsx,stimuli/alien_stimuli/66.png,1963.6922345999628,1963.6922345999628,1963.6922345999628,1963.6922345999628,1963.6893509999618,return,7.719141499954276,"[-0.16, -0.08, 0, 0.08, 0.16, 0.24, 0.32, 0.4, 0.48, 0.56]","[-0.4, -0.32, -0.24, -0.16, -0.08, 0, 0.08, 0.16, 0.24, 0.32]",7,7,8,3,0.0,0.4,1971.5686520000454,1971.5686520000454,1971.5686520000454,1971.5686520000454,1971.5686520000454,1971.5686520000454,1971.5686520000454,1971.562327299989,10.326425399980508,return,10.165191199979745,stimuli/alien_stimuli/66.png,66,3,1,,,,,,,,,,,,,,,,,,,,,,,,,,,,,,,,,,,,,,,,,,,,,,,,,,,,,,,,,,,,,,,,,,,,,,,,,,,,,,,,,,,,,,,,,P6AQXX,train_y,red_square,top_left,2025-06-05_17h09.38.722,HideSeek_v1,2022.2.5,59.935114239667584,
,,,,,,,,,,,30,,,,3,0,3,0,,,,,,,,,,,,,,,,,,,,,,,,,,,,,,,,,,,,,,,,,,,,,,,,,,,,,,,,,,,,,,,,,,,,,,,,,,,,,,21,0.7,0.9166666666666667,1,99,2,30,0,conditions/schedules/train_y_first/red_square_00/top_left/inputTrain_2.1.xlsx,99,1,2,1,0,,,,,,,,,,,,,,,,,,,,,,,,,,,,,,,,,,,,,,,,,,,,,,,,,,,,,,,,,,,,,,,,,,,,,,,,,,,P6AQXX,train_y,red_square,top_left,2025-06-05_17h09.38.722,HideSeek_v1,2022.2.5,59.935114239667584,
,,,,,,,,,,,,,,,4,0,4,0,0,0,0,0,,,,,,,,,,,,,,,,,,,,,,,,,,,,,,,conditions/schedules/train_y_first/red_square_00/top_left/instructions/Slide21.png,conditions/schedules/train_y_first/red_square_00/top_left/instructions/Audio21.wav,1981.8933203000342,1981.8880347999745,21,"[3.8870445999782532, 18.381498500006273, 16.583437499939464, 19.01990279997699, 4.623559600091539, 4.419617400038987, 5.320383599959314, 12.190337000065483, 6.988656200002879, 6.716418799944222, 10.269426600076258, 14.292086299974471, 19.006193800014444, 16.30935439991299, 43.77534839999862, 22.20848270005081, 40.553310400107875, 6.636470199911855, 10.971707599936053, 12.722321100067347, 13.853049000026658]","[0.00029170000925660133, 18.381505299941637, 0.014374300022609532, 0.053147500031627715, 0.13248780008871108, 0.06562629994004965, 0.09726399998180568, 0.0492025000276044, 0.06404540000949055, 0.07896780001465231, 0.06422449997626245, 14.292093900032341, 0.02997409994713962, 16.30936129996553, 0.013912200112827122, 22.208489500102587, 40.55331800004933, 0.014317599940113723, 0.030642200028523803, 12.722328000003472, 13.85305639996659]",0,,,,,,,,,,,,,,,,,,,,,,,,,,,,,,,,,,,,,,,,,,,,,,,,,,,,,,,,,,,,,,,,,,,,,,,,,,,,,,,,,,,,,,,,,,,,,,,,,,,,,,,,,,,,,,,,,,,,,,,,,,,,P6AQXX,train_y,red_square,top_left,2025-06-05_17h09.38.722,HideSeek_v1,2022.2.5,59.935114239667584,
2,4,5,4,5,0,0,16,2,instr_dim1_2,,,,,,4,0,4,0,,,,,0,0,0,0,,,,,,,,,,,,,,,,,,,,,,,,,,,,,,,,,,,,,stimuli/alien_stimuli/16.png,conditions/schedules/train_y_first/red_square_00/top_left/inputInstr_2.xlsx,stimuli/alien_stimuli/16.png,1995.8493193000322,1995.8493193000322,1995.8493193000322,1995.8493193000322,1995.849321700004,return,3.3653768999502063,"[-0.16, -0.08, 0, 0.08, 0.16, 0.24, 0.32, 0.4, 0.48, 0.56]","[-0.4, -0.32, -0.24, -0.16, -0.08, 0, 0.08, 0.16, 0.24, 0.32]",5,5,4,4,0.0,0.0,1999.372860500007,1999.372860500007,1999.372860500007,1999.372860500007,1999.372860500007,1999.372860500007,1999.372860500007,1999.3520103999647,12.511514900019392,return,12.35546620003879,stimuli/alien_stimuli/16.png,16,4,2,,,,,,,,,,,,,,,,,,,,,,,,,,,,,,,,,,,,,,,,,,,,,,,,,,,,,,,,,,,,,,,,,,,,,,,,,,,,,,,,,,,,,,,,,P6AQXX,train_y,red_square,top_left,2025-06-05_17h09.38.722,HideSeek_v1,2022.2.5,59.935114239667584,
,,,,,,,,,,,30,,,,4,0,4,0,,,,,,,,,,,,,,,,,,,,,,,,,,,,,,,,,,,,,,,,,,,,,,,,,,,,,,,,,,,,,,,,,,,,,,,,,,,,,,21,0.7,0.9166666666666667,1,99,2,30,0,conditions/schedules/train_y_first/red_square_00/top_left/inputTrain_2.1.xlsx,99,1,2,1,0,,,,,,,,,,,,,,,,,,,,,,,,,,,,,,,,,,,,,,,,,,,,,,,,,,,,,,,,,,,,,,,,,,,,,,,,,,,P6AQXX,train_y,red_square,top_left,2025-06-05_17h09.38.722,HideSeek_v1,2022.2.5,59.935114239667584,
,,,,,,,,,,,,,,,5,0,5,0,0,0,0,0,,,,,,,,,,,,,,,,,,,,,,,,,,,,,,,conditions/schedules/train_y_first/red_square_00/top_left/instructions/Slide22.png,conditions/schedules/train_y_first/red_square_00/top_left/instructions/Audio22.wav,2011.9706623000093,2011.9625666999725,22,"[3.8870445999782532, 18.381498500006273, 16.583437499939464, 19.01990279997699, 4.623559600091539, 4.419617400038987, 5.320383599959314, 12.190337000065483, 6.988656200002879, 6.716418799944222, 10.269426600076258, 14.292086299974471, 19.006193800014444, 16.30935439991299, 43.77534839999862, 22.20848270005081, 40.553310400107875, 6.636470199911855, 10.971707599936053, 12.722321100067347, 13.853049000026658, 32.333962899982]","[0.00029170000925660133, 18.381505299941637, 0.014374300022609532, 0.053147500031627715, 0.13248780008871108, 0.06562629994004965, 0.09726399998180568, 0.0492025000276044, 0.06404540000949055, 0.07896780001465231, 0.06422449997626245, 14.292093900032341, 0.02997409994713962, 16.30936129996553, 0.013912200112827122, 22.208489500102587, 40.55331800004933, 0.014317599940113723, 0.030642200028523803, 12.722328000003472, 13.85305639996659, 32.33396920002997]",0,,,,,,,,,,,,,,,,,,,,,,,,,,,,,,,,,,,,,,,,,,,,,,,,,,,,,,,,,,,,,,,,,,,,,,,,,,,,,,,,,,,,,,,,,,,,,,,,,,,,,,,,,,,,,,,,,,,,,,,,,,,,P6AQXX,train_y,red_square,top_left,2025-06-05_17h09.38.722,HideSeek_v1,2022.2.5,59.935114239667584,
,2,6,5,6,3,0,46,,train_dim1_2,1,30,,,,5,0,5,0,,,,,,,,,0,0,0,0,0,0,0,0,0,0,0,0,,,,,,,,,,,,,,,,,,,,,,,,,stimuli/alien_stimuli/46.png,,,,,,,,,,,,,,,,,,,,,,,,,,,,,,,,,,,,,,,30,,,,,,,,2044.3979208000237,2044.3979208000237,2044.3979208000237,2044.3979208000237,2044.3979208000237,-63,3,0,0.08,return,4.4302955999737605,0,0,0,0,0,0.08,return,4.329736199928448,,,,,,,,,,,,,,,,,,,,,,,,,,,,,,,,,,,,,,,,,,,,,,,,,,,,,,,,P6AQXX,train_y,red_square,top_left,2025-06-05_17h09.38.722,HideSeek_v1,2022.2.5,59.935114239667584,
,2,9,2,9,0,0,16,,train_dim1_2,2,30,,,,5,0,5,0,,,,,,,,,0,0,0,0,0,1,1,1,0,0,0,0,,,,,,,,,,,,,,,,,,,,,,,,,stimuli/alien_stimuli/16.png,,,,,,,,,,,,,,,,,,,,,,,,,,,,,stimuli/alien_stimuli/46.png,46,2,3,,,,,,,30,,,,,,,,2067.2781946000177,2067.2781946000177,2067.2781946000177,2067.2781946000177,2067.2781946000177,-63,3,0,0.32,return,6.324645600048825,1,0,0,1,0,0.32,return,6.228205399936996,2065.707139899954,2067.2781946000177,0.24,0.08,0.0,0.24,0.08,0.24,0.12,0.24,0.08,2050.405000400031,2050.405000400031,2050.405000400031,2050.405000400031,2050.405000400031,2050.405000400031,2050.405000400031,2050.405000400031,2050.394545799983,15.431414399994537,return,15.27905789995566,,,,,,,,,,,,,,,,,,,,,,,,,,,,,,,,,P6AQXX,train_y,red_square,top_left,2025-06-05_17h09.38.722,HideSeek_v1,2022.2.5,59.935114239667584,
,4,9,5,9,1,0,26,,train_dim1_2,3,30,,,,5,0,5,0,,,,,,,,,0,0,0,0,0,2,2,2,0,0,0,0,,,,,,,,,,,,,,,,,,,,,,,,,stimuli/alien_stimuli/26.png,,,,,,,,,,,,,,,,,,,,,,,,,,,,,stimuli/alien_stimuli/16.png,16,2,4,,,,,,,30,,,,,,,,2085.949865999981,2085.949865999981,2085.949865999981,2085.949865999981,2085.949865999981,-63,3,0.16,0.32,return,4.288655400043353,1,1,0,0,0.16,0.32,return,4.183844799990766,2084.372444799985,2085.949865999981,0,0.32,0.0,0.0,0.32,0,0.0,0,0.32,2075.1825594999827,2075.1825594999827,2075.1825594999827,2075.1825594999827,2075.1825594999827,2075.1825594999827,2075.1825594999827,2075.1825594999827,2075.16495309996,9.326491400017403,return,9.16873899998609,,,,,,,,,,,,,,,,,,,,,,,,,,,,,,,,,P6AQXX,train_y,red_square,top_left,2025-06-05_17h09.38.722,HideSeek_v1,2022.2.5,59.935114239667584,
,2,8,6,8,4,0,56,,train_dim1_2,4,30,,,,5,0,5,0,,,,,,,,,0,0,0,0,0,3,3,3,0,0,0,0,,,,,,,,,,,,,,,,,,,,,,,,,stimuli/alien_stimuli/56.png,,,,,,,,,,,,,,,,,,,,,,,,,,,,,stimuli/alien_stimuli/26.png,26,4,5,,,,,,,30,,,,,,,,2101.1907428000122,2101.1907428000122,2101.1907428000122,2101.1907428000122,2101.1907428000122,-63,3,0,0.24,return,4.168885600054637,1,0,0,0,0,0.24,return,4.079877999960445,2099.6182506999467,2101.1907428000122,0.24,0.32,0.0,0.08,0.32,0.24,0.2,0.24,0.32,2091.82219039998,2091.82219039998,2091.82219039998,2091.82219039998,2091.82219039998,2091.82219039998,2091.82219039998,2091.82219039998,2091.8121881999773,7.942155099939555,return,7.764338299981318,,,,,,,,,,,,,,,,,,,,,,,,,,,,,,,,,P6AQXX,train_y,red_square,top_left,2025-06-05_17h09.38.722,HideSeek_v1,2022.2.5,59.935114239667584,
,0,7,5,7,5,0,66,,train_dim1_2,5,30,,,,5,0,5,0,,,,,,,,,0,0,0,0,0,4,4,4,0,0,0,0,,,,,,,,,,,,,,,,,,,,,,,,,stimuli/alien_stimuli/66.png,,,,,,,,,,,,,,,,,,,,,,,,,,,,,stimuli/alien_stimuli/56.png,56,2,6,,,,,,,30,,,,,,,,2126.6136577000143,2126.6136577000143,2126.6136577000143,2126.6136577000143,2126.6136577000143,,,,,right,4.235541100031696,1,0,0,99,-0.08,0.16,right,4.142975299968384,2125.0397669000085,2126.6136577000143,0.32,0.24,0.0,0.32,0.24,0.32,0.16,0.32,0.24,2106.9323930999963,2106.9323930999963,2106.9323930999963,2106.9323930999963,2106.9323930999963,2106.9323930999963,2106.9323930999963,2106.9323930999963,2106.9246428999354,18.234107200056314,return,18.07597430003807,,,,,,,,,,,,,,,,,,,,,,,,,,,,,,,,,P6AQXX,train_y,red_square,top_left,2025-06-05_17h09.38.722,HideSeek_v1,2022.2.5,59.935114239667584,
,0,7,5,7,5,0,66,,train_dim1_2,5,30,,,,5,0,5,0,,,,,,,,,0,0,0,0,0,4,4,4,1,0,1,0,,,,,,,,,,,,,,,,,,,,,,,,,,,,,,,,,,,,,,,,,,,,,,,,,,,,,,,,,,,,,,,,30,,,,,,,,2130.84243780002,2130.84243780002,2130.84243780002,2130.84243780002,2130.84243780002,,,,,right,0.509685100056231,1,0,0,99,0.0,0.16,right,0.4259586000116542,,,,,,,,,,,,,,,,,,,,,,,,,,,,,,,,,,,,,,,,,,,,,,,,,,,,,,,,P6AQXX,train_y,red_square,top_left,2025-06-05_17h09.38.722,HideSeek_v1,2022.2.5,59.935114239667584,
,0,7,5,7,5,0,66,,train_dim1_2,5,30,,,,5,0,5,0,,,,,,,,,0,0,0,0,0,4,4,4,2,0,2,0,,,,,,,,,,,,,,,,,,,,,,,,,,,,,,,,,,,,,,,,,,,,,,,,,,,,,,,,,,,,,,,,30,,,,,,,,2131.357781799976,2131.357781799976,2131.357781799976,2131.357781799976,2131.357781799976,,,,,right,0.8773770000552759,1,0,0,99,0.08,0.16,right,0.7994476999156177,,,,,,,,,,,,,,,,,,,,,,,,,,,,,,,,,,,,,,,,,,,,,,,,,,,,,,,,P6AQXX,train_y,red_square,top_left,2025-06-05_17h09.38.722,HideSeek_v1,2022.2.5,59.935114239667584,
,0,7,5,7,5,0,66,,train_dim1_2,5,30,,,,5,0,5,0,,,,,,,,,0,0,0,0,0,4,4,4,3,0,3,0,,,,,,,,,,,,,,,,,,,,,,,,,,,,,,,,,,,,,,,,,,,,,,,,,,,,,,,,,,,,,,,,30,,,,,,,,2132.2420858000405,2132.2420858000405,2132.2420858000405,2132.2420858000405,2132.2420858000405,,,,,right,0.6268195000011474,1,0,0,99,0.16,0.16,right,0.549961700104177,,,,,,,,,,,,,,,,,,,,,,,,,,,,,,,,,,,,,,,,,,,,,,,,,,,,,,,,P6AQXX,train_y,red_square,top_left,2025-06-05_17h09.38.722,HideSeek_v1,2022.2.5,59.935114239667584,
,0,7,5,7,5,0,66,,train_dim1_2,5,30,,,,5,0,5,0,,,,,,,,,0,0,0,0,0,4,4,4,4,0,4,0,,,,,,,,,,,,,,,,,,,,,,,,,,,,,,,,,,,,,,,,,,,,,,,,,,,,,,,,,,,,,,,,30,,,,,,,,2132.8800046000397,2132.8800046000397,2132.8800046000397,2132.8800046000397,2132.8800046000397,,,,,right,0.510031700017862,1,0,0,99,0.24,0.16,right,0.42455060000065714,,,,,,,,,,,,,,,,,,,,,,,,,,,,,,,,,,,,,,,,,,,,,,,,,,,,,,,,P6AQXX,train_y,red_square,top_left,2025-06-05_17h09.38.722,HideSeek_v1,2022.2.5,59.935114239667584,
,0,7,5,7,5,0,66,,train_dim1_2,5,30,,,,5,0,5,0,,,,,,,,,0,0,0,0,0,4,4,4,5,0,5,0,,,,,,,,,,,,,,,,,,,,,,,,,,,,,,,,,,,,,,,,,,,,,,,,,,,,,,,,,,,,,,,,30,,,,,,,,2133.392743299948,2133.392743299948,2133.392743299948,2133.392743299948,2133.392743299948,-63,8,0.24,0.16,return,1.094275000039488,2,0,0,1,0.24,0.16,return,1.0192798000061885,,,,,,,,,,,,,,,,,,,,,,,,,,,,,,,,,,,,,,,,,,,,,,,,,,,,,,,,P6AQXX,train_y,red_square,top_left,2025-06-05_17h09.38.722,HideSeek_v1,2022.2.5,59.935114239667584,
,0,5,1,5,1,0,26,,train_dim1_2,6,30,,,,5,0,5,0,,,,,,,,,0,0,0,0,0,5,5,5,0,0,0,0,,,,,,,,,,,,,,,,,,,,,,,,,stimuli/alien_stimuli/26.png,,,,,,,,,,,,,,,,,,,,,,,,,,,,,stimuli/alien_stimuli/66.png,66,0,7,,,,,,,30,,,,,,,,2139.370399300009,2139.370399300009,2139.370399300009,2139.370399300009,2139.370399300009,,,,,right,3.3423572999890894,2,0,0,99,-0.08,0,right,3.2192094000056386,2137.783651100006,2139.370399300009,0.24,0.16,0.0,0.4,0.16,0.24,0.039999999999999994,0.24,0.16,2136.0681471000426,2136.0681471000426,2136.0681471000426,2136.0681471000426,2136.0681471000426,2136.0681471000426,2136.0681471000426,2136.0681471000426,2136.048962200014,1.83688620000612,return,1.6894666999578476,,,,,,,,,,,,,,,,,,,,,,,,,,,,,,,,,P6AQXX,train_y,red_square,top_left,2025-06-05_17h09.38.722,HideSeek_v1,2022.2.5,59.935114239667584,
,0,5,1,5,1,0,26,,train_dim1_2,6,30,,,,5,0,5,0,,,,,,,,,0,0,0,0,0,5,5,5,1,0,1,0,,,,,,,,,,,,,,,,,,,,,,,,,,,,,,,,,,,,,,,,,,,,,,,,,,,,,,,,,,,,,,,,30,,,,,,,,2142.6947494000196,2142.6947494000196,2142.6947494000196,2142.6947494000196,2142.6947494000196,-63,9,-0.08,0,return,0.5902161999838427,3,0,0,1,-0.08,0,return,0.4948578999610618,,,,,,,,,,,,,,,,,,,,,,,,,,,,,,,,,,,,,,,,,,,,,,,,,,,,,,,,P6AQXX,train_y,red_square,top_left,2025-06-05_17h09.38.722,HideSeek_v1,2022.2.5,59.935114239667584,
,3,5,8,5,5,0,66,,train_dim1_2,7,30,,,,5,0,5,0,,,,,,,,,0,0,0,0,0,6,6,6,0,0,0,0,,,,,,,,,,,,,,,,,,,,,,,,,stimuli/alien_stimuli/66.png,,,,,,,,,,,,,,,,,,,,,,,,,,,,,stimuli/alien_stimuli/26.png,26,0,8,,,,,,,30,,,,,,,,2147.772757199942,2147.772757199942,2147.772757199942,2147.772757199942,2147.772757199942,,,,,right,2.4038048000074923,3,0,0,99,0.16,0,right,2.306465799920261,2146.2068627999397,2147.772757199942,-0.08,0,0.0,0.08,0.0,-0.08,-0.12,-0.08,0,2144.8568948999746,2144.8568948999746,2144.8568948999746,2144.8568948999746,2144.8568948999746,2144.8568948999746,2144.8568948999746,2144.8568948999746,2144.8396217999516,1.4697657999349758,return,1.318455999949947,,,,,,,,,,,,,,,,,,,,,,,,,,,,,,,,,P6AQXX,train_y,red_square,top_left,2025-06-05_17h09.38.722,HideSeek_v1,2022.2.5,59.935114239667584,
,3,5,8,5,5,0,66,,train_dim1_2,7,30,,,,5,0,5,0,,,,,,,,,0,0,0,0,0,6,6,6,1,0,1,0,,,,,,,,,,,,,,,,,,,,,,,,,,,,,,,,,,,,,,,,,,,,,,,,,,,,,,,,,,,,,,,,30,,,,,,,,2150.1763327999506,2150.1763327999506,2150.1763327999506,2150.1763327999506,2150.1763327999506,,,,,right,0.47579459997359663,3,0,0,99,0.24,0,right,0.39368400000967085,,,,,,,,,,,,,,,,,,,,,,,,,,,,,,,,,,,,,,,,,,,,,,,,,,,,,,,,P6AQXX,train_y,red_square,top_left,2025-06-05_17h09.38.722,HideSeek_v1,2022.2.5,59.935114239667584,
,3,5,8,5,5,0,66,,train_dim1_2,7,30,,,,5,0,5,0,,,,,,,,,0,0,0,0,0,6,6,6,2,0,2,0,,,,,,,,,,,,,,,,,,,,,,,,,,,,,,,,,,,,,,,,,,,,,,,,,,,,,,,,,,,,,,,,30,,,,,,,,2150.6580609999364,2150.6580609999364,2150.6580609999364,2150.6580609999364,2150.6580609999364,,,,,right,0.4435090000042692,3,0,0,99,0.32,0,right,0.36821270000655204,,,,,,,,,,,,,,,,,,,,,,,,,,,,,,,,,,,,,,,,,,,,,,,,,,,,,,,,P6AQXX,train_y,red_square,top_left,2025-06-05_17h09.38.722,HideSeek_v1,2022.2.5,59.935114239667584,
,3,5,8,5,5,0,66,,train_dim1_2,7,30,,,,5,0,5,0,,,,,,,,,0,0,0,0,0,6,6,6,3,0,3,0,,,,,,,,,,,,,,,,,,,,,,,,,,,,,,,,,,,,,,,,,,,,,,,,,,,,,,,,,,,,,,,,30,,,,,,,,2151.1108526999597,2151.1108526999597,2151.1108526999597,2151.1108526999597,2151.1108526999597,,,,,right,0.5092941999901086,3,0,0,99,0.4,0,right,0.4185564999934286,,,,,,,,,,,,,,,,,,,,,,,,,,,,,,,,,,,,,,,,,,,,,,,,,,,,,,,,P6AQXX,train_y,red_square,top_left,2025-06-05_17h09.38.722,HideSeek_v1,2022.2.5,59.935114239667584,
,3,5,8,5,5,0,66,,train_dim1_2,7,30,,,,5,0,5,0,,,,,,,,,0,0,0,0,0,6,6,6,4,0,4,0,,,,,,,,,,,,,,,,,,,,,,,,,,,,,,,,,,,,,,,,,,,,,,,,,,,,,,,,,,,,,,,,30,,,,,,,,2151.62496070005,2151.62496070005,2151.62496070005,2151.62496070005,2151.62496070005,,,,,right,0.4434710999485105,3,0,0,99,0.48000000000000004,0,right,0.3693969000596553,,,,,,,,,,,,,,,,,,,,,,,,,,,,,,,,,,,,,,,,,,,,,,,,,,,,,,,,P6AQXX,train_y,red_square,top_left,2025-06-05_17h09.38.722,HideSeek_v1,2022.2.5,59.935114239667584,
,3,5,8,5,5,0,66,,train_dim1_2,7,30,,,,5,0,5,0,,,,,,,,,0,0,0,0,0,6,6,6,5,0,5,0,,,,,,,,,,,,,,,,,,,,,,,,,,,,,,,,,,,,,,,,,,,,,,,,,,,,,,,,,,,,,,,,30,,,,,,,,2152.0764668999473,2152.0764668999473,2152.0764668999473,2152.0764668999473,2152.0764668999473,-63,14,0.48000000000000004,0,return,0.5601580000948161,4,0,0,1,0.48000000000000004,0,return,0.48480909992940724,,,,,,,,,,,,,,,,,,,,,,,,,,,,,,,,,,,,,,,,,,,,,,,,,,,,,,,,P6AQXX,train_y,red_square,top_left,2025-06-05_17h09.38.722,HideSeek_v1,2022.2.5,59.935114239667584,
,0,9,3,9,3,0,46,,train_dim1_2,8,30,,,,5,0,5,0,,,,,,,,,0,0,0,0,0,7,7,7,0,0,0,0,,,,,,,,,,,,,,,,,,,,,,,,,stimuli/alien_stimuli/46.png,,,,,,,,,,,,,,,,,,,,,,,,,,,,,stimuli/alien_stimuli/66.png,66,3,9,,,,,,,30,,,,,,,,2157.207748899935,2157.207748899935,2157.207748899935,2157.207748899935,2157.207748899935,,,,,right,3.8412605999037623,4,0,0,99,-0.08,0.32,right,3.7302740999730304,2155.631509699975,2157.207748899935,0.48,0,0.0,0.4,0.0,0.48,0.27999999999999997,0.48,0,2154.202603999991,2154.202603999991,2154.202603999991,2154.202603999991,2154.202603999991,2154.202603999991,2154.202603999991,2154.202603999991,2154.1804668999744,1.5368771000066772,return,1.4120598000008613,,,,,,,,,,,,,,,,,,,,,,,,,,,,,,,,,P6AQXX,train_y,red_square,top_left,2025-06-05_17h09.38.722,HideSeek_v1,2022.2.5,59.935114239667584,
,0,9,3,9,3,0,46,,train_dim1_2,8,30,,,,5,0,5,0,,,,,,,,,0,0,0,0,0,7,7,7,1,0,1,0,,,,,,,,,,,,,,,,,,,,,,,,,,,,,,,,,,,,,,,,,,,,,,,,,,,,,,,,,,,,,,,,30,,,,,,,,2161.0357137999963,2161.0357137999963,2161.0357137999963,2161.0357137999963,2161.0357137999963,-63,15,-0.08,0.32,return,1.6271122000180185,4,0,0,0,-0.08,0.32,return,1.5397760999621823,,,,,,,,,,,,,,,,,,,,,,,,,,,,,,,,,,,,,,,,,,,,,,,,,,,,,,,,P6AQXX,train_y,red_square,top_left,2025-06-05_17h09.38.722,HideSeek_v1,2022.2.5,59.935114239667584,
,1,5,5,5,4,0,56,,train_dim1_2,9,30,,,,5,0,5,0,,,,,,,,,0,0,0,0,0,8,8,8,0,0,0,0,,,,,,,,,,,,,,,,,,,,,,,,,stimuli/alien_stimuli/56.png,,,,,,,,,,,,,,,,,,,,,,,,,,,,,stimuli/alien_stimuli/46.png,46,0,10,,,,,,,30,,,,,,,,2172.312848599977,2172.312848599977,2172.312848599977,2172.312848599977,2172.312848599977,,,,,right,5.289601200027391,4,0,0,99,0.0,0,right,5.1935162000590935,2170.744213799946,2172.312848599977,0.08,0.32,0.0,0.24,0.32,0.08,-0.04,0.08,0.32,2164.232108199969,2164.232108199969,2164.232108199969,2164.232108199969,2164.232108199969,2164.232108199969,2164.232108199969,2164.232108199969,2164.2222454000266,6.624647899996489,return,6.4925116000231355,,,,,,,,,,,,,,,,,,,,,,,,,,,,,,,,,P6AQXX,train_y,red_square,top_left,2025-06-05_17h09.38.722,HideSeek_v1,2022.2.5,59.935114239667584,
,1,5,5,5,4,0,56,,train_dim1_2,9,30,,,,5,0,5,0,,,,,,,,,0,0,0,0,0,8,8,8,1,0,1,0,,,,,,,,,,,,,,,,,,,,,,,,,,,,,,,,,,,,,,,,,,,,,,,,,,,,,,,,,,,,,,,,30,,,,,,,,2177.5997044999385,2177.5997044999385,2177.5997044999385,2177.5997044999385,2177.5997044999385,,,,,right,0.3598485999973491,4,0,0,99,0.08,0,right,0.2762864000396803,,,,,,,,,,,,,,,,,,,,,,,,,,,,,,,,,,,,,,,,,,,,,,,,,,,,,,,,P6AQXX,train_y,red_square,top_left,2025-06-05_17h09.38.722,HideSeek_v1,2022.2.5,59.935114239667584,
