trialInstr,x_fixStart,y_fixStart,x_corrSteps,y_corrSteps,x_nrSteps,y_nrSteps,alienID,trialLength,version,trialTrain,praclen,testlen,trial_label,break_on_off,beforeExpLoop.thisRepN,beforeExpLoop.thisTrialN,beforeExpLoop.thisN,beforeExpLoop.thisIndex,mini_instr_trials.thisRepN,mini_instr_trials.thisTrialN,mini_instr_trials.thisN,mini_instr_trials.thisIndex,instrLoop.thisRepN,instrLoop.thisTrialN,instrLoop.thisN,instrLoop.thisIndex,repeat_prac.thisRepN,repeat_prac.thisTrialN,repeat_prac.thisN,repeat_prac.thisIndex,trainLoop.thisRepN,trainLoop.thisTrialN,trainLoop.thisN,trainLoop.thisIndex,moveLoop_train.thisRepN,moveLoop_train.thisTrialN,moveLoop_train.thisN,moveLoop_train.thisIndex,experiment.thisRepN,experiment.thisTrialN,experiment.thisN,experiment.thisIndex,moveLoop_test.thisRepN,moveLoop_test.thisTrialN,moveLoop_test.thisN,moveLoop_test.thisIndex,mini_instr2_trials.thisRepN,mini_instr2_trials.thisTrialN,mini_instr2_trials.thisN,mini_instr2_trials.thisIndex,start_all_time,url,slideStim,audioStim,slides.started,sounds.started,nextButton.numClicks,nextButton.timesOn,nextButton.timesOff,prev_but.numClicks,prev_but.timesOn,prev_but.timesOff,alienStim,instrFile,alienStim_instr,gridImage_instr.started,startPos_3.started,key_instr.started,alienImage_3.started,sounds_1.started,key_instr.keys,key_instr.rt,all_x,all_y,FBy_corrSteps,FBy_fixStart,FBx_corrSteps,FBx_fixStart,FBy_pathSize_check,FBx_pathSize_check,gridImage_9.started,alienImageFB_3.started,startPosFB_3.started,keyFB_3.started,pathLine_ydir_2.started,pathLine_xdir_2.started,alienFace_3.started,sounds_2.started,RTFB_instr,keyFB_3.keys,keyFB_3.rt,draw_alienStim,draw_alienID,test_x,nrepcount,perfthres,percthres,earlierperf,earlystop,nextPrac,fileidx,praclen,saveACC_train,pracFile,nextPrac_train,addNrep,fileidx_endr,repExp,showearly,gridImage_4.started,startPos.started,movePos.started,key_resp.started,alienImage.started,buttonPress_train,RTchoice_train,cumAcctrain,aCorr,saveACC_choice,corrAns,x_movePos_end,y_movePos_end,key_resp.keys,key_resp.rt,wLy_dir,wLx_dir,x_movePos,y_movePos,text_2.started,text_2.stopped,aft_x_corrPos,aft_y_corrPos,y_pathSize_check,x_pathSize_check,y_pathdirY,x_pathdirY,x_pathdirX,x_corrPos,y_corrPos,gridImage_6.started,alienImageFB_2.started,startPosFB_2.started,movePosFB_2.started,keyFB_2.started,pathLine_xdir.started,pathLine_ydir.started,alienFace.started,sounds_4.started,RT_FBtrain,keyFB_2.keys,keyFB_2.rt,saveACC_pre,ACC,within_saveACC_train,earlystop_wloop,cumAcctrain_check,gridImage_3.started,alienImage_test.started,startPos_test.started,movePos_test.started,key_resp_test.started,wLy_dir_test,wLx_dir_test,buttonPress_test,RTchoice_test,cumAcctest,corrAns_test,key_resp_test.keys,key_resp_test.rt,text_3.started,text_3.stopped,total_time,end_all_time,key_resp_3.keys,slides_2.started,sounds_3.started,nextButton_2.numClicks,nextButton_2.timesOn,nextButton_2.timesOff,prev_but_2.numClicks,prev_but_2.timesOn,prev_but_2.timesOff,bye.started,participant,train_first,00_coordinate,starting corner,date,expName,psychopyVersion,frameRate,
,,,,,,,,,,,,,,,0,0,0,0,0,0,0,0,,,,,,,,,,,,,,,,,,,,,,,,,,,,,start_all_time,testround,conditions/schedules/train_y_first/blue_star_00/top_left/instructions/Slide1.png,conditions/schedules/train_y_first/blue_star_00/top_left/instructions/Audio1.wav,1468.7736567999236,1468.7282067000865,1,[5.803092899965122],[5.803101000143215],0,,,,,,,,,,,,,,,,,,,,,,,,,,,,,,,,,,,,,,,,,,,,,,,,,,,,,,,,,,,,,,,,,,,,,,,,,,,,,,,,,,,,,,,,,,,,,,,,,,,,,,,,,,,,,,,,,,,,,,,,,,,,P6G5HC,train_y,blue_star,top_left,2025-06-30_17h16.20.043,HideSeek_v1,2022.2.5,60.04574284569623,
,,,,,,,,,,,,,,,0,0,0,0,1,0,1,0,,,,,,,,,,,,,,,,,,,,,,,,,,,,,,,conditions/schedules/train_y_first/blue_star_00/top_left/instructions/Slide2.png,conditions/schedules/train_y_first/blue_star_00/top_left/instructions/Audio2.wav,1474.5956105999649,1474.5978617998771,2,"[5.803092899965122, 18.548182199941948]","[0.013960300013422966, 18.54819089989178]",0,,,,,,,,,,,,,,,,,,,,,,,,,,,,,,,,,,,,,,,,,,,,,,,,,,,,,,,,,,,,,,,,,,,,,,,,,,,,,,,,,,,,,,,,,,,,,,,,,,,,,,,,,,,,,,,,,,,,,,,,,,,,P6G5HC,train_y,blue_star,top_left,2025-06-30_17h16.20.043,HideSeek_v1,2022.2.5,60.04574284569623,
,,,,,,,,,,,,,,,0,0,0,0,2,0,2,0,,,,,,,,,,,,,,,,,,,,,,,,,,,,,,,conditions/schedules/train_y_first/blue_star_00/top_left/instructions/Slide3.png,conditions/schedules/train_y_first/blue_star_00/top_left/instructions/Audio3.wav,1493.2231405999046,1493.2122525998857,3,"[5.803092899965122, 18.548182199941948, 16.317152900155634]","[0.013960300013422966, 18.54819089989178, 16.31716150022112]",0,,,,,,,,,,,,,,,,,,,,,,,,,,,,,,,,,,,,,,,,,,,,,,,,,,,,,,,,,,,,,,,,,,,,,,,,,,,,,,,,,,,,,,,,,,,,,,,,,,,,,,,,,,,,,,,,,,,,,,,,,,,,P6G5HC,train_y,blue_star,top_left,2025-06-30_17h16.20.043,HideSeek_v1,2022.2.5,60.04574284569623,
,,,,,,,,,,,,,,,0,0,0,0,3,0,3,0,,,,,,,,,,,,,,,,,,,,,,,,,,,,,,,conditions/schedules/train_y_first/blue_star_00/top_left/instructions/Slide4.png,conditions/schedules/train_y_first/blue_star_00/top_left/instructions/Audio4.wav,1509.6245807998348,1509.6260051000397,4,"[5.803092899965122, 18.548182199941948, 16.317152900155634, 18.831144399940968]","[0.013960300013422966, 18.54819089989178, 0.014124099863693118, 18.831152400001884]",0,,,,,,,,,,,,,,,,,,,,,,,,,,,,,,,,,,,,,,,,,,,,,,,,,,,,,,,,,,,,,,,,,,,,,,,,,,,,,,,,,,,,,,,,,,,,,,,,,,,,,,,,,,,,,,,,,,,,,,,,,,,,P6G5HC,train_y,blue_star,top_left,2025-06-30_17h16.20.043,HideSeek_v1,2022.2.5,60.04574284569623,
,,,,,,,,,,,,,,,0,0,0,0,4,0,4,0,,,,,,,,,,,,,,,,,,,,,,,,,,,,,,,conditions/schedules/train_y_first/blue_star_00/top_left/instructions/Slide5.png,conditions/schedules/train_y_first/blue_star_00/top_left/instructions/Audio5.wav,1528.5227329998743,1528.524834800046,5,"[5.803092899965122, 18.548182199941948, 16.317152900155634, 18.831144399940968, 4.487054700031877]","[0.013960300013422966, 18.54819089989178, 0.014124099863693118, 0.0002171001397073269, 4.487062600208446]",0,,,,,,,,,,,,,,,,,,,,,,,,,,,,,,,,,,,,,,,,,,,,,,,,,,,,,,,,,,,,,,,,,,,,,,,,,,,,,,,,,,,,,,,,,,,,,,,,,,,,,,,,,,,,,,,,,,,,,,,,,,,,P6G5HC,train_y,blue_star,top_left,2025-06-30_17h16.20.043,HideSeek_v1,2022.2.5,60.04574284569623,
,,,,,,,,,,,,,,,0,0,0,0,5,0,5,0,,,,,,,,,,,,,,,,,,,,,,,,,,,,,,,conditions/schedules/train_y_first/blue_star_00/top_left/instructions/Slide6.png,conditions/schedules/train_y_first/blue_star_00/top_left/instructions/Audio6.wav,1533.0604460998438,1533.0618735000492,6,"[5.803092899965122, 18.548182199941948, 16.317152900155634, 18.831144399940968, 4.487054700031877, 4.619068499887362]","[0.013960300013422966, 18.54819089989178, 0.014124099863693118, 0.0002171001397073269, 0.01394169987179339, 4.619075799826533]",0,,,,,,,,,,,,,,,,,,,,,,,,,,,,,,,,,,,,,,,,,,,,,,,,,,,,,,,,,,,,,,,,,,,,,,,,,,,,,,,,,,,,,,,,,,,,,,,,,,,,,,,,,,,,,,,,,,,,,,,,,,,,P6G5HC,train_y,blue_star,top_left,2025-06-30_17h16.20.043,HideSeek_v1,2022.2.5,60.04574284569623,
,,,,,,,,,,,,,,,0,0,0,0,6,0,6,0,,,,,,,,,,,,,,,,,,,,,,,,,,,,,,,conditions/schedules/train_y_first/blue_star_00/top_left/instructions/Slide7.png,conditions/schedules/train_y_first/blue_star_00/top_left/instructions/Audio7.wav,1537.7305731999222,1537.7324046998285,7,"[5.803092899965122, 18.548182199941948, 16.317152900155634, 18.831144399940968, 4.487054700031877, 4.619068499887362, 5.454013699898496]","[0.013960300013422966, 18.54819089989178, 0.014124099863693118, 0.0002171001397073269, 0.01394169987179339, 0.0325464999768883, 5.4540213998407125]",0,,,,,,,,,,,,,,,,,,,,,,,,,,,,,,,,,,,,,,,,,,,,,,,,,,,,,,,,,,,,,,,,,,,,,,,,,,,,,,,,,,,,,,,,,,,,,,,,,,,,,,,,,,,,,,,,,,,,,,,,,,,,P6G5HC,train_y,blue_star,top_left,2025-06-30_17h16.20.043,HideSeek_v1,2022.2.5,60.04574284569623,
,,,,,,,,,,,,,,,0,0,0,0,7,0,7,0,,,,,,,,,,,,,,,,,,,,,,,,,,,,,,,conditions/schedules/train_y_first/blue_star_00/top_left/instructions/Slide8.png,conditions/schedules/train_y_first/blue_star_00/top_left/instructions/Audio8.wav,1543.2597488998435,1543.2540602998342,8,"[5.803092899965122, 18.548182199941948, 16.317152900155634, 18.831144399940968, 4.487054700031877, 4.619068499887362, 5.454013699898496, 11.60094609996304]","[0.013960300013422966, 18.54819089989178, 0.014124099863693118, 0.0002171001397073269, 0.01394169987179339, 0.0325464999768883, 5.4540213998407125, 11.60095339990221]",0,,,,,,,,,,,,,,,,,,,,,,,,,,,,,,,,,,,,,,,,,,,,,,,,,,,,,,,,,,,,,,,,,,,,,,,,,,,,,,,,,,,,,,,,,,,,,,,,,,,,,,,,,,,,,,,,,,,,,,,,,,,,P6G5HC,train_y,blue_star,top_left,2025-06-30_17h16.20.043,HideSeek_v1,2022.2.5,60.04574284569623,
,,,,,,,,,,,,,,,0,0,0,0,8,0,8,0,,,,,,,,,,,,,,,,,,,,,,,,,,,,,,,conditions/schedules/train_y_first/blue_star_00/top_left/instructions/Slide9.png,conditions/schedules/train_y_first/blue_star_00/top_left/instructions/Audio9.wav,1554.9270667999517,1554.913345099939,9,"[5.803092899965122, 18.548182199941948, 16.317152900155634, 18.831144399940968, 4.487054700031877, 4.619068499887362, 5.454013699898496, 11.60094609996304, 6.222617499995977]","[0.013960300013422966, 18.54819089989178, 0.014124099863693118, 0.0002171001397073269, 0.01394169987179339, 0.0325464999768883, 5.4540213998407125, 0.0002288001123815775, 6.222624900052324]",0,,,,,,,,,,,,,,,,,,,,,,,,,,,,,,,,,,,,,,,,,,,,,,,,,,,,,,,,,,,,,,,,,,,,,,,,,,,,,,,,,,,,,,,,,,,,,,,,,,,,,,,,,,,,,,,,,,,,,,,,,,,,P6G5HC,train_y,blue_star,top_left,2025-06-30_17h16.20.043,HideSeek_v1,2022.2.5,60.04574284569623,
,,,,,,,,,,,,,,,0,0,0,0,9,0,9,0,,,,,,,,,,,,,,,,,,,,,,,,,,,,,,,conditions/schedules/train_y_first/blue_star_00/top_left/instructions/Slide10.png,conditions/schedules/train_y_first/blue_star_00/top_left/instructions/Audio10.wav,1561.1972868999,1561.185221399972,10,"[5.803092899965122, 18.548182199941948, 16.317152900155634, 18.831144399940968, 4.487054700031877, 4.619068499887362, 5.454013699898496, 11.60094609996304, 6.222617499995977, 6.608680400066078]","[0.013960300013422966, 18.54819089989178, 0.014124099863693118, 0.0002171001397073269, 0.01394169987179339, 0.0325464999768883, 5.4540213998407125, 0.0002288001123815775, 0.013720700051635504, 6.608689199900255]",0,,,,,,,,,,,,,,,,,,,,,,,,,,,,,,,,,,,,,,,,,,,,,,,,,,,,,,,,,,,,,,,,,,,,,,,,,,,,,,,,,,,,,,,,,,,,,,,,,,,,,,,,,,,,,,,,,,,,,,,,,,,,P6G5HC,train_y,blue_star,top_left,2025-06-30_17h16.20.043,HideSeek_v1,2022.2.5,60.04574284569623,
,,,,,,,,,,,,,,,0,0,0,0,10,0,10,0,,,,,,,,,,,,,,,,,,,,,,,,,,,,,,,conditions/schedules/train_y_first/blue_star_00/top_left/instructions/Slide11.png,conditions/schedules/train_y_first/blue_star_00/top_left/instructions/Audio11.wav,1567.8657364998944,1567.8574951999356,11,"[5.803092899965122, 18.548182199941948, 16.317152900155634, 18.831144399940968, 4.487054700031877, 4.619068499887362, 5.454013699898496, 11.60094609996304, 6.222617499995977, 6.608680400066078, 9.847690199967474]","[0.013960300013422966, 18.54819089989178, 0.014124099863693118, 0.0002171001397073269, 0.01394169987179339, 0.0325464999768883, 5.4540213998407125, 0.0002288001123815775, 0.013720700051635504, 0.0002052001655101776, 9.847697500139475]",0,,,,,,,,,,,,,,,,,,,,,,,,,,,,,,,,,,,,,,,,,,,,,,,,,,,,,,,,,,,,,,,,,,,,,,,,,,,,,,,,,,,,,,,,,,,,,,,,,,,,,,,,,,,,,,,,,,,,,,,,,,,,P6G5HC,train_y,blue_star,top_left,2025-06-30_17h16.20.043,HideSeek_v1,2022.2.5,60.04574284569623,
,,,,,,,,,,,,,,,0,0,0,0,11,0,11,0,,,,,,,,,,,,,,,,,,,,,,,,,,,,,,,conditions/schedules/train_y_first/blue_star_00/top_left/instructions/Slide12.png,conditions/schedules/train_y_first/blue_star_00/top_left/instructions/Audio12.wav,1577.7678731998894,1577.765967799863,12,"[5.803092899965122, 18.548182199941948, 16.317152900155634, 18.831144399940968, 4.487054700031877, 4.619068499887362, 5.454013699898496, 11.60094609996304, 6.222617499995977, 6.608680400066078, 9.847690199967474, 13.457768599968404]","[0.013960300013422966, 18.54819089989178, 0.014124099863693118, 0.0002171001397073269, 0.01394169987179339, 0.0325464999768883, 5.4540213998407125, 0.0002288001123815775, 0.013720700051635504, 0.0002052001655101776, 0.046933900099247694, 13.457813099958003]",0,,,,,,,,,,,,,,,,,,,,,,,,,,,,,,,,,,,,,,,,,,,,,,,,,,,,,,,,,,,,,,,,,,,,,,,,,,,,,,,,,,,,,,,,,,,,,,,,,,,,,,,,,,,,,,,,,,,,,,,,,,,,P6G5HC,train_y,blue_star,top_left,2025-06-30_17h16.20.043,HideSeek_v1,2022.2.5,60.04574284569623,
1,0,8,0,3,0,-5,66,2,instr_dim1_1,,,,,,0,0,0,0,,,,,0,0,0,0,,,,,,,,,,,,,,,,,,,,,,,,,,,,,,,,,,,,,stimuli/alien_stimuli/66.png,conditions/schedules/train_y_first/blue_star_00/top_left/inputInstr_1.xlsx,stimuli/alien_stimuli/66.png,1591.348844199907,1591.348844199907,1591.348844199907,1591.348844199907,1591.3440054998266,return,7.709433899959549,"[-0.16, -0.08, 0, 0.08, 0.16, 0.24, 0.32, 0.4, 0.48, 0.56]","[-0.4, -0.32, -0.24, -0.16, -0.08, 0, 0.08, 0.16, 0.24, 0.32]",3,8,0,0,0.4,0.0,1599.2105209999718,1599.2105209999718,1599.2105209999718,1599.2105209999718,1599.2105209999718,1599.2105209999718,1599.2105209999718,1599.2002168999518,7.189373800065368,return,7.034208500292152,stimuli/alien_stimuli/66.png,66,0,1,,,,,,,,,,,,,,,,,,,,,,,,,,,,,,,,,,,,,,,,,,,,,,,,,,,,,,,,,,,,,,,,,,,,,,,,,,,,,,,,,,,,,,,,,P6G5HC,train_y,blue_star,top_left,2025-06-30_17h16.20.043,HideSeek_v1,2022.2.5,60.04574284569623,
,,,,,,,,,,,30,,,,0,0,0,0,,,,,,,,,,,,,,,,,,,,,,,,,,,,,,,,,,,,,,,,,,,,,,,,,,,,,,,,,,,,,,,,,,,,,,,,,,,,,,21,0.7,0,0,99,1,30,0,conditions/schedules/train_y_first/blue_star_00/top_left/inputTrain_1.1.xlsx,99,1,1,1,0,,,,,,,,,,,,,,,,,,,,,,,,,,,,,,,,,,,,,,,,,,,,,,,,,,,,,,,,,,,,,,,,,,,,,,,,,,,P6G5HC,train_y,blue_star,top_left,2025-06-30_17h16.20.043,HideSeek_v1,2022.2.5,60.04574284569623,
,,,,,,,,,,,,,,,1,0,1,0,0,0,0,0,,,,,,,,,,,,,,,,,,,,,,,,,,,,,,,conditions/schedules/train_y_first/blue_star_00/top_left/instructions/Slide13.png,conditions/schedules/train_y_first/blue_star_00/top_left/instructions/Audio13.wav,1606.4266083999537,1606.4226221998688,13,"[5.803092899965122, 18.548182199941948, 16.317152900155634, 18.831144399940968, 4.487054700031877, 4.619068499887362, 5.454013699898496, 11.60094609996304, 6.222617499995977, 6.608680400066078, 9.847690199967474, 13.457768599968404, 17.224934000056237]","[0.013960300013422966, 18.54819089989178, 0.014124099863693118, 0.0002171001397073269, 0.01394169987179339, 0.0325464999768883, 5.4540213998407125, 0.0002288001123815775, 0.013720700051635504, 0.0002052001655101776, 0.046933900099247694, 13.457813099958003, 17.22494120011106]",0,,,,,,,,,,,,,,,,,,,,,,,,,,,,,,,,,,,,,,,,,,,,,,,,,,,,,,,,,,,,,,,,,,,,,,,,,,,,,,,,,,,,,,,,,,,,,,,,,,,,,,,,,,,,,,,,,,,,,,,,,,,,P6G5HC,train_y,blue_star,top_left,2025-06-30_17h16.20.043,HideSeek_v1,2022.2.5,60.04574284569623,
,,,,,,,,,,,,,,,1,0,1,0,1,0,1,0,,,,,,,,,,,,,,,,,,,,,,,,,,,,,,,conditions/schedules/train_y_first/blue_star_00/top_left/instructions/Slide14.png,conditions/schedules/train_y_first/blue_star_00/top_left/instructions/Audio14.wav,1623.7189084999263,1623.7204074999318,14,"[5.803092899965122, 18.548182199941948, 16.317152900155634, 18.831144399940968, 4.487054700031877, 4.619068499887362, 5.454013699898496, 11.60094609996304, 6.222617499995977, 6.608680400066078, 9.847690199967474, 13.457768599968404, 17.224934000056237, 16.61314449994825]","[0.013960300013422966, 18.54819089989178, 0.014124099863693118, 0.0002171001397073269, 0.01394169987179339, 0.0325464999768883, 5.4540213998407125, 0.0002288001123815775, 0.013720700051635504, 0.0002052001655101776, 0.046933900099247694, 13.457813099958003, 0.014339499874040484, 16.613152199890465]",0,,,,,,,,,,,,,,,,,,,,,,,,,,,,,,,,,,,,,,,,,,,,,,,,,,,,,,,,,,,,,,,,,,,,,,,,,,,,,,,,,,,,,,,,,,,,,,,,,,,,,,,,,,,,,,,,,,,,,,,,,,,,P6G5HC,train_y,blue_star,top_left,2025-06-30_17h16.20.043,HideSeek_v1,2022.2.5,60.04574284569623,
2,2,8,2,8,0,0,61,2,instr_dim1_1,,,,,,1,0,1,0,,,,,0,0,0,0,,,,,,,,,,,,,,,,,,,,,,,,,,,,,,,,,,,,,stimuli/alien_stimuli/61.png,conditions/schedules/train_y_first/blue_star_00/top_left/inputInstr_1.xlsx,stimuli/alien_stimuli/61.png,1640.422844100045,1640.422844100045,1640.422844100045,1640.422844100045,1640.4178170000202,return,6.171729499939829,"[-0.16, -0.08, 0, 0.08, 0.16, 0.24, 0.32, 0.4, 0.48, 0.56]","[-0.4, -0.32, -0.24, -0.16, -0.08, 0, 0.08, 0.16, 0.24, 0.32]",8,8,2,2,0.0,0.0,1646.7598409999628,1646.7598409999628,1646.7598409999628,1646.7598409999628,1646.7598409999628,1646.7598409999628,1646.7598409999628,1646.7563017998357,8.207843699958175,return,8.044396200217307,stimuli/alien_stimuli/61.png,61,2,2,,,,,,,,,,,,,,,,,,,,,,,,,,,,,,,,,,,,,,,,,,,,,,,,,,,,,,,,,,,,,,,,,,,,,,,,,,,,,,,,,,,,,,,,,P6G5HC,train_y,blue_star,top_left,2025-06-30_17h16.20.043,HideSeek_v1,2022.2.5,60.04574284569623,
,,,,,,,,,,,30,,,,1,0,1,0,,,,,,,,,,,,,,,,,,,,,,,,,,,,,,,,,,,,,,,,,,,,,,,,,,,,,,,,,,,,,,,,,,,,,,,,,,,,,,21,0.7,0,0,99,1,30,0,conditions/schedules/train_y_first/blue_star_00/top_left/inputTrain_1.1.xlsx,99,1,1,1,0,,,,,,,,,,,,,,,,,,,,,,,,,,,,,,,,,,,,,,,,,,,,,,,,,,,,,,,,,,,,,,,,,,,,,,,,,,,P6G5HC,train_y,blue_star,top_left,2025-06-30_17h16.20.043,HideSeek_v1,2022.2.5,60.04574284569623,
,,,,,,,,,,,,,,,2,0,2,0,0,0,0,0,,,,,,,,,,,,,,,,,,,,,,,,,,,,,,,conditions/schedules/train_y_first/blue_star_00/top_left/instructions/Slide15.png,conditions/schedules/train_y_first/blue_star_00/top_left/instructions/Audio15.wav,1654.981049399823,1654.9799273000099,15,"[5.803092899965122, 18.548182199941948, 16.317152900155634, 18.831144399940968, 4.487054700031877, 4.619068499887362, 5.454013699898496, 11.60094609996304, 6.222617499995977, 6.608680400066078, 9.847690199967474, 13.457768599968404, 17.224934000056237, 16.61314449994825, 42.98199000000022]","[0.013960300013422966, 18.54819089989178, 0.014124099863693118, 0.0002171001397073269, 0.01394169987179339, 0.0325464999768883, 5.4540213998407125, 0.0002288001123815775, 0.013720700051635504, 0.0002052001655101776, 0.046933900099247694, 13.457813099958003, 0.014339499874040484, 16.613152199890465, 42.981997600058094]",0,,,,,,,,,,,,,,,,,,,,,,,,,,,,,,,,,,,,,,,,,,,,,,,,,,,,,,,,,,,,,,,,,,,,,,,,,,,,,,,,,,,,,,,,,,,,,,,,,,,,,,,,,,,,,,,,,,,,,,,,,,,,P6G5HC,train_y,blue_star,top_left,2025-06-30_17h16.20.043,HideSeek_v1,2022.2.5,60.04574284569623,
,,,,,,,,,,,,,,,2,0,2,0,1,0,1,0,,,,,,,,,,,,,,,,,,,,,,,,,,,,,,,conditions/schedules/train_y_first/blue_star_00/top_left/instructions/Slide16.png,conditions/schedules/train_y_first/blue_star_00/top_left/instructions/Audio16.wav,1698.0457853998523,1698.0327253998257,16,"[5.803092899965122, 18.548182199941948, 16.317152900155634, 18.831144399940968, 4.487054700031877, 4.619068499887362, 5.454013699898496, 11.60094609996304, 6.222617499995977, 6.608680400066078, 9.847690199967474, 13.457768599968404, 17.224934000056237, 16.61314449994825, 42.98199000000022, 21.75187400006689]","[0.013960300013422966, 18.54819089989178, 0.014124099863693118, 0.0002171001397073269, 0.01394169987179339, 0.0325464999768883, 5.4540213998407125, 0.0002288001123815775, 0.013720700051635504, 0.0002052001655101776, 0.046933900099247694, 13.457813099958003, 0.014339499874040484, 16.613152199890465, 0.034131000051274896, 21.75188140012324]",0,,,,,,,,,,,,,,,,,,,,,,,,,,,,,,,,,,,,,,,,,,,,,,,,,,,,,,,,,,,,,,,,,,,,,,,,,,,,,,,,,,,,,,,,,,,,,,,,,,,,,,,,,,,,,,,,,,,,,,,,,,,,P6G5HC,train_y,blue_star,top_left,2025-06-30_17h16.20.043,HideSeek_v1,2022.2.5,60.04574284569623,
,0,5,0,1,0,-4,65,,train_dim1_1,1,30,,,,2,0,2,0,,,,,,,,,0,0,0,0,0,0,0,0,0,0,0,0,,,,,,,,,,,,,,,,,,,,,,,,,stimuli/alien_stimuli/65.png,,,,,,,,,,,,,,,,,,,,,,,,,,,,,,,,,,,,,,,30,,,,,,,,1719.8971829998773,1719.8971829998773,1719.8971829998773,1719.8971829998773,1719.8971829998773,left,5.782362800091505,0,0,0,99,-0.24,0,left,5.690912999911234,,,,,,,,,,,,,,,,,,,,,,,,,,,,,,,,,,,,,,,,,,,,,,,,,,,,,,,,,,,,P6G5HC,train_y,blue_star,top_left,2025-06-30_17h16.20.043,HideSeek_v1,2022.2.5,60.04574284569623,
,0,5,0,1,0,-4,65,,train_dim1_1,1,30,,,,2,0,2,0,,,,,,,,,0,0,0,0,0,0,0,0,1,0,1,0,,,,,,,,,,,,,,,,,,,,,,,,,,,,,,,,,,,,,,,,,,,,,,,,,,,,,,,,,,,,,,,,30,,,,,,,,1725.6697763998527,1725.6697763998527,1725.6697763998527,1725.6697763998527,1725.6697763998527,down,2.5609353999607265,0,0,0,99,-0.24,-0.08,down,2.4811927000992,,,,,,,,,,,,,,,,,,,,,,,,,,,,,,,,,,,,,,,,,,,,,,,,,,,,,,,,,,,,P6G5HC,train_y,blue_star,top_left,2025-06-30_17h16.20.043,HideSeek_v1,2022.2.5,60.04574284569623,
,0,5,0,1,0,-4,65,,train_dim1_1,1,30,,,,2,0,2,0,,,,,,,,,0,0,0,0,0,0,0,0,2,0,2,0,,,,,,,,,,,,,,,,,,,,,,,,,,,,,,,,,,,,,,,,,,,,,,,,,,,,,,,,,,,,,,,,30,,,,,,,,1728.2385884998366,1728.2385884998366,1728.2385884998366,1728.2385884998366,1728.2385884998366,down,1.3089299998246133,0,0,0,99,-0.24,-0.16,down,1.2313690001610667,,,,,,,,,,,,,,,,,,,,,,,,,,,,,,,,,,,,,,,,,,,,,,,,,,,,,,,,,,,,P6G5HC,train_y,blue_star,top_left,2025-06-30_17h16.20.043,HideSeek_v1,2022.2.5,60.04574284569623,
,0,5,0,1,0,-4,65,,train_dim1_1,1,30,,,,2,0,2,0,,,,,,,,,0,0,0,0,0,0,0,0,3,0,3,0,,,,,,,,,,,,,,,,,,,,,,,,,,,,,,,,,,,,,,,,,,,,,,,,,,,,,,,,,,,,,,,,30,,,,,,,,1729.554667599965,1729.554667599965,1729.554667599965,1729.554667599965,1729.554667599965,down,1.360831400146708,0,0,0,99,-0.24,-0.24,down,1.2802895000204444,,,,,,,,,,,,,,,,,,,,,,,,,,,,,,,,,,,,,,,,,,,,,,,,,,,,,,,,,,,,P6G5HC,train_y,blue_star,top_left,2025-06-30_17h16.20.043,HideSeek_v1,2022.2.5,60.04574284569623,
,0,5,0,1,0,-4,65,,train_dim1_1,1,30,,,,2,0,2,0,,,,,,,,,0,0,0,0,0,0,0,0,4,0,4,0,,,,,,,,,,,,,,,,,,,,,,,,,,,,,,,,,,,,,,,,,,,,,,,,,,,,,,,,,,,,,,,,30,,,,,,,,1730.9251239998266,1730.9251239998266,1730.9251239998266,1730.9251239998266,1730.9251239998266,down,1.1237669000402093,0,0,0,99,-0.24,-0.32,down,1.0414427001960576,,,,,,,,,,,,,,,,,,,,,,,,,,,,,,,,,,,,,,,,,,,,,,,,,,,,,,,,,,,,P6G5HC,train_y,blue_star,top_left,2025-06-30_17h16.20.043,HideSeek_v1,2022.2.5,60.04574284569623,
,0,5,0,1,0,-4,65,,train_dim1_1,1,30,,,,2,0,2,0,,,,,,,,,0,0,0,0,0,0,0,0,5,0,5,0,,,,,,,,,,,,,,,,,,,,,,,,,,,,,,,,,,,,,,,,,,,,,,,,,,,,,,,,,,,,,,,,30,,,,,,,,1732.0561762000434,1732.0561762000434,1732.0561762000434,1732.0561762000434,1732.0561762000434,right,0.7437380999326706,0,0,0,99,-0.15999999999999998,-0.32,right,0.6596660001669079,,,,,,,,,,,,,,,,,,,,,,,,,,,,,,,,,,,,,,,,,,,,,,,,,,,,,,,,,,,,P6G5HC,train_y,blue_star,top_left,2025-06-30_17h16.20.043,HideSeek_v1,2022.2.5,60.04574284569623,
,0,5,0,1,0,-4,65,,train_dim1_1,1,30,,,,2,0,2,0,,,,,,,,,0,0,0,0,0,0,0,0,6,0,6,0,,,,,,,,,,,,,,,,,,,,,,,,,,,,,,,,,,,,,,,,,,,,,,,,,,,,,,,,,,,,,,,,30,,,,,,,,1732.8085020999424,1732.8085020999424,1732.8085020999424,1732.8085020999424,1732.8085020999424,down,8.782511600060388,0,0,0,99,-0.15999999999999998,-0.4,down,8.708251700270921,,,,,,,,,,,,,,,,,,,,,,,,,,,,,,,,,,,,,,,,,,,,,,,,,,,,,,,,,,,,P6G5HC,train_y,blue_star,top_left,2025-06-30_17h16.20.043,HideSeek_v1,2022.2.5,60.04574284569623,
,0,5,0,1,0,-4,65,,train_dim1_1,1,30,,,,2,0,2,0,,,,,,,,,0,0,0,0,0,0,0,0,7,0,7,0,,,,,,,,,,,,,,,,,,,,,,,,,,,,,,,,,,,,,,,,,,,,,,,,,,,,,,,,,,,,,,,,30,,,,,,,,1741.598369000014,1741.598369000014,1741.598369000014,1741.598369000014,1741.598369000014,return,0.8104011001996696,0,1,0,0,-0.15999999999999998,-0.4,return,0.7366240001283586,-5,0,-0.15999999999999998,-0.4,,,,,,,,,,,,,,,,,,,,,,,,,,,,,,,,,,,,,,,,,,,,,,,,,,,,,,,,P6G5HC,train_y,blue_star,top_left,2025-06-30_17h16.20.043,HideSeek_v1,2022.2.5,60.04574284569623,
,3,7,3,2,0,-5,66,,train_dim1_1,2,30,,,,2,0,2,0,,,,,,,,,0,0,0,0,0,1,1,1,0,0,0,0,,,,,,,,,,,,,,,,,,,,,,,,,stimuli/alien_stimuli/66.png,,,,,,,,,,,,,,,,,,,,,,,,,,,,,stimuli/alien_stimuli/65.png,65,0,3,,,,,,,30,,,,,,,,1758.5885192998685,1758.5885192998685,1758.5885192998685,1758.5885192998685,1758.5885192998685,left,4.154695000033826,0,1,0,99,0.0,0.16,left,4.052853400120512,,,,,1757.0144449998625,1758.5885192998685,-0.16,-0.32,0.32,0.0,-0.16,-0.16,-0.16,-0.16,-0.32,1743.9884835998528,1743.9884835998528,1743.9884835998528,1743.9884835998528,1743.9884835998528,1743.9884835998528,1743.9884835998528,1743.9884835998528,1743.9705261999275,13.146251699887216,return,13.009146500146016,,,,,,,,,,,,,,,,,,,,,,,,,,,,,,,,,P6G5HC,train_y,blue_star,top_left,2025-06-30_17h16.20.043,HideSeek_v1,2022.2.5,60.04574284569623,
,3,7,3,2,0,-5,66,,train_dim1_1,2,30,,,,2,0,2,0,,,,,,,,,0,0,0,0,0,1,1,1,1,0,1,0,,,,,,,,,,,,,,,,,,,,,,,,,,,,,,,,,,,,,,,,,,,,,,,,,,,,,,,,,,,,,,,,30,,,,,,,,1762.7381754999515,1762.7381754999515,1762.7381754999515,1762.7381754999515,1762.7381754999515,down,1.689090499887243,0,1,0,99,0.0,0.08,down,1.6019995000679046,,,,,,,,,,,,,,,,,,,,,,,,,,,,,,,,,,,,,,,,,,,,,,,,,,,,,,,,,,,,P6G5HC,train_y,blue_star,top_left,2025-06-30_17h16.20.043,HideSeek_v1,2022.2.5,60.04574284569623,
,3,7,3,2,0,-5,66,,train_dim1_1,2,30,,,,2,0,2,0,,,,,,,,,0,0,0,0,0,1,1,1,2,0,2,0,,,,,,,,,,,,,,,,,,,,,,,,,,,,,,,,,,,,,,,,,,,,,,,,,,,,,,,,,,,,,,,,30,,,,,,,,1764.4340204000473,1764.4340204000473,1764.4340204000473,1764.4340204000473,1764.4340204000473,down,5.230669499840587,0,1,0,99,0.0,0.0,down,5.150884100235999,,,,,,,,,,,,,,,,,,,,,,,,,,,,,,,,,,,,,,,,,,,,,,,,,,,,,,,,,,,,P6G5HC,train_y,blue_star,top_left,2025-06-30_17h16.20.043,HideSeek_v1,2022.2.5,60.04574284569623,
,3,7,3,2,0,-5,66,,train_dim1_1,2,30,,,,2,0,2,0,,,,,,,,,0,0,0,0,0,1,1,1,3,0,3,0,,,,,,,,,,,,,,,,,,,,,,,,,,,,,,,,,,,,,,,,,,,,,,,,,,,,,,,,,,,,,,,,30,,,,,,,,1769.6721926999744,1769.6721926999744,1769.6721926999744,1769.6721926999744,1769.6721926999744,down,3.662125200033188,0,1,0,99,0.0,-0.08,down,3.586256000213325,,,,,,,,,,,,,,,,,,,,,,,,,,,,,,,,,,,,,,,,,,,,,,,,,,,,,,,,,,,,P6G5HC,train_y,blue_star,top_left,2025-06-30_17h16.20.043,HideSeek_v1,2022.2.5,60.04574284569623,
,3,7,3,2,0,-5,66,,train_dim1_1,2,30,,,,2,0,2,0,,,,,,,,,0,0,0,0,0,1,1,1,4,0,4,0,,,,,,,,,,,,,,,,,,,,,,,,,,,,,,,,,,,,,,,,,,,,,,,,,,,,,,,,,,,,,,,,30,,,,,,,,1773.3442259000149,1773.3442259000149,1773.3442259000149,1773.3442259000149,1773.3442259000149,down,0.4908543999772519,0,1,0,99,0.0,-0.16,down,0.4114721999503672,,,,,,,,,,,,,,,,,,,,,,,,,,,,,,,,,,,,,,,,,,,,,,,,,,,,,,,,,,,,P6G5HC,train_y,blue_star,top_left,2025-06-30_17h16.20.043,HideSeek_v1,2022.2.5,60.04574284569623,
,3,7,3,2,0,-5,66,,train_dim1_1,2,30,,,,2,0,2,0,,,,,,,,,0,0,0,0,0,1,1,1,5,0,5,0,,,,,,,,,,,,,,,,,,,,,,,,,,,,,,,,,,,,,,,,,,,,,,,,,,,,,,,,,,,,,,,,30,,,,,,,,1773.845157600008,1773.845157600008,1773.845157600008,1773.845157600008,1773.845157600008,right,0.7750123001169413,0,1,0,99,0.08,-0.16,right,0.6869822000153363,,,,,,,,,,,,,,,,,,,,,,,,,,,,,,,,,,,,,,,,,,,,,,,,,,,,,,,,,,,,P6G5HC,train_y,blue_star,top_left,2025-06-30_17h16.20.043,HideSeek_v1,2022.2.5,60.04574284569623,
,3,7,3,2,0,-5,66,,train_dim1_1,2,30,,,,2,0,2,0,,,,,,,,,0,0,0,0,0,1,1,1,6,0,6,0,,,,,,,,,,,,,,,,,,,,,,,,,,,,,,,,,,,,,,,,,,,,,,,,,,,,,,,,,,,,,,,,30,,,,,,,,1774.6294774999842,1774.6294774999842,1774.6294774999842,1774.6294774999842,1774.6294774999842,return,0.6235404000617564,0,1,0,0,0.08,-0.16,return,0.5407509000506252,-9,0,0.08,-0.16,,,,,,,,,,,,,,,,,,,,,,,,,,,,,,,,,,,,,,,,,,,,,,,,,,,,,,,,P6G5HC,train_y,blue_star,top_left,2025-06-30_17h16.20.043,HideSeek_v1,2022.2.5,60.04574284569623,
,2,8,2,5,0,-3,64,,train_dim1_1,3,30,,,,2,0,2,0,,,,,,,,,0,0,0,0,0,2,2,2,0,0,0,0,,,,,,,,,,,,,,,,,,,,,,,,,stimuli/alien_stimuli/64.png,,,,,,,,,,,,,,,,,,,,,,,,,,,,,stimuli/alien_stimuli/66.png,66,3,4,,,,,,,30,,,,,,,,1784.3834144999273,1784.3834144999273,1784.3834144999273,1784.3834144999273,1784.3834144999273,down,5.39909359999001,0,1,0,99,0,0.15999999999999998,down,5.325918500078842,,,,,1782.8192173000425,1784.3834144999273,0.08,-0.24,0.4,0.0,-0.039999999999999994,0.08,0.08,0.08,-0.24,1776.8261053999886,1776.8261053999886,1776.8261053999886,1776.8261053999886,1776.8261053999886,1776.8261053999886,1776.8261053999886,1776.8261053999886,1776.8143413999583,6.107089099939913,return,5.965788000263274,,,,,,,,,,,,,,,,,,,,,,,,,,,,,,,,,P6G5HC,train_y,blue_star,top_left,2025-06-30_17h16.20.043,HideSeek_v1,2022.2.5,60.04574284569623,
,2,8,2,5,0,-3,64,,train_dim1_1,3,30,,,,2,0,2,0,,,,,,,,,0,0,0,0,0,2,2,2,1,0,1,0,,,,,,,,,,,,,,,,,,,,,,,,,,,,,,,,,,,,,,,,,,,,,,,,,,,,,,,,,,,,,,,,30,,,,,,,,1789.7901490000077,1789.7901490000077,1789.7901490000077,1789.7901490000077,1789.7901490000077,down,0.725140199996531,0,1,0,99,0,0.07999999999999997,down,0.6514202000107616,,,,,,,,,,,,,,,,,,,,,,,,,,,,,,,,,,,,,,,,,,,,,,,,,,,,,,,,,,,,P6G5HC,train_y,blue_star,top_left,2025-06-30_17h16.20.043,HideSeek_v1,2022.2.5,60.04574284569623,
,2,8,2,5,0,-3,64,,train_dim1_1,3,30,,,,2,0,2,0,,,,,,,,,0,0,0,0,0,2,2,2,2,0,2,0,,,,,,,,,,,,,,,,,,,,,,,,,,,,,,,,,,,,,,,,,,,,,,,,,,,,,,,,,,,,,,,,30,,,,,,,,1790.5219105998985,1790.5219105998985,1790.5219105998985,1790.5219105998985,1790.5219105998985,down,0.7937588999047875,0,1,0,99,0,-2.7755575615628914e-17,down,0.7205875001382083,,,,,,,,,,,,,,,,,,,,,,,,,,,,,,,,,,,,,,,,,,,,,,,,,,,,,,,,,,,,P6G5HC,train_y,blue_star,top_left,2025-06-30_17h16.20.043,HideSeek_v1,2022.2.5,60.04574284569623,
,2,8,2,5,0,-3,64,,train_dim1_1,3,30,,,,2,0,2,0,,,,,,,,,0,0,0,0,0,2,2,2,3,0,3,0,,,,,,,,,,,,,,,,,,,,,,,,,,,,,,,,,,,,,,,,,,,,,,,,,,,,,,,,,,,,,,,,30,,,,,,,,1791.3235687999986,1791.3235687999986,1791.3235687999986,1791.3235687999986,1791.3235687999986,return,0.7590173999778926,1,0,0,1,0,-2.7755575615628914e-17,return,0.6860326000023633,-12,0,0,-2.7755575615628914e-17,,,,,,,,,,,,,,,,,,,,,,,,,,,,,,,,,,,,,,,,,,,,,,,,,,,,,,,,P6G5HC,train_y,blue_star,top_left,2025-06-30_17h16.20.043,HideSeek_v1,2022.2.5,60.04574284569623,
,0,6,0,5,0,-1,62,,train_dim1_1,4,30,,,,2,0,2,0,,,,,,,,,0,0,0,0,0,3,3,3,0,0,0,0,,,,,,,,,,,,,,,,,,,,,,,,,stimuli/alien_stimuli/62.png,,,,,,,,,,,,,,,,,,,,,,,,,,,,,stimuli/alien_stimuli/64.png,64,2,5,,,,,,,30,,,,,,,,1800.0369553999044,1800.0369553999044,1800.0369553999044,1800.0369553999044,1800.0369553999044,return,3.9569562999531627,1,1,0,0,-0.16,0.08,return,3.8810330000706017,-12,0,-0.16,0.08,1798.4821426998824,1800.0369553999044,0,0,0.24,0.0,0.12,0,0.0,0,0,1793.6561730999965,1793.6561730999965,1793.6561730999965,1793.6561730999965,1793.6561730999965,1793.6561730999965,1793.6561730999965,1793.6561730999965,1793.6450377999804,4.939632200170308,return,4.810257199918851,,,,,,,,,,,,,,,,,,,,,,,,,,,,,,,,,P6G5HC,train_y,blue_star,top_left,2025-06-30_17h16.20.043,HideSeek_v1,2022.2.5,60.04574284569623,
,3,8,3,8,0,0,61,,train_dim1_1,5,30,,,,2,0,2,0,,,,,,,,,0,0,0,0,0,4,4,4,0,0,0,0,,,,,,,,,,,,,,,,,,,,,,,,,stimuli/alien_stimuli/61.png,,,,,,,,,,,,,,,,,,,,,,,,,,,,,stimuli/alien_stimuli/62.png,62,0,6,,,,,,,30,,,,,,,,1811.2285732999444,1811.2285732999444,1811.2285732999444,1811.2285732999444,1811.2285732999444,down,2.10530689987354,1,1,0,99,0.08,0.15999999999999998,down,2.0280042001977563,,,,,1809.6742675998248,1811.2285732999444,-0.16,0,0.08,0.0,0.04,-0.16,-0.16,-0.16,0,1805.568095699884,1805.568095699884,1805.568095699884,1805.568095699884,1805.568095699884,1805.568095699884,1805.568095699884,1805.568095699884,1805.5547746998723,4.222010600147769,return,4.075105500174686,,,,,,,,,,,,,,,,,,,,,,,,,,,,,,,,,P6G5HC,train_y,blue_star,top_left,2025-06-30_17h16.20.043,HideSeek_v1,2022.2.5,60.04574284569623,
,3,8,3,8,0,0,61,,train_dim1_1,5,30,,,,2,0,2,0,,,,,,,,,0,0,0,0,0,4,4,4,1,0,1,0,,,,,,,,,,,,,,,,,,,,,,,,,,,,,,,,,,,,,,,,,,,,,,,,,,,,,,,,,,,,,,,,30,,,,,,,,1813.3415479999967,1813.3415479999967,1813.3415479999967,1813.3415479999967,1813.3415479999967,return,1.8941820999607444,1,1,0,0,0.08,0.15999999999999998,return,1.8141471000853926,-13,0,0.08,0.15999999999999998,,,,,,,,,,,,,,,,,,,,,,,,,,,,,,,,,,,,,,,,,,,,,,,,,,,,,,,,P6G5HC,train_y,blue_star,top_left,2025-06-30_17h16.20.043,HideSeek_v1,2022.2.5,60.04574284569623,
,1,9,1,8,0,-1,62,,train_dim1_1,6,30,,,,2,0,2,0,,,,,,,,,0,0,0,0,0,5,5,5,0,0,0,0,,,,,,,,,,,,,,,,,,,,,,,,,stimuli/alien_stimuli/62.png,,,,,,,,,,,,,,,,,,,,,,,,,,,,,stimuli/alien_stimuli/61.png,61,3,7,,,,,,,30,,,,,,,,1820.5707101000007,1820.5707101000007,1820.5707101000007,1820.5707101000007,1820.5707101000007,down,2.5543651999905705,1,1,0,99,-0.08,0.24,down,2.472752300091088,,,,,1819.0158822999801,1820.5707101000007,0.08,0.24,0.0,0.0,0.24,0.08,0.08,0.08,0.24,1816.8087790999562,1816.8087790999562,1816.8087790999562,1816.8087790999562,1816.8087790999562,1816.8087790999562,1816.8087790999562,1816.8087790999562,1816.797481199866,2.320502300048247,return,2.1775466001126915,,,,,,,,,,,,,,,,,,,,,,,,,,,,,,,,,P6G5HC,train_y,blue_star,top_left,2025-06-30_17h16.20.043,HideSeek_v1,2022.2.5,60.04574284569623,
,1,9,1,8,0,-1,62,,train_dim1_1,6,30,,,,2,0,2,0,,,,,,,,,0,0,0,0,0,5,5,5,1,0,1,0,,,,,,,,,,,,,,,,,,,,,,,,,,,,,,,,,,,,,,,,,,,,,,,,,,,,,,,,,,,,,,,,30,,,,,,,,1823.1331515999045,1823.1331515999045,1823.1331515999045,1823.1331515999045,1823.1331515999045,return,2.5438388001639396,2,0,0,1,-0.08,0.24,return,2.465226200176403,-14,0,-0.08,0.24,,,,,,,,,,,,,,,,,,,,,,,,,,,,,,,,,,,,,,,,,,,,,,,,,,,,,,,,P6G5HC,train_y,blue_star,top_left,2025-06-30_17h16.20.043,HideSeek_v1,2022.2.5,60.04574284569623,
,1,8,1,5,0,-3,64,,train_dim1_1,7,30,,,,2,0,2,0,,,,,,,,,0,0,0,0,0,6,6,6,0,0,0,0,,,,,,,,,,,,,,,,,,,,,,,,,stimuli/alien_stimuli/64.png,,,,,,,,,,,,,,,,,,,,,,,,,,,,,stimuli/alien_stimuli/62.png,62,1,8,,,,,,,30,,,,,,,,1833.5683672998566,1833.5683672998566,1833.5683672998566,1833.5683672998566,1833.5683672998566,down,4.353396400110796,2,0,0,99,-0.08,0.15999999999999998,down,4.267477100016549,,,,,1832.0099206999876,1833.5683672998566,-0.08,0.24,0.08,0.0,0.28,-0.08,-0.08,-0.08,0.24,1827.2499575000256,1827.2499575000256,1827.2499575000256,1827.2499575000256,1827.2499575000256,1827.2499575000256,1827.2499575000256,1827.2499575000256,1827.2393557998817,4.872931800084189,return,4.740934600122273,,,,,,,,,,,,,,,,,,,,,,,,,,,,,,,,,P6G5HC,train_y,blue_star,top_left,2025-06-30_17h16.20.043,HideSeek_v1,2022.2.5,60.04574284569623,
,1,8,1,5,0,-3,64,,train_dim1_1,7,30,,,,2,0,2,0,,,,,,,,,0,0,0,0,0,6,6,6,1,0,1,0,,,,,,,,,,,,,,,,,,,,,,,,,,,,,,,,,,,,,,,,,,,,,,,,,,,,,,,,,,,,,,,,30,,,,,,,,1837.9284774998669,1837.9284774998669,1837.9284774998669,1837.9284774998669,1837.9284774998669,down,0.4596838001161814,2,0,0,99,-0.08,0.07999999999999997,down,0.38165330002084374,,,,,,,,,,,,,,,,,,,,,,,,,,,,,,,,,,,,,,,,,,,,,,,,,,,,,,,,,,,,P6G5HC,train_y,blue_star,top_left,2025-06-30_17h16.20.043,HideSeek_v1,2022.2.5,60.04574284569623,
,1,8,1,5,0,-3,64,,train_dim1_1,7,30,,,,2,0,2,0,,,,,,,,,0,0,0,0,0,6,6,6,2,0,2,0,,,,,,,,,,,,,,,,,,,,,,,,,,,,,,,,,,,,,,,,,,,,,,,,,,,,,,,,,,,,,,,,30,,,,,,,,1838.393783699954,1838.393783699954,1838.393783699954,1838.393783699954,1838.393783699954,down,3.7629546001553535,2,0,0,99,-0.08,-2.7755575615628914e-17,down,3.6857431000098586,,,,,,,,,,,,,,,,,,,,,,,,,,,,,,,,,,,,,,,,,,,,,,,,,,,,,,,,,,,,P6G5HC,train_y,blue_star,top_left,2025-06-30_17h16.20.043,HideSeek_v1,2022.2.5,60.04574284569623,
,1,8,1,5,0,-3,64,,train_dim1_1,7,30,,,,2,0,2,0,,,,,,,,,0,0,0,0,0,6,6,6,3,0,3,0,,,,,,,,,,,,,,,,,,,,,,,,,,,,,,,,,,,,,,,,,,,,,,,,,,,,,,,,,,,,,,,,30,,,,,,,,1842.1653837000486,1842.1653837000486,1842.1653837000486,1842.1653837000486,1842.1653837000486,down,0.6259717000648379,2,0,0,99,-0.08,-0.08000000000000003,down,0.5488299001008272,,,,,,,,,,,,,,,,,,,,,,,,,,,,,,,,,,,,,,,,,,,,,,,,,,,,,,,,,,,,P6G5HC,train_y,blue_star,top_left,2025-06-30_17h16.20.043,HideSeek_v1,2022.2.5,60.04574284569623,
,1,8,1,5,0,-3,64,,train_dim1_1,7,30,,,,2,0,2,0,,,,,,,,,0,0,0,0,0,6,6,6,4,0,4,0,,,,,,,,,,,,,,,,,,,,,,,,,,,,,,,,,,,,,,,,,,,,,,,,,,,,,,,,,,,,,,,,30,,,,,,,,1842.7974383998662,1842.7974383998662,1842.7974383998662,1842.7974383998662,1842.7974383998662,return,0.46032859990373254,2,1,0,0,-0.08,-0.08000000000000003,return,0.3882605000399053,-18,0,-0.08,-0.08000000000000003,,,,,,,,,,,,,,,,,,,,,,,,,,,,,,,,,,,,,,,,,,,,,,,,,,,,,,,,P6G5HC,train_y,blue_star,top_left,2025-06-30_17h16.20.043,HideSeek_v1,2022.2.5,60.04574284569623,
,4,7,4,7,0,0,61,,train_dim1_1,8,30,,,,2,0,2,0,,,,,,,,,0,0,0,0,0,7,7,7,0,0,0,0,,,,,,,,,,,,,,,,,,,,,,,,,stimuli/alien_stimuli/61.png,,,,,,,,,,,,,,,,,,,,,,,,,,,,,stimuli/alien_stimuli/64.png,64,1,9,,,,,,,30,,,,,,,,1848.6953361998312,1848.6953361998312,1848.6953361998312,1848.6953361998312,1848.6953361998312,down,3.3714793999679387,2,1,0,99,0.16,0.08,down,3.2861579000018537,,,,,1847.139156299876,1848.6953361998312,-0.08,0,0.24,0.0,0.12,-0.08,-0.08,-0.08,0,1844.8297518999316,1844.8297518999316,1844.8297518999316,1844.8297518999316,1844.8297518999316,1844.8297518999316,1844.8297518999316,1844.8297518999316,1844.8207486999686,2.420751699944958,return,2.286546400282532,,,,,,,,,,,,,,,,,,,,,,,,,,,,,,,,,P6G5HC,train_y,blue_star,top_left,2025-06-30_17h16.20.043,HideSeek_v1,2022.2.5,60.04574284569623,
,4,7,4,7,0,0,61,,train_dim1_1,8,30,,,,2,0,2,0,,,,,,,,,0,0,0,0,0,7,7,7,1,0,1,0,,,,,,,,,,,,,,,,,,,,,,,,,,,,,,,,,,,,,,,,,,,,,,,,,,,,,,,,,,,,,,,,30,,,,,,,,1852.0735531998798,1852.0735531998798,1852.0735531998798,1852.0735531998798,1852.0735531998798,return,0.3929423000663519,2,1,0,0,0.16,0.08,return,0.31782740005292,-19,0,0.16,0.08,,,,,,,,,,,,,,,,,,,,,,,,,,,,,,,,,,,,,,,,,,,,,,,,,,,,,,,,P6G5HC,train_y,blue_star,top_left,2025-06-30_17h16.20.043,HideSeek_v1,2022.2.5,60.04574284569623,
,4,8,4,4,0,-4,65,,train_dim1_1,9,30,,,,2,0,2,0,,,,,,,,,0,0,0,0,0,8,8,8,0,0,0,0,,,,,,,,,,,,,,,,,,,,,,,,,stimuli/alien_stimuli/65.png,,,,,,,,,,,,,,,,,,,,,,,,,,,,,stimuli/alien_stimuli/61.png,61,4,10,,,,,,,30,,,,,,,,1857.3657831000164,1857.3657831000164,1857.3657831000164,1857.3657831000164,1857.3657831000164,down,3.1561905001290143,2,1,0,99,0.16,0.15999999999999998,down,3.0740945001598448,,,,,1855.813004199881,1857.3657831000164,0.16,0.16,0.0,0.0,0.16,0.16,0.16,0.16,0.16,1854.0206122000236,1854.0206122000236,1854.0206122000236,1854.0206122000236,1854.0206122000236,1854.0206122000236,1854.0206122000236,1854.0206122000236,1854.0116296999156,1.8869374000933021,return,1.7735394001938403,,,,,,,,,,,,,,,,,,,,,,,,,,,,,,,,,P6G5HC,train_y,blue_star,top_left,2025-06-30_17h16.20.043,HideSeek_v1,2022.2.5,60.04574284569623,
,4,8,4,4,0,-4,65,,train_dim1_1,9,30,,,,2,0,2,0,,,,,,,,,0,0,0,0,0,8,8,8,1,0,1,0,,,,,,,,,,,,,,,,,,,,,,,,,,,,,,,,,,,,,,,,,,,,,,,,,,,,,,,,,,,,,,,,30,,,,,,,,1860.5314013999887,1860.5314013999887,1860.5314013999887,1860.5314013999887,1860.5314013999887,down,0.44250399991869926,2,1,0,99,0.16,0.07999999999999997,down,0.3631494001019746,,,,,,,,,,,,,,,,,,,,,,,,,,,,,,,,,,,,,,,,,,,,,,,,,,,,,,,,,,,,P6G5HC,train_y,blue_star,top_left,2025-06-30_17h16.20.043,HideSeek_v1,2022.2.5,60.04574284569623,
,4,8,4,4,0,-4,65,,train_dim1_1,9,30,,,,2,0,2,0,,,,,,,,,0,0,0,0,0,8,8,8,2,0,2,0,,,,,,,,,,,,,,,,,,,,,,,,,,,,,,,,,,,,,,,,,,,,,,,,,,,,,,,,,,,,,,,,30,,,,,,,,1860.9807802999858,1860.9807802999858,1860.9807802999858,1860.9807802999858,1860.9807802999858,down,0.5263471999205649,2,1,0,99,0.16,-2.7755575615628914e-17,down,0.45394020015373826,,,,,,,,,,,,,,,,,,,,,,,,,,,,,,,,,,,,,,,,,,,,,,,,,,,,,,,,,,,,P6G5HC,train_y,blue_star,top_left,2025-06-30_17h16.20.043,HideSeek_v1,2022.2.5,60.04574284569623,
,4,8,4,4,0,-4,65,,train_dim1_1,9,30,,,,2,0,2,0,,,,,,,,,0,0,0,0,0,8,8,8,3,0,3,0,,,,,,,,,,,,,,,,,,,,,,,,,,,,,,,,,,,,,,,,,,,,,,,,,,,,,,,,,,,,,,,,30,,,,,,,,1861.516606299905,1861.516606299905,1861.516606299905,1861.516606299905,1861.516606299905,down,0.47482030000537634,2,1,0,99,0.16,-0.08000000000000003,down,0.3923271002713591,,,,,,,,,,,,,,,,,,,,,,,,,,,,,,,,,,,,,,,,,,,,,,,,,,,,,,,,,,,,P6G5HC,train_y,blue_star,top_left,2025-06-30_17h16.20.043,HideSeek_v1,2022.2.5,60.04574284569623,
,4,8,4,4,0,-4,65,,train_dim1_1,9,30,,,,2,0,2,0,,,,,,,,,0,0,0,0,0,8,8,8,4,0,4,0,,,,,,,,,,,,,,,,,,,,,,,,,,,,,,,,,,,,,,,,,,,,,,,,,,,,,,,,,,,,,,,,30,,,,,,,,1861.9971916999202,1861.9971916999202,1861.9971916999202,1861.9971916999202,1861.9971916999202,down,0.5103052998892963,2,1,0,99,0.16,-0.16000000000000003,down,0.4245845000259578,,,,,,,,,,,,,,,,,,,,,,,,,,,,,,,,,,,,,,,,,,,,,,,,,,,,,,,,,,,,P6G5HC,train_y,blue_star,top_left,2025-06-30_17h16.20.043,HideSeek_v1,2022.2.5,60.04574284569623,
,4,8,4,4,0,-4,65,,train_dim1_1,9,30,,,,2,0,2,0,,,,,,,,,0,0,0,0,0,8,8,8,5,0,5,0,,,,,,,,,,,,,,,,,,,,,,,,,,,,,,,,,,,,,,,,,,,,,,,,,,,,,,,,,,,,,,,,30,,,,,,,,1862.5149987998884,1862.5149987998884,1862.5149987998884,1862.5149987998884,1862.5149987998884,return,0.6768161000218242,2,1,0,0,0.16,-0.16000000000000003,return,0.5997848999686539,-24,0,0.16,-0.16000000000000003,,,,,,,,,,,,,,,,,,,,,,,,,,,,,,,,,,,,,,,,,,,,,,,,,,,,,,,,P6G5HC,train_y,blue_star,top_left,2025-06-30_17h16.20.043,HideSeek_v1,2022.2.5,60.04574284569623,
,2,7,2,2,0,-5,66,,train_dim1_1,10,30,,,,2,0,2,0,,,,,,,,,0,0,0,0,0,9,9,9,0,0,0,0,,,,,,,,,,,,,,,,,,,,,,,,,stimuli/alien_stimuli/66.png,,,,,,,,,,,,,,,,,,,,,,,,,,,,,stimuli/alien_stimuli/65.png,65,4,11,,,,,,,30,,,,,,,,1868.9979725999292,1868.9979725999292,1868.9979725999292,1868.9979725999292,1868.9979725999292,down,2.752482800045982,2,1,0,99,0,0.08,down,2.6788732002023607,,,,,1867.4392093999777,1868.9979725999292,0.16,-0.08,0.32,0.0,0.07999999999999999,0.16,0.16,0.16,-0.08,1864.7621614998206,1864.7621614998206,1864.7621614998206,1864.7621614998206,1864.7621614998206,1864.7621614998206,1864.7621614998206,1864.7621614998206,1864.7537390998564,2.787686600117013,return,2.6456609000451863,,,,,,,,,,,,,,,,,,,,,,,,,,,,,,,,,P6G5HC,train_y,blue_star,top_left,2025-06-30_17h16.20.043,HideSeek_v1,2022.2.5,60.04574284569623,
,2,7,2,2,0,-5,66,,train_dim1_1,10,30,,,,2,0,2,0,,,,,,,,,0,0,0,0,0,9,9,9,1,0,1,0,,,,,,,,,,,,,,,,,,,,,,,,,,,,,,,,,,,,,,,,,,,,,,,,,,,,,,,,,,,,,,,,30,,,,,,,,1871.756394899916,1871.756394899916,1871.756394899916,1871.756394899916,1871.756394899916,down,0.42633060016669333,2,1,0,99,0,0.0,down,0.3389962001238018,,,,,,,,,,,,,,,,,,,,,,,,,,,,,,,,,,,,,,,,,,,,,,,,,,,,,,,,,,,,P6G5HC,train_y,blue_star,top_left,2025-06-30_17h16.20.043,HideSeek_v1,2022.2.5,60.04574284569623,
,2,7,2,2,0,-5,66,,train_dim1_1,10,30,,,,2,0,2,0,,,,,,,,,0,0,0,0,0,9,9,9,2,0,2,0,,,,,,,,,,,,,,,,,,,,,,,,,,,,,,,,,,,,,,,,,,,,,,,,,,,,,,,,,,,,,,,,30,,,,,,,,1872.189497999847,1872.189497999847,1872.189497999847,1872.189497999847,1872.189497999847,down,0.4600698999129236,2,1,0,99,0,-0.08,down,0.37591150030493736,,,,,,,,,,,,,,,,,,,,,,,,,,,,,,,,,,,,,,,,,,,,,,,,,,,,,,,,,,,,P6G5HC,train_y,blue_star,top_left,2025-06-30_17h16.20.043,HideSeek_v1,2022.2.5,60.04574284569623,
,2,7,2,2,0,-5,66,,train_dim1_1,10,30,,,,2,0,2,0,,,,,,,,,0,0,0,0,0,9,9,9,3,0,3,0,,,,,,,,,,,,,,,,,,,,,,,,,,,,,,,,,,,,,,,,,,,,,,,,,,,,,,,,,,,,,,,,30,,,,,,,,1872.657201499911,1872.657201499911,1872.657201499911,1872.657201499911,1872.657201499911,down,0.426348099950701,2,1,0,99,0,-0.16,down,0.3508699999656528,,,,,,,,,,,,,,,,,,,,,,,,,,,,,,,,,,,,,,,,,,,,,,,,,,,,,,,,,,,,P6G5HC,train_y,blue_star,top_left,2025-06-30_17h16.20.043,HideSeek_v1,2022.2.5,60.04574284569623,
,2,7,2,2,0,-5,66,,train_dim1_1,10,30,,,,2,0,2,0,,,,,,,,,0,0,0,0,0,9,9,9,4,0,4,0,,,,,,,,,,,,,,,,,,,,,,,,,,,,,,,,,,,,,,,,,,,,,,,,,,,,,,,,,,,,,,,,30,,,,,,,,1873.089839299908,1873.089839299908,1873.089839299908,1873.089839299908,1873.089839299908,down,0.40992369991727173,2,1,0,99,0,-0.24,down,0.32722450024448335,,,,,,,,,,,,,,,,,,,,,,,,,,,,,,,,,,,,,,,,,,,,,,,,,,,,,,,,,,,,P6G5HC,train_y,blue_star,top_left,2025-06-30_17h16.20.043,HideSeek_v1,2022.2.5,60.04574284569623,
,2,7,2,2,0,-5,66,,train_dim1_1,10,30,,,,2,0,2,0,,,,,,,,,0,0,0,0,0,9,9,9,5,0,5,0,,,,,,,,,,,,,,,,,,,,,,,,,,,,,,,,,,,,,,,,,,,,,,,,,,,,,,,,,,,,,,,,30,,,,,,,,1873.5068319998682,1873.5068319998682,1873.5068319998682,1873.5068319998682,1873.5068319998682,return,0.5097786001861095,3,0,0,1,0,-0.24,return,0.43758690007962286,-29,0,0,-0.24,,,,,,,,,,,,,,,,,,,,,,,,,,,,,,,,,,,,,,,,,,,,,,,,,,,,,,,,P6G5HC,train_y,blue_star,top_left,2025-06-30_17h16.20.043,HideSeek_v1,2022.2.5,60.04574284569623,
,4,6,4,2,0,-4,65,,train_dim1_1,11,30,,,,2,0,2,0,,,,,,,,,0,0,0,0,0,10,10,10,0,0,0,0,,,,,,,,,,,,,,,,,,,,,,,,,stimuli/alien_stimuli/65.png,,,,,,,,,,,,,,,,,,,,,,,,,,,,,stimuli/alien_stimuli/66.png,66,2,12,,,,,,,30,,,,,,,,1879.2528311000206,1879.2528311000206,1879.2528311000206,1879.2528311000206,1879.2528311000206,down,1.9704085998237133,3,0,0,99,0.16,0.0,down,1.8956573002506047,,,,,1877.697677299846,1879.2528311000206,0,-0.24,0.4,0.0,-0.039999999999999994,0,0.0,0,-0.24,1875.5724418000318,1875.5724418000318,1875.5724418000318,1875.5724418000318,1875.5724418000318,1875.5724418000318,1875.5724418000318,1875.5724418000318,1875.5626920000184,2.2207748000510037,return,2.109087800141424,,,,,,,,,,,,,,,,,,,,,,,,,,,,,,,,,P6G5HC,train_y,blue_star,top_left,2025-06-30_17h16.20.043,HideSeek_v1,2022.2.5,60.04574284569623,
,4,6,4,2,0,-4,65,,train_dim1_1,11,30,,,,2,0,2,0,,,,,,,,,0,0,0,0,0,10,10,10,1,0,1,0,,,,,,,,,,,,,,,,,,,,,,,,,,,,,,,,,,,,,,,,,,,,,,,,,,,,,,,,,,,,,,,,30,,,,,,,,1881.230599799892,1881.230599799892,1881.230599799892,1881.230599799892,1881.230599799892,down,0.4758203001692891,3,0,0,99,0.16,-0.08,down,0.3886377001181245,,,,,,,,,,,,,,,,,,,,,,,,,,,,,,,,,,,,,,,,,,,,,,,,,,,,,,,,,,,,P6G5HC,train_y,blue_star,top_left,2025-06-30_17h16.20.043,HideSeek_v1,2022.2.5,60.04574284569623,
,4,6,4,2,0,-4,65,,train_dim1_1,11,30,,,,2,0,2,0,,,,,,,,,0,0,0,0,0,10,10,10,2,0,2,0,,,,,,,,,,,,,,,,,,,,,,,,,,,,,,,,,,,,,,,,,,,,,,,,,,,,,,,,,,,,,,,,30,,,,,,,,1881.7135876999237,1881.7135876999237,1881.7135876999237,1881.7135876999237,1881.7135876999237,down,0.46007160004228354,3,0,0,99,0.16,-0.16,down,0.37830220023170114,,,,,,,,,,,,,,,,,,,,,,,,,,,,,,,,,,,,,,,,,,,,,,,,,,,,,,,,,,,,P6G5HC,train_y,blue_star,top_left,2025-06-30_17h16.20.043,HideSeek_v1,2022.2.5,60.04574284569623,
,4,6,4,2,0,-4,65,,train_dim1_1,11,30,,,,2,0,2,0,,,,,,,,,0,0,0,0,0,10,10,10,3,0,3,0,,,,,,,,,,,,,,,,,,,,,,,,,,,,,,,,,,,,,,,,,,,,,,,,,,,,,,,,,,,,,,,,30,,,,,,,,1882.1813842998818,1882.1813842998818,1882.1813842998818,1882.1813842998818,1882.1813842998818,down,0.35998590011149645,3,0,0,99,0.16,-0.24,down,0.2776126000098884,,,,,,,,,,,,,,,,,,,,,,,,,,,,,,,,,,,,,,,,,,,,,,,,,,,,,,,,,,,,P6G5HC,train_y,blue_star,top_left,2025-06-30_17h16.20.043,HideSeek_v1,2022.2.5,60.04574284569623,
,4,6,4,2,0,-4,65,,train_dim1_1,11,30,,,,2,0,2,0,,,,,,,,,0,0,0,0,0,10,10,10,4,0,4,0,,,,,,,,,,,,,,,,,,,,,,,,,,,,,,,,,,,,,,,,,,,,,,,,,,,,,,,,,,,,,,,,30,,,,,,,,1882.5471991999075,1882.5471991999075,1882.5471991999075,1882.5471991999075,1882.5471991999075,return,0.37677369988523424,4,0,0,1,0.16,-0.24,return,0.2964631002396345,-33,0,0.16,-0.24,,,,,,,,,,,,,,,,,,,,,,,,,,,,,,,,,,,,,,,,,,,,,,,,,,,,,,,,P6G5HC,train_y,blue_star,top_left,2025-06-30_17h16.20.043,HideSeek_v1,2022.2.5,60.04574284569623,
,0,5,0,5,0,0,61,,train_dim1_1,12,30,,,,2,0,2,0,,,,,,,,,0,0,0,0,0,11,11,11,0,0,0,0,,,,,,,,,,,,,,,,,,,,,,,,,stimuli/alien_stimuli/61.png,,,,,,,,,,,,,,,,,,,,,,,,,,,,,stimuli/alien_stimuli/65.png,65,4,13,,,,,,,30,,,,,,,,1887.428569199983,1887.428569199983,1887.428569199983,1887.428569199983,1887.428569199983,return,2.3688774998299778,5,0,0,1,-0.16,0,return,2.295001400168985,-33,0,-0.16,0,1885.8713358000387,1887.428569199983,0.16,-0.24,0.32,0.0,-0.07999999999999999,0.16,0.16,0.16,-0.24,1884.4750514000189,1884.4750514000189,1884.4750514000189,1884.4750514000189,1884.4750514000189,1884.4750514000189,1884.4750514000189,1884.4750514000189,1884.4700521998573,1.4868466998450458,return,1.369141000090167,,,,,,,,,,,,,,,,,,,,,,,,,,,,,,,,,P6G5HC,train_y,blue_star,top_left,2025-06-30_17h16.20.043,HideSeek_v1,2022.2.5,60.04574284569623,
,4,8,4,7,0,-1,62,,train_dim1_1,13,30,,,,2,0,2,0,,,,,,,,,0,0,0,0,0,12,12,12,0,0,0,0,,,,,,,,,,,,,,,,,,,,,,,,,stimuli/alien_stimuli/62.png,,,,,,,,,,,,,,,,,,,,,,,,,,,,,stimuli/alien_stimuli/61.png,61,0,14,,,,,,,30,,,,,,,,1894.1800941999536,1894.1800941999536,1894.1800941999536,1894.1800941999536,1894.1800941999536,down,1.6718889998737723,5,0,0,99,0.16,0.15999999999999998,down,1.5836287001147866,,,,,1892.626595800044,1894.1800941999536,-0.16,0,0.0,0.0,0.0,-0.16,-0.16,-0.16,0,1891.352513599908,1891.352513599908,1891.352513599908,1891.352513599908,1891.352513599908,1891.352513599908,1891.352513599908,1891.352513599908,1891.3425684000365,1.3696103999391198,return,1.2531587001867592,,,,,,,,,,,,,,,,,,,,,,,,,,,,,,,,,P6G5HC,train_y,blue_star,top_left,2025-06-30_17h16.20.043,HideSeek_v1,2022.2.5,60.04574284569623,
,4,8,4,7,0,-1,62,,train_dim1_1,13,30,,,,2,0,2,0,,,,,,,,,0,0,0,0,0,12,12,12,1,0,1,0,,,,,,,,,,,,,,,,,,,,,,,,,,,,,,,,,,,,,,,,,,,,,,,,,,,,,,,,,,,,,,,,30,,,,,,,,1895.8603286999278,1895.8603286999278,1895.8603286999278,1895.8603286999278,1895.8603286999278,return,0.40922689996659756,6,0,0,1,0.16,0.15999999999999998,return,0.3310954999178648,-34,0,0.16,0.15999999999999998,,,,,,,,,,,,,,,,,,,,,,,,,,,,,,,,,,,,,,,,,,,,,,,,,,,,,,,,P6G5HC,train_y,blue_star,top_left,2025-06-30_17h16.20.043,HideSeek_v1,2022.2.5,60.04574284569623,
,2,7,2,2,0,-5,66,,train_dim1_1,14,30,,,,2,0,2,0,,,,,,,,,0,0,0,0,0,13,13,13,0,0,0,0,,,,,,,,,,,,,,,,,,,,,,,,,stimuli/alien_stimuli/66.png,,,,,,,,,,,,,,,,,,,,,,,,,,,,,stimuli/alien_stimuli/62.png,62,4,15,,,,,,,30,,,,,,,,1900.7336508999579,1900.7336508999579,1900.7336508999579,1900.7336508999579,1900.7336508999579,down,1.57422999991104,6,0,0,99,0,0.08,down,1.4869937002658844,,,,,1899.1823085998185,1900.7336508999579,0.16,0.16,0.08,0.0,0.2,0.16,0.16,0.16,0.16,1897.8240161999129,1897.8240161999129,1897.8240161999129,1897.8240161999129,1897.8240161999129,1897.8240161999129,1897.8240161999129,1897.8240161999129,1897.8145729000214,1.4534289001021534,return,1.3413850001525134,,,,,,,,,,,,,,,,,,,,,,,,,,,,,,,,,P6G5HC,train_y,blue_star,top_left,2025-06-30_17h16.20.043,HideSeek_v1,2022.2.5,60.04574284569623,
,2,7,2,2,0,-5,66,,train_dim1_1,14,30,,,,2,0,2,0,,,,,,,,,0,0,0,0,0,13,13,13,1,0,1,0,,,,,,,,,,,,,,,,,,,,,,,,,,,,,,,,,,,,,,,,,,,,,,,,,,,,,,,,,,,,,,,,30,,,,,,,,1902.316058699973,1902.316058699973,1902.316058699973,1902.316058699973,1902.316058699973,down,0.3422299998346716,6,0,0,99,0,0.0,down,0.26766290003433824,,,,,,,,,,,,,,,,,,,,,,,,,,,,,,,,,,,,,,,,,,,,,,,,,,,,,,,,,,,,P6G5HC,train_y,blue_star,top_left,2025-06-30_17h16.20.043,HideSeek_v1,2022.2.5,60.04574284569623,
,2,7,2,2,0,-5,66,,train_dim1_1,14,30,,,,2,0,2,0,,,,,,,,,0,0,0,0,0,13,13,13,2,0,2,0,,,,,,,,,,,,,,,,,,,,,,,,,,,,,,,,,,,,,,,,,,,,,,,,,,,,,,,,,,,,,,,,30,,,,,,,,1902.6651004999876,1902.6651004999876,1902.6651004999876,1902.6651004999876,1902.6651004999876,down,0.3100389998871833,6,0,0,99,0,-0.08,down,0.23646270018070936,,,,,,,,,,,,,,,,,,,,,,,,,,,,,,,,,,,,,,,,,,,,,,,,,,,,,,,,,,,,P6G5HC,train_y,blue_star,top_left,2025-06-30_17h16.20.043,HideSeek_v1,2022.2.5,60.04574284569623,
,2,7,2,2,0,-5,66,,train_dim1_1,14,30,,,,2,0,2,0,,,,,,,,,0,0,0,0,0,13,13,13,3,0,3,0,,,,,,,,,,,,,,,,,,,,,,,,,,,,,,,,,,,,,,,,,,,,,,,,,,,,,,,,,,,,,,,,30,,,,,,,,1902.9827600000426,1902.9827600000426,1902.9827600000426,1902.9827600000426,1902.9827600000426,down,0.3264125999994576,6,0,0,99,0,-0.16,down,0.23761079995892942,,,,,,,,,,,,,,,,,,,,,,,,,,,,,,,,,,,,,,,,,,,,,,,,,,,,,,,,,,,,P6G5HC,train_y,blue_star,top_left,2025-06-30_17h16.20.043,HideSeek_v1,2022.2.5,60.04574284569623,
,2,7,2,2,0,-5,66,,train_dim1_1,14,30,,,,2,0,2,0,,,,,,,,,0,0,0,0,0,13,13,13,4,0,4,0,,,,,,,,,,,,,,,,,,,,,,,,,,,,,,,,,,,,,,,,,,,,,,,,,,,,,,,,,,,,,,,,30,,,,,,,,1903.3151757998858,1903.3151757998858,1903.3151757998858,1903.3151757998858,1903.3151757998858,down,0.32700300007127225,6,0,0,99,0,-0.24,down,0.2441483000293374,,,,,,,,,,,,,,,,,,,,,,,,,,,,,,,,,,,,,,,,,,,,,,,,,,,,,,,,,,,,P6G5HC,train_y,blue_star,top_left,2025-06-30_17h16.20.043,HideSeek_v1,2022.2.5,60.04574284569623,
,2,7,2,2,0,-5,66,,train_dim1_1,14,30,,,,2,0,2,0,,,,,,,,,0,0,0,0,0,13,13,13,5,0,5,0,,,,,,,,,,,,,,,,,,,,,,,,,,,,,,,,,,,,,,,,,,,,,,,,,,,,,,,,,,,,,,,,30,,,,,,,,1903.6562284999527,1903.6562284999527,1903.6562284999527,1903.6562284999527,1903.6562284999527,return,0.48809039988555014,7,0,0,1,0,-0.24,return,0.4015067000873387,-39,0,0,-0.24,,,,,,,,,,,,,,,,,,,,,,,,,,,,,,,,,,,,,,,,,,,,,,,,,,,,,,,,P6G5HC,train_y,blue_star,top_left,2025-06-30_17h16.20.043,HideSeek_v1,2022.2.5,60.04574284569623,
,1,9,1,6,0,-3,64,,train_dim1_1,15,30,,,,2,0,2,0,,,,,,,,,0,0,0,0,0,14,14,14,0,0,0,0,,,,,,,,,,,,,,,,,,,,,,,,,stimuli/alien_stimuli/64.png,,,,,,,,,,,,,,,,,,,,,,,,,,,,,stimuli/alien_stimuli/66.png,66,2,16,,,,,,,30,,,,,,,,1908.5097089000046,1908.5097089000046,1908.5097089000046,1908.5097089000046,1908.5097089000046,down,1.5212999999057502,7,0,0,99,-0.08,0.24,down,1.4436044001486152,,,,,1906.9552807998843,1908.5097089000046,0,-0.24,0.4,0.0,-0.039999999999999994,0,0.0,0,-0.24,1905.719149600016,1905.719149600016,1905.719149600016,1905.719149600016,1905.719149600016,1905.719149600016,1905.719149600016,1905.719149600016,1905.704474699823,1.3529715000186116,return,1.2091625002212822,,,,,,,,,,,,,,,,,,,,,,,,,,,,,,,,,P6G5HC,train_y,blue_star,top_left,2025-06-30_17h16.20.043,HideSeek_v1,2022.2.5,60.04574284569623,
,1,9,1,6,0,-3,64,,train_dim1_1,15,30,,,,2,0,2,0,,,,,,,,,0,0,0,0,0,14,14,14,1,0,1,0,,,,,,,,,,,,,,,,,,,,,,,,,,,,,,,,,,,,,,,,,,,,,,,,,,,,,,,,,,,,,,,,30,,,,,,,,1910.0401102998294,1910.0401102998294,1910.0401102998294,1910.0401102998294,1910.0401102998294,down,0.39068309986032546,7,0,0,99,-0.08,0.15999999999999998,down,0.3115322000812739,,,,,,,,,,,,,,,,,,,,,,,,,,,,,,,,,,,,,,,,,,,,,,,,,,,,,,,,,,,,P6G5HC,train_y,blue_star,top_left,2025-06-30_17h16.20.043,HideSeek_v1,2022.2.5,60.04574284569623,
,1,9,1,6,0,-3,64,,train_dim1_1,15,30,,,,2,0,2,0,,,,,,,,,0,0,0,0,0,14,14,14,2,0,2,0,,,,,,,,,,,,,,,,,,,,,,,,,,,,,,,,,,,,,,,,,,,,,,,,,,,,,,,,,,,,,,,,30,,,,,,,,1910.4372902000323,1910.4372902000323,1910.4372902000323,1910.4372902000323,1910.4372902000323,down,0.4601552998647094,7,0,0,99,-0.08,0.07999999999999997,down,0.3790051999967545,,,,,,,,,,,,,,,,,,,,,,,,,,,,,,,,,,,,,,,,,,,,,,,,,,,,,,,,,,,,P6G5HC,train_y,blue_star,top_left,2025-06-30_17h16.20.043,HideSeek_v1,2022.2.5,60.04574284569623,
,1,9,1,6,0,-3,64,,train_dim1_1,15,30,,,,2,0,2,0,,,,,,,,,0,0,0,0,0,14,14,14,3,0,3,0,,,,,,,,,,,,,,,,,,,,,,,,,,,,,,,,,,,,,,,,,,,,,,,,,,,,,,,,,,,,,,,,30,,,,,,,,1910.903732900042,1910.903732900042,1910.903732900042,1910.903732900042,1910.903732900042,return,0.5268887002021074,8,0,0,1,-0.08,0.07999999999999997,return,0.4548531000036746,-42,0,-0.08,0.07999999999999997,,,,,,,,,,,,,,,,,,,,,,,,,,,,,,,,,,,,,,,,,,,,,,,,,,,,,,,,P6G5HC,train_y,blue_star,top_left,2025-06-30_17h16.20.043,HideSeek_v1,2022.2.5,60.04574284569623,
,4,5,4,1,0,-4,65,,train_dim1_1,16,30,,,,2,0,2,0,,,,,,,,,0,0,0,0,0,15,15,15,0,0,0,0,,,,,,,,,,,,,,,,,,,,,,,,,stimuli/alien_stimuli/65.png,,,,,,,,,,,,,,,,,,,,,,,,,,,,,stimuli/alien_stimuli/64.png,64,1,17,,,,,,,30,,,,,,,,1915.5831120999064,1915.5831120999064,1915.5831120999064,1915.5831120999064,1915.5831120999064,down,1.8867506999522448,8,0,0,99,0.16,-0.08,down,1.8075288999825716,,,,,1914.0279542000499,1915.5831120999064,-0.08,0.08,0.24,0.0,0.2,-0.08,-0.08,-0.08,0.08,1912.983098599827,1912.983098599827,1912.983098599827,1912.983098599827,1912.983098599827,1912.983098599827,1912.983098599827,1912.983098599827,1912.97717229994,1.1361331001389772,return,1.0130013001617044,,,,,,,,,,,,,,,,,,,,,,,,,,,,,,,,,P6G5HC,train_y,blue_star,top_left,2025-06-30_17h16.20.043,HideSeek_v1,2022.2.5,60.04574284569623,
,4,5,4,1,0,-4,65,,train_dim1_1,16,30,,,,2,0,2,0,,,,,,,,,0,0,0,0,0,15,15,15,1,0,1,0,,,,,,,,,,,,,,,,,,,,,,,,,,,,,,,,,,,,,,,,,,,,,,,,,,,,,,,,,,,,,,,,30,,,,,,,,1917.477658999851,1917.477658999851,1917.477658999851,1917.477658999851,1917.477658999851,down,0.40921029984019697,8,0,0,99,0.16,-0.16,down,0.3214075001887977,,,,,,,,,,,,,,,,,,,,,,,,,,,,,,,,,,,,,,,,,,,,,,,,,,,,,,,,,,,,P6G5HC,train_y,blue_star,top_left,2025-06-30_17h16.20.043,HideSeek_v1,2022.2.5,60.04574284569623,
,4,5,4,1,0,-4,65,,train_dim1_1,16,30,,,,2,0,2,0,,,,,,,,,0,0,0,0,0,15,15,15,2,0,2,0,,,,,,,,,,,,,,,,,,,,,,,,,,,,,,,,,,,,,,,,,,,,,,,,,,,,,,,,,,,,,,,,30,,,,,,,,1917.8931264998391,1917.8931264998391,1917.8931264998391,1917.8931264998391,1917.8931264998391,down,0.3935694999527186,8,0,0,99,0.16,-0.24,down,0.31421850016340613,,,,,,,,,,,,,,,,,,,,,,,,,,,,,,,,,,,,,,,,,,,,,,,,,,,,,,,,,,,,P6G5HC,train_y,blue_star,top_left,2025-06-30_17h16.20.043,HideSeek_v1,2022.2.5,60.04574284569623,
,4,5,4,1,0,-4,65,,train_dim1_1,16,30,,,,2,0,2,0,,,,,,,,,0,0,0,0,0,15,15,15,3,0,3,0,,,,,,,,,,,,,,,,,,,,,,,,,,,,,,,,,,,,,,,,,,,,,,,,,,,,,,,,,,,,,,,,30,,,,,,,,1918.294694500044,1918.294694500044,1918.294694500044,1918.294694500044,1918.294694500044,down,0.3765465000178665,8,0,0,99,0.16,-0.32,down,0.2960066001396626,,,,,,,,,,,,,,,,,,,,,,,,,,,,,,,,,,,,,,,,,,,,,,,,,,,,,,,,,,,,P6G5HC,train_y,blue_star,top_left,2025-06-30_17h16.20.043,HideSeek_v1,2022.2.5,60.04574284569623,
,4,5,4,1,0,-4,65,,train_dim1_1,16,30,,,,2,0,2,0,,,,,,,,,0,0,0,0,0,15,15,15,4,0,4,0,,,,,,,,,,,,,,,,,,,,,,,,,,,,,,,,,,,,,,,,,,,,,,,,,,,,,,,,,,,,,,,,30,,,,,,,,1918.6786453998648,1918.6786453998648,1918.6786453998648,1918.6786453998648,1918.6786453998648,return,0.5260320000816137,9,0,0,1,0.16,-0.32,return,0.4384175001177937,-46,0,0.16,-0.32,,,,,,,,,,,,,,,,,,,,,,,,,,,,,,,,,,,,,,,,,,,,,,,,,,,,,,,,P6G5HC,train_y,blue_star,top_left,2025-06-30_17h16.20.043,HideSeek_v1,2022.2.5,60.04574284569623,
,3,8,3,5,0,-3,64,,train_dim1_1,17,30,,,,2,0,2,0,,,,,,,,,0,0,0,0,0,16,16,16,0,0,0,0,,,,,,,,,,,,,,,,,,,,,,,,,stimuli/alien_stimuli/64.png,,,,,,,,,,,,,,,,,,,,,,,,,,,,,stimuli/alien_stimuli/65.png,65,4,18,,,,,,,30,,,,,,,,1923.391445999965,1923.391445999965,1923.391445999965,1923.391445999965,1923.391445999965,down,1.4529870999976993,9,0,0,99,0.08,0.15999999999999998,down,1.3782248001080006,,,,,1921.8345743999816,1923.391445999965,0.16,-0.32,0.32,0.0,-0.16,0.16,0.16,0.16,-0.32,1920.7575205999892,1920.7575205999892,1920.7575205999892,1920.7575205999892,1920.7575205999892,1920.7575205999892,1920.7575205999892,1920.7575205999892,1920.7502733999397,1.1694662000518292,return,1.0497708001639694,,,,,,,,,,,,,,,,,,,,,,,,,,,,,,,,,P6G5HC,train_y,blue_star,top_left,2025-06-30_17h16.20.043,HideSeek_v1,2022.2.5,60.04574284569623,
,3,8,3,5,0,-3,64,,train_dim1_1,17,30,,,,2,0,2,0,,,,,,,,,0,0,0,0,0,16,16,16,1,0,1,0,,,,,,,,,,,,,,,,,,,,,,,,,,,,,,,,,,,,,,,,,,,,,,,,,,,,,,,,,,,,,,,,30,,,,,,,,1924.8497686998453,1924.8497686998453,1924.8497686998453,1924.8497686998453,1924.8497686998453,down,0.4432653000112623,9,0,0,99,0.08,0.07999999999999997,down,0.3641148000024259,,,,,,,,,,,,,,,,,,,,,,,,,,,,,,,,,,,,,,,,,,,,,,,,,,,,,,,,,,,,P6G5HC,train_y,blue_star,top_left,2025-06-30_17h16.20.043,HideSeek_v1,2022.2.5,60.04574284569623,
,3,8,3,5,0,-3,64,,train_dim1_1,17,30,,,,2,0,2,0,,,,,,,,,0,0,0,0,0,16,16,16,2,0,2,0,,,,,,,,,,,,,,,,,,,,,,,,,,,,,,,,,,,,,,,,,,,,,,,,,,,,,,,,,,,,,,,,30,,,,,,,,1925.3001981000416,1925.3001981000416,1925.3001981000416,1925.3001981000416,1925.3001981000416,down,0.3764442999381572,9,0,0,99,0.08,-2.7755575615628914e-17,down,0.3040534001775086,,,,,,,,,,,,,,,,,,,,,,,,,,,,,,,,,,,,,,,,,,,,,,,,,,,,,,,,,,,,P6G5HC,train_y,blue_star,top_left,2025-06-30_17h16.20.043,HideSeek_v1,2022.2.5,60.04574284569623,
,3,8,3,5,0,-3,64,,train_dim1_1,17,30,,,,2,0,2,0,,,,,,,,,0,0,0,0,0,16,16,16,3,0,3,0,,,,,,,,,,,,,,,,,,,,,,,,,,,,,,,,,,,,,,,,,,,,,,,,,,,,,,,,,,,,,,,,30,,,,,,,,1925.6835584000219,1925.6835584000219,1925.6835584000219,1925.6835584000219,1925.6835584000219,return,0.46004900010302663,10,0,0,1,0.08,-2.7755575615628914e-17,return,0.37566319992765784,-49,0,0.08,-2.7755575615628914e-17,,,,,,,,,,,,,,,,,,,,,,,,,,,,,,,,,,,,,,,,,,,,,,,,,,,,,,,,P6G5HC,train_y,blue_star,top_left,2025-06-30_17h16.20.043,HideSeek_v1,2022.2.5,60.04574284569623,
,2,6,2,6,0,0,61,,train_dim1_1,18,30,,,,2,0,2,0,,,,,,,,,0,0,0,0,0,17,17,17,0,0,0,0,,,,,,,,,,,,,,,,,,,,,,,,,stimuli/alien_stimuli/61.png,,,,,,,,,,,,,,,,,,,,,,,,,,,,,stimuli/alien_stimuli/64.png,64,3,19,,,,,,,30,,,,,,,,1930.3612787998281,1930.3612787998281,1930.3612787998281,1930.3612787998281,1930.3612787998281,return,3.3901411998085678,11,0,0,1,0,0.08,return,3.311986700166017,-49,0,0,0.08,1928.806717599975,1930.3612787998281,0.08,0,0.24,0.0,0.12,0.08,0.08,0.08,0,1927.6947753999848,1927.6947753999848,1927.6947753999848,1927.6947753999848,1927.6947753999848,1927.6947753999848,1927.6947753999848,1927.6947753999848,1927.6894423998426,1.2025659000501037,return,1.0872702000197023,,,,,,,,,,,,,,,,,,,,,,,,,,,,,,,,,P6G5HC,train_y,blue_star,top_left,2025-06-30_17h16.20.043,HideSeek_v1,2022.2.5,60.04574284569623,
,0,9,0,8,0,-1,62,,train_dim1_1,19,30,,,,2,0,2,0,,,,,,,,,0,0,0,0,0,18,18,18,0,0,0,0,,,,,,,,,,,,,,,,,,,,,,,,,stimuli/alien_stimuli/62.png,,,,,,,,,,,,,,,,,,,,,,,,,,,,,stimuli/alien_stimuli/61.png,61,2,20,,,,,,,30,,,,,,,,1937.8857825999148,1937.8857825999148,1937.8857825999148,1937.8857825999148,1937.8857825999148,down,1.203353799879551,11,0,0,99,-0.16,0.24,down,1.1152892000973225,,,,,1936.3295984000433,1937.8857825999148,0,0.08,0.0,0.0,0.08,0,0.0,0,0.08,1935.3222546998877,1935.3222546998877,1935.3222546998877,1935.3222546998877,1935.3222546998877,1935.3222546998877,1935.3222546998877,1935.3222546998877,1935.312406599894,1.1198473998811096,return,0.9870738999452442,,,,,,,,,,,,,,,,,,,,,,,,,,,,,,,,,P6G5HC,train_y,blue_star,top_left,2025-06-30_17h16.20.043,HideSeek_v1,2022.2.5,60.04574284569623,
,0,9,0,8,0,-1,62,,train_dim1_1,19,30,,,,2,0,2,0,,,,,,,,,0,0,0,0,0,18,18,18,1,0,1,0,,,,,,,,,,,,,,,,,,,,,,,,,,,,,,,,,,,,,,,,,,,,,,,,,,,,,,,,,,,,,,,,30,,,,,,,,1939.095637399936,1939.095637399936,1939.095637399936,1939.095637399936,1939.095637399936,return,0.39284590003080666,12,0,0,1,-0.16,0.24,return,0.3068279002327472,-50,0,-0.16,0.24,,,,,,,,,,,,,,,,,,,,,,,,,,,,,,,,,,,,,,,,,,,,,,,,,,,,,,,,P6G5HC,train_y,blue_star,top_left,2025-06-30_17h16.20.043,HideSeek_v1,2022.2.5,60.04574284569623,
,2,5,2,0,0,-5,66,,train_dim1_1,20,30,,,,2,0,2,0,,,,,,,,,0,0,0,0,0,19,19,19,0,0,0,0,,,,,,,,,,,,,,,,,,,,,,,,,stimuli/alien_stimuli/66.png,,,,,,,,,,,,,,,,,,,,,,,,,,,,,stimuli/alien_stimuli/62.png,62,0,21,,,,,,,30,,,,,,,,1943.353062799899,1943.353062799899,1943.353062799899,1943.353062799899,1943.353062799899,down,1.5895247000735253,12,0,0,99,0,-0.08,down,1.5121496000792831,,,,,1941.8010819000192,1943.353062799899,-0.16,0.24,0.08,0.0,0.28,-0.16,-0.16,-0.16,0.24,1941.041032699868,1941.041032699868,1941.041032699868,1941.041032699868,1941.041032699868,1941.041032699868,1941.041032699868,1941.041032699868,1941.0337948998902,0.8533802998717874,return,0.7299575000070035,,,,,,,,,,,,,,,,,,,,,,,,,,,,,,,,,P6G5HC,train_y,blue_star,top_left,2025-06-30_17h16.20.043,HideSeek_v1,2022.2.5,60.04574284569623,
,2,5,2,0,0,-5,66,,train_dim1_1,20,30,,,,2,0,2,0,,,,,,,,,0,0,0,0,0,19,19,19,1,0,1,0,,,,,,,,,,,,,,,,,,,,,,,,,,,,,,,,,,,,,,,,,,,,,,,,,,,,,,,,,,,,,,,,30,,,,,,,,1944.95162539999,1944.95162539999,1944.95162539999,1944.95162539999,1944.95162539999,down,0.3422613001894206,12,0,0,99,0,-0.16,down,0.2618304002098739,,,,,,,,,,,,,,,,,,,,,,,,,,,,,,,,,,,,,,,,,,,,,,,,,,,,,,,,,,,,P6G5HC,train_y,blue_star,top_left,2025-06-30_17h16.20.043,HideSeek_v1,2022.2.5,60.04574284569623,
,2,5,2,0,0,-5,66,,train_dim1_1,20,30,,,,2,0,2,0,,,,,,,,,0,0,0,0,0,19,19,19,2,0,2,0,,,,,,,,,,,,,,,,,,,,,,,,,,,,,,,,,,,,,,,,,,,,,,,,,,,,,,,,,,,,,,,,30,,,,,,,,1945.2996223999653,1945.2996223999653,1945.2996223999653,1945.2996223999653,1945.2996223999653,down,0.3601527998689562,12,0,0,99,0,-0.24,down,0.28746689995750785,,,,,,,,,,,,,,,,,,,,,,,,,,,,,,,,,,,,,,,,,,,,,,,,,,,,,,,,,,,,P6G5HC,train_y,blue_star,top_left,2025-06-30_17h16.20.043,HideSeek_v1,2022.2.5,60.04574284569623,
,2,5,2,0,0,-5,66,,train_dim1_1,20,30,,,,2,0,2,0,,,,,,,,,0,0,0,0,0,19,19,19,3,0,3,0,,,,,,,,,,,,,,,,,,,,,,,,,,,,,,,,,,,,,,,,,,,,,,,,,,,,,,,,,,,,,,,,30,,,,,,,,1945.6673582999501,1945.6673582999501,1945.6673582999501,1945.6673582999501,1945.6673582999501,down,0.35986889991909266,12,0,0,99,0,-0.32,down,0.27478260011412203,,,,,,,,,,,,,,,,,,,,,,,,,,,,,,,,,,,,,,,,,,,,,,,,,,,,,,,,,,,,P6G5HC,train_y,blue_star,top_left,2025-06-30_17h16.20.043,HideSeek_v1,2022.2.5,60.04574284569623,
,2,5,2,0,0,-5,66,,train_dim1_1,20,30,,,,2,0,2,0,,,,,,,,,0,0,0,0,0,19,19,19,4,0,4,0,,,,,,,,,,,,,,,,,,,,,,,,,,,,,,,,,,,,,,,,,,,,,,,,,,,,,,,,,,,,,,,,30,,,,,,,,1946.0347131998278,1946.0347131998278,1946.0347131998278,1946.0347131998278,1946.0347131998278,down,0.3263963998761028,12,0,0,99,0,-0.4,down,0.2520217001438141,,,,,,,,,,,,,,,,,,,,,,,,,,,,,,,,,,,,,,,,,,,,,,,,,,,,,,,,,,,,P6G5HC,train_y,blue_star,top_left,2025-06-30_17h16.20.043,HideSeek_v1,2022.2.5,60.04574284569623,
,2,5,2,0,0,-5,66,,train_dim1_1,20,30,,,,2,0,2,0,,,,,,,,,0,0,0,0,0,19,19,19,5,0,5,0,,,,,,,,,,,,,,,,,,,,,,,,,,,,,,,,,,,,,,,,,,,,,,,,,,,,,,,,,,,,,,,,30,,,,,,,,1946.3671726998873,1946.3671726998873,1946.3671726998873,1946.3671726998873,1946.3671726998873,return,0.493478000164032,13,0,0,1,0,-0.4,return,0.4176137000322342,-55,0,0,-0.4,,,,,,,,,,,,,,,,,,,,,,,,,,,,,,,,,,,,,,,,,,,,,,,,,,,,,,,,P6G5HC,train_y,blue_star,top_left,2025-06-30_17h16.20.043,HideSeek_v1,2022.2.5,60.04574284569623,
,2,9,2,5,0,-4,65,,train_dim1_1,21,30,,,,2,0,2,0,,,,,,,,,0,0,0,0,0,20,20,20,0,0,0,0,,,,,,,,,,,,,,,,,,,,,,,,,stimuli/alien_stimuli/65.png,,,,,,,,,,,,,,,,,,,,,,,,,,,,,stimuli/alien_stimuli/66.png,66,2,22,,,,,,,30,,,,,,,,1950.8953523000237,1950.8953523000237,1950.8953523000237,1950.8953523000237,1950.8953523000237,down,1.4536667000502348,13,0,0,99,0,0.24,down,1.3740145000629127,,,,,1949.3403994999826,1950.8953523000237,0,-0.4,0.4,0.0,-0.2,0,0.0,0,-0.4,1948.4166202999186,1948.4166202999186,1948.4166202999186,1948.4166202999186,1948.4166202999186,1948.4166202999186,1948.4166202999186,1948.4166202999186,1948.4067011000122,1.0193450001534075,return,0.8978957000654191,,,,,,,,,,,,,,,,,,,,,,,,,,,,,,,,,P6G5HC,train_y,blue_star,top_left,2025-06-30_17h16.20.043,HideSeek_v1,2022.2.5,60.04574284569623,
,2,9,2,5,0,-4,65,,train_dim1_1,21,30,,,,2,0,2,0,,,,,,,,,0,0,0,0,0,20,20,20,1,0,1,0,,,,,,,,,,,,,,,,,,,,,,,,,,,,,,,,,,,,,,,,,,,,,,,,,,,,,,,,,,,,,,,,30,,,,,,,,1952.358455499867,1952.358455499867,1952.358455499867,1952.358455499867,1952.358455499867,down,0.34045869996771216,13,0,0,99,0,0.15999999999999998,down,0.26913700019940734,,,,,,,,,,,,,,,,,,,,,,,,,,,,,,,,,,,,,,,,,,,,,,,,,,,,,,,,,,,,P6G5HC,train_y,blue_star,top_left,2025-06-30_17h16.20.043,HideSeek_v1,2022.2.5,60.04574284569623,
,2,9,2,5,0,-4,65,,train_dim1_1,21,30,,,,2,0,2,0,,,,,,,,,0,0,0,0,0,20,20,20,2,0,2,0,,,,,,,,,,,,,,,,,,,,,,,,,,,,,,,,,,,,,,,,,,,,,,,,,,,,,,,,,,,,,,,,30,,,,,,,,1952.7064789999276,1952.7064789999276,1952.7064789999276,1952.7064789999276,1952.7064789999276,down,0.37673400016501546,13,0,0,99,0,0.07999999999999997,down,0.29193850001320243,,,,,,,,,,,,,,,,,,,,,,,,,,,,,,,,,,,,,,,,,,,,,,,,,,,,,,,,,,,,P6G5HC,train_y,blue_star,top_left,2025-06-30_17h16.20.043,HideSeek_v1,2022.2.5,60.04574284569623,
,2,9,2,5,0,-4,65,,train_dim1_1,21,30,,,,2,0,2,0,,,,,,,,,0,0,0,0,0,20,20,20,3,0,3,0,,,,,,,,,,,,,,,,,,,,,,,,,,,,,,,,,,,,,,,,,,,,,,,,,,,,,,,,,,,,,,,,30,,,,,,,,1953.091531699989,1953.091531699989,1953.091531699989,1953.091531699989,1953.091531699989,down,0.35918629984371364,13,0,0,99,0,-2.7755575615628914e-17,down,0.28152330010198057,,,,,,,,,,,,,,,,,,,,,,,,,,,,,,,,,,,,,,,,,,,,,,,,,,,,,,,,,,,,P6G5HC,train_y,blue_star,top_left,2025-06-30_17h16.20.043,HideSeek_v1,2022.2.5,60.04574284569623,
,2,9,2,5,0,-4,65,,train_dim1_1,21,30,,,,2,0,2,0,,,,,,,,,0,0,0,0,0,20,20,20,4,0,4,0,,,,,,,,,,,,,,,,,,,,,,,,,,,,,,,,,,,,,,,,,,,,,,,,,,,,,,,,,,,,,,,,30,,,,,,,,1953.4571869999636,1953.4571869999636,1953.4571869999636,1953.4571869999636,1953.4571869999636,return,0.45997449988499284,14,0,0,1,0,-2.7755575615628914e-17,return,0.37276460020802915,-59,0,0,-2.7755575615628914e-17,,,,,,,,,,,,,,,,,,,,,,,,,,,,,,,,,,,,,,,,,,,,,,,,,,,,,,,,P6G5HC,train_y,blue_star,top_left,2025-06-30_17h16.20.043,HideSeek_v1,2022.2.5,60.04574284569623,
,0,7,0,4,0,-3,64,,train_dim1_1,22,30,,,,2,0,2,0,,,,,,,,,0,0,0,0,0,21,21,21,0,0,0,0,,,,,,,,,,,,,,,,,,,,,,,,,stimuli/alien_stimuli/64.png,,,,,,,,,,,,,,,,,,,,,,,,,,,,,stimuli/alien_stimuli/65.png,65,2,23,,,,,,,30,,,,,,,,1957.682002699934,1957.682002699934,1957.682002699934,1957.682002699934,1957.682002699934,down,1.038490700069815,14,0,0,99,-0.16,0.08,down,0.9511826999951154,,,,,1956.129515199922,1957.682002699934,0,0,0.32,0.0,0.16,0,0.0,0,0,1955.4712398999836,1955.4712398999836,1955.4712398999836,1955.4712398999836,1955.4712398999836,1955.4712398999836,1955.4712398999836,1955.4712398999836,1955.4624202998355,0.7526156001258641,return,0.6322467001155019,,,,,,,,,,,,,,,,,,,,,,,,,,,,,,,,,P6G5HC,train_y,blue_star,top_left,2025-06-30_17h16.20.043,HideSeek_v1,2022.2.5,60.04574284569623,
,0,7,0,4,0,-3,64,,train_dim1_1,22,30,,,,2,0,2,0,,,,,,,,,0,0,0,0,0,21,21,21,1,0,1,0,,,,,,,,,,,,,,,,,,,,,,,,,,,,,,,,,,,,,,,,,,,,,,,,,,,,,,,,,,,,,,,,30,,,,,,,,1958.7274485998787,1958.7274485998787,1958.7274485998787,1958.7274485998787,1958.7274485998787,down,0.4262802000157535,14,0,0,99,-0.16,0.0,down,0.3466310000512749,,,,,,,,,,,,,,,,,,,,,,,,,,,,,,,,,,,,,,,,,,,,,,,,,,,,,,,,,,,,P6G5HC,train_y,blue_star,top_left,2025-06-30_17h16.20.043,HideSeek_v1,2022.2.5,60.04574284569623,
,0,7,0,4,0,-3,64,,train_dim1_1,22,30,,,,2,0,2,0,,,,,,,,,0,0,0,0,0,21,21,21,2,0,2,0,,,,,,,,,,,,,,,,,,,,,,,,,,,,,,,,,,,,,,,,,,,,,,,,,,,,,,,,,,,,,,,,30,,,,,,,,1959.1613367998507,1959.1613367998507,1959.1613367998507,1959.1613367998507,1959.1613367998507,down,0.326183799887076,14,0,0,99,-0.16,-0.08,down,0.2396302002016455,,,,,,,,,,,,,,,,,,,,,,,,,,,,,,,,,,,,,,,,,,,,,,,,,,,,,,,,,,,,P6G5HC,train_y,blue_star,top_left,2025-06-30_17h16.20.043,HideSeek_v1,2022.2.5,60.04574284569623,
,0,7,0,4,0,-3,64,,train_dim1_1,22,30,,,,2,0,2,0,,,,,,,,,0,0,0,0,0,21,21,21,3,0,3,0,,,,,,,,,,,,,,,,,,,,,,,,,,,,,,,,,,,,,,,,,,,,,,,,,,,,,,,,,,,,,,,,30,,,,,,,,1959.4960902999155,1959.4960902999155,1959.4960902999155,1959.4960902999155,1959.4960902999155,return,0.4098859999794513,15,0,0,1,-0.16,-0.08,return,0.3213455001823604,-62,0,-0.16,-0.08,,,,,,,,,,,,,,,,,,,,,,,,,,,,,,,,,,,,,,,,,,,,,,,,,,,,,,,,P6G5HC,train_y,blue_star,top_left,2025-06-30_17h16.20.043,HideSeek_v1,2022.2.5,60.04574284569623,
,0,8,0,8,0,0,61,,train_dim1_1,23,30,,,,2,0,2,0,,,,,,,,,0,0,0,0,0,22,22,22,0,0,0,0,,,,,,,,,,,,,,,,,,,,,,,,,stimuli/alien_stimuli/61.png,,,,,,,,,,,,,,,,,,,,,,,,,,,,,stimuli/alien_stimuli/64.png,64,0,24,,,,,,,30,,,,,,,,1963.4717906999867,1963.4717906999867,1963.4717906999867,1963.4717906999867,1963.4717906999867,down,1.9207403000909835,15,0,0,99,-0.16,0.15999999999999998,down,1.8432666000444442,,,,,1961.9175956000108,1963.4717906999867,-0.16,-0.08,0.24,0.0,0.04,-0.16,-0.16,-0.16,-0.08,1961.4575183000416,1961.4575183000416,1961.4575183000416,1961.4575183000416,1961.4575183000416,1961.4575183000416,1961.4575183000416,1961.4575183000416,1961.45060539986,0.5526745000388473,return,0.44142780010588467,,,,,,,,,,,,,,,,,,,,,,,,,,,,,,,,,P6G5HC,train_y,blue_star,top_left,2025-06-30_17h16.20.043,HideSeek_v1,2022.2.5,60.04574284569623,
,0,8,0,8,0,0,61,,train_dim1_1,23,30,,,,2,0,2,0,,,,,,,,,0,0,0,0,0,22,22,22,1,0,1,0,,,,,,,,,,,,,,,,,,,,,,,,,,,,,,,,,,,,,,,,,,,,,,,,,,,,,,,,,,,,,,,,30,,,,,,,,1965.4001507000066,1965.4001507000066,1965.4001507000066,1965.4001507000066,1965.4001507000066,return,0.29315650020726025,15,1,0,0,-0.16,0.15999999999999998,return,0.22094080015085638,-63,0,-0.16,0.15999999999999998,,,,,,,,,,,,,,,,,,,,,,,,,,,,,,,,,,,,,,,,,,,,,,,,,,,,,,,,P6G5HC,train_y,blue_star,top_left,2025-06-30_17h16.20.043,HideSeek_v1,2022.2.5,60.04574284569623,
,3,7,3,2,0,-5,66,,train_dim1_1,24,30,,,,2,0,2,0,,,,,,,,,0,0,0,0,0,23,23,23,0,0,0,0,,,,,,,,,,,,,,,,,,,,,,,,,stimuli/alien_stimuli/66.png,,,,,,,,,,,,,,,,,,,,,,,,,,,,,stimuli/alien_stimuli/61.png,61,0,25,,,,,,,30,,,,,,,,1969.9952576998621,1969.9952576998621,1969.9952576998621,1969.9952576998621,1969.9952576998621,down,0.8194722000043839,15,1,0,99,0.08,0.08,down,0.7398059002589434,,,,,1968.439654899994,1969.9952576998621,-0.16,0.24,0.0,0.0,0.24,-0.16,-0.16,-0.16,0.24,1967.2443380998448,1967.2443380998448,1967.2443380998448,1967.2443380998448,1967.2443380998448,1967.2443380998448,1967.2443380998448,1967.2443380998448,1967.2388131999876,1.2862327001057565,return,1.1654715000186116,,,,,,,,,,,,,,,,,,,,,,,,,,,,,,,,,P6G5HC,train_y,blue_star,top_left,2025-06-30_17h16.20.043,HideSeek_v1,2022.2.5,60.04574284569623,
,3,7,3,2,0,-5,66,,train_dim1_1,24,30,,,,2,0,2,0,,,,,,,,,0,0,0,0,0,23,23,23,1,0,1,0,,,,,,,,,,,,,,,,,,,,,,,,,,,,,,,,,,,,,,,,,,,,,,,,,,,,,,,,,,,,,,,,30,,,,,,,,1970.8219893998466,1970.8219893998466,1970.8219893998466,1970.8219893998466,1970.8219893998466,down,0.3260896001011133,15,1,0,99,0.08,0.0,down,0.2439531001728028,,,,,,,,,,,,,,,,,,,,,,,,,,,,,,,,,,,,,,,,,,,,,,,,,,,,,,,,,,,,P6G5HC,train_y,blue_star,top_left,2025-06-30_17h16.20.043,HideSeek_v1,2022.2.5,60.04574284569623,
,3,7,3,2,0,-5,66,,train_dim1_1,24,30,,,,2,0,2,0,,,,,,,,,0,0,0,0,0,23,23,23,2,0,2,0,,,,,,,,,,,,,,,,,,,,,,,,,,,,,,,,,,,,,,,,,,,,,,,,,,,,,,,,,,,,,,,,30,,,,,,,,1971.1555704998318,1971.1555704998318,1971.1555704998318,1971.1555704998318,1971.1555704998318,down,0.3430804000236094,15,1,0,99,0.08,-0.08,down,0.26976900012232363,,,,,,,,,,,,,,,,,,,,,,,,,,,,,,,,,,,,,,,,,,,,,,,,,,,,,,,,,,,,P6G5HC,train_y,blue_star,top_left,2025-06-30_17h16.20.043,HideSeek_v1,2022.2.5,60.04574284569623,
,3,7,3,2,0,-5,66,,train_dim1_1,24,30,,,,2,0,2,0,,,,,,,,,0,0,0,0,0,23,23,23,3,0,3,0,,,,,,,,,,,,,,,,,,,,,,,,,,,,,,,,,,,,,,,,,,,,,,,,,,,,,,,,,,,,,,,,30,,,,,,,,1971.5044954998884,1971.5044954998884,1971.5044954998884,1971.5044954998884,1971.5044954998884,down,0.39333779993467033,15,1,0,99,0.08,-0.16,down,0.30701250000856817,,,,,,,,,,,,,,,,,,,,,,,,,,,,,,,,,,,,,,,,,,,,,,,,,,,,,,,,,,,,P6G5HC,train_y,blue_star,top_left,2025-06-30_17h16.20.043,HideSeek_v1,2022.2.5,60.04574284569623,
,3,7,3,2,0,-5,66,,train_dim1_1,24,30,,,,2,0,2,0,,,,,,,,,0,0,0,0,0,23,23,23,4,0,4,0,,,,,,,,,,,,,,,,,,,,,,,,,,,,,,,,,,,,,,,,,,,,,,,,,,,,,,,,,,,,,,,,30,,,,,,,,1971.905395800015,1971.905395800015,1971.905395800015,1971.905395800015,1971.905395800015,down,0.3766036999877542,15,1,0,99,0.08,-0.24,down,0.3005993003025651,,,,,,,,,,,,,,,,,,,,,,,,,,,,,,,,,,,,,,,,,,,,,,,,,,,,,,,,,,,,P6G5HC,train_y,blue_star,top_left,2025-06-30_17h16.20.043,HideSeek_v1,2022.2.5,60.04574284569623,
,3,7,3,2,0,-5,66,,train_dim1_1,24,30,,,,2,0,2,0,,,,,,,,,0,0,0,0,0,23,23,23,5,0,5,0,,,,,,,,,,,,,,,,,,,,,,,,,,,,,,,,,,,,,,,,,,,,,,,,,,,,,,,,,,,,,,,,30,,,,,,,,1972.2881209999323,1972.2881209999323,1972.2881209999323,1972.2881209999323,1972.2881209999323,return,0.5268232999369502,16,0,0,1,0.08,-0.24,return,0.4445253999438137,-68,0,0.08,-0.24,,,,,,,,,,,,,,,,,,,,,,,,,,,,,,,,,,,,,,,,,,,,,,,,,,,,,,,,P6G5HC,train_y,blue_star,top_left,2025-06-30_17h16.20.043,HideSeek_v1,2022.2.5,60.04574284569623,
,3,8,3,7,0,-1,62,,train_dim1_1,25,30,,,,2,0,2,0,,,,,,,,,0,0,0,0,0,24,24,24,0,0,0,0,,,,,,,,,,,,,,,,,,,,,,,,,stimuli/alien_stimuli/62.png,,,,,,,,,,,,,,,,,,,,,,,,,,,,,stimuli/alien_stimuli/66.png,66,3,26,,,,,,,30,,,,,,,,1976.4833696000278,1976.4833696000278,1976.4833696000278,1976.4833696000278,1976.4833696000278,down,2.0710654999129474,16,0,0,99,0.08,0.15999999999999998,down,1.9990402001421899,,,,,1974.9283475999255,1976.4833696000278,0.08,-0.24,0.4,0.0,-0.039999999999999994,0.08,0.08,0.08,-0.24,1974.3656436998863,1974.3656436998863,1974.3656436998863,1974.3656436998863,1974.3656436998863,1974.3656436998863,1974.3656436998863,1974.3656436998863,1974.3616446000058,0.6522783001419157,return,0.545350800268352,,,,,,,,,,,,,,,,,,,,,,,,,,,,,,,,,P6G5HC,train_y,blue_star,top_left,2025-06-30_17h16.20.043,HideSeek_v1,2022.2.5,60.04574284569623,
,3,8,3,7,0,-1,62,,train_dim1_1,25,30,,,,2,0,2,0,,,,,,,,,0,0,0,0,0,24,24,24,1,0,1,0,,,,,,,,,,,,,,,,,,,,,,,,,,,,,,,,,,,,,,,,,,,,,,,,,,,,,,,,,,,,,,,,30,,,,,,,,1978.562030900037,1978.562030900037,1978.562030900037,1978.562030900037,1978.562030900037,return,0.42609750013798475,17,0,0,1,0.08,0.15999999999999998,return,0.34259140002541244,-69,0,0.08,0.15999999999999998,,,,,,,,,,,,,,,,,,,,,,,,,,,,,,,,,,,,,,,,,,,,,,,,,,,,,,,,P6G5HC,train_y,blue_star,top_left,2025-06-30_17h16.20.043,HideSeek_v1,2022.2.5,60.04574284569623,
,4,9,4,6,0,-3,64,,train_dim1_1,26,30,,,,2,0,2,0,,,,,,,,,0,0,0,0,0,25,25,25,0,0,0,0,,,,,,,,,,,,,,,,,,,,,,,,,stimuli/alien_stimuli/64.png,,,,,,,,,,,,,,,,,,,,,,,,,,,,,stimuli/alien_stimuli/62.png,62,3,27,,,,,,,30,,,,,,,,1983.0869424999692,1983.0869424999692,1983.0869424999692,1983.0869424999692,1983.0869424999692,down,0.9878815999254584,17,0,0,99,0.16,0.24,down,0.9040832000318915,,,,,1981.5339206999633,1983.0869424999692,0.08,0.16,0.08,0.0,0.2,0.08,0.08,0.08,0.16,1980.5387645999435,1980.5387645999435,1980.5387645999435,1980.5387645999435,1980.5387645999435,1980.5387645999435,1980.5387645999435,1980.5387645999435,1980.5331500998698,1.0863838999066502,return,0.9748440000694245,,,,,,,,,,,,,,,,,,,,,,,,,,,,,,,,,P6G5HC,train_y,blue_star,top_left,2025-06-30_17h16.20.043,HideSeek_v1,2022.2.5,60.04574284569623,
,4,9,4,6,0,-3,64,,train_dim1_1,26,30,,,,2,0,2,0,,,,,,,,,0,0,0,0,0,25,25,25,1,0,1,0,,,,,,,,,,,,,,,,,,,,,,,,,,,,,,,,,,,,,,,,,,,,,,,,,,,,,,,,,,,,,,,,30,,,,,,,,1984.0815214000177,1984.0815214000177,1984.0815214000177,1984.0815214000177,1984.0815214000177,down,0.34287299984134734,17,0,0,99,0.16,0.15999999999999998,down,0.26630589994601905,,,,,,,,,,,,,,,,,,,,,,,,,,,,,,,,,,,,,,,,,,,,,,,,,,,,,,,,,,,,P6G5HC,train_y,blue_star,top_left,2025-06-30_17h16.20.043,HideSeek_v1,2022.2.5,60.04574284569623,
,4,9,4,6,0,-3,64,,train_dim1_1,26,30,,,,2,0,2,0,,,,,,,,,0,0,0,0,0,25,25,25,2,0,2,0,,,,,,,,,,,,,,,,,,,,,,,,,,,,,,,,,,,,,,,,,,,,,,,,,,,,,,,,,,,,,,,,30,,,,,,,,1984.4313078999985,1984.4313078999985,1984.4313078999985,1984.4313078999985,1984.4313078999985,down,0.34328319993801415,17,0,0,99,0.16,0.07999999999999997,down,0.2668377000372857,,,,,,,,,,,,,,,,,,,,,,,,,,,,,,,,,,,,,,,,,,,,,,,,,,,,,,,,,,,,P6G5HC,train_y,blue_star,top_left,2025-06-30_17h16.20.043,HideSeek_v1,2022.2.5,60.04574284569623,
,4,9,4,6,0,-3,64,,train_dim1_1,26,30,,,,2,0,2,0,,,,,,,,,0,0,0,0,0,25,25,25,3,0,3,0,,,,,,,,,,,,,,,,,,,,,,,,,,,,,,,,,,,,,,,,,,,,,,,,,,,,,,,,,,,,,,,,30,,,,,,,,1984.7833845999558,1984.7833845999558,1984.7833845999558,1984.7833845999558,1984.7833845999558,return,0.35935530019924045,18,0,0,1,0.16,0.07999999999999997,return,0.28238440002314746,-72,0,0.16,0.07999999999999997,,,,,,,,,,,,,,,,,,,,,,,,,,,,,,,,,,,,,,,,,,,,,,,,,,,,,,,,P6G5HC,train_y,blue_star,top_left,2025-06-30_17h16.20.043,HideSeek_v1,2022.2.5,60.04574284569623,
,3,9,3,4,0,-5,66,,train_dim1_1,27,30,,,,2,0,2,0,,,,,,,,,0,0,0,0,0,26,26,26,0,0,0,0,,,,,,,,,,,,,,,,,,,,,,,,,stimuli/alien_stimuli/66.png,,,,,,,,,,,,,,,,,,,,,,,,,,,,,stimuli/alien_stimuli/64.png,64,4,28,,,,,,,30,,,,,,,,1989.043533399934,1989.043533399934,1989.043533399934,1989.043533399934,1989.043533399934,down,0.9537469998467714,18,0,0,99,0.08,0.24,down,0.8752401003148407,,,,,1987.488746299874,1989.043533399934,0.16,0.08,0.24,0.0,0.2,0.16,0.16,0.16,0.08,1986.6964048999362,1986.6964048999362,1986.6964048999362,1986.6964048999362,1986.6964048999362,1986.6964048999362,1986.6964048999362,1986.6964048999362,1986.688314699987,0.8860096998978406,return,0.7752572000026703,,,,,,,,,,,,,,,,,,,,,,,,,,,,,,,,,P6G5HC,train_y,blue_star,top_left,2025-06-30_17h16.20.043,HideSeek_v1,2022.2.5,60.04574284569623,
,3,9,3,4,0,-5,66,,train_dim1_1,27,30,,,,2,0,2,0,,,,,,,,,0,0,0,0,0,26,26,26,1,0,1,0,,,,,,,,,,,,,,,,,,,,,,,,,,,,,,,,,,,,,,,,,,,,,,,,,,,,,,,,,,,,,,,,30,,,,,,,,1990.0048181000166,1990.0048181000166,1990.0048181000166,1990.0048181000166,1990.0048181000166,down,0.3592151999473572,18,0,0,99,0.08,0.15999999999999998,down,0.2713719999883324,,,,,,,,,,,,,,,,,,,,,,,,,,,,,,,,,,,,,,,,,,,,,,,,,,,,,,,,,,,,P6G5HC,train_y,blue_star,top_left,2025-06-30_17h16.20.043,HideSeek_v1,2022.2.5,60.04574284569623,
,3,9,3,4,0,-5,66,,train_dim1_1,27,30,,,,2,0,2,0,,,,,,,,,0,0,0,0,0,26,26,26,2,0,2,0,,,,,,,,,,,,,,,,,,,,,,,,,,,,,,,,,,,,,,,,,,,,,,,,,,,,,,,,,,,,,,,,30,,,,,,,,1990.3706598000135,1990.3706598000135,1990.3706598000135,1990.3706598000135,1990.3706598000135,down,0.34338620002381504,18,0,0,99,0.08,0.07999999999999997,down,0.2587008001282811,,,,,,,,,,,,,,,,,,,,,,,,,,,,,,,,,,,,,,,,,,,,,,,,,,,,,,,,,,,,P6G5HC,train_y,blue_star,top_left,2025-06-30_17h16.20.043,HideSeek_v1,2022.2.5,60.04574284569623,
,3,9,3,4,0,-5,66,,train_dim1_1,27,30,,,,2,0,2,0,,,,,,,,,0,0,0,0,0,26,26,26,3,0,3,0,,,,,,,,,,,,,,,,,,,,,,,,,,,,,,,,,,,,,,,,,,,,,,,,,,,,,,,,,,,,,,,,30,,,,,,,,1990.7217238999438,1990.7217238999438,1990.7217238999438,1990.7217238999438,1990.7217238999438,down,0.34315109997987747,18,0,0,99,0.08,-2.7755575615628914e-17,down,0.26337520009838045,,,,,,,,,,,,,,,,,,,,,,,,,,,,,,,,,,,,,,,,,,,,,,,,,,,,,,,,,,,,P6G5HC,train_y,blue_star,top_left,2025-06-30_17h16.20.043,HideSeek_v1,2022.2.5,60.04574284569623,
,3,9,3,4,0,-5,66,,train_dim1_1,27,30,,,,2,0,2,0,,,,,,,,,0,0,0,0,0,26,26,26,4,0,4,0,,,,,,,,,,,,,,,,,,,,,,,,,,,,,,,,,,,,,,,,,,,,,,,,,,,,,,,,,,,,,,,,30,,,,,,,,1991.0728161998559,1991.0728161998559,1991.0728161998559,1991.0728161998559,1991.0728161998559,down,0.35937129985541105,18,0,0,99,0.08,-0.08000000000000003,down,0.2759469002485275,,,,,,,,,,,,,,,,,,,,,,,,,,,,,,,,,,,,,,,,,,,,,,,,,,,,,,,,,,,,P6G5HC,train_y,blue_star,top_left,2025-06-30_17h16.20.043,HideSeek_v1,2022.2.5,60.04574284569623,
,3,9,3,4,0,-5,66,,train_dim1_1,27,30,,,,2,0,2,0,,,,,,,,,0,0,0,0,0,26,26,26,5,0,5,0,,,,,,,,,,,,,,,,,,,,,,,,,,,,,,,,,,,,,,,,,,,,,,,,,,,,,,,,,,,,,,,,30,,,,,,,,1991.43783239997,1991.43783239997,1991.43783239997,1991.43783239997,1991.43783239997,return,0.4932329000439495,19,0,0,1,0.08,-0.08000000000000003,return,0.4159045002888888,-77,0,0.08,-0.08000000000000003,,,,,,,,,,,,,,,,,,,,,,,,,,,,,,,,,,,,,,,,,,,,,,,,,,,,,,,,P6G5HC,train_y,blue_star,top_left,2025-06-30_17h16.20.043,HideSeek_v1,2022.2.5,60.04574284569623,
,4,6,4,6,0,0,61,,train_dim1_1,28,30,,,,2,0,2,0,,,,,,,,,0,0,0,0,0,27,27,27,0,0,0,0,,,,,,,,,,,,,,,,,,,,,,,,,stimuli/alien_stimuli/61.png,,,,,,,,,,,,,,,,,,,,,,,,,,,,,stimuli/alien_stimuli/66.png,66,3,29,,,,,,,30,,,,,,,,1996.1664193999022,1996.1664193999022,1996.1664193999022,1996.1664193999022,1996.1664193999022,return,2.1208896001335233,20,0,0,1,0.16,0.08,return,2.047826400026679,-77,0,0.16,0.08,1994.6113491998985,1996.1664193999022,0.08,-0.08,0.4,0.0,0.12,0.08,0.08,0.08,-0.08,1993.4805928999558,1993.4805928999558,1993.4805928999558,1993.4805928999558,1993.4805928999558,1993.4805928999558,1993.4805928999558,1993.4805928999558,1993.4772296999115,1.219721200177446,return,1.1014807000756264,,,,,,,,,,,,,,,,,,,,,,,,,,,,,,,,,P6G5HC,train_y,blue_star,top_left,2025-06-30_17h16.20.043,HideSeek_v1,2022.2.5,60.04574284569623,
,2,7,2,6,0,-1,62,,train_dim1_1,29,30,,,,2,0,2,0,,,,,,,,,0,0,0,0,0,28,28,28,0,0,0,0,,,,,,,,,,,,,,,,,,,,,,,,,stimuli/alien_stimuli/62.png,,,,,,,,,,,,,,,,,,,,,,,,,,,,,stimuli/alien_stimuli/61.png,61,4,30,,,,,,,30,,,,,,,,2002.5058557000011,2002.5058557000011,2002.5058557000011,2002.5058557000011,2002.5058557000011,down,1.1868859000969678,20,0,0,99,0,0.08,down,1.1061416000593454,,,,,2000.9498709000181,2002.5058557000011,0.16,0.08,0.0,0.0,0.08,0.16,0.16,0.16,0.08,1999.8394224999938,1999.8394224999938,1999.8394224999938,1999.8394224999938,1999.8394224999938,1999.8394224999938,1999.8394224999938,1999.8394224999938,1999.8324669999536,1.2029280001297593,return,1.0892924000509083,,,,,,,,,,,,,,,,,,,,,,,,,,,,,,,,,P6G5HC,train_y,blue_star,top_left,2025-06-30_17h16.20.043,HideSeek_v1,2022.2.5,60.04574284569623,
,2,7,2,6,0,-1,62,,train_dim1_1,29,30,,,,2,0,2,0,,,,,,,,,0,0,0,0,0,28,28,28,1,0,1,0,,,,,,,,,,,,,,,,,,,,,,,,,,,,,,,,,,,,,,,,,,,,,,,,,,,,,,,,,,,,,,,,30,,,,,,,,2003.700098299887,2003.700098299887,2003.700098299887,2003.700098299887,2003.700098299887,return,0.3585268999449909,21,0,0,1,0,0.08,return,0.27768709999509156,-78,0,0,0.08,,,,,,,,,,,,,,,,,,,,,,,,,,,,,,,,,,,,,,,,,,,,,,,,,,,,,,,,P6G5HC,train_y,blue_star,top_left,2025-06-30_17h16.20.043,HideSeek_v1,2022.2.5,60.04574284569623,
,0,6,0,2,0,-4,65,,train_dim1_1,30,30,,,,2,0,2,0,,,,,,,,,0,0,0,0,0,29,29,29,0,0,0,0,,,,,,,,,,,,,,,,,,,,,,,,,stimuli/alien_stimuli/65.png,,,,,,,,,,,,,,,,,,,,,,,,,,,,,stimuli/alien_stimuli/62.png,62,2,31,,,,,,,30,,,,,,,,2008.1253893999383,2008.1253893999383,2008.1253893999383,2008.1253893999383,2008.1253893999383,down,1.187348400009796,21,0,0,99,-0.16,0.0,down,1.1006682999432087,,,,,2006.5713525998872,2008.1253893999383,0,0.08,0.08,0.0,0.12,0,0.0,0,0.08,2005.61521920003,2005.61521920003,2005.61521920003,2005.61521920003,2005.61521920003,2005.61521920003,2005.61521920003,2005.61521920003,2005.6039045999757,1.0536313999909908,return,0.9242192001547664,,,,,,,,,,,,,,,,,,,,,,,,,,,,,,,,,P6G5HC,train_y,blue_star,top_left,2025-06-30_17h16.20.043,HideSeek_v1,2022.2.5,60.04574284569623,
,0,6,0,2,0,-4,65,,train_dim1_1,30,30,,,,2,0,2,0,,,,,,,,,0,0,0,0,0,29,29,29,1,0,1,0,,,,,,,,,,,,,,,,,,,,,,,,,,,,,,,,,,,,,,,,,,,,,,,,,,,,,,,,,,,,,,,,30,,,,,,,,2009.3225394999608,2009.3225394999608,2009.3225394999608,2009.3225394999608,2009.3225394999608,down,0.37477979995310307,21,0,0,99,-0.16,-0.08,down,0.29237980023026466,,,,,,,,,,,,,,,,,,,,,,,,,,,,,,,,,,,,,,,,,,,,,,,,,,,,,,,,,,,,P6G5HC,train_y,blue_star,top_left,2025-06-30_17h16.20.043,HideSeek_v1,2022.2.5,60.04574284569623,
,0,6,0,2,0,-4,65,,train_dim1_1,30,30,,,,2,0,2,0,,,,,,,,,0,0,0,0,0,29,29,29,2,0,2,0,,,,,,,,,,,,,,,,,,,,,,,,,,,,,,,,,,,,,,,,,,,,,,,,,,,,,,,,,,,,,,,,30,,,,,,,,2009.7038582998794,2009.7038582998794,2009.7038582998794,2009.7038582998794,2009.7038582998794,down,0.3929836000315845,21,0,0,99,-0.16,-0.16,down,0.3213033003266901,,,,,,,,,,,,,,,,,,,,,,,,,,,,,,,,,,,,,,,,,,,,,,,,,,,,,,,,,,,,P6G5HC,train_y,blue_star,top_left,2025-06-30_17h16.20.043,HideSeek_v1,2022.2.5,60.04574284569623,
,0,6,0,2,0,-4,65,,train_dim1_1,30,30,,,,2,0,2,0,,,,,,,,,0,0,0,0,0,29,29,29,3,0,3,0,,,,,,,,,,,,,,,,,,,,,,,,,,,,,,,,,,,,,,,,,,,,,,,,,,,,,,,,,,,,,,,,30,,,,,,,,2010.1038106998894,2010.1038106998894,2010.1038106998894,2010.1038106998894,2010.1038106998894,down,0.3765144001226872,21,0,0,99,-0.16,-0.24,down,0.3038875001948327,,,,,,,,,,,,,,,,,,,,,,,,,,,,,,,,,,,,,,,,,,,,,,,,,,,,,,,,,,,,P6G5HC,train_y,blue_star,top_left,2025-06-30_17h16.20.043,HideSeek_v1,2022.2.5,60.04574284569623,
,0,6,0,2,0,-4,65,,train_dim1_1,30,30,,,,2,0,2,0,,,,,,,,,0,0,0,0,0,29,29,29,4,0,4,0,,,,,,,,,,,,,,,,,,,,,,,,,,,,,,,,,,,,,,,,,,,,,,,,,,,,,,,,,,,,,,,,30,,,,,,,,2010.4870772999711,2010.4870772999711,2010.4870772999711,2010.4870772999711,2010.4870772999711,return,0.4933396999258548,22,0,0,1,-0.16,-0.24,return,0.4205889003351331,-82,0,-0.16,-0.24,,,,,,,,,,,,,,,,,,,,,,,,,,,,,,,,,,,,,,,,,,,,,,,,,,,,,,,,P6G5HC,train_y,blue_star,top_left,2025-06-30_17h16.20.043,HideSeek_v1,2022.2.5,60.04574284569623,
,,,,,,,,,,,30,,,,2,0,2,0,,,,,,,,,,,,,,,,,,,,,,,,,,,,,,,,,,,,,,,,,,,,,,,,,,,,,,,,,,,,,,,,,,,,,,,,,,stimuli/alien_stimuli/65.png,65,0,32,21,0.7,0.9166666666666667,1,1,1,30,0,conditions/schedules/train_y_first/blue_star_00/top_left/inputTrain_2.1.xlsx,99,1,2,1,0,,,,,,,,,,,1,,,,,,,,,2013.643928000005,2015.205589900026,-0.16,-0.24,0.32,0.0,-0.07999999999999999,-0.16,-0.16,-0.16,-0.24,2012.5343257999048,2012.5343257999048,2012.5343257999048,2012.5343257999048,2012.5343257999048,2012.5343257999048,2012.5343257999048,2012.5343257999048,2012.5267228998243,1.2028348001185805,return,1.0879537002183497,0,0.9,0,1,22,,,,,,,,,,,,,,,,,,,,,,,,,,,,P6G5HC,train_y,blue_star,top_left,2025-06-30_17h16.20.043,HideSeek_v1,2022.2.5,60.04574284569623,
,,,,,,,,,,,,,,,3,0,3,0,0,0,0,0,,,,,,,,,,,,,,,,,,,,,,,,,,,,,,,conditions/schedules/train_y_first/blue_star_00/top_left/instructions/Slide17.png,conditions/schedules/train_y_first/blue_star_00/top_left/instructions/Audio17.wav,2015.205589900026,2015.1951809998602,17,"[5.803092899965122, 18.548182199941948, 16.317152900155634, 18.831144399940968, 4.487054700031877, 4.619068499887362, 5.454013699898496, 11.60094609996304, 6.222617499995977, 6.608680400066078, 9.847690199967474, 13.457768599968404, 17.224934000056237, 16.61314449994825, 42.98199000000022, 21.75187400006689, 50.62847570003942]","[0.013960300013422966, 18.54819089989178, 0.014124099863693118, 0.0002171001397073269, 0.01394169987179339, 0.0325464999768883, 5.4540213998407125, 0.0002288001123815775, 0.013720700051635504, 0.0002052001655101776, 0.046933900099247694, 13.457813099958003, 0.014339499874040484, 16.613152199890465, 0.034131000051274896, 21.75188140012324, 50.62848649988882]",0,,,,,,,,,,,,,,,,,,,,,,,,,,,,,,,,,,,,,,,,,,,,,,,,,,,,,,,,,,,,,,,,,,,,,,,,,,,,,,,,,,,,,,,,,,,,,,,,,,,,,,,,,,,,,,,,,,,,,,,,,,,,P6G5HC,train_y,blue_star,top_left,2025-06-30_17h16.20.043,HideSeek_v1,2022.2.5,60.04574284569623,
,,,,,,,,,,,,,,,3,0,3,0,1,0,1,0,,,,,,,,,,,,,,,,,,,,,,,,,,,,,,,conditions/schedules/train_y_first/blue_star_00/top_left/instructions/Slide18.png,conditions/schedules/train_y_first/blue_star_00/top_left/instructions/Audio18.wav,2065.903565000044,2065.9037444000132,18,"[5.803092899965122, 18.548182199941948, 16.317152900155634, 18.831144399940968, 4.487054700031877, 4.619068499887362, 5.454013699898496, 11.60094609996304, 6.222617499995977, 6.608680400066078, 9.847690199967474, 13.457768599968404, 17.224934000056237, 16.61314449994825, 42.98199000000022, 21.75187400006689, 50.62847570003942, 6.0194786000065506]","[0.013960300013422966, 18.54819089989178, 0.014124099863693118, 0.0002171001397073269, 0.01394169987179339, 0.0325464999768883, 5.4540213998407125, 0.0002288001123815775, 0.013720700051635504, 0.0002052001655101776, 0.046933900099247694, 13.457813099958003, 0.014339499874040484, 16.613152199890465, 0.034131000051274896, 21.75188140012324, 0.0002117999829351902, 6.01948649995029]",0,,,,,,,,,,,,,,,,,,,,,,,,,,,,,,,,,,,,,,,,,,,,,,,,,,,,,,,,,,,,,,,,,,,,,,,,,,,,,,,,,,,,,,,,,,,,,,,,,,,,,,,,,,,,,,,,,,,,,,,,,,,,P6G5HC,train_y,blue_star,top_left,2025-06-30_17h16.20.043,HideSeek_v1,2022.2.5,60.04574284569623,
,,,,,,,,,,,,,,,3,0,3,0,2,0,2,0,,,,,,,,,,,,,,,,,,,,,,,,,,,,,,,conditions/schedules/train_y_first/blue_star_00/top_left/instructions/Slide19.png,conditions/schedules/train_y_first/blue_star_00/top_left/instructions/Audio19.wav,2071.97813459998,2071.975791099994,19,"[5.803092899965122, 18.548182199941948, 16.317152900155634, 18.831144399940968, 4.487054700031877, 4.619068499887362, 5.454013699898496, 11.60094609996304, 6.222617499995977, 6.608680400066078, 9.847690199967474, 13.457768599968404, 17.224934000056237, 16.61314449994825, 42.98199000000022, 21.75187400006689, 50.62847570003942, 6.0194786000065506, 9.135998100042343]","[0.013960300013422966, 18.54819089989178, 0.014124099863693118, 0.0002171001397073269, 0.01394169987179339, 0.0325464999768883, 5.4540213998407125, 0.0002288001123815775, 0.013720700051635504, 0.0002052001655101776, 0.046933900099247694, 13.457813099958003, 0.014339499874040484, 16.613152199890465, 0.034131000051274896, 21.75188140012324, 0.0002117999829351902, 0.031011000042781234, 9.136005700100213]",0,,,,,,,,,,,,,,,,,,,,,,,,,,,,,,,,,,,,,,,,,,,,,,,,,,,,,,,,,,,,,,,,,,,,,,,,,,,,,,,,,,,,,,,,,,,,,,,,,,,,,,,,,,,,,,,,,,,,,,,,,,,,P6G5HC,train_y,blue_star,top_left,2025-06-30_17h16.20.043,HideSeek_v1,2022.2.5,60.04574284569623,
,,,,,,,,,,,,,,,3,0,3,0,3,0,3,0,,,,,,,,,,,,,,,,,,,,,,,,,,,,,,,conditions/schedules/train_y_first/blue_star_00/top_left/instructions/Slide20.png,conditions/schedules/train_y_first/blue_star_00/top_left/instructions/Audio20.wav,2081.1687014999334,2081.1665810000154,20,"[5.803092899965122, 18.548182199941948, 16.317152900155634, 18.831144399940968, 4.487054700031877, 4.619068499887362, 5.454013699898496, 11.60094609996304, 6.222617499995977, 6.608680400066078, 9.847690199967474, 13.457768599968404, 17.224934000056237, 16.61314449994825, 42.98199000000022, 21.75187400006689, 50.62847570003942, 6.0194786000065506, 9.135998100042343, 11.838175800163299]","[0.013960300013422966, 18.54819089989178, 0.014124099863693118, 0.0002171001397073269, 0.01394169987179339, 0.0325464999768883, 5.4540213998407125, 0.0002288001123815775, 0.013720700051635504, 0.0002052001655101776, 0.046933900099247694, 13.457813099958003, 0.014339499874040484, 16.613152199890465, 0.034131000051274896, 21.75188140012324, 0.0002117999829351902, 0.031011000042781234, 0.013578400015830994, 11.838187500135973]",0,,,,,,,,,,,,,,,,,,,,,,,,,,,,,,,,,,,,,,,,,,,,,,,,,,,,,,,,,,,,,,,,,,,,,,,,,,,,,,,,,,,,,,,,,,,,,,,,,,,,,,,,,,,,,,,,,,,,,,,,,,,,P6G5HC,train_y,blue_star,top_left,2025-06-30_17h16.20.043,HideSeek_v1,2022.2.5,60.04574284569623,
1,4,5,9,5,5,0,11,2,instr_dim1_2,,,,,,3,0,3,0,,,,,0,0,0,0,,,,,,,,,,,,,,,,,,,,,,,,,,,,,,,,,,,,,stimuli/alien_stimuli/11.png,conditions/schedules/train_y_first/blue_star_00/top_left/inputInstr_2.xlsx,stimuli/alien_stimuli/11.png,2093.116609700024,2093.116609700024,2093.116609700024,2093.116609700024,2093.1099330998495,return,7.18563640024513,"[-0.16, -0.08, 0, 0.08, 0.16, 0.24, 0.32, 0.4, 0.48, 0.56]","[-0.4, -0.32, -0.24, -0.16, -0.08, 0, 0.08, 0.16, 0.24, 0.32]",5,5,9,4,0.0,0.4,2100.4770167998504,2100.4770167998504,2100.4770167998504,2100.4770167998504,2100.4770167998504,2100.4770167998504,2100.4770167998504,2100.4659234998285,6.540146899875253,return,6.362997099990025,stimuli/alien_stimuli/11.png,11,4,1,,,,,,,,,,,,,,,,,,,,,,,,,,,,,,,,,,,,,,,,,,,,,,,,,,,,,,,,,,,,,,,,,,,,,,,,,,,,,,,,,,,,,,,,,P6G5HC,train_y,blue_star,top_left,2025-06-30_17h16.20.043,HideSeek_v1,2022.2.5,60.04574284569623,
,,,,,,,,,,,30,,,,3,0,3,0,,,,,,,,,,,,,,,,,,,,,,,,,,,,,,,,,,,,,,,,,,,,,,,,,,,,,,,,,,,,,,,,,,,,,,,,,,,,,,21,0.7,0.9166666666666667,1,99,2,30,0,conditions/schedules/train_y_first/blue_star_00/top_left/inputTrain_2.1.xlsx,99,1,2,1,0,,,,,,,,,,,,,,,,,,,,,,,,,,,,,,,,,,,,,,,,,,,,,,,,,,,,,,,,,,,,,,,,,,,,,,,,,,,P6G5HC,train_y,blue_star,top_left,2025-06-30_17h16.20.043,HideSeek_v1,2022.2.5,60.04574284569623,
,,,,,,,,,,,,,,,4,0,4,0,0,0,0,0,,,,,,,,,,,,,,,,,,,,,,,,,,,,,,,conditions/schedules/train_y_first/blue_star_00/top_left/instructions/Slide21.png,conditions/schedules/train_y_first/blue_star_00/top_left/instructions/Audio21.wav,2107.0040543000214,2107.0048745999115,21,"[5.803092899965122, 18.548182199941948, 16.317152900155634, 18.831144399940968, 4.487054700031877, 4.619068499887362, 5.454013699898496, 11.60094609996304, 6.222617499995977, 6.608680400066078, 9.847690199967474, 13.457768599968404, 17.224934000056237, 16.61314449994825, 42.98199000000022, 21.75187400006689, 50.62847570003942, 6.0194786000065506, 9.135998100042343, 11.838175800163299, 13.643051899969578]","[0.013960300013422966, 18.54819089989178, 0.014124099863693118, 0.0002171001397073269, 0.01394169987179339, 0.0325464999768883, 5.4540213998407125, 0.0002288001123815775, 0.013720700051635504, 0.0002052001655101776, 0.046933900099247694, 13.457813099958003, 0.014339499874040484, 16.613152199890465, 0.034131000051274896, 21.75188140012324, 0.0002117999829351902, 0.031011000042781234, 0.013578400015830994, 11.838187500135973, 13.643061300041154]",0,,,,,,,,,,,,,,,,,,,,,,,,,,,,,,,,,,,,,,,,,,,,,,,,,,,,,,,,,,,,,,,,,,,,,,,,,,,,,,,,,,,,,,,,,,,,,,,,,,,,,,,,,,,,,,,,,,,,,,,,,,,,P6G5HC,train_y,blue_star,top_left,2025-06-30_17h16.20.043,HideSeek_v1,2022.2.5,60.04574284569623,
2,3,7,3,7,0,0,61,2,instr_dim1_2,,,,,,4,0,4,0,,,,,0,0,0,0,,,,,,,,,,,,,,,,,,,,,,,,,,,,,,,,,,,,,stimuli/alien_stimuli/61.png,conditions/schedules/train_y_first/blue_star_00/top_left/inputInstr_2.xlsx,stimuli/alien_stimuli/61.png,2120.7453242999036,2120.7453242999036,2120.7453242999036,2120.7453242999036,2120.732640000014,return,3.0492758001200855,"[-0.16, -0.08, 0, 0.08, 0.16, 0.24, 0.32, 0.4, 0.48, 0.56]","[-0.4, -0.32, -0.24, -0.16, -0.08, 0, 0.08, 0.16, 0.24, 0.32]",7,7,3,3,0.0,0.0,2123.954367700033,2123.954367700033,2123.954367700033,2123.954367700033,2123.954367700033,2123.954367700033,2123.954367700033,2123.9354563000147,6.206514100078493,return,6.046558599919081,stimuli/alien_stimuli/61.png,61,3,2,,,,,,,,,,,,,,,,,,,,,,,,,,,,,,,,,,,,,,,,,,,,,,,,,,,,,,,,,,,,,,,,,,,,,,,,,,,,,,,,,,,,,,,,,P6G5HC,train_y,blue_star,top_left,2025-06-30_17h16.20.043,HideSeek_v1,2022.2.5,60.04574284569623,
,,,,,,,,,,,30,,,,4,0,4,0,,,,,,,,,,,,,,,,,,,,,,,,,,,,,,,,,,,,,,,,,,,,,,,,,,,,,,,,,,,,,,,,,,,,,,,,,,,,,,21,0.7,0.9166666666666667,1,99,2,30,0,conditions/schedules/train_y_first/blue_star_00/top_left/inputTrain_2.1.xlsx,99,1,2,1,0,,,,,,,,,,,,,,,,,,,,,,,,,,,,,,,,,,,,,,,,,,,,,,,,,,,,,,,,,,,,,,,,,,,,,,,,,,,P6G5HC,train_y,blue_star,top_left,2025-06-30_17h16.20.043,HideSeek_v1,2022.2.5,60.04574284569623,
,,,,,,,,,,,,,,,5,0,5,0,0,0,0,0,,,,,,,,,,,,,,,,,,,,,,,,,,,,,,,conditions/schedules/train_y_first/blue_star_00/top_left/instructions/Slide22.png,conditions/schedules/train_y_first/blue_star_00/top_left/instructions/Audio22.wav,2130.162004899932,2130.157492699847,22,"[5.803092899965122, 18.548182199941948, 16.317152900155634, 18.831144399940968, 4.487054700031877, 4.619068499887362, 5.454013699898496, 11.60094609996304, 6.222617499995977, 6.608680400066078, 9.847690199967474, 13.457768599968404, 17.224934000056237, 16.61314449994825, 42.98199000000022, 21.75187400006689, 50.62847570003942, 6.0194786000065506, 9.135998100042343, 11.838175800163299, 13.643051899969578, 30.300983800087124]","[0.013960300013422966, 18.54819089989178, 0.014124099863693118, 0.0002171001397073269, 0.01394169987179339, 0.0325464999768883, 5.4540213998407125, 0.0002288001123815775, 0.013720700051635504, 0.0002052001655101776, 0.046933900099247694, 13.457813099958003, 0.014339499874040484, 16.613152199890465, 0.034131000051274896, 21.75188140012324, 0.0002117999829351902, 0.031011000042781234, 0.013578400015830994, 11.838187500135973, 13.643061300041154, 30.300991300027817]",0,,,,,,,,,,,,,,,,,,,,,,,,,,,,,,,,,,,,,,,,,,,,,,,,,,,,,,,,,,,,,,,,,,,,,,,,,,,,,,,,,,,,,,,,,,,,,,,,,,,,,,,,,,,,,,,,,,,,,,,,,,,,P6G5HC,train_y,blue_star,top_left,2025-06-30_17h16.20.043,HideSeek_v1,2022.2.5,60.04574284569623,
,2,6,5,6,3,0,31,,train_dim1_2,1,30,,,,5,0,5,0,,,,,,,,,0,0,0,0,0,0,0,0,0,0,0,0,,,,,,,,,,,,,,,,,,,,,,,,,stimuli/alien_stimuli/31.png,,,,,,,,,,,,,,,,,,,,,,,,,,,,,,,,,,,,,,,30,,,,,,,,2160.566971999826,2160.566971999826,2160.566971999826,2160.566971999826,2160.566971999826,right,2.6298179998993874,0,0,0,99,0.08,0.08,right,2.5208809000905603,,,,,,,,,,,,,,,,,,,,,,,,,,,,,,,,,,,,,,,,,,,,,,,,,,,,,,,,,,,,P6G5HC,train_y,blue_star,top_left,2025-06-30_17h16.20.043,HideSeek_v1,2022.2.5,60.04574284569623,
,2,6,5,6,3,0,31,,train_dim1_2,1,30,,,,5,0,5,0,,,,,,,,,0,0,0,0,0,0,0,0,1,0,1,0,,,,,,,,,,,,,,,,,,,,,,,,,,,,,,,,,,,,,,,,,,,,,,,,,,,,,,,,,,,,,,,,30,,,,,,,,2163.1822138999123,2163.1822138999123,2163.1822138999123,2163.1822138999123,2163.1822138999123,right,0.5931528999935836,0,0,0,99,0.16,0.08,right,0.5057049000170082,,,,,,,,,,,,,,,,,,,,,,,,,,,,,,,,,,,,,,,,,,,,,,,,,,,,,,,,,,,,P6G5HC,train_y,blue_star,top_left,2025-06-30_17h16.20.043,HideSeek_v1,2022.2.5,60.04574284569623,
,2,6,5,6,3,0,31,,train_dim1_2,1,30,,,,5,0,5,0,,,,,,,,,0,0,0,0,0,0,0,0,2,0,2,0,,,,,,,,,,,,,,,,,,,,,,,,,,,,,,,,,,,,,,,,,,,,,,,,,,,,,,,,,,,,,,,,30,,,,,,,,2163.7815035998356,2163.7815035998356,2163.7815035998356,2163.7815035998356,2163.7815035998356,right,0.8937492000404745,0,0,0,99,0.24,0.08,right,0.8060875001829118,,,,,,,,,,,,,,,,,,,,,,,,,,,,,,,,,,,,,,,,,,,,,,,,,,,,,,,,,,,,P6G5HC,train_y,blue_star,top_left,2025-06-30_17h16.20.043,HideSeek_v1,2022.2.5,60.04574284569623,
,2,6,5,6,3,0,31,,train_dim1_2,1,30,,,,5,0,5,0,,,,,,,,,0,0,0,0,0,0,0,0,3,0,3,0,,,,,,,,,,,,,,,,,,,,,,,,,,,,,,,,,,,,,,,,,,,,,,,,,,,,,,,,,,,,,,,,30,,,,,,,,2164.68217559997,2164.68217559997,2164.68217559997,2164.68217559997,2164.68217559997,return,1.5944175000768155,1,0,0,1,0.24,0.08,return,1.508028100244701,-82,3,0.24,0.08,,,,,,,,,,,,,,,,,,,,,,,,,,,,,,,,,,,,,,,,,,,,,,,,,,,,,,,,P6G5HC,train_y,blue_star,top_left,2025-06-30_17h16.20.043,HideSeek_v1,2022.2.5,60.04574284569623,
,2,9,7,9,5,0,11,,train_dim1_2,2,30,,,,5,0,5,0,,,,,,,,,0,0,0,0,0,1,1,1,0,0,0,0,,,,,,,,,,,,,,,,,,,,,,,,,stimuli/alien_stimuli/11.png,,,,,,,,,,,,,,,,,,,,,,,,,,,,,stimuli/alien_stimuli/31.png,31,2,3,,,,,,,30,,,,,,,,2170.7738947998732,2170.7738947998732,2170.7738947998732,2170.7738947998732,2170.7738947998732,right,2.152615800034255,1,0,0,99,0.08,0.32,right,2.0504016000777483,,,,,2169.189608699875,2170.7738947998732,0.24,0.08,0.0,0.24,0.08,0.24,0.12,0.24,0.08,2167.855532999849,2167.855532999849,2167.855532999849,2167.855532999849,2167.855532999849,2167.855532999849,2167.855532999849,2167.855532999849,2167.8385807000104,1.453529299935326,return,1.3110641001258045,,,,,,,,,,,,,,,,,,,,,,,,,,,,,,,,,P6G5HC,train_y,blue_star,top_left,2025-06-30_17h16.20.043,HideSeek_v1,2022.2.5,60.04574284569623,
,2,9,7,9,5,0,11,,train_dim1_2,2,30,,,,5,0,5,0,,,,,,,,,0,0,0,0,0,1,1,1,1,0,1,0,,,,,,,,,,,,,,,,,,,,,,,,,,,,,,,,,,,,,,,,,,,,,,,,,,,,,,,,,,,,,,,,30,,,,,,,,2172.909578899853,2172.909578899853,2172.909578899853,2172.909578899853,2172.909578899853,right,0.3766617998480797,1,0,0,99,0.16,0.32,right,0.29794210009276867,,,,,,,,,,,,,,,,,,,,,,,,,,,,,,,,,,,,,,,,,,,,,,,,,,,,,,,,,,,,P6G5HC,train_y,blue_star,top_left,2025-06-30_17h16.20.043,HideSeek_v1,2022.2.5,60.04574284569623,
,2,9,7,9,5,0,11,,train_dim1_2,2,30,,,,5,0,5,0,,,,,,,,,0,0,0,0,0,1,1,1,2,0,2,0,,,,,,,,,,,,,,,,,,,,,,,,,,,,,,,,,,,,,,,,,,,,,,,,,,,,,,,,,,,,,,,,30,,,,,,,,2173.2938099999446,2173.2938099999446,2173.2938099999446,2173.2938099999446,2173.2938099999446,right,0.37607740005478263,1,0,0,99,0.24,0.32,right,0.2956335002090782,,,,,,,,,,,,,,,,,,,,,,,,,,,,,,,,,,,,,,,,,,,,,,,,,,,,,,,,,,,,P6G5HC,train_y,blue_star,top_left,2025-06-30_17h16.20.043,HideSeek_v1,2022.2.5,60.04574284569623,
