trialInstr,x_fixStart,y_fixStart,x_corrSteps,y_corrSteps,x_nrSteps,y_nrSteps,alienID,trialLength,version,trialTrain,praclen,testlen,trial_label,break_on_off,beforeExpLoop.thisRepN,beforeExpLoop.thisTrialN,beforeExpLoop.thisN,beforeExpLoop.thisIndex,mini_instr_trials.thisRepN,mini_instr_trials.thisTrialN,mini_instr_trials.thisN,mini_instr_trials.thisIndex,instrLoop.thisRepN,instrLoop.thisTrialN,instrLoop.thisN,instrLoop.thisIndex,repeat_prac.thisRepN,repeat_prac.thisTrialN,repeat_prac.thisN,repeat_prac.thisIndex,trainLoop.thisRepN,trainLoop.thisTrialN,trainLoop.thisN,trainLoop.thisIndex,moveLoop_train.thisRepN,moveLoop_train.thisTrialN,moveLoop_train.thisN,moveLoop_train.thisIndex,experiment.thisRepN,experiment.thisTrialN,experiment.thisN,experiment.thisIndex,moveLoop_test.thisRepN,moveLoop_test.thisTrialN,moveLoop_test.thisN,moveLoop_test.thisIndex,mini_instr2_trials.thisRepN,mini_instr2_trials.thisTrialN,mini_instr2_trials.thisN,mini_instr2_trials.thisIndex,start_all_time,url,slideStim,audioStim,slides.started,sounds.started,nextButton.numClicks,nextButton.timesOn,nextButton.timesOff,prev_but.numClicks,prev_but.timesOn,prev_but.timesOff,alienStim,instrFile,alienStim_instr,gridImage_instr.started,startPos_3.started,key_instr.started,alienImage_3.started,sounds_1.started,key_instr.keys,key_instr.rt,all_x,all_y,FBy_corrSteps,FBy_fixStart,FBx_corrSteps,FBx_fixStart,FBy_pathSize_check,FBx_pathSize_check,gridImage_9.started,alienImageFB_3.started,startPosFB_3.started,keyFB_3.started,pathLine_ydir_2.started,pathLine_xdir_2.started,alienFace_3.started,sounds_2.started,RTFB_instr,keyFB_3.keys,keyFB_3.rt,draw_alienStim,draw_alienID,test_x,nrepcount,perfthres,percthres,earlierperf,earlystop,nextPrac,fileidx,praclen,saveACC_train,pracFile,nextPrac_train,addNrep,fileidx_endr,repExp,showearly,gridImage_4.started,startPos.started,movePos.started,key_resp.started,alienImage.started,buttonPress_train,RTchoice_train,cumAcctrain,aCorr,saveACC_choice,corrAns,x_movePos_end,y_movePos_end,key_resp.keys,key_resp.rt,wLy_dir,wLx_dir,x_movePos,y_movePos,text_2.started,text_2.stopped,aft_x_corrPos,aft_y_corrPos,y_pathSize_check,x_pathSize_check,y_pathdirY,x_pathdirY,x_pathdirX,x_corrPos,y_corrPos,gridImage_6.started,alienImageFB_2.started,startPosFB_2.started,movePosFB_2.started,keyFB_2.started,pathLine_xdir.started,pathLine_ydir.started,alienFace.started,sounds_4.started,RT_FBtrain,keyFB_2.keys,keyFB_2.rt,saveACC_pre,ACC,within_saveACC_train,earlystop_wloop,cumAcctrain_check,gridImage_3.started,alienImage_test.started,startPos_test.started,movePos_test.started,key_resp_test.started,wLy_dir_test,wLx_dir_test,buttonPress_test,RTchoice_test,cumAcctest,corrAns_test,key_resp_test.keys,key_resp_test.rt,text_3.started,text_3.stopped,total_time,end_all_time,key_resp_3.keys,slides_2.started,sounds_3.started,nextButton_2.numClicks,nextButton_2.timesOn,nextButton_2.timesOff,prev_but_2.numClicks,prev_but_2.timesOn,prev_but_2.timesOff,bye.started,participant,train_first,00_coordinate,starting corner,date,expName,psychopyVersion,frameRate,
,,,,,,,,,,,,,,,0,0,0,0,0,0,0,0,,,,,,,,,,,,,,,,,,,,,,,,,,,,,start_all_time,testround,conditions/schedules/train_x_first/blue_star_00/top_left/instructions/Slide1.png,conditions/schedules/train_x_first/blue_star_00/top_left/instructions/Audio1.wav,636.1928220000118,636.1436829545535,1,[7.501771499868482],[7.5017793998122215],0,,,,,,,,,,,,,,,,,,,,,,,,,,,,,,,,,,,,,,,,,,,,,,,,,,,,,,,,,,,,,,,,,,,,,,,,,,,,,,,,,,,,,,,,,,,,,,,,,,,,,,,,,,,,,,,,,,,,,,,,,,,,PAVC6T,train_x,blue_star,top_left,2025-04-16_17h25.43.877,HideSeek_v1,2022.2.5,59.91956397868432,
,,,,,,,,,,,,,,,0,0,0,0,1,0,1,0,,,,,,,,,,,,,,,,,,,,,,,,,,,,,,,conditions/schedules/train_x_first/blue_star_00/top_left/instructions/Slide2.png,conditions/schedules/train_x_first/blue_star_00/top_left/instructions/Audio2.wav,643.7177148000337,643.7190475997049,2,"[7.501771499868482, 18.531041000038385]","[0.03228020016103983, 18.531047699972987]",0,,,,,,,,,,,,,,,,,,,,,,,,,,,,,,,,,,,,,,,,,,,,,,,,,,,,,,,,,,,,,,,,,,,,,,,,,,,,,,,,,,,,,,,,,,,,,,,,,,,,,,,,,,,,,,,,,,,,,,,,,,,,PAVC6T,train_x,blue_star,top_left,2025-04-16_17h25.43.877,HideSeek_v1,2022.2.5,59.91956397868432,
,,,,,,,,,,,,,,,0,0,0,0,2,0,2,0,,,,,,,,,,,,,,,,,,,,,,,,,,,,,,,conditions/schedules/train_x_first/blue_star_00/top_left/instructions/Slide3.png,conditions/schedules/train_x_first/blue_star_00/top_left/instructions/Audio3.wav,662.3297425000928,662.3176722999196,3,"[7.501771499868482, 18.531041000038385, 16.515852199867368]","[0.03228020016103983, 0.014054999686777592, 16.51585889980197]",0,,,,,,,,,,,,,,,,,,,,,,,,,,,,,,,,,,,,,,,,,,,,,,,,,,,,,,,,,,,,,,,,,,,,,,,,,,,,,,,,,,,,,,,,,,,,,,,,,,,,,,,,,,,,,,,,,,,,,,,,,,,,PAVC6T,train_x,blue_star,top_left,2025-04-16_17h25.43.877,HideSeek_v1,2022.2.5,59.91956397868432,
,,,,,,,,,,,,,,,0,0,0,0,3,0,3,0,,,,,,,,,,,,,,,,,,,,,,,,,,,,,,,conditions/schedules/train_x_first/blue_star_00/top_left/instructions/Slide4.png,conditions/schedules/train_x_first/blue_star_00/top_left/instructions/Audio4.wav,678.929786299821,678.9313383797183,4,"[7.501771499868482, 18.531041000038385, 16.515852199867368, 19.432552699930966]","[0.03228020016103983, 0.014054999686777592, 16.51585889980197, 19.43256299989298]",0,,,,,,,,,,,,,,,,,,,,,,,,,,,,,,,,,,,,,,,,,,,,,,,,,,,,,,,,,,,,,,,,,,,,,,,,,,,,,,,,,,,,,,,,,,,,,,,,,,,,,,,,,,,,,,,,,,,,,,,,,,,,PAVC6T,train_x,blue_star,top_left,2025-04-16_17h25.43.877,HideSeek_v1,2022.2.5,59.91956397868432,
,,,,,,,,,,,,,,,0,0,0,0,4,0,4,0,,,,,,,,,,,,,,,,,,,,,,,,,,,,,,,conditions/schedules/train_x_first/blue_star_00/top_left/instructions/Slide5.png,conditions/schedules/train_x_first/blue_star_00/top_left/instructions/Audio5.wav,698.4316154997796,698.4310198000167,5,"[7.501771499868482, 18.531041000038385, 16.515852199867368, 19.432552699930966, 3.883446800056845]","[0.03228020016103983, 0.014054999686777592, 16.51585889980197, 0.030429699923843145, 3.8834532001055777]",0,,,,,,,,,,,,,,,,,,,,,,,,,,,,,,,,,,,,,,,,,,,,,,,,,,,,,,,,,,,,,,,,,,,,,,,,,,,,,,,,,,,,,,,,,,,,,,,,,,,,,,,,,,,,,,,,,,,,,,,,,,,,PAVC6T,train_x,blue_star,top_left,2025-04-16_17h25.43.877,HideSeek_v1,2022.2.5,59.91956397868432,
,,,,,,,,,,,,,,,0,0,0,0,5,0,5,0,,,,,,,,,,,,,,,,,,,,,,,,,,,,,,,conditions/schedules/train_x_first/blue_star_00/top_left/instructions/Slide6.png,conditions/schedules/train_x_first/blue_star_00/top_left/instructions/Audio6.wav,702.3677741996944,702.3676652199589,6,"[7.501771499868482, 18.531041000038385, 16.515852199867368, 19.432552699930966, 3.883446800056845, 4.401162600144744]","[0.03228020016103983, 0.014054999686777592, 16.51585889980197, 0.030429699923843145, 0.04732810007408261, 4.401169199962169]",0,,,,,,,,,,,,,,,,,,,,,,,,,,,,,,,,,,,,,,,,,,,,,,,,,,,,,,,,,,,,,,,,,,,,,,,,,,,,,,,,,,,,,,,,,,,,,,,,,,,,,,,,,,,,,,,,,,,,,,,,,,,,PAVC6T,train_x,blue_star,top_left,2025-04-16_17h25.43.877,HideSeek_v1,2022.2.5,59.91956397868432,
,,,,,,,,,,,,,,,0,0,0,0,6,0,6,0,,,,,,,,,,,,,,,,,,,,,,,,,,,,,,,conditions/schedules/train_x_first/blue_star_00/top_left/instructions/Slide7.png,conditions/schedules/train_x_first/blue_star_00/top_left/instructions/Audio7.wav,706.8214149000123,706.8213632198982,7,"[7.501771499868482, 18.531041000038385, 16.515852199867368, 19.432552699930966, 3.883446800056845, 4.401162600144744, 5.401717099826783]","[0.03228020016103983, 0.014054999686777592, 16.51585889980197, 0.030429699923843145, 0.04732810007408261, 0.04838849976658821, 5.401723700109869]",0,,,,,,,,,,,,,,,,,,,,,,,,,,,,,,,,,,,,,,,,,,,,,,,,,,,,,,,,,,,,,,,,,,,,,,,,,,,,,,,,,,,,,,,,,,,,,,,,,,,,,,,,,,,,,,,,,,,,,,,,,,,,PAVC6T,train_x,blue_star,top_left,2025-04-16_17h25.43.877,HideSeek_v1,2022.2.5,59.91956397868432,
,,,,,,,,,,,,,,,0,0,0,0,7,0,7,0,,,,,,,,,,,,,,,,,,,,,,,,,,,,,,,conditions/schedules/train_x_first/blue_star_00/top_left/instructions/Slide8.png,conditions/schedules/train_x_first/blue_star_00/top_left/instructions/Audio8.wav,712.2765616998076,712.2756414198317,8,"[7.501771499868482, 18.531041000038385, 16.515852199867368, 19.432552699930966, 3.883446800056845, 4.401162600144744, 5.401717099826783, 11.773391299881041]","[0.03228020016103983, 0.014054999686777592, 16.51585889980197, 0.030429699923843145, 0.04732810007408261, 0.04838849976658821, 0.030569099821150303, 11.773399900179356]",0,,,,,,,,,,,,,,,,,,,,,,,,,,,,,,,,,,,,,,,,,,,,,,,,,,,,,,,,,,,,,,,,,,,,,,,,,,,,,,,,,,,,,,,,,,,,,,,,,,,,,,,,,,,,,,,,,,,,,,,,,,,,PAVC6T,train_x,blue_star,top_left,2025-04-16_17h25.43.877,HideSeek_v1,2022.2.5,59.91956397868432,
,,,,,,,,,,,,,,,0,0,0,0,8,0,8,0,,,,,,,,,,,,,,,,,,,,,,,,,,,,,,,conditions/schedules/train_x_first/blue_star_00/top_left/instructions/Slide9.png,conditions/schedules/train_x_first/blue_star_00/top_left/instructions/Audio9.wav,724.1186750996858,724.1190027997363,9,"[7.501771499868482, 18.531041000038385, 16.515852199867368, 19.432552699930966, 3.883446800056845, 4.401162600144744, 5.401717099826783, 11.773391299881041, 6.286335000302643]","[0.03228020016103983, 0.014054999686777592, 16.51585889980197, 0.030429699923843145, 0.04732810007408261, 0.04838849976658821, 0.030569099821150303, 0.03144140029326081, 6.286341600120068]",0,,,,,,,,,,,,,,,,,,,,,,,,,,,,,,,,,,,,,,,,,,,,,,,,,,,,,,,,,,,,,,,,,,,,,,,,,,,,,,,,,,,,,,,,,,,,,,,,,,,,,,,,,,,,,,,,,,,,,,,,,,,,PAVC6T,train_x,blue_star,top_left,2025-04-16_17h25.43.877,HideSeek_v1,2022.2.5,59.91956397868432,
,,,,,,,,,,,,,,,0,0,0,0,9,0,9,0,,,,,,,,,,,,,,,,,,,,,,,,,,,,,,,conditions/schedules/train_x_first/blue_star_00/top_left/instructions/Slide10.png,conditions/schedules/train_x_first/blue_star_00/top_left/instructions/Audio10.wav,730.4438096997328,730.4410094400401,10,"[7.501771499868482, 18.531041000038385, 16.515852199867368, 19.432552699930966, 3.883446800056845, 4.401162600144744, 5.401717099826783, 11.773391299881041, 6.286335000302643, 6.666735900100321]","[0.03228020016103983, 0.014054999686777592, 16.51585889980197, 0.030429699923843145, 0.04732810007408261, 0.04838849976658821, 0.030569099821150303, 0.03144140029326081, 0.03085889993235469, 6.6667420999147]",0,,,,,,,,,,,,,,,,,,,,,,,,,,,,,,,,,,,,,,,,,,,,,,,,,,,,,,,,,,,,,,,,,,,,,,,,,,,,,,,,,,,,,,,,,,,,,,,,,,,,,,,,,,,,,,,,,,,,,,,,,,,,PAVC6T,train_x,blue_star,top_left,2025-04-16_17h25.43.877,HideSeek_v1,2022.2.5,59.91956397868432,
,,,,,,,,,,,,,,,0,0,0,0,10,0,10,0,,,,,,,,,,,,,,,,,,,,,,,,,,,,,,,conditions/schedules/train_x_first/blue_star_00/top_left/instructions/Slide11.png,conditions/schedules/train_x_first/blue_star_00/top_left/instructions/Audio11.wav,737.1685271998867,737.1632757199928,11,"[7.501771499868482, 18.531041000038385, 16.515852199867368, 19.432552699930966, 3.883446800056845, 4.401162600144744, 5.401717099826783, 11.773391299881041, 6.286335000302643, 6.666735900100321, 10.034674099646509]","[0.03228020016103983, 0.014054999686777592, 16.51585889980197, 0.030429699923843145, 0.04732810007408261, 0.04838849976658821, 0.030569099821150303, 0.03144140029326081, 0.03085889993235469, 0.030952999833971262, 10.034680099692196]",0,,,,,,,,,,,,,,,,,,,,,,,,,,,,,,,,,,,,,,,,,,,,,,,,,,,,,,,,,,,,,,,,,,,,,,,,,,,,,,,,,,,,,,,,,,,,,,,,,,,,,,,,,,,,,,,,,,,,,,,,,,,,PAVC6T,train_x,blue_star,top_left,2025-04-16_17h25.43.877,HideSeek_v1,2022.2.5,59.91956397868432,
,,,,,,,,,,,,,,,0,0,0,0,11,0,11,0,,,,,,,,,,,,,,,,,,,,,,,,,,,,,,,conditions/schedules/train_x_first/blue_star_00/top_left/instructions/Slide12.png,conditions/schedules/train_x_first/blue_star_00/top_left/instructions/Audio12.wav,747.2745532998815,747.2725041999947,12,"[7.501771499868482, 18.531041000038385, 16.515852199867368, 19.432552699930966, 3.883446800056845, 4.401162600144744, 5.401717099826783, 11.773391299881041, 6.286335000302643, 6.666735900100321, 10.034674099646509, 12.438053800258785]","[0.03228020016103983, 0.014054999686777592, 16.51585889980197, 0.030429699923843145, 0.04732810007408261, 0.04838849976658821, 0.030569099821150303, 0.03144140029326081, 0.03085889993235469, 0.030952999833971262, 0.029953900258988142, 12.438060500193387]",0,,,,,,,,,,,,,,,,,,,,,,,,,,,,,,,,,,,,,,,,,,,,,,,,,,,,,,,,,,,,,,,,,,,,,,,,,,,,,,,,,,,,,,,,,,,,,,,,,,,,,,,,,,,,,,,,,,,,,,,,,,,,PAVC6T,train_x,blue_star,top_left,2025-04-16_17h25.43.877,HideSeek_v1,2022.2.5,59.91956397868432,
1,4,5,9,5,5,0,11,2,instr_dim1_1,,,,,,0,0,0,0,,,,,0,0,0,0,,,,,,,,,,,,,,,,,,,,,,,,,,,,,,,,,,,,,stimuli/alien_stimuli/11.png,conditions/schedules/train_x_first/blue_star_00/top_left/inputInstr_1.xlsx,stimuli/alien_stimuli/11.png,759.8171685999259,759.8171685999259,759.8171685999259,759.8171685999259,759.8152839596848,return,7.600304499734193,"[-0.16, -0.08, 0, 0.08, 0.16, 0.24, 0.32, 0.4, 0.48, 0.56]","[-0.4, -0.32, -0.24, -0.16, -0.08, 0, 0.08, 0.16, 0.24, 0.32]",5,5,9,4,0.0,0.4,767.5684798997827,767.5684798997827,767.5684798997827,767.5684798997827,767.5684798997827,767.5684798997827,767.5684798997827,767.5549215397797,6.889630900230259,return,6.727941399905831,stimuli/alien_stimuli/11.png,11,4,1,,,,,,,,,,,,,,,,,,,,,,,,,,,,,,,,,,,,,,,,,,,,,,,,,,,,,,,,,,,,,,,,,,,,,,,,,,,,,,,,,,,,,,,,,PAVC6T,train_x,blue_star,top_left,2025-04-16_17h25.43.877,HideSeek_v1,2022.2.5,59.91956397868432,
,,,,,,,,,,,30,,,,0,0,0,0,,,,,,,,,,,,,,,,,,,,,,,,,,,,,,,,,,,,,,,,,,,,,,,,,,,,,,,,,,,,,,,,,,,,,,,,,,,,,,21,0.7,0,0,99,1,30,0,conditions/schedules/train_x_first/blue_star_00/top_left/inputTrain_1.1.xlsx,99,1,1,1,0,,,,,,,,,,,,,,,,,,,,,,,,,,,,,,,,,,,,,,,,,,,,,,,,,,,,,,,,,,,,,,,,,,,,,,,,,,,PAVC6T,train_x,blue_star,top_left,2025-04-16_17h25.43.877,HideSeek_v1,2022.2.5,59.91956397868432,
,,,,,,,,,,,,,,,1,0,1,0,0,0,0,0,,,,,,,,,,,,,,,,,,,,,,,,,,,,,,,conditions/schedules/train_x_first/blue_star_00/top_left/instructions/Slide13.png,conditions/schedules/train_x_first/blue_star_00/top_left/instructions/Audio13.wav,774.458284100052,774.4606183195953,13,"[7.501771499868482, 18.531041000038385, 16.515852199867368, 19.432552699930966, 3.883446800056845, 4.401162600144744, 5.401717099826783, 11.773391299881041, 6.286335000302643, 6.666735900100321, 10.034674099646509, 12.438053800258785, 17.347427300177515]","[0.03228020016103983, 0.014054999686777592, 16.51585889980197, 0.030429699923843145, 0.04732810007408261, 0.04838849976658821, 0.030569099821150303, 0.03144140029326081, 0.03085889993235469, 0.030952999833971262, 0.029953900258988142, 12.438060500193387, 17.34743420034647]",0,,,,,,,,,,,,,,,,,,,,,,,,,,,,,,,,,,,,,,,,,,,,,,,,,,,,,,,,,,,,,,,,,,,,,,,,,,,,,,,,,,,,,,,,,,,,,,,,,,,,,,,,,,,,,,,,,,,,,,,,,,,,PAVC6T,train_x,blue_star,top_left,2025-04-16_17h25.43.877,HideSeek_v1,2022.2.5,59.91956397868432,
,,,,,,,,,,,,,,,1,0,1,0,1,0,1,0,,,,,,,,,,,,,,,,,,,,,,,,,,,,,,,conditions/schedules/train_x_first/blue_star_00/top_left/instructions/Slide14.png,conditions/schedules/train_x_first/blue_star_00/top_left/instructions/Audio14.wav,791.8759101000614,791.8753862997983,14,"[7.501771499868482, 18.531041000038385, 16.515852199867368, 19.432552699930966, 3.883446800056845, 4.401162600144744, 5.401717099826783, 11.773391299881041, 6.286335000302643, 6.666735900100321, 10.034674099646509, 12.438053800258785, 17.347427300177515, 12.157383599784225]","[0.03228020016103983, 0.014054999686777592, 16.51585889980197, 0.030429699923843145, 0.04732810007408261, 0.04838849976658821, 0.030569099821150303, 0.03144140029326081, 0.03085889993235469, 0.030952999833971262, 0.029953900258988142, 12.438060500193387, 0.03117489954456687, 12.15739019960165]",0,,,,,,,,,,,,,,,,,,,,,,,,,,,,,,,,,,,,,,,,,,,,,,,,,,,,,,,,,,,,,,,,,,,,,,,,,,,,,,,,,,,,,,,,,,,,,,,,,,,,,,,,,,,,,,,,,,,,,,,,,,,,PAVC6T,train_x,blue_star,top_left,2025-04-16_17h25.43.877,HideSeek_v1,2022.2.5,59.91956397868432,
2,3,7,3,7,0,0,61,2,instr_dim1_1,,,,,,1,0,1,0,,,,,0,0,0,0,,,,,,,,,,,,,,,,,,,,,,,,,,,,,,,,,,,,,stimuli/alien_stimuli/61.png,conditions/schedules/train_x_first/blue_star_00/top_left/inputInstr_1.xlsx,stimuli/alien_stimuli/61.png,804.1331949997693,804.1331949997693,804.1331949997693,804.1331949997693,804.1188023799099,return,6.629321400076151,"[-0.16, -0.08, 0, 0.08, 0.16, 0.24, 0.32, 0.4, 0.48, 0.56]","[-0.4, -0.32, -0.24, -0.16, -0.08, 0, 0.08, 0.16, 0.24, 0.32]",7,7,3,3,0.0,0.0,810.9198002996854,810.9198002996854,810.9198002996854,810.9198002996854,810.9198002996854,810.9198002996854,810.9198002996854,810.9075706399045,7.1735967001877725,return,7.020333199761808,stimuli/alien_stimuli/61.png,61,3,2,,,,,,,,,,,,,,,,,,,,,,,,,,,,,,,,,,,,,,,,,,,,,,,,,,,,,,,,,,,,,,,,,,,,,,,,,,,,,,,,,,,,,,,,,PAVC6T,train_x,blue_star,top_left,2025-04-16_17h25.43.877,HideSeek_v1,2022.2.5,59.91956397868432,
,,,,,,,,,,,30,,,,1,0,1,0,,,,,,,,,,,,,,,,,,,,,,,,,,,,,,,,,,,,,,,,,,,,,,,,,,,,,,,,,,,,,,,,,,,,,,,,,,,,,,21,0.7,0,0,99,1,30,0,conditions/schedules/train_x_first/blue_star_00/top_left/inputTrain_1.1.xlsx,99,1,1,1,0,,,,,,,,,,,,,,,,,,,,,,,,,,,,,,,,,,,,,,,,,,,,,,,,,,,,,,,,,,,,,,,,,,,,,,,,,,,PAVC6T,train_x,blue_star,top_left,2025-04-16_17h25.43.877,HideSeek_v1,2022.2.5,59.91956397868432,
,,,,,,,,,,,,,,,2,0,2,0,0,0,0,0,,,,,,,,,,,,,,,,,,,,,,,,,,,,,,,conditions/schedules/train_x_first/blue_star_00/top_left/instructions/Slide15.png,conditions/schedules/train_x_first/blue_star_00/top_left/instructions/Audio15.wav,818.1051449999213,818.0969274199102,15,"[7.501771499868482, 18.531041000038385, 16.515852199867368, 19.432552699930966, 3.883446800056845, 4.401162600144744, 5.401717099826783, 11.773391299881041, 6.286335000302643, 6.666735900100321, 10.034674099646509, 12.438053800258785, 17.347427300177515, 12.157383599784225, 29.814025099854916]","[0.03228020016103983, 0.014054999686777592, 16.51585889980197, 0.030429699923843145, 0.04732810007408261, 0.04838849976658821, 0.030569099821150303, 0.03144140029326081, 0.03085889993235469, 0.030952999833971262, 0.029953900258988142, 12.438060500193387, 0.03117489954456687, 12.15739019960165, 29.814031899906695]",0,,,,,,,,,,,,,,,,,,,,,,,,,,,,,,,,,,,,,,,,,,,,,,,,,,,,,,,,,,,,,,,,,,,,,,,,,,,,,,,,,,,,,,,,,,,,,,,,,,,,,,,,,,,,,,,,,,,,,,,,,,,,PAVC6T,train_x,blue_star,top_left,2025-04-16_17h25.43.877,HideSeek_v1,2022.2.5,59.91956397868432,
,,,,,,,,,,,,,,,2,0,2,0,1,0,1,0,,,,,,,,,,,,,,,,,,,,,,,,,,,,,,,conditions/schedules/train_x_first/blue_star_00/top_left/instructions/Slide16.png,conditions/schedules/train_x_first/blue_star_00/top_left/instructions/Audio16.wav,847.9898922001012,847.9884671999607,16,"[7.501771499868482, 18.531041000038385, 16.515852199867368, 19.432552699930966, 3.883446800056845, 4.401162600144744, 5.401717099826783, 11.773391299881041, 6.286335000302643, 6.666735900100321, 10.034674099646509, 12.438053800258785, 17.347427300177515, 12.157383599784225, 29.814025099854916, 21.9312058002688]","[0.03228020016103983, 0.014054999686777592, 16.51585889980197, 0.030429699923843145, 0.04732810007408261, 0.04838849976658821, 0.030569099821150303, 0.03144140029326081, 0.03085889993235469, 0.030952999833971262, 0.029953900258988142, 12.438060500193387, 0.03117489954456687, 12.15739019960165, 0.04654880007728934, 21.931212700437754]",0,,,,,,,,,,,,,,,,,,,,,,,,,,,,,,,,,,,,,,,,,,,,,,,,,,,,,,,,,,,,,,,,,,,,,,,,,,,,,,,,,,,,,,,,,,,,,,,,,,,,,,,,,,,,,,,,,,,,,,,,,,,,PAVC6T,train_x,blue_star,top_left,2025-04-16_17h25.43.877,HideSeek_v1,2022.2.5,59.91956397868432,
,2,6,5,6,3,0,31,,train_dim1_1,1,30,,,,2,0,2,0,,,,,,,,,0,0,0,0,0,0,0,0,0,0,0,0,,,,,,,,,,,,,,,,,,,,,,,,,stimuli/alien_stimuli/31.png,,,,,,,,,,,,,,,,,,,,,,,,,,,,,,,,,,,,,,,30,,,,,,,,870.0165578997694,870.0165578997694,870.0165578997694,870.0165578997694,870.0165578997694,right,5.0831311997026205,0,0,0,99,0.08,0.08,right,4.994830500334501,,,,,,,,,,,,,,,,,,,,,,,,,,,,,,,,,,,,,,,,,,,,,,,,,,,,,,,,,,,,PAVC6T,train_x,blue_star,top_left,2025-04-16_17h25.43.877,HideSeek_v1,2022.2.5,59.91956397868432,
,2,6,5,6,3,0,31,,train_dim1_1,1,30,,,,2,0,2,0,,,,,,,,,0,0,0,0,0,0,0,0,1,0,1,0,,,,,,,,,,,,,,,,,,,,,,,,,,,,,,,,,,,,,,,,,,,,,,,,,,,,,,,,,,,,,,,,30,,,,,,,,875.0931432996877,875.0931432996877,875.0931432996877,875.0931432996877,875.0931432996877,right,0.7261187001131475,0,0,0,99,0.16,0.08,right,0.6503029996529222,,,,,,,,,,,,,,,,,,,,,,,,,,,,,,,,,,,,,,,,,,,,,,,,,,,,,,,,,,,,PAVC6T,train_x,blue_star,top_left,2025-04-16_17h25.43.877,HideSeek_v1,2022.2.5,59.91956397868432,
,2,6,5,6,3,0,31,,train_dim1_1,1,30,,,,2,0,2,0,,,,,,,,,0,0,0,0,0,0,0,0,2,0,2,0,,,,,,,,,,,,,,,,,,,,,,,,,,,,,,,,,,,,,,,,,,,,,,,,,,,,,,,,,,,,,,,,30,,,,,,,,875.8255030997097,875.8255030997097,875.8255030997097,875.8255030997097,875.8255030997097,right,1.0270805000327528,0,0,0,99,0.24,0.08,right,0.9469312997534871,,,,,,,,,,,,,,,,,,,,,,,,,,,,,,,,,,,,,,,,,,,,,,,,,,,,,,,,,,,,PAVC6T,train_x,blue_star,top_left,2025-04-16_17h25.43.877,HideSeek_v1,2022.2.5,59.91956397868432,
,2,6,5,6,3,0,31,,train_dim1_1,1,30,,,,2,0,2,0,,,,,,,,,0,0,0,0,0,0,0,0,3,0,3,0,,,,,,,,,,,,,,,,,,,,,,,,,,,,,,,,,,,,,,,,,,,,,,,,,,,,,,,,,,,,,,,,30,,,,,,,,876.8598360996693,876.8598360996693,876.8598360996693,876.8598360996693,876.8598360996693,right,2.6450894996523857,0,0,0,99,0.32,0.08,right,2.5724304001778364,,,,,,,,,,,,,,,,,,,,,,,,,,,,,,,,,,,,,,,,,,,,,,,,,,,,,,,,,,,,PAVC6T,train_x,blue_star,top_left,2025-04-16_17h25.43.877,HideSeek_v1,2022.2.5,59.91956397868432,
,2,6,5,6,3,0,31,,train_dim1_1,1,30,,,,2,0,2,0,,,,,,,,,0,0,0,0,0,0,0,0,4,0,4,0,,,,,,,,,,,,,,,,,,,,,,,,,,,,,,,,,,,,,,,,,,,,,,,,,,,,,,,,,,,,,,,,30,,,,,,,,879.5111789996736,879.5111789996736,879.5111789996736,879.5111789996736,879.5111789996736,left,1.2607848001644015,0,0,0,99,0.24,0.08,left,1.176044899970293,,,,,,,,,,,,,,,,,,,,,,,,,,,,,,,,,,,,,,,,,,,,,,,,,,,,,,,,,,,,PAVC6T,train_x,blue_star,top_left,2025-04-16_17h25.43.877,HideSeek_v1,2022.2.5,59.91956397868432,
,2,6,5,6,3,0,31,,train_dim1_1,1,30,,,,2,0,2,0,,,,,,,,,0,0,0,0,0,0,0,0,5,0,5,0,,,,,,,,,,,,,,,,,,,,,,,,,,,,,,,,,,,,,,,,,,,,,,,,,,,,,,,,,,,,,,,,30,,,,,,,,880.7803822997957,880.7803822997957,880.7803822997957,880.7803822997957,880.7803822997957,return,0.49322120007127523,1,0,0,1,0.24,0.08,return,0.41013129986822605,0,3,0.24,0.08,,,,,,,,,,,,,,,,,,,,,,,,,,,,,,,,,,,,,,,,,,,,,,,,,,,,,,,,PAVC6T,train_x,blue_star,top_left,2025-04-16_17h25.43.877,HideSeek_v1,2022.2.5,59.91956397868432,
,2,9,7,9,5,0,11,,train_dim1_1,2,30,,,,2,0,2,0,,,,,,,,,0,0,0,0,0,1,1,1,0,0,0,0,,,,,,,,,,,,,,,,,,,,,,,,,stimuli/alien_stimuli/11.png,,,,,,,,,,,,,,,,,,,,,,,,,,,,,stimuli/alien_stimuli/31.png,31,2,3,,,,,,,30,,,,,,,,891.5248342999257,891.5248342999257,891.5248342999257,891.5248342999257,891.5248342999257,right,4.08922820026055,1,0,0,99,0.08,0.32,right,3.9978686003014445,,,,,889.957073699683,891.5248342999257,0.24,0.08,0.0,0.24,0.08,0.24,0.12,0.24,0.08,882.848320200108,882.848320200108,882.848320200108,882.848320200108,882.848320200108,882.848320200108,882.848320200108,882.848320200108,882.834054759657,7.225138400215656,return,7.081966999918222,,,,,,,,,,,,,,,,,,,,,,,,,,,,,,,,,PAVC6T,train_x,blue_star,top_left,2025-04-16_17h25.43.877,HideSeek_v1,2022.2.5,59.91956397868432,
,2,9,7,9,5,0,11,,train_dim1_1,2,30,,,,2,0,2,0,,,,,,,,,0,0,0,0,0,1,1,1,1,0,1,0,,,,,,,,,,,,,,,,,,,,,,,,,,,,,,,,,,,,,,,,,,,,,,,,,,,,,,,,,,,,,,,,30,,,,,,,,895.6124666999094,895.6124666999094,895.6124666999094,895.6124666999094,895.6124666999094,right,0.8100294996984303,1,0,0,99,0.16,0.32,right,0.7231593998149037,,,,,,,,,,,,,,,,,,,,,,,,,,,,,,,,,,,,,,,,,,,,,,,,,,,,,,,,,,,,PAVC6T,train_x,blue_star,top_left,2025-04-16_17h25.43.877,HideSeek_v1,2022.2.5,59.91956397868432,
,2,9,7,9,5,0,11,,train_dim1_1,2,30,,,,2,0,2,0,,,,,,,,,0,0,0,0,0,1,1,1,2,0,2,0,,,,,,,,,,,,,,,,,,,,,,,,,,,,,,,,,,,,,,,,,,,,,,,,,,,,,,,,,,,,,,,,30,,,,,,,,896.4286764999852,896.4286764999852,896.4286764999852,896.4286764999852,896.4286764999852,right,0.8269083998166025,1,0,0,99,0.24,0.32,right,0.7441589999943972,,,,,,,,,,,,,,,,,,,,,,,,,,,,,,,,,,,,,,,,,,,,,,,,,,,,,,,,,,,,PAVC6T,train_x,blue_star,top_left,2025-04-16_17h25.43.877,HideSeek_v1,2022.2.5,59.91956397868432,
,2,9,7,9,5,0,11,,train_dim1_1,2,30,,,,2,0,2,0,,,,,,,,,0,0,0,0,0,1,1,1,3,0,3,0,,,,,,,,,,,,,,,,,,,,,,,,,,,,,,,,,,,,,,,,,,,,,,,,,,,,,,,,,,,,,,,,30,,,,,,,,897.2634903998114,897.2634903998114,897.2634903998114,897.2634903998114,897.2634903998114,right,0.8600333002395928,1,0,0,99,0.32,0.32,right,0.7830113000236452,,,,,,,,,,,,,,,,,,,,,,,,,,,,,,,,,,,,,,,,,,,,,,,,,,,,,,,,,,,,PAVC6T,train_x,blue_star,top_left,2025-04-16_17h25.43.877,HideSeek_v1,2022.2.5,59.91956397868432,
,2,9,7,9,5,0,11,,train_dim1_1,2,30,,,,2,0,2,0,,,,,,,,,0,0,0,0,0,1,1,1,4,0,4,0,,,,,,,,,,,,,,,,,,,,,,,,,,,,,,,,,,,,,,,,,,,,,,,,,,,,,,,,,,,,,,,,30,,,,,,,,898.1310061998665,898.1310061998665,898.1310061998665,898.1310061998665,898.1310061998665,return,2.862178099807352,1,1,0,0,0.32,0.32,return,2.7744660996831954,0,7,0.32,0.32,,,,,,,,,,,,,,,,,,,,,,,,,,,,,,,,,,,,,,,,,,,,,,,,,,,,,,,,PAVC6T,train_x,blue_star,top_left,2025-04-16_17h25.43.877,HideSeek_v1,2022.2.5,59.91956397868432,
,4,9,8,9,4,0,21,,train_dim1_1,3,30,,,,2,0,2,0,,,,,,,,,0,0,0,0,0,2,2,2,0,0,0,0,,,,,,,,,,,,,,,,,,,,,,,,,stimuli/alien_stimuli/21.png,,,,,,,,,,,,,,,,,,,,,,,,,,,,,stimuli/alien_stimuli/11.png,11,2,4,,,,,,,30,,,,,,,,919.9769794000313,919.9769794000313,919.9769794000313,919.9769794000313,919.9769794000313,right,3.040594999678433,1,1,0,99,0.24,0.32,right,2.933949099853635,,,,,918.3970204996876,919.9769794000313,0.4,0.32,0.0,0.4,0.32,0.4,0.2,0.4,0.32,902.5771598997526,902.5771598997526,902.5771598997526,902.5771598997526,902.5771598997526,902.5771598997526,902.5771598997526,902.5771598997526,902.5671832396648,15.94858599966392,return,15.800746700260788,,,,,,,,,,,,,,,,,,,,,,,,,,,,,,,,,PAVC6T,train_x,blue_star,top_left,2025-04-16_17h25.43.877,HideSeek_v1,2022.2.5,59.91956397868432,
,4,9,8,9,4,0,21,,train_dim1_1,3,30,,,,2,0,2,0,,,,,,,,,0,0,0,0,0,2,2,2,1,0,1,0,,,,,,,,,,,,,,,,,,,,,,,,,,,,,,,,,,,,,,,,,,,,,,,,,,,,,,,,,,,,,,,,30,,,,,,,,923.0030805999413,923.0030805999413,923.0030805999413,923.0030805999413,923.0030805999413,right,0.7766422000713646,1,1,0,99,0.32,0.32,right,0.6840434996411204,,,,,,,,,,,,,,,,,,,,,,,,,,,,,,,,,,,,,,,,,,,,,,,,,,,,,,,,,,,,PAVC6T,train_x,blue_star,top_left,2025-04-16_17h25.43.877,HideSeek_v1,2022.2.5,59.91956397868432,
,4,9,8,9,4,0,21,,train_dim1_1,3,30,,,,2,0,2,0,,,,,,,,,0,0,0,0,0,2,2,2,2,0,2,0,,,,,,,,,,,,,,,,,,,,,,,,,,,,,,,,,,,,,,,,,,,,,,,,,,,,,,,,,,,,,,,,30,,,,,,,,923.7853346997872,923.7853346997872,923.7853346997872,923.7853346997872,923.7853346997872,right,0.7269021002575755,1,1,0,99,0.4,0.32,right,0.6396005996502936,,,,,,,,,,,,,,,,,,,,,,,,,,,,,,,,,,,,,,,,,,,,,,,,,,,,,,,,,,,,PAVC6T,train_x,blue_star,top_left,2025-04-16_17h25.43.877,HideSeek_v1,2022.2.5,59.91956397868432,
,4,9,8,9,4,0,21,,train_dim1_1,3,30,,,,2,0,2,0,,,,,,,,,0,0,0,0,0,2,2,2,3,0,3,0,,,,,,,,,,,,,,,,,,,,,,,,,,,,,,,,,,,,,,,,,,,,,,,,,,,,,,,,,,,,,,,,30,,,,,,,,924.5200575999916,924.5200575999916,924.5200575999916,924.5200575999916,924.5200575999916,right,0.7096680998802185,1,1,0,99,0.48000000000000004,0.32,right,0.6280865999870002,,,,,,,,,,,,,,,,,,,,,,,,,,,,,,,,,,,,,,,,,,,,,,,,,,,,,,,,,,,,PAVC6T,train_x,blue_star,top_left,2025-04-16_17h25.43.877,HideSeek_v1,2022.2.5,59.91956397868432,
,4,9,8,9,4,0,21,,train_dim1_1,3,30,,,,2,0,2,0,,,,,,,,,0,0,0,0,0,2,2,2,4,0,4,0,,,,,,,,,,,,,,,,,,,,,,,,,,,,,,,,,,,,,,,,,,,,,,,,,,,,,,,,,,,,,,,,30,,,,,,,,925.2366085997783,925.2366085997783,925.2366085997783,925.2366085997783,925.2366085997783,right,1.0106273000128567,1,1,0,99,0.56,0.32,right,0.9297357997857034,,,,,,,,,,,,,,,,,,,,,,,,,,,,,,,,,,,,,,,,,,,,,,,,,,,,,,,,,,,,PAVC6T,train_x,blue_star,top_left,2025-04-16_17h25.43.877,HideSeek_v1,2022.2.5,59.91956397868432,
,4,9,8,9,4,0,21,,train_dim1_1,3,30,,,,2,0,2,0,,,,,,,,,0,0,0,0,0,2,2,2,5,0,5,0,,,,,,,,,,,,,,,,,,,,,,,,,,,,,,,,,,,,,,,,,,,,,,,,,,,,,,,,,,,,,,,,30,,,,,,,,926.2547968998551,926.2547968998551,926.2547968998551,926.2547968998551,926.2547968998551,return,0.7766442000865936,1,1,0,0,0.56,0.32,return,0.6992638995870948,0,12,0.56,0.32,,,,,,,,,,,,,,,,,,,,,,,,,,,,,,,,,,,,,,,,,,,,,,,,,,,,,,,,PAVC6T,train_x,blue_star,top_left,2025-04-16_17h25.43.877,HideSeek_v1,2022.2.5,59.91956397868432,
,2,8,3,8,1,0,51,,train_dim1_1,4,30,,,,2,0,2,0,,,,,,,,,0,0,0,0,0,3,3,3,0,0,0,0,,,,,,,,,,,,,,,,,,,,,,,,,stimuli/alien_stimuli/51.png,,,,,,,,,,,,,,,,,,,,,,,,,,,,,stimuli/alien_stimuli/21.png,21,4,5,,,,,,,30,,,,,,,,937.3592102997936,937.3592102997936,937.3592102997936,937.3592102997936,937.3592102997936,right,3.4218834000639617,1,1,0,99,0.08,0.24,right,3.340381400194019,,,,,935.794969199691,937.3592102997936,0.48,0.32,0.0,0.32,0.32,0.48,0.32,0.48,0.32,928.6148105999455,928.6148105999455,928.6148105999455,928.6148105999455,928.6148105999455,928.6148105999455,928.6148105999455,928.6148105999455,928.6054148397408,7.308261100202799,return,7.161115000024438,,,,,,,,,,,,,,,,,,,,,,,,,,,,,,,,,PAVC6T,train_x,blue_star,top_left,2025-04-16_17h25.43.877,HideSeek_v1,2022.2.5,59.91956397868432,
,2,8,3,8,1,0,51,,train_dim1_1,4,30,,,,2,0,2,0,,,,,,,,,0,0,0,0,0,3,3,3,1,0,1,0,,,,,,,,,,,,,,,,,,,,,,,,,,,,,,,,,,,,,,,,,,,,,,,,,,,,,,,,,,,,,,,,30,,,,,,,,940.7828848999925,940.7828848999925,940.7828848999925,940.7828848999925,940.7828848999925,return,1.3268023999407887,2,0,0,1,0.08,0.24,return,1.2396476999856532,0,13,0.08,0.24,,,,,,,,,,,,,,,,,,,,,,,,,,,,,,,,,,,,,,,,,,,,,,,,,,,,,,,,PAVC6T,train_x,blue_star,top_left,2025-04-16_17h25.43.877,HideSeek_v1,2022.2.5,59.91956397868432,
,0,7,0,7,0,0,61,,train_dim1_1,5,30,,,,2,0,2,0,,,,,,,,,0,0,0,0,0,4,4,4,0,0,0,0,,,,,,,,,,,,,,,,,,,,,,,,,stimuli/alien_stimuli/61.png,,,,,,,,,,,,,,,,,,,,,,,,,,,,,stimuli/alien_stimuli/51.png,51,2,6,,,,,,,30,,,,,,,,947.3673351998441,947.3673351998441,947.3673351998441,947.3673351998441,947.3673351998441,return,2.5065398002043366,3,0,0,1,-0.16,0.16,return,2.3985894001089036,0,13,-0.16,0.16,945.786505300086,947.3673351998441,0.08,0.24,0.0,0.08,0.24,0.08,0.04,0.08,0.24,943.686037699692,943.686037699692,943.686037699692,943.686037699692,943.686037699692,943.686037699692,943.686037699692,943.686037699692,943.6679541598539,2.2209370001219213,return,2.069171499926597,,,,,,,,,,,,,,,,,,,,,,,,,,,,,,,,,PAVC6T,train_x,blue_star,top_left,2025-04-16_17h25.43.877,HideSeek_v1,2022.2.5,59.91956397868432,
,0,5,4,5,4,0,21,,train_dim1_1,6,30,,,,2,0,2,0,,,,,,,,,0,0,0,0,0,5,5,5,0,0,0,0,,,,,,,,,,,,,,,,,,,,,,,,,stimuli/alien_stimuli/21.png,,,,,,,,,,,,,,,,,,,,,,,,,,,,,stimuli/alien_stimuli/61.png,61,0,7,,,,,,,30,,,,,,,,955.3742490997538,955.3742490997538,955.3742490997538,955.3742490997538,955.3742490997538,right,3.2879902999848127,3,0,0,99,-0.08,0,right,3.1774916001595557,,,,,953.7932468997315,955.3742490997538,-0.16,0.16,0.0,0.0,0.16,-0.16,-0.16,-0.16,0.16,951.4111953000538,951.4111953000538,951.4111953000538,951.4111953000538,951.4111953000538,951.4111953000538,951.4111953000538,951.4111953000538,951.3911641799845,2.4875211999751627,return,2.3523721997626126,,,,,,,,,,,,,,,,,,,,,,,,,,,,,,,,,PAVC6T,train_x,blue_star,top_left,2025-04-16_17h25.43.877,HideSeek_v1,2022.2.5,59.91956397868432,
,0,5,4,5,4,0,21,,train_dim1_1,6,30,,,,2,0,2,0,,,,,,,,,0,0,0,0,0,5,5,5,1,0,1,0,,,,,,,,,,,,,,,,,,,,,,,,,,,,,,,,,,,,,,,,,,,,,,,,,,,,,,,,,,,,,,,,30,,,,,,,,958.6478810999542,958.6478810999542,958.6478810999542,958.6478810999542,958.6478810999542,right,0.9433701001107693,3,0,0,99,0.0,0,right,0.8583088000304997,,,,,,,,,,,,,,,,,,,,,,,,,,,,,,,,,,,,,,,,,,,,,,,,,,,,,,,,,,,,PAVC6T,train_x,blue_star,top_left,2025-04-16_17h25.43.877,HideSeek_v1,2022.2.5,59.91956397868432,
,0,5,4,5,4,0,21,,train_dim1_1,6,30,,,,2,0,2,0,,,,,,,,,0,0,0,0,0,5,5,5,2,0,2,0,,,,,,,,,,,,,,,,,,,,,,,,,,,,,,,,,,,,,,,,,,,,,,,,,,,,,,,,,,,,,,,,30,,,,,,,,959.598199899774,959.598199899774,959.598199899774,959.598199899774,959.598199899774,right,1.3607147000730038,3,0,0,99,0.08,0,right,1.28156579984352,,,,,,,,,,,,,,,,,,,,,,,,,,,,,,,,,,,,,,,,,,,,,,,,,,,,,,,,,,,,PAVC6T,train_x,blue_star,top_left,2025-04-16_17h25.43.877,HideSeek_v1,2022.2.5,59.91956397868432,
,0,5,4,5,4,0,21,,train_dim1_1,6,30,,,,2,0,2,0,,,,,,,,,0,0,0,0,0,5,5,5,3,0,3,0,,,,,,,,,,,,,,,,,,,,,,,,,,,,,,,,,,,,,,,,,,,,,,,,,,,,,,,,,,,,,,,,30,,,,,,,,960.9659425998107,960.9659425998107,960.9659425998107,960.9659425998107,960.9659425998107,right,1.4443426001816988,3,0,0,99,0.16,0,right,1.3633890999481082,,,,,,,,,,,,,,,,,,,,,,,,,,,,,,,,,,,,,,,,,,,,,,,,,,,,,,,,,,,,PAVC6T,train_x,blue_star,top_left,2025-04-16_17h25.43.877,HideSeek_v1,2022.2.5,59.91956397868432,
,0,5,4,5,4,0,21,,train_dim1_1,6,30,,,,2,0,2,0,,,,,,,,,0,0,0,0,0,5,5,5,4,0,4,0,,,,,,,,,,,,,,,,,,,,,,,,,,,,,,,,,,,,,,,,,,,,,,,,,,,,,,,,,,,,,,,,30,,,,,,,,962.4172935998067,962.4172935998067,962.4172935998067,962.4172935998067,962.4172935998067,right,2.4953176002018154,3,0,0,99,0.24,0,right,2.416546800173819,,,,,,,,,,,,,,,,,,,,,,,,,,,,,,,,,,,,,,,,,,,,,,,,,,,,,,,,,,,,PAVC6T,train_x,blue_star,top_left,2025-04-16_17h25.43.877,HideSeek_v1,2022.2.5,59.91956397868432,
,0,5,4,5,4,0,21,,train_dim1_1,6,30,,,,2,0,2,0,,,,,,,,,0,0,0,0,0,5,5,5,5,0,5,0,,,,,,,,,,,,,,,,,,,,,,,,,,,,,,,,,,,,,,,,,,,,,,,,,,,,,,,,,,,,,,,,30,,,,,,,,964.9200681000948,964.9200681000948,964.9200681000948,964.9200681000948,964.9200681000948,return,0.3936255001462996,3,1,0,0,0.24,0,return,0.30877189990133047,0,18,0.24,0,,,,,,,,,,,,,,,,,,,,,,,,,,,,,,,,,,,,,,,,,,,,,,,,,,,,,,,,PAVC6T,train_x,blue_star,top_left,2025-04-16_17h25.43.877,HideSeek_v1,2022.2.5,59.91956397868432,
,3,5,3,5,0,0,61,,train_dim1_1,7,30,,,,2,0,2,0,,,,,,,,,0,0,0,0,0,6,6,6,0,0,0,0,,,,,,,,,,,,,,,,,,,,,,,,,stimuli/alien_stimuli/61.png,,,,,,,,,,,,,,,,,,,,,,,,,,,,,stimuli/alien_stimuli/21.png,21,0,8,,,,,,,30,,,,,,,,970.4098263001069,970.4098263001069,970.4098263001069,970.4098263001069,970.4098263001069,return,1.5564314001239836,4,0,0,1,0.08,0,return,1.4580594999715686,0,18,0.08,0,968.8387239999138,970.4098263001069,0.16,0,0.0,0.32,0.0,0.16,0.0,0.16,0,966.8949148999527,966.8949148999527,966.8949148999527,966.8949148999527,966.8949148999527,966.8949148999527,966.8949148999527,966.8949148999527,966.8872981395572,2.0706815999001265,return,1.9124909001402557,,,,,,,,,,,,,,,,,,,,,,,,,,,,,,,,,PAVC6T,train_x,blue_star,top_left,2025-04-16_17h25.43.877,HideSeek_v1,2022.2.5,59.91956397868432,
,0,9,3,9,3,0,31,,train_dim1_1,8,30,,,,2,0,2,0,,,,,,,,,0,0,0,0,0,7,7,7,0,0,0,0,,,,,,,,,,,,,,,,,,,,,,,,,stimuli/alien_stimuli/31.png,,,,,,,,,,,,,,,,,,,,,,,,,,,,,stimuli/alien_stimuli/61.png,61,3,9,,,,,,,30,,,,,,,,977.1496178000234,977.1496178000234,977.1496178000234,977.1496178000234,977.1496178000234,right,2.022936400026083,4,0,0,99,-0.08,0.32,right,1.9217829001136124,,,,,975.5779168000445,977.1496178000234,0.08,0,0.0,0.0,0.0,0.08,0.08,0.08,0,973.5316844996996,973.5316844996996,973.5316844996996,973.5316844996996,973.5316844996996,973.5316844996996,973.5316844996996,973.5316844996996,973.5095880599226,2.1706893001683056,return,2.0294479997828603,,,,,,,,,,,,,,,,,,,,,,,,,,,,,,,,,PAVC6T,train_x,blue_star,top_left,2025-04-16_17h25.43.877,HideSeek_v1,2022.2.5,59.91956397868432,
,0,9,3,9,3,0,31,,train_dim1_1,8,30,,,,2,0,2,0,,,,,,,,,0,0,0,0,0,7,7,7,1,0,1,0,,,,,,,,,,,,,,,,,,,,,,,,,,,,,,,,,,,,,,,,,,,,,,,,,,,,,,,,,,,,,,,,30,,,,,,,,979.1620884998702,979.1620884998702,979.1620884998702,979.1620884998702,979.1620884998702,right,0.45936809992417693,4,0,0,99,0.0,0.32,right,0.38114830013364553,,,,,,,,,,,,,,,,,,,,,,,,,,,,,,,,,,,,,,,,,,,,,,,,,,,,,,,,,,,,PAVC6T,train_x,blue_star,top_left,2025-04-16_17h25.43.877,HideSeek_v1,2022.2.5,59.91956397868432,
,0,9,3,9,3,0,31,,train_dim1_1,8,30,,,,2,0,2,0,,,,,,,,,0,0,0,0,0,7,7,7,2,0,2,0,,,,,,,,,,,,,,,,,,,,,,,,,,,,,,,,,,,,,,,,,,,,,,,,,,,,,,,,,,,,,,,,30,,,,,,,,979.6276306998916,979.6276306998916,979.6276306998916,979.6276306998916,979.6276306998916,right,0.5104853003285825,4,0,0,99,0.08,0.32,right,0.4317422998137772,,,,,,,,,,,,,,,,,,,,,,,,,,,,,,,,,,,,,,,,,,,,,,,,,,,,,,,,,,,,PAVC6T,train_x,blue_star,top_left,2025-04-16_17h25.43.877,HideSeek_v1,2022.2.5,59.91956397868432,
,0,9,3,9,3,0,31,,train_dim1_1,8,30,,,,2,0,2,0,,,,,,,,,0,0,0,0,0,7,7,7,3,0,3,0,,,,,,,,,,,,,,,,,,,,,,,,,,,,,,,,,,,,,,,,,,,,,,,,,,,,,,,,,,,,,,,,30,,,,,,,,980.1456069000997,980.1456069000997,980.1456069000997,980.1456069000997,980.1456069000997,right,3.445721299853176,4,0,0,99,0.16,0.32,right,3.365041600074619,,,,,,,,,,,,,,,,,,,,,,,,,,,,,,,,,,,,,,,,,,,,,,,,,,,,,,,,,,,,PAVC6T,train_x,blue_star,top_left,2025-04-16_17h25.43.877,HideSeek_v1,2022.2.5,59.91956397868432,
,0,9,3,9,3,0,31,,train_dim1_1,8,30,,,,2,0,2,0,,,,,,,,,0,0,0,0,0,7,7,7,4,0,4,0,,,,,,,,,,,,,,,,,,,,,,,,,,,,,,,,,,,,,,,,,,,,,,,,,,,,,,,,,,,,,,,,30,,,,,,,,983.5995775996707,983.5995775996707,983.5995775996707,983.5995775996707,983.5995775996707,return,2.9118249998427927,4,1,0,0,0.16,0.32,return,2.8227236000820994,0,22,0.16,0.32,,,,,,,,,,,,,,,,,,,,,,,,,,,,,,,,,,,,,,,,,,,,,,,,,,,,,,,,PAVC6T,train_x,blue_star,top_left,2025-04-16_17h25.43.877,HideSeek_v1,2022.2.5,59.91956397868432,
,1,5,2,5,1,0,51,,train_dim1_1,9,30,,,,2,0,2,0,,,,,,,,,0,0,0,0,0,8,8,8,0,0,0,0,,,,,,,,,,,,,,,,,,,,,,,,,stimuli/alien_stimuli/51.png,,,,,,,,,,,,,,,,,,,,,,,,,,,,,stimuli/alien_stimuli/31.png,31,0,10,,,,,,,30,,,,,,,,991.2417852999642,991.2417852999642,991.2417852999642,991.2417852999642,991.2417852999642,right,1.438697800040245,4,1,0,99,0.0,0,right,1.3512768000364304,,,,,989.6730571999215,991.2417852999642,0.08,0.32,0.0,0.24,0.32,0.08,-0.04,0.08,0.32,988.0909400996752,988.0909400996752,988.0909400996752,988.0909400996752,988.0909400996752,988.0909400996752,988.0909400996752,988.0909400996752,988.0714438599068,1.7035385998897254,return,1.5548649998381734,,,,,,,,,,,,,,,,,,,,,,,,,,,,,,,,,PAVC6T,train_x,blue_star,top_left,2025-04-16_17h25.43.877,HideSeek_v1,2022.2.5,59.91956397868432,
,1,5,2,5,1,0,51,,train_dim1_1,9,30,,,,2,0,2,0,,,,,,,,,0,0,0,0,0,8,8,8,1,0,1,0,,,,,,,,,,,,,,,,,,,,,,,,,,,,,,,,,,,,,,,,,,,,,,,,,,,,,,,,,,,,,,,,30,,,,,,,,992.6763666998595,992.6763666998595,992.6763666998595,992.6763666998595,992.6763666998595,return,0.6430579000152647,5,0,0,1,0.0,0,return,0.5550958001986146,0,23,0.0,0,,,,,,,,,,,,,,,,,,,,,,,,,,,,,,,,,,,,,,,,,,,,,,,,,,,,,,,,PAVC6T,train_x,blue_star,top_left,2025-04-16_17h25.43.877,HideSeek_v1,2022.2.5,59.91956397868432,
,0,8,5,8,5,0,11,,train_dim1_1,10,30,,,,2,0,2,0,,,,,,,,,0,0,0,0,0,9,9,9,0,0,0,0,,,,,,,,,,,,,,,,,,,,,,,,,stimuli/alien_stimuli/11.png,,,,,,,,,,,,,,,,,,,,,,,,,,,,,stimuli/alien_stimuli/51.png,51,1,11,,,,,,,30,,,,,,,,999.0291148000397,999.0291148000397,999.0291148000397,999.0291148000397,999.0291148000397,right,1.5723644997924566,5,0,0,99,-0.08,0.24,right,1.4713252000510693,,,,,997.4631089996547,999.0291148000397,0,0,0.0,0.08,0.0,0,-0.04,0,0,994.8818043000065,994.8818043000065,994.8818043000065,994.8818043000065,994.8818043000065,994.8818043000065,994.8818043000065,994.8818043000065,994.860484479554,2.6881240997463465,return,2.554751900024712,,,,,,,,,,,,,,,,,,,,,,,,,,,,,,,,,PAVC6T,train_x,blue_star,top_left,2025-04-16_17h25.43.877,HideSeek_v1,2022.2.5,59.91956397868432,
,0,8,5,8,5,0,11,,train_dim1_1,10,30,,,,2,0,2,0,,,,,,,,,0,0,0,0,0,9,9,9,1,0,1,0,,,,,,,,,,,,,,,,,,,,,,,,,,,,,,,,,,,,,,,,,,,,,,,,,,,,,,,,,,,,,,,,30,,,,,,,,1000.6027607996948,1000.6027607996948,1000.6027607996948,1000.6027607996948,1000.6027607996948,right,0.6430355003103614,5,0,0,99,0.0,0.24,right,0.5622994997538626,,,,,,,,,,,,,,,,,,,,,,,,,,,,,,,,,,,,,,,,,,,,,,,,,,,,,,,,,,,,PAVC6T,train_x,blue_star,top_left,2025-04-16_17h25.43.877,HideSeek_v1,2022.2.5,59.91956397868432,
,0,8,5,8,5,0,11,,train_dim1_1,10,30,,,,2,0,2,0,,,,,,,,,0,0,0,0,0,9,9,9,2,0,2,0,,,,,,,,,,,,,,,,,,,,,,,,,,,,,,,,,,,,,,,,,,,,,,,,,,,,,,,,,,,,,,,,30,,,,,,,,1001.2501698997803,1001.2501698997803,1001.2501698997803,1001.2501698997803,1001.2501698997803,right,0.726662200409919,5,0,0,99,0.08,0.24,right,0.6347937998361886,,,,,,,,,,,,,,,,,,,,,,,,,,,,,,,,,,,,,,,,,,,,,,,,,,,,,,,,,,,,PAVC6T,train_x,blue_star,top_left,2025-04-16_17h25.43.877,HideSeek_v1,2022.2.5,59.91956397868432,
,0,8,5,8,5,0,11,,train_dim1_1,10,30,,,,2,0,2,0,,,,,,,,,0,0,0,0,0,9,9,9,3,0,3,0,,,,,,,,,,,,,,,,,,,,,,,,,,,,,,,,,,,,,,,,,,,,,,,,,,,,,,,,,,,,,,,,30,,,,,,,,1001.9830390000716,1001.9830390000716,1001.9830390000716,1001.9830390000716,1001.9830390000716,right,0.7104736003093421,5,0,0,99,0.16,0.24,right,0.6277799997478724,,,,,,,,,,,,,,,,,,,,,,,,,,,,,,,,,,,,,,,,,,,,,,,,,,,,,,,,,,,,PAVC6T,train_x,blue_star,top_left,2025-04-16_17h25.43.877,HideSeek_v1,2022.2.5,59.91956397868432,
,0,8,5,8,5,0,11,,train_dim1_1,10,30,,,,2,0,2,0,,,,,,,,,0,0,0,0,0,9,9,9,4,0,4,0,,,,,,,,,,,,,,,,,,,,,,,,,,,,,,,,,,,,,,,,,,,,,,,,,,,,,,,,,,,,,,,,30,,,,,,,,1002.7021824000403,1002.7021824000403,1002.7021824000403,1002.7021824000403,1002.7021824000403,right,0.6266847997903824,5,0,0,99,0.24,0.24,right,0.5337980999611318,,,,,,,,,,,,,,,,,,,,,,,,,,,,,,,,,,,,,,,,,,,,,,,,,,,,,,,,,,,,PAVC6T,train_x,blue_star,top_left,2025-04-16_17h25.43.877,HideSeek_v1,2022.2.5,59.91956397868432,
,0,8,5,8,5,0,11,,train_dim1_1,10,30,,,,2,0,2,0,,,,,,,,,0,0,0,0,0,9,9,9,5,0,5,0,,,,,,,,,,,,,,,,,,,,,,,,,,,,,,,,,,,,,,,,,,,,,,,,,,,,,,,,,,,,,,,,30,,,,,,,,1003.3374936999753,1003.3374936999753,1003.3374936999753,1003.3374936999753,1003.3374936999753,return,0.6569070001132786,6,0,0,1,0.24,0.24,return,0.5804527997970581,0,28,0.24,0.24,,,,,,,,,,,,,,,,,,,,,,,,,,,,,,,,,,,,,,,,,,,,,,,,,,,,,,,,PAVC6T,train_x,blue_star,top_left,2025-04-16_17h25.43.877,HideSeek_v1,2022.2.5,59.91956397868432,
,2,7,5,7,3,0,31,,train_dim1_1,11,30,,,,2,0,2,0,,,,,,,,,0,0,0,0,0,10,10,10,0,0,0,0,,,,,,,,,,,,,,,,,,,,,,,,,stimuli/alien_stimuli/31.png,,,,,,,,,,,,,,,,,,,,,,,,,,,,,stimuli/alien_stimuli/11.png,11,0,12,,,,,,,30,,,,,,,,1009.0922893998213,1009.0922893998213,1009.0922893998213,1009.0922893998213,1009.0922893998213,right,1.4709195997565985,6,0,0,99,0.08,0.16,right,1.366026199888438,,,,,1007.521111200098,1009.0922893998213,0.24,0.24,0.0,0.4,0.24,0.24,0.039999999999999994,0.24,0.24,1005.5810619997792,1005.5810619997792,1005.5810619997792,1005.5810619997792,1005.5810619997792,1005.5810619997792,1005.5810619997792,1005.5810619997792,1005.5694080398417,2.0704101999290287,return,1.9129980998113751,,,,,,,,,,,,,,,,,,,,,,,,,,,,,,,,,PAVC6T,train_x,blue_star,top_left,2025-04-16_17h25.43.877,HideSeek_v1,2022.2.5,59.91956397868432,
,2,7,5,7,3,0,31,,train_dim1_1,11,30,,,,2,0,2,0,,,,,,,,,0,0,0,0,0,10,10,10,1,0,1,0,,,,,,,,,,,,,,,,,,,,,,,,,,,,,,,,,,,,,,,,,,,,,,,,,,,,,,,,,,,,,,,,30,,,,,,,,1010.5541868996806,1010.5541868996806,1010.5541868996806,1010.5541868996806,1010.5541868996806,right,0.4598603001795709,6,0,0,99,0.16,0.16,right,0.37372969975695014,,,,,,,,,,,,,,,,,,,,,,,,,,,,,,,,,,,,,,,,,,,,,,,,,,,,,,,,,,,,PAVC6T,train_x,blue_star,top_left,2025-04-16_17h25.43.877,HideSeek_v1,2022.2.5,59.91956397868432,
,2,7,5,7,3,0,31,,train_dim1_1,11,30,,,,2,0,2,0,,,,,,,,,0,0,0,0,0,10,10,10,2,0,2,0,,,,,,,,,,,,,,,,,,,,,,,,,,,,,,,,,,,,,,,,,,,,,,,,,,,,,,,,,,,,,,,,30,,,,,,,,1011.0211477996781,1011.0211477996781,1011.0211477996781,1011.0211477996781,1011.0211477996781,right,2.544894500169903,6,0,0,99,0.24,0.16,right,2.4676290000788867,,,,,,,,,,,,,,,,,,,,,,,,,,,,,,,,,,,,,,,,,,,,,,,,,,,,,,,,,,,,PAVC6T,train_x,blue_star,top_left,2025-04-16_17h25.43.877,HideSeek_v1,2022.2.5,59.91956397868432,
,2,7,5,7,3,0,31,,train_dim1_1,11,30,,,,2,0,2,0,,,,,,,,,0,0,0,0,0,10,10,10,3,0,3,0,,,,,,,,,,,,,,,,,,,,,,,,,,,,,,,,,,,,,,,,,,,,,,,,,,,,,,,,,,,,,,,,30,,,,,,,,1013.5722308997065,1013.5722308997065,1013.5722308997065,1013.5722308997065,1013.5722308997065,return,2.128167700022459,7,0,0,1,0.24,0.16,return,2.044349499978125,0,31,0.24,0.16,,,,,,,,,,,,,,,,,,,,,,,,,,,,,,,,,,,,,,,,,,,,,,,,,,,,,,,,PAVC6T,train_x,blue_star,top_left,2025-04-16_17h25.43.877,HideSeek_v1,2022.2.5,59.91956397868432,
,0,5,4,5,4,0,21,,train_dim1_1,12,30,,,,2,0,2,0,,,,,,,,,0,0,0,0,0,11,11,11,0,0,0,0,,,,,,,,,,,,,,,,,,,,,,,,,stimuli/alien_stimuli/21.png,,,,,,,,,,,,,,,,,,,,,,,,,,,,,stimuli/alien_stimuli/31.png,31,2,13,,,,,,,30,,,,,,,,1020.4731532000005,1020.4731532000005,1020.4731532000005,1020.4731532000005,1020.4731532000005,right,1.4380689999088645,7,0,0,99,-0.08,0,right,1.3407703000120819,,,,,1018.8971287999302,1020.4731532000005,0.24,0.16,0.0,0.24,0.16,0.24,0.12,0.24,0.16,1017.2756623998284,1017.2756623998284,1017.2756623998284,1017.2756623998284,1017.2756623998284,1017.2756623998284,1017.2756623998284,1017.2756623998284,1017.262322859792,1.737304300069809,return,1.5964748999103904,,,,,,,,,,,,,,,,,,,,,,,,,,,,,,,,,PAVC6T,train_x,blue_star,top_left,2025-04-16_17h25.43.877,HideSeek_v1,2022.2.5,59.91956397868432,
,0,5,4,5,4,0,21,,train_dim1_1,12,30,,,,2,0,2,0,,,,,,,,,0,0,0,0,0,11,11,11,1,0,1,0,,,,,,,,,,,,,,,,,,,,,,,,,,,,,,,,,,,,,,,,,,,,,,,,,,,,,,,,,,,,,,,,30,,,,,,,,1021.9003681000322,1021.9003681000322,1021.9003681000322,1021.9003681000322,1021.9003681000322,right,0.47651629988104105,7,0,0,99,0.0,0,right,0.3951491001062095,,,,,,,,,,,,,,,,,,,,,,,,,,,,,,,,,,,,,,,,,,,,,,,,,,,,,,,,,,,,PAVC6T,train_x,blue_star,top_left,2025-04-16_17h25.43.877,HideSeek_v1,2022.2.5,59.91956397868432,
,0,5,4,5,4,0,21,,train_dim1_1,12,30,,,,2,0,2,0,,,,,,,,,0,0,0,0,0,11,11,11,2,0,2,0,,,,,,,,,,,,,,,,,,,,,,,,,,,,,,,,,,,,,,,,,,,,,,,,,,,,,,,,,,,,,,,,30,,,,,,,,1022.3836173000745,1022.3836173000745,1022.3836173000745,1022.3836173000745,1022.3836173000745,right,0.49338530004024506,7,0,0,99,0.08,0,right,0.40440370002761483,,,,,,,,,,,,,,,,,,,,,,,,,,,,,,,,,,,,,,,,,,,,,,,,,,,,,,,,,,,,PAVC6T,train_x,blue_star,top_left,2025-04-16_17h25.43.877,HideSeek_v1,2022.2.5,59.91956397868432,
,0,5,4,5,4,0,21,,train_dim1_1,12,30,,,,2,0,2,0,,,,,,,,,0,0,0,0,0,11,11,11,3,0,3,0,,,,,,,,,,,,,,,,,,,,,,,,,,,,,,,,,,,,,,,,,,,,,,,,,,,,,,,,,,,,,,,,30,,,,,,,,1022.8841379000805,1022.8841379000805,1022.8841379000805,1022.8841379000805,1022.8841379000805,right,0.7102965000085533,7,0,0,99,0.16,0,right,0.6241647000424564,,,,,,,,,,,,,,,,,,,,,,,,,,,,,,,,,,,,,,,,,,,,,,,,,,,,,,,,,,,,PAVC6T,train_x,blue_star,top_left,2025-04-16_17h25.43.877,HideSeek_v1,2022.2.5,59.91956397868432,
,0,5,4,5,4,0,21,,train_dim1_1,12,30,,,,2,0,2,0,,,,,,,,,0,0,0,0,0,11,11,11,4,0,4,0,,,,,,,,,,,,,,,,,,,,,,,,,,,,,,,,,,,,,,,,,,,,,,,,,,,,,,,,,,,,,,,,30,,,,,,,,1023.6025004996918,1023.6025004996918,1023.6025004996918,1023.6025004996918,1023.6025004996918,return,0.8097056001424789,8,0,0,1,0.16,0,return,0.7274096999317408,0,35,0.16,0,,,,,,,,,,,,,,,,,,,,,,,,,,,,,,,,,,,,,,,,,,,,,,,,,,,,,,,,PAVC6T,train_x,blue_star,top_left,2025-04-16_17h25.43.877,HideSeek_v1,2022.2.5,59.91956397868432,
,0,9,1,9,1,0,51,,train_dim1_1,13,30,,,,2,0,2,0,,,,,,,,,0,0,0,0,0,12,12,12,0,0,0,0,,,,,,,,,,,,,,,,,,,,,,,,,stimuli/alien_stimuli/51.png,,,,,,,,,,,,,,,,,,,,,,,,,,,,,stimuli/alien_stimuli/21.png,21,0,14,,,,,,,30,,,,,,,,1029.3836408997886,1029.3836408997886,1029.3836408997886,1029.3836408997886,1029.3836408997886,right,1.389303999952972,8,0,0,99,-0.08,0.32,right,1.2910885997116566,,,,,1027.8046663999557,1029.3836408997886,0.16,0,0.0,0.32,0.0,0.16,0.0,0.16,0,1025.9773570001125,1025.9773570001125,1025.9773570001125,1025.9773570001125,1025.9773570001125,1025.9773570001125,1025.9773570001125,1025.9773570001125,1025.9695489597043,1.9371254998259246,return,1.8010511002503335,,,,,,,,,,,,,,,,,,,,,,,,,,,,,,,,,PAVC6T,train_x,blue_star,top_left,2025-04-16_17h25.43.877,HideSeek_v1,2022.2.5,59.91956397868432,
,0,9,1,9,1,0,51,,train_dim1_1,13,30,,,,2,0,2,0,,,,,,,,,0,0,0,0,0,12,12,12,1,0,1,0,,,,,,,,,,,,,,,,,,,,,,,,,,,,,,,,,,,,,,,,,,,,,,,,,,,,,,,,,,,,,,,,30,,,,,,,,1030.7567508998327,1030.7567508998327,1030.7567508998327,1030.7567508998327,1030.7567508998327,return,1.1936516999267042,9,0,0,1,-0.08,0.32,return,1.1057795002125204,0,36,-0.08,0.32,,,,,,,,,,,,,,,,,,,,,,,,,,,,,,,,,,,,,,,,,,,,,,,,,,,,,,,,PAVC6T,train_x,blue_star,top_left,2025-04-16_17h25.43.877,HideSeek_v1,2022.2.5,59.91956397868432,
,4,8,9,8,5,0,11,,train_dim1_1,14,30,,,,2,0,2,0,,,,,,,,,0,0,0,0,0,13,13,13,0,0,0,0,,,,,,,,,,,,,,,,,,,,,,,,,stimuli/alien_stimuli/11.png,,,,,,,,,,,,,,,,,,,,,,,,,,,,,stimuli/alien_stimuli/51.png,51,0,15,,,,,,,30,,,,,,,,1036.9417499997653,1036.9417499997653,1036.9417499997653,1036.9417499997653,1036.9417499997653,right,2.173314899671823,9,0,0,99,0.24,0.24,right,2.068336000200361,,,,,1035.360853499733,1036.9417499997653,-0.08,0.32,0.0,0.08,0.32,-0.08,-0.12,-0.08,0.32,1033.5151042998768,1033.5151042998768,1033.5151042998768,1033.5151042998768,1033.5151042998768,1033.5151042998768,1033.5151042998768,1033.5151042998768,1033.5095263598023,1.9536913000047207,return,1.8184655997902155,,,,,,,,,,,,,,,,,,,,,,,,,,,,,,,,,PAVC6T,train_x,blue_star,top_left,2025-04-16_17h25.43.877,HideSeek_v1,2022.2.5,59.91956397868432,
,4,8,9,8,5,0,11,,train_dim1_1,14,30,,,,2,0,2,0,,,,,,,,,0,0,0,0,0,13,13,13,1,0,1,0,,,,,,,,,,,,,,,,,,,,,,,,,,,,,,,,,,,,,,,,,,,,,,,,,,,,,,,,,,,,,,,,30,,,,,,,,1039.0982669000514,1039.0982669000514,1039.0982669000514,1039.0982669000514,1039.0982669000514,right,0.5428609000518918,9,0,0,99,0.32,0.24,right,0.4618138000369072,,,,,,,,,,,,,,,,,,,,,,,,,,,,,,,,,,,,,,,,,,,,,,,,,,,,,,,,,,,,PAVC6T,train_x,blue_star,top_left,2025-04-16_17h25.43.877,HideSeek_v1,2022.2.5,59.91956397868432,
,4,8,9,8,5,0,11,,train_dim1_1,14,30,,,,2,0,2,0,,,,,,,,,0,0,0,0,0,13,13,13,2,0,2,0,,,,,,,,,,,,,,,,,,,,,,,,,,,,,,,,,,,,,,,,,,,,,,,,,,,,,,,,,,,,,,,,30,,,,,,,,1039.6480282000266,1039.6480282000266,1039.6480282000266,1039.6480282000266,1039.6480282000266,right,0.47680100006982684,9,0,0,99,0.4,0.24,right,0.3999927002005279,,,,,,,,,,,,,,,,,,,,,,,,,,,,,,,,,,,,,,,,,,,,,,,,,,,,,,,,,,,,PAVC6T,train_x,blue_star,top_left,2025-04-16_17h25.43.877,HideSeek_v1,2022.2.5,59.91956397868432,
,4,8,9,8,5,0,11,,train_dim1_1,14,30,,,,2,0,2,0,,,,,,,,,0,0,0,0,0,13,13,13,3,0,3,0,,,,,,,,,,,,,,,,,,,,,,,,,,,,,,,,,,,,,,,,,,,,,,,,,,,,,,,,,,,,,,,,30,,,,,,,,1040.1332441000268,1040.1332441000268,1040.1332441000268,1040.1332441000268,1040.1332441000268,right,0.4765161001123488,9,0,0,99,0.48000000000000004,0.24,right,0.3911148002371192,,,,,,,,,,,,,,,,,,,,,,,,,,,,,,,,,,,,,,,,,,,,,,,,,,,,,,,,,,,,PAVC6T,train_x,blue_star,top_left,2025-04-16_17h25.43.877,HideSeek_v1,2022.2.5,59.91956397868432,
,4,8,9,8,5,0,11,,train_dim1_1,14,30,,,,2,0,2,0,,,,,,,,,0,0,0,0,0,13,13,13,4,0,4,0,,,,,,,,,,,,,,,,,,,,,,,,,,,,,,,,,,,,,,,,,,,,,,,,,,,,,,,,,,,,,,,,30,,,,,,,,1040.6151962997392,1040.6151962997392,1040.6151962997392,1040.6151962997392,1040.6151962997392,right,0.5437145996838808,9,0,0,99,0.56,0.24,right,0.45247860020026565,,,,,,,,,,,,,,,,,,,,,,,,,,,,,,,,,,,,,,,,,,,,,,,,,,,,,,,,,,,,PAVC6T,train_x,blue_star,top_left,2025-04-16_17h25.43.877,HideSeek_v1,2022.2.5,59.91956397868432,
,4,8,9,8,5,0,11,,train_dim1_1,14,30,,,,2,0,2,0,,,,,,,,,0,0,0,0,0,13,13,13,5,0,5,0,,,,,,,,,,,,,,,,,,,,,,,,,,,,,,,,,,,,,,,,,,,,,,,,,,,,,,,,,,,,,,,,30,,,,,,,,1041.1661716001108,1041.1661716001108,1041.1661716001108,1041.1661716001108,1041.1661716001108,return,0.9268104997463524,10,0,0,1,0.56,0.24,return,0.8455823003314435,0,41,0.56,0.24,,,,,,,,,,,,,,,,,,,,,,,,,,,,,,,,,,,,,,,,,,,,,,,,,,,,,,,,PAVC6T,train_x,blue_star,top_left,2025-04-16_17h25.43.877,HideSeek_v1,2022.2.5,59.91956397868432,
,4,7,4,7,0,0,61,,train_dim1_1,15,30,,,,2,0,2,0,,,,,,,,,0,0,0,0,0,14,14,14,0,0,0,0,,,,,,,,,,,,,,,,,,,,,,,,,stimuli/alien_stimuli/61.png,,,,,,,,,,,,,,,,,,,,,,,,,,,,,stimuli/alien_stimuli/11.png,11,4,16,,,,,,,30,,,,,,,,1046.3793164999224,1046.3793164999224,1046.3793164999224,1046.3793164999224,1046.3793164999224,return,1.2400716003030539,11,0,0,1,0.16,0.16,return,1.1371732000261545,0,41,0.16,0.16,1044.8022803999484,1046.3793164999224,0.56,0.24,0.0,0.4,0.24,0.56,0.36000000000000004,0.56,0.24,1043.6588045996614,1043.6588045996614,1043.6588045996614,1043.6588045996614,1043.6588045996614,1043.6588045996614,1043.6588045996614,1043.6588045996614,1043.651122259861,1.2530387002043426,return,1.1131899999454618,,,,,,,,,,,,,,,,,,,,,,,,,,,,,,,,,PAVC6T,train_x,blue_star,top_left,2025-04-16_17h25.43.877,HideSeek_v1,2022.2.5,59.91956397868432,
,3,8,4,8,1,0,51,,train_dim1_1,16,30,,,,2,0,2,0,,,,,,,,,0,0,0,0,0,15,15,15,0,0,0,0,,,,,,,,,,,,,,,,,,,,,,,,,stimuli/alien_stimuli/51.png,,,,,,,,,,,,,,,,,,,,,,,,,,,,,stimuli/alien_stimuli/61.png,61,4,17,,,,,,,30,,,,,,,,1052.5375959998928,1052.5375959998928,1052.5375959998928,1052.5375959998928,1052.5375959998928,right,1.0553318001329899,11,0,0,99,0.16,0.24,right,0.9668347002007067,,,,,1050.9737329999916,1052.5375959998928,0.16,0.16,0.0,0.0,0.16,0.16,0.16,0.16,0.16,1049.1591384997591,1049.1591384997591,1049.1591384997591,1049.1591384997591,1049.1591384997591,1049.1591384997591,1049.1591384997591,1049.1591384997591,1049.1390459799209,1.920159200206399,return,1.786226199939847,,,,,,,,,,,,,,,,,,,,,,,,,,,,,,,,,PAVC6T,train_x,blue_star,top_left,2025-04-16_17h25.43.877,HideSeek_v1,2022.2.5,59.91956397868432,
,3,8,4,8,1,0,51,,train_dim1_1,16,30,,,,2,0,2,0,,,,,,,,,0,0,0,0,0,15,15,15,1,0,1,0,,,,,,,,,,,,,,,,,,,,,,,,,,,,,,,,,,,,,,,,,,,,,,,,,,,,,,,,,,,,,,,,30,,,,,,,,1053.5918322000653,1053.5918322000653,1053.5918322000653,1053.5918322000653,1053.5918322000653,return,0.4261366999708116,12,0,0,1,0.16,0.24,return,0.34025749983265996,0,42,0.16,0.24,,,,,,,,,,,,,,,,,,,,,,,,,,,,,,,,,,,,,,,,,,,,,,,,,,,,,,,,PAVC6T,train_x,blue_star,top_left,2025-04-16_17h25.43.877,HideSeek_v1,2022.2.5,59.91956397868432,
,2,9,6,9,4,0,21,,train_dim1_1,17,30,,,,2,0,2,0,,,,,,,,,0,0,0,0,0,16,16,16,0,0,0,0,,,,,,,,,,,,,,,,,,,,,,,,,stimuli/alien_stimuli/21.png,,,,,,,,,,,,,,,,,,,,,,,,,,,,,stimuli/alien_stimuli/51.png,51,3,18,,,,,,,30,,,,,,,,1058.6568817999214,1058.6568817999214,1058.6568817999214,1058.6568817999214,1058.6568817999214,right,1.2071483000181615,12,0,0,99,0.08,0.32,right,1.1202062000520527,,,,,1057.0954419998452,1058.6568817999214,0.16,0.24,0.0,0.08,0.24,0.16,0.12,0.16,0.24,1055.5832189000212,1055.5832189000212,1055.5832189000212,1055.5832189000212,1055.5832189000212,1055.5832189000212,1055.5832189000212,1055.5832189000212,1055.5608655797319,1.620129100047052,return,1.485139800235629,,,,,,,,,,,,,,,,,,,,,,,,,,,,,,,,,PAVC6T,train_x,blue_star,top_left,2025-04-16_17h25.43.877,HideSeek_v1,2022.2.5,59.91956397868432,
,2,9,6,9,4,0,21,,train_dim1_1,17,30,,,,2,0,2,0,,,,,,,,,0,0,0,0,0,16,16,16,1,0,1,0,,,,,,,,,,,,,,,,,,,,,,,,,,,,,,,,,,,,,,,,,,,,,,,,,,,,,,,,,,,,,,,,30,,,,,,,,1059.8649756996892,1059.8649756996892,1059.8649756996892,1059.8649756996892,1059.8649756996892,right,0.6267095003277063,12,0,0,99,0.16,0.32,right,0.5455918000079691,,,,,,,,,,,,,,,,,,,,,,,,,,,,,,,,,,,,,,,,,,,,,,,,,,,,,,,,,,,,PAVC6T,train_x,blue_star,top_left,2025-04-16_17h25.43.877,HideSeek_v1,2022.2.5,59.91956397868432,
,2,9,6,9,4,0,21,,train_dim1_1,17,30,,,,2,0,2,0,,,,,,,,,0,0,0,0,0,16,16,16,2,0,2,0,,,,,,,,,,,,,,,,,,,,,,,,,,,,,,,,,,,,,,,,,,,,,,,,,,,,,,,,,,,,,,,,30,,,,,,,,1060.5005648001097,1060.5005648001097,1060.5005648001097,1060.5005648001097,1060.5005648001097,right,0.47648009983822703,12,0,0,99,0.24,0.32,right,0.3988610999658704,,,,,,,,,,,,,,,,,,,,,,,,,,,,,,,,,,,,,,,,,,,,,,,,,,,,,,,,,,,,PAVC6T,train_x,blue_star,top_left,2025-04-16_17h25.43.877,HideSeek_v1,2022.2.5,59.91956397868432,
,2,9,6,9,4,0,21,,train_dim1_1,17,30,,,,2,0,2,0,,,,,,,,,0,0,0,0,0,16,16,16,3,0,3,0,,,,,,,,,,,,,,,,,,,,,,,,,,,,,,,,,,,,,,,,,,,,,,,,,,,,,,,,,,,,,,,,30,,,,,,,,1060.982622299809,1060.982622299809,1060.982622299809,1060.982622299809,1060.982622299809,right,0.6776634999550879,12,0,0,99,0.32,0.32,right,0.5916904001496732,,,,,,,,,,,,,,,,,,,,,,,,,,,,,,,,,,,,,,,,,,,,,,,,,,,,,,,,,,,,PAVC6T,train_x,blue_star,top_left,2025-04-16_17h25.43.877,HideSeek_v1,2022.2.5,59.91956397868432,
,2,9,6,9,4,0,21,,train_dim1_1,17,30,,,,2,0,2,0,,,,,,,,,0,0,0,0,0,16,16,16,4,0,4,0,,,,,,,,,,,,,,,,,,,,,,,,,,,,,,,,,,,,,,,,,,,,,,,,,,,,,,,,,,,,,,,,30,,,,,,,,1061.6670661000535,1061.6670661000535,1061.6670661000535,1061.6670661000535,1061.6670661000535,return,0.7428962998092175,13,0,0,1,0.32,0.32,return,0.6529219001531601,0,46,0.32,0.32,,,,,,,,,,,,,,,,,,,,,,,,,,,,,,,,,,,,,,,,,,,,,,,,,,,,,,,,PAVC6T,train_x,blue_star,top_left,2025-04-16_17h25.43.877,HideSeek_v1,2022.2.5,59.91956397868432,
,2,6,2,6,0,0,61,,train_dim1_1,18,30,,,,2,0,2,0,,,,,,,,,0,0,0,0,0,17,17,17,0,0,0,0,,,,,,,,,,,,,,,,,,,,,,,,,stimuli/alien_stimuli/61.png,,,,,,,,,,,,,,,,,,,,,,,,,,,,,stimuli/alien_stimuli/21.png,21,2,19,,,,,,,30,,,,,,,,1067.2735476000234,1067.2735476000234,1067.2735476000234,1067.2735476000234,1067.2735476000234,return,1.155672799795866,14,0,0,1,0,0.08,return,1.0658051003701985,0,46,0,0.08,1065.70271389978,1067.2735476000234,0.32,0.32,0.0,0.32,0.32,0.32,0.16,0.32,0.32,1063.9777273000218,1063.9777273000218,1063.9777273000218,1063.9777273000218,1063.9777273000218,1063.9777273000218,1063.9777273000218,1063.9777273000218,1063.9679879596924,1.8366873003542423,return,1.6935143996961415,,,,,,,,,,,,,,,,,,,,,,,,,,,,,,,,,PAVC6T,train_x,blue_star,top_left,2025-04-16_17h25.43.877,HideSeek_v1,2022.2.5,59.91956397868432,
,0,8,3,8,3,0,31,,train_dim1_1,19,30,,,,2,0,2,0,,,,,,,,,0,0,0,0,0,18,18,18,0,0,0,0,,,,,,,,,,,,,,,,,,,,,,,,,stimuli/alien_stimuli/31.png,,,,,,,,,,,,,,,,,,,,,,,,,,,,,stimuli/alien_stimuli/61.png,61,2,20,,,,,,,30,,,,,,,,1072.5374181000516,1072.5374181000516,1072.5374181000516,1072.5374181000516,1072.5374181000516,right,1.3529133000411093,14,0,0,99,-0.08,0.24,right,1.2639510002918541,,,,,1070.9738921998069,1072.5374181000516,0,0.08,0.0,0.0,0.08,0,0.0,0,0.08,1069.9764767996967,1069.9764767996967,1069.9764767996967,1069.9764767996967,1069.9764767996967,1069.9764767996967,1069.9764767996967,1069.9764767996967,1069.9563063798473,1.103290299884975,return,0.9737582001835108,,,,,,,,,,,,,,,,,,,,,,,,,,,,,,,,,PAVC6T,train_x,blue_star,top_left,2025-04-16_17h25.43.877,HideSeek_v1,2022.2.5,59.91956397868432,
,0,8,3,8,3,0,31,,train_dim1_1,19,30,,,,2,0,2,0,,,,,,,,,0,0,0,0,0,18,18,18,1,0,1,0,,,,,,,,,,,,,,,,,,,,,,,,,,,,,,,,,,,,,,,,,,,,,,,,,,,,,,,,,,,,,,,,30,,,,,,,,1073.89030739991,1073.89030739991,1073.89030739991,1073.89030739991,1073.89030739991,right,0.4758912003599107,14,0,0,99,0.0,0.24,right,0.39537980034947395,,,,,,,,,,,,,,,,,,,,,,,,,,,,,,,,,,,,,,,,,,,,,,,,,,,,,,,,,,,,PAVC6T,train_x,blue_star,top_left,2025-04-16_17h25.43.877,HideSeek_v1,2022.2.5,59.91956397868432,
,0,8,3,8,3,0,31,,train_dim1_1,19,30,,,,2,0,2,0,,,,,,,,,0,0,0,0,0,18,18,18,2,0,2,0,,,,,,,,,,,,,,,,,,,,,,,,,,,,,,,,,,,,,,,,,,,,,,,,,,,,,,,,,,,,,,,,30,,,,,,,,1074.3729842999019,1074.3729842999019,1074.3729842999019,1074.3729842999019,1074.3729842999019,right,0.7439299998804927,14,0,0,99,0.08,0.24,right,0.6563470000401139,,,,,,,,,,,,,,,,,,,,,,,,,,,,,,,,,,,,,,,,,,,,,,,,,,,,,,,,,,,,PAVC6T,train_x,blue_star,top_left,2025-04-16_17h25.43.877,HideSeek_v1,2022.2.5,59.91956397868432,
,0,8,3,8,3,0,31,,train_dim1_1,19,30,,,,2,0,2,0,,,,,,,,,0,0,0,0,0,18,18,18,3,0,3,0,,,,,,,,,,,,,,,,,,,,,,,,,,,,,,,,,,,,,,,,,,,,,,,,,,,,,,,,,,,,,,,,30,,,,,,,,1075.1238901996985,1075.1238901996985,1075.1238901996985,1075.1238901996985,1075.1238901996985,return,1.7276475001126528,15,0,0,1,0.08,0.24,return,1.6421996001154184,0,49,0.08,0.24,,,,,,,,,,,,,,,,,,,,,,,,,,,,,,,,,,,,,,,,,,,,,,,,,,,,,,,,PAVC6T,train_x,blue_star,top_left,2025-04-16_17h25.43.877,HideSeek_v1,2022.2.5,59.91956397868432,
,0,6,5,6,5,0,11,,train_dim1_1,20,30,,,,2,0,2,0,,,,,,,,,0,0,0,0,0,19,19,19,0,0,0,0,,,,,,,,,,,,,,,,,,,,,,,,,stimuli/alien_stimuli/11.png,,,,,,,,,,,,,,,,,,,,,,,,,,,,,stimuli/alien_stimuli/31.png,31,0,21,,,,,,,30,,,,,,,,1081.4595626997761,1081.4595626997761,1081.4595626997761,1081.4595626997761,1081.4595626997761,right,1.0718531999737024,15,0,0,99,-0.08,0.08,right,0.9687238996848464,,,,,1079.881215099711,1081.4595626997761,0.08,0.24,0.0,0.24,0.24,0.08,-0.04,0.08,0.24,1078.4146662000567,1078.4146662000567,1078.4146662000567,1078.4146662000567,1078.4146662000567,1078.4146662000567,1078.4146662000567,1078.4146662000567,1078.3964560796508,1.5702633000910282,return,1.4418679997324944,,,,,,,,,,,,,,,,,,,,,,,,,,,,,,,,,PAVC6T,train_x,blue_star,top_left,2025-04-16_17h25.43.877,HideSeek_v1,2022.2.5,59.91956397868432,
,0,6,5,6,5,0,11,,train_dim1_1,20,30,,,,2,0,2,0,,,,,,,,,0,0,0,0,0,19,19,19,1,0,1,0,,,,,,,,,,,,,,,,,,,,,,,,,,,,,,,,,,,,,,,,,,,,,,,,,,,,,,,,,,,,,,,,30,,,,,,,,1082.5204137000255,1082.5204137000255,1082.5204137000255,1082.5204137000255,1082.5204137000255,right,0.47590629989281297,15,0,0,99,0.0,0.08,right,0.3968721004202962,,,,,,,,,,,,,,,,,,,,,,,,,,,,,,,,,,,,,,,,,,,,,,,,,,,,,,,,,,,,PAVC6T,train_x,blue_star,top_left,2025-04-16_17h25.43.877,HideSeek_v1,2022.2.5,59.91956397868432,
,0,6,5,6,5,0,11,,train_dim1_1,20,30,,,,2,0,2,0,,,,,,,,,0,0,0,0,0,19,19,19,2,0,2,0,,,,,,,,,,,,,,,,,,,,,,,,,,,,,,,,,,,,,,,,,,,,,,,,,,,,,,,,,,,,,,,,30,,,,,,,,1083.00050189998,1083.00050189998,1083.00050189998,1083.00050189998,1083.00050189998,right,0.8770194998942316,15,0,0,99,0.08,0.08,right,0.7921595997177064,,,,,,,,,,,,,,,,,,,,,,,,,,,,,,,,,,,,,,,,,,,,,,,,,,,,,,,,,,,,PAVC6T,train_x,blue_star,top_left,2025-04-16_17h25.43.877,HideSeek_v1,2022.2.5,59.91956397868432,
,0,6,5,6,5,0,11,,train_dim1_1,20,30,,,,2,0,2,0,,,,,,,,,0,0,0,0,0,19,19,19,3,0,3,0,,,,,,,,,,,,,,,,,,,,,,,,,,,,,,,,,,,,,,,,,,,,,,,,,,,,,,,,,,,,,,,,30,,,,,,,,1083.88486859994,1083.88486859994,1083.88486859994,1083.88486859994,1083.88486859994,right,1.0603936999104917,15,0,0,99,0.16,0.08,right,0.9774314998649061,,,,,,,,,,,,,,,,,,,,,,,,,,,,,,,,,,,,,,,,,,,,,,,,,,,,,,,,,,,,PAVC6T,train_x,blue_star,top_left,2025-04-16_17h25.43.877,HideSeek_v1,2022.2.5,59.91956397868432,
,0,6,5,6,5,0,11,,train_dim1_1,20,30,,,,2,0,2,0,,,,,,,,,0,0,0,0,0,19,19,19,4,0,4,0,,,,,,,,,,,,,,,,,,,,,,,,,,,,,,,,,,,,,,,,,,,,,,,,,,,,,,,,,,,,,,,,30,,,,,,,,1084.9527324996889,1084.9527324996889,1084.9527324996889,1084.9527324996889,1084.9527324996889,right,0.5598185998387635,15,0,0,99,0.24,0.08,right,0.4806643002666533,,,,,,,,,,,,,,,,,,,,,,,,,,,,,,,,,,,,,,,,,,,,,,,,,,,,,,,,,,,,PAVC6T,train_x,blue_star,top_left,2025-04-16_17h25.43.877,HideSeek_v1,2022.2.5,59.91956397868432,
,0,6,5,6,5,0,11,,train_dim1_1,20,30,,,,2,0,2,0,,,,,,,,,0,0,0,0,0,19,19,19,5,0,5,0,,,,,,,,,,,,,,,,,,,,,,,,,,,,,,,,,,,,,,,,,,,,,,,,,,,,,,,,,,,,,,,,30,,,,,,,,1085.518507000059,1085.518507000059,1085.518507000059,1085.518507000059,1085.518507000059,return,1.0108558000065386,16,0,0,1,0.24,0.08,return,0.9349531000480056,0,54,0.24,0.08,,,,,,,,,,,,,,,,,,,,,,,,,,,,,,,,,,,,,,,,,,,,,,,,,,,,,,,,PAVC6T,train_x,blue_star,top_left,2025-04-16_17h25.43.877,HideSeek_v1,2022.2.5,59.91956397868432,
,4,7,7,7,3,0,31,,train_dim1_1,21,30,,,,2,0,2,0,,,,,,,,,0,0,0,0,0,20,20,20,0,0,0,0,,,,,,,,,,,,,,,,,,,,,,,,,stimuli/alien_stimuli/31.png,,,,,,,,,,,,,,,,,,,,,,,,,,,,,stimuli/alien_stimuli/11.png,11,0,22,,,,,,,30,,,,,,,,1091.2984490999952,1091.2984490999952,1091.2984490999952,1091.2984490999952,1091.2984490999952,right,1.372539300005883,16,0,0,99,0.24,0.16,right,1.265067699830979,,,,,1089.7227099998854,1091.2984490999952,0.24,0.08,0.0,0.4,0.08,0.24,0.039999999999999994,0.24,0.08,1088.0989765999839,1088.0989765999839,1088.0989765999839,1088.0989765999839,1088.0989765999839,1088.0989765999839,1088.0989765999839,1088.0989765999839,1088.0880082598424,1.7367669004015625,return,1.601411699783057,,,,,,,,,,,,,,,,,,,,,,,,,,,,,,,,,PAVC6T,train_x,blue_star,top_left,2025-04-16_17h25.43.877,HideSeek_v1,2022.2.5,59.91956397868432,
,4,7,7,7,3,0,31,,train_dim1_1,21,30,,,,2,0,2,0,,,,,,,,,0,0,0,0,0,20,20,20,1,0,1,0,,,,,,,,,,,,,,,,,,,,,,,,,,,,,,,,,,,,,,,,,,,,,,,,,,,,,,,,,,,,,,,,30,,,,,,,,1092.6567025999539,1092.6567025999539,1092.6567025999539,1092.6567025999539,1092.6567025999539,right,0.5925134001299739,16,0,0,99,0.32,0.16,right,0.5132503001950681,,,,,,,,,,,,,,,,,,,,,,,,,,,,,,,,,,,,,,,,,,,,,,,,,,,,,,,,,,,,PAVC6T,train_x,blue_star,top_left,2025-04-16_17h25.43.877,HideSeek_v1,2022.2.5,59.91956397868432,
,4,7,7,7,3,0,31,,train_dim1_1,21,30,,,,2,0,2,0,,,,,,,,,0,0,0,0,0,20,20,20,2,0,2,0,,,,,,,,,,,,,,,,,,,,,,,,,,,,,,,,,,,,,,,,,,,,,,,,,,,,,,,,,,,,,,,,30,,,,,,,,1093.2563121998683,1093.2563121998683,1093.2563121998683,1093.2563121998683,1093.2563121998683,right,0.6431354000233114,16,0,0,99,0.4,0.16,right,0.562491999939084,,,,,,,,,,,,,,,,,,,,,,,,,,,,,,,,,,,,,,,,,,,,,,,,,,,,,,,,,,,,PAVC6T,train_x,blue_star,top_left,2025-04-16_17h25.43.877,HideSeek_v1,2022.2.5,59.91956397868432,
,4,7,7,7,3,0,31,,train_dim1_1,21,30,,,,2,0,2,0,,,,,,,,,0,0,0,0,0,20,20,20,3,0,3,0,,,,,,,,,,,,,,,,,,,,,,,,,,,,,,,,,,,,,,,,,,,,,,,,,,,,,,,,,,,,,,,,30,,,,,,,,1093.9062267998233,1093.9062267998233,1093.9062267998233,1093.9062267998233,1093.9062267998233,return,4.663533399812877,17,0,0,1,0.4,0.16,return,4.581091300118715,0,57,0.4,0.16,,,,,,,,,,,,,,,,,,,,,,,,,,,,,,,,,,,,,,,,,,,,,,,,,,,,,,,,PAVC6T,train_x,blue_star,top_left,2025-04-16_17h25.43.877,HideSeek_v1,2022.2.5,59.91956397868432,
,1,5,5,5,4,0,21,,train_dim1_1,22,30,,,,2,0,2,0,,,,,,,,,0,0,0,0,0,21,21,21,0,0,0,0,,,,,,,,,,,,,,,,,,,,,,,,,stimuli/alien_stimuli/21.png,,,,,,,,,,,,,,,,,,,,,,,,,,,,,stimuli/alien_stimuli/31.png,31,4,23,,,,,,,30,,,,,,,,1103.2743028998375,1103.2743028998375,1103.2743028998375,1103.2743028998375,1103.2743028998375,right,1.1562095996923745,17,0,0,99,0.0,0,right,1.0612799003720284,,,,,1101.6994070000947,1103.2743028998375,0.4,0.16,0.0,0.24,0.16,0.4,0.28,0.4,0.16,1100.1541192997247,1100.1541192997247,1100.1541192997247,1100.1541192997247,1100.1541192997247,1100.1541192997247,1100.1541192997247,1100.1541192997247,1100.1477980397642,1.6707278001122177,return,1.5284282001666725,,,,,,,,,,,,,,,,,,,,,,,,,,,,,,,,,PAVC6T,train_x,blue_star,top_left,2025-04-16_17h25.43.877,HideSeek_v1,2022.2.5,59.91956397868432,
,1,5,5,5,4,0,21,,train_dim1_1,22,30,,,,2,0,2,0,,,,,,,,,0,0,0,0,0,21,21,21,1,0,1,0,,,,,,,,,,,,,,,,,,,,,,,,,,,,,,,,,,,,,,,,,,,,,,,,,,,,,,,,,,,,,,,,30,,,,,,,,1104.41919639986,1104.41919639986,1104.41919639986,1104.41919639986,1104.41919639986,right,0.4762805001810193,17,0,0,99,0.08,0,right,0.38685020012781024,,,,,,,,,,,,,,,,,,,,,,,,,,,,,,,,,,,,,,,,,,,,,,,,,,,,,,,,,,,,PAVC6T,train_x,blue_star,top_left,2025-04-16_17h25.43.877,HideSeek_v1,2022.2.5,59.91956397868432,
,1,5,5,5,4,0,21,,train_dim1_1,22,30,,,,2,0,2,0,,,,,,,,,0,0,0,0,0,21,21,21,2,0,2,0,,,,,,,,,,,,,,,,,,,,,,,,,,,,,,,,,,,,,,,,,,,,,,,,,,,,,,,,,,,,,,,,30,,,,,,,,1104.903617599979,1104.903617599979,1104.903617599979,1104.903617599979,1104.903617599979,right,0.4598205997608602,17,0,0,99,0.16,0,right,0.37200440000742674,,,,,,,,,,,,,,,,,,,,,,,,,,,,,,,,,,,,,,,,,,,,,,,,,,,,,,,,,,,,PAVC6T,train_x,blue_star,top_left,2025-04-16_17h25.43.877,HideSeek_v1,2022.2.5,59.91956397868432,
,1,5,5,5,4,0,21,,train_dim1_1,22,30,,,,2,0,2,0,,,,,,,,,0,0,0,0,0,21,21,21,3,0,3,0,,,,,,,,,,,,,,,,,,,,,,,,,,,,,,,,,,,,,,,,,,,,,,,,,,,,,,,,,,,,,,,,30,,,,,,,,1105.370614899788,1105.370614899788,1105.370614899788,1105.370614899788,1105.370614899788,right,0.47686560032889247,17,0,0,99,0.24,0,right,0.39254850009456277,,,,,,,,,,,,,,,,,,,,,,,,,,,,,,,,,,,,,,,,,,,,,,,,,,,,,,,,,,,,PAVC6T,train_x,blue_star,top_left,2025-04-16_17h25.43.877,HideSeek_v1,2022.2.5,59.91956397868432,
,1,5,5,5,4,0,21,,train_dim1_1,22,30,,,,2,0,2,0,,,,,,,,,0,0,0,0,0,21,21,21,4,0,4,0,,,,,,,,,,,,,,,,,,,,,,,,,,,,,,,,,,,,,,,,,,,,,,,,,,,,,,,,,,,,,,,,30,,,,,,,,1105.8536670999601,1105.8536670999601,1105.8536670999601,1105.8536670999601,1105.8536670999601,return,2.04405610030517,18,0,0,1,0.24,0,return,1.955668699927628,0,61,0.24,0,,,,,,,,,,,,,,,,,,,,,,,,,,,,,,,,,,,,,,,,,,,,,,,,,,,,,,,,PAVC6T,train_x,blue_star,top_left,2025-04-16_17h25.43.877,HideSeek_v1,2022.2.5,59.91956397868432,
,2,6,2,6,0,0,61,,train_dim1_1,23,30,,,,2,0,2,0,,,,,,,,,0,0,0,0,0,22,22,22,0,0,0,0,,,,,,,,,,,,,,,,,,,,,,,,,stimuli/alien_stimuli/61.png,,,,,,,,,,,,,,,,,,,,,,,,,,,,,stimuli/alien_stimuli/21.png,21,1,24,,,,,,,30,,,,,,,,1112.501778099686,1112.501778099686,1112.501778099686,1112.501778099686,1112.501778099686,return,1.1384316999465227,19,0,0,1,0,0.08,return,1.0419179000891745,0,61,0,0.08,1110.9238587999716,1112.501778099686,0.24,0,0.0,0.32,0.0,0.24,0.07999999999999999,0.24,0,1109.4642630997114,1109.4642630997114,1109.4642630997114,1109.4642630997114,1109.4642630997114,1109.4642630997114,1109.4642630997114,1109.4642630997114,1109.4557236595547,1.5699664000421762,return,1.4298991998657584,,,,,,,,,,,,,,,,,,,,,,,,,,,,,,,,,PAVC6T,train_x,blue_star,top_left,2025-04-16_17h25.43.877,HideSeek_v1,2022.2.5,59.91956397868432,
,4,9,5,9,1,0,51,,train_dim1_1,24,30,,,,2,0,2,0,,,,,,,,,0,0,0,0,0,23,23,23,0,0,0,0,,,,,,,,,,,,,,,,,,,,,,,,,stimuli/alien_stimuli/51.png,,,,,,,,,,,,,,,,,,,,,,,,,,,,,stimuli/alien_stimuli/61.png,61,2,25,,,,,,,30,,,,,,,,1118.857311700005,1118.857311700005,1118.857311700005,1118.857311700005,1118.857311700005,right,1.1062241001054645,19,0,0,99,0.24,0.32,right,1.0180989000946283,,,,,1117.2955714999698,1118.857311700005,0,0.08,0.0,0.0,0.08,0,0.0,0,0.08,1115.1797273000702,1115.1797273000702,1115.1797273000702,1115.1797273000702,1115.1797273000702,1115.1797273000702,1115.1797273000702,1115.1797273000702,1115.160693079792,2.2203687001019716,return,2.0946208997629583,,,,,,,,,,,,,,,,,,,,,,,,,,,,,,,,,PAVC6T,train_x,blue_star,top_left,2025-04-16_17h25.43.877,HideSeek_v1,2022.2.5,59.91956397868432,
,4,9,5,9,1,0,51,,train_dim1_1,24,30,,,,2,0,2,0,,,,,,,,,0,0,0,0,0,23,23,23,1,0,1,0,,,,,,,,,,,,,,,,,,,,,,,,,,,,,,,,,,,,,,,,,,,,,,,,,,,,,,,,,,,,,,,,30,,,,,,,,1119.9636792000383,1119.9636792000383,1119.9636792000383,1119.9636792000383,1119.9636792000383,return,0.7766011999920011,20,0,0,1,0.24,0.32,return,0.7015252998098731,0,62,0.24,0.32,,,,,,,,,,,,,,,,,,,,,,,,,,,,,,,,,,,,,,,,,,,,,,,,,,,,,,,,PAVC6T,train_x,blue_star,top_left,2025-04-16_17h25.43.877,HideSeek_v1,2022.2.5,59.91956397868432,
,3,5,8,5,5,0,11,,train_dim1_1,25,30,,,,2,0,2,0,,,,,,,,,0,0,0,0,0,24,24,24,0,0,0,0,,,,,,,,,,,,,,,,,,,,,,,,,stimuli/alien_stimuli/11.png,,,,,,,,,,,,,,,,,,,,,,,,,,,,,stimuli/alien_stimuli/51.png,51,4,26,,,,,,,30,,,,,,,,1125.6700830999762,1125.6700830999762,1125.6700830999762,1125.6700830999762,1125.6700830999762,right,1.2039156998507679,20,0,0,99,0.16,0,right,1.0951706003397703,,,,,1124.0845461999997,1125.6700830999762,0.24,0.32,0.0,0.08,0.32,0.24,0.2,0.24,0.32,1122.30579699995,1122.30579699995,1122.30579699995,1122.30579699995,1122.30579699995,1122.30579699995,1122.30579699995,1122.30579699995,1122.2829564796762,1.887078800238669,return,1.7608810998499393,,,,,,,,,,,,,,,,,,,,,,,,,,,,,,,,,PAVC6T,train_x,blue_star,top_left,2025-04-16_17h25.43.877,HideSeek_v1,2022.2.5,59.91956397868432,
,3,5,8,5,5,0,11,,train_dim1_1,25,30,,,,2,0,2,0,,,,,,,,,0,0,0,0,0,24,24,24,1,0,1,0,,,,,,,,,,,,,,,,,,,,,,,,,,,,,,,,,,,,,,,,,,,,,,,,,,,,,,,,,,,,,,,,30,,,,,,,,1126.854623399675,1126.854623399675,1126.854623399675,1126.854623399675,1126.854623399675,right,0.9600734002888203,20,0,0,99,0.24,0,right,0.8757675997912884,,,,,,,,,,,,,,,,,,,,,,,,,,,,,,,,,,,,,,,,,,,,,,,,,,,,,,,,,,,,PAVC6T,train_x,blue_star,top_left,2025-04-16_17h25.43.877,HideSeek_v1,2022.2.5,59.91956397868432,
,3,5,8,5,5,0,11,,train_dim1_1,25,30,,,,2,0,2,0,,,,,,,,,0,0,0,0,0,24,24,24,2,0,2,0,,,,,,,,,,,,,,,,,,,,,,,,,,,,,,,,,,,,,,,,,,,,,,,,,,,,,,,,,,,,,,,,30,,,,,,,,1127.8217235999182,1127.8217235999182,1127.8217235999182,1127.8217235999182,1127.8217235999182,right,0.5594219001941383,20,0,0,99,0.32,0,right,0.4742534998804331,,,,,,,,,,,,,,,,,,,,,,,,,,,,,,,,,,,,,,,,,,,,,,,,,,,,,,,,,,,,PAVC6T,train_x,blue_star,top_left,2025-04-16_17h25.43.877,HideSeek_v1,2022.2.5,59.91956397868432,
,3,5,8,5,5,0,11,,train_dim1_1,25,30,,,,2,0,2,0,,,,,,,,,0,0,0,0,0,24,24,24,3,0,3,0,,,,,,,,,,,,,,,,,,,,,,,,,,,,,,,,,,,,,,,,,,,,,,,,,,,,,,,,,,,,,,,,30,,,,,,,,1128.3884079996496,1128.3884079996496,1128.3884079996496,1128.3884079996496,1128.3884079996496,right,0.6269136001355946,20,0,0,99,0.4,0,right,0.5403606002219021,,,,,,,,,,,,,,,,,,,,,,,,,,,,,,,,,,,,,,,,,,,,,,,,,,,,,,,,,,,,PAVC6T,train_x,blue_star,top_left,2025-04-16_17h25.43.877,HideSeek_v1,2022.2.5,59.91956397868432,
,3,5,8,5,5,0,11,,train_dim1_1,25,30,,,,2,0,2,0,,,,,,,,,0,0,0,0,0,24,24,24,4,0,4,0,,,,,,,,,,,,,,,,,,,,,,,,,,,,,,,,,,,,,,,,,,,,,,,,,,,,,,,,,,,,,,,,30,,,,,,,,1129.0218758000992,1129.0218758000992,1129.0218758000992,1129.0218758000992,1129.0218758000992,right,2.078037700150162,20,0,0,99,0.48000000000000004,0,right,1.9862973997369409,,,,,,,,,,,,,,,,,,,,,,,,,,,,,,,,,,,,,,,,,,,,,,,,,,,,,,,,,,,,PAVC6T,train_x,blue_star,top_left,2025-04-16_17h25.43.877,HideSeek_v1,2022.2.5,59.91956397868432,
,3,5,8,5,5,0,11,,train_dim1_1,25,30,,,,2,0,2,0,,,,,,,,,0,0,0,0,0,24,24,24,5,0,5,0,,,,,,,,,,,,,,,,,,,,,,,,,,,,,,,,,,,,,,,,,,,,,,,,,,,,,,,,,,,,,,,,30,,,,,,,,1131.1072534997948,1131.1072534997948,1131.1072534997948,1131.1072534997948,1131.1072534997948,return,0.6769651002250612,21,0,0,1,0.48000000000000004,0,return,0.5890428000129759,0,67,0.48000000000000004,0,,,,,,,,,,,,,,,,,,,,,,,,,,,,,,,,,,,,,,,,,,,,,,,,,,,,,,,,PAVC6T,train_x,blue_star,top_left,2025-04-16_17h25.43.877,HideSeek_v1,2022.2.5,59.91956397868432,
,1,6,1,6,0,0,61,,train_dim1_1,26,30,,,,2,0,2,0,,,,,,,,,0,0,0,0,0,25,25,25,0,0,0,0,,,,,,,,,,,,,,,,,,,,,,,,,stimuli/alien_stimuli/61.png,,,,,,,,,,,,,,,,,,,,,,,,,,,,,stimuli/alien_stimuli/11.png,11,3,27,,,,,,,30,,,,,,,,1136.338207199704,1136.338207199704,1136.338207199704,1136.338207199704,1136.338207199704,right,1.0860108002088964,21,0,0,99,0.0,0.08,right,0.9864834998734295,,,,,1134.7601385000162,1136.338207199704,0.48,0,0.0,0.4,0.0,0.48,0.27999999999999997,0.48,0,1133.3742416999303,1133.3742416999303,1133.3742416999303,1133.3742416999303,1133.3742416999303,1133.3742416999303,1133.3742416999303,1133.3742416999303,1133.3591166397557,1.5200609001331031,return,1.3700800999067724,,,,,,,,,,,,,,,,,,,,,,,,,,,,,,,,,PAVC6T,train_x,blue_star,top_left,2025-04-16_17h25.43.877,HideSeek_v1,2022.2.5,59.91956397868432,
,1,6,1,6,0,0,61,,train_dim1_1,26,30,,,,2,0,2,0,,,,,,,,,0,0,0,0,0,25,25,25,1,0,1,0,,,,,,,,,,,,,,,,,,,,,,,,,,,,,,,,,,,,,,,,,,,,,,,,,,,,,,,,,,,,,,,,30,,,,,,,,1137.4087565997615,1137.4087565997615,1137.4087565997615,1137.4087565997615,1137.4087565997615,left,0.5096519002690911,21,0,0,99,-0.08,0.08,left,0.4270562003366649,,,,,,,,,,,,,,,,,,,,,,,,,,,,,,,,,,,,,,,,,,,,,,,,,,,,,,,,,,,,PAVC6T,train_x,blue_star,top_left,2025-04-16_17h25.43.877,HideSeek_v1,2022.2.5,59.91956397868432,
,1,6,1,6,0,0,61,,train_dim1_1,26,30,,,,2,0,2,0,,,,,,,,,0,0,0,0,0,25,25,25,2,0,2,0,,,,,,,,,,,,,,,,,,,,,,,,,,,,,,,,,,,,,,,,,,,,,,,,,,,,,,,,,,,,,,,,30,,,,,,,,1137.9256233996712,1137.9256233996712,1137.9256233996712,1137.9256233996712,1137.9256233996712,return,2.561695800162852,22,0,0,1,-0.08,0.08,return,2.4802786000072956,0,67,-0.08,0.08,,,,,,,,,,,,,,,,,,,,,,,,,,,,,,,,,,,,,,,,,,,,,,,,,,,,,,,,PAVC6T,train_x,blue_star,top_left,2025-04-16_17h25.43.877,HideSeek_v1,2022.2.5,59.91956397868432,
,0,6,3,6,3,0,31,,train_dim1_1,27,30,,,,2,0,2,0,,,,,,,,,0,0,0,0,0,26,26,26,0,0,0,0,,,,,,,,,,,,,,,,,,,,,,,,,stimuli/alien_stimuli/31.png,,,,,,,,,,,,,,,,,,,,,,,,,,,,,stimuli/alien_stimuli/61.png,61,1,28,,,,,,,30,,,,,,,,1145.998324399814,1145.998324399814,1145.998324399814,1145.998324399814,1145.998324399814,right,1.285867900121957,22,0,0,99,-0.08,0.08,right,1.1972009004093707,,,,,1144.4350556000136,1145.998324399814,-0.08,0.08,0.0,0.0,0.08,-0.08,-0.08,-0.08,0.08,1142.050049699843,1142.050049699843,1142.050049699843,1142.050049699843,1142.050049699843,1142.050049699843,1142.050049699843,1142.050049699843,1142.0328346799129,2.487666799686849,return,2.3599904999136925,,,,,,,,,,,,,,,,,,,,,,,,,,,,,,,,,PAVC6T,train_x,blue_star,top_left,2025-04-16_17h25.43.877,HideSeek_v1,2022.2.5,59.91956397868432,
,0,6,3,6,3,0,31,,train_dim1_1,27,30,,,,2,0,2,0,,,,,,,,,0,0,0,0,0,26,26,26,1,0,1,0,,,,,,,,,,,,,,,,,,,,,,,,,,,,,,,,,,,,,,,,,,,,,,,,,,,,,,,,,,,,,,,,30,,,,,,,,1147.2844281997532,1147.2844281997532,1147.2844281997532,1147.2844281997532,1147.2844281997532,right,0.5596690000966191,22,0,0,99,0.0,0.08,right,0.48496720008552074,,,,,,,,,,,,,,,,,,,,,,,,,,,,,,,,,,,,,,,,,,,,,,,,,,,,,,,,,,,,PAVC6T,train_x,blue_star,top_left,2025-04-16_17h25.43.877,HideSeek_v1,2022.2.5,59.91956397868432,
,0,6,3,6,3,0,31,,train_dim1_1,27,30,,,,2,0,2,0,,,,,,,,,0,0,0,0,0,26,26,26,2,0,2,0,,,,,,,,,,,,,,,,,,,,,,,,,,,,,,,,,,,,,,,,,,,,,,,,,,,,,,,,,,,,,,,,30,,,,,,,,1147.8511775997467,1147.8511775997467,1147.8511775997467,1147.8511775997467,1147.8511775997467,right,1.494133799802512,22,0,0,99,0.08,0.08,right,1.4102193000726402,,,,,,,,,,,,,,,,,,,,,,,,,,,,,,,,,,,,,,,,,,,,,,,,,,,,,,,,,,,,PAVC6T,train_x,blue_star,top_left,2025-04-16_17h25.43.877,HideSeek_v1,2022.2.5,59.91956397868432,
,0,6,3,6,3,0,31,,train_dim1_1,27,30,,,,2,0,2,0,,,,,,,,,0,0,0,0,0,26,26,26,3,0,3,0,,,,,,,,,,,,,,,,,,,,,,,,,,,,,,,,,,,,,,,,,,,,,,,,,,,,,,,,,,,,,,,,30,,,,,,,,1149.3518284996971,1149.3518284996971,1149.3518284996971,1149.3518284996971,1149.3518284996971,return,0.7606227998621762,23,0,0,1,0.08,0.08,return,0.68832530034706,0,70,0.08,0.08,,,,,,,,,,,,,,,,,,,,,,,,,,,,,,,,,,,,,,,,,,,,,,,,,,,,,,,,PAVC6T,train_x,blue_star,top_left,2025-04-16_17h25.43.877,HideSeek_v1,2022.2.5,59.91956397868432,
,3,6,7,6,4,0,21,,train_dim1_1,28,30,,,,2,0,2,0,,,,,,,,,0,0,0,0,0,27,27,27,0,0,0,0,,,,,,,,,,,,,,,,,,,,,,,,,stimuli/alien_stimuli/21.png,,,,,,,,,,,,,,,,,,,,,,,,,,,,,stimuli/alien_stimuli/31.png,31,0,29,,,,,,,30,,,,,,,,1154.6887898999266,1154.6887898999266,1154.6887898999266,1154.6887898999266,1154.6887898999266,right,3.441003500018269,23,0,0,99,0.16,0.08,right,3.333970000036061,,,,,1153.1088645998389,1154.6887898999266,0.08,0.08,0.0,0.24,0.08,0.08,-0.04,0.08,0.08,1151.6766014997847,1151.6766014997847,1151.6766014997847,1151.6766014997847,1151.6766014997847,1151.6766014997847,1151.6766014997847,1151.6766014997847,1151.65749927992,1.5371334999799728,return,1.4163922001607716,,,,,,,,,,,,,,,,,,,,,,,,,,,,,,,,,PAVC6T,train_x,blue_star,top_left,2025-04-16_17h25.43.877,HideSeek_v1,2022.2.5,59.91956397868432,
,3,6,7,6,4,0,21,,train_dim1_1,28,30,,,,2,0,2,0,,,,,,,,,0,0,0,0,0,27,27,27,1,0,1,0,,,,,,,,,,,,,,,,,,,,,,,,,,,,,,,,,,,,,,,,,,,,,,,,,,,,,,,,,,,,,,,,30,,,,,,,,1158.1154294000007,1158.1154294000007,1158.1154294000007,1158.1154294000007,1158.1154294000007,return,0.7084584999829531,23,0,0,0,0.16,0.08,return,0.6214922997169197,0,71,0.16,0.08,,,,,,,,,,,,,,,,,,,,,,,,,,,,,,,,,,,,,,,,,,,,,,,,,,,,,,,,PAVC6T,train_x,blue_star,top_left,2025-04-16_17h25.43.877,HideSeek_v1,2022.2.5,59.91956397868432,
,4,5,5,5,1,0,51,,train_dim1_1,29,30,,,,2,0,2,0,,,,,,,,,0,0,0,0,0,28,28,28,0,0,0,0,,,,,,,,,,,,,,,,,,,,,,,,,stimuli/alien_stimuli/51.png,,,,,,,,,,,,,,,,,,,,,,,,,,,,,stimuli/alien_stimuli/21.png,21,3,30,,,,,,,30,,,,,,,,1165.2137906998396,1165.2137906998396,1165.2137906998396,1165.2137906998396,1165.2137906998396,right,1.3544474001973867,23,0,0,99,0.24,0,right,1.2622055998072028,,,,,1163.6509011997841,1165.2137906998396,0.4,0.08,0.0,0.32,0.08,0.4,0.24000000000000002,0.4,0.08,1160.39130820008,1160.39130820008,1160.39130820008,1160.39130820008,1160.39130820008,1160.39130820008,1160.39130820008,1160.39130820008,1160.3813627599275,3.3718842999078333,return,3.2404363001696765,,,,,,,,,,,,,,,,,,,,,,,,,,,,,,,,,PAVC6T,train_x,blue_star,top_left,2025-04-16_17h25.43.877,HideSeek_v1,2022.2.5,59.91956397868432,
,4,5,5,5,1,0,51,,train_dim1_1,29,30,,,,2,0,2,0,,,,,,,,,0,0,0,0,0,28,28,28,1,0,1,0,,,,,,,,,,,,,,,,,,,,,,,,,,,,,,,,,,,,,,,,,,,,,,,,,,,,,,,,,,,,,,,,30,,,,,,,,1166.5694281999022,1166.5694281999022,1166.5694281999022,1166.5694281999022,1166.5694281999022,return,0.7100558998063207,24,0,0,1,0.24,0,return,0.6190578998066485,0,72,0.24,0,,,,,,,,,,,,,,,,,,,,,,,,,,,,,,,,,,,,,,,,,,,,,,,,,,,,,,,,PAVC6T,train_x,blue_star,top_left,2025-04-16_17h25.43.877,HideSeek_v1,2022.2.5,59.91956397868432,
,2,7,7,7,5,0,11,,train_dim1_1,30,30,,,,2,0,2,0,,,,,,,,,0,0,0,0,0,29,29,29,0,0,0,0,,,,,,,,,,,,,,,,,,,,,,,,,stimuli/alien_stimuli/11.png,,,,,,,,,,,,,,,,,,,,,,,,,,,,,stimuli/alien_stimuli/51.png,51,4,31,,,,,,,30,,,,,,,,1172.207736799959,1172.207736799959,1172.207736799959,1172.207736799959,1172.207736799959,right,1.1715589999221265,24,0,0,99,0.08,0.16,right,1.0676243002526462,,,,,1170.6232141000219,1172.207736799959,0.24,0,0.0,0.08,0.0,0.24,0.2,0.24,0,1168.845217099879,1168.845217099879,1168.845217099879,1168.845217099879,1168.845217099879,1168.845217099879,1168.845217099879,1168.845217099879,1168.8216243796983,1.886802100110799,return,1.7565582999959588,,,,,,,,,,,,,,,,,,,,,,,,,,,,,,,,,PAVC6T,train_x,blue_star,top_left,2025-04-16_17h25.43.877,HideSeek_v1,2022.2.5,59.91956397868432,
,2,7,7,7,5,0,11,,train_dim1_1,30,30,,,,2,0,2,0,,,,,,,,,0,0,0,0,0,29,29,29,1,0,1,0,,,,,,,,,,,,,,,,,,,,,,,,,,,,,,,,,,,,,,,,,,,,,,,,,,,,,,,,,,,,,,,,30,,,,,,,,1173.3603161000647,1173.3603161000647,1173.3603161000647,1173.3603161000647,1173.3603161000647,right,0.5599353997968137,24,0,0,99,0.16,0.16,right,0.47427929984405637,,,,,,,,,,,,,,,,,,,,,,,,,,,,,,,,,,,,,,,,,,,,,,,,,,,,,,,,,,,,PAVC6T,train_x,blue_star,top_left,2025-04-16_17h25.43.877,HideSeek_v1,2022.2.5,59.91956397868432,
,2,7,7,7,5,0,11,,train_dim1_1,30,30,,,,2,0,2,0,,,,,,,,,0,0,0,0,0,29,29,29,2,0,2,0,,,,,,,,,,,,,,,,,,,,,,,,,,,,,,,,,,,,,,,,,,,,,,,,,,,,,,,,,,,,,,,,30,,,,,,,,1173.9279956999235,1173.9279956999235,1173.9279956999235,1173.9279956999235,1173.9279956999235,right,0.8100483999587595,24,0,0,99,0.24,0.16,right,0.719855900388211,,,,,,,,,,,,,,,,,,,,,,,,,,,,,,,,,,,,,,,,,,,,,,,,,,,,,,,,,,,,PAVC6T,train_x,blue_star,top_left,2025-04-16_17h25.43.877,HideSeek_v1,2022.2.5,59.91956397868432,
,2,7,7,7,5,0,11,,train_dim1_1,30,30,,,,2,0,2,0,,,,,,,,,0,0,0,0,0,29,29,29,3,0,3,0,,,,,,,,,,,,,,,,,,,,,,,,,,,,,,,,,,,,,,,,,,,,,,,,,,,,,,,,,,,,,,,,30,,,,,,,,1174.7442605998367,1174.7442605998367,1174.7442605998367,1174.7442605998367,1174.7442605998367,right,0.7936668996699154,24,0,0,99,0.32,0.16,right,0.702959300018847,,,,,,,,,,,,,,,,,,,,,,,,,,,,,,,,,,,,,,,,,,,,,,,,,,,,,,,,,,,,PAVC6T,train_x,blue_star,top_left,2025-04-16_17h25.43.877,HideSeek_v1,2022.2.5,59.91956397868432,
,2,7,7,7,5,0,11,,train_dim1_1,30,30,,,,2,0,2,0,,,,,,,,,0,0,0,0,0,29,29,29,4,0,4,0,,,,,,,,,,,,,,,,,,,,,,,,,,,,,,,,,,,,,,,,,,,,,,,,,,,,,,,,,,,,,,,,30,,,,,,,,1175.5445022997446,1175.5445022997446,1175.5445022997446,1175.5445022997446,1175.5445022997446,right,0.5434713000431657,24,0,0,99,0.4,0.16,right,0.4607519996352494,,,,,,,,,,,,,,,,,,,,,,,,,,,,,,,,,,,,,,,,,,,,,,,,,,,,,,,,,,,,PAVC6T,train_x,blue_star,top_left,2025-04-16_17h25.43.877,HideSeek_v1,2022.2.5,59.91956397868432,
,2,7,7,7,5,0,11,,train_dim1_1,30,30,,,,2,0,2,0,,,,,,,,,0,0,0,0,0,29,29,29,5,0,5,0,,,,,,,,,,,,,,,,,,,,,,,,,,,,,,,,,,,,,,,,,,,,,,,,,,,,,,,,,,,,,,,,30,,,,,,,,1176.0948049998842,1176.0948049998842,1176.0948049998842,1176.0948049998842,1176.0948049998842,return,0.8438695003278553,25,0,0,1,0.4,0.16,return,0.7653022999875247,0,77,0.4,0.16,,,,,,,,,,,,,,,,,,,,,,,,,,,,,,,,,,,,,,,,,,,,,,,,,,,,,,,,PAVC6T,train_x,blue_star,top_left,2025-04-16_17h25.43.877,HideSeek_v1,2022.2.5,59.91956397868432,
,,,,,,,,,,,30,,,,2,0,2,0,,,,,,,,,,,,,,,,,,,,,,,,,,,,,,,,,,,,,,,,,,,,,,,,,,,,,,,,,,,,,,,,,,,,,,,,,,stimuli/alien_stimuli/11.png,11,2,32,21,0.7,1.0416666666666667,1,1,1,30,0,conditions/schedules/train_x_first/blue_star_00/top_left/inputTrain_2.1.xlsx,99,1,2,1,0,,,,,,,,,,,1,,,,,,,,,1179.6808408000506,1181.2363670999184,0.4,0.16,0.0,0.4,0.16,0.4,0.2,0.4,0.16,1178.5066118999384,1178.5066118999384,1178.5066118999384,1178.5066118999384,1178.5066118999384,1178.5066118999384,1178.5066118999384,1178.5066118999384,1178.4963337596973,1.2866131998598576,return,1.1453720000572503,0,0.9,0,1,25,,,,,,,,,,,,,,,,,,,,,,,,,,,,PAVC6T,train_x,blue_star,top_left,2025-04-16_17h25.43.877,HideSeek_v1,2022.2.5,59.91956397868432,
,,,,,,,,,,,,,,,3,0,3,0,0,0,0,0,,,,,,,,,,,,,,,,,,,,,,,,,,,,,,,conditions/schedules/train_x_first/blue_star_00/top_left/instructions/Slide17.png,conditions/schedules/train_x_first/blue_star_00/top_left/instructions/Audio17.wav,1181.2363670999184,1181.231912619807,17,"[7.501771499868482, 18.531041000038385, 16.515852199867368, 19.432552699930966, 3.883446800056845, 4.401162600144744, 5.401717099826783, 11.773391299881041, 6.286335000302643, 6.666735900100321, 10.034674099646509, 12.438053800258785, 17.347427300177515, 12.157383599784225, 29.814025099854916, 21.9312058002688, 29.66810050001368]","[0.03228020016103983, 0.014054999686777592, 16.51585889980197, 0.030429699923843145, 0.04732810007408261, 0.04838849976658821, 0.030569099821150303, 0.03144140029326081, 0.03085889993235469, 0.030952999833971262, 0.029953900258988142, 12.438060500193387, 0.03117489954456687, 12.15739019960165, 0.04654880007728934, 21.931212700437754, 29.668107300065458]",0,,,,,,,,,,,,,,,,,,,,,,,,,,,,,,,,,,,,,,,,,,,,,,,,,,,,,,,,,,,,,,,,,,,,,,,,,,,,,,,,,,,,,,,,,,,,,,,,,,,,,,,,,,,,,,,,,,,,,,,,,,,,PAVC6T,train_x,blue_star,top_left,2025-04-16_17h25.43.877,HideSeek_v1,2022.2.5,59.91956397868432,
,,,,,,,,,,,,,,,3,0,3,0,1,0,1,0,,,,,,,,,,,,,,,,,,,,,,,,,,,,,,,conditions/schedules/train_x_first/blue_star_00/top_left/instructions/Slide18.png,conditions/schedules/train_x_first/blue_star_00/top_left/instructions/Audio18.wav,1210.9687183997594,1210.956845019851,18,"[7.501771499868482, 18.531041000038385, 16.515852199867368, 19.432552699930966, 3.883446800056845, 4.401162600144744, 5.401717099826783, 11.773391299881041, 6.286335000302643, 6.666735900100321, 10.034674099646509, 12.438053800258785, 17.347427300177515, 12.157383599784225, 29.814025099854916, 21.9312058002688, 29.66810050001368, 5.940546399913728]","[0.03228020016103983, 0.014054999686777592, 16.51585889980197, 0.030429699923843145, 0.04732810007408261, 0.04838849976658821, 0.030569099821150303, 0.03144140029326081, 0.03085889993235469, 0.030952999833971262, 0.029953900258988142, 12.438060500193387, 0.03117489954456687, 12.15739019960165, 0.04654880007728934, 21.931212700437754, 0.013876100070774555, 5.940555199980736]",0,,,,,,,,,,,,,,,,,,,,,,,,,,,,,,,,,,,,,,,,,,,,,,,,,,,,,,,,,,,,,,,,,,,,,,,,,,,,,,,,,,,,,,,,,,,,,,,,,,,,,,,,,,,,,,,,,,,,,,,,,,,,PAVC6T,train_x,blue_star,top_left,2025-04-16_17h25.43.877,HideSeek_v1,2022.2.5,59.91956397868432,
,,,,,,,,,,,,,,,3,0,3,0,2,0,2,0,,,,,,,,,,,,,,,,,,,,,,,,,,,,,,,conditions/schedules/train_x_first/blue_star_00/top_left/instructions/Slide19.png,conditions/schedules/train_x_first/blue_star_00/top_left/instructions/Audio19.wav,1216.9496136996895,1216.9455358400476,19,"[7.501771499868482, 18.531041000038385, 16.515852199867368, 19.432552699930966, 3.883446800056845, 4.401162600144744, 5.401717099826783, 11.773391299881041, 6.286335000302643, 6.666735900100321, 10.034674099646509, 12.438053800258785, 17.347427300177515, 12.157383599784225, 29.814025099854916, 21.9312058002688, 29.66810050001368, 5.940546399913728, 10.451662700157613]","[0.03228020016103983, 0.014054999686777592, 16.51585889980197, 0.030429699923843145, 0.04732810007408261, 0.04838849976658821, 0.030569099821150303, 0.03144140029326081, 0.03085889993235469, 0.030952999833971262, 0.029953900258988142, 12.438060500193387, 0.03117489954456687, 12.15739019960165, 0.04654880007728934, 21.931212700437754, 0.013876100070774555, 0.029939400032162666, 10.451669400092214]",0,,,,,,,,,,,,,,,,,,,,,,,,,,,,,,,,,,,,,,,,,,,,,,,,,,,,,,,,,,,,,,,,,,,,,,,,,,,,,,,,,,,,,,,,,,,,,,,,,,,,,,,,,,,,,,,,,,,,,,,,,,,,PAVC6T,train_x,blue_star,top_left,2025-04-16_17h25.43.877,HideSeek_v1,2022.2.5,59.91956397868432,
,,,,,,,,,,,,,,,3,0,3,0,3,0,3,0,,,,,,,,,,,,,,,,,,,,,,,,,,,,,,,conditions/schedules/train_x_first/blue_star_00/top_left/instructions/Slide20.png,conditions/schedules/train_x_first/blue_star_00/top_left/instructions/Audio20.wav,1227.4745010999031,1227.4704925997648,20,"[7.501771499868482, 18.531041000038385, 16.515852199867368, 19.432552699930966, 3.883446800056845, 4.401162600144744, 5.401717099826783, 11.773391299881041, 6.286335000302643, 6.666735900100321, 10.034674099646509, 12.438053800258785, 17.347427300177515, 12.157383599784225, 29.814025099854916, 21.9312058002688, 29.66810050001368, 5.940546399913728, 10.451662700157613, 14.021804499905556]","[0.03228020016103983, 0.014054999686777592, 16.51585889980197, 0.030429699923843145, 0.04732810007408261, 0.04838849976658821, 0.030569099821150303, 0.03144140029326081, 0.03085889993235469, 0.030952999833971262, 0.029953900258988142, 12.438060500193387, 0.03117489954456687, 12.15739019960165, 0.04654880007728934, 21.931212700437754, 0.013876100070774555, 0.029939400032162666, 0.00021660001948475838, 14.021811199840158]",0,,,,,,,,,,,,,,,,,,,,,,,,,,,,,,,,,,,,,,,,,,,,,,,,,,,,,,,,,,,,,,,,,,,,,,,,,,,,,,,,,,,,,,,,,,,,,,,,,,,,,,,,,,,,,,,,,,,,,,,,,,,,PAVC6T,train_x,blue_star,top_left,2025-04-16_17h25.43.877,HideSeek_v1,2022.2.5,59.91956397868432,
1,0,8,0,3,0,-5,66,2,instr_dim1_2,,,,,,3,0,3,0,,,,,0,0,0,0,,,,,,,,,,,,,,,,,,,,,,,,,,,,,,,,,,,,,stimuli/alien_stimuli/66.png,conditions/schedules/train_x_first/blue_star_00/top_left/inputInstr_2.xlsx,stimuli/alien_stimuli/66.png,1241.5899378000759,1241.5899378000759,1241.5899378000759,1241.5899378000759,1241.5822337796913,return,6.665780399926007,"[-0.16, -0.08, 0, 0.08, 0.16, 0.24, 0.32, 0.4, 0.48, 0.56]","[-0.4, -0.32, -0.24, -0.16, -0.08, 0, 0.08, 0.16, 0.24, 0.32]",3,8,0,0,0.4,0.0,1248.4110194998793,1248.4110194998793,1248.4110194998793,1248.4110194998793,1248.4110194998793,1248.4110194998793,1248.4110194998793,1248.4043976397254,5.6387885003350675,return,5.488611899781972,stimuli/alien_stimuli/66.png,66,0,1,,,,,,,,,,,,,,,,,,,,,,,,,,,,,,,,,,,,,,,,,,,,,,,,,,,,,,,,,,,,,,,,,,,,,,,,,,,,,,,,,,,,,,,,,PAVC6T,train_x,blue_star,top_left,2025-04-16_17h25.43.877,HideSeek_v1,2022.2.5,59.91956397868432,
,,,,,,,,,,,30,,,,3,0,3,0,,,,,,,,,,,,,,,,,,,,,,,,,,,,,,,,,,,,,,,,,,,,,,,,,,,,,,,,,,,,,,,,,,,,,,,,,,,,,,21,0.7,1.0416666666666667,1,99,2,30,0,conditions/schedules/train_x_first/blue_star_00/top_left/inputTrain_2.1.xlsx,99,1,2,1,0,,,,,,,,,,,,,,,,,,,,,,,,,,,,,,,,,,,,,,,,,,,,,,,,,,,,,,,,,,,,,,,,,,,,,,,,,,,PAVC6T,train_x,blue_star,top_left,2025-04-16_17h25.43.877,HideSeek_v1,2022.2.5,59.91956397868432,
,,,,,,,,,,,,,,,4,0,4,0,0,0,0,0,,,,,,,,,,,,,,,,,,,,,,,,,,,,,,,conditions/schedules/train_x_first/blue_star_00/top_left/instructions/Slide21.png,conditions/schedules/train_x_first/blue_star_00/top_left/instructions/Audio21.wav,1254.0769744999707,1254.0756339998916,21,"[7.501771499868482, 18.531041000038385, 16.515852199867368, 19.432552699930966, 3.883446800056845, 4.401162600144744, 5.401717099826783, 11.773391299881041, 6.286335000302643, 6.666735900100321, 10.034674099646509, 12.438053800258785, 17.347427300177515, 12.157383599784225, 29.814025099854916, 21.9312058002688, 29.66810050001368, 5.940546399913728, 10.451662700157613, 14.021804499905556, 15.976518400013447]","[0.03228020016103983, 0.014054999686777592, 16.51585889980197, 0.030429699923843145, 0.04732810007408261, 0.04838849976658821, 0.030569099821150303, 0.03144140029326081, 0.03085889993235469, 0.030952999833971262, 0.029953900258988142, 12.438060500193387, 0.03117489954456687, 12.15739019960165, 0.04654880007728934, 21.931212700437754, 0.013876100070774555, 0.029939400032162666, 0.00021660001948475838, 14.021811199840158, 15.976525200065225]",0,,,,,,,,,,,,,,,,,,,,,,,,,,,,,,,,,,,,,,,,,,,,,,,,,,,,,,,,,,,,,,,,,,,,,,,,,,,,,,,,,,,,,,,,,,,,,,,,,,,,,,,,,,,,,,,,,,,,,,,,,,,,PAVC6T,train_x,blue_star,top_left,2025-04-16_17h25.43.877,HideSeek_v1,2022.2.5,59.91956397868432,
2,2,8,2,8,0,0,61,2,instr_dim1_2,,,,,,4,0,4,0,,,,,0,0,0,0,,,,,,,,,,,,,,,,,,,,,,,,,,,,,,,,,,,,,stimuli/alien_stimuli/61.png,conditions/schedules/train_x_first/blue_star_00/top_left/inputInstr_2.xlsx,stimuli/alien_stimuli/61.png,1270.1503109997138,1270.1503109997138,1270.1503109997138,1270.1503109997138,1270.1558490595316,return,6.703961600083858,"[-0.16, -0.08, 0, 0.08, 0.16, 0.24, 0.32, 0.4, 0.48, 0.56]","[-0.4, -0.32, -0.24, -0.16, -0.08, 0, 0.08, 0.16, 0.24, 0.32]",8,8,2,2,0.0,0.0,1276.993971399963,1276.993971399963,1276.993971399963,1276.993971399963,1276.993971399963,1276.993971399963,1276.993971399963,1276.9948240395636,6.789886500220746,return,6.641113799996674,stimuli/alien_stimuli/61.png,61,2,2,,,,,,,,,,,,,,,,,,,,,,,,,,,,,,,,,,,,,,,,,,,,,,,,,,,,,,,,,,,,,,,,,,,,,,,,,,,,,,,,,,,,,,,,,PAVC6T,train_x,blue_star,top_left,2025-04-16_17h25.43.877,HideSeek_v1,2022.2.5,59.91956397868432,
,,,,,,,,,,,30,,,,4,0,4,0,,,,,,,,,,,,,,,,,,,,,,,,,,,,,,,,,,,,,,,,,,,,,,,,,,,,,,,,,,,,,,,,,,,,,,,,,,,,,,21,0.7,1.0416666666666667,1,99,2,30,0,conditions/schedules/train_x_first/blue_star_00/top_left/inputTrain_2.1.xlsx,99,1,2,1,0,,,,,,,,,,,,,,,,,,,,,,,,,,,,,,,,,,,,,,,,,,,,,,,,,,,,,,,,,,,,,,,,,,,,,,,,,,,PAVC6T,train_x,blue_star,top_left,2025-04-16_17h25.43.877,HideSeek_v1,2022.2.5,59.91956397868432,
,,,,,,,,,,,,,,,5,0,5,0,0,0,0,0,,,,,,,,,,,,,,,,,,,,,,,,,,,,,,,conditions/schedules/train_x_first/blue_star_00/top_left/instructions/Slide22.png,conditions/schedules/train_x_first/blue_star_00/top_left/instructions/Audio22.wav,1283.8264995999634,1283.8170915995724,22,"[7.501771499868482, 18.531041000038385, 16.515852199867368, 19.432552699930966, 3.883446800056845, 4.401162600144744, 5.401717099826783, 11.773391299881041, 6.286335000302643, 6.666735900100321, 10.034674099646509, 12.438053800258785, 17.347427300177515, 12.157383599784225, 29.814025099854916, 21.9312058002688, 29.66810050001368, 5.940546399913728, 10.451662700157613, 14.021804499905556, 15.976518400013447, 43.15793430013582]","[0.03228020016103983, 0.014054999686777592, 16.51585889980197, 0.030429699923843145, 0.04732810007408261, 0.04838849976658821, 0.030569099821150303, 0.03144140029326081, 0.03085889993235469, 0.030952999833971262, 0.029953900258988142, 12.438060500193387, 0.03117489954456687, 12.15739019960165, 0.04654880007728934, 21.931212700437754, 0.013876100070774555, 0.029939400032162666, 0.00021660001948475838, 14.021811199840158, 15.976525200065225, 43.15794160030782]",0,,,,,,,,,,,,,,,,,,,,,,,,,,,,,,,,,,,,,,,,,,,,,,,,,,,,,,,,,,,,,,,,,,,,,,,,,,,,,,,,,,,,,,,,,,,,,,,,,,,,,,,,,,,,,,,,,,,,,,,,,,,,PAVC6T,train_x,blue_star,top_left,2025-04-16_17h25.43.877,HideSeek_v1,2022.2.5,59.91956397868432,
,0,5,0,1,0,-4,65,,train_dim1_2,1,30,,,,5,0,5,0,,,,,,,,,0,0,0,0,0,0,0,0,0,0,0,0,,,,,,,,,,,,,,,,,,,,,,,,,stimuli/alien_stimuli/65.png,,,,,,,,,,,,,,,,,,,,,,,,,,,,,,,,,,,,,,,30,,,,,,,,1327.0885330997407,1327.0885330997407,1327.0885330997407,1327.0885330997407,1327.0885330997407,down,3.1294648996554315,0,0,0,99,-0.16,-0.08,down,3.033564199693501,,,,,,,,,,,,,,,,,,,,,,,,,,,,,,,,,,,,,,,,,,,,,,,,,,,,,,,,,,,,PAVC6T,train_x,blue_star,top_left,2025-04-16_17h25.43.877,HideSeek_v1,2022.2.5,59.91956397868432,
,0,5,0,1,0,-4,65,,train_dim1_2,1,30,,,,5,0,5,0,,,,,,,,,0,0,0,0,0,0,0,0,1,0,1,0,,,,,,,,,,,,,,,,,,,,,,,,,,,,,,,,,,,,,,,,,,,,,,,,,,,,,,,,,,,,,,,,30,,,,,,,,1330.202189200092,1330.202189200092,1330.202189200092,1330.202189200092,1330.202189200092,down,0.5100020002573729,0,0,0,99,-0.16,-0.16,down,0.43321319995447993,,,,,,,,,,,,,,,,,,,,,,,,,,,,,,,,,,,,,,,,,,,,,,,,,,,,,,,,,,,,PAVC6T,train_x,blue_star,top_left,2025-04-16_17h25.43.877,HideSeek_v1,2022.2.5,59.91956397868432,
,0,5,0,1,0,-4,65,,train_dim1_2,1,30,,,,5,0,5,0,,,,,,,,,0,0,0,0,0,0,0,0,2,0,2,0,,,,,,,,,,,,,,,,,,,,,,,,,,,,,,,,,,,,,,,,,,,,,,,,,,,,,,,,,,,,,,,,30,,,,,,,,1330.7197070997208,1330.7197070997208,1330.7197070997208,1330.7197070997208,1330.7197070997208,down,0.44312330009415746,0,0,0,99,-0.16,-0.24,down,0.3554163998924196,,,,,,,,,,,,,,,,,,,,,,,,,,,,,,,,,,,,,,,,,,,,,,,,,,,,,,,,,,,,PAVC6T,train_x,blue_star,top_left,2025-04-16_17h25.43.877,HideSeek_v1,2022.2.5,59.91956397868432,
,0,5,0,1,0,-4,65,,train_dim1_2,1,30,,,,5,0,5,0,,,,,,,,,0,0,0,0,0,0,0,0,3,0,3,0,,,,,,,,,,,,,,,,,,,,,,,,,,,,,,,,,,,,,,,,,,,,,,,,,,,,,,,,,,,,,,,,30,,,,,,,,1331.1700826999731,1331.1700826999731,1331.1700826999731,1331.1700826999731,1331.1700826999731,down,0.4102180995978415,0,0,0,99,-0.16,-0.32,down,0.32455450017005205,,,,,,,,,,,,,,,,,,,,,,,,,,,,,,,,,,,,,,,,,,,,,,,,,,,,,,,,,,,,PAVC6T,train_x,blue_star,top_left,2025-04-16_17h25.43.877,HideSeek_v1,2022.2.5,59.91956397868432,
,0,5,0,1,0,-4,65,,train_dim1_2,1,30,,,,5,0,5,0,,,,,,,,,0,0,0,0,0,0,0,0,4,0,4,0,,,,,,,,,,,,,,,,,,,,,,,,,,,,,,,,,,,,,,,,,,,,,,,,,,,,,,,,,,,,,,,,30,,,,,,,,1331.5872317999601,1331.5872317999601,1331.5872317999601,1331.5872317999601,1331.5872317999601,down,0.4762657997198403,0,0,0,99,-0.16,-0.4,down,0.40299820015206933,,,,,,,,,,,,,,,,,,,,,,,,,,,,,,,,,,,,,,,,,,,,,,,,,,,,,,,,,,,,PAVC6T,train_x,blue_star,top_left,2025-04-16_17h25.43.877,HideSeek_v1,2022.2.5,59.91956397868432,
,0,5,0,1,0,-4,65,,train_dim1_2,1,30,,,,5,0,5,0,,,,,,,,,0,0,0,0,0,0,0,0,5,0,5,0,,,,,,,,,,,,,,,,,,,,,,,,,,,,,,,,,,,,,,,,,,,,,,,,,,,,,,,,,,,,,,,,30,,,,,,,,1332.0701015000232,1332.0701015000232,1332.0701015000232,1332.0701015000232,1332.0701015000232,return,0.5267715998925269,0,1,0,0,-0.16,-0.4,return,0.44664520025253296,-5,77,-0.16,-0.4,,,,,,,,,,,,,,,,,,,,,,,,,,,,,,,,,,,,,,,,,,,,,,,,,,,,,,,,PAVC6T,train_x,blue_star,top_left,2025-04-16_17h25.43.877,HideSeek_v1,2022.2.5,59.91956397868432,
,3,7,3,2,0,-5,66,,train_dim1_2,2,30,,,,5,0,5,0,,,,,,,,,0,0,0,0,0,1,1,1,0,0,0,0,,,,,,,,,,,,,,,,,,,,,,,,,stimuli/alien_stimuli/66.png,,,,,,,,,,,,,,,,,,,,,,,,,,,,,stimuli/alien_stimuli/65.png,65,0,3,,,,,,,30,,,,,,,,1337.9970920998603,1337.9970920998603,1337.9970920998603,1337.9970920998603,1337.9970920998603,down,1.6051300996914506,0,1,0,99,0.08,0.08,down,1.5334123997017741,,,,,1336.4439252996817,1337.9970920998603,-0.16,-0.32,0.32,0.0,-0.16,-0.16,-0.16,-0.16,-0.32,1334.1793821998872,1334.1793821998872,1334.1793821998872,1334.1793821998872,1334.1793821998872,1334.1793821998872,1334.1793821998872,1334.1793821998872,1334.1591604598334,2.3881590999662876,return,2.2460506996139884,,,,,,,,,,,,,,,,,,,,,,,,,,,,,,,,,PAVC6T,train_x,blue_star,top_left,2025-04-16_17h25.43.877,HideSeek_v1,2022.2.5,59.91956397868432,
,3,7,3,2,0,-5,66,,train_dim1_2,2,30,,,,5,0,5,0,,,,,,,,,0,0,0,0,0,1,1,1,1,0,1,0,,,,,,,,,,,,,,,,,,,,,,,,,,,,,,,,,,,,,,,,,,,,,,,,,,,,,,,,,,,,,,,,30,,,,,,,,1339.610270800069,1339.610270800069,1339.610270800069,1339.610270800069,1339.610270800069,down,0.4597363001666963,0,1,0,99,0.08,0.0,down,0.3855719999410212,,,,,,,,,,,,,,,,,,,,,,,,,,,,,,,,,,,,,,,,,,,,,,,,,,,,,,,,,,,,PAVC6T,train_x,blue_star,top_left,2025-04-16_17h25.43.877,HideSeek_v1,2022.2.5,59.91956397868432,
,3,7,3,2,0,-5,66,,train_dim1_2,2,30,,,,5,0,5,0,,,,,,,,,0,0,0,0,0,1,1,1,2,0,2,0,,,,,,,,,,,,,,,,,,,,,,,,,,,,,,,,,,,,,,,,,,,,,,,,,,,,,,,,,,,,,,,,30,,,,,,,,1340.0769186997786,1340.0769186997786,1340.0769186997786,1340.0769186997786,1340.0769186997786,down,0.44344200007617474,0,1,0,99,0.08,-0.08,down,0.36310459999367595,,,,,,,,,,,,,,,,,,,,,,,,,,,,,,,,,,,,,,,,,,,,,,,,,,,,,,,,,,,,PAVC6T,train_x,blue_star,top_left,2025-04-16_17h25.43.877,HideSeek_v1,2022.2.5,59.91956397868432,
,3,7,3,2,0,-5,66,,train_dim1_2,2,30,,,,5,0,5,0,,,,,,,,,0,0,0,0,0,1,1,1,3,0,3,0,,,,,,,,,,,,,,,,,,,,,,,,,,,,,,,,,,,,,,,,,,,,,,,,,,,,,,,,,,,,,,,,30,,,,,,,,1340.527249299921,1340.527249299921,1340.527249299921,1340.527249299921,1340.527249299921,down,0.4267373001202941,0,1,0,99,0.08,-0.16,down,0.34983119973912835,,,,,,,,,,,,,,,,,,,,,,,,,,,,,,,,,,,,,,,,,,,,,,,,,,,,,,,,,,,,PAVC6T,train_x,blue_star,top_left,2025-04-16_17h25.43.877,HideSeek_v1,2022.2.5,59.91956397868432,
,3,7,3,2,0,-5,66,,train_dim1_2,2,30,,,,5,0,5,0,,,,,,,,,0,0,0,0,0,1,1,1,4,0,4,0,,,,,,,,,,,,,,,,,,,,,,,,,,,,,,,,,,,,,,,,,,,,,,,,,,,,,,,,,,,,,,,,30,,,,,,,,1340.9617345998995,1340.9617345998995,1340.9617345998995,1340.9617345998995,1340.9617345998995,down,0.6266391999088228,0,1,0,99,0.08,-0.24,down,0.5380960004404187,,,,,,,,,,,,,,,,,,,,,,,,,,,,,,,,,,,,,,,,,,,,,,,,,,,,,,,,,,,,PAVC6T,train_x,blue_star,top_left,2025-04-16_17h25.43.877,HideSeek_v1,2022.2.5,59.91956397868432,
,3,7,3,2,0,-5,66,,train_dim1_2,2,30,,,,5,0,5,0,,,,,,,,,0,0,0,0,0,1,1,1,5,0,5,0,,,,,,,,,,,,,,,,,,,,,,,,,,,,,,,,,,,,,,,,,,,,,,,,,,,,,,,,,,,,,,,,30,,,,,,,,1341.5945947999135,1341.5945947999135,1341.5945947999135,1341.5945947999135,1341.5945947999135,return,0.5935865002684295,1,0,0,1,0.08,-0.24,return,0.5139664998278022,-10,77,0.08,-0.24,,,,,,,,,,,,,,,,,,,,,,,,,,,,,,,,,,,,,,,,,,,,,,,,,,,,,,,,PAVC6T,train_x,blue_star,top_left,2025-04-16_17h25.43.877,HideSeek_v1,2022.2.5,59.91956397868432,
,2,8,2,5,0,-3,64,,train_dim1_2,3,30,,,,5,0,5,0,,,,,,,,,0,0,0,0,0,2,2,2,0,0,0,0,,,,,,,,,,,,,,,,,,,,,,,,,stimuli/alien_stimuli/64.png,,,,,,,,,,,,,,,,,,,,,,,,,,,,,stimuli/alien_stimuli/66.png,66,3,4,,,,,,,30,,,,,,,,1347.0226433998905,1347.0226433998905,1347.0226433998905,1347.0226433998905,1347.0226433998905,down,2.2208058000542223,1,0,0,99,0,0.15999999999999998,down,2.1429237998090684,,,,,1345.4684795998037,1347.0226433998905,0.08,-0.24,0.4,0.0,-0.039999999999999994,0.08,0.08,0.08,-0.24,1343.7410230999812,1343.7410230999812,1343.7410230999812,1343.7410230999812,1343.7410230999812,1343.7410230999812,1343.7410230999812,1343.7410230999812,1343.7337482796052,1.820217799860984,return,1.6991528999060392,,,,,,,,,,,,,,,,,,,,,,,,,,,,,,,,,PAVC6T,train_x,blue_star,top_left,2025-04-16_17h25.43.877,HideSeek_v1,2022.2.5,59.91956397868432,
,2,8,2,5,0,-3,64,,train_dim1_2,3,30,,,,5,0,5,0,,,,,,,,,0,0,0,0,0,2,2,2,1,0,1,0,,,,,,,,,,,,,,,,,,,,,,,,,,,,,,,,,,,,,,,,,,,,,,,,,,,,,,,,,,,,,,,,30,,,,,,,,1349.250986999832,1349.250986999832,1349.250986999832,1349.250986999832,1349.250986999832,down,1.2770676002837718,1,0,0,99,0,0.07999999999999997,down,1.2005980000831187,,,,,,,,,,,,,,,,,,,,,,,,,,,,,,,,,,,,,,,,,,,,,,,,,,,,,,,,,,,,PAVC6T,train_x,blue_star,top_left,2025-04-16_17h25.43.877,HideSeek_v1,2022.2.5,59.91956397868432,
