trialInstr,x_fixStart,y_fixStart,x_corrSteps,y_corrSteps,x_nrSteps,y_nrSteps,alienID,trialLength,version,trialTrain,praclen,testlen,trial_label,break_on_off,beforeExpLoop.thisRepN,beforeExpLoop.thisTrialN,beforeExpLoop.thisN,beforeExpLoop.thisIndex,mini_instr_trials.thisRepN,mini_instr_trials.thisTrialN,mini_instr_trials.thisN,mini_instr_trials.thisIndex,instrLoop.thisRepN,instrLoop.thisTrialN,instrLoop.thisN,instrLoop.thisIndex,repeat_prac.thisRepN,repeat_prac.thisTrialN,repeat_prac.thisN,repeat_prac.thisIndex,trainLoop.thisRepN,trainLoop.thisTrialN,trainLoop.thisN,trainLoop.thisIndex,moveLoop_train.thisRepN,moveLoop_train.thisTrialN,moveLoop_train.thisN,moveLoop_train.thisIndex,experiment.thisRepN,experiment.thisTrialN,experiment.thisN,experiment.thisIndex,moveLoop_test.thisRepN,moveLoop_test.thisTrialN,moveLoop_test.thisN,moveLoop_test.thisIndex,mini_instr2_trials.thisRepN,mini_instr2_trials.thisTrialN,mini_instr2_trials.thisN,mini_instr2_trials.thisIndex,start_all_time,url,slideStim,audioStim,slides.started,sounds.started,nextButton.numClicks,nextButton.timesOn,nextButton.timesOff,prev_but.numClicks,prev_but.timesOn,prev_but.timesOff,alienStim,instrFile,alienStim_instr,gridImage_instr.started,startPos_3.started,key_instr.started,alienImage_3.started,sounds_1.started,key_instr.keys,key_instr.rt,all_x,all_y,FBy_corrSteps,FBy_fixStart,FBx_corrSteps,FBx_fixStart,FBy_pathSize_check,FBx_pathSize_check,gridImage_9.started,alienImageFB_3.started,startPosFB_3.started,keyFB_3.started,pathLine_ydir_2.started,pathLine_xdir_2.started,alienFace_3.started,sounds_2.started,RTFB_instr,keyFB_3.keys,keyFB_3.rt,draw_alienStim,draw_alienID,test_x,nrepcount,perfthres,percthres,earlierperf,earlystop,nextPrac,fileidx,praclen,saveACC_train,pracFile,nextPrac_train,addNrep,fileidx_endr,repExp,showearly,gridImage_4.started,startPos.started,movePos.started,key_resp.started,alienImage.started,buttonPress_train,RTchoice_train,cumAcctrain,aCorr,saveACC_choice,corrAns,x_movePos_end,y_movePos_end,key_resp.keys,key_resp.rt,wLy_dir,wLx_dir,x_movePos,y_movePos,text_2.started,text_2.stopped,aft_x_corrPos,aft_y_corrPos,y_pathSize_check,x_pathSize_check,y_pathdirY,x_pathdirY,x_pathdirX,x_corrPos,y_corrPos,gridImage_6.started,alienImageFB_2.started,startPosFB_2.started,movePosFB_2.started,keyFB_2.started,pathLine_xdir.started,pathLine_ydir.started,alienFace.started,sounds_4.started,RT_FBtrain,keyFB_2.keys,keyFB_2.rt,saveACC_pre,ACC,within_saveACC_train,earlystop_wloop,cumAcctrain_check,gridImage_3.started,alienImage_test.started,startPos_test.started,movePos_test.started,key_resp_test.started,wLy_dir_test,wLx_dir_test,buttonPress_test,RTchoice_test,cumAcctest,corrAns_test,key_resp_test.keys,key_resp_test.rt,text_3.started,text_3.stopped,total_time,end_all_time,key_resp_3.keys,slides_2.started,sounds_3.started,nextButton_2.numClicks,nextButton_2.timesOn,nextButton_2.timesOff,prev_but_2.numClicks,prev_but_2.timesOn,prev_but_2.timesOff,bye.started,participant,train_first,00_coordinate,starting corner,date,expName,psychopyVersion,frameRate,
,,,,,,,,,,,,,,,0,0,0,0,0,0,0,0,,,,,,,,,,,,,,,,,,,,,,,,,,,,,start_all_time,testround,conditions/schedules/train_y_first/red_square_00/top_left/instructions/Slide1.png,conditions/schedules/train_y_first/red_square_00/top_left/instructions/Audio1.wav,688.8500135000795,688.7890499441419,1,[7.997346399817616],[7.997354200109839],0,,,,,,,,,,,,,,,,,,,,,,,,,,,,,,,,,,,,,,,,,,,,,,,,,,,,,,,,,,,,,,,,,,,,,,,,,,,,,,,,,,,,,,,,,,,,,,,,,,,,,,,,,,,,,,,,,,,,,,,,,,,,PCKZKF,train_y,red_square,top_left,2025-03-06_15h42.09.645,HideSeek_v1,2022.2.5,60.32232631492774,
,,,,,,,,,,,,,,,0,0,0,0,1,0,1,0,,,,,,,,,,,,,,,,,,,,,,,,,,,,,,,conditions/schedules/train_y_first/red_square_00/top_left/instructions/Slide2.png,conditions/schedules/train_y_first/red_square_00/top_left/instructions/Audio2.wav,696.8679023999721,696.8629763496574,2,"[7.997346399817616, 18.558920199982822]","[0.00020370027050375938, 18.558926600031555]",0,,,,,,,,,,,,,,,,,,,,,,,,,,,,,,,,,,,,,,,,,,,,,,,,,,,,,,,,,,,,,,,,,,,,,,,,,,,,,,,,,,,,,,,,,,,,,,,,,,,,,,,,,,,,,,,,,,,,,,,,,,,,PCKZKF,train_y,red_square,top_left,2025-03-06_15h42.09.645,HideSeek_v1,2022.2.5,60.32232631492774,
,,,,,,,,,,,,,,,0,0,0,0,2,0,2,0,,,,,,,,,,,,,,,,,,,,,,,,,,,,,,,conditions/schedules/train_y_first/red_square_00/top_left/instructions/Slide3.png,conditions/schedules/train_y_first/red_square_00/top_left/instructions/Audio3.wav,715.5014284998178,715.4953008496668,3,"[7.997346399817616, 18.558920199982822, 16.87205749982968]","[0.00020370027050375938, 0.030092400033026934, 16.87206419976428]",0,,,,,,,,,,,,,,,,,,,,,,,,,,,,,,,,,,,,,,,,,,,,,,,,,,,,,,,,,,,,,,,,,,,,,,,,,,,,,,,,,,,,,,,,,,,,,,,,,,,,,,,,,,,,,,,,,,,,,,,,,,,,PCKZKF,train_y,red_square,top_left,2025-03-06_15h42.09.645,HideSeek_v1,2022.2.5,60.32232631492774,
,,,,,,,,,,,,,,,0,0,0,0,3,0,3,0,,,,,,,,,,,,,,,,,,,,,,,,,,,,,,,conditions/schedules/train_y_first/red_square_00/top_left/instructions/Slide4.png,conditions/schedules/train_y_first/red_square_00/top_left/instructions/Audio4.wav,732.4597837999463,732.4592515397817,4,"[7.997346399817616, 18.558920199982822, 16.87205749982968, 19.56313889985904]","[0.00020370027050375938, 0.030092400033026934, 0.014325299765914679, 19.563145799562335]",0,,,,,,,,,,,,,,,,,,,,,,,,,,,,,,,,,,,,,,,,,,,,,,,,,,,,,,,,,,,,,,,,,,,,,,,,,,,,,,,,,,,,,,,,,,,,,,,,,,,,,,,,,,,,,,,,,,,,,,,,,,,,PCKZKF,train_y,red_square,top_left,2025-03-06_15h42.09.645,HideSeek_v1,2022.2.5,60.32232631492774,
,,,,,,,,,,,,,,,0,0,0,0,4,0,4,0,,,,,,,,,,,,,,,,,,,,,,,,,,,,,,,conditions/schedules/train_y_first/red_square_00/top_left/instructions/Slide5.png,conditions/schedules/train_y_first/red_square_00/top_left/instructions/Audio5.wav,752.0914276000112,752.0918621497694,5,"[7.997346399817616, 18.558920199982822, 16.87205749982968, 19.56313889985904, 5.103093300014734]","[0.00020370027050375938, 0.030092400033026934, 0.014325299765914679, 0.031943699810653925, 5.103101400192827]",0,,,,,,,,,,,,,,,,,,,,,,,,,,,,,,,,,,,,,,,,,,,,,,,,,,,,,,,,,,,,,,,,,,,,,,,,,,,,,,,,,,,,,,,,,,,,,,,,,,,,,,,,,,,,,,,,,,,,,,,,,,,,PCKZKF,train_y,red_square,top_left,2025-03-06_15h42.09.645,HideSeek_v1,2022.2.5,60.32232631492774,
,,,,,,,,,,,,,,,0,0,0,0,5,0,5,0,,,,,,,,,,,,,,,,,,,,,,,,,,,,,,,conditions/schedules/train_y_first/red_square_00/top_left/instructions/Slide6.png,conditions/schedules/train_y_first/red_square_00/top_left/instructions/Audio6.wav,757.245119899977,757.2461776598357,6,"[7.997346399817616, 18.558920199982822, 16.87205749982968, 19.56313889985904, 5.103093300014734, 5.20307009993121]","[0.00020370027050375938, 0.030092400033026934, 0.014325299765914679, 0.031943699810653925, 0.048523399978876114, 5.203081499785185]",0,,,,,,,,,,,,,,,,,,,,,,,,,,,,,,,,,,,,,,,,,,,,,,,,,,,,,,,,,,,,,,,,,,,,,,,,,,,,,,,,,,,,,,,,,,,,,,,,,,,,,,,,,,,,,,,,,,,,,,,,,,,,PCKZKF,train_y,red_square,top_left,2025-03-06_15h42.09.645,HideSeek_v1,2022.2.5,60.32232631492774,
,,,,,,,,,,,,,,,0,0,0,0,6,0,6,0,,,,,,,,,,,,,,,,,,,,,,,,,,,,,,,conditions/schedules/train_y_first/red_square_00/top_left/instructions/Slide7.png,conditions/schedules/train_y_first/red_square_00/top_left/instructions/Audio7.wav,762.5160925001837,762.5172487499658,7,"[7.997346399817616, 18.558920199982822, 16.87205749982968, 19.56313889985904, 5.103093300014734, 5.20307009993121, 6.070843600202352]","[0.00020370027050375938, 0.030092400033026934, 0.014325299765914679, 0.031943699810653925, 0.048523399978876114, 0.03253190033137798, 6.070850200019777]",0,,,,,,,,,,,,,,,,,,,,,,,,,,,,,,,,,,,,,,,,,,,,,,,,,,,,,,,,,,,,,,,,,,,,,,,,,,,,,,,,,,,,,,,,,,,,,,,,,,,,,,,,,,,,,,,,,,,,,,,,,,,,PCKZKF,train_y,red_square,top_left,2025-03-06_15h42.09.645,HideSeek_v1,2022.2.5,60.32232631492774,
,,,,,,,,,,,,,,,0,0,0,0,7,0,7,0,,,,,,,,,,,,,,,,,,,,,,,,,,,,,,,conditions/schedules/train_y_first/red_square_00/top_left/instructions/Slide8.png,conditions/schedules/train_y_first/red_square_00/top_left/instructions/Audio8.wav,768.6408230001107,768.6390620600432,8,"[7.997346399817616, 18.558920199982822, 16.87205749982968, 19.56313889985904, 5.103093300014734, 5.20307009993121, 6.070843600202352, 11.822277800180018]","[0.00020370027050375938, 0.030092400033026934, 0.014325299765914679, 0.031943699810653925, 0.048523399978876114, 0.03253190033137798, 0.047868600115180016, 11.822284800000489]",0,,,,,,,,,,,,,,,,,,,,,,,,,,,,,,,,,,,,,,,,,,,,,,,,,,,,,,,,,,,,,,,,,,,,,,,,,,,,,,,,,,,,,,,,,,,,,,,,,,,,,,,,,,,,,,,,,,,,,,,,,,,,PCKZKF,train_y,red_square,top_left,2025-03-06_15h42.09.645,HideSeek_v1,2022.2.5,60.32232631492774,
,,,,,,,,,,,,,,,0,0,0,0,8,0,8,0,,,,,,,,,,,,,,,,,,,,,,,,,,,,,,,conditions/schedules/train_y_first/red_square_00/top_left/instructions/Slide9.png,conditions/schedules/train_y_first/red_square_00/top_left/instructions/Audio9.wav,780.5314468997531,780.5321110498626,9,"[7.997346399817616, 18.558920199982822, 16.87205749982968, 19.56313889985904, 5.103093300014734, 5.20307009993121, 6.070843600202352, 11.822277800180018, 6.03693119995296]","[0.00020370027050375938, 0.030092400033026934, 0.014325299765914679, 0.031943699810653925, 0.048523399978876114, 0.03253190033137798, 0.047868600115180016, 0.049081800039857626, 6.036940999794751]",0,,,,,,,,,,,,,,,,,,,,,,,,,,,,,,,,,,,,,,,,,,,,,,,,,,,,,,,,,,,,,,,,,,,,,,,,,,,,,,,,,,,,,,,,,,,,,,,,,,,,,,,,,,,,,,,,,,,,,,,,,,,,PCKZKF,train_y,red_square,top_left,2025-03-06_15h42.09.645,HideSeek_v1,2022.2.5,60.32232631492774,
,,,,,,,,,,,,,,,0,0,0,0,9,0,9,0,,,,,,,,,,,,,,,,,,,,,,,,,,,,,,,conditions/schedules/train_y_first/red_square_00/top_left/instructions/Slide10.png,conditions/schedules/train_y_first/red_square_00/top_left/instructions/Audio10.wav,786.6132441000082,786.603900969727,10,"[7.997346399817616, 18.558920199982822, 16.87205749982968, 19.56313889985904, 5.103093300014734, 5.20307009993121, 6.070843600202352, 11.822277800180018, 6.03693119995296, 6.860086600296199]","[0.00020370027050375938, 0.030092400033026934, 0.014325299765914679, 0.031943699810653925, 0.048523399978876114, 0.03253190033137798, 0.047868600115180016, 0.049081800039857626, 0.08805650006979704, 6.860093300230801]",0,,,,,,,,,,,,,,,,,,,,,,,,,,,,,,,,,,,,,,,,,,,,,,,,,,,,,,,,,,,,,,,,,,,,,,,,,,,,,,,,,,,,,,,,,,,,,,,,,,,,,,,,,,,,,,,,,,,,,,,,,,,,PCKZKF,train_y,red_square,top_left,2025-03-06_15h42.09.645,HideSeek_v1,2022.2.5,60.32232631492774,
,,,,,,,,,,,,,,,0,0,0,0,10,0,10,0,,,,,,,,,,,,,,,,,,,,,,,,,,,,,,,conditions/schedules/train_y_first/red_square_00/top_left/instructions/Slide11.png,conditions/schedules/train_y_first/red_square_00/top_left/instructions/Audio11.wav,793.5132488999516,793.5095835698303,11,"[7.997346399817616, 18.558920199982822, 16.87205749982968, 19.56313889985904, 5.103093300014734, 5.20307009993121, 6.070843600202352, 11.822277800180018, 6.03693119995296, 6.860086600296199, 10.552888100035489]","[0.00020370027050375938, 0.030092400033026934, 0.014325299765914679, 0.031943699810653925, 0.048523399978876114, 0.03253190033137798, 0.047868600115180016, 0.049081800039857626, 0.08805650006979704, 0.0823598001152277, 10.552895599976182]",0,,,,,,,,,,,,,,,,,,,,,,,,,,,,,,,,,,,,,,,,,,,,,,,,,,,,,,,,,,,,,,,,,,,,,,,,,,,,,,,,,,,,,,,,,,,,,,,,,,,,,,,,,,,,,,,,,,,,,,,,,,,,PCKZKF,train_y,red_square,top_left,2025-03-06_15h42.09.645,HideSeek_v1,2022.2.5,60.32232631492774,
,,,,,,,,,,,,,,,0,0,0,0,11,0,11,0,,,,,,,,,,,,,,,,,,,,,,,,,,,,,,,conditions/schedules/train_y_first/red_square_00/top_left/instructions/Slide12.png,conditions/schedules/train_y_first/red_square_00/top_left/instructions/Audio12.wav,804.1407102001831,804.1351587499958,12,"[7.997346399817616, 18.558920199982822, 16.87205749982968, 19.56313889985904, 5.103093300014734, 5.20307009993121, 6.070843600202352, 11.822277800180018, 6.03693119995296, 6.860086600296199, 10.552888100035489, 13.903370200190693]","[0.00020370027050375938, 0.030092400033026934, 0.014325299765914679, 0.031943699810653925, 0.048523399978876114, 0.03253190033137798, 0.047868600115180016, 0.049081800039857626, 0.08805650006979704, 0.0823598001152277, 0.09709809999912977, 13.903376699890941]",0,,,,,,,,,,,,,,,,,,,,,,,,,,,,,,,,,,,,,,,,,,,,,,,,,,,,,,,,,,,,,,,,,,,,,,,,,,,,,,,,,,,,,,,,,,,,,,,,,,,,,,,,,,,,,,,,,,,,,,,,,,,,PCKZKF,train_y,red_square,top_left,2025-03-06_15h42.09.645,HideSeek_v1,2022.2.5,60.32232631492774,
1,2,8,2,3,0,-5,11,2,instr_dim1_1,,,,,,0,0,0,0,,,,,0,0,0,0,,,,,,,,,,,,,,,,,,,,,,,,,,,,,,,,,,,,,stimuli/alien_stimuli/11.png,conditions/schedules/train_y_first/red_square_00/top_left/inputInstr_1.xlsx,stimuli/alien_stimuli/11.png,818.1490091001615,818.1490091001615,818.1490091001615,818.1490091001615,818.1465963299852,return,17.3909549000673,"[-0.16, -0.08, 0, 0.08, 0.16, 0.24, 0.32, 0.4, 0.48, 0.56]","[-0.4, -0.32, -0.24, -0.16, -0.08, 0, 0.08, 0.16, 0.24, 0.32]",3,8,2,2,0.4,0.0,835.7080004001036,835.7080004001036,835.7080004001036,835.7080004001036,835.7080004001036,835.7080004001036,835.7080004001036,835.6943838095758,10.226267500314862,return,10.052550200372934,stimuli/alien_stimuli/11.png,11,2,1,,,,,,,,,,,,,,,,,,,,,,,,,,,,,,,,,,,,,,,,,,,,,,,,,,,,,,,,,,,,,,,,,,,,,,,,,,,,,,,,,,,,,,,,,PCKZKF,train_y,red_square,top_left,2025-03-06_15h42.09.645,HideSeek_v1,2022.2.5,60.32232631492774,
,,,,,,,,,,,30,,,,0,0,0,0,,,,,,,,,,,,,,,,,,,,,,,,,,,,,,,,,,,,,,,,,,,,,,,,,,,,,,,,,,,,,,,,,,,,,,,,,,,,,,21,0.7,0,0,99,1,30,0,conditions/schedules/train_y_first/red_square_00/top_left/inputTrain_1.1.xlsx,99,1,1,1,0,,,,,,,,,,,,,,,,,,,,,,,,,,,,,,,,,,,,,,,,,,,,,,,,,,,,,,,,,,,,,,,,,,,,,,,,,,,PCKZKF,train_y,red_square,top_left,2025-03-06_15h42.09.645,HideSeek_v1,2022.2.5,60.32232631492774,
,,,,,,,,,,,,,,,1,0,1,0,0,0,0,0,,,,,,,,,,,,,,,,,,,,,,,,,,,,,,,conditions/schedules/train_y_first/red_square_00/top_left/instructions/Slide13.png,conditions/schedules/train_y_first/red_square_00/top_left/instructions/Audio13.wav,845.9322629999369,845.9199965095613,13,"[7.997346399817616, 18.558920199982822, 16.87205749982968, 19.56313889985904, 5.103093300014734, 5.20307009993121, 6.070843600202352, 11.822277800180018, 6.03693119995296, 6.860086600296199, 10.552888100035489, 13.903370200190693, 19.600782900117338]","[0.00020370027050375938, 0.030092400033026934, 0.014325299765914679, 0.031943699810653925, 0.048523399978876114, 0.03253190033137798, 0.047868600115180016, 0.049081800039857626, 0.08805650006979704, 0.0823598001152277, 0.09709809999912977, 13.903376699890941, 19.600793899968266]",0,,,,,,,,,,,,,,,,,,,,,,,,,,,,,,,,,,,,,,,,,,,,,,,,,,,,,,,,,,,,,,,,,,,,,,,,,,,,,,,,,,,,,,,,,,,,,,,,,,,,,,,,,,,,,,,,,,,,,,,,,,,,PCKZKF,train_y,red_square,top_left,2025-03-06_15h42.09.645,HideSeek_v1,2022.2.5,60.32232631492774,
,,,,,,,,,,,,,,,1,0,1,0,1,0,1,0,,,,,,,,,,,,,,,,,,,,,,,,,,,,,,,conditions/schedules/train_y_first/red_square_00/top_left/instructions/Slide14.png,conditions/schedules/train_y_first/red_square_00/top_left/instructions/Audio14.wav,865.6111852000467,865.6026469499338,14,"[7.997346399817616, 18.558920199982822, 16.87205749982968, 19.56313889985904, 5.103093300014734, 5.20307009993121, 6.070843600202352, 11.822277800180018, 6.03693119995296, 6.860086600296199, 10.552888100035489, 13.903370200190693, 19.600782900117338, 16.569384700153023]","[0.00020370027050375938, 0.030092400033026934, 0.014325299765914679, 0.031943699810653925, 0.048523399978876114, 0.03253190033137798, 0.047868600115180016, 0.049081800039857626, 0.08805650006979704, 0.0823598001152277, 0.09709809999912977, 13.903376699890941, 0.0002189003862440586, 16.56939100008458]",0,,,,,,,,,,,,,,,,,,,,,,,,,,,,,,,,,,,,,,,,,,,,,,,,,,,,,,,,,,,,,,,,,,,,,,,,,,,,,,,,,,,,,,,,,,,,,,,,,,,,,,,,,,,,,,,,,,,,,,,,,,,,PCKZKF,train_y,red_square,top_left,2025-03-06_15h42.09.645,HideSeek_v1,2022.2.5,60.32232631492774,
2,0,8,0,8,0,0,16,2,instr_dim1_1,,,,,,1,0,1,0,,,,,0,0,0,0,,,,,,,,,,,,,,,,,,,,,,,,,,,,,,,,,,,,,stimuli/alien_stimuli/16.png,conditions/schedules/train_y_first/red_square_00/top_left/inputInstr_1.xlsx,stimuli/alien_stimuli/16.png,882.27744970005,882.27744970005,882.27744970005,882.27744970005,882.2832216296811,return,15.14339410001412,"[-0.16, -0.08, 0, 0.08, 0.16, 0.24, 0.32, 0.4, 0.48, 0.56]","[-0.4, -0.32, -0.24, -0.16, -0.08, 0, 0.08, 0.16, 0.24, 0.32]",8,8,0,0,0.0,0.0,897.5876464997418,897.5876464997418,897.5876464997418,897.5876464997418,897.5876464997418,897.5876464997418,897.5876464997418,897.5791274097282,8.391204500105232,return,8.216288900002837,stimuli/alien_stimuli/16.png,16,0,2,,,,,,,,,,,,,,,,,,,,,,,,,,,,,,,,,,,,,,,,,,,,,,,,,,,,,,,,,,,,,,,,,,,,,,,,,,,,,,,,,,,,,,,,,PCKZKF,train_y,red_square,top_left,2025-03-06_15h42.09.645,HideSeek_v1,2022.2.5,60.32232631492774,
,,,,,,,,,,,30,,,,1,0,1,0,,,,,,,,,,,,,,,,,,,,,,,,,,,,,,,,,,,,,,,,,,,,,,,,,,,,,,,,,,,,,,,,,,,,,,,,,,,,,,21,0.7,0,0,99,1,30,0,conditions/schedules/train_y_first/red_square_00/top_left/inputTrain_1.1.xlsx,99,1,1,1,0,,,,,,,,,,,,,,,,,,,,,,,,,,,,,,,,,,,,,,,,,,,,,,,,,,,,,,,,,,,,,,,,,,,,,,,,,,,PCKZKF,train_y,red_square,top_left,2025-03-06_15h42.09.645,HideSeek_v1,2022.2.5,60.32232631492774,
,,,,,,,,,,,,,,,2,0,2,0,0,0,0,0,,,,,,,,,,,,,,,,,,,,,,,,,,,,,,,conditions/schedules/train_y_first/red_square_00/top_left/instructions/Slide15.png,conditions/schedules/train_y_first/red_square_00/top_left/instructions/Audio15.wav,905.9904649998061,905.9860428995453,15,"[7.997346399817616, 18.558920199982822, 16.87205749982968, 19.56313889985904, 5.103093300014734, 5.20307009993121, 6.070843600202352, 11.822277800180018, 6.03693119995296, 6.860086600296199, 10.552888100035489, 13.903370200190693, 19.600782900117338, 16.569384700153023, 44.37948999973014]","[0.00020370027050375938, 0.030092400033026934, 0.014325299765914679, 0.031943699810653925, 0.048523399978876114, 0.03253190033137798, 0.047868600115180016, 0.049081800039857626, 0.08805650006979704, 0.0823598001152277, 0.09709809999912977, 13.903376699890941, 0.0002189003862440586, 16.56939100008458, 44.379496899899095]",0,,,,,,,,,,,,,,,,,,,,,,,,,,,,,,,,,,,,,,,,,,,,,,,,,,,,,,,,,,,,,,,,,,,,,,,,,,,,,,,,,,,,,,,,,,,,,,,,,,,,,,,,,,,,,,,,,,,,,,,,,,,,PCKZKF,train_y,red_square,top_left,2025-03-06_15h42.09.645,HideSeek_v1,2022.2.5,60.32232631492774,
,,,,,,,,,,,,,,,2,0,2,0,1,0,1,0,,,,,,,,,,,,,,,,,,,,,,,,,,,,,,,conditions/schedules/train_y_first/red_square_00/top_left/instructions/Slide16.png,conditions/schedules/train_y_first/red_square_00/top_left/instructions/Audio16.wav,950.4378991997801,950.4397607499268,16,"[7.997346399817616, 18.558920199982822, 16.87205749982968, 19.56313889985904, 5.103093300014734, 5.20307009993121, 6.070843600202352, 11.822277800180018, 6.03693119995296, 6.860086600296199, 10.552888100035489, 13.903370200190693, 19.600782900117338, 16.569384700153023, 44.37948999973014, 21.65123840002343]","[0.00020370027050375938, 0.030092400033026934, 0.014325299765914679, 0.031943699810653925, 0.048523399978876114, 0.03253190033137798, 0.047868600115180016, 0.049081800039857626, 0.08805650006979704, 0.0823598001152277, 0.09709809999912977, 13.903376699890941, 0.0002189003862440586, 16.56939100008458, 44.379496899899095, 21.65124520007521]",0,,,,,,,,,,,,,,,,,,,,,,,,,,,,,,,,,,,,,,,,,,,,,,,,,,,,,,,,,,,,,,,,,,,,,,,,,,,,,,,,,,,,,,,,,,,,,,,,,,,,,,,,,,,,,,,,,,,,,,,,,,,,PCKZKF,train_y,red_square,top_left,2025-03-06_15h42.09.645,HideSeek_v1,2022.2.5,60.32232631492774,
,0,5,0,4,0,-1,15,,train_dim1_1,1,30,,,,2,0,2,0,,,,,,,,,0,0,0,0,0,0,0,0,0,0,0,0,,,,,,,,,,,,,,,,,,,,,,,,,stimuli/alien_stimuli/15.png,,,,,,,,,,,,,,,,,,,,,,,,,,,,,,,,,,,,,,,30,,,,,,,,972.197312399745,972.197312399745,972.197312399745,972.197312399745,972.197312399745,down,4.146037900354713,0,0,0,99,-0.16,-0.08,down,4.047677599824965,,,,,,,,,,,,,,,,,,,,,,,,,,,,,,,,,,,,,,,,,,,,,,,,,,,,,,,,,,,,PCKZKF,train_y,red_square,top_left,2025-03-06_15h42.09.645,HideSeek_v1,2022.2.5,60.32232631492774,
,0,5,0,4,0,-1,15,,train_dim1_1,1,30,,,,2,0,2,0,,,,,,,,,0,0,0,0,0,0,0,0,1,0,1,0,,,,,,,,,,,,,,,,,,,,,,,,,,,,,,,,,,,,,,,,,,,,,,,,,,,,,,,,,,,,,,,,30,,,,,,,,976.3304579001851,976.3304579001851,976.3304579001851,976.3304579001851,976.3304579001851,down,0.6931908000260592,0,0,0,99,-0.16,-0.16,down,0.610678500495851,,,,,,,,,,,,,,,,,,,,,,,,,,,,,,,,,,,,,,,,,,,,,,,,,,,,,,,,,,,,PCKZKF,train_y,red_square,top_left,2025-03-06_15h42.09.645,HideSeek_v1,2022.2.5,60.32232631492774,
,0,5,0,4,0,-1,15,,train_dim1_1,1,30,,,,2,0,2,0,,,,,,,,,0,0,0,0,0,0,0,0,2,0,2,0,,,,,,,,,,,,,,,,,,,,,,,,,,,,,,,,,,,,,,,,,,,,,,,,,,,,,,,,,,,,,,,,30,,,,,,,,977.0305248000659,977.0305248000659,977.0305248000659,977.0305248000659,977.0305248000659,down,2.577946700155735,0,0,0,99,-0.16,-0.24,down,2.48628109972924,,,,,,,,,,,,,,,,,,,,,,,,,,,,,,,,,,,,,,,,,,,,,,,,,,,,,,,,,,,,PCKZKF,train_y,red_square,top_left,2025-03-06_15h42.09.645,HideSeek_v1,2022.2.5,60.32232631492774,
,0,5,0,4,0,-1,15,,train_dim1_1,1,30,,,,2,0,2,0,,,,,,,,,0,0,0,0,0,0,0,0,3,0,3,0,,,,,,,,,,,,,,,,,,,,,,,,,,,,,,,,,,,,,,,,,,,,,,,,,,,,,,,,,,,,,,,,30,,,,,,,,979.6159207001328,979.6159207001328,979.6159207001328,979.6159207001328,979.6159207001328,down,0.3263341002166271,0,0,0,99,-0.16,-0.32,down,0.24422689992934465,,,,,,,,,,,,,,,,,,,,,,,,,,,,,,,,,,,,,,,,,,,,,,,,,,,,,,,,,,,,PCKZKF,train_y,red_square,top_left,2025-03-06_15h42.09.645,HideSeek_v1,2022.2.5,60.32232631492774,
,0,5,0,4,0,-1,15,,train_dim1_1,1,30,,,,2,0,2,0,,,,,,,,,0,0,0,0,0,0,0,0,4,0,4,0,,,,,,,,,,,,,,,,,,,,,,,,,,,,,,,,,,,,,,,,,,,,,,,,,,,,,,,,,,,,,,,,30,,,,,,,,979.9493769998662,979.9493769998662,979.9493769998662,979.9493769998662,979.9493769998662,down,0.4267939003184438,0,0,0,99,-0.16,-0.4,down,0.3333990001119673,,,,,,,,,,,,,,,,,,,,,,,,,,,,,,,,,,,,,,,,,,,,,,,,,,,,,,,,,,,,PCKZKF,train_y,red_square,top_left,2025-03-06_15h42.09.645,HideSeek_v1,2022.2.5,60.32232631492774,
,0,5,0,4,0,-1,15,,train_dim1_1,1,30,,,,2,0,2,0,,,,,,,,,0,0,0,0,0,0,0,0,5,0,5,0,,,,,,,,,,,,,,,,,,,,,,,,,,,,,,,,,,,,,,,,,,,,,,,,,,,,,,,,,,,,,,,,30,,,,,,,,980.3829622999765,980.3829622999765,980.3829622999765,980.3829622999765,980.3829622999765,return,0.4596587000414729,0,0,0,0,-0.16,-0.4,return,0.3663325998932123,-5,0,-0.16,-0.4,,,,,,,,,,,,,,,,,,,,,,,,,,,,,,,,,,,,,,,,,,,,,,,,,,,,,,,,PCKZKF,train_y,red_square,top_left,2025-03-06_15h42.09.645,HideSeek_v1,2022.2.5,60.32232631492774,
,3,7,3,7,0,0,16,,train_dim1_1,2,30,,,,2,0,2,0,,,,,,,,,0,0,0,0,0,1,1,1,0,0,0,0,,,,,,,,,,,,,,,,,,,,,,,,,stimuli/alien_stimuli/16.png,,,,,,,,,,,,,,,,,,,,,,,,,,,,,stimuli/alien_stimuli/15.png,15,0,3,,,,,,,30,,,,,,,,1002.9989482997917,1002.9989482997917,1002.9989482997917,1002.9989482997917,1002.9989482997917,down,5.792198800016195,0,0,0,99,0.08,0.08,down,5.690460999961942,,,,,1001.4318635999225,1002.9989482997917,-0.16,-0.08,0.08,0.0,-0.04,-0.16,-0.16,-0.16,-0.08,982.4196933000349,982.4196933000349,982.4196933000349,982.4196933000349,982.4196933000349,982.4196933000349,982.4196933000349,982.4196933000349,982.3995812300127,19.134895999915898,return,18.982693300116807,,,,,,,,,,,,,,,,,,,,,,,,,,,,,,,,,PCKZKF,train_y,red_square,top_left,2025-03-06_15h42.09.645,HideSeek_v1,2022.2.5,60.32232631492774,
,3,7,3,7,0,0,16,,train_dim1_1,2,30,,,,2,0,2,0,,,,,,,,,0,0,0,0,0,1,1,1,1,0,1,0,,,,,,,,,,,,,,,,,,,,,,,,,,,,,,,,,,,,,,,,,,,,,,,,,,,,,,,,,,,,,,,,30,,,,,,,,1008.7906057997607,1008.7906057997607,1008.7906057997607,1008.7906057997607,1008.7906057997607,down,0.5931295999325812,0,0,0,99,0.08,0.0,down,0.49907250003889203,,,,,,,,,,,,,,,,,,,,,,,,,,,,,,,,,,,,,,,,,,,,,,,,,,,,,,,,,,,,PCKZKF,train_y,red_square,top_left,2025-03-06_15h42.09.645,HideSeek_v1,2022.2.5,60.32232631492774,
,3,7,3,7,0,0,16,,train_dim1_1,2,30,,,,2,0,2,0,,,,,,,,,0,0,0,0,0,1,1,1,2,0,2,0,,,,,,,,,,,,,,,,,,,,,,,,,,,,,,,,,,,,,,,,,,,,,,,,,,,,,,,,,,,,,,,,30,,,,,,,,1009.4025216000155,1009.4025216000155,1009.4025216000155,1009.4025216000155,1009.4025216000155,return,0.6094879996962845,0,0,0,0,0.08,0.0,return,0.5102734002284706,-7,0,0.08,0.0,,,,,,,,,,,,,,,,,,,,,,,,,,,,,,,,,,,,,,,,,,,,,,,,,,,,,,,,PCKZKF,train_y,red_square,top_left,2025-03-06_15h42.09.645,HideSeek_v1,2022.2.5,60.32232631492774,
,2,8,2,5,0,-3,13,,train_dim1_1,3,30,,,,2,0,2,0,,,,,,,,,0,0,0,0,0,2,2,2,0,0,0,0,,,,,,,,,,,,,,,,,,,,,,,,,stimuli/alien_stimuli/13.png,,,,,,,,,,,,,,,,,,,,,,,,,,,,,stimuli/alien_stimuli/16.png,16,3,4,,,,,,,30,,,,,,,,1018.7697561001405,1018.7697561001405,1018.7697561001405,1018.7697561001405,1018.7697561001405,right,5.909530299715698,0,0,0,99,0.08,0.24,right,5.821289800107479,,,,,1017.2117968997918,1018.7697561001405,0.08,0.16,0.0,0.0,0.16,0.08,0.08,0.08,0.16,1011.5703134001233,1011.5703134001233,1011.5703134001233,1011.5703134001233,1011.5703134001233,1011.5703134001233,1011.5703134001233,1011.5703134001233,1011.5570416299161,5.757906200364232,return,5.6153742000460625,,,,,,,,,,,,,,,,,,,,,,,,,,,,,,,,,PCKZKF,train_y,red_square,top_left,2025-03-06_15h42.09.645,HideSeek_v1,2022.2.5,60.32232631492774,
,2,8,2,5,0,-3,13,,train_dim1_1,3,30,,,,2,0,2,0,,,,,,,,,0,0,0,0,0,2,2,2,1,0,1,0,,,,,,,,,,,,,,,,,,,,,,,,,,,,,,,,,,,,,,,,,,,,,,,,,,,,,,,,,,,,,,,,30,,,,,,,,1024.6858777999878,1024.6858777999878,1024.6858777999878,1024.6858777999878,1024.6858777999878,right,1.2268997002393007,0,0,0,99,0.16,0.24,right,1.1434380002319813,,,,,,,,,,,,,,,,,,,,,,,,,,,,,,,,,,,,,,,,,,,,,,,,,,,,,,,,,,,,PCKZKF,train_y,red_square,top_left,2025-03-06_15h42.09.645,HideSeek_v1,2022.2.5,60.32232631492774,
,2,8,2,5,0,-3,13,,train_dim1_1,3,30,,,,2,0,2,0,,,,,,,,,0,0,0,0,0,2,2,2,2,0,2,0,,,,,,,,,,,,,,,,,,,,,,,,,,,,,,,,,,,,,,,,,,,,,,,,,,,,,,,,,,,,,,,,30,,,,,,,,1025.9201686000451,1025.9201686000451,1025.9201686000451,1025.9201686000451,1025.9201686000451,down,0.42574880039319396,0,0,0,99,0.16,0.15999999999999998,down,0.3371311998926103,,,,,,,,,,,,,,,,,,,,,,,,,,,,,,,,,,,,,,,,,,,,,,,,,,,,,,,,,,,,PCKZKF,train_y,red_square,top_left,2025-03-06_15h42.09.645,HideSeek_v1,2022.2.5,60.32232631492774,
,2,8,2,5,0,-3,13,,train_dim1_1,3,30,,,,2,0,2,0,,,,,,,,,0,0,0,0,0,2,2,2,3,0,3,0,,,,,,,,,,,,,,,,,,,,,,,,,,,,,,,,,,,,,,,,,,,,,,,,,,,,,,,,,,,,,,,,30,,,,,,,,1026.3533585001715,1026.3533585001715,1026.3533585001715,1026.3533585001715,1026.3533585001715,down,0.2763252998702228,0,0,0,99,0.16,0.07999999999999997,down,0.18682390032336116,,,,,,,,,,,,,,,,,,,,,,,,,,,,,,,,,,,,,,,,,,,,,,,,,,,,,,,,,,,,PCKZKF,train_y,red_square,top_left,2025-03-06_15h42.09.645,HideSeek_v1,2022.2.5,60.32232631492774,
,2,8,2,5,0,-3,13,,train_dim1_1,3,30,,,,2,0,2,0,,,,,,,,,0,0,0,0,0,2,2,2,4,0,4,0,,,,,,,,,,,,,,,,,,,,,,,,,,,,,,,,,,,,,,,,,,,,,,,,,,,,,,,,,,,,,,,,30,,,,,,,,1026.642730299849,1026.642730299849,1026.642730299849,1026.642730299849,1026.642730299849,down,0.2765931999310851,0,0,0,99,0.16,-2.7755575615628914e-17,down,0.17947289999574423,,,,,,,,,,,,,,,,,,,,,,,,,,,,,,,,,,,,,,,,,,,,,,,,,,,,,,,,,,,,PCKZKF,train_y,red_square,top_left,2025-03-06_15h42.09.645,HideSeek_v1,2022.2.5,60.32232631492774,
,2,8,2,5,0,-3,13,,train_dim1_1,3,30,,,,2,0,2,0,,,,,,,,,0,0,0,0,0,2,2,2,5,0,5,0,,,,,,,,,,,,,,,,,,,,,,,,,,,,,,,,,,,,,,,,,,,,,,,,,,,,,,,,,,,,,,,,30,,,,,,,,1026.9199843998067,1026.9199843998067,1026.9199843998067,1026.9199843998067,1026.9199843998067,return,1.243805699981749,0,0,0,0,0.16,-2.7755575615628914e-17,return,1.1575437998399138,-10,2,0.16,-2.7755575615628914e-17,,,,,,,,,,,,,,,,,,,,,,,,,,,,,,,,,,,,,,,,,,,,,,,,,,,,,,,,PCKZKF,train_y,red_square,top_left,2025-03-06_15h42.09.645,HideSeek_v1,2022.2.5,60.32232631492774,
,0,6,0,2,0,-4,12,,train_dim1_1,4,30,,,,2,0,2,0,,,,,,,,,0,0,0,0,0,3,3,3,0,0,0,0,,,,,,,,,,,,,,,,,,,,,,,,,stimuli/alien_stimuli/12.png,,,,,,,,,,,,,,,,,,,,,,,,,,,,,stimuli/alien_stimuli/13.png,13,2,5,,,,,,,30,,,,,,,,1039.6381264999509,1039.6381264999509,1039.6381264999509,1039.6381264999509,1039.6381264999509,down,11.346859799697995,0,0,0,99,-0.16,0.0,down,11.254945499822497,,,,,1038.0791021999903,1039.6381264999509,0,0,0.24,0.0,0.12,0,0.0,0,0,1029.7358563998714,1029.7358563998714,1029.7358563998714,1029.7358563998714,1029.7358563998714,1029.7358563998714,1029.7358563998714,1029.7358563998714,1029.721972829895,8.459315499756485,return,8.320834500249475,,,,,,,,,,,,,,,,,,,,,,,,,,,,,,,,,PCKZKF,train_y,red_square,top_left,2025-03-06_15h42.09.645,HideSeek_v1,2022.2.5,60.32232631492774,
,0,6,0,2,0,-4,12,,train_dim1_1,4,30,,,,2,0,2,0,,,,,,,,,0,0,0,0,0,3,3,3,1,0,1,0,,,,,,,,,,,,,,,,,,,,,,,,,,,,,,,,,,,,,,,,,,,,,,,,,,,,,,,,,,,,,,,,30,,,,,,,,1051.0127349998802,1051.0127349998802,1051.0127349998802,1051.0127349998802,1051.0127349998802,down,0.5095922001637518,0,0,0,99,-0.16,-0.08,down,0.4069183003157377,,,,,,,,,,,,,,,,,,,,,,,,,,,,,,,,,,,,,,,,,,,,,,,,,,,,,,,,,,,,PCKZKF,train_y,red_square,top_left,2025-03-06_15h42.09.645,HideSeek_v1,2022.2.5,60.32232631492774,
,0,6,0,2,0,-4,12,,train_dim1_1,4,30,,,,2,0,2,0,,,,,,,,,0,0,0,0,0,3,3,3,2,0,2,0,,,,,,,,,,,,,,,,,,,,,,,,,,,,,,,,,,,,,,,,,,,,,,,,,,,,,,,,,,,,,,,,30,,,,,,,,1051.5078420997597,1051.5078420997597,1051.5078420997597,1051.5078420997597,1051.5078420997597,down,1.2938745999708772,0,0,0,99,-0.16,-0.16,down,1.212510600220412,,,,,,,,,,,,,,,,,,,,,,,,,,,,,,,,,,,,,,,,,,,,,,,,,,,,,,,,,,,,PCKZKF,train_y,red_square,top_left,2025-03-06_15h42.09.645,HideSeek_v1,2022.2.5,60.32232631492774,
,0,6,0,2,0,-4,12,,train_dim1_1,4,30,,,,2,0,2,0,,,,,,,,,0,0,0,0,0,3,3,3,3,0,3,0,,,,,,,,,,,,,,,,,,,,,,,,,,,,,,,,,,,,,,,,,,,,,,,,,,,,,,,,,,,,,,,,30,,,,,,,,1052.8091376000084,1052.8091376000084,1052.8091376000084,1052.8091376000084,1052.8091376000084,return,1.494191899895668,0,1,0,0,-0.16,-0.16,return,1.4165386003442109,-13,2,-0.16,-0.16,,,,,,,,,,,,,,,,,,,,,,,,,,,,,,,,,,,,,,,,,,,,,,,,,,,,,,,,PCKZKF,train_y,red_square,top_left,2025-03-06_15h42.09.645,HideSeek_v1,2022.2.5,60.32232631492774,
,3,8,3,3,0,-5,11,,train_dim1_1,5,30,,,,2,0,2,0,,,,,,,,,0,0,0,0,0,4,4,4,0,0,0,0,,,,,,,,,,,,,,,,,,,,,,,,,stimuli/alien_stimuli/11.png,,,,,,,,,,,,,,,,,,,,,,,,,,,,,stimuli/alien_stimuli/12.png,12,0,6,,,,,,,30,,,,,,,,1068.2110879998654,1068.2110879998654,1068.2110879998654,1068.2110879998654,1068.2110879998654,down,2.291160499677062,0,1,0,99,0.08,0.15999999999999998,down,2.211189200170338,,,,,1066.6526843998581,1068.2110879998654,-0.16,-0.24,0.32,0.0,-0.07999999999999999,-0.16,-0.16,-0.16,-0.24,1055.8756073997356,1055.8756073997356,1055.8756073997356,1055.8756073997356,1055.8756073997356,1055.8756073997356,1055.8756073997356,1055.8756073997356,1055.877188719809,10.894405299797654,return,10.749879300128669,,,,,,,,,,,,,,,,,,,,,,,,,,,,,,,,,PCKZKF,train_y,red_square,top_left,2025-03-06_15h42.09.645,HideSeek_v1,2022.2.5,60.32232631492774,
,3,8,3,3,0,-5,11,,train_dim1_1,5,30,,,,2,0,2,0,,,,,,,,,0,0,0,0,0,4,4,4,1,0,1,0,,,,,,,,,,,,,,,,,,,,,,,,,,,,,,,,,,,,,,,,,,,,,,,,,,,,,,,,,,,,,,,,30,,,,,,,,1070.5077046998776,1070.5077046998776,1070.5077046998776,1070.5077046998776,1070.5077046998776,down,0.34255030006170273,0,1,0,99,0.08,0.07999999999999997,down,0.2601644997484982,,,,,,,,,,,,,,,,,,,,,,,,,,,,,,,,,,,,,,,,,,,,,,,,,,,,,,,,,,,,PCKZKF,train_y,red_square,top_left,2025-03-06_15h42.09.645,HideSeek_v1,2022.2.5,60.32232631492774,
,3,8,3,3,0,-5,11,,train_dim1_1,5,30,,,,2,0,2,0,,,,,,,,,0,0,0,0,0,4,4,4,2,0,2,0,,,,,,,,,,,,,,,,,,,,,,,,,,,,,,,,,,,,,,,,,,,,,,,,,,,,,,,,,,,,,,,,30,,,,,,,,1070.8570826998912,1070.8570826998912,1070.8570826998912,1070.8570826998912,1070.8570826998912,down,0.2597747999243438,0,1,0,99,0.08,-2.7755575615628914e-17,down,0.17246709996834397,,,,,,,,,,,,,,,,,,,,,,,,,,,,,,,,,,,,,,,,,,,,,,,,,,,,,,,,,,,,PCKZKF,train_y,red_square,top_left,2025-03-06_15h42.09.645,HideSeek_v1,2022.2.5,60.32232631492774,
,3,8,3,3,0,-5,11,,train_dim1_1,5,30,,,,2,0,2,0,,,,,,,,,0,0,0,0,0,4,4,4,3,0,3,0,,,,,,,,,,,,,,,,,,,,,,,,,,,,,,,,,,,,,,,,,,,,,,,,,,,,,,,,,,,,,,,,30,,,,,,,,1071.1277601001784,1071.1277601001784,1071.1277601001784,1071.1277601001784,1071.1277601001784,down,1.2937080999836326,0,1,0,99,0.08,-0.08000000000000003,down,1.2004546001553535,,,,,,,,,,,,,,,,,,,,,,,,,,,,,,,,,,,,,,,,,,,,,,,,,,,,,,,,,,,,PCKZKF,train_y,red_square,top_left,2025-03-06_15h42.09.645,HideSeek_v1,2022.2.5,60.32232631492774,
,3,8,3,3,0,-5,11,,train_dim1_1,5,30,,,,2,0,2,0,,,,,,,,,0,0,0,0,0,4,4,4,4,0,4,0,,,,,,,,,,,,,,,,,,,,,,,,,,,,,,,,,,,,,,,,,,,,,,,,,,,,,,,,,,,,,,,,30,,,,,,,,1072.4250667998567,1072.4250667998567,1072.4250667998567,1072.4250667998567,1072.4250667998567,down,0.19295320007950068,0,1,0,99,0.08,-0.16000000000000003,down,0.10108839999884367,,,,,,,,,,,,,,,,,,,,,,,,,,,,,,,,,,,,,,,,,,,,,,,,,,,,,,,,,,,,PCKZKF,train_y,red_square,top_left,2025-03-06_15h42.09.645,HideSeek_v1,2022.2.5,60.32232631492774,
,3,8,3,3,0,-5,11,,train_dim1_1,5,30,,,,2,0,2,0,,,,,,,,,0,0,0,0,0,4,4,4,5,0,5,0,,,,,,,,,,,,,,,,,,,,,,,,,,,,,,,,,,,,,,,,,,,,,,,,,,,,,,,,,,,,,,,,30,,,,,,,,1072.6279627000913,1072.6279627000913,1072.6279627000913,1072.6279627000913,1072.6279627000913,down,0.6435746001079679,0,1,0,99,0.08,-0.24000000000000005,down,0.5525495000183582,,,,,,,,,,,,,,,,,,,,,,,,,,,,,,,,,,,,,,,,,,,,,,,,,,,,,,,,,,,,PCKZKF,train_y,red_square,top_left,2025-03-06_15h42.09.645,HideSeek_v1,2022.2.5,60.32232631492774,
,3,8,3,3,0,-5,11,,train_dim1_1,5,30,,,,2,0,2,0,,,,,,,,,0,0,0,0,0,4,4,4,6,0,6,0,,,,,,,,,,,,,,,,,,,,,,,,,,,,,,,,,,,,,,,,,,,,,,,,,,,,,,,,,,,,,,,,30,,,,,,,,1073.2757087000646,1073.2757087000646,1073.2757087000646,1073.2757087000646,1073.2757087000646,up,0.7428672001697123,0,1,0,99,0.08,-0.16000000000000003,up,0.6666668998077512,,,,,,,,,,,,,,,,,,,,,,,,,,,,,,,,,,,,,,,,,,,,,,,,,,,,,,,,,,,,PCKZKF,train_y,red_square,top_left,2025-03-06_15h42.09.645,HideSeek_v1,2022.2.5,60.32232631492774,
,3,8,3,3,0,-5,11,,train_dim1_1,5,30,,,,2,0,2,0,,,,,,,,,0,0,0,0,0,4,4,4,7,0,7,0,,,,,,,,,,,,,,,,,,,,,,,,,,,,,,,,,,,,,,,,,,,,,,,,,,,,,,,,,,,,,,,,30,,,,,,,,1074.0266160001047,1074.0266160001047,1074.0266160001047,1074.0266160001047,1074.0266160001047,return,0.4100195998325944,1,0,0,1,0.08,-0.16000000000000003,return,0.3245195001363754,-18,2,0.08,-0.16000000000000003,,,,,,,,,,,,,,,,,,,,,,,,,,,,,,,,,,,,,,,,,,,,,,,,,,,,,,,,PCKZKF,train_y,red_square,top_left,2025-03-06_15h42.09.645,HideSeek_v1,2022.2.5,60.32232631492774,
,1,9,1,5,0,-4,12,,train_dim1_1,6,30,,,,2,0,2,0,,,,,,,,,0,0,0,0,0,5,5,5,0,0,0,0,,,,,,,,,,,,,,,,,,,,,,,,,stimuli/alien_stimuli/12.png,,,,,,,,,,,,,,,,,,,,,,,,,,,,,stimuli/alien_stimuli/11.png,11,3,7,,,,,,,30,,,,,,,,1084.2900000000373,1084.2900000000373,1084.2900000000373,1084.2900000000373,1084.2900000000373,down,3.558904599864036,1,0,0,99,-0.08,0.24,down,3.4779230998829007,,,,,1082.7327120001428,1084.2900000000373,0.08,-0.16,0.4,0.0,0.039999999999999994,0.08,0.08,0.08,-0.16,1076.0073695997708,1076.0073695997708,1076.0073695997708,1076.0073695997708,1076.0073695997708,1076.0073695997708,1076.0073695997708,1076.0073695997708,1075.9937363297213,6.841461199801415,return,6.703685500193387,,,,,,,,,,,,,,,,,,,,,,,,,,,,,,,,,PCKZKF,train_y,red_square,top_left,2025-03-06_15h42.09.645,HideSeek_v1,2022.2.5,60.32232631492774,
,1,9,1,5,0,-4,12,,train_dim1_1,6,30,,,,2,0,2,0,,,,,,,,,0,0,0,0,0,5,5,5,1,0,1,0,,,,,,,,,,,,,,,,,,,,,,,,,,,,,,,,,,,,,,,,,,,,,,,,,,,,,,,,,,,,,,,,30,,,,,,,,1087.8562452998012,1087.8562452998012,1087.8562452998012,1087.8562452998012,1087.8562452998012,down,0.6928763999603689,1,0,0,99,-0.08,0.15999999999999998,down,0.6088648000732064,,,,,,,,,,,,,,,,,,,,,,,,,,,,,,,,,,,,,,,,,,,,,,,,,,,,,,,,,,,,PCKZKF,train_y,red_square,top_left,2025-03-06_15h42.09.645,HideSeek_v1,2022.2.5,60.32232631492774,
,1,9,1,5,0,-4,12,,train_dim1_1,6,30,,,,2,0,2,0,,,,,,,,,0,0,0,0,0,5,5,5,2,0,2,0,,,,,,,,,,,,,,,,,,,,,,,,,,,,,,,,,,,,,,,,,,,,,,,,,,,,,,,,,,,,,,,,30,,,,,,,,1088.5561731997877,1088.5561731997877,1088.5561731997877,1088.5561731997877,1088.5561731997877,down,0.37673630006611347,1,0,0,99,-0.08,0.07999999999999997,down,0.2891704998910427,,,,,,,,,,,,,,,,,,,,,,,,,,,,,,,,,,,,,,,,,,,,,,,,,,,,,,,,,,,,PCKZKF,train_y,red_square,top_left,2025-03-06_15h42.09.645,HideSeek_v1,2022.2.5,60.32232631492774,
,1,9,1,5,0,-4,12,,train_dim1_1,6,30,,,,2,0,2,0,,,,,,,,,0,0,0,0,0,5,5,5,3,0,3,0,,,,,,,,,,,,,,,,,,,,,,,,,,,,,,,,,,,,,,,,,,,,,,,,,,,,,,,,,,,,,,,,30,,,,,,,,1088.9390972000547,1088.9390972000547,1088.9390972000547,1088.9390972000547,1088.9390972000547,down,0.2929615001194179,1,0,0,99,-0.08,-2.7755575615628914e-17,down,0.20304669998586178,,,,,,,,,,,,,,,,,,,,,,,,,,,,,,,,,,,,,,,,,,,,,,,,,,,,,,,,,,,,PCKZKF,train_y,red_square,top_left,2025-03-06_15h42.09.645,HideSeek_v1,2022.2.5,60.32232631492774,
,1,9,1,5,0,-4,12,,train_dim1_1,6,30,,,,2,0,2,0,,,,,,,,,0,0,0,0,0,5,5,5,4,0,4,0,,,,,,,,,,,,,,,,,,,,,,,,,,,,,,,,,,,,,,,,,,,,,,,,,,,,,,,,,,,,,,,,30,,,,,,,,1089.2424922999926,1089.2424922999926,1089.2424922999926,1089.2424922999926,1089.2424922999926,return,0.4429776999168098,2,0,0,1,-0.08,-2.7755575615628914e-17,return,0.36288770008832216,-22,2,-0.08,-2.7755575615628914e-17,,,,,,,,,,,,,,,,,,,,,,,,,,,,,,,,,,,,,,,,,,,,,,,,,,,,,,,,PCKZKF,train_y,red_square,top_left,2025-03-06_15h42.09.645,HideSeek_v1,2022.2.5,60.32232631492774,
,1,8,1,5,0,-3,13,,train_dim1_1,7,30,,,,2,0,2,0,,,,,,,,,0,0,0,0,0,6,6,6,0,0,0,0,,,,,,,,,,,,,,,,,,,,,,,,,stimuli/alien_stimuli/13.png,,,,,,,,,,,,,,,,,,,,,,,,,,,,,stimuli/alien_stimuli/12.png,12,1,8,,,,,,,30,,,,,,,,1097.2337767998688,1097.2337767998688,1097.2337767998688,1097.2337767998688,1097.2337767998688,down,3.9075258998200297,2,0,0,99,-0.08,0.15999999999999998,down,3.829843500163406,,,,,1095.6767238997854,1097.2337767998688,-0.08,0,0.32,0.0,0.16,-0.08,-0.08,-0.08,0,1091.2553587998264,1091.2553587998264,1091.2553587998264,1091.2553587998264,1091.2553587998264,1091.2553587998264,1091.2553587998264,1091.2553587998264,1091.2565083196387,4.539395400322974,return,4.400895399972796,,,,,,,,,,,,,,,,,,,,,,,,,,,,,,,,,PCKZKF,train_y,red_square,top_left,2025-03-06_15h42.09.645,HideSeek_v1,2022.2.5,60.32232631492774,
,1,8,1,5,0,-3,13,,train_dim1_1,7,30,,,,2,0,2,0,,,,,,,,,0,0,0,0,0,6,6,6,1,0,1,0,,,,,,,,,,,,,,,,,,,,,,,,,,,,,,,,,,,,,,,,,,,,,,,,,,,,,,,,,,,,,,,,30,,,,,,,,1101.1528099998832,1101.1528099998832,1101.1528099998832,1101.1528099998832,1101.1528099998832,down,0.5931937000714242,2,0,0,99,-0.08,0.07999999999999997,down,0.5079704998061061,,,,,,,,,,,,,,,,,,,,,,,,,,,,,,,,,,,,,,,,,,,,,,,,,,,,,,,,,,,,PCKZKF,train_y,red_square,top_left,2025-03-06_15h42.09.645,HideSeek_v1,2022.2.5,60.32232631492774,
,1,8,1,5,0,-3,13,,train_dim1_1,7,30,,,,2,0,2,0,,,,,,,,,0,0,0,0,0,6,6,6,2,0,2,0,,,,,,,,,,,,,,,,,,,,,,,,,,,,,,,,,,,,,,,,,,,,,,,,,,,,,,,,,,,,,,,,30,,,,,,,,1101.7494998998009,1101.7494998998009,1101.7494998998009,1101.7494998998009,1101.7494998998009,down,0.44297350011765957,2,0,0,99,-0.08,-2.7755575615628914e-17,down,0.362690900452435,,,,,,,,,,,,,,,,,,,,,,,,,,,,,,,,,,,,,,,,,,,,,,,,,,,,,,,,,,,,PCKZKF,train_y,red_square,top_left,2025-03-06_15h42.09.645,HideSeek_v1,2022.2.5,60.32232631492774,
,1,8,1,5,0,-3,13,,train_dim1_1,7,30,,,,2,0,2,0,,,,,,,,,0,0,0,0,0,6,6,6,3,0,3,0,,,,,,,,,,,,,,,,,,,,,,,,,,,,,,,,,,,,,,,,,,,,,,,,,,,,,,,,,,,,,,,,30,,,,,,,,1102.1992929000407,1102.1992929000407,1102.1992929000407,1102.1992929000407,1102.1992929000407,down,0.34289849968627095,2,0,0,99,-0.08,-0.08000000000000003,down,0.26418700022622943,,,,,,,,,,,,,,,,,,,,,,,,,,,,,,,,,,,,,,,,,,,,,,,,,,,,,,,,,,,,PCKZKF,train_y,red_square,top_left,2025-03-06_15h42.09.645,HideSeek_v1,2022.2.5,60.32232631492774,
,1,8,1,5,0,-3,13,,train_dim1_1,7,30,,,,2,0,2,0,,,,,,,,,0,0,0,0,0,6,6,6,4,0,4,0,,,,,,,,,,,,,,,,,,,,,,,,,,,,,,,,,,,,,,,,,,,,,,,,,,,,,,,,,,,,,,,,30,,,,,,,,1102.5498318001628,1102.5498318001628,1102.5498318001628,1102.5498318001628,1102.5498318001628,down,0.32657650019973516,2,0,0,99,-0.08,-0.16000000000000003,down,0.2382416003383696,,,,,,,,,,,,,,,,,,,,,,,,,,,,,,,,,,,,,,,,,,,,,,,,,,,,,,,,,,,,PCKZKF,train_y,red_square,top_left,2025-03-06_15h42.09.645,HideSeek_v1,2022.2.5,60.32232631492774,
,1,8,1,5,0,-3,13,,train_dim1_1,7,30,,,,2,0,2,0,,,,,,,,,0,0,0,0,0,6,6,6,5,0,5,0,,,,,,,,,,,,,,,,,,,,,,,,,,,,,,,,,,,,,,,,,,,,,,,,,,,,,,,,,,,,,,,,30,,,,,,,,1102.8888618997298,1102.8888618997298,1102.8888618997298,1102.8888618997298,1102.8888618997298,return,0.27619299991056323,2,0,0,0,-0.08,-0.16000000000000003,return,0.1859510000795126,-27,2,-0.08,-0.16000000000000003,,,,,,,,,,,,,,,,,,,,,,,,,,,,,,,,,,,,,,,,,,,,,,,,,,,,,,,,PCKZKF,train_y,red_square,top_left,2025-03-06_15h42.09.645,HideSeek_v1,2022.2.5,60.32232631492774,
,4,7,4,2,0,-5,11,,train_dim1_1,8,30,,,,2,0,2,0,,,,,,,,,0,0,0,0,0,7,7,7,0,0,0,0,,,,,,,,,,,,,,,,,,,,,,,,,stimuli/alien_stimuli/11.png,,,,,,,,,,,,,,,,,,,,,,,,,,,,,stimuli/alien_stimuli/13.png,13,1,9,,,,,,,30,,,,,,,,1110.3967279000208,1110.3967279000208,1110.3967279000208,1110.3967279000208,1110.3967279000208,down,2.038791600149125,2,0,0,99,0.16,0.08,down,1.9448446999303997,,,,,1108.837645799853,1110.3967279000208,-0.08,0,0.24,0.0,0.12,-0.08,-0.08,-0.08,0,1104.7290590000339,1104.7290590000339,1104.7290590000339,1104.7290590000339,1104.7290590000339,1104.7290590000339,1104.7290590000339,1104.7290590000339,1104.7176025297958,4.222321900073439,return,4.078664800152183,,,,,,,,,,,,,,,,,,,,,,,,,,,,,,,,,PCKZKF,train_y,red_square,top_left,2025-03-06_15h42.09.645,HideSeek_v1,2022.2.5,60.32232631492774,
,4,7,4,2,0,-5,11,,train_dim1_1,8,30,,,,2,0,2,0,,,,,,,,,0,0,0,0,0,7,7,7,1,0,1,0,,,,,,,,,,,,,,,,,,,,,,,,,,,,,,,,,,,,,,,,,,,,,,,,,,,,,,,,,,,,,,,,30,,,,,,,,1112.4428714001551,1112.4428714001551,1112.4428714001551,1112.4428714001551,1112.4428714001551,down,0.5594800999388099,2,0,0,99,0.16,0.0,down,0.47140360018238425,,,,,,,,,,,,,,,,,,,,,,,,,,,,,,,,,,,,,,,,,,,,,,,,,,,,,,,,,,,,PCKZKF,train_y,red_square,top_left,2025-03-06_15h42.09.645,HideSeek_v1,2022.2.5,60.32232631492774,
,4,7,4,2,0,-5,11,,train_dim1_1,8,30,,,,2,0,2,0,,,,,,,,,0,0,0,0,0,7,7,7,2,0,2,0,,,,,,,,,,,,,,,,,,,,,,,,,,,,,,,,,,,,,,,,,,,,,,,,,,,,,,,,,,,,,,,,30,,,,,,,,1113.0102014997974,1113.0102014997974,1113.0102014997974,1113.0102014997974,1113.0102014997974,down,0.42635299963876605,2,0,0,99,0.16,-0.08,down,0.34309390000998974,,,,,,,,,,,,,,,,,,,,,,,,,,,,,,,,,,,,,,,,,,,,,,,,,,,,,,,,,,,,PCKZKF,train_y,red_square,top_left,2025-03-06_15h42.09.645,HideSeek_v1,2022.2.5,60.32232631492774,
,4,7,4,2,0,-5,11,,train_dim1_1,8,30,,,,2,0,2,0,,,,,,,,,0,0,0,0,0,7,7,7,3,0,3,0,,,,,,,,,,,,,,,,,,,,,,,,,,,,,,,,,,,,,,,,,,,,,,,,,,,,,,,,,,,,,,,,30,,,,,,,,1113.4430285999551,1113.4430285999551,1113.4430285999551,1113.4430285999551,1113.4430285999551,down,0.3929297002032399,2,0,0,99,0.16,-0.16,down,0.3048442001454532,,,,,,,,,,,,,,,,,,,,,,,,,,,,,,,,,,,,,,,,,,,,,,,,,,,,,,,,,,,,PCKZKF,train_y,red_square,top_left,2025-03-06_15h42.09.645,HideSeek_v1,2022.2.5,60.32232631492774,
,4,7,4,2,0,-5,11,,train_dim1_1,8,30,,,,2,0,2,0,,,,,,,,,0,0,0,0,0,7,7,7,4,0,4,0,,,,,,,,,,,,,,,,,,,,,,,,,,,,,,,,,,,,,,,,,,,,,,,,,,,,,,,,,,,,,,,,30,,,,,,,,1113.8432978000492,1113.8432978000492,1113.8432978000492,1113.8432978000492,1113.8432978000492,down,0.39286449970677495,2,0,0,99,0.16,-0.24,down,0.31250299979001284,,,,,,,,,,,,,,,,,,,,,,,,,,,,,,,,,,,,,,,,,,,,,,,,,,,,,,,,,,,,PCKZKF,train_y,red_square,top_left,2025-03-06_15h42.09.645,HideSeek_v1,2022.2.5,60.32232631492774,
,4,7,4,2,0,-5,11,,train_dim1_1,8,30,,,,2,0,2,0,,,,,,,,,0,0,0,0,0,7,7,7,5,0,5,0,,,,,,,,,,,,,,,,,,,,,,,,,,,,,,,,,,,,,,,,,,,,,,,,,,,,,,,,,,,,,,,,30,,,,,,,,1114.243424499873,1114.243424499873,1114.243424499873,1114.243424499873,1114.243424499873,down,0.3430861998349428,2,0,0,99,0.16,-0.32,down,0.25345030007883906,,,,,,,,,,,,,,,,,,,,,,,,,,,,,,,,,,,,,,,,,,,,,,,,,,,,,,,,,,,,PCKZKF,train_y,red_square,top_left,2025-03-06_15h42.09.645,HideSeek_v1,2022.2.5,60.32232631492774,
,4,7,4,2,0,-5,11,,train_dim1_1,8,30,,,,2,0,2,0,,,,,,,,,0,0,0,0,0,7,7,7,6,0,6,0,,,,,,,,,,,,,,,,,,,,,,,,,,,,,,,,,,,,,,,,,,,,,,,,,,,,,,,,,,,,,,,,30,,,,,,,,1114.5936974999495,1114.5936974999495,1114.5936974999495,1114.5936974999495,1114.5936974999495,return,0.4600843000225723,2,1,0,0,0.16,-0.32,return,0.37922800006344914,-33,2,0.16,-0.32,,,,,,,,,,,,,,,,,,,,,,,,,,,,,,,,,,,,,,,,,,,,,,,,,,,,,,,,PCKZKF,train_y,red_square,top_left,2025-03-06_15h42.09.645,HideSeek_v1,2022.2.5,60.32232631492774,
,4,8,4,7,0,-1,15,,train_dim1_1,9,30,,,,2,0,2,0,,,,,,,,,0,0,0,0,0,8,8,8,0,0,0,0,,,,,,,,,,,,,,,,,,,,,,,,,stimuli/alien_stimuli/15.png,,,,,,,,,,,,,,,,,,,,,,,,,,,,,stimuli/alien_stimuli/11.png,11,4,10,,,,,,,30,,,,,,,,1122.3412389000878,1122.3412389000878,1122.3412389000878,1122.3412389000878,1122.3412389000878,return,3.0059981998056173,2,1,0,0,0.16,0.24,return,2.911350400187075,-33,2,0.16,0.24,1120.7808822998777,1122.3412389000878,0.16,-0.24,0.4,0.0,-0.039999999999999994,0.16,0.16,0.16,-0.24,1116.6278385999613,1116.6278385999613,1116.6278385999613,1116.6278385999613,1116.6278385999613,1116.6278385999613,1116.6278385999613,1116.6278385999613,1116.6274079196155,4.2725496999919415,return,4.1209644000045955,,,,,,,,,,,,,,,,,,,,,,,,,,,,,,,,,PCKZKF,train_y,red_square,top_left,2025-03-06_15h42.09.645,HideSeek_v1,2022.2.5,60.32232631492774,
,2,7,2,7,0,0,16,,train_dim1_1,10,30,,,,2,0,2,0,,,,,,,,,0,0,0,0,0,9,9,9,0,0,0,0,,,,,,,,,,,,,,,,,,,,,,,,,stimuli/alien_stimuli/16.png,,,,,,,,,,,,,,,,,,,,,,,,,,,,,stimuli/alien_stimuli/15.png,15,4,11,,,,,,,30,,,,,,,,1131.0117059000768,1131.0117059000768,1131.0117059000768,1131.0117059000768,1131.0117059000768,return,2.3905556998215616,3,0,0,1,0,0.16,return,2.3028035000897944,-33,2,0,0.16,1129.4546642997302,1131.0117059000768,0.16,0.16,0.08,0.0,0.2,0.16,0.16,0.16,0.16,1126.918981200084,1126.918981200084,1126.918981200084,1126.918981200084,1126.918981200084,1126.918981200084,1126.918981200084,1126.918981200084,1126.9193654200062,2.6543135000392795,return,2.5071442001499236,,,,,,,,,,,,,,,,,,,,,,,,,,,,,,,,,PCKZKF,train_y,red_square,top_left,2025-03-06_15h42.09.645,HideSeek_v1,2022.2.5,60.32232631492774,
,4,6,4,5,0,-1,15,,train_dim1_1,11,30,,,,2,0,2,0,,,,,,,,,0,0,0,0,0,10,10,10,0,0,0,0,,,,,,,,,,,,,,,,,,,,,,,,,stimuli/alien_stimuli/15.png,,,,,,,,,,,,,,,,,,,,,,,,,,,,,stimuli/alien_stimuli/16.png,16,2,12,,,,,,,30,,,,,,,,1141.0703758997843,1141.0703758997843,1141.0703758997843,1141.0703758997843,1141.0703758997843,down,3.5075996997766197,3,0,0,99,0.16,0.0,down,3.42958760028705,,,,,1139.5131886000745,1141.0703758997843,0,0.16,0.0,0.0,0.16,0,0.0,0,0.16,1134.9566850000992,1134.9566850000992,1134.9566850000992,1134.9566850000992,1134.9566850000992,1134.9566850000992,1134.9566850000992,1134.9566850000992,1134.9428229397163,4.655891299713403,return,4.529337499756366,,,,,,,,,,,,,,,,,,,,,,,,,,,,,,,,,PCKZKF,train_y,red_square,top_left,2025-03-06_15h42.09.645,HideSeek_v1,2022.2.5,60.32232631492774,
,4,6,4,5,0,-1,15,,train_dim1_1,11,30,,,,2,0,2,0,,,,,,,,,0,0,0,0,0,10,10,10,1,0,1,0,,,,,,,,,,,,,,,,,,,,,,,,,,,,,,,,,,,,,,,,,,,,,,,,,,,,,,,,,,,,,,,,30,,,,,,,,1144.585536299739,1144.585536299739,1144.585536299739,1144.585536299739,1144.585536299739,return,0.40940740006044507,4,0,0,1,0.16,0.0,return,0.321726200170815,-34,2,0.16,0.0,,,,,,,,,,,,,,,,,,,,,,,,,,,,,,,,,,,,,,,,,,,,,,,,,,,,,,,,PCKZKF,train_y,red_square,top_left,2025-03-06_15h42.09.645,HideSeek_v1,2022.2.5,60.32232631492774,
,0,5,0,0,0,-5,11,,train_dim1_1,12,30,,,,2,0,2,0,,,,,,,,,0,0,0,0,0,11,11,11,0,0,0,0,,,,,,,,,,,,,,,,,,,,,,,,,stimuli/alien_stimuli/11.png,,,,,,,,,,,,,,,,,,,,,,,,,,,,,stimuli/alien_stimuli/15.png,15,4,13,,,,,,,30,,,,,,,,1151.6299514998682,1151.6299514998682,1151.6299514998682,1151.6299514998682,1151.6299514998682,down,2.055579800158739,4,0,0,99,-0.16,-0.08,down,1.9758464004844427,,,,,1150.0717731998302,1151.6299514998682,0.16,0,0.08,0.0,0.04,0.16,0.16,0.16,0,1146.567122399807,1146.567122399807,1146.567122399807,1146.567122399807,1146.567122399807,1146.567122399807,1146.567122399807,1146.567122399807,1146.5523287297692,3.622029099613428,return,3.4770565005019307,,,,,,,,,,,,,,,,,,,,,,,,,,,,,,,,,PCKZKF,train_y,red_square,top_left,2025-03-06_15h42.09.645,HideSeek_v1,2022.2.5,60.32232631492774,
,0,5,0,0,0,-5,11,,train_dim1_1,12,30,,,,2,0,2,0,,,,,,,,,0,0,0,0,0,11,11,11,1,0,1,0,,,,,,,,,,,,,,,,,,,,,,,,,,,,,,,,,,,,,,,,,,,,,,,,,,,,,,,,,,,,,,,,30,,,,,,,,1153.6924732998013,1153.6924732998013,1153.6924732998013,1153.6924732998013,1153.6924732998013,down,0.3094740002416074,4,0,0,99,-0.16,-0.16,down,0.22780829994007945,,,,,,,,,,,,,,,,,,,,,,,,,,,,,,,,,,,,,,,,,,,,,,,,,,,,,,,,,,,,PCKZKF,train_y,red_square,top_left,2025-03-06_15h42.09.645,HideSeek_v1,2022.2.5,60.32232631492774,
,0,5,0,0,0,-5,11,,train_dim1_1,12,30,,,,2,0,2,0,,,,,,,,,0,0,0,0,0,11,11,11,2,0,2,0,,,,,,,,,,,,,,,,,,,,,,,,,,,,,,,,,,,,,,,,,,,,,,,,,,,,,,,,,,,,,,,,30,,,,,,,,1154.0093903001398,1154.0093903001398,1154.0093903001398,1154.0093903001398,1154.0093903001398,down,0.4262031000107527,4,0,0,99,-0.16,-0.24,down,0.34873380046337843,,,,,,,,,,,,,,,,,,,,,,,,,,,,,,,,,,,,,,,,,,,,,,,,,,,,,,,,,,,,PCKZKF,train_y,red_square,top_left,2025-03-06_15h42.09.645,HideSeek_v1,2022.2.5,60.32232631492774,
,0,5,0,0,0,-5,11,,train_dim1_1,12,30,,,,2,0,2,0,,,,,,,,,0,0,0,0,0,11,11,11,3,0,3,0,,,,,,,,,,,,,,,,,,,,,,,,,,,,,,,,,,,,,,,,,,,,,,,,,,,,,,,,,,,,,,,,30,,,,,,,,1154.4437625999562,1154.4437625999562,1154.4437625999562,1154.4437625999562,1154.4437625999562,return,2.0945168999023736,4,0,0,0,-0.16,-0.24,return,2.01233429973945,-37,2,-0.16,-0.24,,,,,,,,,,,,,,,,,,,,,,,,,,,,,,,,,,,,,,,,,,,,,,,,,,,,,,,,PCKZKF,train_y,red_square,top_left,2025-03-06_15h42.09.645,HideSeek_v1,2022.2.5,60.32232631492774,
,4,8,4,4,0,-4,12,,train_dim1_1,13,30,,,,2,0,2,0,,,,,,,,,0,0,0,0,0,12,12,12,0,0,0,0,,,,,,,,,,,,,,,,,,,,,,,,,stimuli/alien_stimuli/12.png,,,,,,,,,,,,,,,,,,,,,,,,,,,,,stimuli/alien_stimuli/11.png,11,0,14,,,,,,,30,,,,,,,,1162.121999999974,1162.121999999974,1162.121999999974,1162.121999999974,1162.121999999974,down,1.172238599974662,4,0,0,99,0.16,0.15999999999999998,down,1.079497099854052,,,,,1160.564100400079,1162.121999999974,-0.16,-0.4,0.4,0.0,-0.2,-0.16,-0.16,-0.16,-0.4,1158.1085411999375,1158.1085411999375,1158.1085411999375,1158.1085411999375,1158.1085411999375,1158.1085411999375,1158.1085411999375,1158.1085411999375,1158.095311030047,2.5711491000838578,return,2.4314504005014896,,,,,,,,,,,,,,,,,,,,,,,,,,,,,,,,,PCKZKF,train_y,red_square,top_left,2025-03-06_15h42.09.645,HideSeek_v1,2022.2.5,60.32232631492774,
,4,8,4,4,0,-4,12,,train_dim1_1,13,30,,,,2,0,2,0,,,,,,,,,0,0,0,0,0,12,12,12,1,0,1,0,,,,,,,,,,,,,,,,,,,,,,,,,,,,,,,,,,,,,,,,,,,,,,,,,,,,,,,,,,,,,,,,30,,,,,,,,1163.3013825998642,1163.3013825998642,1163.3013825998642,1163.3013825998642,1163.3013825998642,down,0.9931485000997782,4,0,0,99,0.16,0.07999999999999997,down,0.9107524999417365,,,,,,,,,,,,,,,,,,,,,,,,,,,,,,,,,,,,,,,,,,,,,,,,,,,,,,,,,,,,PCKZKF,train_y,red_square,top_left,2025-03-06_15h42.09.645,HideSeek_v1,2022.2.5,60.32232631492774,
,4,8,4,4,0,-4,12,,train_dim1_1,13,30,,,,2,0,2,0,,,,,,,,,0,0,0,0,0,12,12,12,2,0,2,0,,,,,,,,,,,,,,,,,,,,,,,,,,,,,,,,,,,,,,,,,,,,,,,,,,,,,,,,,,,,,,,,30,,,,,,,,1164.301430599764,1164.301430599764,1164.301430599764,1164.301430599764,1164.301430599764,down,1.093611600343138,4,0,0,99,0.16,-2.7755575615628914e-17,down,1.0093278004787862,,,,,,,,,,,,,,,,,,,,,,,,,,,,,,,,,,,,,,,,,,,,,,,,,,,,,,,,,,,,PCKZKF,train_y,red_square,top_left,2025-03-06_15h42.09.645,HideSeek_v1,2022.2.5,60.32232631492774,
,4,8,4,4,0,-4,12,,train_dim1_1,13,30,,,,2,0,2,0,,,,,,,,,0,0,0,0,0,12,12,12,3,0,3,0,,,,,,,,,,,,,,,,,,,,,,,,,,,,,,,,,,,,,,,,,,,,,,,,,,,,,,,,,,,,,,,,30,,,,,,,,1165.4028551001102,1165.4028551001102,1165.4028551001102,1165.4028551001102,1165.4028551001102,down,3.8125697001814842,4,0,0,99,0.16,-0.08000000000000003,down,3.7273641997016966,,,,,,,,,,,,,,,,,,,,,,,,,,,,,,,,,,,,,,,,,,,,,,,,,,,,,,,,,,,,PCKZKF,train_y,red_square,top_left,2025-03-06_15h42.09.645,HideSeek_v1,2022.2.5,60.32232631492774,
,4,8,4,4,0,-4,12,,train_dim1_1,13,30,,,,2,0,2,0,,,,,,,,,0,0,0,0,0,12,12,12,4,0,4,0,,,,,,,,,,,,,,,,,,,,,,,,,,,,,,,,,,,,,,,,,,,,,,,,,,,,,,,,,,,,,,,,30,,,,,,,,1169.2225489998236,1169.2225489998236,1169.2225489998236,1169.2225489998236,1169.2225489998236,return,0.5096201002597809,5,0,0,1,0.16,-0.08000000000000003,return,0.43296829983592033,-41,2,0.16,-0.08000000000000003,,,,,,,,,,,,,,,,,,,,,,,,,,,,,,,,,,,,,,,,,,,,,,,,,,,,,,,,PCKZKF,train_y,red_square,top_left,2025-03-06_15h42.09.645,HideSeek_v1,2022.2.5,60.32232631492774,
,2,7,2,7,0,0,16,,train_dim1_1,14,30,,,,2,0,2,0,,,,,,,,,0,0,0,0,0,13,13,13,0,0,0,0,,,,,,,,,,,,,,,,,,,,,,,,,stimuli/alien_stimuli/16.png,,,,,,,,,,,,,,,,,,,,,,,,,,,,,stimuli/alien_stimuli/12.png,12,4,15,,,,,,,30,,,,,,,,1176.2357780998573,1176.2357780998573,1176.2357780998573,1176.2357780998573,1176.2357780998573,down,26.52393040014431,5,0,0,99,0,0.08,down,26.44168350007385,,,,,1174.675443300046,1176.2357780998573,0.16,-0.08,0.32,0.0,0.07999999999999999,0.16,0.16,0.16,-0.08,1171.301158099901,1171.301158099901,1171.301158099901,1171.301158099901,1171.301158099901,1171.301158099901,1171.301158099901,1171.301158099901,1171.2895092295948,3.488258400000632,return,3.3534689000807703,,,,,,,,,,,,,,,,,,,,,,,,,,,,,,,,,PCKZKF,train_y,red_square,top_left,2025-03-06_15h42.09.645,HideSeek_v1,2022.2.5,60.32232631492774,
,2,7,2,7,0,0,16,,train_dim1_1,14,30,,,,2,0,2,0,,,,,,,,,0,0,0,0,0,13,13,13,1,0,1,0,,,,,,,,,,,,,,,,,,,,,,,,,,,,,,,,,,,,,,,,,,,,,,,,,,,,,,,,,,,,,,,,30,,,,,,,,1202.7866269000806,1202.7866269000806,1202.7866269000806,1202.7866269000806,1202.7866269000806,return,16.956258700229228,5,1,0,0,0,0.08,return,16.85053460020572,-42,2,0,0.08,,,,,,,,,,,,,,,,,,,,,,,,,,,,,,,,,,,,,,,,,,,,,,,,,,,,,,,,PCKZKF,train_y,red_square,top_left,2025-03-06_15h42.09.645,HideSeek_v1,2022.2.5,60.32232631492774,
,1,9,1,6,0,-3,13,,train_dim1_1,15,30,,,,2,0,2,0,,,,,,,,,0,0,0,0,0,14,14,14,0,0,0,0,,,,,,,,,,,,,,,,,,,,,,,,,stimuli/alien_stimuli/13.png,,,,,,,,,,,,,,,,,,,,,,,,,,,,,stimuli/alien_stimuli/16.png,16,2,16,,,,,,,30,,,,,,,,1225.9728008001111,1225.9728008001111,1225.9728008001111,1225.9728008001111,1225.9728008001111,down,3.7753618001006544,5,1,0,99,-0.08,0.24,down,3.6827365001663566,,,,,1224.4167920998298,1225.9728008001111,0,0.16,0.0,0.0,0.16,0,0.0,0,0.16,1221.316583099775,1221.316583099775,1221.316583099775,1221.316583099775,1221.316583099775,1221.316583099775,1221.316583099775,1221.316583099775,1221.3143847098108,3.23799329996109,return,3.0754826003685594,,,,,,,,,,,,,,,,,,,,,,,,,,,,,,,,,PCKZKF,train_y,red_square,top_left,2025-03-06_15h42.09.645,HideSeek_v1,2022.2.5,60.32232631492774,
,1,9,1,6,0,-3,13,,train_dim1_1,15,30,,,,2,0,2,0,,,,,,,,,0,0,0,0,0,14,14,14,1,0,1,0,,,,,,,,,,,,,,,,,,,,,,,,,,,,,,,,,,,,,,,,,,,,,,,,,,,,,,,,,,,,,,,,30,,,,,,,,1229.762953599915,1229.762953599915,1229.762953599915,1229.762953599915,1229.762953599915,down,0.5098542999476194,5,1,0,99,-0.08,0.15999999999999998,down,0.4178830999881029,,,,,,,,,,,,,,,,,,,,,,,,,,,,,,,,,,,,,,,,,,,,,,,,,,,,,,,,,,,,PCKZKF,train_y,red_square,top_left,2025-03-06_15h42.09.645,HideSeek_v1,2022.2.5,60.32232631492774,
,1,9,1,6,0,-3,13,,train_dim1_1,15,30,,,,2,0,2,0,,,,,,,,,0,0,0,0,0,14,14,14,2,0,2,0,,,,,,,,,,,,,,,,,,,,,,,,,,,,,,,,,,,,,,,,,,,,,,,,,,,,,,,,,,,,,,,,30,,,,,,,,1230.2726317001507,1230.2726317001507,1230.2726317001507,1230.2726317001507,1230.2726317001507,down,0.39286960009485483,5,1,0,99,-0.08,0.07999999999999997,down,0.3025064002722502,,,,,,,,,,,,,,,,,,,,,,,,,,,,,,,,,,,,,,,,,,,,,,,,,,,,,,,,,,,,PCKZKF,train_y,red_square,top_left,2025-03-06_15h42.09.645,HideSeek_v1,2022.2.5,60.32232631492774,
,1,9,1,6,0,-3,13,,train_dim1_1,15,30,,,,2,0,2,0,,,,,,,,,0,0,0,0,0,14,14,14,3,0,3,0,,,,,,,,,,,,,,,,,,,,,,,,,,,,,,,,,,,,,,,,,,,,,,,,,,,,,,,,,,,,,,,,30,,,,,,,,1230.6730013997294,1230.6730013997294,1230.6730013997294,1230.6730013997294,1230.6730013997294,return,2.2445220998488367,6,0,0,1,-0.08,0.07999999999999997,return,2.152080299798399,-45,2,-0.08,0.07999999999999997,,,,,,,,,,,,,,,,,,,,,,,,,,,,,,,,,,,,,,,,,,,,,,,,,,,,,,,,PCKZKF,train_y,red_square,top_left,2025-03-06_15h42.09.645,HideSeek_v1,2022.2.5,60.32232631492774,
,4,5,4,4,0,-1,15,,train_dim1_1,16,30,,,,2,0,2,0,,,,,,,,,0,0,0,0,0,15,15,15,0,0,0,0,,,,,,,,,,,,,,,,,,,,,,,,,stimuli/alien_stimuli/15.png,,,,,,,,,,,,,,,,,,,,,,,,,,,,,stimuli/alien_stimuli/13.png,13,1,17,,,,,,,30,,,,,,,,1239.8700393000618,1239.8700393000618,1239.8700393000618,1239.8700393000618,1239.8700393000618,down,5.658810900058597,6,0,0,99,0.16,-0.08,down,5.574155600275844,,,,,1238.3116759001277,1239.8700393000618,-0.08,0.08,0.24,0.0,0.2,-0.08,-0.08,-0.08,0.08,1234.4877491998486,1234.4877491998486,1234.4877491998486,1234.4877491998486,1234.4877491998486,1234.4877491998486,1234.4877491998486,1234.4877491998486,1234.4751601296011,3.9389199996367097,return,3.8071032003499568,,,,,,,,,,,,,,,,,,,,,,,,,,,,,,,,,PCKZKF,train_y,red_square,top_left,2025-03-06_15h42.09.645,HideSeek_v1,2022.2.5,60.32232631492774,
,4,5,4,4,0,-1,15,,train_dim1_1,16,30,,,,2,0,2,0,,,,,,,,,0,0,0,0,0,15,15,15,1,0,1,0,,,,,,,,,,,,,,,,,,,,,,,,,,,,,,,,,,,,,,,,,,,,,,,,,,,,,,,,,,,,,,,,30,,,,,,,,1245.5434090001509,1245.5434090001509,1245.5434090001509,1245.5434090001509,1245.5434090001509,return,0.4760924996808171,7,0,0,1,0.16,-0.08,return,0.37823659973219037,-46,2,0.16,-0.08,,,,,,,,,,,,,,,,,,,,,,,,,,,,,,,,,,,,,,,,,,,,,,,,,,,,,,,,PCKZKF,train_y,red_square,top_left,2025-03-06_15h42.09.645,HideSeek_v1,2022.2.5,60.32232631492774,
,3,8,3,5,0,-3,13,,train_dim1_1,17,30,,,,2,0,2,0,,,,,,,,,0,0,0,0,0,16,16,16,0,0,0,0,,,,,,,,,,,,,,,,,,,,,,,,,stimuli/alien_stimuli/13.png,,,,,,,,,,,,,,,,,,,,,,,,,,,,,stimuli/alien_stimuli/15.png,15,4,18,,,,,,,30,,,,,,,,1252.5455450997688,1252.5455450997688,1252.5455450997688,1252.5455450997688,1252.5455450997688,down,2.9075488997623324,7,0,0,99,0.08,0.15999999999999998,down,2.8164984001778066,,,,,1250.9888610998169,1252.5455450997688,0.16,-0.08,0.08,0.0,-0.04,0.16,0.16,0.16,-0.08,1247.5873146997765,1247.5873146997765,1247.5873146997765,1247.5873146997765,1247.5873146997765,1247.5873146997765,1247.5873146997765,1247.5873146997765,1247.5859695198014,3.5219049002043903,return,3.371896999888122,,,,,,,,,,,,,,,,,,,,,,,,,,,,,,,,,PCKZKF,train_y,red_square,top_left,2025-03-06_15h42.09.645,HideSeek_v1,2022.2.5,60.32232631492774,
,3,8,3,5,0,-3,13,,train_dim1_1,17,30,,,,2,0,2,0,,,,,,,,,0,0,0,0,0,16,16,16,1,0,1,0,,,,,,,,,,,,,,,,,,,,,,,,,,,,,,,,,,,,,,,,,,,,,,,,,,,,,,,,,,,,,,,,30,,,,,,,,1255.4600061001256,1255.4600061001256,1255.4600061001256,1255.4600061001256,1255.4600061001256,down,0.44261239981278777,7,0,0,99,0.08,0.07999999999999997,down,0.362712100148201,,,,,,,,,,,,,,,,,,,,,,,,,,,,,,,,,,,,,,,,,,,,,,,,,,,,,,,,,,,,PCKZKF,train_y,red_square,top_left,2025-03-06_15h42.09.645,HideSeek_v1,2022.2.5,60.32232631492774,
,3,8,3,5,0,-3,13,,train_dim1_1,17,30,,,,2,0,2,0,,,,,,,,,0,0,0,0,0,16,16,16,2,0,2,0,,,,,,,,,,,,,,,,,,,,,,,,,,,,,,,,,,,,,,,,,,,,,,,,,,,,,,,,,,,,,,,,30,,,,,,,,1255.9097275999375,1255.9097275999375,1255.9097275999375,1255.9097275999375,1255.9097275999375,down,0.4933544001542032,7,0,0,99,0.08,-2.7755575615628914e-17,down,0.40449750050902367,,,,,,,,,,,,,,,,,,,,,,,,,,,,,,,,,,,,,,,,,,,,,,,,,,,,,,,,,,,,PCKZKF,train_y,red_square,top_left,2025-03-06_15h42.09.645,HideSeek_v1,2022.2.5,60.32232631492774,
,3,8,3,5,0,-3,13,,train_dim1_1,17,30,,,,2,0,2,0,,,,,,,,,0,0,0,0,0,16,16,16,3,0,3,0,,,,,,,,,,,,,,,,,,,,,,,,,,,,,,,,,,,,,,,,,,,,,,,,,,,,,,,,,,,,,,,,30,,,,,,,,1256.41071560001,1256.41071560001,1256.41071560001,1256.41071560001,1256.41071560001,down,1.210368299856782,7,0,0,99,0.08,-0.08000000000000003,down,1.1190581005066633,,,,,,,,,,,,,,,,,,,,,,,,,,,,,,,,,,,,,,,,,,,,,,,,,,,,,,,,,,,,PCKZKF,train_y,red_square,top_left,2025-03-06_15h42.09.645,HideSeek_v1,2022.2.5,60.32232631492774,
,3,8,3,5,0,-3,13,,train_dim1_1,17,30,,,,2,0,2,0,,,,,,,,,0,0,0,0,0,16,16,16,4,0,4,0,,,,,,,,,,,,,,,,,,,,,,,,,,,,,,,,,,,,,,,,,,,,,,,,,,,,,,,,,,,,,,,,30,,,,,,,,1257.627904899884,1257.627904899884,1257.627904899884,1257.627904899884,1257.627904899884,return,0.3595115998759866,7,1,0,0,0.08,-0.08000000000000003,return,0.26785970013588667,-50,2,0.08,-0.08000000000000003,,,,,,,,,,,,,,,,,,,,,,,,,,,,,,,,,,,,,,,,,,,,,,,,,,,,,,,,PCKZKF,train_y,red_square,top_left,2025-03-06_15h42.09.645,HideSeek_v1,2022.2.5,60.32232631492774,
,2,6,2,1,0,-5,11,,train_dim1_1,18,30,,,,2,0,2,0,,,,,,,,,0,0,0,0,0,17,17,17,0,0,0,0,,,,,,,,,,,,,,,,,,,,,,,,,stimuli/alien_stimuli/11.png,,,,,,,,,,,,,,,,,,,,,,,,,,,,,stimuli/alien_stimuli/13.png,13,3,19,,,,,,,30,,,,,,,,1263.7393978000619,1263.7393978000619,1263.7393978000619,1263.7393978000619,1263.7393978000619,down,4.02469679992646,7,1,0,99,0,0.0,down,3.9397292002104223,,,,,1262.181446599774,1263.7393978000619,0.08,0,0.24,0.0,0.12,0.08,0.08,0.08,0,1259.5618448997848,1259.5618448997848,1259.5618448997848,1259.5618448997848,1259.5618448997848,1259.5618448997848,1259.5618448997848,1259.5618448997848,1259.5626019197516,2.737872099969536,return,2.597880800254643,,,,,,,,,,,,,,,,,,,,,,,,,,,,,,,,,PCKZKF,train_y,red_square,top_left,2025-03-06_15h42.09.645,HideSeek_v1,2022.2.5,60.32232631492774,
,2,6,2,1,0,-5,11,,train_dim1_1,18,30,,,,2,0,2,0,,,,,,,,,0,0,0,0,0,17,17,17,1,0,1,0,,,,,,,,,,,,,,,,,,,,,,,,,,,,,,,,,,,,,,,,,,,,,,,,,,,,,,,,,,,,,,,,30,,,,,,,,1267.771836699918,1267.771836699918,1267.771836699918,1267.771836699918,1267.771836699918,down,1.6931783999316394,7,1,0,99,0,-0.08,down,1.613013899885118,,,,,,,,,,,,,,,,,,,,,,,,,,,,,,,,,,,,,,,,,,,,,,,,,,,,,,,,,,,,PCKZKF,train_y,red_square,top_left,2025-03-06_15h42.09.645,HideSeek_v1,2022.2.5,60.32232631492774,
,2,6,2,1,0,-5,11,,train_dim1_1,18,30,,,,2,0,2,0,,,,,,,,,0,0,0,0,0,17,17,17,2,0,2,0,,,,,,,,,,,,,,,,,,,,,,,,,,,,,,,,,,,,,,,,,,,,,,,,,,,,,,,,,,,,,,,,30,,,,,,,,1269.4791339999065,1269.4791339999065,1269.4791339999065,1269.4791339999065,1269.4791339999065,down,0.21204379992559552,7,1,0,99,0,-0.16,down,0.12406900012865663,,,,,,,,,,,,,,,,,,,,,,,,,,,,,,,,,,,,,,,,,,,,,,,,,,,,,,,,,,,,PCKZKF,train_y,red_square,top_left,2025-03-06_15h42.09.645,HideSeek_v1,2022.2.5,60.32232631492774,
,2,6,2,1,0,-5,11,,train_dim1_1,18,30,,,,2,0,2,0,,,,,,,,,0,0,0,0,0,17,17,17,3,0,3,0,,,,,,,,,,,,,,,,,,,,,,,,,,,,,,,,,,,,,,,,,,,,,,,,,,,,,,,,,,,,,,,,30,,,,,,,,1269.6998413000256,1269.6998413000256,1269.6998413000256,1269.6998413000256,1269.6998413000256,return,0.6346706999465823,7,0,0,0,0,-0.16,return,0.5459525003097951,-53,2,0,-0.16,,,,,,,,,,,,,,,,,,,,,,,,,,,,,,,,,,,,,,,,,,,,,,,,,,,,,,,,PCKZKF,train_y,red_square,top_left,2025-03-06_15h42.09.645,HideSeek_v1,2022.2.5,60.32232631492774,
,0,9,0,5,0,-4,12,,train_dim1_1,19,30,,,,2,0,2,0,,,,,,,,,0,0,0,0,0,18,18,18,0,0,0,0,,,,,,,,,,,,,,,,,,,,,,,,,stimuli/alien_stimuli/12.png,,,,,,,,,,,,,,,,,,,,,,,,,,,,,stimuli/alien_stimuli/11.png,11,2,20,,,,,,,30,,,,,,,,1276.750289299991,1276.750289299991,1276.750289299991,1276.750289299991,1276.750289299991,down,1.5392712000757456,7,0,0,99,-0.16,0.24,down,1.4582429002039135,,,,,1275.19231629977,1276.750289299991,0,-0.32,0.4,0.0,-0.12,0,0.0,0,-0.32,1271.9066789001226,1271.9066789001226,1271.9066789001226,1271.9066789001226,1271.9066789001226,1271.9066789001226,1271.9066789001226,1271.9066789001226,1271.9061793196015,3.404900999739766,return,3.2564966999925673,,,,,,,,,,,,,,,,,,,,,,,,,,,,,,,,,PCKZKF,train_y,red_square,top_left,2025-03-06_15h42.09.645,HideSeek_v1,2022.2.5,60.32232631492774,
,0,9,0,5,0,-4,12,,train_dim1_1,19,30,,,,2,0,2,0,,,,,,,,,0,0,0,0,0,18,18,18,1,0,1,0,,,,,,,,,,,,,,,,,,,,,,,,,,,,,,,,,,,,,,,,,,,,,,,,,,,,,,,,,,,,,,,,30,,,,,,,,1278.2969204997644,1278.2969204997644,1278.2969204997644,1278.2969204997644,1278.2969204997644,down,0.42617009999230504,7,0,0,99,-0.16,0.15999999999999998,down,0.34596760012209415,,,,,,,,,,,,,,,,,,,,,,,,,,,,,,,,,,,,,,,,,,,,,,,,,,,,,,,,,,,,PCKZKF,train_y,red_square,top_left,2025-03-06_15h42.09.645,HideSeek_v1,2022.2.5,60.32232631492774,
,0,9,0,5,0,-4,12,,train_dim1_1,19,30,,,,2,0,2,0,,,,,,,,,0,0,0,0,0,18,18,18,2,0,2,0,,,,,,,,,,,,,,,,,,,,,,,,,,,,,,,,,,,,,,,,,,,,,,,,,,,,,,,,,,,,,,,,30,,,,,,,,1278.7302584000863,1278.7302584000863,1278.7302584000863,1278.7302584000863,1278.7302584000863,down,0.9600136000663042,7,0,0,99,-0.16,0.07999999999999997,down,0.8676490001380444,,,,,,,,,,,,,,,,,,,,,,,,,,,,,,,,,,,,,,,,,,,,,,,,,,,,,,,,,,,,PCKZKF,train_y,red_square,top_left,2025-03-06_15h42.09.645,HideSeek_v1,2022.2.5,60.32232631492774,
,0,9,0,5,0,-4,12,,train_dim1_1,19,30,,,,2,0,2,0,,,,,,,,,0,0,0,0,0,18,18,18,3,0,3,0,,,,,,,,,,,,,,,,,,,,,,,,,,,,,,,,,,,,,,,,,,,,,,,,,,,,,,,,,,,,,,,,30,,,,,,,,1279.6968618999235,1279.6968618999235,1279.6968618999235,1279.6968618999235,1279.6968618999235,return,0.8270583995617926,7,1,0,0,-0.16,0.07999999999999997,return,0.7360183000564575,-56,2,-0.16,0.07999999999999997,,,,,,,,,,,,,,,,,,,,,,,,,,,,,,,,,,,,,,,,,,,,,,,,,,,,,,,,PCKZKF,train_y,red_square,top_left,2025-03-06_15h42.09.645,HideSeek_v1,2022.2.5,60.32232631492774,
,2,5,2,5,0,0,16,,train_dim1_1,20,30,,,,2,0,2,0,,,,,,,,,0,0,0,0,0,19,19,19,0,0,0,0,,,,,,,,,,,,,,,,,,,,,,,,,stimuli/alien_stimuli/16.png,,,,,,,,,,,,,,,,,,,,,,,,,,,,,stimuli/alien_stimuli/12.png,12,0,21,,,,,,,30,,,,,,,,1286.1807507001795,1286.1807507001795,1286.1807507001795,1286.1807507001795,1286.1807507001795,return,3.2908237003721297,8,0,0,1,0,0,return,3.1992458002641797,-56,2,0,0,1284.6168690999039,1286.1807507001795,-0.16,0,0.32,0.0,0.16,-0.16,-0.16,-0.16,0,1282.0944944000803,1282.0944944000803,1282.0944944000803,1282.0944944000803,1282.0944944000803,1282.0944944000803,1282.0944944000803,1282.0944944000803,1282.0812384297606,2.6378158000297844,return,2.504810799844563,,,,,,,,,,,,,,,,,,,,,,,,,,,,,,,,,PCKZKF,train_y,red_square,top_left,2025-03-06_15h42.09.645,HideSeek_v1,2022.2.5,60.32232631492774,
,2,9,2,8,0,-1,15,,train_dim1_1,21,30,,,,2,0,2,0,,,,,,,,,0,0,0,0,0,20,20,20,0,0,0,0,,,,,,,,,,,,,,,,,,,,,,,,,stimuli/alien_stimuli/15.png,,,,,,,,,,,,,,,,,,,,,,,,,,,,,stimuli/alien_stimuli/16.png,16,2,22,,,,,,,30,,,,,,,,1294.8142629000358,1294.8142629000358,1294.8142629000358,1294.8142629000358,1294.8142629000358,down,0.8900717999786139,8,0,0,99,0,0.24,down,0.8112778998911381,,,,,1293.257241900079,1294.8142629000358,0,0,0.0,0.0,0.0,0,0.0,0,0,1291.0225999997929,1291.0225999997929,1291.0225999997929,1291.0225999997929,1291.0225999997929,1291.0225999997929,1291.0225999997929,1291.0225999997929,1291.0220359296072,2.3371582999825478,return,2.2125852000899613,,,,,,,,,,,,,,,,,,,,,,,,,,,,,,,,,PCKZKF,train_y,red_square,top_left,2025-03-06_15h42.09.645,HideSeek_v1,2022.2.5,60.32232631492774,
,2,9,2,8,0,-1,15,,train_dim1_1,21,30,,,,2,0,2,0,,,,,,,,,0,0,0,0,0,20,20,20,1,0,1,0,,,,,,,,,,,,,,,,,,,,,,,,,,,,,,,,,,,,,,,,,,,,,,,,,,,,,,,,,,,,,,,,30,,,,,,,,1295.715982499998,1295.715982499998,1295.715982499998,1295.715982499998,1295.715982499998,return,0.5591102000325918,9,0,0,1,0,0.24,return,0.4768542004749179,-57,2,0,0.24,,,,,,,,,,,,,,,,,,,,,,,,,,,,,,,,,,,,,,,,,,,,,,,,,,,,,,,,PCKZKF,train_y,red_square,top_left,2025-03-06_15h42.09.645,HideSeek_v1,2022.2.5,60.32232631492774,
,0,7,0,4,0,-3,13,,train_dim1_1,22,30,,,,2,0,2,0,,,,,,,,,0,0,0,0,0,21,21,21,0,0,0,0,,,,,,,,,,,,,,,,,,,,,,,,,stimuli/alien_stimuli/13.png,,,,,,,,,,,,,,,,,,,,,,,,,,,,,stimuli/alien_stimuli/15.png,15,2,23,,,,,,,30,,,,,,,,1302.9401699998416,1302.9401699998416,1302.9401699998416,1302.9401699998416,1302.9401699998416,down,2.4568091998808086,9,0,0,99,-0.16,0.08,down,2.3688444001600146,,,,,1301.3805955997668,1302.9401699998416,0,0.24,0.08,0.0,0.28,0,0.0,0,0.24,1297.8430510000326,1297.8430510000326,1297.8430510000326,1297.8430510000326,1297.8430510000326,1297.8430510000326,1297.8430510000326,1297.8430510000326,1297.8444001199678,3.655209499876946,return,3.51297859987244,,,,,,,,,,,,,,,,,,,,,,,,,,,,,,,,,PCKZKF,train_y,red_square,top_left,2025-03-06_15h42.09.645,HideSeek_v1,2022.2.5,60.32232631492774,
,0,7,0,4,0,-3,13,,train_dim1_1,22,30,,,,2,0,2,0,,,,,,,,,0,0,0,0,0,21,21,21,1,0,1,0,,,,,,,,,,,,,,,,,,,,,,,,,,,,,,,,,,,,,,,,,,,,,,,,,,,,,,,,,,,,,,,,30,,,,,,,,1305.4028555001132,1305.4028555001132,1305.4028555001132,1305.4028555001132,1305.4028555001132,down,0.4260457996279001,9,0,0,99,-0.16,0.0,down,0.3373855999670923,,,,,,,,,,,,,,,,,,,,,,,,,,,,,,,,,,,,,,,,,,,,,,,,,,,,,,,,,,,,PCKZKF,train_y,red_square,top_left,2025-03-06_15h42.09.645,HideSeek_v1,2022.2.5,60.32232631492774,
,0,7,0,4,0,-3,13,,train_dim1_1,22,30,,,,2,0,2,0,,,,,,,,,0,0,0,0,0,21,21,21,2,0,2,0,,,,,,,,,,,,,,,,,,,,,,,,,,,,,,,,,,,,,,,,,,,,,,,,,,,,,,,,,,,,,,,,30,,,,,,,,1305.8381608999334,1305.8381608999334,1305.8381608999334,1305.8381608999334,1305.8381608999334,down,0.4764251997694373,9,0,0,99,-0.16,-0.08,down,0.3916603000834584,,,,,,,,,,,,,,,,,,,,,,,,,,,,,,,,,,,,,,,,,,,,,,,,,,,,,,,,,,,,PCKZKF,train_y,red_square,top_left,2025-03-06_15h42.09.645,HideSeek_v1,2022.2.5,60.32232631492774,
,0,7,0,4,0,-3,13,,train_dim1_1,22,30,,,,2,0,2,0,,,,,,,,,0,0,0,0,0,21,21,21,3,0,3,0,,,,,,,,,,,,,,,,,,,,,,,,,,,,,,,,,,,,,,,,,,,,,,,,,,,,,,,,,,,,,,,,30,,,,,,,,1306.3189828000031,1306.3189828000031,1306.3189828000031,1306.3189828000031,1306.3189828000031,down,0.5760090001858771,9,0,0,99,-0.16,-0.16,down,0.4939911002293229,,,,,,,,,,,,,,,,,,,,,,,,,,,,,,,,,,,,,,,,,,,,,,,,,,,,,,,,,,,,PCKZKF,train_y,red_square,top_left,2025-03-06_15h42.09.645,HideSeek_v1,2022.2.5,60.32232631492774,
,0,7,0,4,0,-3,13,,train_dim1_1,22,30,,,,2,0,2,0,,,,,,,,,0,0,0,0,0,21,21,21,4,0,4,0,,,,,,,,,,,,,,,,,,,,,,,,,,,,,,,,,,,,,,,,,,,,,,,,,,,,,,,,,,,,,,,,30,,,,,,,,1306.9047198998742,1306.9047198998742,1306.9047198998742,1306.9047198998742,1306.9047198998742,down,0.4764338000677526,9,0,0,99,-0.16,-0.24,down,0.38894870039075613,,,,,,,,,,,,,,,,,,,,,,,,,,,,,,,,,,,,,,,,,,,,,,,,,,,,,,,,,,,,PCKZKF,train_y,red_square,top_left,2025-03-06_15h42.09.645,HideSeek_v1,2022.2.5,60.32232631492774,
,0,7,0,4,0,-3,13,,train_dim1_1,22,30,,,,2,0,2,0,,,,,,,,,0,0,0,0,0,21,21,21,5,0,5,0,,,,,,,,,,,,,,,,,,,,,,,,,,,,,,,,,,,,,,,,,,,,,,,,,,,,,,,,,,,,,,,,30,,,,,,,,1307.3866296000779,1307.3866296000779,1307.3866296000779,1307.3866296000779,1307.3866296000779,return,0.6591466995887458,9,0,0,0,-0.16,-0.24,return,0.5694371000863612,-62,2,-0.16,-0.24,,,,,,,,,,,,,,,,,,,,,,,,,,,,,,,,,,,,,,,,,,,,,,,,,,,,,,,,PCKZKF,train_y,red_square,top_left,2025-03-06_15h42.09.645,HideSeek_v1,2022.2.5,60.32232631492774,
,0,8,0,3,0,-5,11,,train_dim1_1,23,30,,,,2,0,2,0,,,,,,,,,0,0,0,0,0,22,22,22,0,0,0,0,,,,,,,,,,,,,,,,,,,,,,,,,stimuli/alien_stimuli/11.png,,,,,,,,,,,,,,,,,,,,,,,,,,,,,stimuli/alien_stimuli/13.png,13,0,24,,,,,,,30,,,,,,,,1313.8478227001615,1313.8478227001615,1313.8478227001615,1313.8478227001615,1313.8478227001615,down,1.4890681002289057,9,0,0,99,-0.16,0.15999999999999998,down,1.3963921000249684,,,,,1312.289767500013,1313.8478227001615,-0.16,-0.08,0.24,0.0,0.04,-0.16,-0.16,-0.16,-0.08,1309.621402299963,1309.621402299963,1309.621402299963,1309.621402299963,1309.621402299963,1309.621402299963,1309.621402299963,1309.621402299963,1309.620928419754,2.7876959000714123,return,2.636266900226474,,,,,,,,,,,,,,,,,,,,,,,,,,,,,,,,,PCKZKF,train_y,red_square,top_left,2025-03-06_15h42.09.645,HideSeek_v1,2022.2.5,60.32232631492774,
,0,8,0,3,0,-5,11,,train_dim1_1,23,30,,,,2,0,2,0,,,,,,,,,0,0,0,0,0,22,22,22,1,0,1,0,,,,,,,,,,,,,,,,,,,,,,,,,,,,,,,,,,,,,,,,,,,,,,,,,,,,,,,,,,,,,,,,30,,,,,,,,1315.3448429000564,1315.3448429000564,1315.3448429000564,1315.3448429000564,1315.3448429000564,down,0.3590734996832907,9,0,0,99,-0.16,0.07999999999999997,down,0.27163240034133196,,,,,,,,,,,,,,,,,,,,,,,,,,,,,,,,,,,,,,,,,,,,,,,,,,,,,,,,,,,,PCKZKF,train_y,red_square,top_left,2025-03-06_15h42.09.645,HideSeek_v1,2022.2.5,60.32232631492774,
,0,8,0,3,0,-5,11,,train_dim1_1,23,30,,,,2,0,2,0,,,,,,,,,0,0,0,0,0,22,22,22,2,0,2,0,,,,,,,,,,,,,,,,,,,,,,,,,,,,,,,,,,,,,,,,,,,,,,,,,,,,,,,,,,,,,,,,30,,,,,,,,1315.7134903999977,1315.7134903999977,1315.7134903999977,1315.7134903999977,1315.7134903999977,down,0.3094921000301838,9,0,0,99,-0.16,-2.7755575615628914e-17,down,0.2302291002124548,,,,,,,,,,,,,,,,,,,,,,,,,,,,,,,,,,,,,,,,,,,,,,,,,,,,,,,,,,,,PCKZKF,train_y,red_square,top_left,2025-03-06_15h42.09.645,HideSeek_v1,2022.2.5,60.32232631492774,
,0,8,0,3,0,-5,11,,train_dim1_1,23,30,,,,2,0,2,0,,,,,,,,,0,0,0,0,0,22,22,22,3,0,3,0,,,,,,,,,,,,,,,,,,,,,,,,,,,,,,,,,,,,,,,,,,,,,,,,,,,,,,,,,,,,,,,,30,,,,,,,,1316.0288534001447,1316.0288534001447,1316.0288534001447,1316.0288534001447,1316.0288534001447,return,0.36002530017867684,9,0,0,0,-0.16,-2.7755575615628914e-17,return,0.26608970016241074,-65,2,-0.16,-2.7755575615628914e-17,,,,,,,,,,,,,,,,,,,,,,,,,,,,,,,,,,,,,,,,,,,,,,,,,,,,,,,,PCKZKF,train_y,red_square,top_left,2025-03-06_15h42.09.645,HideSeek_v1,2022.2.5,60.32232631492774,
,3,7,3,7,0,0,16,,train_dim1_1,24,30,,,,2,0,2,0,,,,,,,,,0,0,0,0,0,23,23,23,0,0,0,0,,,,,,,,,,,,,,,,,,,,,,,,,stimuli/alien_stimuli/16.png,,,,,,,,,,,,,,,,,,,,,,,,,,,,,stimuli/alien_stimuli/11.png,11,0,25,,,,,,,30,,,,,,,,1322.0203150999732,1322.0203150999732,1322.0203150999732,1322.0203150999732,1322.0203150999732,down,1.9236051999032497,9,0,0,99,0.08,0.08,down,1.8368075001053512,,,,,1320.4632127997465,1322.0203150999732,-0.16,-0.16,0.4,0.0,0.039999999999999994,-0.16,-0.16,-0.16,-0.16,1317.9443125999533,1317.9443125999533,1317.9443125999533,1317.9443125999533,1317.9443125999533,1317.9443125999533,1317.9443125999533,1317.9443125999533,1317.9443390297238,2.620901199989021,return,2.48929540021345,,,,,,,,,,,,,,,,,,,,,,,,,,,,,,,,,PCKZKF,train_y,red_square,top_left,2025-03-06_15h42.09.645,HideSeek_v1,2022.2.5,60.32232631492774,
,3,7,3,7,0,0,16,,train_dim1_1,24,30,,,,2,0,2,0,,,,,,,,,0,0,0,0,0,23,23,23,1,0,1,0,,,,,,,,,,,,,,,,,,,,,,,,,,,,,,,,,,,,,,,,,,,,,,,,,,,,,,,,,,,,,,,,30,,,,,,,,1323.9511858997867,1323.9511858997867,1323.9511858997867,1323.9511858997867,1323.9511858997867,up,0.9933512001298368,9,0,0,99,0.08,0.16,up,0.9060027999803424,,,,,,,,,,,,,,,,,,,,,,,,,,,,,,,,,,,,,,,,,,,,,,,,,,,,,,,,,,,,PCKZKF,train_y,red_square,top_left,2025-03-06_15h42.09.645,HideSeek_v1,2022.2.5,60.32232631492774,
,3,7,3,7,0,0,16,,train_dim1_1,24,30,,,,2,0,2,0,,,,,,,,,0,0,0,0,0,23,23,23,2,0,2,0,,,,,,,,,,,,,,,,,,,,,,,,,,,,,,,,,,,,,,,,,,,,,,,,,,,,,,,,,,,,,,,,30,,,,,,,,1324.9521294999868,1324.9521294999868,1324.9521294999868,1324.9521294999868,1324.9521294999868,return,0.5263319998048246,10,0,0,1,0.08,0.16,return,0.4418342998251319,-65,2,0.08,0.16,,,,,,,,,,,,,,,,,,,,,,,,,,,,,,,,,,,,,,,,,,,,,,,,,,,,,,,,PCKZKF,train_y,red_square,top_left,2025-03-06_15h42.09.645,HideSeek_v1,2022.2.5,60.32232631492774,
,3,8,3,4,0,-4,12,,train_dim1_1,25,30,,,,2,0,2,0,,,,,,,,,0,0,0,0,0,24,24,24,0,0,0,0,,,,,,,,,,,,,,,,,,,,,,,,,stimuli/alien_stimuli/12.png,,,,,,,,,,,,,,,,,,,,,,,,,,,,,stimuli/alien_stimuli/16.png,16,3,26,,,,,,,30,,,,,,,,1331.5801776000299,1331.5801776000299,1331.5801776000299,1331.5801776000299,1331.5801776000299,down,1.855993099976331,10,0,0,99,0.08,0.15999999999999998,down,1.7720669000409544,,,,,1330.0210013999604,1331.5801776000299,0.08,0.16,0.0,0.0,0.16,0.08,0.08,0.08,0.16,1327.0375656997785,1327.0375656997785,1327.0375656997785,1327.0375656997785,1327.0375656997785,1327.0375656997785,1327.0375656997785,1327.0375656997785,1327.0351671299431,3.0883352998644114,return,2.9589692004956305,,,,,,,,,,,,,,,,,,,,,,,,,,,,,,,,,PCKZKF,train_y,red_square,top_left,2025-03-06_15h42.09.645,HideSeek_v1,2022.2.5,60.32232631492774,
,3,8,3,4,0,-4,12,,train_dim1_1,25,30,,,,2,0,2,0,,,,,,,,,0,0,0,0,0,24,24,24,1,0,1,0,,,,,,,,,,,,,,,,,,,,,,,,,,,,,,,,,,,,,,,,,,,,,,,,,,,,,,,,,,,,,,,,30,,,,,,,,1333.4434993998148,1333.4434993998148,1333.4434993998148,1333.4434993998148,1333.4434993998148,down,0.576324500143528,10,0,0,99,0.08,0.07999999999999997,down,0.49592050025239587,,,,,,,,,,,,,,,,,,,,,,,,,,,,,,,,,,,,,,,,,,,,,,,,,,,,,,,,,,,,PCKZKF,train_y,red_square,top_left,2025-03-06_15h42.09.645,HideSeek_v1,2022.2.5,60.32232631492774,
,3,8,3,4,0,-4,12,,train_dim1_1,25,30,,,,2,0,2,0,,,,,,,,,0,0,0,0,0,24,24,24,2,0,2,0,,,,,,,,,,,,,,,,,,,,,,,,,,,,,,,,,,,,,,,,,,,,,,,,,,,,,,,,,,,,,,,,30,,,,,,,,1334.0258029997349,1334.0258029997349,1334.0258029997349,1334.0258029997349,1334.0258029997349,down,0.7602643999271095,10,0,0,99,0.08,-2.7755575615628914e-17,down,0.6741769001819193,,,,,,,,,,,,,,,,,,,,,,,,,,,,,,,,,,,,,,,,,,,,,,,,,,,,,,,,,,,,PCKZKF,train_y,red_square,top_left,2025-03-06_15h42.09.645,HideSeek_v1,2022.2.5,60.32232631492774,
,3,8,3,4,0,-4,12,,train_dim1_1,25,30,,,,2,0,2,0,,,,,,,,,0,0,0,0,0,24,24,24,3,0,3,0,,,,,,,,,,,,,,,,,,,,,,,,,,,,,,,,,,,,,,,,,,,,,,,,,,,,,,,,,,,,,,,,30,,,,,,,,1334.7933294000104,1334.7933294000104,1334.7933294000104,1334.7933294000104,1334.7933294000104,down,0.9101549000479281,10,0,0,99,0.08,-0.08000000000000003,down,0.8202359001152217,,,,,,,,,,,,,,,,,,,,,,,,,,,,,,,,,,,,,,,,,,,,,,,,,,,,,,,,,,,,PCKZKF,train_y,red_square,top_left,2025-03-06_15h42.09.645,HideSeek_v1,2022.2.5,60.32232631492774,
,3,8,3,4,0,-4,12,,train_dim1_1,25,30,,,,2,0,2,0,,,,,,,,,0,0,0,0,0,24,24,24,4,0,4,0,,,,,,,,,,,,,,,,,,,,,,,,,,,,,,,,,,,,,,,,,,,,,,,,,,,,,,,,,,,,,,,,30,,,,,,,,1335.7110298997723,1335.7110298997723,1335.7110298997723,1335.7110298997723,1335.7110298997723,return,0.8434232999570668,11,0,0,1,0.08,-0.08000000000000003,return,0.7638012999668717,-69,2,0.08,-0.08000000000000003,,,,,,,,,,,,,,,,,,,,,,,,,,,,,,,,,,,,,,,,,,,,,,,,,,,,,,,,PCKZKF,train_y,red_square,top_left,2025-03-06_15h42.09.645,HideSeek_v1,2022.2.5,60.32232631492774,
,4,9,4,6,0,-3,13,,train_dim1_1,26,30,,,,2,0,2,0,,,,,,,,,0,0,0,0,0,25,25,25,0,0,0,0,,,,,,,,,,,,,,,,,,,,,,,,,stimuli/alien_stimuli/13.png,,,,,,,,,,,,,,,,,,,,,,,,,,,,,stimuli/alien_stimuli/12.png,12,3,27,,,,,,,30,,,,,,,,1341.5530727999285,1341.5530727999285,1341.5530727999285,1341.5530727999285,1341.5530727999285,down,1.3725326000712812,11,0,0,99,0.16,0.24,down,1.2856870000250638,,,,,1339.9959593000822,1341.5530727999285,0.08,-0.08,0.32,0.0,0.07999999999999999,0.08,0.08,0.08,-0.08,1338.1291518998332,1338.1291518998332,1338.1291518998332,1338.1291518998332,1338.1291518998332,1338.1291518998332,1338.1291518998332,1338.1291518998332,1338.1277348198928,1.9870946002192795,return,1.835218199994415,,,,,,,,,,,,,,,,,,,,,,,,,,,,,,,,,PCKZKF,train_y,red_square,top_left,2025-03-06_15h42.09.645,HideSeek_v1,2022.2.5,60.32232631492774,
,4,9,4,6,0,-3,13,,train_dim1_1,26,30,,,,2,0,2,0,,,,,,,,,0,0,0,0,0,25,25,25,1,0,1,0,,,,,,,,,,,,,,,,,,,,,,,,,,,,,,,,,,,,,,,,,,,,,,,,,,,,,,,,,,,,,,,,30,,,,,,,,1342.9334291997366,1342.9334291997366,1342.9334291997366,1342.9334291997366,1342.9334291997366,down,0.6095137000083923,11,0,0,99,0.16,0.15999999999999998,down,0.527859500143677,,,,,,,,,,,,,,,,,,,,,,,,,,,,,,,,,,,,,,,,,,,,,,,,,,,,,,,,,,,,PCKZKF,train_y,red_square,top_left,2025-03-06_15h42.09.645,HideSeek_v1,2022.2.5,60.32232631492774,
,4,9,4,6,0,-3,13,,train_dim1_1,26,30,,,,2,0,2,0,,,,,,,,,0,0,0,0,0,25,25,25,2,0,2,0,,,,,,,,,,,,,,,,,,,,,,,,,,,,,,,,,,,,,,,,,,,,,,,,,,,,,,,,,,,,,,,,30,,,,,,,,1343.553830999881,1343.553830999881,1343.553830999881,1343.553830999881,1343.553830999881,down,0.4759108000434935,11,0,0,99,0.16,0.07999999999999997,down,0.3895934000611305,,,,,,,,,,,,,,,,,,,,,,,,,,,,,,,,,,,,,,,,,,,,,,,,,,,,,,,,,,,,PCKZKF,train_y,red_square,top_left,2025-03-06_15h42.09.645,HideSeek_v1,2022.2.5,60.32232631492774,
,4,9,4,6,0,-3,13,,train_dim1_1,26,30,,,,2,0,2,0,,,,,,,,,0,0,0,0,0,25,25,25,3,0,3,0,,,,,,,,,,,,,,,,,,,,,,,,,,,,,,,,,,,,,,,,,,,,,,,,,,,,,,,,,,,,,,,,30,,,,,,,,1344.0360165000893,1344.0360165000893,1344.0360165000893,1344.0360165000893,1344.0360165000893,down,0.5268949996680021,11,0,0,99,0.16,-2.7755575615628914e-17,down,0.4349105004221201,,,,,,,,,,,,,,,,,,,,,,,,,,,,,,,,,,,,,,,,,,,,,,,,,,,,,,,,,,,,PCKZKF,train_y,red_square,top_left,2025-03-06_15h42.09.645,HideSeek_v1,2022.2.5,60.32232631492774,
,4,9,4,6,0,-3,13,,train_dim1_1,26,30,,,,2,0,2,0,,,,,,,,,0,0,0,0,0,25,25,25,4,0,4,0,,,,,,,,,,,,,,,,,,,,,,,,,,,,,,,,,,,,,,,,,,,,,,,,,,,,,,,,,,,,,,,,30,,,,,,,,1344.5687460000627,1344.5687460000627,1344.5687460000627,1344.5687460000627,1344.5687460000627,up,1.7108783000148833,11,0,0,99,0.16,0.07999999999999997,up,1.621777500025928,,,,,,,,,,,,,,,,,,,,,,,,,,,,,,,,,,,,,,,,,,,,,,,,,,,,,,,,,,,,PCKZKF,train_y,red_square,top_left,2025-03-06_15h42.09.645,HideSeek_v1,2022.2.5,60.32232631492774,
,4,9,4,6,0,-3,13,,train_dim1_1,26,30,,,,2,0,2,0,,,,,,,,,0,0,0,0,0,25,25,25,5,0,5,0,,,,,,,,,,,,,,,,,,,,,,,,,,,,,,,,,,,,,,,,,,,,,,,,,,,,,,,,,,,,,,,,30,,,,,,,,1346.285511800088,1346.285511800088,1346.285511800088,1346.285511800088,1346.285511800088,return,0.3763964003883302,12,0,0,1,0.16,0.07999999999999997,return,0.28934350050985813,-72,2,0.16,0.07999999999999997,,,,,,,,,,,,,,,,,,,,,,,,,,,,,,,,,,,,,,,,,,,,,,,,,,,,,,,,PCKZKF,train_y,red_square,top_left,2025-03-06_15h42.09.645,HideSeek_v1,2022.2.5,60.32232631492774,
,3,9,3,9,0,0,16,,train_dim1_1,27,30,,,,2,0,2,0,,,,,,,,,0,0,0,0,0,26,26,26,0,0,0,0,,,,,,,,,,,,,,,,,,,,,,,,,stimuli/alien_stimuli/16.png,,,,,,,,,,,,,,,,,,,,,,,,,,,,,stimuli/alien_stimuli/13.png,13,4,28,,,,,,,30,,,,,,,,1351.3453772999346,1351.3453772999346,1351.3453772999346,1351.3453772999346,1351.3453772999346,return,2.406179000157863,13,0,0,1,0.08,0.32,return,2.313866600394249,-72,2,0.08,0.32,1349.787392700091,1351.3453772999346,0.16,0.08,0.24,0.0,0.2,0.16,0.16,0.16,0.08,1348.218884699978,1348.218884699978,1348.218884699978,1348.218884699978,1348.218884699978,1348.218884699978,1348.218884699978,1348.218884699978,1348.21954342979,1.6701456001028419,return,1.5440309001132846,,,,,,,,,,,,,,,,,,,,,,,,,,,,,,,,,PCKZKF,train_y,red_square,top_left,2025-03-06_15h42.09.645,HideSeek_v1,2022.2.5,60.32232631492774,
,4,6,4,1,0,-5,11,,train_dim1_1,28,30,,,,2,0,2,0,,,,,,,,,0,0,0,0,0,27,27,27,0,0,0,0,,,,,,,,,,,,,,,,,,,,,,,,,stimuli/alien_stimuli/11.png,,,,,,,,,,,,,,,,,,,,,,,,,,,,,stimuli/alien_stimuli/16.png,16,3,29,,,,,,,30,,,,,,,,1360.9185588001274,1360.9185588001274,1360.9185588001274,1360.9185588001274,1360.9185588001274,down,2.057348699774593,13,0,0,99,0.16,0.0,down,1.9641975997947156,,,,,1359.362116099801,1360.9185588001274,0.08,0.32,0.0,0.0,0.32,0.08,0.08,0.08,0.32,1355.310349599924,1355.310349599924,1355.310349599924,1355.310349599924,1355.310349599924,1355.310349599924,1355.310349599924,1355.310349599924,1355.308719829889,4.155569599941373,return,4.034692600369453,,,,,,,,,,,,,,,,,,,,,,,,,,,,,,,,,PCKZKF,train_y,red_square,top_left,2025-03-06_15h42.09.645,HideSeek_v1,2022.2.5,60.32232631492774,
,4,6,4,1,0,-5,11,,train_dim1_1,28,30,,,,2,0,2,0,,,,,,,,,0,0,0,0,0,27,27,27,1,0,1,0,,,,,,,,,,,,,,,,,,,,,,,,,,,,,,,,,,,,,,,,,,,,,,,,,,,,,,,,,,,,,,,,30,,,,,,,,1362.9837250998244,1362.9837250998244,1362.9837250998244,1362.9837250998244,1362.9837250998244,down,0.459553400054574,13,0,0,99,0.16,-0.08,down,0.3669112999923527,,,,,,,,,,,,,,,,,,,,,,,,,,,,,,,,,,,,,,,,,,,,,,,,,,,,,,,,,,,,PCKZKF,train_y,red_square,top_left,2025-03-06_15h42.09.645,HideSeek_v1,2022.2.5,60.32232631492774,
,4,6,4,1,0,-5,11,,train_dim1_1,28,30,,,,2,0,2,0,,,,,,,,,0,0,0,0,0,27,27,27,2,0,2,0,,,,,,,,,,,,,,,,,,,,,,,,,,,,,,,,,,,,,,,,,,,,,,,,,,,,,,,,,,,,,,,,30,,,,,,,,1363.449240999762,1363.449240999762,1363.449240999762,1363.449240999762,1363.449240999762,down,0.426401499658823,13,0,0,99,0.16,-0.16,down,0.34332540025934577,,,,,,,,,,,,,,,,,,,,,,,,,,,,,,,,,,,,,,,,,,,,,,,,,,,,,,,,,,,,PCKZKF,train_y,red_square,top_left,2025-03-06_15h42.09.645,HideSeek_v1,2022.2.5,60.32232631492774,
,4,6,4,1,0,-5,11,,train_dim1_1,28,30,,,,2,0,2,0,,,,,,,,,0,0,0,0,0,27,27,27,3,0,3,0,,,,,,,,,,,,,,,,,,,,,,,,,,,,,,,,,,,,,,,,,,,,,,,,,,,,,,,,,,,,,,,,30,,,,,,,,1363.8848158000037,1363.8848158000037,1363.8848158000037,1363.8848158000037,1363.8848158000037,down,0.8768482999876142,13,0,0,99,0.16,-0.24,down,0.795909299980849,,,,,,,,,,,,,,,,,,,,,,,,,,,,,,,,,,,,,,,,,,,,,,,,,,,,,,,,,,,,PCKZKF,train_y,red_square,top_left,2025-03-06_15h42.09.645,HideSeek_v1,2022.2.5,60.32232631492774,
,4,6,4,1,0,-5,11,,train_dim1_1,28,30,,,,2,0,2,0,,,,,,,,,0,0,0,0,0,27,27,27,4,0,4,0,,,,,,,,,,,,,,,,,,,,,,,,,,,,,,,,,,,,,,,,,,,,,,,,,,,,,,,,,,,,,,,,30,,,,,,,,1364.7681664000265,1364.7681664000265,1364.7681664000265,1364.7681664000265,1364.7681664000265,return,0.9936106000095606,13,1,0,0,0.16,-0.24,return,0.9075950998812914,-76,2,0.16,-0.24,,,,,,,,,,,,,,,,,,,,,,,,,,,,,,,,,,,,,,,,,,,,,,,,,,,,,,,,PCKZKF,train_y,red_square,top_left,2025-03-06_15h42.09.645,HideSeek_v1,2022.2.5,60.32232631492774,
,2,7,2,3,0,-4,12,,train_dim1_1,29,30,,,,2,0,2,0,,,,,,,,,0,0,0,0,0,28,28,28,0,0,0,0,,,,,,,,,,,,,,,,,,,,,,,,,stimuli/alien_stimuli/12.png,,,,,,,,,,,,,,,,,,,,,,,,,,,,,stimuli/alien_stimuli/11.png,11,4,30,,,,,,,30,,,,,,,,1370.8458201000467,1370.8458201000467,1370.8458201000467,1370.8458201000467,1370.8458201000467,down,1.0713683003559709,13,1,0,99,0,0.08,down,0.9937893003225327,,,,,1369.2869107997976,1370.8458201000467,0.16,-0.32,0.4,0.0,-0.12,0.16,0.16,0.16,-0.32,1367.334464199841,1367.334464199841,1367.334464199841,1367.334464199841,1367.334464199841,1367.334464199841,1367.334464199841,1367.334464199841,1367.3353335196152,2.070420099887997,return,1.9241330004297197,,,,,,,,,,,,,,,,,,,,,,,,,,,,,,,,,PCKZKF,train_y,red_square,top_left,2025-03-06_15h42.09.645,HideSeek_v1,2022.2.5,60.32232631492774,
,2,7,2,3,0,-4,12,,train_dim1_1,29,30,,,,2,0,2,0,,,,,,,,,0,0,0,0,0,28,28,28,1,0,1,0,,,,,,,,,,,,,,,,,,,,,,,,,,,,,,,,,,,,,,,,,,,,,,,,,,,,,,,,,,,,,,,,30,,,,,,,,1371.9248596997932,1371.9248596997932,1371.9248596997932,1371.9248596997932,1371.9248596997932,down,0.3758600000292063,13,1,0,99,0,0.0,down,0.2938835001550615,,,,,,,,,,,,,,,,,,,,,,,,,,,,,,,,,,,,,,,,,,,,,,,,,,,,,,,,,,,,PCKZKF,train_y,red_square,top_left,2025-03-06_15h42.09.645,HideSeek_v1,2022.2.5,60.32232631492774,
,2,7,2,3,0,-4,12,,train_dim1_1,29,30,,,,2,0,2,0,,,,,,,,,0,0,0,0,0,28,28,28,2,0,2,0,,,,,,,,,,,,,,,,,,,,,,,,,,,,,,,,,,,,,,,,,,,,,,,,,,,,,,,,,,,,,,,,30,,,,,,,,1372.3088956000283,1372.3088956000283,1372.3088956000283,1372.3088956000283,1372.3088956000283,down,0.3431927002966404,13,1,0,99,0,-0.08,down,0.2562100002542138,,,,,,,,,,,,,,,,,,,,,,,,,,,,,,,,,,,,,,,,,,,,,,,,,,,,,,,,,,,,PCKZKF,train_y,red_square,top_left,2025-03-06_15h42.09.645,HideSeek_v1,2022.2.5,60.32232631492774,
,2,7,2,3,0,-4,12,,train_dim1_1,29,30,,,,2,0,2,0,,,,,,,,,0,0,0,0,0,28,28,28,3,0,3,0,,,,,,,,,,,,,,,,,,,,,,,,,,,,,,,,,,,,,,,,,,,,,,,,,,,,,,,,,,,,,,,,30,,,,,,,,1372.6575234001502,1372.6575234001502,1372.6575234001502,1372.6575234001502,1372.6575234001502,return,1.460745899938047,13,1,0,0,0,-0.08,return,1.3754054000601172,-79,2,0,-0.08,,,,,,,,,,,,,,,,,,,,,,,,,,,,,,,,,,,,,,,,,,,,,,,,,,,,,,,,PCKZKF,train_y,red_square,top_left,2025-03-06_15h42.09.645,HideSeek_v1,2022.2.5,60.32232631492774,
,0,6,0,5,0,-1,15,,train_dim1_1,30,30,,,,2,0,2,0,,,,,,,,,0,0,0,0,0,29,29,29,0,0,0,0,,,,,,,,,,,,,,,,,,,,,,,,,stimuli/alien_stimuli/15.png,,,,,,,,,,,,,,,,,,,,,,,,,,,,,stimuli/alien_stimuli/12.png,12,2,31,,,,,,,30,,,,,,,,1378.5685437000357,1378.5685437000357,1378.5685437000357,1378.5685437000357,1378.5685437000357,down,1.0553170000202954,13,1,0,99,-0.16,0.0,down,0.9719591001048684,,,,,1377.00994420005,1378.5685437000357,0,-0.16,0.32,0.0,0.0,0,0.0,0,-0.16,1375.6766953999177,1375.6766953999177,1375.6766953999177,1375.6766953999177,1375.6766953999177,1375.6766953999177,1375.6766953999177,1375.6766953999177,1375.6754988299217,1.4367428999394178,return,1.3117275000549853,,,,,,,,,,,,,,,,,,,,,,,,,,,,,,,,,PCKZKF,train_y,red_square,top_left,2025-03-06_15h42.09.645,HideSeek_v1,2022.2.5,60.32232631492774,
,0,6,0,5,0,-1,15,,train_dim1_1,30,30,,,,2,0,2,0,,,,,,,,,0,0,0,0,0,29,29,29,1,0,1,0,,,,,,,,,,,,,,,,,,,,,,,,,,,,,,,,,,,,,,,,,,,,,,,,,,,,,,,,,,,,,,,,30,,,,,,,,1379.6310064997524,1379.6310064997524,1379.6310064997524,1379.6310064997524,1379.6310064997524,return,1.0593452001921833,14,0,0,1,-0.16,0.0,return,0.967697000131011,-80,2,-0.16,0.0,,,,,,,,,,,,,,,,,,,,,,,,,,,,,,,,,,,,,,,,,,,,,,,,,,,,,,,,PCKZKF,train_y,red_square,top_left,2025-03-06_15h42.09.645,HideSeek_v1,2022.2.5,60.32232631492774,
,,,,,,,,,,,30,,,,2,0,2,0,,,,,,,,,,,,,,,,,,,,,,,,,,,,,,,,,,,,,,,,,,,,,,,,,,,,,,,,,,,,,,,,,,,,,,,,,,stimuli/alien_stimuli/15.png,15,0,32,21,0.7,0.5833333333333334,1,1,1,30,0,conditions/schedules/train_y_first/red_square_00/top_left/inputTrain_2.1.xlsx,99,1,2,1,0,,,,,,,,,,,1,,,,,,,,,1383.2651534997858,1384.8235110999085,-0.16,0,0.08,0.0,0.04,-0.16,-0.16,-0.16,0,1382.24886910012,1382.24886910012,1382.24886910012,1382.24886910012,1382.24886910012,1382.24886910012,1382.24886910012,1382.24886910012,1382.2476622296963,1.1199201997369528,return,0.9940119003877044,0,0.9,0,1,14,,,,,,,,,,,,,,,,,,,,,,,,,,,,PCKZKF,train_y,red_square,top_left,2025-03-06_15h42.09.645,HideSeek_v1,2022.2.5,60.32232631492774,
,,,,,,,,,,,,,,,3,0,3,0,0,0,0,0,,,,,,,,,,,,,,,,,,,,,,,,,,,,,,,conditions/schedules/train_y_first/red_square_00/top_left/instructions/Slide17.png,conditions/schedules/train_y_first/red_square_00/top_left/instructions/Audio17.wav,1384.8235110999085,1384.8165355599485,17,"[7.997346399817616, 18.558920199982822, 16.87205749982968, 19.56313889985904, 5.103093300014734, 5.20307009993121, 6.070843600202352, 11.822277800180018, 6.03693119995296, 6.860086600296199, 10.552888100035489, 13.903370200190693, 19.600782900117338, 16.569384700153023, 44.37948999973014, 21.65123840002343, 40.741780299693346]","[0.00020370027050375938, 0.030092400033026934, 0.014325299765914679, 0.031943699810653925, 0.048523399978876114, 0.03253190033137798, 0.047868600115180016, 0.049081800039857626, 0.08805650006979704, 0.0823598001152277, 0.09709809999912977, 13.903376699890941, 0.0002189003862440586, 16.56939100008458, 44.379496899899095, 21.65124520007521, 40.741787399630994]",0,,,,,,,,,,,,,,,,,,,,,,,,,,,,,,,,,,,,,,,,,,,,,,,,,,,,,,,,,,,,,,,,,,,,,,,,,,,,,,,,,,,,,,,,,,,,,,,,,,,,,,,,,,,,,,,,,,,,,,,,,,,,PCKZKF,train_y,red_square,top_left,2025-03-06_15h42.09.645,HideSeek_v1,2022.2.5,60.32232631492774,
,,,,,,,,,,,,,,,3,0,3,0,1,0,1,0,,,,,,,,,,,,,,,,,,,,,,,,,,,,,,,conditions/schedules/train_y_first/red_square_00/top_left/instructions/Slide18.png,conditions/schedules/train_y_first/red_square_00/top_left/instructions/Audio18.wav,1425.6338964998722,1425.6341407496948,18,"[7.997346399817616, 18.558920199982822, 16.87205749982968, 19.56313889985904, 5.103093300014734, 5.20307009993121, 6.070843600202352, 11.822277800180018, 6.03693119995296, 6.860086600296199, 10.552888100035489, 13.903370200190693, 19.600782900117338, 16.569384700153023, 44.37948999973014, 21.65123840002343, 40.741780299693346, 6.569254100322723]","[0.00020370027050375938, 0.030092400033026934, 0.014325299765914679, 0.031943699810653925, 0.048523399978876114, 0.03253190033137798, 0.047868600115180016, 0.049081800039857626, 0.08805650006979704, 0.0823598001152277, 0.09709809999912977, 13.903376699890941, 0.0002189003862440586, 16.56939100008458, 44.379496899899095, 21.65124520007521, 0.00023500015959143639, 6.569260800257325]",0,,,,,,,,,,,,,,,,,,,,,,,,,,,,,,,,,,,,,,,,,,,,,,,,,,,,,,,,,,,,,,,,,,,,,,,,,,,,,,,,,,,,,,,,,,,,,,,,,,,,,,,,,,,,,,,,,,,,,,,,,,,,PCKZKF,train_y,red_square,top_left,2025-03-06_15h42.09.645,HideSeek_v1,2022.2.5,60.32232631492774,
,,,,,,,,,,,,,,,3,0,3,0,2,0,2,0,,,,,,,,,,,,,,,,,,,,,,,,,,,,,,,conditions/schedules/train_y_first/red_square_00/top_left/instructions/Slide19.png,conditions/schedules/train_y_first/red_square_00/top_left/instructions/Audio19.wav,1432.2573659997433,1432.255769659765,19,"[7.997346399817616, 18.558920199982822, 16.87205749982968, 19.56313889985904, 5.103093300014734, 5.20307009993121, 6.070843600202352, 11.822277800180018, 6.03693119995296, 6.860086600296199, 10.552888100035489, 13.903370200190693, 19.600782900117338, 16.569384700153023, 44.37948999973014, 21.65123840002343, 40.741780299693346, 6.569254100322723, 10.088060399983078]","[0.00020370027050375938, 0.030092400033026934, 0.014325299765914679, 0.031943699810653925, 0.048523399978876114, 0.03253190033137798, 0.047868600115180016, 0.049081800039857626, 0.08805650006979704, 0.0823598001152277, 0.09709809999912977, 13.903376699890941, 0.0002189003862440586, 16.56939100008458, 44.379496899899095, 21.65124520007521, 0.00023500015959143639, 0.030458999797701836, 10.088066999800503]",0,,,,,,,,,,,,,,,,,,,,,,,,,,,,,,,,,,,,,,,,,,,,,,,,,,,,,,,,,,,,,,,,,,,,,,,,,,,,,,,,,,,,,,,,,,,,,,,,,,,,,,,,,,,,,,,,,,,,,,,,,,,,PCKZKF,train_y,red_square,top_left,2025-03-06_15h42.09.645,HideSeek_v1,2022.2.5,60.32232631492774,
,,,,,,,,,,,,,,,3,0,3,0,3,0,3,0,,,,,,,,,,,,,,,,,,,,,,,,,,,,,,,conditions/schedules/train_y_first/red_square_00/top_left/instructions/Slide20.png,conditions/schedules/train_y_first/red_square_00/top_left/instructions/Audio20.wav,1442.4151229998097,1442.4143905497622,20,"[7.997346399817616, 18.558920199982822, 16.87205749982968, 19.56313889985904, 5.103093300014734, 5.20307009993121, 6.070843600202352, 11.822277800180018, 6.03693119995296, 6.860086600296199, 10.552888100035489, 13.903370200190693, 19.600782900117338, 16.569384700153023, 44.37948999973014, 21.65123840002343, 40.741780299693346, 6.569254100322723, 10.088060399983078, 13.241255299653858]","[0.00020370027050375938, 0.030092400033026934, 0.014325299765914679, 0.031943699810653925, 0.048523399978876114, 0.03253190033137798, 0.047868600115180016, 0.049081800039857626, 0.08805650006979704, 0.0823598001152277, 0.09709809999912977, 13.903376699890941, 0.0002189003862440586, 16.56939100008458, 44.379496899899095, 21.65124520007521, 0.00023500015959143639, 0.030458999797701836, 0.014359899796545506, 13.241262099705637]",0,,,,,,,,,,,,,,,,,,,,,,,,,,,,,,,,,,,,,,,,,,,,,,,,,,,,,,,,,,,,,,,,,,,,,,,,,,,,,,,,,,,,,,,,,,,,,,,,,,,,,,,,,,,,,,,,,,,,,,,,,,,,PCKZKF,train_y,red_square,top_left,2025-03-06_15h42.09.645,HideSeek_v1,2022.2.5,60.32232631492774,
1,3,7,8,7,5,0,66,2,instr_dim1_2,,,,,,3,0,3,0,,,,,0,0,0,0,,,,,,,,,,,,,,,,,,,,,,,,,,,,,,,,,,,,,stimuli/alien_stimuli/66.png,conditions/schedules/train_y_first/red_square_00/top_left/inputInstr_2.xlsx,stimuli/alien_stimuli/66.png,1455.7610255000181,1455.7610255000181,1455.7610255000181,1455.7610255000181,1455.758785329992,return,11.1972973998636,"[-0.16, -0.08, 0, 0.08, 0.16, 0.24, 0.32, 0.4, 0.48, 0.56]","[-0.4, -0.32, -0.24, -0.16, -0.08, 0, 0.08, 0.16, 0.24, 0.32]",7,7,8,3,0.0,0.4,1467.1427226997912,1467.1427226997912,1467.1427226997912,1467.1427226997912,1467.1427226997912,1467.1427226997912,1467.1427226997912,1467.134629899636,6.69014299986884,return,6.513422499876469,stimuli/alien_stimuli/66.png,66,3,1,,,,,,,,,,,,,,,,,,,,,,,,,,,,,,,,,,,,,,,,,,,,,,,,,,,,,,,,,,,,,,,,,,,,,,,,,,,,,,,,,,,,,,,,,PCKZKF,train_y,red_square,top_left,2025-03-06_15h42.09.645,HideSeek_v1,2022.2.5,60.32232631492774,
,,,,,,,,,,,30,,,,3,0,3,0,,,,,,,,,,,,,,,,,,,,,,,,,,,,,,,,,,,,,,,,,,,,,,,,,,,,,,,,,,,,,,,,,,,,,,,,,,,,,,21,0.7,0.5833333333333334,1,99,2,30,0,conditions/schedules/train_y_first/red_square_00/top_left/inputTrain_2.1.xlsx,99,1,2,1,0,,,,,,,,,,,,,,,,,,,,,,,,,,,,,,,,,,,,,,,,,,,,,,,,,,,,,,,,,,,,,,,,,,,,,,,,,,,PCKZKF,train_y,red_square,top_left,2025-03-06_15h42.09.645,HideSeek_v1,2022.2.5,60.32232631492774,
,,,,,,,,,,,,,,,4,0,4,0,0,0,0,0,,,,,,,,,,,,,,,,,,,,,,,,,,,,,,,conditions/schedules/train_y_first/red_square_00/top_left/instructions/Slide21.png,conditions/schedules/train_y_first/red_square_00/top_left/instructions/Audio21.wav,1473.8061621999368,1473.8069080098066,21,"[7.997346399817616, 18.558920199982822, 16.87205749982968, 19.56313889985904, 5.103093300014734, 5.20307009993121, 6.070843600202352, 11.822277800180018, 6.03693119995296, 6.860086600296199, 10.552888100035489, 13.903370200190693, 19.600782900117338, 16.569384700153023, 44.37948999973014, 21.65123840002343, 40.741780299693346, 6.569254100322723, 10.088060399983078, 13.241255299653858, 12.808857099618763]","[0.00020370027050375938, 0.030092400033026934, 0.014325299765914679, 0.031943699810653925, 0.048523399978876114, 0.03253190033137798, 0.047868600115180016, 0.049081800039857626, 0.08805650006979704, 0.0823598001152277, 0.09709809999912977, 13.903376699890941, 0.0002189003862440586, 16.56939100008458, 44.379496899899095, 21.65124520007521, 0.00023500015959143639, 0.030458999797701836, 0.014359899796545506, 13.241262099705637, 12.808863899670541]",0,,,,,,,,,,,,,,,,,,,,,,,,,,,,,,,,,,,,,,,,,,,,,,,,,,,,,,,,,,,,,,,,,,,,,,,,,,,,,,,,,,,,,,,,,,,,,,,,,,,,,,,,,,,,,,,,,,,,,,,,,,,,PCKZKF,train_y,red_square,top_left,2025-03-06_15h42.09.645,HideSeek_v1,2022.2.5,60.32232631492774,
2,4,5,4,5,0,0,16,2,instr_dim1_2,,,,,,4,0,4,0,,,,,0,0,0,0,,,,,,,,,,,,,,,,,,,,,,,,,,,,,,,,,,,,,stimuli/alien_stimuli/16.png,conditions/schedules/train_y_first/red_square_00/top_left/inputInstr_2.xlsx,stimuli/alien_stimuli/16.png,1486.7144909999333,1486.7144909999333,1486.7144909999333,1486.7144909999333,1486.7008527396247,return,2.6450180001556873,"[-0.16, -0.08, 0, 0.08, 0.16, 0.24, 0.32, 0.4, 0.48, 0.56]","[-0.4, -0.32, -0.24, -0.16, -0.08, 0, 0.08, 0.16, 0.24, 0.32]",5,5,4,4,0.0,0.0,1489.5377930998802,1489.5377930998802,1489.5377930998802,1489.5377930998802,1489.5377930998802,1489.5377930998802,1489.5377930998802,1489.520152509911,6.523268199991435,return,6.34581119986251,stimuli/alien_stimuli/16.png,16,4,2,,,,,,,,,,,,,,,,,,,,,,,,,,,,,,,,,,,,,,,,,,,,,,,,,,,,,,,,,,,,,,,,,,,,,,,,,,,,,,,,,,,,,,,,,PCKZKF,train_y,red_square,top_left,2025-03-06_15h42.09.645,HideSeek_v1,2022.2.5,60.32232631492774,
,,,,,,,,,,,30,,,,4,0,4,0,,,,,,,,,,,,,,,,,,,,,,,,,,,,,,,,,,,,,,,,,,,,,,,,,,,,,,,,,,,,,,,,,,,,,,,,,,,,,,21,0.7,0.5833333333333334,1,99,2,30,0,conditions/schedules/train_y_first/red_square_00/top_left/inputTrain_2.1.xlsx,99,1,2,1,0,,,,,,,,,,,,,,,,,,,,,,,,,,,,,,,,,,,,,,,,,,,,,,,,,,,,,,,,,,,,,,,,,,,,,,,,,,,PCKZKF,train_y,red_square,top_left,2025-03-06_15h42.09.645,HideSeek_v1,2022.2.5,60.32232631492774,
,,,,,,,,,,,,,,,5,0,5,0,0,0,0,0,,,,,,,,,,,,,,,,,,,,,,,,,,,,,,,conditions/schedules/train_y_first/red_square_00/top_left/instructions/Slide22.png,conditions/schedules/train_y_first/red_square_00/top_left/instructions/Audio22.wav,1496.0475646001287,1496.042153709801,22,"[7.997346399817616, 18.558920199982822, 16.87205749982968, 19.56313889985904, 5.103093300014734, 5.20307009993121, 6.070843600202352, 11.822277800180018, 6.03693119995296, 6.860086600296199, 10.552888100035489, 13.903370200190693, 19.600782900117338, 16.569384700153023, 44.37948999973014, 21.65123840002343, 40.741780299693346, 6.569254100322723, 10.088060399983078, 13.241255299653858, 12.808857099618763, 30.951057699974626]","[0.00020370027050375938, 0.030092400033026934, 0.014325299765914679, 0.031943699810653925, 0.048523399978876114, 0.03253190033137798, 0.047868600115180016, 0.049081800039857626, 0.08805650006979704, 0.0823598001152277, 0.09709809999912977, 13.903376699890941, 0.0002189003862440586, 16.56939100008458, 44.379496899899095, 21.65124520007521, 0.00023500015959143639, 0.030458999797701836, 0.014359899796545506, 13.241262099705637, 12.808863899670541, 30.951065000146627]",0,,,,,,,,,,,,,,,,,,,,,,,,,,,,,,,,,,,,,,,,,,,,,,,,,,,,,,,,,,,,,,,,,,,,,,,,,,,,,,,,,,,,,,,,,,,,,,,,,,,,,,,,,,,,,,,,,,,,,,,,,,,,PCKZKF,train_y,red_square,top_left,2025-03-06_15h42.09.645,HideSeek_v1,2022.2.5,60.32232631492774,
,2,6,5,6,3,0,46,,train_dim1_2,1,30,,,,5,0,5,0,,,,,,,,,0,0,0,0,0,0,0,0,0,0,0,0,,,,,,,,,,,,,,,,,,,,,,,,,stimuli/alien_stimuli/46.png,,,,,,,,,,,,,,,,,,,,,,,,,,,,,,,,,,,,,,,30,,,,,,,,1527.0928115998395,1527.0928115998395,1527.0928115998395,1527.0928115998395,1527.0928115998395,right,2.6622854000888765,0,0,0,99,0.08,0.08,right,2.5626444998197258,,,,,,,,,,,,,,,,,,,,,,,,,,,,,,,,,,,,,,,,,,,,,,,,,,,,,,,,,,,,PCKZKF,train_y,red_square,top_left,2025-03-06_15h42.09.645,HideSeek_v1,2022.2.5,60.32232631492774,
,2,6,5,6,3,0,46,,train_dim1_2,1,30,,,,5,0,5,0,,,,,,,,,0,0,0,0,0,0,0,0,1,0,1,0,,,,,,,,,,,,,,,,,,,,,,,,,,,,,,,,,,,,,,,,,,,,,,,,,,,,,,,,,,,,,,,,30,,,,,,,,1529.7515040999278,1529.7515040999278,1529.7515040999278,1529.7515040999278,1529.7515040999278,right,2.7448289999738336,0,0,0,99,0.16,0.08,right,2.671011199709028,,,,,,,,,,,,,,,,,,,,,,,,,,,,,,,,,,,,,,,,,,,,,,,,,,,,,,,,,,,,PCKZKF,train_y,red_square,top_left,2025-03-06_15h42.09.645,HideSeek_v1,2022.2.5,60.32232631492774,
,2,6,5,6,3,0,46,,train_dim1_2,1,30,,,,5,0,5,0,,,,,,,,,0,0,0,0,0,0,0,0,2,0,2,0,,,,,,,,,,,,,,,,,,,,,,,,,,,,,,,,,,,,,,,,,,,,,,,,,,,,,,,,,,,,,,,,30,,,,,,,,1532.502519399859,1532.502519399859,1532.502519399859,1532.502519399859,1532.502519399859,right,0.39291090006008744,0,0,0,99,0.24,0.08,right,0.31528470013290644,,,,,,,,,,,,,,,,,,,,,,,,,,,,,,,,,,,,,,,,,,,,,,,,,,,,,,,,,,,,PCKZKF,train_y,red_square,top_left,2025-03-06_15h42.09.645,HideSeek_v1,2022.2.5,60.32232631492774,
,2,6,5,6,3,0,46,,train_dim1_2,1,30,,,,5,0,5,0,,,,,,,,,0,0,0,0,0,0,0,0,3,0,3,0,,,,,,,,,,,,,,,,,,,,,,,,,,,,,,,,,,,,,,,,,,,,,,,,,,,,,,,,,,,,,,,,30,,,,,,,,1532.902998500038,1532.902998500038,1532.902998500038,1532.902998500038,1532.902998500038,right,0.35989549988880754,0,0,0,99,0.32,0.08,right,0.28195139998570085,,,,,,,,,,,,,,,,,,,,,,,,,,,,,,,,,,,,,,,,,,,,,,,,,,,,,,,,,,,,PCKZKF,train_y,red_square,top_left,2025-03-06_15h42.09.645,HideSeek_v1,2022.2.5,60.32232631492774,
,2,6,5,6,3,0,46,,train_dim1_2,1,30,,,,5,0,5,0,,,,,,,,,0,0,0,0,0,0,0,0,4,0,4,0,,,,,,,,,,,,,,,,,,,,,,,,,,,,,,,,,,,,,,,,,,,,,,,,,,,,,,,,,,,,,,,,30,,,,,,,,1533.2778130001388,1533.2778130001388,1533.2778130001388,1533.2778130001388,1533.2778130001388,return,0.8768922002054751,0,1,0,0,0.32,0.08,return,0.7914783000014722,-80,6,0.32,0.08,,,,,,,,,,,,,,,,,,,,,,,,,,,,,,,,,,,,,,,,,,,,,,,,,,,,,,,,PCKZKF,train_y,red_square,top_left,2025-03-06_15h42.09.645,HideSeek_v1,2022.2.5,60.32232631492774,
