trialInstr,x_fixStart,y_fixStart,x_corrSteps,y_corrSteps,x_nrSteps,y_nrSteps,alienID,trialLength,version,trialTrain,praclen,testlen,trial_label,break_on_off,beforeExpLoop.thisRepN,beforeExpLoop.thisTrialN,beforeExpLoop.thisN,beforeExpLoop.thisIndex,mini_instr_trials.thisRepN,mini_instr_trials.thisTrialN,mini_instr_trials.thisN,mini_instr_trials.thisIndex,instrLoop.thisRepN,instrLoop.thisTrialN,instrLoop.thisN,instrLoop.thisIndex,repeat_prac.thisRepN,repeat_prac.thisTrialN,repeat_prac.thisN,repeat_prac.thisIndex,trainLoop.thisRepN,trainLoop.thisTrialN,trainLoop.thisN,trainLoop.thisIndex,moveLoop_train.thisRepN,moveLoop_train.thisTrialN,moveLoop_train.thisN,moveLoop_train.thisIndex,experiment.thisRepN,experiment.thisTrialN,experiment.thisN,experiment.thisIndex,moveLoop_test.thisRepN,moveLoop_test.thisTrialN,moveLoop_test.thisN,moveLoop_test.thisIndex,mini_instr2_trials.thisRepN,mini_instr2_trials.thisTrialN,mini_instr2_trials.thisN,mini_instr2_trials.thisIndex,start_all_time,url,slideStim,audioStim,slides.started,sounds.started,nextButton.numClicks,nextButton.timesOn,nextButton.timesOff,prev_but.numClicks,prev_but.timesOn,prev_but.timesOff,alienStim,instrFile,alienStim_instr,gridImage_instr.started,startPos_3.started,key_instr.started,alienImage_3.started,sounds_1.started,key_instr.keys,key_instr.rt,all_x,all_y,FBy_corrSteps,FBy_fixStart,FBx_corrSteps,FBx_fixStart,FBy_pathSize_check,FBx_pathSize_check,gridImage_9.started,alienImageFB_3.started,startPosFB_3.started,keyFB_3.started,pathLine_ydir_2.started,pathLine_xdir_2.started,alienFace_3.started,sounds_2.started,RTFB_instr,keyFB_3.keys,keyFB_3.rt,draw_alienStim,draw_alienID,test_x,nrepcount,perfthres,percthres,earlierperf,earlystop,nextPrac,fileidx,praclen,saveACC_train,pracFile,nextPrac_train,addNrep,fileidx_endr,repExp,showearly,gridImage_4.started,startPos.started,movePos.started,key_resp.started,alienImage.started,buttonPress_train,RTchoice_train,cumAcctrain,aCorr,saveACC_choice,corrAns,x_movePos_end,y_movePos_end,key_resp.keys,key_resp.rt,wLy_dir,wLx_dir,x_movePos,y_movePos,text_2.started,text_2.stopped,aft_x_corrPos,aft_y_corrPos,y_pathSize_check,x_pathSize_check,y_pathdirY,x_pathdirY,x_pathdirX,x_corrPos,y_corrPos,gridImage_6.started,alienImageFB_2.started,startPosFB_2.started,movePosFB_2.started,keyFB_2.started,pathLine_xdir.started,pathLine_ydir.started,alienFace.started,sounds_4.started,RT_FBtrain,keyFB_2.keys,keyFB_2.rt,saveACC_pre,ACC,within_saveACC_train,earlystop_wloop,cumAcctrain_check,gridImage_3.started,alienImage_test.started,startPos_test.started,movePos_test.started,key_resp_test.started,wLy_dir_test,wLx_dir_test,buttonPress_test,RTchoice_test,cumAcctest,corrAns_test,key_resp_test.keys,key_resp_test.rt,text_3.started,text_3.stopped,total_time,end_all_time,key_resp_3.keys,slides_2.started,sounds_3.started,nextButton_2.numClicks,nextButton_2.timesOn,nextButton_2.timesOff,prev_but_2.numClicks,prev_but_2.timesOn,prev_but_2.timesOff,bye.started,participant,train_first,00_coordinate,starting corner,date,expName,psychopyVersion,frameRate,
,,,,,,,,,,,,,,,0,0,0,0,0,0,0,0,,,,,,,,,,,,,,,,,,,,,,,,,,,,,start_all_time,testround,conditions/schedules/train_x_first/red_square_00/top_left/instructions/Slide1.png,conditions/schedules/train_x_first/red_square_00/top_left/instructions/Audio1.wav,1289.9740824999753,1289.925216700649,1,[8.886751299956813],[8.886758900014684],0,,,,,,,,,,,,,,,,,,,,,,,,,,,,,,,,,,,,,,,,,,,,,,,,,,,,,,,,,,,,,,,,,,,,,,,,,,,,,,,,,,,,,,,,,,,,,,,,,,,,,,,,,,,,,,,,,,,,,,,,,,,,PFNPG3,train_x,red_square,top_left,2025-01-31_15h04.22.289,HideSeek_v1,2022.2.5,59.94553347830427,
,,,,,,,,,,,,,,,0,0,0,0,1,0,1,0,,,,,,,,,,,,,,,,,,,,,,,,,,,,,,,conditions/schedules/train_x_first/red_square_00/top_left/instructions/Slide2.png,conditions/schedules/train_x_first/red_square_00/top_left/instructions/Audio2.wav,1298.8792167999782,1298.8657095000146,2,"[8.886751299956813, 18.549836299964227]","[0.1009589999448508, 18.549858700018376]",0,,,,,,,,,,,,,,,,,,,,,,,,,,,,,,,,,,,,,,,,,,,,,,,,,,,,,,,,,,,,,,,,,,,,,,,,,,,,,,,,,,,,,,,,,,,,,,,,,,,,,,,,,,,,,,,,,,,,,,,,,,,,PFNPG3,train_x,red_square,top_left,2025-01-31_15h04.22.289,HideSeek_v1,2022.2.5,59.94553347830427,
,,,,,,,,,,,,,,,0,0,0,0,2,0,2,0,,,,,,,,,,,,,,,,,,,,,,,,,,,,,,,conditions/schedules/train_x_first/red_square_00/top_left/instructions/Slide3.png,conditions/schedules/train_x_first/red_square_00/top_left/instructions/Audio3.wav,1317.510794700007,1317.497994949983,3,"[8.886751299956813, 18.549836299964227, 17.114827399956994]","[0.1009589999448508, 0.013672500033862889, 17.11483540001791]",0,,,,,,,,,,,,,,,,,,,,,,,,,,,,,,,,,,,,,,,,,,,,,,,,,,,,,,,,,,,,,,,,,,,,,,,,,,,,,,,,,,,,,,,,,,,,,,,,,,,,,,,,,,,,,,,,,,,,,,,,,,,,PFNPG3,train_x,red_square,top_left,2025-01-31_15h04.22.289,HideSeek_v1,2022.2.5,59.94553347830427,
,,,,,,,,,,,,,,,0,0,0,0,3,0,3,0,,,,,,,,,,,,,,,,,,,,,,,,,,,,,,,conditions/schedules/train_x_first/red_square_00/top_left/instructions/Slide4.png,conditions/schedules/train_x_first/red_square_00/top_left/instructions/Audio4.wav,1334.7041518000187,1334.6953695499687,4,"[8.886751299956813, 18.549836299964227, 17.114827399956994, 20.35567199997604]","[0.1009589999448508, 0.013672500033862889, 0.0558404999319464, 20.35568059992511]",0,,,,,,,,,,,,,,,,,,,,,,,,,,,,,,,,,,,,,,,,,,,,,,,,,,,,,,,,,,,,,,,,,,,,,,,,,,,,,,,,,,,,,,,,,,,,,,,,,,,,,,,,,,,,,,,,,,,,,,,,,,,,PFNPG3,train_x,red_square,top_left,2025-01-31_15h04.22.289,HideSeek_v1,2022.2.5,59.94553347830427,
,,,,,,,,,,,,,,,0,0,0,0,4,0,4,0,,,,,,,,,,,,,,,,,,,,,,,,,,,,,,,conditions/schedules/train_x_first/red_square_00/top_left/instructions/Slide5.png,conditions/schedules/train_x_first/red_square_00/top_left/instructions/Audio5.wav,1355.1300844999496,1355.1285258499556,5,"[8.886751299956813, 18.549836299964227, 17.114827399956994, 20.35567199997604, 4.800778300035745]","[0.1009589999448508, 0.013672500033862889, 0.0558404999319464, 0.014482200029306114, 4.80078729998786]",0,,,,,,,,,,,,,,,,,,,,,,,,,,,,,,,,,,,,,,,,,,,,,,,,,,,,,,,,,,,,,,,,,,,,,,,,,,,,,,,,,,,,,,,,,,,,,,,,,,,,,,,,,,,,,,,,,,,,,,,,,,,,PFNPG3,train_x,red_square,top_left,2025-01-31_15h04.22.289,HideSeek_v1,2022.2.5,59.94553347830427,
,,,,,,,,,,,,,,,0,0,0,0,5,0,5,0,,,,,,,,,,,,,,,,,,,,,,,,,,,,,,,conditions/schedules/train_x_first/red_square_00/top_left/instructions/Slide6.png,conditions/schedules/train_x_first/red_square_00/top_left/instructions/Audio6.wav,1359.9809508000035,1359.982942900015,6,"[8.886751299956813, 18.549836299964227, 17.114827399956994, 20.35567199997604, 4.800778300035745, 5.1202178000239655]","[0.1009589999448508, 0.013672500033862889, 0.0558404999319464, 0.014482200029306114, 0.09914139995817095, 5.120226599974558]",0,,,,,,,,,,,,,,,,,,,,,,,,,,,,,,,,,,,,,,,,,,,,,,,,,,,,,,,,,,,,,,,,,,,,,,,,,,,,,,,,,,,,,,,,,,,,,,,,,,,,,,,,,,,,,,,,,,,,,,,,,,,,PFNPG3,train_x,red_square,top_left,2025-01-31_15h04.22.289,HideSeek_v1,2022.2.5,59.94553347830427,
,,,,,,,,,,,,,,,0,0,0,0,6,0,6,0,,,,,,,,,,,,,,,,,,,,,,,,,,,,,,,conditions/schedules/train_x_first/red_square_00/top_left/instructions/Slide7.png,conditions/schedules/train_x_first/red_square_00/top_left/instructions/Audio7.wav,1365.151794699952,1365.1539188000372,7,"[8.886751299956813, 18.549836299964227, 17.114827399956994, 20.35567199997604, 4.800778300035745, 5.1202178000239655, 5.954660400049761]","[0.1009589999448508, 0.013672500033862889, 0.0558404999319464, 0.014482200029306114, 0.09914139995817095, 0.09927470004186034, 5.954669099999592]",0,,,,,,,,,,,,,,,,,,,,,,,,,,,,,,,,,,,,,,,,,,,,,,,,,,,,,,,,,,,,,,,,,,,,,,,,,,,,,,,,,,,,,,,,,,,,,,,,,,,,,,,,,,,,,,,,,,,,,,,,,,,,PFNPG3,train_x,red_square,top_left,2025-01-31_15h04.22.289,HideSeek_v1,2022.2.5,59.94553347830427,
,,,,,,,,,,,,,,,0,0,0,0,7,0,7,0,,,,,,,,,,,,,,,,,,,,,,,,,,,,,,,conditions/schedules/train_x_first/red_square_00/top_left/instructions/Slide8.png,conditions/schedules/train_x_first/red_square_00/top_left/instructions/Audio8.wav,1371.158486600034,1371.1590481999795,8,"[8.886751299956813, 18.549836299964227, 17.114827399956994, 20.35567199997604, 4.800778300035745, 5.1202178000239655, 5.954660400049761, 12.175610200036317]","[0.1009589999448508, 0.013672500033862889, 0.0558404999319464, 0.014482200029306114, 0.09914139995817095, 0.09927470004186034, 0.06472630007192492, 12.175619399989955]",0,,,,,,,,,,,,,,,,,,,,,,,,,,,,,,,,,,,,,,,,,,,,,,,,,,,,,,,,,,,,,,,,,,,,,,,,,,,,,,,,,,,,,,,,,,,,,,,,,,,,,,,,,,,,,,,,,,,,,,,,,,,,PFNPG3,train_x,red_square,top_left,2025-01-31_15h04.22.289,HideSeek_v1,2022.2.5,59.94553347830427,
,,,,,,,,,,,,,,,0,0,0,0,8,0,8,0,,,,,,,,,,,,,,,,,,,,,,,,,,,,,,,conditions/schedules/train_x_first/red_square_00/top_left/instructions/Slide9.png,conditions/schedules/train_x_first/red_square_00/top_left/instructions/Audio9.wav,1383.3985568999778,1383.3857227000174,9,"[8.886751299956813, 18.549836299964227, 17.114827399956994, 20.35567199997604, 4.800778300035745, 5.1202178000239655, 5.954660400049761, 12.175610200036317, 6.356746300007217]","[0.1009589999448508, 0.013672500033862889, 0.0558404999319464, 0.014482200029306114, 0.09914139995817095, 0.09927470004186034, 0.06472630007192492, 0.06818820000626147, 6.356762700015679]",0,,,,,,,,,,,,,,,,,,,,,,,,,,,,,,,,,,,,,,,,,,,,,,,,,,,,,,,,,,,,,,,,,,,,,,,,,,,,,,,,,,,,,,,,,,,,,,,,,,,,,,,,,,,,,,,,,,,,,,,,,,,,PFNPG3,train_x,red_square,top_left,2025-01-31_15h04.22.289,HideSeek_v1,2022.2.5,59.94553347830427,
,,,,,,,,,,,,,,,0,0,0,0,9,0,9,0,,,,,,,,,,,,,,,,,,,,,,,,,,,,,,,conditions/schedules/train_x_first/red_square_00/top_left/instructions/Slide10.png,conditions/schedules/train_x_first/red_square_00/top_left/instructions/Audio10.wav,1389.8030925999628,1389.7911687500425,10,"[8.886751299956813, 18.549836299964227, 17.114827399956994, 20.35567199997604, 4.800778300035745, 5.1202178000239655, 5.954660400049761, 12.175610200036317, 6.356746300007217, 7.775140900048427]","[0.1009589999448508, 0.013672500033862889, 0.0558404999319464, 0.014482200029306114, 0.09914139995817095, 0.09927470004186034, 0.06472630007192492, 0.06818820000626147, 0.06854920007754117, 7.775149399996735]",0,,,,,,,,,,,,,,,,,,,,,,,,,,,,,,,,,,,,,,,,,,,,,,,,,,,,,,,,,,,,,,,,,,,,,,,,,,,,,,,,,,,,,,,,,,,,,,,,,,,,,,,,,,,,,,,,,,,,,,,,,,,,PFNPG3,train_x,red_square,top_left,2025-01-31_15h04.22.289,HideSeek_v1,2022.2.5,59.94553347830427,
,,,,,,,,,,,,,,,0,0,0,0,10,0,10,0,,,,,,,,,,,,,,,,,,,,,,,,,,,,,,,conditions/schedules/train_x_first/red_square_00/top_left/instructions/Slide11.png,conditions/schedules/train_x_first/red_square_00/top_left/instructions/Audio11.wav,1397.6329304999672,1397.6311655000084,11,"[8.886751299956813, 18.549836299964227, 17.114827399956994, 20.35567199997604, 4.800778300035745, 5.1202178000239655, 5.954660400049761, 12.175610200036317, 6.356746300007217, 7.775140900048427, 10.754683300037868]","[0.1009589999448508, 0.013672500033862889, 0.0558404999319464, 0.014482200029306114, 0.09914139995817095, 0.09927470004186034, 0.06472630007192492, 0.06818820000626147, 0.06854920007754117, 0.07978740008547902, 10.754692999995314]",0,,,,,,,,,,,,,,,,,,,,,,,,,,,,,,,,,,,,,,,,,,,,,,,,,,,,,,,,,,,,,,,,,,,,,,,,,,,,,,,,,,,,,,,,,,,,,,,,,,,,,,,,,,,,,,,,,,,,,,,,,,,,PFNPG3,train_x,red_square,top_left,2025-01-31_15h04.22.289,HideSeek_v1,2022.2.5,59.94553347830427,
,,,,,,,,,,,,,,,0,0,0,0,11,0,11,0,,,,,,,,,,,,,,,,,,,,,,,,,,,,,,,conditions/schedules/train_x_first/red_square_00/top_left/instructions/Slide12.png,conditions/schedules/train_x_first/red_square_00/top_left/instructions/Audio12.wav,1408.4597922000103,1408.4565789499902,12,"[8.886751299956813, 18.549836299964227, 17.114827399956994, 20.35567199997604, 4.800778300035745, 5.1202178000239655, 5.954660400049761, 12.175610200036317, 6.356746300007217, 7.775140900048427, 10.754683300037868, 349.6176773000043]","[0.1009589999448508, 0.013672500033862889, 0.0558404999319464, 0.014482200029306114, 0.09914139995817095, 0.09927470004186034, 0.06472630007192492, 0.06818820000626147, 0.06854920007754117, 0.07978740008547902, 0.030202100053429604, 349.6176863000728]",0,,,,,,,,,,,,,,,,,,,,,,,,,,,,,,,,,,,,,,,,,,,,,,,,,,,,,,,,,,,,,,,,,,,,,,,,,,,,,,,,,,,,,,,,,,,,,,,,,,,,,,,,,,,,,,,,,,,,,,,,,,,,PFNPG3,train_x,red_square,top_left,2025-01-31_15h04.22.289,HideSeek_v1,2022.2.5,59.94553347830427,
1,3,7,8,7,5,0,66,2,instr_dim1_1,,,,,,0,0,0,0,,,,,0,0,0,0,,,,,,,,,,,,,,,,,,,,,,,,,,,,,,,,,,,,,stimuli/alien_stimuli/66.png,conditions/schedules/train_x_first/red_square_00/top_left/inputInstr_1.xlsx,stimuli/alien_stimuli/66.png,1758.1799698999384,1758.1799698999384,1758.1799698999384,1758.1799698999384,1758.179870650044,return,14.232775599928573,"[-0.16, -0.08, 0, 0.08, 0.16, 0.24, 0.32, 0.4, 0.48, 0.56]","[-0.4, -0.32, -0.24, -0.16, -0.08, 0, 0.08, 0.16, 0.24, 0.32]",7,7,8,3,0.0,0.4,1772.5843829000369,1772.5843829000369,1772.5843829000369,1772.5843829000369,1772.5843829000369,1772.5843829000369,1772.5843829000369,1772.5752600500475,8.841341499937698,return,8.67378249997273,stimuli/alien_stimuli/66.png,66,3,1,,,,,,,,,,,,,,,,,,,,,,,,,,,,,,,,,,,,,,,,,,,,,,,,,,,,,,,,,,,,,,,,,,,,,,,,,,,,,,,,,,,,,,,,,PFNPG3,train_x,red_square,top_left,2025-01-31_15h04.22.289,HideSeek_v1,2022.2.5,59.94553347830427,
,,,,,,,,,,,30,,,,0,0,0,0,,,,,,,,,,,,,,,,,,,,,,,,,,,,,,,,,,,,,,,,,,,,,,,,,,,,,,,,,,,,,,,,,,,,,,,,,,,,,,21,0.7,0,0,99,1,30,0,conditions/schedules/train_x_first/red_square_00/top_left/inputTrain_1.1.xlsx,99,1,1,1,0,,,,,,,,,,,,,,,,,,,,,,,,,,,,,,,,,,,,,,,,,,,,,,,,,,,,,,,,,,,,,,,,,,,,,,,,,,,PFNPG3,train_x,red_square,top_left,2025-01-31_15h04.22.289,HideSeek_v1,2022.2.5,59.94553347830427,
,,,,,,,,,,,,,,,1,0,1,0,0,0,0,0,,,,,,,,,,,,,,,,,,,,,,,,,,,,,,,conditions/schedules/train_x_first/red_square_00/top_left/instructions/Slide13.png,conditions/schedules/train_x_first/red_square_00/top_left/instructions/Audio13.wav,1781.4096325000282,1781.3989281999645,13,"[8.886751299956813, 18.549836299964227, 17.114827399956994, 20.35567199997604, 4.800778300035745, 5.1202178000239655, 5.954660400049761, 12.175610200036317, 6.356746300007217, 7.775140900048427, 10.754683300037868, 349.6176773000043, 20.019602700020187]","[0.1009589999448508, 0.013672500033862889, 0.0558404999319464, 0.014482200029306114, 0.09914139995817095, 0.09927470004186034, 0.06472630007192492, 0.06818820000626147, 0.06854920007754117, 0.07978740008547902, 0.030202100053429604, 349.6176863000728, 20.01961029996164]",0,,,,,,,,,,,,,,,,,,,,,,,,,,,,,,,,,,,,,,,,,,,,,,,,,,,,,,,,,,,,,,,,,,,,,,,,,,,,,,,,,,,,,,,,,,,,,,,,,,,,,,,,,,,,,,,,,,,,,,,,,,,,PFNPG3,train_x,red_square,top_left,2025-01-31_15h04.22.289,HideSeek_v1,2022.2.5,59.94553347830427,
,,,,,,,,,,,,,,,1,0,1,0,1,0,1,0,,,,,,,,,,,,,,,,,,,,,,,,,,,,,,,conditions/schedules/train_x_first/red_square_00/top_left/instructions/Slide14.png,conditions/schedules/train_x_first/red_square_00/top_left/instructions/Audio14.wav,1801.4973230999894,1801.498615550052,14,"[8.886751299956813, 18.549836299964227, 17.114827399956994, 20.35567199997604, 4.800778300035745, 5.1202178000239655, 5.954660400049761, 12.175610200036317, 6.356746300007217, 7.775140900048427, 10.754683300037868, 349.6176773000043, 20.019602700020187, 13.543317700037733]","[0.1009589999448508, 0.013672500033862889, 0.0558404999319464, 0.014482200029306114, 0.09914139995817095, 0.09927470004186034, 0.06472630007192492, 0.06818820000626147, 0.06854920007754117, 0.07978740008547902, 0.030202100053429604, 349.6176863000728, 0.00025569996796548367, 13.543325999984518]",0,,,,,,,,,,,,,,,,,,,,,,,,,,,,,,,,,,,,,,,,,,,,,,,,,,,,,,,,,,,,,,,,,,,,,,,,,,,,,,,,,,,,,,,,,,,,,,,,,,,,,,,,,,,,,,,,,,,,,,,,,,,,PFNPG3,train_x,red_square,top_left,2025-01-31_15h04.22.289,HideSeek_v1,2022.2.5,59.94553347830427,
2,4,5,4,5,0,0,16,2,instr_dim1_1,,,,,,1,0,1,0,,,,,0,0,0,0,,,,,,,,,,,,,,,,,,,,,,,,,,,,,,,,,,,,,stimuli/alien_stimuli/16.png,conditions/schedules/train_x_first/red_square_00/top_left/inputInstr_1.xlsx,stimuli/alien_stimuli/16.png,1815.146256200038,1815.146256200038,1815.146256200038,1815.146256200038,1815.1435734500292,return,6.783462700084783,"[-0.16, -0.08, 0, 0.08, 0.16, 0.24, 0.32, 0.4, 0.48, 0.56]","[-0.4, -0.32, -0.24, -0.16, -0.08, 0, 0.08, 0.16, 0.24, 0.32]",5,5,4,4,0.0,0.0,1822.0906461999984,1822.0906461999984,1822.0906461999984,1822.0906461999984,1822.0906461999984,1822.0906461999984,1822.0906461999984,1822.0831192500539,8.740746299969032,return,8.575344499899074,stimuli/alien_stimuli/16.png,16,4,2,,,,,,,,,,,,,,,,,,,,,,,,,,,,,,,,,,,,,,,,,,,,,,,,,,,,,,,,,,,,,,,,,,,,,,,,,,,,,,,,,,,,,,,,,PFNPG3,train_x,red_square,top_left,2025-01-31_15h04.22.289,HideSeek_v1,2022.2.5,59.94553347830427,
,,,,,,,,,,,30,,,,1,0,1,0,,,,,,,,,,,,,,,,,,,,,,,,,,,,,,,,,,,,,,,,,,,,,,,,,,,,,,,,,,,,,,,,,,,,,,,,,,,,,,21,0.7,0,0,99,1,30,0,conditions/schedules/train_x_first/red_square_00/top_left/inputTrain_1.1.xlsx,99,1,1,1,0,,,,,,,,,,,,,,,,,,,,,,,,,,,,,,,,,,,,,,,,,,,,,,,,,,,,,,,,,,,,,,,,,,,,,,,,,,,PFNPG3,train_x,red_square,top_left,2025-01-31_15h04.22.289,HideSeek_v1,2022.2.5,59.94553347830427,
,,,,,,,,,,,,,,,2,0,2,0,0,0,0,0,,,,,,,,,,,,,,,,,,,,,,,,,,,,,,,conditions/schedules/train_x_first/red_square_00/top_left/instructions/Slide15.png,conditions/schedules/train_x_first/red_square_00/top_left/instructions/Audio15.wav,1830.8248238000087,1830.8233028500456,15,"[8.886751299956813, 18.549836299964227, 17.114827399956994, 20.35567199997604, 4.800778300035745, 5.1202178000239655, 5.954660400049761, 12.175610200036317, 6.356746300007217, 7.775140900048427, 10.754683300037868, 349.6176773000043, 20.019602700020187, 13.543317700037733, 30.571485899970867]","[0.1009589999448508, 0.013672500033862889, 0.0558404999319464, 0.014482200029306114, 0.09914139995817095, 0.09927470004186034, 0.06472630007192492, 0.06818820000626147, 0.06854920007754117, 0.07978740008547902, 0.030202100053429604, 349.6176863000728, 0.00025569996796548367, 13.543325999984518, 30.57149310002569]",0,,,,,,,,,,,,,,,,,,,,,,,,,,,,,,,,,,,,,,,,,,,,,,,,,,,,,,,,,,,,,,,,,,,,,,,,,,,,,,,,,,,,,,,,,,,,,,,,,,,,,,,,,,,,,,,,,,,,,,,,,,,,PFNPG3,train_x,red_square,top_left,2025-01-31_15h04.22.289,HideSeek_v1,2022.2.5,59.94553347830427,
,,,,,,,,,,,,,,,2,0,2,0,1,0,1,0,,,,,,,,,,,,,,,,,,,,,,,,,,,,,,,conditions/schedules/train_x_first/red_square_00/top_left/instructions/Slide16.png,conditions/schedules/train_x_first/red_square_00/top_left/instructions/Audio16.wav,1861.4706025000196,1861.4654096499435,16,"[8.886751299956813, 18.549836299964227, 17.114827399956994, 20.35567199997604, 4.800778300035745, 5.1202178000239655, 5.954660400049761, 12.175610200036317, 6.356746300007217, 7.775140900048427, 10.754683300037868, 349.6176773000043, 20.019602700020187, 13.543317700037733, 30.571485899970867, 22.21038950001821]","[0.1009589999448508, 0.013672500033862889, 0.0558404999319464, 0.014482200029306114, 0.09914139995817095, 0.09927470004186034, 0.06472630007192492, 0.06818820000626147, 0.06854920007754117, 0.07978740008547902, 0.030202100053429604, 349.6176863000728, 0.00025569996796548367, 13.543325999984518, 0.15920899994671345, 22.21039739996195]",0,,,,,,,,,,,,,,,,,,,,,,,,,,,,,,,,,,,,,,,,,,,,,,,,,,,,,,,,,,,,,,,,,,,,,,,,,,,,,,,,,,,,,,,,,,,,,,,,,,,,,,,,,,,,,,,,,,,,,,,,,,,,PFNPG3,train_x,red_square,top_left,2025-01-31_15h04.22.289,HideSeek_v1,2022.2.5,59.94553347830427,
,2,6,5,6,3,0,46,,train_dim1_1,1,30,,,,2,0,2,0,,,,,,,,,0,0,0,0,0,0,0,0,0,0,0,0,,,,,,,,,,,,,,,,,,,,,,,,,stimuli/alien_stimuli/46.png,,,,,,,,,,,,,,,,,,,,,,,,,,,,,,,,,,,,,,,30,,,,,,,,1883.7810283999424,1883.7810283999424,1883.7810283999424,1883.7810283999424,1883.7810283999424,right,6.650691599934362,0,0,0,99,0.08,0.08,right,6.548532499931753,,,,,,,,,,,,,,,,,,,,,,,,,,,,,,,,,,,,,,,,,,,,,,,,,,,,,,,,,,,,PFNPG3,train_x,red_square,top_left,2025-01-31_15h04.22.289,HideSeek_v1,2022.2.5,59.94553347830427,
,2,6,5,6,3,0,46,,train_dim1_1,1,30,,,,2,0,2,0,,,,,,,,,0,0,0,0,0,0,0,0,1,0,1,0,,,,,,,,,,,,,,,,,,,,,,,,,,,,,,,,,,,,,,,,,,,,,,,,,,,,,,,,,,,,,,,,30,,,,,,,,1890.4200462999288,1890.4200462999288,1890.4200462999288,1890.4200462999288,1890.4200462999288,right,0.8763103999663144,0,0,0,99,0.16,0.08,right,0.7934340999927372,,,,,,,,,,,,,,,,,,,,,,,,,,,,,,,,,,,,,,,,,,,,,,,,,,,,,,,,,,,,PFNPG3,train_x,red_square,top_left,2025-01-31_15h04.22.289,HideSeek_v1,2022.2.5,59.94553347830427,
,2,6,5,6,3,0,46,,train_dim1_1,1,30,,,,2,0,2,0,,,,,,,,,0,0,0,0,0,0,0,0,2,0,2,0,,,,,,,,,,,,,,,,,,,,,,,,,,,,,,,,,,,,,,,,,,,,,,,,,,,,,,,,,,,,,,,,30,,,,,,,,1891.3027083999477,1891.3027083999477,1891.3027083999477,1891.3027083999477,1891.3027083999477,right,0.7603353000013158,0,0,0,99,0.24,0.08,right,0.6726400000043213,,,,,,,,,,,,,,,,,,,,,,,,,,,,,,,,,,,,,,,,,,,,,,,,,,,,,,,,,,,,PFNPG3,train_x,red_square,top_left,2025-01-31_15h04.22.289,HideSeek_v1,2022.2.5,59.94553347830427,
,2,6,5,6,3,0,46,,train_dim1_1,1,30,,,,2,0,2,0,,,,,,,,,0,0,0,0,0,0,0,0,3,0,3,0,,,,,,,,,,,,,,,,,,,,,,,,,,,,,,,,,,,,,,,,,,,,,,,,,,,,,,,,,,,,,,,,30,,,,,,,,1892.0695570999524,1892.0695570999524,1892.0695570999524,1892.0695570999524,1892.0695570999524,right,5.781331300036982,0,0,0,99,0.32,0.08,right,5.701471599983051,,,,,,,,,,,,,,,,,,,,,,,,,,,,,,,,,,,,,,,,,,,,,,,,,,,,,,,,,,,,PFNPG3,train_x,red_square,top_left,2025-01-31_15h04.22.289,HideSeek_v1,2022.2.5,59.94553347830427,
,2,6,5,6,3,0,46,,train_dim1_1,1,30,,,,2,0,2,0,,,,,,,,,0,0,0,0,0,0,0,0,4,0,4,0,,,,,,,,,,,,,,,,,,,,,,,,,,,,,,,,,,,,,,,,,,,,,,,,,,,,,,,,,,,,,,,,30,,,,,,,,1897.8606399999699,1897.8606399999699,1897.8606399999699,1897.8606399999699,1897.8606399999699,return,1.1270276999566704,0,1,0,0,0.32,0.08,return,1.0410713999299332,0,4,0.32,0.08,,,,,,,,,,,,,,,,,,,,,,,,,,,,,,,,,,,,,,,,,,,,,,,,,,,,,,,,PFNPG3,train_x,red_square,top_left,2025-01-31_15h04.22.289,HideSeek_v1,2022.2.5,59.94553347830427,
,2,9,2,9,0,0,16,,train_dim1_1,2,30,,,,2,0,2,0,,,,,,,,,0,0,0,0,0,1,1,1,0,0,0,0,,,,,,,,,,,,,,,,,,,,,,,,,stimuli/alien_stimuli/16.png,,,,,,,,,,,,,,,,,,,,,,,,,,,,,stimuli/alien_stimuli/46.png,46,2,3,,,,,,,30,,,,,,,,1934.1381479999982,1934.1381479999982,1934.1381479999982,1934.1381479999982,1934.1381479999982,down,3.809421500074677,0,1,0,99,0,0.24,down,3.6934276999672875,,,,,1932.5575416999636,1934.1381479999982,0.24,0.08,0.0,0.24,0.08,0.24,0.12,0.24,0.08,1900.557397800032,1900.557397800032,1900.557397800032,1900.557397800032,1900.557397800032,1900.557397800032,1900.557397800032,1900.557397800032,1900.5478781500015,32.111792699899524,return,31.97612649993971,,,,,,,,,,,,,,,,,,,,,,,,,,,,,,,,,PFNPG3,train_x,red_square,top_left,2025-01-31_15h04.22.289,HideSeek_v1,2022.2.5,59.94553347830427,
,2,9,2,9,0,0,16,,train_dim1_1,2,30,,,,2,0,2,0,,,,,,,,,0,0,0,0,0,1,1,1,1,0,1,0,,,,,,,,,,,,,,,,,,,,,,,,,,,,,,,,,,,,,,,,,,,,,,,,,,,,,,,,,,,,,,,,30,,,,,,,,1937.9298043999588,1937.9298043999588,1937.9298043999588,1937.9298043999588,1937.9298043999588,down,0.8096551999915391,0,1,0,99,0,0.15999999999999998,down,0.7179317000554875,,,,,,,,,,,,,,,,,,,,,,,,,,,,,,,,,,,,,,,,,,,,,,,,,,,,,,,,,,,,PFNPG3,train_x,red_square,top_left,2025-01-31_15h04.22.289,HideSeek_v1,2022.2.5,59.94553347830427,
,2,9,2,9,0,0,16,,train_dim1_1,2,30,,,,2,0,2,0,,,,,,,,,0,0,0,0,0,1,1,1,2,0,2,0,,,,,,,,,,,,,,,,,,,,,,,,,,,,,,,,,,,,,,,,,,,,,,,,,,,,,,,,,,,,,,,,30,,,,,,,,1938.7464964999817,1938.7464964999817,1938.7464964999817,1938.7464964999817,1938.7464964999817,down,0.8771269000135362,0,1,0,99,0,0.07999999999999997,down,0.7959338999353349,,,,,,,,,,,,,,,,,,,,,,,,,,,,,,,,,,,,,,,,,,,,,,,,,,,,,,,,,,,,PFNPG3,train_x,red_square,top_left,2025-01-31_15h04.22.289,HideSeek_v1,2022.2.5,59.94553347830427,
,2,9,2,9,0,0,16,,train_dim1_1,2,30,,,,2,0,2,0,,,,,,,,,0,0,0,0,0,1,1,1,3,0,3,0,,,,,,,,,,,,,,,,,,,,,,,,,,,,,,,,,,,,,,,,,,,,,,,,,,,,,,,,,,,,,,,,30,,,,,,,,1939.6295967999613,1939.6295967999613,1939.6295967999613,1939.6295967999613,1939.6295967999613,return,4.430060900049284,0,0,0,0,0,0.07999999999999997,return,4.340155399986543,-3,4,0,0.07999999999999997,,,,,,,,,,,,,,,,,,,,,,,,,,,,,,,,,,,,,,,,,,,,,,,,,,,,,,,,PFNPG3,train_x,red_square,top_left,2025-01-31_15h04.22.289,HideSeek_v1,2022.2.5,59.94553347830427,
,4,9,5,9,1,0,26,,train_dim1_1,3,30,,,,2,0,2,0,,,,,,,,,0,0,0,0,0,2,2,2,0,0,0,0,,,,,,,,,,,,,,,,,,,,,,,,,stimuli/alien_stimuli/26.png,,,,,,,,,,,,,,,,,,,,,,,,,,,,,stimuli/alien_stimuli/16.png,16,2,4,,,,,,,30,,,,,,,,1959.2763581000036,1959.2763581000036,1959.2763581000036,1959.2763581000036,1959.2763581000036,up,4.743444500025362,0,0,0,99,0.16,0.4,up,4.62760809995234,,,,,1957.6953066999558,1959.2763581000036,0,0.32,0.0,0.0,0.32,0,0.0,0,0.32,1945.645102199982,1945.645102199982,1945.645102199982,1945.645102199982,1945.645102199982,1945.645102199982,1945.645102199982,1945.645102199982,1945.635290399962,12.179321800009347,return,12.034396599978209,,,,,,,,,,,,,,,,,,,,,,,,,,,,,,,,,PFNPG3,train_x,red_square,top_left,2025-01-31_15h04.22.289,HideSeek_v1,2022.2.5,59.94553347830427,
,4,9,5,9,1,0,26,,train_dim1_1,3,30,,,,2,0,2,0,,,,,,,,,0,0,0,0,0,2,2,2,1,0,1,0,,,,,,,,,,,,,,,,,,,,,,,,,,,,,,,,,,,,,,,,,,,,,,,,,,,,,,,,,,,,,,,,30,,,,,,,,1964.0013832999393,1964.0013832999393,1964.0013832999393,1964.0013832999393,1964.0013832999393,down,1.8774600999895483,0,0,0,99,0.16,0.32,down,1.7975716000655666,,,,,,,,,,,,,,,,,,,,,,,,,,,,,,,,,,,,,,,,,,,,,,,,,,,,,,,,,,,,PFNPG3,train_x,red_square,top_left,2025-01-31_15h04.22.289,HideSeek_v1,2022.2.5,59.94553347830427,
,4,9,5,9,1,0,26,,train_dim1_1,3,30,,,,2,0,2,0,,,,,,,,,0,0,0,0,0,2,2,2,2,0,2,0,,,,,,,,,,,,,,,,,,,,,,,,,,,,,,,,,,,,,,,,,,,,,,,,,,,,,,,,,,,,,,,,30,,,,,,,,1965.885219699936,1965.885219699936,1965.885219699936,1965.885219699936,1965.885219699936,down,1.0270040000323206,0,0,0,99,0.16,0.24,down,0.9442919000284746,,,,,,,,,,,,,,,,,,,,,,,,,,,,,,,,,,,,,,,,,,,,,,,,,,,,,,,,,,,,PFNPG3,train_x,red_square,top_left,2025-01-31_15h04.22.289,HideSeek_v1,2022.2.5,59.94553347830427,
,4,9,5,9,1,0,26,,train_dim1_1,3,30,,,,2,0,2,0,,,,,,,,,0,0,0,0,0,2,2,2,3,0,3,0,,,,,,,,,,,,,,,,,,,,,,,,,,,,,,,,,,,,,,,,,,,,,,,,,,,,,,,,,,,,,,,,30,,,,,,,,1966.9203022000147,1966.9203022000147,1966.9203022000147,1966.9203022000147,1966.9203022000147,right,3.7127540999790654,0,0,0,99,0.24,0.24,right,3.6302292000036687,,,,,,,,,,,,,,,,,,,,,,,,,,,,,,,,,,,,,,,,,,,,,,,,,,,,,,,,,,,,PFNPG3,train_x,red_square,top_left,2025-01-31_15h04.22.289,HideSeek_v1,2022.2.5,59.94553347830427,
,4,9,5,9,1,0,26,,train_dim1_1,3,30,,,,2,0,2,0,,,,,,,,,0,0,0,0,0,2,2,2,4,0,4,0,,,,,,,,,,,,,,,,,,,,,,,,,,,,,,,,,,,,,,,,,,,,,,,,,,,,,,,,,,,,,,,,30,,,,,,,,1970.6391076999716,1970.6391076999716,1970.6391076999716,1970.6391076999716,1970.6391076999716,right,0.8941686000907794,0,0,0,99,0.32,0.24,right,0.8031324000330642,,,,,,,,,,,,,,,,,,,,,,,,,,,,,,,,,,,,,,,,,,,,,,,,,,,,,,,,,,,,PFNPG3,train_x,red_square,top_left,2025-01-31_15h04.22.289,HideSeek_v1,2022.2.5,59.94553347830427,
,4,9,5,9,1,0,26,,train_dim1_1,3,30,,,,2,0,2,0,,,,,,,,,0,0,0,0,0,2,2,2,5,0,5,0,,,,,,,,,,,,,,,,,,,,,,,,,,,,,,,,,,,,,,,,,,,,,,,,,,,,,,,,,,,,,,,,30,,,,,,,,1971.5407880999846,1971.5407880999846,1971.5407880999846,1971.5407880999846,1971.5407880999846,right,0.9765907999826595,0,0,0,99,0.4,0.24,right,0.8932218999834731,,,,,,,,,,,,,,,,,,,,,,,,,,,,,,,,,,,,,,,,,,,,,,,,,,,,,,,,,,,,PFNPG3,train_x,red_square,top_left,2025-01-31_15h04.22.289,HideSeek_v1,2022.2.5,59.94553347830427,
,4,9,5,9,1,0,26,,train_dim1_1,3,30,,,,2,0,2,0,,,,,,,,,0,0,0,0,0,2,2,2,6,0,6,0,,,,,,,,,,,,,,,,,,,,,,,,,,,,,,,,,,,,,,,,,,,,,,,,,,,,,,,,,,,,,,,,30,,,,,,,,1972.5240021999925,1972.5240021999925,1972.5240021999925,1972.5240021999925,1972.5240021999925,return,0.9440227000741288,0,0,0,0,0.4,0.24,return,0.8527727999025956,-4,7,0.4,0.24,,,,,,,,,,,,,,,,,,,,,,,,,,,,,,,,,,,,,,,,,,,,,,,,,,,,,,,,PFNPG3,train_x,red_square,top_left,2025-01-31_15h04.22.289,HideSeek_v1,2022.2.5,59.94553347830427,
,2,8,6,8,4,0,56,,train_dim1_1,4,30,,,,2,0,2,0,,,,,,,,,0,0,0,0,0,3,3,3,0,0,0,0,,,,,,,,,,,,,,,,,,,,,,,,,stimuli/alien_stimuli/56.png,,,,,,,,,,,,,,,,,,,,,,,,,,,,,stimuli/alien_stimuli/26.png,26,4,5,,,,,,,30,,,,,,,,1994.1000199000118,1994.1000199000118,1994.1000199000118,1994.1000199000118,1994.1000199000118,right,3.4415100999176502,0,0,0,99,0.08,0.24,right,3.3444082000060007,,,,,1992.5241517999675,1994.1000199000118,0.24,0.32,0.0,0.08,0.32,0.24,0.2,0.24,0.32,1975.0481434999965,1975.0481434999965,1975.0481434999965,1975.0481434999965,1975.0481434999965,1975.0481434999965,1975.0481434999965,1975.0481434999965,1975.025877850002,17.600493000005372,return,17.449907399946824,,,,,,,,,,,,,,,,,,,,,,,,,,,,,,,,,PFNPG3,train_x,red_square,top_left,2025-01-31_15h04.22.289,HideSeek_v1,2022.2.5,59.94553347830427,
,2,8,6,8,4,0,56,,train_dim1_1,4,30,,,,2,0,2,0,,,,,,,,,0,0,0,0,0,3,3,3,1,0,1,0,,,,,,,,,,,,,,,,,,,,,,,,,,,,,,,,,,,,,,,,,,,,,,,,,,,,,,,,,,,,,,,,30,,,,,,,,1997.5268093999475,1997.5268093999475,1997.5268093999475,1997.5268093999475,1997.5268093999475,right,0.6931257999967784,0,0,0,99,0.16,0.24,right,0.6138691999949515,,,,,,,,,,,,,,,,,,,,,,,,,,,,,,,,,,,,,,,,,,,,,,,,,,,,,,,,,,,,PFNPG3,train_x,red_square,top_left,2025-01-31_15h04.22.289,HideSeek_v1,2022.2.5,59.94553347830427,
,2,8,6,8,4,0,56,,train_dim1_1,4,30,,,,2,0,2,0,,,,,,,,,0,0,0,0,0,3,3,3,2,0,2,0,,,,,,,,,,,,,,,,,,,,,,,,,,,,,,,,,,,,,,,,,,,,,,,,,,,,,,,,,,,,,,,,30,,,,,,,,1998.2275366999675,1998.2275366999675,1998.2275366999675,1998.2275366999675,1998.2275366999675,return,2.1781128000002354,0,0,0,0,0.16,0.24,return,2.0949783000396565,-4,9,0.16,0.24,,,,,,,,,,,,,,,,,,,,,,,,,,,,,,,,,,,,,,,,,,,,,,,,,,,,,,,,PFNPG3,train_x,red_square,top_left,2025-01-31_15h04.22.289,HideSeek_v1,2022.2.5,59.94553347830427,
,0,7,5,7,5,0,66,,train_dim1_1,5,30,,,,2,0,2,0,,,,,,,,,0,0,0,0,0,4,4,4,0,0,0,0,,,,,,,,,,,,,,,,,,,,,,,,,stimuli/alien_stimuli/66.png,,,,,,,,,,,,,,,,,,,,,,,,,,,,,stimuli/alien_stimuli/56.png,56,2,6,,,,,,,30,,,,,,,,2012.4538491999265,2012.4538491999265,2012.4538491999265,2012.4538491999265,2012.4538491999265,right,4.922388099948876,0,0,0,99,-0.08,0.16,right,4.812370199942961,,,,,2010.8726791000227,2012.4538491999265,0.32,0.24,0.0,0.32,0.24,0.32,0.16,0.32,0.24,2001.983002300025,2001.983002300025,2001.983002300025,2001.983002300025,2001.983002300025,2001.983002300025,2001.983002300025,2001.983002300025,2001.965267749957,9.009500200045295,return,8.865768700023182,,,,,,,,,,,,,,,,,,,,,,,,,,,,,,,,,PFNPG3,train_x,red_square,top_left,2025-01-31_15h04.22.289,HideSeek_v1,2022.2.5,59.94553347830427,
,0,7,5,7,5,0,66,,train_dim1_1,5,30,,,,2,0,2,0,,,,,,,,,0,0,0,0,0,4,4,4,1,0,1,0,,,,,,,,,,,,,,,,,,,,,,,,,,,,,,,,,,,,,,,,,,,,,,,,,,,,,,,,,,,,,,,,30,,,,,,,,2017.3592653999804,2017.3592653999804,2017.3592653999804,2017.3592653999804,2017.3592653999804,right,0.7263415999477729,0,0,0,99,0.0,0.16,right,0.6436201999895275,,,,,,,,,,,,,,,,,,,,,,,,,,,,,,,,,,,,,,,,,,,,,,,,,,,,,,,,,,,,PFNPG3,train_x,red_square,top_left,2025-01-31_15h04.22.289,HideSeek_v1,2022.2.5,59.94553347830427,
,0,7,5,7,5,0,66,,train_dim1_1,5,30,,,,2,0,2,0,,,,,,,,,0,0,0,0,0,4,4,4,2,0,2,0,,,,,,,,,,,,,,,,,,,,,,,,,,,,,,,,,,,,,,,,,,,,,,,,,,,,,,,,,,,,,,,,30,,,,,,,,2018.0903561000014,2018.0903561000014,2018.0903561000014,2018.0903561000014,2018.0903561000014,right,0.7270092000253499,0,0,0,99,0.08,0.16,right,0.6462613000767305,,,,,,,,,,,,,,,,,,,,,,,,,,,,,,,,,,,,,,,,,,,,,,,,,,,,,,,,,,,,PFNPG3,train_x,red_square,top_left,2025-01-31_15h04.22.289,HideSeek_v1,2022.2.5,59.94553347830427,
,0,7,5,7,5,0,66,,train_dim1_1,5,30,,,,2,0,2,0,,,,,,,,,0,0,0,0,0,4,4,4,3,0,3,0,,,,,,,,,,,,,,,,,,,,,,,,,,,,,,,,,,,,,,,,,,,,,,,,,,,,,,,,,,,,,,,,30,,,,,,,,2018.8245380999288,2018.8245380999288,2018.8245380999288,2018.8245380999288,2018.8245380999288,right,0.6772329999366775,0,0,0,99,0.16,0.16,right,0.6042223999975249,,,,,,,,,,,,,,,,,,,,,,,,,,,,,,,,,,,,,,,,,,,,,,,,,,,,,,,,,,,,PFNPG3,train_x,red_square,top_left,2025-01-31_15h04.22.289,HideSeek_v1,2022.2.5,59.94553347830427,
,0,7,5,7,5,0,66,,train_dim1_1,5,30,,,,2,0,2,0,,,,,,,,,0,0,0,0,0,4,4,4,4,0,4,0,,,,,,,,,,,,,,,,,,,,,,,,,,,,,,,,,,,,,,,,,,,,,,,,,,,,,,,,,,,,,,,,30,,,,,,,,2019.5089477000292,2019.5089477000292,2019.5089477000292,2019.5089477000292,2019.5089477000292,return,0.7101676999591291,0,1,0,0,0.16,0.16,return,0.6333416999550536,-4,13,0.16,0.16,,,,,,,,,,,,,,,,,,,,,,,,,,,,,,,,,,,,,,,,,,,,,,,,,,,,,,,,PFNPG3,train_x,red_square,top_left,2025-01-31_15h04.22.289,HideSeek_v1,2022.2.5,59.94553347830427,
,0,5,1,5,1,0,26,,train_dim1_1,6,30,,,,2,0,2,0,,,,,,,,,0,0,0,0,0,5,5,5,0,0,0,0,,,,,,,,,,,,,,,,,,,,,,,,,stimuli/alien_stimuli/26.png,,,,,,,,,,,,,,,,,,,,,,,,,,,,,stimuli/alien_stimuli/66.png,66,0,7,,,,,,,30,,,,,,,,2036.2252794000087,2036.2252794000087,2036.2252794000087,2036.2252794000087,2036.2252794000087,up,5.541571100009605,0,1,0,99,-0.16,0.08,up,5.42613659997005,,,,,2034.6424278999912,2036.2252794000087,0.24,0.16,0.0,0.4,0.16,0.24,0.039999999999999994,0.24,0.16,2021.7811889000004,2021.7811889000004,2021.7811889000004,2021.7811889000004,2021.7811889000004,2021.7811889000004,2021.7811889000004,2021.7811889000004,2021.7648238999768,12.963117300067097,return,12.831142299924977,,,,,,,,,,,,,,,,,,,,,,,,,,,,,,,,,PFNPG3,train_x,red_square,top_left,2025-01-31_15h04.22.289,HideSeek_v1,2022.2.5,59.94553347830427,
,0,5,1,5,1,0,26,,train_dim1_1,6,30,,,,2,0,2,0,,,,,,,,,0,0,0,0,0,5,5,5,1,0,1,0,,,,,,,,,,,,,,,,,,,,,,,,,,,,,,,,,,,,,,,,,,,,,,,,,,,,,,,,,,,,,,,,30,,,,,,,,2041.7494860999286,2041.7494860999286,2041.7494860999286,2041.7494860999286,2041.7494860999286,return,1.0268188000191003,0,0,0,0,-0.16,0.08,return,0.9425649999175221,-3,13,-0.16,0.08,,,,,,,,,,,,,,,,,,,,,,,,,,,,,,,,,,,,,,,,,,,,,,,,,,,,,,,,PFNPG3,train_x,red_square,top_left,2025-01-31_15h04.22.289,HideSeek_v1,2022.2.5,59.94553347830427,
,3,5,8,5,5,0,66,,train_dim1_1,7,30,,,,2,0,2,0,,,,,,,,,0,0,0,0,0,6,6,6,0,0,0,0,,,,,,,,,,,,,,,,,,,,,,,,,stimuli/alien_stimuli/66.png,,,,,,,,,,,,,,,,,,,,,,,,,,,,,stimuli/alien_stimuli/26.png,26,0,8,,,,,,,30,,,,,,,,2051.0303223000374,2051.0303223000374,2051.0303223000374,2051.0303223000374,2051.0303223000374,down,6.0093207999598235,0,0,0,99,0.08,-0.08,down,5.920478600077331,,,,,2049.4714333999436,2051.0303223000374,-0.08,0,0.0,0.08,0.0,-0.08,-0.12,-0.08,0,2044.3401395999826,2044.3401395999826,2044.3401395999826,2044.3401395999826,2044.3401395999826,2044.3401395999826,2044.3401395999826,2044.3401395999826,2044.3334896500337,5.240219300030731,return,5.1122074000304565,,,,,,,,,,,,,,,,,,,,,,,,,,,,,,,,,PFNPG3,train_x,red_square,top_left,2025-01-31_15h04.22.289,HideSeek_v1,2022.2.5,59.94553347830427,
,3,5,8,5,5,0,66,,train_dim1_1,7,30,,,,2,0,2,0,,,,,,,,,0,0,0,0,0,6,6,6,1,0,1,0,,,,,,,,,,,,,,,,,,,,,,,,,,,,,,,,,,,,,,,,,,,,,,,,,,,,,,,,,,,,,,,,30,,,,,,,,2057.040932300035,2057.040932300035,2057.040932300035,2057.040932300035,2057.040932300035,return,2.344375599990599,0,0,0,0,0.08,-0.08,return,2.2656532999826595,-4,13,0.08,-0.08,,,,,,,,,,,,,,,,,,,,,,,,,,,,,,,,,,,,,,,,,,,,,,,,,,,,,,,,PFNPG3,train_x,red_square,top_left,2025-01-31_15h04.22.289,HideSeek_v1,2022.2.5,59.94553347830427,
,0,9,3,9,3,0,46,,train_dim1_1,8,30,,,,2,0,2,0,,,,,,,,,0,0,0,0,0,7,7,7,0,0,0,0,,,,,,,,,,,,,,,,,,,,,,,,,stimuli/alien_stimuli/46.png,,,,,,,,,,,,,,,,,,,,,,,,,,,,,stimuli/alien_stimuli/66.png,66,3,9,,,,,,,30,,,,,,,,2068.628975600004,2068.628975600004,2068.628975600004,2068.628975600004,2068.628975600004,right,6.059757700073533,0,0,0,99,-0.08,0.32,right,5.970696200034581,,,,,2067.069259800017,2068.628975600004,0.48,0,0.0,0.4,0.0,0.48,0.27999999999999997,0.48,0,2060.966849899967,2060.966849899967,2060.966849899967,2060.966849899967,2060.966849899967,2060.966849899967,2060.966849899967,2060.966849899967,2060.947412449971,6.223940100055188,return,6.077529400005005,,,,,,,,,,,,,,,,,,,,,,,,,,,,,,,,,PFNPG3,train_x,red_square,top_left,2025-01-31_15h04.22.289,HideSeek_v1,2022.2.5,59.94553347830427,
,0,9,3,9,3,0,46,,train_dim1_1,8,30,,,,2,0,2,0,,,,,,,,,0,0,0,0,0,7,7,7,1,0,1,0,,,,,,,,,,,,,,,,,,,,,,,,,,,,,,,,,,,,,,,,,,,,,,,,,,,,,,,,,,,,,,,,30,,,,,,,,2074.689911299967,2074.689911299967,2074.689911299967,2074.689911299967,2074.689911299967,right,0.7764786999905482,0,0,0,99,0.0,0.32,right,0.6947403000667691,,,,,,,,,,,,,,,,,,,,,,,,,,,,,,,,,,,,,,,,,,,,,,,,,,,,,,,,,,,,PFNPG3,train_x,red_square,top_left,2025-01-31_15h04.22.289,HideSeek_v1,2022.2.5,59.94553347830427,
,0,9,3,9,3,0,46,,train_dim1_1,8,30,,,,2,0,2,0,,,,,,,,,0,0,0,0,0,7,7,7,2,0,2,0,,,,,,,,,,,,,,,,,,,,,,,,,,,,,,,,,,,,,,,,,,,,,,,,,,,,,,,,,,,,,,,,30,,,,,,,,2075.4746903999476,2075.4746903999476,2075.4746903999476,2075.4746903999476,2075.4746903999476,right,0.8245737999677658,0,0,0,99,0.08,0.32,right,0.7401598000433296,,,,,,,,,,,,,,,,,,,,,,,,,,,,,,,,,,,,,,,,,,,,,,,,,,,,,,,,,,,,PFNPG3,train_x,red_square,top_left,2025-01-31_15h04.22.289,HideSeek_v1,2022.2.5,59.94553347830427,
,0,9,3,9,3,0,46,,train_dim1_1,8,30,,,,2,0,2,0,,,,,,,,,0,0,0,0,0,7,7,7,3,0,3,0,,,,,,,,,,,,,,,,,,,,,,,,,,,,,,,,,,,,,,,,,,,,,,,,,,,,,,,,,,,,,,,,30,,,,,,,,2076.3069638999877,2076.3069638999877,2076.3069638999877,2076.3069638999877,2076.3069638999877,right,1.3102285999339074,0,0,0,99,0.16,0.32,right,1.231595000019297,,,,,,,,,,,,,,,,,,,,,,,,,,,,,,,,,,,,,,,,,,,,,,,,,,,,,,,,,,,,PFNPG3,train_x,red_square,top_left,2025-01-31_15h04.22.289,HideSeek_v1,2022.2.5,59.94553347830427,
,0,9,3,9,3,0,46,,train_dim1_1,8,30,,,,2,0,2,0,,,,,,,,,0,0,0,0,0,7,7,7,4,0,4,0,,,,,,,,,,,,,,,,,,,,,,,,,,,,,,,,,,,,,,,,,,,,,,,,,,,,,,,,,,,,,,,,30,,,,,,,,2077.626417799969,2077.626417799969,2077.626417799969,2077.626417799969,2077.626417799969,right,1.6427443000720814,0,0,0,99,0.24,0.32,right,1.5663513999897987,,,,,,,,,,,,,,,,,,,,,,,,,,,,,,,,,,,,,,,,,,,,,,,,,,,,,,,,,,,,PFNPG3,train_x,red_square,top_left,2025-01-31_15h04.22.289,HideSeek_v1,2022.2.5,59.94553347830427,
,0,9,3,9,3,0,46,,train_dim1_1,8,30,,,,2,0,2,0,,,,,,,,,0,0,0,0,0,7,7,7,5,0,5,0,,,,,,,,,,,,,,,,,,,,,,,,,,,,,,,,,,,,,,,,,,,,,,,,,,,,,,,,,,,,,,,,30,,,,,,,,2079.275623499998,2079.275623499998,2079.275623499998,2079.275623499998,2079.275623499998,return,2.612150299944915,0,0,0,0,0.24,0.32,return,2.5341439000330865,-4,18,0.24,0.32,,,,,,,,,,,,,,,,,,,,,,,,,,,,,,,,,,,,,,,,,,,,,,,,,,,,,,,,PFNPG3,train_x,red_square,top_left,2025-01-31_15h04.22.289,HideSeek_v1,2022.2.5,59.94553347830427,
,1,5,5,5,4,0,56,,train_dim1_1,9,30,,,,2,0,2,0,,,,,,,,,0,0,0,0,0,8,8,8,0,0,0,0,,,,,,,,,,,,,,,,,,,,,,,,,stimuli/alien_stimuli/56.png,,,,,,,,,,,,,,,,,,,,,,,,,,,,,stimuli/alien_stimuli/46.png,46,0,10,,,,,,,30,,,,,,,,2088.8113059999887,2088.8113059999887,2088.8113059999887,2088.8113059999887,2088.8113059999887,down,5.010276600020006,0,0,0,99,-0.08,-0.08,down,4.9231670999433845,,,,,2087.2523161999416,2088.8113059999887,0.08,0.32,0.0,0.24,0.32,0.08,-0.04,0.08,0.32,2083.472705399967,2083.472705399967,2083.472705399967,2083.472705399967,2083.472705399967,2083.472705399967,2083.472705399967,2083.472705399967,2083.4661578000055,3.905493800062686,return,3.7502188000362366,,,,,,,,,,,,,,,,,,,,,,,,,,,,,,,,,PFNPG3,train_x,red_square,top_left,2025-01-31_15h04.22.289,HideSeek_v1,2022.2.5,59.94553347830427,
,1,5,5,5,4,0,56,,train_dim1_1,9,30,,,,2,0,2,0,,,,,,,,,0,0,0,0,0,8,8,8,1,0,1,0,,,,,,,,,,,,,,,,,,,,,,,,,,,,,,,,,,,,,,,,,,,,,,,,,,,,,,,,,,,,,,,,30,,,,,,,,2093.824603899964,2093.824603899964,2093.824603899964,2093.824603899964,2093.824603899964,down,0.5591203999938443,0,0,0,99,-0.08,-0.16,down,0.4826849000528455,,,,,,,,,,,,,,,,,,,,,,,,,,,,,,,,,,,,,,,,,,,,,,,,,,,,,,,,,,,,PFNPG3,train_x,red_square,top_left,2025-01-31_15h04.22.289,HideSeek_v1,2022.2.5,59.94553347830427,
,1,5,5,5,4,0,56,,train_dim1_1,9,30,,,,2,0,2,0,,,,,,,,,0,0,0,0,0,8,8,8,2,0,2,0,,,,,,,,,,,,,,,,,,,,,,,,,,,,,,,,,,,,,,,,,,,,,,,,,,,,,,,,,,,,,,,,30,,,,,,,,2094.3900506999344,2094.3900506999344,2094.3900506999344,2094.3900506999344,2094.3900506999344,down,0.5436550000449643,0,0,0,99,-0.08,-0.24,down,0.4648033999837935,,,,,,,,,,,,,,,,,,,,,,,,,,,,,,,,,,,,,,,,,,,,,,,,,,,,,,,,,,,,PFNPG3,train_x,red_square,top_left,2025-01-31_15h04.22.289,HideSeek_v1,2022.2.5,59.94553347830427,
,1,5,5,5,4,0,56,,train_dim1_1,9,30,,,,2,0,2,0,,,,,,,,,0,0,0,0,0,8,8,8,3,0,3,0,,,,,,,,,,,,,,,,,,,,,,,,,,,,,,,,,,,,,,,,,,,,,,,,,,,,,,,,,,,,,,,,30,,,,,,,,2094.9402855000226,2094.9402855000226,2094.9402855000226,2094.9402855000226,2094.9402855000226,up,3.629306200076826,0,0,0,99,-0.08,-0.15999999999999998,up,3.543597499956377,,,,,,,,,,,,,,,,,,,,,,,,,,,,,,,,,,,,,,,,,,,,,,,,,,,,,,,,,,,,PFNPG3,train_x,red_square,top_left,2025-01-31_15h04.22.289,HideSeek_v1,2022.2.5,59.94553347830427,
,1,5,5,5,4,0,56,,train_dim1_1,9,30,,,,2,0,2,0,,,,,,,,,0,0,0,0,0,8,8,8,4,0,4,0,,,,,,,,,,,,,,,,,,,,,,,,,,,,,,,,,,,,,,,,,,,,,,,,,,,,,,,,,,,,,,,,30,,,,,,,,2098.577852800023,2098.577852800023,2098.577852800023,2098.577852800023,2098.577852800023,up,0.49306579993572086,0,0,0,99,-0.08,-0.07999999999999997,up,0.40355589997489005,,,,,,,,,,,,,,,,,,,,,,,,,,,,,,,,,,,,,,,,,,,,,,,,,,,,,,,,,,,,PFNPG3,train_x,red_square,top_left,2025-01-31_15h04.22.289,HideSeek_v1,2022.2.5,59.94553347830427,
,1,5,5,5,4,0,56,,train_dim1_1,9,30,,,,2,0,2,0,,,,,,,,,0,0,0,0,0,8,8,8,5,0,5,0,,,,,,,,,,,,,,,,,,,,,,,,,,,,,,,,,,,,,,,,,,,,,,,,,,,,,,,,,,,,,,,,30,,,,,,,,2099.07834909996,2099.07834909996,2099.07834909996,2099.07834909996,2099.07834909996,right,1.7775010999757797,0,0,0,99,0.0,-0.07999999999999997,right,1.7031492000678554,,,,,,,,,,,,,,,,,,,,,,,,,,,,,,,,,,,,,,,,,,,,,,,,,,,,,,,,,,,,PFNPG3,train_x,red_square,top_left,2025-01-31_15h04.22.289,HideSeek_v1,2022.2.5,59.94553347830427,
,1,5,5,5,4,0,56,,train_dim1_1,9,30,,,,2,0,2,0,,,,,,,,,0,0,0,0,0,8,8,8,6,0,6,0,,,,,,,,,,,,,,,,,,,,,,,,,,,,,,,,,,,,,,,,,,,,,,,,,,,,,,,,,,,,,,,,30,,,,,,,,2100.8627530999947,2100.8627530999947,2100.8627530999947,2100.8627530999947,2100.8627530999947,right,0.9602634001057595,0,0,0,99,0.08,-0.07999999999999997,right,0.8779137999517843,,,,,,,,,,,,,,,,,,,,,,,,,,,,,,,,,,,,,,,,,,,,,,,,,,,,,,,,,,,,PFNPG3,train_x,red_square,top_left,2025-01-31_15h04.22.289,HideSeek_v1,2022.2.5,59.94553347830427,
,1,5,5,5,4,0,56,,train_dim1_1,9,30,,,,2,0,2,0,,,,,,,,,0,0,0,0,0,8,8,8,7,0,7,0,,,,,,,,,,,,,,,,,,,,,,,,,,,,,,,,,,,,,,,,,,,,,,,,,,,,,,,,,,,,,,,,30,,,,,,,,2101.82993300003,2101.82993300003,2101.82993300003,2101.82993300003,2101.82993300003,right,1.0602330999681726,0,0,0,99,0.16,-0.07999999999999997,right,0.9788809000747278,,,,,,,,,,,,,,,,,,,,,,,,,,,,,,,,,,,,,,,,,,,,,,,,,,,,,,,,,,,,PFNPG3,train_x,red_square,top_left,2025-01-31_15h04.22.289,HideSeek_v1,2022.2.5,59.94553347830427,
,1,5,5,5,4,0,56,,train_dim1_1,9,30,,,,2,0,2,0,,,,,,,,,0,0,0,0,0,8,8,8,8,0,8,0,,,,,,,,,,,,,,,,,,,,,,,,,,,,,,,,,,,,,,,,,,,,,,,,,,,,,,,,,,,,,,,,30,,,,,,,,2102.8973623999627,2102.8973623999627,2102.8973623999627,2102.8973623999627,2102.8973623999627,return,1.3611441999673843,0,0,0,0,0.16,-0.07999999999999997,return,1.2846649000421166,-5,21,0.16,-0.07999999999999997,,,,,,,,,,,,,,,,,,,,,,,,,,,,,,,,,,,,,,,,,,,,,,,,,,,,,,,,PFNPG3,train_x,red_square,top_left,2025-01-31_15h04.22.289,HideSeek_v1,2022.2.5,59.94553347830427,
,0,8,0,8,0,0,16,,train_dim1_1,10,30,,,,2,0,2,0,,,,,,,,,0,0,0,0,0,9,9,9,0,0,0,0,,,,,,,,,,,,,,,,,,,,,,,,,stimuli/alien_stimuli/16.png,,,,,,,,,,,,,,,,,,,,,,,,,,,,,stimuli/alien_stimuli/56.png,56,1,11,,,,,,,30,,,,,,,,2111.4164160999935,2111.4164160999935,2111.4164160999935,2111.4164160999935,2111.4164160999935,right,4.275809100014158,0,0,0,99,-0.08,0.24,right,4.185804600012489,,,,,2109.854845199967,2111.4164160999935,0.24,0,0.0,0.32,0.0,0.24,0.07999999999999999,0.24,0,2105.8348232000135,2105.8348232000135,2105.8348232000135,2105.8348232000135,2105.8348232000135,2105.8348232000135,2105.8348232000135,2105.8348232000135,2105.817879050027,4.138884900021367,return,3.988684899988584,,,,,,,,,,,,,,,,,,,,,,,,,,,,,,,,,PFNPG3,train_x,red_square,top_left,2025-01-31_15h04.22.289,HideSeek_v1,2022.2.5,59.94553347830427,
,0,8,0,8,0,0,16,,train_dim1_1,10,30,,,,2,0,2,0,,,,,,,,,0,0,0,0,0,9,9,9,1,0,1,0,,,,,,,,,,,,,,,,,,,,,,,,,,,,,,,,,,,,,,,,,,,,,,,,,,,,,,,,,,,,,,,,30,,,,,,,,2115.694578499999,2115.694578499999,2115.694578499999,2115.694578499999,2115.694578499999,return,2.394329799921252,0,1,0,0,-0.08,0.24,return,2.3018027999205515,-5,22,-0.08,0.24,,,,,,,,,,,,,,,,,,,,,,,,,,,,,,,,,,,,,,,,,,,,,,,,,,,,,,,,PFNPG3,train_x,red_square,top_left,2025-01-31_15h04.22.289,HideSeek_v1,2022.2.5,59.94553347830427,
,2,7,5,7,3,0,46,,train_dim1_1,11,30,,,,2,0,2,0,,,,,,,,,0,0,0,0,0,10,10,10,0,0,0,0,,,,,,,,,,,,,,,,,,,,,,,,,stimuli/alien_stimuli/46.png,,,,,,,,,,,,,,,,,,,,,,,,,,,,,stimuli/alien_stimuli/16.png,16,0,12,,,,,,,30,,,,,,,,2139.3851239000214,2139.3851239000214,2139.3851239000214,2139.3851239000214,2139.3851239000214,left,5.40951419994235,0,1,0,99,-0.08,0.16,left,5.300219299970195,,,,,2137.811408999958,2139.3851239000214,-0.16,0.24,0.0,0.0,0.24,-0.16,-0.16,-0.16,0.24,2119.6712894999655,2119.6712894999655,2119.6712894999655,2119.6712894999655,2119.6712894999655,2119.6712894999655,2119.6712894999655,2119.6712894999655,2119.662876900006,18.267203400027938,return,18.118823800003156,,,,,,,,,,,,,,,,,,,,,,,,,,,,,,,,,PFNPG3,train_x,red_square,top_left,2025-01-31_15h04.22.289,HideSeek_v1,2022.2.5,59.94553347830427,
,2,7,5,7,3,0,46,,train_dim1_1,11,30,,,,2,0,2,0,,,,,,,,,0,0,0,0,0,10,10,10,1,0,1,0,,,,,,,,,,,,,,,,,,,,,,,,,,,,,,,,,,,,,,,,,,,,,,,,,,,,,,,,,,,,,,,,30,,,,,,,,2144.780433799955,2144.780433799955,2144.780433799955,2144.780433799955,2144.780433799955,left,3.3455550000071526,0,1,0,99,-0.16,0.16,left,3.271911099902354,,,,,,,,,,,,,,,,,,,,,,,,,,,,,,,,,,,,,,,,,,,,,,,,,,,,,,,,,,,,PFNPG3,train_x,red_square,top_left,2025-01-31_15h04.22.289,HideSeek_v1,2022.2.5,59.94553347830427,
,2,7,5,7,3,0,46,,train_dim1_1,11,30,,,,2,0,2,0,,,,,,,,,0,0,0,0,0,10,10,10,2,0,2,0,,,,,,,,,,,,,,,,,,,,,,,,,,,,,,,,,,,,,,,,,,,,,,,,,,,,,,,,,,,,,,,,30,,,,,,,,2148.132890800014,2148.132890800014,2148.132890800014,2148.132890800014,2148.132890800014,return,1.41086639999412,0,0,0,0,-0.16,0.16,return,1.335761999944225,-5,20,-0.16,0.16,,,,,,,,,,,,,,,,,,,,,,,,,,,,,,,,,,,,,,,,,,,,,,,,,,,,,,,,PFNPG3,train_x,red_square,top_left,2025-01-31_15h04.22.289,HideSeek_v1,2022.2.5,59.94553347830427,
,0,5,1,5,1,0,26,,train_dim1_1,12,30,,,,2,0,2,0,,,,,,,,,0,0,0,0,0,11,11,11,0,0,0,0,,,,,,,,,,,,,,,,,,,,,,,,,stimuli/alien_stimuli/26.png,,,,,,,,,,,,,,,,,,,,,,,,,,,,,stimuli/alien_stimuli/46.png,46,2,13,,,,,,,30,,,,,,,,2160.3908975999802,2160.3908975999802,2160.3908975999802,2160.3908975999802,2160.3908975999802,right,3.5426113000139594,0,0,0,99,-0.08,0,right,3.4481898999074474,,,,,2158.828687399975,2160.3908975999802,0.24,0.16,0.0,0.24,0.16,0.24,0.12,0.24,0.16,2151.1197767000413,2151.1197767000413,2151.1197767000413,2151.1197767000413,2151.1197767000413,2151.1197767000413,2151.1197767000413,2151.1197767000413,2151.105757349974,7.825188200105913,return,7.68720010004472,,,,,,,,,,,,,,,,,,,,,,,,,,,,,,,,,PFNPG3,train_x,red_square,top_left,2025-01-31_15h04.22.289,HideSeek_v1,2022.2.5,59.94553347830427,
,0,5,1,5,1,0,26,,train_dim1_1,12,30,,,,2,0,2,0,,,,,,,,,0,0,0,0,0,11,11,11,1,0,1,0,,,,,,,,,,,,,,,,,,,,,,,,,,,,,,,,,,,,,,,,,,,,,,,,,,,,,,,,,,,,,,,,30,,,,,,,,2163.9337284000358,2163.9337284000358,2163.9337284000358,2163.9337284000358,2163.9337284000358,right,0.6093753000022843,0,0,0,99,0.0,0,right,0.5233183999080211,,,,,,,,,,,,,,,,,,,,,,,,,,,,,,,,,,,,,,,,,,,,,,,,,,,,,,,,,,,,PFNPG3,train_x,red_square,top_left,2025-01-31_15h04.22.289,HideSeek_v1,2022.2.5,59.94553347830427,
,0,5,1,5,1,0,26,,train_dim1_1,12,30,,,,2,0,2,0,,,,,,,,,0,0,0,0,0,11,11,11,2,0,2,0,,,,,,,,,,,,,,,,,,,,,,,,,,,,,,,,,,,,,,,,,,,,,,,,,,,,,,,,,,,,,,,,30,,,,,,,,2164.551110200002,2164.551110200002,2164.551110200002,2164.551110200002,2164.551110200002,right,0.560162500012666,0,0,0,99,0.08,0,right,0.47440219996497035,,,,,,,,,,,,,,,,,,,,,,,,,,,,,,,,,,,,,,,,,,,,,,,,,,,,,,,,,,,,PFNPG3,train_x,red_square,top_left,2025-01-31_15h04.22.289,HideSeek_v1,2022.2.5,59.94553347830427,
,0,5,1,5,1,0,26,,train_dim1_1,12,30,,,,2,0,2,0,,,,,,,,,0,0,0,0,0,11,11,11,3,0,3,0,,,,,,,,,,,,,,,,,,,,,,,,,,,,,,,,,,,,,,,,,,,,,,,,,,,,,,,,,,,,,,,,30,,,,,,,,2165.1168030999834,2165.1168030999834,2165.1168030999834,2165.1168030999834,2165.1168030999834,return,0.793539599981159,0,0,0,0,0.08,0,return,0.7132455999962986,-5,23,0.08,0,,,,,,,,,,,,,,,,,,,,,,,,,,,,,,,,,,,,,,,,,,,,,,,,,,,,,,,,PFNPG3,train_x,red_square,top_left,2025-01-31_15h04.22.289,HideSeek_v1,2022.2.5,59.94553347830427,
,0,9,4,9,4,0,45,,train_dim1_1,13,30,,,,2,0,2,0,,,,,,,,,0,0,0,0,0,12,12,12,0,0,0,0,,,,,,,,,,,,,,,,,,,,,,,,,stimuli/alien_stimuli/45.png,,,,,,,,,,,,,,,,,,,,,,,,,,,,,stimuli/alien_stimuli/26.png,26,0,14,,,,,,,30,,,,,,,,2175.498776099994,2175.498776099994,2175.498776099994,2175.498776099994,2175.498776099994,down,5.159533099969849,0,0,0,99,-0.16,0.24,down,5.071389199933037,,,,,2173.941424599965,2175.498776099994,-0.08,0,0.0,0.08,0.0,-0.08,-0.12,-0.08,0,2167.4905956999864,2167.4905956999864,2167.4905956999864,2167.4905956999864,2167.4905956999864,2167.4905956999864,2167.4905956999864,2167.4905956999864,2167.46889024995,6.5743881999515,return,6.43200330005493,,,,,,,,,,,,,,,,,,,,,,,,,,,,,,,,,PFNPG3,train_x,red_square,top_left,2025-01-31_15h04.22.289,HideSeek_v1,2022.2.5,59.94553347830427,
,0,9,4,9,4,0,45,,train_dim1_1,13,30,,,,2,0,2,0,,,,,,,,,0,0,0,0,0,12,12,12,1,0,1,0,,,,,,,,,,,,,,,,,,,,,,,,,,,,,,,,,,,,,,,,,,,,,,,,,,,,,,,,,,,,,,,,30,,,,,,,,2180.662596900016,2180.662596900016,2180.662596900016,2180.662596900016,2180.662596900016,down,1.007707200013101,0,0,0,99,-0.16,0.15999999999999998,down,0.9273654000135139,,,,,,,,,,,,,,,,,,,,,,,,,,,,,,,,,,,,,,,,,,,,,,,,,,,,,,,,,,,,PFNPG3,train_x,red_square,top_left,2025-01-31_15h04.22.289,HideSeek_v1,2022.2.5,59.94553347830427,
,0,9,4,9,4,0,45,,train_dim1_1,13,30,,,,2,0,2,0,,,,,,,,,0,0,0,0,0,12,12,12,2,0,2,0,,,,,,,,,,,,,,,,,,,,,,,,,,,,,,,,,,,,,,,,,,,,,,,,,,,,,,,,,,,,,,,,30,,,,,,,,2181.6753082999494,2181.6753082999494,2181.6753082999494,2181.6753082999494,2181.6753082999494,down,1.460676099988632,0,0,0,99,-0.16,0.07999999999999997,down,1.3828316000290215,,,,,,,,,,,,,,,,,,,,,,,,,,,,,,,,,,,,,,,,,,,,,,,,,,,,,,,,,,,,PFNPG3,train_x,red_square,top_left,2025-01-31_15h04.22.289,HideSeek_v1,2022.2.5,59.94553347830427,
,0,9,4,9,4,0,45,,train_dim1_1,13,30,,,,2,0,2,0,,,,,,,,,0,0,0,0,0,12,12,12,3,0,3,0,,,,,,,,,,,,,,,,,,,,,,,,,,,,,,,,,,,,,,,,,,,,,,,,,,,,,,,,,,,,,,,,30,,,,,,,,2183.1432956999633,2183.1432956999633,2183.1432956999633,2183.1432956999633,2183.1432956999633,return,1.060572799993679,0,0,0,0,-0.16,0.07999999999999997,return,0.9887480000033975,-8,23,-0.16,0.07999999999999997,,,,,,,,,,,,,,,,,,,,,,,,,,,,,,,,,,,,,,,,,,,,,,,,,,,,,,,,PFNPG3,train_x,red_square,top_left,2025-01-31_15h04.22.289,HideSeek_v1,2022.2.5,59.94553347830427,
,4,8,4,8,0,0,16,,train_dim1_1,14,30,,,,2,0,2,0,,,,,,,,,0,0,0,0,0,13,13,13,0,0,0,0,,,,,,,,,,,,,,,,,,,,,,,,,stimuli/alien_stimuli/16.png,,,,,,,,,,,,,,,,,,,,,,,,,,,,,stimuli/alien_stimuli/45.png,45,0,15,,,,,,,30,,,,,,,,2195.739337099949,2195.739337099949,2195.739337099949,2195.739337099949,2195.739337099949,return,3.506609999923967,1,0,0,1,0.16,0.24,return,3.4178485999582335,-8,23,0.16,0.24,2194.1746797999367,2195.739337099949,0.16,0.32,0.0,0.32,0.32,0.16,0.0,0.16,0.32,2185.777774099959,2185.777774099959,2185.777774099959,2185.777774099959,2185.777774099959,2185.777774099959,2185.777774099959,2185.777774099959,2185.767711249983,8.509345300029963,return,8.38105149997864,,,,,,,,,,,,,,,,,,,,,,,,,,,,,,,,,PFNPG3,train_x,red_square,top_left,2025-01-31_15h04.22.289,HideSeek_v1,2022.2.5,59.94553347830427,
,4,7,9,7,5,0,66,,train_dim1_1,15,30,,,,2,0,2,0,,,,,,,,,0,0,0,0,0,14,14,14,0,0,0,0,,,,,,,,,,,,,,,,,,,,,,,,,stimuli/alien_stimuli/66.png,,,,,,,,,,,,,,,,,,,,,,,,,,,,,stimuli/alien_stimuli/16.png,16,4,16,,,,,,,30,,,,,,,,2206.2278151999926,2206.2278151999926,2206.2278151999926,2206.2278151999926,2206.2278151999926,right,3.357200000085868,1,0,0,99,0.24,0.16,right,3.2714219000190496,,,,,2204.600016499986,2206.2278151999926,0.16,0.24,0.0,0.0,0.24,0.16,0.16,0.16,0.24,2200.8242351999506,2200.8242351999506,2200.8242351999506,2200.8242351999506,2200.8242351999506,2200.8242351999506,2200.8242351999506,2200.8242351999506,2200.813269799994,3.9056159999454394,return,3.748278000042774,,,,,,,,,,,,,,,,,,,,,,,,,,,,,,,,,PFNPG3,train_x,red_square,top_left,2025-01-31_15h04.22.289,HideSeek_v1,2022.2.5,59.94553347830427,
,4,7,9,7,5,0,66,,train_dim1_1,15,30,,,,2,0,2,0,,,,,,,,,0,0,0,0,0,14,14,14,1,0,1,0,,,,,,,,,,,,,,,,,,,,,,,,,,,,,,,,,,,,,,,,,,,,,,,,,,,,,,,,,,,,,,,,30,,,,,,,,2209.5839072000235,2209.5839072000235,2209.5839072000235,2209.5839072000235,2209.5839072000235,right,0.593020600033924,1,0,0,99,0.32,0.16,right,0.5057290999684483,,,,,,,,,,,,,,,,,,,,,,,,,,,,,,,,,,,,,,,,,,,,,,,,,,,,,,,,,,,,PFNPG3,train_x,red_square,top_left,2025-01-31_15h04.22.289,HideSeek_v1,2022.2.5,59.94553347830427,
,4,7,9,7,5,0,66,,train_dim1_1,15,30,,,,2,0,2,0,,,,,,,,,0,0,0,0,0,14,14,14,2,0,2,0,,,,,,,,,,,,,,,,,,,,,,,,,,,,,,,,,,,,,,,,,,,,,,,,,,,,,,,,,,,,,,,,30,,,,,,,,2210.1845644999994,2210.1845644999994,2210.1845644999994,2210.1845644999994,2210.1845644999994,right,0.6268229000270367,1,0,0,99,0.4,0.16,right,0.5420155000174418,,,,,,,,,,,,,,,,,,,,,,,,,,,,,,,,,,,,,,,,,,,,,,,,,,,,,,,,,,,,PFNPG3,train_x,red_square,top_left,2025-01-31_15h04.22.289,HideSeek_v1,2022.2.5,59.94553347830427,
,4,7,9,7,5,0,66,,train_dim1_1,15,30,,,,2,0,2,0,,,,,,,,,0,0,0,0,0,14,14,14,3,0,3,0,,,,,,,,,,,,,,,,,,,,,,,,,,,,,,,,,,,,,,,,,,,,,,,,,,,,,,,,,,,,,,,,30,,,,,,,,2210.8182550999336,2210.8182550999336,2210.8182550999336,2210.8182550999336,2210.8182550999336,right,0.5104233999736607,1,0,0,99,0.48000000000000004,0.16,right,0.42888380005024374,,,,,,,,,,,,,,,,,,,,,,,,,,,,,,,,,,,,,,,,,,,,,,,,,,,,,,,,,,,,PFNPG3,train_x,red_square,top_left,2025-01-31_15h04.22.289,HideSeek_v1,2022.2.5,59.94553347830427,
,4,7,9,7,5,0,66,,train_dim1_1,15,30,,,,2,0,2,0,,,,,,,,,0,0,0,0,0,14,14,14,4,0,4,0,,,,,,,,,,,,,,,,,,,,,,,,,,,,,,,,,,,,,,,,,,,,,,,,,,,,,,,,,,,,,,,,30,,,,,,,,2211.3347562999697,2211.3347562999697,2211.3347562999697,2211.3347562999697,2211.3347562999697,right,0.7600583999883384,1,0,0,99,0.56,0.16,right,0.6737155000446364,,,,,,,,,,,,,,,,,,,,,,,,,,,,,,,,,,,,,,,,,,,,,,,,,,,,,,,,,,,,PFNPG3,train_x,red_square,top_left,2025-01-31_15h04.22.289,HideSeek_v1,2022.2.5,59.94553347830427,
,4,7,9,7,5,0,66,,train_dim1_1,15,30,,,,2,0,2,0,,,,,,,,,0,0,0,0,0,14,14,14,5,0,5,0,,,,,,,,,,,,,,,,,,,,,,,,,,,,,,,,,,,,,,,,,,,,,,,,,,,,,,,,,,,,,,,,30,,,,,,,,2212.105660800007,2212.105660800007,2212.105660800007,2212.105660800007,2212.105660800007,return,1.2076799999922514,2,0,0,1,0.56,0.16,return,1.1224394999444485,-8,28,0.56,0.16,,,,,,,,,,,,,,,,,,,,,,,,,,,,,,,,,,,,,,,,,,,,,,,,,,,,,,,,PFNPG3,train_x,red_square,top_left,2025-01-31_15h04.22.289,HideSeek_v1,2022.2.5,59.94553347830427,
,3,8,7,8,4,0,56,,train_dim1_1,16,30,,,,2,0,2,0,,,,,,,,,0,0,0,0,0,15,15,15,0,0,0,0,,,,,,,,,,,,,,,,,,,,,,,,,stimuli/alien_stimuli/56.png,,,,,,,,,,,,,,,,,,,,,,,,,,,,,stimuli/alien_stimuli/66.png,66,4,17,,,,,,,30,,,,,,,,2219.806037500035,2219.806037500035,2219.806037500035,2219.806037500035,2219.806037500035,right,4.40874789992813,2,0,0,99,0.16,0.24,right,4.314545699977316,,,,,2218.244666600018,2219.806037500035,0.56,0.16,0.0,0.4,0.16,0.56,0.36000000000000004,0.56,0.16,2214.8965110999998,2214.8965110999998,2214.8965110999998,2214.8965110999998,2214.8965110999998,2214.8965110999998,2214.8965110999998,2214.8965110999998,2214.87484495003,3.471900900010951,return,3.324343799962662,,,,,,,,,,,,,,,,,,,,,,,,,,,,,,,,,PFNPG3,train_x,red_square,top_left,2025-01-31_15h04.22.289,HideSeek_v1,2022.2.5,59.94553347830427,
,3,8,7,8,4,0,56,,train_dim1_1,16,30,,,,2,0,2,0,,,,,,,,,0,0,0,0,0,15,15,15,1,0,1,0,,,,,,,,,,,,,,,,,,,,,,,,,,,,,,,,,,,,,,,,,,,,,,,,,,,,,,,,,,,,,,,,30,,,,,,,,2224.2153940999415,2224.2153940999415,2224.2153940999415,2224.2153940999415,2224.2153940999415,right,0.6764529999345541,2,0,0,99,0.24,0.24,right,0.5863393000327051,,,,,,,,,,,,,,,,,,,,,,,,,,,,,,,,,,,,,,,,,,,,,,,,,,,,,,,,,,,,PFNPG3,train_x,red_square,top_left,2025-01-31_15h04.22.289,HideSeek_v1,2022.2.5,59.94553347830427,
,3,8,7,8,4,0,56,,train_dim1_1,16,30,,,,2,0,2,0,,,,,,,,,0,0,0,0,0,15,15,15,2,0,2,0,,,,,,,,,,,,,,,,,,,,,,,,,,,,,,,,,,,,,,,,,,,,,,,,,,,,,,,,,,,,,,,,30,,,,,,,,2224.8983030000236,2224.8983030000236,2224.8983030000236,2224.8983030000236,2224.8983030000236,right,0.5768426000140607,2,0,0,99,0.32,0.24,right,0.487506499979645,,,,,,,,,,,,,,,,,,,,,,,,,,,,,,,,,,,,,,,,,,,,,,,,,,,,,,,,,,,,PFNPG3,train_x,red_square,top_left,2025-01-31_15h04.22.289,HideSeek_v1,2022.2.5,59.94553347830427,
,3,8,7,8,4,0,56,,train_dim1_1,16,30,,,,2,0,2,0,,,,,,,,,0,0,0,0,0,15,15,15,3,0,3,0,,,,,,,,,,,,,,,,,,,,,,,,,,,,,,,,,,,,,,,,,,,,,,,,,,,,,,,,,,,,,,,,30,,,,,,,,2225.4823583000107,2225.4823583000107,2225.4823583000107,2225.4823583000107,2225.4823583000107,right,0.5433805000502616,2,0,0,99,0.4,0.24,right,0.4636873999843374,,,,,,,,,,,,,,,,,,,,,,,,,,,,,,,,,,,,,,,,,,,,,,,,,,,,,,,,,,,,PFNPG3,train_x,red_square,top_left,2025-01-31_15h04.22.289,HideSeek_v1,2022.2.5,59.94553347830427,
,3,8,7,8,4,0,56,,train_dim1_1,16,30,,,,2,0,2,0,,,,,,,,,0,0,0,0,0,15,15,15,4,0,4,0,,,,,,,,,,,,,,,,,,,,,,,,,,,,,,,,,,,,,,,,,,,,,,,,,,,,,,,,,,,,,,,,30,,,,,,,,2226.032185000018,2226.032185000018,2226.032185000018,2226.032185000018,2226.032185000018,right,0.5769056999124587,2,0,0,99,0.48000000000000004,0.24,right,0.49816309998277575,,,,,,,,,,,,,,,,,,,,,,,,,,,,,,,,,,,,,,,,,,,,,,,,,,,,,,,,,,,,PFNPG3,train_x,red_square,top_left,2025-01-31_15h04.22.289,HideSeek_v1,2022.2.5,59.94553347830427,
,3,8,7,8,4,0,56,,train_dim1_1,16,30,,,,2,0,2,0,,,,,,,,,0,0,0,0,0,15,15,15,5,0,5,0,,,,,,,,,,,,,,,,,,,,,,,,,,,,,,,,,,,,,,,,,,,,,,,,,,,,,,,,,,,,,,,,30,,,,,,,,2226.6162406000076,2226.6162406000076,2226.6162406000076,2226.6162406000076,2226.6162406000076,return,0.8771074999822304,2,1,0,0,0.48000000000000004,0.24,return,0.7993309999583289,-8,33,0.48000000000000004,0.24,,,,,,,,,,,,,,,,,,,,,,,,,,,,,,,,,,,,,,,,,,,,,,,,,,,,,,,,PFNPG3,train_x,red_square,top_left,2025-01-31_15h04.22.289,HideSeek_v1,2022.2.5,59.94553347830427,
,2,9,3,9,1,0,26,,train_dim1_1,17,30,,,,2,0,2,0,,,,,,,,,0,0,0,0,0,16,16,16,0,0,0,0,,,,,,,,,,,,,,,,,,,,,,,,,stimuli/alien_stimuli/26.png,,,,,,,,,,,,,,,,,,,,,,,,,,,,,stimuli/alien_stimuli/56.png,56,3,18,,,,,,,30,,,,,,,,2236.0534006999806,2236.0534006999806,2236.0534006999806,2236.0534006999806,2236.0534006999806,right,5.859678299981169,2,1,0,99,0.08,0.32,right,5.775594000006095,,,,,2234.4912458999315,2236.0534006999806,0.4,0.24,0.0,0.32,0.24,0.4,0.24000000000000002,0.4,0.24,2229.057789099985,2229.057789099985,2229.057789099985,2229.057789099985,2229.057789099985,2229.057789099985,2229.057789099985,2229.057789099985,2229.036522700009,5.540635799989104,return,5.407979500014335,,,,,,,,,,,,,,,,,,,,,,,,,,,,,,,,,PFNPG3,train_x,red_square,top_left,2025-01-31_15h04.22.289,HideSeek_v1,2022.2.5,59.94553347830427,
,2,9,3,9,1,0,26,,train_dim1_1,17,30,,,,2,0,2,0,,,,,,,,,0,0,0,0,0,16,16,16,1,0,1,0,,,,,,,,,,,,,,,,,,,,,,,,,,,,,,,,,,,,,,,,,,,,,,,,,,,,,,,,,,,,,,,,30,,,,,,,,2241.914865199942,2241.914865199942,2241.914865199942,2241.914865199942,2241.914865199942,right,0.8932898000348359,2,1,0,99,0.16,0.32,right,0.8074012999422848,,,,,,,,,,,,,,,,,,,,,,,,,,,,,,,,,,,,,,,,,,,,,,,,,,,,,,,,,,,,PFNPG3,train_x,red_square,top_left,2025-01-31_15h04.22.289,HideSeek_v1,2022.2.5,59.94553347830427,
,2,9,3,9,1,0,26,,train_dim1_1,17,30,,,,2,0,2,0,,,,,,,,,0,0,0,0,0,16,16,16,2,0,2,0,,,,,,,,,,,,,,,,,,,,,,,,,,,,,,,,,,,,,,,,,,,,,,,,,,,,,,,,,,,,,,,,30,,,,,,,,2242.814671900007,2242.814671900007,2242.814671900007,2242.814671900007,2242.814671900007,return,1.3271142001030967,2,1,0,0,0.16,0.32,return,1.2409560999367386,-8,35,0.16,0.32,,,,,,,,,,,,,,,,,,,,,,,,,,,,,,,,,,,,,,,,,,,,,,,,,,,,,,,,PFNPG3,train_x,red_square,top_left,2025-01-31_15h04.22.289,HideSeek_v1,2022.2.5,59.94553347830427,
,2,6,7,6,5,0,66,,train_dim1_1,18,30,,,,2,0,2,0,,,,,,,,,0,0,0,0,0,17,17,17,0,0,0,0,,,,,,,,,,,,,,,,,,,,,,,,,stimuli/alien_stimuli/66.png,,,,,,,,,,,,,,,,,,,,,,,,,,,,,stimuli/alien_stimuli/26.png,26,2,19,,,,,,,30,,,,,,,,2251.3795929999324,2251.3795929999324,2251.3795929999324,2251.3795929999324,2251.3795929999324,right,3.6410972999874502,2,1,0,99,0.08,0.08,right,3.556458199978806,,,,,2249.82081439998,2251.3795929999324,0.08,0.32,0.0,0.08,0.32,0.08,0.04,0.08,0.32,2245.7203273000196,2245.7203273000196,2245.7203273000196,2245.7203273000196,2245.7203273000196,2245.7203273000196,2245.7203273000196,2245.7203273000196,2245.700894849945,4.222254000022076,return,4.078401500009932,,,,,,,,,,,,,,,,,,,,,,,,,,,,,,,,,PFNPG3,train_x,red_square,top_left,2025-01-31_15h04.22.289,HideSeek_v1,2022.2.5,59.94553347830427,
,2,6,7,6,5,0,66,,train_dim1_1,18,30,,,,2,0,2,0,,,,,,,,,0,0,0,0,0,17,17,17,1,0,1,0,,,,,,,,,,,,,,,,,,,,,,,,,,,,,,,,,,,,,,,,,,,,,,,,,,,,,,,,,,,,,,,,30,,,,,,,,2255.0221933999564,2255.0221933999564,2255.0221933999564,2255.0221933999564,2255.0221933999564,right,0.7935933000408113,2,1,0,99,0.16,0.08,right,0.7193139999872074,,,,,,,,,,,,,,,,,,,,,,,,,,,,,,,,,,,,,,,,,,,,,,,,,,,,,,,,,,,,PFNPG3,train_x,red_square,top_left,2025-01-31_15h04.22.289,HideSeek_v1,2022.2.5,59.94553347830427,
,2,6,7,6,5,0,66,,train_dim1_1,18,30,,,,2,0,2,0,,,,,,,,,0,0,0,0,0,17,17,17,2,0,2,0,,,,,,,,,,,,,,,,,,,,,,,,,,,,,,,,,,,,,,,,,,,,,,,,,,,,,,,,,,,,,,,,30,,,,,,,,2255.8244034999516,2255.8244034999516,2255.8244034999516,2255.8244034999516,2255.8244034999516,right,1.7587545000715181,2,1,0,99,0.24,0.08,right,1.6777065000496805,,,,,,,,,,,,,,,,,,,,,,,,,,,,,,,,,,,,,,,,,,,,,,,,,,,,,,,,,,,,PFNPG3,train_x,red_square,top_left,2025-01-31_15h04.22.289,HideSeek_v1,2022.2.5,59.94553347830427,
,2,6,7,6,5,0,66,,train_dim1_1,18,30,,,,2,0,2,0,,,,,,,,,0,0,0,0,0,17,17,17,3,0,3,0,,,,,,,,,,,,,,,,,,,,,,,,,,,,,,,,,,,,,,,,,,,,,,,,,,,,,,,,,,,,,,,,30,,,,,,,,2257.589883800014,2257.589883800014,2257.589883800014,2257.589883800014,2257.589883800014,right,0.7432790000457317,2,1,0,99,0.32,0.08,right,0.6668250999646261,,,,,,,,,,,,,,,,,,,,,,,,,,,,,,,,,,,,,,,,,,,,,,,,,,,,,,,,,,,,PFNPG3,train_x,red_square,top_left,2025-01-31_15h04.22.289,HideSeek_v1,2022.2.5,59.94553347830427,
,2,6,7,6,5,0,66,,train_dim1_1,18,30,,,,2,0,2,0,,,,,,,,,0,0,0,0,0,17,17,17,4,0,4,0,,,,,,,,,,,,,,,,,,,,,,,,,,,,,,,,,,,,,,,,,,,,,,,,,,,,,,,,,,,,,,,,30,,,,,,,,2258.339507699944,2258.339507699944,2258.339507699944,2258.339507699944,2258.339507699944,right,0.9435661000898108,2,1,0,99,0.4,0.08,right,0.8628522000508383,,,,,,,,,,,,,,,,,,,,,,,,,,,,,,,,,,,,,,,,,,,,,,,,,,,,,,,,,,,,PFNPG3,train_x,red_square,top_left,2025-01-31_15h04.22.289,HideSeek_v1,2022.2.5,59.94553347830427,
,2,6,7,6,5,0,66,,train_dim1_1,18,30,,,,2,0,2,0,,,,,,,,,0,0,0,0,0,17,17,17,5,0,5,0,,,,,,,,,,,,,,,,,,,,,,,,,,,,,,,,,,,,,,,,,,,,,,,,,,,,,,,,,,,,,,,,30,,,,,,,,2259.292156399926,2259.292156399926,2259.292156399926,2259.292156399926,2259.292156399926,return,0.7604546999791637,3,0,0,1,0.4,0.08,return,0.673085100017488,-8,40,0.4,0.08,,,,,,,,,,,,,,,,,,,,,,,,,,,,,,,,,,,,,,,,,,,,,,,,,,,,,,,,PFNPG3,train_x,red_square,top_left,2025-01-31_15h04.22.289,HideSeek_v1,2022.2.5,59.94553347830427,
,0,8,3,8,3,0,46,,train_dim1_1,19,30,,,,2,0,2,0,,,,,,,,,0,0,0,0,0,18,18,18,0,0,0,0,,,,,,,,,,,,,,,,,,,,,,,,,stimuli/alien_stimuli/46.png,,,,,,,,,,,,,,,,,,,,,,,,,,,,,stimuli/alien_stimuli/66.png,66,2,20,,,,,,,30,,,,,,,,2265.227749899961,2265.227749899961,2265.227749899961,2265.227749899961,2265.227749899961,right,6.993388899951242,3,0,0,99,-0.08,0.24,right,6.894055199925788,,,,,2263.648992500035,2265.227749899961,0.4,0.08,0.0,0.4,0.08,0.4,0.2,0.4,0.08,2261.614051099983,2261.614051099983,2261.614051099983,2261.614051099983,2261.614051099983,2261.614051099983,2261.614051099983,2261.614051099983,2261.596841200045,2.137388899922371,return,2.0079499998828396,,,,,,,,,,,,,,,,,,,,,,,,,,,,,,,,,PFNPG3,train_x,red_square,top_left,2025-01-31_15h04.22.289,HideSeek_v1,2022.2.5,59.94553347830427,
,0,8,3,8,3,0,46,,train_dim1_1,19,30,,,,2,0,2,0,,,,,,,,,0,0,0,0,0,18,18,18,1,0,1,0,,,,,,,,,,,,,,,,,,,,,,,,,,,,,,,,,,,,,,,,,,,,,,,,,,,,,,,,,,,,,,,,30,,,,,,,,2272.203599600005,2272.203599600005,2272.203599600005,2272.203599600005,2272.203599600005,right,0.6429652000078931,3,0,0,99,0.0,0.24,right,0.5614460000069812,,,,,,,,,,,,,,,,,,,,,,,,,,,,,,,,,,,,,,,,,,,,,,,,,,,,,,,,,,,,PFNPG3,train_x,red_square,top_left,2025-01-31_15h04.22.289,HideSeek_v1,2022.2.5,59.94553347830427,
,0,8,3,8,3,0,46,,train_dim1_1,19,30,,,,2,0,2,0,,,,,,,,,0,0,0,0,0,18,18,18,2,0,2,0,,,,,,,,,,,,,,,,,,,,,,,,,,,,,,,,,,,,,,,,,,,,,,,,,,,,,,,,,,,,,,,,30,,,,,,,,2272.853117599967,2272.853117599967,2272.853117599967,2272.853117599967,2272.853117599967,return,0.8603595000458881,3,1,0,0,0.0,0.24,return,0.7833511000499129,-8,42,0.0,0.24,,,,,,,,,,,,,,,,,,,,,,,,,,,,,,,,,,,,,,,,,,,,,,,,,,,,,,,,PFNPG3,train_x,red_square,top_left,2025-01-31_15h04.22.289,HideSeek_v1,2022.2.5,59.94553347830427,
,0,6,0,6,0,0,16,,train_dim1_1,20,30,,,,2,0,2,0,,,,,,,,,0,0,0,0,0,19,19,19,0,0,0,0,,,,,,,,,,,,,,,,,,,,,,,,,stimuli/alien_stimuli/16.png,,,,,,,,,,,,,,,,,,,,,,,,,,,,,stimuli/alien_stimuli/46.png,46,0,21,,,,,,,30,,,,,,,,2280.057260700036,2280.057260700036,2280.057260700036,2280.057260700036,2280.057260700036,right,3.9575889999978244,3,1,0,99,-0.08,0.08,right,3.8594182999804616,,,,,2278.494597699959,2280.057260700036,0.08,0.24,0.0,0.24,0.24,0.08,-0.04,0.08,0.24,2275.2758712000214,2275.2758712000214,2275.2758712000214,2275.2758712000214,2275.2758712000214,2275.2758712000214,2275.2758712000214,2275.2758712000214,2275.258457200043,3.321711300057359,return,3.196608499973081,,,,,,,,,,,,,,,,,,,,,,,,,,,,,,,,,PFNPG3,train_x,red_square,top_left,2025-01-31_15h04.22.289,HideSeek_v1,2022.2.5,59.94553347830427,
,0,6,0,6,0,0,16,,train_dim1_1,20,30,,,,2,0,2,0,,,,,,,,,0,0,0,0,0,19,19,19,1,0,1,0,,,,,,,,,,,,,,,,,,,,,,,,,,,,,,,,,,,,,,,,,,,,,,,,,,,,,,,,,,,,,,,,30,,,,,,,,2284.0159638000187,2284.0159638000187,2284.0159638000187,2284.0159638000187,2284.0159638000187,return,1.3272430999204516,3,1,0,0,-0.08,0.08,return,1.2419991999631748,-8,43,-0.08,0.08,,,,,,,,,,,,,,,,,,,,,,,,,,,,,,,,,,,,,,,,,,,,,,,,,,,,,,,,PFNPG3,train_x,red_square,top_left,2025-01-31_15h04.22.289,HideSeek_v1,2022.2.5,59.94553347830427,
,4,7,7,7,3,0,46,,train_dim1_1,21,30,,,,2,0,2,0,,,,,,,,,0,0,0,0,0,20,20,20,0,0,0,0,,,,,,,,,,,,,,,,,,,,,,,,,stimuli/alien_stimuli/46.png,,,,,,,,,,,,,,,,,,,,,,,,,,,,,stimuli/alien_stimuli/16.png,16,0,22,,,,,,,30,,,,,,,,2291.746257700026,2291.746257700026,2291.746257700026,2291.746257700026,2291.746257700026,right,5.659493900020607,3,1,0,99,0.24,0.16,right,5.567378300009295,,,,,2290.1869008999784,2291.746257700026,-0.16,0.08,0.0,0.0,0.08,-0.16,-0.16,-0.16,0.08,2286.9294350999407,2286.9294350999407,2286.9294350999407,2286.9294350999407,2286.9294350999407,2286.9294350999407,2286.9294350999407,2286.9294350999407,2286.9180430999954,3.3884437000378966,return,3.230096200015396,,,,,,,,,,,,,,,,,,,,,,,,,,,,,,,,,PFNPG3,train_x,red_square,top_left,2025-01-31_15h04.22.289,HideSeek_v1,2022.2.5,59.94553347830427,
,4,7,7,7,3,0,46,,train_dim1_1,21,30,,,,2,0,2,0,,,,,,,,,0,0,0,0,0,20,20,20,1,0,1,0,,,,,,,,,,,,,,,,,,,,,,,,,,,,,,,,,,,,,,,,,,,,,,,,,,,,,,,,,,,,,,,,30,,,,,,,,2297.406907700002,2297.406907700002,2297.406907700002,2297.406907700002,2297.406907700002,right,0.6263643000274897,3,1,0,99,0.32,0.16,right,0.5516473000170663,,,,,,,,,,,,,,,,,,,,,,,,,,,,,,,,,,,,,,,,,,,,,,,,,,,,,,,,,,,,PFNPG3,train_x,red_square,top_left,2025-01-31_15h04.22.289,HideSeek_v1,2022.2.5,59.94553347830427,
,4,7,7,7,3,0,46,,train_dim1_1,21,30,,,,2,0,2,0,,,,,,,,,0,0,0,0,0,20,20,20,2,0,2,0,,,,,,,,,,,,,,,,,,,,,,,,,,,,,,,,,,,,,,,,,,,,,,,,,,,,,,,,,,,,,,,,30,,,,,,,,2298.0401556999423,2298.0401556999423,2298.0401556999423,2298.0401556999423,2298.0401556999423,right,0.6092968999873847,3,1,0,99,0.4,0.16,right,0.522872900008224,,,,,,,,,,,,,,,,,,,,,,,,,,,,,,,,,,,,,,,,,,,,,,,,,,,,,,,,,,,,PFNPG3,train_x,red_square,top_left,2025-01-31_15h04.22.289,HideSeek_v1,2022.2.5,59.94553347830427,
,4,7,7,7,3,0,46,,train_dim1_1,21,30,,,,2,0,2,0,,,,,,,,,0,0,0,0,0,20,20,20,3,0,3,0,,,,,,,,,,,,,,,,,,,,,,,,,,,,,,,,,,,,,,,,,,,,,,,,,,,,,,,,,,,,,,,,30,,,,,,,,2298.658491099952,2298.658491099952,2298.658491099952,2298.658491099952,2298.658491099952,right,0.5093959999503568,3,1,0,99,0.48000000000000004,0.16,right,0.4354914000723511,,,,,,,,,,,,,,,,,,,,,,,,,,,,,,,,,,,,,,,,,,,,,,,,,,,,,,,,,,,,PFNPG3,train_x,red_square,top_left,2025-01-31_15h04.22.289,HideSeek_v1,2022.2.5,59.94553347830427,
,4,7,7,7,3,0,46,,train_dim1_1,21,30,,,,2,0,2,0,,,,,,,,,0,0,0,0,0,20,20,20,4,0,4,0,,,,,,,,,,,,,,,,,,,,,,,,,,,,,,,,,,,,,,,,,,,,,,,,,,,,,,,,,,,,,,,,30,,,,,,,,2299.176643999992,2299.176643999992,2299.176643999992,2299.176643999992,2299.176643999992,right,0.5261253999779001,3,1,0,99,0.56,0.16,right,0.44579659996088594,,,,,,,,,,,,,,,,,,,,,,,,,,,,,,,,,,,,,,,,,,,,,,,,,,,,,,,,,,,,PFNPG3,train_x,red_square,top_left,2025-01-31_15h04.22.289,HideSeek_v1,2022.2.5,59.94553347830427,
,4,7,7,7,3,0,46,,train_dim1_1,21,30,,,,2,0,2,0,,,,,,,,,0,0,0,0,0,20,20,20,5,0,5,0,,,,,,,,,,,,,,,,,,,,,,,,,,,,,,,,,,,,,,,,,,,,,,,,,,,,,,,,,,,,,,,,30,,,,,,,,2299.7087722999277,2299.7087722999277,2299.7087722999277,2299.7087722999277,2299.7087722999277,return,1.277701299986802,3,0,0,0,0.56,0.16,return,1.2031526999780908,-8,48,0.56,0.16,,,,,,,,,,,,,,,,,,,,,,,,,,,,,,,,,,,,,,,,,,,,,,,,,,,,,,,,PFNPG3,train_x,red_square,top_left,2025-01-31_15h04.22.289,HideSeek_v1,2022.2.5,59.94553347830427,
,1,5,2,5,1,0,26,,train_dim1_1,22,30,,,,2,0,2,0,,,,,,,,,0,0,0,0,0,21,21,21,0,0,0,0,,,,,,,,,,,,,,,,,,,,,,,,,stimuli/alien_stimuli/26.png,,,,,,,,,,,,,,,,,,,,,,,,,,,,,stimuli/alien_stimuli/46.png,46,4,23,,,,,,,30,,,,,,,,2308.4130043999758,2308.4130043999758,2308.4130043999758,2308.4130043999758,2308.4130043999758,return,4.709535800036974,3,1,0,0,-0.08,0,return,4.624803700018674,-8,48,-0.08,0,2306.8510029999306,2308.4130043999758,0.4,0.16,0.0,0.24,0.16,0.4,0.28,0.4,0.16,2302.559618799947,2302.559618799947,2302.559618799947,2302.559618799947,2302.559618799947,2302.559618799947,2302.559618799947,2302.559618799947,2302.5482209500506,4.40523219993338,return,4.271601199987344,,,,,,,,,,,,,,,,,,,,,,,,,,,,,,,,,PFNPG3,train_x,red_square,top_left,2025-01-31_15h04.22.289,HideSeek_v1,2022.2.5,59.94553347830427,
,2,6,7,6,5,0,66,,train_dim1_1,23,30,,,,2,0,2,0,,,,,,,,,0,0,0,0,0,22,22,22,0,0,0,0,,,,,,,,,,,,,,,,,,,,,,,,,stimuli/alien_stimuli/66.png,,,,,,,,,,,,,,,,,,,,,,,,,,,,,stimuli/alien_stimuli/26.png,26,1,24,,,,,,,30,,,,,,,,2337.9968752999557,2337.9968752999557,2337.9968752999557,2337.9968752999557,2337.9968752999557,right,2.6581249999580905,3,1,0,99,0.08,0.08,right,2.5501658000284806,,,,,2336.4258369000163,2337.9968752999557,0,0,0.0,0.08,0.0,0,-0.04,0,0,2314.6945122999605,2314.6945122999605,2314.6945122999605,2314.6945122999605,2314.6945122999605,2314.6945122999605,2314.6945122999605,2314.6945122999605,2314.6746737500534,21.85362539999187,return,21.71461630007252,,,,,,,,,,,,,,,,,,,,,,,,,,,,,,,,,PFNPG3,train_x,red_square,top_left,2025-01-31_15h04.22.289,HideSeek_v1,2022.2.5,59.94553347830427,
,2,6,7,6,5,0,66,,train_dim1_1,23,30,,,,2,0,2,0,,,,,,,,,0,0,0,0,0,22,22,22,1,0,1,0,,,,,,,,,,,,,,,,,,,,,,,,,,,,,,,,,,,,,,,,,,,,,,,,,,,,,,,,,,,,,,,,30,,,,,,,,2340.6440287999576,2340.6440287999576,2340.6440287999576,2340.6440287999576,2340.6440287999576,right,0.5425604999763891,3,1,0,99,0.16,0.08,right,0.4580380000406876,,,,,,,,,,,,,,,,,,,,,,,,,,,,,,,,,,,,,,,,,,,,,,,,,,,,,,,,,,,,PFNPG3,train_x,red_square,top_left,2025-01-31_15h04.22.289,HideSeek_v1,2022.2.5,59.94553347830427,
,2,6,7,6,5,0,66,,train_dim1_1,23,30,,,,2,0,2,0,,,,,,,,,0,0,0,0,0,22,22,22,2,0,2,0,,,,,,,,,,,,,,,,,,,,,,,,,,,,,,,,,,,,,,,,,,,,,,,,,,,,,,,,,,,,,,,,30,,,,,,,,2341.1924820999848,2341.1924820999848,2341.1924820999848,2341.1924820999848,2341.1924820999848,right,0.543421300011687,3,1,0,99,0.24,0.08,right,0.46674030006397516,,,,,,,,,,,,,,,,,,,,,,,,,,,,,,,,,,,,,,,,,,,,,,,,,,,,,,,,,,,,PFNPG3,train_x,red_square,top_left,2025-01-31_15h04.22.289,HideSeek_v1,2022.2.5,59.94553347830427,
,2,6,7,6,5,0,66,,train_dim1_1,23,30,,,,2,0,2,0,,,,,,,,,0,0,0,0,0,22,22,22,3,0,3,0,,,,,,,,,,,,,,,,,,,,,,,,,,,,,,,,,,,,,,,,,,,,,,,,,,,,,,,,,,,,,,,,30,,,,,,,,2341.7430556999752,2341.7430556999752,2341.7430556999752,2341.7430556999752,2341.7430556999752,right,0.543413299950771,3,1,0,99,0.32,0.08,right,0.4601593000115827,,,,,,,,,,,,,,,,,,,,,,,,,,,,,,,,,,,,,,,,,,,,,,,,,,,,,,,,,,,,PFNPG3,train_x,red_square,top_left,2025-01-31_15h04.22.289,HideSeek_v1,2022.2.5,59.94553347830427,
,2,6,7,6,5,0,66,,train_dim1_1,23,30,,,,2,0,2,0,,,,,,,,,0,0,0,0,0,22,22,22,4,0,4,0,,,,,,,,,,,,,,,,,,,,,,,,,,,,,,,,,,,,,,,,,,,,,,,,,,,,,,,,,,,,,,,,30,,,,,,,,2342.293068800005,2342.293068800005,2342.293068800005,2342.293068800005,2342.293068800005,right,2.4286154999863356,3,1,0,99,0.4,0.08,right,2.3471188999246806,,,,,,,,,,,,,,,,,,,,,,,,,,,,,,,,,,,,,,,,,,,,,,,,,,,,,,,,,,,,PFNPG3,train_x,red_square,top_left,2025-01-31_15h04.22.289,HideSeek_v1,2022.2.5,59.94553347830427,
,2,6,7,6,5,0,66,,train_dim1_1,23,30,,,,2,0,2,0,,,,,,,,,0,0,0,0,0,22,22,22,5,0,5,0,,,,,,,,,,,,,,,,,,,,,,,,,,,,,,,,,,,,,,,,,,,,,,,,,,,,,,,,,,,,,,,,30,,,,,,,,2344.7284155000234,2344.7284155000234,2344.7284155000234,2344.7284155000234,2344.7284155000234,return,0.693493300001137,4,0,0,1,0.4,0.08,return,0.6175019999500364,-8,53,0.4,0.08,,,,,,,,,,,,,,,,,,,,,,,,,,,,,,,,,,,,,,,,,,,,,,,,,,,,,,,,PFNPG3,train_x,red_square,top_left,2025-01-31_15h04.22.289,HideSeek_v1,2022.2.5,59.94553347830427,
,4,9,8,9,4,0,56,,train_dim1_1,24,30,,,,2,0,2,0,,,,,,,,,0,0,0,0,0,23,23,23,0,0,0,0,,,,,,,,,,,,,,,,,,,,,,,,,stimuli/alien_stimuli/56.png,,,,,,,,,,,,,,,,,,,,,,,,,,,,,stimuli/alien_stimuli/66.png,66,2,25,,,,,,,30,,,,,,,,2350.5946603999473,2350.5946603999473,2350.5946603999473,2350.5946603999473,2350.5946603999473,right,3.1755107000935823,4,0,0,99,0.24,0.32,right,3.0715900999493897,,,,,2349.01947509998,2350.5946603999473,0.4,0.08,0.0,0.4,0.08,0.4,0.2,0.4,0.08,2347.0057838000357,2347.0057838000357,2347.0057838000357,2347.0057838000357,2347.0057838000357,2347.0057838000357,2347.0057838000357,2347.0057838000357,2346.9844284499877,2.1374247999629006,return,1.9828793000197038,,,,,,,,,,,,,,,,,,,,,,,,,,,,,,,,,PFNPG3,train_x,red_square,top_left,2025-01-31_15h04.22.289,HideSeek_v1,2022.2.5,59.94553347830427,
,4,9,8,9,4,0,56,,train_dim1_1,24,30,,,,2,0,2,0,,,,,,,,,0,0,0,0,0,23,23,23,1,0,1,0,,,,,,,,,,,,,,,,,,,,,,,,,,,,,,,,,,,,,,,,,,,,,,,,,,,,,,,,,,,,,,,,30,,,,,,,,2353.755642700009,2353.755642700009,2353.755642700009,2353.755642700009,2353.755642700009,right,0.5765910000773147,4,0,0,99,0.32,0.32,right,0.499078799970448,,,,,,,,,,,,,,,,,,,,,,,,,,,,,,,,,,,,,,,,,,,,,,,,,,,,,,,,,,,,PFNPG3,train_x,red_square,top_left,2025-01-31_15h04.22.289,HideSeek_v1,2022.2.5,59.94553347830427,
,4,9,8,9,4,0,56,,train_dim1_1,24,30,,,,2,0,2,0,,,,,,,,,0,0,0,0,0,23,23,23,2,0,2,0,,,,,,,,,,,,,,,,,,,,,,,,,,,,,,,,,,,,,,,,,,,,,,,,,,,,,,,,,,,,,,,,30,,,,,,,,2354.338926599943,2354.338926599943,2354.338926599943,2354.338926599943,2354.338926599943,right,0.526658600079827,4,0,0,99,0.4,0.32,right,0.44225409999489784,,,,,,,,,,,,,,,,,,,,,,,,,,,,,,,,,,,,,,,,,,,,,,,,,,,,,,,,,,,,PFNPG3,train_x,red_square,top_left,2025-01-31_15h04.22.289,HideSeek_v1,2022.2.5,59.94553347830427,
,4,9,8,9,4,0,56,,train_dim1_1,24,30,,,,2,0,2,0,,,,,,,,,0,0,0,0,0,23,23,23,3,0,3,0,,,,,,,,,,,,,,,,,,,,,,,,,,,,,,,,,,,,,,,,,,,,,,,,,,,,,,,,,,,,,,,,30,,,,,,,,2354.8731065000175,2354.8731065000175,2354.8731065000175,2354.8731065000175,2354.8731065000175,right,0.510301599977538,4,0,0,99,0.48000000000000004,0.32,right,0.4349084999412298,,,,,,,,,,,,,,,,,,,,,,,,,,,,,,,,,,,,,,,,,,,,,,,,,,,,,,,,,,,,PFNPG3,train_x,red_square,top_left,2025-01-31_15h04.22.289,HideSeek_v1,2022.2.5,59.94553347830427,
,4,9,8,9,4,0,56,,train_dim1_1,24,30,,,,2,0,2,0,,,,,,,,,0,0,0,0,0,23,23,23,4,0,4,0,,,,,,,,,,,,,,,,,,,,,,,,,,,,,,,,,,,,,,,,,,,,,,,,,,,,,,,,,,,,,,,,30,,,,,,,,2355.3895631999476,2355.3895631999476,2355.3895631999476,2355.3895631999476,2355.3895631999476,right,0.44368290004786104,4,0,0,99,0.56,0.32,right,0.3641024000244215,,,,,,,,,,,,,,,,,,,,,,,,,,,,,,,,,,,,,,,,,,,,,,,,,,,,,,,,,,,,PFNPG3,train_x,red_square,top_left,2025-01-31_15h04.22.289,HideSeek_v1,2022.2.5,59.94553347830427,
,4,9,8,9,4,0,56,,train_dim1_1,24,30,,,,2,0,2,0,,,,,,,,,0,0,0,0,0,23,23,23,5,0,5,0,,,,,,,,,,,,,,,,,,,,,,,,,,,,,,,,,,,,,,,,,,,,,,,,,,,,,,,,,,,,,,,,30,,,,,,,,2355.8415936999954,2355.8415936999954,2355.8415936999954,2355.8415936999954,2355.8415936999954,return,1.0601481000194326,4,1,0,0,0.56,0.32,return,0.9704288999782875,-8,58,0.56,0.32,,,,,,,,,,,,,,,,,,,,,,,,,,,,,,,,,,,,,,,,,,,,,,,,,,,,,,,,PFNPG3,train_x,red_square,top_left,2025-01-31_15h04.22.289,HideSeek_v1,2022.2.5,59.94553347830427,
,3,5,3,5,0,0,16,,train_dim1_1,25,30,,,,2,0,2,0,,,,,,,,,0,0,0,0,0,24,24,24,0,0,0,0,,,,,,,,,,,,,,,,,,,,,,,,,stimuli/alien_stimuli/16.png,,,,,,,,,,,,,,,,,,,,,,,,,,,,,stimuli/alien_stimuli/56.png,56,4,26,,,,,,,30,,,,,,,,2362.83153960004,2362.83153960004,2362.83153960004,2362.83153960004,2362.83153960004,return,2.752280500018969,5,0,0,1,0.08,0,return,2.658483300008811,-8,58,0.08,0,2361.263151400024,2362.83153960004,0.48,0.32,0.0,0.32,0.32,0.48,0.32,0.48,0.32,2358.4791444999864,2358.4791444999864,2358.4791444999864,2358.4791444999864,2358.4791444999864,2358.4791444999864,2358.4791444999864,2358.4791444999864,2358.460865249962,2.904521399992518,return,2.7573419000254944,,,,,,,,,,,,,,,,,,,,,,,,,,,,,,,,,PFNPG3,train_x,red_square,top_left,2025-01-31_15h04.22.289,HideSeek_v1,2022.2.5,59.94553347830427,
,1,6,6,6,5,0,66,,train_dim1_1,26,30,,,,2,0,2,0,,,,,,,,,0,0,0,0,0,25,25,25,0,0,0,0,,,,,,,,,,,,,,,,,,,,,,,,,stimuli/alien_stimuli/66.png,,,,,,,,,,,,,,,,,,,,,,,,,,,,,stimuli/alien_stimuli/16.png,16,3,27,,,,,,,30,,,,,,,,2373.0130030999426,2373.0130030999426,2373.0130030999426,2373.0130030999426,2373.0130030999426,right,2.5917276999680325,5,0,0,99,0.0,0.08,right,2.497774700052105,,,,,2371.4545518000377,2373.0130030999426,0.08,0,0.0,0.0,0.0,0.08,0.08,0.08,0,2367.143468399998,2367.143468399998,2367.143468399998,2367.143468399998,2367.143468399998,2367.143468399998,2367.143468399998,2367.143468399998,2367.1346902500254,4.422353499918245,return,4.294041999964975,,,,,,,,,,,,,,,,,,,,,,,,,,,,,,,,,PFNPG3,train_x,red_square,top_left,2025-01-31_15h04.22.289,HideSeek_v1,2022.2.5,59.94553347830427,
,1,6,6,6,5,0,66,,train_dim1_1,26,30,,,,2,0,2,0,,,,,,,,,0,0,0,0,0,25,25,25,1,0,1,0,,,,,,,,,,,,,,,,,,,,,,,,,,,,,,,,,,,,,,,,,,,,,,,,,,,,,,,,,,,,,,,,30,,,,,,,,2375.611122900038,2375.611122900038,2375.611122900038,2375.611122900038,2375.611122900038,right,0.5377591999713331,5,0,0,99,0.08,0.08,right,0.4565542000345886,,,,,,,,,,,,,,,,,,,,,,,,,,,,,,,,,,,,,,,,,,,,,,,,,,,,,,,,,,,,PFNPG3,train_x,red_square,top_left,2025-01-31_15h04.22.289,HideSeek_v1,2022.2.5,59.94553347830427,
,1,6,6,6,5,0,66,,train_dim1_1,26,30,,,,2,0,2,0,,,,,,,,,0,0,0,0,0,25,25,25,2,0,2,0,,,,,,,,,,,,,,,,,,,,,,,,,,,,,,,,,,,,,,,,,,,,,,,,,,,,,,,,,,,,,,,,30,,,,,,,,2376.1549017999787,2376.1549017999787,2376.1549017999787,2376.1549017999787,2376.1549017999787,right,0.5770713000092655,5,0,0,99,0.16,0.08,right,0.49969189998228103,,,,,,,,,,,,,,,,,,,,,,,,,,,,,,,,,,,,,,,,,,,,,,,,,,,,,,,,,,,,PFNPG3,train_x,red_square,top_left,2025-01-31_15h04.22.289,HideSeek_v1,2022.2.5,59.94553347830427,
,1,6,6,6,5,0,66,,train_dim1_1,26,30,,,,2,0,2,0,,,,,,,,,0,0,0,0,0,25,25,25,3,0,3,0,,,,,,,,,,,,,,,,,,,,,,,,,,,,,,,,,,,,,,,,,,,,,,,,,,,,,,,,,,,,,,,,30,,,,,,,,2376.7384114000015,2376.7384114000015,2376.7384114000015,2376.7384114000015,2376.7384114000015,right,0.4770647999830544,5,0,0,99,0.24,0.08,right,0.3945578000275418,,,,,,,,,,,,,,,,,,,,,,,,,,,,,,,,,,,,,,,,,,,,,,,,,,,,,,,,,,,,PFNPG3,train_x,red_square,top_left,2025-01-31_15h04.22.289,HideSeek_v1,2022.2.5,59.94553347830427,
,1,6,6,6,5,0,66,,train_dim1_1,26,30,,,,2,0,2,0,,,,,,,,,0,0,0,0,0,25,25,25,4,0,4,0,,,,,,,,,,,,,,,,,,,,,,,,,,,,,,,,,,,,,,,,,,,,,,,,,,,,,,,,,,,,,,,,30,,,,,,,,2377.222315000021,2377.222315000021,2377.222315000021,2377.222315000021,2377.222315000021,right,0.5265374999726191,5,0,0,99,0.32,0.08,right,0.45344400010071695,,,,,,,,,,,,,,,,,,,,,,,,,,,,,,,,,,,,,,,,,,,,,,,,,,,,,,,,,,,,PFNPG3,train_x,red_square,top_left,2025-01-31_15h04.22.289,HideSeek_v1,2022.2.5,59.94553347830427,
,1,6,6,6,5,0,66,,train_dim1_1,26,30,,,,2,0,2,0,,,,,,,,,0,0,0,0,0,25,25,25,5,0,5,0,,,,,,,,,,,,,,,,,,,,,,,,,,,,,,,,,,,,,,,,,,,,,,,,,,,,,,,,,,,,,,,,30,,,,,,,,2377.756705399952,2377.756705399952,2377.756705399952,2377.756705399952,2377.756705399952,return,0.8098744000308216,6,0,0,1,0.32,0.08,return,0.7365326000144705,-8,63,0.32,0.08,,,,,,,,,,,,,,,,,,,,,,,,,,,,,,,,,,,,,,,,,,,,,,,,,,,,,,,,PFNPG3,train_x,red_square,top_left,2025-01-31_15h04.22.289,HideSeek_v1,2022.2.5,59.94553347830427,
,0,6,3,6,3,0,46,,train_dim1_1,27,30,,,,2,0,2,0,,,,,,,,,0,0,0,0,0,26,26,26,0,0,0,0,,,,,,,,,,,,,,,,,,,,,,,,,stimuli/alien_stimuli/46.png,,,,,,,,,,,,,,,,,,,,,,,,,,,,,stimuli/alien_stimuli/66.png,66,1,28,,,,,,,30,,,,,,,,2383.6868781000376,2383.6868781000376,2383.6868781000376,2383.6868781000376,2383.6868781000376,right,2.491669000010006,6,0,0,99,-0.08,0.08,right,2.3948601000010967,,,,,2382.1139115999686,2383.6868781000376,0.32,0.08,0.0,0.4,0.08,0.32,0.12,0.32,0.08,2380.1279219000135,2380.1279219000135,2380.1279219000135,2380.1279219000135,2380.1279219000135,2380.1279219000135,2380.1279219000135,2380.1279219000135,2380.111914600036,2.087439600029029,return,1.9613906999584287,,,,,,,,,,,,,,,,,,,,,,,,,,,,,,,,,PFNPG3,train_x,red_square,top_left,2025-01-31_15h04.22.289,HideSeek_v1,2022.2.5,59.94553347830427,
,0,6,3,6,3,0,46,,train_dim1_1,27,30,,,,2,0,2,0,,,,,,,,,0,0,0,0,0,26,26,26,1,0,1,0,,,,,,,,,,,,,,,,,,,,,,,,,,,,,,,,,,,,,,,,,,,,,,,,,,,,,,,,,,,,,,,,30,,,,,,,,2386.1646995999618,2386.1646995999618,2386.1646995999618,2386.1646995999618,2386.1646995999618,right,0.5596351999556646,6,0,0,99,0.0,0.08,right,0.477625000057742,,,,,,,,,,,,,,,,,,,,,,,,,,,,,,,,,,,,,,,,,,,,,,,,,,,,,,,,,,,,PFNPG3,train_x,red_square,top_left,2025-01-31_15h04.22.289,HideSeek_v1,2022.2.5,59.94553347830427,
,0,6,3,6,3,0,46,,train_dim1_1,27,30,,,,2,0,2,0,,,,,,,,,0,0,0,0,0,26,26,26,2,0,2,0,,,,,,,,,,,,,,,,,,,,,,,,,,,,,,,,,,,,,,,,,,,,,,,,,,,,,,,,,,,,,,,,30,,,,,,,,2386.7294491999783,2386.7294491999783,2386.7294491999783,2386.7294491999783,2386.7294491999783,right,0.460058500058949,6,0,0,99,0.08,0.08,right,0.3762346999719739,,,,,,,,,,,,,,,,,,,,,,,,,,,,,,,,,,,,,,,,,,,,,,,,,,,,,,,,,,,,PFNPG3,train_x,red_square,top_left,2025-01-31_15h04.22.289,HideSeek_v1,2022.2.5,59.94553347830427,
,0,6,3,6,3,0,46,,train_dim1_1,27,30,,,,2,0,2,0,,,,,,,,,0,0,0,0,0,26,26,26,3,0,3,0,,,,,,,,,,,,,,,,,,,,,,,,,,,,,,,,,,,,,,,,,,,,,,,,,,,,,,,,,,,,,,,,30,,,,,,,,2387.1976069000084,2387.1976069000084,2387.1976069000084,2387.1976069000084,2387.1976069000084,return,0.7440468999557197,7,0,0,1,0.08,0.08,return,0.6683659999398515,-8,66,0.08,0.08,,,,,,,,,,,,,,,,,,,,,,,,,,,,,,,,,,,,,,,,,,,,,,,,,,,,,,,,PFNPG3,train_x,red_square,top_left,2025-01-31_15h04.22.289,HideSeek_v1,2022.2.5,59.94553347830427,
,3,6,4,6,1,0,26,,train_dim1_1,28,30,,,,2,0,2,0,,,,,,,,,0,0,0,0,0,27,27,27,0,0,0,0,,,,,,,,,,,,,,,,,,,,,,,,,stimuli/alien_stimuli/26.png,,,,,,,,,,,,,,,,,,,,,,,,,,,,,stimuli/alien_stimuli/46.png,46,0,29,,,,,,,30,,,,,,,,2394.801420700038,2394.801420700038,2394.801420700038,2394.801420700038,2394.801420700038,right,3.3913255999796093,7,0,0,99,0.16,0.08,right,3.2943115000380203,,,,,2393.239650100004,2394.801420700038,0.08,0.08,0.0,0.24,0.08,0.08,-0.04,0.08,0.08,2389.5048428999726,2389.5048428999726,2389.5048428999726,2389.5048428999726,2389.5048428999726,2389.5048428999726,2389.5048428999726,2389.5048428999726,2389.4864411000394,3.839062299928628,return,3.714333500014618,,,,,,,,,,,,,,,,,,,,,,,,,,,,,,,,,PFNPG3,train_x,red_square,top_left,2025-01-31_15h04.22.289,HideSeek_v1,2022.2.5,59.94553347830427,
,3,6,4,6,1,0,26,,train_dim1_1,28,30,,,,2,0,2,0,,,,,,,,,0,0,0,0,0,27,27,27,1,0,1,0,,,,,,,,,,,,,,,,,,,,,,,,,,,,,,,,,,,,,,,,,,,,,,,,,,,,,,,,,,,,,,,,30,,,,,,,,2398.1941841000225,2398.1941841000225,2398.1941841000225,2398.1941841000225,2398.1941841000225,return,0.7764109999407083,8,0,0,1,0.16,0.08,return,0.6961133999284357,-8,67,0.16,0.08,,,,,,,,,,,,,,,,,,,,,,,,,,,,,,,,,,,,,,,,,,,,,,,,,,,,,,,,PFNPG3,train_x,red_square,top_left,2025-01-31_15h04.22.289,HideSeek_v1,2022.2.5,59.94553347830427,
,4,5,8,5,4,0,56,,train_dim1_1,29,30,,,,2,0,2,0,,,,,,,,,0,0,0,0,0,28,28,28,0,0,0,0,,,,,,,,,,,,,,,,,,,,,,,,,stimuli/alien_stimuli/56.png,,,,,,,,,,,,,,,,,,,,,,,,,,,,,stimuli/alien_stimuli/26.png,26,3,30,,,,,,,30,,,,,,,,2404.366471400019,2404.366471400019,2404.366471400019,2404.366471400019,2404.366471400019,right,1.9568922000471503,8,0,0,99,0.24,0,right,1.867195799946785,,,,,2402.7976954999613,2404.366471400019,0.16,0.08,0.0,0.08,0.08,0.16,0.12,0.16,0.08,2400.5552284999285,2400.5552284999285,2400.5552284999285,2400.5552284999285,2400.5552284999285,2400.5552284999285,2400.5552284999285,2400.5552284999285,2400.5454713999757,2.3709549999330193,return,2.2213773999828845,,,,,,,,,,,,,,,,,,,,,,,,,,,,,,,,,PFNPG3,train_x,red_square,top_left,2025-01-31_15h04.22.289,HideSeek_v1,2022.2.5,59.94553347830427,
,4,5,8,5,4,0,56,,train_dim1_1,29,30,,,,2,0,2,0,,,,,,,,,0,0,0,0,0,28,28,28,1,0,1,0,,,,,,,,,,,,,,,,,,,,,,,,,,,,,,,,,,,,,,,,,,,,,,,,,,,,,,,,,,,,,,,,30,,,,,,,,2406.3161318999482,2406.3161318999482,2406.3161318999482,2406.3161318999482,2406.3161318999482,right,0.6430045000743121,8,0,0,99,0.32,0,right,0.5533472000388429,,,,,,,,,,,,,,,,,,,,,,,,,,,,,,,,,,,,,,,,,,,,,,,,,,,,,,,,,,,,PFNPG3,train_x,red_square,top_left,2025-01-31_15h04.22.289,HideSeek_v1,2022.2.5,59.94553347830427,
,4,5,8,5,4,0,56,,train_dim1_1,29,30,,,,2,0,2,0,,,,,,,,,0,0,0,0,0,28,28,28,2,0,2,0,,,,,,,,,,,,,,,,,,,,,,,,,,,,,,,,,,,,,,,,,,,,,,,,,,,,,,,,,,,,,,,,30,,,,,,,,2406.965967199998,2406.965967199998,2406.965967199998,2406.965967199998,2406.965967199998,right,0.5434645999921486,8,0,0,99,0.4,0,right,0.4600607000757009,,,,,,,,,,,,,,,,,,,,,,,,,,,,,,,,,,,,,,,,,,,,,,,,,,,,,,,,,,,,PFNPG3,train_x,red_square,top_left,2025-01-31_15h04.22.289,HideSeek_v1,2022.2.5,59.94553347830427,
,4,5,8,5,4,0,56,,train_dim1_1,29,30,,,,2,0,2,0,,,,,,,,,0,0,0,0,0,28,28,28,3,0,3,0,,,,,,,,,,,,,,,,,,,,,,,,,,,,,,,,,,,,,,,,,,,,,,,,,,,,,,,,,,,,,,,,30,,,,,,,,2407.51684149995,2407.51684149995,2407.51684149995,2407.51684149995,2407.51684149995,right,0.5434552000369877,8,0,0,99,0.48000000000000004,0,right,0.4536698000738397,,,,,,,,,,,,,,,,,,,,,,,,,,,,,,,,,,,,,,,,,,,,,,,,,,,,,,,,,,,,PFNPG3,train_x,red_square,top_left,2025-01-31_15h04.22.289,HideSeek_v1,2022.2.5,59.94553347830427,
,4,5,8,5,4,0,56,,train_dim1_1,29,30,,,,2,0,2,0,,,,,,,,,0,0,0,0,0,28,28,28,4,0,4,0,,,,,,,,,,,,,,,,,,,,,,,,,,,,,,,,,,,,,,,,,,,,,,,,,,,,,,,,,,,,,,,,30,,,,,,,,2408.0668993999716,2408.0668993999716,2408.0668993999716,2408.0668993999716,2408.0668993999716,return,1.5277369000250474,9,0,0,1,0.48000000000000004,0,return,1.4528740999521688,-8,71,0.48000000000000004,0,,,,,,,,,,,,,,,,,,,,,,,,,,,,,,,,,,,,,,,,,,,,,,,,,,,,,,,,PFNPG3,train_x,red_square,top_left,2025-01-31_15h04.22.289,HideSeek_v1,2022.2.5,59.94553347830427,
,2,7,2,7,0,0,16,,train_dim1_1,30,30,,,,2,0,2,0,,,,,,,,,0,0,0,0,0,29,29,29,0,0,0,0,,,,,,,,,,,,,,,,,,,,,,,,,stimuli/alien_stimuli/16.png,,,,,,,,,,,,,,,,,,,,,,,,,,,,,stimuli/alien_stimuli/56.png,56,4,31,,,,,,,30,,,,,,,,2415.204558599973,2415.204558599973,2415.204558599973,2415.204558599973,2415.204558599973,return,4.541908500017598,10,0,0,1,0,0.16,return,4.424437000066973,-8,71,0,0.16,2413.623111199937,2415.204558599973,0.48,0,0.0,0.32,0.0,0.48,0.32,0.48,0,2411.158195200027,2411.158195200027,2411.158195200027,2411.158195200027,2411.158195200027,2411.158195200027,2411.158195200027,2411.158195200027,2411.137752800039,2.571203700033948,return,2.4412713000783697,,,,,,,,,,,,,,,,,,,,,,,,,,,,,,,,,PFNPG3,train_x,red_square,top_left,2025-01-31_15h04.22.289,HideSeek_v1,2022.2.5,59.94553347830427,
,,,,,,,,,,,30,,,,2,0,2,0,,,,,,,,,,,,,,,,,,,,,,,,,,,,,,,,,,,,,,,,,,,,,,,,,,,,,,,,,,,,,,,,,,,,,,,,,,stimuli/alien_stimuli/16.png,16,2,32,21,0.7,0.41666666666666674,1,1,1,30,0,conditions/schedules/train_x_first/red_square_00/top_left/inputTrain_2.1.xlsx,99,1,2,1,0,,,,,,,,,,,1,,,,,,,,,2424.365616300027,2425.907560599968,0,0.16,0.0,0.0,0.16,0,0.0,0,0.16,2421.287658200017,2421.287658200017,2421.287658200017,2421.287658200017,2421.287658200017,2421.287658200017,2421.287658200017,2421.287658200017,2421.2793716499464,3.188435999909416,return,3.055902599939145,0,0.9,0,1,10,,,,,,,,,,,,,,,,,,,,,,,,,,,,PFNPG3,train_x,red_square,top_left,2025-01-31_15h04.22.289,HideSeek_v1,2022.2.5,59.94553347830427,
,,,,,,,,,,,,,,,3,0,3,0,0,0,0,0,,,,,,,,,,,,,,,,,,,,,,,,,,,,,,,conditions/schedules/train_x_first/red_square_00/top_left/instructions/Slide17.png,conditions/schedules/train_x_first/red_square_00/top_left/instructions/Audio17.wav,2425.907560599968,2425.900014149968,17,"[8.886751299956813, 18.549836299964227, 17.114827399956994, 20.35567199997604, 4.800778300035745, 5.1202178000239655, 5.954660400049761, 12.175610200036317, 6.356746300007217, 7.775140900048427, 10.754683300037868, 349.6176773000043, 20.019602700020187, 13.543317700037733, 30.571485899970867, 22.21038950001821, 350.99753259995487]","[0.1009589999448508, 0.013672500033862889, 0.0558404999319464, 0.014482200029306114, 0.09914139995817095, 0.09927470004186034, 0.06472630007192492, 0.06818820000626147, 0.06854920007754117, 0.07978740008547902, 0.030202100053429604, 349.6176863000728, 0.00025569996796548367, 13.543325999984518, 0.15920899994671345, 22.21039739996195, 350.99754139990546]",0,,,,,,,,,,,,,,,,,,,,,,,,,,,,,,,,,,,,,,,,,,,,,,,,,,,,,,,,,,,,,,,,,,,,,,,,,,,,,,,,,,,,,,,,,,,,,,,,,,,,,,,,,,,,,,,,,,,,,,,,,,,,PFNPG3,train_x,red_square,top_left,2025-01-31_15h04.22.289,HideSeek_v1,2022.2.5,59.94553347830427,
,,,,,,,,,,,,,,,3,0,3,0,1,0,1,0,,,,,,,,,,,,,,,,,,,,,,,,,,,,,,,conditions/schedules/train_x_first/red_square_00/top_left/instructions/Slide18.png,conditions/schedules/train_x_first/red_square_00/top_left/instructions/Audio18.wav,2776.9776788000017,2776.9742458499386,18,"[8.886751299956813, 18.549836299964227, 17.114827399956994, 20.35567199997604, 4.800778300035745, 5.1202178000239655, 5.954660400049761, 12.175610200036317, 6.356746300007217, 7.775140900048427, 10.754683300037868, 349.6176773000043, 20.019602700020187, 13.543317700037733, 30.571485899970867, 22.21038950001821, 350.99753259995487, 7.1999641000293195]","[0.1009589999448508, 0.013672500033862889, 0.0558404999319464, 0.014482200029306114, 0.09914139995817095, 0.09927470004186034, 0.06472630007192492, 0.06818820000626147, 0.06854920007754117, 0.07978740008547902, 0.030202100053429604, 349.6176863000728, 0.00025569996796548367, 13.543325999984518, 0.15920899994671345, 22.21039739996195, 0.06386670004576445, 7.199972900096327]",0,,,,,,,,,,,,,,,,,,,,,,,,,,,,,,,,,,,,,,,,,,,,,,,,,,,,,,,,,,,,,,,,,,,,,,,,,,,,,,,,,,,,,,,,,,,,,,,,,,,,,,,,,,,,,,,,,,,,,,,,,,,,PFNPG3,train_x,red_square,top_left,2025-01-31_15h04.22.289,HideSeek_v1,2022.2.5,59.94553347830427,
,,,,,,,,,,,,,,,3,0,3,0,2,0,2,0,,,,,,,,,,,,,,,,,,,,,,,,,,,,,,,conditions/schedules/train_x_first/red_square_00/top_left/instructions/Slide19.png,conditions/schedules/train_x_first/red_square_00/top_left/instructions/Audio19.wav,2784.2367597999983,2784.2303980999627,19,"[8.886751299956813, 18.549836299964227, 17.114827399956994, 20.35567199997604, 4.800778300035745, 5.1202178000239655, 5.954660400049761, 12.175610200036317, 6.356746300007217, 7.775140900048427, 10.754683300037868, 349.6176773000043, 20.019602700020187, 13.543317700037733, 30.571485899970867, 22.21038950001821, 350.99753259995487, 7.1999641000293195, 11.21689919999335]","[0.1009589999448508, 0.013672500033862889, 0.0558404999319464, 0.014482200029306114, 0.09914139995817095, 0.09927470004186034, 0.06472630007192492, 0.06818820000626147, 0.06854920007754117, 0.07978740008547902, 0.030202100053429604, 349.6176863000728, 0.00025569996796548367, 13.543325999984518, 0.15920899994671345, 22.21039739996195, 0.06386670004576445, 0.07940079993568361, 11.216907599940896]",0,,,,,,,,,,,,,,,,,,,,,,,,,,,,,,,,,,,,,,,,,,,,,,,,,,,,,,,,,,,,,,,,,,,,,,,,,,,,,,,,,,,,,,,,,,,,,,,,,,,,,,,,,,,,,,,,,,,,,,,,,,,,PFNPG3,train_x,red_square,top_left,2025-01-31_15h04.22.289,HideSeek_v1,2022.2.5,59.94553347830427,
,,,,,,,,,,,,,,,3,0,3,0,3,0,3,0,,,,,,,,,,,,,,,,,,,,,,,,,,,,,,,conditions/schedules/train_x_first/red_square_00/top_left/instructions/Slide20.png,conditions/schedules/train_x_first/red_square_00/top_left/instructions/Audio20.wav,2795.5227710999316,2795.523071650008,20,"[8.886751299956813, 18.549836299964227, 17.114827399956994, 20.35567199997604, 4.800778300035745, 5.1202178000239655, 5.954660400049761, 12.175610200036317, 6.356746300007217, 7.775140900048427, 10.754683300037868, 349.6176773000043, 20.019602700020187, 13.543317700037733, 30.571485899970867, 22.21038950001821, 350.99753259995487, 7.1999641000293195, 11.21689919999335, 14.943367899977602]","[0.1009589999448508, 0.013672500033862889, 0.0558404999319464, 0.014482200029306114, 0.09914139995817095, 0.09927470004186034, 0.06472630007192492, 0.06818820000626147, 0.06854920007754117, 0.07978740008547902, 0.030202100053429604, 349.6176863000728, 0.00025569996796548367, 13.543325999984518, 0.15920899994671345, 22.21039739996195, 0.06386670004576445, 0.07940079993568361, 0.031550099956803024, 14.943376199924387]",0,,,,,,,,,,,,,,,,,,,,,,,,,,,,,,,,,,,,,,,,,,,,,,,,,,,,,,,,,,,,,,,,,,,,,,,,,,,,,,,,,,,,,,,,,,,,,,,,,,,,,,,,,,,,,,,,,,,,,,,,,,,,PFNPG3,train_x,red_square,top_left,2025-01-31_15h04.22.289,HideSeek_v1,2022.2.5,59.94553347830427,
1,2,8,2,3,0,-5,11,2,instr_dim1_2,,,,,,3,0,3,0,,,,,0,0,0,0,,,,,,,,,,,,,,,,,,,,,,,,,,,,,,,,,,,,,stimuli/alien_stimuli/11.png,conditions/schedules/train_x_first/red_square_00/top_left/inputInstr_2.xlsx,stimuli/alien_stimuli/11.png,2810.57050859998,2810.57050859998,2810.57050859998,2810.57050859998,2810.5688536499974,return,6.530869900016114,"[-0.16, -0.08, 0, 0.08, 0.16, 0.24, 0.32, 0.4, 0.48, 0.56]","[-0.4, -0.32, -0.24, -0.16, -0.08, 0, 0.08, 0.16, 0.24, 0.32]",3,8,2,2,0.4,0.0,2817.2653918999713,2817.2653918999713,2817.2653918999713,2817.2653918999713,2817.2653918999713,2817.2653918999713,2817.2653918999713,2817.257479049999,8.52467329998035,return,8.355243499972858,stimuli/alien_stimuli/11.png,11,2,1,,,,,,,,,,,,,,,,,,,,,,,,,,,,,,,,,,,,,,,,,,,,,,,,,,,,,,,,,,,,,,,,,,,,,,,,,,,,,,,,,,,,,,,,,PFNPG3,train_x,red_square,top_left,2025-01-31_15h04.22.289,HideSeek_v1,2022.2.5,59.94553347830427,
,,,,,,,,,,,30,,,,3,0,3,0,,,,,,,,,,,,,,,,,,,,,,,,,,,,,,,,,,,,,,,,,,,,,,,,,,,,,,,,,,,,,,,,,,,,,,,,,,,,,,21,0.7,0.41666666666666674,1,99,2,30,0,conditions/schedules/train_x_first/red_square_00/top_left/inputTrain_2.1.xlsx,99,1,2,1,0,,,,,,,,,,,,,,,,,,,,,,,,,,,,,,,,,,,,,,,,,,,,,,,,,,,,,,,,,,,,,,,,,,,,,,,,,,,PFNPG3,train_x,red_square,top_left,2025-01-31_15h04.22.289,HideSeek_v1,2022.2.5,59.94553347830427,
,,,,,,,,,,,,,,,4,0,4,0,0,0,0,0,,,,,,,,,,,,,,,,,,,,,,,,,,,,,,,conditions/schedules/train_x_first/red_square_00/top_left/instructions/Slide21.png,conditions/schedules/train_x_first/red_square_00/top_left/instructions/Audio21.wav,2825.798185599968,2825.7978639999637,21,"[8.886751299956813, 18.549836299964227, 17.114827399956994, 20.35567199997604, 4.800778300035745, 5.1202178000239655, 5.954660400049761, 12.175610200036317, 6.356746300007217, 7.775140900048427, 10.754683300037868, 349.6176773000043, 20.019602700020187, 13.543317700037733, 30.571485899970867, 22.21038950001821, 350.99753259995487, 7.1999641000293195, 11.21689919999335, 14.943367899977602, 17.462040700018406]","[0.1009589999448508, 0.013672500033862889, 0.0558404999319464, 0.014482200029306114, 0.09914139995817095, 0.09927470004186034, 0.06472630007192492, 0.06818820000626147, 0.06854920007754117, 0.07978740008547902, 0.030202100053429604, 349.6176863000728, 0.00025569996796548367, 13.543325999984518, 0.15920899994671345, 22.21039739996195, 0.06386670004576445, 0.07940079993568361, 0.031550099956803024, 14.943376199924387, 17.462047899956815]",0,,,,,,,,,,,,,,,,,,,,,,,,,,,,,,,,,,,,,,,,,,,,,,,,,,,,,,,,,,,,,,,,,,,,,,,,,,,,,,,,,,,,,,,,,,,,,,,,,,,,,,,,,,,,,,,,,,,,,,,,,,,,PFNPG3,train_x,red_square,top_left,2025-01-31_15h04.22.289,HideSeek_v1,2022.2.5,59.94553347830427,
2,0,8,0,8,0,0,16,2,instr_dim1_2,,,,,,4,0,4,0,,,,,0,0,0,0,,,,,,,,,,,,,,,,,,,,,,,,,,,,,,,,,,,,,stimuli/alien_stimuli/16.png,conditions/schedules/train_x_first/red_square_00/top_left/inputInstr_2.xlsx,stimuli/alien_stimuli/16.png,2843.357102699927,2843.357102699927,2843.357102699927,2843.357102699927,2843.345972399949,return,5.545095899957232,"[-0.16, -0.08, 0, 0.08, 0.16, 0.24, 0.32, 0.4, 0.48, 0.56]","[-0.4, -0.32, -0.24, -0.16, -0.08, 0, 0.08, 0.16, 0.24, 0.32]",8,8,0,0,0.0,0.0,2849.0635882000206,2849.0635882000206,2849.0635882000206,2849.0635882000206,2849.0635882000206,2849.0635882000206,2849.0635882000206,2849.050712299952,3.987794899963774,return,3.827430799952708,stimuli/alien_stimuli/16.png,16,0,2,,,,,,,,,,,,,,,,,,,,,,,,,,,,,,,,,,,,,,,,,,,,,,,,,,,,,,,,,,,,,,,,,,,,,,,,,,,,,,,,,,,,,,,,,PFNPG3,train_x,red_square,top_left,2025-01-31_15h04.22.289,HideSeek_v1,2022.2.5,59.94553347830427,
,,,,,,,,,,,30,,,,4,0,4,0,,,,,,,,,,,,,,,,,,,,,,,,,,,,,,,,,,,,,,,,,,,,,,,,,,,,,,,,,,,,,,,,,,,,,,,,,,,,,,21,0.7,0.41666666666666674,1,99,2,30,0,conditions/schedules/train_x_first/red_square_00/top_left/inputTrain_2.1.xlsx,99,1,2,1,0,,,,,,,,,,,,,,,,,,,,,,,,,,,,,,,,,,,,,,,,,,,,,,,,,,,,,,,,,,,,,,,,,,,,,,,,,,,PFNPG3,train_x,red_square,top_left,2025-01-31_15h04.22.289,HideSeek_v1,2022.2.5,59.94553347830427,
,,,,,,,,,,,,,,,5,0,5,0,0,0,0,0,,,,,,,,,,,,,,,,,,,,,,,,,,,,,,,conditions/schedules/train_x_first/red_square_00/top_left/instructions/Slide22.png,conditions/schedules/train_x_first/red_square_00/top_left/instructions/Audio22.wav,2853.074269999983,2853.0708315999946,22,"[8.886751299956813, 18.549836299964227, 17.114827399956994, 20.35567199997604, 4.800778300035745, 5.1202178000239655, 5.954660400049761, 12.175610200036317, 6.356746300007217, 7.775140900048427, 10.754683300037868, 349.6176773000043, 20.019602700020187, 13.543317700037733, 30.571485899970867, 22.21038950001821, 350.99753259995487, 7.1999641000293195, 11.21689919999335, 14.943367899977602, 17.462040700018406, 42.795524800079875]","[0.1009589999448508, 0.013672500033862889, 0.0558404999319464, 0.014482200029306114, 0.09914139995817095, 0.09927470004186034, 0.06472630007192492, 0.06818820000626147, 0.06854920007754117, 0.07978740008547902, 0.030202100053429604, 349.6176863000728, 0.00025569996796548367, 13.543325999984518, 0.15920899994671345, 22.21039739996195, 0.06386670004576445, 0.07940079993568361, 0.031550099956803024, 14.943376199924387, 17.462047899956815, 42.79553190001752]",0,,,,,,,,,,,,,,,,,,,,,,,,,,,,,,,,,,,,,,,,,,,,,,,,,,,,,,,,,,,,,,,,,,,,,,,,,,,,,,,,,,,,,,,,,,,,,,,,,,,,,,,,,,,,,,,,,,,,,,,,,,,,PFNPG3,train_x,red_square,top_left,2025-01-31_15h04.22.289,HideSeek_v1,2022.2.5,59.94553347830427,
,0,5,0,4,0,-1,15,,train_dim1_2,1,30,,,,5,0,5,0,,,,,,,,,0,0,0,0,0,0,0,0,0,0,0,0,,,,,,,,,,,,,,,,,,,,,,,,,stimuli/alien_stimuli/15.png,,,,,,,,,,,,,,,,,,,,,,,,,,,,,,,,,,,,,,,30,,,,,,,,2895.9751160999294,2895.9751160999294,2895.9751160999294,2895.9751160999294,2895.9751160999294,right,3.5629770000232384,0,0,0,99,-0.08,0,right,3.453422899940051,,,,,,,,,,,,,,,,,,,,,,,,,,,,,,,,,,,,,,,,,,,,,,,,,,,,,,,,,,,,PFNPG3,train_x,red_square,top_left,2025-01-31_15h04.22.289,HideSeek_v1,2022.2.5,59.94553347830427,
,0,5,0,4,0,-1,15,,train_dim1_2,1,30,,,,5,0,5,0,,,,,,,,,0,0,0,0,0,0,0,0,1,0,1,0,,,,,,,,,,,,,,,,,,,,,,,,,,,,,,,,,,,,,,,,,,,,,,,,,,,,,,,,,,,,,,,,30,,,,,,,,2899.5277563999407,2899.5277563999407,2899.5277563999407,2899.5277563999407,2899.5277563999407,return,0.7100186001043767,0,0,0,0,-0.08,0,return,0.6174497000174597,-8,72,-0.08,0,,,,,,,,,,,,,,,,,,,,,,,,,,,,,,,,,,,,,,,,,,,,,,,,,,,,,,,,PFNPG3,train_x,red_square,top_left,2025-01-31_15h04.22.289,HideSeek_v1,2022.2.5,59.94553347830427,
,3,7,3,7,0,0,16,,train_dim1_2,2,30,,,,5,0,5,0,,,,,,,,,0,0,0,0,0,1,1,1,0,0,0,0,,,,,,,,,,,,,,,,,,,,,,,,,stimuli/alien_stimuli/16.png,,,,,,,,,,,,,,,,,,,,,,,,,,,,,stimuli/alien_stimuli/15.png,15,0,3,,,,,,,30,,,,,,,,2908.522496199934,2908.522496199934,2908.522496199934,2908.522496199934,2908.522496199934,return,2.2396922999760136,1,0,0,1,0.08,0.16,return,2.157307200017385,-8,72,0.08,0.16,2906.965329700033,2908.522496199934,-0.16,-0.08,0.08,0.0,-0.04,-0.16,-0.16,-0.16,-0.08,2901.816417600028,2901.816417600028,2901.816417600028,2901.816417600028,2901.816417600028,2901.816417600028,2901.816417600028,2901.816417600028,2901.81104979997,5.273306699935347,return,5.117210200056434,,,,,,,,,,,,,,,,,,,,,,,,,,,,,,,,,PFNPG3,train_x,red_square,top_left,2025-01-31_15h04.22.289,HideSeek_v1,2022.2.5,59.94553347830427,
