trialInstr,x_fixStart,y_fixStart,x_corrSteps,y_corrSteps,x_nrSteps,y_nrSteps,alienID,trialLength,version,trialTrain,praclen,testlen,trial_label,break_on_off,beforeExpLoop.thisRepN,beforeExpLoop.thisTrialN,beforeExpLoop.thisN,beforeExpLoop.thisIndex,mini_instr_trials.thisRepN,mini_instr_trials.thisTrialN,mini_instr_trials.thisN,mini_instr_trials.thisIndex,instrLoop.thisRepN,instrLoop.thisTrialN,instrLoop.thisN,instrLoop.thisIndex,repeat_prac.thisRepN,repeat_prac.thisTrialN,repeat_prac.thisN,repeat_prac.thisIndex,trainLoop.thisRepN,trainLoop.thisTrialN,trainLoop.thisN,trainLoop.thisIndex,moveLoop_train.thisRepN,moveLoop_train.thisTrialN,moveLoop_train.thisN,moveLoop_train.thisIndex,experiment.thisRepN,experiment.thisTrialN,experiment.thisN,experiment.thisIndex,moveLoop_test.thisRepN,moveLoop_test.thisTrialN,moveLoop_test.thisN,moveLoop_test.thisIndex,mini_instr2_trials.thisRepN,mini_instr2_trials.thisTrialN,mini_instr2_trials.thisN,mini_instr2_trials.thisIndex,start_all_time,url,slideStim,audioStim,slides.started,sounds.started,nextButton.numClicks,nextButton.timesOn,nextButton.timesOff,prev_but.numClicks,prev_but.timesOn,prev_but.timesOff,alienStim,instrFile,alienStim_instr,gridImage_instr.started,startPos_3.started,key_instr.started,alienImage_3.started,sounds_1.started,key_instr.keys,key_instr.rt,all_x,all_y,FBy_corrSteps,FBy_fixStart,FBx_corrSteps,FBx_fixStart,FBy_pathSize_check,FBx_pathSize_check,gridImage_9.started,alienImageFB_3.started,startPosFB_3.started,keyFB_3.started,pathLine_ydir_2.started,pathLine_xdir_2.started,alienFace_3.started,sounds_2.started,RTFB_instr,keyFB_3.keys,keyFB_3.rt,draw_alienStim,draw_alienID,test_x,nrepcount,perfthres,percthres,earlierperf,earlystop,nextPrac,fileidx,praclen,saveACC_train,pracFile,nextPrac_train,addNrep,fileidx_endr,repExp,showearly,gridImage_4.started,startPos.started,movePos.started,key_resp.started,alienImage.started,wLy_dir,wLx_dir,x_movePos,y_movePos,buttonPress_train,RTchoice_train,cumAcctrain,aCorr,saveACC_choice,corrAns,x_movePos_end,y_movePos_end,key_resp.keys,key_resp.rt,text_2.started,text_2.stopped,aft_x_corrPos,aft_y_corrPos,y_pathSize_check,x_pathSize_check,y_pathdirY,x_pathdirY,x_pathdirX,x_corrPos,y_corrPos,gridImage_6.started,alienImageFB_2.started,startPosFB_2.started,movePosFB_2.started,keyFB_2.started,pathLine_xdir.started,pathLine_ydir.started,alienFace.started,sounds_4.started,RT_FBtrain,keyFB_2.keys,keyFB_2.rt,saveACC_pre,ACC,within_saveACC_train,earlystop_wloop,cumAcctrain_check,gridImage_3.started,alienImage_test.started,startPos_test.started,movePos_test.started,key_resp_test.started,wLy_dir_test,wLx_dir_test,buttonPress_test,RTchoice_test,cumAcctest,corrAns_test,key_resp_test.keys,key_resp_test.rt,text_3.started,text_3.stopped,total_time,end_all_time,key_resp_3.keys,slides_2.started,sounds_3.started,nextButton_2.numClicks,nextButton_2.timesOn,nextButton_2.timesOff,prev_but_2.numClicks,prev_but_2.timesOn,prev_but_2.timesOff,bye.started,participant,train_first,00_coordinate,starting corner,date,expName,psychopyVersion,frameRate,
,,,,,,,,,,,,,,,0,0,0,0,0,0,0,0,,,,,,,,,,,,,,,,,,,,,,,,,,,,,start_all_time,testround,conditions/schedules/train_y_first/red_square_00/bottom_left/instructions/Slide1.png,conditions/schedules/train_y_first/red_square_00/bottom_left/instructions/Audio1.wav,1204.7069483000087,1204.6583903292076,1,[3.302614500047639],[3.3026245000073686],0,,,,,,,,,,,,,,,,,,,,,,,,,,,,,,,,,,,,,,,,,,,,,,,,,,,,,,,,,,,,,,,,,,,,,,,,,,,,,,,,,,,,,,,,,,,,,,,,,,,,,,,,,,,,,,,,,,,,,,,,,,,,QD126R,train_y,red_square,bottom_left,2025-06-07_09h12.18.024,HideSeek_v1,2022.2.5,59.892827780655345,
,,,,,,,,,,,,,,,0,0,0,0,1,0,1,0,,,,,,,,,,,,,,,,,,,,,,,,,,,,,,,conditions/schedules/train_y_first/red_square_00/bottom_left/instructions/Slide2.png,conditions/schedules/train_y_first/red_square_00/bottom_left/instructions/Audio2.wav,1208.0292576999636,1208.029558649927,2,"[3.302614500047639, 17.7795780999586]","[3.3026245000073686, 17.77958570001647]",0,,,,,,,,,,,,,,,,,,,,,,,,,,,,,,,,,,,,,,,,,,,,,,,,,,,,,,,,,,,,,,,,,,,,,,,,,,,,,,,,,,,,,,,,,,,,,,,,,,,,,,,,,,,,,,,,,,,,,,,,,,,,QD126R,train_y,red_square,bottom_left,2025-06-07_09h12.18.024,HideSeek_v1,2022.2.5,59.892827780655345,
,,,,,,,,,,,,,,,0,0,0,0,2,0,2,0,,,,,,,,,,,,,,,,,,,,,,,,,,,,,,,conditions/schedules/train_y_first/red_square_00/bottom_left/instructions/Slide3.png,conditions/schedules/train_y_first/red_square_00/bottom_left/instructions/Audio3.wav,1225.8905910999747,1225.8776455500047,3,"[3.302614500047639, 17.7795780999586, 16.64867039991077]","[3.3026245000073686, 0.00021049997303634882, 16.648677099961787]",0,,,,,,,,,,,,,,,,,,,,,,,,,,,,,,,,,,,,,,,,,,,,,,,,,,,,,,,,,,,,,,,,,,,,,,,,,,,,,,,,,,,,,,,,,,,,,,,,,,,,,,,,,,,,,,,,,,,,,,,,,,,,QD126R,train_y,red_square,bottom_left,2025-06-07_09h12.18.024,HideSeek_v1,2022.2.5,59.892827780655345,
,,,,,,,,,,,,,,,0,0,0,0,3,0,3,0,,,,,,,,,,,,,,,,,,,,,,,,,,,,,,,conditions/schedules/train_y_first/red_square_00/bottom_left/instructions/Slide4.png,conditions/schedules/train_y_first/red_square_00/bottom_left/instructions/Audio4.wav,1242.6184914000332,1242.608410249988,4,"[3.302614500047639, 17.7795780999586, 16.64867039991077, 20.771330899908207]","[3.3026245000073686, 0.00021049997303634882, 0.0334378998959437, 20.771337799960747]",0,,,,,,,,,,,,,,,,,,,,,,,,,,,,,,,,,,,,,,,,,,,,,,,,,,,,,,,,,,,,,,,,,,,,,,,,,,,,,,,,,,,,,,,,,,,,,,,,,,,,,,,,,,,,,,,,,,,,,,,,,,,,QD126R,train_y,red_square,bottom_left,2025-06-07_09h12.18.024,HideSeek_v1,2022.2.5,59.892827780655345,
,,,,,,,,,,,,,,,0,0,0,0,4,0,4,0,,,,,,,,,,,,,,,,,,,,,,,,,,,,,,,conditions/schedules/train_y_first/red_square_00/bottom_left/instructions/Slide5.png,conditions/schedules/train_y_first/red_square_00/bottom_left/instructions/Audio5.wav,1263.4622795999749,1263.458771250036,5,"[3.302614500047639, 17.7795780999586, 16.64867039991077, 20.771330899908207, 4.94809089996852]","[3.3026245000073686, 0.00021049997303634882, 0.0334378998959437, 0.00020080001559108496, 4.948097300017253]",0,,,,,,,,,,,,,,,,,,,,,,,,,,,,,,,,,,,,,,,,,,,,,,,,,,,,,,,,,,,,,,,,,,,,,,,,,,,,,,,,,,,,,,,,,,,,,,,,,,,,,,,,,,,,,,,,,,,,,,,,,,,,QD126R,train_y,red_square,bottom_left,2025-06-07_09h12.18.024,HideSeek_v1,2022.2.5,59.892827780655345,
,,,,,,,,,,,,,,,0,0,0,0,5,0,5,0,,,,,,,,,,,,,,,,,,,,,,,,,,,,,,,conditions/schedules/train_y_first/red_square_00/bottom_left/instructions/Slide6.png,conditions/schedules/train_y_first/red_square_00/bottom_left/instructions/Audio6.wav,1268.462322599953,1268.4631740599636,6,"[3.302614500047639, 17.7795780999586, 16.64867039991077, 20.771330899908207, 4.94809089996852, 6.1031049999874085]","[3.3026245000073686, 0.00021049997303634882, 0.0334378998959437, 0.00020080001559108496, 0.03133879997767508, 6.10311130003538]",0,,,,,,,,,,,,,,,,,,,,,,,,,,,,,,,,,,,,,,,,,,,,,,,,,,,,,,,,,,,,,,,,,,,,,,,,,,,,,,,,,,,,,,,,,,,,,,,,,,,,,,,,,,,,,,,,,,,,,,,,,,,,QD126R,train_y,red_square,bottom_left,2025-06-07_09h12.18.024,HideSeek_v1,2022.2.5,59.892827780655345,
,,,,,,,,,,,,,,,0,0,0,0,6,0,6,0,,,,,,,,,,,,,,,,,,,,,,,,,,,,,,,conditions/schedules/train_y_first/red_square_00/bottom_left/instructions/Slide7.png,conditions/schedules/train_y_first/red_square_00/bottom_left/instructions/Audio7.wav,1274.6169631000375,1274.6182146599515,7,"[3.302614500047639, 17.7795780999586, 16.64867039991077, 20.771330899908207, 4.94809089996852, 6.1031049999874085, 6.003460800042376]","[3.3026245000073686, 0.00021049997303634882, 0.0334378998959437, 0.00020080001559108496, 0.03133879997767508, 0.013959100004285574, 6.0034676000941545]",0,,,,,,,,,,,,,,,,,,,,,,,,,,,,,,,,,,,,,,,,,,,,,,,,,,,,,,,,,,,,,,,,,,,,,,,,,,,,,,,,,,,,,,,,,,,,,,,,,,,,,,,,,,,,,,,,,,,,,,,,,,,,QD126R,train_y,red_square,bottom_left,2025-06-07_09h12.18.024,HideSeek_v1,2022.2.5,59.892827780655345,
,,,,,,,,,,,,,,,0,0,0,0,7,0,7,0,,,,,,,,,,,,,,,,,,,,,,,,,,,,,,,conditions/schedules/train_y_first/red_square_00/bottom_left/instructions/Slide8.png,conditions/schedules/train_y_first/red_square_00/bottom_left/instructions/Audio8.wav,1280.6749412999488,1280.6731438599293,8,"[3.302614500047639, 17.7795780999586, 16.64867039991077, 20.771330899908207, 4.94809089996852, 6.1031049999874085, 6.003460800042376, 11.638893699971959]","[3.3026245000073686, 0.00021049997303634882, 0.0334378998959437, 0.00020080001559108496, 0.03133879997767508, 0.013959100004285574, 0.030105400015600026, 11.638900099904276]",0,,,,,,,,,,,,,,,,,,,,,,,,,,,,,,,,,,,,,,,,,,,,,,,,,,,,,,,,,,,,,,,,,,,,,,,,,,,,,,,,,,,,,,,,,,,,,,,,,,,,,,,,,,,,,,,,,,,,,,,,,,,,QD126R,train_y,red_square,bottom_left,2025-06-07_09h12.18.024,HideSeek_v1,2022.2.5,59.892827780655345,
,,,,,,,,,,,,,,,0,0,0,0,8,0,8,0,,,,,,,,,,,,,,,,,,,,,,,,,,,,,,,conditions/schedules/train_y_first/red_square_00/bottom_left/instructions/Slide9.png,conditions/schedules/train_y_first/red_square_00/bottom_left/instructions/Audio9.wav,1292.380238499958,1292.366503059957,9,"[3.302614500047639, 17.7795780999586, 16.64867039991077, 20.771330899908207, 4.94809089996852, 6.1031049999874085, 6.003460800042376, 11.638893699971959, 6.323258399963379]","[3.3026245000073686, 0.00021049997303634882, 0.0334378998959437, 0.00020080001559108496, 0.03133879997767508, 0.013959100004285574, 0.030105400015600026, 0.014354199985973537, 6.323266099905595]",0,,,,,,,,,,,,,,,,,,,,,,,,,,,,,,,,,,,,,,,,,,,,,,,,,,,,,,,,,,,,,,,,,,,,,,,,,,,,,,,,,,,,,,,,,,,,,,,,,,,,,,,,,,,,,,,,,,,,,,,,,,,,QD126R,train_y,red_square,bottom_left,2025-06-07_09h12.18.024,HideSeek_v1,2022.2.5,59.892827780655345,
,,,,,,,,,,,,,,,0,0,0,0,9,0,9,0,,,,,,,,,,,,,,,,,,,,,,,,,,,,,,,conditions/schedules/train_y_first/red_square_00/bottom_left/instructions/Slide10.png,conditions/schedules/train_y_first/red_square_00/bottom_left/instructions/Audio10.wav,1298.7525155999465,1298.7550859600071,10,"[3.302614500047639, 17.7795780999586, 16.64867039991077, 20.771330899908207, 4.94809089996852, 6.1031049999874085, 6.003460800042376, 11.638893699971959, 6.323258399963379, 8.55671379994601]","[3.3026245000073686, 0.00021049997303634882, 0.0334378998959437, 0.00020080001559108496, 0.03133879997767508, 0.013959100004285574, 0.030105400015600026, 0.014354199985973537, 0.0827346999431029, 8.556720900000073]",0,,,,,,,,,,,,,,,,,,,,,,,,,,,,,,,,,,,,,,,,,,,,,,,,,,,,,,,,,,,,,,,,,,,,,,,,,,,,,,,,,,,,,,,,,,,,,,,,,,,,,,,,,,,,,,,,,,,,,,,,,,,,QD126R,train_y,red_square,bottom_left,2025-06-07_09h12.18.024,HideSeek_v1,2022.2.5,59.892827780655345,
,,,,,,,,,,,,,,,0,0,0,0,10,0,10,0,,,,,,,,,,,,,,,,,,,,,,,,,,,,,,,conditions/schedules/train_y_first/red_square_00/bottom_left/instructions/Slide11.png,conditions/schedules/train_y_first/red_square_00/bottom_left/instructions/Audio11.wav,1307.3483215000015,1307.3452440699446,11,"[3.302614500047639, 17.7795780999586, 16.64867039991077, 20.771330899908207, 4.94809089996852, 6.1031049999874085, 6.003460800042376, 11.638893699971959, 6.323258399963379, 8.55671379994601, 10.33673139999155]","[3.3026245000073686, 0.00021049997303634882, 0.0334378998959437, 0.00020080001559108496, 0.03133879997767508, 0.013959100004285574, 0.030105400015600026, 0.014354199985973537, 0.0827346999431029, 0.0618375000776723, 10.336737800040282]",0,,,,,,,,,,,,,,,,,,,,,,,,,,,,,,,,,,,,,,,,,,,,,,,,,,,,,,,,,,,,,,,,,,,,,,,,,,,,,,,,,,,,,,,,,,,,,,,,,,,,,,,,,,,,,,,,,,,,,,,,,,,,QD126R,train_y,red_square,bottom_left,2025-06-07_09h12.18.024,HideSeek_v1,2022.2.5,59.892827780655345,
,,,,,,,,,,,,,,,0,0,0,0,11,0,11,0,,,,,,,,,,,,,,,,,,,,,,,,,,,,,,,conditions/schedules/train_y_first/red_square_00/bottom_left/instructions/Slide12.png,conditions/schedules/train_y_first/red_square_00/bottom_left/instructions/Audio12.wav,1317.7553589999443,1317.7540978500037,12,"[3.302614500047639, 17.7795780999586, 16.64867039991077, 20.771330899908207, 4.94809089996852, 6.1031049999874085, 6.003460800042376, 11.638893699971959, 6.323258399963379, 8.55671379994601, 10.33673139999155, 13.97428810002748]","[3.3026245000073686, 0.00021049997303634882, 0.0334378998959437, 0.00020080001559108496, 0.03133879997767508, 0.013959100004285574, 0.030105400015600026, 0.014354199985973537, 0.0827346999431029, 0.0618375000776723, 0.00022409996017813683, 13.974294899962842]",0,,,,,,,,,,,,,,,,,,,,,,,,,,,,,,,,,,,,,,,,,,,,,,,,,,,,,,,,,,,,,,,,,,,,,,,,,,,,,,,,,,,,,,,,,,,,,,,,,,,,,,,,,,,,,,,,,,,,,,,,,,,,QD126R,train_y,red_square,bottom_left,2025-06-07_09h12.18.024,HideSeek_v1,2022.2.5,59.892827780655345,
1,2,3,2,8,0,5,11,2,instr_dim1_1,,,,,,0,0,0,0,,,,,0,0,0,0,,,,,,,,,,,,,,,,,,,,,,,,,,,,,,,,,,,,,stimuli/alien_stimuli/11.png,conditions/schedules/train_y_first/red_square_00/bottom_left/inputInstr_1.xlsx,stimuli/alien_stimuli/11.png,1331.8398657999933,1331.8398657999933,1331.8398657999933,1331.8398657999933,1331.8320557299185,return,8.55947700003162,"[-0.16, -0.08, 0, 0.08, 0.16, 0.24, 0.32, 0.4, 0.48, 0.56]","[-0.4, -0.32, -0.24, -0.16, -0.08, 0, 0.08, 0.16, 0.24, 0.32]",8,3,2,2,0.4,0.0,1340.5563758000499,1340.5563758000499,1340.5563758000499,1340.5563758000499,1340.5563758000499,1340.5563758000499,1340.5563758000499,1340.5394226199248,9.258615899947472,return,9.105722399894148,stimuli/alien_stimuli/11.png,11,2,1,,,,,,,,,,,,,,,,,,,,,,,,,,,,,,,,,,,,,,,,,,,,,,,,,,,,,,,,,,,,,,,,,,,,,,,,,,,,,,,,,,,,,,,,,QD126R,train_y,red_square,bottom_left,2025-06-07_09h12.18.024,HideSeek_v1,2022.2.5,59.892827780655345,
,,,,,,,,,,,30,,,,0,0,0,0,,,,,,,,,,,,,,,,,,,,,,,,,,,,,,,,,,,,,,,,,,,,,,,,,,,,,,,,,,,,,,,,,,,,,,,,,,,,,,21,0.7,0,0,99,1,30,0,conditions/schedules/train_y_first/red_square_00/bottom_left/inputTrain_1.1.xlsx,99,1,1,1,0,,,,,,,,,,,,,,,,,,,,,,,,,,,,,,,,,,,,,,,,,,,,,,,,,,,,,,,,,,,,,,,,,,,,,,,,,,,QD126R,train_y,red_square,bottom_left,2025-06-07_09h12.18.024,HideSeek_v1,2022.2.5,59.892827780655345,
,,,,,,,,,,,,,,,1,0,1,0,0,0,0,0,,,,,,,,,,,,,,,,,,,,,,,,,,,,,,,conditions/schedules/train_y_first/red_square_00/bottom_left/instructions/Slide13.png,conditions/schedules/train_y_first/red_square_00/bottom_left/instructions/Audio13.wav,1349.8269974000286,1349.8136120100155,13,"[3.302614500047639, 17.7795780999586, 16.64867039991077, 20.771330899908207, 4.94809089996852, 6.1031049999874085, 6.003460800042376, 11.638893699971959, 6.323258399963379, 8.55671379994601, 10.33673139999155, 13.97428810002748, 22.486030200030655]","[3.3026245000073686, 0.00021049997303634882, 0.0334378998959437, 0.00020080001559108496, 0.03133879997767508, 0.013959100004285574, 0.030105400015600026, 0.014354199985973537, 0.0827346999431029, 0.0618375000776723, 0.00022409996017813683, 13.974294899962842, 22.486037200083956]",0,,,,,,,,,,,,,,,,,,,,,,,,,,,,,,,,,,,,,,,,,,,,,,,,,,,,,,,,,,,,,,,,,,,,,,,,,,,,,,,,,,,,,,,,,,,,,,,,,,,,,,,,,,,,,,,,,,,,,,,,,,,,QD126R,train_y,red_square,bottom_left,2025-06-07_09h12.18.024,HideSeek_v1,2022.2.5,59.892827780655345,
,,,,,,,,,,,,,,,1,0,1,0,1,0,1,0,,,,,,,,,,,,,,,,,,,,,,,,,,,,,,,conditions/schedules/train_y_first/red_square_00/bottom_left/instructions/Slide14.png,conditions/schedules/train_y_first/red_square_00/bottom_left/instructions/Audio14.wav,1372.390442600008,1372.3824630500167,14,"[3.302614500047639, 17.7795780999586, 16.64867039991077, 20.771330899908207, 4.94809089996852, 6.1031049999874085, 6.003460800042376, 11.638893699971959, 6.323258399963379, 8.55671379994601, 10.33673139999155, 13.97428810002748, 22.486030200030655, 16.72017370001413]","[3.3026245000073686, 0.00021049997303634882, 0.0334378998959437, 0.00020080001559108496, 0.03133879997767508, 0.013959100004285574, 0.030105400015600026, 0.014354199985973537, 0.0827346999431029, 0.0618375000776723, 0.00022409996017813683, 13.974294899962842, 0.05624760000500828, 16.720181500073522]",0,,,,,,,,,,,,,,,,,,,,,,,,,,,,,,,,,,,,,,,,,,,,,,,,,,,,,,,,,,,,,,,,,,,,,,,,,,,,,,,,,,,,,,,,,,,,,,,,,,,,,,,,,,,,,,,,,,,,,,,,,,,,QD126R,train_y,red_square,bottom_left,2025-06-07_09h12.18.024,HideSeek_v1,2022.2.5,59.892827780655345,
2,0,3,0,3,0,0,16,2,instr_dim1_1,,,,,,1,0,1,0,,,,,0,0,0,0,,,,,,,,,,,,,,,,,,,,,,,,,,,,,,,,,,,,,stimuli/alien_stimuli/16.png,conditions/schedules/train_y_first/red_square_00/bottom_left/inputInstr_1.xlsx,stimuli/alien_stimuli/16.png,1389.2129922000458,1389.2129922000458,1389.2129922000458,1389.2129922000458,1389.212872329971,return,4.492640299955383,"[-0.16, -0.08, 0, 0.08, 0.16, 0.24, 0.32, 0.4, 0.48, 0.56]","[-0.4, -0.32, -0.24, -0.16, -0.08, 0, 0.08, 0.16, 0.24, 0.32]",3,3,0,0,0.0,0.0,1393.859993699938,1393.859993699938,1393.859993699938,1393.859993699938,1393.859993699938,1393.859993699938,1393.859993699938,1393.8501322200289,6.323576999944635,return,6.170059200027026,stimuli/alien_stimuli/16.png,16,0,2,,,,,,,,,,,,,,,,,,,,,,,,,,,,,,,,,,,,,,,,,,,,,,,,,,,,,,,,,,,,,,,,,,,,,,,,,,,,,,,,,,,,,,,,,QD126R,train_y,red_square,bottom_left,2025-06-07_09h12.18.024,HideSeek_v1,2022.2.5,59.892827780655345,
,,,,,,,,,,,30,,,,1,0,1,0,,,,,,,,,,,,,,,,,,,,,,,,,,,,,,,,,,,,,,,,,,,,,,,,,,,,,,,,,,,,,,,,,,,,,,,,,,,,,,21,0.7,0,0,99,1,30,0,conditions/schedules/train_y_first/red_square_00/bottom_left/inputTrain_1.1.xlsx,99,1,1,1,0,,,,,,,,,,,,,,,,,,,,,,,,,,,,,,,,,,,,,,,,,,,,,,,,,,,,,,,,,,,,,,,,,,,,,,,,,,,QD126R,train_y,red_square,bottom_left,2025-06-07_09h12.18.024,HideSeek_v1,2022.2.5,59.892827780655345,
,,,,,,,,,,,,,,,2,0,2,0,0,0,0,0,,,,,,,,,,,,,,,,,,,,,,,,,,,,,,,conditions/schedules/train_y_first/red_square_00/bottom_left/instructions/Slide15.png,conditions/schedules/train_y_first/red_square_00/bottom_left/instructions/Audio15.wav,1400.2154203000246,1400.20562969998,15,"[3.302614500047639, 17.7795780999586, 16.64867039991077, 20.771330899908207, 4.94809089996852, 6.1031049999874085, 6.003460800042376, 11.638893699971959, 6.323258399963379, 8.55671379994601, 10.33673139999155, 13.97428810002748, 22.486030200030655, 16.72017370001413, 43.42384039994795]","[3.3026245000073686, 0.00021049997303634882, 0.0334378998959437, 0.00020080001559108496, 0.03133879997767508, 0.013959100004285574, 0.030105400015600026, 0.014354199985973537, 0.0827346999431029, 0.0618375000776723, 0.00022409996017813683, 13.974294899962842, 0.05624760000500828, 16.720181500073522, 43.42384800000582]",0,,,,,,,,,,,,,,,,,,,,,,,,,,,,,,,,,,,,,,,,,,,,,,,,,,,,,,,,,,,,,,,,,,,,,,,,,,,,,,,,,,,,,,,,,,,,,,,,,,,,,,,,,,,,,,,,,,,,,,,,,,,,QD126R,train_y,red_square,bottom_left,2025-06-07_09h12.18.024,HideSeek_v1,2022.2.5,59.892827780655345,
,,,,,,,,,,,,,,,2,0,2,0,1,0,1,0,,,,,,,,,,,,,,,,,,,,,,,,,,,,,,,conditions/schedules/train_y_first/red_square_00/bottom_left/instructions/Slide16.png,conditions/schedules/train_y_first/red_square_00/bottom_left/instructions/Audio16.wav,1443.7112065999536,1443.708309950016,16,"[3.302614500047639, 17.7795780999586, 16.64867039991077, 20.771330899908207, 4.94809089996852, 6.1031049999874085, 6.003460800042376, 11.638893699971959, 6.323258399963379, 8.55671379994601, 10.33673139999155, 13.97428810002748, 22.486030200030655, 16.72017370001413, 43.42384039994795, 21.679374500061385]","[3.3026245000073686, 0.00021049997303634882, 0.0334378998959437, 0.00020080001559108496, 0.03133879997767508, 0.013959100004285574, 0.030105400015600026, 0.014354199985973537, 0.0827346999431029, 0.0618375000776723, 0.00022409996017813683, 13.974294899962842, 0.05624760000500828, 16.720181500073522, 0.014008500031195581, 21.679381699999794]",0,,,,,,,,,,,,,,,,,,,,,,,,,,,,,,,,,,,,,,,,,,,,,,,,,,,,,,,,,,,,,,,,,,,,,,,,,,,,,,,,,,,,,,,,,,,,,,,,,,,,,,,,,,,,,,,,,,,,,,,,,,,,QD126R,train_y,red_square,bottom_left,2025-06-07_09h12.18.024,HideSeek_v1,2022.2.5,59.892827780655345,
,0,0,0,1,0,1,15,,train_dim1_1,1,30,,,,2,0,2,0,,,,,,,,,0,0,0,0,0,0,0,0,0,0,0,0,,,,,,,,,,,,,,,,,,,,,,,,,stimuli/alien_stimuli/15.png,,,,,,,,,,,,,,,,,,,,,,,,,,,,,,,,,,,,,,,30,,,,,,,,1465.4934867999982,1465.4934867999982,1465.4934867999982,1465.4934867999982,1465.4934867999982,0,0,-0.16,-0.4,return,4.964161699987017,0,1,0,0,-0.16,-0.4,return,4.864028500043787,,,,,,,,,,,,,,,,,,,,,,,,,,,,,,,,,,,,,,,,,,,,,,,,,,,,,,,,QD126R,train_y,red_square,bottom_left,2025-06-07_09h12.18.024,HideSeek_v1,2022.2.5,59.892827780655345,
,3,2,3,2,0,0,16,,train_dim1_1,2,30,,,,2,0,2,0,,,,,,,,,0,0,0,0,0,1,1,1,0,0,0,0,,,,,,,,,,,,,,,,,,,,,,,,,stimuli/alien_stimuli/16.png,,,,,,,,,,,,,,,,,,,,,,,,,,,,,stimuli/alien_stimuli/15.png,15,0,3,,,,,,,30,,,,,,,,1476.657137000002,1476.657137000002,1476.657137000002,1476.657137000002,1476.657137000002,,,,,right,1.6728149000555277,0,1,0,99,0.16,-0.24,right,1.5860002000117674,1475.1008260999806,1476.657137000002,-0.16,-0.32,0.08,0.0,-0.36,-0.16,-0.16,-0.16,-0.32,1472.025122000021,1472.025122000021,1472.025122000021,1472.025122000021,1472.025122000021,1472.025122000021,1472.025122000021,1472.025122000021,1472.0148019199958,3.205036500003189,return,3.045795099926181,,,,,,,,,,,,,,,,,,,,,,,,,,,,,,,,,QD126R,train_y,red_square,bottom_left,2025-06-07_09h12.18.024,HideSeek_v1,2022.2.5,59.892827780655345,
,3,2,3,2,0,0,16,,train_dim1_1,2,30,,,,2,0,2,0,,,,,,,,,0,0,0,0,0,1,1,1,1,0,1,0,,,,,,,,,,,,,,,,,,,,,,,,,,,,,,,,,,,,,,,,,,,,,,,,,,,,,,,,,,,,,,,,30,,,,,,,,1478.3375906000147,1478.3375906000147,1478.3375906000147,1478.3375906000147,1478.3375906000147,,,,,right,0.9935539999278262,0,1,0,99,0.24,-0.24,right,0.9009490000316873,,,,,,,,,,,,,,,,,,,,,,,,,,,,,,,,,,,,,,,,,,,,,,,,,,,,,,,,QD126R,train_y,red_square,bottom_left,2025-06-07_09h12.18.024,HideSeek_v1,2022.2.5,59.892827780655345,
,3,2,3,2,0,0,16,,train_dim1_1,2,30,,,,2,0,2,0,,,,,,,,,0,0,0,0,0,1,1,1,2,0,2,0,,,,,,,,,,,,,,,,,,,,,,,,,,,,,,,,,,,,,,,,,,,,,,,,,,,,,,,,,,,,,,,,30,,,,,,,,1479.34823350003,1479.34823350003,1479.34823350003,1479.34823350003,1479.34823350003,,,,,right,0.4913745999801904,0,1,0,99,0.32,-0.24,right,0.39944930002093315,,,,,,,,,,,,,,,,,,,,,,,,,,,,,,,,,,,,,,,,,,,,,,,,,,,,,,,,QD126R,train_y,red_square,bottom_left,2025-06-07_09h12.18.024,HideSeek_v1,2022.2.5,59.892827780655345,
,3,2,3,2,0,0,16,,train_dim1_1,2,30,,,,2,0,2,0,,,,,,,,,0,0,0,0,0,1,1,1,3,0,3,0,,,,,,,,,,,,,,,,,,,,,,,,,,,,,,,,,,,,,,,,,,,,,,,,,,,,,,,,,,,,,,,,30,,,,,,,,1479.8443748999853,1479.8443748999853,1479.8443748999853,1479.8443748999853,1479.8443748999853,,,,,left,1.1418216000311077,0,1,0,99,0.24,-0.24,left,1.049618599936366,,,,,,,,,,,,,,,,,,,,,,,,,,,,,,,,,,,,,,,,,,,,,,,,,,,,,,,,QD126R,train_y,red_square,bottom_left,2025-06-07_09h12.18.024,HideSeek_v1,2022.2.5,59.892827780655345,
,3,2,3,2,0,0,16,,train_dim1_1,2,30,,,,2,0,2,0,,,,,,,,,0,0,0,0,0,1,1,1,4,0,4,0,,,,,,,,,,,,,,,,,,,,,,,,,,,,,,,,,,,,,,,,,,,,,,,,,,,,,,,,,,,,,,,,30,,,,,,,,1480.9971663999604,1480.9971663999604,1480.9971663999604,1480.9971663999604,1480.9971663999604,,,,,left,0.45991960004903376,0,1,0,99,0.15999999999999998,-0.24,left,0.3635960000101477,,,,,,,,,,,,,,,,,,,,,,,,,,,,,,,,,,,,,,,,,,,,,,,,,,,,,,,,QD126R,train_y,red_square,bottom_left,2025-06-07_09h12.18.024,HideSeek_v1,2022.2.5,59.892827780655345,
,3,2,3,2,0,0,16,,train_dim1_1,2,30,,,,2,0,2,0,,,,,,,,,0,0,0,0,0,1,1,1,5,0,5,0,,,,,,,,,,,,,,,,,,,,,,,,,,,,,,,,,,,,,,,,,,,,,,,,,,,,,,,,,,,,,,,,30,,,,,,,,1481.4591759999748,1481.4591759999748,1481.4591759999748,1481.4591759999748,1481.4591759999748,,,,,left,0.49210400006268173,0,1,0,99,0.07999999999999997,-0.24,left,0.40212480002082884,,,,,,,,,,,,,,,,,,,,,,,,,,,,,,,,,,,,,,,,,,,,,,,,,,,,,,,,QD126R,train_y,red_square,bottom_left,2025-06-07_09h12.18.024,HideSeek_v1,2022.2.5,59.892827780655345,
,3,2,3,2,0,0,16,,train_dim1_1,2,30,,,,2,0,2,0,,,,,,,,,0,0,0,0,0,1,1,1,6,0,6,0,,,,,,,,,,,,,,,,,,,,,,,,,,,,,,,,,,,,,,,,,,,,,,,,,,,,,,,,,,,,,,,,30,,,,,,,,1481.9580731999595,1481.9580731999595,1481.9580731999595,1481.9580731999595,1481.9580731999595,,,,,left,1.6279764999635518,0,1,0,99,-2.7755575615628914e-17,-0.24,left,1.5377539000473917,,,,,,,,,,,,,,,,,,,,,,,,,,,,,,,,,,,,,,,,,,,,,,,,,,,,,,,,QD126R,train_y,red_square,bottom_left,2025-06-07_09h12.18.024,HideSeek_v1,2022.2.5,59.892827780655345,
,3,2,3,2,0,0,16,,train_dim1_1,2,30,,,,2,0,2,0,,,,,,,,,0,0,0,0,0,1,1,1,7,0,7,0,,,,,,,,,,,,,,,,,,,,,,,,,,,,,,,,,,,,,,,,,,,,,,,,,,,,,,,,,,,,,,,,30,,,,,,,,1483.5937537000282,1483.5937537000282,1483.5937537000282,1483.5937537000282,1483.5937537000282,,,,,up,6.548024999909103,0,1,0,99,-2.7755575615628914e-17,-0.15999999999999998,up,6.467019799980335,,,,,,,,,,,,,,,,,,,,,,,,,,,,,,,,,,,,,,,,,,,,,,,,,,,,,,,,QD126R,train_y,red_square,bottom_left,2025-06-07_09h12.18.024,HideSeek_v1,2022.2.5,59.892827780655345,
,3,2,3,2,0,0,16,,train_dim1_1,2,30,,,,2,0,2,0,,,,,,,,,0,0,0,0,0,1,1,1,8,0,8,0,,,,,,,,,,,,,,,,,,,,,,,,,,,,,,,,,,,,,,,,,,,,,,,,,,,,,,,,,,,,,,,,30,,,,,,,,1490.164549499983,1490.164549499983,1490.164549499983,1490.164549499983,1490.164549499983,,,,,right,2.411608300055377,0,1,0,99,0.07999999999999997,-0.15999999999999998,right,2.3125278999796137,,,,,,,,,,,,,,,,,,,,,,,,,,,,,,,,,,,,,,,,,,,,,,,,,,,,,,,,QD126R,train_y,red_square,bottom_left,2025-06-07_09h12.18.024,HideSeek_v1,2022.2.5,59.892827780655345,
,3,2,3,2,0,0,16,,train_dim1_1,2,30,,,,2,0,2,0,,,,,,,,,0,0,0,0,0,1,1,1,9,0,9,0,,,,,,,,,,,,,,,,,,,,,,,,,,,,,,,,,,,,,,,,,,,,,,,,,,,,,,,,,,,,,,,,30,,,,,,,,1492.5653928000247,1492.5653928000247,1492.5653928000247,1492.5653928000247,1492.5653928000247,,,,,right,6.898643899941817,0,1,0,99,0.15999999999999998,-0.15999999999999998,right,6.8225669000530615,,,,,,,,,,,,,,,,,,,,,,,,,,,,,,,,,,,,,,,,,,,,,,,,,,,,,,,,QD126R,train_y,red_square,bottom_left,2025-06-07_09h12.18.024,HideSeek_v1,2022.2.5,59.892827780655345,
,3,2,3,2,0,0,16,,train_dim1_1,2,30,,,,2,0,2,0,,,,,,,,,0,0,0,0,0,1,1,1,10,0,10,0,,,,,,,,,,,,,,,,,,,,,,,,,,,,,,,,,,,,,,,,,,,,,,,,,,,,,,,,,,,,,,,,30,,,,,,,,1499.4734560999786,1499.4734560999786,1499.4734560999786,1499.4734560999786,1499.4734560999786,,,,,right,0.29324380005709827,0,1,0,99,0.24,-0.15999999999999998,right,0.2099829000653699,,,,,,,,,,,,,,,,,,,,,,,,,,,,,,,,,,,,,,,,,,,,,,,,,,,,,,,,QD126R,train_y,red_square,bottom_left,2025-06-07_09h12.18.024,HideSeek_v1,2022.2.5,59.892827780655345,
,3,2,3,2,0,0,16,,train_dim1_1,2,30,,,,2,0,2,0,,,,,,,,,0,0,0,0,0,1,1,1,11,0,11,0,,,,,,,,,,,,,,,,,,,,,,,,,,,,,,,,,,,,,,,,,,,,,,,,,,,,,,,,,,,,,,,,30,,,,,,,,1499.770977200009,1499.770977200009,1499.770977200009,1499.770977200009,1499.770977200009,,,,,right,0.2768176000099629,0,1,0,99,0.32,-0.15999999999999998,right,0.1852023999672383,,,,,,,,,,,,,,,,,,,,,,,,,,,,,,,,,,,,,,,,,,,,,,,,,,,,,,,,QD126R,train_y,red_square,bottom_left,2025-06-07_09h12.18.024,HideSeek_v1,2022.2.5,59.892827780655345,
,3,2,3,2,0,0,16,,train_dim1_1,2,30,,,,2,0,2,0,,,,,,,,,0,0,0,0,0,1,1,1,12,0,12,0,,,,,,,,,,,,,,,,,,,,,,,,,,,,,,,,,,,,,,,,,,,,,,,,,,,,,,,,,,,,,,,,30,,,,,,,,1500.0553800000343,1500.0553800000343,1500.0553800000343,1500.0553800000343,1500.0553800000343,,,,,up,0.576069499948062,0,1,0,99,0.32,-0.07999999999999997,up,0.5006993999704719,,,,,,,,,,,,,,,,,,,,,,,,,,,,,,,,,,,,,,,,,,,,,,,,,,,,,,,,QD126R,train_y,red_square,bottom_left,2025-06-07_09h12.18.024,HideSeek_v1,2022.2.5,59.892827780655345,
,3,2,3,2,0,0,16,,train_dim1_1,2,30,,,,2,0,2,0,,,,,,,,,0,0,0,0,0,1,1,1,13,0,13,0,,,,,,,,,,,,,,,,,,,,,,,,,,,,,,,,,,,,,,,,,,,,,,,,,,,,,,,,,,,,,,,,30,,,,,,,,1500.6389504999388,1500.6389504999388,1500.6389504999388,1500.6389504999388,1500.6389504999388,,,,,left,1.3776618000119925,0,1,0,99,0.24,-0.07999999999999997,left,1.2936418999452144,,,,,,,,,,,,,,,,,,,,,,,,,,,,,,,,,,,,,,,,,,,,,,,,,,,,,,,,QD126R,train_y,red_square,bottom_left,2025-06-07_09h12.18.024,HideSeek_v1,2022.2.5,59.892827780655345,
,3,2,3,2,0,0,16,,train_dim1_1,2,30,,,,2,0,2,0,,,,,,,,,0,0,0,0,0,1,1,1,14,0,14,0,,,,,,,,,,,,,,,,,,,,,,,,,,,,,,,,,,,,,,,,,,,,,,,,,,,,,,,,,,,,,,,,30,,,,,,,,1502.024030199973,1502.024030199973,1502.024030199973,1502.024030199973,1502.024030199973,,,,,left,0.14293009997345507,0,1,0,99,0.15999999999999998,-0.07999999999999997,left,0.067147699999623,,,,,,,,,,,,,,,,,,,,,,,,,,,,,,,,,,,,,,,,,,,,,,,,,,,,,,,,QD126R,train_y,red_square,bottom_left,2025-06-07_09h12.18.024,HideSeek_v1,2022.2.5,59.892827780655345,
,3,2,3,2,0,0,16,,train_dim1_1,2,30,,,,2,0,2,0,,,,,,,,,0,0,0,0,0,1,1,1,15,0,15,0,,,,,,,,,,,,,,,,,,,,,,,,,,,,,,,,,,,,,,,,,,,,,,,,,,,,,,,,,,,,,,,,30,,,,,,,,1502.1746370999608,1502.1746370999608,1502.1746370999608,1502.1746370999608,1502.1746370999608,,,,,left,0.17605380003806204,0,1,0,99,0.07999999999999997,-0.07999999999999997,left,0.08687549992464483,,,,,,,,,,,,,,,,,,,,,,,,,,,,,,,,,,,,,,,,,,,,,,,,,,,,,,,,QD126R,train_y,red_square,bottom_left,2025-06-07_09h12.18.024,HideSeek_v1,2022.2.5,59.892827780655345,
,3,2,3,2,0,0,16,,train_dim1_1,2,30,,,,2,0,2,0,,,,,,,,,0,0,0,0,0,1,1,1,16,0,16,0,,,,,,,,,,,,,,,,,,,,,,,,,,,,,,,,,,,,,,,,,,,,,,,,,,,,,,,,,,,,,,,,30,,,,,,,,1502.356933800038,1502.356933800038,1502.356933800038,1502.356933800038,1502.356933800038,,,,,left,0.16034509998280555,0,1,0,99,-2.7755575615628914e-17,-0.07999999999999997,left,0.06908429996110499,,,,,,,,,,,,,,,,,,,,,,,,,,,,,,,,,,,,,,,,,,,,,,,,,,,,,,,,QD126R,train_y,red_square,bottom_left,2025-06-07_09h12.18.024,HideSeek_v1,2022.2.5,59.892827780655345,
,3,2,3,2,0,0,16,,train_dim1_1,2,30,,,,2,0,2,0,,,,,,,,,0,0,0,0,0,1,1,1,17,0,17,0,,,,,,,,,,,,,,,,,,,,,,,,,,,,,,,,,,,,,,,,,,,,,,,,,,,,,,,,,,,,,,,,30,,,,,,,,1502.5248029000359,1502.5248029000359,1502.5248029000359,1502.5248029000359,1502.5248029000359,,,,,right,0.9594801000785083,0,1,0,99,0.07999999999999997,-0.07999999999999997,right,0.8729558999184519,,,,,,,,,,,,,,,,,,,,,,,,,,,,,,,,,,,,,,,,,,,,,,,,,,,,,,,,QD126R,train_y,red_square,bottom_left,2025-06-07_09h12.18.024,HideSeek_v1,2022.2.5,59.892827780655345,
,3,2,3,2,0,0,16,,train_dim1_1,2,30,,,,2,0,2,0,,,,,,,,,0,0,0,0,0,1,1,1,18,0,18,0,,,,,,,,,,,,,,,,,,,,,,,,,,,,,,,,,,,,,,,,,,,,,,,,,,,,,,,,,,,,,,,,30,,,,,,,,1503.5069014000474,1503.5069014000474,1503.5069014000474,1503.5069014000474,1503.5069014000474,,,,,up,0.3612764999270439,0,1,0,99,0.07999999999999997,2.7755575615628914e-17,up,0.2609970999183133,,,,,,,,,,,,,,,,,,,,,,,,,,,,,,,,,,,,,,,,,,,,,,,,,,,,,,,,QD126R,train_y,red_square,bottom_left,2025-06-07_09h12.18.024,HideSeek_v1,2022.2.5,59.892827780655345,
,3,2,3,2,0,0,16,,train_dim1_1,2,30,,,,2,0,2,0,,,,,,,,,0,0,0,0,0,1,1,1,19,0,19,0,,,,,,,,,,,,,,,,,,,,,,,,,,,,,,,,,,,,,,,,,,,,,,,,,,,,,,,,,,,,,,,,30,,,,,,,,1503.8703170999652,1503.8703170999652,1503.8703170999652,1503.8703170999652,1503.8703170999652,,,,,up,0.30480669997632504,0,1,0,99,0.07999999999999997,0.08000000000000003,up,0.212197000044398,,,,,,,,,,,,,,,,,,,,,,,,,,,,,,,,,,,,,,,,,,,,,,,,,,,,,,,,QD126R,train_y,red_square,bottom_left,2025-06-07_09h12.18.024,HideSeek_v1,2022.2.5,59.892827780655345,
,3,2,3,2,0,0,16,,train_dim1_1,2,30,,,,2,0,2,0,,,,,,,,,0,0,0,0,0,1,1,1,20,0,20,0,,,,,,,,,,,,,,,,,,,,,,,,,,,,,,,,,,,,,,,,,,,,,,,,,,,,,,,,,,,,,,,,30,,,,,,,,1504.178341299994,1504.178341299994,1504.178341299994,1504.178341299994,1504.178341299994,4,0,0.07999999999999997,0.08000000000000003,return,0.9774142999667674,0,0,0,0,0.07999999999999997,0.08000000000000003,return,0.8983532000565901,,,,,,,,,,,,,,,,,,,,,,,,,,,,,,,,,,,,,,,,,,,,,,,,,,,,,,,,QD126R,train_y,red_square,bottom_left,2025-06-07_09h12.18.024,HideSeek_v1,2022.2.5,59.892827780655345,
,2,3,2,6,0,3,13,,train_dim1_1,3,30,,,,2,0,2,0,,,,,,,,,0,0,0,0,0,2,2,2,0,0,0,0,,,,,,,,,,,,,,,,,,,,,,,,,stimuli/alien_stimuli/13.png,,,,,,,,,,,,,,,,,,,,,,,,,,,,,stimuli/alien_stimuli/16.png,16,3,4,,,,,,,30,,,,,,,,1513.726374699967,1513.726374699967,1513.726374699967,1513.726374699967,1513.726374699967,,,,,right,1.5540624998975545,0,0,0,99,0.08,-0.16,right,1.4703558000037447,1512.1650906000286,1513.726374699967,0.08,-0.24,0.0,0.0,-0.24,0.08,0.08,0.08,-0.24,1506.7228809000226,1506.7228809000226,1506.7228809000226,1506.7228809000226,1506.7228809000226,1506.7228809000226,1506.7228809000226,1506.7228809000226,1506.7104208299306,5.556985300034285,return,5.421006199903786,,,,,,,,,,,,,,,,,,,,,,,,,,,,,,,,,QD126R,train_y,red_square,bottom_left,2025-06-07_09h12.18.024,HideSeek_v1,2022.2.5,59.892827780655345,
,2,3,2,6,0,3,13,,train_dim1_1,3,30,,,,2,0,2,0,,,,,,,,,0,0,0,0,0,2,2,2,1,0,1,0,,,,,,,,,,,,,,,,,,,,,,,,,,,,,,,,,,,,,,,,,,,,,,,,,,,,,,,,,,,,,,,,30,,,,,,,,1515.2845122000435,1515.2845122000435,1515.2845122000435,1515.2845122000435,1515.2845122000435,,,,,up,1.443955000024289,0,0,0,99,0.08,-0.08,up,1.3592086000135168,,,,,,,,,,,,,,,,,,,,,,,,,,,,,,,,,,,,,,,,,,,,,,,,,,,,,,,,QD126R,train_y,red_square,bottom_left,2025-06-07_09h12.18.024,HideSeek_v1,2022.2.5,59.892827780655345,
,2,3,2,6,0,3,13,,train_dim1_1,3,30,,,,2,0,2,0,,,,,,,,,0,0,0,0,0,2,2,2,2,0,2,0,,,,,,,,,,,,,,,,,,,,,,,,,,,,,,,,,,,,,,,,,,,,,,,,,,,,,,,,,,,,,,,,30,,,,,,,,1516.7357599999523,1516.7357599999523,1516.7357599999523,1516.7357599999523,1516.7357599999523,,,,,up,1.5774669999955222,0,0,0,99,0.08,0.0,up,1.4934919000370428,,,,,,,,,,,,,,,,,,,,,,,,,,,,,,,,,,,,,,,,,,,,,,,,,,,,,,,,QD126R,train_y,red_square,bottom_left,2025-06-07_09h12.18.024,HideSeek_v1,2022.2.5,59.892827780655345,
,2,3,2,6,0,3,13,,train_dim1_1,3,30,,,,2,0,2,0,,,,,,,,,0,0,0,0,0,2,2,2,3,0,3,0,,,,,,,,,,,,,,,,,,,,,,,,,,,,,,,,,,,,,,,,,,,,,,,,,,,,,,,,,,,,,,,,30,,,,,,,,1518.3229419999989,1518.3229419999989,1518.3229419999989,1518.3229419999989,1518.3229419999989,,,,,left,1.6103948999661952,0,0,0,99,0.0,0.0,left,1.5268152999924496,,,,,,,,,,,,,,,,,,,,,,,,,,,,,,,,,,,,,,,,,,,,,,,,,,,,,,,,QD126R,train_y,red_square,bottom_left,2025-06-07_09h12.18.024,HideSeek_v1,2022.2.5,59.892827780655345,
,2,3,2,6,0,3,13,,train_dim1_1,3,30,,,,2,0,2,0,,,,,,,,,0,0,0,0,0,2,2,2,4,0,4,0,,,,,,,,,,,,,,,,,,,,,,,,,,,,,,,,,,,,,,,,,,,,,,,,,,,,,,,,,,,,,,,,30,,,,,,,,1519.9383542999858,1519.9383542999858,1519.9383542999858,1519.9383542999858,1519.9383542999858,,,,,up,0.6934560999507084,0,0,0,99,0.0,0.08,up,0.6088064999785274,,,,,,,,,,,,,,,,,,,,,,,,,,,,,,,,,,,,,,,,,,,,,,,,,,,,,,,,QD126R,train_y,red_square,bottom_left,2025-06-07_09h12.18.024,HideSeek_v1,2022.2.5,59.892827780655345,
,2,3,2,6,0,3,13,,train_dim1_1,3,30,,,,2,0,2,0,,,,,,,,,0,0,0,0,0,2,2,2,5,0,5,0,,,,,,,,,,,,,,,,,,,,,,,,,,,,,,,,,,,,,,,,,,,,,,,,,,,,,,,,,,,,,,,,30,,,,,,,,1520.6380256999983,1520.6380256999983,1520.6380256999983,1520.6380256999983,1520.6380256999983,7,0,0.0,0.08,return,1.3274388000136241,1,0,0,1,0.0,0.08,return,1.2475032999645919,,,,,,,,,,,,,,,,,,,,,,,,,,,,,,,,,,,,,,,,,,,,,,,,,,,,,,,,QD126R,train_y,red_square,bottom_left,2025-06-07_09h12.18.024,HideSeek_v1,2022.2.5,59.892827780655345,
,0,1,0,5,0,4,12,,train_dim1_1,4,30,,,,2,0,2,0,,,,,,,,,0,0,0,0,0,3,3,3,0,0,0,0,,,,,,,,,,,,,,,,,,,,,,,,,stimuli/alien_stimuli/12.png,,,,,,,,,,,,,,,,,,,,,,,,,,,,,stimuli/alien_stimuli/13.png,13,2,5,,,,,,,30,,,,,,,,1529.8221588999731,1529.8221588999731,1529.8221588999731,1529.8221588999731,1529.8221588999731,,,,,right,0.9207486000377685,1,0,0,99,-0.08,-0.32,right,0.8330281000817195,1528.2615880999947,1529.8221588999731,0,0.08,0.24,0.0,-0.04,0,0.0,0,0.08,1523.5428935999516,1523.5428935999516,1523.5428935999516,1523.5428935999516,1523.5428935999516,1523.5428935999516,1523.5428935999516,1523.5428935999516,1523.5411200199276,4.839333100011572,return,4.693351099966094,,,,,,,,,,,,,,,,,,,,,,,,,,,,,,,,,QD126R,train_y,red_square,bottom_left,2025-06-07_09h12.18.024,HideSeek_v1,2022.2.5,59.892827780655345,
,0,1,0,5,0,4,12,,train_dim1_1,4,30,,,,2,0,2,0,,,,,,,,,0,0,0,0,0,3,3,3,1,0,1,0,,,,,,,,,,,,,,,,,,,,,,,,,,,,,,,,,,,,,,,,,,,,,,,,,,,,,,,,,,,,,,,,30,,,,,,,,1530.7482333000517,1530.7482333000517,1530.7482333000517,1530.7482333000517,1530.7482333000517,,,,,right,0.542966500041075,1,0,0,99,0.0,-0.32,right,0.46053029992617667,,,,,,,,,,,,,,,,,,,,,,,,,,,,,,,,,,,,,,,,,,,,,,,,,,,,,,,,QD126R,train_y,red_square,bottom_left,2025-06-07_09h12.18.024,HideSeek_v1,2022.2.5,59.892827780655345,
,0,1,0,5,0,4,12,,train_dim1_1,4,30,,,,2,0,2,0,,,,,,,,,0,0,0,0,0,3,3,3,2,0,2,0,,,,,,,,,,,,,,,,,,,,,,,,,,,,,,,,,,,,,,,,,,,,,,,,,,,,,,,,,,,,,,,,30,,,,,,,,1531.2981501000468,1531.2981501000468,1531.2981501000468,1531.2981501000468,1531.2981501000468,,,,,right,0.5768579000141472,1,0,0,99,0.08,-0.32,right,0.4967193999327719,,,,,,,,,,,,,,,,,,,,,,,,,,,,,,,,,,,,,,,,,,,,,,,,,,,,,,,,QD126R,train_y,red_square,bottom_left,2025-06-07_09h12.18.024,HideSeek_v1,2022.2.5,59.892827780655345,
,0,1,0,5,0,4,12,,train_dim1_1,4,30,,,,2,0,2,0,,,,,,,,,0,0,0,0,0,3,3,3,3,0,3,0,,,,,,,,,,,,,,,,,,,,,,,,,,,,,,,,,,,,,,,,,,,,,,,,,,,,,,,,,,,,,,,,30,,,,,,,,1531.8818011999829,1531.8818011999829,1531.8818011999829,1531.8818011999829,1531.8818011999829,,,,,right,0.42681619990617037,1,0,0,99,0.16,-0.32,right,0.3416365999728441,,,,,,,,,,,,,,,,,,,,,,,,,,,,,,,,,,,,,,,,,,,,,,,,,,,,,,,,QD126R,train_y,red_square,bottom_left,2025-06-07_09h12.18.024,HideSeek_v1,2022.2.5,59.892827780655345,
,0,1,0,5,0,4,12,,train_dim1_1,4,30,,,,2,0,2,0,,,,,,,,,0,0,0,0,0,3,3,3,4,0,4,0,,,,,,,,,,,,,,,,,,,,,,,,,,,,,,,,,,,,,,,,,,,,,,,,,,,,,,,,,,,,,,,,30,,,,,,,,1532.3190102999797,1532.3190102999797,1532.3190102999797,1532.3190102999797,1532.3190102999797,7,4,0.16,-0.32,return,3.5791129000717774,1,0,0,0,0.16,-0.32,return,3.491789099993184,,,,,,,,,,,,,,,,,,,,,,,,,,,,,,,,,,,,,,,,,,,,,,,,,,,,,,,,QD126R,train_y,red_square,bottom_left,2025-06-07_09h12.18.024,HideSeek_v1,2022.2.5,59.892827780655345,
,3,3,3,8,0,5,11,,train_dim1_1,5,30,,,,2,0,2,0,,,,,,,,,0,0,0,0,0,4,4,4,0,0,0,0,,,,,,,,,,,,,,,,,,,,,,,,,stimuli/alien_stimuli/11.png,,,,,,,,,,,,,,,,,,,,,,,,,,,,,stimuli/alien_stimuli/12.png,12,0,6,,,,,,,30,,,,,,,,1545.6971828000387,1545.6971828000387,1545.6971828000387,1545.6971828000387,1545.6971828000387,,,,,right,1.1239380999468267,1,0,0,99,0.16,-0.16,right,1.041966799995862,1544.1415782000404,1545.6971828000387,-0.16,0,0.32,0.0,-0.16,-0.16,-0.16,-0.16,0,1537.4730304999975,1537.4730304999975,1537.4730304999975,1537.4730304999975,1537.4730304999975,1537.4730304999975,1537.4730304999975,1537.4730304999975,1537.469631019933,6.79056190000847,return,6.649438799940981,,,,,,,,,,,,,,,,,,,,,,,,,,,,,,,,,QD126R,train_y,red_square,bottom_left,2025-06-07_09h12.18.024,HideSeek_v1,2022.2.5,59.892827780655345,
,3,3,3,8,0,5,11,,train_dim1_1,5,30,,,,2,0,2,0,,,,,,,,,0,0,0,0,0,4,4,4,1,0,1,0,,,,,,,,,,,,,,,,,,,,,,,,,,,,,,,,,,,,,,,,,,,,,,,,,,,,,,,,,,,,,,,,30,,,,,,,,1546.8288372999523,1546.8288372999523,1546.8288372999523,1546.8288372999523,1546.8288372999523,,,,,right,0.5759732000296935,1,0,0,99,0.24,-0.16,right,0.48460740002337843,,,,,,,,,,,,,,,,,,,,,,,,,,,,,,,,,,,,,,,,,,,,,,,,,,,,,,,,QD126R,train_y,red_square,bottom_left,2025-06-07_09h12.18.024,HideSeek_v1,2022.2.5,59.892827780655345,
,3,3,3,8,0,5,11,,train_dim1_1,5,30,,,,2,0,2,0,,,,,,,,,0,0,0,0,0,4,4,4,2,0,2,0,,,,,,,,,,,,,,,,,,,,,,,,,,,,,,,,,,,,,,,,,,,,,,,,,,,,,,,,,,,,,,,,30,,,,,,,,1547.4130939999595,1547.4130939999595,1547.4130939999595,1547.4130939999595,1547.4130939999595,,,,,right,0.25815409992355853,1,0,0,99,0.32,-0.16,right,0.17601830000057817,,,,,,,,,,,,,,,,,,,,,,,,,,,,,,,,,,,,,,,,,,,,,,,,,,,,,,,,QD126R,train_y,red_square,bottom_left,2025-06-07_09h12.18.024,HideSeek_v1,2022.2.5,59.892827780655345,
,3,3,3,8,0,5,11,,train_dim1_1,5,30,,,,2,0,2,0,,,,,,,,,0,0,0,0,0,4,4,4,3,0,3,0,,,,,,,,,,,,,,,,,,,,,,,,,,,,,,,,,,,,,,,,,,,,,,,,,,,,,,,,,,,,,,,,30,,,,,,,,1547.677818999975,1547.677818999975,1547.677818999975,1547.677818999975,1547.677818999975,,,,,right,0.19316319993231446,1,0,0,99,0.4,-0.16,right,0.11668069998268038,,,,,,,,,,,,,,,,,,,,,,,,,,,,,,,,,,,,,,,,,,,,,,,,,,,,,,,,QD126R,train_y,red_square,bottom_left,2025-06-07_09h12.18.024,HideSeek_v1,2022.2.5,59.892827780655345,
,3,3,3,8,0,5,11,,train_dim1_1,5,30,,,,2,0,2,0,,,,,,,,,0,0,0,0,0,4,4,4,4,0,4,0,,,,,,,,,,,,,,,,,,,,,,,,,,,,,,,,,,,,,,,,,,,,,,,,,,,,,,,,,,,,,,,,30,,,,,,,,1547.8785933000036,1547.8785933000036,1547.8785933000036,1547.8785933000036,1547.8785933000036,,,,,right,0.24297979997936636,1,0,0,99,0.48000000000000004,-0.16,right,0.15094690001569688,,,,,,,,,,,,,,,,,,,,,,,,,,,,,,,,,,,,,,,,,,,,,,,,,,,,,,,,QD126R,train_y,red_square,bottom_left,2025-06-07_09h12.18.024,HideSeek_v1,2022.2.5,59.892827780655345,
,3,3,3,8,0,5,11,,train_dim1_1,5,30,,,,2,0,2,0,,,,,,,,,0,0,0,0,0,4,4,4,5,0,5,0,,,,,,,,,,,,,,,,,,,,,,,,,,,,,,,,,,,,,,,,,,,,,,,,,,,,,,,,,,,,,,,,30,,,,,,,,1548.1311559999594,1548.1311559999594,1548.1311559999594,1548.1311559999594,1548.1311559999594,,,,,right,0.2761974000604823,1,0,0,99,0.56,-0.16,right,0.1890887999907136,,,,,,,,,,,,,,,,,,,,,,,,,,,,,,,,,,,,,,,,,,,,,,,,,,,,,,,,QD126R,train_y,red_square,bottom_left,2025-06-07_09h12.18.024,HideSeek_v1,2022.2.5,59.892827780655345,
,3,3,3,8,0,5,11,,train_dim1_1,5,30,,,,2,0,2,0,,,,,,,,,0,0,0,0,0,4,4,4,6,0,6,0,,,,,,,,,,,,,,,,,,,,,,,,,,,,,,,,,,,,,,,,,,,,,,,,,,,,,,,,,,,,,,,,30,,,,,,,,1548.4133217999479,1548.4133217999479,1548.4133217999479,1548.4133217999479,1548.4133217999479,,,,,right,0.25990029994864017,1,0,0,99,0.64,-0.16,right,0.1781436000019312,,,,,,,,,,,,,,,,,,,,,,,,,,,,,,,,,,,,,,,,,,,,,,,,,,,,,,,,QD126R,train_y,red_square,bottom_left,2025-06-07_09h12.18.024,HideSeek_v1,2022.2.5,59.892827780655345,
,3,3,3,8,0,5,11,,train_dim1_1,5,30,,,,2,0,2,0,,,,,,,,,0,0,0,0,0,4,4,4,7,0,7,0,,,,,,,,,,,,,,,,,,,,,,,,,,,,,,,,,,,,,,,,,,,,,,,,,,,,,,,,,,,,,,,,30,,,,,,,,1548.6796391999815,1548.6796391999815,1548.6796391999815,1548.6796391999815,1548.6796391999815,,,,,right,0.660249299951829,1,0,0,99,0.72,-0.16,right,0.577761200023815,,,,,,,,,,,,,,,,,,,,,,,,,,,,,,,,,,,,,,,,,,,,,,,,,,,,,,,,QD126R,train_y,red_square,bottom_left,2025-06-07_09h12.18.024,HideSeek_v1,2022.2.5,59.892827780655345,
,3,3,3,8,0,5,11,,train_dim1_1,5,30,,,,2,0,2,0,,,,,,,,,0,0,0,0,0,4,4,4,8,0,8,0,,,,,,,,,,,,,,,,,,,,,,,,,,,,,,,,,,,,,,,,,,,,,,,,,,,,,,,,,,,,,,,,30,,,,,,,,1549.3455175999552,1549.3455175999552,1549.3455175999552,1549.3455175999552,1549.3455175999552,,,,,right,0.326708999928087,1,0,0,99,0.7999999999999999,-0.16,right,0.2440568000311032,,,,,,,,,,,,,,,,,,,,,,,,,,,,,,,,,,,,,,,,,,,,,,,,,,,,,,,,QD126R,train_y,red_square,bottom_left,2025-06-07_09h12.18.024,HideSeek_v1,2022.2.5,59.892827780655345,
,3,3,3,8,0,5,11,,train_dim1_1,5,30,,,,2,0,2,0,,,,,,,,,0,0,0,0,0,4,4,4,9,0,9,0,,,,,,,,,,,,,,,,,,,,,,,,,,,,,,,,,,,,,,,,,,,,,,,,,,,,,,,,,,,,,,,,30,,,,,,,,1549.6801270999713,1549.6801270999713,1549.6801270999713,1549.6801270999713,1549.6801270999713,,,,,right,1.3602954999078065,1,0,0,99,0.8799999999999999,-0.16,right,1.2801170999882743,,,,,,,,,,,,,,,,,,,,,,,,,,,,,,,,,,,,,,,,,,,,,,,,,,,,,,,,QD126R,train_y,red_square,bottom_left,2025-06-07_09h12.18.024,HideSeek_v1,2022.2.5,59.892827780655345,
,3,3,3,8,0,5,11,,train_dim1_1,5,30,,,,2,0,2,0,,,,,,,,,0,0,0,0,0,4,4,4,10,0,10,0,,,,,,,,,,,,,,,,,,,,,,,,,,,,,,,,,,,,,,,,,,,,,,,,,,,,,,,,,,,,,,,,30,,,,,,,,1551.0473237000406,1551.0473237000406,1551.0473237000406,1551.0473237000406,1551.0473237000406,,,,,right,0.37660499999765307,1,0,0,99,0.9599999999999999,-0.16,right,0.2929637999041006,,,,,,,,,,,,,,,,,,,,,,,,,,,,,,,,,,,,,,,,,,,,,,,,,,,,,,,,QD126R,train_y,red_square,bottom_left,2025-06-07_09h12.18.024,HideSeek_v1,2022.2.5,59.892827780655345,
,3,3,3,8,0,5,11,,train_dim1_1,5,30,,,,2,0,2,0,,,,,,,,,0,0,0,0,0,4,4,4,11,0,11,0,,,,,,,,,,,,,,,,,,,,,,,,,,,,,,,,,,,,,,,,,,,,,,,,,,,,,,,,,,,,,,,,30,,,,,,,,1551.430715000024,1551.430715000024,1551.430715000024,1551.430715000024,1551.430715000024,,,,,right,0.5436705000465736,1,0,0,99,1.0399999999999998,-0.16,right,0.46268070000223815,,,,,,,,,,,,,,,,,,,,,,,,,,,,,,,,,,,,,,,,,,,,,,,,,,,,,,,,QD126R,train_y,red_square,bottom_left,2025-06-07_09h12.18.024,HideSeek_v1,2022.2.5,59.892827780655345,
,3,3,3,8,0,5,11,,train_dim1_1,5,30,,,,2,0,2,0,,,,,,,,,0,0,0,0,0,4,4,4,12,0,12,0,,,,,,,,,,,,,,,,,,,,,,,,,,,,,,,,,,,,,,,,,,,,,,,,,,,,,,,,,,,,,,,,30,,,,,,,,1551.9819884999888,1551.9819884999888,1551.9819884999888,1551.9819884999888,1551.9819884999888,,,,,right,0.29303150007035583,1,0,0,99,1.1199999999999999,-0.16,right,0.21128149994183332,,,,,,,,,,,,,,,,,,,,,,,,,,,,,,,,,,,,,,,,,,,,,,,,,,,,,,,,QD126R,train_y,red_square,bottom_left,2025-06-07_09h12.18.024,HideSeek_v1,2022.2.5,59.892827780655345,
,3,3,3,8,0,5,11,,train_dim1_1,5,30,,,,2,0,2,0,,,,,,,,,0,0,0,0,0,4,4,4,13,0,13,0,,,,,,,,,,,,,,,,,,,,,,,,,,,,,,,,,,,,,,,,,,,,,,,,,,,,,,,,,,,,,,,,30,,,,,,,,1552.2822258999804,1552.2822258999804,1552.2822258999804,1552.2822258999804,1552.2822258999804,,,,,right,0.29316350002773106,1,0,0,99,1.2,-0.16,right,0.20658730005379766,,,,,,,,,,,,,,,,,,,,,,,,,,,,,,,,,,,,,,,,,,,,,,,,,,,,,,,,QD126R,train_y,red_square,bottom_left,2025-06-07_09h12.18.024,HideSeek_v1,2022.2.5,59.892827780655345,
,3,3,3,8,0,5,11,,train_dim1_1,5,30,,,,2,0,2,0,,,,,,,,,0,0,0,0,0,4,4,4,14,0,14,0,,,,,,,,,,,,,,,,,,,,,,,,,,,,,,,,,,,,,,,,,,,,,,,,,,,,,,,,,,,,,,,,30,,,,,,,,1552.582142499974,1552.582142499974,1552.582142499974,1552.582142499974,1552.582142499974,,,,,right,0.2598991000559181,1,0,0,99,1.28,-0.16,right,0.17258310003671795,,,,,,,,,,,,,,,,,,,,,,,,,,,,,,,,,,,,,,,,,,,,,,,,,,,,,,,,QD126R,train_y,red_square,bottom_left,2025-06-07_09h12.18.024,HideSeek_v1,2022.2.5,59.892827780655345,
,3,3,3,8,0,5,11,,train_dim1_1,5,30,,,,2,0,2,0,,,,,,,,,0,0,0,0,0,4,4,4,15,0,15,0,,,,,,,,,,,,,,,,,,,,,,,,,,,,,,,,,,,,,,,,,,,,,,,,,,,,,,,,,,,,,,,,30,,,,,,,,1552.848990599974,1552.848990599974,1552.848990599974,1552.848990599974,1552.848990599974,,,,,right,0.27668919996358454,1,0,0,99,1.36,-0.16,right,0.1857066999655217,,,,,,,,,,,,,,,,,,,,,,,,,,,,,,,,,,,,,,,,,,,,,,,,,,,,,,,,QD126R,train_y,red_square,bottom_left,2025-06-07_09h12.18.024,HideSeek_v1,2022.2.5,59.892827780655345,
,3,3,3,8,0,5,11,,train_dim1_1,5,30,,,,2,0,2,0,,,,,,,,,0,0,0,0,0,4,4,4,16,0,16,0,,,,,,,,,,,,,,,,,,,,,,,,,,,,,,,,,,,,,,,,,,,,,,,,,,,,,,,,,,,,,,,,30,,,,,,,,1553.1327675000066,1553.1327675000066,1553.1327675000066,1553.1327675000066,1553.1327675000066,,,,,right,0.22700360009912401,1,0,0,99,1.4400000000000002,-0.16,right,0.1455977000296116,,,,,,,,,,,,,,,,,,,,,,,,,,,,,,,,,,,,,,,,,,,,,,,,,,,,,,,,QD126R,train_y,red_square,bottom_left,2025-06-07_09h12.18.024,HideSeek_v1,2022.2.5,59.892827780655345,
,3,3,3,8,0,5,11,,train_dim1_1,5,30,,,,2,0,2,0,,,,,,,,,0,0,0,0,0,4,4,4,17,0,17,0,,,,,,,,,,,,,,,,,,,,,,,,,,,,,,,,,,,,,,,,,,,,,,,,,,,,,,,,,,,,,,,,30,,,,,,,,1553.365465000039,1553.365465000039,1553.365465000039,1553.365465000039,1553.365465000039,,,,,right,0.2762408999260515,1,0,0,99,1.5200000000000002,-0.16,right,0.2000778999645263,,,,,,,,,,,,,,,,,,,,,,,,,,,,,,,,,,,,,,,,,,,,,,,,,,,,,,,,QD126R,train_y,red_square,bottom_left,2025-06-07_09h12.18.024,HideSeek_v1,2022.2.5,59.892827780655345,
,3,3,3,8,0,5,11,,train_dim1_1,5,30,,,,2,0,2,0,,,,,,,,,0,0,0,0,0,4,4,4,18,0,18,0,,,,,,,,,,,,,,,,,,,,,,,,,,,,,,,,,,,,,,,,,,,,,,,,,,,,,,,,,,,,,,,,30,,,,,,,,1553.649727800046,1553.649727800046,1553.649727800046,1553.649727800046,1553.649727800046,,,,,right,0.2768160999985412,1,0,0,99,1.6000000000000003,-0.16,right,0.19502149999607354,,,,,,,,,,,,,,,,,,,,,,,,,,,,,,,,,,,,,,,,,,,,,,,,,,,,,,,,QD126R,train_y,red_square,bottom_left,2025-06-07_09h12.18.024,HideSeek_v1,2022.2.5,59.892827780655345,
,3,3,3,8,0,5,11,,train_dim1_1,5,30,,,,2,0,2,0,,,,,,,,,0,0,0,0,0,4,4,4,19,0,19,0,,,,,,,,,,,,,,,,,,,,,,,,,,,,,,,,,,,,,,,,,,,,,,,,,,,,,,,,,,,,,,,,30,,,,,,,,1553.9338764999993,1553.9338764999993,1553.9338764999993,1553.9338764999993,1553.9338764999993,,,,,right,0.24330259999260306,1,0,0,99,1.6800000000000004,-0.16,right,0.159685599966906,,,,,,,,,,,,,,,,,,,,,,,,,,,,,,,,,,,,,,,,,,,,,,,,,,,,,,,,QD126R,train_y,red_square,bottom_left,2025-06-07_09h12.18.024,HideSeek_v1,2022.2.5,59.892827780655345,
,3,3,3,8,0,5,11,,train_dim1_1,5,30,,,,2,0,2,0,,,,,,,,,0,0,0,0,0,4,4,4,20,0,20,0,,,,,,,,,,,,,,,,,,,,,,,,,,,,,,,,,,,,,,,,,,,,,,,,,,,,,,,,,,,,,,,,30,,,,,,,,1554.1836609999882,1554.1836609999882,1554.1836609999882,1554.1836609999882,1554.1836609999882,,,,,right,0.2433860000455752,1,0,0,99,1.7600000000000005,-0.16,right,0.15974090003874153,,,,,,,,,,,,,,,,,,,,,,,,,,,,,,,,,,,,,,,,,,,,,,,,,,,,,,,,QD126R,train_y,red_square,bottom_left,2025-06-07_09h12.18.024,HideSeek_v1,2022.2.5,59.892827780655345,
,3,3,3,8,0,5,11,,train_dim1_1,5,30,,,,2,0,2,0,,,,,,,,,0,0,0,0,0,4,4,4,21,0,21,0,,,,,,,,,,,,,,,,,,,,,,,,,,,,,,,,,,,,,,,,,,,,,,,,,,,,,,,,,,,,,,,,30,,,,,,,,1554.4340677999426,1554.4340677999426,1554.4340677999426,1554.4340677999426,1554.4340677999426,,,,,right,0.24327939993236214,1,0,0,99,1.8400000000000005,-0.16,right,0.15304010000545532,,,,,,,,,,,,,,,,,,,,,,,,,,,,,,,,,,,,,,,,,,,,,,,,,,,,,,,,QD126R,train_y,red_square,bottom_left,2025-06-07_09h12.18.024,HideSeek_v1,2022.2.5,59.892827780655345,
,3,3,3,8,0,5,11,,train_dim1_1,5,30,,,,2,0,2,0,,,,,,,,,0,0,0,0,0,4,4,4,22,0,22,0,,,,,,,,,,,,,,,,,,,,,,,,,,,,,,,,,,,,,,,,,,,,,,,,,,,,,,,,,,,,,,,,30,,,,,,,,1554.6846772000426,1554.6846772000426,1554.6846772000426,1554.6846772000426,1554.6846772000426,,,,,right,0.24326379992999136,1,0,0,99,1.9200000000000006,-0.16,right,0.1556342999683693,,,,,,,,,,,,,,,,,,,,,,,,,,,,,,,,,,,,,,,,,,,,,,,,,,,,,,,,QD126R,train_y,red_square,bottom_left,2025-06-07_09h12.18.024,HideSeek_v1,2022.2.5,59.892827780655345,
,3,3,3,8,0,5,11,,train_dim1_1,5,30,,,,2,0,2,0,,,,,,,,,0,0,0,0,0,4,4,4,23,0,23,0,,,,,,,,,,,,,,,,,,,,,,,,,,,,,,,,,,,,,,,,,,,,,,,,,,,,,,,,,,,,,,,,30,,,,,,,,1554.9348959999625,1554.9348959999625,1554.9348959999625,1554.9348959999625,1554.9348959999625,,,,,right,0.22652050002943724,1,0,0,99,2.0000000000000004,-0.16,right,0.14147090003825724,,,,,,,,,,,,,,,,,,,,,,,,,,,,,,,,,,,,,,,,,,,,,,,,,,,,,,,,QD126R,train_y,red_square,bottom_left,2025-06-07_09h12.18.024,HideSeek_v1,2022.2.5,59.892827780655345,
,3,3,3,8,0,5,11,,train_dim1_1,5,30,,,,2,0,2,0,,,,,,,,,0,0,0,0,0,4,4,4,24,0,24,0,,,,,,,,,,,,,,,,,,,,,,,,,,,,,,,,,,,,,,,,,,,,,,,,,,,,,,,,,,,,,,,,30,,,,,,,,1555.167678699945,1555.167678699945,1555.167678699945,1555.167678699945,1555.167678699945,,,,,right,0.24311719997785985,1,0,0,99,2.0800000000000005,-0.16,right,0.1597310999641195,,,,,,,,,,,,,,,,,,,,,,,,,,,,,,,,,,,,,,,,,,,,,,,,,,,,,,,,QD126R,train_y,red_square,bottom_left,2025-06-07_09h12.18.024,HideSeek_v1,2022.2.5,59.892827780655345,
,3,3,3,8,0,5,11,,train_dim1_1,5,30,,,,2,0,2,0,,,,,,,,,0,0,0,0,0,4,4,4,25,0,25,0,,,,,,,,,,,,,,,,,,,,,,,,,,,,,,,,,,,,,,,,,,,,,,,,,,,,,,,,,,,,,,,,30,,,,,,,,1555.417797400034,1555.417797400034,1555.417797400034,1555.417797400034,1555.417797400034,,,,,right,0.22661889996379614,1,0,0,99,2.1600000000000006,-0.16,right,0.1350202999310568,,,,,,,,,,,,,,,,,,,,,,,,,,,,,,,,,,,,,,,,,,,,,,,,,,,,,,,,QD126R,train_y,red_square,bottom_left,2025-06-07_09h12.18.024,HideSeek_v1,2022.2.5,59.892827780655345,
,3,3,3,8,0,5,11,,train_dim1_1,5,30,,,,2,0,2,0,,,,,,,,,0,0,0,0,0,4,4,4,26,0,26,0,,,,,,,,,,,,,,,,,,,,,,,,,,,,,,,,,,,,,,,,,,,,,,,,,,,,,,,,,,,,,,,,30,,,,,,,,1555.6518079000525,1555.6518079000525,1555.6518079000525,1555.6518079000525,1555.6518079000525,,,,,right,0.22667170001659542,1,0,0,99,2.2400000000000007,-0.16,right,0.1348230999428779,,,,,,,,,,,,,,,,,,,,,,,,,,,,,,,,,,,,,,,,,,,,,,,,,,,,,,,,QD126R,train_y,red_square,bottom_left,2025-06-07_09h12.18.024,HideSeek_v1,2022.2.5,59.892827780655345,
,3,3,3,8,0,5,11,,train_dim1_1,5,30,,,,2,0,2,0,,,,,,,,,0,0,0,0,0,4,4,4,27,0,27,0,,,,,,,,,,,,,,,,,,,,,,,,,,,,,,,,,,,,,,,,,,,,,,,,,,,,,,,,,,,,,,,,30,,,,,,,,1555.8851588999387,1555.8851588999387,1555.8851588999387,1555.8851588999387,1555.8851588999387,,,,,right,0.22670690005179495,1,0,0,99,2.3200000000000007,-0.16,right,0.13823680009227246,,,,,,,,,,,,,,,,,,,,,,,,,,,,,,,,,,,,,,,,,,,,,,,,,,,,,,,,QD126R,train_y,red_square,bottom_left,2025-06-07_09h12.18.024,HideSeek_v1,2022.2.5,59.892827780655345,
,3,3,3,8,0,5,11,,train_dim1_1,5,30,,,,2,0,2,0,,,,,,,,,0,0,0,0,0,4,4,4,28,0,28,0,,,,,,,,,,,,,,,,,,,,,,,,,,,,,,,,,,,,,,,,,,,,,,,,,,,,,,,,,,,,,,,,30,,,,,,,,1556.1202095999615,1556.1202095999615,1556.1202095999615,1556.1202095999615,1556.1202095999615,,,,,right,0.21006880002096295,1,0,0,99,2.400000000000001,-0.16,right,0.13191560003906488,,,,,,,,,,,,,,,,,,,,,,,,,,,,,,,,,,,,,,,,,,,,,,,,,,,,,,,,QD126R,train_y,red_square,bottom_left,2025-06-07_09h12.18.024,HideSeek_v1,2022.2.5,59.892827780655345,
,3,3,3,8,0,5,11,,train_dim1_1,5,30,,,,2,0,2,0,,,,,,,,,0,0,0,0,0,4,4,4,29,0,29,0,,,,,,,,,,,,,,,,,,,,,,,,,,,,,,,,,,,,,,,,,,,,,,,,,,,,,,,,,,,,,,,,30,,,,,,,,1556.3355737000238,1556.3355737000238,1556.3355737000238,1556.3355737000238,1556.3355737000238,,,,,right,0.22601740004029125,1,0,0,99,2.480000000000001,-0.16,right,0.14487519999966025,,,,,,,,,,,,,,,,,,,,,,,,,,,,,,,,,,,,,,,,,,,,,,,,,,,,,,,,QD126R,train_y,red_square,bottom_left,2025-06-07_09h12.18.024,HideSeek_v1,2022.2.5,59.892827780655345,
,3,3,3,8,0,5,11,,train_dim1_1,5,30,,,,2,0,2,0,,,,,,,,,0,0,0,0,0,4,4,4,30,0,30,0,,,,,,,,,,,,,,,,,,,,,,,,,,,,,,,,,,,,,,,,,,,,,,,,,,,,,,,,,,,,,,,,30,,,,,,,,1556.5691616999684,1556.5691616999684,1556.5691616999684,1556.5691616999684,1556.5691616999684,,,,,left,1.1111391999293119,1,0,0,99,2.400000000000001,-0.16,left,1.023609699914232,,,,,,,,,,,,,,,,,,,,,,,,,,,,,,,,,,,,,,,,,,,,,,,,,,,,,,,,QD126R,train_y,red_square,bottom_left,2025-06-07_09h12.18.024,HideSeek_v1,2022.2.5,59.892827780655345,
,3,3,3,8,0,5,11,,train_dim1_1,5,30,,,,2,0,2,0,,,,,,,,,0,0,0,0,0,4,4,4,31,0,31,0,,,,,,,,,,,,,,,,,,,,,,,,,,,,,,,,,,,,,,,,,,,,,,,,,,,,,,,,,,,,,,,,30,,,,,,,,1557.6868834999623,1557.6868834999623,1557.6868834999623,1557.6868834999623,1557.6868834999623,,,,,left,0.20964250003453344,1,0,0,99,2.3200000000000007,-0.16,left,0.13319900003261864,,,,,,,,,,,,,,,,,,,,,,,,,,,,,,,,,,,,,,,,,,,,,,,,,,,,,,,,QD126R,train_y,red_square,bottom_left,2025-06-07_09h12.18.024,HideSeek_v1,2022.2.5,59.892827780655345,
,3,3,3,8,0,5,11,,train_dim1_1,5,30,,,,2,0,2,0,,,,,,,,,0,0,0,0,0,4,4,4,32,0,32,0,,,,,,,,,,,,,,,,,,,,,,,,,,,,,,,,,,,,,,,,,,,,,,,,,,,,,,,,,,,,,,,,30,,,,,,,,1557.9033126999857,1557.9033126999857,1557.9033126999857,1557.9033126999857,1557.9033126999857,,,,,left,0.25987650000024587,1,0,0,99,2.2400000000000007,-0.16,left,0.1750284000299871,,,,,,,,,,,,,,,,,,,,,,,,,,,,,,,,,,,,,,,,,,,,,,,,,,,,,,,,QD126R,train_y,red_square,bottom_left,2025-06-07_09h12.18.024,HideSeek_v1,2022.2.5,59.892827780655345,
,3,3,3,8,0,5,11,,train_dim1_1,5,30,,,,2,0,2,0,,,,,,,,,0,0,0,0,0,4,4,4,33,0,33,0,,,,,,,,,,,,,,,,,,,,,,,,,,,,,,,,,,,,,,,,,,,,,,,,,,,,,,,,,,,,,,,,30,,,,,,,,1558.170777100022,1558.170777100022,1558.170777100022,1558.170777100022,1558.170777100022,,,,,left,0.2600186999188736,1,0,0,99,2.1600000000000006,-0.16,left,0.1677427999675274,,,,,,,,,,,,,,,,,,,,,,,,,,,,,,,,,,,,,,,,,,,,,,,,,,,,,,,,QD126R,train_y,red_square,bottom_left,2025-06-07_09h12.18.024,HideSeek_v1,2022.2.5,59.892827780655345,
,3,3,3,8,0,5,11,,train_dim1_1,5,30,,,,2,0,2,0,,,,,,,,,0,0,0,0,0,4,4,4,34,0,34,0,,,,,,,,,,,,,,,,,,,,,,,,,,,,,,,,,,,,,,,,,,,,,,,,,,,,,,,,,,,,,,,,30,,,,,,,,1558.4370084999828,1558.4370084999828,1558.4370084999828,1558.4370084999828,1558.4370084999828,,,,,left,0.2265216000378132,1,0,0,99,2.0800000000000005,-0.16,left,0.15099969995208085,,,,,,,,,,,,,,,,,,,,,,,,,,,,,,,,,,,,,,,,,,,,,,,,,,,,,,,,QD126R,train_y,red_square,bottom_left,2025-06-07_09h12.18.024,HideSeek_v1,2022.2.5,59.892827780655345,
,3,3,3,8,0,5,11,,train_dim1_1,5,30,,,,2,0,2,0,,,,,,,,,0,0,0,0,0,4,4,4,35,0,35,0,,,,,,,,,,,,,,,,,,,,,,,,,,,,,,,,,,,,,,,,,,,,,,,,,,,,,,,,,,,,,,,,30,,,,,,,,1558.6705349000404,1558.6705349000404,1558.6705349000404,1558.6705349000404,1558.6705349000404,,,,,left,0.22710530005861074,1,0,0,99,2.0000000000000004,-0.16,left,0.14994699996896088,,,,,,,,,,,,,,,,,,,,,,,,,,,,,,,,,,,,,,,,,,,,,,,,,,,,,,,,QD126R,train_y,red_square,bottom_left,2025-06-07_09h12.18.024,HideSeek_v1,2022.2.5,59.892827780655345,
,3,3,3,8,0,5,11,,train_dim1_1,5,30,,,,2,0,2,0,,,,,,,,,0,0,0,0,0,4,4,4,36,0,36,0,,,,,,,,,,,,,,,,,,,,,,,,,,,,,,,,,,,,,,,,,,,,,,,,,,,,,,,,,,,,,,,,30,,,,,,,,1558.9045230000047,1558.9045230000047,1558.9045230000047,1558.9045230000047,1558.9045230000047,,,,,left,0.2432841999689117,1,0,0,99,1.9200000000000004,-0.16,left,0.15751900000032037,,,,,,,,,,,,,,,,,,,,,,,,,,,,,,,,,,,,,,,,,,,,,,,,,,,,,,,,QD126R,train_y,red_square,bottom_left,2025-06-07_09h12.18.024,HideSeek_v1,2022.2.5,59.892827780655345,
,3,3,3,8,0,5,11,,train_dim1_1,5,30,,,,2,0,2,0,,,,,,,,,0,0,0,0,0,4,4,4,37,0,37,0,,,,,,,,,,,,,,,,,,,,,,,,,,,,,,,,,,,,,,,,,,,,,,,,,,,,,,,,,,,,,,,,30,,,,,,,,1559.1539647999452,1559.1539647999452,1559.1539647999452,1559.1539647999452,1559.1539647999452,,,,,left,0.2430833000689745,1,0,0,99,1.8400000000000003,-0.16,left,0.15421930002048612,,,,,,,,,,,,,,,,,,,,,,,,,,,,,,,,,,,,,,,,,,,,,,,,,,,,,,,,QD126R,train_y,red_square,bottom_left,2025-06-07_09h12.18.024,HideSeek_v1,2022.2.5,59.892827780655345,
,3,3,3,8,0,5,11,,train_dim1_1,5,30,,,,2,0,2,0,,,,,,,,,0,0,0,0,0,4,4,4,38,0,38,0,,,,,,,,,,,,,,,,,,,,,,,,,,,,,,,,,,,,,,,,,,,,,,,,,,,,,,,,,,,,,,,,30,,,,,,,,1559.4039764000336,1559.4039764000336,1559.4039764000336,1559.4039764000336,1559.4039764000336,,,,,left,0.20983420009724796,1,0,0,99,1.7600000000000002,-0.16,left,0.1347846999997273,,,,,,,,,,,,,,,,,,,,,,,,,,,,,,,,,,,,,,,,,,,,,,,,,,,,,,,,QD126R,train_y,red_square,bottom_left,2025-06-07_09h12.18.024,HideSeek_v1,2022.2.5,59.892827780655345,
,3,3,3,8,0,5,11,,train_dim1_1,5,30,,,,2,0,2,0,,,,,,,,,0,0,0,0,0,4,4,4,39,0,39,0,,,,,,,,,,,,,,,,,,,,,,,,,,,,,,,,,,,,,,,,,,,,,,,,,,,,,,,,,,,,,,,,30,,,,,,,,1559.6217530999565,1559.6217530999565,1559.6217530999565,1559.6217530999565,1559.6217530999565,,,,,left,0.22658130002673715,1,0,0,99,1.6800000000000002,-0.16,left,0.14266270003281534,,,,,,,,,,,,,,,,,,,,,,,,,,,,,,,,,,,,,,,,,,,,,,,,,,,,,,,,QD126R,train_y,red_square,bottom_left,2025-06-07_09h12.18.024,HideSeek_v1,2022.2.5,59.892827780655345,
,3,3,3,8,0,5,11,,train_dim1_1,5,30,,,,2,0,2,0,,,,,,,,,0,0,0,0,0,4,4,4,40,0,40,0,,,,,,,,,,,,,,,,,,,,,,,,,,,,,,,,,,,,,,,,,,,,,,,,,,,,,,,,,,,,,,,,30,,,,,,,,1559.854637500015,1559.854637500015,1559.854637500015,1559.854637500015,1559.854637500015,,,,,left,0.22663329995702952,1,0,0,99,1.6,-0.16,left,0.15003529994282871,,,,,,,,,,,,,,,,,,,,,,,,,,,,,,,,,,,,,,,,,,,,,,,,,,,,,,,,QD126R,train_y,red_square,bottom_left,2025-06-07_09h12.18.024,HideSeek_v1,2022.2.5,59.892827780655345,
,3,3,3,8,0,5,11,,train_dim1_1,5,30,,,,2,0,2,0,,,,,,,,,0,0,0,0,0,4,4,4,41,0,41,0,,,,,,,,,,,,,,,,,,,,,,,,,,,,,,,,,,,,,,,,,,,,,,,,,,,,,,,,,,,,,,,,30,,,,,,,,1560.088217600016,1560.088217600016,1560.088217600016,1560.088217600016,1560.088217600016,,,,,left,0.2430416001006961,1,0,0,99,1.52,-0.16,left,0.15526659996248782,,,,,,,,,,,,,,,,,,,,,,,,,,,,,,,,,,,,,,,,,,,,,,,,,,,,,,,,QD126R,train_y,red_square,bottom_left,2025-06-07_09h12.18.024,HideSeek_v1,2022.2.5,59.892827780655345,
,3,3,3,8,0,5,11,,train_dim1_1,5,30,,,,2,0,2,0,,,,,,,,,0,0,0,0,0,4,4,4,42,0,42,0,,,,,,,,,,,,,,,,,,,,,,,,,,,,,,,,,,,,,,,,,,,,,,,,,,,,,,,,,,,,,,,,30,,,,,,,,1560.3392042999621,1560.3392042999621,1560.3392042999621,1560.3392042999621,1560.3392042999621,,,,,left,0.2766641000052914,1,0,0,99,1.44,-0.16,left,0.19449099991470575,,,,,,,,,,,,,,,,,,,,,,,,,,,,,,,,,,,,,,,,,,,,,,,,,,,,,,,,QD126R,train_y,red_square,bottom_left,2025-06-07_09h12.18.024,HideSeek_v1,2022.2.5,59.892827780655345,
,3,3,3,8,0,5,11,,train_dim1_1,5,30,,,,2,0,2,0,,,,,,,,,0,0,0,0,0,4,4,4,43,0,43,0,,,,,,,,,,,,,,,,,,,,,,,,,,,,,,,,,,,,,,,,,,,,,,,,,,,,,,,,,,,,,,,,30,,,,,,,,1560.62439979997,1560.62439979997,1560.62439979997,1560.62439979997,1560.62439979997,,,,,left,0.1754656000994146,1,0,0,99,1.3599999999999999,-0.16,left,0.09183640009723604,,,,,,,,,,,,,,,,,,,,,,,,,,,,,,,,,,,,,,,,,,,,,,,,,,,,,,,,QD126R,train_y,red_square,bottom_left,2025-06-07_09h12.18.024,HideSeek_v1,2022.2.5,59.892827780655345,
,3,3,3,8,0,5,11,,train_dim1_1,5,30,,,,2,0,2,0,,,,,,,,,0,0,0,0,0,4,4,4,44,0,44,0,,,,,,,,,,,,,,,,,,,,,,,,,,,,,,,,,,,,,,,,,,,,,,,,,,,,,,,,,,,,,,,,30,,,,,,,,1560.8066179000307,1560.8066179000307,1560.8066179000307,1560.8066179000307,1560.8066179000307,,,,,left,0.2764335999963805,1,0,0,99,1.2799999999999998,-0.16,left,0.1843840000219643,,,,,,,,,,,,,,,,,,,,,,,,,,,,,,,,,,,,,,,,,,,,,,,,,,,,,,,,QD126R,train_y,red_square,bottom_left,2025-06-07_09h12.18.024,HideSeek_v1,2022.2.5,59.892827780655345,
,3,3,3,8,0,5,11,,train_dim1_1,5,30,,,,2,0,2,0,,,,,,,,,0,0,0,0,0,4,4,4,45,0,45,0,,,,,,,,,,,,,,,,,,,,,,,,,,,,,,,,,,,,,,,,,,,,,,,,,,,,,,,,,,,,,,,,30,,,,,,,,1561.0906176000135,1561.0906176000135,1561.0906176000135,1561.0906176000135,1561.0906176000135,,,,,left,0.22630400001071393,1,0,0,99,1.1999999999999997,-0.16,left,0.1334142000414431,,,,,,,,,,,,,,,,,,,,,,,,,,,,,,,,,,,,,,,,,,,,,,,,,,,,,,,,QD126R,train_y,red_square,bottom_left,2025-06-07_09h12.18.024,HideSeek_v1,2022.2.5,59.892827780655345,
,3,3,3,8,0,5,11,,train_dim1_1,5,30,,,,2,0,2,0,,,,,,,,,0,0,0,0,0,4,4,4,46,0,46,0,,,,,,,,,,,,,,,,,,,,,,,,,,,,,,,,,,,,,,,,,,,,,,,,,,,,,,,,,,,,,,,,30,,,,,,,,1561.3223533999408,1561.3223533999408,1561.3223533999408,1561.3223533999408,1561.3223533999408,,,,,left,0.2265449999831617,1,0,0,99,1.1199999999999997,-0.16,left,0.1370922999922186,,,,,,,,,,,,,,,,,,,,,,,,,,,,,,,,,,,,,,,,,,,,,,,,,,,,,,,,QD126R,train_y,red_square,bottom_left,2025-06-07_09h12.18.024,HideSeek_v1,2022.2.5,59.892827780655345,
,3,3,3,8,0,5,11,,train_dim1_1,5,30,,,,2,0,2,0,,,,,,,,,0,0,0,0,0,4,4,4,47,0,47,0,,,,,,,,,,,,,,,,,,,,,,,,,,,,,,,,,,,,,,,,,,,,,,,,,,,,,,,,,,,,,,,,30,,,,,,,,1561.556656199973,1561.556656199973,1561.556656199973,1561.556656199973,1561.556656199973,,,,,left,0.2932924000779167,1,0,0,99,1.0399999999999996,-0.16,left,0.20895240001846105,,,,,,,,,,,,,,,,,,,,,,,,,,,,,,,,,,,,,,,,,,,,,,,,,,,,,,,,QD126R,train_y,red_square,bottom_left,2025-06-07_09h12.18.024,HideSeek_v1,2022.2.5,59.892827780655345,
,3,3,3,8,0,5,11,,train_dim1_1,5,30,,,,2,0,2,0,,,,,,,,,0,0,0,0,0,4,4,4,48,0,48,0,,,,,,,,,,,,,,,,,,,,,,,,,,,,,,,,,,,,,,,,,,,,,,,,,,,,,,,,,,,,,,,,30,,,,,,,,1561.857361900038,1561.857361900038,1561.857361900038,1561.857361900038,1561.857361900038,,,,,left,0.45980309997685254,1,0,0,99,0.9599999999999996,-0.16,left,0.3783969000214711,,,,,,,,,,,,,,,,,,,,,,,,,,,,,,,,,,,,,,,,,,,,,,,,,,,,,,,,QD126R,train_y,red_square,bottom_left,2025-06-07_09h12.18.024,HideSeek_v1,2022.2.5,59.892827780655345,
,3,3,3,8,0,5,11,,train_dim1_1,5,30,,,,2,0,2,0,,,,,,,,,0,0,0,0,0,4,4,4,49,0,49,0,,,,,,,,,,,,,,,,,,,,,,,,,,,,,,,,,,,,,,,,,,,,,,,,,,,,,,,,,,,,,,,,30,,,,,,,,1562.323299700045,1562.323299700045,1562.323299700045,1562.323299700045,1562.323299700045,,,,,left,0.20984949998091906,1,0,0,99,0.8799999999999997,-0.16,left,0.1296781999990344,,,,,,,,,,,,,,,,,,,,,,,,,,,,,,,,,,,,,,,,,,,,,,,,,,,,,,,,QD126R,train_y,red_square,bottom_left,2025-06-07_09h12.18.024,HideSeek_v1,2022.2.5,59.892827780655345,
,3,3,3,8,0,5,11,,train_dim1_1,5,30,,,,2,0,2,0,,,,,,,,,0,0,0,0,0,4,4,4,50,0,50,0,,,,,,,,,,,,,,,,,,,,,,,,,,,,,,,,,,,,,,,,,,,,,,,,,,,,,,,,,,,,,,,,30,,,,,,,,1562.5398776000366,1562.5398776000366,1562.5398776000366,1562.5398776000366,1562.5398776000366,,,,,left,0.2099969000555575,1,0,0,99,0.7999999999999997,-0.16,left,0.12352130003273487,,,,,,,,,,,,,,,,,,,,,,,,,,,,,,,,,,,,,,,,,,,,,,,,,,,,,,,,QD126R,train_y,red_square,bottom_left,2025-06-07_09h12.18.024,HideSeek_v1,2022.2.5,59.892827780655345,
,3,3,3,8,0,5,11,,train_dim1_1,5,30,,,,2,0,2,0,,,,,,,,,0,0,0,0,0,4,4,4,51,0,51,0,,,,,,,,,,,,,,,,,,,,,,,,,,,,,,,,,,,,,,,,,,,,,,,,,,,,,,,,,,,,,,,,30,,,,,,,,1562.7576323000249,1562.7576323000249,1562.7576323000249,1562.7576323000249,1562.7576323000249,,,,,left,0.22633140010293573,1,0,0,99,0.7199999999999998,-0.16,left,0.13963829993736,,,,,,,,,,,,,,,,,,,,,,,,,,,,,,,,,,,,,,,,,,,,,,,,,,,,,,,,QD126R,train_y,red_square,bottom_left,2025-06-07_09h12.18.024,HideSeek_v1,2022.2.5,59.892827780655345,
,3,3,3,8,0,5,11,,train_dim1_1,5,30,,,,2,0,2,0,,,,,,,,,0,0,0,0,0,4,4,4,52,0,52,0,,,,,,,,,,,,,,,,,,,,,,,,,,,,,,,,,,,,,,,,,,,,,,,,,,,,,,,,,,,,,,,,30,,,,,,,,1562.9919226999627,1562.9919226999627,1562.9919226999627,1562.9919226999627,1562.9919226999627,,,,,left,0.19294809992425144,1,0,0,99,0.6399999999999998,-0.16,left,0.11452990001998842,,,,,,,,,,,,,,,,,,,,,,,,,,,,,,,,,,,,,,,,,,,,,,,,,,,,,,,,QD126R,train_y,red_square,bottom_left,2025-06-07_09h12.18.024,HideSeek_v1,2022.2.5,59.892827780655345,
,3,3,3,8,0,5,11,,train_dim1_1,5,30,,,,2,0,2,0,,,,,,,,,0,0,0,0,0,4,4,4,53,0,53,0,,,,,,,,,,,,,,,,,,,,,,,,,,,,,,,,,,,,,,,,,,,,,,,,,,,,,,,,,,,,,,,,30,,,,,,,,1563.191167299985,1563.191167299985,1563.191167299985,1563.191167299985,1563.191167299985,,,,,left,0.19340950006153435,1,0,0,99,0.5599999999999998,-0.16,left,0.10797989997081459,,,,,,,,,,,,,,,,,,,,,,,,,,,,,,,,,,,,,,,,,,,,,,,,,,,,,,,,QD126R,train_y,red_square,bottom_left,2025-06-07_09h12.18.024,HideSeek_v1,2022.2.5,59.892827780655345,
,3,3,3,8,0,5,11,,train_dim1_1,5,30,,,,2,0,2,0,,,,,,,,,0,0,0,0,0,4,4,4,54,0,54,0,,,,,,,,,,,,,,,,,,,,,,,,,,,,,,,,,,,,,,,,,,,,,,,,,,,,,,,,,,,,,,,,30,,,,,,,,1563.391121899942,1563.391121899942,1563.391121899942,1563.391121899942,1563.391121899942,,,,,left,0.17661999992560595,1,0,0,99,0.4799999999999998,-0.16,left,0.10024619998876005,,,,,,,,,,,,,,,,,,,,,,,,,,,,,,,,,,,,,,,,,,,,,,,,,,,,,,,,QD126R,train_y,red_square,bottom_left,2025-06-07_09h12.18.024,HideSeek_v1,2022.2.5,59.892827780655345,
,3,3,3,8,0,5,11,,train_dim1_1,5,30,,,,2,0,2,0,,,,,,,,,0,0,0,0,0,4,4,4,55,0,55,0,,,,,,,,,,,,,,,,,,,,,,,,,,,,,,,,,,,,,,,,,,,,,,,,,,,,,,,,,,,,,,,,30,,,,,,,,1563.5752049000002,1563.5752049000002,1563.5752049000002,1563.5752049000002,1563.5752049000002,,,,,left,0.2098444999428466,1,0,0,99,0.3999999999999998,-0.16,left,0.12785729998722672,,,,,,,,,,,,,,,,,,,,,,,,,,,,,,,,,,,,,,,,,,,,,,,,,,,,,,,,QD126R,train_y,red_square,bottom_left,2025-06-07_09h12.18.024,HideSeek_v1,2022.2.5,59.892827780655345,
,3,3,3,8,0,5,11,,train_dim1_1,5,30,,,,2,0,2,0,,,,,,,,,0,0,0,0,0,4,4,4,56,0,56,0,,,,,,,,,,,,,,,,,,,,,,,,,,,,,,,,,,,,,,,,,,,,,,,,,,,,,,,,,,,,,,,,30,,,,,,,,1563.7915906000417,1563.7915906000417,1563.7915906000417,1563.7915906000417,1563.7915906000417,,,,,left,0.2100296999560669,1,0,0,99,0.3199999999999998,-0.16,left,0.11964359995909035,,,,,,,,,,,,,,,,,,,,,,,,,,,,,,,,,,,,,,,,,,,,,,,,,,,,,,,,QD126R,train_y,red_square,bottom_left,2025-06-07_09h12.18.024,HideSeek_v1,2022.2.5,59.892827780655345,
,3,3,3,8,0,5,11,,train_dim1_1,5,30,,,,2,0,2,0,,,,,,,,,0,0,0,0,0,4,4,4,57,0,57,0,,,,,,,,,,,,,,,,,,,,,,,,,,,,,,,,,,,,,,,,,,,,,,,,,,,,,,,,,,,,,,,,30,,,,,,,,1564.0085143999895,1564.0085143999895,1564.0085143999895,1564.0085143999895,1564.0085143999895,,,,,left,0.1765595000470057,1,0,0,99,0.23999999999999977,-0.16,left,0.09288130002096295,,,,,,,,,,,,,,,,,,,,,,,,,,,,,,,,,,,,,,,,,,,,,,,,,,,,,,,,QD126R,train_y,red_square,bottom_left,2025-06-07_09h12.18.024,HideSeek_v1,2022.2.5,59.892827780655345,
,3,3,3,8,0,5,11,,train_dim1_1,5,30,,,,2,0,2,0,,,,,,,,,0,0,0,0,0,4,4,4,58,0,58,0,,,,,,,,,,,,,,,,,,,,,,,,,,,,,,,,,,,,,,,,,,,,,,,,,,,,,,,,,,,,,,,,30,,,,,,,,1564.192367700045,1564.192367700045,1564.192367700045,1564.192367700045,1564.192367700045,,,,,left,0.1930549000389874,1,0,0,99,0.15999999999999975,-0.16,left,0.10408339998684824,,,,,,,,,,,,,,,,,,,,,,,,,,,,,,,,,,,,,,,,,,,,,,,,,,,,,,,,QD126R,train_y,red_square,bottom_left,2025-06-07_09h12.18.024,HideSeek_v1,2022.2.5,59.892827780655345,
,3,3,3,8,0,5,11,,train_dim1_1,5,30,,,,2,0,2,0,,,,,,,,,0,0,0,0,0,4,4,4,59,0,59,0,,,,,,,,,,,,,,,,,,,,,,,,,,,,,,,,,,,,,,,,,,,,,,,,,,,,,,,,,,,,,,,,30,,,,,,,,1564.3927371000173,1564.3927371000173,1564.3927371000173,1564.3927371000173,1564.3927371000173,,,,,left,0.1930701999226585,1,0,0,99,0.07999999999999975,-0.16,left,0.10905770002864301,,,,,,,,,,,,,,,,,,,,,,,,,,,,,,,,,,,,,,,,,,,,,,,,,,,,,,,,QD126R,train_y,red_square,bottom_left,2025-06-07_09h12.18.024,HideSeek_v1,2022.2.5,59.892827780655345,
,3,3,3,8,0,5,11,,train_dim1_1,5,30,,,,2,0,2,0,,,,,,,,,0,0,0,0,0,4,4,4,60,0,60,0,,,,,,,,,,,,,,,,,,,,,,,,,,,,,,,,,,,,,,,,,,,,,,,,,,,,,,,,,,,,,,,,30,,,,,,,,1564.5915915999794,1564.5915915999794,1564.5915915999794,1564.5915915999794,1564.5915915999794,,,,,left,0.19333489995915443,1,0,0,99,-2.498001805406602e-16,-0.16,left,0.11245930008590221,,,,,,,,,,,,,,,,,,,,,,,,,,,,,,,,,,,,,,,,,,,,,,,,,,,,,,,,QD126R,train_y,red_square,bottom_left,2025-06-07_09h12.18.024,HideSeek_v1,2022.2.5,59.892827780655345,
,3,3,3,8,0,5,11,,train_dim1_1,5,30,,,,2,0,2,0,,,,,,,,,0,0,0,0,0,4,4,4,61,0,61,0,,,,,,,,,,,,,,,,,,,,,,,,,,,,,,,,,,,,,,,,,,,,,,,,,,,,,,,,,,,,,,,,30,,,,,,,,1564.7935438000131,1564.7935438000131,1564.7935438000131,1564.7935438000131,1564.7935438000131,,,,,left,0.2928988999919966,1,0,0,99,-0.08000000000000025,-0.16,left,0.20340440003201365,,,,,,,,,,,,,,,,,,,,,,,,,,,,,,,,,,,,,,,,,,,,,,,,,,,,,,,,QD126R,train_y,red_square,bottom_left,2025-06-07_09h12.18.024,HideSeek_v1,2022.2.5,59.892827780655345,
,3,3,3,8,0,5,11,,train_dim1_1,5,30,,,,2,0,2,0,,,,,,,,,0,0,0,0,0,4,4,4,62,0,62,0,,,,,,,,,,,,,,,,,,,,,,,,,,,,,,,,,,,,,,,,,,,,,,,,,,,,,,,,,,,,,,,,30,,,,,,,,1565.0935780999716,1565.0935780999716,1565.0935780999716,1565.0935780999716,1565.0935780999716,,,,,right,1.0108796999556944,1,0,0,99,-2.498001805406602e-16,-0.16,right,0.9338941000169143,,,,,,,,,,,,,,,,,,,,,,,,,,,,,,,,,,,,,,,,,,,,,,,,,,,,,,,,QD126R,train_y,red_square,bottom_left,2025-06-07_09h12.18.024,HideSeek_v1,2022.2.5,59.892827780655345,
,3,3,3,8,0,5,11,,train_dim1_1,5,30,,,,2,0,2,0,,,,,,,,,0,0,0,0,0,4,4,4,63,0,63,0,,,,,,,,,,,,,,,,,,,,,,,,,,,,,,,,,,,,,,,,,,,,,,,,,,,,,,,,,,,,,,,,30,,,,,,,,1566.1103856000118,1566.1103856000118,1566.1103856000118,1566.1103856000118,1566.1103856000118,,,,,up,2.1282236999832094,1,0,0,99,-2.498001805406602e-16,-0.08,up,2.0427582999691367,,,,,,,,,,,,,,,,,,,,,,,,,,,,,,,,,,,,,,,,,,,,,,,,,,,,,,,,QD126R,train_y,red_square,bottom_left,2025-06-07_09h12.18.024,HideSeek_v1,2022.2.5,59.892827780655345,
,3,3,3,8,0,5,11,,train_dim1_1,5,30,,,,2,0,2,0,,,,,,,,,0,0,0,0,0,4,4,4,64,0,64,0,,,,,,,,,,,,,,,,,,,,,,,,,,,,,,,,,,,,,,,,,,,,,,,,,,,,,,,,,,,,,,,,30,,,,,,,,1568.24534829997,1568.24534829997,1568.24534829997,1568.24534829997,1568.24534829997,,,,,right,0.49330460000783205,1,0,0,99,0.07999999999999975,-0.08,right,0.4161840000888333,,,,,,,,,,,,,,,,,,,,,,,,,,,,,,,,,,,,,,,,,,,,,,,,,,,,,,,,QD126R,train_y,red_square,bottom_left,2025-06-07_09h12.18.024,HideSeek_v1,2022.2.5,59.892827780655345,
,3,3,3,8,0,5,11,,train_dim1_1,5,30,,,,2,0,2,0,,,,,,,,,0,0,0,0,0,4,4,4,65,0,65,0,,,,,,,,,,,,,,,,,,,,,,,,,,,,,,,,,,,,,,,,,,,,,,,,,,,,,,,,,,,,,,,,30,,,,,,,,1568.746812999947,1568.746812999947,1568.746812999947,1568.746812999947,1568.746812999947,,,,,right,0.7435157999861985,1,0,0,99,0.15999999999999975,-0.08,right,0.6556336999638006,,,,,,,,,,,,,,,,,,,,,,,,,,,,,,,,,,,,,,,,,,,,,,,,,,,,,,,,QD126R,train_y,red_square,bottom_left,2025-06-07_09h12.18.024,HideSeek_v1,2022.2.5,59.892827780655345,
,3,3,3,8,0,5,11,,train_dim1_1,5,30,,,,2,0,2,0,,,,,,,,,0,0,0,0,0,4,4,4,66,0,66,0,,,,,,,,,,,,,,,,,,,,,,,,,,,,,,,,,,,,,,,,,,,,,,,,,,,,,,,,,,,,,,,,30,,,,,,,,1569.4967194000492,1569.4967194000492,1569.4967194000492,1569.4967194000492,1569.4967194000492,8,5,0.15999999999999975,-0.08,return,0.7596678999252617,1,0,0,0,0.15999999999999975,-0.08,return,0.671743799932301,,,,,,,,,,,,,,,,,,,,,,,,,,,,,,,,,,,,,,,,,,,,,,,,,,,,,,,,QD126R,train_y,red_square,bottom_left,2025-06-07_09h12.18.024,HideSeek_v1,2022.2.5,59.892827780655345,
,1,4,1,8,0,4,12,,train_dim1_1,6,30,,,,2,0,2,0,,,,,,,,,0,0,0,0,0,5,5,5,0,0,0,0,,,,,,,,,,,,,,,,,,,,,,,,,stimuli/alien_stimuli/12.png,,,,,,,,,,,,,,,,,,,,,,,,,,,,,stimuli/alien_stimuli/11.png,11,3,7,,,,,,,30,,,,,,,,1582.937759499997,1582.937759499997,1582.937759499997,1582.937759499997,1582.937759499997,,,,,right,1.1178315000142902,1,0,0,99,0.0,-0.08,right,1.020527599961497,1581.3556359000504,1582.937759499997,0.08,0.24,0.4,0.0,0.039999999999999994,0.08,0.08,0.08,0.24,1571.832601699978,1571.832601699978,1571.832601699978,1571.832601699978,1571.832601699978,1571.832601699978,1571.832601699978,1571.832601699978,1571.831102519948,9.643541500088759,return,9.492884400067851,,,,,,,,,,,,,,,,,,,,,,,,,,,,,,,,,QD126R,train_y,red_square,bottom_left,2025-06-07_09h12.18.024,HideSeek_v1,2022.2.5,59.892827780655345,
,1,4,1,8,0,4,12,,train_dim1_1,6,30,,,,2,0,2,0,,,,,,,,,0,0,0,0,0,5,5,5,1,0,1,0,,,,,,,,,,,,,,,,,,,,,,,,,,,,,,,,,,,,,,,,,,,,,,,,,,,,,,,,,,,,,,,,30,,,,,,,,1584.0429093999555,1584.0429093999555,1584.0429093999555,1584.0429093999555,1584.0429093999555,,,,,up,0.6431541000492871,1,0,0,99,0.0,0.0,up,0.562130100093782,,,,,,,,,,,,,,,,,,,,,,,,,,,,,,,,,,,,,,,,,,,,,,,,,,,,,,,,QD126R,train_y,red_square,bottom_left,2025-06-07_09h12.18.024,HideSeek_v1,2022.2.5,59.892827780655345,
,1,4,1,8,0,4,12,,train_dim1_1,6,30,,,,2,0,2,0,,,,,,,,,0,0,0,0,0,5,5,5,2,0,2,0,,,,,,,,,,,,,,,,,,,,,,,,,,,,,,,,,,,,,,,,,,,,,,,,,,,,,,,,,,,,,,,,30,,,,,,,,1584.6935892000329,1584.6935892000329,1584.6935892000329,1584.6935892000329,1584.6935892000329,,,,,left,2.294861900038086,1,0,0,99,-0.08,0.0,left,2.2148286000592634,,,,,,,,,,,,,,,,,,,,,,,,,,,,,,,,,,,,,,,,,,,,,,,,,,,,,,,,QD126R,train_y,red_square,bottom_left,2025-06-07_09h12.18.024,HideSeek_v1,2022.2.5,59.892827780655345,
,1,4,1,8,0,4,12,,train_dim1_1,6,30,,,,2,0,2,0,,,,,,,,,0,0,0,0,0,5,5,5,3,0,3,0,,,,,,,,,,,,,,,,,,,,,,,,,,,,,,,,,,,,,,,,,,,,,,,,,,,,,,,,,,,,,,,,30,,,,,,,,1586.9940089000156,1586.9940089000156,1586.9940089000156,1586.9940089000156,1586.9940089000156,,,,,down,0.49341989995446056,1,0,0,99,-0.08,-0.08,down,0.4066815000260249,,,,,,,,,,,,,,,,,,,,,,,,,,,,,,,,,,,,,,,,,,,,,,,,,,,,,,,,QD126R,train_y,red_square,bottom_left,2025-06-07_09h12.18.024,HideSeek_v1,2022.2.5,59.892827780655345,
,1,4,1,8,0,4,12,,train_dim1_1,6,30,,,,2,0,2,0,,,,,,,,,0,0,0,0,0,5,5,5,4,0,4,0,,,,,,,,,,,,,,,,,,,,,,,,,,,,,,,,,,,,,,,,,,,,,,,,,,,,,,,,,,,,,,,,30,,,,,,,,1587.496072000009,1587.496072000009,1587.496072000009,1587.496072000009,1587.496072000009,,,,,down,0.49350790004245937,1,0,0,99,-0.08,-0.16,down,0.4019115000264719,,,,,,,,,,,,,,,,,,,,,,,,,,,,,,,,,,,,,,,,,,,,,,,,,,,,,,,,QD126R,train_y,red_square,bottom_left,2025-06-07_09h12.18.024,HideSeek_v1,2022.2.5,59.892827780655345,
,1,4,1,8,0,4,12,,train_dim1_1,6,30,,,,2,0,2,0,,,,,,,,,0,0,0,0,0,5,5,5,5,0,5,0,,,,,,,,,,,,,,,,,,,,,,,,,,,,,,,,,,,,,,,,,,,,,,,,,,,,,,,,,,,,,,,,30,,,,,,,,1587.995151399984,1587.995151399984,1587.995151399984,1587.995151399984,1587.995151399984,,,,,down,0.893944300012663,1,0,0,99,-0.08,-0.24,down,0.8157221999717876,,,,,,,,,,,,,,,,,,,,,,,,,,,,,,,,,,,,,,,,,,,,,,,,,,,,,,,,QD126R,train_y,red_square,bottom_left,2025-06-07_09h12.18.024,HideSeek_v1,2022.2.5,59.892827780655345,
,1,4,1,8,0,4,12,,train_dim1_1,6,30,,,,2,0,2,0,,,,,,,,,0,0,0,0,0,5,5,5,6,0,6,0,,,,,,,,,,,,,,,,,,,,,,,,,,,,,,,,,,,,,,,,,,,,,,,,,,,,,,,,,,,,,,,,30,,,,,,,,1588.8965567999985,1588.8965567999985,1588.8965567999985,1588.8965567999985,1588.8965567999985,,,,,down,0.5598223999841139,1,0,0,99,-0.08,-0.32,down,0.47971760004293174,,,,,,,,,,,,,,,,,,,,,,,,,,,,,,,,,,,,,,,,,,,,,,,,,,,,,,,,QD126R,train_y,red_square,bottom_left,2025-06-07_09h12.18.024,HideSeek_v1,2022.2.5,59.892827780655345,
,1,4,1,8,0,4,12,,train_dim1_1,6,30,,,,2,0,2,0,,,,,,,,,0,0,0,0,0,5,5,5,7,0,7,0,,,,,,,,,,,,,,,,,,,,,,,,,,,,,,,,,,,,,,,,,,,,,,,,,,,,,,,,,,,,,,,,30,,,,,,,,1589.4637622999726,1589.4637622999726,1589.4637622999726,1589.4637622999726,1589.4637622999726,5,5,-0.08,-0.32,return,0.8939760000212118,1,0,0,0,-0.08,-0.32,return,0.8053571000928059,,,,,,,,,,,,,,,,,,,,,,,,,,,,,,,,,,,,,,,,,,,,,,,,,,,,,,,,QD126R,train_y,red_square,bottom_left,2025-06-07_09h12.18.024,HideSeek_v1,2022.2.5,59.892827780655345,
,1,3,1,6,0,3,13,,train_dim1_1,7,30,,,,2,0,2,0,,,,,,,,,0,0,0,0,0,6,6,6,0,0,0,0,,,,,,,,,,,,,,,,,,,,,,,,,stimuli/alien_stimuli/13.png,,,,,,,,,,,,,,,,,,,,,,,,,,,,,stimuli/alien_stimuli/12.png,12,1,8,,,,,,,30,,,,,,,,1597.7782389000058,1597.7782389000058,1597.7782389000058,1597.7782389000058,1597.7782389000058,,,,,right,0.9200592000270262,1,0,0,99,0.0,-0.16,right,0.8286101999692619,1596.2180652000243,1597.7782389000058,-0.08,0.24,0.32,0.0,0.07999999999999999,-0.08,-0.08,-0.08,0.24,1591.9348321999423,1591.9348321999423,1591.9348321999423,1591.9348321999423,1591.9348321999423,1591.9348321999423,1591.9348321999423,1591.9348321999423,1591.9311317200306,4.405470099998638,return,4.258790499996394,,,,,,,,,,,,,,,,,,,,,,,,,,,,,,,,,QD126R,train_y,red_square,bottom_left,2025-06-07_09h12.18.024,HideSeek_v1,2022.2.5,59.892827780655345,
,1,3,1,6,0,3,13,,train_dim1_1,7,30,,,,2,0,2,0,,,,,,,,,0,0,0,0,0,6,6,6,1,0,1,0,,,,,,,,,,,,,,,,,,,,,,,,,,,,,,,,,,,,,,,,,,,,,,,,,,,,,,,,,,,,,,,,30,,,,,,,,1598.7046631999547,1598.7046631999547,1598.7046631999547,1598.7046631999547,1598.7046631999547,,,,,up,0.909490599995479,1,0,0,99,0.0,-0.08,up,0.819904200034216,,,,,,,,,,,,,,,,,,,,,,,,,,,,,,,,,,,,,,,,,,,,,,,,,,,,,,,,QD126R,train_y,red_square,bottom_left,2025-06-07_09h12.18.024,HideSeek_v1,2022.2.5,59.892827780655345,
,1,3,1,6,0,3,13,,train_dim1_1,7,30,,,,2,0,2,0,,,,,,,,,0,0,0,0,0,6,6,6,2,0,2,0,,,,,,,,,,,,,,,,,,,,,,,,,,,,,,,,,,,,,,,,,,,,,,,,,,,,,,,,,,,,,,,,30,,,,,,,,1599.6212085000006,1599.6212085000006,1599.6212085000006,1599.6212085000006,1599.6212085000006,,,,,right,0.4433929999358952,1,0,0,99,0.08,-0.08,right,0.3551905000349507,,,,,,,,,,,,,,,,,,,,,,,,,,,,,,,,,,,,,,,,,,,,,,,,,,,,,,,,QD126R,train_y,red_square,bottom_left,2025-06-07_09h12.18.024,HideSeek_v1,2022.2.5,59.892827780655345,
,1,3,1,6,0,3,13,,train_dim1_1,7,30,,,,2,0,2,0,,,,,,,,,0,0,0,0,0,6,6,6,3,0,3,0,,,,,,,,,,,,,,,,,,,,,,,,,,,,,,,,,,,,,,,,,,,,,,,,,,,,,,,,,,,,,,,,30,,,,,,,,1600.0709912000457,1600.0709912000457,1600.0709912000457,1600.0709912000457,1600.0709912000457,,,,,up,0.42697140004020184,1,0,0,99,0.08,0.0,up,0.3504501999123022,,,,,,,,,,,,,,,,,,,,,,,,,,,,,,,,,,,,,,,,,,,,,,,,,,,,,,,,QD126R,train_y,red_square,bottom_left,2025-06-07_09h12.18.024,HideSeek_v1,2022.2.5,59.892827780655345,
,1,3,1,6,0,3,13,,train_dim1_1,7,30,,,,2,0,2,0,,,,,,,,,0,0,0,0,0,6,6,6,4,0,4,0,,,,,,,,,,,,,,,,,,,,,,,,,,,,,,,,,,,,,,,,,,,,,,,,,,,,,,,,,,,,,,,,30,,,,,,,,1600.505071499967,1600.505071499967,1600.505071499967,1600.505071499967,1600.505071499967,,,,,right,0.37635819998104125,1,0,0,99,0.16,0.0,right,0.28509039990603924,,,,,,,,,,,,,,,,,,,,,,,,,,,,,,,,,,,,,,,,,,,,,,,,,,,,,,,,QD126R,train_y,red_square,bottom_left,2025-06-07_09h12.18.024,HideSeek_v1,2022.2.5,59.892827780655345,
,1,3,1,6,0,3,13,,train_dim1_1,7,30,,,,2,0,2,0,,,,,,,,,0,0,0,0,0,6,6,6,5,0,5,0,,,,,,,,,,,,,,,,,,,,,,,,,,,,,,,,,,,,,,,,,,,,,,,,,,,,,,,,,,,,,,,,30,,,,,,,,1600.8893735000165,1600.8893735000165,1600.8893735000165,1600.8893735000165,1600.8893735000165,,,,,up,0.3600798000115901,1,0,0,99,0.16,0.08,up,0.2773635999765247,,,,,,,,,,,,,,,,,,,,,,,,,,,,,,,,,,,,,,,,,,,,,,,,,,,,,,,,QD126R,train_y,red_square,bottom_left,2025-06-07_09h12.18.024,HideSeek_v1,2022.2.5,59.892827780655345,
,1,3,1,6,0,3,13,,train_dim1_1,7,30,,,,2,0,2,0,,,,,,,,,0,0,0,0,0,6,6,6,6,0,6,0,,,,,,,,,,,,,,,,,,,,,,,,,,,,,,,,,,,,,,,,,,,,,,,,,,,,,,,,,,,,,,,,30,,,,,,,,1601.2574377999408,1601.2574377999408,1601.2574377999408,1601.2574377999408,1601.2574377999408,,,,,right,0.2921701999148354,1,0,0,99,0.24,0.08,right,0.21278719999827445,,,,,,,,,,,,,,,,,,,,,,,,,,,,,,,,,,,,,,,,,,,,,,,,,,,,,,,,QD126R,train_y,red_square,bottom_left,2025-06-07_09h12.18.024,HideSeek_v1,2022.2.5,59.892827780655345,
,1,3,1,6,0,3,13,,train_dim1_1,7,30,,,,2,0,2,0,,,,,,,,,0,0,0,0,0,6,6,6,7,0,7,0,,,,,,,,,,,,,,,,,,,,,,,,,,,,,,,,,,,,,,,,,,,,,,,,,,,,,,,,,,,,,,,,30,,,,,,,,1601.5564054000424,1601.5564054000424,1601.5564054000424,1601.5564054000424,1601.5564054000424,,,,,up,0.3100119000300765,1,0,0,99,0.24,0.16,up,0.23314299993216991,,,,,,,,,,,,,,,,,,,,,,,,,,,,,,,,,,,,,,,,,,,,,,,,,,,,,,,,QD126R,train_y,red_square,bottom_left,2025-06-07_09h12.18.024,HideSeek_v1,2022.2.5,59.892827780655345,
,1,3,1,6,0,3,13,,train_dim1_1,7,30,,,,2,0,2,0,,,,,,,,,0,0,0,0,0,6,6,6,8,0,8,0,,,,,,,,,,,,,,,,,,,,,,,,,,,,,,,,,,,,,,,,,,,,,,,,,,,,,,,,,,,,,,,,30,,,,,,,,1601.8737579999724,1601.8737579999724,1601.8737579999724,1601.8737579999724,1601.8737579999724,,,,,right,0.2933522000676021,1,0,0,99,0.32,0.16,right,0.20641720003914088,,,,,,,,,,,,,,,,,,,,,,,,,,,,,,,,,,,,,,,,,,,,,,,,,,,,,,,,QD126R,train_y,red_square,bottom_left,2025-06-07_09h12.18.024,HideSeek_v1,2022.2.5,59.892827780655345,
,1,3,1,6,0,3,13,,train_dim1_1,7,30,,,,2,0,2,0,,,,,,,,,0,0,0,0,0,6,6,6,9,0,9,0,,,,,,,,,,,,,,,,,,,,,,,,,,,,,,,,,,,,,,,,,,,,,,,,,,,,,,,,,,,,,,,,30,,,,,,,,1602.1732969000004,1602.1732969000004,1602.1732969000004,1602.1732969000004,1602.1732969000004,,,,,up,0.29309499997179955,1,0,0,99,0.32,0.24,up,0.20303640002384782,,,,,,,,,,,,,,,,,,,,,,,,,,,,,,,,,,,,,,,,,,,,,,,,,,,,,,,,QD126R,train_y,red_square,bottom_left,2025-06-07_09h12.18.024,HideSeek_v1,2022.2.5,59.892827780655345,
,1,3,1,6,0,3,13,,train_dim1_1,7,30,,,,2,0,2,0,,,,,,,,,0,0,0,0,0,6,6,6,10,0,10,0,,,,,,,,,,,,,,,,,,,,,,,,,,,,,,,,,,,,,,,,,,,,,,,,,,,,,,,,,,,,,,,,30,,,,,,,,1602.4735056000063,1602.4735056000063,1602.4735056000063,1602.4735056000063,1602.4735056000063,,,,,right,0.29389529989566654,1,0,0,99,0.4,0.24,right,0.20961310004349798,,,,,,,,,,,,,,,,,,,,,,,,,,,,,,,,,,,,,,,,,,,,,,,,,,,,,,,,QD126R,train_y,red_square,bottom_left,2025-06-07_09h12.18.024,HideSeek_v1,2022.2.5,59.892827780655345,
,1,3,1,6,0,3,13,,train_dim1_1,7,30,,,,2,0,2,0,,,,,,,,,0,0,0,0,0,6,6,6,11,0,11,0,,,,,,,,,,,,,,,,,,,,,,,,,,,,,,,,,,,,,,,,,,,,,,,,,,,,,,,,,,,,,,,,30,,,,,,,,1602.7743265000172,1602.7743265000172,1602.7743265000172,1602.7743265000172,1602.7743265000172,,,,,up,0.29305700003169477,1,0,0,99,0.4,0.32,up,0.20058089995291084,,,,,,,,,,,,,,,,,,,,,,,,,,,,,,,,,,,,,,,,,,,,,,,,,,,,,,,,QD126R,train_y,red_square,bottom_left,2025-06-07_09h12.18.024,HideSeek_v1,2022.2.5,59.892827780655345,
,1,3,1,6,0,3,13,,train_dim1_1,7,30,,,,2,0,2,0,,,,,,,,,0,0,0,0,0,6,6,6,12,0,12,0,,,,,,,,,,,,,,,,,,,,,,,,,,,,,,,,,,,,,,,,,,,,,,,,,,,,,,,,,,,,,,,,30,,,,,,,,1603.0741597999586,1603.0741597999586,1603.0741597999586,1603.0741597999586,1603.0741597999586,,,,,right,0.2765635000541806,1,0,0,99,0.48000000000000004,0.32,right,0.18480849999468774,,,,,,,,,,,,,,,,,,,,,,,,,,,,,,,,,,,,,,,,,,,,,,,,,,,,,,,,QD126R,train_y,red_square,bottom_left,2025-06-07_09h12.18.024,HideSeek_v1,2022.2.5,59.892827780655345,
,1,3,1,6,0,3,13,,train_dim1_1,7,30,,,,2,0,2,0,,,,,,,,,0,0,0,0,0,6,6,6,13,0,13,0,,,,,,,,,,,,,,,,,,,,,,,,,,,,,,,,,,,,,,,,,,,,,,,,,,,,,,,,,,,,,,,,30,,,,,,,,1603.3579271000344,1603.3579271000344,1603.3579271000344,1603.3579271000344,1603.3579271000344,,,,,right,0.9937868000706658,1,0,0,99,0.56,0.32,right,0.916499299928546,,,,,,,,,,,,,,,,,,,,,,,,,,,,,,,,,,,,,,,,,,,,,,,,,,,,,,,,QD126R,train_y,red_square,bottom_left,2025-06-07_09h12.18.024,HideSeek_v1,2022.2.5,59.892827780655345,
,1,3,1,6,0,3,13,,train_dim1_1,7,30,,,,2,0,2,0,,,,,,,,,0,0,0,0,0,6,6,6,14,0,14,0,,,,,,,,,,,,,,,,,,,,,,,,,,,,,,,,,,,,,,,,,,,,,,,,,,,,,,,,,,,,,,,,30,,,,,,,,1604.357874599984,1604.357874599984,1604.357874599984,1604.357874599984,1604.357874599984,,,,,down,2.378505300031975,1,0,0,99,0.56,0.24,down,2.2877199000213295,,,,,,,,,,,,,,,,,,,,,,,,,,,,,,,,,,,,,,,,,,,,,,,,,,,,,,,,QD126R,train_y,red_square,bottom_left,2025-06-07_09h12.18.024,HideSeek_v1,2022.2.5,59.892827780655345,
,1,3,1,6,0,3,13,,train_dim1_1,7,30,,,,2,0,2,0,,,,,,,,,0,0,0,0,0,6,6,6,15,0,15,0,,,,,,,,,,,,,,,,,,,,,,,,,,,,,,,,,,,,,,,,,,,,,,,,,,,,,,,,,,,,,,,,30,,,,,,,,1606.7441652000416,1606.7441652000416,1606.7441652000416,1606.7441652000416,1606.7441652000416,,,,,left,0.24371629999950528,1,0,0,99,0.48000000000000004,0.24,left,0.16417319991160184,,,,,,,,,,,,,,,,,,,,,,,,,,,,,,,,,,,,,,,,,,,,,,,,,,,,,,,,QD126R,train_y,red_square,bottom_left,2025-06-07_09h12.18.024,HideSeek_v1,2022.2.5,59.892827780655345,
,1,3,1,6,0,3,13,,train_dim1_1,7,30,,,,2,0,2,0,,,,,,,,,0,0,0,0,0,6,6,6,16,0,16,0,,,,,,,,,,,,,,,,,,,,,,,,,,,,,,,,,,,,,,,,,,,,,,,,,,,,,,,,,,,,,,,,30,,,,,,,,1606.993747200002,1606.993747200002,1606.993747200002,1606.993747200002,1606.993747200002,,,,,down,0.27582099998835474,1,0,0,99,0.48000000000000004,0.15999999999999998,down,0.19886760006193072,,,,,,,,,,,,,,,,,,,,,,,,,,,,,,,,,,,,,,,,,,,,,,,,,,,,,,,,QD126R,train_y,red_square,bottom_left,2025-06-07_09h12.18.024,HideSeek_v1,2022.2.5,59.892827780655345,
,1,3,1,6,0,3,13,,train_dim1_1,7,30,,,,2,0,2,0,,,,,,,,,0,0,0,0,0,6,6,6,17,0,17,0,,,,,,,,,,,,,,,,,,,,,,,,,,,,,,,,,,,,,,,,,,,,,,,,,,,,,,,,,,,,,,,,30,,,,,,,,1607.2776793000521,1607.2776793000521,1607.2776793000521,1607.2776793000521,1607.2776793000521,,,,,left,0.20993820007424802,1,0,0,99,0.4,0.15999999999999998,left,0.125690900022164,,,,,,,,,,,,,,,,,,,,,,,,,,,,,,,,,,,,,,,,,,,,,,,,,,,,,,,,QD126R,train_y,red_square,bottom_left,2025-06-07_09h12.18.024,HideSeek_v1,2022.2.5,59.892827780655345,
,1,3,1,6,0,3,13,,train_dim1_1,7,30,,,,2,0,2,0,,,,,,,,,0,0,0,0,0,6,6,6,18,0,18,0,,,,,,,,,,,,,,,,,,,,,,,,,,,,,,,,,,,,,,,,,,,,,,,,,,,,,,,,,,,,,,,,30,,,,,,,,1607.4938444000436,1607.4938444000436,1607.4938444000436,1607.4938444000436,1607.4938444000436,,,,,down,0.1932208000216633,1,0,0,99,0.4,0.07999999999999997,down,0.10971240000799298,,,,,,,,,,,,,,,,,,,,,,,,,,,,,,,,,,,,,,,,,,,,,,,,,,,,,,,,QD126R,train_y,red_square,bottom_left,2025-06-07_09h12.18.024,HideSeek_v1,2022.2.5,59.892827780655345,
,1,3,1,6,0,3,13,,train_dim1_1,7,30,,,,2,0,2,0,,,,,,,,,0,0,0,0,0,6,6,6,19,0,19,0,,,,,,,,,,,,,,,,,,,,,,,,,,,,,,,,,,,,,,,,,,,,,,,,,,,,,,,,,,,,,,,,30,,,,,,,,1607.694543199963,1607.694543199963,1607.694543199963,1607.694543199963,1607.694543199963,,,,,left,0.20987400005105883,1,0,0,99,0.32,0.07999999999999997,left,0.12230769998859614,,,,,,,,,,,,,,,,,,,,,,,,,,,,,,,,,,,,,,,,,,,,,,,,,,,,,,,,QD126R,train_y,red_square,bottom_left,2025-06-07_09h12.18.024,HideSeek_v1,2022.2.5,59.892827780655345,
,1,3,1,6,0,3,13,,train_dim1_1,7,30,,,,2,0,2,0,,,,,,,,,0,0,0,0,0,6,6,6,20,0,20,0,,,,,,,,,,,,,,,,,,,,,,,,,,,,,,,,,,,,,,,,,,,,,,,,,,,,,,,,,,,,,,,,30,,,,,,,,1607.9116243999451,1607.9116243999451,1607.9116243999451,1607.9116243999451,1607.9116243999451,,,,,down,0.1598985999589786,1,0,0,99,0.32,-2.7755575615628914e-17,down,0.07370739988982677,,,,,,,,,,,,,,,,,,,,,,,,,,,,,,,,,,,,,,,,,,,,,,,,,,,,,,,,QD126R,train_y,red_square,bottom_left,2025-06-07_09h12.18.024,HideSeek_v1,2022.2.5,59.892827780655345,
,1,3,1,6,0,3,13,,train_dim1_1,7,30,,,,2,0,2,0,,,,,,,,,0,0,0,0,0,6,6,6,21,0,21,0,,,,,,,,,,,,,,,,,,,,,,,,,,,,,,,,,,,,,,,,,,,,,,,,,,,,,,,,,,,,,,,,30,,,,,,,,1608.0783006999409,1608.0783006999409,1608.0783006999409,1608.0783006999409,1608.0783006999409,,,,,left,0.14303819998167455,1,0,0,99,0.24,-2.7755575615628914e-17,left,0.06456219998653978,,,,,,,,,,,,,,,,,,,,,,,,,,,,,,,,,,,,,,,,,,,,,,,,,,,,,,,,QD126R,train_y,red_square,bottom_left,2025-06-07_09h12.18.024,HideSeek_v1,2022.2.5,59.892827780655345,
,1,3,1,6,0,3,13,,train_dim1_1,7,30,,,,2,0,2,0,,,,,,,,,0,0,0,0,0,6,6,6,22,0,22,0,,,,,,,,,,,,,,,,,,,,,,,,,,,,,,,,,,,,,,,,,,,,,,,,,,,,,,,,,,,,,,,,30,,,,,,,,1608.2291541999439,1608.2291541999439,1608.2291541999439,1608.2291541999439,1608.2291541999439,,,,,down,0.19286130007822067,1,0,0,99,0.24,-0.08000000000000003,down,0.10314970009494573,,,,,,,,,,,,,,,,,,,,,,,,,,,,,,,,,,,,,,,,,,,,,,,,,,,,,,,,QD126R,train_y,red_square,bottom_left,2025-06-07_09h12.18.024,HideSeek_v1,2022.2.5,59.892827780655345,
,1,3,1,6,0,3,13,,train_dim1_1,7,30,,,,2,0,2,0,,,,,,,,,0,0,0,0,0,6,6,6,23,0,23,0,,,,,,,,,,,,,,,,,,,,,,,,,,,,,,,,,,,,,,,,,,,,,,,,,,,,,,,,,,,,,,,,30,,,,,,,,1608.428486000048,1608.428486000048,1608.428486000048,1608.428486000048,1608.428486000048,,,,,left,0.1263710999628529,1,0,0,99,0.15999999999999998,-0.08000000000000003,left,0.03508269996382296,,,,,,,,,,,,,,,,,,,,,,,,,,,,,,,,,,,,,,,,,,,,,,,,,,,,,,,,QD126R,train_y,red_square,bottom_left,2025-06-07_09h12.18.024,HideSeek_v1,2022.2.5,59.892827780655345,
,1,3,1,6,0,3,13,,train_dim1_1,7,30,,,,2,0,2,0,,,,,,,,,0,0,0,0,0,6,6,6,24,0,24,0,,,,,,,,,,,,,,,,,,,,,,,,,,,,,,,,,,,,,,,,,,,,,,,,,,,,,,,,,,,,,,,,30,,,,,,,,1608.5612662000349,1608.5612662000349,1608.5612662000349,1608.5612662000349,1608.5612662000349,,,,,down,0.14335749996826053,1,0,0,99,0.15999999999999998,-0.16000000000000003,down,0.06757330009713769,,,,,,,,,,,,,,,,,,,,,,,,,,,,,,,,,,,,,,,,,,,,,,,,,,,,,,,,QD126R,train_y,red_square,bottom_left,2025-06-07_09h12.18.024,HideSeek_v1,2022.2.5,59.892827780655345,
,1,3,1,6,0,3,13,,train_dim1_1,7,30,,,,2,0,2,0,,,,,,,,,0,0,0,0,0,6,6,6,25,0,25,0,,,,,,,,,,,,,,,,,,,,,,,,,,,,,,,,,,,,,,,,,,,,,,,,,,,,,,,,,,,,,,,,30,,,,,,,,1608.712115500006,1608.712115500006,1608.712115500006,1608.712115500006,1608.712115500006,,,,,left,0.14308780001010746,1,0,0,99,0.07999999999999997,-0.16000000000000003,left,0.06604539998807013,,,,,,,,,,,,,,,,,,,,,,,,,,,,,,,,,,,,,,,,,,,,,,,,,,,,,,,,QD126R,train_y,red_square,bottom_left,2025-06-07_09h12.18.024,HideSeek_v1,2022.2.5,59.892827780655345,
,1,3,1,6,0,3,13,,train_dim1_1,7,30,,,,2,0,2,0,,,,,,,,,0,0,0,0,0,6,6,6,26,0,26,0,,,,,,,,,,,,,,,,,,,,,,,,,,,,,,,,,,,,,,,,,,,,,,,,,,,,,,,,,,,,,,,,30,,,,,,,,1608.8622160999803,1608.8622160999803,1608.8622160999803,1608.8622160999803,1608.8622160999803,,,,,down,0.1763727000216022,1,0,0,99,0.07999999999999997,-0.24000000000000005,down,0.08509529998991638,,,,,,,,,,,,,,,,,,,,,,,,,,,,,,,,,,,,,,,,,,,,,,,,,,,,,,,,QD126R,train_y,red_square,bottom_left,2025-06-07_09h12.18.024,HideSeek_v1,2022.2.5,59.892827780655345,
,1,3,1,6,0,3,13,,train_dim1_1,7,30,,,,2,0,2,0,,,,,,,,,0,0,0,0,0,6,6,6,27,0,27,0,,,,,,,,,,,,,,,,,,,,,,,,,,,,,,,,,,,,,,,,,,,,,,,,,,,,,,,,,,,,,,,,30,,,,,,,,1609.046006300021,1609.046006300021,1609.046006300021,1609.046006300021,1609.046006300021,,,,,left,0.6100368000334129,1,0,0,99,-2.7755575615628914e-17,-0.24000000000000005,left,0.5205117000732571,,,,,,,,,,,,,,,,,,,,,,,,,,,,,,,,,,,,,,,,,,,,,,,,,,,,,,,,QD126R,train_y,red_square,bottom_left,2025-06-07_09h12.18.024,HideSeek_v1,2022.2.5,59.892827780655345,
,1,3,1,6,0,3,13,,train_dim1_1,7,30,,,,2,0,2,0,,,,,,,,,0,0,0,0,0,6,6,6,28,0,28,0,,,,,,,,,,,,,,,,,,,,,,,,,,,,,,,,,,,,,,,,,,,,,,,,,,,,,,,,,,,,,,,,30,,,,,,,,1609.665429100045,1609.665429100045,1609.665429100045,1609.665429100045,1609.665429100045,,,,,up,1.0607541999779642,1,0,0,99,-2.7755575615628914e-17,-0.16000000000000003,up,0.9710931000299752,,,,,,,,,,,,,,,,,,,,,,,,,,,,,,,,,,,,,,,,,,,,,,,,,,,,,,,,QD126R,train_y,red_square,bottom_left,2025-06-07_09h12.18.024,HideSeek_v1,2022.2.5,59.892827780655345,
,1,3,1,6,0,3,13,,train_dim1_1,7,30,,,,2,0,2,0,,,,,,,,,0,0,0,0,0,6,6,6,29,0,29,0,,,,,,,,,,,,,,,,,,,,,,,,,,,,,,,,,,,,,,,,,,,,,,,,,,,,,,,,,,,,,,,,30,,,,,,,,1610.730877700029,1610.730877700029,1610.730877700029,1610.730877700029,1610.730877700029,,,,,up,0.6936022998997942,1,0,0,99,-2.7755575615628914e-17,-0.08000000000000003,up,0.603451699949801,,,,,,,,,,,,,,,,,,,,,,,,,,,,,,,,,,,,,,,,,,,,,,,,,,,,,,,,QD126R,train_y,red_square,bottom_left,2025-06-07_09h12.18.024,HideSeek_v1,2022.2.5,59.892827780655345,
,1,3,1,6,0,3,13,,train_dim1_1,7,30,,,,2,0,2,0,,,,,,,,,0,0,0,0,0,6,6,6,30,0,30,0,,,,,,,,,,,,,,,,,,,,,,,,,,,,,,,,,,,,,,,,,,,,,,,,,,,,,,,,,,,,,,,,30,,,,,,,,1611.4305141000077,1611.4305141000077,1611.4305141000077,1611.4305141000077,1611.4305141000077,,,,,right,0.4602302999701351,1,0,0,99,0.07999999999999997,-0.08000000000000003,right,0.3841241999762133,,,,,,,,,,,,,,,,,,,,,,,,,,,,,,,,,,,,,,,,,,,,,,,,,,,,,,,,QD126R,train_y,red_square,bottom_left,2025-06-07_09h12.18.024,HideSeek_v1,2022.2.5,59.892827780655345,
,1,3,1,6,0,3,13,,train_dim1_1,7,30,,,,2,0,2,0,,,,,,,,,0,0,0,0,0,6,6,6,31,0,31,0,,,,,,,,,,,,,,,,,,,,,,,,,,,,,,,,,,,,,,,,,,,,,,,,,,,,,,,,,,,,,,,,30,,,,,,,,1611.8982138000429,1611.8982138000429,1611.8982138000429,1611.8982138000429,1611.8982138000429,,,,,left,0.3598691000370309,1,0,0,99,-2.7755575615628914e-17,-0.08000000000000003,left,0.279824799974449,,,,,,,,,,,,,,,,,,,,,,,,,,,,,,,,,,,,,,,,,,,,,,,,,,,,,,,,QD126R,train_y,red_square,bottom_left,2025-06-07_09h12.18.024,HideSeek_v1,2022.2.5,59.892827780655345,
,1,3,1,6,0,3,13,,train_dim1_1,7,30,,,,2,0,2,0,,,,,,,,,0,0,0,0,0,6,6,6,32,0,32,0,,,,,,,,,,,,,,,,,,,,,,,,,,,,,,,,,,,,,,,,,,,,,,,,,,,,,,,,,,,,,,,,30,,,,,,,,1612.264824199956,1612.264824199956,1612.264824199956,1612.264824199956,1612.264824199956,,,,,left,0.27638140006456524,1,0,0,99,-0.08000000000000003,-0.08000000000000003,left,0.18873929989058524,,,,,,,,,,,,,,,,,,,,,,,,,,,,,,,,,,,,,,,,,,,,,,,,,,,,,,,,QD126R,train_y,red_square,bottom_left,2025-06-07_09h12.18.024,HideSeek_v1,2022.2.5,59.892827780655345,
,1,3,1,6,0,3,13,,train_dim1_1,7,30,,,,2,0,2,0,,,,,,,,,0,0,0,0,0,6,6,6,33,0,33,0,,,,,,,,,,,,,,,,,,,,,,,,,,,,,,,,,,,,,,,,,,,,,,,,,,,,,,,,,,,,,,,,30,,,,,,,,1612.5485257999972,1612.5485257999972,1612.5485257999972,1612.5485257999972,1612.5485257999972,,,,,up,0.37692389998119324,1,0,0,99,-0.08000000000000003,-2.7755575615628914e-17,up,0.2996893000090495,,,,,,,,,,,,,,,,,,,,,,,,,,,,,,,,,,,,,,,,,,,,,,,,,,,,,,,,QD126R,train_y,red_square,bottom_left,2025-06-07_09h12.18.024,HideSeek_v1,2022.2.5,59.892827780655345,
,1,3,1,6,0,3,13,,train_dim1_1,7,30,,,,2,0,2,0,,,,,,,,,0,0,0,0,0,6,6,6,34,0,34,0,,,,,,,,,,,,,,,,,,,,,,,,,,,,,,,,,,,,,,,,,,,,,,,,,,,,,,,,,,,,,,,,30,,,,,,,,1612.9330549000297,1612.9330549000297,1612.9330549000297,1612.9330549000297,1612.9330549000297,,,,,up,0.2931117999833077,1,0,0,99,-0.08000000000000003,0.07999999999999997,up,0.20709969999734312,,,,,,,,,,,,,,,,,,,,,,,,,,,,,,,,,,,,,,,,,,,,,,,,,,,,,,,,QD126R,train_y,red_square,bottom_left,2025-06-07_09h12.18.024,HideSeek_v1,2022.2.5,59.892827780655345,
,1,3,1,6,0,3,13,,train_dim1_1,7,30,,,,2,0,2,0,,,,,,,,,0,0,0,0,0,6,6,6,35,0,35,0,,,,,,,,,,,,,,,,,,,,,,,,,,,,,,,,,,,,,,,,,,,,,,,,,,,,,,,,,,,,,,,,30,,,,,,,,1613.2320454999572,1613.2320454999572,1613.2320454999572,1613.2320454999572,1613.2320454999572,,,,,up,0.4099247999256477,1,0,0,99,-0.08000000000000003,0.15999999999999998,up,0.3290806000586599,,,,,,,,,,,,,,,,,,,,,,,,,,,,,,,,,,,,,,,,,,,,,,,,,,,,,,,,QD126R,train_y,red_square,bottom_left,2025-06-07_09h12.18.024,HideSeek_v1,2022.2.5,59.892827780655345,
,1,3,1,6,0,3,13,,train_dim1_1,7,30,,,,2,0,2,0,,,,,,,,,0,0,0,0,0,6,6,6,36,0,36,0,,,,,,,,,,,,,,,,,,,,,,,,,,,,,,,,,,,,,,,,,,,,,,,,,,,,,,,,,,,,,,,,30,,,,,,,,1613.6510283999378,1613.6510283999378,1613.6510283999378,1613.6510283999378,1613.6510283999378,9,5,-0.08000000000000003,0.15999999999999998,return,0.7769453999353573,1,1,0,0,-0.08000000000000003,0.15999999999999998,return,0.6984034999040887,,,,,,,,,,,,,,,,,,,,,,,,,,,,,,,,,,,,,,,,,,,,,,,,,,,,,,,,QD126R,train_y,red_square,bottom_left,2025-06-07_09h12.18.024,HideSeek_v1,2022.2.5,59.892827780655345,
,4,2,4,7,0,5,11,,train_dim1_1,8,30,,,,2,0,2,0,,,,,,,,,0,0,0,0,0,7,7,7,0,0,0,0,,,,,,,,,,,,,,,,,,,,,,,,,stimuli/alien_stimuli/11.png,,,,,,,,,,,,,,,,,,,,,,,,,,,,,stimuli/alien_stimuli/13.png,13,1,9,,,,,,,30,,,,,,,,1621.7957159000216,1621.7957159000216,1621.7957159000216,1621.7957159000216,1621.7957159000216,9,5,0.16,-0.24,return,0.9029249999439344,1,0,0,0,0.16,-0.24,return,0.8198597999289632,1620.2379150999477,1621.7957159000216,-0.08,0.08,0.24,0.0,-0.04,-0.08,-0.08,-0.08,0.08,1616.0068604999688,1616.0068604999688,1616.0068604999688,1616.0068604999688,1616.0068604999688,1616.0068604999688,1616.0068604999688,1616.0068604999688,1616.001245520031,4.355513599934056,return,4.199048699927516,,,,,,,,,,,,,,,,,,,,,,,,,,,,,,,,,QD126R,train_y,red_square,bottom_left,2025-06-07_09h12.18.024,HideSeek_v1,2022.2.5,59.892827780655345,
,4,3,4,4,0,1,15,,train_dim1_1,9,30,,,,2,0,2,0,,,,,,,,,0,0,0,0,0,8,8,8,0,0,0,0,,,,,,,,,,,,,,,,,,,,,,,,,stimuli/alien_stimuli/15.png,,,,,,,,,,,,,,,,,,,,,,,,,,,,,stimuli/alien_stimuli/11.png,11,4,10,,,,,,,30,,,,,,,,1630.304365399992,1630.304365399992,1630.304365399992,1630.304365399992,1630.304365399992,,,,,up,0.8030831000069156,1,0,0,99,0.16,-0.08,up,0.7197737999958917,1628.7449480999494,1630.304365399992,0.16,0.16,0.4,0.0,-0.039999999999999994,0.16,0.16,0.16,0.16,1624.2808288000524,1624.2808288000524,1624.2808288000524,1624.2808288000524,1624.2808288000524,1624.2808288000524,1624.2808288000524,1624.2808288000524,1624.274707419984,4.58932329993695,return,4.443711700034328,,,,,,,,,,,,,,,,,,,,,,,,,,,,,,,,,QD126R,train_y,red_square,bottom_left,2025-06-07_09h12.18.024,HideSeek_v1,2022.2.5,59.892827780655345,
,4,3,4,4,0,1,15,,train_dim1_1,9,30,,,,2,0,2,0,,,,,,,,,0,0,0,0,0,8,8,8,1,0,1,0,,,,,,,,,,,,,,,,,,,,,,,,,,,,,,,,,,,,,,,,,,,,,,,,,,,,,,,,,,,,,,,,30,,,,,,,,1631.1139593999833,1631.1139593999833,1631.1139593999833,1631.1139593999833,1631.1139593999833,,,,,right,0.30908869998529553,1,0,0,99,0.24,-0.08,right,0.21824519999790937,,,,,,,,,,,,,,,,,,,,,,,,,,,,,,,,,,,,,,,,,,,,,,,,,,,,,,,,QD126R,train_y,red_square,bottom_left,2025-06-07_09h12.18.024,HideSeek_v1,2022.2.5,59.892827780655345,
,4,3,4,4,0,1,15,,train_dim1_1,9,30,,,,2,0,2,0,,,,,,,,,0,0,0,0,0,8,8,8,2,0,2,0,,,,,,,,,,,,,,,,,,,,,,,,,,,,,,,,,,,,,,,,,,,,,,,,,,,,,,,,,,,,,,,,30,,,,,,,,1631.4316959000425,1631.4316959000425,1631.4316959000425,1631.4316959000425,1631.4316959000425,,,,,up,0.31016710004769266,1,0,0,99,0.24,0.0,up,0.23091839998960495,,,,,,,,,,,,,,,,,,,,,,,,,,,,,,,,,,,,,,,,,,,,,,,,,,,,,,,,QD126R,train_y,red_square,bottom_left,2025-06-07_09h12.18.024,HideSeek_v1,2022.2.5,59.892827780655345,
,4,3,4,4,0,1,15,,train_dim1_1,9,30,,,,2,0,2,0,,,,,,,,,0,0,0,0,0,8,8,8,3,0,3,0,,,,,,,,,,,,,,,,,,,,,,,,,,,,,,,,,,,,,,,,,,,,,,,,,,,,,,,,,,,,,,,,30,,,,,,,,1631.7502929000184,1631.7502929000184,1631.7502929000184,1631.7502929000184,1631.7502929000184,,,,,right,0.27642250002827495,1,0,0,99,0.32,0.0,right,0.19654649996664375,,,,,,,,,,,,,,,,,,,,,,,,,,,,,,,,,,,,,,,,,,,,,,,,,,,,,,,,QD126R,train_y,red_square,bottom_left,2025-06-07_09h12.18.024,HideSeek_v1,2022.2.5,59.892827780655345,
,4,3,4,4,0,1,15,,train_dim1_1,9,30,,,,2,0,2,0,,,,,,,,,0,0,0,0,0,8,8,8,4,0,4,0,,,,,,,,,,,,,,,,,,,,,,,,,,,,,,,,,,,,,,,,,,,,,,,,,,,,,,,,,,,,,,,,30,,,,,,,,1632.0331076999428,1632.0331076999428,1632.0331076999428,1632.0331076999428,1632.0331076999428,,,,,up,0.31020449998322874,1,0,0,99,0.32,0.08,up,0.23132489994168282,,,,,,,,,,,,,,,,,,,,,,,,,,,,,,,,,,,,,,,,,,,,,,,,,,,,,,,,QD126R,train_y,red_square,bottom_left,2025-06-07_09h12.18.024,HideSeek_v1,2022.2.5,59.892827780655345,
,4,3,4,4,0,1,15,,train_dim1_1,9,30,,,,2,0,2,0,,,,,,,,,0,0,0,0,0,8,8,8,5,0,5,0,,,,,,,,,,,,,,,,,,,,,,,,,,,,,,,,,,,,,,,,,,,,,,,,,,,,,,,,,,,,,,,,30,,,,,,,,1632.348265000037,1632.348265000037,1632.348265000037,1632.348265000037,1632.348265000037,,,,,left,0.6432027000701055,1,0,0,99,0.24,0.08,left,0.5663562000263482,,,,,,,,,,,,,,,,,,,,,,,,,,,,,,,,,,,,,,,,,,,,,,,,,,,,,,,,QD126R,train_y,red_square,bottom_left,2025-06-07_09h12.18.024,HideSeek_v1,2022.2.5,59.892827780655345,
,4,3,4,4,0,1,15,,train_dim1_1,9,30,,,,2,0,2,0,,,,,,,,,0,0,0,0,0,8,8,8,6,0,6,0,,,,,,,,,,,,,,,,,,,,,,,,,,,,,,,,,,,,,,,,,,,,,,,,,,,,,,,,,,,,,,,,30,,,,,,,,1632.9973980999785,1632.9973980999785,1632.9973980999785,1632.9973980999785,1632.9973980999785,,,,,left,0.37673080002423376,1,0,0,99,0.15999999999999998,0.08,left,0.30065400002058595,,,,,,,,,,,,,,,,,,,,,,,,,,,,,,,,,,,,,,,,,,,,,,,,,,,,,,,,QD126R,train_y,red_square,bottom_left,2025-06-07_09h12.18.024,HideSeek_v1,2022.2.5,59.892827780655345,
,4,3,4,4,0,1,15,,train_dim1_1,9,30,,,,2,0,2,0,,,,,,,,,0,0,0,0,0,8,8,8,7,0,7,0,,,,,,,,,,,,,,,,,,,,,,,,,,,,,,,,,,,,,,,,,,,,,,,,,,,,,,,,,,,,,,,,30,,,,,,,,1633.3811829000479,1633.3811829000479,1633.3811829000479,1633.3811829000479,1633.3811829000479,,,,,down,1.67779459990561,1,0,0,99,0.15999999999999998,0.0,down,1.5979828999843448,,,,,,,,,,,,,,,,,,,,,,,,,,,,,,,,,,,,,,,,,,,,,,,,,,,,,,,,QD126R,train_y,red_square,bottom_left,2025-06-07_09h12.18.024,HideSeek_v1,2022.2.5,59.892827780655345,
,4,3,4,4,0,1,15,,train_dim1_1,9,30,,,,2,0,2,0,,,,,,,,,0,0,0,0,0,8,8,8,8,0,8,0,,,,,,,,,,,,,,,,,,,,,,,,,,,,,,,,,,,,,,,,,,,,,,,,,,,,,,,,,,,,,,,,30,,,,,,,,1635.0679581000004,1635.0679581000004,1635.0679581000004,1635.0679581000004,1635.0679581000004,,,,,down,0.27640560001600534,1,0,0,99,0.15999999999999998,-0.08,down,0.19742420001421124,,,,,,,,,,,,,,,,,,,,,,,,,,,,,,,,,,,,,,,,,,,,,,,,,,,,,,,,QD126R,train_y,red_square,bottom_left,2025-06-07_09h12.18.024,HideSeek_v1,2022.2.5,59.892827780655345,
,4,3,4,4,0,1,15,,train_dim1_1,9,30,,,,2,0,2,0,,,,,,,,,0,0,0,0,0,8,8,8,9,0,9,0,,,,,,,,,,,,,,,,,,,,,,,,,,,,,,,,,,,,,,,,,,,,,,,,,,,,,,,,,,,,,,,,30,,,,,,,,1635.350830600015,1635.350830600015,1635.350830600015,1635.350830600015,1635.350830600015,,,,,down,0.3430038000224158,1,0,0,99,0.15999999999999998,-0.16,down,0.26150629995390773,,,,,,,,,,,,,,,,,,,,,,,,,,,,,,,,,,,,,,,,,,,,,,,,,,,,,,,,QD126R,train_y,red_square,bottom_left,2025-06-07_09h12.18.024,HideSeek_v1,2022.2.5,59.892827780655345,
,4,3,4,4,0,1,15,,train_dim1_1,9,30,,,,2,0,2,0,,,,,,,,,0,0,0,0,0,8,8,8,10,0,10,0,,,,,,,,,,,,,,,,,,,,,,,,,,,,,,,,,,,,,,,,,,,,,,,,,,,,,,,,,,,,,,,,30,,,,,,,,1635.6998039999744,1635.6998039999744,1635.6998039999744,1635.6998039999744,1635.6998039999744,,,,,up,0.9772062000120059,1,0,0,99,0.15999999999999998,-0.08,up,0.8944921999936923,,,,,,,,,,,,,,,,,,,,,,,,,,,,,,,,,,,,,,,,,,,,,,,,,,,,,,,,QD126R,train_y,red_square,bottom_left,2025-06-07_09h12.18.024,HideSeek_v1,2022.2.5,59.892827780655345,
,4,3,4,4,0,1,15,,train_dim1_1,9,30,,,,2,0,2,0,,,,,,,,,0,0,0,0,0,8,8,8,11,0,11,0,,,,,,,,,,,,,,,,,,,,,,,,,,,,,,,,,,,,,,,,,,,,,,,,,,,,,,,,,,,,,,,,30,,,,,,,,1636.6857717999956,1636.6857717999956,1636.6857717999956,1636.6857717999956,1636.6857717999956,10,5,0.15999999999999998,-0.08,return,0.8772542000515386,2,0,0,1,0.15999999999999998,-0.08,return,0.7972643000539392,,,,,,,,,,,,,,,,,,,,,,,,,,,,,,,,,,,,,,,,,,,,,,,,,,,,,,,,QD126R,train_y,red_square,bottom_left,2025-06-07_09h12.18.024,HideSeek_v1,2022.2.5,59.892827780655345,
