trialInstr,x_fixStart,y_fixStart,x_corrSteps,y_corrSteps,x_nrSteps,y_nrSteps,alienID,trialLength,version,trialTrain,praclen,testlen,trial_label,break_on_off,beforeExpLoop.thisRepN,beforeExpLoop.thisTrialN,beforeExpLoop.thisN,beforeExpLoop.thisIndex,mini_instr_trials.thisRepN,mini_instr_trials.thisTrialN,mini_instr_trials.thisN,mini_instr_trials.thisIndex,instrLoop.thisRepN,instrLoop.thisTrialN,instrLoop.thisN,instrLoop.thisIndex,repeat_prac.thisRepN,repeat_prac.thisTrialN,repeat_prac.thisN,repeat_prac.thisIndex,trainLoop.thisRepN,trainLoop.thisTrialN,trainLoop.thisN,trainLoop.thisIndex,moveLoop_train.thisRepN,moveLoop_train.thisTrialN,moveLoop_train.thisN,moveLoop_train.thisIndex,experiment.thisRepN,experiment.thisTrialN,experiment.thisN,experiment.thisIndex,moveLoop_test.thisRepN,moveLoop_test.thisTrialN,moveLoop_test.thisN,moveLoop_test.thisIndex,mini_instr2_trials.thisRepN,mini_instr2_trials.thisTrialN,mini_instr2_trials.thisN,mini_instr2_trials.thisIndex,start_all_time,url,slideStim,audioStim,slides.started,sounds.started,nextButton.numClicks,nextButton.timesOn,nextButton.timesOff,prev_but.numClicks,prev_but.timesOn,prev_but.timesOff,alienStim,instrFile,alienStim_instr,gridImage_instr.started,startPos_3.started,key_instr.started,alienImage_3.started,sounds_1.started,key_instr.keys,key_instr.rt,all_x,all_y,FBy_corrSteps,FBy_fixStart,FBx_corrSteps,FBx_fixStart,FBy_pathSize_check,FBx_pathSize_check,gridImage_9.started,alienImageFB_3.started,startPosFB_3.started,keyFB_3.started,pathLine_ydir_2.started,pathLine_xdir_2.started,alienFace_3.started,sounds_2.started,RTFB_instr,keyFB_3.keys,keyFB_3.rt,draw_alienStim,draw_alienID,test_x,nrepcount,perfthres,percthres,earlierperf,earlystop,nextPrac,fileidx,praclen,saveACC_train,pracFile,nextPrac_train,addNrep,fileidx_endr,repExp,showearly,gridImage_4.started,startPos.started,movePos.started,key_resp.started,alienImage.started,buttonPress_train,RTchoice_train,cumAcctrain,aCorr,saveACC_choice,corrAns,x_movePos_end,y_movePos_end,key_resp.keys,key_resp.rt,wLy_dir,wLx_dir,x_movePos,y_movePos,text_2.started,text_2.stopped,aft_x_corrPos,aft_y_corrPos,y_pathSize_check,x_pathSize_check,y_pathdirY,x_pathdirY,x_pathdirX,x_corrPos,y_corrPos,gridImage_6.started,alienImageFB_2.started,startPosFB_2.started,movePosFB_2.started,keyFB_2.started,pathLine_xdir.started,pathLine_ydir.started,alienFace.started,sounds_4.started,RT_FBtrain,keyFB_2.keys,keyFB_2.rt,saveACC_pre,ACC,within_saveACC_train,earlystop_wloop,cumAcctrain_check,gridImage_3.started,alienImage_test.started,startPos_test.started,movePos_test.started,key_resp_test.started,wLy_dir_test,wLx_dir_test,buttonPress_test,RTchoice_test,cumAcctest,corrAns_test,key_resp_test.keys,key_resp_test.rt,fixation_text.started,fixation_text.stopped,total_time,end_all_time,key_resp_3.keys,slides_2.started,sounds_3.started,nextButton_2.numClicks,nextButton_2.timesOn,nextButton_2.timesOff,prev_but_2.numClicks,prev_but_2.timesOn,prev_but_2.timesOff,bye.started,participant,train_first,00_coordinate,starting corner,date,expName,psychopyVersion,frameRate,
,,,,,,,,,,,,,,,0,0,0,0,0,0,0,0,,,,,,,,,,,,,,,,,,,,,,,,,,,,,start_all_time,testround,conditions/schedules/train_x_first/blue_star_00/top_left/instructions/Slide1.png,conditions/schedules/train_x_first/blue_star_00/top_left/instructions/Audio1.wav,586.3849504999816,586.334700157959,1,[16.037624799879268],[16.037634099833667],0,,,,,,,,,,,,,,,,,,,,,,,,,,,,,,,,,,,,,,,,,,,,,,,,,,,,,,,,,,,,,,,,,,,,,,,,,,,,,,,,,,,,,,,,,,,,,,,,,,,,,,,,,,,,,,,,,,,,,,,,,,,,QHJMDE,train_x,blue_star,top_left,2024-12-04_16h04.25.775,HideSeek_v1,2022.2.5,59.654694746818,
,,,,,,,,,,,,,,,0,0,0,0,1,0,1,0,,,,,,,,,,,,,,,,,,,,,,,,,,,,,,,conditions/schedules/train_x_first/blue_star_00/top_left/instructions/Slide2.png,conditions/schedules/train_x_first/blue_star_00/top_left/instructions/Audio2.wav,602.4484588999767,602.4404452000745,2,"[16.037624799879268, 18.40480099990964]","[16.037634099833667, 18.404807599959895]",0,,,,,,,,,,,,,,,,,,,,,,,,,,,,,,,,,,,,,,,,,,,,,,,,,,,,,,,,,,,,,,,,,,,,,,,,,,,,,,,,,,,,,,,,,,,,,,,,,,,,,,,,,,,,,,,,,,,,,,,,,,,,QHJMDE,train_x,blue_star,top_left,2024-12-04_16h04.25.775,HideSeek_v1,2022.2.5,59.654694746818,
,,,,,,,,,,,,,,,0,0,0,0,2,0,2,0,,,,,,,,,,,,,,,,,,,,,,,,,,,,,,,conditions/schedules/train_x_first/blue_star_00/top_left/instructions/Slide3.png,conditions/schedules/train_x_first/blue_star_00/top_left/instructions/Audio3.wav,620.9243122001644,620.922549800016,3,"[16.037624799879268, 18.40480099990964, 17.81092489999719]","[16.037634099833667, 0.00021039997227489948, 17.8109311000444]",0,,,,,,,,,,,,,,,,,,,,,,,,,,,,,,,,,,,,,,,,,,,,,,,,,,,,,,,,,,,,,,,,,,,,,,,,,,,,,,,,,,,,,,,,,,,,,,,,,,,,,,,,,,,,,,,,,,,,,,,,,,,,QHJMDE,train_x,blue_star,top_left,2024-12-04_16h04.25.775,HideSeek_v1,2022.2.5,59.654694746818,
,,,,,,,,,,,,,,,0,0,0,0,3,0,3,0,,,,,,,,,,,,,,,,,,,,,,,,,,,,,,,conditions/schedules/train_x_first/blue_star_00/top_left/instructions/Slide4.png,conditions/schedules/train_x_first/blue_star_00/top_left/instructions/Audio4.wav,638.8141889001708,638.8043599000666,4,"[16.037624799879268, 18.40480099990964, 17.81092489999719, 20.68813409982249]","[16.037634099833667, 0.00021039997227489948, 17.8109311000444, 20.688140499871224]",0,,,,,,,,,,,,,,,,,,,,,,,,,,,,,,,,,,,,,,,,,,,,,,,,,,,,,,,,,,,,,,,,,,,,,,,,,,,,,,,,,,,,,,,,,,,,,,,,,,,,,,,,,,,,,,,,,,,,,,,,,,,,QHJMDE,train_x,blue_star,top_left,2024-12-04_16h04.25.775,HideSeek_v1,2022.2.5,59.654694746818,
,,,,,,,,,,,,,,,0,0,0,0,4,0,4,0,,,,,,,,,,,,,,,,,,,,,,,,,,,,,,,conditions/schedules/train_x_first/blue_star_00/top_left/instructions/Slide5.png,conditions/schedules/train_x_first/blue_star_00/top_left/instructions/Audio5.wav,659.566047700122,659.554283840023,5,"[16.037624799879268, 18.40480099990964, 17.81092489999719, 20.68813409982249, 5.589989699888974]","[16.037634099833667, 0.00021039997227489948, 17.8109311000444, 20.688140499871224, 5.5899974999483675]",0,,,,,,,,,,,,,,,,,,,,,,,,,,,,,,,,,,,,,,,,,,,,,,,,,,,,,,,,,,,,,,,,,,,,,,,,,,,,,,,,,,,,,,,,,,,,,,,,,,,,,,,,,,,,,,,,,,,,,,,,,,,,QHJMDE,train_x,blue_star,top_left,2024-12-04_16h04.25.775,HideSeek_v1,2022.2.5,59.654694746818,
,,,,,,,,,,,,,,,0,0,0,0,5,0,5,0,,,,,,,,,,,,,,,,,,,,,,,,,,,,,,,conditions/schedules/train_x_first/blue_star_00/top_left/instructions/Slide6.png,conditions/schedules/train_x_first/blue_star_00/top_left/instructions/Audio6.wav,665.2085504001006,665.2089150400367,6,"[16.037624799879268, 18.40480099990964, 17.81092489999719, 20.68813409982249, 5.589989699888974, 4.918157000094652]","[16.037634099833667, 0.00021039997227489948, 17.8109311000444, 20.688140499871224, 0.00021840003319084644, 4.918163800146431]",0,,,,,,,,,,,,,,,,,,,,,,,,,,,,,,,,,,,,,,,,,,,,,,,,,,,,,,,,,,,,,,,,,,,,,,,,,,,,,,,,,,,,,,,,,,,,,,,,,,,,,,,,,,,,,,,,,,,,,,,,,,,,QHJMDE,train_x,blue_star,top_left,2024-12-04_16h04.25.775,HideSeek_v1,2022.2.5,59.654694746818,
,,,,,,,,,,,,,,,0,0,0,0,6,0,6,0,,,,,,,,,,,,,,,,,,,,,,,,,,,,,,,conditions/schedules/train_x_first/blue_star_00/top_left/instructions/Slide7.png,conditions/schedules/train_x_first/blue_star_00/top_left/instructions/Audio7.wav,670.1809364000801,670.1797098400071,7,"[16.037624799879268, 18.40480099990964, 17.81092489999719, 20.68813409982249, 5.589989699888974, 4.918157000094652, 5.800937600200996]","[16.037634099833667, 0.00021039997227489948, 17.8109311000444, 20.688140499871224, 0.00021840003319084644, 0.0626199000980705, 5.800945100141689]",0,,,,,,,,,,,,,,,,,,,,,,,,,,,,,,,,,,,,,,,,,,,,,,,,,,,,,,,,,,,,,,,,,,,,,,,,,,,,,,,,,,,,,,,,,,,,,,,,,,,,,,,,,,,,,,,,,,,,,,,,,,,,QHJMDE,train_x,blue_star,top_left,2024-12-04_16h04.25.775,HideSeek_v1,2022.2.5,59.654694746818,
,,,,,,,,,,,,,,,0,0,0,0,7,0,7,0,,,,,,,,,,,,,,,,,,,,,,,,,,,,,,,conditions/schedules/train_x_first/blue_star_00/top_left/instructions/Slide8.png,conditions/schedules/train_x_first/blue_star_00/top_left/instructions/Audio8.wav,676.0389197000768,676.0350088401698,8,"[16.037624799879268, 18.40480099990964, 17.81092489999719, 20.68813409982249, 5.589989699888974, 4.918157000094652, 5.800937600200996, 12.15280899987556]","[16.037634099833667, 0.00021039997227489948, 17.8109311000444, 20.688140499871224, 0.00021840003319084644, 0.0626199000980705, 0.02979619987308979, 12.152815699810162]",0,,,,,,,,,,,,,,,,,,,,,,,,,,,,,,,,,,,,,,,,,,,,,,,,,,,,,,,,,,,,,,,,,,,,,,,,,,,,,,,,,,,,,,,,,,,,,,,,,,,,,,,,,,,,,,,,,,,,,,,,,,,,QHJMDE,train_x,blue_star,top_left,2024-12-04_16h04.25.775,HideSeek_v1,2022.2.5,59.654694746818,
,,,,,,,,,,,,,,,0,0,0,0,8,0,8,0,,,,,,,,,,,,,,,,,,,,,,,,,,,,,,,conditions/schedules/train_x_first/blue_star_00/top_left/instructions/Slide9.png,conditions/schedules/train_x_first/blue_star_00/top_left/instructions/Audio9.wav,688.2579457000829,688.2447038401384,9,"[16.037624799879268, 18.40480099990964, 17.81092489999719, 20.68813409982249, 5.589989699888974, 4.918157000094652, 5.800937600200996, 12.15280899987556, 6.3394599999301136]","[16.037634099833667, 0.00021039997227489948, 17.8109311000444, 20.688140499871224, 0.00021840003319084644, 0.0626199000980705, 0.02979619987308979, 0.05095100007019937, 6.339466799981892]",0,,,,,,,,,,,,,,,,,,,,,,,,,,,,,,,,,,,,,,,,,,,,,,,,,,,,,,,,,,,,,,,,,,,,,,,,,,,,,,,,,,,,,,,,,,,,,,,,,,,,,,,,,,,,,,,,,,,,,,,,,,,,QHJMDE,train_x,blue_star,top_left,2024-12-04_16h04.25.775,HideSeek_v1,2022.2.5,59.654694746818,
,,,,,,,,,,,,,,,0,0,0,0,9,0,9,0,,,,,,,,,,,,,,,,,,,,,,,,,,,,,,,conditions/schedules/train_x_first/blue_star_00/top_left/instructions/Slide10.png,conditions/schedules/train_x_first/blue_star_00/top_left/instructions/Audio10.wav,694.6343033001758,694.6334499801043,10,"[16.037624799879268, 18.40480099990964, 17.81092489999719, 20.68813409982249, 5.589989699888974, 4.918157000094652, 5.800937600200996, 12.15280899987556, 6.3394599999301136, 7.9859702999237925]","[16.037634099833667, 0.00021039997227489948, 17.8109311000444, 20.688140499871224, 0.00021840003319084644, 0.0626199000980705, 0.02979619987308979, 0.05095100007019937, 0.046451699919998646, 7.98597739986144]",0,,,,,,,,,,,,,,,,,,,,,,,,,,,,,,,,,,,,,,,,,,,,,,,,,,,,,,,,,,,,,,,,,,,,,,,,,,,,,,,,,,,,,,,,,,,,,,,,,,,,,,,,,,,,,,,,,,,,,,,,,,,,QHJMDE,train_x,blue_star,top_left,2024-12-04_16h04.25.775,HideSeek_v1,2022.2.5,59.654694746818,
,,,,,,,,,,,,,,,0,0,0,0,10,0,10,0,,,,,,,,,,,,,,,,,,,,,,,,,,,,,,,conditions/schedules/train_x_first/blue_star_00/top_left/instructions/Slide11.png,conditions/schedules/train_x_first/blue_star_00/top_left/instructions/Audio11.wav,702.6918152000289,702.6902845001314,11,"[16.037624799879268, 18.40480099990964, 17.81092489999719, 20.68813409982249, 5.589989699888974, 4.918157000094652, 5.800937600200996, 12.15280899987556, 6.3394599999301136, 7.9859702999237925, 10.804567500017583]","[16.037634099833667, 0.00021039997227489948, 17.8109311000444, 20.688140499871224, 0.00021840003319084644, 0.0626199000980705, 0.02979619987308979, 0.05095100007019937, 0.046451699919998646, 7.98597739986144, 10.804573999950662]",0,,,,,,,,,,,,,,,,,,,,,,,,,,,,,,,,,,,,,,,,,,,,,,,,,,,,,,,,,,,,,,,,,,,,,,,,,,,,,,,,,,,,,,,,,,,,,,,,,,,,,,,,,,,,,,,,,,,,,,,,,,,,QHJMDE,train_x,blue_star,top_left,2024-12-04_16h04.25.775,HideSeek_v1,2022.2.5,59.654694746818,
,,,,,,,,,,,,,,,0,0,0,0,11,0,11,0,,,,,,,,,,,,,,,,,,,,,,,,,,,,,,,conditions/schedules/train_x_first/blue_star_00/top_left/instructions/Slide12.png,conditions/schedules/train_x_first/blue_star_00/top_left/instructions/Audio12.wav,713.5724367999937,713.5659449000377,12,"[16.037624799879268, 18.40480099990964, 17.81092489999719, 20.68813409982249, 5.589989699888974, 4.918157000094652, 5.800937600200996, 12.15280899987556, 6.3394599999301136, 7.9859702999237925, 10.804567500017583, 13.05079250014387]","[16.037634099833667, 0.00021039997227489948, 17.8109311000444, 20.688140499871224, 0.00021840003319084644, 0.0626199000980705, 0.02979619987308979, 0.05095100007019937, 0.046451699919998646, 7.98597739986144, 10.804573999950662, 13.050800000084564]",0,,,,,,,,,,,,,,,,,,,,,,,,,,,,,,,,,,,,,,,,,,,,,,,,,,,,,,,,,,,,,,,,,,,,,,,,,,,,,,,,,,,,,,,,,,,,,,,,,,,,,,,,,,,,,,,,,,,,,,,,,,,,QHJMDE,train_x,blue_star,top_left,2024-12-04_16h04.25.775,HideSeek_v1,2022.2.5,59.654694746818,
1,4,5,9,5,5,0,11,2,instr_dim1_1,,,,,,0,0,0,0,,,,,0,0,0,0,,,,,,,,,,,,,,,,,,,,,,,,,,,,,,,,,,,,,stimuli/alien_stimuli/11.png,conditions/schedules/train_x_first/blue_star_00/top_left/inputInstr_1.xlsx,stimuli/alien_stimuli/11.png,726.7374857000541,726.7374857000541,726.7374857000541,726.7374857000541,726.7266941200476,return,26.875686599873006,"[-0.16, -0.08, 0, 0.08, 0.16, 0.24, 0.32, 0.4, 0.48, 0.56]","[-0.4, -0.32, -0.24, -0.16, -0.08, 0, 0.08, 0.16, 0.24, 0.32]",5,5,9,4,0.0,0.4,753.793353700079,753.793353700079,753.793353700079,753.793353700079,753.793353700079,753.793353700079,753.793353700079,753.7830555001274,12.578129600035027,return,12.39487829990685,stimuli/alien_stimuli/11.png,11,4,1,,,,,,,,,,,,,,,,,,,,,,,,,,,,,,,,,,,,,,,,,,,,,,,,,,,,,,,,,,,,,,,,,,,,,,,,,,,,,,,,,,,,,,,,,QHJMDE,train_x,blue_star,top_left,2024-12-04_16h04.25.775,HideSeek_v1,2022.2.5,59.654694746818,
,,,,,,,,,,,30,,,,0,0,0,0,,,,,,,,,,,,,,,,,,,,,,,,,,,,,,,,,,,,,,,,,,,,,,,,,,,,,,,,,,,,,,,,,,,,,,,,,,,,,,21,0.7,0,0,99,1,30,0,conditions/schedules/train_x_first/blue_star_00/top_left/inputTrain_1.1.xlsx,99,1,1,1,0,,,,,,,,,,,,,,,,,,,,,,,,,,,,,,,,,,,,,,,,,,,,,,,,,,,,,,,,,,,,,,,,,,,,,,,,,,,QHJMDE,train_x,blue_star,top_left,2024-12-04_16h04.25.775,HideSeek_v1,2022.2.5,59.654694746818,
,,,,,,,,,,,,,,,1,0,1,0,0,0,0,0,,,,,,,,,,,,,,,,,,,,,,,,,,,,,,,conditions/schedules/train_x_first/blue_star_00/top_left/instructions/Slide13.png,conditions/schedules/train_x_first/blue_star_00/top_left/instructions/Audio13.wav,766.3598096000496,766.360377700068,13,"[16.037624799879268, 18.40480099990964, 17.81092489999719, 20.68813409982249, 5.589989699888974, 4.918157000094652, 5.800937600200996, 12.15280899987556, 6.3394599999301136, 7.9859702999237925, 10.804567500017583, 13.05079250014387, 18.04651749995537]","[16.037634099833667, 0.00021039997227489948, 17.8109311000444, 20.688140499871224, 0.00021840003319084644, 0.0626199000980705, 0.02979619987308979, 0.05095100007019937, 0.046451699919998646, 7.98597739986144, 10.804573999950662, 13.050800000084564, 18.046525199897587]",0,,,,,,,,,,,,,,,,,,,,,,,,,,,,,,,,,,,,,,,,,,,,,,,,,,,,,,,,,,,,,,,,,,,,,,,,,,,,,,,,,,,,,,,,,,,,,,,,,,,,,,,,,,,,,,,,,,,,,,,,,,,,QHJMDE,train_x,blue_star,top_left,2024-12-04_16h04.25.775,HideSeek_v1,2022.2.5,59.654694746818,
,,,,,,,,,,,,,,,1,0,1,0,1,0,1,0,,,,,,,,,,,,,,,,,,,,,,,,,,,,,,,conditions/schedules/train_x_first/blue_star_00/top_left/instructions/Slide14.png,conditions/schedules/train_x_first/blue_star_00/top_left/instructions/Audio14.wav,784.479477400193,784.4752110999543,14,"[16.037624799879268, 18.40480099990964, 17.81092489999719, 20.68813409982249, 5.589989699888974, 4.918157000094652, 5.800937600200996, 12.15280899987556, 6.3394599999301136, 7.9859702999237925, 10.804567500017583, 13.05079250014387, 18.04651749995537, 14.505240099970251]","[16.037634099833667, 0.00021039997227489948, 17.8109311000444, 20.688140499871224, 0.00021840003319084644, 0.0626199000980705, 0.02979619987308979, 0.05095100007019937, 0.046451699919998646, 7.98597739986144, 10.804573999950662, 13.050800000084564, 0.03014599997550249, 14.505246999906376]",0,,,,,,,,,,,,,,,,,,,,,,,,,,,,,,,,,,,,,,,,,,,,,,,,,,,,,,,,,,,,,,,,,,,,,,,,,,,,,,,,,,,,,,,,,,,,,,,,,,,,,,,,,,,,,,,,,,,,,,,,,,,,QHJMDE,train_x,blue_star,top_left,2024-12-04_16h04.25.775,HideSeek_v1,2022.2.5,59.654694746818,
2,3,7,3,7,0,0,61,2,instr_dim1_1,,,,,,1,0,1,0,,,,,0,0,0,0,,,,,,,,,,,,,,,,,,,,,,,,,,,,,,,,,,,,,stimuli/alien_stimuli/61.png,conditions/schedules/train_x_first/blue_star_00/top_left/inputInstr_1.xlsx,stimuli/alien_stimuli/61.png,799.0926090001594,799.0926090001594,799.0926090001594,799.0926090001594,799.0873540199361,return,8.424383899895474,"[-0.16, -0.08, 0, 0.08, 0.16, 0.24, 0.32, 0.4, 0.48, 0.56]","[-0.4, -0.32, -0.24, -0.16, -0.08, 0, 0.08, 0.16, 0.24, 0.32]",7,7,3,3,0.0,0.0,807.6830331000965,807.6830331000965,807.6830331000965,807.6830331000965,807.6830331000965,807.6830331000965,807.6830331000965,807.6611613799352,16.44815229997039,return,16.281845499994233,stimuli/alien_stimuli/61.png,61,3,2,,,,,,,,,,,,,,,,,,,,,,,,,,,,,,,,,,,,,,,,,,,,,,,,,,,,,,,,,,,,,,,,,,,,,,,,,,,,,,,,,,,,,,,,,QHJMDE,train_x,blue_star,top_left,2024-12-04_16h04.25.775,HideSeek_v1,2022.2.5,59.654694746818,
,,,,,,,,,,,30,,,,1,0,1,0,,,,,,,,,,,,,,,,,,,,,,,,,,,,,,,,,,,,,,,,,,,,,,,,,,,,,,,,,,,,,,,,,,,,,,,,,,,,,,21,0.7,0,0,99,1,30,0,conditions/schedules/train_x_first/blue_star_00/top_left/inputTrain_1.1.xlsx,99,1,1,1,0,,,,,,,,,,,,,,,,,,,,,,,,,,,,,,,,,,,,,,,,,,,,,,,,,,,,,,,,,,,,,,,,,,,,,,,,,,,QHJMDE,train_x,blue_star,top_left,2024-12-04_16h04.25.775,HideSeek_v1,2022.2.5,59.654694746818,
,,,,,,,,,,,,,,,2,0,2,0,0,0,0,0,,,,,,,,,,,,,,,,,,,,,,,,,,,,,,,conditions/schedules/train_x_first/blue_star_00/top_left/instructions/Slide15.png,conditions/schedules/train_x_first/blue_star_00/top_left/instructions/Audio15.wav,824.143737600185,824.1418000999838,15,"[16.037624799879268, 18.40480099990964, 17.81092489999719, 20.68813409982249, 5.589989699888974, 4.918157000094652, 5.800937600200996, 12.15280899987556, 6.3394599999301136, 7.9859702999237925, 10.804567500017583, 13.05079250014387, 18.04651749995537, 14.505240099970251, 31.221090300008655]","[16.037634099833667, 0.00021039997227489948, 17.8109311000444, 20.688140499871224, 0.00021840003319084644, 0.0626199000980705, 0.02979619987308979, 0.05095100007019937, 0.046451699919998646, 7.98597739986144, 10.804573999950662, 13.050800000084564, 0.03014599997550249, 14.505246999906376, 31.221097600180656]",0,,,,,,,,,,,,,,,,,,,,,,,,,,,,,,,,,,,,,,,,,,,,,,,,,,,,,,,,,,,,,,,,,,,,,,,,,,,,,,,,,,,,,,,,,,,,,,,,,,,,,,,,,,,,,,,,,,,,,,,,,,,,QHJMDE,train_x,blue_star,top_left,2024-12-04_16h04.25.775,HideSeek_v1,2022.2.5,59.654694746818,
,,,,,,,,,,,,,,,2,0,2,0,1,0,1,0,,,,,,,,,,,,,,,,,,,,,,,,,,,,,,,conditions/schedules/train_x_first/blue_star_00/top_left/instructions/Slide16.png,conditions/schedules/train_x_first/blue_star_00/top_left/instructions/Audio16.wav,855.4393697001506,855.4341236001346,16,"[16.037624799879268, 18.40480099990964, 17.81092489999719, 20.68813409982249, 5.589989699888974, 4.918157000094652, 5.800937600200996, 12.15280899987556, 6.3394599999301136, 7.9859702999237925, 10.804567500017583, 13.05079250014387, 18.04651749995537, 14.505240099970251, 31.221090300008655, 22.043910200009122]","[16.037634099833667, 0.00021039997227489948, 17.8109311000444, 20.688140499871224, 0.00021840003319084644, 0.0626199000980705, 0.02979619987308979, 0.05095100007019937, 0.046451699919998646, 7.98597739986144, 10.804573999950662, 13.050800000084564, 0.03014599997550249, 14.505246999906376, 31.221097600180656, 22.043916600057855]",0,,,,,,,,,,,,,,,,,,,,,,,,,,,,,,,,,,,,,,,,,,,,,,,,,,,,,,,,,,,,,,,,,,,,,,,,,,,,,,,,,,,,,,,,,,,,,,,,,,,,,,,,,,,,,,,,,,,,,,,,,,,,QHJMDE,train_x,blue_star,top_left,2024-12-04_16h04.25.775,HideSeek_v1,2022.2.5,59.654694746818,
,2,6,5,6,3,0,31,,train_dim1_1,1,30,,,,2,0,2,0,,,,,,,,,0,0,0,0,0,0,0,0,0,0,0,0,,,,,,,,,,,,,,,,,,,,,,,,,stimuli/alien_stimuli/31.png,,,,,,,,,,,,,,,,,,,,,,,,,,,,,,,,,,,,,,,30,,,,,,,,877.5846286001615,877.5846286001615,877.5846286001615,877.5846286001615,877.5846286001615,right,16.024512900039554,0,0,0,99,0.08,0.08,right,15.920496699865907,,,,,,,,,,,,,,,,,,,,,,,,,,,,,,,,,,,,,,,,,,,,,,,,,,,,,,,,,,,,QHJMDE,train_x,blue_star,top_left,2024-12-04_16h04.25.775,HideSeek_v1,2022.2.5,59.654694746818,
,2,6,5,6,3,0,31,,train_dim1_1,1,30,,,,2,0,2,0,,,,,,,,,0,0,0,0,0,0,0,0,1,0,1,0,,,,,,,,,,,,,,,,,,,,,,,,,,,,,,,,,,,,,,,,,,,,,,,,,,,,,,,,,,,,,,,,30,,,,,,,,893.6110217000823,893.6110217000823,893.6110217000823,893.6110217000823,893.6110217000823,down,3.8792230000253767,0,0,0,99,0.08,0.0,down,3.787397400010377,,,,,,,,,,,,,,,,,,,,,,,,,,,,,,,,,,,,,,,,,,,,,,,,,,,,,,,,,,,,QHJMDE,train_x,blue_star,top_left,2024-12-04_16h04.25.775,HideSeek_v1,2022.2.5,59.654694746818,
,2,6,5,6,3,0,31,,train_dim1_1,1,30,,,,2,0,2,0,,,,,,,,,0,0,0,0,0,0,0,0,2,0,2,0,,,,,,,,,,,,,,,,,,,,,,,,,,,,,,,,,,,,,,,,,,,,,,,,,,,,,,,,,,,,,,,,30,,,,,,,,897.4863529000431,897.4863529000431,897.4863529000431,897.4863529000431,897.4863529000431,down,1.3105701999738812,0,0,0,99,0.08,-0.08,down,1.2284719999879599,,,,,,,,,,,,,,,,,,,,,,,,,,,,,,,,,,,,,,,,,,,,,,,,,,,,,,,,,,,,QHJMDE,train_x,blue_star,top_left,2024-12-04_16h04.25.775,HideSeek_v1,2022.2.5,59.654694746818,
,2,6,5,6,3,0,31,,train_dim1_1,1,30,,,,2,0,2,0,,,,,,,,,0,0,0,0,0,0,0,0,3,0,3,0,,,,,,,,,,,,,,,,,,,,,,,,,,,,,,,,,,,,,,,,,,,,,,,,,,,,,,,,,,,,,,,,30,,,,,,,,898.800683000125,898.800683000125,898.800683000125,898.800683000125,898.800683000125,right,1.7274056000169367,0,0,0,99,0.16,-0.08,right,1.65434499992989,,,,,,,,,,,,,,,,,,,,,,,,,,,,,,,,,,,,,,,,,,,,,,,,,,,,,,,,,,,,QHJMDE,train_x,blue_star,top_left,2024-12-04_16h04.25.775,HideSeek_v1,2022.2.5,59.654694746818,
,2,6,5,6,3,0,31,,train_dim1_1,1,30,,,,2,0,2,0,,,,,,,,,0,0,0,0,0,0,0,0,4,0,4,0,,,,,,,,,,,,,,,,,,,,,,,,,,,,,,,,,,,,,,,,,,,,,,,,,,,,,,,,,,,,,,,,30,,,,,,,,900.5364098001737,900.5364098001737,900.5364098001737,900.5364098001737,900.5364098001737,right,1.0271316999569535,0,0,0,99,0.24,-0.08,right,0.9404248998034745,,,,,,,,,,,,,,,,,,,,,,,,,,,,,,,,,,,,,,,,,,,,,,,,,,,,,,,,,,,,QHJMDE,train_x,blue_star,top_left,2024-12-04_16h04.25.775,HideSeek_v1,2022.2.5,59.654694746818,
,2,6,5,6,3,0,31,,train_dim1_1,1,30,,,,2,0,2,0,,,,,,,,,0,0,0,0,0,0,0,0,5,0,5,0,,,,,,,,,,,,,,,,,,,,,,,,,,,,,,,,,,,,,,,,,,,,,,,,,,,,,,,,,,,,,,,,30,,,,,,,,901.5843041001353,901.5843041001353,901.5843041001353,901.5843041001353,901.5843041001353,up,3.7460789000615478,0,0,0,99,0.24,0.0,up,3.6500693999696523,,,,,,,,,,,,,,,,,,,,,,,,,,,,,,,,,,,,,,,,,,,,,,,,,,,,,,,,,,,,QHJMDE,train_x,blue_star,top_left,2024-12-04_16h04.25.775,HideSeek_v1,2022.2.5,59.654694746818,
,2,6,5,6,3,0,31,,train_dim1_1,1,30,,,,2,0,2,0,,,,,,,,,0,0,0,0,0,0,0,0,6,0,6,0,,,,,,,,,,,,,,,,,,,,,,,,,,,,,,,,,,,,,,,,,,,,,,,,,,,,,,,,,,,,,,,,30,,,,,,,,905.3224389001261,905.3224389001261,905.3224389001261,905.3224389001261,905.3224389001261,up,0.7768818000331521,0,0,0,99,0.24,0.08,up,0.6926275999285281,,,,,,,,,,,,,,,,,,,,,,,,,,,,,,,,,,,,,,,,,,,,,,,,,,,,,,,,,,,,QHJMDE,train_x,blue_star,top_left,2024-12-04_16h04.25.775,HideSeek_v1,2022.2.5,59.654694746818,
,2,6,5,6,3,0,31,,train_dim1_1,1,30,,,,2,0,2,0,,,,,,,,,0,0,0,0,0,0,0,0,7,0,7,0,,,,,,,,,,,,,,,,,,,,,,,,,,,,,,,,,,,,,,,,,,,,,,,,,,,,,,,,,,,,,,,,30,,,,,,,,906.108857100131,906.108857100131,906.108857100131,906.108857100131,906.108857100131,up,0.9772954001091421,0,0,0,99,0.24,0.16,up,0.8937809998169541,,,,,,,,,,,,,,,,,,,,,,,,,,,,,,,,,,,,,,,,,,,,,,,,,,,,,,,,,,,,QHJMDE,train_x,blue_star,top_left,2024-12-04_16h04.25.775,HideSeek_v1,2022.2.5,59.654694746818,
,2,6,5,6,3,0,31,,train_dim1_1,1,30,,,,2,0,2,0,,,,,,,,,0,0,0,0,0,0,0,0,8,0,8,0,,,,,,,,,,,,,,,,,,,,,,,,,,,,,,,,,,,,,,,,,,,,,,,,,,,,,,,,,,,,,,,,30,,,,,,,,907.0906832001638,907.0906832001638,907.0906832001638,907.0906832001638,907.0906832001638,up,0.8268182000610977,0,0,0,99,0.24,0.24,up,0.7385394999291748,,,,,,,,,,,,,,,,,,,,,,,,,,,,,,,,,,,,,,,,,,,,,,,,,,,,,,,,,,,,QHJMDE,train_x,blue_star,top_left,2024-12-04_16h04.25.775,HideSeek_v1,2022.2.5,59.654694746818,
,2,6,5,6,3,0,31,,train_dim1_1,1,30,,,,2,0,2,0,,,,,,,,,0,0,0,0,0,0,0,0,9,0,9,0,,,,,,,,,,,,,,,,,,,,,,,,,,,,,,,,,,,,,,,,,,,,,,,,,,,,,,,,,,,,,,,,30,,,,,,,,907.9247049000114,907.9247049000114,907.9247049000114,907.9247049000114,907.9247049000114,right,1.5608784998767078,0,0,0,99,0.32,0.24,right,1.479722399963066,,,,,,,,,,,,,,,,,,,,,,,,,,,,,,,,,,,,,,,,,,,,,,,,,,,,,,,,,,,,QHJMDE,train_x,blue_star,top_left,2024-12-04_16h04.25.775,HideSeek_v1,2022.2.5,59.654694746818,
,2,6,5,6,3,0,31,,train_dim1_1,1,30,,,,2,0,2,0,,,,,,,,,0,0,0,0,0,0,0,0,10,0,10,0,,,,,,,,,,,,,,,,,,,,,,,,,,,,,,,,,,,,,,,,,,,,,,,,,,,,,,,,,,,,,,,,30,,,,,,,,909.5072588000912,909.5072588000912,909.5072588000912,909.5072588000912,909.5072588000912,right,0.8604258000850677,0,0,0,99,0.4,0.24,right,0.7589657998178154,,,,,,,,,,,,,,,,,,,,,,,,,,,,,,,,,,,,,,,,,,,,,,,,,,,,,,,,,,,,QHJMDE,train_x,blue_star,top_left,2024-12-04_16h04.25.775,HideSeek_v1,2022.2.5,59.654694746818,
,2,6,5,6,3,0,31,,train_dim1_1,1,30,,,,2,0,2,0,,,,,,,,,0,0,0,0,0,0,0,0,11,0,11,0,,,,,,,,,,,,,,,,,,,,,,,,,,,,,,,,,,,,,,,,,,,,,,,,,,,,,,,,,,,,,,,,30,,,,,,,,910.362750899978,910.362750899978,910.362750899978,910.362750899978,910.362750899978,return,1.2441250998526812,0,0,0,0,0.4,0.24,return,1.1625300000887364,2,5,0.4,0.24,,,,,,,,,,,,,,,,,,,,,,,,,,,,,,,,,,,,,,,,,,,,,,,,,,,,,,,,QHJMDE,train_x,blue_star,top_left,2024-12-04_16h04.25.775,HideSeek_v1,2022.2.5,59.654694746818,
,2,9,7,9,5,0,11,,train_dim1_1,2,30,,,,2,0,2,0,,,,,,,,,0,0,0,0,0,1,1,1,0,0,0,0,,,,,,,,,,,,,,,,,,,,,,,,,stimuli/alien_stimuli/11.png,,,,,,,,,,,,,,,,,,,,,,,,,,,,,stimuli/alien_stimuli/31.png,31,2,3,,,,,,,30,,,,,,,,935.4237029000651,935.4237029000651,935.4237029000651,935.4237029000651,935.4237029000651,right,5.607972700148821,0,0,0,99,0.08,0.32,right,5.485884499968961,,,,,933.8325150001328,935.4237029000651,0.24,0.08,0.0,0.24,0.08,0.24,0.12,0.24,0.08,913.1808675001375,913.1808675001375,913.1808675001375,913.1808675001375,913.1808675001375,913.1808675001375,913.1808675001375,913.1808675001375,913.1653870199341,20.76967620011419,return,20.623396900016814,,,,,,,,,,,,,,,,,,,,,,,,,,,,,,,,,QHJMDE,train_x,blue_star,top_left,2024-12-04_16h04.25.775,HideSeek_v1,2022.2.5,59.654694746818,
,2,9,7,9,5,0,11,,train_dim1_1,2,30,,,,2,0,2,0,,,,,,,,,0,0,0,0,0,1,1,1,1,0,1,0,,,,,,,,,,,,,,,,,,,,,,,,,,,,,,,,,,,,,,,,,,,,,,,,,,,,,,,,,,,,,,,,30,,,,,,,,941.0090674001258,941.0090674001258,941.0090674001258,941.0090674001258,941.0090674001258,down,2.511359800118953,0,0,0,99,0.08,0.24,down,2.42622679984197,,,,,,,,,,,,,,,,,,,,,,,,,,,,,,,,,,,,,,,,,,,,,,,,,,,,,,,,,,,,QHJMDE,train_x,blue_star,top_left,2024-12-04_16h04.25.775,HideSeek_v1,2022.2.5,59.654694746818,
,2,9,7,9,5,0,11,,train_dim1_1,2,30,,,,2,0,2,0,,,,,,,,,0,0,0,0,0,1,1,1,2,0,2,0,,,,,,,,,,,,,,,,,,,,,,,,,,,,,,,,,,,,,,,,,,,,,,,,,,,,,,,,,,,,,,,,30,,,,,,,,943.5274332000408,943.5274332000408,943.5274332000408,943.5274332000408,943.5274332000408,down,0.710123399971053,0,0,0,99,0.08,0.15999999999999998,down,0.6222228999249637,,,,,,,,,,,,,,,,,,,,,,,,,,,,,,,,,,,,,,,,,,,,,,,,,,,,,,,,,,,,QHJMDE,train_x,blue_star,top_left,2024-12-04_16h04.25.775,HideSeek_v1,2022.2.5,59.654694746818,
,2,9,7,9,5,0,11,,train_dim1_1,2,30,,,,2,0,2,0,,,,,,,,,0,0,0,0,0,1,1,1,3,0,3,0,,,,,,,,,,,,,,,,,,,,,,,,,,,,,,,,,,,,,,,,,,,,,,,,,,,,,,,,,,,,,,,,30,,,,,,,,944.2437962000258,944.2437962000258,944.2437962000258,944.2437962000258,944.2437962000258,down,0.5930707999505103,0,0,0,99,0.08,0.07999999999999997,down,0.5140275000594556,,,,,,,,,,,,,,,,,,,,,,,,,,,,,,,,,,,,,,,,,,,,,,,,,,,,,,,,,,,,QHJMDE,train_x,blue_star,top_left,2024-12-04_16h04.25.775,HideSeek_v1,2022.2.5,59.654694746818,
,2,9,7,9,5,0,11,,train_dim1_1,2,30,,,,2,0,2,0,,,,,,,,,0,0,0,0,0,1,1,1,4,0,4,0,,,,,,,,,,,,,,,,,,,,,,,,,,,,,,,,,,,,,,,,,,,,,,,,,,,,,,,,,,,,,,,,30,,,,,,,,944.8448046999983,944.8448046999983,944.8448046999983,944.8448046999983,944.8448046999983,left,1.4606972001492977,0,0,0,99,0.0,0.07999999999999997,left,1.3696046997793019,,,,,,,,,,,,,,,,,,,,,,,,,,,,,,,,,,,,,,,,,,,,,,,,,,,,,,,,,,,,QHJMDE,train_x,blue_star,top_left,2024-12-04_16h04.25.775,HideSeek_v1,2022.2.5,59.654694746818,
,2,9,7,9,5,0,11,,train_dim1_1,2,30,,,,2,0,2,0,,,,,,,,,0,0,0,0,0,1,1,1,5,0,5,0,,,,,,,,,,,,,,,,,,,,,,,,,,,,,,,,,,,,,,,,,,,,,,,,,,,,,,,,,,,,,,,,30,,,,,,,,946.311851200182,946.311851200182,946.311851200182,946.311851200182,946.311851200182,right,1.4271855999249965,0,0,0,99,0.08,0.07999999999999997,right,1.3405797998420894,,,,,,,,,,,,,,,,,,,,,,,,,,,,,,,,,,,,,,,,,,,,,,,,,,,,,,,,,,,,QHJMDE,train_x,blue_star,top_left,2024-12-04_16h04.25.775,HideSeek_v1,2022.2.5,59.654694746818,
,2,9,7,9,5,0,11,,train_dim1_1,2,30,,,,2,0,2,0,,,,,,,,,0,0,0,0,0,1,1,1,6,0,6,0,,,,,,,,,,,,,,,,,,,,,,,,,,,,,,,,,,,,,,,,,,,,,,,,,,,,,,,,,,,,,,,,30,,,,,,,,947.74587910017,947.74587910017,947.74587910017,947.74587910017,947.74587910017,right,1.743775200098753,0,0,0,99,0.16,0.07999999999999997,right,1.659596199868247,,,,,,,,,,,,,,,,,,,,,,,,,,,,,,,,,,,,,,,,,,,,,,,,,,,,,,,,,,,,QHJMDE,train_x,blue_star,top_left,2024-12-04_16h04.25.775,HideSeek_v1,2022.2.5,59.654694746818,
,2,9,7,9,5,0,11,,train_dim1_1,2,30,,,,2,0,2,0,,,,,,,,,0,0,0,0,0,1,1,1,7,0,7,0,,,,,,,,,,,,,,,,,,,,,,,,,,,,,,,,,,,,,,,,,,,,,,,,,,,,,,,,,,,,,,,,30,,,,,,,,949.4970089001581,949.4970089001581,949.4970089001581,949.4970089001581,949.4970089001581,left,8.984015500172973,0,0,0,99,0.08,0.07999999999999997,left,8.905427699908614,,,,,,,,,,,,,,,,,,,,,,,,,,,,,,,,,,,,,,,,,,,,,,,,,,,,,,,,,,,,QHJMDE,train_x,blue_star,top_left,2024-12-04_16h04.25.775,HideSeek_v1,2022.2.5,59.654694746818,
,2,9,7,9,5,0,11,,train_dim1_1,2,30,,,,2,0,2,0,,,,,,,,,0,0,0,0,0,1,1,1,8,0,8,0,,,,,,,,,,,,,,,,,,,,,,,,,,,,,,,,,,,,,,,,,,,,,,,,,,,,,,,,,,,,,,,,30,,,,,,,,958.5035443000961,958.5035443000961,958.5035443000961,958.5035443000961,958.5035443000961,left,0.3760226001031697,0,0,0,99,0.0,0.07999999999999997,left,0.2807440999895334,,,,,,,,,,,,,,,,,,,,,,,,,,,,,,,,,,,,,,,,,,,,,,,,,,,,,,,,,,,,QHJMDE,train_x,blue_star,top_left,2024-12-04_16h04.25.775,HideSeek_v1,2022.2.5,59.654694746818,
,2,9,7,9,5,0,11,,train_dim1_1,2,30,,,,2,0,2,0,,,,,,,,,0,0,0,0,0,1,1,1,9,0,9,0,,,,,,,,,,,,,,,,,,,,,,,,,,,,,,,,,,,,,,,,,,,,,,,,,,,,,,,,,,,,,,,,30,,,,,,,,958.8725682999939,958.8725682999939,958.8725682999939,958.8725682999939,958.8725682999939,right,3.245545399840921,0,0,0,99,0.08,0.07999999999999997,right,3.1616661997977644,,,,,,,,,,,,,,,,,,,,,,,,,,,,,,,,,,,,,,,,,,,,,,,,,,,,,,,,,,,,QHJMDE,train_x,blue_star,top_left,2024-12-04_16h04.25.775,HideSeek_v1,2022.2.5,59.654694746818,
,2,9,7,9,5,0,11,,train_dim1_1,2,30,,,,2,0,2,0,,,,,,,,,0,0,0,0,0,1,1,1,10,0,10,0,,,,,,,,,,,,,,,,,,,,,,,,,,,,,,,,,,,,,,,,,,,,,,,,,,,,,,,,,,,,,,,,30,,,,,,,,962.1239102000836,962.1239102000836,962.1239102000836,962.1239102000836,962.1239102000836,right,0.37622050009667873,0,0,0,99,0.16,0.07999999999999997,right,0.28362609981559217,,,,,,,,,,,,,,,,,,,,,,,,,,,,,,,,,,,,,,,,,,,,,,,,,,,,,,,,,,,,QHJMDE,train_x,blue_star,top_left,2024-12-04_16h04.25.775,HideSeek_v1,2022.2.5,59.654694746818,
,2,9,7,9,5,0,11,,train_dim1_1,2,30,,,,2,0,2,0,,,,,,,,,0,0,0,0,0,1,1,1,11,0,11,0,,,,,,,,,,,,,,,,,,,,,,,,,,,,,,,,,,,,,,,,,,,,,,,,,,,,,,,,,,,,,,,,30,,,,,,,,962.5080091999844,962.5080091999844,962.5080091999844,962.5080091999844,962.5080091999844,up,0.6269687998574227,0,0,0,99,0.16,0.15999999999999998,up,0.5447688999120146,,,,,,,,,,,,,,,,,,,,,,,,,,,,,,,,,,,,,,,,,,,,,,,,,,,,,,,,,,,,QHJMDE,train_x,blue_star,top_left,2024-12-04_16h04.25.775,HideSeek_v1,2022.2.5,59.654694746818,
,2,9,7,9,5,0,11,,train_dim1_1,2,30,,,,2,0,2,0,,,,,,,,,0,0,0,0,0,1,1,1,12,0,12,0,,,,,,,,,,,,,,,,,,,,,,,,,,,,,,,,,,,,,,,,,,,,,,,,,,,,,,,,,,,,,,,,30,,,,,,,,963.1438496001065,963.1438496001065,963.1438496001065,963.1438496001065,963.1438496001065,up,0.45952869998291135,0,0,0,99,0.16,0.24,up,0.3697806999552995,,,,,,,,,,,,,,,,,,,,,,,,,,,,,,,,,,,,,,,,,,,,,,,,,,,,,,,,,,,,QHJMDE,train_x,blue_star,top_left,2024-12-04_16h04.25.775,HideSeek_v1,2022.2.5,59.654694746818,
,2,9,7,9,5,0,11,,train_dim1_1,2,30,,,,2,0,2,0,,,,,,,,,0,0,0,0,0,1,1,1,13,0,13,0,,,,,,,,,,,,,,,,,,,,,,,,,,,,,,,,,,,,,,,,,,,,,,,,,,,,,,,,,,,,,,,,30,,,,,,,,963.608667800203,963.608667800203,963.608667800203,963.608667800203,963.608667800203,up,0.4930675998330116,0,0,0,99,0.16,0.32,up,0.4133849998470396,,,,,,,,,,,,,,,,,,,,,,,,,,,,,,,,,,,,,,,,,,,,,,,,,,,,,,,,,,,,QHJMDE,train_x,blue_star,top_left,2024-12-04_16h04.25.775,HideSeek_v1,2022.2.5,59.654694746818,
,2,9,7,9,5,0,11,,train_dim1_1,2,30,,,,2,0,2,0,,,,,,,,,0,0,0,0,0,1,1,1,14,0,14,0,,,,,,,,,,,,,,,,,,,,,,,,,,,,,,,,,,,,,,,,,,,,,,,,,,,,,,,,,,,,,,,,30,,,,,,,,964.1102742000949,964.1102742000949,964.1102742000949,964.1102742000949,964.1102742000949,return,1.594186200061813,0,0,0,0,0.16,0.32,return,1.5046361996792257,2,7,0.16,0.32,,,,,,,,,,,,,,,,,,,,,,,,,,,,,,,,,,,,,,,,,,,,,,,,,,,,,,,,QHJMDE,train_x,blue_star,top_left,2024-12-04_16h04.25.775,HideSeek_v1,2022.2.5,59.654694746818,
,4,9,8,9,4,0,21,,train_dim1_1,3,30,,,,2,0,2,0,,,,,,,,,0,0,0,0,0,2,2,2,0,0,0,0,,,,,,,,,,,,,,,,,,,,,,,,,stimuli/alien_stimuli/21.png,,,,,,,,,,,,,,,,,,,,,,,,,,,,,stimuli/alien_stimuli/11.png,11,2,4,,,,,,,30,,,,,,,,976.2004366000183,976.2004366000183,976.2004366000183,976.2004366000183,976.2004366000183,left,5.241156000178307,0,0,0,99,0.08,0.32,left,5.15405789995566,,,,,974.6329743000679,976.2004366000183,0.4,0.32,0.0,0.4,0.32,0.4,0.2,0.4,0.32,967.299250600161,967.299250600161,967.299250600161,967.299250600161,967.299250600161,967.299250600161,967.299250600161,967.299250600161,967.277323680045,7.47435240005143,return,7.312508899718523,,,,,,,,,,,,,,,,,,,,,,,,,,,,,,,,,QHJMDE,train_x,blue_star,top_left,2024-12-04_16h04.25.775,HideSeek_v1,2022.2.5,59.654694746818,
,4,9,8,9,4,0,21,,train_dim1_1,3,30,,,,2,0,2,0,,,,,,,,,0,0,0,0,0,2,2,2,1,0,1,0,,,,,,,,,,,,,,,,,,,,,,,,,,,,,,,,,,,,,,,,,,,,,,,,,,,,,,,,,,,,,,,,30,,,,,,,,981.4428604000714,981.4428604000714,981.4428604000714,981.4428604000714,981.4428604000714,left,1.0767500998917967,0,0,0,99,0.0,0.32,left,0.987333299824968,,,,,,,,,,,,,,,,,,,,,,,,,,,,,,,,,,,,,,,,,,,,,,,,,,,,,,,,,,,,QHJMDE,train_x,blue_star,top_left,2024-12-04_16h04.25.775,HideSeek_v1,2022.2.5,59.654694746818,
,4,9,8,9,4,0,21,,train_dim1_1,3,30,,,,2,0,2,0,,,,,,,,,0,0,0,0,0,2,2,2,2,0,2,0,,,,,,,,,,,,,,,,,,,,,,,,,,,,,,,,,,,,,,,,,,,,,,,,,,,,,,,,,,,,,,,,30,,,,,,,,982.5234150001779,982.5234150001779,982.5234150001779,982.5234150001779,982.5234150001779,down,1.4610800999216735,0,0,0,99,0.0,0.24,down,1.3788556000217795,,,,,,,,,,,,,,,,,,,,,,,,,,,,,,,,,,,,,,,,,,,,,,,,,,,,,,,,,,,,QHJMDE,train_x,blue_star,top_left,2024-12-04_16h04.25.775,HideSeek_v1,2022.2.5,59.654694746818,
,4,9,8,9,4,0,21,,train_dim1_1,3,30,,,,2,0,2,0,,,,,,,,,0,0,0,0,0,2,2,2,3,0,3,0,,,,,,,,,,,,,,,,,,,,,,,,,,,,,,,,,,,,,,,,,,,,,,,,,,,,,,,,,,,,,,,,30,,,,,,,,983.9911977001466,983.9911977001466,983.9911977001466,983.9911977001466,983.9911977001466,down,0.49353979993611574,0,0,0,99,0.0,0.15999999999999998,down,0.40831649978645146,,,,,,,,,,,,,,,,,,,,,,,,,,,,,,,,,,,,,,,,,,,,,,,,,,,,,,,,,,,,QHJMDE,train_x,blue_star,top_left,2024-12-04_16h04.25.775,HideSeek_v1,2022.2.5,59.654694746818,
,4,9,8,9,4,0,21,,train_dim1_1,3,30,,,,2,0,2,0,,,,,,,,,0,0,0,0,0,2,2,2,4,0,4,0,,,,,,,,,,,,,,,,,,,,,,,,,,,,,,,,,,,,,,,,,,,,,,,,,,,,,,,,,,,,,,,,30,,,,,,,,984.494023000123,984.494023000123,984.494023000123,984.494023000123,984.494023000123,down,0.45999110001139343,0,0,0,99,0.0,0.07999999999999997,down,0.3740484998561442,,,,,,,,,,,,,,,,,,,,,,,,,,,,,,,,,,,,,,,,,,,,,,,,,,,,,,,,,,,,QHJMDE,train_x,blue_star,top_left,2024-12-04_16h04.25.775,HideSeek_v1,2022.2.5,59.654694746818,
,4,9,8,9,4,0,21,,train_dim1_1,3,30,,,,2,0,2,0,,,,,,,,,0,0,0,0,0,2,2,2,5,0,5,0,,,,,,,,,,,,,,,,,,,,,,,,,,,,,,,,,,,,,,,,,,,,,,,,,,,,,,,,,,,,,,,,30,,,,,,,,984.9592511001974,984.9592511001974,984.9592511001974,984.9592511001974,984.9592511001974,down,0.6596800000406802,0,0,0,99,0.0,-2.7755575615628914e-17,down,0.5708529998082668,,,,,,,,,,,,,,,,,,,,,,,,,,,,,,,,,,,,,,,,,,,,,,,,,,,,,,,,,,,,QHJMDE,train_x,blue_star,top_left,2024-12-04_16h04.25.775,HideSeek_v1,2022.2.5,59.654694746818,
,4,9,8,9,4,0,21,,train_dim1_1,3,30,,,,2,0,2,0,,,,,,,,,0,0,0,0,0,2,2,2,6,0,6,0,,,,,,,,,,,,,,,,,,,,,,,,,,,,,,,,,,,,,,,,,,,,,,,,,,,,,,,,,,,,,,,,30,,,,,,,,985.6280158001464,985.6280158001464,985.6280158001464,985.6280158001464,985.6280158001464,right,0.6935833999887109,0,0,0,99,0.08,-2.7755575615628914e-17,right,0.6024907999671996,,,,,,,,,,,,,,,,,,,,,,,,,,,,,,,,,,,,,,,,,,,,,,,,,,,,,,,,,,,,QHJMDE,train_x,blue_star,top_left,2024-12-04_16h04.25.775,HideSeek_v1,2022.2.5,59.654694746818,
,4,9,8,9,4,0,21,,train_dim1_1,3,30,,,,2,0,2,0,,,,,,,,,0,0,0,0,0,2,2,2,7,0,7,0,,,,,,,,,,,,,,,,,,,,,,,,,,,,,,,,,,,,,,,,,,,,,,,,,,,,,,,,,,,,,,,,30,,,,,,,,986.3285823999904,986.3285823999904,986.3285823999904,986.3285823999904,986.3285823999904,right,0.8436424999963492,0,0,0,99,0.16,-2.7755575615628914e-17,right,0.7638792998623103,,,,,,,,,,,,,,,,,,,,,,,,,,,,,,,,,,,,,,,,,,,,,,,,,,,,,,,,,,,,QHJMDE,train_x,blue_star,top_left,2024-12-04_16h04.25.775,HideSeek_v1,2022.2.5,59.654694746818,
,4,9,8,9,4,0,21,,train_dim1_1,3,30,,,,2,0,2,0,,,,,,,,,0,0,0,0,0,2,2,2,8,0,8,0,,,,,,,,,,,,,,,,,,,,,,,,,,,,,,,,,,,,,,,,,,,,,,,,,,,,,,,,,,,,,,,,30,,,,,,,,987.177776100114,987.177776100114,987.177776100114,987.177776100114,987.177776100114,up,2.461301099974662,0,0,0,99,0.16,0.07999999999999997,up,2.3738908998202533,,,,,,,,,,,,,,,,,,,,,,,,,,,,,,,,,,,,,,,,,,,,,,,,,,,,,,,,,,,,QHJMDE,train_x,blue_star,top_left,2024-12-04_16h04.25.775,HideSeek_v1,2022.2.5,59.654694746818,
,4,9,8,9,4,0,21,,train_dim1_1,3,30,,,,2,0,2,0,,,,,,,,,0,0,0,0,0,2,2,2,9,0,9,0,,,,,,,,,,,,,,,,,,,,,,,,,,,,,,,,,,,,,,,,,,,,,,,,,,,,,,,,,,,,,,,,30,,,,,,,,989.6470409000758,989.6470409000758,989.6470409000758,989.6470409000758,989.6470409000758,return,0.8604003000073135,0,0,0,0,0.16,0.07999999999999997,return,0.7673504997510463,-1,7,0.16,0.07999999999999997,,,,,,,,,,,,,,,,,,,,,,,,,,,,,,,,,,,,,,,,,,,,,,,,,,,,,,,,QHJMDE,train_x,blue_star,top_left,2024-12-04_16h04.25.775,HideSeek_v1,2022.2.5,59.654694746818,
,2,8,3,8,1,0,51,,train_dim1_1,4,30,,,,2,0,2,0,,,,,,,,,0,0,0,0,0,3,3,3,0,0,0,0,,,,,,,,,,,,,,,,,,,,,,,,,stimuli/alien_stimuli/51.png,,,,,,,,,,,,,,,,,,,,,,,,,,,,,stimuli/alien_stimuli/21.png,21,4,5,,,,,,,30,,,,,,,,1002.0880430000834,1002.0880430000834,1002.0880430000834,1002.0880430000834,1002.0880430000834,right,3.1377897998318076,0,0,0,99,0.08,0.24,right,3.048818500014022,,,,,1000.5209988001734,1002.0880430000834,0.48,0.32,0.0,0.32,0.32,0.48,0.32,0.48,0.32,992.0973112001084,992.0973112001084,992.0973112001084,992.0973112001084,992.0973112001084,992.0973112001084,992.0973112001084,992.0973112001084,992.0812081799842,8.559173599816859,return,8.403670399915427,,,,,,,,,,,,,,,,,,,,,,,,,,,,,,,,,QHJMDE,train_x,blue_star,top_left,2024-12-04_16h04.25.775,HideSeek_v1,2022.2.5,59.654694746818,
,2,8,3,8,1,0,51,,train_dim1_1,4,30,,,,2,0,2,0,,,,,,,,,0,0,0,0,0,3,3,3,1,0,1,0,,,,,,,,,,,,,,,,,,,,,,,,,,,,,,,,,,,,,,,,,,,,,,,,,,,,,,,,,,,,,,,,30,,,,,,,,1005.2273513001855,1005.2273513001855,1005.2273513001855,1005.2273513001855,1005.2273513001855,right,1.1265823999419808,0,0,0,99,0.16,0.24,right,1.041213999968022,,,,,,,,,,,,,,,,,,,,,,,,,,,,,,,,,,,,,,,,,,,,,,,,,,,,,,,,,,,,QHJMDE,train_x,blue_star,top_left,2024-12-04_16h04.25.775,HideSeek_v1,2022.2.5,59.654694746818,
,2,8,3,8,1,0,51,,train_dim1_1,4,30,,,,2,0,2,0,,,,,,,,,0,0,0,0,0,3,3,3,2,0,2,0,,,,,,,,,,,,,,,,,,,,,,,,,,,,,,,,,,,,,,,,,,,,,,,,,,,,,,,,,,,,,,,,30,,,,,,,,1006.3617203000467,1006.3617203000467,1006.3617203000467,1006.3617203000467,1006.3617203000467,right,0.6263733000960201,0,0,0,99,0.24,0.24,right,0.5387535998597741,,,,,,,,,,,,,,,,,,,,,,,,,,,,,,,,,,,,,,,,,,,,,,,,,,,,,,,,,,,,QHJMDE,train_x,blue_star,top_left,2024-12-04_16h04.25.775,HideSeek_v1,2022.2.5,59.654694746818,
,2,8,3,8,1,0,51,,train_dim1_1,4,30,,,,2,0,2,0,,,,,,,,,0,0,0,0,0,3,3,3,3,0,3,0,,,,,,,,,,,,,,,,,,,,,,,,,,,,,,,,,,,,,,,,,,,,,,,,,,,,,,,,,,,,,,,,30,,,,,,,,1006.9920229001436,1006.9920229001436,1006.9920229001436,1006.9920229001436,1006.9920229001436,right,0.7602125001139939,0,0,0,99,0.32,0.24,right,0.6834268998354673,,,,,,,,,,,,,,,,,,,,,,,,,,,,,,,,,,,,,,,,,,,,,,,,,,,,,,,,,,,,QHJMDE,train_x,blue_star,top_left,2024-12-04_16h04.25.775,HideSeek_v1,2022.2.5,59.654694746818,
,2,8,3,8,1,0,51,,train_dim1_1,4,30,,,,2,0,2,0,,,,,,,,,0,0,0,0,0,3,3,3,4,0,4,0,,,,,,,,,,,,,,,,,,,,,,,,,,,,,,,,,,,,,,,,,,,,,,,,,,,,,,,,,,,,,,,,30,,,,,,,,1007.76220560004,1007.76220560004,1007.76220560004,1007.76220560004,1007.76220560004,right,0.6261934998910874,0,0,0,99,0.4,0.24,right,0.5484966998919845,,,,,,,,,,,,,,,,,,,,,,,,,,,,,,,,,,,,,,,,,,,,,,,,,,,,,,,,,,,,QHJMDE,train_x,blue_star,top_left,2024-12-04_16h04.25.775,HideSeek_v1,2022.2.5,59.654694746818,
,2,8,3,8,1,0,51,,train_dim1_1,4,30,,,,2,0,2,0,,,,,,,,,0,0,0,0,0,3,3,3,5,0,5,0,,,,,,,,,,,,,,,,,,,,,,,,,,,,,,,,,,,,,,,,,,,,,,,,,,,,,,,,,,,,,,,,30,,,,,,,,1008.3944398001768,1008.3944398001768,1008.3944398001768,1008.3944398001768,1008.3944398001768,left,3.562429199926555,0,0,0,99,0.32,0.24,left,3.476100499741733,,,,,,,,,,,,,,,,,,,,,,,,,,,,,,,,,,,,,,,,,,,,,,,,,,,,,,,,,,,,QHJMDE,train_x,blue_star,top_left,2024-12-04_16h04.25.775,HideSeek_v1,2022.2.5,59.654694746818,
,2,8,3,8,1,0,51,,train_dim1_1,4,30,,,,2,0,2,0,,,,,,,,,0,0,0,0,0,3,3,3,6,0,6,0,,,,,,,,,,,,,,,,,,,,,,,,,,,,,,,,,,,,,,,,,,,,,,,,,,,,,,,,,,,,,,,,30,,,,,,,,1011.9633996000048,1011.9633996000048,1011.9633996000048,1011.9633996000048,1011.9633996000048,left,0.4095497000962496,0,0,0,99,0.24,0.24,left,0.3258064000401646,,,,,,,,,,,,,,,,,,,,,,,,,,,,,,,,,,,,,,,,,,,,,,,,,,,,,,,,,,,,QHJMDE,train_x,blue_star,top_left,2024-12-04_16h04.25.775,HideSeek_v1,2022.2.5,59.654694746818,
,2,8,3,8,1,0,51,,train_dim1_1,4,30,,,,2,0,2,0,,,,,,,,,0,0,0,0,0,3,3,3,7,0,7,0,,,,,,,,,,,,,,,,,,,,,,,,,,,,,,,,,,,,,,,,,,,,,,,,,,,,,,,,,,,,,,,,30,,,,,,,,1012.3817253001034,1012.3817253001034,1012.3817253001034,1012.3817253001034,1012.3817253001034,left,0.425978499930352,0,0,0,99,0.15999999999999998,0.24,left,0.34106220002286136,,,,,,,,,,,,,,,,,,,,,,,,,,,,,,,,,,,,,,,,,,,,,,,,,,,,,,,,,,,,QHJMDE,train_x,blue_star,top_left,2024-12-04_16h04.25.775,HideSeek_v1,2022.2.5,59.654694746818,
,2,8,3,8,1,0,51,,train_dim1_1,4,30,,,,2,0,2,0,,,,,,,,,0,0,0,0,0,3,3,3,8,0,8,0,,,,,,,,,,,,,,,,,,,,,,,,,,,,,,,,,,,,,,,,,,,,,,,,,,,,,,,,,,,,,,,,30,,,,,,,,1012.8167599001899,1012.8167599001899,1012.8167599001899,1012.8167599001899,1012.8167599001899,left,0.46009179996326566,0,0,0,99,0.07999999999999997,0.24,left,0.37242559995502234,,,,,,,,,,,,,,,,,,,,,,,,,,,,,,,,,,,,,,,,,,,,,,,,,,,,,,,,,,,,QHJMDE,train_x,blue_star,top_left,2024-12-04_16h04.25.775,HideSeek_v1,2022.2.5,59.654694746818,
,2,8,3,8,1,0,51,,train_dim1_1,4,30,,,,2,0,2,0,,,,,,,,,0,0,0,0,0,3,3,3,9,0,9,0,,,,,,,,,,,,,,,,,,,,,,,,,,,,,,,,,,,,,,,,,,,,,,,,,,,,,,,,,,,,,,,,30,,,,,,,,1013.2813968001865,1013.2813968001865,1013.2813968001865,1013.2813968001865,1013.2813968001865,left,0.559974999865517,0,0,0,99,-2.7755575615628914e-17,0.24,left,0.4756712999660522,,,,,,,,,,,,,,,,,,,,,,,,,,,,,,,,,,,,,,,,,,,,,,,,,,,,,,,,,,,,QHJMDE,train_x,blue_star,top_left,2024-12-04_16h04.25.775,HideSeek_v1,2022.2.5,59.654694746818,
,2,8,3,8,1,0,51,,train_dim1_1,4,30,,,,2,0,2,0,,,,,,,,,0,0,0,0,0,3,3,3,10,0,10,0,,,,,,,,,,,,,,,,,,,,,,,,,,,,,,,,,,,,,,,,,,,,,,,,,,,,,,,,,,,,,,,,30,,,,,,,,1013.8481798002031,1013.8481798002031,1013.8481798002031,1013.8481798002031,1013.8481798002031,left,1.1106310999020934,0,0,0,99,-0.08000000000000003,0.24,left,1.0306837998796254,,,,,,,,,,,,,,,,,,,,,,,,,,,,,,,,,,,,,,,,,,,,,,,,,,,,,,,,,,,,QHJMDE,train_x,blue_star,top_left,2024-12-04_16h04.25.775,HideSeek_v1,2022.2.5,59.654694746818,
,2,8,3,8,1,0,51,,train_dim1_1,4,30,,,,2,0,2,0,,,,,,,,,0,0,0,0,0,3,3,3,11,0,11,0,,,,,,,,,,,,,,,,,,,,,,,,,,,,,,,,,,,,,,,,,,,,,,,,,,,,,,,,,,,,,,,,30,,,,,,,,1014.9656452999916,1014.9656452999916,1014.9656452999916,1014.9656452999916,1014.9656452999916,left,1.3774719999637455,0,0,0,99,-0.16000000000000003,0.24,left,1.2867246998939663,,,,,,,,,,,,,,,,,,,,,,,,,,,,,,,,,,,,,,,,,,,,,,,,,,,,,,,,,,,,QHJMDE,train_x,blue_star,top_left,2024-12-04_16h04.25.775,HideSeek_v1,2022.2.5,59.654694746818,
,2,8,3,8,1,0,51,,train_dim1_1,4,30,,,,2,0,2,0,,,,,,,,,0,0,0,0,0,3,3,3,12,0,12,0,,,,,,,,,,,,,,,,,,,,,,,,,,,,,,,,,,,,,,,,,,,,,,,,,,,,,,,,,,,,,,,,30,,,,,,,,1016.350422100164,1016.350422100164,1016.350422100164,1016.350422100164,1016.350422100164,return,0.6438295999541879,0,0,0,0,-0.16000000000000003,0.24,return,0.5638817998114973,-1,5,-0.16000000000000003,0.24,,,,,,,,,,,,,,,,,,,,,,,,,,,,,,,,,,,,,,,,,,,,,,,,,,,,,,,,QHJMDE,train_x,blue_star,top_left,2024-12-04_16h04.25.775,HideSeek_v1,2022.2.5,59.654694746818,
,0,7,0,7,0,0,61,,train_dim1_1,5,30,,,,2,0,2,0,,,,,,,,,0,0,0,0,0,4,4,4,0,0,0,0,,,,,,,,,,,,,,,,,,,,,,,,,stimuli/alien_stimuli/61.png,,,,,,,,,,,,,,,,,,,,,,,,,,,,,stimuli/alien_stimuli/51.png,51,2,6,,,,,,,30,,,,,,,,1024.365885199979,1024.365885199979,1024.365885199979,1024.365885199979,1024.365885199979,right,3.341511699836701,0,0,0,99,-0.08,0.16,right,3.2474721998441964,,,,,1022.8063135000411,1024.365885199979,0.08,0.24,0.0,0.08,0.24,0.08,0.04,0.08,0.24,1018.5782755000982,1018.5782755000982,1018.5782755000982,1018.5782755000982,1018.5782755000982,1018.5782755000982,1018.5782755000982,1018.5782755000982,1018.5695655800401,4.356150800129399,return,4.210390100022778,,,,,,,,,,,,,,,,,,,,,,,,,,,,,,,,,QHJMDE,train_x,blue_star,top_left,2024-12-04_16h04.25.775,HideSeek_v1,2022.2.5,59.654694746818,
,0,7,0,7,0,0,61,,train_dim1_1,5,30,,,,2,0,2,0,,,,,,,,,0,0,0,0,0,4,4,4,1,0,1,0,,,,,,,,,,,,,,,,,,,,,,,,,,,,,,,,,,,,,,,,,,,,,,,,,,,,,,,,,,,,,,,,30,,,,,,,,1027.7092222000938,1027.7092222000938,1027.7092222000938,1027.7092222000938,1027.7092222000938,right,1.0756795001216233,0,0,0,99,0.0,0.16,right,1.0018407998140901,,,,,,,,,,,,,,,,,,,,,,,,,,,,,,,,,,,,,,,,,,,,,,,,,,,,,,,,,,,,QHJMDE,train_x,blue_star,top_left,2024-12-04_16h04.25.775,HideSeek_v1,2022.2.5,59.654694746818,
,0,7,0,7,0,0,61,,train_dim1_1,5,30,,,,2,0,2,0,,,,,,,,,0,0,0,0,0,4,4,4,2,0,2,0,,,,,,,,,,,,,,,,,,,,,,,,,,,,,,,,,,,,,,,,,,,,,,,,,,,,,,,,,,,,,,,,30,,,,,,,,1028.7944199000485,1028.7944199000485,1028.7944199000485,1028.7944199000485,1028.7944199000485,right,0.7097734999842942,0,0,0,99,0.08,0.16,right,0.6207752998452634,,,,,,,,,,,,,,,,,,,,,,,,,,,,,,,,,,,,,,,,,,,,,,,,,,,,,,,,,,,,QHJMDE,train_x,blue_star,top_left,2024-12-04_16h04.25.775,HideSeek_v1,2022.2.5,59.654694746818,
,0,7,0,7,0,0,61,,train_dim1_1,5,30,,,,2,0,2,0,,,,,,,,,0,0,0,0,0,4,4,4,3,0,3,0,,,,,,,,,,,,,,,,,,,,,,,,,,,,,,,,,,,,,,,,,,,,,,,,,,,,,,,,,,,,,,,,30,,,,,,,,1029.5111645001452,1029.5111645001452,1029.5111645001452,1029.5111645001452,1029.5111645001452,right,1.043956199893728,0,0,0,99,0.16,0.16,right,0.9554834000300616,,,,,,,,,,,,,,,,,,,,,,,,,,,,,,,,,,,,,,,,,,,,,,,,,,,,,,,,,,,,QHJMDE,train_x,blue_star,top_left,2024-12-04_16h04.25.775,HideSeek_v1,2022.2.5,59.654694746818,
,0,7,0,7,0,0,61,,train_dim1_1,5,30,,,,2,0,2,0,,,,,,,,,0,0,0,0,0,4,4,4,4,0,4,0,,,,,,,,,,,,,,,,,,,,,,,,,,,,,,,,,,,,,,,,,,,,,,,,,,,,,,,,,,,,,,,,30,,,,,,,,1030.560671800049,1030.560671800049,1030.560671800049,1030.560671800049,1030.560671800049,return,1.7275880000088364,0,0,0,0,0.16,0.16,return,1.6477759999688715,-1,9,0.16,0.16,,,,,,,,,,,,,,,,,,,,,,,,,,,,,,,,,,,,,,,,,,,,,,,,,,,,,,,,QHJMDE,train_x,blue_star,top_left,2024-12-04_16h04.25.775,HideSeek_v1,2022.2.5,59.654694746818,
,0,5,4,5,4,0,21,,train_dim1_1,6,30,,,,2,0,2,0,,,,,,,,,0,0,0,0,0,5,5,5,0,0,0,0,,,,,,,,,,,,,,,,,,,,,,,,,stimuli/alien_stimuli/21.png,,,,,,,,,,,,,,,,,,,,,,,,,,,,,stimuli/alien_stimuli/61.png,61,0,7,,,,,,,30,,,,,,,,1038.80275849998,1038.80275849998,1038.80275849998,1038.80275849998,1038.80275849998,up,2.655615100171417,0,0,0,99,-0.16,0.08,up,2.55350389983505,,,,,1037.2349976000842,1038.80275849998,-0.16,0.16,0.0,0.0,0.16,-0.16,-0.16,-0.16,0.16,1033.8712137001567,1033.8712137001567,1033.8712137001567,1033.8712137001567,1033.8712137001567,1033.8712137001567,1033.8712137001567,1033.8712137001567,1033.8489520200064,3.4887945000082254,return,3.3422365998849273,,,,,,,,,,,,,,,,,,,,,,,,,,,,,,,,,QHJMDE,train_x,blue_star,top_left,2024-12-04_16h04.25.775,HideSeek_v1,2022.2.5,59.654694746818,
,0,5,4,5,4,0,21,,train_dim1_1,6,30,,,,2,0,2,0,,,,,,,,,0,0,0,0,0,5,5,5,1,0,1,0,,,,,,,,,,,,,,,,,,,,,,,,,,,,,,,,,,,,,,,,,,,,,,,,,,,,,,,,,,,,,,,,30,,,,,,,,1041.4613789999858,1041.4613789999858,1041.4613789999858,1041.4613789999858,1041.4613789999858,up,0.625800599809736,0,0,0,99,-0.16,0.16,up,0.5452586999163032,,,,,,,,,,,,,,,,,,,,,,,,,,,,,,,,,,,,,,,,,,,,,,,,,,,,,,,,,,,,QHJMDE,train_x,blue_star,top_left,2024-12-04_16h04.25.775,HideSeek_v1,2022.2.5,59.654694746818,
,0,5,4,5,4,0,21,,train_dim1_1,6,30,,,,2,0,2,0,,,,,,,,,0,0,0,0,0,5,5,5,2,0,2,0,,,,,,,,,,,,,,,,,,,,,,,,,,,,,,,,,,,,,,,,,,,,,,,,,,,,,,,,,,,,,,,,30,,,,,,,,1042.0912999000866,1042.0912999000866,1042.0912999000866,1042.0912999000866,1042.0912999000866,up,2.761873699957505,0,0,0,99,-0.16,0.24,up,2.674675799906254,,,,,,,,,,,,,,,,,,,,,,,,,,,,,,,,,,,,,,,,,,,,,,,,,,,,,,,,,,,,QHJMDE,train_x,blue_star,top_left,2024-12-04_16h04.25.775,HideSeek_v1,2022.2.5,59.654694746818,
,0,5,4,5,4,0,21,,train_dim1_1,6,30,,,,2,0,2,0,,,,,,,,,0,0,0,0,0,5,5,5,3,0,3,0,,,,,,,,,,,,,,,,,,,,,,,,,,,,,,,,,,,,,,,,,,,,,,,,,,,,,,,,,,,,,,,,30,,,,,,,,1044.8586807001848,1044.8586807001848,1044.8586807001848,1044.8586807001848,1044.8586807001848,return,1.077331200009212,0,0,0,0,-0.16,0.24,return,0.9845946999266744,2,9,-0.16,0.24,,,,,,,,,,,,,,,,,,,,,,,,,,,,,,,,,,,,,,,,,,,,,,,,,,,,,,,,QHJMDE,train_x,blue_star,top_left,2024-12-04_16h04.25.775,HideSeek_v1,2022.2.5,59.654694746818,
,3,5,3,5,0,0,61,,train_dim1_1,7,30,,,,2,0,2,0,,,,,,,,,0,0,0,0,0,6,6,6,0,0,0,0,,,,,,,,,,,,,,,,,,,,,,,,,stimuli/alien_stimuli/61.png,,,,,,,,,,,,,,,,,,,,,,,,,,,,,stimuli/alien_stimuli/21.png,21,0,8,,,,,,,30,,,,,,,,1052.1743840000127,1052.1743840000127,1052.1743840000127,1052.1743840000127,1052.1743840000127,down,4.724194899899885,0,0,0,99,0.08,-0.08,down,4.640382299898192,,,,,1050.6127435001545,1052.1743840000127,0.16,0,0.0,0.32,0.0,0.16,0.0,0.16,0,1047.5313380002044,1047.5313380002044,1047.5313380002044,1047.5313380002044,1047.5313380002044,1047.5313380002044,1047.5313380002044,1047.5313380002044,1047.510558980098,3.221305700019002,return,3.049385499674827,,,,,,,,,,,,,,,,,,,,,,,,,,,,,,,,,QHJMDE,train_x,blue_star,top_left,2024-12-04_16h04.25.775,HideSeek_v1,2022.2.5,59.654694746818,
,3,5,3,5,0,0,61,,train_dim1_1,7,30,,,,2,0,2,0,,,,,,,,,0,0,0,0,0,6,6,6,1,0,1,0,,,,,,,,,,,,,,,,,,,,,,,,,,,,,,,,,,,,,,,,,,,,,,,,,,,,,,,,,,,,,,,,30,,,,,,,,1056.9145394000225,1056.9145394000225,1056.9145394000225,1056.9145394000225,1056.9145394000225,right,2.1109919000882655,0,0,0,99,0.16,-0.08,right,2.0060627998318523,,,,,,,,,,,,,,,,,,,,,,,,,,,,,,,,,,,,,,,,,,,,,,,,,,,,,,,,,,,,QHJMDE,train_x,blue_star,top_left,2024-12-04_16h04.25.775,HideSeek_v1,2022.2.5,59.654694746818,
,3,5,3,5,0,0,61,,train_dim1_1,7,30,,,,2,0,2,0,,,,,,,,,0,0,0,0,0,6,6,6,2,0,2,0,,,,,,,,,,,,,,,,,,,,,,,,,,,,,,,,,,,,,,,,,,,,,,,,,,,,,,,,,,,,,,,,30,,,,,,,,1059.0175901001785,1059.0175901001785,1059.0175901001785,1059.0175901001785,1059.0175901001785,right,0.5596747999079525,0,0,0,99,0.24,-0.08,right,0.4800858998205513,,,,,,,,,,,,,,,,,,,,,,,,,,,,,,,,,,,,,,,,,,,,,,,,,,,,,,,,,,,,QHJMDE,train_x,blue_star,top_left,2024-12-04_16h04.25.775,HideSeek_v1,2022.2.5,59.654694746818,
,3,5,3,5,0,0,61,,train_dim1_1,7,30,,,,2,0,2,0,,,,,,,,,0,0,0,0,0,6,6,6,3,0,3,0,,,,,,,,,,,,,,,,,,,,,,,,,,,,,,,,,,,,,,,,,,,,,,,,,,,,,,,,,,,,,,,,30,,,,,,,,1059.583404400153,1059.583404400153,1059.583404400153,1059.583404400153,1059.583404400153,up,0.7436313999351114,0,0,0,99,0.24,0.0,up,0.6658273998182267,,,,,,,,,,,,,,,,,,,,,,,,,,,,,,,,,,,,,,,,,,,,,,,,,,,,,,,,,,,,QHJMDE,train_x,blue_star,top_left,2024-12-04_16h04.25.775,HideSeek_v1,2022.2.5,59.654694746818,
,3,5,3,5,0,0,61,,train_dim1_1,7,30,,,,2,0,2,0,,,,,,,,,0,0,0,0,0,6,6,6,4,0,4,0,,,,,,,,,,,,,,,,,,,,,,,,,,,,,,,,,,,,,,,,,,,,,,,,,,,,,,,,,,,,,,,,30,,,,,,,,1060.335797100095,1060.335797100095,1060.335797100095,1060.335797100095,1060.335797100095,up,0.5261311999056488,0,0,0,99,0.24,0.08,up,0.4420206998474896,,,,,,,,,,,,,,,,,,,,,,,,,,,,,,,,,,,,,,,,,,,,,,,,,,,,,,,,,,,,QHJMDE,train_x,blue_star,top_left,2024-12-04_16h04.25.775,HideSeek_v1,2022.2.5,59.654694746818,
,3,5,3,5,0,0,61,,train_dim1_1,7,30,,,,2,0,2,0,,,,,,,,,0,0,0,0,0,6,6,6,5,0,5,0,,,,,,,,,,,,,,,,,,,,,,,,,,,,,,,,,,,,,,,,,,,,,,,,,,,,,,,,,,,,,,,,30,,,,,,,,1060.8674786000047,1060.8674786000047,1060.8674786000047,1060.8674786000047,1060.8674786000047,up,0.47686830000020564,0,0,0,99,0.24,0.16,up,0.39902309980243444,,,,,,,,,,,,,,,,,,,,,,,,,,,,,,,,,,,,,,,,,,,,,,,,,,,,,,,,,,,,QHJMDE,train_x,blue_star,top_left,2024-12-04_16h04.25.775,HideSeek_v1,2022.2.5,59.654694746818,
,3,5,3,5,0,0,61,,train_dim1_1,7,30,,,,2,0,2,0,,,,,,,,,0,0,0,0,0,6,6,6,6,0,6,0,,,,,,,,,,,,,,,,,,,,,,,,,,,,,,,,,,,,,,,,,,,,,,,,,,,,,,,,,,,,,,,,30,,,,,,,,1061.3517365001608,1061.3517365001608,1061.3517365001608,1061.3517365001608,1061.3517365001608,up,0.5101352999918163,0,0,0,99,0.24,0.24,up,0.43468279973603785,,,,,,,,,,,,,,,,,,,,,,,,,,,,,,,,,,,,,,,,,,,,,,,,,,,,,,,,,,,,QHJMDE,train_x,blue_star,top_left,2024-12-04_16h04.25.775,HideSeek_v1,2022.2.5,59.654694746818,
,3,5,3,5,0,0,61,,train_dim1_1,7,30,,,,2,0,2,0,,,,,,,,,0,0,0,0,0,6,6,6,7,0,7,0,,,,,,,,,,,,,,,,,,,,,,,,,,,,,,,,,,,,,,,,,,,,,,,,,,,,,,,,,,,,,,,,30,,,,,,,,1061.8727606001776,1061.8727606001776,1061.8727606001776,1061.8727606001776,1061.8727606001776,left,1.0105181999970227,0,0,0,99,0.15999999999999998,0.24,left,0.921784499892965,,,,,,,,,,,,,,,,,,,,,,,,,,,,,,,,,,,,,,,,,,,,,,,,,,,,,,,,,,,,QHJMDE,train_x,blue_star,top_left,2024-12-04_16h04.25.775,HideSeek_v1,2022.2.5,59.654694746818,
,3,5,3,5,0,0,61,,train_dim1_1,7,30,,,,2,0,2,0,,,,,,,,,0,0,0,0,0,6,6,6,8,0,8,0,,,,,,,,,,,,,,,,,,,,,,,,,,,,,,,,,,,,,,,,,,,,,,,,,,,,,,,,,,,,,,,,30,,,,,,,,1062.8868950000033,1062.8868950000033,1062.8868950000033,1062.8868950000033,1062.8868950000033,left,0.9603294001426548,0,0,0,99,0.07999999999999997,0.24,left,0.872097099898383,,,,,,,,,,,,,,,,,,,,,,,,,,,,,,,,,,,,,,,,,,,,,,,,,,,,,,,,,,,,QHJMDE,train_x,blue_star,top_left,2024-12-04_16h04.25.775,HideSeek_v1,2022.2.5,59.654694746818,
,3,5,3,5,0,0,61,,train_dim1_1,7,30,,,,2,0,2,0,,,,,,,,,0,0,0,0,0,6,6,6,9,0,9,0,,,,,,,,,,,,,,,,,,,,,,,,,,,,,,,,,,,,,,,,,,,,,,,,,,,,,,,,,,,,,,,,30,,,,,,,,1063.8537490000017,1063.8537490000017,1063.8537490000017,1063.8537490000017,1063.8537490000017,return,0.7770437998697162,0,0,0,0,0.07999999999999997,0.24,return,0.7008500997908413,5,9,0.07999999999999997,0.24,,,,,,,,,,,,,,,,,,,,,,,,,,,,,,,,,,,,,,,,,,,,,,,,,,,,,,,,QHJMDE,train_x,blue_star,top_left,2024-12-04_16h04.25.775,HideSeek_v1,2022.2.5,59.654694746818,
,0,9,3,9,3,0,31,,train_dim1_1,8,30,,,,2,0,2,0,,,,,,,,,0,0,0,0,0,7,7,7,0,0,0,0,,,,,,,,,,,,,,,,,,,,,,,,,stimuli/alien_stimuli/31.png,,,,,,,,,,,,,,,,,,,,,,,,,,,,,stimuli/alien_stimuli/61.png,61,3,9,,,,,,,30,,,,,,,,1071.7555723001715,1071.7555723001715,1071.7555723001715,1071.7555723001715,1071.7555723001715,right,1.9719405001960695,0,0,0,99,-0.08,0.32,right,1.882188799791038,,,,,1070.1956176999956,1071.7555723001715,0.08,0,0.0,0.0,0.0,0.08,0.08,0.08,0,1066.2161553001497,1066.2161553001497,1066.2161553001497,1066.2161553001497,1066.2161553001497,1066.2161553001497,1066.2161553001497,1066.2161553001497,1066.209242780041,4.1056388998404145,return,3.947896899888292,,,,,,,,,,,,,,,,,,,,,,,,,,,,,,,,,QHJMDE,train_x,blue_star,top_left,2024-12-04_16h04.25.775,HideSeek_v1,2022.2.5,59.654694746818,
,0,9,3,9,3,0,31,,train_dim1_1,8,30,,,,2,0,2,0,,,,,,,,,0,0,0,0,0,7,7,7,1,0,1,0,,,,,,,,,,,,,,,,,,,,,,,,,,,,,,,,,,,,,,,,,,,,,,,,,,,,,,,,,,,,,,,,30,,,,,,,,1073.729710600106,1073.729710600106,1073.729710600106,1073.729710600106,1073.729710600106,right,0.4596913999412209,0,0,0,99,0.0,0.32,right,0.37209559977054596,,,,,,,,,,,,,,,,,,,,,,,,,,,,,,,,,,,,,,,,,,,,,,,,,,,,,,,,,,,,QHJMDE,train_x,blue_star,top_left,2024-12-04_16h04.25.775,HideSeek_v1,2022.2.5,59.654694746818,
,0,9,3,9,3,0,31,,train_dim1_1,8,30,,,,2,0,2,0,,,,,,,,,0,0,0,0,0,7,7,7,2,0,2,0,,,,,,,,,,,,,,,,,,,,,,,,,,,,,,,,,,,,,,,,,,,,,,,,,,,,,,,,,,,,,,,,30,,,,,,,,1074.1985162000638,1074.1985162000638,1074.1985162000638,1074.1985162000638,1074.1985162000638,right,0.4431173999328166,0,0,0,99,0.08,0.32,right,0.35952579975128174,,,,,,,,,,,,,,,,,,,,,,,,,,,,,,,,,,,,,,,,,,,,,,,,,,,,,,,,,,,,QHJMDE,train_x,blue_star,top_left,2024-12-04_16h04.25.775,HideSeek_v1,2022.2.5,59.654694746818,
,0,9,3,9,3,0,31,,train_dim1_1,8,30,,,,2,0,2,0,,,,,,,,,0,0,0,0,0,7,7,7,3,0,3,0,,,,,,,,,,,,,,,,,,,,,,,,,,,,,,,,,,,,,,,,,,,,,,,,,,,,,,,,,,,,,,,,30,,,,,,,,1074.648457400035,1074.648457400035,1074.648457400035,1074.648457400035,1074.648457400035,right,0.9105910998769104,0,0,0,99,0.16,0.32,right,0.8209465998224914,,,,,,,,,,,,,,,,,,,,,,,,,,,,,,,,,,,,,,,,,,,,,,,,,,,,,,,,,,,,QHJMDE,train_x,blue_star,top_left,2024-12-04_16h04.25.775,HideSeek_v1,2022.2.5,59.654694746818,
,0,9,3,9,3,0,31,,train_dim1_1,8,30,,,,2,0,2,0,,,,,,,,,0,0,0,0,0,7,7,7,4,0,4,0,,,,,,,,,,,,,,,,,,,,,,,,,,,,,,,,,,,,,,,,,,,,,,,,,,,,,,,,,,,,,,,,30,,,,,,,,1075.5654762000777,1075.5654762000777,1075.5654762000777,1075.5654762000777,1075.5654762000777,right,0.7596500001382083,0,0,0,99,0.24,0.32,right,0.6729532997123897,,,,,,,,,,,,,,,,,,,,,,,,,,,,,,,,,,,,,,,,,,,,,,,,,,,,,,,,,,,,QHJMDE,train_x,blue_star,top_left,2024-12-04_16h04.25.775,HideSeek_v1,2022.2.5,59.654694746818,
,0,9,3,9,3,0,31,,train_dim1_1,8,30,,,,2,0,2,0,,,,,,,,,0,0,0,0,0,7,7,7,5,0,5,0,,,,,,,,,,,,,,,,,,,,,,,,,,,,,,,,,,,,,,,,,,,,,,,,,,,,,,,,,,,,,,,,30,,,,,,,,1076.3318672000896,1076.3318672000896,1076.3318672000896,1076.3318672000896,1076.3318672000896,left,0.9936631000600755,0,0,0,99,0.15999999999999998,0.32,left,0.9131587997544557,,,,,,,,,,,,,,,,,,,,,,,,,,,,,,,,,,,,,,,,,,,,,,,,,,,,,,,,,,,,QHJMDE,train_x,blue_star,top_left,2024-12-04_16h04.25.775,HideSeek_v1,2022.2.5,59.654694746818,
,0,9,3,9,3,0,31,,train_dim1_1,8,30,,,,2,0,2,0,,,,,,,,,0,0,0,0,0,7,7,7,6,0,6,0,,,,,,,,,,,,,,,,,,,,,,,,,,,,,,,,,,,,,,,,,,,,,,,,,,,,,,,,,,,,,,,,30,,,,,,,,1077.3320192000829,1077.3320192000829,1077.3320192000829,1077.3320192000829,1077.3320192000829,left,0.5101695999037474,0,0,0,99,0.07999999999999997,0.32,left,0.43243739986792207,,,,,,,,,,,,,,,,,,,,,,,,,,,,,,,,,,,,,,,,,,,,,,,,,,,,,,,,,,,,QHJMDE,train_x,blue_star,top_left,2024-12-04_16h04.25.775,HideSeek_v1,2022.2.5,59.654694746818,
,0,9,3,9,3,0,31,,train_dim1_1,8,30,,,,2,0,2,0,,,,,,,,,0,0,0,0,0,7,7,7,7,0,7,0,,,,,,,,,,,,,,,,,,,,,,,,,,,,,,,,,,,,,,,,,,,,,,,,,,,,,,,,,,,,,,,,30,,,,,,,,1077.8494726000354,1077.8494726000354,1077.8494726000354,1077.8494726000354,1077.8494726000354,return,0.5600350999739021,1,0,0,1,0.07999999999999997,0.32,return,0.47971479990519583,5,12,0.07999999999999997,0.32,,,,,,,,,,,,,,,,,,,,,,,,,,,,,,,,,,,,,,,,,,,,,,,,,,,,,,,,QHJMDE,train_x,blue_star,top_left,2024-12-04_16h04.25.775,HideSeek_v1,2022.2.5,59.654694746818,
,1,5,2,5,1,0,51,,train_dim1_1,9,30,,,,2,0,2,0,,,,,,,,,0,0,0,0,0,8,8,8,0,0,0,0,,,,,,,,,,,,,,,,,,,,,,,,,stimuli/alien_stimuli/51.png,,,,,,,,,,,,,,,,,,,,,,,,,,,,,stimuli/alien_stimuli/31.png,31,0,10,,,,,,,30,,,,,,,,1085.0193882000167,1085.0193882000167,1085.0193882000167,1085.0193882000167,1085.0193882000167,left,1.7550200999248773,1,0,0,99,-0.16,0,left,1.6743151997216046,,,,,1083.45667770016,1085.0193882000167,0.08,0.32,0.0,0.24,0.32,0.08,-0.04,0.08,0.32,1079.991253199987,1079.991253199987,1079.991253199987,1079.991253199987,1079.991253199987,1079.991253199987,1079.991253199987,1079.991253199987,1079.970620220015,3.5884597999975085,return,3.4369675999041647,,,,,,,,,,,,,,,,,,,,,,,,,,,,,,,,,QHJMDE,train_x,blue_star,top_left,2024-12-04_16h04.25.775,HideSeek_v1,2022.2.5,59.654694746818,
,1,5,2,5,1,0,51,,train_dim1_1,9,30,,,,2,0,2,0,,,,,,,,,0,0,0,0,0,8,8,8,1,0,1,0,,,,,,,,,,,,,,,,,,,,,,,,,,,,,,,,,,,,,,,,,,,,,,,,,,,,,,,,,,,,,,,,30,,,,,,,,1086.7766698000487,1086.7766698000487,1086.7766698000487,1086.7766698000487,1086.7766698000487,right,1.1438347999937832,1,0,0,99,-0.08,0,right,1.0666388999670744,,,,,,,,,,,,,,,,,,,,,,,,,,,,,,,,,,,,,,,,,,,,,,,,,,,,,,,,,,,,QHJMDE,train_x,blue_star,top_left,2024-12-04_16h04.25.775,HideSeek_v1,2022.2.5,59.654694746818,
,1,5,2,5,1,0,51,,train_dim1_1,9,30,,,,2,0,2,0,,,,,,,,,0,0,0,0,0,8,8,8,2,0,2,0,,,,,,,,,,,,,,,,,,,,,,,,,,,,,,,,,,,,,,,,,,,,,,,,,,,,,,,,,,,,,,,,30,,,,,,,,1087.9257309001405,1087.9257309001405,1087.9257309001405,1087.9257309001405,1087.9257309001405,return,1.2105337001848966,1,1,0,0,-0.08,0,return,1.1287342999130487,5,12,-0.08,0,,,,,,,,,,,,,,,,,,,,,,,,,,,,,,,,,,,,,,,,,,,,,,,,,,,,,,,,QHJMDE,train_x,blue_star,top_left,2024-12-04_16h04.25.775,HideSeek_v1,2022.2.5,59.654694746818,
,0,8,5,8,5,0,11,,train_dim1_1,10,30,,,,2,0,2,0,,,,,,,,,0,0,0,0,0,9,9,9,0,0,0,0,,,,,,,,,,,,,,,,,,,,,,,,,stimuli/alien_stimuli/11.png,,,,,,,,,,,,,,,,,,,,,,,,,,,,,stimuli/alien_stimuli/51.png,51,1,11,,,,,,,30,,,,,,,,1107.044579999987,1107.044579999987,1107.044579999987,1107.044579999987,1107.044579999987,right,2.1890209999401122,1,1,0,99,-0.08,0.24,right,2.088144199922681,,,,,1105.4745331001468,1107.044579999987,0,0,0.0,0.08,0.0,0,-0.04,0,0,1090.7146599001717,1090.7146599001717,1090.7146599001717,1090.7146599001717,1090.7146599001717,1090.7146599001717,1090.7146599001717,1090.7146599001717,1090.696097620018,14.880592500092462,return,14.737915199715644,,,,,,,,,,,,,,,,,,,,,,,,,,,,,,,,,QHJMDE,train_x,blue_star,top_left,2024-12-04_16h04.25.775,HideSeek_v1,2022.2.5,59.654694746818,
,0,8,5,8,5,0,11,,train_dim1_1,10,30,,,,2,0,2,0,,,,,,,,,0,0,0,0,0,9,9,9,1,0,1,0,,,,,,,,,,,,,,,,,,,,,,,,,,,,,,,,,,,,,,,,,,,,,,,,,,,,,,,,,,,,,,,,30,,,,,,,,1109.2300937001128,1109.2300937001128,1109.2300937001128,1109.2300937001128,1109.2300937001128,right,0.5592437000013888,1,1,0,99,0.0,0.24,right,0.466784399934113,,,,,,,,,,,,,,,,,,,,,,,,,,,,,,,,,,,,,,,,,,,,,,,,,,,,,,,,,,,,QHJMDE,train_x,blue_star,top_left,2024-12-04_16h04.25.775,HideSeek_v1,2022.2.5,59.654694746818,
,0,8,5,8,5,0,11,,train_dim1_1,10,30,,,,2,0,2,0,,,,,,,,,0,0,0,0,0,9,9,9,2,0,2,0,,,,,,,,,,,,,,,,,,,,,,,,,,,,,,,,,,,,,,,,,,,,,,,,,,,,,,,,,,,,,,,,30,,,,,,,,1109.7958528001327,1109.7958528001327,1109.7958528001327,1109.7958528001327,1109.7958528001327,right,0.6934914998710155,1,1,0,99,0.08,0.24,right,0.6096188998781145,,,,,,,,,,,,,,,,,,,,,,,,,,,,,,,,,,,,,,,,,,,,,,,,,,,,,,,,,,,,QHJMDE,train_x,blue_star,top_left,2024-12-04_16h04.25.775,HideSeek_v1,2022.2.5,59.654694746818,
,0,8,5,8,5,0,11,,train_dim1_1,10,30,,,,2,0,2,0,,,,,,,,,0,0,0,0,0,9,9,9,3,0,3,0,,,,,,,,,,,,,,,,,,,,,,,,,,,,,,,,,,,,,,,,,,,,,,,,,,,,,,,,,,,,,,,,30,,,,,,,,1110.497409200063,1110.497409200063,1110.497409200063,1110.497409200063,1110.497409200063,return,1.2439421999733895,1,0,0,0,0.08,0.24,return,1.1669110998045653,5,15,0.08,0.24,,,,,,,,,,,,,,,,,,,,,,,,,,,,,,,,,,,,,,,,,,,,,,,,,,,,,,,,QHJMDE,train_x,blue_star,top_left,2024-12-04_16h04.25.775,HideSeek_v1,2022.2.5,59.654694746818,
,2,7,5,7,3,0,31,,train_dim1_1,11,30,,,,2,0,2,0,,,,,,,,,0,0,0,0,0,10,10,10,0,0,0,0,,,,,,,,,,,,,,,,,,,,,,,,,stimuli/alien_stimuli/31.png,,,,,,,,,,,,,,,,,,,,,,,,,,,,,stimuli/alien_stimuli/11.png,11,0,12,,,,,,,30,,,,,,,,1117.948286900064,1117.948286900064,1117.948286900064,1117.948286900064,1117.948286900064,right,1.6195549999829382,1,0,0,99,0.08,0.16,right,1.5268034997861832,,,,,1116.3838155001868,1117.948286900064,0.24,0.24,0.0,0.4,0.24,0.24,0.039999999999999994,0.24,0.24,1113.326198700117,1113.326198700117,1113.326198700117,1113.326198700117,1113.326198700117,1113.326198700117,1113.326198700117,1113.326198700117,1113.3152125799563,3.187930499901995,return,3.029933399753645,,,,,,,,,,,,,,,,,,,,,,,,,,,,,,,,,QHJMDE,train_x,blue_star,top_left,2024-12-04_16h04.25.775,HideSeek_v1,2022.2.5,59.654694746818,
,2,7,5,7,3,0,31,,train_dim1_1,11,30,,,,2,0,2,0,,,,,,,,,0,0,0,0,0,10,10,10,1,0,1,0,,,,,,,,,,,,,,,,,,,,,,,,,,,,,,,,,,,,,,,,,,,,,,,,,,,,,,,,,,,,,,,,30,,,,,,,,1119.5675402001943,1119.5675402001943,1119.5675402001943,1119.5675402001943,1119.5675402001943,left,1.3271927000023425,1,0,0,99,0.0,0.16,left,1.2431779999751598,,,,,,,,,,,,,,,,,,,,,,,,,,,,,,,,,,,,,,,,,,,,,,,,,,,,,,,,,,,,QHJMDE,train_x,blue_star,top_left,2024-12-04_16h04.25.775,HideSeek_v1,2022.2.5,59.654694746818,
,2,7,5,7,3,0,31,,train_dim1_1,11,30,,,,2,0,2,0,,,,,,,,,0,0,0,0,0,10,10,10,2,0,2,0,,,,,,,,,,,,,,,,,,,,,,,,,,,,,,,,,,,,,,,,,,,,,,,,,,,,,,,,,,,,,,,,30,,,,,,,,1120.9201646000147,1120.9201646000147,1120.9201646000147,1120.9201646000147,1120.9201646000147,right,0.6934311001095921,1,0,0,99,0.08,0.16,right,0.5890819998458028,,,,,,,,,,,,,,,,,,,,,,,,,,,,,,,,,,,,,,,,,,,,,,,,,,,,,,,,,,,,QHJMDE,train_x,blue_star,top_left,2024-12-04_16h04.25.775,HideSeek_v1,2022.2.5,59.654694746818,
,2,7,5,7,3,0,31,,train_dim1_1,11,30,,,,2,0,2,0,,,,,,,,,0,0,0,0,0,10,10,10,3,0,3,0,,,,,,,,,,,,,,,,,,,,,,,,,,,,,,,,,,,,,,,,,,,,,,,,,,,,,,,,,,,,,,,,30,,,,,,,,1121.6018385000061,1121.6018385000061,1121.6018385000061,1121.6018385000061,1121.6018385000061,right,0.6602211999706924,1,0,0,99,0.16,0.16,right,0.5821612998843193,,,,,,,,,,,,,,,,,,,,,,,,,,,,,,,,,,,,,,,,,,,,,,,,,,,,,,,,,,,,QHJMDE,train_x,blue_star,top_left,2024-12-04_16h04.25.775,HideSeek_v1,2022.2.5,59.654694746818,
,2,7,5,7,3,0,31,,train_dim1_1,11,30,,,,2,0,2,0,,,,,,,,,0,0,0,0,0,10,10,10,4,0,4,0,,,,,,,,,,,,,,,,,,,,,,,,,,,,,,,,,,,,,,,,,,,,,,,,,,,,,,,,,,,,,,,,30,,,,,,,,1122.2704344000667,1122.2704344000667,1122.2704344000667,1122.2704344000667,1122.2704344000667,right,0.8436951001640409,1,0,0,99,0.24,0.16,right,0.7668240000493824,,,,,,,,,,,,,,,,,,,,,,,,,,,,,,,,,,,,,,,,,,,,,,,,,,,,,,,,,,,,QHJMDE,train_x,blue_star,top_left,2024-12-04_16h04.25.775,HideSeek_v1,2022.2.5,59.654694746818,
,2,7,5,7,3,0,31,,train_dim1_1,11,30,,,,2,0,2,0,,,,,,,,,0,0,0,0,0,10,10,10,5,0,5,0,,,,,,,,,,,,,,,,,,,,,,,,,,,,,,,,,,,,,,,,,,,,,,,,,,,,,,,,,,,,,,,,30,,,,,,,,1123.1205810999963,1123.1205810999963,1123.1205810999963,1123.1205810999963,1123.1205810999963,return,0.943896200042218,2,0,0,1,0.24,0.16,return,0.8586690998636186,5,18,0.24,0.16,,,,,,,,,,,,,,,,,,,,,,,,,,,,,,,,,,,,,,,,,,,,,,,,,,,,,,,,QHJMDE,train_x,blue_star,top_left,2024-12-04_16h04.25.775,HideSeek_v1,2022.2.5,59.654694746818,
,0,5,4,5,4,0,21,,train_dim1_1,12,30,,,,2,0,2,0,,,,,,,,,0,0,0,0,0,11,11,11,0,0,0,0,,,,,,,,,,,,,,,,,,,,,,,,,stimuli/alien_stimuli/21.png,,,,,,,,,,,,,,,,,,,,,,,,,,,,,stimuli/alien_stimuli/31.png,31,2,13,,,,,,,30,,,,,,,,1129.7783284999896,1129.7783284999896,1129.7783284999896,1129.7783284999896,1129.7783284999896,right,2.639504399849102,2,0,0,99,-0.08,0,right,2.531490799738094,,,,,1128.1937206999864,1129.7783284999896,0.24,0.16,0.0,0.24,0.16,0.24,0.12,0.24,0.16,1125.6577232000418,1125.6577232000418,1125.6577232000418,1125.6577232000418,1125.6577232000418,1125.6577232000418,1125.6577232000418,1125.6577232000418,1125.6419547801372,2.671270899940282,return,2.5155692999251187,,,,,,,,,,,,,,,,,,,,,,,,,,,,,,,,,QHJMDE,train_x,blue_star,top_left,2024-12-04_16h04.25.775,HideSeek_v1,2022.2.5,59.654694746818,
,0,5,4,5,4,0,21,,train_dim1_1,12,30,,,,2,0,2,0,,,,,,,,,0,0,0,0,0,11,11,11,1,0,1,0,,,,,,,,,,,,,,,,,,,,,,,,,,,,,,,,,,,,,,,,,,,,,,,,,,,,,,,,,,,,,,,,30,,,,,,,,1132.399689800106,1132.399689800106,1132.399689800106,1132.399689800106,1132.399689800106,right,0.4928778999019414,2,0,0,99,0.0,0,right,0.41295520006679,,,,,,,,,,,,,,,,,,,,,,,,,,,,,,,,,,,,,,,,,,,,,,,,,,,,,,,,,,,,QHJMDE,train_x,blue_star,top_left,2024-12-04_16h04.25.775,HideSeek_v1,2022.2.5,59.654694746818,
,0,5,4,5,4,0,21,,train_dim1_1,12,30,,,,2,0,2,0,,,,,,,,,0,0,0,0,0,11,11,11,2,0,2,0,,,,,,,,,,,,,,,,,,,,,,,,,,,,,,,,,,,,,,,,,,,,,,,,,,,,,,,,,,,,,,,,30,,,,,,,,1132.900119600119,1132.900119600119,1132.900119600119,1132.900119600119,1132.900119600119,right,0.8606113998685032,2,0,0,99,0.08,0,right,0.7753481001127511,,,,,,,,,,,,,,,,,,,,,,,,,,,,,,,,,,,,,,,,,,,,,,,,,,,,,,,,,,,,QHJMDE,train_x,blue_star,top_left,2024-12-04_16h04.25.775,HideSeek_v1,2022.2.5,59.654694746818,
,0,5,4,5,4,0,21,,train_dim1_1,12,30,,,,2,0,2,0,,,,,,,,,0,0,0,0,0,11,11,11,3,0,3,0,,,,,,,,,,,,,,,,,,,,,,,,,,,,,,,,,,,,,,,,,,,,,,,,,,,,,,,,,,,,,,,,30,,,,,,,,1133.766212000046,1133.766212000046,1133.766212000046,1133.766212000046,1133.766212000046,right,0.6097726000007242,2,0,0,99,0.16,0,right,0.5323858000338078,,,,,,,,,,,,,,,,,,,,,,,,,,,,,,,,,,,,,,,,,,,,,,,,,,,,,,,,,,,,QHJMDE,train_x,blue_star,top_left,2024-12-04_16h04.25.775,HideSeek_v1,2022.2.5,59.654694746818,
,0,5,4,5,4,0,21,,train_dim1_1,12,30,,,,2,0,2,0,,,,,,,,,0,0,0,0,0,11,11,11,4,0,4,0,,,,,,,,,,,,,,,,,,,,,,,,,,,,,,,,,,,,,,,,,,,,,,,,,,,,,,,,,,,,,,,,30,,,,,,,,1134.3896728002,1134.3896728002,1134.3896728002,1134.3896728002,1134.3896728002,return,1.1771847000345588,3,0,0,1,0.16,0,return,1.0920832997653633,5,22,0.16,0,,,,,,,,,,,,,,,,,,,,,,,,,,,,,,,,,,,,,,,,,,,,,,,,,,,,,,,,QHJMDE,train_x,blue_star,top_left,2024-12-04_16h04.25.775,HideSeek_v1,2022.2.5,59.654694746818,
,0,9,1,9,1,0,51,,train_dim1_1,13,30,,,,2,0,2,0,,,,,,,,,0,0,0,0,0,12,12,12,0,0,0,0,,,,,,,,,,,,,,,,,,,,,,,,,stimuli/alien_stimuli/51.png,,,,,,,,,,,,,,,,,,,,,,,,,,,,,stimuli/alien_stimuli/21.png,21,0,14,,,,,,,30,,,,,,,,1140.7976099001244,1140.7976099001244,1140.7976099001244,1140.7976099001244,1140.7976099001244,right,1.2378976999316365,3,0,0,99,-0.08,0.32,right,1.1416463998612016,,,,,1139.2194503000937,1140.7976099001244,0.16,0,0.0,0.32,0.0,0.16,0.0,0.16,0,1137.1495315001812,1137.1495315001812,1137.1495315001812,1137.1495315001812,1137.1495315001812,1137.1495315001812,1137.1495315001812,1137.1495315001812,1137.1347506801133,2.204230400035158,return,2.0543091997969896,,,,,,,,,,,,,,,,,,,,,,,,,,,,,,,,,QHJMDE,train_x,blue_star,top_left,2024-12-04_16h04.25.775,HideSeek_v1,2022.2.5,59.654694746818,
,0,9,1,9,1,0,51,,train_dim1_1,13,30,,,,2,0,2,0,,,,,,,,,0,0,0,0,0,12,12,12,1,0,1,0,,,,,,,,,,,,,,,,,,,,,,,,,,,,,,,,,,,,,,,,,,,,,,,,,,,,,,,,,,,,,,,,30,,,,,,,,1142.025192100089,1142.025192100089,1142.025192100089,1142.025192100089,1142.025192100089,right,0.5931998000014573,3,0,0,99,0.0,0.32,right,0.5026574998628348,,,,,,,,,,,,,,,,,,,,,,,,,,,,,,,,,,,,,,,,,,,,,,,,,,,,,,,,,,,,QHJMDE,train_x,blue_star,top_left,2024-12-04_16h04.25.775,HideSeek_v1,2022.2.5,59.654694746818,
,0,9,1,9,1,0,51,,train_dim1_1,13,30,,,,2,0,2,0,,,,,,,,,0,0,0,0,0,12,12,12,2,0,2,0,,,,,,,,,,,,,,,,,,,,,,,,,,,,,,,,,,,,,,,,,,,,,,,,,,,,,,,,,,,,,,,,30,,,,,,,,1142.623303100001,1142.623303100001,1142.623303100001,1142.623303100001,1142.623303100001,right,0.44334799982607365,3,0,0,99,0.08,0.32,right,0.3599309998098761,,,,,,,,,,,,,,,,,,,,,,,,,,,,,,,,,,,,,,,,,,,,,,,,,,,,,,,,,,,,QHJMDE,train_x,blue_star,top_left,2024-12-04_16h04.25.775,HideSeek_v1,2022.2.5,59.654694746818,
,0,9,1,9,1,0,51,,train_dim1_1,13,30,,,,2,0,2,0,,,,,,,,,0,0,0,0,0,12,12,12,3,0,3,0,,,,,,,,,,,,,,,,,,,,,,,,,,,,,,,,,,,,,,,,,,,,,,,,,,,,,,,,,,,,,,,,30,,,,,,,,1143.072067399975,1143.072067399975,1143.072067399975,1143.072067399975,1143.072067399975,right,0.35988350003026426,3,0,0,99,0.16,0.32,right,0.27065219986252487,,,,,,,,,,,,,,,,,,,,,,,,,,,,,,,,,,,,,,,,,,,,,,,,,,,,,,,,,,,,QHJMDE,train_x,blue_star,top_left,2024-12-04_16h04.25.775,HideSeek_v1,2022.2.5,59.654694746818,
,0,9,1,9,1,0,51,,train_dim1_1,13,30,,,,2,0,2,0,,,,,,,,,0,0,0,0,0,12,12,12,4,0,4,0,,,,,,,,,,,,,,,,,,,,,,,,,,,,,,,,,,,,,,,,,,,,,,,,,,,,,,,,,,,,,,,,30,,,,,,,,1143.4410549001768,1143.4410549001768,1143.4410549001768,1143.4410549001768,1143.4410549001768,return,0.9606194999068975,3,0,0,0,0.16,0.32,return,0.8680615997873247,5,26,0.16,0.32,,,,,,,,,,,,,,,,,,,,,,,,,,,,,,,,,,,,,,,,,,,,,,,,,,,,,,,,QHJMDE,train_x,blue_star,top_left,2024-12-04_16h04.25.775,HideSeek_v1,2022.2.5,59.654694746818,
,4,8,9,8,5,0,11,,train_dim1_1,14,30,,,,2,0,2,0,,,,,,,,,0,0,0,0,0,13,13,13,0,0,0,0,,,,,,,,,,,,,,,,,,,,,,,,,stimuli/alien_stimuli/11.png,,,,,,,,,,,,,,,,,,,,,,,,,,,,,stimuli/alien_stimuli/51.png,51,0,15,,,,,,,30,,,,,,,,1152.8460226000752,1152.8460226000752,1152.8460226000752,1152.8460226000752,1152.8460226000752,right,1.4201390000525862,3,0,0,99,0.24,0.24,right,1.3256150998640805,,,,,1151.2795632001944,1152.8460226000752,-0.08,0.32,0.0,0.08,0.32,-0.08,-0.12,-0.08,0.32,1145.9672558000311,1145.9672558000311,1145.9672558000311,1145.9672558000311,1145.9672558000311,1145.9672558000311,1145.9672558000311,1145.9672558000311,1145.958664220013,5.423608199926093,return,5.293376699788496,,,,,,,,,,,,,,,,,,,,,,,,,,,,,,,,,QHJMDE,train_x,blue_star,top_left,2024-12-04_16h04.25.775,HideSeek_v1,2022.2.5,59.654694746818,
,4,8,9,8,5,0,11,,train_dim1_1,14,30,,,,2,0,2,0,,,,,,,,,0,0,0,0,0,13,13,13,1,0,1,0,,,,,,,,,,,,,,,,,,,,,,,,,,,,,,,,,,,,,,,,,,,,,,,,,,,,,,,,,,,,,,,,30,,,,,,,,1154.2678768001497,1154.2678768001497,1154.2678768001497,1154.2678768001497,1154.2678768001497,left,1.0268914999905974,3,0,0,99,0.15999999999999998,0.24,left,0.936674099881202,,,,,,,,,,,,,,,,,,,,,,,,,,,,,,,,,,,,,,,,,,,,,,,,,,,,,,,,,,,,QHJMDE,train_x,blue_star,top_left,2024-12-04_16h04.25.775,HideSeek_v1,2022.2.5,59.654694746818,
,4,8,9,8,5,0,11,,train_dim1_1,14,30,,,,2,0,2,0,,,,,,,,,0,0,0,0,0,13,13,13,2,0,2,0,,,,,,,,,,,,,,,,,,,,,,,,,,,,,,,,,,,,,,,,,,,,,,,,,,,,,,,,,,,,,,,,30,,,,,,,,1155.3003072000574,1155.3003072000574,1155.3003072000574,1155.3003072000574,1155.3003072000574,left,0.5434673000127077,3,0,0,99,0.07999999999999997,0.24,left,0.45673509989865124,,,,,,,,,,,,,,,,,,,,,,,,,,,,,,,,,,,,,,,,,,,,,,,,,,,,,,,,,,,,QHJMDE,train_x,blue_star,top_left,2024-12-04_16h04.25.775,HideSeek_v1,2022.2.5,59.654694746818,
,4,8,9,8,5,0,11,,train_dim1_1,14,30,,,,2,0,2,0,,,,,,,,,0,0,0,0,0,13,13,13,3,0,3,0,,,,,,,,,,,,,,,,,,,,,,,,,,,,,,,,,,,,,,,,,,,,,,,,,,,,,,,,,,,,,,,,30,,,,,,,,1155.8537241001613,1155.8537241001613,1155.8537241001613,1155.8537241001613,1155.8537241001613,return,1.0273206001147628,3,0,0,0,0.07999999999999997,0.24,return,0.9389138000551611,5,25,0.07999999999999997,0.24,,,,,,,,,,,,,,,,,,,,,,,,,,,,,,,,,,,,,,,,,,,,,,,,,,,,,,,,QHJMDE,train_x,blue_star,top_left,2024-12-04_16h04.25.775,HideSeek_v1,2022.2.5,59.654694746818,
,4,7,4,7,0,0,61,,train_dim1_1,15,30,,,,2,0,2,0,,,,,,,,,0,0,0,0,0,14,14,14,0,0,0,0,,,,,,,,,,,,,,,,,,,,,,,,,stimuli/alien_stimuli/61.png,,,,,,,,,,,,,,,,,,,,,,,,,,,,,stimuli/alien_stimuli/11.png,11,4,16,,,,,,,30,,,,,,,,1163.6210692999884,1163.6210692999884,1163.6210692999884,1163.6210692999884,1163.6210692999884,right,1.1882044000085443,3,0,0,99,0.24,0.16,right,1.0880111998412758,,,,,1162.0551615001168,1163.6210692999884,0.56,0.24,0.0,0.4,0.24,0.56,0.36000000000000004,0.56,0.24,1158.464312300086,1158.464312300086,1158.464312300086,1158.464312300086,1158.464312300086,1158.464312300086,1158.464312300086,1158.464312300086,1158.4524770800956,3.7219833999406546,return,3.5592694997321814,,,,,,,,,,,,,,,,,,,,,,,,,,,,,,,,,QHJMDE,train_x,blue_star,top_left,2024-12-04_16h04.25.775,HideSeek_v1,2022.2.5,59.654694746818,
,4,7,4,7,0,0,61,,train_dim1_1,15,30,,,,2,0,2,0,,,,,,,,,0,0,0,0,0,14,14,14,1,0,1,0,,,,,,,,,,,,,,,,,,,,,,,,,,,,,,,,,,,,,,,,,,,,,,,,,,,,,,,,,,,,,,,,30,,,,,,,,1164.806440200191,1164.806440200191,1164.806440200191,1164.806440200191,1164.806440200191,right,0.9100043999496847,3,0,0,99,0.32,0.16,right,0.8197715997230262,,,,,,,,,,,,,,,,,,,,,,,,,,,,,,,,,,,,,,,,,,,,,,,,,,,,,,,,,,,,QHJMDE,train_x,blue_star,top_left,2024-12-04_16h04.25.775,HideSeek_v1,2022.2.5,59.654694746818,
,4,7,4,7,0,0,61,,train_dim1_1,15,30,,,,2,0,2,0,,,,,,,,,0,0,0,0,0,14,14,14,2,0,2,0,,,,,,,,,,,,,,,,,,,,,,,,,,,,,,,,,,,,,,,,,,,,,,,,,,,,,,,,,,,,,,,,30,,,,,,,,1165.7223439000081,1165.7223439000081,1165.7223439000081,1165.7223439000081,1165.7223439000081,left,0.7102230000309646,3,0,0,99,0.24,0.16,left,0.6361601997632533,,,,,,,,,,,,,,,,,,,,,,,,,,,,,,,,,,,,,,,,,,,,,,,,,,,,,,,,,,,,QHJMDE,train_x,blue_star,top_left,2024-12-04_16h04.25.775,HideSeek_v1,2022.2.5,59.654694746818,
,4,7,4,7,0,0,61,,train_dim1_1,15,30,,,,2,0,2,0,,,,,,,,,0,0,0,0,0,14,14,14,3,0,3,0,,,,,,,,,,,,,,,,,,,,,,,,,,,,,,,,,,,,,,,,,,,,,,,,,,,,,,,,,,,,,,,,30,,,,,,,,1166.4398560000118,1166.4398560000118,1166.4398560000118,1166.4398560000118,1166.4398560000118,left,0.4768338999710977,3,0,0,99,0.15999999999999998,0.16,left,0.4005748999770731,,,,,,,,,,,,,,,,,,,,,,,,,,,,,,,,,,,,,,,,,,,,,,,,,,,,,,,,,,,,QHJMDE,train_x,blue_star,top_left,2024-12-04_16h04.25.775,HideSeek_v1,2022.2.5,59.654694746818,
,4,7,4,7,0,0,61,,train_dim1_1,15,30,,,,2,0,2,0,,,,,,,,,0,0,0,0,0,14,14,14,4,0,4,0,,,,,,,,,,,,,,,,,,,,,,,,,,,,,,,,,,,,,,,,,,,,,,,,,,,,,,,,,,,,,,,,30,,,,,,,,1166.9260786999948,1166.9260786999948,1166.9260786999948,1166.9260786999948,1166.9260786999948,return,1.060279699973762,4,0,0,1,0.15999999999999998,0.16,return,0.9695786000229418,5,25,0.15999999999999998,0.16,,,,,,,,,,,,,,,,,,,,,,,,,,,,,,,,,,,,,,,,,,,,,,,,,,,,,,,,QHJMDE,train_x,blue_star,top_left,2024-12-04_16h04.25.775,HideSeek_v1,2022.2.5,59.654694746818,
,3,8,4,8,1,0,51,,train_dim1_1,16,30,,,,2,0,2,0,,,,,,,,,0,0,0,0,0,15,15,15,0,0,0,0,,,,,,,,,,,,,,,,,,,,,,,,,stimuli/alien_stimuli/51.png,,,,,,,,,,,,,,,,,,,,,,,,,,,,,stimuli/alien_stimuli/61.png,61,4,17,,,,,,,30,,,,,,,,1175.6124638000038,1175.6124638000038,1175.6124638000038,1175.6124638000038,1175.6124638000038,right,2.022813499905169,4,0,0,99,0.16,0.24,right,1.9376222998835146,,,,,1174.0484768000897,1175.6124638000038,0.16,0.16,0.0,0.0,0.16,0.16,0.16,0.16,0.16,1169.5678444001824,1169.5678444001824,1169.5678444001824,1169.5678444001824,1169.5678444001824,1169.5678444001824,1169.5678444001824,1169.5678444001824,1169.5617199801375,4.6062970999628305,return,4.4604070000350475,,,,,,,,,,,,,,,,,,,,,,,,,,,,,,,,,QHJMDE,train_x,blue_star,top_left,2024-12-04_16h04.25.775,HideSeek_v1,2022.2.5,59.654694746818,
,3,8,4,8,1,0,51,,train_dim1_1,16,30,,,,2,0,2,0,,,,,,,,,0,0,0,0,0,15,15,15,1,0,1,0,,,,,,,,,,,,,,,,,,,,,,,,,,,,,,,,,,,,,,,,,,,,,,,,,,,,,,,,,,,,,,,,30,,,,,,,,1177.634524699999,1177.634524699999,1177.634524699999,1177.634524699999,1177.634524699999,right,1.0603537000715733,4,0,0,99,0.24,0.24,right,0.9725052998401225,,,,,,,,,,,,,,,,,,,,,,,,,,,,,,,,,,,,,,,,,,,,,,,,,,,,,,,,,,,,QHJMDE,train_x,blue_star,top_left,2024-12-04_16h04.25.775,HideSeek_v1,2022.2.5,59.654694746818,
,3,8,4,8,1,0,51,,train_dim1_1,16,30,,,,2,0,2,0,,,,,,,,,0,0,0,0,0,15,15,15,2,0,2,0,,,,,,,,,,,,,,,,,,,,,,,,,,,,,,,,,,,,,,,,,,,,,,,,,,,,,,,,,,,,,,,,30,,,,,,,,1178.7066652001813,1178.7066652001813,1178.7066652001813,1178.7066652001813,1178.7066652001813,return,1.1404981999658048,4,1,0,0,0.24,0.24,return,1.051366499857977,5,27,0.24,0.24,,,,,,,,,,,,,,,,,,,,,,,,,,,,,,,,,,,,,,,,,,,,,,,,,,,,,,,,QHJMDE,train_x,blue_star,top_left,2024-12-04_16h04.25.775,HideSeek_v1,2022.2.5,59.654694746818,
,2,9,6,9,4,0,21,,train_dim1_1,17,30,,,,2,0,2,0,,,,,,,,,0,0,0,0,0,16,16,16,0,0,0,0,,,,,,,,,,,,,,,,,,,,,,,,,stimuli/alien_stimuli/21.png,,,,,,,,,,,,,,,,,,,,,,,,,,,,,stimuli/alien_stimuli/51.png,51,3,18,,,,,,,30,,,,,,,,1186.8634191001765,1186.8634191001765,1186.8634191001765,1186.8634191001765,1186.8634191001765,right,1.5699171000160277,4,1,0,99,0.08,0.32,right,1.4715634998865426,,,,,1185.2911386000924,1186.8634191001765,0.16,0.24,0.0,0.08,0.24,0.16,0.12,0.16,0.24,1181.4274575000163,1181.4274575000163,1181.4274575000163,1181.4274575000163,1181.4274575000163,1181.4274575000163,1181.4274575000163,1181.4274575000163,1181.4214776801412,3.98876510001719,return,3.832109599839896,,,,,,,,,,,,,,,,,,,,,,,,,,,,,,,,,QHJMDE,train_x,blue_star,top_left,2024-12-04_16h04.25.775,HideSeek_v1,2022.2.5,59.654694746818,
,2,9,6,9,4,0,21,,train_dim1_1,17,30,,,,2,0,2,0,,,,,,,,,0,0,0,0,0,16,16,16,1,0,1,0,,,,,,,,,,,,,,,,,,,,,,,,,,,,,,,,,,,,,,,,,,,,,,,,,,,,,,,,,,,,,,,,30,,,,,,,,1188.4292727999855,1188.4292727999855,1188.4292727999855,1188.4292727999855,1188.4292727999855,right,1.1935902999248356,4,1,0,99,0.16,0.32,right,1.1087447998579592,,,,,,,,,,,,,,,,,,,,,,,,,,,,,,,,,,,,,,,,,,,,,,,,,,,,,,,,,,,,QHJMDE,train_x,blue_star,top_left,2024-12-04_16h04.25.775,HideSeek_v1,2022.2.5,59.654694746818,
,2,9,6,9,4,0,21,,train_dim1_1,17,30,,,,2,0,2,0,,,,,,,,,0,0,0,0,0,16,16,16,2,0,2,0,,,,,,,,,,,,,,,,,,,,,,,,,,,,,,,,,,,,,,,,,,,,,,,,,,,,,,,,,,,,,,,,30,,,,,,,,1189.6300419000909,1189.6300419000909,1189.6300419000909,1189.6300419000909,1189.6300419000909,right,0.40981470001861453,4,1,0,99,0.24,0.32,right,0.31895849970169365,,,,,,,,,,,,,,,,,,,,,,,,,,,,,,,,,,,,,,,,,,,,,,,,,,,,,,,,,,,,QHJMDE,train_x,blue_star,top_left,2024-12-04_16h04.25.775,HideSeek_v1,2022.2.5,59.654694746818,
,2,9,6,9,4,0,21,,train_dim1_1,17,30,,,,2,0,2,0,,,,,,,,,0,0,0,0,0,16,16,16,3,0,3,0,,,,,,,,,,,,,,,,,,,,,,,,,,,,,,,,,,,,,,,,,,,,,,,,,,,,,,,,,,,,,,,,30,,,,,,,,1190.0494026001543,1190.0494026001543,1190.0494026001543,1190.0494026001543,1190.0494026001543,return,0.5436033001169562,4,1,0,0,0.24,0.32,return,0.4577877998817712,5,30,0.24,0.32,,,,,,,,,,,,,,,,,,,,,,,,,,,,,,,,,,,,,,,,,,,,,,,,,,,,,,,,QHJMDE,train_x,blue_star,top_left,2024-12-04_16h04.25.775,HideSeek_v1,2022.2.5,59.654694746818,
,2,6,2,6,0,0,61,,train_dim1_1,18,30,,,,2,0,2,0,,,,,,,,,0,0,0,0,0,17,17,17,0,0,0,0,,,,,,,,,,,,,,,,,,,,,,,,,stimuli/alien_stimuli/61.png,,,,,,,,,,,,,,,,,,,,,,,,,,,,,stimuli/alien_stimuli/21.png,21,2,19,,,,,,,30,,,,,,,,1197.1277868000325,1197.1277868000325,1197.1277868000325,1197.1277868000325,1197.1277868000325,right,1.2053155000321567,4,1,0,99,0.08,0.08,right,1.1138495998457074,,,,,1195.5665818001144,1197.1277868000325,0.32,0.32,0.0,0.32,0.32,0.32,0.16,0.32,0.32,1192.1731012000237,1192.1731012000237,1192.1731012000237,1192.1731012000237,1192.1731012000237,1192.1731012000237,1192.1731012000237,1192.1731012000237,1192.1638700799551,3.5217834999784827,return,3.3755466998554766,,,,,,,,,,,,,,,,,,,,,,,,,,,,,,,,,QHJMDE,train_x,blue_star,top_left,2024-12-04_16h04.25.775,HideSeek_v1,2022.2.5,59.654694746818,
,2,6,2,6,0,0,61,,train_dim1_1,18,30,,,,2,0,2,0,,,,,,,,,0,0,0,0,0,17,17,17,1,0,1,0,,,,,,,,,,,,,,,,,,,,,,,,,,,,,,,,,,,,,,,,,,,,,,,,,,,,,,,,,,,,,,,,30,,,,,,,,1198.3328745001927,1198.3328745001927,1198.3328745001927,1198.3328745001927,1198.3328745001927,right,0.5763548000250012,4,1,0,99,0.16,0.08,right,0.49565229984000325,,,,,,,,,,,,,,,,,,,,,,,,,,,,,,,,,,,,,,,,,,,,,,,,,,,,,,,,,,,,QHJMDE,train_x,blue_star,top_left,2024-12-04_16h04.25.775,HideSeek_v1,2022.2.5,59.654694746818,
,2,6,2,6,0,0,61,,train_dim1_1,18,30,,,,2,0,2,0,,,,,,,,,0,0,0,0,0,17,17,17,2,0,2,0,,,,,,,,,,,,,,,,,,,,,,,,,,,,,,,,,,,,,,,,,,,,,,,,,,,,,,,,,,,,,,,,30,,,,,,,,1198.915330100106,1198.915330100106,1198.915330100106,1198.915330100106,1198.915330100106,left,1.293843800202012,4,1,0,99,0.08,0.08,left,1.221034900052473,,,,,,,,,,,,,,,,,,,,,,,,,,,,,,,,,,,,,,,,,,,,,,,,,,,,,,,,,,,,QHJMDE,train_x,blue_star,top_left,2024-12-04_16h04.25.775,HideSeek_v1,2022.2.5,59.654694746818,
,2,6,2,6,0,0,61,,train_dim1_1,18,30,,,,2,0,2,0,,,,,,,,,0,0,0,0,0,17,17,17,3,0,3,0,,,,,,,,,,,,,,,,,,,,,,,,,,,,,,,,,,,,,,,,,,,,,,,,,,,,,,,,,,,,,,,,30,,,,,,,,1200.2170640002005,1200.2170640002005,1200.2170640002005,1200.2170640002005,1200.2170640002005,left,0.3434133999980986,4,1,0,99,0.0,0.08,left,0.27064449968747795,,,,,,,,,,,,,,,,,,,,,,,,,,,,,,,,,,,,,,,,,,,,,,,,,,,,,,,,,,,,QHJMDE,train_x,blue_star,top_left,2024-12-04_16h04.25.775,HideSeek_v1,2022.2.5,59.654694746818,
,2,6,2,6,0,0,61,,train_dim1_1,18,30,,,,2,0,2,0,,,,,,,,,0,0,0,0,0,17,17,17,4,0,4,0,,,,,,,,,,,,,,,,,,,,,,,,,,,,,,,,,,,,,,,,,,,,,,,,,,,,,,,,,,,,,,,,30,,,,,,,,1200.5676041999832,1200.5676041999832,1200.5676041999832,1200.5676041999832,1200.5676041999832,return,0.5938384998589754,5,0,0,1,0.0,0.08,return,0.5138834998942912,5,30,0.0,0.08,,,,,,,,,,,,,,,,,,,,,,,,,,,,,,,,,,,,,,,,,,,,,,,,,,,,,,,,QHJMDE,train_x,blue_star,top_left,2024-12-04_16h04.25.775,HideSeek_v1,2022.2.5,59.654694746818,
,0,8,3,8,3,0,31,,train_dim1_1,19,30,,,,2,0,2,0,,,,,,,,,0,0,0,0,0,18,18,18,0,0,0,0,,,,,,,,,,,,,,,,,,,,,,,,,stimuli/alien_stimuli/31.png,,,,,,,,,,,,,,,,,,,,,,,,,,,,,stimuli/alien_stimuli/61.png,61,2,20,,,,,,,30,,,,,,,,1207.106021700194,1207.106021700194,1207.106021700194,1207.106021700194,1207.106021700194,right,0.9377629000227898,5,0,0,99,-0.08,0.24,right,0.8410805000457913,,,,,1205.541275100084,1207.106021700194,0,0.08,0.0,0.0,0.08,0,0.0,0,0.08,1202.7470486999955,1202.7470486999955,1202.7470486999955,1202.7470486999955,1202.7470486999955,1202.7470486999955,1202.7470486999955,1202.7470486999955,1202.7392271799501,2.9213463000487536,return,2.7698547998443246,,,,,,,,,,,,,,,,,,,,,,,,,,,,,,,,,QHJMDE,train_x,blue_star,top_left,2024-12-04_16h04.25.775,HideSeek_v1,2022.2.5,59.654694746818,
,0,8,3,8,3,0,31,,train_dim1_1,19,30,,,,2,0,2,0,,,,,,,,,0,0,0,0,0,18,18,18,1,0,1,0,,,,,,,,,,,,,,,,,,,,,,,,,,,,,,,,,,,,,,,,,,,,,,,,,,,,,,,,,,,,,,,,30,,,,,,,,1208.0456286000554,1208.0456286000554,1208.0456286000554,1208.0456286000554,1208.0456286000554,right,0.45935970009304583,5,0,0,99,0.0,0.24,right,0.3697403999976814,,,,,,,,,,,,,,,,,,,,,,,,,,,,,,,,,,,,,,,,,,,,,,,,,,,,,,,,,,,,QHJMDE,train_x,blue_star,top_left,2024-12-04_16h04.25.775,HideSeek_v1,2022.2.5,59.654694746818,
,0,8,3,8,3,0,31,,train_dim1_1,19,30,,,,2,0,2,0,,,,,,,,,0,0,0,0,0,18,18,18,2,0,2,0,,,,,,,,,,,,,,,,,,,,,,,,,,,,,,,,,,,,,,,,,,,,,,,,,,,,,,,,,,,,,,,,30,,,,,,,,1208.5113666001707,1208.5113666001707,1208.5113666001707,1208.5113666001707,1208.5113666001707,right,0.42705700010992587,5,0,0,99,0.08,0.24,right,0.3453237998764962,,,,,,,,,,,,,,,,,,,,,,,,,,,,,,,,,,,,,,,,,,,,,,,,,,,,,,,,,,,,QHJMDE,train_x,blue_star,top_left,2024-12-04_16h04.25.775,HideSeek_v1,2022.2.5,59.654694746818,
,0,8,3,8,3,0,31,,train_dim1_1,19,30,,,,2,0,2,0,,,,,,,,,0,0,0,0,0,18,18,18,3,0,3,0,,,,,,,,,,,,,,,,,,,,,,,,,,,,,,,,,,,,,,,,,,,,,,,,,,,,,,,,,,,,,,,,30,,,,,,,,1208.9409307001624,1208.9409307001624,1208.9409307001624,1208.9409307001624,1208.9409307001624,right,1.1603508999105543,5,0,0,99,0.16,0.24,right,1.0842780999373645,,,,,,,,,,,,,,,,,,,,,,,,,,,,,,,,,,,,,,,,,,,,,,,,,,,,,,,,,,,,QHJMDE,train_x,blue_star,top_left,2024-12-04_16h04.25.775,HideSeek_v1,2022.2.5,59.654694746818,
,0,8,3,8,3,0,31,,train_dim1_1,19,30,,,,2,0,2,0,,,,,,,,,0,0,0,0,0,18,18,18,4,0,4,0,,,,,,,,,,,,,,,,,,,,,,,,,,,,,,,,,,,,,,,,,,,,,,,,,,,,,,,,,,,,,,,,30,,,,,,,,1210.1093572999816,1210.1093572999816,1210.1093572999816,1210.1093572999816,1210.1093572999816,right,0.5434555001556873,5,0,0,99,0.24,0.24,right,0.46996019990183413,,,,,,,,,,,,,,,,,,,,,,,,,,,,,,,,,,,,,,,,,,,,,,,,,,,,,,,,,,,,QHJMDE,train_x,blue_star,top_left,2024-12-04_16h04.25.775,HideSeek_v1,2022.2.5,59.654694746818,
,0,8,3,8,3,0,31,,train_dim1_1,19,30,,,,2,0,2,0,,,,,,,,,0,0,0,0,0,18,18,18,5,0,5,0,,,,,,,,,,,,,,,,,,,,,,,,,,,,,,,,,,,,,,,,,,,,,,,,,,,,,,,,,,,,,,,,30,,,,,,,,1210.6602937001735,1210.6602937001735,1210.6602937001735,1210.6602937001735,1210.6602937001735,return,0.49284199997782707,5,0,0,0,0.24,0.24,return,0.4195788998622447,5,35,0.24,0.24,,,,,,,,,,,,,,,,,,,,,,,,,,,,,,,,,,,,,,,,,,,,,,,,,,,,,,,,QHJMDE,train_x,blue_star,top_left,2024-12-04_16h04.25.775,HideSeek_v1,2022.2.5,59.654694746818,
,0,6,5,6,5,0,11,,train_dim1_1,20,30,,,,2,0,2,0,,,,,,,,,0,0,0,0,0,19,19,19,0,0,0,0,,,,,,,,,,,,,,,,,,,,,,,,,stimuli/alien_stimuli/11.png,,,,,,,,,,,,,,,,,,,,,,,,,,,,,stimuli/alien_stimuli/31.png,31,0,21,,,,,,,30,,,,,,,,1231.1644160000142,1231.1644160000142,1231.1644160000142,1231.1644160000142,1231.1644160000142,right,1.487710100132972,5,0,0,99,-0.08,0.08,right,1.395631300052628,,,,,1229.594933600165,1231.1644160000142,0.08,0.24,0.0,0.24,0.24,0.08,-0.04,0.08,0.24,1212.7192673000973,1212.7192673000973,1212.7192673000973,1212.7192673000973,1212.7192673000973,1212.7192673000973,1212.7192673000973,1212.7192673000973,1212.6977459600662,16.9834211000707,return,16.859039299888536,,,,,,,,,,,,,,,,,,,,,,,,,,,,,,,,,QHJMDE,train_x,blue_star,top_left,2024-12-04_16h04.25.775,HideSeek_v1,2022.2.5,59.654694746818,
,0,6,5,6,5,0,11,,train_dim1_1,20,30,,,,2,0,2,0,,,,,,,,,0,0,0,0,0,19,19,19,1,0,1,0,,,,,,,,,,,,,,,,,,,,,,,,,,,,,,,,,,,,,,,,,,,,,,,,,,,,,,,,,,,,,,,,30,,,,,,,,1232.6494803000242,1232.6494803000242,1232.6494803000242,1232.6494803000242,1232.6494803000242,right,0.4766031999606639,5,0,0,99,0.0,0.08,right,0.3916025999933481,,,,,,,,,,,,,,,,,,,,,,,,,,,,,,,,,,,,,,,,,,,,,,,,,,,,,,,,,,,,QHJMDE,train_x,blue_star,top_left,2024-12-04_16h04.25.775,HideSeek_v1,2022.2.5,59.654694746818,
,0,6,5,6,5,0,11,,train_dim1_1,20,30,,,,2,0,2,0,,,,,,,,,0,0,0,0,0,19,19,19,2,0,2,0,,,,,,,,,,,,,,,,,,,,,,,,,,,,,,,,,,,,,,,,,,,,,,,,,,,,,,,,,,,,,,,,30,,,,,,,,1233.132454500068,1233.132454500068,1233.132454500068,1233.132454500068,1233.132454500068,right,0.4261916000396013,5,0,0,99,0.08,0.08,right,0.339103999780491,,,,,,,,,,,,,,,,,,,,,,,,,,,,,,,,,,,,,,,,,,,,,,,,,,,,,,,,,,,,QHJMDE,train_x,blue_star,top_left,2024-12-04_16h04.25.775,HideSeek_v1,2022.2.5,59.654694746818,
,0,6,5,6,5,0,11,,train_dim1_1,20,30,,,,2,0,2,0,,,,,,,,,0,0,0,0,0,19,19,19,3,0,3,0,,,,,,,,,,,,,,,,,,,,,,,,,,,,,,,,,,,,,,,,,,,,,,,,,,,,,,,,,,,,,,,,30,,,,,,,,1233.578083400149,1233.578083400149,1233.578083400149,1233.578083400149,1233.578083400149,right,0.6269120001234114,5,0,0,99,0.16,0.08,right,0.5286260999273509,,,,,,,,,,,,,,,,,,,,,,,,,,,,,,,,,,,,,,,,,,,,,,,,,,,,,,,,,,,,QHJMDE,train_x,blue_star,top_left,2024-12-04_16h04.25.775,HideSeek_v1,2022.2.5,59.654694746818,
,0,6,5,6,5,0,11,,train_dim1_1,20,30,,,,2,0,2,0,,,,,,,,,0,0,0,0,0,19,19,19,4,0,4,0,,,,,,,,,,,,,,,,,,,,,,,,,,,,,,,,,,,,,,,,,,,,,,,,,,,,,,,,,,,,,,,,30,,,,,,,,1234.200043000048,1234.200043000048,1234.200043000048,1234.200043000048,1234.200043000048,return,0.8938440000638366,5,1,0,0,0.16,0.08,return,0.8154936998616904,5,39,0.16,0.08,,,,,,,,,,,,,,,,,,,,,,,,,,,,,,,,,,,,,,,,,,,,,,,,,,,,,,,,QHJMDE,train_x,blue_star,top_left,2024-12-04_16h04.25.775,HideSeek_v1,2022.2.5,59.654694746818,
,4,7,7,7,3,0,31,,train_dim1_1,21,30,,,,2,0,2,0,,,,,,,,,0,0,0,0,0,20,20,20,0,0,0,0,,,,,,,,,,,,,,,,,,,,,,,,,stimuli/alien_stimuli/31.png,,,,,,,,,,,,,,,,,,,,,,,,,,,,,stimuli/alien_stimuli/11.png,11,0,22,,,,,,,30,,,,,,,,1239.6801687001716,1239.6801687001716,1239.6801687001716,1239.6801687001716,1239.6801687001716,right,1.071708400035277,5,1,0,99,0.24,0.16,right,0.9652652000077069,,,,,1238.1017564001959,1239.6801687001716,0.24,0.08,0.0,0.4,0.08,0.24,0.039999999999999994,0.24,0.08,1236.6792531001847,1236.6792531001847,1236.6792531001847,1236.6792531001847,1236.6792531001847,1236.6792531001847,1236.6792531001847,1236.6792531001847,1236.6673597801012,1.5537076999899,return,1.3992549998220056,,,,,,,,,,,,,,,,,,,,,,,,,,,,,,,,,QHJMDE,train_x,blue_star,top_left,2024-12-04_16h04.25.775,HideSeek_v1,2022.2.5,59.654694746818,
,4,7,7,7,3,0,31,,train_dim1_1,21,30,,,,2,0,2,0,,,,,,,,,0,0,0,0,0,20,20,20,1,0,1,0,,,,,,,,,,,,,,,,,,,,,,,,,,,,,,,,,,,,,,,,,,,,,,,,,,,,,,,,,,,,,,,,30,,,,,,,,1240.7352603001054,1240.7352603001054,1240.7352603001054,1240.7352603001054,1240.7352603001054,left,1.109950799960643,5,1,0,99,0.15999999999999998,0.16,left,1.029970299685374,,,,,,,,,,,,,,,,,,,,,,,,,,,,,,,,,,,,,,,,,,,,,,,,,,,,,,,,,,,,QHJMDE,train_x,blue_star,top_left,2024-12-04_16h04.25.775,HideSeek_v1,2022.2.5,59.654694746818,
,4,7,7,7,3,0,31,,train_dim1_1,21,30,,,,2,0,2,0,,,,,,,,,0,0,0,0,0,20,20,20,2,0,2,0,,,,,,,,,,,,,,,,,,,,,,,,,,,,,,,,,,,,,,,,,,,,,,,,,,,,,,,,,,,,,,,,30,,,,,,,,1241.851775499992,1241.851775499992,1241.851775499992,1241.851775499992,1241.851775499992,left,0.5768472000490874,5,1,0,99,0.07999999999999997,0.16,left,0.5033590998500586,,,,,,,,,,,,,,,,,,,,,,,,,,,,,,,,,,,,,,,,,,,,,,,,,,,,,,,,,,,,QHJMDE,train_x,blue_star,top_left,2024-12-04_16h04.25.775,HideSeek_v1,2022.2.5,59.654694746818,
,4,7,7,7,3,0,31,,train_dim1_1,21,30,,,,2,0,2,0,,,,,,,,,0,0,0,0,0,20,20,20,3,0,3,0,,,,,,,,,,,,,,,,,,,,,,,,,,,,,,,,,,,,,,,,,,,,,,,,,,,,,,,,,,,,,,,,30,,,,,,,,1242.4389167001937,1242.4389167001937,1242.4389167001937,1242.4389167001937,1242.4389167001937,left,0.5270690999459475,5,1,0,99,-2.7755575615628914e-17,0.16,left,0.44706769986078143,,,,,,,,,,,,,,,,,,,,,,,,,,,,,,,,,,,,,,,,,,,,,,,,,,,,,,,,,,,,QHJMDE,train_x,blue_star,top_left,2024-12-04_16h04.25.775,HideSeek_v1,2022.2.5,59.654694746818,
,4,7,7,7,3,0,31,,train_dim1_1,21,30,,,,2,0,2,0,,,,,,,,,0,0,0,0,0,20,20,20,4,0,4,0,,,,,,,,,,,,,,,,,,,,,,,,,,,,,,,,,,,,,,,,,,,,,,,,,,,,,,,,,,,,,,,,30,,,,,,,,1242.9716366999783,1242.9716366999783,1242.9716366999783,1242.9716366999783,1242.9716366999783,return,0.47655000002123415,5,0,0,0,-2.7755575615628914e-17,0.16,return,0.39688849984668195,5,37,-2.7755575615628914e-17,0.16,,,,,,,,,,,,,,,,,,,,,,,,,,,,,,,,,,,,,,,,,,,,,,,,,,,,,,,,QHJMDE,train_x,blue_star,top_left,2024-12-04_16h04.25.775,HideSeek_v1,2022.2.5,59.654694746818,
,1,5,5,5,4,0,21,,train_dim1_1,22,30,,,,2,0,2,0,,,,,,,,,0,0,0,0,0,21,21,21,0,0,0,0,,,,,,,,,,,,,,,,,,,,,,,,,stimuli/alien_stimuli/21.png,,,,,,,,,,,,,,,,,,,,,,,,,,,,,stimuli/alien_stimuli/31.png,31,4,23,,,,,,,30,,,,,,,,1248.958275000099,1248.958275000099,1248.958275000099,1248.958275000099,1248.958275000099,right,1.2052396000362933,5,0,0,99,0.0,0,right,1.0900546999182552,,,,,1247.3761578002013,1248.958275000099,0.4,0.16,0.0,0.24,0.16,0.4,0.28,0.4,0.16,1245.012565500103,1245.012565500103,1245.012565500103,1245.012565500103,1245.012565500103,1245.012565500103,1245.012565500103,1245.012565500103,1244.991007160023,2.4707937999628484,return,2.336905299918726,,,,,,,,,,,,,,,,,,,,,,,,,,,,,,,,,QHJMDE,train_x,blue_star,top_left,2024-12-04_16h04.25.775,HideSeek_v1,2022.2.5,59.654694746818,
,1,5,5,5,4,0,21,,train_dim1_1,22,30,,,,2,0,2,0,,,,,,,,,0,0,0,0,0,21,21,21,1,0,1,0,,,,,,,,,,,,,,,,,,,,,,,,,,,,,,,,,,,,,,,,,,,,,,,,,,,,,,,,,,,,,,,,30,,,,,,,,1250.1495789000764,1250.1495789000764,1250.1495789000764,1250.1495789000764,1250.1495789000764,right,0.4078427997883409,5,0,0,99,0.08,0,right,0.32093409984372556,,,,,,,,,,,,,,,,,,,,,,,,,,,,,,,,,,,,,,,,,,,,,,,,,,,,,,,,,,,,QHJMDE,train_x,blue_star,top_left,2024-12-04_16h04.25.775,HideSeek_v1,2022.2.5,59.654694746818,
,1,5,5,5,4,0,21,,train_dim1_1,22,30,,,,2,0,2,0,,,,,,,,,0,0,0,0,0,21,21,21,2,0,2,0,,,,,,,,,,,,,,,,,,,,,,,,,,,,,,,,,,,,,,,,,,,,,,,,,,,,,,,,,,,,,,,,30,,,,,,,,1250.5636692000553,1250.5636692000553,1250.5636692000553,1250.5636692000553,1250.5636692000553,right,0.3437906999606639,5,0,0,99,0.16,0,right,0.26291249971836805,,,,,,,,,,,,,,,,,,,,,,,,,,,,,,,,,,,,,,,,,,,,,,,,,,,,,,,,,,,,QHJMDE,train_x,blue_star,top_left,2024-12-04_16h04.25.775,HideSeek_v1,2022.2.5,59.654694746818,
,1,5,5,5,4,0,21,,train_dim1_1,22,30,,,,2,0,2,0,,,,,,,,,0,0,0,0,0,21,21,21,3,0,3,0,,,,,,,,,,,,,,,,,,,,,,,,,,,,,,,,,,,,,,,,,,,,,,,,,,,,,,,,,,,,,,,,30,,,,,,,,1250.9162431000732,1250.9162431000732,1250.9162431000732,1250.9162431000732,1250.9162431000732,right,0.3593594999983907,5,0,0,99,0.24,0,right,0.27154049975797534,,,,,,,,,,,,,,,,,,,,,,,,,,,,,,,,,,,,,,,,,,,,,,,,,,,,,,,,,,,,QHJMDE,train_x,blue_star,top_left,2024-12-04_16h04.25.775,HideSeek_v1,2022.2.5,59.654694746818,
,1,5,5,5,4,0,21,,train_dim1_1,22,30,,,,2,0,2,0,,,,,,,,,0,0,0,0,0,21,21,21,4,0,4,0,,,,,,,,,,,,,,,,,,,,,,,,,,,,,,,,,,,,,,,,,,,,,,,,,,,,,,,,,,,,,,,,30,,,,,,,,1251.2840326000005,1251.2840326000005,1251.2840326000005,1251.2840326000005,1251.2840326000005,right,0.49323069979436696,5,0,0,99,0.32,0,right,0.4104819998610765,,,,,,,,,,,,,,,,,,,,,,,,,,,,,,,,,,,,,,,,,,,,,,,,,,,,,,,,,,,,QHJMDE,train_x,blue_star,top_left,2024-12-04_16h04.25.775,HideSeek_v1,2022.2.5,59.654694746818,
,1,5,5,5,4,0,21,,train_dim1_1,22,30,,,,2,0,2,0,,,,,,,,,0,0,0,0,0,21,21,21,5,0,5,0,,,,,,,,,,,,,,,,,,,,,,,,,,,,,,,,,,,,,,,,,,,,,,,,,,,,,,,,,,,,,,,,30,,,,,,,,1251.7851073001511,1251.7851073001511,1251.7851073001511,1251.7851073001511,1251.7851073001511,return,0.42677769996225834,5,1,0,0,0.32,0,return,0.3440421998966485,5,42,0.32,0,,,,,,,,,,,,,,,,,,,,,,,,,,,,,,,,,,,,,,,,,,,,,,,,,,,,,,,,QHJMDE,train_x,blue_star,top_left,2024-12-04_16h04.25.775,HideSeek_v1,2022.2.5,59.654694746818,
,2,6,2,6,0,0,61,,train_dim1_1,23,30,,,,2,0,2,0,,,,,,,,,0,0,0,0,0,22,22,22,0,0,0,0,,,,,,,,,,,,,,,,,,,,,,,,,stimuli/alien_stimuli/61.png,,,,,,,,,,,,,,,,,,,,,,,,,,,,,stimuli/alien_stimuli/21.png,21,1,24,,,,,,,30,,,,,,,,1256.268459000159,1256.268459000159,1256.268459000159,1256.268459000159,1256.268459000159,right,0.8865824998356402,5,1,0,99,0.08,0.08,right,0.7821612998377532,,,,,1254.6820676000789,1256.268459000159,0.24,0,0.0,0.32,0.0,0.24,0.07999999999999999,0.24,0,1253.7840343001299,1253.7840343001299,1253.7840343001299,1253.7840343001299,1253.7840343001299,1253.7840343001299,1253.7840343001299,1253.7840343001299,1253.7649661199657,1.0200346000492573,return,0.877733499975875,,,,,,,,,,,,,,,,,,,,,,,,,,,,,,,,,QHJMDE,train_x,blue_star,top_left,2024-12-04_16h04.25.775,HideSeek_v1,2022.2.5,59.654694746818,
,2,6,2,6,0,0,61,,train_dim1_1,23,30,,,,2,0,2,0,,,,,,,,,0,0,0,0,0,22,22,22,1,0,1,0,,,,,,,,,,,,,,,,,,,,,,,,,,,,,,,,,,,,,,,,,,,,,,,,,,,,,,,,,,,,,,,,30,,,,,,,,1257.135703700129,1257.135703700129,1257.135703700129,1257.135703700129,1257.135703700129,left,0.7094705000054091,5,1,0,99,0.0,0.08,left,0.6273521997500211,,,,,,,,,,,,,,,,,,,,,,,,,,,,,,,,,,,,,,,,,,,,,,,,,,,,,,,,,,,,QHJMDE,train_x,blue_star,top_left,2024-12-04_16h04.25.775,HideSeek_v1,2022.2.5,59.654694746818,
,2,6,2,6,0,0,61,,train_dim1_1,23,30,,,,2,0,2,0,,,,,,,,,0,0,0,0,0,22,22,22,2,0,2,0,,,,,,,,,,,,,,,,,,,,,,,,,,,,,,,,,,,,,,,,,,,,,,,,,,,,,,,,,,,,,,,,30,,,,,,,,1257.851151100127,1257.851151100127,1257.851151100127,1257.851151100127,1257.851151100127,return,0.4267184999771416,6,0,0,1,0.0,0.08,return,0.3488076999783516,5,42,0.0,0.08,,,,,,,,,,,,,,,,,,,,,,,,,,,,,,,,,,,,,,,,,,,,,,,,,,,,,,,,QHJMDE,train_x,blue_star,top_left,2024-12-04_16h04.25.775,HideSeek_v1,2022.2.5,59.654694746818,
,4,9,5,9,1,0,51,,train_dim1_1,24,30,,,,2,0,2,0,,,,,,,,,0,0,0,0,0,23,23,23,0,0,0,0,,,,,,,,,,,,,,,,,,,,,,,,,stimuli/alien_stimuli/51.png,,,,,,,,,,,,,,,,,,,,,,,,,,,,,stimuli/alien_stimuli/61.png,61,2,25,,,,,,,30,,,,,,,,1264.5448838002048,1264.5448838002048,1264.5448838002048,1264.5448838002048,1264.5448838002048,right,1.7047906001098454,6,0,0,99,0.24,0.32,right,1.6072624998632818,,,,,1262.9723498001695,1264.5448838002048,0,0.08,0.0,0.0,0.08,0,0.0,0,0.08,1259.8449707999825,1259.8449707999825,1259.8449707999825,1259.8449707999825,1259.8449707999825,1259.8449707999825,1259.8449707999825,1259.8449707999825,1259.8367401200348,3.2378996999468654,return,3.105940699810162,,,,,,,,,,,,,,,,,,,,,,,,,,,,,,,,,QHJMDE,train_x,blue_star,top_left,2024-12-04_16h04.25.775,HideSeek_v1,2022.2.5,59.654694746818,
,4,9,5,9,1,0,51,,train_dim1_1,24,30,,,,2,0,2,0,,,,,,,,,0,0,0,0,0,23,23,23,1,0,1,0,,,,,,,,,,,,,,,,,,,,,,,,,,,,,,,,,,,,,,,,,,,,,,,,,,,,,,,,,,,,,,,,30,,,,,,,,1266.241728699999,1266.241728699999,1266.241728699999,1266.241728699999,1266.241728699999,left,1.3269315999932587,6,0,0,99,0.15999999999999998,0.32,left,1.2506257998757064,,,,,,,,,,,,,,,,,,,,,,,,,,,,,,,,,,,,,,,,,,,,,,,,,,,,,,,,,,,,QHJMDE,train_x,blue_star,top_left,2024-12-04_16h04.25.775,HideSeek_v1,2022.2.5,59.654694746818,
,4,9,5,9,1,0,51,,train_dim1_1,24,30,,,,2,0,2,0,,,,,,,,,0,0,0,0,0,23,23,23,2,0,2,0,,,,,,,,,,,,,,,,,,,,,,,,,,,,,,,,,,,,,,,,,,,,,,,,,,,,,,,,,,,,,,,,30,,,,,,,,1267.5761555000208,1267.5761555000208,1267.5761555000208,1267.5761555000208,1267.5761555000208,return,0.5769167998805642,6,1,0,0,0.15999999999999998,0.32,return,0.49544939980842173,5,42,0.15999999999999998,0.32,,,,,,,,,,,,,,,,,,,,,,,,,,,,,,,,,,,,,,,,,,,,,,,,,,,,,,,,QHJMDE,train_x,blue_star,top_left,2024-12-04_16h04.25.775,HideSeek_v1,2022.2.5,59.654694746818,
,3,5,8,5,5,0,11,,train_dim1_1,25,30,,,,2,0,2,0,,,,,,,,,0,0,0,0,0,24,24,24,0,0,0,0,,,,,,,,,,,,,,,,,,,,,,,,,stimuli/alien_stimuli/11.png,,,,,,,,,,,,,,,,,,,,,,,,,,,,,stimuli/alien_stimuli/51.png,51,4,26,,,,,,,30,,,,,,,,1272.4830191000365,1272.4830191000365,1272.4830191000365,1272.4830191000365,1272.4830191000365,right,1.2390002999454737,6,1,0,99,0.16,0,right,1.1267209998331964,,,,,1270.895849800203,1272.4830191000365,0.24,0.32,0.0,0.08,0.32,0.24,0.2,0.24,0.32,1269.7221375000663,1269.7221375000663,1269.7221375000663,1269.7221375000663,1269.7221375000663,1269.7221375000663,1269.7221375000663,1269.7221375000663,1269.711429119995,1.286967599997297,return,1.1568501996807754,,,,,,,,,,,,,,,,,,,,,,,,,,,,,,,,,QHJMDE,train_x,blue_star,top_left,2024-12-04_16h04.25.775,HideSeek_v1,2022.2.5,59.654694746818,
,3,5,8,5,5,0,11,,train_dim1_1,25,30,,,,2,0,2,0,,,,,,,,,0,0,0,0,0,24,24,24,1,0,1,0,,,,,,,,,,,,,,,,,,,,,,,,,,,,,,,,,,,,,,,,,,,,,,,,,,,,,,,,,,,,,,,,30,,,,,,,,1273.700385299977,1273.700385299977,1273.700385299977,1273.700385299977,1273.700385299977,right,0.6094214997719973,6,1,0,99,0.24,0,right,0.523015899816528,,,,,,,,,,,,,,,,,,,,,,,,,,,,,,,,,,,,,,,,,,,,,,,,,,,,,,,,,,,,QHJMDE,train_x,blue_star,top_left,2024-12-04_16h04.25.775,HideSeek_v1,2022.2.5,59.654694746818,
,3,5,8,5,5,0,11,,train_dim1_1,25,30,,,,2,0,2,0,,,,,,,,,0,0,0,0,0,24,24,24,2,0,2,0,,,,,,,,,,,,,,,,,,,,,,,,,,,,,,,,,,,,,,,,,,,,,,,,,,,,,,,,,,,,,,,,30,,,,,,,,1274.3187824999914,1274.3187824999914,1274.3187824999914,1274.3187824999914,1274.3187824999914,right,0.37669440009631217,6,1,0,99,0.32,0,right,0.29576299991458654,,,,,,,,,,,,,,,,,,,,,,,,,,,,,,,,,,,,,,,,,,,,,,,,,,,,,,,,,,,,QHJMDE,train_x,blue_star,top_left,2024-12-04_16h04.25.775,HideSeek_v1,2022.2.5,59.654694746818,
,3,5,8,5,5,0,11,,train_dim1_1,25,30,,,,2,0,2,0,,,,,,,,,0,0,0,0,0,24,24,24,3,0,3,0,,,,,,,,,,,,,,,,,,,,,,,,,,,,,,,,,,,,,,,,,,,,,,,,,,,,,,,,,,,,,,,,30,,,,,,,,1274.7003998002037,1274.7003998002037,1274.7003998002037,1274.7003998002037,1274.7003998002037,right,0.4769611000083387,6,1,0,99,0.4,0,right,0.38681959989480674,,,,,,,,,,,,,,,,,,,,,,,,,,,,,,,,,,,,,,,,,,,,,,,,,,,,,,,,,,,,QHJMDE,train_x,blue_star,top_left,2024-12-04_16h04.25.775,HideSeek_v1,2022.2.5,59.654694746818,
,3,5,8,5,5,0,11,,train_dim1_1,25,30,,,,2,0,2,0,,,,,,,,,0,0,0,0,0,24,24,24,4,0,4,0,,,,,,,,,,,,,,,,,,,,,,,,,,,,,,,,,,,,,,,,,,,,,,,,,,,,,,,,,,,,,,,,30,,,,,,,,1275.1867659001146,1275.1867659001146,1275.1867659001146,1275.1867659001146,1275.1867659001146,return,0.8767385000828654,6,1,0,0,0.4,0,return,0.7916527998168021,5,46,0.4,0,,,,,,,,,,,,,,,,,,,,,,,,,,,,,,,,,,,,,,,,,,,,,,,,,,,,,,,,QHJMDE,train_x,blue_star,top_left,2024-12-04_16h04.25.775,HideSeek_v1,2022.2.5,59.654694746818,
