trialInstr,x_fixStart,y_fixStart,x_corrSteps,y_corrSteps,x_nrSteps,y_nrSteps,alienID,trialLength,version,trialTrain,praclen,testlen,trial_label,break_on_off,beforeExpLoop.thisRepN,beforeExpLoop.thisTrialN,beforeExpLoop.thisN,beforeExpLoop.thisIndex,mini_instr_trials.thisRepN,mini_instr_trials.thisTrialN,mini_instr_trials.thisN,mini_instr_trials.thisIndex,instrLoop.thisRepN,instrLoop.thisTrialN,instrLoop.thisN,instrLoop.thisIndex,repeat_prac.thisRepN,repeat_prac.thisTrialN,repeat_prac.thisN,repeat_prac.thisIndex,trainLoop.thisRepN,trainLoop.thisTrialN,trainLoop.thisN,trainLoop.thisIndex,moveLoop_train.thisRepN,moveLoop_train.thisTrialN,moveLoop_train.thisN,moveLoop_train.thisIndex,experiment.thisRepN,experiment.thisTrialN,experiment.thisN,experiment.thisIndex,moveLoop_test.thisRepN,moveLoop_test.thisTrialN,moveLoop_test.thisN,moveLoop_test.thisIndex,mini_instr2_trials.thisRepN,mini_instr2_trials.thisTrialN,mini_instr2_trials.thisN,mini_instr2_trials.thisIndex,start_all_time,url,slideStim,audioStim,slides.started,sounds.started,nextButton.numClicks,nextButton.timesOn,nextButton.timesOff,prev_but.numClicks,prev_but.timesOn,prev_but.timesOff,alienStim,instrFile,alienStim_instr,gridImage_instr.started,startPos_3.started,key_instr.started,alienImage_3.started,sounds_1.started,key_instr.keys,key_instr.rt,all_x,all_y,FBy_corrSteps,FBy_fixStart,FBx_corrSteps,FBx_fixStart,FBy_pathSize_check,FBx_pathSize_check,gridImage_9.started,alienImageFB_3.started,startPosFB_3.started,keyFB_3.started,pathLine_ydir_2.started,pathLine_xdir_2.started,alienFace_3.started,sounds_2.started,RTFB_instr,keyFB_3.keys,keyFB_3.rt,draw_alienStim,draw_alienID,test_x,nrepcount,perfthres,percthres,earlierperf,earlystop,nextPrac,fileidx,praclen,saveACC_train,pracFile,nextPrac_train,addNrep,fileidx_endr,repExp,showearly,gridImage_4.started,startPos.started,movePos.started,key_resp.started,alienImage.started,buttonPress_train,RTchoice_train,cumAcctrain,aCorr,saveACC_choice,corrAns,x_movePos_end,y_movePos_end,key_resp.keys,key_resp.rt,wLy_dir,wLx_dir,x_movePos,y_movePos,text_2.started,text_2.stopped,aft_x_corrPos,aft_y_corrPos,y_pathSize_check,x_pathSize_check,y_pathdirY,x_pathdirY,x_pathdirX,x_corrPos,y_corrPos,gridImage_6.started,alienImageFB_2.started,startPosFB_2.started,movePosFB_2.started,keyFB_2.started,pathLine_xdir.started,pathLine_ydir.started,alienFace.started,sounds_4.started,RT_FBtrain,keyFB_2.keys,keyFB_2.rt,saveACC_pre,ACC,within_saveACC_train,earlystop_wloop,cumAcctrain_check,gridImage_3.started,alienImage_test.started,startPos_test.started,movePos_test.started,key_resp_test.started,wLy_dir_test,wLx_dir_test,buttonPress_test,RTchoice_test,cumAcctest,corrAns_test,key_resp_test.keys,key_resp_test.rt,text_3.started,text_3.stopped,total_time,end_all_time,key_resp_3.keys,slides_2.started,sounds_3.started,nextButton_2.numClicks,nextButton_2.timesOn,nextButton_2.timesOff,prev_but_2.numClicks,prev_but_2.timesOn,prev_but_2.timesOff,bye.started,participant,train_first,00_coordinate,starting corner,date,expName,psychopyVersion,frameRate,
,,,,,,,,,,,,,,,0,0,0,0,0,0,0,0,,,,,,,,,,,,,,,,,,,,,,,,,,,,,start_all_time,testround,conditions/schedules/train_x_first/red_square_00/top_right/instructions/Slide1.png,conditions/schedules/train_x_first/red_square_00/top_right/instructions/Audio1.wav,1392.586239399854,1392.5301934231072,1,[4.147922799922526],[4.147930799983442],0,,,,,,,,,,,,,,,,,,,,,,,,,,,,,,,,,,,,,,,,,,,,,,,,,,,,,,,,,,,,,,,,,,,,,,,,,,,,,,,,,,,,,,,,,,,,,,,,,,,,,,,,,,,,,,,,,,,,,,,,,,,,QN84RM,train_x,red_square,top_right,2025-09-23_18h14.43.190,HideSeek_v1,2022.2.5,59.9728563159256,
,,,,,,,,,,,,,,,0,0,0,0,1,0,1,0,,,,,,,,,,,,,,,,,,,,,,,,,,,,,,,conditions/schedules/train_x_first/red_square_00/top_right/instructions/Slide2.png,conditions/schedules/train_x_first/red_square_00/top_right/instructions/Audio2.wav,1396.7570182997733,1396.7500266497955,2,"[4.147922799922526, 17.472413999959826]","[0.0002172999083995819, 17.472420600242913]",0,,,,,,,,,,,,,,,,,,,,,,,,,,,,,,,,,,,,,,,,,,,,,,,,,,,,,,,,,,,,,,,,,,,,,,,,,,,,,,,,,,,,,,,,,,,,,,,,,,,,,,,,,,,,,,,,,,,,,,,,,,,,QN84RM,train_x,red_square,top_right,2025-09-23_18h14.43.190,HideSeek_v1,2022.2.5,59.9728563159256,
,,,,,,,,,,,,,,,0,0,0,0,2,0,2,0,,,,,,,,,,,,,,,,,,,,,,,,,,,,,,,conditions/schedules/train_x_first/red_square_00/top_right/instructions/Slide3.png,conditions/schedules/train_x_first/red_square_00/top_right/instructions/Audio3.wav,1414.2964964997955,1414.2975325495936,3,"[4.147922799922526, 17.472413999959826, 16.329020000062883]","[0.0002172999083995819, 0.00021379999816417694, 16.32903099991381]",0,,,,,,,,,,,,,,,,,,,,,,,,,,,,,,,,,,,,,,,,,,,,,,,,,,,,,,,,,,,,,,,,,,,,,,,,,,,,,,,,,,,,,,,,,,,,,,,,,,,,,,,,,,,,,,,,,,,,,,,,,,,,QN84RM,train_x,red_square,top_right,2025-09-23_18h14.43.190,HideSeek_v1,2022.2.5,59.9728563159256,
,,,,,,,,,,,,,,,0,0,0,0,3,0,3,0,,,,,,,,,,,,,,,,,,,,,,,,,,,,,,,conditions/schedules/train_x_first/red_square_00/top_right/instructions/Slide4.png,conditions/schedules/train_x_first/red_square_00/top_right/instructions/Audio4.wav,1430.7079690997489,1430.694527149666,4,"[4.147922799922526, 17.472413999959826, 16.329020000062883, 19.183980700094253]","[0.0002172999083995819, 0.00021379999816417694, 16.32903099991381, 19.183987400028855]",0,,,,,,,,,,,,,,,,,,,,,,,,,,,,,,,,,,,,,,,,,,,,,,,,,,,,,,,,,,,,,,,,,,,,,,,,,,,,,,,,,,,,,,,,,,,,,,,,,,,,,,,,,,,,,,,,,,,,,,,,,,,,QN84RM,train_x,red_square,top_right,2025-09-23_18h14.43.190,HideSeek_v1,2022.2.5,59.9728563159256,
,,,,,,,,,,,,,,,0,0,0,0,4,0,4,0,,,,,,,,,,,,,,,,,,,,,,,,,,,,,,,conditions/schedules/train_x_first/red_square_00/top_right/instructions/Slide5.png,conditions/schedules/train_x_first/red_square_00/top_right/instructions/Audio5.wav,1449.9670194997452,1449.960816949606,5,"[4.147922799922526, 17.472413999959826, 16.329020000062883, 19.183980700094253, 4.161369499750435]","[0.0002172999083995819, 0.00021379999816417694, 16.32903099991381, 0.0002188999205827713, 4.161375899799168]",0,,,,,,,,,,,,,,,,,,,,,,,,,,,,,,,,,,,,,,,,,,,,,,,,,,,,,,,,,,,,,,,,,,,,,,,,,,,,,,,,,,,,,,,,,,,,,,,,,,,,,,,,,,,,,,,,,,,,,,,,,,,,QN84RM,train_x,red_square,top_right,2025-09-23_18h14.43.190,HideSeek_v1,2022.2.5,59.9728563159256,
,,,,,,,,,,,,,,,0,0,0,0,5,0,5,0,,,,,,,,,,,,,,,,,,,,,,,,,,,,,,,conditions/schedules/train_x_first/red_square_00/top_right/instructions/Slide6.png,conditions/schedules/train_x_first/red_square_00/top_right/instructions/Audio6.wav,1454.1880109999329,1454.1807915198617,6,"[4.147922799922526, 17.472413999959826, 16.329020000062883, 19.183980700094253, 4.161369499750435, 5.0440942998975515]","[0.0002172999083995819, 0.00021379999816417694, 16.32903099991381, 0.0002188999205827713, 0.03633249970152974, 5.044101200066507]",0,,,,,,,,,,,,,,,,,,,,,,,,,,,,,,,,,,,,,,,,,,,,,,,,,,,,,,,,,,,,,,,,,,,,,,,,,,,,,,,,,,,,,,,,,,,,,,,,,,,,,,,,,,,,,,,,,,,,,,,,,,,,QN84RM,train_x,red_square,top_right,2025-09-23_18h14.43.190,HideSeek_v1,2022.2.5,59.9728563159256,
,,,,,,,,,,,,,,,0,0,0,0,6,0,6,0,,,,,,,,,,,,,,,,,,,,,,,,,,,,,,,conditions/schedules/train_x_first/red_square_00/top_right/instructions/Slide7.png,conditions/schedules/train_x_first/red_square_00/top_right/instructions/Audio7.wav,1459.2846841998398,1459.2849395198748,7,"[4.147922799922526, 17.472413999959826, 16.329020000062883, 19.183980700094253, 4.161369499750435, 5.0440942998975515, 5.2856021001935005]","[0.0002172999083995819, 0.00021379999816417694, 16.32903099991381, 0.0002188999205827713, 0.03633249970152974, 0.03153929999098182, 5.285608800128102]",0,,,,,,,,,,,,,,,,,,,,,,,,,,,,,,,,,,,,,,,,,,,,,,,,,,,,,,,,,,,,,,,,,,,,,,,,,,,,,,,,,,,,,,,,,,,,,,,,,,,,,,,,,,,,,,,,,,,,,,,,,,,,QN84RM,train_x,red_square,top_right,2025-09-23_18h14.43.190,HideSeek_v1,2022.2.5,59.9728563159256,
,,,,,,,,,,,,,,,0,0,0,0,7,0,7,0,,,,,,,,,,,,,,,,,,,,,,,,,,,,,,,conditions/schedules/train_x_first/red_square_00/top_right/instructions/Slide8.png,conditions/schedules/train_x_first/red_square_00/top_right/instructions/Audio8.wav,1464.624750299845,1464.6228588198312,8,"[4.147922799922526, 17.472413999959826, 16.329020000062883, 19.183980700094253, 4.161369499750435, 5.0440942998975515, 5.2856021001935005, 11.122076099738479]","[0.0002172999083995819, 0.00021379999816417694, 16.32903099991381, 0.0002188999205827713, 0.03633249970152974, 0.03153929999098182, 0.0145322997123003, 11.122083599679172]",0,,,,,,,,,,,,,,,,,,,,,,,,,,,,,,,,,,,,,,,,,,,,,,,,,,,,,,,,,,,,,,,,,,,,,,,,,,,,,,,,,,,,,,,,,,,,,,,,,,,,,,,,,,,,,,,,,,,,,,,,,,,,QN84RM,train_x,red_square,top_right,2025-09-23_18h14.43.190,HideSeek_v1,2022.2.5,59.9728563159256,
,,,,,,,,,,,,,,,0,0,0,0,8,0,8,0,,,,,,,,,,,,,,,,,,,,,,,,,,,,,,,conditions/schedules/train_x_first/red_square_00/top_right/instructions/Slide9.png,conditions/schedules/train_x_first/red_square_00/top_right/instructions/Audio9.wav,1475.8171518999152,1475.8153812498786,9,"[4.147922799922526, 17.472413999959826, 16.329020000062883, 19.183980700094253, 4.161369499750435, 5.0440942998975515, 5.2856021001935005, 11.122076099738479, 6.467790899798274]","[0.0002172999083995819, 0.00021379999816417694, 16.32903099991381, 0.0002188999205827713, 0.03633249970152974, 0.03153929999098182, 0.0145322997123003, 0.047499099746346474, 6.467797499615699]",0,,,,,,,,,,,,,,,,,,,,,,,,,,,,,,,,,,,,,,,,,,,,,,,,,,,,,,,,,,,,,,,,,,,,,,,,,,,,,,,,,,,,,,,,,,,,,,,,,,,,,,,,,,,,,,,,,,,,,,,,,,,,QN84RM,train_x,red_square,top_right,2025-09-23_18h14.43.190,HideSeek_v1,2022.2.5,59.9728563159256,
,,,,,,,,,,,,,,,0,0,0,0,9,0,9,0,,,,,,,,,,,,,,,,,,,,,,,,,,,,,,,conditions/schedules/train_x_first/red_square_00/top_right/instructions/Slide10.png,conditions/schedules/train_x_first/red_square_00/top_right/instructions/Audio10.wav,1482.3247960996814,1482.3207724896258,10,"[4.147922799922526, 17.472413999959826, 16.329020000062883, 19.183980700094253, 4.161369499750435, 5.0440942998975515, 5.2856021001935005, 11.122076099738479, 6.467790899798274, 6.582318999804556]","[0.0002172999083995819, 0.00021379999816417694, 16.32903099991381, 0.0002188999205827713, 0.03633249970152974, 0.03153929999098182, 0.0145322997123003, 0.047499099746346474, 0.047075099777430296, 6.582325699739158]",0,,,,,,,,,,,,,,,,,,,,,,,,,,,,,,,,,,,,,,,,,,,,,,,,,,,,,,,,,,,,,,,,,,,,,,,,,,,,,,,,,,,,,,,,,,,,,,,,,,,,,,,,,,,,,,,,,,,,,,,,,,,,QN84RM,train_x,red_square,top_right,2025-09-23_18h14.43.190,HideSeek_v1,2022.2.5,59.9728563159256,
,,,,,,,,,,,,,,,0,0,0,0,10,0,10,0,,,,,,,,,,,,,,,,,,,,,,,,,,,,,,,conditions/schedules/train_x_first/red_square_00/top_right/instructions/Slide11.png,conditions/schedules/train_x_first/red_square_00/top_right/instructions/Audio11.wav,1488.962146199774,1488.959596919641,11,"[4.147922799922526, 17.472413999959826, 16.329020000062883, 19.183980700094253, 4.161369499750435, 5.0440942998975515, 5.2856021001935005, 11.122076099738479, 6.467790899798274, 6.582318999804556, 9.102526299655437]","[0.0002172999083995819, 0.00021379999816417694, 16.32903099991381, 0.0002188999205827713, 0.03633249970152974, 0.03153929999098182, 0.0145322997123003, 0.047499099746346474, 0.047075099777430296, 0.0480269999243319, 9.10253269970417]",0,,,,,,,,,,,,,,,,,,,,,,,,,,,,,,,,,,,,,,,,,,,,,,,,,,,,,,,,,,,,,,,,,,,,,,,,,,,,,,,,,,,,,,,,,,,,,,,,,,,,,,,,,,,,,,,,,,,,,,,,,,,,QN84RM,train_x,red_square,top_right,2025-09-23_18h14.43.190,HideSeek_v1,2022.2.5,59.9728563159256,
,,,,,,,,,,,,,,,0,0,0,0,11,0,11,0,,,,,,,,,,,,,,,,,,,,,,,,,,,,,,,conditions/schedules/train_x_first/red_square_00/top_right/instructions/Slide12.png,conditions/schedules/train_x_first/red_square_00/top_right/instructions/Audio12.wav,1498.1186453998089,1498.1172368198634,12,"[4.147922799922526, 17.472413999959826, 16.329020000062883, 19.183980700094253, 4.161369499750435, 5.0440942998975515, 5.2856021001935005, 11.122076099738479, 6.467790899798274, 6.582318999804556, 9.102526299655437, 12.622918500099331]","[0.0002172999083995819, 0.00021379999816417694, 16.32903099991381, 0.0002188999205827713, 0.03633249970152974, 0.03153929999098182, 0.0145322997123003, 0.047499099746346474, 0.047075099777430296, 0.0480269999243319, 0.0458941999822855, 12.62292500026524]",0,,,,,,,,,,,,,,,,,,,,,,,,,,,,,,,,,,,,,,,,,,,,,,,,,,,,,,,,,,,,,,,,,,,,,,,,,,,,,,,,,,,,,,,,,,,,,,,,,,,,,,,,,,,,,,,,,,,,,,,,,,,,QN84RM,train_x,red_square,top_right,2025-09-23_18h14.43.190,HideSeek_v1,2022.2.5,59.9728563159256,
1,8,7,3,7,-5,0,66,2,instr_dim1_1,,,,,,0,0,0,0,,,,,0,0,0,0,,,,,,,,,,,,,,,,,,,,,,,,,,,,,,,,,,,,,stimuli/alien_stimuli/66.png,conditions/schedules/train_x_first/red_square_00/top_right/inputInstr_1.xlsx,stimuli/alien_stimuli/66.png,1510.8454482997768,1510.8454482997768,1510.8454482997768,1510.8454482997768,1510.8444092095829,return,30.913630600087345,"[-0.16, -0.08, 0, 0.08, 0.16, 0.24, 0.32, 0.4, 0.48, 0.56]","[-0.4, -0.32, -0.24, -0.16, -0.08, 0, 0.08, 0.16, 0.24, 0.32]",7,7,3,8,0.0,0.4,1541.9122866997495,1541.9122866997495,1541.9122866997495,1541.9122866997495,1541.9122866997495,1541.9122866997495,1541.9122866997495,1541.9034727398305,9.008501399774104,return,8.857200600206852,stimuli/alien_stimuli/66.png,66,8,1,,,,,,,,,,,,,,,,,,,,,,,,,,,,,,,,,,,,,,,,,,,,,,,,,,,,,,,,,,,,,,,,,,,,,,,,,,,,,,,,,,,,,,,,,QN84RM,train_x,red_square,top_right,2025-09-23_18h14.43.190,HideSeek_v1,2022.2.5,59.9728563159256,
,,,,,,,,,,,30,,,,0,0,0,0,,,,,,,,,,,,,,,,,,,,,,,,,,,,,,,,,,,,,,,,,,,,,,,,,,,,,,,,,,,,,,,,,,,,,,,,,,,,,,21,0.7,0,0,99,1,30,0,conditions/schedules/train_x_first/red_square_00/top_right/inputTrain_1.1.xlsx,99,1,1,1,0,,,,,,,,,,,,,,,,,,,,,,,,,,,,,,,,,,,,,,,,,,,,,,,,,,,,,,,,,,,,,,,,,,,,,,,,,,,QN84RM,train_x,red_square,top_right,2025-09-23_18h14.43.190,HideSeek_v1,2022.2.5,59.9728563159256,
,,,,,,,,,,,,,,,1,0,1,0,0,0,0,0,,,,,,,,,,,,,,,,,,,,,,,,,,,,,,,conditions/schedules/train_x_first/red_square_00/top_right/instructions/Slide13.png,conditions/schedules/train_x_first/red_square_00/top_right/instructions/Audio13.wav,1550.9658802999184,1550.961064329557,13,"[4.147922799922526, 17.472413999959826, 16.329020000062883, 19.183980700094253, 4.161369499750435, 5.0440942998975515, 5.2856021001935005, 11.122076099738479, 6.467790899798274, 6.582318999804556, 9.102526299655437, 12.622918500099331, 17.72473130002618]","[0.0002172999083995819, 0.00021379999816417694, 16.32903099991381, 0.0002188999205827713, 0.03633249970152974, 0.03153929999098182, 0.0145322997123003, 0.047499099746346474, 0.047075099777430296, 0.0480269999243319, 0.0458941999822855, 12.62292500026524, 17.724738399963826]",0,,,,,,,,,,,,,,,,,,,,,,,,,,,,,,,,,,,,,,,,,,,,,,,,,,,,,,,,,,,,,,,,,,,,,,,,,,,,,,,,,,,,,,,,,,,,,,,,,,,,,,,,,,,,,,,,,,,,,,,,,,,,QN84RM,train_x,red_square,top_right,2025-09-23_18h14.43.190,HideSeek_v1,2022.2.5,59.9728563159256,
,,,,,,,,,,,,,,,1,0,1,0,1,0,1,0,,,,,,,,,,,,,,,,,,,,,,,,,,,,,,,conditions/schedules/train_x_first/red_square_00/top_right/instructions/Slide14.png,conditions/schedules/train_x_first/red_square_00/top_right/instructions/Audio14.wav,1568.7508390997536,1568.7426021199674,14,"[4.147922799922526, 17.472413999959826, 16.329020000062883, 19.183980700094253, 4.161369499750435, 5.0440942998975515, 5.2856021001935005, 11.122076099738479, 6.467790899798274, 6.582318999804556, 9.102526299655437, 12.622918500099331, 17.72473130002618, 12.75037829997018]","[0.0002172999083995819, 0.00021379999816417694, 16.32903099991381, 0.0002188999205827713, 0.03633249970152974, 0.03153929999098182, 0.0145322997123003, 0.047499099746346474, 0.047075099777430296, 0.0480269999243319, 0.0458941999822855, 12.62292500026524, 0.0002202000468969345, 12.75038480013609]",0,,,,,,,,,,,,,,,,,,,,,,,,,,,,,,,,,,,,,,,,,,,,,,,,,,,,,,,,,,,,,,,,,,,,,,,,,,,,,,,,,,,,,,,,,,,,,,,,,,,,,,,,,,,,,,,,,,,,,,,,,,,,QN84RM,train_x,red_square,top_right,2025-09-23_18h14.43.190,HideSeek_v1,2022.2.5,59.9728563159256,
2,9,5,9,5,0,0,16,2,instr_dim1_1,,,,,,1,0,1,0,,,,,0,0,0,0,,,,,,,,,,,,,,,,,,,,,,,,,,,,,,,,,,,,,stimuli/alien_stimuli/16.png,conditions/schedules/train_x_first/red_square_00/top_right/inputInstr_1.xlsx,stimuli/alien_stimuli/16.png,1581.6089228997007,1581.6089228997007,1581.6089228997007,1581.6089228997007,1581.6035350099205,return,7.163143699988723,"[-0.16, -0.08, 0, 0.08, 0.16, 0.24, 0.32, 0.4, 0.48, 0.56]","[-0.4, -0.32, -0.24, -0.16, -0.08, 0, 0.08, 0.16, 0.24, 0.32]",5,5,9,9,0.0,0.0,1588.919188299682,1588.919188299682,1588.919188299682,1588.919188299682,1588.919188299682,1588.919188299682,1588.919188299682,1588.9091245397924,8.80816650018096,return,8.659524800255895,stimuli/alien_stimuli/16.png,16,9,2,,,,,,,,,,,,,,,,,,,,,,,,,,,,,,,,,,,,,,,,,,,,,,,,,,,,,,,,,,,,,,,,,,,,,,,,,,,,,,,,,,,,,,,,,QN84RM,train_x,red_square,top_right,2025-09-23_18h14.43.190,HideSeek_v1,2022.2.5,59.9728563159256,
,,,,,,,,,,,30,,,,1,0,1,0,,,,,,,,,,,,,,,,,,,,,,,,,,,,,,,,,,,,,,,,,,,,,,,,,,,,,,,,,,,,,,,,,,,,,,,,,,,,,,21,0.7,0,0,99,1,30,0,conditions/schedules/train_x_first/red_square_00/top_right/inputTrain_1.1.xlsx,99,1,1,1,0,,,,,,,,,,,,,,,,,,,,,,,,,,,,,,,,,,,,,,,,,,,,,,,,,,,,,,,,,,,,,,,,,,,,,,,,,,,QN84RM,train_x,red_square,top_right,2025-09-23_18h14.43.190,HideSeek_v1,2022.2.5,59.9728563159256,
,,,,,,,,,,,,,,,2,0,2,0,0,0,0,0,,,,,,,,,,,,,,,,,,,,,,,,,,,,,,,conditions/schedules/train_x_first/red_square_00/top_right/instructions/Slide15.png,conditions/schedules/train_x_first/red_square_00/top_right/instructions/Audio15.wav,1597.7694743000902,1597.76648042975,15,"[4.147922799922526, 17.472413999959826, 16.329020000062883, 19.183980700094253, 4.161369499750435, 5.0440942998975515, 5.2856021001935005, 11.122076099738479, 6.467790899798274, 6.582318999804556, 9.102526299655437, 12.622918500099331, 17.72473130002618, 12.75037829997018, 30.386927400249988]","[0.0002172999083995819, 0.00021379999816417694, 16.32903099991381, 0.0002188999205827713, 0.03633249970152974, 0.03153929999098182, 0.0145322997123003, 0.047499099746346474, 0.047075099777430296, 0.0480269999243319, 0.0458941999822855, 12.62292500026524, 0.0002202000468969345, 12.75038480013609, 30.386935700196773]",0,,,,,,,,,,,,,,,,,,,,,,,,,,,,,,,,,,,,,,,,,,,,,,,,,,,,,,,,,,,,,,,,,,,,,,,,,,,,,,,,,,,,,,,,,,,,,,,,,,,,,,,,,,,,,,,,,,,,,,,,,,,,QN84RM,train_x,red_square,top_right,2025-09-23_18h14.43.190,HideSeek_v1,2022.2.5,59.9728563159256,
,,,,,,,,,,,,,,,2,0,2,0,1,0,1,0,,,,,,,,,,,,,,,,,,,,,,,,,,,,,,,conditions/schedules/train_x_first/red_square_00/top_right/instructions/Slide16.png,conditions/schedules/train_x_first/red_square_00/top_right/instructions/Audio16.wav,1628.2169558997266,1628.2087239197456,16,"[4.147922799922526, 17.472413999959826, 16.329020000062883, 19.183980700094253, 4.161369499750435, 5.0440942998975515, 5.2856021001935005, 11.122076099738479, 6.467790899798274, 6.582318999804556, 9.102526299655437, 12.622918500099331, 17.72473130002618, 12.75037829997018, 30.386927400249988, 21.8070873003453]","[0.0002172999083995819, 0.00021379999816417694, 16.32903099991381, 0.0002188999205827713, 0.03633249970152974, 0.03153929999098182, 0.0145322997123003, 0.047499099746346474, 0.047075099777430296, 0.0480269999243319, 0.0458941999822855, 12.62292500026524, 0.0002202000468969345, 12.75038480013609, 0.05575040029361844, 21.807093400042504]",0,,,,,,,,,,,,,,,,,,,,,,,,,,,,,,,,,,,,,,,,,,,,,,,,,,,,,,,,,,,,,,,,,,,,,,,,,,,,,,,,,,,,,,,,,,,,,,,,,,,,,,,,,,,,,,,,,,,,,,,,,,,,QN84RM,train_x,red_square,top_right,2025-09-23_18h14.43.190,HideSeek_v1,2022.2.5,59.9728563159256,
,7,6,4,6,-3,0,46,,train_dim1_1,1,30,,,,2,0,2,0,,,,,,,,,0,0,0,0,0,0,0,0,0,0,0,0,,,,,,,,,,,,,,,,,,,,,,,,,stimuli/alien_stimuli/46.png,,,,,,,,,,,,,,,,,,,,,,,,,,,,,,,,,,,,,,,30,,,,,,,,1650.1344061000273,1650.1344061000273,1650.1344061000273,1650.1344061000273,1650.1344061000273,left,38.06646910030395,0,0,0,99,0.32,0.08,left,37.9639453003183,,,,,,,,,,,,,,,,,,,,,,,,,,,,,,,,,,,,,,,,,,,,,,,,,,,,,,,,,,,,QN84RM,train_x,red_square,top_right,2025-09-23_18h14.43.190,HideSeek_v1,2022.2.5,59.9728563159256,
,7,6,4,6,-3,0,46,,train_dim1_1,1,30,,,,2,0,2,0,,,,,,,,,0,0,0,0,0,0,0,0,1,0,1,0,,,,,,,,,,,,,,,,,,,,,,,,,,,,,,,,,,,,,,,,,,,,,,,,,,,,,,,,,,,,,,,,30,,,,,,,,1688.2018504999578,1688.2018504999578,1688.2018504999578,1688.2018504999578,1688.2018504999578,left,1.9771199999377131,0,0,0,99,0.24,0.08,left,1.887193700298667,,,,,,,,,,,,,,,,,,,,,,,,,,,,,,,,,,,,,,,,,,,,,,,,,,,,,,,,,,,,QN84RM,train_x,red_square,top_right,2025-09-23_18h14.43.190,HideSeek_v1,2022.2.5,59.9728563159256,
,7,6,4,6,-3,0,46,,train_dim1_1,1,30,,,,2,0,2,0,,,,,,,,,0,0,0,0,0,0,0,0,2,0,2,0,,,,,,,,,,,,,,,,,,,,,,,,,,,,,,,,,,,,,,,,,,,,,,,,,,,,,,,,,,,,,,,,30,,,,,,,,1690.1726160999388,1690.1726160999388,1690.1726160999388,1690.1726160999388,1690.1726160999388,down,1.711125100031495,0,0,0,99,0.24,0.0,down,1.634190599899739,,,,,,,,,,,,,,,,,,,,,,,,,,,,,,,,,,,,,,,,,,,,,,,,,,,,,,,,,,,,QN84RM,train_x,red_square,top_right,2025-09-23_18h14.43.190,HideSeek_v1,2022.2.5,59.9728563159256,
,7,6,4,6,-3,0,46,,train_dim1_1,1,30,,,,2,0,2,0,,,,,,,,,0,0,0,0,0,0,0,0,3,0,3,0,,,,,,,,,,,,,,,,,,,,,,,,,,,,,,,,,,,,,,,,,,,,,,,,,,,,,,,,,,,,,,,,30,,,,,,,,1691.890923100058,1691.890923100058,1691.890923100058,1691.890923100058,1691.890923100058,left,1.7113660997711122,0,0,0,99,0.15999999999999998,0.0,left,1.6294224997982383,,,,,,,,,,,,,,,,,,,,,,,,,,,,,,,,,,,,,,,,,,,,,,,,,,,,,,,,,,,,QN84RM,train_x,red_square,top_right,2025-09-23_18h14.43.190,HideSeek_v1,2022.2.5,59.9728563159256,
,7,6,4,6,-3,0,46,,train_dim1_1,1,30,,,,2,0,2,0,,,,,,,,,0,0,0,0,0,0,0,0,4,0,4,0,,,,,,,,,,,,,,,,,,,,,,,,,,,,,,,,,,,,,,,,,,,,,,,,,,,,,,,,,,,,,,,,30,,,,,,,,1693.6098245000467,1693.6098245000467,1693.6098245000467,1693.6098245000467,1693.6098245000467,down,1.544214699883014,0,0,0,99,0.15999999999999998,-0.08,down,1.4559643999673426,,,,,,,,,,,,,,,,,,,,,,,,,,,,,,,,,,,,,,,,,,,,,,,,,,,,,,,,,,,,QN84RM,train_x,red_square,top_right,2025-09-23_18h14.43.190,HideSeek_v1,2022.2.5,59.9728563159256,
,7,6,4,6,-3,0,46,,train_dim1_1,1,30,,,,2,0,2,0,,,,,,,,,0,0,0,0,0,0,0,0,5,0,5,0,,,,,,,,,,,,,,,,,,,,,,,,,,,,,,,,,,,,,,,,,,,,,,,,,,,,,,,,,,,,,,,,30,,,,,,,,1695.161210999824,1695.161210999824,1695.161210999824,1695.161210999824,1695.161210999824,down,0.8936692997813225,0,0,0,99,0.15999999999999998,-0.16,down,0.8089265003800392,,,,,,,,,,,,,,,,,,,,,,,,,,,,,,,,,,,,,,,,,,,,,,,,,,,,,,,,,,,,QN84RM,train_x,red_square,top_right,2025-09-23_18h14.43.190,HideSeek_v1,2022.2.5,59.9728563159256,
,7,6,4,6,-3,0,46,,train_dim1_1,1,30,,,,2,0,2,0,,,,,,,,,0,0,0,0,0,0,0,0,6,0,6,0,,,,,,,,,,,,,,,,,,,,,,,,,,,,,,,,,,,,,,,,,,,,,,,,,,,,,,,,,,,,,,,,30,,,,,,,,1696.061383199878,1696.061383199878,1696.061383199878,1696.061383199878,1696.061383199878,left,2.294851700309664,0,0,0,99,0.07999999999999997,-0.16,left,2.214699300006032,,,,,,,,,,,,,,,,,,,,,,,,,,,,,,,,,,,,,,,,,,,,,,,,,,,,,,,,,,,,QN84RM,train_x,red_square,top_right,2025-09-23_18h14.43.190,HideSeek_v1,2022.2.5,59.9728563159256,
,7,6,4,6,-3,0,46,,train_dim1_1,1,30,,,,2,0,2,0,,,,,,,,,0,0,0,0,0,0,0,0,7,0,7,0,,,,,,,,,,,,,,,,,,,,,,,,,,,,,,,,,,,,,,,,,,,,,,,,,,,,,,,,,,,,,,,,30,,,,,,,,1698.3635815996677,1698.3635815996677,1698.3635815996677,1698.3635815996677,1698.3635815996677,down,3.3290622998028994,0,0,0,99,0.07999999999999997,-0.24,down,3.2555937999859452,,,,,,,,,,,,,,,,,,,,,,,,,,,,,,,,,,,,,,,,,,,,,,,,,,,,,,,,,,,,QN84RM,train_x,red_square,top_right,2025-09-23_18h14.43.190,HideSeek_v1,2022.2.5,59.9728563159256,
,7,6,4,6,-3,0,46,,train_dim1_1,1,30,,,,2,0,2,0,,,,,,,,,0,0,0,0,0,0,0,0,8,0,8,0,,,,,,,,,,,,,,,,,,,,,,,,,,,,,,,,,,,,,,,,,,,,,,,,,,,,,,,,,,,,,,,,30,,,,,,,,1701.6997825000435,1701.6997825000435,1701.6997825000435,1701.6997825000435,1701.6997825000435,left,1.9942160001955926,0,0,0,99,-2.7755575615628914e-17,-0.24,left,1.9206499001011252,,,,,,,,,,,,,,,,,,,,,,,,,,,,,,,,,,,,,,,,,,,,,,,,,,,,,,,,,,,,QN84RM,train_x,red_square,top_right,2025-09-23_18h14.43.190,HideSeek_v1,2022.2.5,59.9728563159256,
,7,6,4,6,-3,0,46,,train_dim1_1,1,30,,,,2,0,2,0,,,,,,,,,0,0,0,0,0,0,0,0,9,0,9,0,,,,,,,,,,,,,,,,,,,,,,,,,,,,,,,,,,,,,,,,,,,,,,,,,,,,,,,,,,,,,,,,30,,,,,,,,1703.7008499000221,1703.7008499000221,1703.7008499000221,1703.7008499000221,1703.7008499000221,left,1.1942436001263559,0,0,0,99,-0.08000000000000003,-0.24,left,1.1073624002747238,,,,,,,,,,,,,,,,,,,,,,,,,,,,,,,,,,,,,,,,,,,,,,,,,,,,,,,,,,,,QN84RM,train_x,red_square,top_right,2025-09-23_18h14.43.190,HideSeek_v1,2022.2.5,59.9728563159256,
,7,6,4,6,-3,0,46,,train_dim1_1,1,30,,,,2,0,2,0,,,,,,,,,0,0,0,0,0,0,0,0,10,0,10,0,,,,,,,,,,,,,,,,,,,,,,,,,,,,,,,,,,,,,,,,,,,,,,,,,,,,,,,,,,,,,,,,30,,,,,,,,1704.9032028997317,1704.9032028997317,1704.9032028997317,1704.9032028997317,1704.9032028997317,down,1.293404399883002,0,0,0,99,-0.08000000000000003,-0.32,down,1.2101003001444042,,,,,,,,,,,,,,,,,,,,,,,,,,,,,,,,,,,,,,,,,,,,,,,,,,,,,,,,,,,,QN84RM,train_x,red_square,top_right,2025-09-23_18h14.43.190,HideSeek_v1,2022.2.5,59.9728563159256,
,7,6,4,6,-3,0,46,,train_dim1_1,1,30,,,,2,0,2,0,,,,,,,,,0,0,0,0,0,0,0,0,11,0,11,0,,,,,,,,,,,,,,,,,,,,,,,,,,,,,,,,,,,,,,,,,,,,,,,,,,,,,,,,,,,,,,,,30,,,,,,,,1706.2034617997706,1706.2034617997706,1706.2034617997706,1706.2034617997706,1706.2034617997706,up,5.781096300110221,0,0,0,99,-0.08000000000000003,-0.24,up,5.699163699988276,,,,,,,,,,,,,,,,,,,,,,,,,,,,,,,,,,,,,,,,,,,,,,,,,,,,,,,,,,,,QN84RM,train_x,red_square,top_right,2025-09-23_18h14.43.190,HideSeek_v1,2022.2.5,59.9728563159256,
,7,6,4,6,-3,0,46,,train_dim1_1,1,30,,,,2,0,2,0,,,,,,,,,0,0,0,0,0,0,0,0,12,0,12,0,,,,,,,,,,,,,,,,,,,,,,,,,,,,,,,,,,,,,,,,,,,,,,,,,,,,,,,,,,,,,,,,30,,,,,,,,1711.9941349998116,1711.9941349998116,1711.9941349998116,1711.9941349998116,1711.9941349998116,up,0.5403899997472763,0,0,0,99,-0.08000000000000003,-0.15999999999999998,up,0.4583828002214432,,,,,,,,,,,,,,,,,,,,,,,,,,,,,,,,,,,,,,,,,,,,,,,,,,,,,,,,,,,,QN84RM,train_x,red_square,top_right,2025-09-23_18h14.43.190,HideSeek_v1,2022.2.5,59.9728563159256,
,7,6,4,6,-3,0,46,,train_dim1_1,1,30,,,,2,0,2,0,,,,,,,,,0,0,0,0,0,0,0,0,13,0,13,0,,,,,,,,,,,,,,,,,,,,,,,,,,,,,,,,,,,,,,,,,,,,,,,,,,,,,,,,,,,,,,,,30,,,,,,,,1712.5424933000468,1712.5424933000468,1712.5424933000468,1712.5424933000468,1712.5424933000468,right,1.5942099997773767,0,0,0,99,-2.7755575615628914e-17,-0.15999999999999998,right,1.5067153996787965,,,,,,,,,,,,,,,,,,,,,,,,,,,,,,,,,,,,,,,,,,,,,,,,,,,,,,,,,,,,QN84RM,train_x,red_square,top_right,2025-09-23_18h14.43.190,HideSeek_v1,2022.2.5,59.9728563159256,
,7,6,4,6,-3,0,46,,train_dim1_1,1,30,,,,2,0,2,0,,,,,,,,,0,0,0,0,0,0,0,0,14,0,14,0,,,,,,,,,,,,,,,,,,,,,,,,,,,,,,,,,,,,,,,,,,,,,,,,,,,,,,,,,,,,,,,,30,,,,,,,,1714.1433886997402,1714.1433886997402,1714.1433886997402,1714.1433886997402,1714.1433886997402,right,0.460009700153023,0,0,0,99,0.07999999999999997,-0.15999999999999998,right,0.3868060000240803,,,,,,,,,,,,,,,,,,,,,,,,,,,,,,,,,,,,,,,,,,,,,,,,,,,,,,,,,,,,QN84RM,train_x,red_square,top_right,2025-09-23_18h14.43.190,HideSeek_v1,2022.2.5,59.9728563159256,
,7,6,4,6,-3,0,46,,train_dim1_1,1,30,,,,2,0,2,0,,,,,,,,,0,0,0,0,0,0,0,0,15,0,15,0,,,,,,,,,,,,,,,,,,,,,,,,,,,,,,,,,,,,,,,,,,,,,,,,,,,,,,,,,,,,,,,,30,,,,,,,,1714.6098944996484,1714.6098944996484,1714.6098944996484,1714.6098944996484,1714.6098944996484,up,0.7103266003541648,0,0,0,99,0.07999999999999997,-0.07999999999999997,up,0.6359128002077341,,,,,,,,,,,,,,,,,,,,,,,,,,,,,,,,,,,,,,,,,,,,,,,,,,,,,,,,,,,,QN84RM,train_x,red_square,top_right,2025-09-23_18h14.43.190,HideSeek_v1,2022.2.5,59.9728563159256,
,7,6,4,6,-3,0,46,,train_dim1_1,1,30,,,,2,0,2,0,,,,,,,,,0,0,0,0,0,0,0,0,16,0,16,0,,,,,,,,,,,,,,,,,,,,,,,,,,,,,,,,,,,,,,,,,,,,,,,,,,,,,,,,,,,,,,,,30,,,,,,,,1715.3273005997762,1715.3273005997762,1715.3273005997762,1715.3273005997762,1715.3273005997762,return,0.6602461999282241,0,0,0,0,0.07999999999999997,-0.07999999999999997,return,0.5763098001480103,-2,-4,0.07999999999999997,-0.07999999999999997,,,,,,,,,,,,,,,,,,,,,,,,,,,,,,,,,,,,,,,,,,,,,,,,,,,,,,,,QN84RM,train_x,red_square,top_right,2025-09-23_18h14.43.190,HideSeek_v1,2022.2.5,59.9728563159256,
,7,9,7,9,0,0,16,,train_dim1_1,2,30,,,,2,0,2,0,,,,,,,,,0,0,0,0,0,1,1,1,0,0,0,0,,,,,,,,,,,,,,,,,,,,,,,,,stimuli/alien_stimuli/16.png,,,,,,,,,,,,,,,,,,,,,,,,,,,,,stimuli/alien_stimuli/46.png,46,7,3,,,,,,,30,,,,,,,,1735.5130467000417,1735.5130467000417,1735.5130467000417,1735.5130467000417,1735.5130467000417,return,2.4869095999747515,1,0,0,1,0.4,0.32,return,2.3857184001244605,-2,-4,0.4,0.32,1733.9294092999771,1735.5130467000417,0.16,0.08,0.0,0.24,0.08,0.16,0.28,0.16,0.08,1717.5601802999154,1717.5601802999154,1717.5601802999154,1717.5601802999154,1717.5601802999154,1717.5601802999154,1717.5601802999154,1717.5601802999154,1717.5491452095098,16.482632800005376,return,16.347480399999768,,,,,,,,,,,,,,,,,,,,,,,,,,,,,,,,,QN84RM,train_x,red_square,top_right,2025-09-23_18h14.43.190,HideSeek_v1,2022.2.5,59.9728563159256,
,9,9,8,9,-1,0,26,,train_dim1_1,3,30,,,,2,0,2,0,,,,,,,,,0,0,0,0,0,2,2,2,0,0,0,0,,,,,,,,,,,,,,,,,,,,,,,,,stimuli/alien_stimuli/26.png,,,,,,,,,,,,,,,,,,,,,,,,,,,,,stimuli/alien_stimuli/16.png,16,7,4,,,,,,,30,,,,,,,,1744.4177874000743,1744.4177874000743,1744.4177874000743,1744.4177874000743,1744.4177874000743,left,9.230044499970973,1,0,0,99,0.48000000000000004,0.32,left,9.137585000135005,,,,,1742.8532833000645,1744.4177874000743,0.4,0.32,0.0,0.0,0.32,0.4,0.4,0.4,0.32,1739.5693576997146,1739.5693576997146,1739.5693576997146,1739.5693576997146,1739.5693576997146,1739.5693576997146,1739.5693576997146,1739.5693576997146,1739.5505879396571,3.421842799987644,return,3.2556064003147185,,,,,,,,,,,,,,,,,,,,,,,,,,,,,,,,,QN84RM,train_x,red_square,top_right,2025-09-23_18h14.43.190,HideSeek_v1,2022.2.5,59.9728563159256,
,9,9,8,9,-1,0,26,,train_dim1_1,3,30,,,,2,0,2,0,,,,,,,,,0,0,0,0,0,2,2,2,1,0,1,0,,,,,,,,,,,,,,,,,,,,,,,,,,,,,,,,,,,,,,,,,,,,,,,,,,,,,,,,,,,,,,,,30,,,,,,,,1753.648258099798,1753.648258099798,1753.648258099798,1753.648258099798,1753.648258099798,down,11.902114999946207,1,0,0,99,0.48000000000000004,0.24,down,11.824027699884027,,,,,,,,,,,,,,,,,,,,,,,,,,,,,,,,,,,,,,,,,,,,,,,,,,,,,,,,,,,,QN84RM,train_x,red_square,top_right,2025-09-23_18h14.43.190,HideSeek_v1,2022.2.5,59.9728563159256,
,9,9,8,9,-1,0,26,,train_dim1_1,3,30,,,,2,0,2,0,,,,,,,,,0,0,0,0,0,2,2,2,2,0,2,0,,,,,,,,,,,,,,,,,,,,,,,,,,,,,,,,,,,,,,,,,,,,,,,,,,,,,,,,,,,,,,,,30,,,,,,,,1765.5619107997045,1765.5619107997045,1765.5619107997045,1765.5619107997045,1765.5619107997045,down,1.010105499997735,1,0,0,99,0.48000000000000004,0.15999999999999998,down,0.9151825001463294,,,,,,,,,,,,,,,,,,,,,,,,,,,,,,,,,,,,,,,,,,,,,,,,,,,,,,,,,,,,QN84RM,train_x,red_square,top_right,2025-09-23_18h14.43.190,HideSeek_v1,2022.2.5,59.9728563159256,
,9,9,8,9,-1,0,26,,train_dim1_1,3,30,,,,2,0,2,0,,,,,,,,,0,0,0,0,0,2,2,2,3,0,3,0,,,,,,,,,,,,,,,,,,,,,,,,,,,,,,,,,,,,,,,,,,,,,,,,,,,,,,,,,,,,,,,,30,,,,,,,,1766.574276899919,1766.574276899919,1766.574276899919,1766.574276899919,1766.574276899919,left,2.111324300058186,1,0,0,99,0.4,0.15999999999999998,left,2.027104999870062,,,,,,,,,,,,,,,,,,,,,,,,,,,,,,,,,,,,,,,,,,,,,,,,,,,,,,,,,,,,QN84RM,train_x,red_square,top_right,2025-09-23_18h14.43.190,HideSeek_v1,2022.2.5,59.9728563159256,
,9,9,8,9,-1,0,26,,train_dim1_1,3,30,,,,2,0,2,0,,,,,,,,,0,0,0,0,0,2,2,2,4,0,4,0,,,,,,,,,,,,,,,,,,,,,,,,,,,,,,,,,,,,,,,,,,,,,,,,,,,,,,,,,,,,,,,,30,,,,,,,,1768.6924776998349,1768.6924776998349,1768.6924776998349,1768.6924776998349,1768.6924776998349,left,1.2274787002243102,1,0,0,99,0.32,0.15999999999999998,left,1.1500405999831855,,,,,,,,,,,,,,,,,,,,,,,,,,,,,,,,,,,,,,,,,,,,,,,,,,,,,,,,,,,,QN84RM,train_x,red_square,top_right,2025-09-23_18h14.43.190,HideSeek_v1,2022.2.5,59.9728563159256,
,9,9,8,9,-1,0,26,,train_dim1_1,3,30,,,,2,0,2,0,,,,,,,,,0,0,0,0,0,2,2,2,5,0,5,0,,,,,,,,,,,,,,,,,,,,,,,,,,,,,,,,,,,,,,,,,,,,,,,,,,,,,,,,,,,,,,,,30,,,,,,,,1769.927510399837,1769.927510399837,1769.927510399837,1769.927510399837,1769.927510399837,left,1.7106117000803351,1,0,0,99,0.24,0.15999999999999998,left,1.6211065999232233,,,,,,,,,,,,,,,,,,,,,,,,,,,,,,,,,,,,,,,,,,,,,,,,,,,,,,,,,,,,QN84RM,train_x,red_square,top_right,2025-09-23_18h14.43.190,HideSeek_v1,2022.2.5,59.9728563159256,
,9,9,8,9,-1,0,26,,train_dim1_1,3,30,,,,2,0,2,0,,,,,,,,,0,0,0,0,0,2,2,2,6,0,6,0,,,,,,,,,,,,,,,,,,,,,,,,,,,,,,,,,,,,,,,,,,,,,,,,,,,,,,,,,,,,,,,,30,,,,,,,,1771.6461327997968,1771.6461327997968,1771.6461327997968,1771.6461327997968,1771.6461327997968,down,1.5104400999844074,1,0,0,99,0.24,0.07999999999999997,down,1.4257507999427617,,,,,,,,,,,,,,,,,,,,,,,,,,,,,,,,,,,,,,,,,,,,,,,,,,,,,,,,,,,,QN84RM,train_x,red_square,top_right,2025-09-23_18h14.43.190,HideSeek_v1,2022.2.5,59.9728563159256,
,9,9,8,9,-1,0,26,,train_dim1_1,3,30,,,,2,0,2,0,,,,,,,,,0,0,0,0,0,2,2,2,7,0,7,0,,,,,,,,,,,,,,,,,,,,,,,,,,,,,,,,,,,,,,,,,,,,,,,,,,,,,,,,,,,,,,,,30,,,,,,,,1773.1628748998046,1773.1628748998046,1773.1628748998046,1773.1628748998046,1773.1628748998046,down,0.4599879002198577,1,0,0,99,0.24,-2.7755575615628914e-17,down,0.37936250027269125,,,,,,,,,,,,,,,,,,,,,,,,,,,,,,,,,,,,,,,,,,,,,,,,,,,,,,,,,,,,QN84RM,train_x,red_square,top_right,2025-09-23_18h14.43.190,HideSeek_v1,2022.2.5,59.9728563159256,
,9,9,8,9,-1,0,26,,train_dim1_1,3,30,,,,2,0,2,0,,,,,,,,,0,0,0,0,0,2,2,2,8,0,8,0,,,,,,,,,,,,,,,,,,,,,,,,,,,,,,,,,,,,,,,,,,,,,,,,,,,,,,,,,,,,,,,,30,,,,,,,,1773.6301218997687,1773.6301218997687,1773.6301218997687,1773.6301218997687,1773.6301218997687,up,1.327212099917233,1,0,0,99,0.24,0.07999999999999997,up,1.2398895998485386,,,,,,,,,,,,,,,,,,,,,,,,,,,,,,,,,,,,,,,,,,,,,,,,,,,,,,,,,,,,QN84RM,train_x,red_square,top_right,2025-09-23_18h14.43.190,HideSeek_v1,2022.2.5,59.9728563159256,
,9,9,8,9,-1,0,26,,train_dim1_1,3,30,,,,2,0,2,0,,,,,,,,,0,0,0,0,0,2,2,2,9,0,9,0,,,,,,,,,,,,,,,,,,,,,,,,,,,,,,,,,,,,,,,,,,,,,,,,,,,,,,,,,,,,,,,,30,,,,,,,,1774.9647252997383,1774.9647252997383,1774.9647252997383,1774.9647252997383,1774.9647252997383,return,0.4933005003258586,1,0,0,0,0.24,0.07999999999999997,return,0.4165257001295686,-5,-8,0.24,0.07999999999999997,,,,,,,,,,,,,,,,,,,,,,,,,,,,,,,,,,,,,,,,,,,,,,,,,,,,,,,,QN84RM,train_x,red_square,top_right,2025-09-23_18h14.43.190,HideSeek_v1,2022.2.5,59.9728563159256,
,7,8,3,8,-4,0,56,,train_dim1_1,4,30,,,,2,0,2,0,,,,,,,,,0,0,0,0,0,3,3,3,0,0,0,0,,,,,,,,,,,,,,,,,,,,,,,,,stimuli/alien_stimuli/56.png,,,,,,,,,,,,,,,,,,,,,,,,,,,,,stimuli/alien_stimuli/26.png,26,9,5,,,,,,,30,,,,,,,,1781.5622380999848,1781.5622380999848,1781.5622380999848,1781.5622380999848,1781.5622380999848,down,1.6743272002786398,1,0,0,99,0.4,0.15999999999999998,down,1.5840476998127997,,,,,1780.000871699769,1781.5622380999848,0.48,0.32,0.0,0.08,0.32,0.48,0.52,0.48,0.32,1777.0434940997511,1777.0434940997511,1777.0434940997511,1777.0434940997511,1777.0434940997511,1777.0434940997511,1777.0434940997511,1777.0434940997511,1777.0316407397388,3.0881063998676836,return,2.9306132001802325,,,,,,,,,,,,,,,,,,,,,,,,,,,,,,,,,QN84RM,train_x,red_square,top_right,2025-09-23_18h14.43.190,HideSeek_v1,2022.2.5,59.9728563159256,
,7,8,3,8,-4,0,56,,train_dim1_1,4,30,,,,2,0,2,0,,,,,,,,,0,0,0,0,0,3,3,3,1,0,1,0,,,,,,,,,,,,,,,,,,,,,,,,,,,,,,,,,,,,,,,,,,,,,,,,,,,,,,,,,,,,,,,,30,,,,,,,,1783.2361363996752,1783.2361363996752,1783.2361363996752,1783.2361363996752,1783.2361363996752,left,2.54486700007692,1,0,0,99,0.32,0.15999999999999998,left,2.469095599837601,,,,,,,,,,,,,,,,,,,,,,,,,,,,,,,,,,,,,,,,,,,,,,,,,,,,,,,,,,,,QN84RM,train_x,red_square,top_right,2025-09-23_18h14.43.190,HideSeek_v1,2022.2.5,59.9728563159256,
,7,8,3,8,-4,0,56,,train_dim1_1,4,30,,,,2,0,2,0,,,,,,,,,0,0,0,0,0,3,3,3,2,0,2,0,,,,,,,,,,,,,,,,,,,,,,,,,,,,,,,,,,,,,,,,,,,,,,,,,,,,,,,,,,,,,,,,30,,,,,,,,1785.7881084000692,1785.7881084000692,1785.7881084000692,1785.7881084000692,1785.7881084000692,down,1.377064900007099,1,0,0,99,0.32,0.07999999999999997,down,1.2935175998136401,,,,,,,,,,,,,,,,,,,,,,,,,,,,,,,,,,,,,,,,,,,,,,,,,,,,,,,,,,,,QN84RM,train_x,red_square,top_right,2025-09-23_18h14.43.190,HideSeek_v1,2022.2.5,59.9728563159256,
,7,8,3,8,-4,0,56,,train_dim1_1,4,30,,,,2,0,2,0,,,,,,,,,0,0,0,0,0,3,3,3,3,0,3,0,,,,,,,,,,,,,,,,,,,,,,,,,,,,,,,,,,,,,,,,,,,,,,,,,,,,,,,,,,,,,,,,30,,,,,,,,1787.17497369973,1787.17497369973,1787.17497369973,1787.17497369973,1787.17497369973,right,0.6743017002008855,1,0,0,99,0.4,0.07999999999999997,right,0.5897451001219451,,,,,,,,,,,,,,,,,,,,,,,,,,,,,,,,,,,,,,,,,,,,,,,,,,,,,,,,,,,,QN84RM,train_x,red_square,top_right,2025-09-23_18h14.43.190,HideSeek_v1,2022.2.5,59.9728563159256,
,7,8,3,8,-4,0,56,,train_dim1_1,4,30,,,,2,0,2,0,,,,,,,,,0,0,0,0,0,3,3,3,4,0,4,0,,,,,,,,,,,,,,,,,,,,,,,,,,,,,,,,,,,,,,,,,,,,,,,,,,,,,,,,,,,,,,,,30,,,,,,,,1787.85665709991,1787.85665709991,1787.85665709991,1787.85665709991,1787.85665709991,down,2.0445145000703633,1,0,0,99,0.4,-2.7755575615628914e-17,down,1.958463799674064,,,,,,,,,,,,,,,,,,,,,,,,,,,,,,,,,,,,,,,,,,,,,,,,,,,,,,,,,,,,QN84RM,train_x,red_square,top_right,2025-09-23_18h14.43.190,HideSeek_v1,2022.2.5,59.9728563159256,
,7,8,3,8,-4,0,56,,train_dim1_1,4,30,,,,2,0,2,0,,,,,,,,,0,0,0,0,0,3,3,3,5,0,5,0,,,,,,,,,,,,,,,,,,,,,,,,,,,,,,,,,,,,,,,,,,,,,,,,,,,,,,,,,,,,,,,,30,,,,,,,,1789.9079559999518,1789.9079559999518,1789.9079559999518,1789.9079559999518,1789.9079559999518,return,0.5269037000834942,1,0,0,0,0.4,-2.7755575615628914e-17,return,0.4392821998335421,-8,-8,0.4,-2.7755575615628914e-17,,,,,,,,,,,,,,,,,,,,,,,,,,,,,,,,,,,,,,,,,,,,,,,,,,,,,,,,QN84RM,train_x,red_square,top_right,2025-09-23_18h14.43.190,HideSeek_v1,2022.2.5,59.9728563159256,
,5,7,0,7,-5,0,66,,train_dim1_1,5,30,,,,2,0,2,0,,,,,,,,,0,0,0,0,0,4,4,4,0,0,0,0,,,,,,,,,,,,,,,,,,,,,,,,,stimuli/alien_stimuli/66.png,,,,,,,,,,,,,,,,,,,,,,,,,,,,,stimuli/alien_stimuli/56.png,56,7,6,,,,,,,30,,,,,,,,1796.3057740996592,1796.3057740996592,1796.3057740996592,1796.3057740996592,1796.3057740996592,left,1.6241286997683346,1,0,0,99,0.15999999999999998,0.16,left,1.5376903000287712,,,,,1794.7461798996665,1796.3057740996592,0.08,0.24,0.0,0.32,0.24,0.08,0.24000000000000002,0.08,0.24,1792.0092858998105,1792.0092858998105,1792.0092858998105,1792.0092858998105,1792.0092858998105,1792.0092858998105,1792.0092858998105,1792.0092858998105,1791.9943632096051,2.8544534002430737,return,2.710720700211823,,,,,,,,,,,,,,,,,,,,,,,,,,,,,,,,,QN84RM,train_x,red_square,top_right,2025-09-23_18h14.43.190,HideSeek_v1,2022.2.5,59.9728563159256,
,5,7,0,7,-5,0,66,,train_dim1_1,5,30,,,,2,0,2,0,,,,,,,,,0,0,0,0,0,4,4,4,1,0,1,0,,,,,,,,,,,,,,,,,,,,,,,,,,,,,,,,,,,,,,,,,,,,,,,,,,,,,,,,,,,,,,,,30,,,,,,,,1797.930877499748,1797.930877499748,1797.930877499748,1797.930877499748,1797.930877499748,left,0.8766600000672042,1,0,0,99,0.07999999999999997,0.16,left,0.7932245996780694,,,,,,,,,,,,,,,,,,,,,,,,,,,,,,,,,,,,,,,,,,,,,,,,,,,,,,,,,,,,QN84RM,train_x,red_square,top_right,2025-09-23_18h14.43.190,HideSeek_v1,2022.2.5,59.9728563159256,
,5,7,0,7,-5,0,66,,train_dim1_1,5,30,,,,2,0,2,0,,,,,,,,,0,0,0,0,0,4,4,4,2,0,2,0,,,,,,,,,,,,,,,,,,,,,,,,,,,,,,,,,,,,,,,,,,,,,,,,,,,,,,,,,,,,,,,,30,,,,,,,,1798.8132160999812,1798.8132160999812,1798.8132160999812,1798.8132160999812,1798.8132160999812,left,3.1789064002223313,1,0,0,99,-2.7755575615628914e-17,0.16,left,3.099687199573964,,,,,,,,,,,,,,,,,,,,,,,,,,,,,,,,,,,,,,,,,,,,,,,,,,,,,,,,,,,,QN84RM,train_x,red_square,top_right,2025-09-23_18h14.43.190,HideSeek_v1,2022.2.5,59.9728563159256,
,5,7,0,7,-5,0,66,,train_dim1_1,5,30,,,,2,0,2,0,,,,,,,,,0,0,0,0,0,4,4,4,3,0,3,0,,,,,,,,,,,,,,,,,,,,,,,,,,,,,,,,,,,,,,,,,,,,,,,,,,,,,,,,,,,,,,,,30,,,,,,,,1801.9996234998107,1801.9996234998107,1801.9996234998107,1801.9996234998107,1801.9996234998107,return,2.644947599619627,1,0,0,0,-2.7755575615628914e-17,0.16,return,2.5699156001210213,-8,-11,-2.7755575615628914e-17,0.16,,,,,,,,,,,,,,,,,,,,,,,,,,,,,,,,,,,,,,,,,,,,,,,,,,,,,,,,QN84RM,train_x,red_square,top_right,2025-09-23_18h14.43.190,HideSeek_v1,2022.2.5,59.9728563159256,
,5,5,4,5,-1,0,26,,train_dim1_1,6,30,,,,2,0,2,0,,,,,,,,,0,0,0,0,0,5,5,5,0,0,0,0,,,,,,,,,,,,,,,,,,,,,,,,,stimuli/alien_stimuli/26.png,,,,,,,,,,,,,,,,,,,,,,,,,,,,,stimuli/alien_stimuli/66.png,66,5,7,,,,,,,30,,,,,,,,1809.2254596999846,1809.2254596999846,1809.2254596999846,1809.2254596999846,1809.2254596999846,left,3.2409249003976583,1,0,0,99,0.15999999999999998,0,left,3.1218175999820232,,,,,1807.6407107999548,1809.2254596999846,-0.16,0.16,0.0,0.4,0.16,-0.16,0.039999999999999994,-0.16,0.16,1806.217238499783,1806.217238499783,1806.217238499783,1806.217238499783,1806.217238499783,1806.217238499783,1806.217238499783,1806.217238499783,1806.2058011096901,1.5372461997903883,return,1.407342900056392,,,,,,,,,,,,,,,,,,,,,,,,,,,,,,,,,QN84RM,train_x,red_square,top_right,2025-09-23_18h14.43.190,HideSeek_v1,2022.2.5,59.9728563159256,
,5,5,4,5,-1,0,26,,train_dim1_1,6,30,,,,2,0,2,0,,,,,,,,,0,0,0,0,0,5,5,5,1,0,1,0,,,,,,,,,,,,,,,,,,,,,,,,,,,,,,,,,,,,,,,,,,,,,,,,,,,,,,,,,,,,,,,,30,,,,,,,,1812.4460638999008,1812.4460638999008,1812.4460638999008,1812.4460638999008,1812.4460638999008,left,0.9432439003139734,1,0,0,99,0.07999999999999997,0,left,0.8606870002113283,,,,,,,,,,,,,,,,,,,,,,,,,,,,,,,,,,,,,,,,,,,,,,,,,,,,,,,,,,,,QN84RM,train_x,red_square,top_right,2025-09-23_18h14.43.190,HideSeek_v1,2022.2.5,59.9728563159256,
,5,5,4,5,-1,0,26,,train_dim1_1,6,30,,,,2,0,2,0,,,,,,,,,0,0,0,0,0,5,5,5,2,0,2,0,,,,,,,,,,,,,,,,,,,,,,,,,,,,,,,,,,,,,,,,,,,,,,,,,,,,,,,,,,,,,,,,30,,,,,,,,1813.3959494996816,1813.3959494996816,1813.3959494996816,1813.3959494996816,1813.3959494996816,left,0.5434068003669381,1,0,0,99,-2.7755575615628914e-17,0,left,0.46202570013701916,,,,,,,,,,,,,,,,,,,,,,,,,,,,,,,,,,,,,,,,,,,,,,,,,,,,,,,,,,,,QN84RM,train_x,red_square,top_right,2025-09-23_18h14.43.190,HideSeek_v1,2022.2.5,59.9728563159256,
,5,5,4,5,-1,0,26,,train_dim1_1,6,30,,,,2,0,2,0,,,,,,,,,0,0,0,0,0,5,5,5,3,0,3,0,,,,,,,,,,,,,,,,,,,,,,,,,,,,,,,,,,,,,,,,,,,,,,,,,,,,,,,,,,,,,,,,30,,,,,,,,1813.9466435997747,1813.9466435997747,1813.9466435997747,1813.9466435997747,1813.9466435997747,right,6.114674000069499,1,0,0,99,0.07999999999999997,0,right,6.035030500032008,,,,,,,,,,,,,,,,,,,,,,,,,,,,,,,,,,,,,,,,,,,,,,,,,,,,,,,,,,,,QN84RM,train_x,red_square,top_right,2025-09-23_18h14.43.190,HideSeek_v1,2022.2.5,59.9728563159256,
,5,5,4,5,-1,0,26,,train_dim1_1,6,30,,,,2,0,2,0,,,,,,,,,0,0,0,0,0,5,5,5,4,0,4,0,,,,,,,,,,,,,,,,,,,,,,,,,,,,,,,,,,,,,,,,,,,,,,,,,,,,,,,,,,,,,,,,30,,,,,,,,1820.069222100079,1820.069222100079,1820.069222100079,1820.069222100079,1820.069222100079,left,2.578342900145799,1,0,0,99,-2.7755575615628914e-17,0,left,2.492693000007421,,,,,,,,,,,,,,,,,,,,,,,,,,,,,,,,,,,,,,,,,,,,,,,,,,,,,,,,,,,,QN84RM,train_x,red_square,top_right,2025-09-23_18h14.43.190,HideSeek_v1,2022.2.5,59.9728563159256,
,5,5,4,5,-1,0,26,,train_dim1_1,6,30,,,,2,0,2,0,,,,,,,,,0,0,0,0,0,5,5,5,5,0,5,0,,,,,,,,,,,,,,,,,,,,,,,,,,,,,,,,,,,,,,,,,,,,,,,,,,,,,,,,,,,,,,,,30,,,,,,,,1822.6544985999353,1822.6544985999353,1822.6544985999353,1822.6544985999353,1822.6544985999353,return,1.277306899894029,1,0,0,0,-2.7755575615628914e-17,0,return,1.1870992998592556,-8,-14,-2.7755575615628914e-17,0,,,,,,,,,,,,,,,,,,,,,,,,,,,,,,,,,,,,,,,,,,,,,,,,,,,,,,,,QN84RM,train_x,red_square,top_right,2025-09-23_18h14.43.190,HideSeek_v1,2022.2.5,59.9728563159256,
,8,5,3,5,-5,0,66,,train_dim1_1,7,30,,,,2,0,2,0,,,,,,,,,0,0,0,0,0,6,6,6,0,0,0,0,,,,,,,,,,,,,,,,,,,,,,,,,stimuli/alien_stimuli/66.png,,,,,,,,,,,,,,,,,,,,,,,,,,,,,stimuli/alien_stimuli/26.png,26,5,8,,,,,,,30,,,,,,,,1828.087156899739,1828.087156899739,1828.087156899739,1828.087156899739,1828.087156899739,return,3.623735699802637,1,0,0,0,0.48,0,return,3.5101346001029015,-8,-14,0.48,0,1826.5060906000435,1828.087156899739,0.16,0,0.0,0.08,0.0,0.16,0.2,0.16,0,1825.517794799991,1825.517794799991,1825.517794799991,1825.517794799991,1825.517794799991,1825.517794799991,1825.517794799991,1825.517794799991,1825.5052291397935,1.1201754999347031,return,0.9567418000660837,,,,,,,,,,,,,,,,,,,,,,,,,,,,,,,,,QN84RM,train_x,red_square,top_right,2025-09-23_18h14.43.190,HideSeek_v1,2022.2.5,59.9728563159256,
,5,9,2,9,-3,0,46,,train_dim1_1,8,30,,,,2,0,2,0,,,,,,,,,0,0,0,0,0,7,7,7,0,0,0,0,,,,,,,,,,,,,,,,,,,,,,,,,stimuli/alien_stimuli/46.png,,,,,,,,,,,,,,,,,,,,,,,,,,,,,stimuli/alien_stimuli/66.png,66,8,9,,,,,,,30,,,,,,,,1835.7271912996657,1835.7271912996657,1835.7271912996657,1835.7271912996657,1835.7271912996657,left,2.9083475996740162,1,0,0,99,0.15999999999999998,0.32,left,2.8070563999935985,,,,,1834.1625720998272,1835.7271912996657,0.08,0,0.0,0.4,0.0,0.08,0.27999999999999997,0.08,0,1833.248304599896,1833.248304599896,1833.248304599896,1833.248304599896,1833.248304599896,1833.248304599896,1833.248304599896,1833.248304599896,1833.2284304799512,1.0201464002020657,return,0.8932558000087738,,,,,,,,,,,,,,,,,,,,,,,,,,,,,,,,,QN84RM,train_x,red_square,top_right,2025-09-23_18h14.43.190,HideSeek_v1,2022.2.5,59.9728563159256,
,5,9,2,9,-3,0,46,,train_dim1_1,8,30,,,,2,0,2,0,,,,,,,,,0,0,0,0,0,7,7,7,1,0,1,0,,,,,,,,,,,,,,,,,,,,,,,,,,,,,,,,,,,,,,,,,,,,,,,,,,,,,,,,,,,,,,,,30,,,,,,,,1838.6360486997291,1838.6360486997291,1838.6360486997291,1838.6360486997291,1838.6360486997291,left,1.67732540005818,1,0,0,99,0.07999999999999997,0.32,left,1.59889360005036,,,,,,,,,,,,,,,,,,,,,,,,,,,,,,,,,,,,,,,,,,,,,,,,,,,,,,,,,,,,QN84RM,train_x,red_square,top_right,2025-09-23_18h14.43.190,HideSeek_v1,2022.2.5,59.9728563159256,
,5,9,2,9,-3,0,46,,train_dim1_1,8,30,,,,2,0,2,0,,,,,,,,,0,0,0,0,0,7,7,7,2,0,2,0,,,,,,,,,,,,,,,,,,,,,,,,,,,,,,,,,,,,,,,,,,,,,,,,,,,,,,,,,,,,,,,,30,,,,,,,,1840.3206226998009,1840.3206226998009,1840.3206226998009,1840.3206226998009,1840.3206226998009,left,0.6435297997668386,1,0,0,99,-2.7755575615628914e-17,0.32,left,0.5592062999494374,,,,,,,,,,,,,,,,,,,,,,,,,,,,,,,,,,,,,,,,,,,,,,,,,,,,,,,,,,,,QN84RM,train_x,red_square,top_right,2025-09-23_18h14.43.190,HideSeek_v1,2022.2.5,59.9728563159256,
,5,9,2,9,-3,0,46,,train_dim1_1,8,30,,,,2,0,2,0,,,,,,,,,0,0,0,0,0,7,7,7,3,0,3,0,,,,,,,,,,,,,,,,,,,,,,,,,,,,,,,,,,,,,,,,,,,,,,,,,,,,,,,,,,,,,,,,30,,,,,,,,1840.9712328999303,1840.9712328999303,1840.9712328999303,1840.9712328999303,1840.9712328999303,return,0.9769935999065638,2,0,0,1,-2.7755575615628914e-17,0.32,return,0.885035699699074,-8,-17,-2.7755575615628914e-17,0.32,,,,,,,,,,,,,,,,,,,,,,,,,,,,,,,,,,,,,,,,,,,,,,,,,,,,,,,,QN84RM,train_x,red_square,top_right,2025-09-23_18h14.43.190,HideSeek_v1,2022.2.5,59.9728563159256,
,6,5,2,5,-4,0,56,,train_dim1_1,9,30,,,,2,0,2,0,,,,,,,,,0,0,0,0,0,8,8,8,0,0,0,0,,,,,,,,,,,,,,,,,,,,,,,,,stimuli/alien_stimuli/56.png,,,,,,,,,,,,,,,,,,,,,,,,,,,,,stimuli/alien_stimuli/46.png,46,5,10,,,,,,,30,,,,,,,,1846.4342223997228,1846.4342223997228,1846.4342223997228,1846.4342223997228,1846.4342223997228,return,5.5773798995651305,2,0,0,0,0.32,0,return,5.467063100077212,-8,-17,0.32,0,1844.8546190997586,1846.4342223997228,0,0.32,0.0,0.24,0.32,0,0.12,0,0.32,1843.5322741996497,1843.5322741996497,1843.5322741996497,1843.5322741996497,1843.5322741996497,1843.5322741996497,1843.5322741996497,1843.5322741996497,1843.5203044396824,1.4537521000020206,return,1.2953530997037888,,,,,,,,,,,,,,,,,,,,,,,,,,,,,,,,,QN84RM,train_x,red_square,top_right,2025-09-23_18h14.43.190,HideSeek_v1,2022.2.5,59.9728563159256,
,5,8,5,8,0,0,16,,train_dim1_1,10,30,,,,2,0,2,0,,,,,,,,,0,0,0,0,0,9,9,9,0,0,0,0,,,,,,,,,,,,,,,,,,,,,,,,,stimuli/alien_stimuli/16.png,,,,,,,,,,,,,,,,,,,,,,,,,,,,,stimuli/alien_stimuli/56.png,56,6,11,,,,,,,30,,,,,,,,1855.7642222996801,1855.7642222996801,1855.7642222996801,1855.7642222996801,1855.7642222996801,left,1.056960899848491,2,0,0,99,0.15999999999999998,0.24,left,0.9604702000506222,,,,,1854.1958526996896,1855.7642222996801,0,0,0.0,0.32,0.0,0,0.16,0,0,1853.5550951999612,1853.5550951999612,1853.5550951999612,1853.5550951999612,1853.5550951999612,1853.5550951999612,1853.5550951999612,1853.5550951999612,1853.545176709909,0.7531789001077414,return,0.6235861000604928,,,,,,,,,,,,,,,,,,,,,,,,,,,,,,,,,QN84RM,train_x,red_square,top_right,2025-09-23_18h14.43.190,HideSeek_v1,2022.2.5,59.9728563159256,
,5,8,5,8,0,0,16,,train_dim1_1,10,30,,,,2,0,2,0,,,,,,,,,0,0,0,0,0,9,9,9,1,0,1,0,,,,,,,,,,,,,,,,,,,,,,,,,,,,,,,,,,,,,,,,,,,,,,,,,,,,,,,,,,,,,,,,30,,,,,,,,1856.822079299949,1856.822079299949,1856.822079299949,1856.822079299949,1856.822079299949,left,0.5747948996722698,2,0,0,99,0.07999999999999997,0.24,left,0.48383569996804,,,,,,,,,,,,,,,,,,,,,,,,,,,,,,,,,,,,,,,,,,,,,,,,,,,,,,,,,,,,QN84RM,train_x,red_square,top_right,2025-09-23_18h14.43.190,HideSeek_v1,2022.2.5,59.9728563159256,
,5,8,5,8,0,0,16,,train_dim1_1,10,30,,,,2,0,2,0,,,,,,,,,0,0,0,0,0,9,9,9,2,0,2,0,,,,,,,,,,,,,,,,,,,,,,,,,,,,,,,,,,,,,,,,,,,,,,,,,,,,,,,,,,,,,,,,30,,,,,,,,1857.4086882998236,1857.4086882998236,1857.4086882998236,1857.4086882998236,1857.4086882998236,left,0.3924360000528395,2,0,0,99,-2.7755575615628914e-17,0.24,left,0.3062240001745522,,,,,,,,,,,,,,,,,,,,,,,,,,,,,,,,,,,,,,,,,,,,,,,,,,,,,,,,,,,,QN84RM,train_x,red_square,top_right,2025-09-23_18h14.43.190,HideSeek_v1,2022.2.5,59.9728563159256,
,5,8,5,8,0,0,16,,train_dim1_1,10,30,,,,2,0,2,0,,,,,,,,,0,0,0,0,0,9,9,9,3,0,3,0,,,,,,,,,,,,,,,,,,,,,,,,,,,,,,,,,,,,,,,,,,,,,,,,,,,,,,,,,,,,,,,,30,,,,,,,,1857.8168873996474,1857.8168873996474,1857.8168873996474,1857.8168873996474,1857.8168873996474,return,0.6767500001005828,2,0,0,0,-2.7755575615628914e-17,0.24,return,0.5791740999557078,-8,-20,-2.7755575615628914e-17,0.24,,,,,,,,,,,,,,,,,,,,,,,,,,,,,,,,,,,,,,,,,,,,,,,,,,,,,,,,QN84RM,train_x,red_square,top_right,2025-09-23_18h14.43.190,HideSeek_v1,2022.2.5,59.9728563159256,
,7,7,4,7,-3,0,46,,train_dim1_1,11,30,,,,2,0,2,0,,,,,,,,,0,0,0,0,0,10,10,10,0,0,0,0,,,,,,,,,,,,,,,,,,,,,,,,,stimuli/alien_stimuli/46.png,,,,,,,,,,,,,,,,,,,,,,,,,,,,,stimuli/alien_stimuli/16.png,16,5,12,,,,,,,30,,,,,,,,1862.331385300029,1862.331385300029,1862.331385300029,1862.331385300029,1862.331385300029,left,0.4865413997322321,2,0,0,99,0.32,0.16,left,0.3951982003636658,,,,,1860.7681467998773,1862.331385300029,0.24,0.24,0.0,0.0,0.24,0.24,0.24,0.24,0.24,1860.0471827997826,1860.0471827997826,1860.0471827997826,1860.0471827997826,1860.0471827997826,1860.0471827997826,1860.0471827997826,1860.0471827997826,1860.033720009867,0.8367920001037419,return,0.7027495997026563,,,,,,,,,,,,,,,,,,,,,,,,,,,,,,,,,QN84RM,train_x,red_square,top_right,2025-09-23_18h14.43.190,HideSeek_v1,2022.2.5,59.9728563159256,
,7,7,4,7,-3,0,46,,train_dim1_1,11,30,,,,2,0,2,0,,,,,,,,,0,0,0,0,0,10,10,10,1,0,1,0,,,,,,,,,,,,,,,,,,,,,,,,,,,,,,,,,,,,,,,,,,,,,,,,,,,,,,,,,,,,,,,,30,,,,,,,,1862.8185541997664,1862.8185541997664,1862.8185541997664,1862.8185541997664,1862.8185541997664,left,0.4258504998870194,2,0,0,99,0.24,0.16,left,0.33816180005669594,,,,,,,,,,,,,,,,,,,,,,,,,,,,,,,,,,,,,,,,,,,,,,,,,,,,,,,,,,,,QN84RM,train_x,red_square,top_right,2025-09-23_18h14.43.190,HideSeek_v1,2022.2.5,59.9728563159256,
,7,7,4,7,-3,0,46,,train_dim1_1,11,30,,,,2,0,2,0,,,,,,,,,0,0,0,0,0,10,10,10,2,0,2,0,,,,,,,,,,,,,,,,,,,,,,,,,,,,,,,,,,,,,,,,,,,,,,,,,,,,,,,,,,,,,,,,30,,,,,,,,1863.255587699823,1863.255587699823,1863.255587699823,1863.255587699823,1863.255587699823,left,0.4597285999916494,2,0,0,99,0.15999999999999998,0.16,left,0.3664750000461936,,,,,,,,,,,,,,,,,,,,,,,,,,,,,,,,,,,,,,,,,,,,,,,,,,,,,,,,,,,,QN84RM,train_x,red_square,top_right,2025-09-23_18h14.43.190,HideSeek_v1,2022.2.5,59.9728563159256,
,7,7,4,7,-3,0,46,,train_dim1_1,11,30,,,,2,0,2,0,,,,,,,,,0,0,0,0,0,10,10,10,3,0,3,0,,,,,,,,,,,,,,,,,,,,,,,,,,,,,,,,,,,,,,,,,,,,,,,,,,,,,,,,,,,,,,,,30,,,,,,,,1863.7227191999555,1863.7227191999555,1863.7227191999555,1863.7227191999555,1863.7227191999555,return,2.5088422000408173,3,0,0,1,0.15999999999999998,0.16,return,2.43245039973408,-8,-23,0.15999999999999998,0.16,,,,,,,,,,,,,,,,,,,,,,,,,,,,,,,,,,,,,,,,,,,,,,,,,,,,,,,,QN84RM,train_x,red_square,top_right,2025-09-23_18h14.43.190,HideSeek_v1,2022.2.5,59.9728563159256,
,5,5,4,5,-1,0,26,,train_dim1_1,12,30,,,,2,0,2,0,,,,,,,,,0,0,0,0,0,11,11,11,0,0,0,0,,,,,,,,,,,,,,,,,,,,,,,,,stimuli/alien_stimuli/26.png,,,,,,,,,,,,,,,,,,,,,,,,,,,,,stimuli/alien_stimuli/46.png,46,7,13,,,,,,,30,,,,,,,,1870.1040861997753,1870.1040861997753,1870.1040861997753,1870.1040861997753,1870.1040861997753,left,0.7730833999812603,3,0,0,99,0.15999999999999998,0,left,0.6686864998191595,,,,,1868.5244668000378,1870.1040861997753,0.16,0.16,0.0,0.24,0.16,0.16,0.28,0.16,0.16,1867.7948483997025,1867.7948483997025,1867.7948483997025,1867.7948483997025,1867.7948483997025,1867.7948483997025,1867.7948483997025,1867.7948483997025,1867.7735235795378,0.8364066001959145,return,0.7046586000360548,,,,,,,,,,,,,,,,,,,,,,,,,,,,,,,,,QN84RM,train_x,red_square,top_right,2025-09-23_18h14.43.190,HideSeek_v1,2022.2.5,59.9728563159256,
,5,5,4,5,-1,0,26,,train_dim1_1,12,30,,,,2,0,2,0,,,,,,,,,0,0,0,0,0,11,11,11,1,0,1,0,,,,,,,,,,,,,,,,,,,,,,,,,,,,,,,,,,,,,,,,,,,,,,,,,,,,,,,,,,,,,,,,30,,,,,,,,1870.8663220996968,1870.8663220996968,1870.8663220996968,1870.8663220996968,1870.8663220996968,left,0.442711700219661,3,0,0,99,0.07999999999999997,0,left,0.35975459963083267,,,,,,,,,,,,,,,,,,,,,,,,,,,,,,,,,,,,,,,,,,,,,,,,,,,,,,,,,,,,QN84RM,train_x,red_square,top_right,2025-09-23_18h14.43.190,HideSeek_v1,2022.2.5,59.9728563159256,
,5,5,4,5,-1,0,26,,train_dim1_1,12,30,,,,2,0,2,0,,,,,,,,,0,0,0,0,0,11,11,11,2,0,2,0,,,,,,,,,,,,,,,,,,,,,,,,,,,,,,,,,,,,,,,,,,,,,,,,,,,,,,,,,,,,,,,,30,,,,,,,,1871.315367799718,1871.315367799718,1871.315367799718,1871.315367799718,1871.315367799718,left,0.39333470026031137,3,0,0,99,-2.7755575615628914e-17,0,left,0.3046899000182748,,,,,,,,,,,,,,,,,,,,,,,,,,,,,,,,,,,,,,,,,,,,,,,,,,,,,,,,,,,,QN84RM,train_x,red_square,top_right,2025-09-23_18h14.43.190,HideSeek_v1,2022.2.5,59.9728563159256,
,5,5,4,5,-1,0,26,,train_dim1_1,12,30,,,,2,0,2,0,,,,,,,,,0,0,0,0,0,11,11,11,3,0,3,0,,,,,,,,,,,,,,,,,,,,,,,,,,,,,,,,,,,,,,,,,,,,,,,,,,,,,,,,,,,,,,,,30,,,,,,,,1871.7122068000026,1871.7122068000026,1871.7122068000026,1871.7122068000026,1871.7122068000026,left,0.5269005997106433,3,0,0,99,-0.08000000000000003,0,left,0.4334582998417318,,,,,,,,,,,,,,,,,,,,,,,,,,,,,,,,,,,,,,,,,,,,,,,,,,,,,,,,,,,,QN84RM,train_x,red_square,top_right,2025-09-23_18h14.43.190,HideSeek_v1,2022.2.5,59.9728563159256,
,5,5,4,5,-1,0,26,,train_dim1_1,12,30,,,,2,0,2,0,,,,,,,,,0,0,0,0,0,11,11,11,4,0,4,0,,,,,,,,,,,,,,,,,,,,,,,,,,,,,,,,,,,,,,,,,,,,,,,,,,,,,,,,,,,,,,,,30,,,,,,,,1872.2471225000918,1872.2471225000918,1872.2471225000918,1872.2471225000918,1872.2471225000918,return,0.4766249000094831,3,0,0,0,-0.08000000000000003,0,return,0.39245649985969067,-8,-27,-0.08000000000000003,0,,,,,,,,,,,,,,,,,,,,,,,,,,,,,,,,,,,,,,,,,,,,,,,,,,,,,,,,QN84RM,train_x,red_square,top_right,2025-09-23_18h14.43.190,HideSeek_v1,2022.2.5,59.9728563159256,
,5,9,1,9,-4,0,56,,train_dim1_1,13,30,,,,2,0,2,0,,,,,,,,,0,0,0,0,0,12,12,12,0,0,0,0,,,,,,,,,,,,,,,,,,,,,,,,,stimuli/alien_stimuli/56.png,,,,,,,,,,,,,,,,,,,,,,,,,,,,,stimuli/alien_stimuli/26.png,26,5,14,,,,,,,30,,,,,,,,1876.7642357996665,1876.7642357996665,1876.7642357996665,1876.7642357996665,1876.7642357996665,left,2.491424399893731,3,0,0,99,0.15999999999999998,0.32,left,2.3902620002627373,,,,,1875.196670900099,1876.7642357996665,0.16,0,0.0,0.08,0.0,0.16,0.2,0.16,0,1874.2937289997935,1874.2937289997935,1874.2937289997935,1874.2937289997935,1874.2937289997935,1874.2937289997935,1874.2937289997935,1874.2937289997935,1874.2789745097048,1.0197951002046466,return,0.8793767001479864,,,,,,,,,,,,,,,,,,,,,,,,,,,,,,,,,QN84RM,train_x,red_square,top_right,2025-09-23_18h14.43.190,HideSeek_v1,2022.2.5,59.9728563159256,
,5,9,1,9,-4,0,56,,train_dim1_1,13,30,,,,2,0,2,0,,,,,,,,,0,0,0,0,0,12,12,12,1,0,1,0,,,,,,,,,,,,,,,,,,,,,,,,,,,,,,,,,,,,,,,,,,,,,,,,,,,,,,,,,,,,,,,,30,,,,,,,,1879.251165600028,1879.251165600028,1879.251165600028,1879.251165600028,1879.251165600028,return,3.67746359994635,3,0,0,0,0.15999999999999998,0.32,return,3.5917118000797927,-8,-28,0.15999999999999998,0.32,,,,,,,,,,,,,,,,,,,,,,,,,,,,,,,,,,,,,,,,,,,,,,,,,,,,,,,,QN84RM,train_x,red_square,top_right,2025-09-23_18h14.43.190,HideSeek_v1,2022.2.5,59.9728563159256,
,9,8,9,8,0,0,16,,train_dim1_1,14,30,,,,2,0,2,0,,,,,,,,,0,0,0,0,0,13,13,13,0,0,0,0,,,,,,,,,,,,,,,,,,,,,,,,,stimuli/alien_stimuli/16.png,,,,,,,,,,,,,,,,,,,,,,,,,,,,,stimuli/alien_stimuli/56.png,56,5,15,,,,,,,30,,,,,,,,1886.7457918999717,1886.7457918999717,1886.7457918999717,1886.7457918999717,1886.7457918999717,left,1.3235670998692513,3,0,0,99,0.48000000000000004,0.24,left,1.227568699978292,,,,,1885.171725299675,1886.7457918999717,-0.08,0.32,0.0,0.32,0.32,-0.08,0.07999999999999999,-0.08,0.32,1884.4993023998104,1884.4993023998104,1884.4993023998104,1884.4993023998104,1884.4993023998104,1884.4993023998104,1884.4993023998104,1884.4993023998104,1884.4874760097823,0.7860916000790894,return,0.643686399795115,,,,,,,,,,,,,,,,,,,,,,,,,,,,,,,,,QN84RM,train_x,red_square,top_right,2025-09-23_18h14.43.190,HideSeek_v1,2022.2.5,59.9728563159256,
,9,8,9,8,0,0,16,,train_dim1_1,14,30,,,,2,0,2,0,,,,,,,,,0,0,0,0,0,13,13,13,1,0,1,0,,,,,,,,,,,,,,,,,,,,,,,,,,,,,,,,,,,,,,,,,,,,,,,,,,,,,,,,,,,,,,,,30,,,,,,,,1888.0644713998772,1888.0644713998772,1888.0644713998772,1888.0644713998772,1888.0644713998772,left,0.47309380024671555,3,0,0,99,0.4,0.24,left,0.38537799986079335,,,,,,,,,,,,,,,,,,,,,,,,,,,,,,,,,,,,,,,,,,,,,,,,,,,,,,,,,,,,QN84RM,train_x,red_square,top_right,2025-09-23_18h14.43.190,HideSeek_v1,2022.2.5,59.9728563159256,
,9,8,9,8,0,0,16,,train_dim1_1,14,30,,,,2,0,2,0,,,,,,,,,0,0,0,0,0,13,13,13,2,0,2,0,,,,,,,,,,,,,,,,,,,,,,,,,,,,,,,,,,,,,,,,,,,,,,,,,,,,,,,,,,,,,,,,30,,,,,,,,1888.5457363999449,1888.5457363999449,1888.5457363999449,1888.5457363999449,1888.5457363999449,left,0.6101542999967933,3,0,0,99,0.32,0.24,left,0.5265618995763361,,,,,,,,,,,,,,,,,,,,,,,,,,,,,,,,,,,,,,,,,,,,,,,,,,,,,,,,,,,,QN84RM,train_x,red_square,top_right,2025-09-23_18h14.43.190,HideSeek_v1,2022.2.5,59.9728563159256,
,9,8,9,8,0,0,16,,train_dim1_1,14,30,,,,2,0,2,0,,,,,,,,,0,0,0,0,0,13,13,13,3,0,3,0,,,,,,,,,,,,,,,,,,,,,,,,,,,,,,,,,,,,,,,,,,,,,,,,,,,,,,,,,,,,,,,,30,,,,,,,,1889.161553400103,1889.161553400103,1889.161553400103,1889.161553400103,1889.161553400103,right,4.978305799886584,3,0,0,99,0.4,0.24,right,4.888521499931812,,,,,,,,,,,,,,,,,,,,,,,,,,,,,,,,,,,,,,,,,,,,,,,,,,,,,,,,,,,,QN84RM,train_x,red_square,top_right,2025-09-23_18h14.43.190,HideSeek_v1,2022.2.5,59.9728563159256,
,9,8,9,8,0,0,16,,train_dim1_1,14,30,,,,2,0,2,0,,,,,,,,,0,0,0,0,0,13,13,13,4,0,4,0,,,,,,,,,,,,,,,,,,,,,,,,,,,,,,,,,,,,,,,,,,,,,,,,,,,,,,,,,,,,,,,,30,,,,,,,,1894.1510494998656,1894.1510494998656,1894.1510494998656,1894.1510494998656,1894.1510494998656,right,0.3418727000243962,3,0,0,99,0.48000000000000004,0.24,right,0.257092900108546,,,,,,,,,,,,,,,,,,,,,,,,,,,,,,,,,,,,,,,,,,,,,,,,,,,,,,,,,,,,QN84RM,train_x,red_square,top_right,2025-09-23_18h14.43.190,HideSeek_v1,2022.2.5,59.9728563159256,
,9,8,9,8,0,0,16,,train_dim1_1,14,30,,,,2,0,2,0,,,,,,,,,0,0,0,0,0,13,13,13,5,0,5,0,,,,,,,,,,,,,,,,,,,,,,,,,,,,,,,,,,,,,,,,,,,,,,,,,,,,,,,,,,,,,,,,30,,,,,,,,1894.4983139000833,1894.4983139000833,1894.4983139000833,1894.4983139000833,1894.4983139000833,right,0.29345070011913776,3,0,0,99,0.56,0.24,right,0.2054941998794675,,,,,,,,,,,,,,,,,,,,,,,,,,,,,,,,,,,,,,,,,,,,,,,,,,,,,,,,,,,,QN84RM,train_x,red_square,top_right,2025-09-23_18h14.43.190,HideSeek_v1,2022.2.5,59.9728563159256,
,9,8,9,8,0,0,16,,train_dim1_1,14,30,,,,2,0,2,0,,,,,,,,,0,0,0,0,0,13,13,13,6,0,6,0,,,,,,,,,,,,,,,,,,,,,,,,,,,,,,,,,,,,,,,,,,,,,,,,,,,,,,,,,,,,,,,,30,,,,,,,,1894.8025165996514,1894.8025165996514,1894.8025165996514,1894.8025165996514,1894.8025165996514,return,0.8601715001277626,4,0,0,1,0.56,0.24,return,0.7679620999842882,-8,-28,0.56,0.24,,,,,,,,,,,,,,,,,,,,,,,,,,,,,,,,,,,,,,,,,,,,,,,,,,,,,,,,QN84RM,train_x,red_square,top_right,2025-09-23_18h14.43.190,HideSeek_v1,2022.2.5,59.9728563159256,
,9,7,4,7,-5,0,66,,train_dim1_1,15,30,,,,2,0,2,0,,,,,,,,,0,0,0,0,0,14,14,14,0,0,0,0,,,,,,,,,,,,,,,,,,,,,,,,,stimuli/alien_stimuli/66.png,,,,,,,,,,,,,,,,,,,,,,,,,,,,,stimuli/alien_stimuli/16.png,16,9,16,,,,,,,30,,,,,,,,1899.6082870000973,1899.6082870000973,1899.6082870000973,1899.6082870000973,1899.6082870000973,left,1.2573167998343706,4,0,0,99,0.48000000000000004,0.16,left,1.1529781999997795,,,,,1898.0320183997974,1899.6082870000973,0.56,0.24,0.0,0.0,0.24,0.56,0.56,0.56,0.24,1897.2423380999826,1897.2423380999826,1897.2423380999826,1897.2423380999826,1897.2423380999826,1897.2423380999826,1897.2423380999826,1897.2423380999826,1897.231404739525,0.9191709002479911,return,0.7706120000220835,,,,,,,,,,,,,,,,,,,,,,,,,,,,,,,,,QN84RM,train_x,red_square,top_right,2025-09-23_18h14.43.190,HideSeek_v1,2022.2.5,59.9728563159256,
,9,7,4,7,-5,0,66,,train_dim1_1,15,30,,,,2,0,2,0,,,,,,,,,0,0,0,0,0,14,14,14,1,0,1,0,,,,,,,,,,,,,,,,,,,,,,,,,,,,,,,,,,,,,,,,,,,,,,,,,,,,,,,,,,,,,,,,30,,,,,,,,1900.8489337000065,1900.8489337000065,1900.8489337000065,1900.8489337000065,1900.8489337000065,left,0.3928747000172734,4,0,0,99,0.4,0.16,left,0.3173014996573329,,,,,,,,,,,,,,,,,,,,,,,,,,,,,,,,,,,,,,,,,,,,,,,,,,,,,,,,,,,,QN84RM,train_x,red_square,top_right,2025-09-23_18h14.43.190,HideSeek_v1,2022.2.5,59.9728563159256,
,9,7,4,7,-5,0,66,,train_dim1_1,15,30,,,,2,0,2,0,,,,,,,,,0,0,0,0,0,14,14,14,2,0,2,0,,,,,,,,,,,,,,,,,,,,,,,,,,,,,,,,,,,,,,,,,,,,,,,,,,,,,,,,,,,,,,,,30,,,,,,,,1901.2495037000626,1901.2495037000626,1901.2495037000626,1901.2495037000626,1901.2495037000626,left,0.3265951001085341,4,0,0,99,0.32,0.16,left,0.2521963999606669,,,,,,,,,,,,,,,,,,,,,,,,,,,,,,,,,,,,,,,,,,,,,,,,,,,,,,,,,,,,QN84RM,train_x,red_square,top_right,2025-09-23_18h14.43.190,HideSeek_v1,2022.2.5,59.9728563159256,
,9,7,4,7,-5,0,66,,train_dim1_1,15,30,,,,2,0,2,0,,,,,,,,,0,0,0,0,0,14,14,14,3,0,3,0,,,,,,,,,,,,,,,,,,,,,,,,,,,,,,,,,,,,,,,,,,,,,,,,,,,,,,,,,,,,,,,,30,,,,,,,,1901.5838627996854,1901.5838627996854,1901.5838627996854,1901.5838627996854,1901.5838627996854,left,0.36003580037504435,4,0,0,99,0.24,0.16,left,0.27041029976680875,,,,,,,,,,,,,,,,,,,,,,,,,,,,,,,,,,,,,,,,,,,,,,,,,,,,,,,,,,,,QN84RM,train_x,red_square,top_right,2025-09-23_18h14.43.190,HideSeek_v1,2022.2.5,59.9728563159256,
,9,7,4,7,-5,0,66,,train_dim1_1,15,30,,,,2,0,2,0,,,,,,,,,0,0,0,0,0,14,14,14,4,0,4,0,,,,,,,,,,,,,,,,,,,,,,,,,,,,,,,,,,,,,,,,,,,,,,,,,,,,,,,,,,,,,,,,30,,,,,,,,1901.9522927999496,1901.9522927999496,1901.9522927999496,1901.9522927999496,1901.9522927999496,return,0.37624769983813167,4,1,0,0,0.24,0.16,return,0.29767629969865084,-8,-32,0.24,0.16,,,,,,,,,,,,,,,,,,,,,,,,,,,,,,,,,,,,,,,,,,,,,,,,,,,,,,,,QN84RM,train_x,red_square,top_right,2025-09-23_18h14.43.190,HideSeek_v1,2022.2.5,59.9728563159256,
,8,8,4,8,-4,0,56,,train_dim1_1,16,30,,,,2,0,2,0,,,,,,,,,0,0,0,0,0,15,15,15,0,0,0,0,,,,,,,,,,,,,,,,,,,,,,,,,stimuli/alien_stimuli/56.png,,,,,,,,,,,,,,,,,,,,,,,,,,,,,stimuli/alien_stimuli/66.png,66,9,17,,,,,,,30,,,,,,,,1911.3545518997125,1911.3545518997125,1911.3545518997125,1911.3545518997125,1911.3545518997125,left,2.0078198998235166,4,1,0,99,0.39999999999999997,0.24,left,1.9110443000681698,,,,,1909.7918392997235,1911.3545518997125,0.16,0.16,0.0,0.4,0.16,0.16,0.36000000000000004,0.16,0.16,1903.8922224999405,1903.8922224999405,1903.8922224999405,1903.8922224999405,1903.8922224999405,1903.8922224999405,1903.8922224999405,1903.8922224999405,1903.8701170796528,6.007339199539274,return,5.875626299995929,,,,,,,,,,,,,,,,,,,,,,,,,,,,,,,,,QN84RM,train_x,red_square,top_right,2025-09-23_18h14.43.190,HideSeek_v1,2022.2.5,59.9728563159256,
,8,8,4,8,-4,0,56,,train_dim1_1,16,30,,,,2,0,2,0,,,,,,,,,0,0,0,0,0,15,15,15,1,0,1,0,,,,,,,,,,,,,,,,,,,,,,,,,,,,,,,,,,,,,,,,,,,,,,,,,,,,,,,,,,,,,,,,30,,,,,,,,1913.3624668000266,1913.3624668000266,1913.3624668000266,1913.3624668000266,1913.3624668000266,left,0.3748202999122441,4,1,0,99,0.31999999999999995,0.24,left,0.29489489970728755,,,,,,,,,,,,,,,,,,,,,,,,,,,,,,,,,,,,,,,,,,,,,,,,,,,,,,,,,,,,QN84RM,train_x,red_square,top_right,2025-09-23_18h14.43.190,HideSeek_v1,2022.2.5,59.9728563159256,
,8,8,4,8,-4,0,56,,train_dim1_1,16,30,,,,2,0,2,0,,,,,,,,,0,0,0,0,0,15,15,15,2,0,2,0,,,,,,,,,,,,,,,,,,,,,,,,,,,,,,,,,,,,,,,,,,,,,,,,,,,,,,,,,,,,,,,,30,,,,,,,,1913.7461572997272,1913.7461572997272,1913.7461572997272,1913.7461572997272,1913.7461572997272,left,0.35991609981283545,4,1,0,99,0.23999999999999994,0.24,left,0.2770363995805383,,,,,,,,,,,,,,,,,,,,,,,,,,,,,,,,,,,,,,,,,,,,,,,,,,,,,,,,,,,,QN84RM,train_x,red_square,top_right,2025-09-23_18h14.43.190,HideSeek_v1,2022.2.5,59.9728563159256,
,8,8,4,8,-4,0,56,,train_dim1_1,16,30,,,,2,0,2,0,,,,,,,,,0,0,0,0,0,15,15,15,3,0,3,0,,,,,,,,,,,,,,,,,,,,,,,,,,,,,,,,,,,,,,,,,,,,,,,,,,,,,,,,,,,,,,,,30,,,,,,,,1914.1156588997692,1914.1156588997692,1914.1156588997692,1914.1156588997692,1914.1156588997692,left,0.2932966002263129,4,1,0,99,0.15999999999999992,0.24,left,0.2120929998345673,,,,,,,,,,,,,,,,,,,,,,,,,,,,,,,,,,,,,,,,,,,,,,,,,,,,,,,,,,,,QN84RM,train_x,red_square,top_right,2025-09-23_18h14.43.190,HideSeek_v1,2022.2.5,59.9728563159256,
,8,8,4,8,-4,0,56,,train_dim1_1,16,30,,,,2,0,2,0,,,,,,,,,0,0,0,0,0,15,15,15,4,0,4,0,,,,,,,,,,,,,,,,,,,,,,,,,,,,,,,,,,,,,,,,,,,,,,,,,,,,,,,,,,,,,,,,30,,,,,,,,1914.415539899841,1914.415539899841,1914.415539899841,1914.415539899841,1914.415539899841,return,1.2270503002218902,5,0,0,1,0.15999999999999992,0.24,return,1.1327804001048207,-8,-36,0.15999999999999992,0.24,,,,,,,,,,,,,,,,,,,,,,,,,,,,,,,,,,,,,,,,,,,,,,,,,,,,,,,,QN84RM,train_x,red_square,top_right,2025-09-23_18h14.43.190,HideSeek_v1,2022.2.5,59.9728563159256,
,7,9,6,9,-1,0,26,,train_dim1_1,17,30,,,,2,0,2,0,,,,,,,,,0,0,0,0,0,16,16,16,0,0,0,0,,,,,,,,,,,,,,,,,,,,,,,,,stimuli/alien_stimuli/26.png,,,,,,,,,,,,,,,,,,,,,,,,,,,,,stimuli/alien_stimuli/56.png,56,8,18,,,,,,,30,,,,,,,,1919.4173269998282,1919.4173269998282,1919.4173269998282,1919.4173269998282,1919.4173269998282,left,1.9580558999441564,5,0,0,99,0.32,0.32,left,1.8396159000694752,,,,,1917.8317815996706,1919.4173269998282,0.16,0.24,0.0,0.32,0.24,0.16,0.32,0.16,0.24,1917.2315851999447,1917.2315851999447,1917.2315851999447,1917.2315851999447,1917.2315851999447,1917.2315851999447,1917.2315851999447,1917.2315851999447,1917.2145493394694,0.7362466002814472,return,0.5793083002790809,,,,,,,,,,,,,,,,,,,,,,,,,,,,,,,,,QN84RM,train_x,red_square,top_right,2025-09-23_18h14.43.190,HideSeek_v1,2022.2.5,59.9728563159256,
,7,9,6,9,-1,0,26,,train_dim1_1,17,30,,,,2,0,2,0,,,,,,,,,0,0,0,0,0,16,16,16,1,0,1,0,,,,,,,,,,,,,,,,,,,,,,,,,,,,,,,,,,,,,,,,,,,,,,,,,,,,,,,,,,,,,,,,30,,,,,,,,1921.3547073998488,1921.3547073998488,1921.3547073998488,1921.3547073998488,1921.3547073998488,return,0.3425114997662604,6,0,0,1,0.32,0.32,return,0.2534754001535475,-8,-37,0.32,0.32,,,,,,,,,,,,,,,,,,,,,,,,,,,,,,,,,,,,,,,,,,,,,,,,,,,,,,,,QN84RM,train_x,red_square,top_right,2025-09-23_18h14.43.190,HideSeek_v1,2022.2.5,59.9728563159256,
,7,6,2,6,-5,0,66,,train_dim1_1,18,30,,,,2,0,2,0,,,,,,,,,0,0,0,0,0,17,17,17,0,0,0,0,,,,,,,,,,,,,,,,,,,,,,,,,stimuli/alien_stimuli/66.png,,,,,,,,,,,,,,,,,,,,,,,,,,,,,stimuli/alien_stimuli/26.png,26,7,19,,,,,,,30,,,,,,,,1925.45096619986,1925.45096619986,1925.45096619986,1925.45096619986,1925.45096619986,left,1.5073588001541793,6,0,0,99,0.32,0.08,left,1.412759399972856,,,,,1923.8867426998913,1925.45096619986,0.32,0.32,0.0,0.08,0.32,0.32,0.36,0.32,0.32,1923.268594400026,1923.268594400026,1923.268594400026,1923.268594400026,1923.268594400026,1923.268594400026,1923.268594400026,1923.268594400026,1923.2528924098237,0.7364882002584636,return,0.5922016999684274,,,,,,,,,,,,,,,,,,,,,,,,,,,,,,,,,QN84RM,train_x,red_square,top_right,2025-09-23_18h14.43.190,HideSeek_v1,2022.2.5,59.9728563159256,
,7,6,2,6,-5,0,66,,train_dim1_1,18,30,,,,2,0,2,0,,,,,,,,,0,0,0,0,0,17,17,17,1,0,1,0,,,,,,,,,,,,,,,,,,,,,,,,,,,,,,,,,,,,,,,,,,,,,,,,,,,,,,,,,,,,,,,,30,,,,,,,,1926.9555151998065,1926.9555151998065,1926.9555151998065,1926.9555151998065,1926.9555151998065,left,0.27580920001491904,6,0,0,99,0.24,0.08,left,0.1990442997775972,,,,,,,,,,,,,,,,,,,,,,,,,,,,,,,,,,,,,,,,,,,,,,,,,,,,,,,,,,,,QN84RM,train_x,red_square,top_right,2025-09-23_18h14.43.190,HideSeek_v1,2022.2.5,59.9728563159256,
,7,6,2,6,-5,0,66,,train_dim1_1,18,30,,,,2,0,2,0,,,,,,,,,0,0,0,0,0,17,17,17,2,0,2,0,,,,,,,,,,,,,,,,,,,,,,,,,,,,,,,,,,,,,,,,,,,,,,,,,,,,,,,,,,,,,,,,30,,,,,,,,1927.2484434000216,1927.2484434000216,1927.2484434000216,1927.2484434000216,1927.2484434000216,left,0.3429785002954304,6,0,0,99,0.15999999999999998,0.08,left,0.24958410020917654,,,,,,,,,,,,,,,,,,,,,,,,,,,,,,,,,,,,,,,,,,,,,,,,,,,,,,,,,,,,QN84RM,train_x,red_square,top_right,2025-09-23_18h14.43.190,HideSeek_v1,2022.2.5,59.9728563159256,
,7,6,2,6,-5,0,66,,train_dim1_1,18,30,,,,2,0,2,0,,,,,,,,,0,0,0,0,0,17,17,17,3,0,3,0,,,,,,,,,,,,,,,,,,,,,,,,,,,,,,,,,,,,,,,,,,,,,,,,,,,,,,,,,,,,,,,,30,,,,,,,,1927.594395400025,1927.594395400025,1927.594395400025,1927.594395400025,1927.594395400025,left,0.3572639999911189,6,0,0,99,0.07999999999999997,0.08,left,0.2724521001800895,,,,,,,,,,,,,,,,,,,,,,,,,,,,,,,,,,,,,,,,,,,,,,,,,,,,,,,,,,,,QN84RM,train_x,red_square,top_right,2025-09-23_18h14.43.190,HideSeek_v1,2022.2.5,59.9728563159256,
,7,6,2,6,-5,0,66,,train_dim1_1,18,30,,,,2,0,2,0,,,,,,,,,0,0,0,0,0,17,17,17,4,0,4,0,,,,,,,,,,,,,,,,,,,,,,,,,,,,,,,,,,,,,,,,,,,,,,,,,,,,,,,,,,,,,,,,30,,,,,,,,1927.97177059995,1927.97177059995,1927.97177059995,1927.97177059995,1927.97177059995,left,0.759835499804467,6,0,0,99,-2.7755575615628914e-17,0.08,left,0.6622824002988636,,,,,,,,,,,,,,,,,,,,,,,,,,,,,,,,,,,,,,,,,,,,,,,,,,,,,,,,,,,,QN84RM,train_x,red_square,top_right,2025-09-23_18h14.43.190,HideSeek_v1,2022.2.5,59.9728563159256,
,7,6,2,6,-5,0,66,,train_dim1_1,18,30,,,,2,0,2,0,,,,,,,,,0,0,0,0,0,17,17,17,5,0,5,0,,,,,,,,,,,,,,,,,,,,,,,,,,,,,,,,,,,,,,,,,,,,,,,,,,,,,,,,,,,,,,,,30,,,,,,,,1928.7244184999727,1928.7244184999727,1928.7244184999727,1928.7244184999727,1928.7244184999727,return,0.3402561000548303,7,0,0,1,-2.7755575615628914e-17,0.08,return,0.25476899975910783,-8,-42,-2.7755575615628914e-17,0.08,,,,,,,,,,,,,,,,,,,,,,,,,,,,,,,,,,,,,,,,,,,,,,,,,,,,,,,,QN84RM,train_x,red_square,top_right,2025-09-23_18h14.43.190,HideSeek_v1,2022.2.5,59.9728563159256,
,5,8,2,8,-3,0,46,,train_dim1_1,19,30,,,,2,0,2,0,,,,,,,,,0,0,0,0,0,18,18,18,0,0,0,0,,,,,,,,,,,,,,,,,,,,,,,,,stimuli/alien_stimuli/46.png,,,,,,,,,,,,,,,,,,,,,,,,,,,,,stimuli/alien_stimuli/66.png,66,7,20,,,,,,,30,,,,,,,,1932.768884900026,1932.768884900026,1932.768884900026,1932.768884900026,1932.768884900026,left,2.0910979001782835,7,0,0,99,0.15999999999999998,0.24,left,2.0011642002500594,,,,,1931.2094793999568,1932.768884900026,0,0.08,0.0,0.4,0.08,0,0.2,0,0.08,1930.6311118998565,1930.6311118998565,1930.6311118998565,1930.6311118998565,1930.6311118998565,1930.6311118998565,1930.6311118998565,1930.6311118998565,1930.6090659799054,0.6857436001300812,return,0.5553900999948382,,,,,,,,,,,,,,,,,,,,,,,,,,,,,,,,,QN84RM,train_x,red_square,top_right,2025-09-23_18h14.43.190,HideSeek_v1,2022.2.5,59.9728563159256,
,5,8,2,8,-3,0,46,,train_dim1_1,19,30,,,,2,0,2,0,,,,,,,,,0,0,0,0,0,18,18,18,1,0,1,0,,,,,,,,,,,,,,,,,,,,,,,,,,,,,,,,,,,,,,,,,,,,,,,,,,,,,,,,,,,,,,,,30,,,,,,,,1934.8622381999157,1934.8622381999157,1934.8622381999157,1934.8622381999157,1934.8622381999157,left,0.5260911998338997,7,0,0,99,0.07999999999999997,0.24,left,0.43696429999545217,,,,,,,,,,,,,,,,,,,,,,,,,,,,,,,,,,,,,,,,,,,,,,,,,,,,,,,,,,,,QN84RM,train_x,red_square,top_right,2025-09-23_18h14.43.190,HideSeek_v1,2022.2.5,59.9728563159256,
,5,8,2,8,-3,0,46,,train_dim1_1,19,30,,,,2,0,2,0,,,,,,,,,0,0,0,0,0,18,18,18,2,0,2,0,,,,,,,,,,,,,,,,,,,,,,,,,,,,,,,,,,,,,,,,,,,,,,,,,,,,,,,,,,,,,,,,30,,,,,,,,1935.3960949997418,1935.3960949997418,1935.3960949997418,1935.3960949997418,1935.3960949997418,left,0.34363859985023737,7,0,0,99,-2.7755575615628914e-17,0.24,left,0.2599816001020372,,,,,,,,,,,,,,,,,,,,,,,,,,,,,,,,,,,,,,,,,,,,,,,,,,,,,,,,,,,,QN84RM,train_x,red_square,top_right,2025-09-23_18h14.43.190,HideSeek_v1,2022.2.5,59.9728563159256,
,5,8,2,8,-3,0,46,,train_dim1_1,19,30,,,,2,0,2,0,,,,,,,,,0,0,0,0,0,18,18,18,3,0,3,0,,,,,,,,,,,,,,,,,,,,,,,,,,,,,,,,,,,,,,,,,,,,,,,,,,,,,,,,,,,,,,,,30,,,,,,,,1935.7441435996443,1935.7441435996443,1935.7441435996443,1935.7441435996443,1935.7441435996443,return,0.37645839992910624,8,0,0,1,-2.7755575615628914e-17,0.24,return,0.3031237996183336,-8,-45,-2.7755575615628914e-17,0.24,,,,,,,,,,,,,,,,,,,,,,,,,,,,,,,,,,,,,,,,,,,,,,,,,,,,,,,,QN84RM,train_x,red_square,top_right,2025-09-23_18h14.43.190,HideSeek_v1,2022.2.5,59.9728563159256,
,5,6,5,6,0,0,16,,train_dim1_1,20,30,,,,2,0,2,0,,,,,,,,,0,0,0,0,0,19,19,19,0,0,0,0,,,,,,,,,,,,,,,,,,,,,,,,,stimuli/alien_stimuli/16.png,,,,,,,,,,,,,,,,,,,,,,,,,,,,,stimuli/alien_stimuli/46.png,46,5,21,,,,,,,30,,,,,,,,1939.827858499717,1939.827858499717,1939.827858499717,1939.827858499717,1939.827858499717,return,0.8561368002556264,9,0,0,1,0.24,0.08,return,0.7611781000159681,-8,-45,0.24,0.08,1938.2654184997082,1939.827858499717,0,0.24,0.0,0.24,0.24,0,0.12,0,0.24,1937.682592799887,1937.682592799887,1937.682592799887,1937.682592799887,1937.682592799887,1937.682592799887,1937.682592799887,1937.682592799887,1937.66469457997,0.686016300227493,return,0.5551609001122415,,,,,,,,,,,,,,,,,,,,,,,,,,,,,,,,,QN84RM,train_x,red_square,top_right,2025-09-23_18h14.43.190,HideSeek_v1,2022.2.5,59.9728563159256,
,9,7,6,7,-3,0,46,,train_dim1_1,21,30,,,,2,0,2,0,,,,,,,,,0,0,0,0,0,20,20,20,0,0,0,0,,,,,,,,,,,,,,,,,,,,,,,,,stimuli/alien_stimuli/46.png,,,,,,,,,,,,,,,,,,,,,,,,,,,,,stimuli/alien_stimuli/16.png,16,5,22,,,,,,,30,,,,,,,,1944.296092200093,1944.296092200093,1944.296092200093,1944.296092200093,1944.296092200093,left,1.040430000051856,9,0,0,99,0.48000000000000004,0.16,left,0.9430283000692725,,,,,1942.73587449966,1944.296092200093,0.24,0.08,0.0,0.0,0.08,0.24,0.24,0.24,0.08,1942.245036999695,1942.245036999695,1942.245036999695,1942.245036999695,1942.245036999695,1942.245036999695,1942.245036999695,1942.245036999695,1942.235381609667,0.6031239000149071,return,0.4592246999964118,,,,,,,,,,,,,,,,,,,,,,,,,,,,,,,,,QN84RM,train_x,red_square,top_right,2025-09-23_18h14.43.190,HideSeek_v1,2022.2.5,59.9728563159256,
,9,7,6,7,-3,0,46,,train_dim1_1,21,30,,,,2,0,2,0,,,,,,,,,0,0,0,0,0,20,20,20,1,0,1,0,,,,,,,,,,,,,,,,,,,,,,,,,,,,,,,,,,,,,,,,,,,,,,,,,,,,,,,,,,,,,,,,30,,,,,,,,1945.3368501998484,1945.3368501998484,1945.3368501998484,1945.3368501998484,1945.3368501998484,left,1.0267476998269558,9,0,0,99,0.4,0.16,left,0.9478648998774588,,,,,,,,,,,,,,,,,,,,,,,,,,,,,,,,,,,,,,,,,,,,,,,,,,,,,,,,,,,,QN84RM,train_x,red_square,top_right,2025-09-23_18h14.43.190,HideSeek_v1,2022.2.5,59.9728563159256,
,9,7,6,7,-3,0,46,,train_dim1_1,21,30,,,,2,0,2,0,,,,,,,,,0,0,0,0,0,20,20,20,2,0,2,0,,,,,,,,,,,,,,,,,,,,,,,,,,,,,,,,,,,,,,,,,,,,,,,,,,,,,,,,,,,,,,,,30,,,,,,,,1946.3725105999038,1946.3725105999038,1946.3725105999038,1946.3725105999038,1946.3725105999038,left,0.3581938003189862,9,0,0,99,0.32,0.16,left,0.2806736002676189,,,,,,,,,,,,,,,,,,,,,,,,,,,,,,,,,,,,,,,,,,,,,,,,,,,,,,,,,,,,QN84RM,train_x,red_square,top_right,2025-09-23_18h14.43.190,HideSeek_v1,2022.2.5,59.9728563159256,
,9,7,6,7,-3,0,46,,train_dim1_1,21,30,,,,2,0,2,0,,,,,,,,,0,0,0,0,0,20,20,20,3,0,3,0,,,,,,,,,,,,,,,,,,,,,,,,,,,,,,,,,,,,,,,,,,,,,,,,,,,,,,,,,,,,,,,,30,,,,,,,,1946.7383957998827,1946.7383957998827,1946.7383957998827,1946.7383957998827,1946.7383957998827,return,1.0424176999367774,10,0,0,1,0.32,0.16,return,0.9678175998851657,-8,-48,0.32,0.16,,,,,,,,,,,,,,,,,,,,,,,,,,,,,,,,,,,,,,,,,,,,,,,,,,,,,,,,QN84RM,train_x,red_square,top_right,2025-09-23_18h14.43.190,HideSeek_v1,2022.2.5,59.9728563159256,
,6,5,5,5,-1,0,26,,train_dim1_1,22,30,,,,2,0,2,0,,,,,,,,,0,0,0,0,0,21,21,21,0,0,0,0,,,,,,,,,,,,,,,,,,,,,,,,,stimuli/alien_stimuli/26.png,,,,,,,,,,,,,,,,,,,,,,,,,,,,,stimuli/alien_stimuli/46.png,46,9,23,,,,,,,30,,,,,,,,1951.3748241998255,1951.3748241998255,1951.3748241998255,1951.3748241998255,1951.3748241998255,return,1.9739903998561203,10,1,0,0,0.32,0,return,1.8849734999239445,-8,-48,0.32,0,1949.8082614997402,1951.3748241998255,0.32,0.16,0.0,0.24,0.16,0.32,0.44000000000000006,0.32,0.16,1949.3456530999392,1949.3456530999392,1949.3456530999392,1949.3456530999392,1949.3456530999392,1949.3456530999392,1949.3456530999392,1949.3456530999392,1949.324746779818,0.5691847996786237,return,0.44328360026702285,,,,,,,,,,,,,,,,,,,,,,,,,,,,,,,,,QN84RM,train_x,red_square,top_right,2025-09-23_18h14.43.190,HideSeek_v1,2022.2.5,59.9728563159256,
,7,6,2,6,-5,0,66,,train_dim1_1,23,30,,,,2,0,2,0,,,,,,,,,0,0,0,0,0,22,22,22,0,0,0,0,,,,,,,,,,,,,,,,,,,,,,,,,stimuli/alien_stimuli/66.png,,,,,,,,,,,,,,,,,,,,,,,,,,,,,stimuli/alien_stimuli/26.png,26,6,24,,,,,,,30,,,,,,,,1957.5932835997082,1957.5932835997082,1957.5932835997082,1957.5932835997082,1957.5932835997082,left,0.8396262996830046,10,1,0,99,0.32,0.08,left,0.7244373997673392,,,,,1956.0134975998662,1957.5932835997082,0.24,0,0.0,0.08,0.0,0.24,0.28,0.24,0,1954.907502300106,1954.907502300106,1954.907502300106,1954.907502300106,1954.907502300106,1954.907502300106,1954.907502300106,1954.907502300106,1954.8956665097735,1.2200209996663034,return,1.0817968999035656,,,,,,,,,,,,,,,,,,,,,,,,,,,,,,,,,QN84RM,train_x,red_square,top_right,2025-09-23_18h14.43.190,HideSeek_v1,2022.2.5,59.9728563159256,
,7,6,2,6,-5,0,66,,train_dim1_1,23,30,,,,2,0,2,0,,,,,,,,,0,0,0,0,0,22,22,22,1,0,1,0,,,,,,,,,,,,,,,,,,,,,,,,,,,,,,,,,,,,,,,,,,,,,,,,,,,,,,,,,,,,,,,,30,,,,,,,,1958.417766599916,1958.417766599916,1958.417766599916,1958.417766599916,1958.417766599916,left,0.3232521996833384,10,1,0,99,0.24,0.08,left,0.23532549990341067,,,,,,,,,,,,,,,,,,,,,,,,,,,,,,,,,,,,,,,,,,,,,,,,,,,,,,,,,,,,QN84RM,train_x,red_square,top_right,2025-09-23_18h14.43.190,HideSeek_v1,2022.2.5,59.9728563159256,
,7,6,2,6,-5,0,66,,train_dim1_1,23,30,,,,2,0,2,0,,,,,,,,,0,0,0,0,0,22,22,22,2,0,2,0,,,,,,,,,,,,,,,,,,,,,,,,,,,,,,,,,,,,,,,,,,,,,,,,,,,,,,,,,,,,,,,,30,,,,,,,,1958.7481722999364,1958.7481722999364,1958.7481722999364,1958.7481722999364,1958.7481722999364,left,0.25996930012479424,10,1,0,99,0.15999999999999998,0.08,left,0.18025089986622334,,,,,,,,,,,,,,,,,,,,,,,,,,,,,,,,,,,,,,,,,,,,,,,,,,,,,,,,,,,,QN84RM,train_x,red_square,top_right,2025-09-23_18h14.43.190,HideSeek_v1,2022.2.5,59.9728563159256,
,7,6,2,6,-5,0,66,,train_dim1_1,23,30,,,,2,0,2,0,,,,,,,,,0,0,0,0,0,22,22,22,3,0,3,0,,,,,,,,,,,,,,,,,,,,,,,,,,,,,,,,,,,,,,,,,,,,,,,,,,,,,,,,,,,,,,,,30,,,,,,,,1959.0148438001052,1959.0148438001052,1959.0148438001052,1959.0148438001052,1959.0148438001052,left,0.3263384001329541,10,1,0,99,0.07999999999999997,0.08,left,0.24091000016778708,,,,,,,,,,,,,,,,,,,,,,,,,,,,,,,,,,,,,,,,,,,,,,,,,,,,,,,,,,,,QN84RM,train_x,red_square,top_right,2025-09-23_18h14.43.190,HideSeek_v1,2022.2.5,59.9728563159256,
,7,6,2,6,-5,0,66,,train_dim1_1,23,30,,,,2,0,2,0,,,,,,,,,0,0,0,0,0,22,22,22,4,0,4,0,,,,,,,,,,,,,,,,,,,,,,,,,,,,,,,,,,,,,,,,,,,,,,,,,,,,,,,,,,,,,,,,30,,,,,,,,1959.348229199648,1959.348229199648,1959.348229199648,1959.348229199648,1959.348229199648,left,0.47670269990339875,10,1,0,99,-2.7755575615628914e-17,0.08,left,0.38950219983235,,,,,,,,,,,,,,,,,,,,,,,,,,,,,,,,,,,,,,,,,,,,,,,,,,,,,,,,,,,,QN84RM,train_x,red_square,top_right,2025-09-23_18h14.43.190,HideSeek_v1,2022.2.5,59.9728563159256,
,7,6,2,6,-5,0,66,,train_dim1_1,23,30,,,,2,0,2,0,,,,,,,,,0,0,0,0,0,22,22,22,5,0,5,0,,,,,,,,,,,,,,,,,,,,,,,,,,,,,,,,,,,,,,,,,,,,,,,,,,,,,,,,,,,,,,,,30,,,,,,,,1959.8343326998875,1959.8343326998875,1959.8343326998875,1959.8343326998875,1959.8343326998875,return,0.3097113003022969,11,0,0,1,-2.7755575615628914e-17,0.08,return,0.22141640027984977,-8,-53,-2.7755575615628914e-17,0.08,,,,,,,,,,,,,,,,,,,,,,,,,,,,,,,,,,,,,,,,,,,,,,,,,,,,,,,,QN84RM,train_x,red_square,top_right,2025-09-23_18h14.43.190,HideSeek_v1,2022.2.5,59.9728563159256,
,9,9,5,9,-4,0,56,,train_dim1_1,24,30,,,,2,0,2,0,,,,,,,,,0,0,0,0,0,23,23,23,0,0,0,0,,,,,,,,,,,,,,,,,,,,,,,,,stimuli/alien_stimuli/56.png,,,,,,,,,,,,,,,,,,,,,,,,,,,,,stimuli/alien_stimuli/66.png,66,7,25,,,,,,,30,,,,,,,,1963.8044225997292,1963.8044225997292,1963.8044225997292,1963.8044225997292,1963.8044225997292,left,0.8363629002124071,11,0,0,99,0.48000000000000004,0.32,left,0.7403242001309991,,,,,1962.2354076998308,1963.8044225997292,0,0.08,0.0,0.4,0.08,0,0.2,0,0.08,1961.7101146997884,1961.7101146997884,1961.7101146997884,1961.7101146997884,1961.7101146997884,1961.7101146997884,1961.7101146997884,1961.7101146997884,1961.7012697098776,0.6364902001805604,return,0.5052540996111929,,,,,,,,,,,,,,,,,,,,,,,,,,,,,,,,,QN84RM,train_x,red_square,top_right,2025-09-23_18h14.43.190,HideSeek_v1,2022.2.5,59.9728563159256,
,9,9,5,9,-4,0,56,,train_dim1_1,24,30,,,,2,0,2,0,,,,,,,,,0,0,0,0,0,23,23,23,1,0,1,0,,,,,,,,,,,,,,,,,,,,,,,,,,,,,,,,,,,,,,,,,,,,,,,,,,,,,,,,,,,,,,,,30,,,,,,,,1964.6369563997723,1964.6369563997723,1964.6369563997723,1964.6369563997723,1964.6369563997723,left,0.45964490016922355,11,0,0,99,0.4,0.32,left,0.36914029996842146,,,,,,,,,,,,,,,,,,,,,,,,,,,,,,,,,,,,,,,,,,,,,,,,,,,,,,,,,,,,QN84RM,train_x,red_square,top_right,2025-09-23_18h14.43.190,HideSeek_v1,2022.2.5,59.9728563159256,
,9,9,5,9,-4,0,56,,train_dim1_1,24,30,,,,2,0,2,0,,,,,,,,,0,0,0,0,0,23,23,23,2,0,2,0,,,,,,,,,,,,,,,,,,,,,,,,,,,,,,,,,,,,,,,,,,,,,,,,,,,,,,,,,,,,,,,,30,,,,,,,,1965.1066120998003,1965.1066120998003,1965.1066120998003,1965.1066120998003,1965.1066120998003,left,0.5569108999334276,11,0,0,99,0.32,0.32,left,0.4714095997624099,,,,,,,,,,,,,,,,,,,,,,,,,,,,,,,,,,,,,,,,,,,,,,,,,,,,,,,,,,,,QN84RM,train_x,red_square,top_right,2025-09-23_18h14.43.190,HideSeek_v1,2022.2.5,59.9728563159256,
,9,9,5,9,-4,0,56,,train_dim1_1,24,30,,,,2,0,2,0,,,,,,,,,0,0,0,0,0,23,23,23,3,0,3,0,,,,,,,,,,,,,,,,,,,,,,,,,,,,,,,,,,,,,,,,,,,,,,,,,,,,,,,,,,,,,,,,30,,,,,,,,1965.6732818000019,1965.6732818000019,1965.6732818000019,1965.6732818000019,1965.6732818000019,left,0.5600200002081692,11,0,0,99,0.24,0.32,left,0.4723557000979781,,,,,,,,,,,,,,,,,,,,,,,,,,,,,,,,,,,,,,,,,,,,,,,,,,,,,,,,,,,,QN84RM,train_x,red_square,top_right,2025-09-23_18h14.43.190,HideSeek_v1,2022.2.5,59.9728563159256,
,9,9,5,9,-4,0,56,,train_dim1_1,24,30,,,,2,0,2,0,,,,,,,,,0,0,0,0,0,23,23,23,4,0,4,0,,,,,,,,,,,,,,,,,,,,,,,,,,,,,,,,,,,,,,,,,,,,,,,,,,,,,,,,,,,,,,,,30,,,,,,,,1966.2377621997148,1966.2377621997148,1966.2377621997148,1966.2377621997148,1966.2377621997148,left,0.5428138999268413,11,0,0,99,0.15999999999999998,0.32,left,0.45566560002043843,,,,,,,,,,,,,,,,,,,,,,,,,,,,,,,,,,,,,,,,,,,,,,,,,,,,,,,,,,,,QN84RM,train_x,red_square,top_right,2025-09-23_18h14.43.190,HideSeek_v1,2022.2.5,59.9728563159256,
,9,9,5,9,-4,0,56,,train_dim1_1,24,30,,,,2,0,2,0,,,,,,,,,0,0,0,0,0,23,23,23,5,0,5,0,,,,,,,,,,,,,,,,,,,,,,,,,,,,,,,,,,,,,,,,,,,,,,,,,,,,,,,,,,,,,,,,30,,,,,,,,1966.7898792997003,1966.7898792997003,1966.7898792997003,1966.7898792997003,1966.7898792997003,return,0.3598507000133395,11,1,0,0,0.15999999999999998,0.32,return,0.2791440999135375,-8,-58,0.15999999999999998,0.32,,,,,,,,,,,,,,,,,,,,,,,,,,,,,,,,,,,,,,,,,,,,,,,,,,,,,,,,QN84RM,train_x,red_square,top_right,2025-09-23_18h14.43.190,HideSeek_v1,2022.2.5,59.9728563159256,
,8,5,8,5,0,0,16,,train_dim1_1,25,30,,,,2,0,2,0,,,,,,,,,0,0,0,0,0,24,24,24,0,0,0,0,,,,,,,,,,,,,,,,,,,,,,,,,stimuli/alien_stimuli/16.png,,,,,,,,,,,,,,,,,,,,,,,,,,,,,stimuli/alien_stimuli/56.png,56,9,26,,,,,,,30,,,,,,,,1971.3362485999241,1971.3362485999241,1971.3362485999241,1971.3362485999241,1971.3362485999241,return,1.4405060997232795,12,0,0,1,0.48,0,return,1.3483752002939582,-8,-58,0.48,0,1969.7751094000414,1971.3362485999241,0.24,0.32,0.0,0.32,0.32,0.24,0.4,0.24,0.32,1968.7154562999494,1968.7154562999494,1968.7154562999494,1968.7154562999494,1968.7154562999494,1968.7154562999494,1968.7154562999494,1968.7154562999494,1968.7073135095648,1.1697744000703096,return,1.0281636002473533,,,,,,,,,,,,,,,,,,,,,,,,,,,,,,,,,QN84RM,train_x,red_square,top_right,2025-09-23_18h14.43.190,HideSeek_v1,2022.2.5,59.9728563159256,
,6,6,1,6,-5,0,66,,train_dim1_1,26,30,,,,2,0,2,0,,,,,,,,,0,0,0,0,0,25,25,25,0,0,0,0,,,,,,,,,,,,,,,,,,,,,,,,,stimuli/alien_stimuli/66.png,,,,,,,,,,,,,,,,,,,,,,,,,,,,,stimuli/alien_stimuli/16.png,16,8,27,,,,,,,30,,,,,,,,1976.6573095996864,1976.6573095996864,1976.6573095996864,1976.6573095996864,1976.6573095996864,left,0.890221799723804,12,0,0,99,0.24,0.08,left,0.8005838999524713,,,,,1975.0958964000456,1976.6573095996864,0.48,0,0.0,0.0,0.0,0.48,0.48,0.48,0,1974.338890799787,1974.338890799787,1974.338890799787,1974.338890799787,1974.338890799787,1974.338890799787,1974.338890799787,1974.338890799787,1974.3289490099064,0.869049500208348,return,0.7312505003064871,,,,,,,,,,,,,,,,,,,,,,,,,,,,,,,,,QN84RM,train_x,red_square,top_right,2025-09-23_18h14.43.190,HideSeek_v1,2022.2.5,59.9728563159256,
,6,6,1,6,-5,0,66,,train_dim1_1,26,30,,,,2,0,2,0,,,,,,,,,0,0,0,0,0,25,25,25,1,0,1,0,,,,,,,,,,,,,,,,,,,,,,,,,,,,,,,,,,,,,,,,,,,,,,,,,,,,,,,,,,,,,,,,30,,,,,,,,1977.5469202999957,1977.5469202999957,1977.5469202999957,1977.5469202999957,1977.5469202999957,left,0.30964430002495646,12,0,0,99,0.15999999999999998,0.08,left,0.22297480003908277,,,,,,,,,,,,,,,,,,,,,,,,,,,,,,,,,,,,,,,,,,,,,,,,,,,,,,,,,,,,QN84RM,train_x,red_square,top_right,2025-09-23_18h14.43.190,HideSeek_v1,2022.2.5,59.9728563159256,
,6,6,1,6,-5,0,66,,train_dim1_1,26,30,,,,2,0,2,0,,,,,,,,,0,0,0,0,0,25,25,25,2,0,2,0,,,,,,,,,,,,,,,,,,,,,,,,,,,,,,,,,,,,,,,,,,,,,,,,,,,,,,,,,,,,,,,,30,,,,,,,,1977.866203899961,1977.866203899961,1977.866203899961,1977.866203899961,1977.866203899961,left,0.40995260002091527,12,0,0,99,0.07999999999999997,0.08,left,0.3300593001767993,,,,,,,,,,,,,,,,,,,,,,,,,,,,,,,,,,,,,,,,,,,,,,,,,,,,,,,,,,,,QN84RM,train_x,red_square,top_right,2025-09-23_18h14.43.190,HideSeek_v1,2022.2.5,59.9728563159256,
,6,6,1,6,-5,0,66,,train_dim1_1,26,30,,,,2,0,2,0,,,,,,,,,0,0,0,0,0,25,25,25,3,0,3,0,,,,,,,,,,,,,,,,,,,,,,,,,,,,,,,,,,,,,,,,,,,,,,,,,,,,,,,,,,,,,,,,30,,,,,,,,1978.2837604996748,1978.2837604996748,1978.2837604996748,1978.2837604996748,1978.2837604996748,left,0.390614400152117,12,0,0,99,-2.7755575615628914e-17,0.08,left,0.2999823000282049,,,,,,,,,,,,,,,,,,,,,,,,,,,,,,,,,,,,,,,,,,,,,,,,,,,,,,,,,,,,QN84RM,train_x,red_square,top_right,2025-09-23_18h14.43.190,HideSeek_v1,2022.2.5,59.9728563159256,
,6,6,1,6,-5,0,66,,train_dim1_1,26,30,,,,2,0,2,0,,,,,,,,,0,0,0,0,0,25,25,25,4,0,4,0,,,,,,,,,,,,,,,,,,,,,,,,,,,,,,,,,,,,,,,,,,,,,,,,,,,,,,,,,,,,,,,,30,,,,,,,,1978.68526559975,1978.68526559975,1978.68526559975,1978.68526559975,1978.68526559975,left,0.3569501000456512,12,0,0,99,-0.08000000000000003,0.08,left,0.27635170007124543,,,,,,,,,,,,,,,,,,,,,,,,,,,,,,,,,,,,,,,,,,,,,,,,,,,,,,,,,,,,QN84RM,train_x,red_square,top_right,2025-09-23_18h14.43.190,HideSeek_v1,2022.2.5,59.9728563159256,
,6,6,1,6,-5,0,66,,train_dim1_1,26,30,,,,2,0,2,0,,,,,,,,,0,0,0,0,0,25,25,25,5,0,5,0,,,,,,,,,,,,,,,,,,,,,,,,,,,,,,,,,,,,,,,,,,,,,,,,,,,,,,,,,,,,,,,,30,,,,,,,,1979.0512092998251,1979.0512092998251,1979.0512092998251,1979.0512092998251,1979.0512092998251,return,0.47703259997069836,13,0,0,1,-0.08000000000000003,0.08,return,0.3984584999270737,-8,-63,-0.08000000000000003,0.08,,,,,,,,,,,,,,,,,,,,,,,,,,,,,,,,,,,,,,,,,,,,,,,,,,,,,,,,QN84RM,train_x,red_square,top_right,2025-09-23_18h14.43.190,HideSeek_v1,2022.2.5,59.9728563159256,
,5,6,2,6,-3,0,46,,train_dim1_1,27,30,,,,2,0,2,0,,,,,,,,,0,0,0,0,0,26,26,26,0,0,0,0,,,,,,,,,,,,,,,,,,,,,,,,,stimuli/alien_stimuli/46.png,,,,,,,,,,,,,,,,,,,,,,,,,,,,,stimuli/alien_stimuli/66.png,66,6,28,,,,,,,30,,,,,,,,1983.6322872000746,1983.6322872000746,1983.6322872000746,1983.6322872000746,1983.6322872000746,left,1.3573153000324965,13,0,0,99,0.15999999999999998,0.08,left,1.2589548001997173,,,,,1982.0684444000944,1983.6322872000746,-0.08,0.08,0.0,0.4,0.08,-0.08,0.12,-0.08,0.08,1981.0967919998802,1981.0967919998802,1981.0967919998802,1981.0967919998802,1981.0967919998802,1981.0967919998802,1981.0967919998802,1981.0967919998802,1981.08418430984,1.0865823002532125,return,0.9427503002807498,,,,,,,,,,,,,,,,,,,,,,,,,,,,,,,,,QN84RM,train_x,red_square,top_right,2025-09-23_18h14.43.190,HideSeek_v1,2022.2.5,59.9728563159256,
,5,6,2,6,-3,0,46,,train_dim1_1,27,30,,,,2,0,2,0,,,,,,,,,0,0,0,0,0,26,26,26,1,0,1,0,,,,,,,,,,,,,,,,,,,,,,,,,,,,,,,,,,,,,,,,,,,,,,,,,,,,,,,,,,,,,,,,30,,,,,,,,1984.988917300012,1984.988917300012,1984.988917300012,1984.988917300012,1984.988917300012,left,0.9265371998772025,13,0,0,99,0.07999999999999997,0.08,left,0.8425716999918222,,,,,,,,,,,,,,,,,,,,,,,,,,,,,,,,,,,,,,,,,,,,,,,,,,,,,,,,,,,,QN84RM,train_x,red_square,top_right,2025-09-23_18h14.43.190,HideSeek_v1,2022.2.5,59.9728563159256,
,5,6,2,6,-3,0,46,,train_dim1_1,27,30,,,,2,0,2,0,,,,,,,,,0,0,0,0,0,26,26,26,2,0,2,0,,,,,,,,,,,,,,,,,,,,,,,,,,,,,,,,,,,,,,,,,,,,,,,,,,,,,,,,,,,,,,,,30,,,,,,,,1985.9231163999066,1985.9231163999066,1985.9231163999066,1985.9231163999066,1985.9231163999066,return,1.8088748003356159,13,1,0,0,0.07999999999999997,0.08,return,1.728792800102383,-8,-65,0.07999999999999997,0.08,,,,,,,,,,,,,,,,,,,,,,,,,,,,,,,,,,,,,,,,,,,,,,,,,,,,,,,,QN84RM,train_x,red_square,top_right,2025-09-23_18h14.43.190,HideSeek_v1,2022.2.5,59.9728563159256,
,8,6,7,6,-1,0,26,,train_dim1_1,28,30,,,,2,0,2,0,,,,,,,,,0,0,0,0,0,27,27,27,0,0,0,0,,,,,,,,,,,,,,,,,,,,,,,,,stimuli/alien_stimuli/26.png,,,,,,,,,,,,,,,,,,,,,,,,,,,,,stimuli/alien_stimuli/46.png,46,5,29,,,,,,,30,,,,,,,,1991.5661176997237,1991.5661176997237,1991.5661176997237,1991.5661176997237,1991.5661176997237,left,1.103122300002724,13,1,0,99,0.39999999999999997,0.08,left,1.0091159003786743,,,,,1989.991621399764,1991.5661176997237,0,0.08,0.0,0.24,0.08,0,0.12,0,0.08,1989.2968154996634,1989.2968154996634,1989.2968154996634,1989.2968154996634,1989.2968154996634,1989.2968154996634,1989.2968154996634,1989.2968154996634,1989.2743059799075,0.802612999919802,return,0.6688337000086904,,,,,,,,,,,,,,,,,,,,,,,,,,,,,,,,,QN84RM,train_x,red_square,top_right,2025-09-23_18h14.43.190,HideSeek_v1,2022.2.5,59.9728563159256,
,8,6,7,6,-1,0,26,,train_dim1_1,28,30,,,,2,0,2,0,,,,,,,,,0,0,0,0,0,27,27,27,1,0,1,0,,,,,,,,,,,,,,,,,,,,,,,,,,,,,,,,,,,,,,,,,,,,,,,,,,,,,,,,,,,,,,,,30,,,,,,,,1992.6644727997482,1992.6644727997482,1992.6644727997482,1992.6644727997482,1992.6644727997482,return,1.2599296998232603,14,0,0,1,0.39999999999999997,0.08,return,1.1812189002521336,-8,-66,0.39999999999999997,0.08,,,,,,,,,,,,,,,,,,,,,,,,,,,,,,,,,,,,,,,,,,,,,,,,,,,,,,,,QN84RM,train_x,red_square,top_right,2025-09-23_18h14.43.190,HideSeek_v1,2022.2.5,59.9728563159256,
,9,5,5,5,-4,0,56,,train_dim1_1,29,30,,,,2,0,2,0,,,,,,,,,0,0,0,0,0,28,28,28,0,0,0,0,,,,,,,,,,,,,,,,,,,,,,,,,stimuli/alien_stimuli/56.png,,,,,,,,,,,,,,,,,,,,,,,,,,,,,stimuli/alien_stimuli/26.png,26,8,30,,,,,,,30,,,,,,,,1998.0733512998559,1998.0733512998559,1998.0733512998559,1998.0733512998559,1998.0733512998559,left,0.9740136000327766,14,0,0,99,0.48000000000000004,0,left,0.8792316000908613,,,,,1996.5136919999495,1998.0733512998559,0.4,0.08,0.0,0.08,0.08,0.4,0.44,0.4,0.08,1995.4993308996782,1995.4993308996782,1995.4993308996782,1995.4993308996782,1995.4993308996782,1995.4993308996782,1995.4993308996782,1995.4993308996782,1995.4793089096434,1.13677420001477,return,0.9848603000864387,,,,,,,,,,,,,,,,,,,,,,,,,,,,,,,,,QN84RM,train_x,red_square,top_right,2025-09-23_18h14.43.190,HideSeek_v1,2022.2.5,59.9728563159256,
,9,5,5,5,-4,0,56,,train_dim1_1,29,30,,,,2,0,2,0,,,,,,,,,0,0,0,0,0,28,28,28,1,0,1,0,,,,,,,,,,,,,,,,,,,,,,,,,,,,,,,,,,,,,,,,,,,,,,,,,,,,,,,,,,,,,,,,30,,,,,,,,1999.0510108000599,1999.0510108000599,1999.0510108000599,1999.0510108000599,1999.0510108000599,left,0.4745610002428293,14,0,0,99,0.4,0,left,0.3886216999962926,,,,,,,,,,,,,,,,,,,,,,,,,,,,,,,,,,,,,,,,,,,,,,,,,,,,,,,,,,,,QN84RM,train_x,red_square,top_right,2025-09-23_18h14.43.190,HideSeek_v1,2022.2.5,59.9728563159256,
,9,5,5,5,-4,0,56,,train_dim1_1,29,30,,,,2,0,2,0,,,,,,,,,0,0,0,0,0,28,28,28,2,0,2,0,,,,,,,,,,,,,,,,,,,,,,,,,,,,,,,,,,,,,,,,,,,,,,,,,,,,,,,,,,,,,,,,30,,,,,,,,1999.5320619996637,1999.5320619996637,1999.5320619996637,1999.5320619996637,1999.5320619996637,left,0.3931548004038632,14,0,0,99,0.32,0,left,0.3130462998524308,,,,,,,,,,,,,,,,,,,,,,,,,,,,,,,,,,,,,,,,,,,,,,,,,,,,,,,,,,,,QN84RM,train_x,red_square,top_right,2025-09-23_18h14.43.190,HideSeek_v1,2022.2.5,59.9728563159256,
,9,5,5,5,-4,0,56,,train_dim1_1,29,30,,,,2,0,2,0,,,,,,,,,0,0,0,0,0,28,28,28,3,0,3,0,,,,,,,,,,,,,,,,,,,,,,,,,,,,,,,,,,,,,,,,,,,,,,,,,,,,,,,,,,,,,,,,30,,,,,,,,1999.9346516998485,1999.9346516998485,1999.9346516998485,1999.9346516998485,1999.9346516998485,return,0.6271428000181913,14,1,0,0,0.32,0,return,0.541601900011301,-8,-69,0.32,0,,,,,,,,,,,,,,,,,,,,,,,,,,,,,,,,,,,,,,,,,,,,,,,,,,,,,,,,QN84RM,train_x,red_square,top_right,2025-09-23_18h14.43.190,HideSeek_v1,2022.2.5,59.9728563159256,
,7,7,7,7,0,0,16,,train_dim1_1,30,30,,,,2,0,2,0,,,,,,,,,0,0,0,0,0,29,29,29,0,0,0,0,,,,,,,,,,,,,,,,,,,,,,,,,stimuli/alien_stimuli/16.png,,,,,,,,,,,,,,,,,,,,,,,,,,,,,stimuli/alien_stimuli/56.png,56,9,31,,,,,,,30,,,,,,,,2005.0999277997762,2005.0999277997762,2005.0999277997762,2005.0999277997762,2005.0999277997762,return,0.9396851002238691,15,0,0,1,0.4,0.16,return,0.8492180001921952,-8,-69,0.4,0.16,2003.5364299998619,2005.0999277997762,0.24,0,0.0,0.32,0.0,0.24,0.4,0.24,0,2002.1269244998693,2002.1269244998693,2002.1269244998693,2002.1269244998693,2002.1269244998693,2002.1269244998693,2002.1269244998693,2002.1269244998693,2002.1183978099375,1.5200827000662684,return,1.3814575001597404,,,,,,,,,,,,,,,,,,,,,,,,,,,,,,,,,QN84RM,train_x,red_square,top_right,2025-09-23_18h14.43.190,HideSeek_v1,2022.2.5,59.9728563159256,
,,,,,,,,,,,30,,,,2,0,2,0,,,,,,,,,,,,,,,,,,,,,,,,,,,,,,,,,,,,,,,,,,,,,,,,,,,,,,,,,,,,,,,,,,,,,,,,,,stimuli/alien_stimuli/16.png,16,7,32,21,0.7,0.625,1,1,1,30,0,conditions/schedules/train_x_first/red_square_00/top_right/inputTrain_2.1.xlsx,99,1,2,1,0,,,,,,,,,,,1,,,,,,,,,2008.1114010997117,2007.599955599755,0.4,0.16,0.0,0.0,0.16,0.4,0.4,0.4,0.16,2007.599955599755,2007.599955599755,2007.599955599755,2007.599955599755,2007.599955599755,2007.599955599755,2007.599955599755,2007.599955599755,2007.5899240098893,0.6247956999577582,return,0.4900309997610748,0,0.9,0,1,15,,,,,,,,,,,,,,,,,,,,,,,,,,,,QN84RM,train_x,red_square,top_right,2025-09-23_18h14.43.190,HideSeek_v1,2022.2.5,59.9728563159256,
,,,,,,,,,,,,,,,3,0,3,0,0,0,0,0,,,,,,,,,,,,,,,,,,,,,,,,,,,,,,,conditions/schedules/train_x_first/red_square_00/top_right/instructions/Slide17.png,conditions/schedules/train_x_first/red_square_00/top_right/instructions/Audio17.wav,2009.668898599688,2009.6579464898443,17,"[4.147922799922526, 17.472413999959826, 16.329020000062883, 19.183980700094253, 4.161369499750435, 5.0440942998975515, 5.2856021001935005, 11.122076099738479, 6.467790899798274, 6.582318999804556, 9.102526299655437, 12.622918500099331, 17.72473130002618, 12.75037829997018, 30.386927400249988, 21.8070873003453, 66.65840069996193]","[0.0002172999083995819, 0.00021379999816417694, 16.32903099991381, 0.0002188999205827713, 0.03633249970152974, 0.03153929999098182, 0.0145322997123003, 0.047499099746346474, 0.047075099777430296, 0.0480269999243319, 0.0458941999822855, 12.62292500026524, 0.0002202000468969345, 12.75038480013609, 0.05575040029361844, 21.807093400042504, 66.65840819990262]",0,,,,,,,,,,,,,,,,,,,,,,,,,,,,,,,,,,,,,,,,,,,,,,,,,,,,,,,,,,,,,,,,,,,,,,,,,,,,,,,,,,,,,,,,,,,,,,,,,,,,,,,,,,,,,,,,,,,,,,,,,,,,QN84RM,train_x,red_square,top_right,2025-09-23_18h14.43.190,HideSeek_v1,2022.2.5,59.9728563159256,
,,,,,,,,,,,,,,,3,0,3,0,1,0,1,0,,,,,,,,,,,,,,,,,,,,,,,,,,,,,,,conditions/schedules/train_x_first/red_square_00/top_right/instructions/Slide18.png,conditions/schedules/train_x_first/red_square_00/top_right/instructions/Audio18.wav,2076.3867458999157,2076.3802675197835,18,"[4.147922799922526, 17.472413999959826, 16.329020000062883, 19.183980700094253, 4.161369499750435, 5.0440942998975515, 5.2856021001935005, 11.122076099738479, 6.467790899798274, 6.582318999804556, 9.102526299655437, 12.622918500099331, 17.72473130002618, 12.75037829997018, 30.386927400249988, 21.8070873003453, 66.65840069996193, 5.561397300101817]","[0.0002172999083995819, 0.00021379999816417694, 16.32903099991381, 0.0002188999205827713, 0.03633249970152974, 0.03153929999098182, 0.0145322997123003, 0.047499099746346474, 0.047075099777430296, 0.0480269999243319, 0.0458941999822855, 12.62292500026524, 0.0002202000468969345, 12.75038480013609, 0.05575040029361844, 21.807093400042504, 0.013672899920493364, 5.561403799802065]",0,,,,,,,,,,,,,,,,,,,,,,,,,,,,,,,,,,,,,,,,,,,,,,,,,,,,,,,,,,,,,,,,,,,,,,,,,,,,,,,,,,,,,,,,,,,,,,,,,,,,,,,,,,,,,,,,,,,,,,,,,,,,QN84RM,train_x,red_square,top_right,2025-09-23_18h14.43.190,HideSeek_v1,2022.2.5,59.9728563159256,
,,,,,,,,,,,,,,,3,0,3,0,2,0,2,0,,,,,,,,,,,,,,,,,,,,,,,,,,,,,,,conditions/schedules/train_x_first/red_square_00/top_right/instructions/Slide19.png,conditions/schedules/train_x_first/red_square_00/top_right/instructions/Audio19.wav,2081.987024900038,2081.984555689711,19,"[4.147922799922526, 17.472413999959826, 16.329020000062883, 19.183980700094253, 4.161369499750435, 5.0440942998975515, 5.2856021001935005, 11.122076099738479, 6.467790899798274, 6.582318999804556, 9.102526299655437, 12.622918500099331, 17.72473130002618, 12.75037829997018, 30.386927400249988, 21.8070873003453, 66.65840069996193, 5.561397300101817, 9.786399299744517]","[0.0002172999083995819, 0.00021379999816417694, 16.32903099991381, 0.0002188999205827713, 0.03633249970152974, 0.03153929999098182, 0.0145322997123003, 0.047499099746346474, 0.047075099777430296, 0.0480269999243319, 0.0458941999822855, 12.62292500026524, 0.0002202000468969345, 12.75038480013609, 0.05575040029361844, 21.807093400042504, 0.013672899920493364, 0.02955080009996891, 9.786406400147825]",0,,,,,,,,,,,,,,,,,,,,,,,,,,,,,,,,,,,,,,,,,,,,,,,,,,,,,,,,,,,,,,,,,,,,,,,,,,,,,,,,,,,,,,,,,,,,,,,,,,,,,,,,,,,,,,,,,,,,,,,,,,,,QN84RM,train_x,red_square,top_right,2025-09-23_18h14.43.190,HideSeek_v1,2022.2.5,59.9728563159256,
,,,,,,,,,,,,,,,3,0,3,0,3,0,3,0,,,,,,,,,,,,,,,,,,,,,,,,,,,,,,,conditions/schedules/train_x_first/red_square_00/top_right/instructions/Slide20.png,conditions/schedules/train_x_first/red_square_00/top_right/instructions/Audio20.wav,2091.834992500022,2091.8261994196105,20,"[4.147922799922526, 17.472413999959826, 16.329020000062883, 19.183980700094253, 4.161369499750435, 5.0440942998975515, 5.2856021001935005, 11.122076099738479, 6.467790899798274, 6.582318999804556, 9.102526299655437, 12.622918500099331, 17.72473130002618, 12.75037829997018, 30.386927400249988, 21.8070873003453, 66.65840069996193, 5.561397300101817, 9.786399299744517, 13.61715119984001]","[0.0002172999083995819, 0.00021379999816417694, 16.32903099991381, 0.0002188999205827713, 0.03633249970152974, 0.03153929999098182, 0.0145322997123003, 0.047499099746346474, 0.047075099777430296, 0.0480269999243319, 0.0458941999822855, 12.62292500026524, 0.0002202000468969345, 12.75038480013609, 0.05575040029361844, 21.807093400042504, 0.013672899920493364, 0.02955080009996891, 0.014352899976074696, 13.617157900240272]",0,,,,,,,,,,,,,,,,,,,,,,,,,,,,,,,,,,,,,,,,,,,,,,,,,,,,,,,,,,,,,,,,,,,,,,,,,,,,,,,,,,,,,,,,,,,,,,,,,,,,,,,,,,,,,,,,,,,,,,,,,,,,QN84RM,train_x,red_square,top_right,2025-09-23_18h14.43.190,HideSeek_v1,2022.2.5,59.9728563159256,
1,7,8,7,3,0,-5,11,2,instr_dim1_2,,,,,,3,0,3,0,,,,,0,0,0,0,,,,,,,,,,,,,,,,,,,,,,,,,,,,,,,,,,,,,stimuli/alien_stimuli/11.png,conditions/schedules/train_x_first/red_square_00/top_right/inputInstr_2.xlsx,stimuli/alien_stimuli/11.png,2105.556578800082,2105.556578800082,2105.556578800082,2105.556578800082,2105.5543449096385,return,6.657929999753833,"[-0.16, -0.08, 0, 0.08, 0.16, 0.24, 0.32, 0.4, 0.48, 0.56]","[-0.4, -0.32, -0.24, -0.16, -0.08, 0, 0.08, 0.16, 0.24, 0.32]",3,8,7,7,0.4,0.0,2112.361211499665,2112.361211499665,2112.361211499665,2112.361211499665,2112.361211499665,2112.361211499665,2112.361211499665,2112.3597578397953,5.856293699704111,return,5.704084400087595,stimuli/alien_stimuli/11.png,11,7,1,,,,,,,,,,,,,,,,,,,,,,,,,,,,,,,,,,,,,,,,,,,,,,,,,,,,,,,,,,,,,,,,,,,,,,,,,,,,,,,,,,,,,,,,,QN84RM,train_x,red_square,top_right,2025-09-23_18h14.43.190,HideSeek_v1,2022.2.5,59.9728563159256,
,,,,,,,,,,,30,,,,3,0,3,0,,,,,,,,,,,,,,,,,,,,,,,,,,,,,,,,,,,,,,,,,,,,,,,,,,,,,,,,,,,,,,,,,,,,,,,,,,,,,,21,0.7,0.625,1,99,2,30,0,conditions/schedules/train_x_first/red_square_00/top_right/inputTrain_2.1.xlsx,99,1,2,1,0,,,,,,,,,,,,,,,,,,,,,,,,,,,,,,,,,,,,,,,,,,,,,,,,,,,,,,,,,,,,,,,,,,,,,,,,,,,QN84RM,train_x,red_square,top_right,2025-09-23_18h14.43.190,HideSeek_v1,2022.2.5,59.9728563159256,
