trialInstr,x_fixStart,y_fixStart,x_corrSteps,y_corrSteps,x_nrSteps,y_nrSteps,alienID,trialLength,version,trialTrain,praclen,testlen,trial_label,break_on_off,beforeExpLoop.thisRepN,beforeExpLoop.thisTrialN,beforeExpLoop.thisN,beforeExpLoop.thisIndex,mini_instr_trials.thisRepN,mini_instr_trials.thisTrialN,mini_instr_trials.thisN,mini_instr_trials.thisIndex,instrLoop.thisRepN,instrLoop.thisTrialN,instrLoop.thisN,instrLoop.thisIndex,repeat_prac.thisRepN,repeat_prac.thisTrialN,repeat_prac.thisN,repeat_prac.thisIndex,trainLoop.thisRepN,trainLoop.thisTrialN,trainLoop.thisN,trainLoop.thisIndex,moveLoop_train.thisRepN,moveLoop_train.thisTrialN,moveLoop_train.thisN,moveLoop_train.thisIndex,experiment.thisRepN,experiment.thisTrialN,experiment.thisN,experiment.thisIndex,moveLoop_test.thisRepN,moveLoop_test.thisTrialN,moveLoop_test.thisN,moveLoop_test.thisIndex,mini_instr2_trials.thisRepN,mini_instr2_trials.thisTrialN,mini_instr2_trials.thisN,mini_instr2_trials.thisIndex,start_all_time,url,slideStim,audioStim,slides.started,sounds.started,nextButton.numClicks,nextButton.timesOn,nextButton.timesOff,prev_but.numClicks,prev_but.timesOn,prev_but.timesOff,alienStim,instrFile,alienStim_instr,gridImage_instr.started,startPos_3.started,key_instr.started,alienImage_3.started,sounds_1.started,key_instr.keys,key_instr.rt,all_x,all_y,FBy_corrSteps,FBy_fixStart,FBx_corrSteps,FBx_fixStart,FBy_pathSize_check,FBx_pathSize_check,gridImage_9.started,alienImageFB_3.started,startPosFB_3.started,keyFB_3.started,pathLine_ydir_2.started,pathLine_xdir_2.started,alienFace_3.started,sounds_2.started,RTFB_instr,keyFB_3.keys,keyFB_3.rt,draw_alienStim,draw_alienID,test_x,nrepcount,perfthres,percthres,earlierperf,earlystop,nextPrac,fileidx,praclen,saveACC_train,pracFile,nextPrac_train,addNrep,fileidx_endr,repExp,showearly,gridImage_4.started,startPos.started,movePos.started,key_resp.started,alienImage.started,buttonPress_train,RTchoice_train,cumAcctrain,aCorr,saveACC_choice,corrAns,x_movePos_end,y_movePos_end,key_resp.keys,key_resp.rt,wLy_dir,wLx_dir,x_movePos,y_movePos,text_2.started,text_2.stopped,aft_x_corrPos,aft_y_corrPos,y_pathSize_check,x_pathSize_check,y_pathdirY,x_pathdirY,x_pathdirX,x_corrPos,y_corrPos,gridImage_6.started,alienImageFB_2.started,startPosFB_2.started,movePosFB_2.started,keyFB_2.started,pathLine_xdir.started,pathLine_ydir.started,alienFace.started,sounds_4.started,RT_FBtrain,keyFB_2.keys,keyFB_2.rt,saveACC_pre,ACC,within_saveACC_train,earlystop_wloop,cumAcctrain_check,gridImage_3.started,alienImage_test.started,startPos_test.started,movePos_test.started,key_resp_test.started,wLy_dir_test,wLx_dir_test,buttonPress_test,RTchoice_test,cumAcctest,corrAns_test,key_resp_test.keys,key_resp_test.rt,text_3.started,text_3.stopped,total_time,end_all_time,key_resp_3.keys,slides_2.started,sounds_3.started,nextButton_2.numClicks,nextButton_2.timesOn,nextButton_2.timesOff,prev_but_2.numClicks,prev_but_2.timesOn,prev_but_2.timesOff,bye.started,participant,train_first,00_coordinate,starting corner,date,expName,psychopyVersion,frameRate,
,,,,,,,,,,,,,,,0,0,0,0,0,0,0,0,,,,,,,,,,,,,,,,,,,,,,,,,,,,,start_all_time,testround,conditions/schedules/train_y_first/blue_star_00/top_right/instructions/Slide1.png,conditions/schedules/train_y_first/blue_star_00/top_right/instructions/Audio1.wav,113.07048290001694,113.02462623920292,1,[3.620501499972306],[3.6205087999114767],0,,,,,,,,,,,,,,,,,,,,,,,,,,,,,,,,,,,,,,,,,,,,,,,,,,,,,,,,,,,,,,,,,,,,,,,,,,,,,,,,,,,,,,,,,,,,,,,,,,,,,,,,,,,,,,,,,,,,,,,,,,,,QRDHCC,train_y,blue_star,top_right,2025-06-07_12h24.55.348,HideSeek_v1,2022.2.5,59.96742568369011,
,,,,,,,,,,,,,,,0,0,0,0,1,0,1,0,,,,,,,,,,,,,,,,,,,,,,,,,,,,,,,conditions/schedules/train_y_first/blue_star_00/top_right/instructions/Slide2.png,conditions/schedules/train_y_first/blue_star_00/top_right/instructions/Audio2.wav,116.71346300002187,116.71598659997107,2,"[3.620501499972306, 18.066341999918222]","[0.014343300019390881, 18.06634929997381]",0,,,,,,,,,,,,,,,,,,,,,,,,,,,,,,,,,,,,,,,,,,,,,,,,,,,,,,,,,,,,,,,,,,,,,,,,,,,,,,,,,,,,,,,,,,,,,,,,,,,,,,,,,,,,,,,,,,,,,,,,,,,,QRDHCC,train_y,blue_star,top_right,2025-06-07_12h24.55.348,HideSeek_v1,2022.2.5,59.96742568369011,
,,,,,,,,,,,,,,,0,0,0,0,2,0,2,0,,,,,,,,,,,,,,,,,,,,,,,,,,,,,,,conditions/schedules/train_y_first/blue_star_00/top_right/instructions/Slide3.png,conditions/schedules/train_y_first/blue_star_00/top_right/instructions/Audio3.wav,134.86042989999987,134.8486090999213,3,"[3.620501499972306, 18.066341999918222, 16.74828569998499]","[0.014343300019390881, 0.03393060003872961, 16.74829270003829]",0,,,,,,,,,,,,,,,,,,,,,,,,,,,,,,,,,,,,,,,,,,,,,,,,,,,,,,,,,,,,,,,,,,,,,,,,,,,,,,,,,,,,,,,,,,,,,,,,,,,,,,,,,,,,,,,,,,,,,,,,,,,,QRDHCC,train_y,blue_star,top_right,2025-06-07_12h24.55.348,HideSeek_v1,2022.2.5,59.96742568369011,
,,,,,,,,,,,,,,,0,0,0,0,3,0,3,0,,,,,,,,,,,,,,,,,,,,,,,,,,,,,,,conditions/schedules/train_y_first/blue_star_00/top_right/instructions/Slide4.png,conditions/schedules/train_y_first/blue_star_00/top_right/instructions/Audio4.wav,151.691261400003,151.67838339990703,4,"[3.620501499972306, 18.066341999918222, 16.74828569998499, 19.918616499984637]","[0.014343300019390881, 0.03393060003872961, 0.014896800043061376, 19.918623300036415]",0,,,,,,,,,,,,,,,,,,,,,,,,,,,,,,,,,,,,,,,,,,,,,,,,,,,,,,,,,,,,,,,,,,,,,,,,,,,,,,,,,,,,,,,,,,,,,,,,,,,,,,,,,,,,,,,,,,,,,,,,,,,,QRDHCC,train_y,blue_star,top_right,2025-06-07_12h24.55.348,HideSeek_v1,2022.2.5,59.96742568369011,
,,,,,,,,,,,,,,,0,0,0,0,4,0,4,0,,,,,,,,,,,,,,,,,,,,,,,,,,,,,,,conditions/schedules/train_y_first/blue_star_00/top_right/instructions/Slide5.png,conditions/schedules/train_y_first/blue_star_00/top_right/instructions/Audio5.wav,171.6749950000085,171.66139811999165,5,"[3.620501499972306, 18.066341999918222, 16.74828569998499, 19.918616499984637, 4.754761999938637]","[0.014343300019390881, 0.03393060003872961, 0.014896800043061376, 0.05130679998546839, 4.754768099985085]",0,,,,,,,,,,,,,,,,,,,,,,,,,,,,,,,,,,,,,,,,,,,,,,,,,,,,,,,,,,,,,,,,,,,,,,,,,,,,,,,,,,,,,,,,,,,,,,,,,,,,,,,,,,,,,,,,,,,,,,,,,,,,QRDHCC,train_y,blue_star,top_right,2025-06-07_12h24.55.348,HideSeek_v1,2022.2.5,59.96742568369011,
,,,,,,,,,,,,,,,0,0,0,0,5,0,5,0,,,,,,,,,,,,,,,,,,,,,,,,,,,,,,,conditions/schedules/train_y_first/blue_star_00/top_right/instructions/Slide6.png,conditions/schedules/train_y_first/blue_star_00/top_right/instructions/Audio6.wav,176.48025679995771,176.4821285199141,6,"[3.620501499972306, 18.066341999918222, 16.74828569998499, 19.918616499984637, 4.754761999938637, 5.1371843999950215]","[0.014343300019390881, 0.03393060003872961, 0.014896800043061376, 0.05130679998546839, 0.014114700024947524, 5.137191100046039]",0,,,,,,,,,,,,,,,,,,,,,,,,,,,,,,,,,,,,,,,,,,,,,,,,,,,,,,,,,,,,,,,,,,,,,,,,,,,,,,,,,,,,,,,,,,,,,,,,,,,,,,,,,,,,,,,,,,,,,,,,,,,,QRDHCC,train_y,blue_star,top_right,2025-06-07_12h24.55.348,HideSeek_v1,2022.2.5,59.96742568369011,
,,,,,,,,,,,,,,,0,0,0,0,6,0,6,0,,,,,,,,,,,,,,,,,,,,,,,,,,,,,,,conditions/schedules/train_y_first/blue_star_00/top_right/instructions/Slide7.png,conditions/schedules/train_y_first/blue_star_00/top_right/instructions/Audio7.wav,181.66846129996702,181.66975311993156,7,"[3.620501499972306, 18.066341999918222, 16.74828569998499, 19.918616499984637, 4.754761999938637, 5.1371843999950215, 5.436645200010389]","[0.014343300019390881, 0.03393060003872961, 0.014896800043061376, 0.05130679998546839, 0.014114700024947524, 0.013819299987517297, 5.436652000062168]",0,,,,,,,,,,,,,,,,,,,,,,,,,,,,,,,,,,,,,,,,,,,,,,,,,,,,,,,,,,,,,,,,,,,,,,,,,,,,,,,,,,,,,,,,,,,,,,,,,,,,,,,,,,,,,,,,,,,,,,,,,,,,QRDHCC,train_y,blue_star,top_right,2025-06-07_12h24.55.348,HideSeek_v1,2022.2.5,59.96742568369011,
,,,,,,,,,,,,,,,0,0,0,0,7,0,7,0,,,,,,,,,,,,,,,,,,,,,,,,,,,,,,,conditions/schedules/train_y_first/blue_star_00/top_right/instructions/Slide8.png,conditions/schedules/train_y_first/blue_star_00/top_right/instructions/Audio8.wav,187.17449669993948,187.17438769998262,8,"[3.620501499972306, 18.066341999918222, 16.74828569998499, 19.918616499984637, 4.754761999938637, 5.1371843999950215, 5.436645200010389, 11.873960299999453]","[0.014343300019390881, 0.03393060003872961, 0.014896800043061376, 0.05130679998546839, 0.014114700024947524, 0.013819299987517297, 0.031231199973262846, 11.87396729993634]",0,,,,,,,,,,,,,,,,,,,,,,,,,,,,,,,,,,,,,,,,,,,,,,,,,,,,,,,,,,,,,,,,,,,,,,,,,,,,,,,,,,,,,,,,,,,,,,,,,,,,,,,,,,,,,,,,,,,,,,,,,,,,QRDHCC,train_y,blue_star,top_right,2025-06-07_12h24.55.348,HideSeek_v1,2022.2.5,59.96742568369011,
,,,,,,,,,,,,,,,0,0,0,0,8,0,8,0,,,,,,,,,,,,,,,,,,,,,,,,,,,,,,,conditions/schedules/train_y_first/blue_star_00/top_right/instructions/Slide9.png,conditions/schedules/train_y_first/blue_star_00/top_right/instructions/Audio9.wav,199.10059059993364,199.1009460199857,9,"[3.620501499972306, 18.066341999918222, 16.74828569998499, 19.918616499984637, 4.754761999938637, 5.1371843999950215, 5.436645200010389, 11.873960299999453, 6.470531800063327]","[0.014343300019390881, 0.03393060003872961, 0.014896800043061376, 0.05130679998546839, 0.014114700024947524, 0.013819299987517297, 0.031231199973262846, 0.048055300023406744, 6.470538699999452]",0,,,,,,,,,,,,,,,,,,,,,,,,,,,,,,,,,,,,,,,,,,,,,,,,,,,,,,,,,,,,,,,,,,,,,,,,,,,,,,,,,,,,,,,,,,,,,,,,,,,,,,,,,,,,,,,,,,,,,,,,,,,,QRDHCC,train_y,blue_star,top_right,2025-06-07_12h24.55.348,HideSeek_v1,2022.2.5,59.96742568369011,
,,,,,,,,,,,,,,,0,0,0,0,9,0,9,0,,,,,,,,,,,,,,,,,,,,,,,,,,,,,,,conditions/schedules/train_y_first/blue_star_00/top_right/instructions/Slide10.png,conditions/schedules/train_y_first/blue_star_00/top_right/instructions/Audio10.wav,205.6266508999979,205.62324871995952,10,"[3.620501499972306, 18.066341999918222, 16.74828569998499, 19.918616499984637, 4.754761999938637, 5.1371843999950215, 5.436645200010389, 11.873960299999453, 6.470531800063327, 7.4000660999445245]","[0.014343300019390881, 0.03393060003872961, 0.014896800043061376, 0.05130679998546839, 0.014114700024947524, 0.013819299987517297, 0.031231199973262846, 0.048055300023406744, 0.030719100032001734, 7.400073800003156]",0,,,,,,,,,,,,,,,,,,,,,,,,,,,,,,,,,,,,,,,,,,,,,,,,,,,,,,,,,,,,,,,,,,,,,,,,,,,,,,,,,,,,,,,,,,,,,,,,,,,,,,,,,,,,,,,,,,,,,,,,,,,,QRDHCC,train_y,blue_star,top_right,2025-06-07_12h24.55.348,HideSeek_v1,2022.2.5,59.96742568369011,
,,,,,,,,,,,,,,,0,0,0,0,10,0,10,0,,,,,,,,,,,,,,,,,,,,,,,,,,,,,,,conditions/schedules/train_y_first/blue_star_00/top_right/instructions/Slide11.png,conditions/schedules/train_y_first/blue_star_00/top_right/instructions/Audio11.wav,213.08320340001956,213.0790606199298,11,"[3.620501499972306, 18.066341999918222, 16.74828569998499, 19.918616499984637, 4.754761999938637, 5.1371843999950215, 5.436645200010389, 11.873960299999453, 6.470531800063327, 7.4000660999445245, 10.235502299969085]","[0.014343300019390881, 0.03393060003872961, 0.014896800043061376, 0.05130679998546839, 0.014114700024947524, 0.013819299987517297, 0.031231199973262846, 0.048055300023406744, 0.030719100032001734, 7.400073800003156, 10.23550890001934]",0,,,,,,,,,,,,,,,,,,,,,,,,,,,,,,,,,,,,,,,,,,,,,,,,,,,,,,,,,,,,,,,,,,,,,,,,,,,,,,,,,,,,,,,,,,,,,,,,,,,,,,,,,,,,,,,,,,,,,,,,,,,,QRDHCC,train_y,blue_star,top_right,2025-06-07_12h24.55.348,HideSeek_v1,2022.2.5,59.96742568369011,
,,,,,,,,,,,,,,,0,0,0,0,11,0,11,0,,,,,,,,,,,,,,,,,,,,,,,,,,,,,,,conditions/schedules/train_y_first/blue_star_00/top_right/instructions/Slide12.png,conditions/schedules/train_y_first/blue_star_00/top_right/instructions/Audio12.wav,223.38632980000693,223.38789579999866,12,"[3.620501499972306, 18.066341999918222, 16.74828569998499, 19.918616499984637, 4.754761999938637, 5.1371843999950215, 5.436645200010389, 11.873960299999453, 6.470531800063327, 7.4000660999445245, 10.235502299969085, 13.793767099967226]","[0.014343300019390881, 0.03393060003872961, 0.014896800043061376, 0.05130679998546839, 0.014114700024947524, 0.013819299987517297, 0.031231199973262846, 0.048055300023406744, 0.030719100032001734, 7.400073800003156, 0.03241309989243746, 13.793773999903351]",0,,,,,,,,,,,,,,,,,,,,,,,,,,,,,,,,,,,,,,,,,,,,,,,,,,,,,,,,,,,,,,,,,,,,,,,,,,,,,,,,,,,,,,,,,,,,,,,,,,,,,,,,,,,,,,,,,,,,,,,,,,,,QRDHCC,train_y,blue_star,top_right,2025-06-07_12h24.55.348,HideSeek_v1,2022.2.5,59.96742568369011,
1,5,8,5,3,0,-5,66,2,instr_dim1_1,,,,,,0,0,0,0,,,,,0,0,0,0,,,,,,,,,,,,,,,,,,,,,,,,,,,,,,,,,,,,,stimuli/alien_stimuli/66.png,conditions/schedules/train_y_first/blue_star_00/top_right/inputInstr_1.xlsx,stimuli/alien_stimuli/66.png,237.28011319995858,237.28011319995858,237.28011319995858,237.28011319995858,237.26583787996788,return,8.027415100019425,"[-0.16, -0.08, 0, 0.08, 0.16, 0.24, 0.32, 0.4, 0.48, 0.56]","[-0.4, -0.32, -0.24, -0.16, -0.08, 0, 0.08, 0.16, 0.24, 0.32]",3,8,5,5,0.4,0.0,245.46010059991386,245.46010059991386,245.46010059991386,245.46010059991386,245.46010059991386,245.46010059991386,245.46010059991386,245.45579494000413,7.907790299970657,return,7.7692869999445975,stimuli/alien_stimuli/66.png,66,5,1,,,,,,,,,,,,,,,,,,,,,,,,,,,,,,,,,,,,,,,,,,,,,,,,,,,,,,,,,,,,,,,,,,,,,,,,,,,,,,,,,,,,,,,,,QRDHCC,train_y,blue_star,top_right,2025-06-07_12h24.55.348,HideSeek_v1,2022.2.5,59.96742568369011,
,,,,,,,,,,,30,,,,0,0,0,0,,,,,,,,,,,,,,,,,,,,,,,,,,,,,,,,,,,,,,,,,,,,,,,,,,,,,,,,,,,,,,,,,,,,,,,,,,,,,,21,0.7,0,0,99,1,30,0,conditions/schedules/train_y_first/blue_star_00/top_right/inputTrain_1.1.xlsx,99,1,1,1,0,,,,,,,,,,,,,,,,,,,,,,,,,,,,,,,,,,,,,,,,,,,,,,,,,,,,,,,,,,,,,,,,,,,,,,,,,,,QRDHCC,train_y,blue_star,top_right,2025-06-07_12h24.55.348,HideSeek_v1,2022.2.5,59.96742568369011,
,,,,,,,,,,,,,,,1,0,1,0,0,0,0,0,,,,,,,,,,,,,,,,,,,,,,,,,,,,,,,conditions/schedules/train_y_first/blue_star_00/top_right/instructions/Slide13.png,conditions/schedules/train_y_first/blue_star_00/top_right/instructions/Audio13.wav,253.37793539999984,253.37916521989973,13,"[3.620501499972306, 18.066341999918222, 16.74828569998499, 19.918616499984637, 4.754761999938637, 5.1371843999950215, 5.436645200010389, 11.873960299999453, 6.470531800063327, 7.4000660999445245, 10.235502299969085, 13.793767099967226, 18.58101630001329]","[0.014343300019390881, 0.03393060003872961, 0.014896800043061376, 0.05130679998546839, 0.014114700024947524, 0.013819299987517297, 0.031231199973262846, 0.048055300023406744, 0.030719100032001734, 7.400073800003156, 0.03241309989243746, 13.793773999903351, 18.58102400007192]",0,,,,,,,,,,,,,,,,,,,,,,,,,,,,,,,,,,,,,,,,,,,,,,,,,,,,,,,,,,,,,,,,,,,,,,,,,,,,,,,,,,,,,,,,,,,,,,,,,,,,,,,,,,,,,,,,,,,,,,,,,,,,QRDHCC,train_y,blue_star,top_right,2025-06-07_12h24.55.348,HideSeek_v1,2022.2.5,59.96742568369011,
,,,,,,,,,,,,,,,1,0,1,0,1,0,1,0,,,,,,,,,,,,,,,,,,,,,,,,,,,,,,,conditions/schedules/train_y_first/blue_star_00/top_right/instructions/Slide14.png,conditions/schedules/train_y_first/blue_star_00/top_right/instructions/Audio14.wav,272.0233104999643,272.0112252199324,14,"[3.620501499972306, 18.066341999918222, 16.74828569998499, 19.918616499984637, 4.754761999938637, 5.1371843999950215, 5.436645200010389, 11.873960299999453, 6.470531800063327, 7.4000660999445245, 10.235502299969085, 13.793767099967226, 18.58101630001329, 17.233608000096865]","[0.014343300019390881, 0.03393060003872961, 0.014896800043061376, 0.05130679998546839, 0.014114700024947524, 0.013819299987517297, 0.031231199973262846, 0.048055300023406744, 0.030719100032001734, 7.400073800003156, 0.03241309989243746, 13.793773999903351, 0.05244630004744977, 17.23361500003375]",0,,,,,,,,,,,,,,,,,,,,,,,,,,,,,,,,,,,,,,,,,,,,,,,,,,,,,,,,,,,,,,,,,,,,,,,,,,,,,,,,,,,,,,,,,,,,,,,,,,,,,,,,,,,,,,,,,,,,,,,,,,,,QRDHCC,train_y,blue_star,top_right,2025-06-07_12h24.55.348,HideSeek_v1,2022.2.5,59.96742568369011,
2,7,8,7,8,0,0,61,2,instr_dim1_1,,,,,,1,0,1,0,,,,,0,0,0,0,,,,,,,,,,,,,,,,,,,,,,,,,,,,,,,,,,,,,stimuli/alien_stimuli/61.png,conditions/schedules/train_y_first/blue_star_00/top_right/inputInstr_1.xlsx,stimuli/alien_stimuli/61.png,289.35014479991514,289.35014479991514,289.35014479991514,289.35014479991514,289.3427891799947,return,6.257542599923909,"[-0.16, -0.08, 0, 0.08, 0.16, 0.24, 0.32, 0.4, 0.48, 0.56]","[-0.4, -0.32, -0.24, -0.16, -0.08, 0, 0.08, 0.16, 0.24, 0.32]",8,8,7,7,0.0,0.0,295.7504874999868,295.7504874999868,295.7504874999868,295.7504874999868,295.7504874999868,295.7504874999868,295.7504874999868,295.7472540399758,6.623351100017317,return,6.477447699988261,stimuli/alien_stimuli/61.png,61,7,2,,,,,,,,,,,,,,,,,,,,,,,,,,,,,,,,,,,,,,,,,,,,,,,,,,,,,,,,,,,,,,,,,,,,,,,,,,,,,,,,,,,,,,,,,QRDHCC,train_y,blue_star,top_right,2025-06-07_12h24.55.348,HideSeek_v1,2022.2.5,59.96742568369011,
,,,,,,,,,,,30,,,,1,0,1,0,,,,,,,,,,,,,,,,,,,,,,,,,,,,,,,,,,,,,,,,,,,,,,,,,,,,,,,,,,,,,,,,,,,,,,,,,,,,,,21,0.7,0,0,99,1,30,0,conditions/schedules/train_y_first/blue_star_00/top_right/inputTrain_1.1.xlsx,99,1,1,1,0,,,,,,,,,,,,,,,,,,,,,,,,,,,,,,,,,,,,,,,,,,,,,,,,,,,,,,,,,,,,,,,,,,,,,,,,,,,QRDHCC,train_y,blue_star,top_right,2025-06-07_12h24.55.348,HideSeek_v1,2022.2.5,59.96742568369011,
,,,,,,,,,,,,,,,2,0,2,0,0,0,0,0,,,,,,,,,,,,,,,,,,,,,,,,,,,,,,,conditions/schedules/train_y_first/blue_star_00/top_right/instructions/Slide15.png,conditions/schedules/train_y_first/blue_star_00/top_right/instructions/Audio15.wav,302.3959312000079,302.38633451989153,15,"[3.620501499972306, 18.066341999918222, 16.74828569998499, 19.918616499984637, 4.754761999938637, 5.1371843999950215, 5.436645200010389, 11.873960299999453, 6.470531800063327, 7.4000660999445245, 10.235502299969085, 13.793767099967226, 18.58101630001329, 17.233608000096865, 43.80768099997658]","[0.014343300019390881, 0.03393060003872961, 0.014896800043061376, 0.05130679998546839, 0.014114700024947524, 0.013819299987517297, 0.031231199973262846, 0.048055300023406744, 0.030719100032001734, 7.400073800003156, 0.03241309989243746, 13.793773999903351, 0.05244630004744977, 17.23361500003375, 43.80768780002836]",0,,,,,,,,,,,,,,,,,,,,,,,,,,,,,,,,,,,,,,,,,,,,,,,,,,,,,,,,,,,,,,,,,,,,,,,,,,,,,,,,,,,,,,,,,,,,,,,,,,,,,,,,,,,,,,,,,,,,,,,,,,,,QRDHCC,train_y,blue_star,top_right,2025-06-07_12h24.55.348,HideSeek_v1,2022.2.5,59.96742568369011,
,,,,,,,,,,,,,,,2,0,2,0,1,0,1,0,,,,,,,,,,,,,,,,,,,,,,,,,,,,,,,conditions/schedules/train_y_first/blue_star_00/top_right/instructions/Slide16.png,conditions/schedules/train_y_first/blue_star_00/top_right/instructions/Audio16.wav,346.27631099999417,346.27277419989696,16,"[3.620501499972306, 18.066341999918222, 16.74828569998499, 19.918616499984637, 4.754761999938637, 5.1371843999950215, 5.436645200010389, 11.873960299999453, 6.470531800063327, 7.4000660999445245, 10.235502299969085, 13.793767099967226, 18.58101630001329, 17.233608000096865, 43.80768099997658, 20.91148999996949]","[0.014343300019390881, 0.03393060003872961, 0.014896800043061376, 0.05130679998546839, 0.014114700024947524, 0.013819299987517297, 0.031231199973262846, 0.048055300023406744, 0.030719100032001734, 7.400073800003156, 0.03241309989243746, 13.793773999903351, 0.05244630004744977, 17.23361500003375, 0.07958139991387725, 20.911496999906376]",0,,,,,,,,,,,,,,,,,,,,,,,,,,,,,,,,,,,,,,,,,,,,,,,,,,,,,,,,,,,,,,,,,,,,,,,,,,,,,,,,,,,,,,,,,,,,,,,,,,,,,,,,,,,,,,,,,,,,,,,,,,,,QRDHCC,train_y,blue_star,top_right,2025-06-07_12h24.55.348,HideSeek_v1,2022.2.5,59.96742568369011,
,5,5,5,1,0,-4,65,,train_dim1_1,1,30,,,,2,0,2,0,,,,,,,,,0,0,0,0,0,0,0,0,0,0,0,0,,,,,,,,,,,,,,,,,,,,,,,,,stimuli/alien_stimuli/65.png,,,,,,,,,,,,,,,,,,,,,,,,,,,,,,,,,,,,,,,30,,,,,,,,367.2862854999257,367.2862854999257,367.2862854999257,367.2862854999257,367.2862854999257,down,2.1975105999736115,0,0,0,99,0.24,-0.08,down,2.0903663999633864,,,,,,,,,,,,,,,,,,,,,,,,,,,,,,,,,,,,,,,,,,,,,,,,,,,,,,,,,,,,QRDHCC,train_y,blue_star,top_right,2025-06-07_12h24.55.348,HideSeek_v1,2022.2.5,59.96742568369011,
,5,5,5,1,0,-4,65,,train_dim1_1,1,30,,,,2,0,2,0,,,,,,,,,0,0,0,0,0,0,0,0,1,0,1,0,,,,,,,,,,,,,,,,,,,,,,,,,,,,,,,,,,,,,,,,,,,,,,,,,,,,,,,,,,,,,,,,30,,,,,,,,369.47198129992466,369.47198129992466,369.47198129992466,369.47198129992466,369.47198129992466,down,0.47601270000450313,0,0,0,99,0.24,-0.16,down,0.3943770999321714,,,,,,,,,,,,,,,,,,,,,,,,,,,,,,,,,,,,,,,,,,,,,,,,,,,,,,,,,,,,QRDHCC,train_y,blue_star,top_right,2025-06-07_12h24.55.348,HideSeek_v1,2022.2.5,59.96742568369011,
,5,5,5,1,0,-4,65,,train_dim1_1,1,30,,,,2,0,2,0,,,,,,,,,0,0,0,0,0,0,0,0,2,0,2,0,,,,,,,,,,,,,,,,,,,,,,,,,,,,,,,,,,,,,,,,,,,,,,,,,,,,,,,,,,,,,,,,30,,,,,,,,369.95539439993445,369.95539439993445,369.95539439993445,369.95539439993445,369.95539439993445,down,0.3767595000099391,0,0,0,99,0.24,-0.24,down,0.30268590000923723,,,,,,,,,,,,,,,,,,,,,,,,,,,,,,,,,,,,,,,,,,,,,,,,,,,,,,,,,,,,QRDHCC,train_y,blue_star,top_right,2025-06-07_12h24.55.348,HideSeek_v1,2022.2.5,59.96742568369011,
,5,5,5,1,0,-4,65,,train_dim1_1,1,30,,,,2,0,2,0,,,,,,,,,0,0,0,0,0,0,0,0,3,0,3,0,,,,,,,,,,,,,,,,,,,,,,,,,,,,,,,,,,,,,,,,,,,,,,,,,,,,,,,,,,,,,,,,30,,,,,,,,370.3391270999564,370.3391270999564,370.3391270999564,370.3391270999564,370.3391270999564,down,0.7935130000114441,0,0,0,99,0.24,-0.32,down,0.7162834999617189,,,,,,,,,,,,,,,,,,,,,,,,,,,,,,,,,,,,,,,,,,,,,,,,,,,,,,,,,,,,QRDHCC,train_y,blue_star,top_right,2025-06-07_12h24.55.348,HideSeek_v1,2022.2.5,59.96742568369011,
,5,5,5,1,0,-4,65,,train_dim1_1,1,30,,,,2,0,2,0,,,,,,,,,0,0,0,0,0,0,0,0,4,0,4,0,,,,,,,,,,,,,,,,,,,,,,,,,,,,,,,,,,,,,,,,,,,,,,,,,,,,,,,,,,,,,,,,30,,,,,,,,371.1397631999571,371.1397631999571,371.1397631999571,371.1397631999571,371.1397631999571,down,0.39323269994929433,0,0,0,99,0.24,-0.4,down,0.3132744999602437,,,,,,,,,,,,,,,,,,,,,,,,,,,,,,,,,,,,,,,,,,,,,,,,,,,,,,,,,,,,QRDHCC,train_y,blue_star,top_right,2025-06-07_12h24.55.348,HideSeek_v1,2022.2.5,59.96742568369011,
,5,5,5,1,0,-4,65,,train_dim1_1,1,30,,,,2,0,2,0,,,,,,,,,0,0,0,0,0,0,0,0,5,0,5,0,,,,,,,,,,,,,,,,,,,,,,,,,,,,,,,,,,,,,,,,,,,,,,,,,,,,,,,,,,,,,,,,30,,,,,,,,371.54601799999364,371.54601799999364,371.54601799999364,371.54601799999364,371.54601799999364,return,0.7773110000416636,0,1,0,0,0.24,-0.4,return,0.6936163000063971,-5,0,0.24,-0.4,,,,,,,,,,,,,,,,,,,,,,,,,,,,,,,,,,,,,,,,,,,,,,,,,,,,,,,,QRDHCC,train_y,blue_star,top_right,2025-06-07_12h24.55.348,HideSeek_v1,2022.2.5,59.96742568369011,
,8,7,8,2,0,-5,66,,train_dim1_1,2,30,,,,2,0,2,0,,,,,,,,,0,0,0,0,0,1,1,1,0,0,0,0,,,,,,,,,,,,,,,,,,,,,,,,,stimuli/alien_stimuli/66.png,,,,,,,,,,,,,,,,,,,,,,,,,,,,,stimuli/alien_stimuli/65.png,65,5,3,,,,,,,30,,,,,,,,393.6713178999489,393.6713178999489,393.6713178999489,393.6713178999489,393.6713178999489,down,2.2575346999801695,0,1,0,99,0.48,0.08,down,2.171851599938236,,,,,392.1111133999657,393.6713178999489,0.24,-0.32,0.32,0.0,-0.16,0.24,0.24,0.24,-0.32,373.89398229995277,373.89398229995277,373.89398229995277,373.89398229995277,373.89398229995277,373.89398229995277,373.89398229995277,373.89398229995277,373.87900496000657,18.33421250001993,return,18.196951500023715,,,,,,,,,,,,,,,,,,,,,,,,,,,,,,,,,QRDHCC,train_y,blue_star,top_right,2025-06-07_12h24.55.348,HideSeek_v1,2022.2.5,59.96742568369011,
,8,7,8,2,0,-5,66,,train_dim1_1,2,30,,,,2,0,2,0,,,,,,,,,0,0,0,0,0,1,1,1,1,0,1,0,,,,,,,,,,,,,,,,,,,,,,,,,,,,,,,,,,,,,,,,,,,,,,,,,,,,,,,,,,,,,,,,30,,,,,,,,395.9272083999822,395.9272083999822,395.9272083999822,395.9272083999822,395.9272083999822,down,0.45969640009570867,0,1,0,99,0.48,0.0,down,0.3719796999357641,,,,,,,,,,,,,,,,,,,,,,,,,,,,,,,,,,,,,,,,,,,,,,,,,,,,,,,,,,,,QRDHCC,train_y,blue_star,top_right,2025-06-07_12h24.55.348,HideSeek_v1,2022.2.5,59.96742568369011,
,8,7,8,2,0,-5,66,,train_dim1_1,2,30,,,,2,0,2,0,,,,,,,,,0,0,0,0,0,1,1,1,2,0,2,0,,,,,,,,,,,,,,,,,,,,,,,,,,,,,,,,,,,,,,,,,,,,,,,,,,,,,,,,,,,,,,,,30,,,,,,,,396.42328589991666,396.42328589991666,396.42328589991666,396.42328589991666,396.42328589991666,down,0.5148832999402657,0,1,0,99,0.48,-0.08,down,0.4143121999222785,,,,,,,,,,,,,,,,,,,,,,,,,,,,,,,,,,,,,,,,,,,,,,,,,,,,,,,,,,,,QRDHCC,train_y,blue_star,top_right,2025-06-07_12h24.55.348,HideSeek_v1,2022.2.5,59.96742568369011,
,8,7,8,2,0,-5,66,,train_dim1_1,2,30,,,,2,0,2,0,,,,,,,,,0,0,0,0,0,1,1,1,3,0,3,0,,,,,,,,,,,,,,,,,,,,,,,,,,,,,,,,,,,,,,,,,,,,,,,,,,,,,,,,,,,,,,,,30,,,,,,,,396.9279836999485,396.9279836999485,396.9279836999485,396.9279836999485,396.9279836999485,down,0.5937015999807045,0,1,0,99,0.48,-0.16,down,0.5160721000283957,,,,,,,,,,,,,,,,,,,,,,,,,,,,,,,,,,,,,,,,,,,,,,,,,,,,,,,,,,,,QRDHCC,train_y,blue_star,top_right,2025-06-07_12h24.55.348,HideSeek_v1,2022.2.5,59.96742568369011,
,8,7,8,2,0,-5,66,,train_dim1_1,2,30,,,,2,0,2,0,,,,,,,,,0,0,0,0,0,1,1,1,4,0,4,0,,,,,,,,,,,,,,,,,,,,,,,,,,,,,,,,,,,,,,,,,,,,,,,,,,,,,,,,,,,,,,,,30,,,,,,,,397.528287599911,397.528287599911,397.528287599911,397.528287599911,397.528287599911,return,0.2934559000423178,0,1,0,0,0.48,-0.16,return,0.20910919993184507,-9,0,0.48,-0.16,,,,,,,,,,,,,,,,,,,,,,,,,,,,,,,,,,,,,,,,,,,,,,,,,,,,,,,,QRDHCC,train_y,blue_star,top_right,2025-06-07_12h24.55.348,HideSeek_v1,2022.2.5,59.96742568369011,
,7,8,7,5,0,-3,64,,train_dim1_1,3,30,,,,2,0,2,0,,,,,,,,,0,0,0,0,0,2,2,2,0,0,0,0,,,,,,,,,,,,,,,,,,,,,,,,,stimuli/alien_stimuli/64.png,,,,,,,,,,,,,,,,,,,,,,,,,,,,,stimuli/alien_stimuli/66.png,66,8,4,,,,,,,30,,,,,,,,405.40537819999736,405.40537819999736,405.40537819999736,405.40537819999736,405.40537819999736,down,5.293943700031377,0,1,0,99,0.4,0.15999999999999998,down,5.210599899990484,,,,,403.85384330002125,405.40537819999736,0.48,-0.24,0.4,0.0,-0.039999999999999994,0.48,0.48,0.48,-0.24,399.38751159992535,399.38751159992535,399.38751159992535,399.38751159992535,399.38751159992535,399.38751159992535,399.38751159992535,399.38751159992535,399.3835180599126,4.572285800008103,return,4.446274899994023,,,,,,,,,,,,,,,,,,,,,,,,,,,,,,,,,QRDHCC,train_y,blue_star,top_right,2025-06-07_12h24.55.348,HideSeek_v1,2022.2.5,59.96742568369011,
,7,8,7,5,0,-3,64,,train_dim1_1,3,30,,,,2,0,2,0,,,,,,,,,0,0,0,0,0,2,2,2,1,0,1,0,,,,,,,,,,,,,,,,,,,,,,,,,,,,,,,,,,,,,,,,,,,,,,,,,,,,,,,,,,,,,,,,30,,,,,,,,410.70898009999655,410.70898009999655,410.70898009999655,410.70898009999655,410.70898009999655,down,0.5431492000352591,0,1,0,99,0.4,0.07999999999999997,down,0.4674250000389293,,,,,,,,,,,,,,,,,,,,,,,,,,,,,,,,,,,,,,,,,,,,,,,,,,,,,,,,,,,,QRDHCC,train_y,blue_star,top_right,2025-06-07_12h24.55.348,HideSeek_v1,2022.2.5,59.96742568369011,
,7,8,7,5,0,-3,64,,train_dim1_1,3,30,,,,2,0,2,0,,,,,,,,,0,0,0,0,0,2,2,2,2,0,2,0,,,,,,,,,,,,,,,,,,,,,,,,,,,,,,,,,,,,,,,,,,,,,,,,,,,,,,,,,,,,,,,,30,,,,,,,,411.2561682999367,411.2561682999367,411.2561682999367,411.2561682999367,411.2561682999367,left,0.7436149000423029,0,1,0,99,0.32,0.07999999999999997,left,0.66867889999412,,,,,,,,,,,,,,,,,,,,,,,,,,,,,,,,,,,,,,,,,,,,,,,,,,,,,,,,,,,,QRDHCC,train_y,blue_star,top_right,2025-06-07_12h24.55.348,HideSeek_v1,2022.2.5,59.96742568369011,
,7,8,7,5,0,-3,64,,train_dim1_1,3,30,,,,2,0,2,0,,,,,,,,,0,0,0,0,0,2,2,2,3,0,3,0,,,,,,,,,,,,,,,,,,,,,,,,,,,,,,,,,,,,,,,,,,,,,,,,,,,,,,,,,,,,,,,,30,,,,,,,,412.0072408999549,412.0072408999549,412.0072408999549,412.0072408999549,412.0072408999549,return,0.4766912000486627,0,0,0,0,0.32,0.07999999999999997,return,0.4044444999890402,-11,-1,0.32,0.07999999999999997,,,,,,,,,,,,,,,,,,,,,,,,,,,,,,,,,,,,,,,,,,,,,,,,,,,,,,,,QRDHCC,train_y,blue_star,top_right,2025-06-07_12h24.55.348,HideSeek_v1,2022.2.5,59.96742568369011,
,5,6,5,5,0,-1,62,,train_dim1_1,4,30,,,,2,0,2,0,,,,,,,,,0,0,0,0,0,3,3,3,0,0,0,0,,,,,,,,,,,,,,,,,,,,,,,,,stimuli/alien_stimuli/62.png,,,,,,,,,,,,,,,,,,,,,,,,,,,,,stimuli/alien_stimuli/64.png,64,7,5,,,,,,,30,,,,,,,,418.78481360001024,418.78481360001024,418.78481360001024,418.78481360001024,418.78481360001024,return,1.672491000033915,0,1,0,0,0.24,0.08,return,1.5952488000039011,-11,-1,0.24,0.08,417.2317023000214,418.78481360001024,0.4,0,0.24,0.0,0.12,0.4,0.4,0.4,0,414.0524618999334,414.0524618999334,414.0524618999334,414.0524618999334,414.0524618999334,414.0524618999334,414.0524618999334,414.0524618999334,414.04558485996677,3.288143999991007,return,3.1470439000986516,,,,,,,,,,,,,,,,,,,,,,,,,,,,,,,,,QRDHCC,train_y,blue_star,top_right,2025-06-07_12h24.55.348,HideSeek_v1,2022.2.5,59.96742568369011,
,8,8,8,8,0,0,61,,train_dim1_1,5,30,,,,2,0,2,0,,,,,,,,,0,0,0,0,0,4,4,4,0,0,0,0,,,,,,,,,,,,,,,,,,,,,,,,,stimuli/alien_stimuli/61.png,,,,,,,,,,,,,,,,,,,,,,,,,,,,,stimuli/alien_stimuli/62.png,62,5,6,,,,,,,30,,,,,,,,425.67225860001054,425.67225860001054,425.67225860001054,425.67225860001054,425.67225860001054,down,3.25862820004113,0,1,0,99,0.48,0.15999999999999998,down,3.180193500011228,,,,,424.12107759993523,425.67225860001054,0.24,0,0.08,0.0,0.04,0.24,0.24,0.24,0,422.00870599993505,422.00870599993505,422.00870599993505,422.00870599993505,422.00870599993505,422.00870599993505,422.00870599993505,422.00870599993505,422.0022323799785,2.205049200099893,return,2.0965746000874788,,,,,,,,,,,,,,,,,,,,,,,,,,,,,,,,,QRDHCC,train_y,blue_star,top_right,2025-06-07_12h24.55.348,HideSeek_v1,2022.2.5,59.96742568369011,
,8,8,8,8,0,0,61,,train_dim1_1,5,30,,,,2,0,2,0,,,,,,,,,0,0,0,0,0,4,4,4,1,0,1,0,,,,,,,,,,,,,,,,,,,,,,,,,,,,,,,,,,,,,,,,,,,,,,,,,,,,,,,,,,,,,,,,30,,,,,,,,428.93801239994355,428.93801239994355,428.93801239994355,428.93801239994355,428.93801239994355,return,0.34323709993623197,0,1,0,0,0.48,0.15999999999999998,return,0.27019820001441985,-12,-1,0.48,0.15999999999999998,,,,,,,,,,,,,,,,,,,,,,,,,,,,,,,,,,,,,,,,,,,,,,,,,,,,,,,,QRDHCC,train_y,blue_star,top_right,2025-06-07_12h24.55.348,HideSeek_v1,2022.2.5,59.96742568369011,
,6,9,6,8,0,-1,62,,train_dim1_1,6,30,,,,2,0,2,0,,,,,,,,,0,0,0,0,0,5,5,5,0,0,0,0,,,,,,,,,,,,,,,,,,,,,,,,,stimuli/alien_stimuli/62.png,,,,,,,,,,,,,,,,,,,,,,,,,,,,,stimuli/alien_stimuli/61.png,61,8,7,,,,,,,30,,,,,,,,434.23074339993764,434.23074339993764,434.23074339993764,434.23074339993764,434.23074339993764,down,3.2079065999714658,0,1,0,99,0.32,0.24,down,3.1290595000609756,,,,,432.6780349999899,434.23074339993764,0.48,0.24,0.0,0.0,0.24,0.48,0.48,0.48,0.24,430.83569109998643,430.83569109998643,430.83569109998643,430.83569109998643,430.83569109998643,430.83569109998643,430.83569109998643,430.83569109998643,430.8262451799819,1.9369214000180364,return,1.8145957000087947,,,,,,,,,,,,,,,,,,,,,,,,,,,,,,,,,QRDHCC,train_y,blue_star,top_right,2025-06-07_12h24.55.348,HideSeek_v1,2022.2.5,59.96742568369011,
,6,9,6,8,0,-1,62,,train_dim1_1,6,30,,,,2,0,2,0,,,,,,,,,0,0,0,0,0,5,5,5,1,0,1,0,,,,,,,,,,,,,,,,,,,,,,,,,,,,,,,,,,,,,,,,,,,,,,,,,,,,,,,,,,,,,,,,30,,,,,,,,437.4454638999887,437.4454638999887,437.4454638999887,437.4454638999887,437.4454638999887,return,0.3258656000252813,1,0,0,1,0.32,0.24,return,0.24750199995469302,-13,-1,0.32,0.24,,,,,,,,,,,,,,,,,,,,,,,,,,,,,,,,,,,,,,,,,,,,,,,,,,,,,,,,QRDHCC,train_y,blue_star,top_right,2025-06-07_12h24.55.348,HideSeek_v1,2022.2.5,59.96742568369011,
,6,8,6,5,0,-3,64,,train_dim1_1,7,30,,,,2,0,2,0,,,,,,,,,0,0,0,0,0,6,6,6,0,0,0,0,,,,,,,,,,,,,,,,,,,,,,,,,stimuli/alien_stimuli/64.png,,,,,,,,,,,,,,,,,,,,,,,,,,,,,stimuli/alien_stimuli/62.png,62,6,8,,,,,,,30,,,,,,,,443.0202590000117,443.0202590000117,443.0202590000117,443.0202590000117,443.0202590000117,down,2.3744084000354633,1,0,0,99,0.32,0.15999999999999998,down,2.286997999995947,,,,,441.46863499993924,443.0202590000117,0.32,0.24,0.08,0.0,0.28,0.32,0.32,0.32,0.24,439.3249842999503,439.3249842999503,439.3249842999503,439.3249842999503,439.3249842999503,439.3249842999503,439.3249842999503,439.3249842999503,439.3169279799331,2.2370439999504015,return,2.1267076999647543,,,,,,,,,,,,,,,,,,,,,,,,,,,,,,,,,QRDHCC,train_y,blue_star,top_right,2025-06-07_12h24.55.348,HideSeek_v1,2022.2.5,59.96742568369011,
,6,8,6,5,0,-3,64,,train_dim1_1,7,30,,,,2,0,2,0,,,,,,,,,0,0,0,0,0,6,6,6,1,0,1,0,,,,,,,,,,,,,,,,,,,,,,,,,,,,,,,,,,,,,,,,,,,,,,,,,,,,,,,,,,,,,,,,30,,,,,,,,445.4023930999683,445.4023930999683,445.4023930999683,445.4023930999683,445.4023930999683,down,0.4922145999735221,1,0,0,99,0.32,0.07999999999999997,down,0.4083767000120133,,,,,,,,,,,,,,,,,,,,,,,,,,,,,,,,,,,,,,,,,,,,,,,,,,,,,,,,,,,,QRDHCC,train_y,blue_star,top_right,2025-06-07_12h24.55.348,HideSeek_v1,2022.2.5,59.96742568369011,
,6,8,6,5,0,-3,64,,train_dim1_1,7,30,,,,2,0,2,0,,,,,,,,,0,0,0,0,0,6,6,6,2,0,2,0,,,,,,,,,,,,,,,,,,,,,,,,,,,,,,,,,,,,,,,,,,,,,,,,,,,,,,,,,,,,,,,,30,,,,,,,,445.90204710001126,445.90204710001126,445.90204710001126,445.90204710001126,445.90204710001126,return,0.5432781999697909,1,1,0,0,0.32,0.07999999999999997,return,0.46901969995815307,-15,-1,0.32,0.07999999999999997,,,,,,,,,,,,,,,,,,,,,,,,,,,,,,,,,,,,,,,,,,,,,,,,,,,,,,,,QRDHCC,train_y,blue_star,top_right,2025-06-07_12h24.55.348,HideSeek_v1,2022.2.5,59.96742568369011,
,9,7,9,7,0,0,61,,train_dim1_1,8,30,,,,2,0,2,0,,,,,,,,,0,0,0,0,0,7,7,7,0,0,0,0,,,,,,,,,,,,,,,,,,,,,,,,,stimuli/alien_stimuli/61.png,,,,,,,,,,,,,,,,,,,,,,,,,,,,,stimuli/alien_stimuli/64.png,64,6,9,,,,,,,30,,,,,,,,450.9333993999753,450.9333993999753,450.9333993999753,450.9333993999753,450.9333993999753,left,2.373884700005874,1,1,0,99,0.48000000000000004,0.16,left,2.286167199956253,,,,,449.3755336999893,450.9333993999753,0.32,0,0.24,0.0,0.12,0.32,0.32,0.32,0,447.995021599927,447.995021599927,447.995021599927,447.995021599927,447.995021599927,447.995021599927,447.995021599927,447.995021599927,447.9905918799341,1.4700777999823913,return,1.3516070999903604,,,,,,,,,,,,,,,,,,,,,,,,,,,,,,,,,QRDHCC,train_y,blue_star,top_right,2025-06-07_12h24.55.348,HideSeek_v1,2022.2.5,59.96742568369011,
,9,7,9,7,0,0,61,,train_dim1_1,8,30,,,,2,0,2,0,,,,,,,,,0,0,0,0,0,7,7,7,1,0,1,0,,,,,,,,,,,,,,,,,,,,,,,,,,,,,,,,,,,,,,,,,,,,,,,,,,,,,,,,,,,,,,,,30,,,,,,,,453.3087726000231,453.3087726000231,453.3087726000231,453.3087726000231,453.3087726000231,return,0.3426464000949636,1,1,0,0,0.48000000000000004,0.16,return,0.27093729993794113,-15,-2,0.48000000000000004,0.16,,,,,,,,,,,,,,,,,,,,,,,,,,,,,,,,,,,,,,,,,,,,,,,,,,,,,,,,QRDHCC,train_y,blue_star,top_right,2025-06-07_12h24.55.348,HideSeek_v1,2022.2.5,59.96742568369011,
,9,8,9,4,0,-4,65,,train_dim1_1,9,30,,,,2,0,2,0,,,,,,,,,0,0,0,0,0,8,8,8,0,0,0,0,,,,,,,,,,,,,,,,,,,,,,,,,stimuli/alien_stimuli/65.png,,,,,,,,,,,,,,,,,,,,,,,,,,,,,stimuli/alien_stimuli/61.png,61,9,10,,,,,,,30,,,,,,,,457.6651184000075,457.6651184000075,457.6651184000075,457.6651184000075,457.6651184000075,down,2.1077089000027627,1,1,0,99,0.56,0.15999999999999998,down,2.020607899990864,,,,,456.11416210001335,457.6651184000075,0.56,0.16,0.0,0.0,0.16,0.56,0.56,0.56,0.16,455.22270369995385,455.22270369995385,455.22270369995385,455.22270369995385,455.22270369995385,455.22270369995385,455.22270369995385,455.22270369995385,455.21328015992185,1.002882199943997,return,0.8704861999722198,,,,,,,,,,,,,,,,,,,,,,,,,,,,,,,,,QRDHCC,train_y,blue_star,top_right,2025-06-07_12h24.55.348,HideSeek_v1,2022.2.5,59.96742568369011,
,9,8,9,4,0,-4,65,,train_dim1_1,9,30,,,,2,0,2,0,,,,,,,,,0,0,0,0,0,8,8,8,1,0,1,0,,,,,,,,,,,,,,,,,,,,,,,,,,,,,,,,,,,,,,,,,,,,,,,,,,,,,,,,,,,,,,,,30,,,,,,,,459.7864647000097,459.7864647000097,459.7864647000097,459.7864647000097,459.7864647000097,down,0.38831830001436174,1,1,0,99,0.56,0.07999999999999997,down,0.31422309996560216,,,,,,,,,,,,,,,,,,,,,,,,,,,,,,,,,,,,,,,,,,,,,,,,,,,,,,,,,,,,QRDHCC,train_y,blue_star,top_right,2025-06-07_12h24.55.348,HideSeek_v1,2022.2.5,59.96742568369011,
,9,8,9,4,0,-4,65,,train_dim1_1,9,30,,,,2,0,2,0,,,,,,,,,0,0,0,0,0,8,8,8,2,0,2,0,,,,,,,,,,,,,,,,,,,,,,,,,,,,,,,,,,,,,,,,,,,,,,,,,,,,,,,,,,,,,,,,30,,,,,,,,460.18141359998845,460.18141359998845,460.18141359998845,460.18141359998845,460.18141359998845,down,0.326342000043951,1,1,0,99,0.56,-2.7755575615628914e-17,down,0.25245649996213615,,,,,,,,,,,,,,,,,,,,,,,,,,,,,,,,,,,,,,,,,,,,,,,,,,,,,,,,,,,,QRDHCC,train_y,blue_star,top_right,2025-06-07_12h24.55.348,HideSeek_v1,2022.2.5,59.96742568369011,
,9,8,9,4,0,-4,65,,train_dim1_1,9,30,,,,2,0,2,0,,,,,,,,,0,0,0,0,0,8,8,8,3,0,3,0,,,,,,,,,,,,,,,,,,,,,,,,,,,,,,,,,,,,,,,,,,,,,,,,,,,,,,,,,,,,,,,,30,,,,,,,,460.5135316000087,460.5135316000087,460.5135316000087,460.5135316000087,460.5135316000087,down,0.41005219996441156,1,1,0,99,0.56,-0.08000000000000003,down,0.33051749994046986,,,,,,,,,,,,,,,,,,,,,,,,,,,,,,,,,,,,,,,,,,,,,,,,,,,,,,,,,,,,QRDHCC,train_y,blue_star,top_right,2025-06-07_12h24.55.348,HideSeek_v1,2022.2.5,59.96742568369011,
,9,8,9,4,0,-4,65,,train_dim1_1,9,30,,,,2,0,2,0,,,,,,,,,0,0,0,0,0,8,8,8,4,0,4,0,,,,,,,,,,,,,,,,,,,,,,,,,,,,,,,,,,,,,,,,,,,,,,,,,,,,,,,,,,,,,,,,30,,,,,,,,460.9315321999602,460.9315321999602,460.9315321999602,460.9315321999602,460.9315321999602,down,0.6936065999325365,1,1,0,99,0.56,-0.16000000000000003,down,0.608019300037995,,,,,,,,,,,,,,,,,,,,,,,,,,,,,,,,,,,,,,,,,,,,,,,,,,,,,,,,,,,,QRDHCC,train_y,blue_star,top_right,2025-06-07_12h24.55.348,HideSeek_v1,2022.2.5,59.96742568369011,
,9,8,9,4,0,-4,65,,train_dim1_1,9,30,,,,2,0,2,0,,,,,,,,,0,0,0,0,0,8,8,8,5,0,5,0,,,,,,,,,,,,,,,,,,,,,,,,,,,,,,,,,,,,,,,,,,,,,,,,,,,,,,,,,,,,,,,,30,,,,,,,,461.6312893999275,461.6312893999275,461.6312893999275,461.6312893999275,461.6312893999275,return,0.7102622999809682,1,1,0,0,0.56,-0.16000000000000003,return,0.6284634999465197,-20,-2,0.56,-0.16000000000000003,,,,,,,,,,,,,,,,,,,,,,,,,,,,,,,,,,,,,,,,,,,,,,,,,,,,,,,,QRDHCC,train_y,blue_star,top_right,2025-06-07_12h24.55.348,HideSeek_v1,2022.2.5,59.96742568369011,
,7,7,7,2,0,-5,66,,train_dim1_1,10,30,,,,2,0,2,0,,,,,,,,,0,0,0,0,0,9,9,9,0,0,0,0,,,,,,,,,,,,,,,,,,,,,,,,,stimuli/alien_stimuli/66.png,,,,,,,,,,,,,,,,,,,,,,,,,,,,,stimuli/alien_stimuli/65.png,65,9,11,,,,,,,30,,,,,,,,466.4578277999535,466.4578277999535,466.4578277999535,466.4578277999535,466.4578277999535,down,2.4401622000150383,1,1,0,99,0.4,0.08,down,2.356745299999602,,,,,464.9045811999822,466.4578277999535,0.56,-0.08,0.32,0.0,0.07999999999999999,0.56,0.56,0.56,-0.08,463.9051523000235,463.9051523000235,463.9051523000235,463.9051523000235,463.9051523000235,463.9051523000235,463.9051523000235,463.9051523000235,463.90366755990544,1.102971600019373,return,0.9708011000184342,,,,,,,,,,,,,,,,,,,,,,,,,,,,,,,,,QRDHCC,train_y,blue_star,top_right,2025-06-07_12h24.55.348,HideSeek_v1,2022.2.5,59.96742568369011,
,7,7,7,2,0,-5,66,,train_dim1_1,10,30,,,,2,0,2,0,,,,,,,,,0,0,0,0,0,9,9,9,1,0,1,0,,,,,,,,,,,,,,,,,,,,,,,,,,,,,,,,,,,,,,,,,,,,,,,,,,,,,,,,,,,,,,,,30,,,,,,,,468.90484009997454,468.90484009997454,468.90484009997454,468.90484009997454,468.90484009997454,down,0.45967950008343905,1,1,0,99,0.4,0.0,down,0.37470899999607354,,,,,,,,,,,,,,,,,,,,,,,,,,,,,,,,,,,,,,,,,,,,,,,,,,,,,,,,,,,,QRDHCC,train_y,blue_star,top_right,2025-06-07_12h24.55.348,HideSeek_v1,2022.2.5,59.96742568369011,
,7,7,7,2,0,-5,66,,train_dim1_1,10,30,,,,2,0,2,0,,,,,,,,,0,0,0,0,0,9,9,9,2,0,2,0,,,,,,,,,,,,,,,,,,,,,,,,,,,,,,,,,,,,,,,,,,,,,,,,,,,,,,,,,,,,,,,,30,,,,,,,,469.3713039999129,469.3713039999129,469.3713039999129,469.3713039999129,469.3713039999129,down,0.4767561999615282,1,1,0,99,0.4,-0.08,down,0.4034104000311345,,,,,,,,,,,,,,,,,,,,,,,,,,,,,,,,,,,,,,,,,,,,,,,,,,,,,,,,,,,,QRDHCC,train_y,blue_star,top_right,2025-06-07_12h24.55.348,HideSeek_v1,2022.2.5,59.96742568369011,
,7,7,7,2,0,-5,66,,train_dim1_1,10,30,,,,2,0,2,0,,,,,,,,,0,0,0,0,0,9,9,9,3,0,3,0,,,,,,,,,,,,,,,,,,,,,,,,,,,,,,,,,,,,,,,,,,,,,,,,,,,,,,,,,,,,,,,,30,,,,,,,,469.85555989993736,469.85555989993736,469.85555989993736,469.85555989993736,469.85555989993736,down,0.39299510000273585,1,1,0,99,0.4,-0.16,down,0.3084002999821678,,,,,,,,,,,,,,,,,,,,,,,,,,,,,,,,,,,,,,,,,,,,,,,,,,,,,,,,,,,,QRDHCC,train_y,blue_star,top_right,2025-06-07_12h24.55.348,HideSeek_v1,2022.2.5,59.96742568369011,
,7,7,7,2,0,-5,66,,train_dim1_1,10,30,,,,2,0,2,0,,,,,,,,,0,0,0,0,0,9,9,9,4,0,4,0,,,,,,,,,,,,,,,,,,,,,,,,,,,,,,,,,,,,,,,,,,,,,,,,,,,,,,,,,,,,,,,,30,,,,,,,,470.25800299993716,470.25800299993716,470.25800299993716,470.25800299993716,470.25800299993716,return,0.3107024000491947,1,1,0,0,0.4,-0.16,return,0.22078950004652143,-24,-2,0.4,-0.16,,,,,,,,,,,,,,,,,,,,,,,,,,,,,,,,,,,,,,,,,,,,,,,,,,,,,,,,QRDHCC,train_y,blue_star,top_right,2025-06-07_12h24.55.348,HideSeek_v1,2022.2.5,59.96742568369011,
,9,6,9,2,0,-4,65,,train_dim1_1,11,30,,,,2,0,2,0,,,,,,,,,0,0,0,0,0,10,10,10,0,0,0,0,,,,,,,,,,,,,,,,,,,,,,,,,stimuli/alien_stimuli/65.png,,,,,,,,,,,,,,,,,,,,,,,,,,,,,stimuli/alien_stimuli/66.png,66,7,12,,,,,,,30,,,,,,,,474.6902839000104,474.6902839000104,474.6902839000104,474.6902839000104,474.6902839000104,down,1.15625690005254,1,1,0,99,0.56,0.0,down,1.06731920002494,,,,,473.1281516000163,474.6902839000104,0.4,-0.24,0.4,0.0,-0.039999999999999994,0.4,0.4,0.4,-0.24,472.114516899921,472.114516899921,472.114516899921,472.114516899921,472.114516899921,472.114516899921,472.114516899921,472.114516899921,472.11034317989834,1.1034725999925286,return,0.9950413000769913,,,,,,,,,,,,,,,,,,,,,,,,,,,,,,,,,QRDHCC,train_y,blue_star,top_right,2025-06-07_12h24.55.348,HideSeek_v1,2022.2.5,59.96742568369011,
,9,6,9,2,0,-4,65,,train_dim1_1,11,30,,,,2,0,2,0,,,,,,,,,0,0,0,0,0,10,10,10,1,0,1,0,,,,,,,,,,,,,,,,,,,,,,,,,,,,,,,,,,,,,,,,,,,,,,,,,,,,,,,,,,,,,,,,30,,,,,,,,475.84324790001847,475.84324790001847,475.84324790001847,475.84324790001847,475.84324790001847,down,0.3263497001025826,1,1,0,99,0.56,-0.08,down,0.253498199977912,,,,,,,,,,,,,,,,,,,,,,,,,,,,,,,,,,,,,,,,,,,,,,,,,,,,,,,,,,,,QRDHCC,train_y,blue_star,top_right,2025-06-07_12h24.55.348,HideSeek_v1,2022.2.5,59.96742568369011,
,9,6,9,2,0,-4,65,,train_dim1_1,11,30,,,,2,0,2,0,,,,,,,,,0,0,0,0,0,10,10,10,2,0,2,0,,,,,,,,,,,,,,,,,,,,,,,,,,,,,,,,,,,,,,,,,,,,,,,,,,,,,,,,,,,,,,,,30,,,,,,,,476.17724649992306,476.17724649992306,476.17724649992306,476.17724649992306,476.17724649992306,down,0.42665979999583215,1,1,0,99,0.56,-0.16,down,0.34660629997961223,,,,,,,,,,,,,,,,,,,,,,,,,,,,,,,,,,,,,,,,,,,,,,,,,,,,,,,,,,,,QRDHCC,train_y,blue_star,top_right,2025-06-07_12h24.55.348,HideSeek_v1,2022.2.5,59.96742568369011,
,9,6,9,2,0,-4,65,,train_dim1_1,11,30,,,,2,0,2,0,,,,,,,,,0,0,0,0,0,10,10,10,3,0,3,0,,,,,,,,,,,,,,,,,,,,,,,,,,,,,,,,,,,,,,,,,,,,,,,,,,,,,,,,,,,,,,,,30,,,,,,,,476.61000149999745,476.61000149999745,476.61000149999745,476.61000149999745,476.61000149999745,down,0.393396700033918,1,1,0,99,0.56,-0.24,down,0.31923280004411936,,,,,,,,,,,,,,,,,,,,,,,,,,,,,,,,,,,,,,,,,,,,,,,,,,,,,,,,,,,,QRDHCC,train_y,blue_star,top_right,2025-06-07_12h24.55.348,HideSeek_v1,2022.2.5,59.96742568369011,
,9,6,9,2,0,-4,65,,train_dim1_1,11,30,,,,2,0,2,0,,,,,,,,,0,0,0,0,0,10,10,10,4,0,4,0,,,,,,,,,,,,,,,,,,,,,,,,,,,,,,,,,,,,,,,,,,,,,,,,,,,,,,,,,,,,,,,,30,,,,,,,,477.0111518999329,477.0111518999329,477.0111518999329,477.0111518999329,477.0111518999329,return,0.3264389999676496,2,0,0,1,0.56,-0.24,return,0.2414553000126034,-28,-2,0.56,-0.24,,,,,,,,,,,,,,,,,,,,,,,,,,,,,,,,,,,,,,,,,,,,,,,,,,,,,,,,QRDHCC,train_y,blue_star,top_right,2025-06-07_12h24.55.348,HideSeek_v1,2022.2.5,59.96742568369011,
,5,5,5,5,0,0,61,,train_dim1_1,12,30,,,,2,0,2,0,,,,,,,,,0,0,0,0,0,11,11,11,0,0,0,0,,,,,,,,,,,,,,,,,,,,,,,,,stimuli/alien_stimuli/61.png,,,,,,,,,,,,,,,,,,,,,,,,,,,,,stimuli/alien_stimuli/65.png,65,9,13,,,,,,,30,,,,,,,,481.5542898999993,481.5542898999993,481.5542898999993,481.5542898999993,481.5542898999993,return,2.122005800018087,3,0,0,1,0.24,0,return,2.0384209000039846,-28,-2,0.24,0,480.00029300001916,481.5542898999993,0.56,-0.24,0.32,0.0,-0.07999999999999999,0.56,0.56,0.56,-0.24,478.8874208999332,478.8874208999332,478.8874208999332,478.8874208999332,478.8874208999332,478.8874208999332,478.8874208999332,478.8874208999332,478.8826118799625,1.2031038000714034,return,1.086469699977897,,,,,,,,,,,,,,,,,,,,,,,,,,,,,,,,,QRDHCC,train_y,blue_star,top_right,2025-06-07_12h24.55.348,HideSeek_v1,2022.2.5,59.96742568369011,
,9,8,9,7,0,-1,62,,train_dim1_1,13,30,,,,2,0,2,0,,,,,,,,,0,0,0,0,0,12,12,12,0,0,0,0,,,,,,,,,,,,,,,,,,,,,,,,,stimuli/alien_stimuli/62.png,,,,,,,,,,,,,,,,,,,,,,,,,,,,,stimuli/alien_stimuli/61.png,61,5,14,,,,,,,30,,,,,,,,487.9087336999364,487.9087336999364,487.9087336999364,487.9087336999364,487.9087336999364,down,1.1565253000007942,3,0,0,99,0.56,0.15999999999999998,down,1.0804948000004515,,,,,486.35572370002046,487.9087336999364,0.24,0,0.0,0.0,0.0,0.24,0.24,0.24,0,485.24515109998174,485.24515109998174,485.24515109998174,485.24515109998174,485.24515109998174,485.24515109998174,485.24515109998174,485.24515109998174,485.2377436599345,1.2198430999414995,return,1.0826925999717787,,,,,,,,,,,,,,,,,,,,,,,,,,,,,,,,,QRDHCC,train_y,blue_star,top_right,2025-06-07_12h24.55.348,HideSeek_v1,2022.2.5,59.96742568369011,
,9,8,9,7,0,-1,62,,train_dim1_1,13,30,,,,2,0,2,0,,,,,,,,,0,0,0,0,0,12,12,12,1,0,1,0,,,,,,,,,,,,,,,,,,,,,,,,,,,,,,,,,,,,,,,,,,,,,,,,,,,,,,,,,,,,,,,,30,,,,,,,,489.0812513999408,489.0812513999408,489.0812513999408,489.0812513999408,489.0812513999408,return,0.4760608000215143,4,0,0,1,0.56,0.15999999999999998,return,0.3870672000339255,-29,-2,0.56,0.15999999999999998,,,,,,,,,,,,,,,,,,,,,,,,,,,,,,,,,,,,,,,,,,,,,,,,,,,,,,,,QRDHCC,train_y,blue_star,top_right,2025-06-07_12h24.55.348,HideSeek_v1,2022.2.5,59.96742568369011,
,7,7,7,2,0,-5,66,,train_dim1_1,14,30,,,,2,0,2,0,,,,,,,,,0,0,0,0,0,13,13,13,0,0,0,0,,,,,,,,,,,,,,,,,,,,,,,,,stimuli/alien_stimuli/66.png,,,,,,,,,,,,,,,,,,,,,,,,,,,,,stimuli/alien_stimuli/62.png,62,9,15,,,,,,,30,,,,,,,,493.3444339999696,493.3444339999696,493.3444339999696,493.3444339999696,493.3444339999696,down,0.673169199959375,4,0,0,99,0.4,0.08,down,0.5893067000433803,,,,,491.79376109992154,493.3444339999696,0.56,0.16,0.08,0.0,0.2,0.56,0.56,0.56,0.16,491.09950489993207,491.09950489993207,491.09950489993207,491.09950489993207,491.09950489993207,491.09950489993207,491.09950489993207,491.09950489993207,491.09276347991545,0.7861963999457657,return,0.6729814999271184,,,,,,,,,,,,,,,,,,,,,,,,,,,,,,,,,QRDHCC,train_y,blue_star,top_right,2025-06-07_12h24.55.348,HideSeek_v1,2022.2.5,59.96742568369011,
,7,7,7,2,0,-5,66,,train_dim1_1,14,30,,,,2,0,2,0,,,,,,,,,0,0,0,0,0,13,13,13,1,0,1,0,,,,,,,,,,,,,,,,,,,,,,,,,,,,,,,,,,,,,,,,,,,,,,,,,,,,,,,,,,,,,,,,30,,,,,,,,494.02577569999266,494.02577569999266,494.02577569999266,494.02577569999266,494.02577569999266,down,0.8103196999290958,4,0,0,99,0.4,0.0,down,0.7267365000443533,,,,,,,,,,,,,,,,,,,,,,,,,,,,,,,,,,,,,,,,,,,,,,,,,,,,,,,,,,,,QRDHCC,train_y,blue_star,top_right,2025-06-07_12h24.55.348,HideSeek_v1,2022.2.5,59.96742568369011,
,7,7,7,2,0,-5,66,,train_dim1_1,14,30,,,,2,0,2,0,,,,,,,,,0,0,0,0,0,13,13,13,2,0,2,0,,,,,,,,,,,,,,,,,,,,,,,,,,,,,,,,,,,,,,,,,,,,,,,,,,,,,,,,,,,,,,,,30,,,,,,,,494.845193099929,494.845193099929,494.845193099929,494.845193099929,494.845193099929,down,0.40991230006329715,4,0,0,99,0.4,-0.08,down,0.334629200049676,,,,,,,,,,,,,,,,,,,,,,,,,,,,,,,,,,,,,,,,,,,,,,,,,,,,,,,,,,,,QRDHCC,train_y,blue_star,top_right,2025-06-07_12h24.55.348,HideSeek_v1,2022.2.5,59.96742568369011,
,7,7,7,2,0,-5,66,,train_dim1_1,14,30,,,,2,0,2,0,,,,,,,,,0,0,0,0,0,13,13,13,3,0,3,0,,,,,,,,,,,,,,,,,,,,,,,,,,,,,,,,,,,,,,,,,,,,,,,,,,,,,,,,,,,,,,,,30,,,,,,,,495.26045810000505,495.26045810000505,495.26045810000505,495.26045810000505,495.26045810000505,down,0.3603401000145823,4,0,0,99,0.4,-0.16,down,0.28010460000950843,,,,,,,,,,,,,,,,,,,,,,,,,,,,,,,,,,,,,,,,,,,,,,,,,,,,,,,,,,,,QRDHCC,train_y,blue_star,top_right,2025-06-07_12h24.55.348,HideSeek_v1,2022.2.5,59.96742568369011,
,7,7,7,2,0,-5,66,,train_dim1_1,14,30,,,,2,0,2,0,,,,,,,,,0,0,0,0,0,13,13,13,4,0,4,0,,,,,,,,,,,,,,,,,,,,,,,,,,,,,,,,,,,,,,,,,,,,,,,,,,,,,,,,,,,,,,,,30,,,,,,,,495.62610310001764,495.62610310001764,495.62610310001764,495.62610310001764,495.62610310001764,return,0.39333029999397695,4,1,0,0,0.4,-0.16,return,0.30788959993515164,-33,-2,0.4,-0.16,,,,,,,,,,,,,,,,,,,,,,,,,,,,,,,,,,,,,,,,,,,,,,,,,,,,,,,,QRDHCC,train_y,blue_star,top_right,2025-06-07_12h24.55.348,HideSeek_v1,2022.2.5,59.96742568369011,
,6,9,6,6,0,-3,64,,train_dim1_1,15,30,,,,2,0,2,0,,,,,,,,,0,0,0,0,0,14,14,14,0,0,0,0,,,,,,,,,,,,,,,,,,,,,,,,,stimuli/alien_stimuli/64.png,,,,,,,,,,,,,,,,,,,,,,,,,,,,,stimuli/alien_stimuli/66.png,66,7,16,,,,,,,30,,,,,,,,499.9011466000229,499.9011466000229,499.9011466000229,499.9011466000229,499.9011466000229,down,1.806518799974583,4,1,0,99,0.32,0.24,down,1.734046999947168,,,,,498.3489081999287,499.9011466000229,0.4,-0.24,0.4,0.0,-0.039999999999999994,0.4,0.4,0.4,-0.24,497.5698136999272,497.5698136999272,497.5698136999272,497.5698136999272,497.5698136999272,497.5698136999272,497.5698136999272,497.5698136999272,497.5644169799052,0.8699431999120861,return,0.7470035000005737,,,,,,,,,,,,,,,,,,,,,,,,,,,,,,,,,QRDHCC,train_y,blue_star,top_right,2025-06-07_12h24.55.348,HideSeek_v1,2022.2.5,59.96742568369011,
,6,9,6,6,0,-3,64,,train_dim1_1,15,30,,,,2,0,2,0,,,,,,,,,0,0,0,0,0,14,14,14,1,0,1,0,,,,,,,,,,,,,,,,,,,,,,,,,,,,,,,,,,,,,,,,,,,,,,,,,,,,,,,,,,,,,,,,30,,,,,,,,501.71435849997215,501.71435849997215,501.71435849997215,501.71435849997215,501.71435849997215,down,0.3434359000530094,4,1,0,99,0.32,0.15999999999999998,down,0.2666022999910638,,,,,,,,,,,,,,,,,,,,,,,,,,,,,,,,,,,,,,,,,,,,,,,,,,,,,,,,,,,,QRDHCC,train_y,blue_star,top_right,2025-06-07_12h24.55.348,HideSeek_v1,2022.2.5,59.96742568369011,
,6,9,6,6,0,-3,64,,train_dim1_1,15,30,,,,2,0,2,0,,,,,,,,,0,0,0,0,0,14,14,14,2,0,2,0,,,,,,,,,,,,,,,,,,,,,,,,,,,,,,,,,,,,,,,,,,,,,,,,,,,,,,,,,,,,,,,,30,,,,,,,,502.06500719999894,502.06500719999894,502.06500719999894,502.06500719999894,502.06500719999894,return,0.3596543000312522,4,1,0,0,0.32,0.15999999999999998,return,0.28397970006335527,-35,-2,0.32,0.15999999999999998,,,,,,,,,,,,,,,,,,,,,,,,,,,,,,,,,,,,,,,,,,,,,,,,,,,,,,,,QRDHCC,train_y,blue_star,top_right,2025-06-07_12h24.55.348,HideSeek_v1,2022.2.5,59.96742568369011,
,9,5,9,1,0,-4,65,,train_dim1_1,16,30,,,,2,0,2,0,,,,,,,,,0,0,0,0,0,15,15,15,0,0,0,0,,,,,,,,,,,,,,,,,,,,,,,,,stimuli/alien_stimuli/65.png,,,,,,,,,,,,,,,,,,,,,,,,,,,,,stimuli/alien_stimuli/64.png,64,6,17,,,,,,,30,,,,,,,,506.2100707999198,506.2100707999198,506.2100707999198,506.2100707999198,506.2100707999198,down,0.7858284999383613,4,1,0,99,0.56,-0.08,down,0.7051103999838233,,,,,504.65445559995715,506.2100707999198,0.32,0.08,0.24,0.0,0.2,0.32,0.32,0.32,0.08,503.97625599999446,503.97625599999446,503.97625599999446,503.97625599999446,503.97625599999446,503.97625599999446,503.97625599999446,503.97625599999446,503.9704742799513,0.7691020999336615,return,0.6542344000190496,,,,,,,,,,,,,,,,,,,,,,,,,,,,,,,,,QRDHCC,train_y,blue_star,top_right,2025-06-07_12h24.55.348,HideSeek_v1,2022.2.5,59.96742568369011,
,9,5,9,1,0,-4,65,,train_dim1_1,16,30,,,,2,0,2,0,,,,,,,,,0,0,0,0,0,15,15,15,1,0,1,0,,,,,,,,,,,,,,,,,,,,,,,,,,,,,,,,,,,,,,,,,,,,,,,,,,,,,,,,,,,,,,,,30,,,,,,,,507.0041217999533,507.0041217999533,507.0041217999533,507.0041217999533,507.0041217999533,down,0.325293300091289,4,1,0,99,0.56,-0.16,down,0.24159099999815226,,,,,,,,,,,,,,,,,,,,,,,,,,,,,,,,,,,,,,,,,,,,,,,,,,,,,,,,,,,,QRDHCC,train_y,blue_star,top_right,2025-06-07_12h24.55.348,HideSeek_v1,2022.2.5,59.96742568369011,
,9,5,9,1,0,-4,65,,train_dim1_1,16,30,,,,2,0,2,0,,,,,,,,,0,0,0,0,0,15,15,15,2,0,2,0,,,,,,,,,,,,,,,,,,,,,,,,,,,,,,,,,,,,,,,,,,,,,,,,,,,,,,,,,,,,,,,,30,,,,,,,,507.3362046999391,507.3362046999391,507.3362046999391,507.3362046999391,507.3362046999391,down,0.34344520000740886,4,1,0,99,0.56,-0.24,down,0.26189270010218024,,,,,,,,,,,,,,,,,,,,,,,,,,,,,,,,,,,,,,,,,,,,,,,,,,,,,,,,,,,,QRDHCC,train_y,blue_star,top_right,2025-06-07_12h24.55.348,HideSeek_v1,2022.2.5,59.96742568369011,
,9,5,9,1,0,-4,65,,train_dim1_1,16,30,,,,2,0,2,0,,,,,,,,,0,0,0,0,0,15,15,15,3,0,3,0,,,,,,,,,,,,,,,,,,,,,,,,,,,,,,,,,,,,,,,,,,,,,,,,,,,,,,,,,,,,,,,,30,,,,,,,,507.68583189998753,507.68583189998753,507.68583189998753,507.68583189998753,507.68583189998753,down,0.4602067000232637,4,1,0,99,0.56,-0.32,down,0.3743747000116855,,,,,,,,,,,,,,,,,,,,,,,,,,,,,,,,,,,,,,,,,,,,,,,,,,,,,,,,,,,,QRDHCC,train_y,blue_star,top_right,2025-06-07_12h24.55.348,HideSeek_v1,2022.2.5,59.96742568369011,
,9,5,9,1,0,-4,65,,train_dim1_1,16,30,,,,2,0,2,0,,,,,,,,,0,0,0,0,0,15,15,15,4,0,4,0,,,,,,,,,,,,,,,,,,,,,,,,,,,,,,,,,,,,,,,,,,,,,,,,,,,,,,,,,,,,,,,,30,,,,,,,,508.1532303999411,508.1532303999411,508.1532303999411,508.1532303999411,508.1532303999411,return,0.30991019995417446,5,0,0,1,0.56,-0.32,return,0.23702500003855675,-39,-2,0.56,-0.32,,,,,,,,,,,,,,,,,,,,,,,,,,,,,,,,,,,,,,,,,,,,,,,,,,,,,,,,QRDHCC,train_y,blue_star,top_right,2025-06-07_12h24.55.348,HideSeek_v1,2022.2.5,59.96742568369011,
,8,8,8,5,0,-3,64,,train_dim1_1,17,30,,,,2,0,2,0,,,,,,,,,0,0,0,0,0,16,16,16,0,0,0,0,,,,,,,,,,,,,,,,,,,,,,,,,stimuli/alien_stimuli/64.png,,,,,,,,,,,,,,,,,,,,,,,,,,,,,stimuli/alien_stimuli/65.png,65,9,18,,,,,,,30,,,,,,,,512.1788131999783,512.1788131999783,512.1788131999783,512.1788131999783,512.1788131999783,down,2.2559318999992684,5,0,0,99,0.48,0.15999999999999998,down,2.178713300032541,,,,,510.6258038999513,512.1788131999783,0.56,-0.32,0.32,0.0,-0.16,0.56,0.56,0.56,-0.32,510.01803309994284,510.01803309994284,510.01803309994284,510.01803309994284,510.01803309994284,510.01803309994284,510.01803309994284,510.01803309994284,510.0088526799809,0.7025129999965429,return,0.5809042000910267,,,,,,,,,,,,,,,,,,,,,,,,,,,,,,,,,QRDHCC,train_y,blue_star,top_right,2025-06-07_12h24.55.348,HideSeek_v1,2022.2.5,59.96742568369011,
,8,8,8,5,0,-3,64,,train_dim1_1,17,30,,,,2,0,2,0,,,,,,,,,0,0,0,0,0,16,16,16,1,0,1,0,,,,,,,,,,,,,,,,,,,,,,,,,,,,,,,,,,,,,,,,,,,,,,,,,,,,,,,,,,,,,,,,30,,,,,,,,514.4422312999377,514.4422312999377,514.4422312999377,514.4422312999377,514.4422312999377,down,0.4760069999611005,5,0,0,99,0.48,0.07999999999999997,down,0.40154730004724115,,,,,,,,,,,,,,,,,,,,,,,,,,,,,,,,,,,,,,,,,,,,,,,,,,,,,,,,,,,,QRDHCC,train_y,blue_star,top_right,2025-06-07_12h24.55.348,HideSeek_v1,2022.2.5,59.96742568369011,
,8,8,8,5,0,-3,64,,train_dim1_1,17,30,,,,2,0,2,0,,,,,,,,,0,0,0,0,0,16,16,16,2,0,2,0,,,,,,,,,,,,,,,,,,,,,,,,,,,,,,,,,,,,,,,,,,,,,,,,,,,,,,,,,,,,,,,,30,,,,,,,,514.9252267000265,514.9252267000265,514.9252267000265,514.9252267000265,514.9252267000265,down,0.5104673000751063,5,0,0,99,0.48,-2.7755575615628914e-17,down,0.43193099997006357,,,,,,,,,,,,,,,,,,,,,,,,,,,,,,,,,,,,,,,,,,,,,,,,,,,,,,,,,,,,QRDHCC,train_y,blue_star,top_right,2025-06-07_12h24.55.348,HideSeek_v1,2022.2.5,59.96742568369011,
,8,8,8,5,0,-3,64,,train_dim1_1,17,30,,,,2,0,2,0,,,,,,,,,0,0,0,0,0,16,16,16,3,0,3,0,,,,,,,,,,,,,,,,,,,,,,,,,,,,,,,,,,,,,,,,,,,,,,,,,,,,,,,,,,,,,,,,30,,,,,,,,515.4434992999304,515.4434992999304,515.4434992999304,515.4434992999304,515.4434992999304,return,0.30975080002099276,6,0,0,1,0.48,-2.7755575615628914e-17,return,0.22572679992299527,-42,-2,0.48,-2.7755575615628914e-17,,,,,,,,,,,,,,,,,,,,,,,,,,,,,,,,,,,,,,,,,,,,,,,,,,,,,,,,QRDHCC,train_y,blue_star,top_right,2025-06-07_12h24.55.348,HideSeek_v1,2022.2.5,59.96742568369011,
,7,6,7,6,0,0,61,,train_dim1_1,18,30,,,,2,0,2,0,,,,,,,,,0,0,0,0,0,17,17,17,0,0,0,0,,,,,,,,,,,,,,,,,,,,,,,,,stimuli/alien_stimuli/61.png,,,,,,,,,,,,,,,,,,,,,,,,,,,,,stimuli/alien_stimuli/64.png,64,8,19,,,,,,,30,,,,,,,,519.4690381999826,519.4690381999826,519.4690381999826,519.4690381999826,519.4690381999826,return,1.688508199993521,7,0,0,1,0.4,0.08,return,1.6148433999624103,-42,-2,0.4,0.08,517.9152159999358,519.4690381999826,0.48,0,0.24,0.0,0.12,0.48,0.48,0.48,0,517.3159558000043,517.3159558000043,517.3159558000043,517.3159558000043,517.3159558000043,517.3159558000043,517.3159558000043,517.3159558000043,517.3147460600012,0.7027957000536844,return,0.5826889999443665,,,,,,,,,,,,,,,,,,,,,,,,,,,,,,,,,QRDHCC,train_y,blue_star,top_right,2025-06-07_12h24.55.348,HideSeek_v1,2022.2.5,59.96742568369011,
,5,9,5,8,0,-1,62,,train_dim1_1,19,30,,,,2,0,2,0,,,,,,,,,0,0,0,0,0,18,18,18,0,0,0,0,,,,,,,,,,,,,,,,,,,,,,,,,stimuli/alien_stimuli/62.png,,,,,,,,,,,,,,,,,,,,,,,,,,,,,stimuli/alien_stimuli/61.png,61,7,20,,,,,,,30,,,,,,,,524.8226963999914,524.8226963999914,524.8226963999914,524.8226963999914,524.8226963999914,down,1.0890246001072228,7,0,0,99,0.24,0.24,down,1.0018143999623135,,,,,523.2698574999813,524.8226963999914,0.4,0.08,0.0,0.0,0.08,0.4,0.4,0.4,0.08,522.7089162999764,522.7089162999764,522.7089162999764,522.7089162999764,522.7089162999764,522.7089162999764,522.7089162999764,522.7089162999764,522.7024621799355,0.6524345999350771,return,0.5323132999474183,,,,,,,,,,,,,,,,,,,,,,,,,,,,,,,,,QRDHCC,train_y,blue_star,top_right,2025-06-07_12h24.55.348,HideSeek_v1,2022.2.5,59.96742568369011,
,5,9,5,8,0,-1,62,,train_dim1_1,19,30,,,,2,0,2,0,,,,,,,,,0,0,0,0,0,18,18,18,1,0,1,0,,,,,,,,,,,,,,,,,,,,,,,,,,,,,,,,,,,,,,,,,,,,,,,,,,,,,,,,,,,,,,,,30,,,,,,,,525.9187343999511,525.9187343999511,525.9187343999511,525.9187343999511,525.9187343999511,return,0.32643160002771765,8,0,0,1,0.24,0.24,return,0.24101870006415993,-43,-2,0.24,0.24,,,,,,,,,,,,,,,,,,,,,,,,,,,,,,,,,,,,,,,,,,,,,,,,,,,,,,,,QRDHCC,train_y,blue_star,top_right,2025-06-07_12h24.55.348,HideSeek_v1,2022.2.5,59.96742568369011,
,7,5,7,0,0,-5,66,,train_dim1_1,20,30,,,,2,0,2,0,,,,,,,,,0,0,0,0,0,19,19,19,0,0,0,0,,,,,,,,,,,,,,,,,,,,,,,,,stimuli/alien_stimuli/66.png,,,,,,,,,,,,,,,,,,,,,,,,,,,,,stimuli/alien_stimuli/62.png,62,5,21,,,,,,,30,,,,,,,,529.7942443999927,529.7942443999927,529.7942443999927,529.7942443999927,529.7942443999927,down,0.9040559000568464,8,0,0,99,0.4,-0.08,down,0.8188784000230953,,,,,528.2405239000218,529.7942443999927,0.24,0.24,0.08,0.0,0.28,0.24,0.24,0.24,0.24,527.7994256999809,527.7994256999809,527.7994256999809,527.7994256999809,527.7994256999809,527.7994256999809,527.7994256999809,527.7994256999809,527.7900407799752,0.5358702000230551,return,0.4221525000175461,,,,,,,,,,,,,,,,,,,,,,,,,,,,,,,,,QRDHCC,train_y,blue_star,top_right,2025-06-07_12h24.55.348,HideSeek_v1,2022.2.5,59.96742568369011,
,7,5,7,0,0,-5,66,,train_dim1_1,20,30,,,,2,0,2,0,,,,,,,,,0,0,0,0,0,19,19,19,1,0,1,0,,,,,,,,,,,,,,,,,,,,,,,,,,,,,,,,,,,,,,,,,,,,,,,,,,,,,,,,,,,,,,,,30,,,,,,,,530.7057918999344,530.7057918999344,530.7057918999344,530.7057918999344,530.7057918999344,down,0.3101671999320388,8,0,0,99,0.4,-0.16,down,0.2256261999718845,,,,,,,,,,,,,,,,,,,,,,,,,,,,,,,,,,,,,,,,,,,,,,,,,,,,,,,,,,,,QRDHCC,train_y,blue_star,top_right,2025-06-07_12h24.55.348,HideSeek_v1,2022.2.5,59.96742568369011,
,7,5,7,0,0,-5,66,,train_dim1_1,20,30,,,,2,0,2,0,,,,,,,,,0,0,0,0,0,19,19,19,2,0,2,0,,,,,,,,,,,,,,,,,,,,,,,,,,,,,,,,,,,,,,,,,,,,,,,,,,,,,,,,,,,,,,,,30,,,,,,,,531.0231161999982,531.0231161999982,531.0231161999982,531.0231161999982,531.0231161999982,down,0.3094711999874562,8,0,0,99,0.4,-0.24,down,0.23165930004324764,,,,,,,,,,,,,,,,,,,,,,,,,,,,,,,,,,,,,,,,,,,,,,,,,,,,,,,,,,,,QRDHCC,train_y,blue_star,top_right,2025-06-07_12h24.55.348,HideSeek_v1,2022.2.5,59.96742568369011,
,7,5,7,0,0,-5,66,,train_dim1_1,20,30,,,,2,0,2,0,,,,,,,,,0,0,0,0,0,19,19,19,3,0,3,0,,,,,,,,,,,,,,,,,,,,,,,,,,,,,,,,,,,,,,,,,,,,,,,,,,,,,,,,,,,,,,,,30,,,,,,,,531.3394437999232,531.3394437999232,531.3394437999232,531.3394437999232,531.3394437999232,down,0.30958940007258207,8,0,0,99,0.4,-0.32,down,0.23517220001667738,,,,,,,,,,,,,,,,,,,,,,,,,,,,,,,,,,,,,,,,,,,,,,,,,,,,,,,,,,,,QRDHCC,train_y,blue_star,top_right,2025-06-07_12h24.55.348,HideSeek_v1,2022.2.5,59.96742568369011,
,7,5,7,0,0,-5,66,,train_dim1_1,20,30,,,,2,0,2,0,,,,,,,,,0,0,0,0,0,19,19,19,4,0,4,0,,,,,,,,,,,,,,,,,,,,,,,,,,,,,,,,,,,,,,,,,,,,,,,,,,,,,,,,,,,,,,,,30,,,,,,,,531.656739500002,531.656739500002,531.656739500002,531.656739500002,531.656739500002,down,0.30966929998248816,8,0,0,99,0.4,-0.4,down,0.2281084000132978,,,,,,,,,,,,,,,,,,,,,,,,,,,,,,,,,,,,,,,,,,,,,,,,,,,,,,,,,,,,QRDHCC,train_y,blue_star,top_right,2025-06-07_12h24.55.348,HideSeek_v1,2022.2.5,59.96742568369011,
,7,5,7,0,0,-5,66,,train_dim1_1,20,30,,,,2,0,2,0,,,,,,,,,0,0,0,0,0,19,19,19,5,0,5,0,,,,,,,,,,,,,,,,,,,,,,,,,,,,,,,,,,,,,,,,,,,,,,,,,,,,,,,,,,,,,,,,30,,,,,,,,531.9745788999135,531.9745788999135,531.9745788999135,531.9745788999135,531.9745788999135,return,0.27636949997395277,9,0,0,1,0.4,-0.4,return,0.19735019991640002,-48,-2,0.4,-0.4,,,,,,,,,,,,,,,,,,,,,,,,,,,,,,,,,,,,,,,,,,,,,,,,,,,,,,,,QRDHCC,train_y,blue_star,top_right,2025-06-07_12h24.55.348,HideSeek_v1,2022.2.5,59.96742568369011,
,7,9,7,5,0,-4,65,,train_dim1_1,21,30,,,,2,0,2,0,,,,,,,,,0,0,0,0,0,20,20,20,0,0,0,0,,,,,,,,,,,,,,,,,,,,,,,,,stimuli/alien_stimuli/65.png,,,,,,,,,,,,,,,,,,,,,,,,,,,,,stimuli/alien_stimuli/66.png,66,7,22,,,,,,,30,,,,,,,,535.9888531999895,535.9888531999895,535.9888531999895,535.9888531999895,535.9888531999895,down,1.3406492999056354,9,0,0,99,0.4,0.24,down,1.245219000033103,,,,,534.428843599977,535.9888531999895,0.4,-0.4,0.4,0.0,-0.2,0.4,0.4,0.4,-0.4,533.8011124000186,533.8011124000186,533.8011124000186,533.8011124000186,533.8011124000186,533.8011124000186,533.8011124000186,533.8011124000186,533.7951374799013,0.7194889999227598,return,0.6109039000002667,,,,,,,,,,,,,,,,,,,,,,,,,,,,,,,,,QRDHCC,train_y,blue_star,top_right,2025-06-07_12h24.55.348,HideSeek_v1,2022.2.5,59.96742568369011,
,7,9,7,5,0,-4,65,,train_dim1_1,21,30,,,,2,0,2,0,,,,,,,,,0,0,0,0,0,20,20,20,1,0,1,0,,,,,,,,,,,,,,,,,,,,,,,,,,,,,,,,,,,,,,,,,,,,,,,,,,,,,,,,,,,,,,,,30,,,,,,,,537.328327300027,537.328327300027,537.328327300027,537.328327300027,537.328327300027,down,0.3264165000291541,9,0,0,99,0.4,0.15999999999999998,down,0.24816780001856387,,,,,,,,,,,,,,,,,,,,,,,,,,,,,,,,,,,,,,,,,,,,,,,,,,,,,,,,,,,,QRDHCC,train_y,blue_star,top_right,2025-06-07_12h24.55.348,HideSeek_v1,2022.2.5,59.96742568369011,
,7,9,7,5,0,-4,65,,train_dim1_1,21,30,,,,2,0,2,0,,,,,,,,,0,0,0,0,0,20,20,20,2,0,2,0,,,,,,,,,,,,,,,,,,,,,,,,,,,,,,,,,,,,,,,,,,,,,,,,,,,,,,,,,,,,,,,,30,,,,,,,,537.6630262000253,537.6630262000253,537.6630262000253,537.6630262000253,537.6630262000253,down,0.3091671000001952,9,0,0,99,0.4,0.07999999999999997,down,0.22741210006643087,,,,,,,,,,,,,,,,,,,,,,,,,,,,,,,,,,,,,,,,,,,,,,,,,,,,,,,,,,,,QRDHCC,train_y,blue_star,top_right,2025-06-07_12h24.55.348,HideSeek_v1,2022.2.5,59.96742568369011,
,7,9,7,5,0,-4,65,,train_dim1_1,21,30,,,,2,0,2,0,,,,,,,,,0,0,0,0,0,20,20,20,3,0,3,0,,,,,,,,,,,,,,,,,,,,,,,,,,,,,,,,,,,,,,,,,,,,,,,,,,,,,,,,,,,,,,,,30,,,,,,,,537.9774815000128,537.9774815000128,537.9774815000128,537.9774815000128,537.9774815000128,down,0.32653999992180616,9,0,0,99,0.4,-2.7755575615628914e-17,down,0.2396930999821052,,,,,,,,,,,,,,,,,,,,,,,,,,,,,,,,,,,,,,,,,,,,,,,,,,,,,,,,,,,,QRDHCC,train_y,blue_star,top_right,2025-06-07_12h24.55.348,HideSeek_v1,2022.2.5,59.96742568369011,
,7,9,7,5,0,-4,65,,train_dim1_1,21,30,,,,2,0,2,0,,,,,,,,,0,0,0,0,0,20,20,20,4,0,4,0,,,,,,,,,,,,,,,,,,,,,,,,,,,,,,,,,,,,,,,,,,,,,,,,,,,,,,,,,,,,,,,,30,,,,,,,,538.315826099948,538.315826099948,538.315826099948,538.315826099948,538.315826099948,return,0.36035830003675073,10,0,0,1,0.4,-2.7755575615628914e-17,return,0.27384169993456453,-52,-2,0.4,-2.7755575615628914e-17,,,,,,,,,,,,,,,,,,,,,,,,,,,,,,,,,,,,,,,,,,,,,,,,,,,,,,,,QRDHCC,train_y,blue_star,top_right,2025-06-07_12h24.55.348,HideSeek_v1,2022.2.5,59.96742568369011,
,5,7,5,4,0,-3,64,,train_dim1_1,22,30,,,,2,0,2,0,,,,,,,,,0,0,0,0,0,21,21,21,0,0,0,0,,,,,,,,,,,,,,,,,,,,,,,,,stimuli/alien_stimuli/64.png,,,,,,,,,,,,,,,,,,,,,,,,,,,,,stimuli/alien_stimuli/65.png,65,7,23,,,,,,,30,,,,,,,,542.2207259999122,542.2207259999122,542.2207259999122,542.2207259999122,542.2207259999122,down,2.27287540002726,10,0,0,99,0.24,0.08,down,2.1989686000160873,,,,,540.6673437999561,542.2207259999122,0.4,0,0.32,0.0,0.16,0.4,0.4,0.4,0,540.2236682999646,540.2236682999646,540.2236682999646,540.2236682999646,540.2236682999646,540.2236682999646,540.2236682999646,540.2236682999646,540.2169022799935,0.5362135000759736,return,0.4223874999443069,,,,,,,,,,,,,,,,,,,,,,,,,,,,,,,,,QRDHCC,train_y,blue_star,top_right,2025-06-07_12h24.55.348,HideSeek_v1,2022.2.5,59.96742568369011,
,5,7,5,4,0,-3,64,,train_dim1_1,22,30,,,,2,0,2,0,,,,,,,,,0,0,0,0,0,21,21,21,1,0,1,0,,,,,,,,,,,,,,,,,,,,,,,,,,,,,,,,,,,,,,,,,,,,,,,,,,,,,,,,,,,,,,,,30,,,,,,,,544.500903600012,544.500903600012,544.500903600012,544.500903600012,544.500903600012,down,0.29317770001944155,10,0,0,99,0.24,0.0,down,0.21199709991924465,,,,,,,,,,,,,,,,,,,,,,,,,,,,,,,,,,,,,,,,,,,,,,,,,,,,,,,,,,,,QRDHCC,train_y,blue_star,top_right,2025-06-07_12h24.55.348,HideSeek_v1,2022.2.5,59.96742568369011,
,5,7,5,4,0,-3,64,,train_dim1_1,22,30,,,,2,0,2,0,,,,,,,,,0,0,0,0,0,21,21,21,2,0,2,0,,,,,,,,,,,,,,,,,,,,,,,,,,,,,,,,,,,,,,,,,,,,,,,,,,,,,,,,,,,,,,,,30,,,,,,,,544.8010634999955,544.8010634999955,544.8010634999955,544.8010634999955,544.8010634999955,down,0.6767312999581918,10,0,0,99,0.24,-0.08,down,0.6013000999810174,,,,,,,,,,,,,,,,,,,,,,,,,,,,,,,,,,,,,,,,,,,,,,,,,,,,,,,,,,,,QRDHCC,train_y,blue_star,top_right,2025-06-07_12h24.55.348,HideSeek_v1,2022.2.5,59.96742568369011,
,5,7,5,4,0,-3,64,,train_dim1_1,22,30,,,,2,0,2,0,,,,,,,,,0,0,0,0,0,21,21,21,3,0,3,0,,,,,,,,,,,,,,,,,,,,,,,,,,,,,,,,,,,,,,,,,,,,,,,,,,,,,,,,,,,,,,,,30,,,,,,,,545.4876591999782,545.4876591999782,545.4876591999782,545.4876591999782,545.4876591999782,up,1.0934949000366032,10,0,0,99,0.24,0.0,up,1.0031960000051185,,,,,,,,,,,,,,,,,,,,,,,,,,,,,,,,,,,,,,,,,,,,,,,,,,,,,,,,,,,,QRDHCC,train_y,blue_star,top_right,2025-06-07_12h24.55.348,HideSeek_v1,2022.2.5,59.96742568369011,
,5,7,5,4,0,-3,64,,train_dim1_1,22,30,,,,2,0,2,0,,,,,,,,,0,0,0,0,0,21,21,21,4,0,4,0,,,,,,,,,,,,,,,,,,,,,,,,,,,,,,,,,,,,,,,,,,,,,,,,,,,,,,,,,,,,,,,,30,,,,,,,,546.5965358000249,546.5965358000249,546.5965358000249,546.5965358000249,546.5965358000249,return,0.2926803999580443,10,1,0,0,0.24,0.0,return,0.20889420004095882,-54,-2,0.24,0.0,,,,,,,,,,,,,,,,,,,,,,,,,,,,,,,,,,,,,,,,,,,,,,,,,,,,,,,,QRDHCC,train_y,blue_star,top_right,2025-06-07_12h24.55.348,HideSeek_v1,2022.2.5,59.96742568369011,
,5,8,5,8,0,0,61,,train_dim1_1,23,30,,,,2,0,2,0,,,,,,,,,0,0,0,0,0,22,22,22,0,0,0,0,,,,,,,,,,,,,,,,,,,,,,,,,stimuli/alien_stimuli/61.png,,,,,,,,,,,,,,,,,,,,,,,,,,,,,stimuli/alien_stimuli/64.png,64,5,24,,,,,,,30,,,,,,,,550.62982069992,550.62982069992,550.62982069992,550.62982069992,550.62982069992,return,3.1878913999535143,11,0,0,1,0.24,0.24,return,3.0994552000192925,-54,-2,0.24,0.24,549.0741174999857,550.62982069992,0.24,-0.08,0.24,0.0,0.04,0.24,0.24,0.24,-0.08,548.4298693999881,548.4298693999881,548.4298693999881,548.4298693999881,548.4298693999881,548.4298693999881,548.4298693999881,548.4298693999881,548.423444779939,0.7361351000145078,return,0.6130865999730304,,,,,,,,,,,,,,,,,,,,,,,,,,,,,,,,,QRDHCC,train_y,blue_star,top_right,2025-06-07_12h24.55.348,HideSeek_v1,2022.2.5,59.96742568369011,
,8,7,8,2,0,-5,66,,train_dim1_1,24,30,,,,2,0,2,0,,,,,,,,,0,0,0,0,0,23,23,23,0,0,0,0,,,,,,,,,,,,,,,,,,,,,,,,,stimuli/alien_stimuli/66.png,,,,,,,,,,,,,,,,,,,,,,,,,,,,,stimuli/alien_stimuli/61.png,61,5,25,,,,,,,30,,,,,,,,557.8486764999107,557.8486764999107,557.8486764999107,557.8486764999107,557.8486764999107,down,0.9065636999439448,11,0,0,99,0.48,0.08,down,0.8258800999028608,,,,,556.2966449999949,557.8486764999107,0.24,0.24,0.0,0.0,0.24,0.24,0.24,0.24,0.24,555.3692840000149,555.3692840000149,555.3692840000149,555.3692840000149,555.3692840000149,555.3692840000149,555.3692840000149,555.3692840000149,555.3625030799303,1.0205422999570146,return,0.9057272999780253,,,,,,,,,,,,,,,,,,,,,,,,,,,,,,,,,QRDHCC,train_y,blue_star,top_right,2025-06-07_12h24.55.348,HideSeek_v1,2022.2.5,59.96742568369011,
,8,7,8,2,0,-5,66,,train_dim1_1,24,30,,,,2,0,2,0,,,,,,,,,0,0,0,0,0,23,23,23,1,0,1,0,,,,,,,,,,,,,,,,,,,,,,,,,,,,,,,,,,,,,,,,,,,,,,,,,,,,,,,,,,,,,,,,30,,,,,,,,558.7626029999228,558.7626029999228,558.7626029999228,558.7626029999228,558.7626029999228,down,0.2928458999376744,11,0,0,99,0.48,0.0,down,0.20447019999846816,,,,,,,,,,,,,,,,,,,,,,,,,,,,,,,,,,,,,,,,,,,,,,,,,,,,,,,,,,,,QRDHCC,train_y,blue_star,top_right,2025-06-07_12h24.55.348,HideSeek_v1,2022.2.5,59.96742568369011,
,8,7,8,2,0,-5,66,,train_dim1_1,24,30,,,,2,0,2,0,,,,,,,,,0,0,0,0,0,23,23,23,2,0,2,0,,,,,,,,,,,,,,,,,,,,,,,,,,,,,,,,,,,,,,,,,,,,,,,,,,,,,,,,,,,,,,,,30,,,,,,,,559.0626403000206,559.0626403000206,559.0626403000206,559.0626403000206,559.0626403000206,down,0.326628900016658,11,0,0,99,0.48,-0.08,down,0.23992939991876483,,,,,,,,,,,,,,,,,,,,,,,,,,,,,,,,,,,,,,,,,,,,,,,,,,,,,,,,,,,,QRDHCC,train_y,blue_star,top_right,2025-06-07_12h24.55.348,HideSeek_v1,2022.2.5,59.96742568369011,
,8,7,8,2,0,-5,66,,train_dim1_1,24,30,,,,2,0,2,0,,,,,,,,,0,0,0,0,0,23,23,23,3,0,3,0,,,,,,,,,,,,,,,,,,,,,,,,,,,,,,,,,,,,,,,,,,,,,,,,,,,,,,,,,,,,,,,,30,,,,,,,,559.3967219999759,559.3967219999759,559.3967219999759,559.3967219999759,559.3967219999759,down,0.3264472000300884,11,0,0,99,0.48,-0.16,down,0.24812959996052086,,,,,,,,,,,,,,,,,,,,,,,,,,,,,,,,,,,,,,,,,,,,,,,,,,,,,,,,,,,,QRDHCC,train_y,blue_star,top_right,2025-06-07_12h24.55.348,HideSeek_v1,2022.2.5,59.96742568369011,
,8,7,8,2,0,-5,66,,train_dim1_1,24,30,,,,2,0,2,0,,,,,,,,,0,0,0,0,0,23,23,23,4,0,4,0,,,,,,,,,,,,,,,,,,,,,,,,,,,,,,,,,,,,,,,,,,,,,,,,,,,,,,,,,,,,,,,,30,,,,,,,,559.7298001999734,559.7298001999734,559.7298001999734,559.7298001999734,559.7298001999734,down,0.8435728999320418,11,0,0,99,0.48,-0.24,down,0.7679237000411376,,,,,,,,,,,,,,,,,,,,,,,,,,,,,,,,,,,,,,,,,,,,,,,,,,,,,,,,,,,,QRDHCC,train_y,blue_star,top_right,2025-06-07_12h24.55.348,HideSeek_v1,2022.2.5,59.96742568369011,
,8,7,8,2,0,-5,66,,train_dim1_1,24,30,,,,2,0,2,0,,,,,,,,,0,0,0,0,0,23,23,23,5,0,5,0,,,,,,,,,,,,,,,,,,,,,,,,,,,,,,,,,,,,,,,,,,,,,,,,,,,,,,,,,,,,,,,,30,,,,,,,,560.581432399922,560.581432399922,560.581432399922,560.581432399922,560.581432399922,return,0.37665909994393587,12,0,0,1,0.48,-0.24,return,0.289219000027515,-59,-2,0.48,-0.24,,,,,,,,,,,,,,,,,,,,,,,,,,,,,,,,,,,,,,,,,,,,,,,,,,,,,,,,QRDHCC,train_y,blue_star,top_right,2025-06-07_12h24.55.348,HideSeek_v1,2022.2.5,59.96742568369011,
,8,8,8,7,0,-1,62,,train_dim1_1,25,30,,,,2,0,2,0,,,,,,,,,0,0,0,0,0,24,24,24,0,0,0,0,,,,,,,,,,,,,,,,,,,,,,,,,stimuli/alien_stimuli/62.png,,,,,,,,,,,,,,,,,,,,,,,,,,,,,stimuli/alien_stimuli/66.png,66,8,26,,,,,,,30,,,,,,,,565.0904705999419,565.0904705999419,565.0904705999419,565.0904705999419,565.0904705999419,down,1.9215686999959871,12,0,0,99,0.48,0.15999999999999998,down,1.8440258000046015,,,,,563.5363885000115,565.0904705999419,0.48,-0.24,0.4,0.0,-0.039999999999999994,0.48,0.48,0.48,-0.24,562.5134379999945,562.5134379999945,562.5134379999945,562.5134379999945,562.5134379999945,562.5134379999945,562.5134379999945,562.5134379999945,562.5022273799405,1.1195651000598446,return,0.9983218999113888,,,,,,,,,,,,,,,,,,,,,,,,,,,,,,,,,QRDHCC,train_y,blue_star,top_right,2025-06-07_12h24.55.348,HideSeek_v1,2022.2.5,59.96742568369011,
,8,8,8,7,0,-1,62,,train_dim1_1,25,30,,,,2,0,2,0,,,,,,,,,0,0,0,0,0,24,24,24,1,0,1,0,,,,,,,,,,,,,,,,,,,,,,,,,,,,,,,,,,,,,,,,,,,,,,,,,,,,,,,,,,,,,,,,30,,,,,,,,567.0203387999209,567.0203387999209,567.0203387999209,567.0203387999209,567.0203387999209,return,0.4260441999649629,13,0,0,1,0.48,0.15999999999999998,return,0.3414135999046266,-60,-2,0.48,0.15999999999999998,,,,,,,,,,,,,,,,,,,,,,,,,,,,,,,,,,,,,,,,,,,,,,,,,,,,,,,,QRDHCC,train_y,blue_star,top_right,2025-06-07_12h24.55.348,HideSeek_v1,2022.2.5,59.96742568369011,
,9,9,9,6,0,-3,64,,train_dim1_1,26,30,,,,2,0,2,0,,,,,,,,,0,0,0,0,0,25,25,25,0,0,0,0,,,,,,,,,,,,,,,,,,,,,,,,,stimuli/alien_stimuli/64.png,,,,,,,,,,,,,,,,,,,,,,,,,,,,,stimuli/alien_stimuli/62.png,62,8,27,,,,,,,30,,,,,,,,571.2601072000107,571.2601072000107,571.2601072000107,571.2601072000107,571.2601072000107,down,1.9738418000051752,13,0,0,99,0.56,0.24,down,1.9005130000878125,,,,,569.7083169999532,571.2601072000107,0.48,0.16,0.08,0.0,0.2,0.48,0.48,0.48,0.16,568.9969131000107,568.9969131000107,568.9969131000107,568.9969131000107,568.9969131000107,568.9969131000107,568.9969131000107,568.9969131000107,568.9908499799203,0.8026063001016155,return,0.6807000999106094,,,,,,,,,,,,,,,,,,,,,,,,,,,,,,,,,QRDHCC,train_y,blue_star,top_right,2025-06-07_12h24.55.348,HideSeek_v1,2022.2.5,59.96742568369011,
,9,9,9,6,0,-3,64,,train_dim1_1,26,30,,,,2,0,2,0,,,,,,,,,0,0,0,0,0,25,25,25,1,0,1,0,,,,,,,,,,,,,,,,,,,,,,,,,,,,,,,,,,,,,,,,,,,,,,,,,,,,,,,,,,,,,,,,30,,,,,,,,573.2414899999276,573.2414899999276,573.2414899999276,573.2414899999276,573.2414899999276,down,0.4929265999235213,13,0,0,99,0.56,0.15999999999999998,down,0.4163700001081452,,,,,,,,,,,,,,,,,,,,,,,,,,,,,,,,,,,,,,,,,,,,,,,,,,,,,,,,,,,,QRDHCC,train_y,blue_star,top_right,2025-06-07_12h24.55.348,HideSeek_v1,2022.2.5,59.96742568369011,
,9,9,9,6,0,-3,64,,train_dim1_1,26,30,,,,2,0,2,0,,,,,,,,,0,0,0,0,0,25,25,25,2,0,2,0,,,,,,,,,,,,,,,,,,,,,,,,,,,,,,,,,,,,,,,,,,,,,,,,,,,,,,,,,,,,,,,,30,,,,,,,,573.7409772999818,573.7409772999818,573.7409772999818,573.7409772999818,573.7409772999818,return,0.893676699954085,13,1,0,0,0.56,0.15999999999999998,return,0.8209600999252871,-62,-2,0.56,0.15999999999999998,,,,,,,,,,,,,,,,,,,,,,,,,,,,,,,,,,,,,,,,,,,,,,,,,,,,,,,,QRDHCC,train_y,blue_star,top_right,2025-06-07_12h24.55.348,HideSeek_v1,2022.2.5,59.96742568369011,
,8,9,8,4,0,-5,66,,train_dim1_1,27,30,,,,2,0,2,0,,,,,,,,,0,0,0,0,0,26,26,26,0,0,0,0,,,,,,,,,,,,,,,,,,,,,,,,,stimuli/alien_stimuli/66.png,,,,,,,,,,,,,,,,,,,,,,,,,,,,,stimuli/alien_stimuli/64.png,64,9,28,,,,,,,30,,,,,,,,578.5672809999669,578.5672809999669,578.5672809999669,578.5672809999669,578.5672809999669,down,0.8551632999442518,13,1,0,99,0.48,0.24,down,0.7774347999366,,,,,577.01427039993,578.5672809999669,0.56,0.08,0.24,0.0,0.2,0.56,0.56,0.56,0.08,576.2000846000155,576.2000846000155,576.2000846000155,576.2000846000155,576.2000846000155,576.2000846000155,576.2000846000155,576.2000846000155,576.1968854599982,0.9193889999296516,return,0.7875790999969468,,,,,,,,,,,,,,,,,,,,,,,,,,,,,,,,,QRDHCC,train_y,blue_star,top_right,2025-06-07_12h24.55.348,HideSeek_v1,2022.2.5,59.96742568369011,
,8,9,8,4,0,-5,66,,train_dim1_1,27,30,,,,2,0,2,0,,,,,,,,,0,0,0,0,0,26,26,26,1,0,1,0,,,,,,,,,,,,,,,,,,,,,,,,,,,,,,,,,,,,,,,,,,,,,,,,,,,,,,,,,,,,,,,,30,,,,,,,,579.4296701999847,579.4296701999847,579.4296701999847,579.4296701999847,579.4296701999847,down,0.32629280001856387,13,1,0,99,0.48,0.15999999999999998,down,0.2385130999609828,,,,,,,,,,,,,,,,,,,,,,,,,,,,,,,,,,,,,,,,,,,,,,,,,,,,,,,,,,,,QRDHCC,train_y,blue_star,top_right,2025-06-07_12h24.55.348,HideSeek_v1,2022.2.5,59.96742568369011,
,8,9,8,4,0,-5,66,,train_dim1_1,27,30,,,,2,0,2,0,,,,,,,,,0,0,0,0,0,26,26,26,2,0,2,0,,,,,,,,,,,,,,,,,,,,,,,,,,,,,,,,,,,,,,,,,,,,,,,,,,,,,,,,,,,,,,,,30,,,,,,,,579.7637106999755,579.7637106999755,579.7637106999755,579.7637106999755,579.7637106999755,down,0.3099986999295652,13,1,0,99,0.48,0.07999999999999997,down,0.23514860006980598,,,,,,,,,,,,,,,,,,,,,,,,,,,,,,,,,,,,,,,,,,,,,,,,,,,,,,,,,,,,QRDHCC,train_y,blue_star,top_right,2025-06-07_12h24.55.348,HideSeek_v1,2022.2.5,59.96742568369011,
,8,9,8,4,0,-5,66,,train_dim1_1,27,30,,,,2,0,2,0,,,,,,,,,0,0,0,0,0,26,26,26,3,0,3,0,,,,,,,,,,,,,,,,,,,,,,,,,,,,,,,,,,,,,,,,,,,,,,,,,,,,,,,,,,,,,,,,30,,,,,,,,580.0814724999946,580.0814724999946,580.0814724999946,580.0814724999946,580.0814724999946,down,0.3430168000049889,13,1,0,99,0.48,-2.7755575615628914e-17,down,0.26646139996591955,,,,,,,,,,,,,,,,,,,,,,,,,,,,,,,,,,,,,,,,,,,,,,,,,,,,,,,,,,,,QRDHCC,train_y,blue_star,top_right,2025-06-07_12h24.55.348,HideSeek_v1,2022.2.5,59.96742568369011,
,8,9,8,4,0,-5,66,,train_dim1_1,27,30,,,,2,0,2,0,,,,,,,,,0,0,0,0,0,26,26,26,4,0,4,0,,,,,,,,,,,,,,,,,,,,,,,,,,,,,,,,,,,,,,,,,,,,,,,,,,,,,,,,,,,,,,,,30,,,,,,,,580.4302381000016,580.4302381000016,580.4302381000016,580.4302381000016,580.4302381000016,return,0.2932641999796033,13,1,0,0,0.48,-2.7755575615628914e-17,return,0.2162300000200048,-66,-2,0.48,-2.7755575615628914e-17,,,,,,,,,,,,,,,,,,,,,,,,,,,,,,,,,,,,,,,,,,,,,,,,,,,,,,,,QRDHCC,train_y,blue_star,top_right,2025-06-07_12h24.55.348,HideSeek_v1,2022.2.5,59.96742568369011,
,9,6,9,6,0,0,61,,train_dim1_1,28,30,,,,2,0,2,0,,,,,,,,,0,0,0,0,0,27,27,27,0,0,0,0,,,,,,,,,,,,,,,,,,,,,,,,,stimuli/alien_stimuli/61.png,,,,,,,,,,,,,,,,,,,,,,,,,,,,,stimuli/alien_stimuli/66.png,66,8,29,,,,,,,30,,,,,,,,584.3885841999436,584.3885841999436,584.3885841999436,584.3885841999436,584.3885841999436,return,1.6894818999571726,14,0,0,1,0.56,0.08,return,1.6158285000128672,-66,-2,0.56,0.08,582.8358548999531,584.3885841999436,0.48,-0.08,0.4,0.0,0.12,0.48,0.48,0.48,-0.08,582.2744046999142,582.2744046999142,582.2744046999142,582.2744046999142,582.2744046999142,582.2744046999142,582.2744046999142,582.2744046999142,582.2683110799408,0.6529212000314146,return,0.5297723999246955,,,,,,,,,,,,,,,,,,,,,,,,,,,,,,,,,QRDHCC,train_y,blue_star,top_right,2025-06-07_12h24.55.348,HideSeek_v1,2022.2.5,59.96742568369011,
,7,7,7,6,0,-1,62,,train_dim1_1,29,30,,,,2,0,2,0,,,,,,,,,0,0,0,0,0,28,28,28,0,0,0,0,,,,,,,,,,,,,,,,,,,,,,,,,stimuli/alien_stimuli/62.png,,,,,,,,,,,,,,,,,,,,,,,,,,,,,stimuli/alien_stimuli/61.png,61,9,30,,,,,,,30,,,,,,,,590.1972421000246,590.1972421000246,590.1972421000246,590.1972421000246,590.1972421000246,down,1.3230496000032872,14,0,0,99,0.4,0.08,down,1.2406406999798492,,,,,588.6404966999544,590.1972421000246,0.56,0.08,0.0,0.0,0.08,0.56,0.56,0.56,0.08,587.6288415999152,587.6288415999152,587.6288415999152,587.6288415999152,587.6288415999152,587.6288415999152,587.6288415999152,587.6288415999152,587.6227647799533,1.1036127000115812,return,0.9933891000691801,,,,,,,,,,,,,,,,,,,,,,,,,,,,,,,,,QRDHCC,train_y,blue_star,top_right,2025-06-07_12h24.55.348,HideSeek_v1,2022.2.5,59.96742568369011,
,7,7,7,6,0,-1,62,,train_dim1_1,29,30,,,,2,0,2,0,,,,,,,,,0,0,0,0,0,28,28,28,1,0,1,0,,,,,,,,,,,,,,,,,,,,,,,,,,,,,,,,,,,,,,,,,,,,,,,,,,,,,,,,,,,,,,,,30,,,,,,,,591.5237110999878,591.5237110999878,591.5237110999878,591.5237110999878,591.5237110999878,return,0.4428343999898061,15,0,0,1,0.4,0.08,return,0.3693232999648899,-67,-2,0.4,0.08,,,,,,,,,,,,,,,,,,,,,,,,,,,,,,,,,,,,,,,,,,,,,,,,,,,,,,,,QRDHCC,train_y,blue_star,top_right,2025-06-07_12h24.55.348,HideSeek_v1,2022.2.5,59.96742568369011,
,5,6,5,2,0,-4,65,,train_dim1_1,30,30,,,,2,0,2,0,,,,,,,,,0,0,0,0,0,29,29,29,0,0,0,0,,,,,,,,,,,,,,,,,,,,,,,,,stimuli/alien_stimuli/65.png,,,,,,,,,,,,,,,,,,,,,,,,,,,,,stimuli/alien_stimuli/62.png,62,7,31,,,,,,,30,,,,,,,,595.3796743999701,595.3796743999701,595.3796743999701,595.3796743999701,595.3796743999701,down,1.4570608000503853,15,0,0,99,0.24,0.0,down,1.3835434999782592,,,,,593.8284062999301,595.3796743999701,0.4,0.08,0.08,0.0,0.12,0.4,0.4,0.4,0.08,593.5182976999786,593.5182976999786,593.5182976999786,593.5182976999786,593.5182976999786,593.5182976999786,593.5182976999786,593.5182976999786,593.5111623799894,0.4022997000720352,return,0.28411340003367513,,,,,,,,,,,,,,,,,,,,,,,,,,,,,,,,,QRDHCC,train_y,blue_star,top_right,2025-06-07_12h24.55.348,HideSeek_v1,2022.2.5,59.96742568369011,
,5,6,5,2,0,-4,65,,train_dim1_1,30,30,,,,2,0,2,0,,,,,,,,,0,0,0,0,0,29,29,29,1,0,1,0,,,,,,,,,,,,,,,,,,,,,,,,,,,,,,,,,,,,,,,,,,,,,,,,,,,,,,,,,,,,,,,,30,,,,,,,,596.8438828999642,596.8438828999642,596.8438828999642,596.8438828999642,596.8438828999642,down,0.30945110006723553,15,0,0,99,0.24,-0.08,down,0.2325188999529928,,,,,,,,,,,,,,,,,,,,,,,,,,,,,,,,,,,,,,,,,,,,,,,,,,,,,,,,,,,,QRDHCC,train_y,blue_star,top_right,2025-06-07_12h24.55.348,HideSeek_v1,2022.2.5,59.96742568369011,
,5,6,5,2,0,-4,65,,train_dim1_1,30,30,,,,2,0,2,0,,,,,,,,,0,0,0,0,0,29,29,29,2,0,2,0,,,,,,,,,,,,,,,,,,,,,,,,,,,,,,,,,,,,,,,,,,,,,,,,,,,,,,,,,,,,,,,,30,,,,,,,,597.1605075999396,597.1605075999396,597.1605075999396,597.1605075999396,597.1605075999396,down,0.34347670001443475,15,0,0,99,0.24,-0.16,down,0.2614655999932438,,,,,,,,,,,,,,,,,,,,,,,,,,,,,,,,,,,,,,,,,,,,,,,,,,,,,,,,,,,,QRDHCC,train_y,blue_star,top_right,2025-06-07_12h24.55.348,HideSeek_v1,2022.2.5,59.96742568369011,
,5,6,5,2,0,-4,65,,train_dim1_1,30,30,,,,2,0,2,0,,,,,,,,,0,0,0,0,0,29,29,29,3,0,3,0,,,,,,,,,,,,,,,,,,,,,,,,,,,,,,,,,,,,,,,,,,,,,,,,,,,,,,,,,,,,,,,,30,,,,,,,,597.5118517000228,597.5118517000228,597.5118517000228,597.5118517000228,597.5118517000228,down,0.4098951000487432,15,0,0,99,0.24,-0.24,down,0.32713350001722574,,,,,,,,,,,,,,,,,,,,,,,,,,,,,,,,,,,,,,,,,,,,,,,,,,,,,,,,,,,,QRDHCC,train_y,blue_star,top_right,2025-06-07_12h24.55.348,HideSeek_v1,2022.2.5,59.96742568369011,
,5,6,5,2,0,-4,65,,train_dim1_1,30,30,,,,2,0,2,0,,,,,,,,,0,0,0,0,0,29,29,29,4,0,4,0,,,,,,,,,,,,,,,,,,,,,,,,,,,,,,,,,,,,,,,,,,,,,,,,,,,,,,,,,,,,,,,,30,,,,,,,,597.9279485999141,597.9279485999141,597.9279485999141,597.9279485999141,597.9279485999141,return,2.3278051000088453,16,0,0,1,0.24,-0.24,return,2.246781099936925,-71,-2,0.24,-0.24,,,,,,,,,,,,,,,,,,,,,,,,,,,,,,,,,,,,,,,,,,,,,,,,,,,,,,,,QRDHCC,train_y,blue_star,top_right,2025-06-07_12h24.55.348,HideSeek_v1,2022.2.5,59.96742568369011,
,,,,,,,,,,,30,,,,2,0,2,0,,,,,,,,,,,,,,,,,,,,,,,,,,,,,,,,,,,,,,,,,,,,,,,,,,,,,,,,,,,,,,,,,,,,,,,,,,stimuli/alien_stimuli/65.png,65,5,32,21,0.7,0.6666666666666667,1,1,1,30,0,conditions/schedules/train_y_first/blue_star_00/top_right/inputTrain_2.1.xlsx,99,1,2,1,0,,,,,,,,,,,1,,,,,,,,,602.2849723999389,603.8515761999879,0.24,-0.24,0.32,0.0,-0.07999999999999999,0.24,0.24,0.24,-0.24,601.8073435999686,601.8073435999686,601.8073435999686,601.8073435999686,601.8073435999686,601.8073435999686,601.8073435999686,601.8073435999686,601.8012503799982,0.5689431000500917,return,0.45482509990688413,0,0.9,0,1,16,,,,,,,,,,,,,,,,,,,,,,,,,,,,QRDHCC,train_y,blue_star,top_right,2025-06-07_12h24.55.348,HideSeek_v1,2022.2.5,59.96742568369011,
,,,,,,,,,,,,,,,3,0,3,0,0,0,0,0,,,,,,,,,,,,,,,,,,,,,,,,,,,,,,,conditions/schedules/train_y_first/blue_star_00/top_right/instructions/Slide17.png,conditions/schedules/train_y_first/blue_star_00/top_right/instructions/Audio17.wav,603.8515761999879,603.8529967999202,17,"[3.620501499972306, 18.066341999918222, 16.74828569998499, 19.918616499984637, 4.754761999938637, 5.1371843999950215, 5.436645200010389, 11.873960299999453, 6.470531800063327, 7.4000660999445245, 10.235502299969085, 13.793767099967226, 18.58101630001329, 17.233608000096865, 43.80768099997658, 20.91148999996949, 44.60364099999424]","[0.014343300019390881, 0.03393060003872961, 0.014896800043061376, 0.05130679998546839, 0.014114700024947524, 0.013819299987517297, 0.031231199973262846, 0.048055300023406744, 0.030719100032001734, 7.400073800003156, 0.03241309989243746, 13.793773999903351, 0.05244630004744977, 17.23361500003375, 0.07958139991387725, 20.911496999906376, 44.60364869993646]",0,,,,,,,,,,,,,,,,,,,,,,,,,,,,,,,,,,,,,,,,,,,,,,,,,,,,,,,,,,,,,,,,,,,,,,,,,,,,,,,,,,,,,,,,,,,,,,,,,,,,,,,,,,,,,,,,,,,,,,,,,,,,QRDHCC,train_y,blue_star,top_right,2025-06-07_12h24.55.348,HideSeek_v1,2022.2.5,59.96742568369011,
,,,,,,,,,,,,,,,3,0,3,0,1,0,1,0,,,,,,,,,,,,,,,,,,,,,,,,,,,,,,,conditions/schedules/train_y_first/blue_star_00/top_right/instructions/Slide18.png,conditions/schedules/train_y_first/blue_star_00/top_right/instructions/Audio18.wav,648.5124651999213,648.5067276199115,18,"[3.620501499972306, 18.066341999918222, 16.74828569998499, 19.918616499984637, 4.754761999938637, 5.1371843999950215, 5.436645200010389, 11.873960299999453, 6.470531800063327, 7.4000660999445245, 10.235502299969085, 13.793767099967226, 18.58101630001329, 17.233608000096865, 43.80768099997658, 20.91148999996949, 44.60364099999424, 8.148408700013533]","[0.014343300019390881, 0.03393060003872961, 0.014896800043061376, 0.05130679998546839, 0.014114700024947524, 0.013819299987517297, 0.031231199973262846, 0.048055300023406744, 0.030719100032001734, 7.400073800003156, 0.03241309989243746, 13.793773999903351, 0.05244630004744977, 17.23361500003375, 0.07958139991387725, 20.911496999906376, 0.00021229998674243689, 8.14841509994585]",0,,,,,,,,,,,,,,,,,,,,,,,,,,,,,,,,,,,,,,,,,,,,,,,,,,,,,,,,,,,,,,,,,,,,,,,,,,,,,,,,,,,,,,,,,,,,,,,,,,,,,,,,,,,,,,,,,,,,,,,,,,,,QRDHCC,train_y,blue_star,top_right,2025-06-07_12h24.55.348,HideSeek_v1,2022.2.5,59.96742568369011,
,,,,,,,,,,,,,,,3,0,3,0,2,0,2,0,,,,,,,,,,,,,,,,,,,,,,,,,,,,,,,conditions/schedules/train_y_first/blue_star_00/top_right/instructions/Slide19.png,conditions/schedules/train_y_first/blue_star_00/top_right/instructions/Audio19.wav,656.7149084999692,656.7136618199293,19,"[3.620501499972306, 18.066341999918222, 16.74828569998499, 19.918616499984637, 4.754761999938637, 5.1371843999950215, 5.436645200010389, 11.873960299999453, 6.470531800063327, 7.4000660999445245, 10.235502299969085, 13.793767099967226, 18.58101630001329, 17.233608000096865, 43.80768099997658, 20.91148999996949, 44.60364099999424, 8.148408700013533, 10.638741899980232]","[0.014343300019390881, 0.03393060003872961, 0.014896800043061376, 0.05130679998546839, 0.014114700024947524, 0.013819299987517297, 0.031231199973262846, 0.048055300023406744, 0.030719100032001734, 7.400073800003156, 0.03241309989243746, 13.793773999903351, 0.05244630004744977, 17.23361500003375, 0.07958139991387725, 20.911496999906376, 0.00021229998674243689, 0.013942999998107553, 10.638752399943769]",0,,,,,,,,,,,,,,,,,,,,,,,,,,,,,,,,,,,,,,,,,,,,,,,,,,,,,,,,,,,,,,,,,,,,,,,,,,,,,,,,,,,,,,,,,,,,,,,,,,,,,,,,,,,,,,,,,,,,,,,,,,,,QRDHCC,train_y,blue_star,top_right,2025-06-07_12h24.55.348,HideSeek_v1,2022.2.5,59.96742568369011,
,,,,,,,,,,,,,,,3,0,3,0,3,0,3,0,,,,,,,,,,,,,,,,,,,,,,,,,,,,,,,conditions/schedules/train_y_first/blue_star_00/top_right/instructions/Slide20.png,conditions/schedules/train_y_first/blue_star_00/top_right/instructions/Audio20.wav,667.4267432999332,667.4224392999313,20,"[3.620501499972306, 18.066341999918222, 16.74828569998499, 19.918616499984637, 4.754761999938637, 5.1371843999950215, 5.436645200010389, 11.873960299999453, 6.470531800063327, 7.4000660999445245, 10.235502299969085, 13.793767099967226, 18.58101630001329, 17.233608000096865, 43.80768099997658, 20.91148999996949, 44.60364099999424, 8.148408700013533, 10.638741899980232, 13.520937099936418]","[0.014343300019390881, 0.03393060003872961, 0.014896800043061376, 0.05130679998546839, 0.014114700024947524, 0.013819299987517297, 0.031231199973262846, 0.048055300023406744, 0.030719100032001734, 7.400073800003156, 0.03241309989243746, 13.793773999903351, 0.05244630004744977, 17.23361500003375, 0.07958139991387725, 20.911496999906376, 0.00021229998674243689, 0.013942999998107553, 0.04694489995017648, 13.52094409998972]",0,,,,,,,,,,,,,,,,,,,,,,,,,,,,,,,,,,,,,,,,,,,,,,,,,,,,,,,,,,,,,,,,,,,,,,,,,,,,,,,,,,,,,,,,,,,,,,,,,,,,,,,,,,,,,,,,,,,,,,,,,,,,QRDHCC,train_y,blue_star,top_right,2025-06-07_12h24.55.348,HideSeek_v1,2022.2.5,59.96742568369011,
1,9,5,4,5,-5,0,11,2,instr_dim1_2,,,,,,3,0,3,0,,,,,0,0,0,0,,,,,,,,,,,,,,,,,,,,,,,,,,,,,,,,,,,,,stimuli/alien_stimuli/11.png,conditions/schedules/train_y_first/blue_star_00/top_right/inputInstr_2.xlsx,stimuli/alien_stimuli/11.png,681.0577959999209,681.0577959999209,681.0577959999209,681.0577959999209,681.0502370600007,return,6.226068999967538,"[-0.16, -0.08, 0, 0.08, 0.16, 0.24, 0.32, 0.4, 0.48, 0.56]","[-0.4, -0.32, -0.24, -0.16, -0.08, 0, 0.08, 0.16, 0.24, 0.32]",5,5,4,9,0.0,0.4,687.4480272999499,687.4480272999499,687.4480272999499,687.4480272999499,687.4480272999499,687.4480272999499,687.4480272999499,687.4389685199712,5.622518899966963,return,5.461705700028688,stimuli/alien_stimuli/11.png,11,9,1,,,,,,,,,,,,,,,,,,,,,,,,,,,,,,,,,,,,,,,,,,,,,,,,,,,,,,,,,,,,,,,,,,,,,,,,,,,,,,,,,,,,,,,,,QRDHCC,train_y,blue_star,top_right,2025-06-07_12h24.55.348,HideSeek_v1,2022.2.5,59.96742568369011,
,,,,,,,,,,,30,,,,3,0,3,0,,,,,,,,,,,,,,,,,,,,,,,,,,,,,,,,,,,,,,,,,,,,,,,,,,,,,,,,,,,,,,,,,,,,,,,,,,,,,,21,0.7,0.6666666666666667,1,99,2,30,0,conditions/schedules/train_y_first/blue_star_00/top_right/inputTrain_2.1.xlsx,99,1,2,1,0,,,,,,,,,,,,,,,,,,,,,,,,,,,,,,,,,,,,,,,,,,,,,,,,,,,,,,,,,,,,,,,,,,,,,,,,,,,QRDHCC,train_y,blue_star,top_right,2025-06-07_12h24.55.348,HideSeek_v1,2022.2.5,59.96742568369011,
,,,,,,,,,,,,,,,4,0,4,0,0,0,0,0,,,,,,,,,,,,,,,,,,,,,,,,,,,,,,,conditions/schedules/train_y_first/blue_star_00/top_right/instructions/Slide21.png,conditions/schedules/train_y_first/blue_star_00/top_right/instructions/Audio21.wav,693.0650138999335,693.0603801198886,21,"[3.620501499972306, 18.066341999918222, 16.74828569998499, 19.918616499984637, 4.754761999938637, 5.1371843999950215, 5.436645200010389, 11.873960299999453, 6.470531800063327, 7.4000660999445245, 10.235502299969085, 13.793767099967226, 18.58101630001329, 17.233608000096865, 43.80768099997658, 20.91148999996949, 44.60364099999424, 8.148408700013533, 10.638741899980232, 13.520937099936418, 15.041142800007947]","[0.014343300019390881, 0.03393060003872961, 0.014896800043061376, 0.05130679998546839, 0.014114700024947524, 0.013819299987517297, 0.031231199973262846, 0.048055300023406744, 0.030719100032001734, 7.400073800003156, 0.03241309989243746, 13.793773999903351, 0.05244630004744977, 17.23361500003375, 0.07958139991387725, 20.911496999906376, 0.00021229998674243689, 0.013942999998107553, 0.04694489995017648, 13.52094409998972, 15.041150400065817]",0,,,,,,,,,,,,,,,,,,,,,,,,,,,,,,,,,,,,,,,,,,,,,,,,,,,,,,,,,,,,,,,,,,,,,,,,,,,,,,,,,,,,,,,,,,,,,,,,,,,,,,,,,,,,,,,,,,,,,,,,,,,,QRDHCC,train_y,blue_star,top_right,2025-06-07_12h24.55.348,HideSeek_v1,2022.2.5,59.96742568369011,
2,8,7,8,7,0,0,61,2,instr_dim1_2,,,,,,4,0,4,0,,,,,0,0,0,0,,,,,,,,,,,,,,,,,,,,,,,,,,,,,,,,,,,,,stimuli/alien_stimuli/61.png,conditions/schedules/train_y_first/blue_star_00/top_right/inputInstr_2.xlsx,stimuli/alien_stimuli/61.png,708.1925841999473,708.1925841999473,708.1925841999473,708.1925841999473,708.1895452799508,return,6.087623800034635,"[-0.16, -0.08, 0, 0.08, 0.16, 0.24, 0.32, 0.4, 0.48, 0.56]","[-0.4, -0.32, -0.24, -0.16, -0.08, 0, 0.08, 0.16, 0.24, 0.32]",7,7,8,8,0.0,0.0,714.4469732999569,714.4469732999569,714.4469732999569,714.4469732999569,714.4469732999569,714.4469732999569,714.4469732999569,714.4279654399725,5.355270399944857,return,5.198727199924178,stimuli/alien_stimuli/61.png,61,8,2,,,,,,,,,,,,,,,,,,,,,,,,,,,,,,,,,,,,,,,,,,,,,,,,,,,,,,,,,,,,,,,,,,,,,,,,,,,,,,,,,,,,,,,,,QRDHCC,train_y,blue_star,top_right,2025-06-07_12h24.55.348,HideSeek_v1,2022.2.5,59.96742568369011,
,,,,,,,,,,,30,,,,4,0,4,0,,,,,,,,,,,,,,,,,,,,,,,,,,,,,,,,,,,,,,,,,,,,,,,,,,,,,,,,,,,,,,,,,,,,,,,,,,,,,,21,0.7,0.6666666666666667,1,99,2,30,0,conditions/schedules/train_y_first/blue_star_00/top_right/inputTrain_2.1.xlsx,99,1,2,1,0,,,,,,,,,,,,,,,,,,,,,,,,,,,,,,,,,,,,,,,,,,,,,,,,,,,,,,,,,,,,,,,,,,,,,,,,,,,QRDHCC,train_y,blue_star,top_right,2025-06-07_12h24.55.348,HideSeek_v1,2022.2.5,59.96742568369011,
,,,,,,,,,,,,,,,5,0,5,0,0,0,0,0,,,,,,,,,,,,,,,,,,,,,,,,,,,,,,,conditions/schedules/train_y_first/blue_star_00/top_right/instructions/Slide22.png,conditions/schedules/train_y_first/blue_star_00/top_right/instructions/Audio22.wav,719.8011870000046,719.7990161199705,22,"[3.620501499972306, 18.066341999918222, 16.74828569998499, 19.918616499984637, 4.754761999938637, 5.1371843999950215, 5.436645200010389, 11.873960299999453, 6.470531800063327, 7.4000660999445245, 10.235502299969085, 13.793767099967226, 18.58101630001329, 17.233608000096865, 43.80768099997658, 20.91148999996949, 44.60364099999424, 8.148408700013533, 10.638741899980232, 13.520937099936418, 15.041142800007947, 31.03839020000305]","[0.014343300019390881, 0.03393060003872961, 0.014896800043061376, 0.05130679998546839, 0.014114700024947524, 0.013819299987517297, 0.031231199973262846, 0.048055300023406744, 0.030719100032001734, 7.400073800003156, 0.03241309989243746, 13.793773999903351, 0.05244630004744977, 17.23361500003375, 0.07958139991387725, 20.911496999906376, 0.00021229998674243689, 0.013942999998107553, 0.04694489995017648, 13.52094409998972, 15.041150400065817, 31.038401199970394]",0,,,,,,,,,,,,,,,,,,,,,,,,,,,,,,,,,,,,,,,,,,,,,,,,,,,,,,,,,,,,,,,,,,,,,,,,,,,,,,,,,,,,,,,,,,,,,,,,,,,,,,,,,,,,,,,,,,,,,,,,,,,,QRDHCC,train_y,blue_star,top_right,2025-06-07_12h24.55.348,HideSeek_v1,2022.2.5,59.96742568369011,
,7,6,4,6,-3,0,31,,train_dim1_2,1,30,,,,5,0,5,0,,,,,,,,,0,0,0,0,0,0,0,0,0,0,0,0,,,,,,,,,,,,,,,,,,,,,,,,,stimuli/alien_stimuli/31.png,,,,,,,,,,,,,,,,,,,,,,,,,,,,,,,,,,,,,,,30,,,,,,,,750.9308266999433,750.9308266999433,750.9308266999433,750.9308266999433,750.9308266999433,left,2.3792062000138685,0,0,0,99,0.32,0.08,left,2.2891006000572816,,,,,,,,,,,,,,,,,,,,,,,,,,,,,,,,,,,,,,,,,,,,,,,,,,,,,,,,,,,,QRDHCC,train_y,blue_star,top_right,2025-06-07_12h24.55.348,HideSeek_v1,2022.2.5,59.96742568369011,
,7,6,4,6,-3,0,31,,train_dim1_2,1,30,,,,5,0,5,0,,,,,,,,,0,0,0,0,0,0,0,0,1,0,1,0,,,,,,,,,,,,,,,,,,,,,,,,,,,,,,,,,,,,,,,,,,,,,,,,,,,,,,,,,,,,,,,,30,,,,,,,,753.3076849000063,753.3076849000063,753.3076849000063,753.3076849000063,753.3076849000063,left,0.27600150008220226,0,0,0,99,0.24,0.08,left,0.1892516000661999,,,,,,,,,,,,,,,,,,,,,,,,,,,,,,,,,,,,,,,,,,,,,,,,,,,,,,,,,,,,QRDHCC,train_y,blue_star,top_right,2025-06-07_12h24.55.348,HideSeek_v1,2022.2.5,59.96742568369011,
,7,6,4,6,-3,0,31,,train_dim1_2,1,30,,,,5,0,5,0,,,,,,,,,0,0,0,0,0,0,0,0,2,0,2,0,,,,,,,,,,,,,,,,,,,,,,,,,,,,,,,,,,,,,,,,,,,,,,,,,,,,,,,,,,,,,,,,30,,,,,,,,753.5902536999201,753.5902536999201,753.5902536999201,753.5902536999201,753.5902536999201,left,0.29349849990103394,0,0,0,99,0.15999999999999998,0.08,left,0.21617199992761016,,,,,,,,,,,,,,,,,,,,,,,,,,,,,,,,,,,,,,,,,,,,,,,,,,,,,,,,,,,,QRDHCC,train_y,blue_star,top_right,2025-06-07_12h24.55.348,HideSeek_v1,2022.2.5,59.96742568369011,
,7,6,4,6,-3,0,31,,train_dim1_2,1,30,,,,5,0,5,0,,,,,,,,,0,0,0,0,0,0,0,0,3,0,3,0,,,,,,,,,,,,,,,,,,,,,,,,,,,,,,,,,,,,,,,,,,,,,,,,,,,,,,,,,,,,,,,,30,,,,,,,,753.891251699999,753.891251699999,753.891251699999,753.891251699999,753.891251699999,left,0.29297930002212524,0,0,0,99,0.07999999999999997,0.08,left,0.21632030000910163,,,,,,,,,,,,,,,,,,,,,,,,,,,,,,,,,,,,,,,,,,,,,,,,,,,,,,,,,,,,QRDHCC,train_y,blue_star,top_right,2025-06-07_12h24.55.348,HideSeek_v1,2022.2.5,59.96742568369011,
,7,6,4,6,-3,0,31,,train_dim1_2,1,30,,,,5,0,5,0,,,,,,,,,0,0,0,0,0,0,0,0,4,0,4,0,,,,,,,,,,,,,,,,,,,,,,,,,,,,,,,,,,,,,,,,,,,,,,,,,,,,,,,,,,,,,,,,30,,,,,,,,754.192086199997,754.192086199997,754.192086199997,754.192086199997,754.192086199997,left,0.2601751999463886,0,0,0,99,-2.7755575615628914e-17,0.08,left,0.18359279993455857,,,,,,,,,,,,,,,,,,,,,,,,,,,,,,,,,,,,,,,,,,,,,,,,,,,,,,,,,,,,QRDHCC,train_y,blue_star,top_right,2025-06-07_12h24.55.348,HideSeek_v1,2022.2.5,59.96742568369011,
,7,6,4,6,-3,0,31,,train_dim1_2,1,30,,,,5,0,5,0,,,,,,,,,0,0,0,0,0,0,0,0,5,0,5,0,,,,,,,,,,,,,,,,,,,,,,,,,,,,,,,,,,,,,,,,,,,,,,,,,,,,,,,,,,,,,,,,30,,,,,,,,754.4582910999889,754.4582910999889,754.4582910999889,754.4582910999889,754.4582910999889,return,0.34298539999872446,0,0,0,0,-2.7755575615628914e-17,0.08,return,0.2562210999894887,-71,-7,-2.7755575615628914e-17,0.08,,,,,,,,,,,,,,,,,,,,,,,,,,,,,,,,,,,,,,,,,,,,,,,,,,,,,,,,QRDHCC,train_y,blue_star,top_right,2025-06-07_12h24.55.348,HideSeek_v1,2022.2.5,59.96742568369011,
,7,9,2,9,-5,0,11,,train_dim1_2,2,30,,,,5,0,5,0,,,,,,,,,0,0,0,0,0,1,1,1,0,0,0,0,,,,,,,,,,,,,,,,,,,,,,,,,stimuli/alien_stimuli/11.png,,,,,,,,,,,,,,,,,,,,,,,,,,,,,stimuli/alien_stimuli/31.png,31,7,3,,,,,,,30,,,,,,,,761.0815390999196,761.0815390999196,761.0815390999196,761.0815390999196,761.0815390999196,left,2.2372545999241993,0,0,0,99,0.32,0.32,left,2.14743350003846,,,,,759.5154600000242,761.0815390999196,0.16,0.08,0.0,0.24,0.08,0.16,0.28,0.16,0.08,756.3701234000036,756.3701234000036,756.3701234000036,756.3701234000036,756.3701234000036,756.3701234000036,756.3701234000036,756.3701234000036,756.3625271599158,3.255062700016424,return,3.1209067999152467,,,,,,,,,,,,,,,,,,,,,,,,,,,,,,,,,QRDHCC,train_y,blue_star,top_right,2025-06-07_12h24.55.348,HideSeek_v1,2022.2.5,59.96742568369011,
,7,9,2,9,-5,0,11,,train_dim1_2,2,30,,,,5,0,5,0,,,,,,,,,0,0,0,0,0,1,1,1,1,0,1,0,,,,,,,,,,,,,,,,,,,,,,,,,,,,,,,,,,,,,,,,,,,,,,,,,,,,,,,,,,,,,,,,30,,,,,,,,763.3197656999109,763.3197656999109,763.3197656999109,763.3197656999109,763.3197656999109,left,0.3096588000189513,0,0,0,99,0.24,0.32,left,0.225426199962385,,,,,,,,,,,,,,,,,,,,,,,,,,,,,,,,,,,,,,,,,,,,,,,,,,,,,,,,,,,,QRDHCC,train_y,blue_star,top_right,2025-06-07_12h24.55.348,HideSeek_v1,2022.2.5,59.96742568369011,
,7,9,2,9,-5,0,11,,train_dim1_2,2,30,,,,5,0,5,0,,,,,,,,,0,0,0,0,0,1,1,1,2,0,2,0,,,,,,,,,,,,,,,,,,,,,,,,,,,,,,,,,,,,,,,,,,,,,,,,,,,,,,,,,,,,,,,,30,,,,,,,,763.6360420999117,763.6360420999117,763.6360420999117,763.6360420999117,763.6360420999117,left,0.30976380000356585,0,0,0,99,0.15999999999999998,0.32,left,0.2213488999987021,,,,,,,,,,,,,,,,,,,,,,,,,,,,,,,,,,,,,,,,,,,,,,,,,,,,,,,,,,,,QRDHCC,train_y,blue_star,top_right,2025-06-07_12h24.55.348,HideSeek_v1,2022.2.5,59.96742568369011,
,7,9,2,9,-5,0,11,,train_dim1_2,2,30,,,,5,0,5,0,,,,,,,,,0,0,0,0,0,1,1,1,3,0,3,0,,,,,,,,,,,,,,,,,,,,,,,,,,,,,,,,,,,,,,,,,,,,,,,,,,,,,,,,,,,,,,,,30,,,,,,,,763.9527040999383,763.9527040999383,763.9527040999383,763.9527040999383,763.9527040999383,left,0.3100084000034258,0,0,0,99,0.07999999999999997,0.32,left,0.23289890005253255,,,,,,,,,,,,,,,,,,,,,,,,,,,,,,,,,,,,,,,,,,,,,,,,,,,,,,,,,,,,QRDHCC,train_y,blue_star,top_right,2025-06-07_12h24.55.348,HideSeek_v1,2022.2.5,59.96742568369011,
,7,9,2,9,-5,0,11,,train_dim1_2,2,30,,,,5,0,5,0,,,,,,,,,0,0,0,0,0,1,1,1,4,0,4,0,,,,,,,,,,,,,,,,,,,,,,,,,,,,,,,,,,,,,,,,,,,,,,,,,,,,,,,,,,,,,,,,30,,,,,,,,764.2700294000097,764.2700294000097,764.2700294000097,764.2700294000097,764.2700294000097,return,0.34314230002928525,0,1,0,0,0.07999999999999997,0.32,return,0.2538120999233797,-71,-11,0.07999999999999997,0.32,,,,,,,,,,,,,,,,,,,,,,,,,,,,,,,,,,,,,,,,,,,,,,,,,,,,,,,,QRDHCC,train_y,blue_star,top_right,2025-06-07_12h24.55.348,HideSeek_v1,2022.2.5,59.96742568369011,
,9,9,5,9,-4,0,21,,train_dim1_2,3,30,,,,5,0,5,0,,,,,,,,,0,0,0,0,0,2,2,2,0,0,0,0,,,,,,,,,,,,,,,,,,,,,,,,,stimuli/alien_stimuli/21.png,,,,,,,,,,,,,,,,,,,,,,,,,,,,,stimuli/alien_stimuli/11.png,11,7,4,,,,,,,30,,,,,,,,771.3882851999952,771.3882851999952,771.3882851999952,771.3882851999952,771.3882851999952,left,1.137993699987419,0,1,0,99,0.48000000000000004,0.32,left,1.0438404999440536,,,,,769.8239168999717,771.3882851999952,0,0.32,0.0,0.4,0.32,0,0.2,0,0.32,766.1834308999823,766.1834308999823,766.1834308999823,766.1834308999823,766.1834308999823,766.1834308999823,766.1834308999823,766.1834308999823,766.1707881600014,3.7549264000263065,return,3.6166520999977365,,,,,,,,,,,,,,,,,,,,,,,,,,,,,,,,,QRDHCC,train_y,blue_star,top_right,2025-06-07_12h24.55.348,HideSeek_v1,2022.2.5,59.96742568369011,
,9,9,5,9,-4,0,21,,train_dim1_2,3,30,,,,5,0,5,0,,,,,,,,,0,0,0,0,0,2,2,2,1,0,1,0,,,,,,,,,,,,,,,,,,,,,,,,,,,,,,,,,,,,,,,,,,,,,,,,,,,,,,,,,,,,,,,,30,,,,,,,,772.5278435000218,772.5278435000218,772.5278435000218,772.5278435000218,772.5278435000218,left,0.3429596999194473,0,1,0,99,0.4,0.32,left,0.2649424000410363,,,,,,,,,,,,,,,,,,,,,,,,,,,,,,,,,,,,,,,,,,,,,,,,,,,,,,,,,,,,QRDHCC,train_y,blue_star,top_right,2025-06-07_12h24.55.348,HideSeek_v1,2022.2.5,59.96742568369011,
,9,9,5,9,-4,0,21,,train_dim1_2,3,30,,,,5,0,5,0,,,,,,,,,0,0,0,0,0,2,2,2,2,0,2,0,,,,,,,,,,,,,,,,,,,,,,,,,,,,,,,,,,,,,,,,,,,,,,,,,,,,,,,,,,,,,,,,30,,,,,,,,772.8771719000069,772.8771719000069,772.8771719000069,772.8771719000069,772.8771719000069,left,0.6937693000072613,0,1,0,99,0.32,0.32,left,0.6143556999741122,,,,,,,,,,,,,,,,,,,,,,,,,,,,,,,,,,,,,,,,,,,,,,,,,,,,,,,,,,,,QRDHCC,train_y,blue_star,top_right,2025-06-07_12h24.55.348,HideSeek_v1,2022.2.5,59.96742568369011,
,9,9,5,9,-4,0,21,,train_dim1_2,3,30,,,,5,0,5,0,,,,,,,,,0,0,0,0,0,2,2,2,3,0,3,0,,,,,,,,,,,,,,,,,,,,,,,,,,,,,,,,,,,,,,,,,,,,,,,,,,,,,,,,,,,,,,,,30,,,,,,,,773.578778599971,773.578778599971,773.578778599971,773.578778599971,773.578778599971,return,1.6438853999134153,0,1,0,0,0.32,0.32,return,1.5636935000075027,-71,-14,0.32,0.32,,,,,,,,,,,,,,,,,,,,,,,,,,,,,,,,,,,,,,,,,,,,,,,,,,,,,,,,QRDHCC,train_y,blue_star,top_right,2025-06-07_12h24.55.348,HideSeek_v1,2022.2.5,59.96742568369011,
,7,8,6,8,-1,0,51,,train_dim1_2,4,30,,,,5,0,5,0,,,,,,,,,0,0,0,0,0,3,3,3,0,0,0,0,,,,,,,,,,,,,,,,,,,,,,,,,stimuli/alien_stimuli/51.png,,,,,,,,,,,,,,,,,,,,,,,,,,,,,stimuli/alien_stimuli/21.png,21,9,5,,,,,,,30,,,,,,,,779.4095965999877,779.4095965999877,779.4095965999877,779.4095965999877,779.4095965999877,return,1.4722911999560893,0,1,0,0,0.4,0.24,return,1.3592958999797702,-71,-14,0.4,0.24,777.8306912999833,779.4095965999877,0.24,0.32,0.0,0.32,0.32,0.24,0.4,0.24,0.32,776.8143386999145,776.8143386999145,776.8143386999145,776.8143386999145,776.8143386999145,776.8143386999145,776.8143386999145,776.8143386999145,776.7963393399259,1.15392520010937,return,0.984866000013426,,,,,,,,,,,,,,,,,,,,,,,,,,,,,,,,,QRDHCC,train_y,blue_star,top_right,2025-06-07_12h24.55.348,HideSeek_v1,2022.2.5,59.96742568369011,
,5,7,5,7,0,0,61,,train_dim1_2,5,30,,,,5,0,5,0,,,,,,,,,0,0,0,0,0,4,4,4,0,0,0,0,,,,,,,,,,,,,,,,,,,,,,,,,stimuli/alien_stimuli/61.png,,,,,,,,,,,,,,,,,,,,,,,,,,,,,stimuli/alien_stimuli/51.png,51,7,6,,,,,,,30,,,,,,,,785.0599699999439,785.0599699999439,785.0599699999439,785.0599699999439,785.0599699999439,return,2.7243611000012606,1,0,0,1,0.24,0.16,return,2.636921500088647,-71,-14,0.24,0.16,783.5020451999735,785.0599699999439,0.32,0.24,0.0,0.08,0.24,0.32,0.36,0.32,0.24,782.4230829000007,782.4230829000007,782.4230829000007,782.4230829000007,782.4230829000007,782.4230829000007,782.4230829000007,782.4230829000007,782.4011571799638,1.1864798999158666,return,1.0506301999557763,,,,,,,,,,,,,,,,,,,,,,,,,,,,,,,,,QRDHCC,train_y,blue_star,top_right,2025-06-07_12h24.55.348,HideSeek_v1,2022.2.5,59.96742568369011,
