trialInstr,x_fixStart,y_fixStart,x_corrSteps,y_corrSteps,x_nrSteps,y_nrSteps,alienID,trialLength,version,trialTrain,praclen,testlen,trial_label,break_on_off,beforeExpLoop.thisRepN,beforeExpLoop.thisTrialN,beforeExpLoop.thisN,beforeExpLoop.thisIndex,mini_instr_trials.thisRepN,mini_instr_trials.thisTrialN,mini_instr_trials.thisN,mini_instr_trials.thisIndex,instrLoop.thisRepN,instrLoop.thisTrialN,instrLoop.thisN,instrLoop.thisIndex,repeat_prac.thisRepN,repeat_prac.thisTrialN,repeat_prac.thisN,repeat_prac.thisIndex,trainLoop.thisRepN,trainLoop.thisTrialN,trainLoop.thisN,trainLoop.thisIndex,moveLoop_train.thisRepN,moveLoop_train.thisTrialN,moveLoop_train.thisN,moveLoop_train.thisIndex,experiment.thisRepN,experiment.thisTrialN,experiment.thisN,experiment.thisIndex,moveLoop_test.thisRepN,moveLoop_test.thisTrialN,moveLoop_test.thisN,moveLoop_test.thisIndex,mini_instr2_trials.thisRepN,mini_instr2_trials.thisTrialN,mini_instr2_trials.thisN,mini_instr2_trials.thisIndex,start_all_time,url,slideStim,audioStim,slides.started,sounds.started,nextButton.numClicks,nextButton.timesOn,nextButton.timesOff,prev_but.numClicks,prev_but.timesOn,prev_but.timesOff,alienStim,instrFile,alienStim_instr,gridImage_instr.started,startPos_3.started,key_instr.started,alienImage_3.started,sounds_1.started,key_instr.keys,key_instr.rt,all_x,all_y,FBy_corrSteps,FBy_fixStart,FBx_corrSteps,FBx_fixStart,FBy_pathSize_check,FBx_pathSize_check,gridImage_9.started,alienImageFB_3.started,startPosFB_3.started,keyFB_3.started,pathLine_ydir_2.started,pathLine_xdir_2.started,alienFace_3.started,sounds_2.started,RTFB_instr,keyFB_3.keys,keyFB_3.rt,draw_alienStim,draw_alienID,test_x,nrepcount,perfthres,percthres,earlierperf,earlystop,nextPrac,fileidx,praclen,saveACC_train,pracFile,nextPrac_train,addNrep,fileidx_endr,repExp,showearly,gridImage_4.started,startPos.started,movePos.started,key_resp.started,alienImage.started,buttonPress_train,RTchoice_train,cumAcctrain,aCorr,saveACC_choice,corrAns,x_movePos_end,y_movePos_end,key_resp.keys,key_resp.rt,wLy_dir,wLx_dir,x_movePos,y_movePos,text_2.started,text_2.stopped,aft_x_corrPos,aft_y_corrPos,y_pathSize_check,x_pathSize_check,y_pathdirY,x_pathdirY,x_pathdirX,x_corrPos,y_corrPos,gridImage_6.started,alienImageFB_2.started,startPosFB_2.started,movePosFB_2.started,keyFB_2.started,pathLine_xdir.started,pathLine_ydir.started,alienFace.started,sounds_4.started,RT_FBtrain,keyFB_2.keys,keyFB_2.rt,saveACC_pre,ACC,within_saveACC_train,earlystop_wloop,cumAcctrain_check,gridImage_3.started,alienImage_test.started,startPos_test.started,movePos_test.started,key_resp_test.started,wLy_dir_test,wLx_dir_test,buttonPress_test,RTchoice_test,cumAcctest,corrAns_test,key_resp_test.keys,key_resp_test.rt,text_3.started,text_3.stopped,total_time,end_all_time,key_resp_3.keys,slides_2.started,sounds_3.started,nextButton_2.numClicks,nextButton_2.timesOn,nextButton_2.timesOff,prev_but_2.numClicks,prev_but_2.timesOn,prev_but_2.timesOff,bye.started,participant,train_first,00_coordinate,starting corner,date,expName,psychopyVersion,frameRate,
,,,,,,,,,,,,,,,0,0,0,0,0,0,0,0,,,,,,,,,,,,,,,,,,,,,,,,,,,,,start_all_time,testround,conditions/schedules/train_x_first/blue_star_00/top_left/instructions/Slide1.png,conditions/schedules/train_x_first/blue_star_00/top_left/instructions/Audio1.wav,700.5899050999869,700.5428746498146,1,[50.54035450000083],[50.540362200001255],0,,,,,,,,,,,,,,,,,,,,,,,,,,,,,,,,,,,,,,,,,,,,,,,,,,,,,,,,,,,,,,,,,,,,,,,,,,,,,,,,,,,,,,,,,,,,,,,,,,,,,,,,,,,,,,,,,,,,,,,,,,,,QZV9UY,train_x,blue_star,top_left,2025-09-26_17h05.47.531,HideSeek_v1,2022.2.5,59.87665409611364,
,,,,,,,,,,,,,,,0,0,0,0,1,0,1,0,,,,,,,,,,,,,,,,,,,,,,,,,,,,,,,conditions/schedules/train_x_first/blue_star_00/top_left/instructions/Slide2.png,conditions/schedules/train_x_first/blue_star_00/top_left/instructions/Audio2.wav,751.1762827999919,751.1699689599918,2,"[50.54035450000083, 18.52368280000519]","[0.014429000002564862, 18.523689900001045]",0,,,,,,,,,,,,,,,,,,,,,,,,,,,,,,,,,,,,,,,,,,,,,,,,,,,,,,,,,,,,,,,,,,,,,,,,,,,,,,,,,,,,,,,,,,,,,,,,,,,,,,,,,,,,,,,,,,,,,,,,,,,,QZV9UY,train_x,blue_star,top_left,2025-09-26_17h05.47.531,HideSeek_v1,2022.2.5,59.87665409611364,
,,,,,,,,,,,,,,,0,0,0,0,2,0,2,0,,,,,,,,,,,,,,,,,,,,,,,,,,,,,,,conditions/schedules/train_x_first/blue_star_00/top_left/instructions/Slide3.png,conditions/schedules/train_x_first/blue_star_00/top_left/instructions/Audio3.wav,769.7784086999891,769.7689926499952,3,"[50.54035450000083, 18.52368280000519, 16.168468500007293]","[0.014429000002564862, 18.523689900001045, 16.168475400001626]",0,,,,,,,,,,,,,,,,,,,,,,,,,,,,,,,,,,,,,,,,,,,,,,,,,,,,,,,,,,,,,,,,,,,,,,,,,,,,,,,,,,,,,,,,,,,,,,,,,,,,,,,,,,,,,,,,,,,,,,,,,,,,QZV9UY,train_x,blue_star,top_left,2025-09-26_17h05.47.531,HideSeek_v1,2022.2.5,59.87665409611364,
,,,,,,,,,,,,,,,0,0,0,0,3,0,3,0,,,,,,,,,,,,,,,,,,,,,,,,,,,,,,,conditions/schedules/train_x_first/blue_star_00/top_left/instructions/Slide4.png,conditions/schedules/train_x_first/blue_star_00/top_left/instructions/Audio4.wav,786.0291261999955,786.0156147499874,4,"[50.54035450000083, 18.52368280000519, 16.168468500007293, 19.334879999994882]","[0.014429000002564862, 18.523689900001045, 0.013751399994362146, 19.334888199999114]",0,,,,,,,,,,,,,,,,,,,,,,,,,,,,,,,,,,,,,,,,,,,,,,,,,,,,,,,,,,,,,,,,,,,,,,,,,,,,,,,,,,,,,,,,,,,,,,,,,,,,,,,,,,,,,,,,,,,,,,,,,,,,QZV9UY,train_x,blue_star,top_left,2025-09-26_17h05.47.531,HideSeek_v1,2022.2.5,59.87665409611364,
,,,,,,,,,,,,,,,0,0,0,0,4,0,4,0,,,,,,,,,,,,,,,,,,,,,,,,,,,,,,,conditions/schedules/train_x_first/blue_star_00/top_left/instructions/Slide5.png,conditions/schedules/train_x_first/blue_star_00/top_left/instructions/Audio5.wav,805.4287974999897,805.4316279499835,5,"[50.54035450000083, 18.52368280000519, 16.168468500007293, 19.334879999994882, 5.038641199993435]","[0.014429000002564862, 18.523689900001045, 0.013751399994362146, 0.03441509998810943, 5.038648799993098]",0,,,,,,,,,,,,,,,,,,,,,,,,,,,,,,,,,,,,,,,,,,,,,,,,,,,,,,,,,,,,,,,,,,,,,,,,,,,,,,,,,,,,,,,,,,,,,,,,,,,,,,,,,,,,,,,,,,,,,,,,,,,,QZV9UY,train_x,blue_star,top_left,2025-09-26_17h05.47.531,HideSeek_v1,2022.2.5,59.87665409611364,
,,,,,,,,,,,,,,,0,0,0,0,5,0,5,0,,,,,,,,,,,,,,,,,,,,,,,,,,,,,,,conditions/schedules/train_x_first/blue_star_00/top_left/instructions/Slide6.png,conditions/schedules/train_x_first/blue_star_00/top_left/instructions/Audio6.wav,810.5190745,810.5193264399859,6,"[50.54035450000083, 18.52368280000519, 16.168468500007293, 19.334879999994882, 5.038641199993435, 5.387190399997053]","[0.014429000002564862, 18.523689900001045, 0.013751399994362146, 0.03441509998810943, 0.03173709999828134, 5.387198299999]",0,,,,,,,,,,,,,,,,,,,,,,,,,,,,,,,,,,,,,,,,,,,,,,,,,,,,,,,,,,,,,,,,,,,,,,,,,,,,,,,,,,,,,,,,,,,,,,,,,,,,,,,,,,,,,,,,,,,,,,,,,,,,QZV9UY,train_x,blue_star,top_left,2025-09-26_17h05.47.531,HideSeek_v1,2022.2.5,59.87665409611364,
,,,,,,,,,,,,,,,0,0,0,0,6,0,6,0,,,,,,,,,,,,,,,,,,,,,,,,,,,,,,,conditions/schedules/train_x_first/blue_star_00/top_left/instructions/Slide7.png,conditions/schedules/train_x_first/blue_star_00/top_left/instructions/Audio7.wav,815.9607684999937,815.9569119399966,7,"[50.54035450000083, 18.52368280000519, 16.168468500007293, 19.334879999994882, 5.038641199993435, 5.387190399997053, 6.2665443000005325]","[0.014429000002564862, 18.523689900001045, 0.013751399994362146, 0.03441509998810943, 0.03173709999828134, 0.014775599993299693, 6.266551299995626]",0,,,,,,,,,,,,,,,,,,,,,,,,,,,,,,,,,,,,,,,,,,,,,,,,,,,,,,,,,,,,,,,,,,,,,,,,,,,,,,,,,,,,,,,,,,,,,,,,,,,,,,,,,,,,,,,,,,,,,,,,,,,,QZV9UY,train_x,blue_star,top_left,2025-09-26_17h05.47.531,HideSeek_v1,2022.2.5,59.87665409611364,
,,,,,,,,,,,,,,,0,0,0,0,7,0,7,0,,,,,,,,,,,,,,,,,,,,,,,,,,,,,,,conditions/schedules/train_x_first/blue_star_00/top_left/instructions/Slide8.png,conditions/schedules/train_x_first/blue_star_00/top_left/instructions/Audio8.wav,822.2829761999892,822.2791097399895,8,"[50.54035450000083, 18.52368280000519, 16.168468500007293, 19.334879999994882, 5.038641199993435, 5.387190399997053, 6.2665443000005325, 12.020206899993354]","[0.014429000002564862, 18.523689900001045, 0.013751399994362146, 0.03441509998810943, 0.03173709999828134, 0.014775599993299693, 0.06318450000253506, 12.020214599993778]",0,,,,,,,,,,,,,,,,,,,,,,,,,,,,,,,,,,,,,,,,,,,,,,,,,,,,,,,,,,,,,,,,,,,,,,,,,,,,,,,,,,,,,,,,,,,,,,,,,,,,,,,,,,,,,,,,,,,,,,,,,,,,QZV9UY,train_x,blue_star,top_left,2025-09-26_17h05.47.531,HideSeek_v1,2022.2.5,59.87665409611364,
,,,,,,,,,,,,,,,0,0,0,0,8,0,8,0,,,,,,,,,,,,,,,,,,,,,,,,,,,,,,,conditions/schedules/train_x_first/blue_star_00/top_left/instructions/Slide9.png,conditions/schedules/train_x_first/blue_star_00/top_left/instructions/Audio9.wav,834.3695327999885,834.372311149993,9,"[50.54035450000083, 18.52368280000519, 16.168468500007293, 19.334879999994882, 5.038641199993435, 5.387190399997053, 6.2665443000005325, 12.020206899993354, 6.088618099995074]","[0.014429000002564862, 18.523689900001045, 0.013751399994362146, 0.03441509998810943, 0.03173709999828134, 0.014775599993299693, 0.06318450000253506, 0.033521199991810136, 6.088625099990168]",0,,,,,,,,,,,,,,,,,,,,,,,,,,,,,,,,,,,,,,,,,,,,,,,,,,,,,,,,,,,,,,,,,,,,,,,,,,,,,,,,,,,,,,,,,,,,,,,,,,,,,,,,,,,,,,,,,,,,,,,,,,,,QZV9UY,train_x,blue_star,top_left,2025-09-26_17h05.47.531,HideSeek_v1,2022.2.5,59.87665409611364,
,,,,,,,,,,,,,,,0,0,0,0,9,0,9,0,,,,,,,,,,,,,,,,,,,,,,,,,,,,,,,conditions/schedules/train_x_first/blue_star_00/top_left/instructions/Slide10.png,conditions/schedules/train_x_first/blue_star_00/top_left/instructions/Audio10.wav,840.4953415999917,840.494203829985,10,"[50.54035450000083, 18.52368280000519, 16.168468500007293, 19.334879999994882, 5.038641199993435, 5.387190399997053, 6.2665443000005325, 12.020206899993354, 6.088618099995074, 7.802349799996591]","[0.014429000002564862, 18.523689900001045, 0.013751399994362146, 0.03441509998810943, 0.03173709999828134, 0.014775599993299693, 0.06318450000253506, 0.033521199991810136, 0.07922479999251664, 7.802356499989401]",0,,,,,,,,,,,,,,,,,,,,,,,,,,,,,,,,,,,,,,,,,,,,,,,,,,,,,,,,,,,,,,,,,,,,,,,,,,,,,,,,,,,,,,,,,,,,,,,,,,,,,,,,,,,,,,,,,,,,,,,,,,,,QZV9UY,train_x,blue_star,top_left,2025-09-26_17h05.47.531,HideSeek_v1,2022.2.5,59.87665409611364,
,,,,,,,,,,,,,,,0,0,0,0,10,0,10,0,,,,,,,,,,,,,,,,,,,,,,,,,,,,,,,conditions/schedules/train_x_first/blue_star_00/top_left/instructions/Slide11.png,conditions/schedules/train_x_first/blue_star_00/top_left/instructions/Audio11.wav,848.3689799999993,848.3674199499874,11,"[50.54035450000083, 18.52368280000519, 16.168468500007293, 19.334879999994882, 5.038641199993435, 5.387190399997053, 6.2665443000005325, 12.020206899993354, 6.088618099995074, 7.802349799996591, 9.72093660000246]","[0.014429000002564862, 18.523689900001045, 0.013751399994362146, 0.03441509998810943, 0.03173709999828134, 0.014775599993299693, 0.06318450000253506, 0.033521199991810136, 0.07922479999251664, 0.04595290000725072, 9.7209440000006]",0,,,,,,,,,,,,,,,,,,,,,,,,,,,,,,,,,,,,,,,,,,,,,,,,,,,,,,,,,,,,,,,,,,,,,,,,,,,,,,,,,,,,,,,,,,,,,,,,,,,,,,,,,,,,,,,,,,,,,,,,,,,,QZV9UY,train_x,blue_star,top_left,2025-09-26_17h05.47.531,HideSeek_v1,2022.2.5,59.87665409611364,
,,,,,,,,,,,,,,,0,0,0,0,11,0,11,0,,,,,,,,,,,,,,,,,,,,,,,,,,,,,,,conditions/schedules/train_x_first/blue_star_00/top_left/instructions/Slide12.png,conditions/schedules/train_x_first/blue_star_00/top_left/instructions/Audio12.wav,858.1446544999926,858.1421962399909,12,"[50.54035450000083, 18.52368280000519, 16.168468500007293, 19.334879999994882, 5.038641199993435, 5.387190399997053, 6.2665443000005325, 12.020206899993354, 6.088618099995074, 7.802349799996591, 9.72093660000246, 12.805498399990029]","[0.014429000002564862, 18.523689900001045, 0.013751399994362146, 0.03441509998810943, 0.03173709999828134, 0.014775599993299693, 0.06318450000253506, 0.033521199991810136, 0.07922479999251664, 0.04595290000725072, 0.046332799989613704, 12.805505399999674]",0,,,,,,,,,,,,,,,,,,,,,,,,,,,,,,,,,,,,,,,,,,,,,,,,,,,,,,,,,,,,,,,,,,,,,,,,,,,,,,,,,,,,,,,,,,,,,,,,,,,,,,,,,,,,,,,,,,,,,,,,,,,,QZV9UY,train_x,blue_star,top_left,2025-09-26_17h05.47.531,HideSeek_v1,2022.2.5,59.87665409611364,
1,4,5,9,5,5,0,11,2,instr_dim1_1,,,,,,0,0,0,0,,,,,0,0,0,0,,,,,,,,,,,,,,,,,,,,,,,,,,,,,,,,,,,,,stimuli/alien_stimuli/11.png,conditions/schedules/train_x_first/blue_star_00/top_left/inputInstr_1.xlsx,stimuli/alien_stimuli/11.png,871.056863299993,871.056863299993,871.056863299993,871.056863299993,871.0528823699933,return,8.786891500014463,"[-0.16, -0.08, 0, 0.08, 0.16, 0.24, 0.32, 0.4, 0.48, 0.56]","[-0.4, -0.32, -0.24, -0.16, -0.08, 0, 0.08, 0.16, 0.24, 0.32]",5,5,9,4,0.0,0.4,880.0001347999932,880.0001347999932,880.0001347999932,880.0001347999932,880.0001347999932,880.0001347999932,880.0001347999932,879.9937658899944,6.555698399999528,return,6.386389900013455,stimuli/alien_stimuli/11.png,11,4,1,,,,,,,,,,,,,,,,,,,,,,,,,,,,,,,,,,,,,,,,,,,,,,,,,,,,,,,,,,,,,,,,,,,,,,,,,,,,,,,,,,,,,,,,,QZV9UY,train_x,blue_star,top_left,2025-09-26_17h05.47.531,HideSeek_v1,2022.2.5,59.87665409611364,
,,,,,,,,,,,30,,,,0,0,0,0,,,,,,,,,,,,,,,,,,,,,,,,,,,,,,,,,,,,,,,,,,,,,,,,,,,,,,,,,,,,,,,,,,,,,,,,,,,,,,21,0.7,0,0,99,1,30,0,conditions/schedules/train_x_first/blue_star_00/top_left/inputTrain_1.1.xlsx,99,1,1,1,0,,,,,,,,,,,,,,,,,,,,,,,,,,,,,,,,,,,,,,,,,,,,,,,,,,,,,,,,,,,,,,,,,,,,,,,,,,,QZV9UY,train_x,blue_star,top_left,2025-09-26_17h05.47.531,HideSeek_v1,2022.2.5,59.87665409611364,
,,,,,,,,,,,,,,,1,0,1,0,0,0,0,0,,,,,,,,,,,,,,,,,,,,,,,,,,,,,,,conditions/schedules/train_x_first/blue_star_00/top_left/instructions/Slide13.png,conditions/schedules/train_x_first/blue_star_00/top_left/instructions/Audio13.wav,886.5685875999916,886.5655220999906,13,"[50.54035450000083, 18.52368280000519, 16.168468500007293, 19.334879999994882, 5.038641199993435, 5.387190399997053, 6.2665443000005325, 12.020206899993354, 6.088618099995074, 7.802349799996591, 9.72093660000246, 12.805498399990029, 16.82557669999369]","[0.014429000002564862, 18.523689900001045, 0.013751399994362146, 0.03441509998810943, 0.03173709999828134, 0.014775599993299693, 0.06318450000253506, 0.033521199991810136, 0.07922479999251664, 0.04595290000725072, 0.046332799989613704, 12.805505399999674, 16.825583699988783]",0,,,,,,,,,,,,,,,,,,,,,,,,,,,,,,,,,,,,,,,,,,,,,,,,,,,,,,,,,,,,,,,,,,,,,,,,,,,,,,,,,,,,,,,,,,,,,,,,,,,,,,,,,,,,,,,,,,,,,,,,,,,,QZV9UY,train_x,blue_star,top_left,2025-09-26_17h05.47.531,HideSeek_v1,2022.2.5,59.87665409611364,
,,,,,,,,,,,,,,,1,0,1,0,1,0,1,0,,,,,,,,,,,,,,,,,,,,,,,,,,,,,,,conditions/schedules/train_x_first/blue_star_00/top_left/instructions/Slide14.png,conditions/schedules/train_x_first/blue_star_00/top_left/instructions/Audio14.wav,903.4625991999928,903.4630651499829,14,"[50.54035450000083, 18.52368280000519, 16.168468500007293, 19.334879999994882, 5.038641199993435, 5.387190399997053, 6.2665443000005325, 12.020206899993354, 6.088618099995074, 7.802349799996591, 9.72093660000246, 12.805498399990029, 16.82557669999369, 13.025402600003872]","[0.014429000002564862, 18.523689900001045, 0.013751399994362146, 0.03441509998810943, 0.03173709999828134, 0.014775599993299693, 0.06318450000253506, 0.033521199991810136, 0.07922479999251664, 0.04595290000725072, 0.046332799989613704, 12.805505399999674, 16.825583699988783, 13.025410000002012]",0,,,,,,,,,,,,,,,,,,,,,,,,,,,,,,,,,,,,,,,,,,,,,,,,,,,,,,,,,,,,,,,,,,,,,,,,,,,,,,,,,,,,,,,,,,,,,,,,,,,,,,,,,,,,,,,,,,,,,,,,,,,,QZV9UY,train_x,blue_star,top_left,2025-09-26_17h05.47.531,HideSeek_v1,2022.2.5,59.87665409611364,
2,3,7,3,7,0,0,61,2,instr_dim1_1,,,,,,1,0,1,0,,,,,0,0,0,0,,,,,,,,,,,,,,,,,,,,,,,,,,,,,,,,,,,,,stimuli/alien_stimuli/61.png,conditions/schedules/train_x_first/blue_star_00/top_left/inputInstr_1.xlsx,stimuli/alien_stimuli/61.png,916.5966309999931,916.5966309999931,916.5966309999931,916.5966309999931,916.5907878699873,return,6.582034600010957,"[-0.16, -0.08, 0, 0.08, 0.16, 0.24, 0.32, 0.4, 0.48, 0.56]","[-0.4, -0.32, -0.24, -0.16, -0.08, 0, 0.08, 0.16, 0.24, 0.32]",7,7,3,3,0.0,0.0,923.3346622999961,923.3346622999961,923.3346622999961,923.3346622999961,923.3346622999961,923.3346622999961,923.3346622999961,923.312861679995,5.588901600000099,return,5.419016500003636,stimuli/alien_stimuli/61.png,61,3,2,,,,,,,,,,,,,,,,,,,,,,,,,,,,,,,,,,,,,,,,,,,,,,,,,,,,,,,,,,,,,,,,,,,,,,,,,,,,,,,,,,,,,,,,,QZV9UY,train_x,blue_star,top_left,2025-09-26_17h05.47.531,HideSeek_v1,2022.2.5,59.87665409611364,
,,,,,,,,,,,30,,,,1,0,1,0,,,,,,,,,,,,,,,,,,,,,,,,,,,,,,,,,,,,,,,,,,,,,,,,,,,,,,,,,,,,,,,,,,,,,,,,,,,,,,21,0.7,0,0,99,1,30,0,conditions/schedules/train_x_first/blue_star_00/top_left/inputTrain_1.1.xlsx,99,1,1,1,0,,,,,,,,,,,,,,,,,,,,,,,,,,,,,,,,,,,,,,,,,,,,,,,,,,,,,,,,,,,,,,,,,,,,,,,,,,,QZV9UY,train_x,blue_star,top_left,2025-09-26_17h05.47.531,HideSeek_v1,2022.2.5,59.87665409611364,
,,,,,,,,,,,,,,,2,0,2,0,0,0,0,0,,,,,,,,,,,,,,,,,,,,,,,,,,,,,,,conditions/schedules/train_x_first/blue_star_00/top_left/instructions/Slide15.png,conditions/schedules/train_x_first/blue_star_00/top_left/instructions/Audio15.wav,928.939263999986,928.9342149999866,15,"[50.54035450000083, 18.52368280000519, 16.168468500007293, 19.334879999994882, 5.038641199993435, 5.387190399997053, 6.2665443000005325, 12.020206899993354, 6.088618099995074, 7.802349799996591, 9.72093660000246, 12.805498399990029, 16.82557669999369, 13.025402600003872, 30.051190800004406]","[0.014429000002564862, 18.523689900001045, 0.013751399994362146, 0.03441509998810943, 0.03173709999828134, 0.014775599993299693, 0.06318450000253506, 0.033521199991810136, 0.07922479999251664, 0.04595290000725072, 0.046332799989613704, 12.805505399999674, 16.825583699988783, 13.025410000002012, 30.051197200009483]",0,,,,,,,,,,,,,,,,,,,,,,,,,,,,,,,,,,,,,,,,,,,,,,,,,,,,,,,,,,,,,,,,,,,,,,,,,,,,,,,,,,,,,,,,,,,,,,,,,,,,,,,,,,,,,,,,,,,,,,,,,,,,QZV9UY,train_x,blue_star,top_left,2025-09-26_17h05.47.531,HideSeek_v1,2022.2.5,59.87665409611364,
,,,,,,,,,,,,,,,2,0,2,0,1,0,1,0,,,,,,,,,,,,,,,,,,,,,,,,,,,,,,,conditions/schedules/train_x_first/blue_star_00/top_left/instructions/Slide16.png,conditions/schedules/train_x_first/blue_star_00/top_left/instructions/Audio16.wav,959.0605606999889,959.0594216499958,16,"[50.54035450000083, 18.52368280000519, 16.168468500007293, 19.334879999994882, 5.038641199993435, 5.387190399997053, 6.2665443000005325, 12.020206899993354, 6.088618099995074, 7.802349799996591, 9.72093660000246, 12.805498399990029, 16.82557669999369, 13.025402600003872, 30.051190800004406, 21.030680699986988]","[0.014429000002564862, 18.523689900001045, 0.013751399994362146, 0.03441509998810943, 0.03173709999828134, 0.014775599993299693, 0.06318450000253506, 0.033521199991810136, 0.07922479999251664, 0.04595290000725072, 0.046332799989613704, 12.805505399999674, 16.825583699988783, 13.025410000002012, 0.00022249999165069312, 21.030687599995872]",0,,,,,,,,,,,,,,,,,,,,,,,,,,,,,,,,,,,,,,,,,,,,,,,,,,,,,,,,,,,,,,,,,,,,,,,,,,,,,,,,,,,,,,,,,,,,,,,,,,,,,,,,,,,,,,,,,,,,,,,,,,,,QZV9UY,train_x,blue_star,top_left,2025-09-26_17h05.47.531,HideSeek_v1,2022.2.5,59.87665409611364,
,2,6,5,6,3,0,31,,train_dim1_1,1,30,,,,2,0,2,0,,,,,,,,,0,0,0,0,0,0,0,0,0,0,0,0,,,,,,,,,,,,,,,,,,,,,,,,,stimuli/alien_stimuli/31.png,,,,,,,,,,,,,,,,,,,,,,,,,,,,,,,,,,,,,,,30,,,,,,,,980.2008325999923,980.2008325999923,980.2008325999923,980.2008325999923,980.2008325999923,right,4.155285399989225,0,0,0,99,0.08,0.08,right,4.063691700008349,,,,,,,,,,,,,,,,,,,,,,,,,,,,,,,,,,,,,,,,,,,,,,,,,,,,,,,,,,,,QZV9UY,train_x,blue_star,top_left,2025-09-26_17h05.47.531,HideSeek_v1,2022.2.5,59.87665409611364,
,2,6,5,6,3,0,31,,train_dim1_1,1,30,,,,2,0,2,0,,,,,,,,,0,0,0,0,0,0,0,0,1,0,1,0,,,,,,,,,,,,,,,,,,,,,,,,,,,,,,,,,,,,,,,,,,,,,,,,,,,,,,,,,,,,,,,,30,,,,,,,,984.3454104999983,984.3454104999983,984.3454104999983,984.3454104999983,984.3454104999983,right,1.8103467000037199,0,0,0,99,0.16,0.08,right,1.7239009000186343,,,,,,,,,,,,,,,,,,,,,,,,,,,,,,,,,,,,,,,,,,,,,,,,,,,,,,,,,,,,QZV9UY,train_x,blue_star,top_left,2025-09-26_17h05.47.531,HideSeek_v1,2022.2.5,59.87665409611364,
,2,6,5,6,3,0,31,,train_dim1_1,1,30,,,,2,0,2,0,,,,,,,,,0,0,0,0,0,0,0,0,2,0,2,0,,,,,,,,,,,,,,,,,,,,,,,,,,,,,,,,,,,,,,,,,,,,,,,,,,,,,,,,,,,,,,,,30,,,,,,,,986.1651089999941,986.1651089999941,986.1651089999941,986.1651089999941,986.1651089999941,right,1.5414681999973254,0,0,0,99,0.24,0.08,right,1.4574054000113392,,,,,,,,,,,,,,,,,,,,,,,,,,,,,,,,,,,,,,,,,,,,,,,,,,,,,,,,,,,,QZV9UY,train_x,blue_star,top_left,2025-09-26_17h05.47.531,HideSeek_v1,2022.2.5,59.87665409611364,
,2,6,5,6,3,0,31,,train_dim1_1,1,30,,,,2,0,2,0,,,,,,,,,0,0,0,0,0,0,0,0,3,0,3,0,,,,,,,,,,,,,,,,,,,,,,,,,,,,,,,,,,,,,,,,,,,,,,,,,,,,,,,,,,,,,,,,30,,,,,,,,987.7143196999968,987.7143196999968,987.7143196999968,987.7143196999968,987.7143196999968,right,0.6255910000036238,0,0,0,99,0.32,0.08,right,0.5371442000177922,,,,,,,,,,,,,,,,,,,,,,,,,,,,,,,,,,,,,,,,,,,,,,,,,,,,,,,,,,,,QZV9UY,train_x,blue_star,top_left,2025-09-26_17h05.47.531,HideSeek_v1,2022.2.5,59.87665409611364,
,2,6,5,6,3,0,31,,train_dim1_1,1,30,,,,2,0,2,0,,,,,,,,,0,0,0,0,0,0,0,0,4,0,4,0,,,,,,,,,,,,,,,,,,,,,,,,,,,,,,,,,,,,,,,,,,,,,,,,,,,,,,,,,,,,,,,,30,,,,,,,,988.3474687999988,988.3474687999988,988.3474687999988,988.3474687999988,988.3474687999988,right,1.8445866999973077,0,0,0,99,0.4,0.08,right,1.757942300013383,,,,,,,,,,,,,,,,,,,,,,,,,,,,,,,,,,,,,,,,,,,,,,,,,,,,,,,,,,,,QZV9UY,train_x,blue_star,top_left,2025-09-26_17h05.47.531,HideSeek_v1,2022.2.5,59.87665409611364,
,2,6,5,6,3,0,31,,train_dim1_1,1,30,,,,2,0,2,0,,,,,,,,,0,0,0,0,0,0,0,0,5,0,5,0,,,,,,,,,,,,,,,,,,,,,,,,,,,,,,,,,,,,,,,,,,,,,,,,,,,,,,,,,,,,,,,,30,,,,,,,,990.2010698999948,990.2010698999948,990.2010698999948,990.2010698999948,990.2010698999948,return,3.0591975999996066,0,0,0,0,0.4,0.08,return,2.976737500022864,0,5,0.4,0.08,,,,,,,,,,,,,,,,,,,,,,,,,,,,,,,,,,,,,,,,,,,,,,,,,,,,,,,,QZV9UY,train_x,blue_star,top_left,2025-09-26_17h05.47.531,HideSeek_v1,2022.2.5,59.87665409611364,
,2,9,7,9,5,0,11,,train_dim1_1,2,30,,,,2,0,2,0,,,,,,,,,0,0,0,0,0,1,1,1,0,0,0,0,,,,,,,,,,,,,,,,,,,,,,,,,stimuli/alien_stimuli/11.png,,,,,,,,,,,,,,,,,,,,,,,,,,,,,stimuli/alien_stimuli/31.png,31,2,3,,,,,,,30,,,,,,,,1009.510890199992,1009.510890199992,1009.510890199992,1009.510890199992,1009.510890199992,right,2.9920357999944827,0,0,0,99,0.08,0.32,right,2.8778956000023754,,,,,1007.9331741999922,1009.510890199992,0.24,0.08,0.0,0.24,0.08,0.24,0.12,0.24,0.08,994.8535515999974,994.8535515999974,994.8535515999974,994.8535515999974,994.8535515999974,994.8535515999974,994.8535515999974,994.8535515999974,994.8390057799843,13.21337169999606,return,13.048084400012158,,,,,,,,,,,,,,,,,,,,,,,,,,,,,,,,,QZV9UY,train_x,blue_star,top_left,2025-09-26_17h05.47.531,HideSeek_v1,2022.2.5,59.87665409611364,
,2,9,7,9,5,0,11,,train_dim1_1,2,30,,,,2,0,2,0,,,,,,,,,0,0,0,0,0,1,1,1,1,0,1,0,,,,,,,,,,,,,,,,,,,,,,,,,,,,,,,,,,,,,,,,,,,,,,,,,,,,,,,,,,,,,,,,30,,,,,,,,1012.4895631999971,1012.4895631999971,1012.4895631999971,1012.4895631999971,1012.4895631999971,down,1.3753103999915766,0,0,0,99,0.08,0.24,down,1.2940493000060087,,,,,,,,,,,,,,,,,,,,,,,,,,,,,,,,,,,,,,,,,,,,,,,,,,,,,,,,,,,,QZV9UY,train_x,blue_star,top_left,2025-09-26_17h05.47.531,HideSeek_v1,2022.2.5,59.87665409611364,
,2,9,7,9,5,0,11,,train_dim1_1,2,30,,,,2,0,2,0,,,,,,,,,0,0,0,0,0,1,1,1,2,0,2,0,,,,,,,,,,,,,,,,,,,,,,,,,,,,,,,,,,,,,,,,,,,,,,,,,,,,,,,,,,,,,,,,30,,,,,,,,1013.875578399995,1013.875578399995,1013.875578399995,1013.875578399995,1013.875578399995,down,0.4737736999959452,0,0,0,99,0.08,0.15999999999999998,down,0.38770730001851916,,,,,,,,,,,,,,,,,,,,,,,,,,,,,,,,,,,,,,,,,,,,,,,,,,,,,,,,,,,,QZV9UY,train_x,blue_star,top_left,2025-09-26_17h05.47.531,HideSeek_v1,2022.2.5,59.87665409611364,
,2,9,7,9,5,0,11,,train_dim1_1,2,30,,,,2,0,2,0,,,,,,,,,0,0,0,0,0,1,1,1,3,0,3,0,,,,,,,,,,,,,,,,,,,,,,,,,,,,,,,,,,,,,,,,,,,,,,,,,,,,,,,,,,,,,,,,30,,,,,,,,1014.3561877999891,1014.3561877999891,1014.3561877999891,1014.3561877999891,1014.3561877999891,left,1.3274597999989055,0,0,0,99,0.0,0.15999999999999998,left,1.2487912000215147,,,,,,,,,,,,,,,,,,,,,,,,,,,,,,,,,,,,,,,,,,,,,,,,,,,,,,,,,,,,QZV9UY,train_x,blue_star,top_left,2025-09-26_17h05.47.531,HideSeek_v1,2022.2.5,59.87665409611364,
,2,9,7,9,5,0,11,,train_dim1_1,2,30,,,,2,0,2,0,,,,,,,,,0,0,0,0,0,1,1,1,4,0,4,0,,,,,,,,,,,,,,,,,,,,,,,,,,,,,,,,,,,,,,,,,,,,,,,,,,,,,,,,,,,,,,,,30,,,,,,,,1015.6934101999941,1015.6934101999941,1015.6934101999941,1015.6934101999941,1015.6934101999941,down,0.8902492000052007,0,0,0,99,0.0,0.07999999999999997,down,0.79912680000416,,,,,,,,,,,,,,,,,,,,,,,,,,,,,,,,,,,,,,,,,,,,,,,,,,,,,,,,,,,,QZV9UY,train_x,blue_star,top_left,2025-09-26_17h05.47.531,HideSeek_v1,2022.2.5,59.87665409611364,
,2,9,7,9,5,0,11,,train_dim1_1,2,30,,,,2,0,2,0,,,,,,,,,0,0,0,0,0,1,1,1,5,0,5,0,,,,,,,,,,,,,,,,,,,,,,,,,,,,,,,,,,,,,,,,,,,,,,,,,,,,,,,,,,,,,,,,30,,,,,,,,1016.5940959999862,1016.5940959999862,1016.5940959999862,1016.5940959999862,1016.5940959999862,down,0.8410288000013679,0,0,0,99,0.0,-2.7755575615628914e-17,down,0.7482031000108691,,,,,,,,,,,,,,,,,,,,,,,,,,,,,,,,,,,,,,,,,,,,,,,,,,,,,,,,,,,,QZV9UY,train_x,blue_star,top_left,2025-09-26_17h05.47.531,HideSeek_v1,2022.2.5,59.87665409611364,
,2,9,7,9,5,0,11,,train_dim1_1,2,30,,,,2,0,2,0,,,,,,,,,0,0,0,0,0,1,1,1,6,0,6,0,,,,,,,,,,,,,,,,,,,,,,,,,,,,,,,,,,,,,,,,,,,,,,,,,,,,,,,,,,,,,,,,30,,,,,,,,1017.4416789999959,1017.4416789999959,1017.4416789999959,1017.4416789999959,1017.4416789999959,return,0.9436672000010731,0,0,0,0,0.0,-2.7755575615628914e-17,return,0.8597808000049554,-4,5,0.0,-2.7755575615628914e-17,,,,,,,,,,,,,,,,,,,,,,,,,,,,,,,,,,,,,,,,,,,,,,,,,,,,,,,,QZV9UY,train_x,blue_star,top_left,2025-09-26_17h05.47.531,HideSeek_v1,2022.2.5,59.87665409611364,
,4,9,8,9,4,0,21,,train_dim1_1,3,30,,,,2,0,2,0,,,,,,,,,0,0,0,0,0,2,2,2,0,0,0,0,,,,,,,,,,,,,,,,,,,,,,,,,stimuli/alien_stimuli/21.png,,,,,,,,,,,,,,,,,,,,,,,,,,,,,stimuli/alien_stimuli/11.png,11,2,4,,,,,,,30,,,,,,,,1032.406470499991,1032.406470499991,1032.406470499991,1032.406470499991,1032.406470499991,right,2.305033299999195,0,0,0,99,0.24,0.32,right,2.199826000010944,,,,,1030.819069899997,1032.406470499991,0.4,0.32,0.0,0.4,0.32,0.4,0.2,0.4,0.32,1019.9759725999902,1019.9759725999902,1019.9759725999902,1019.9759725999902,1019.9759725999902,1019.9759725999902,1019.9759725999902,1019.9759725999902,1019.9597635799873,10.97785660000227,return,10.815201200006413,,,,,,,,,,,,,,,,,,,,,,,,,,,,,,,,,QZV9UY,train_x,blue_star,top_left,2025-09-26_17h05.47.531,HideSeek_v1,2022.2.5,59.87665409611364,
,4,9,8,9,4,0,21,,train_dim1_1,3,30,,,,2,0,2,0,,,,,,,,,0,0,0,0,0,2,2,2,1,0,1,0,,,,,,,,,,,,,,,,,,,,,,,,,,,,,,,,,,,,,,,,,,,,,,,,,,,,,,,,,,,,,,,,30,,,,,,,,1034.6908838999952,1034.6908838999952,1034.6908838999952,1034.6908838999952,1034.6908838999952,right,0.37577199999941513,0,0,0,99,0.32,0.32,right,0.2909347000095295,,,,,,,,,,,,,,,,,,,,,,,,,,,,,,,,,,,,,,,,,,,,,,,,,,,,,,,,,,,,QZV9UY,train_x,blue_star,top_left,2025-09-26_17h05.47.531,HideSeek_v1,2022.2.5,59.87665409611364,
,4,9,8,9,4,0,21,,train_dim1_1,3,30,,,,2,0,2,0,,,,,,,,,0,0,0,0,0,2,2,2,2,0,2,0,,,,,,,,,,,,,,,,,,,,,,,,,,,,,,,,,,,,,,,,,,,,,,,,,,,,,,,,,,,,,,,,30,,,,,,,,1035.0742926999956,1035.0742926999956,1035.0742926999956,1035.0742926999956,1035.0742926999956,right,0.39228620000358205,0,0,0,99,0.4,0.32,right,0.3086318999994546,,,,,,,,,,,,,,,,,,,,,,,,,,,,,,,,,,,,,,,,,,,,,,,,,,,,,,,,,,,,QZV9UY,train_x,blue_star,top_left,2025-09-26_17h05.47.531,HideSeek_v1,2022.2.5,59.87665409611364,
,4,9,8,9,4,0,21,,train_dim1_1,3,30,,,,2,0,2,0,,,,,,,,,0,0,0,0,0,2,2,2,3,0,3,0,,,,,,,,,,,,,,,,,,,,,,,,,,,,,,,,,,,,,,,,,,,,,,,,,,,,,,,,,,,,,,,,30,,,,,,,,1035.4731401999888,1035.4731401999888,1035.4731401999888,1035.4731401999888,1035.4731401999888,return,1.4273632999975234,0,1,0,0,0.4,0.32,return,1.338346200020169,-4,8,0.4,0.32,,,,,,,,,,,,,,,,,,,,,,,,,,,,,,,,,,,,,,,,,,,,,,,,,,,,,,,,QZV9UY,train_x,blue_star,top_left,2025-09-26_17h05.47.531,HideSeek_v1,2022.2.5,59.87665409611364,
,2,8,3,8,1,0,51,,train_dim1_1,4,30,,,,2,0,2,0,,,,,,,,,0,0,0,0,0,3,3,3,0,0,0,0,,,,,,,,,,,,,,,,,,,,,,,,,stimuli/alien_stimuli/51.png,,,,,,,,,,,,,,,,,,,,,,,,,,,,,stimuli/alien_stimuli/21.png,21,4,5,,,,,,,30,,,,,,,,1046.8113378999988,1046.8113378999988,1046.8113378999988,1046.8113378999988,1046.8113378999988,return,0.2870898999972269,0,1,0,0,0,0.24,return,0.19186920001811814,-4,8,0,0.24,1045.2473283999861,1046.8113378999988,0.48,0.32,0.0,0.32,0.32,0.48,0.32,0.48,0.32,1038.4816019999998,1038.4816019999998,1038.4816019999998,1038.4816019999998,1038.4816019999998,1038.4816019999998,1038.4816019999998,1038.4816019999998,1038.4584406699942,6.891399600004661,return,6.735378900004434,,,,,,,,,,,,,,,,,,,,,,,,,,,,,,,,,QZV9UY,train_x,blue_star,top_left,2025-09-26_17h05.47.531,HideSeek_v1,2022.2.5,59.87665409611364,
,0,7,0,7,0,0,61,,train_dim1_1,5,30,,,,2,0,2,0,,,,,,,,,0,0,0,0,0,4,4,4,0,0,0,0,,,,,,,,,,,,,,,,,,,,,,,,,stimuli/alien_stimuli/61.png,,,,,,,,,,,,,,,,,,,,,,,,,,,,,stimuli/alien_stimuli/51.png,51,2,6,,,,,,,30,,,,,,,,1054.7142348999914,1054.7142348999914,1054.7142348999914,1054.7142348999914,1054.7142348999914,right,2.1897888999956194,0,1,0,99,-0.08,0.16,right,2.10545680001087,,,,,1053.1540596999985,1054.7142348999914,0.08,0.24,0.0,0.08,0.24,0.08,0.04,0.08,0.24,1048.6689544999972,1048.6689544999972,1048.6689544999972,1048.6689544999972,1048.6689544999972,1048.6689544999972,1048.6689544999972,1048.6689544999972,1048.650598669985,4.60567620000802,return,4.469364500007941,,,,,,,,,,,,,,,,,,,,,,,,,,,,,,,,,QZV9UY,train_x,blue_star,top_left,2025-09-26_17h05.47.531,HideSeek_v1,2022.2.5,59.87665409611364,
,0,7,0,7,0,0,61,,train_dim1_1,5,30,,,,2,0,2,0,,,,,,,,,0,0,0,0,0,4,4,4,1,0,1,0,,,,,,,,,,,,,,,,,,,,,,,,,,,,,,,,,,,,,,,,,,,,,,,,,,,,,,,,,,,,,,,,30,,,,,,,,1056.9049989999912,1056.9049989999912,1056.9049989999912,1056.9049989999912,1056.9049989999912,return,1.5765649999957532,0,1,0,0,-0.08,0.16,return,1.5008751999994274,-4,9,-0.08,0.16,,,,,,,,,,,,,,,,,,,,,,,,,,,,,,,,,,,,,,,,,,,,,,,,,,,,,,,,QZV9UY,train_x,blue_star,top_left,2025-09-26_17h05.47.531,HideSeek_v1,2022.2.5,59.87665409611364,
,0,5,4,5,4,0,21,,train_dim1_1,6,30,,,,2,0,2,0,,,,,,,,,0,0,0,0,0,5,5,5,0,0,0,0,,,,,,,,,,,,,,,,,,,,,,,,,stimuli/alien_stimuli/21.png,,,,,,,,,,,,,,,,,,,,,,,,,,,,,stimuli/alien_stimuli/61.png,61,0,7,,,,,,,30,,,,,,,,1064.6116432999988,1064.6116432999988,1064.6116432999988,1064.6116432999988,1064.6116432999988,right,3.639967399998568,0,1,0,99,-0.08,0,right,3.5499174000142375,,,,,1063.0455884999974,1064.6116432999988,-0.16,0.16,0.0,0.0,0.16,-0.16,-0.16,-0.16,0.16,1060.0572307999973,1060.0572307999973,1060.0572307999973,1060.0572307999973,1060.0572307999973,1060.0572307999973,1060.0572307999973,1060.0572307999973,1060.0430288699936,3.104890599992359,return,2.965026100020623,,,,,,,,,,,,,,,,,,,,,,,,,,,,,,,,,QZV9UY,train_x,blue_star,top_left,2025-09-26_17h05.47.531,HideSeek_v1,2022.2.5,59.87665409611364,
,0,5,4,5,4,0,21,,train_dim1_1,6,30,,,,2,0,2,0,,,,,,,,,0,0,0,0,0,5,5,5,1,0,1,0,,,,,,,,,,,,,,,,,,,,,,,,,,,,,,,,,,,,,,,,,,,,,,,,,,,,,,,,,,,,,,,,30,,,,,,,,1068.2528138999915,1068.2528138999915,1068.2528138999915,1068.2528138999915,1068.2528138999915,right,0.42490209999959916,0,1,0,99,0.0,0,right,0.3340603000106057,,,,,,,,,,,,,,,,,,,,,,,,,,,,,,,,,,,,,,,,,,,,,,,,,,,,,,,,,,,,QZV9UY,train_x,blue_star,top_left,2025-09-26_17h05.47.531,HideSeek_v1,2022.2.5,59.87665409611364,
,0,5,4,5,4,0,21,,train_dim1_1,6,30,,,,2,0,2,0,,,,,,,,,0,0,0,0,0,5,5,5,2,0,2,0,,,,,,,,,,,,,,,,,,,,,,,,,,,,,,,,,,,,,,,,,,,,,,,,,,,,,,,,,,,,,,,,30,,,,,,,,1068.684702499988,1068.684702499988,1068.684702499988,1068.684702499988,1068.684702499988,right,0.44320470000093337,0,1,0,99,0.08,0,right,0.36086350001278333,,,,,,,,,,,,,,,,,,,,,,,,,,,,,,,,,,,,,,,,,,,,,,,,,,,,,,,,,,,,QZV9UY,train_x,blue_star,top_left,2025-09-26_17h05.47.531,HideSeek_v1,2022.2.5,59.87665409611364,
,0,5,4,5,4,0,21,,train_dim1_1,6,30,,,,2,0,2,0,,,,,,,,,0,0,0,0,0,5,5,5,3,0,3,0,,,,,,,,,,,,,,,,,,,,,,,,,,,,,,,,,,,,,,,,,,,,,,,,,,,,,,,,,,,,,,,,30,,,,,,,,1069.1345197999908,1069.1345197999908,1069.1345197999908,1069.1345197999908,1069.1345197999908,return,2.261748000004445,0,1,0,0,0.08,0,return,2.1725351000204682,-4,12,0.08,0,,,,,,,,,,,,,,,,,,,,,,,,,,,,,,,,,,,,,,,,,,,,,,,,,,,,,,,,QZV9UY,train_x,blue_star,top_left,2025-09-26_17h05.47.531,HideSeek_v1,2022.2.5,59.87665409611364,
,3,5,3,5,0,0,61,,train_dim1_1,7,30,,,,2,0,2,0,,,,,,,,,0,0,0,0,0,6,6,6,0,0,0,0,,,,,,,,,,,,,,,,,,,,,,,,,stimuli/alien_stimuli/61.png,,,,,,,,,,,,,,,,,,,,,,,,,,,,,stimuli/alien_stimuli/21.png,21,0,8,,,,,,,30,,,,,,,,1077.4033688999916,1077.4033688999916,1077.4033688999916,1077.4033688999916,1077.4033688999916,right,2.302014800006873,0,1,0,99,0.16,0,right,2.22019080001337,,,,,1075.839547399999,1077.4033688999916,0.16,0,0.0,0.32,0.0,0.16,0.0,0.16,0,1072.9811995999917,1072.9811995999917,1072.9811995999917,1072.9811995999917,1072.9811995999917,1072.9811995999917,1072.9811995999917,1072.9811995999917,1072.9704499799846,2.9877865000016754,return,2.8280105000012554,,,,,,,,,,,,,,,,,,,,,,,,,,,,,,,,,QZV9UY,train_x,blue_star,top_left,2025-09-26_17h05.47.531,HideSeek_v1,2022.2.5,59.87665409611364,
,3,5,3,5,0,0,61,,train_dim1_1,7,30,,,,2,0,2,0,,,,,,,,,0,0,0,0,0,6,6,6,1,0,1,0,,,,,,,,,,,,,,,,,,,,,,,,,,,,,,,,,,,,,,,,,,,,,,,,,,,,,,,,,,,,,,,,30,,,,,,,,1079.706028799992,1079.706028799992,1079.706028799992,1079.706028799992,1079.706028799992,left,3.8791687000048114,0,1,0,99,0.08,0,left,3.8050927000149386,,,,,,,,,,,,,,,,,,,,,,,,,,,,,,,,,,,,,,,,,,,,,,,,,,,,,,,,,,,,QZV9UY,train_x,blue_star,top_left,2025-09-26_17h05.47.531,HideSeek_v1,2022.2.5,59.87665409611364,
,3,5,3,5,0,0,61,,train_dim1_1,7,30,,,,2,0,2,0,,,,,,,,,0,0,0,0,0,6,6,6,2,0,2,0,,,,,,,,,,,,,,,,,,,,,,,,,,,,,,,,,,,,,,,,,,,,,,,,,,,,,,,,,,,,,,,,30,,,,,,,,1083.5926711999928,1083.5926711999928,1083.5926711999928,1083.5926711999928,1083.5926711999928,return,0.5931331999890972,1,0,0,1,0.08,0,return,0.5109270000102697,-4,12,0.08,0,,,,,,,,,,,,,,,,,,,,,,,,,,,,,,,,,,,,,,,,,,,,,,,,,,,,,,,,QZV9UY,train_x,blue_star,top_left,2025-09-26_17h05.47.531,HideSeek_v1,2022.2.5,59.87665409611364,
,0,9,3,9,3,0,31,,train_dim1_1,8,30,,,,2,0,2,0,,,,,,,,,0,0,0,0,0,7,7,7,0,0,0,0,,,,,,,,,,,,,,,,,,,,,,,,,stimuli/alien_stimuli/31.png,,,,,,,,,,,,,,,,,,,,,,,,,,,,,stimuli/alien_stimuli/61.png,61,3,9,,,,,,,30,,,,,,,,1091.8800100999943,1091.8800100999943,1091.8800100999943,1091.8800100999943,1091.8800100999943,down,2.855220500001451,1,0,0,99,-0.16,0.24,down,2.774803200009046,,,,,1090.3183011999936,1091.8800100999943,0.08,0,0.0,0.0,0.0,0.08,0.08,0.08,0,1085.7677373999904,1085.7677373999904,1085.7677373999904,1085.7677373999904,1085.7677373999904,1085.7677373999904,1085.7677373999904,1085.7677373999904,1085.7477990699917,4.672557099998812,return,4.52634070001659,,,,,,,,,,,,,,,,,,,,,,,,,,,,,,,,,QZV9UY,train_x,blue_star,top_left,2025-09-26_17h05.47.531,HideSeek_v1,2022.2.5,59.87665409611364,
,0,9,3,9,3,0,31,,train_dim1_1,8,30,,,,2,0,2,0,,,,,,,,,0,0,0,0,0,7,7,7,1,0,1,0,,,,,,,,,,,,,,,,,,,,,,,,,,,,,,,,,,,,,,,,,,,,,,,,,,,,,,,,,,,,,,,,30,,,,,,,,1094.73632489999,1094.73632489999,1094.73632489999,1094.73632489999,1094.73632489999,down,0.4928193000087049,1,0,0,99,-0.16,0.15999999999999998,down,0.41471110000566114,,,,,,,,,,,,,,,,,,,,,,,,,,,,,,,,,,,,,,,,,,,,,,,,,,,,,,,,,,,,QZV9UY,train_x,blue_star,top_left,2025-09-26_17h05.47.531,HideSeek_v1,2022.2.5,59.87665409611364,
,0,9,3,9,3,0,31,,train_dim1_1,8,30,,,,2,0,2,0,,,,,,,,,0,0,0,0,0,7,7,7,2,0,2,0,,,,,,,,,,,,,,,,,,,,,,,,,,,,,,,,,,,,,,,,,,,,,,,,,,,,,,,,,,,,,,,,30,,,,,,,,1095.2400655999954,1095.2400655999954,1095.2400655999954,1095.2400655999954,1095.2400655999954,up,2.575395699997898,1,0,0,99,-0.16,0.24,up,2.4919210000080056,,,,,,,,,,,,,,,,,,,,,,,,,,,,,,,,,,,,,,,,,,,,,,,,,,,,,,,,,,,,QZV9UY,train_x,blue_star,top_left,2025-09-26_17h05.47.531,HideSeek_v1,2022.2.5,59.87665409611364,
,0,9,3,9,3,0,31,,train_dim1_1,8,30,,,,2,0,2,0,,,,,,,,,0,0,0,0,0,7,7,7,3,0,3,0,,,,,,,,,,,,,,,,,,,,,,,,,,,,,,,,,,,,,,,,,,,,,,,,,,,,,,,,,,,,,,,,30,,,,,,,,1097.8209815999871,1097.8209815999871,1097.8209815999871,1097.8209815999871,1097.8209815999871,up,0.29325089999474585,1,0,0,99,-0.16,0.32,up,0.20534290000796318,,,,,,,,,,,,,,,,,,,,,,,,,,,,,,,,,,,,,,,,,,,,,,,,,,,,,,,,,,,,QZV9UY,train_x,blue_star,top_left,2025-09-26_17h05.47.531,HideSeek_v1,2022.2.5,59.87665409611364,
,0,9,3,9,3,0,31,,train_dim1_1,8,30,,,,2,0,2,0,,,,,,,,,0,0,0,0,0,7,7,7,4,0,4,0,,,,,,,,,,,,,,,,,,,,,,,,,,,,,,,,,,,,,,,,,,,,,,,,,,,,,,,,,,,,,,,,30,,,,,,,,1098.1211705999885,1098.1211705999885,1098.1211705999885,1098.1211705999885,1098.1211705999885,right,1.3942037000088021,1,0,0,99,-0.08,0.32,right,1.3138471000129357,,,,,,,,,,,,,,,,,,,,,,,,,,,,,,,,,,,,,,,,,,,,,,,,,,,,,,,,,,,,QZV9UY,train_x,blue_star,top_left,2025-09-26_17h05.47.531,HideSeek_v1,2022.2.5,59.87665409611364,
,0,9,3,9,3,0,31,,train_dim1_1,8,30,,,,2,0,2,0,,,,,,,,,0,0,0,0,0,7,7,7,5,0,5,0,,,,,,,,,,,,,,,,,,,,,,,,,,,,,,,,,,,,,,,,,,,,,,,,,,,,,,,,,,,,,,,,30,,,,,,,,1099.52330239999,1099.52330239999,1099.52330239999,1099.52330239999,1099.52330239999,right,0.2764700000116136,1,0,0,99,0.0,0.32,right,0.18813370002317242,,,,,,,,,,,,,,,,,,,,,,,,,,,,,,,,,,,,,,,,,,,,,,,,,,,,,,,,,,,,QZV9UY,train_x,blue_star,top_left,2025-09-26_17h05.47.531,HideSeek_v1,2022.2.5,59.87665409611364,
,0,9,3,9,3,0,31,,train_dim1_1,8,30,,,,2,0,2,0,,,,,,,,,0,0,0,0,0,7,7,7,6,0,6,0,,,,,,,,,,,,,,,,,,,,,,,,,,,,,,,,,,,,,,,,,,,,,,,,,,,,,,,,,,,,,,,,30,,,,,,,,1099.8066645999934,1099.8066645999934,1099.8066645999934,1099.8066645999934,1099.8066645999934,right,0.5100091000058455,1,0,0,99,0.08,0.32,right,0.42425970001204405,,,,,,,,,,,,,,,,,,,,,,,,,,,,,,,,,,,,,,,,,,,,,,,,,,,,,,,,,,,,QZV9UY,train_x,blue_star,top_left,2025-09-26_17h05.47.531,HideSeek_v1,2022.2.5,59.87665409611364,
,0,9,3,9,3,0,31,,train_dim1_1,8,30,,,,2,0,2,0,,,,,,,,,0,0,0,0,0,7,7,7,7,0,7,0,,,,,,,,,,,,,,,,,,,,,,,,,,,,,,,,,,,,,,,,,,,,,,,,,,,,,,,,,,,,,,,,30,,,,,,,,1100.3236711999925,1100.3236711999925,1100.3236711999925,1100.3236711999925,1100.3236711999925,return,1.3941870999988168,2,0,0,1,0.08,0.32,return,1.3162505000072997,-4,15,0.08,0.32,,,,,,,,,,,,,,,,,,,,,,,,,,,,,,,,,,,,,,,,,,,,,,,,,,,,,,,,QZV9UY,train_x,blue_star,top_left,2025-09-26_17h05.47.531,HideSeek_v1,2022.2.5,59.87665409611364,
,1,5,2,5,1,0,51,,train_dim1_1,9,30,,,,2,0,2,0,,,,,,,,,0,0,0,0,0,8,8,8,0,0,0,0,,,,,,,,,,,,,,,,,,,,,,,,,stimuli/alien_stimuli/51.png,,,,,,,,,,,,,,,,,,,,,,,,,,,,,stimuli/alien_stimuli/31.png,31,0,10,,,,,,,30,,,,,,,,1107.4267892999924,1107.4267892999924,1107.4267892999924,1107.4267892999924,1107.4267892999924,right,2.2564570999966236,2,0,0,99,0.0,0,right,2.1606640000245534,,,,,1105.864627899995,1107.4267892999924,0.08,0.32,0.0,0.24,0.32,0.08,-0.04,0.08,0.32,1103.2970983999985,1103.2970983999985,1103.2970983999985,1103.2970983999985,1103.2970983999985,1103.2970983999985,1103.2970983999985,1103.2970983999985,1103.279180169986,2.687249899987364,return,2.537968800010276,,,,,,,,,,,,,,,,,,,,,,,,,,,,,,,,,QZV9UY,train_x,blue_star,top_left,2025-09-26_17h05.47.531,HideSeek_v1,2022.2.5,59.87665409611364,
,1,5,2,5,1,0,51,,train_dim1_1,9,30,,,,2,0,2,0,,,,,,,,,0,0,0,0,0,8,8,8,1,0,1,0,,,,,,,,,,,,,,,,,,,,,,,,,,,,,,,,,,,,,,,,,,,,,,,,,,,,,,,,,,,,,,,,30,,,,,,,,1109.6840356999892,1109.6840356999892,1109.6840356999892,1109.6840356999892,1109.6840356999892,return,0.6432762000040384,3,0,0,1,0.0,0,return,0.5577218000107678,-4,16,0.0,0,,,,,,,,,,,,,,,,,,,,,,,,,,,,,,,,,,,,,,,,,,,,,,,,,,,,,,,,QZV9UY,train_x,blue_star,top_left,2025-09-26_17h05.47.531,HideSeek_v1,2022.2.5,59.87665409611364,
,0,8,5,8,5,0,11,,train_dim1_1,10,30,,,,2,0,2,0,,,,,,,,,0,0,0,0,0,9,9,9,0,0,0,0,,,,,,,,,,,,,,,,,,,,,,,,,stimuli/alien_stimuli/11.png,,,,,,,,,,,,,,,,,,,,,,,,,,,,,stimuli/alien_stimuli/51.png,51,1,11,,,,,,,30,,,,,,,,1116.1185101999872,1116.1185101999872,1116.1185101999872,1116.1185101999872,1116.1185101999872,right,3.1745726999943145,3,0,0,99,-0.08,0.24,right,3.0772384000156308,,,,,1114.5549601999955,1116.1185101999872,0,0,0.0,0.08,0.0,0,-0.04,0,0,1111.903384499994,1111.903384499994,1111.903384499994,1111.903384499994,1111.903384499994,1111.903384499994,1111.903384499994,1111.903384499994,1111.8865706699944,2.770198900005198,return,2.6233577000239165,,,,,,,,,,,,,,,,,,,,,,,,,,,,,,,,,QZV9UY,train_x,blue_star,top_left,2025-09-26_17h05.47.531,HideSeek_v1,2022.2.5,59.87665409611364,
,0,8,5,8,5,0,11,,train_dim1_1,10,30,,,,2,0,2,0,,,,,,,,,0,0,0,0,0,9,9,9,1,0,1,0,,,,,,,,,,,,,,,,,,,,,,,,,,,,,,,,,,,,,,,,,,,,,,,,,,,,,,,,,,,,,,,,30,,,,,,,,1119.2932421999867,1119.2932421999867,1119.2932421999867,1119.2932421999867,1119.2932421999867,right,0.5431209999951534,3,0,0,99,0.0,0.24,right,0.45488770001975354,,,,,,,,,,,,,,,,,,,,,,,,,,,,,,,,,,,,,,,,,,,,,,,,,,,,,,,,,,,,QZV9UY,train_x,blue_star,top_left,2025-09-26_17h05.47.531,HideSeek_v1,2022.2.5,59.87665409611364,
,0,8,5,8,5,0,11,,train_dim1_1,10,30,,,,2,0,2,0,,,,,,,,,0,0,0,0,0,9,9,9,2,0,2,0,,,,,,,,,,,,,,,,,,,,,,,,,,,,,,,,,,,,,,,,,,,,,,,,,,,,,,,,,,,,,,,,30,,,,,,,,1119.8433452999889,1119.8433452999889,1119.8433452999889,1119.8433452999889,1119.8433452999889,right,0.6268282000091858,3,0,0,99,0.08,0.24,right,0.5365479000174673,,,,,,,,,,,,,,,,,,,,,,,,,,,,,,,,,,,,,,,,,,,,,,,,,,,,,,,,,,,,QZV9UY,train_x,blue_star,top_left,2025-09-26_17h05.47.531,HideSeek_v1,2022.2.5,59.87665409611364,
,0,8,5,8,5,0,11,,train_dim1_1,10,30,,,,2,0,2,0,,,,,,,,,0,0,0,0,0,9,9,9,3,0,3,0,,,,,,,,,,,,,,,,,,,,,,,,,,,,,,,,,,,,,,,,,,,,,,,,,,,,,,,,,,,,,,,,30,,,,,,,,1120.4777914999868,1120.4777914999868,1120.4777914999868,1120.4777914999868,1120.4777914999868,right,0.2763059999997495,3,0,0,99,0.16,0.24,right,0.19238450001284946,,,,,,,,,,,,,,,,,,,,,,,,,,,,,,,,,,,,,,,,,,,,,,,,,,,,,,,,,,,,QZV9UY,train_x,blue_star,top_left,2025-09-26_17h05.47.531,HideSeek_v1,2022.2.5,59.87665409611364,
,0,8,5,8,5,0,11,,train_dim1_1,10,30,,,,2,0,2,0,,,,,,,,,0,0,0,0,0,9,9,9,4,0,4,0,,,,,,,,,,,,,,,,,,,,,,,,,,,,,,,,,,,,,,,,,,,,,,,,,,,,,,,,,,,,,,,,30,,,,,,,,1120.7610070999945,1120.7610070999945,1120.7610070999945,1120.7610070999945,1120.7610070999945,return,0.7600816000049235,3,1,0,0,0.16,0.24,return,0.6726604000141378,-4,20,0.16,0.24,,,,,,,,,,,,,,,,,,,,,,,,,,,,,,,,,,,,,,,,,,,,,,,,,,,,,,,,QZV9UY,train_x,blue_star,top_left,2025-09-26_17h05.47.531,HideSeek_v1,2022.2.5,59.87665409611364,
,2,7,5,7,3,0,31,,train_dim1_1,11,30,,,,2,0,2,0,,,,,,,,,0,0,0,0,0,10,10,10,0,0,0,0,,,,,,,,,,,,,,,,,,,,,,,,,stimuli/alien_stimuli/31.png,,,,,,,,,,,,,,,,,,,,,,,,,,,,,stimuli/alien_stimuli/11.png,11,0,12,,,,,,,30,,,,,,,,1126.9495731999923,1126.9495731999923,1126.9495731999923,1126.9495731999923,1126.9495731999923,right,2.308072700005141,3,1,0,99,0.08,0.16,right,2.2134838000201853,,,,,1125.3807146999898,1126.9495731999923,0.24,0.24,0.0,0.4,0.24,0.24,0.039999999999999994,0.24,0.24,1123.1065483999992,1123.1065483999992,1123.1065483999992,1123.1065483999992,1123.1065483999992,1123.1065483999992,1123.1065483999992,1123.1065483999992,1123.095442379985,2.4043322000070475,return,2.252036900012172,,,,,,,,,,,,,,,,,,,,,,,,,,,,,,,,,QZV9UY,train_x,blue_star,top_left,2025-09-26_17h05.47.531,HideSeek_v1,2022.2.5,59.87665409611364,
,2,7,5,7,3,0,31,,train_dim1_1,11,30,,,,2,0,2,0,,,,,,,,,0,0,0,0,0,10,10,10,1,0,1,0,,,,,,,,,,,,,,,,,,,,,,,,,,,,,,,,,,,,,,,,,,,,,,,,,,,,,,,,,,,,,,,,30,,,,,,,,1129.2554587999912,1129.2554587999912,1129.2554587999912,1129.2554587999912,1129.2554587999912,right,0.1882330000080401,3,1,0,99,0.16,0.16,right,0.1013198000000557,,,,,,,,,,,,,,,,,,,,,,,,,,,,,,,,,,,,,,,,,,,,,,,,,,,,,,,,,,,,QZV9UY,train_x,blue_star,top_left,2025-09-26_17h05.47.531,HideSeek_v1,2022.2.5,59.87665409611364,
,2,7,5,7,3,0,31,,train_dim1_1,11,30,,,,2,0,2,0,,,,,,,,,0,0,0,0,0,10,10,10,2,0,2,0,,,,,,,,,,,,,,,,,,,,,,,,,,,,,,,,,,,,,,,,,,,,,,,,,,,,,,,,,,,,,,,,30,,,,,,,,1129.4477873999858,1129.4477873999858,1129.4477873999858,1129.4477873999858,1129.4477873999858,right,0.21009870000125375,3,1,0,99,0.24,0.16,right,0.1234256000170717,,,,,,,,,,,,,,,,,,,,,,,,,,,,,,,,,,,,,,,,,,,,,,,,,,,,,,,,,,,,QZV9UY,train_x,blue_star,top_left,2025-09-26_17h05.47.531,HideSeek_v1,2022.2.5,59.87665409611364,
,2,7,5,7,3,0,31,,train_dim1_1,11,30,,,,2,0,2,0,,,,,,,,,0,0,0,0,0,10,10,10,3,0,3,0,,,,,,,,,,,,,,,,,,,,,,,,,,,,,,,,,,,,,,,,,,,,,,,,,,,,,,,,,,,,,,,,30,,,,,,,,1129.6704426999931,1129.6704426999931,1129.6704426999931,1129.6704426999931,1129.6704426999931,return,3.774101300004986,4,0,0,1,0.24,0.16,return,3.6974877000175184,-4,23,0.24,0.16,,,,,,,,,,,,,,,,,,,,,,,,,,,,,,,,,,,,,,,,,,,,,,,,,,,,,,,,QZV9UY,train_x,blue_star,top_left,2025-09-26_17h05.47.531,HideSeek_v1,2022.2.5,59.87665409611364,
,0,5,4,5,4,0,21,,train_dim1_1,12,30,,,,2,0,2,0,,,,,,,,,0,0,0,0,0,11,11,11,0,0,0,0,,,,,,,,,,,,,,,,,,,,,,,,,stimuli/alien_stimuli/21.png,,,,,,,,,,,,,,,,,,,,,,,,,,,,,stimuli/alien_stimuli/31.png,31,2,13,,,,,,,30,,,,,,,,1137.9514554999914,1137.9514554999914,1137.9514554999914,1137.9514554999914,1137.9514554999914,right,1.7053233000042383,4,0,0,99,-0.08,0,right,1.599670400013565,,,,,1136.373150799991,1137.9514554999914,0.24,0.16,0.0,0.24,0.16,0.24,0.12,0.24,0.16,1135.0189970999927,1135.0189970999927,1135.0189970999927,1135.0189970999927,1135.0189970999927,1135.0189970999927,1135.0189970999927,1135.0189970999927,1135.0054611699816,1.4699766999983694,return,1.3313710000074934,,,,,,,,,,,,,,,,,,,,,,,,,,,,,,,,,QZV9UY,train_x,blue_star,top_left,2025-09-26_17h05.47.531,HideSeek_v1,2022.2.5,59.87665409611364,
,0,5,4,5,4,0,21,,train_dim1_1,12,30,,,,2,0,2,0,,,,,,,,,0,0,0,0,0,11,11,11,1,0,1,0,,,,,,,,,,,,,,,,,,,,,,,,,,,,,,,,,,,,,,,,,,,,,,,,,,,,,,,,,,,,,,,,30,,,,,,,,1139.64534979999,1139.64534979999,1139.64534979999,1139.64534979999,1139.64534979999,right,1.6603552000015043,4,0,0,99,0.0,0,right,1.568540500011295,,,,,,,,,,,,,,,,,,,,,,,,,,,,,,,,,,,,,,,,,,,,,,,,,,,,,,,,,,,,QZV9UY,train_x,blue_star,top_left,2025-09-26_17h05.47.531,HideSeek_v1,2022.2.5,59.87665409611364,
,0,5,4,5,4,0,21,,train_dim1_1,12,30,,,,2,0,2,0,,,,,,,,,0,0,0,0,0,11,11,11,2,0,2,0,,,,,,,,,,,,,,,,,,,,,,,,,,,,,,,,,,,,,,,,,,,,,,,,,,,,,,,,,,,,,,,,30,,,,,,,,1141.3135994999902,1141.3135994999902,1141.3135994999902,1141.3135994999902,1141.3135994999902,right,0.3567234000074677,4,0,0,99,0.08,0,right,0.271824600014952,,,,,,,,,,,,,,,,,,,,,,,,,,,,,,,,,,,,,,,,,,,,,,,,,,,,,,,,,,,,QZV9UY,train_x,blue_star,top_left,2025-09-26_17h05.47.531,HideSeek_v1,2022.2.5,59.87665409611364,
,0,5,4,5,4,0,21,,train_dim1_1,12,30,,,,2,0,2,0,,,,,,,,,0,0,0,0,0,11,11,11,3,0,3,0,,,,,,,,,,,,,,,,,,,,,,,,,,,,,,,,,,,,,,,,,,,,,,,,,,,,,,,,,,,,,,,,30,,,,,,,,1141.6792809999897,1141.6792809999897,1141.6792809999897,1141.6792809999897,1141.6792809999897,right,0.3097982999897795,4,0,0,99,0.16,0,right,0.2213779000012437,,,,,,,,,,,,,,,,,,,,,,,,,,,,,,,,,,,,,,,,,,,,,,,,,,,,,,,,,,,,QZV9UY,train_x,blue_star,top_left,2025-09-26_17h05.47.531,HideSeek_v1,2022.2.5,59.87665409611364,
,0,5,4,5,4,0,21,,train_dim1_1,12,30,,,,2,0,2,0,,,,,,,,,0,0,0,0,0,11,11,11,4,0,4,0,,,,,,,,,,,,,,,,,,,,,,,,,,,,,,,,,,,,,,,,,,,,,,,,,,,,,,,,,,,,,,,,30,,,,,,,,1141.9970941999927,1141.9970941999927,1141.9970941999927,1141.9970941999927,1141.9970941999927,return,0.8592476999911014,5,0,0,1,0.16,0,return,0.7688505000114674,-4,27,0.16,0,,,,,,,,,,,,,,,,,,,,,,,,,,,,,,,,,,,,,,,,,,,,,,,,,,,,,,,,QZV9UY,train_x,blue_star,top_left,2025-09-26_17h05.47.531,HideSeek_v1,2022.2.5,59.87665409611364,
,0,9,1,9,1,0,51,,train_dim1_1,13,30,,,,2,0,2,0,,,,,,,,,0,0,0,0,0,12,12,12,0,0,0,0,,,,,,,,,,,,,,,,,,,,,,,,,stimuli/alien_stimuli/51.png,,,,,,,,,,,,,,,,,,,,,,,,,,,,,stimuli/alien_stimuli/21.png,21,0,14,,,,,,,30,,,,,,,,1147.7559217999951,1147.7559217999951,1147.7559217999951,1147.7559217999951,1147.7559217999951,right,3.756869099990581,5,0,0,99,-0.08,0.32,right,3.6628483000095002,,,,,1146.1812142999988,1147.7559217999951,0.16,0,0.0,0.32,0.0,0.16,0.0,0.16,0,1144.4231327999878,1144.4231327999878,1144.4231327999878,1144.4231327999878,1144.4231327999878,1144.4231327999878,1144.4231327999878,1144.4231327999878,1144.4130392699954,1.8704250999871874,return,1.7332493000139948,,,,,,,,,,,,,,,,,,,,,,,,,,,,,,,,,QZV9UY,train_x,blue_star,top_left,2025-09-26_17h05.47.531,HideSeek_v1,2022.2.5,59.87665409611364,
,0,9,1,9,1,0,51,,train_dim1_1,13,30,,,,2,0,2,0,,,,,,,,,0,0,0,0,0,12,12,12,1,0,1,0,,,,,,,,,,,,,,,,,,,,,,,,,,,,,,,,,,,,,,,,,,,,,,,,,,,,,,,,,,,,,,,,30,,,,,,,,1151.5025903999922,1151.5025903999922,1151.5025903999922,1151.5025903999922,1151.5025903999922,return,0.2928517000109423,6,0,0,1,-0.08,0.32,return,0.20368090001284145,-4,28,-0.08,0.32,,,,,,,,,,,,,,,,,,,,,,,,,,,,,,,,,,,,,,,,,,,,,,,,,,,,,,,,QZV9UY,train_x,blue_star,top_left,2025-09-26_17h05.47.531,HideSeek_v1,2022.2.5,59.87665409611364,
,4,8,9,8,5,0,11,,train_dim1_1,14,30,,,,2,0,2,0,,,,,,,,,0,0,0,0,0,13,13,13,0,0,0,0,,,,,,,,,,,,,,,,,,,,,,,,,stimuli/alien_stimuli/11.png,,,,,,,,,,,,,,,,,,,,,,,,,,,,,stimuli/alien_stimuli/51.png,51,0,15,,,,,,,30,,,,,,,,1155.8518314999965,1155.8518314999965,1155.8518314999965,1155.8518314999965,1155.8518314999965,right,3.104855600002338,6,0,0,99,0.24,0.24,right,2.9997813000081806,,,,,1154.2712666999869,1155.8518314999965,-0.08,0.32,0.0,0.08,0.32,-0.08,-0.12,-0.08,0.32,1153.362138899989,1153.362138899989,1153.362138899989,1153.362138899989,1153.362138899989,1153.362138899989,1153.362138899989,1153.362138899989,1153.3538548699944,1.0201879999949597,return,0.8886653000081424,,,,,,,,,,,,,,,,,,,,,,,,,,,,,,,,,QZV9UY,train_x,blue_star,top_left,2025-09-26_17h05.47.531,HideSeek_v1,2022.2.5,59.87665409611364,
,4,8,9,8,5,0,11,,train_dim1_1,14,30,,,,2,0,2,0,,,,,,,,,0,0,0,0,0,13,13,13,1,0,1,0,,,,,,,,,,,,,,,,,,,,,,,,,,,,,,,,,,,,,,,,,,,,,,,,,,,,,,,,,,,,,,,,30,,,,,,,,1158.9478027999867,1158.9478027999867,1158.9478027999867,1158.9478027999867,1158.9478027999867,right,0.17223280000325758,6,0,0,99,0.32,0.24,right,0.08990240001003258,,,,,,,,,,,,,,,,,,,,,,,,,,,,,,,,,,,,,,,,,,,,,,,,,,,,,,,,,,,,QZV9UY,train_x,blue_star,top_left,2025-09-26_17h05.47.531,HideSeek_v1,2022.2.5,59.87665409611364,
,4,8,9,8,5,0,11,,train_dim1_1,14,30,,,,2,0,2,0,,,,,,,,,0,0,0,0,0,13,13,13,2,0,2,0,,,,,,,,,,,,,,,,,,,,,,,,,,,,,,,,,,,,,,,,,,,,,,,,,,,,,,,,,,,,,,,,30,,,,,,,,1159.1258339999913,1159.1258339999913,1159.1258339999913,1159.1258339999913,1159.1258339999913,right,0.17645259998971596,6,0,0,99,0.4,0.24,right,0.08932460000505671,,,,,,,,,,,,,,,,,,,,,,,,,,,,,,,,,,,,,,,,,,,,,,,,,,,,,,,,,,,,QZV9UY,train_x,blue_star,top_left,2025-09-26_17h05.47.531,HideSeek_v1,2022.2.5,59.87665409611364,
,4,8,9,8,5,0,11,,train_dim1_1,14,30,,,,2,0,2,0,,,,,,,,,0,0,0,0,0,13,13,13,3,0,3,0,,,,,,,,,,,,,,,,,,,,,,,,,,,,,,,,,,,,,,,,,,,,,,,,,,,,,,,,,,,,,,,,30,,,,,,,,1159.3102952999907,1159.3102952999907,1159.3102952999907,1159.3102952999907,1159.3102952999907,right,0.19225900000310503,6,0,0,99,0.48000000000000004,0.24,right,0.11069930001394823,,,,,,,,,,,,,,,,,,,,,,,,,,,,,,,,,,,,,,,,,,,,,,,,,,,,,,,,,,,,QZV9UY,train_x,blue_star,top_left,2025-09-26_17h05.47.531,HideSeek_v1,2022.2.5,59.87665409611364,
,4,8,9,8,5,0,11,,train_dim1_1,14,30,,,,2,0,2,0,,,,,,,,,0,0,0,0,0,13,13,13,4,0,4,0,,,,,,,,,,,,,,,,,,,,,,,,,,,,,,,,,,,,,,,,,,,,,,,,,,,,,,,,,,,,,,,,30,,,,,,,,1159.5102442999923,1159.5102442999923,1159.5102442999923,1159.5102442999923,1159.5102442999923,right,0.30963839999458287,6,0,0,99,0.56,0.24,right,0.226704000015161,,,,,,,,,,,,,,,,,,,,,,,,,,,,,,,,,,,,,,,,,,,,,,,,,,,,,,,,,,,,QZV9UY,train_x,blue_star,top_left,2025-09-26_17h05.47.531,HideSeek_v1,2022.2.5,59.87665409611364,
,4,8,9,8,5,0,11,,train_dim1_1,14,30,,,,2,0,2,0,,,,,,,,,0,0,0,0,0,13,13,13,5,0,5,0,,,,,,,,,,,,,,,,,,,,,,,,,,,,,,,,,,,,,,,,,,,,,,,,,,,,,,,,,,,,,,,,30,,,,,,,,1159.8267844999937,1159.8267844999937,1159.8267844999937,1159.8267844999937,1159.8267844999937,return,0.37658989999908954,7,0,0,1,0.56,0.24,return,0.29254770000989083,-4,33,0.56,0.24,,,,,,,,,,,,,,,,,,,,,,,,,,,,,,,,,,,,,,,,,,,,,,,,,,,,,,,,QZV9UY,train_x,blue_star,top_left,2025-09-26_17h05.47.531,HideSeek_v1,2022.2.5,59.87665409611364,
,4,7,4,7,0,0,61,,train_dim1_1,15,30,,,,2,0,2,0,,,,,,,,,0,0,0,0,0,14,14,14,0,0,0,0,,,,,,,,,,,,,,,,,,,,,,,,,stimuli/alien_stimuli/61.png,,,,,,,,,,,,,,,,,,,,,,,,,,,,,stimuli/alien_stimuli/11.png,11,4,16,,,,,,,30,,,,,,,,1164.7027537999966,1164.7027537999966,1164.7027537999966,1164.7027537999966,1164.7027537999966,return,2.873343899991596,8,0,0,1,0.16,0.16,return,2.7729982000164455,-4,33,0.16,0.16,1163.128873499998,1164.7027537999966,0.56,0.24,0.0,0.4,0.24,0.56,0.36000000000000004,0.56,0.24,1161.7702677999914,1161.7702677999914,1161.7702677999914,1161.7702677999914,1161.7702677999914,1161.7702677999914,1161.7702677999914,1161.7702677999914,1161.7609197699858,1.4698526000138372,return,1.3350464000104694,,,,,,,,,,,,,,,,,,,,,,,,,,,,,,,,,QZV9UY,train_x,blue_star,top_left,2025-09-26_17h05.47.531,HideSeek_v1,2022.2.5,59.87665409611364,
,3,8,4,8,1,0,51,,train_dim1_1,16,30,,,,2,0,2,0,,,,,,,,,0,0,0,0,0,15,15,15,0,0,0,0,,,,,,,,,,,,,,,,,,,,,,,,,stimuli/alien_stimuli/51.png,,,,,,,,,,,,,,,,,,,,,,,,,,,,,stimuli/alien_stimuli/61.png,61,4,17,,,,,,,30,,,,,,,,1171.6486263999977,1171.6486263999977,1171.6486263999977,1171.6486263999977,1171.6486263999977,right,1.3869045000028564,8,0,0,99,0.16,0.24,right,1.2953012000070885,,,,,1170.0845174999995,1171.6486263999977,0.16,0.16,0.0,0.0,0.16,0.16,0.16,0.16,0.16,1169.1219436999963,1169.1219436999963,1169.1219436999963,1169.1219436999963,1169.1219436999963,1169.1219436999963,1169.1219436999963,1169.1219436999963,1169.1002666599961,1.0694789999979548,return,0.9402041000139434,,,,,,,,,,,,,,,,,,,,,,,,,,,,,,,,,QZV9UY,train_x,blue_star,top_left,2025-09-26_17h05.47.531,HideSeek_v1,2022.2.5,59.87665409611364,
,3,8,4,8,1,0,51,,train_dim1_1,16,30,,,,2,0,2,0,,,,,,,,,0,0,0,0,0,15,15,15,1,0,1,0,,,,,,,,,,,,,,,,,,,,,,,,,,,,,,,,,,,,,,,,,,,,,,,,,,,,,,,,,,,,,,,,30,,,,,,,,1173.0396284999879,1173.0396284999879,1173.0396284999879,1173.0396284999879,1173.0396284999879,return,0.6569294000073569,9,0,0,1,0.16,0.24,return,0.5657882000086829,-4,34,0.16,0.24,,,,,,,,,,,,,,,,,,,,,,,,,,,,,,,,,,,,,,,,,,,,,,,,,,,,,,,,QZV9UY,train_x,blue_star,top_left,2025-09-26_17h05.47.531,HideSeek_v1,2022.2.5,59.87665409611364,
,2,9,6,9,4,0,21,,train_dim1_1,17,30,,,,2,0,2,0,,,,,,,,,0,0,0,0,0,16,16,16,0,0,0,0,,,,,,,,,,,,,,,,,,,,,,,,,stimuli/alien_stimuli/21.png,,,,,,,,,,,,,,,,,,,,,,,,,,,,,stimuli/alien_stimuli/51.png,51,3,18,,,,,,,30,,,,,,,,1177.3894278999942,1177.3894278999942,1177.3894278999942,1177.3894278999942,1177.3894278999942,right,1.2685828000103356,9,0,0,99,0.08,0.32,right,1.1862647000089055,,,,,1175.8225142999872,1177.3894278999942,0.16,0.24,0.0,0.08,0.24,0.16,0.12,0.16,0.24,1175.2621268999937,1175.2621268999937,1175.2621268999937,1175.2621268999937,1175.2621268999937,1175.2621268999937,1175.2621268999937,1175.2621268999937,1175.2554950699923,0.6692883999930928,return,0.5433667000033893,,,,,,,,,,,,,,,,,,,,,,,,,,,,,,,,,QZV9UY,train_x,blue_star,top_left,2025-09-26_17h05.47.531,HideSeek_v1,2022.2.5,59.87665409611364,
,2,9,6,9,4,0,21,,train_dim1_1,17,30,,,,2,0,2,0,,,,,,,,,0,0,0,0,0,16,16,16,1,0,1,0,,,,,,,,,,,,,,,,,,,,,,,,,,,,,,,,,,,,,,,,,,,,,,,,,,,,,,,,,,,,,,,,30,,,,,,,,1178.6590498999867,1178.6590498999867,1178.6590498999867,1178.6590498999867,1178.6590498999867,right,0.22619879999547265,9,0,0,99,0.16,0.32,right,0.1398755000118399,,,,,,,,,,,,,,,,,,,,,,,,,,,,,,,,,,,,,,,,,,,,,,,,,,,,,,,,,,,,QZV9UY,train_x,blue_star,top_left,2025-09-26_17h05.47.531,HideSeek_v1,2022.2.5,59.87665409611364,
,2,9,6,9,4,0,21,,train_dim1_1,17,30,,,,2,0,2,0,,,,,,,,,0,0,0,0,0,16,16,16,2,0,2,0,,,,,,,,,,,,,,,,,,,,,,,,,,,,,,,,,,,,,,,,,,,,,,,,,,,,,,,,,,,,,,,,30,,,,,,,,1178.8925099999906,1178.8925099999906,1178.8925099999906,1178.8925099999906,1178.8925099999906,right,0.16011880000587553,9,0,0,99,0.24,0.32,right,0.07887230000051204,,,,,,,,,,,,,,,,,,,,,,,,,,,,,,,,,,,,,,,,,,,,,,,,,,,,,,,,,,,,QZV9UY,train_x,blue_star,top_left,2025-09-26_17h05.47.531,HideSeek_v1,2022.2.5,59.87665409611364,
,2,9,6,9,4,0,21,,train_dim1_1,17,30,,,,2,0,2,0,,,,,,,,,0,0,0,0,0,16,16,16,3,0,3,0,,,,,,,,,,,,,,,,,,,,,,,,,,,,,,,,,,,,,,,,,,,,,,,,,,,,,,,,,,,,,,,,30,,,,,,,,1179.0602818999905,1179.0602818999905,1179.0602818999905,1179.0602818999905,1179.0602818999905,right,0.19286039999860805,9,0,0,99,0.32,0.32,right,0.10658930001955014,,,,,,,,,,,,,,,,,,,,,,,,,,,,,,,,,,,,,,,,,,,,,,,,,,,,,,,,,,,,QZV9UY,train_x,blue_star,top_left,2025-09-26_17h05.47.531,HideSeek_v1,2022.2.5,59.87665409611364,
,2,9,6,9,4,0,21,,train_dim1_1,17,30,,,,2,0,2,0,,,,,,,,,0,0,0,0,0,16,16,16,4,0,4,0,,,,,,,,,,,,,,,,,,,,,,,,,,,,,,,,,,,,,,,,,,,,,,,,,,,,,,,,,,,,,,,,30,,,,,,,,1179.2590458999912,1179.2590458999912,1179.2590458999912,1179.2590458999912,1179.2590458999912,return,0.4269579999963753,10,0,0,1,0.32,0.32,return,0.3380899000185309,-4,38,0.32,0.32,,,,,,,,,,,,,,,,,,,,,,,,,,,,,,,,,,,,,,,,,,,,,,,,,,,,,,,,QZV9UY,train_x,blue_star,top_left,2025-09-26_17h05.47.531,HideSeek_v1,2022.2.5,59.87665409611364,
,2,6,2,6,0,0,61,,train_dim1_1,18,30,,,,2,0,2,0,,,,,,,,,0,0,0,0,0,17,17,17,0,0,0,0,,,,,,,,,,,,,,,,,,,,,,,,,stimuli/alien_stimuli/61.png,,,,,,,,,,,,,,,,,,,,,,,,,,,,,stimuli/alien_stimuli/21.png,21,2,19,,,,,,,30,,,,,,,,1183.5383266999997,1183.5383266999997,1183.5383266999997,1183.5383266999997,1183.5383266999997,right,2.3565493999922182,10,0,0,99,0.08,0.08,right,2.263751600010437,,,,,1181.9779303999967,1183.5383266999997,0.32,0.32,0.0,0.32,0.32,0.32,0.16,0.32,0.32,1181.2505040999968,1181.2505040999968,1181.2505040999968,1181.2505040999968,1181.2505040999968,1181.2505040999968,1181.2505040999968,1181.2505040999968,1181.2436238699956,0.835916800002451,return,0.7046982000174467,,,,,,,,,,,,,,,,,,,,,,,,,,,,,,,,,QZV9UY,train_x,blue_star,top_left,2025-09-26_17h05.47.531,HideSeek_v1,2022.2.5,59.87665409611364,
,2,6,2,6,0,0,61,,train_dim1_1,18,30,,,,2,0,2,0,,,,,,,,,0,0,0,0,0,17,17,17,1,0,1,0,,,,,,,,,,,,,,,,,,,,,,,,,,,,,,,,,,,,,,,,,,,,,,,,,,,,,,,,,,,,,,,,30,,,,,,,,1185.8936197999865,1185.8936197999865,1185.8936197999865,1185.8936197999865,1185.8936197999865,return,0.4264507999905618,10,1,0,0,0.08,0.08,return,0.34965040000679437,-4,39,0.08,0.08,,,,,,,,,,,,,,,,,,,,,,,,,,,,,,,,,,,,,,,,,,,,,,,,,,,,,,,,QZV9UY,train_x,blue_star,top_left,2025-09-26_17h05.47.531,HideSeek_v1,2022.2.5,59.87665409611364,
,0,8,3,8,3,0,31,,train_dim1_1,19,30,,,,2,0,2,0,,,,,,,,,0,0,0,0,0,18,18,18,0,0,0,0,,,,,,,,,,,,,,,,,,,,,,,,,stimuli/alien_stimuli/31.png,,,,,,,,,,,,,,,,,,,,,,,,,,,,,stimuli/alien_stimuli/61.png,61,2,20,,,,,,,30,,,,,,,,1190.0488539999933,1190.0488539999933,1190.0488539999933,1190.0488539999933,1190.0488539999933,right,1.2823229000059655,10,1,0,99,-0.08,0.24,right,1.1881943000043975,,,,,1188.4830136999954,1190.0488539999933,0,0.08,0.0,0.0,0.08,0,0.0,0,0.08,1187.8849719999998,1187.8849719999998,1187.8849719999998,1187.8849719999998,1187.8849719999998,1187.8849719999998,1187.8849719999998,1187.8849719999998,1187.866037359985,0.7023190999898361,return,0.5696836000133771,,,,,,,,,,,,,,,,,,,,,,,,,,,,,,,,,QZV9UY,train_x,blue_star,top_left,2025-09-26_17h05.47.531,HideSeek_v1,2022.2.5,59.87665409611364,
,0,8,3,8,3,0,31,,train_dim1_1,19,30,,,,2,0,2,0,,,,,,,,,0,0,0,0,0,18,18,18,1,0,1,0,,,,,,,,,,,,,,,,,,,,,,,,,,,,,,,,,,,,,,,,,,,,,,,,,,,,,,,,,,,,,,,,30,,,,,,,,1191.332827899998,1191.332827899998,1191.332827899998,1191.332827899998,1191.332827899998,right,0.15918580000288785,10,1,0,99,0.0,0.24,right,0.07406640000408515,,,,,,,,,,,,,,,,,,,,,,,,,,,,,,,,,,,,,,,,,,,,,,,,,,,,,,,,,,,,QZV9UY,train_x,blue_star,top_left,2025-09-26_17h05.47.531,HideSeek_v1,2022.2.5,59.87665409611364,
,0,8,3,8,3,0,31,,train_dim1_1,19,30,,,,2,0,2,0,,,,,,,,,0,0,0,0,0,18,18,18,2,0,2,0,,,,,,,,,,,,,,,,,,,,,,,,,,,,,,,,,,,,,,,,,,,,,,,,,,,,,,,,,,,,,,,,30,,,,,,,,1191.4997503999912,1191.4997503999912,1191.4997503999912,1191.4997503999912,1191.4997503999912,right,0.17649749999691267,10,1,0,99,0.08,0.24,right,0.09433850001369137,,,,,,,,,,,,,,,,,,,,,,,,,,,,,,,,,,,,,,,,,,,,,,,,,,,,,,,,,,,,QZV9UY,train_x,blue_star,top_left,2025-09-26_17h05.47.531,HideSeek_v1,2022.2.5,59.87665409611364,
,0,8,3,8,3,0,31,,train_dim1_1,19,30,,,,2,0,2,0,,,,,,,,,0,0,0,0,0,18,18,18,3,0,3,0,,,,,,,,,,,,,,,,,,,,,,,,,,,,,,,,,,,,,,,,,,,,,,,,,,,,,,,,,,,,,,,,30,,,,,,,,1191.6828852999897,1191.6828852999897,1191.6828852999897,1191.6828852999897,1191.6828852999897,return,0.30984000000171363,11,0,0,1,0.08,0.24,return,0.23199990000284743,-4,42,0.08,0.24,,,,,,,,,,,,,,,,,,,,,,,,,,,,,,,,,,,,,,,,,,,,,,,,,,,,,,,,QZV9UY,train_x,blue_star,top_left,2025-09-26_17h05.47.531,HideSeek_v1,2022.2.5,59.87665409611364,
,0,6,5,6,5,0,11,,train_dim1_1,20,30,,,,2,0,2,0,,,,,,,,,0,0,0,0,0,19,19,19,0,0,0,0,,,,,,,,,,,,,,,,,,,,,,,,,stimuli/alien_stimuli/11.png,,,,,,,,,,,,,,,,,,,,,,,,,,,,,stimuli/alien_stimuli/31.png,31,0,21,,,,,,,30,,,,,,,,1195.7514271999971,1195.7514271999971,1195.7514271999971,1195.7514271999971,1195.7514271999971,right,1.287924699994619,11,0,0,99,-0.08,0.08,right,1.1935870000015711,,,,,1194.1878191999858,1195.7514271999971,0.08,0.24,0.0,0.24,0.24,0.08,-0.04,0.08,0.24,1193.557323999994,1193.557323999994,1193.557323999994,1193.557323999994,1193.557323999994,1193.557323999994,1193.557323999994,1193.557323999994,1193.5372393599828,0.7361849000008078,return,0.6039407000062056,,,,,,,,,,,,,,,,,,,,,,,,,,,,,,,,,QZV9UY,train_x,blue_star,top_left,2025-09-26_17h05.47.531,HideSeek_v1,2022.2.5,59.87665409611364,
,0,6,5,6,5,0,11,,train_dim1_1,20,30,,,,2,0,2,0,,,,,,,,,0,0,0,0,0,19,19,19,1,0,1,0,,,,,,,,,,,,,,,,,,,,,,,,,,,,,,,,,,,,,,,,,,,,,,,,,,,,,,,,,,,,,,,,30,,,,,,,,1197.0416257999896,1197.0416257999896,1197.0416257999896,1197.0416257999896,1197.0416257999896,right,0.15952960000140592,11,0,0,99,0.0,0.08,right,0.06690200000593904,,,,,,,,,,,,,,,,,,,,,,,,,,,,,,,,,,,,,,,,,,,,,,,,,,,,,,,,,,,,QZV9UY,train_x,blue_star,top_left,2025-09-26_17h05.47.531,HideSeek_v1,2022.2.5,59.87665409611364,
,0,6,5,6,5,0,11,,train_dim1_1,20,30,,,,2,0,2,0,,,,,,,,,0,0,0,0,0,19,19,19,2,0,2,0,,,,,,,,,,,,,,,,,,,,,,,,,,,,,,,,,,,,,,,,,,,,,,,,,,,,,,,,,,,,,,,,30,,,,,,,,1197.2074366999877,1197.2074366999877,1197.2074366999877,1197.2074366999877,1197.2074366999877,right,0.1595454000052996,11,0,0,99,0.08,0.08,right,0.0816573000192875,,,,,,,,,,,,,,,,,,,,,,,,,,,,,,,,,,,,,,,,,,,,,,,,,,,,,,,,,,,,QZV9UY,train_x,blue_star,top_left,2025-09-26_17h05.47.531,HideSeek_v1,2022.2.5,59.87665409611364,
,0,6,5,6,5,0,11,,train_dim1_1,20,30,,,,2,0,2,0,,,,,,,,,0,0,0,0,0,19,19,19,3,0,3,0,,,,,,,,,,,,,,,,,,,,,,,,,,,,,,,,,,,,,,,,,,,,,,,,,,,,,,,,,,,,,,,,30,,,,,,,,1197.374800599995,1197.374800599995,1197.374800599995,1197.374800599995,1197.374800599995,right,0.17633240000577644,11,0,0,99,0.16,0.08,right,0.09088460002385546,,,,,,,,,,,,,,,,,,,,,,,,,,,,,,,,,,,,,,,,,,,,,,,,,,,,,,,,,,,,QZV9UY,train_x,blue_star,top_left,2025-09-26_17h05.47.531,HideSeek_v1,2022.2.5,59.87665409611364,
,0,6,5,6,5,0,11,,train_dim1_1,20,30,,,,2,0,2,0,,,,,,,,,0,0,0,0,0,19,19,19,4,0,4,0,,,,,,,,,,,,,,,,,,,,,,,,,,,,,,,,,,,,,,,,,,,,,,,,,,,,,,,,,,,,,,,,30,,,,,,,,1197.5594649999985,1197.5594649999985,1197.5594649999985,1197.5594649999985,1197.5594649999985,right,0.19096300000092015,11,0,0,99,0.24,0.08,right,0.10490440001012757,,,,,,,,,,,,,,,,,,,,,,,,,,,,,,,,,,,,,,,,,,,,,,,,,,,,,,,,,,,,QZV9UY,train_x,blue_star,top_left,2025-09-26_17h05.47.531,HideSeek_v1,2022.2.5,59.87665409611364,
,0,6,5,6,5,0,11,,train_dim1_1,20,30,,,,2,0,2,0,,,,,,,,,0,0,0,0,0,19,19,19,5,0,5,0,,,,,,,,,,,,,,,,,,,,,,,,,,,,,,,,,,,,,,,,,,,,,,,,,,,,,,,,,,,,,,,,30,,,,,,,,1197.756900399996,1197.756900399996,1197.756900399996,1197.756900399996,1197.756900399996,return,0.29312310001114383,12,0,0,1,0.24,0.08,return,0.2119758000189904,-4,47,0.24,0.08,,,,,,,,,,,,,,,,,,,,,,,,,,,,,,,,,,,,,,,,,,,,,,,,,,,,,,,,QZV9UY,train_x,blue_star,top_left,2025-09-26_17h05.47.531,HideSeek_v1,2022.2.5,59.87665409611364,
,4,7,7,7,3,0,31,,train_dim1_1,21,30,,,,2,0,2,0,,,,,,,,,0,0,0,0,0,20,20,20,0,0,0,0,,,,,,,,,,,,,,,,,,,,,,,,,stimuli/alien_stimuli/31.png,,,,,,,,,,,,,,,,,,,,,,,,,,,,,stimuli/alien_stimuli/11.png,11,0,22,,,,,,,30,,,,,,,,1201.7366362999892,1201.7366362999892,1201.7366362999892,1201.7366362999892,1201.7366362999892,right,1.3045584999927087,12,0,0,99,0.24,0.16,right,1.2145158000057563,,,,,1200.1761219999898,1201.7366362999892,0.24,0.08,0.0,0.4,0.08,0.24,0.039999999999999994,0.24,0.08,1199.6175920999958,1199.6175920999958,1199.6175920999958,1199.6175920999958,1199.6175920999958,1199.6175920999958,1199.6175920999958,1199.6175920999958,1199.6089851699871,0.6693656999996165,return,0.5263305000116816,,,,,,,,,,,,,,,,,,,,,,,,,,,,,,,,,QZV9UY,train_x,blue_star,top_left,2025-09-26_17h05.47.531,HideSeek_v1,2022.2.5,59.87665409611364,
,4,7,7,7,3,0,31,,train_dim1_1,21,30,,,,2,0,2,0,,,,,,,,,0,0,0,0,0,20,20,20,1,0,1,0,,,,,,,,,,,,,,,,,,,,,,,,,,,,,,,,,,,,,,,,,,,,,,,,,,,,,,,,,,,,,,,,30,,,,,,,,1203.0434722999926,1203.0434722999926,1203.0434722999926,1203.0434722999926,1203.0434722999926,right,0.17579700000351295,12,0,0,99,0.32,0.16,right,0.09961240002303384,,,,,,,,,,,,,,,,,,,,,,,,,,,,,,,,,,,,,,,,,,,,,,,,,,,,,,,,,,,,QZV9UY,train_x,blue_star,top_left,2025-09-26_17h05.47.531,HideSeek_v1,2022.2.5,59.87665409611364,
,4,7,7,7,3,0,31,,train_dim1_1,21,30,,,,2,0,2,0,,,,,,,,,0,0,0,0,0,20,20,20,2,0,2,0,,,,,,,,,,,,,,,,,,,,,,,,,,,,,,,,,,,,,,,,,,,,,,,,,,,,,,,,,,,,,,,,30,,,,,,,,1203.2259720999864,1203.2259720999864,1203.2259720999864,1203.2259720999864,1203.2259720999864,right,0.24308399998699315,12,0,0,99,0.4,0.16,right,0.1647887000144692,,,,,,,,,,,,,,,,,,,,,,,,,,,,,,,,,,,,,,,,,,,,,,,,,,,,,,,,,,,,QZV9UY,train_x,blue_star,top_left,2025-09-26_17h05.47.531,HideSeek_v1,2022.2.5,59.87665409611364,
,4,7,7,7,3,0,31,,train_dim1_1,21,30,,,,2,0,2,0,,,,,,,,,0,0,0,0,0,20,20,20,3,0,3,0,,,,,,,,,,,,,,,,,,,,,,,,,,,,,,,,,,,,,,,,,,,,,,,,,,,,,,,,,,,,,,,,30,,,,,,,,1203.4751924999873,1203.4751924999873,1203.4751924999873,1203.4751924999873,1203.4751924999873,right,3.8128327000013087,12,0,0,99,0.48000000000000004,0.16,right,3.72453070001211,,,,,,,,,,,,,,,,,,,,,,,,,,,,,,,,,,,,,,,,,,,,,,,,,,,,,,,,,,,,QZV9UY,train_x,blue_star,top_left,2025-09-26_17h05.47.531,HideSeek_v1,2022.2.5,59.87665409611364,
,4,7,7,7,3,0,31,,train_dim1_1,21,30,,,,2,0,2,0,,,,,,,,,0,0,0,0,0,20,20,20,4,0,4,0,,,,,,,,,,,,,,,,,,,,,,,,,,,,,,,,,,,,,,,,,,,,,,,,,,,,,,,,,,,,,,,,30,,,,,,,,1207.296477099997,1207.296477099997,1207.296477099997,1207.296477099997,1207.296477099997,return,0.14317860000301152,12,1,0,0,0.48000000000000004,0.16,return,0.06233620001876261,-4,51,0.48000000000000004,0.16,,,,,,,,,,,,,,,,,,,,,,,,,,,,,,,,,,,,,,,,,,,,,,,,,,,,,,,,QZV9UY,train_x,blue_star,top_left,2025-09-26_17h05.47.531,HideSeek_v1,2022.2.5,59.87665409611364,
,1,5,5,5,4,0,21,,train_dim1_1,22,30,,,,2,0,2,0,,,,,,,,,0,0,0,0,0,21,21,21,0,0,0,0,,,,,,,,,,,,,,,,,,,,,,,,,stimuli/alien_stimuli/21.png,,,,,,,,,,,,,,,,,,,,,,,,,,,,,stimuli/alien_stimuli/31.png,31,4,23,,,,,,,30,,,,,,,,1211.5143656999862,1211.5143656999862,1211.5143656999862,1211.5143656999862,1211.5143656999862,right,1.338349700003164,12,1,0,99,0.0,0,right,1.22803660001955,,,,,1209.9340389999998,1211.5143656999862,0.4,0.16,0.0,0.24,0.16,0.4,0.28,0.4,0.16,1209.0006679999933,1209.0006679999933,1209.0006679999933,1209.0006679999933,1209.0006679999933,1209.0006679999933,1209.0006679999933,1209.0006679999933,1208.9833351599955,1.0358867999893846,return,0.9052513000060571,,,,,,,,,,,,,,,,,,,,,,,,,,,,,,,,,QZV9UY,train_x,blue_star,top_left,2025-09-26_17h05.47.531,HideSeek_v1,2022.2.5,59.87665409611364,
,1,5,5,5,4,0,21,,train_dim1_1,22,30,,,,2,0,2,0,,,,,,,,,0,0,0,0,0,21,21,21,1,0,1,0,,,,,,,,,,,,,,,,,,,,,,,,,,,,,,,,,,,,,,,,,,,,,,,,,,,,,,,,,,,,,,,,30,,,,,,,,1212.8381376999896,1212.8381376999896,1212.8381376999896,1212.8381376999896,1212.8381376999896,right,0.19284060000791214,12,1,0,99,0.08,0,right,0.10264660000393633,,,,,,,,,,,,,,,,,,,,,,,,,,,,,,,,,,,,,,,,,,,,,,,,,,,,,,,,,,,,QZV9UY,train_x,blue_star,top_left,2025-09-26_17h05.47.531,HideSeek_v1,2022.2.5,59.87665409611364,
,1,5,5,5,4,0,21,,train_dim1_1,22,30,,,,2,0,2,0,,,,,,,,,0,0,0,0,0,21,21,21,2,0,2,0,,,,,,,,,,,,,,,,,,,,,,,,,,,,,,,,,,,,,,,,,,,,,,,,,,,,,,,,,,,,,,,,30,,,,,,,,1213.0390130999876,1213.0390130999876,1213.0390130999876,1213.0390130999876,1213.0390130999876,right,0.1763753999985056,12,1,0,99,0.16,0,right,0.08727620000718161,,,,,,,,,,,,,,,,,,,,,,,,,,,,,,,,,,,,,,,,,,,,,,,,,,,,,,,,,,,,QZV9UY,train_x,blue_star,top_left,2025-09-26_17h05.47.531,HideSeek_v1,2022.2.5,59.87665409611364,
,1,5,5,5,4,0,21,,train_dim1_1,22,30,,,,2,0,2,0,,,,,,,,,0,0,0,0,0,21,21,21,3,0,3,0,,,,,,,,,,,,,,,,,,,,,,,,,,,,,,,,,,,,,,,,,,,,,,,,,,,,,,,,,,,,,,,,30,,,,,,,,1213.2237300999986,1213.2237300999986,1213.2237300999986,1213.2237300999986,1213.2237300999986,right,0.7265264000016032,12,1,0,99,0.24,0,right,0.6471060000185389,,,,,,,,,,,,,,,,,,,,,,,,,,,,,,,,,,,,,,,,,,,,,,,,,,,,,,,,,,,,QZV9UY,train_x,blue_star,top_left,2025-09-26_17h05.47.531,HideSeek_v1,2022.2.5,59.87665409611364,
,1,5,5,5,4,0,21,,train_dim1_1,22,30,,,,2,0,2,0,,,,,,,,,0,0,0,0,0,21,21,21,4,0,4,0,,,,,,,,,,,,,,,,,,,,,,,,,,,,,,,,,,,,,,,,,,,,,,,,,,,,,,,,,,,,,,,,30,,,,,,,,1213.9599299999973,1213.9599299999973,1213.9599299999973,1213.9599299999973,1213.9599299999973,return,0.20430550001037773,13,0,0,1,0.24,0,return,0.1151407000143081,-4,55,0.24,0,,,,,,,,,,,,,,,,,,,,,,,,,,,,,,,,,,,,,,,,,,,,,,,,,,,,,,,,QZV9UY,train_x,blue_star,top_left,2025-09-26_17h05.47.531,HideSeek_v1,2022.2.5,59.87665409611364,
,2,6,2,6,0,0,61,,train_dim1_1,23,30,,,,2,0,2,0,,,,,,,,,0,0,0,0,0,22,22,22,0,0,0,0,,,,,,,,,,,,,,,,,,,,,,,,,stimuli/alien_stimuli/61.png,,,,,,,,,,,,,,,,,,,,,,,,,,,,,stimuli/alien_stimuli/21.png,21,1,24,,,,,,,30,,,,,,,,1217.7130157999927,1217.7130157999927,1217.7130157999927,1217.7130157999927,1217.7130157999927,right,2.0077587999985553,13,0,0,99,0.08,0.08,right,1.9037297000177205,,,,,1216.1394613999873,1217.7130157999927,0.24,0,0.0,0.32,0.0,0.24,0.07999999999999999,0.24,0,1215.7356286999857,1215.7356286999857,1215.7356286999857,1215.7356286999857,1215.7356286999857,1215.7356286999857,1215.7356286999857,1215.7356286999857,1215.722045969982,0.5195887000008952,return,0.38558570001623593,,,,,,,,,,,,,,,,,,,,,,,,,,,,,,,,,QZV9UY,train_x,blue_star,top_left,2025-09-26_17h05.47.531,HideSeek_v1,2022.2.5,59.87665409611364,
,2,6,2,6,0,0,61,,train_dim1_1,23,30,,,,2,0,2,0,,,,,,,,,0,0,0,0,0,22,22,22,1,0,1,0,,,,,,,,,,,,,,,,,,,,,,,,,,,,,,,,,,,,,,,,,,,,,,,,,,,,,,,,,,,,,,,,30,,,,,,,,1219.7094207999908,1219.7094207999908,1219.7094207999908,1219.7094207999908,1219.7094207999908,return,0.17379429998982232,13,1,0,0,0.08,0.08,return,0.09496410001884215,-4,56,0.08,0.08,,,,,,,,,,,,,,,,,,,,,,,,,,,,,,,,,,,,,,,,,,,,,,,,,,,,,,,,QZV9UY,train_x,blue_star,top_left,2025-09-26_17h05.47.531,HideSeek_v1,2022.2.5,59.87665409611364,
,4,9,5,9,1,0,51,,train_dim1_1,24,30,,,,2,0,2,0,,,,,,,,,0,0,0,0,0,23,23,23,0,0,0,0,,,,,,,,,,,,,,,,,,,,,,,,,stimuli/alien_stimuli/51.png,,,,,,,,,,,,,,,,,,,,,,,,,,,,,stimuli/alien_stimuli/61.png,61,2,25,,,,,,,30,,,,,,,,1223.778638399992,1223.778638399992,1223.778638399992,1223.778638399992,1223.778638399992,return,1.3346076000016183,13,1,0,0,0.16,0.32,return,1.2404967000184115,-4,56,0.16,0.32,1222.2112081999949,1223.778638399992,0,0.08,0.0,0.0,0.08,0,0.0,0,0.08,1221.445183799995,1221.445183799995,1221.445183799995,1221.445183799995,1221.445183799995,1221.445183799995,1221.445183799995,1221.445183799995,1221.4273000599933,0.870074200007366,return,0.7346783000102732,,,,,,,,,,,,,,,,,,,,,,,,,,,,,,,,,QZV9UY,train_x,blue_star,top_left,2025-09-26_17h05.47.531,HideSeek_v1,2022.2.5,59.87665409611364,
,3,5,8,5,5,0,11,,train_dim1_1,25,30,,,,2,0,2,0,,,,,,,,,0,0,0,0,0,24,24,24,0,0,0,0,,,,,,,,,,,,,,,,,,,,,,,,,stimuli/alien_stimuli/11.png,,,,,,,,,,,,,,,,,,,,,,,,,,,,,stimuli/alien_stimuli/51.png,51,4,26,,,,,,,30,,,,,,,,1229.2839414999908,1229.2839414999908,1229.2839414999908,1229.2839414999908,1229.2839414999908,right,0.967551400011871,13,1,0,99,0.16,0,right,0.8728323000104865,,,,,1227.7154936999868,1229.2839414999908,0.24,0.32,0.0,0.08,0.32,0.24,0.2,0.24,0.32,1226.6711485999986,1226.6711485999986,1226.6711485999986,1226.6711485999986,1226.6711485999986,1226.6711485999986,1226.6711485999986,1226.6711485999986,1226.6481783599884,1.1529466999927536,return,1.01271340000676,,,,,,,,,,,,,,,,,,,,,,,,,,,,,,,,,QZV9UY,train_x,blue_star,top_left,2025-09-26_17h05.47.531,HideSeek_v1,2022.2.5,59.87665409611364,
,3,5,8,5,5,0,11,,train_dim1_1,25,30,,,,2,0,2,0,,,,,,,,,0,0,0,0,0,24,24,24,1,0,1,0,,,,,,,,,,,,,,,,,,,,,,,,,,,,,,,,,,,,,,,,,,,,,,,,,,,,,,,,,,,,,,,,30,,,,,,,,1230.2552996999875,1230.2552996999875,1230.2552996999875,1230.2552996999875,1230.2552996999875,right,0.18999569999868982,13,1,0,99,0.24,0,right,0.10440460001700558,,,,,,,,,,,,,,,,,,,,,,,,,,,,,,,,,,,,,,,,,,,,,,,,,,,,,,,,,,,,QZV9UY,train_x,blue_star,top_left,2025-09-26_17h05.47.531,HideSeek_v1,2022.2.5,59.87665409611364,
,3,5,8,5,5,0,11,,train_dim1_1,25,30,,,,2,0,2,0,,,,,,,,,0,0,0,0,0,24,24,24,2,0,2,0,,,,,,,,,,,,,,,,,,,,,,,,,,,,,,,,,,,,,,,,,,,,,,,,,,,,,,,,,,,,,,,,30,,,,,,,,1230.451801999996,1230.451801999996,1230.451801999996,1230.451801999996,1230.451801999996,right,0.19316860000253655,13,1,0,99,0.32,0,right,0.10496080000302754,,,,,,,,,,,,,,,,,,,,,,,,,,,,,,,,,,,,,,,,,,,,,,,,,,,,,,,,,,,,QZV9UY,train_x,blue_star,top_left,2025-09-26_17h05.47.531,HideSeek_v1,2022.2.5,59.87665409611364,
,3,5,8,5,5,0,11,,train_dim1_1,25,30,,,,2,0,2,0,,,,,,,,,0,0,0,0,0,24,24,24,3,0,3,0,,,,,,,,,,,,,,,,,,,,,,,,,,,,,,,,,,,,,,,,,,,,,,,,,,,,,,,,,,,,,,,,30,,,,,,,,1230.6521357999882,1230.6521357999882,1230.6521357999882,1230.6521357999882,1230.6521357999882,right,0.19320590001007076,13,1,0,99,0.4,0,right,0.1086630000063451,,,,,,,,,,,,,,,,,,,,,,,,,,,,,,,,,,,,,,,,,,,,,,,,,,,,,,,,,,,,QZV9UY,train_x,blue_star,top_left,2025-09-26_17h05.47.531,HideSeek_v1,2022.2.5,59.87665409611364,
,3,5,8,5,5,0,11,,train_dim1_1,25,30,,,,2,0,2,0,,,,,,,,,0,0,0,0,0,24,24,24,4,0,4,0,,,,,,,,,,,,,,,,,,,,,,,,,,,,,,,,,,,,,,,,,,,,,,,,,,,,,,,,,,,,,,,,30,,,,,,,,1230.8559645999921,1230.8559645999921,1230.8559645999921,1230.8559645999921,1230.8559645999921,right,0.35679740000341553,13,1,0,99,0.48000000000000004,0,right,0.2692104000161635,,,,,,,,,,,,,,,,,,,,,,,,,,,,,,,,,,,,,,,,,,,,,,,,,,,,,,,,,,,,QZV9UY,train_x,blue_star,top_left,2025-09-26_17h05.47.531,HideSeek_v1,2022.2.5,59.87665409611364,
,3,5,8,5,5,0,11,,train_dim1_1,25,30,,,,2,0,2,0,,,,,,,,,0,0,0,0,0,24,24,24,5,0,5,0,,,,,,,,,,,,,,,,,,,,,,,,,,,,,,,,,,,,,,,,,,,,,,,,,,,,,,,,,,,,,,,,30,,,,,,,,1231.2191802999878,1231.2191802999878,1231.2191802999878,1231.2191802999878,1231.2191802999878,return,0.24349710000387859,14,0,0,1,0.48000000000000004,0,return,0.16431500001635868,-4,61,0.48000000000000004,0,,,,,,,,,,,,,,,,,,,,,,,,,,,,,,,,,,,,,,,,,,,,,,,,,,,,,,,,QZV9UY,train_x,blue_star,top_left,2025-09-26_17h05.47.531,HideSeek_v1,2022.2.5,59.87665409611364,
,1,6,1,6,0,0,61,,train_dim1_1,26,30,,,,2,0,2,0,,,,,,,,,0,0,0,0,0,25,25,25,0,0,0,0,,,,,,,,,,,,,,,,,,,,,,,,,stimuli/alien_stimuli/61.png,,,,,,,,,,,,,,,,,,,,,,,,,,,,,stimuli/alien_stimuli/11.png,11,3,27,,,,,,,30,,,,,,,,1235.5646629999974,1235.5646629999974,1235.5646629999974,1235.5646629999974,1235.5646629999974,return,2.1224159999983385,15,0,0,1,-0.08,0.08,return,2.027588500015554,-4,61,-0.08,0.08,1234.004167399995,1235.5646629999974,0.48,0,0.0,0.4,0.0,0.48,0.27999999999999997,0.48,0,1233.0324952999945,1233.0324952999945,1233.0324952999945,1233.0324952999945,1233.0324952999945,1233.0324952999945,1233.0324952999945,1233.0324952999945,1233.020162569992,1.0860896999947727,return,0.9445896000106586,,,,,,,,,,,,,,,,,,,,,,,,,,,,,,,,,QZV9UY,train_x,blue_star,top_left,2025-09-26_17h05.47.531,HideSeek_v1,2022.2.5,59.87665409611364,
,0,6,3,6,3,0,31,,train_dim1_1,27,30,,,,2,0,2,0,,,,,,,,,0,0,0,0,0,26,26,26,0,0,0,0,,,,,,,,,,,,,,,,,,,,,,,,,stimuli/alien_stimuli/31.png,,,,,,,,,,,,,,,,,,,,,,,,,,,,,stimuli/alien_stimuli/61.png,61,1,28,,,,,,,30,,,,,,,,1241.204500199994,1241.204500199994,1241.204500199994,1241.204500199994,1241.204500199994,right,1.1193385999940801,15,0,0,99,-0.08,0.08,right,1.0398331000033068,,,,,1239.642304899986,1241.204500199994,-0.08,0.08,0.0,0.0,0.08,-0.08,-0.08,-0.08,0.08,1239.2443293999968,1239.2443293999968,1239.2443293999968,1239.2443293999968,1239.2443293999968,1239.2443293999968,1239.2443293999968,1239.2443293999968,1239.2251404599956,0.5032336000003852,return,0.38247080001747236,,,,,,,,,,,,,,,,,,,,,,,,,,,,,,,,,QZV9UY,train_x,blue_star,top_left,2025-09-26_17h05.47.531,HideSeek_v1,2022.2.5,59.87665409611364,
,0,6,3,6,3,0,31,,train_dim1_1,27,30,,,,2,0,2,0,,,,,,,,,0,0,0,0,0,26,26,26,1,0,1,0,,,,,,,,,,,,,,,,,,,,,,,,,,,,,,,,,,,,,,,,,,,,,,,,,,,,,,,,,,,,,,,,30,,,,,,,,1242.3250224999938,1242.3250224999938,1242.3250224999938,1242.3250224999938,1242.3250224999938,right,0.2261434999963967,15,0,0,99,0.0,0.08,right,0.13794780000171158,,,,,,,,,,,,,,,,,,,,,,,,,,,,,,,,,,,,,,,,,,,,,,,,,,,,,,,,,,,,QZV9UY,train_x,blue_star,top_left,2025-09-26_17h05.47.531,HideSeek_v1,2022.2.5,59.87665409611364,
,0,6,3,6,3,0,31,,train_dim1_1,27,30,,,,2,0,2,0,,,,,,,,,0,0,0,0,0,26,26,26,2,0,2,0,,,,,,,,,,,,,,,,,,,,,,,,,,,,,,,,,,,,,,,,,,,,,,,,,,,,,,,,,,,,,,,,30,,,,,,,,1242.558403499992,1242.558403499992,1242.558403499992,1242.558403499992,1242.558403499992,right,0.27681109998957254,15,0,0,99,0.08,0.08,right,0.201723000020138,,,,,,,,,,,,,,,,,,,,,,,,,,,,,,,,,,,,,,,,,,,,,,,,,,,,,,,,,,,,QZV9UY,train_x,blue_star,top_left,2025-09-26_17h05.47.531,HideSeek_v1,2022.2.5,59.87665409611364,
,0,6,3,6,3,0,31,,train_dim1_1,27,30,,,,2,0,2,0,,,,,,,,,0,0,0,0,0,26,26,26,3,0,3,0,,,,,,,,,,,,,,,,,,,,,,,,,,,,,,,,,,,,,,,,,,,,,,,,,,,,,,,,,,,,,,,,30,,,,,,,,1242.8424767999968,1242.8424767999968,1242.8424767999968,1242.8424767999968,1242.8424767999968,right,2.3781276999943657,15,0,0,99,0.16,0.08,right,2.2943798000051174,,,,,,,,,,,,,,,,,,,,,,,,,,,,,,,,,,,,,,,,,,,,,,,,,,,,,,,,,,,,QZV9UY,train_x,blue_star,top_left,2025-09-26_17h05.47.531,HideSeek_v1,2022.2.5,59.87665409611364,
,0,6,3,6,3,0,31,,train_dim1_1,27,30,,,,2,0,2,0,,,,,,,,,0,0,0,0,0,26,26,26,4,0,4,0,,,,,,,,,,,,,,,,,,,,,,,,,,,,,,,,,,,,,,,,,,,,,,,,,,,,,,,,,,,,,,,,30,,,,,,,,1245.2271453999856,1245.2271453999856,1245.2271453999856,1245.2271453999856,1245.2271453999856,return,0.12668359999952372,15,1,0,0,0.16,0.08,return,0.03810119999980088,-4,65,0.16,0.08,,,,,,,,,,,,,,,,,,,,,,,,,,,,,,,,,,,,,,,,,,,,,,,,,,,,,,,,QZV9UY,train_x,blue_star,top_left,2025-09-26_17h05.47.531,HideSeek_v1,2022.2.5,59.87665409611364,
,3,6,7,6,4,0,21,,train_dim1_1,28,30,,,,2,0,2,0,,,,,,,,,0,0,0,0,0,27,27,27,0,0,0,0,,,,,,,,,,,,,,,,,,,,,,,,,stimuli/alien_stimuli/21.png,,,,,,,,,,,,,,,,,,,,,,,,,,,,,stimuli/alien_stimuli/31.png,31,0,29,,,,,,,30,,,,,,,,1249.214384299994,1249.214384299994,1249.214384299994,1249.214384299994,1249.214384299994,right,1.2400139000092167,15,1,0,99,0.16,0.08,right,1.1424589000089327,,,,,1247.649006599997,1249.214384299994,0.08,0.08,0.0,0.24,0.08,0.08,-0.04,0.08,0.08,1246.9164663999982,1246.9164663999982,1246.9164663999982,1246.9164663999982,1246.9164663999982,1246.9164663999982,1246.9164663999982,1246.9164663999982,1246.8983285599825,0.8362267999909818,return,0.7081463000067743,,,,,,,,,,,,,,,,,,,,,,,,,,,,,,,,,QZV9UY,train_x,blue_star,top_left,2025-09-26_17h05.47.531,HideSeek_v1,2022.2.5,59.87665409611364,
,3,6,7,6,4,0,21,,train_dim1_1,28,30,,,,2,0,2,0,,,,,,,,,0,0,0,0,0,27,27,27,1,0,1,0,,,,,,,,,,,,,,,,,,,,,,,,,,,,,,,,,,,,,,,,,,,,,,,,,,,,,,,,,,,,,,,,30,,,,,,,,1250.4519369999907,1250.4519369999907,1250.4519369999907,1250.4519369999907,1250.4519369999907,right,0.2262341000023298,15,1,0,99,0.24,0.08,right,0.14574440001160838,,,,,,,,,,,,,,,,,,,,,,,,,,,,,,,,,,,,,,,,,,,,,,,,,,,,,,,,,,,,QZV9UY,train_x,blue_star,top_left,2025-09-26_17h05.47.531,HideSeek_v1,2022.2.5,59.87665409611364,
,3,6,7,6,4,0,21,,train_dim1_1,28,30,,,,2,0,2,0,,,,,,,,,0,0,0,0,0,27,27,27,2,0,2,0,,,,,,,,,,,,,,,,,,,,,,,,,,,,,,,,,,,,,,,,,,,,,,,,,,,,,,,,,,,,,,,,30,,,,,,,,1250.686599099994,1250.686599099994,1250.686599099994,1250.686599099994,1250.686599099994,right,0.7098348999861628,15,1,0,99,0.32,0.08,right,0.628251200003433,,,,,,,,,,,,,,,,,,,,,,,,,,,,,,,,,,,,,,,,,,,,,,,,,,,,,,,,,,,,QZV9UY,train_x,blue_star,top_left,2025-09-26_17h05.47.531,HideSeek_v1,2022.2.5,59.87665409611364,
,3,6,7,6,4,0,21,,train_dim1_1,28,30,,,,2,0,2,0,,,,,,,,,0,0,0,0,0,27,27,27,3,0,3,0,,,,,,,,,,,,,,,,,,,,,,,,,,,,,,,,,,,,,,,,,,,,,,,,,,,,,,,,,,,,,,,,30,,,,,,,,1251.4057574999897,1251.4057574999897,1251.4057574999897,1251.4057574999897,1251.4057574999897,right,0.45767579998937435,15,1,0,99,0.4,0.08,right,0.3686285000148928,,,,,,,,,,,,,,,,,,,,,,,,,,,,,,,,,,,,,,,,,,,,,,,,,,,,,,,,,,,,QZV9UY,train_x,blue_star,top_left,2025-09-26_17h05.47.531,HideSeek_v1,2022.2.5,59.87665409611364,
,3,6,7,6,4,0,21,,train_dim1_1,28,30,,,,2,0,2,0,,,,,,,,,0,0,0,0,0,27,27,27,4,0,4,0,,,,,,,,,,,,,,,,,,,,,,,,,,,,,,,,,,,,,,,,,,,,,,,,,,,,,,,,,,,,,,,,30,,,,,,,,1251.8706641999888,1251.8706641999888,1251.8706641999888,1251.8706641999888,1251.8706641999888,return,0.9438363999943249,16,0,0,1,0.4,0.08,return,0.8543608000036329,-4,69,0.4,0.08,,,,,,,,,,,,,,,,,,,,,,,,,,,,,,,,,,,,,,,,,,,,,,,,,,,,,,,,QZV9UY,train_x,blue_star,top_left,2025-09-26_17h05.47.531,HideSeek_v1,2022.2.5,59.87665409611364,
,4,5,5,5,1,0,51,,train_dim1_1,29,30,,,,2,0,2,0,,,,,,,,,0,0,0,0,0,28,28,28,0,0,0,0,,,,,,,,,,,,,,,,,,,,,,,,,stimuli/alien_stimuli/51.png,,,,,,,,,,,,,,,,,,,,,,,,,,,,,stimuli/alien_stimuli/21.png,21,3,30,,,,,,,30,,,,,,,,1256.3178977999924,1256.3178977999924,1256.3178977999924,1256.3178977999924,1256.3178977999924,right,2.289464500005124,16,0,0,99,0.24,0,right,2.2042634000099497,,,,,1254.7548713999859,1256.3178977999924,0.4,0.08,0.0,0.32,0.08,0.4,0.24000000000000002,0.4,0.08,1254.3807407999993,1254.3807407999993,1254.3807407999993,1254.3807407999993,1254.3807407999993,1254.3807407999993,1254.3807407999993,1254.3807407999993,1254.3710178699912,0.48586439999053255,return,0.34887160001380835,,,,,,,,,,,,,,,,,,,,,,,,,,,,,,,,,QZV9UY,train_x,blue_star,top_left,2025-09-26_17h05.47.531,HideSeek_v1,2022.2.5,59.87665409611364,
,4,5,5,5,1,0,51,,train_dim1_1,29,30,,,,2,0,2,0,,,,,,,,,0,0,0,0,0,28,28,28,1,0,1,0,,,,,,,,,,,,,,,,,,,,,,,,,,,,,,,,,,,,,,,,,,,,,,,,,,,,,,,,,,,,,,,,30,,,,,,,,1258.6079205999995,1258.6079205999995,1258.6079205999995,1258.6079205999995,1258.6079205999995,return,0.24305309999908786,17,0,0,1,0.24,0,return,0.16536830001859926,-4,70,0.24,0,,,,,,,,,,,,,,,,,,,,,,,,,,,,,,,,,,,,,,,,,,,,,,,,,,,,,,,,QZV9UY,train_x,blue_star,top_left,2025-09-26_17h05.47.531,HideSeek_v1,2022.2.5,59.87665409611364,
,2,7,7,7,5,0,11,,train_dim1_1,30,30,,,,2,0,2,0,,,,,,,,,0,0,0,0,0,29,29,29,0,0,0,0,,,,,,,,,,,,,,,,,,,,,,,,,stimuli/alien_stimuli/11.png,,,,,,,,,,,,,,,,,,,,,,,,,,,,,stimuli/alien_stimuli/51.png,51,4,31,,,,,,,30,,,,,,,,1263.3596199999884,1263.3596199999884,1263.3596199999884,1263.3596199999884,1263.3596199999884,right,1.152432900009444,17,0,0,99,0.08,0.16,right,1.0658844000136014,,,,,1261.7940343999944,1263.3596199999884,0.24,0,0.0,0.08,0.0,0.24,0.2,0.24,0,1260.4149334999966,1260.4149334999966,1260.4149334999966,1260.4149334999966,1260.4149334999966,1260.4149334999966,1260.4149334999966,1260.4149334999966,1260.3927935599932,1.4868321000103606,return,1.3586888000136241,,,,,,,,,,,,,,,,,,,,,,,,,,,,,,,,,QZV9UY,train_x,blue_star,top_left,2025-09-26_17h05.47.531,HideSeek_v1,2022.2.5,59.87665409611364,
,2,7,7,7,5,0,11,,train_dim1_1,30,30,,,,2,0,2,0,,,,,,,,,0,0,0,0,0,29,29,29,1,0,1,0,,,,,,,,,,,,,,,,,,,,,,,,,,,,,,,,,,,,,,,,,,,,,,,,,,,,,,,,,,,,,,,,30,,,,,,,,1264.513990099993,1264.513990099993,1264.513990099993,1264.513990099993,1264.513990099993,right,0.1597985999978846,17,0,0,99,0.16,0.16,right,0.07007290002366062,,,,,,,,,,,,,,,,,,,,,,,,,,,,,,,,,,,,,,,,,,,,,,,,,,,,,,,,,,,,QZV9UY,train_x,blue_star,top_left,2025-09-26_17h05.47.531,HideSeek_v1,2022.2.5,59.87665409611364,
,2,7,7,7,5,0,11,,train_dim1_1,30,30,,,,2,0,2,0,,,,,,,,,0,0,0,0,0,29,29,29,2,0,2,0,,,,,,,,,,,,,,,,,,,,,,,,,,,,,,,,,,,,,,,,,,,,,,,,,,,,,,,,,,,,,,,,30,,,,,,,,1264.6816997999995,1264.6816997999995,1264.6816997999995,1264.6816997999995,1264.6816997999995,right,0.1763654999958817,17,0,0,99,0.24,0.16,right,0.08296560001326725,,,,,,,,,,,,,,,,,,,,,,,,,,,,,,,,,,,,,,,,,,,,,,,,,,,,,,,,,,,,QZV9UY,train_x,blue_star,top_left,2025-09-26_17h05.47.531,HideSeek_v1,2022.2.5,59.87665409611364,
,2,7,7,7,5,0,11,,train_dim1_1,30,30,,,,2,0,2,0,,,,,,,,,0,0,0,0,0,29,29,29,3,0,3,0,,,,,,,,,,,,,,,,,,,,,,,,,,,,,,,,,,,,,,,,,,,,,,,,,,,,,,,,,,,,,,,,30,,,,,,,,1264.8673218999902,1264.8673218999902,1264.8673218999902,1264.8673218999902,1264.8673218999902,right,0.17295940000622068,17,0,0,99,0.32,0.16,right,0.08222150000801776,,,,,,,,,,,,,,,,,,,,,,,,,,,,,,,,,,,,,,,,,,,,,,,,,,,,,,,,,,,,QZV9UY,train_x,blue_star,top_left,2025-09-26_17h05.47.531,HideSeek_v1,2022.2.5,59.87665409611364,
,2,7,7,7,5,0,11,,train_dim1_1,30,30,,,,2,0,2,0,,,,,,,,,0,0,0,0,0,29,29,29,4,0,4,0,,,,,,,,,,,,,,,,,,,,,,,,,,,,,,,,,,,,,,,,,,,,,,,,,,,,,,,,,,,,,,,,30,,,,,,,,1265.050284699988,1265.050284699988,1265.050284699988,1265.050284699988,1265.050284699988,right,0.3093464999983553,17,0,0,99,0.4,0.16,right,0.22281750000547618,,,,,,,,,,,,,,,,,,,,,,,,,,,,,,,,,,,,,,,,,,,,,,,,,,,,,,,,,,,,QZV9UY,train_x,blue_star,top_left,2025-09-26_17h05.47.531,HideSeek_v1,2022.2.5,59.87665409611364,
,2,7,7,7,5,0,11,,train_dim1_1,30,30,,,,2,0,2,0,,,,,,,,,0,0,0,0,0,29,29,29,5,0,5,0,,,,,,,,,,,,,,,,,,,,,,,,,,,,,,,,,,,,,,,,,,,,,,,,,,,,,,,,,,,,,,,,30,,,,,,,,1265.3637678999949,1265.3637678999949,1265.3637678999949,1265.3637678999949,1265.3637678999949,return,0.32628890000341926,18,0,0,1,0.4,0.16,return,0.2407064000144601,-4,75,0.4,0.16,,,,,,,,,,,,,,,,,,,,,,,,,,,,,,,,,,,,,,,,,,,,,,,,,,,,,,,,QZV9UY,train_x,blue_star,top_left,2025-09-26_17h05.47.531,HideSeek_v1,2022.2.5,59.87665409611364,
,,,,,,,,,,,30,,,,2,0,2,0,,,,,,,,,,,,,,,,,,,,,,,,,,,,,,,,,,,,,,,,,,,,,,,,,,,,,,,,,,,,,,,,,,,,,,,,,,stimuli/alien_stimuli/11.png,11,2,32,21,0.7,0.75,1,1,1,30,0,conditions/schedules/train_x_first/blue_star_00/top_left/inputTrain_2.1.xlsx,99,1,2,1,0,,,,,,,,,,,1,,,,,,,,,1268.1159219999972,1269.6597934999882,0.4,0.16,0.0,0.4,0.16,0.4,0.2,0.4,0.16,1267.2542819999944,1267.2542819999944,1267.2542819999944,1267.2542819999944,1267.2542819999944,1267.2542819999944,1267.2542819999944,1267.2542819999944,1267.2483994699942,0.9698115999926813,return,0.8418526000023121,0,0.9,0,1,18,,,,,,,,,,,,,,,,,,,,,,,,,,,,QZV9UY,train_x,blue_star,top_left,2025-09-26_17h05.47.531,HideSeek_v1,2022.2.5,59.87665409611364,
,,,,,,,,,,,,,,,3,0,3,0,0,0,0,0,,,,,,,,,,,,,,,,,,,,,,,,,,,,,,,conditions/schedules/train_x_first/blue_star_00/top_left/instructions/Slide17.png,conditions/schedules/train_x_first/blue_star_00/top_left/instructions/Audio17.wav,1269.6597934999882,1269.6505542299928,17,"[50.54035450000083, 18.52368280000519, 16.168468500007293, 19.334879999994882, 5.038641199993435, 5.387190399997053, 6.2665443000005325, 12.020206899993354, 6.088618099995074, 7.802349799996591, 9.72093660000246, 12.805498399990029, 16.82557669999369, 13.025402600003872, 30.051190800004406, 21.030680699986988, 40.15604389998771]","[0.014429000002564862, 18.523689900001045, 0.013751399994362146, 0.03441509998810943, 0.03173709999828134, 0.014775599993299693, 0.06318450000253506, 0.033521199991810136, 0.07922479999251664, 0.04595290000725072, 0.046332799989613704, 12.805505399999674, 16.825583699988783, 13.025410000002012, 0.00022249999165069312, 21.030687599995872, 40.15605049999431]",0,,,,,,,,,,,,,,,,,,,,,,,,,,,,,,,,,,,,,,,,,,,,,,,,,,,,,,,,,,,,,,,,,,,,,,,,,,,,,,,,,,,,,,,,,,,,,,,,,,,,,,,,,,,,,,,,,,,,,,,,,,,,QZV9UY,train_x,blue_star,top_left,2025-09-26_17h05.47.531,HideSeek_v1,2022.2.5,59.87665409611364,
,,,,,,,,,,,,,,,3,0,3,0,1,0,1,0,,,,,,,,,,,,,,,,,,,,,,,,,,,,,,,conditions/schedules/train_x_first/blue_star_00/top_left/instructions/Slide18.png,conditions/schedules/train_x_first/blue_star_00/top_left/instructions/Audio18.wav,1309.8850451999897,1309.8848365499944,18,"[50.54035450000083, 18.52368280000519, 16.168468500007293, 19.334879999994882, 5.038641199993435, 5.387190399997053, 6.2665443000005325, 12.020206899993354, 6.088618099995074, 7.802349799996591, 9.72093660000246, 12.805498399990029, 16.82557669999369, 13.025402600003872, 30.051190800004406, 21.030680699986988, 40.15604389998771, 6.218815600004746]","[0.014429000002564862, 18.523689900001045, 0.013751399994362146, 0.03441509998810943, 0.03173709999828134, 0.014775599993299693, 0.06318450000253506, 0.033521199991810136, 0.07922479999251664, 0.04595290000725072, 0.046332799989613704, 12.805505399999674, 16.825583699988783, 13.025410000002012, 0.00022249999165069312, 21.030687599995872, 0.0002145000034943223, 6.218822499999078]",0,,,,,,,,,,,,,,,,,,,,,,,,,,,,,,,,,,,,,,,,,,,,,,,,,,,,,,,,,,,,,,,,,,,,,,,,,,,,,,,,,,,,,,,,,,,,,,,,,,,,,,,,,,,,,,,,,,,,,,,,,,,,QZV9UY,train_x,blue_star,top_left,2025-09-26_17h05.47.531,HideSeek_v1,2022.2.5,59.87665409611364,
,,,,,,,,,,,,,,,3,0,3,0,2,0,2,0,,,,,,,,,,,,,,,,,,,,,,,,,,,,,,,conditions/schedules/train_x_first/blue_star_00/top_left/instructions/Slide19.png,conditions/schedules/train_x_first/blue_star_00/top_left/instructions/Audio19.wav,1316.146116799995,1316.1394737299925,19,"[50.54035450000083, 18.52368280000519, 16.168468500007293, 19.334879999994882, 5.038641199993435, 5.387190399997053, 6.2665443000005325, 12.020206899993354, 6.088618099995074, 7.802349799996591, 9.72093660000246, 12.805498399990029, 16.82557669999369, 13.025402600003872, 30.051190800004406, 21.030680699986988, 40.15604389998771, 6.218815600004746, 9.982348200006527]","[0.014429000002564862, 18.523689900001045, 0.013751399994362146, 0.03441509998810943, 0.03173709999828134, 0.014775599993299693, 0.06318450000253506, 0.033521199991810136, 0.07922479999251664, 0.04595290000725072, 0.046332799989613704, 12.805505399999674, 16.825583699988783, 13.025410000002012, 0.00022249999165069312, 21.030687599995872, 0.0002145000034943223, 0.03672119999828283, 9.982355700005428]",0,,,,,,,,,,,,,,,,,,,,,,,,,,,,,,,,,,,,,,,,,,,,,,,,,,,,,,,,,,,,,,,,,,,,,,,,,,,,,,,,,,,,,,,,,,,,,,,,,,,,,,,,,,,,,,,,,,,,,,,,,,,,QZV9UY,train_x,blue_star,top_left,2025-09-26_17h05.47.531,HideSeek_v1,2022.2.5,59.87665409611364,
,,,,,,,,,,,,,,,3,0,3,0,3,0,3,0,,,,,,,,,,,,,,,,,,,,,,,,,,,,,,,conditions/schedules/train_x_first/blue_star_00/top_left/instructions/Slide20.png,conditions/schedules/train_x_first/blue_star_00/top_left/instructions/Audio20.wav,1326.2041558999917,1326.1974895499952,20,"[50.54035450000083, 18.52368280000519, 16.168468500007293, 19.334879999994882, 5.038641199993435, 5.387190399997053, 6.2665443000005325, 12.020206899993354, 6.088618099995074, 7.802349799996591, 9.72093660000246, 12.805498399990029, 16.82557669999369, 13.025402600003872, 30.051190800004406, 21.030680699986988, 40.15604389998771, 6.218815600004746, 9.982348200006527, 13.919032100006007]","[0.014429000002564862, 18.523689900001045, 0.013751399994362146, 0.03441509998810943, 0.03173709999828134, 0.014775599993299693, 0.06318450000253506, 0.033521199991810136, 0.07922479999251664, 0.04595290000725072, 0.046332799989613704, 12.805505399999674, 16.825583699988783, 13.025410000002012, 0.00022249999165069312, 21.030687599995872, 0.0002145000034943223, 0.03672119999828283, 9.982355700005428, 13.919040100008715]",0,,,,,,,,,,,,,,,,,,,,,,,,,,,,,,,,,,,,,,,,,,,,,,,,,,,,,,,,,,,,,,,,,,,,,,,,,,,,,,,,,,,,,,,,,,,,,,,,,,,,,,,,,,,,,,,,,,,,,,,,,,,,QZV9UY,train_x,blue_star,top_left,2025-09-26_17h05.47.531,HideSeek_v1,2022.2.5,59.87665409611364,
1,0,8,0,3,0,-5,66,2,instr_dim1_2,,,,,,3,0,3,0,,,,,0,0,0,0,,,,,,,,,,,,,,,,,,,,,,,,,,,,,,,,,,,,,stimuli/alien_stimuli/66.png,conditions/schedules/train_x_first/blue_star_00/top_left/inputInstr_2.xlsx,stimuli/alien_stimuli/66.png,1340.2193787999859,1340.2193787999859,1340.2193787999859,1340.2193787999859,1340.209042559989,return,8.27942270001222,"[-0.16, -0.08, 0, 0.08, 0.16, 0.24, 0.32, 0.4, 0.48, 0.56]","[-0.4, -0.32, -0.24, -0.16, -0.08, 0, 0.08, 0.16, 0.24, 0.32]",3,8,0,0,0.4,0.0,1348.6360609999974,1348.6360609999974,1348.6360609999974,1348.6360609999974,1348.6360609999974,1348.6360609999974,1348.6360609999974,1348.6327179799846,6.105646199997864,return,5.9555303000088315,stimuli/alien_stimuli/66.png,66,0,1,,,,,,,,,,,,,,,,,,,,,,,,,,,,,,,,,,,,,,,,,,,,,,,,,,,,,,,,,,,,,,,,,,,,,,,,,,,,,,,,,,,,,,,,,QZV9UY,train_x,blue_star,top_left,2025-09-26_17h05.47.531,HideSeek_v1,2022.2.5,59.87665409611364,
,,,,,,,,,,,30,,,,3,0,3,0,,,,,,,,,,,,,,,,,,,,,,,,,,,,,,,,,,,,,,,,,,,,,,,,,,,,,,,,,,,,,,,,,,,,,,,,,,,,,,21,0.7,0.75,1,99,2,30,0,conditions/schedules/train_x_first/blue_star_00/top_left/inputTrain_2.1.xlsx,99,1,2,1,0,,,,,,,,,,,,,,,,,,,,,,,,,,,,,,,,,,,,,,,,,,,,,,,,,,,,,,,,,,,,,,,,,,,,,,,,,,,QZV9UY,train_x,blue_star,top_left,2025-09-26_17h05.47.531,HideSeek_v1,2022.2.5,59.87665409611364,
,,,,,,,,,,,,,,,4,0,4,0,0,0,0,0,,,,,,,,,,,,,,,,,,,,,,,,,,,,,,,conditions/schedules/train_x_first/blue_star_00/top_left/instructions/Slide21.png,conditions/schedules/train_x_first/blue_star_00/top_left/instructions/Audio21.wav,1354.7986052999913,1354.787630609986,21,"[50.54035450000083, 18.52368280000519, 16.168468500007293, 19.334879999994882, 5.038641199993435, 5.387190399997053, 6.2665443000005325, 12.020206899993354, 6.088618099995074, 7.802349799996591, 9.72093660000246, 12.805498399990029, 16.82557669999369, 13.025402600003872, 30.051190800004406, 21.030680699986988, 40.15604389998771, 6.218815600004746, 9.982348200006527, 13.919032100006007, 18.485971999994945]","[0.014429000002564862, 18.523689900001045, 0.013751399994362146, 0.03441509998810943, 0.03173709999828134, 0.014775599993299693, 0.06318450000253506, 0.033521199991810136, 0.07922479999251664, 0.04595290000725072, 0.046332799989613704, 12.805505399999674, 16.825583699988783, 13.025410000002012, 0.00022249999165069312, 21.030687599995872, 0.0002145000034943223, 0.03672119999828283, 9.982355700005428, 13.919040100008715, 18.485979299992323]",0,,,,,,,,,,,,,,,,,,,,,,,,,,,,,,,,,,,,,,,,,,,,,,,,,,,,,,,,,,,,,,,,,,,,,,,,,,,,,,,,,,,,,,,,,,,,,,,,,,,,,,,,,,,,,,,,,,,,,,,,,,,,QZV9UY,train_x,blue_star,top_left,2025-09-26_17h05.47.531,HideSeek_v1,2022.2.5,59.87665409611364,
2,2,8,2,8,0,0,61,2,instr_dim1_2,,,,,,4,0,4,0,,,,,0,0,0,0,,,,,,,,,,,,,,,,,,,,,,,,,,,,,,,,,,,,,stimuli/alien_stimuli/61.png,conditions/schedules/train_x_first/blue_star_00/top_left/inputInstr_2.xlsx,stimuli/alien_stimuli/61.png,1373.384259399987,1373.384259399987,1373.384259399987,1373.384259399987,1373.3867376699855,return,6.9171082000102615,"[-0.16, -0.08, 0, 0.08, 0.16, 0.24, 0.32, 0.4, 0.48, 0.56]","[-0.4, -0.32, -0.24, -0.16, -0.08, 0, 0.08, 0.16, 0.24, 0.32]",8,8,2,2,0.0,0.0,1380.4486546999979,1380.4486546999979,1380.4486546999979,1380.4486546999979,1380.4486546999979,1380.4486546999979,1380.4486546999979,1380.4423835799826,6.372877600006177,return,6.227885900007095,stimuli/alien_stimuli/61.png,61,2,2,,,,,,,,,,,,,,,,,,,,,,,,,,,,,,,,,,,,,,,,,,,,,,,,,,,,,,,,,,,,,,,,,,,,,,,,,,,,,,,,,,,,,,,,,QZV9UY,train_x,blue_star,top_left,2025-09-26_17h05.47.531,HideSeek_v1,2022.2.5,59.87665409611364,
,,,,,,,,,,,30,,,,4,0,4,0,,,,,,,,,,,,,,,,,,,,,,,,,,,,,,,,,,,,,,,,,,,,,,,,,,,,,,,,,,,,,,,,,,,,,,,,,,,,,,21,0.7,0.75,1,99,2,30,0,conditions/schedules/train_x_first/blue_star_00/top_left/inputTrain_2.1.xlsx,99,1,2,1,0,,,,,,,,,,,,,,,,,,,,,,,,,,,,,,,,,,,,,,,,,,,,,,,,,,,,,,,,,,,,,,,,,,,,,,,,,,,QZV9UY,train_x,blue_star,top_left,2025-09-26_17h05.47.531,HideSeek_v1,2022.2.5,59.87665409611364,
,,,,,,,,,,,,,,,5,0,5,0,0,0,0,0,,,,,,,,,,,,,,,,,,,,,,,,,,,,,,,conditions/schedules/train_x_first/blue_star_00/top_left/instructions/Slide22.png,conditions/schedules/train_x_first/blue_star_00/top_left/instructions/Audio22.wav,1386.8606591999996,1386.8476343999937,22,"[50.54035450000083, 18.52368280000519, 16.168468500007293, 19.334879999994882, 5.038641199993435, 5.387190399997053, 6.2665443000005325, 12.020206899993354, 6.088618099995074, 7.802349799996591, 9.72093660000246, 12.805498399990029, 16.82557669999369, 13.025402600003872, 30.051190800004406, 21.030680699986988, 40.15604389998771, 6.218815600004746, 9.982348200006527, 13.919032100006007, 18.485971999994945, 42.770177900005365]","[0.014429000002564862, 18.523689900001045, 0.013751399994362146, 0.03441509998810943, 0.03173709999828134, 0.014775599993299693, 0.06318450000253506, 0.033521199991810136, 0.07922479999251664, 0.04595290000725072, 0.046332799989613704, 12.805505399999674, 16.825583699988783, 13.025410000002012, 0.00022249999165069312, 21.030687599995872, 0.0002145000034943223, 0.03672119999828283, 9.982355700005428, 13.919040100008715, 18.485979299992323, 42.77018550000503]",0,,,,,,,,,,,,,,,,,,,,,,,,,,,,,,,,,,,,,,,,,,,,,,,,,,,,,,,,,,,,,,,,,,,,,,,,,,,,,,,,,,,,,,,,,,,,,,,,,,,,,,,,,,,,,,,,,,,,,,,,,,,,QZV9UY,train_x,blue_star,top_left,2025-09-26_17h05.47.531,HideSeek_v1,2022.2.5,59.87665409611364,
,0,5,0,1,0,-4,65,,train_dim1_2,1,30,,,,5,0,5,0,,,,,,,,,0,0,0,0,0,0,0,0,0,0,0,0,,,,,,,,,,,,,,,,,,,,,,,,,stimuli/alien_stimuli/65.png,,,,,,,,,,,,,,,,,,,,,,,,,,,,,,,,,,,,,,,30,,,,,,,,1429.7317643999995,1429.7317643999995,1429.7317643999995,1429.7317643999995,1429.7317643999995,down,1.8285364000039408,0,0,0,99,-0.16,-0.08,down,1.7236652999999933,,,,,,,,,,,,,,,,,,,,,,,,,,,,,,,,,,,,,,,,,,,,,,,,,,,,,,,,,,,,QZV9UY,train_x,blue_star,top_left,2025-09-26_17h05.47.531,HideSeek_v1,2022.2.5,59.87665409611364,
,0,5,0,1,0,-4,65,,train_dim1_2,1,30,,,,5,0,5,0,,,,,,,,,0,0,0,0,0,0,0,0,1,0,1,0,,,,,,,,,,,,,,,,,,,,,,,,,,,,,,,,,,,,,,,,,,,,,,,,,,,,,,,,,,,,,,,,30,,,,,,,,1431.5500449999963,1431.5500449999963,1431.5500449999963,1431.5500449999963,1431.5500449999963,down,1.4258017999964068,0,0,0,99,-0.16,-0.16,down,1.3523557000007713,,,,,,,,,,,,,,,,,,,,,,,,,,,,,,,,,,,,,,,,,,,,,,,,,,,,,,,,,,,,QZV9UY,train_x,blue_star,top_left,2025-09-26_17h05.47.531,HideSeek_v1,2022.2.5,59.87665409611364,
,0,5,0,1,0,-4,65,,train_dim1_2,1,30,,,,5,0,5,0,,,,,,,,,0,0,0,0,0,0,0,0,2,0,2,0,,,,,,,,,,,,,,,,,,,,,,,,,,,,,,,,,,,,,,,,,,,,,,,,,,,,,,,,,,,,,,,,30,,,,,,,,1432.9820309999923,1432.9820309999923,1432.9820309999923,1432.9820309999923,1432.9820309999923,down,0.32669210000312887,0,0,0,99,-0.16,-0.24,down,0.23925060001784004,,,,,,,,,,,,,,,,,,,,,,,,,,,,,,,,,,,,,,,,,,,,,,,,,,,,,,,,,,,,QZV9UY,train_x,blue_star,top_left,2025-09-26_17h05.47.531,HideSeek_v1,2022.2.5,59.87665409611364,
,0,5,0,1,0,-4,65,,train_dim1_2,1,30,,,,5,0,5,0,,,,,,,,,0,0,0,0,0,0,0,0,3,0,3,0,,,,,,,,,,,,,,,,,,,,,,,,,,,,,,,,,,,,,,,,,,,,,,,,,,,,,,,,,,,,,,,,30,,,,,,,,1433.3165374999953,1433.3165374999953,1433.3165374999953,1433.3165374999953,1433.3165374999953,down,0.3264120000094408,0,0,0,99,-0.16,-0.32,down,0.24544280000554863,,,,,,,,,,,,,,,,,,,,,,,,,,,,,,,,,,,,,,,,,,,,,,,,,,,,,,,,,,,,QZV9UY,train_x,blue_star,top_left,2025-09-26_17h05.47.531,HideSeek_v1,2022.2.5,59.87665409611364,
,0,5,0,1,0,-4,65,,train_dim1_2,1,30,,,,5,0,5,0,,,,,,,,,0,0,0,0,0,0,0,0,4,0,4,0,,,,,,,,,,,,,,,,,,,,,,,,,,,,,,,,,,,,,,,,,,,,,,,,,,,,,,,,,,,,,,,,30,,,,,,,,1433.6493040999922,1433.6493040999922,1433.6493040999922,1433.6493040999922,1433.6493040999922,down,0.39339870000549126,0,0,0,99,-0.16,-0.4,down,0.3056463000102667,,,,,,,,,,,,,,,,,,,,,,,,,,,,,,,,,,,,,,,,,,,,,,,,,,,,,,,,,,,,QZV9UY,train_x,blue_star,top_left,2025-09-26_17h05.47.531,HideSeek_v1,2022.2.5,59.87665409611364,
,0,5,0,1,0,-4,65,,train_dim1_2,1,30,,,,5,0,5,0,,,,,,,,,0,0,0,0,0,0,0,0,5,0,5,0,,,,,,,,,,,,,,,,,,,,,,,,,,,,,,,,,,,,,,,,,,,,,,,,,,,,,,,,,,,,,,,,30,,,,,,,,1434.0497745999892,1434.0497745999892,1434.0497745999892,1434.0497745999892,1434.0497745999892,return,1.143985499991686,0,1,0,0,-0.16,-0.4,return,1.0662718000094173,-9,75,-0.16,-0.4,,,,,,,,,,,,,,,,,,,,,,,,,,,,,,,,,,,,,,,,,,,,,,,,,,,,,,,,QZV9UY,train_x,blue_star,top_left,2025-09-26_17h05.47.531,HideSeek_v1,2022.2.5,59.87665409611364,
,3,7,3,2,0,-5,66,,train_dim1_2,2,30,,,,5,0,5,0,,,,,,,,,0,0,0,0,0,1,1,1,0,0,0,0,,,,,,,,,,,,,,,,,,,,,,,,,stimuli/alien_stimuli/66.png,,,,,,,,,,,,,,,,,,,,,,,,,,,,,stimuli/alien_stimuli/65.png,65,0,3,,,,,,,30,,,,,,,,1440.2292023999908,1440.2292023999908,1440.2292023999908,1440.2292023999908,1440.2292023999908,down,1.1701849000091897,0,1,0,99,0.08,0.08,down,1.0879210000130115,,,,,1438.6742331999994,1440.2292023999908,-0.16,-0.32,0.32,0.0,-0.16,-0.16,-0.16,-0.16,-0.32,1436.7753150999924,1436.7753150999924,1436.7753150999924,1436.7753150999924,1436.7753150999924,1436.7753150999924,1436.7753150999924,1436.7753150999924,1436.7559598699954,2.0202322999975877,return,1.8675080000102753,,,,,,,,,,,,,,,,,,,,,,,,,,,,,,,,,QZV9UY,train_x,blue_star,top_left,2025-09-26_17h05.47.531,HideSeek_v1,2022.2.5,59.87665409611364,
,3,7,3,2,0,-5,66,,train_dim1_2,2,30,,,,5,0,5,0,,,,,,,,,0,0,0,0,0,1,1,1,1,0,1,0,,,,,,,,,,,,,,,,,,,,,,,,,,,,,,,,,,,,,,,,,,,,,,,,,,,,,,,,,,,,,,,,30,,,,,,,,1441.406820899996,1441.406820899996,1441.406820899996,1441.406820899996,1441.406820899996,down,0.4593291000055615,0,1,0,99,0.08,0.0,down,0.3728483000159031,,,,,,,,,,,,,,,,,,,,,,,,,,,,,,,,,,,,,,,,,,,,,,,,,,,,,,,,,,,,QZV9UY,train_x,blue_star,top_left,2025-09-26_17h05.47.531,HideSeek_v1,2022.2.5,59.87665409611364,
