trialInstr,x_fixStart,y_fixStart,x_corrSteps,y_corrSteps,x_nrSteps,y_nrSteps,alienID,trialLength,version,trialTrain,praclen,testlen,trial_label,break_on_off,beforeExpLoop.thisRepN,beforeExpLoop.thisTrialN,beforeExpLoop.thisN,beforeExpLoop.thisIndex,mini_instr_trials.thisRepN,mini_instr_trials.thisTrialN,mini_instr_trials.thisN,mini_instr_trials.thisIndex,instrLoop.thisRepN,instrLoop.thisTrialN,instrLoop.thisN,instrLoop.thisIndex,repeat_prac.thisRepN,repeat_prac.thisTrialN,repeat_prac.thisN,repeat_prac.thisIndex,trainLoop.thisRepN,trainLoop.thisTrialN,trainLoop.thisN,trainLoop.thisIndex,moveLoop_train.thisRepN,moveLoop_train.thisTrialN,moveLoop_train.thisN,moveLoop_train.thisIndex,experiment.thisRepN,experiment.thisTrialN,experiment.thisN,experiment.thisIndex,moveLoop_test.thisRepN,moveLoop_test.thisTrialN,moveLoop_test.thisN,moveLoop_test.thisIndex,mini_instr2_trials.thisRepN,mini_instr2_trials.thisTrialN,mini_instr2_trials.thisN,mini_instr2_trials.thisIndex,start_all_time,url,slideStim,audioStim,slides.started,sounds.started,nextButton.numClicks,nextButton.timesOn,nextButton.timesOff,prev_but.numClicks,prev_but.timesOn,prev_but.timesOff,alienStim,instrFile,alienStim_instr,gridImage_instr.started,startPos_3.started,key_instr.started,alienImage_3.started,sounds_1.started,key_instr.keys,key_instr.rt,all_x,all_y,FBy_corrSteps,FBy_fixStart,FBx_corrSteps,FBx_fixStart,FBy_pathSize_check,FBx_pathSize_check,gridImage_9.started,alienImageFB_3.started,startPosFB_3.started,keyFB_3.started,pathLine_ydir_2.started,pathLine_xdir_2.started,alienFace_3.started,sounds_2.started,RTFB_instr,keyFB_3.keys,keyFB_3.rt,draw_alienStim,draw_alienID,test_x,nrepcount,perfthres,percthres,earlierperf,earlystop,nextPrac,fileidx,praclen,saveACC_train,pracFile,nextPrac_train,addNrep,fileidx_endr,repExp,showearly,gridImage_4.started,startPos.started,movePos.started,key_resp.started,alienImage.started,wLy_dir,wLx_dir,x_movePos,y_movePos,buttonPress_train,RTchoice_train,cumAcctrain,aCorr,saveACC_choice,corrAns,x_movePos_end,y_movePos_end,key_resp.keys,key_resp.rt,text_2.started,aft_x_corrPos,aft_y_corrPos,y_pathSize_check,x_pathSize_check,y_pathdirY,x_pathdirY,x_pathdirX,x_corrPos,y_corrPos,gridImage_6.started,alienImageFB_2.started,startPosFB_2.started,movePosFB_2.started,keyFB_2.started,pathLine_xdir.started,pathLine_ydir.started,alienFace.started,sounds_4.started,RT_FBtrain,keyFB_2.keys,keyFB_2.rt,text_2.stopped,saveACC_pre,ACC,within_saveACC_train,earlystop_wloop,cumAcctrain_check,gridImage_3.started,alienImage_test.started,startPos_test.started,movePos_test.started,key_resp_test.started,wLy_dir_test,wLx_dir_test,buttonPress_test,RTchoice_test,cumAcctest,corrAns_test,key_resp_test.keys,key_resp_test.rt,text_3.started,text_3.stopped,total_time,end_all_time,key_resp_3.keys,slides_2.started,sounds_3.started,nextButton_2.numClicks,nextButton_2.timesOn,nextButton_2.timesOff,prev_but_2.numClicks,prev_but_2.timesOn,prev_but_2.timesOff,bye.started,participant,train_first,00_coordinate,starting corner,date,expName,psychopyVersion,frameRate,
,,,,,,,,,,,,,,,0,0,0,0,0,0,0,0,,,,,,,,,,,,,,,,,,,,,,,,,,,,,start_all_time,testround,conditions/schedules/train_y_first/blue_star_00/top_left/instructions/Slide1.png,conditions/schedules/train_y_first/blue_star_00/top_left/instructions/Audio1.wav,863.8918837000092,863.843746300548,1,[18.522631200001342],[18.522638099995675],0,,,,,,,,,,,,,,,,,,,,,,,,,,,,,,,,,,,,,,,,,,,,,,,,,,,,,,,,,,,,,,,,,,,,,,,,,,,,,,,,,,,,,,,,,,,,,,,,,,,,,,,,,,,,,,,,,,,,,,,,,,,,R1W7WT,train_y,blue_star,top_left,2025-01-24_16h14.37.194,HideSeek_v1,2022.2.5,59.979978684279956,
,,,,,,,,,,,,,,,0,0,0,0,1,0,1,0,,,,,,,,,,,,,,,,,,,,,,,,,,,,,,,conditions/schedules/train_y_first/blue_star_00/top_left/instructions/Slide2.png,conditions/schedules/train_y_first/blue_star_00/top_left/instructions/Audio2.wav,882.4558778000064,882.4522161000175,2,"[18.522631200001342, 18.21091280001565]","[18.522638099995675, 18.210919800010743]",0,,,,,,,,,,,,,,,,,,,,,,,,,,,,,,,,,,,,,,,,,,,,,,,,,,,,,,,,,,,,,,,,,,,,,,,,,,,,,,,,,,,,,,,,,,,,,,,,,,,,,,,,,,,,,,,,,,,,,,,,,,,,R1W7WT,train_y,blue_star,top_left,2025-01-24_16h14.37.194,HideSeek_v1,2022.2.5,59.979978684279956,
,,,,,,,,,,,,,,,0,0,0,0,2,0,2,0,,,,,,,,,,,,,,,,,,,,,,,,,,,,,,,conditions/schedules/train_y_first/blue_star_00/top_left/instructions/Slide3.png,conditions/schedules/train_y_first/blue_star_00/top_left/instructions/Audio3.wav,900.7504950999864,900.7518394000188,3,"[18.522631200001342, 18.21091280001565, 17.679395899991505]","[18.522638099995675, 0.032218099979218096, 17.67940219998127]",0,,,,,,,,,,,,,,,,,,,,,,,,,,,,,,,,,,,,,,,,,,,,,,,,,,,,,,,,,,,,,,,,,,,,,,,,,,,,,,,,,,,,,,,,,,,,,,,,,,,,,,,,,,,,,,,,,,,,,,,,,,,,R1W7WT,train_y,blue_star,top_left,2025-01-24_16h14.37.194,HideSeek_v1,2022.2.5,59.979978684279956,
,,,,,,,,,,,,,,,0,0,0,0,3,0,3,0,,,,,,,,,,,,,,,,,,,,,,,,,,,,,,,conditions/schedules/train_y_first/blue_star_00/top_left/instructions/Slide4.png,conditions/schedules/train_y_first/blue_star_00/top_left/instructions/Audio4.wav,918.5081505999842,918.4992061500088,4,"[18.522631200001342, 18.21091280001565, 17.679395899991505, 19.909414099995047]","[18.522638099995675, 0.032218099979218096, 0.03750990002299659, 19.909420500014676]",0,,,,,,,,,,,,,,,,,,,,,,,,,,,,,,,,,,,,,,,,,,,,,,,,,,,,,,,,,,,,,,,,,,,,,,,,,,,,,,,,,,,,,,,,,,,,,,,,,,,,,,,,,,,,,,,,,,,,,,,,,,,,R1W7WT,train_y,blue_star,top_left,2025-01-24_16h14.37.194,HideSeek_v1,2022.2.5,59.979978684279956,
,,,,,,,,,,,,,,,0,0,0,0,4,0,4,0,,,,,,,,,,,,,,,,,,,,,,,,,,,,,,,conditions/schedules/train_y_first/blue_star_00/top_left/instructions/Slide5.png,conditions/schedules/train_y_first/blue_star_00/top_left/instructions/Audio5.wav,938.4823832999973,938.4697271000069,5,"[18.522631200001342, 18.21091280001565, 17.679395899991505, 19.909414099995047, 6.197201899980428]","[18.522638099995675, 0.032218099979218096, 0.03750990002299659, 0.11309780000010505, 6.197209299978567]",0,,,,,,,,,,,,,,,,,,,,,,,,,,,,,,,,,,,,,,,,,,,,,,,,,,,,,,,,,,,,,,,,,,,,,,,,,,,,,,,,,,,,,,,,,,,,,,,,,,,,,,,,,,,,,,,,,,,,,,,,,,,,R1W7WT,train_y,blue_star,top_left,2025-01-24_16h14.37.194,HideSeek_v1,2022.2.5,59.979978684279956,
,,,,,,,,,,,,,,,0,0,0,0,5,0,5,0,,,,,,,,,,,,,,,,,,,,,,,,,,,,,,,conditions/schedules/train_y_first/blue_star_00/top_left/instructions/Slide6.png,conditions/schedules/train_y_first/blue_star_00/top_left/instructions/Audio6.wav,944.7294117999845,944.7301523999951,6,"[18.522631200001342, 18.21091280001565, 17.679395899991505, 19.909414099995047, 6.197201899980428, 5.44743989998824]","[18.522638099995675, 0.032218099979218096, 0.03750990002299659, 0.11309780000010505, 0.03772279998520389, 5.447446899983333]",0,,,,,,,,,,,,,,,,,,,,,,,,,,,,,,,,,,,,,,,,,,,,,,,,,,,,,,,,,,,,,,,,,,,,,,,,,,,,,,,,,,,,,,,,,,,,,,,,,,,,,,,,,,,,,,,,,,,,,,,,,,,,R1W7WT,train_y,blue_star,top_left,2025-01-24_16h14.37.194,HideSeek_v1,2022.2.5,59.979978684279956,
,,,,,,,,,,,,,,,0,0,0,0,6,0,6,0,,,,,,,,,,,,,,,,,,,,,,,,,,,,,,,conditions/schedules/train_y_first/blue_star_00/top_left/instructions/Slide7.png,conditions/schedules/train_y_first/blue_star_00/top_left/instructions/Audio7.wav,950.2275923999841,950.2293040999967,7,"[18.522631200001342, 18.21091280001565, 17.679395899991505, 19.909414099995047, 6.197201899980428, 5.44743989998824, 5.651465999981156]","[18.522638099995675, 0.032218099979218096, 0.03750990002299659, 0.11309780000010505, 0.03772279998520389, 0.049008999980287626, 5.651472500001546]",0,,,,,,,,,,,,,,,,,,,,,,,,,,,,,,,,,,,,,,,,,,,,,,,,,,,,,,,,,,,,,,,,,,,,,,,,,,,,,,,,,,,,,,,,,,,,,,,,,,,,,,,,,,,,,,,,,,,,,,,,,,,,R1W7WT,train_y,blue_star,top_left,2025-01-24_16h14.37.194,HideSeek_v1,2022.2.5,59.979978684279956,
,,,,,,,,,,,,,,,0,0,0,0,7,0,7,0,,,,,,,,,,,,,,,,,,,,,,,,,,,,,,,conditions/schedules/train_y_first/blue_star_00/top_left/instructions/Slide8.png,conditions/schedules/train_y_first/blue_star_00/top_left/instructions/Audio8.wav,955.9324719999859,955.9315942000131,8,"[18.522631200001342, 18.21091280001565, 17.679395899991505, 19.909414099995047, 6.197201899980428, 5.44743989998824, 5.651465999981156, 12.089662499987753]","[18.522638099995675, 0.032218099979218096, 0.03750990002299659, 0.11309780000010505, 0.03772279998520389, 0.049008999980287626, 0.0497726000030525, 12.089669200009666]",0,,,,,,,,,,,,,,,,,,,,,,,,,,,,,,,,,,,,,,,,,,,,,,,,,,,,,,,,,,,,,,,,,,,,,,,,,,,,,,,,,,,,,,,,,,,,,,,,,,,,,,,,,,,,,,,,,,,,,,,,,,,,R1W7WT,train_y,blue_star,top_left,2025-01-24_16h14.37.194,HideSeek_v1,2022.2.5,59.979978684279956,
,,,,,,,,,,,,,,,0,0,0,0,8,0,8,0,,,,,,,,,,,,,,,,,,,,,,,,,,,,,,,conditions/schedules/train_y_first/blue_star_00/top_left/instructions/Slide9.png,conditions/schedules/train_y_first/blue_star_00/top_left/instructions/Audio9.wav,968.0866287999961,968.0743854000058,9,"[18.522631200001342, 18.21091280001565, 17.679395899991505, 19.909414099995047, 6.197201899980428, 5.44743989998824, 5.651465999981156, 12.089662499987753, 6.223057399998652]","[18.522638099995675, 0.032218099979218096, 0.03750990002299659, 0.11309780000010505, 0.03772279998520389, 0.049008999980287626, 0.0497726000030525, 0.07043809999595396, 6.223063799989177]",0,,,,,,,,,,,,,,,,,,,,,,,,,,,,,,,,,,,,,,,,,,,,,,,,,,,,,,,,,,,,,,,,,,,,,,,,,,,,,,,,,,,,,,,,,,,,,,,,,,,,,,,,,,,,,,,,,,,,,,,,,,,,R1W7WT,train_y,blue_star,top_left,2025-01-24_16h14.37.194,HideSeek_v1,2022.2.5,59.979978684279956,
,,,,,,,,,,,,,,,0,0,0,0,9,0,9,0,,,,,,,,,,,,,,,,,,,,,,,,,,,,,,,conditions/schedules/train_y_first/blue_star_00/top_left/instructions/Slide10.png,conditions/schedules/train_y_first/blue_star_00/top_left/instructions/Audio10.wav,974.3463392999838,974.3453594500082,10,"[18.522631200001342, 18.21091280001565, 17.679395899991505, 19.909414099995047, 6.197201899980428, 5.44743989998824, 5.651465999981156, 12.089662499987753, 6.223057399998652, 7.5717370999918785]","[18.522638099995675, 0.032218099979218096, 0.03750990002299659, 0.11309780000010505, 0.03772279998520389, 0.049008999980287626, 0.0497726000030525, 0.07043809999595396, 0.1835766000149306, 7.571743400010746]",0,,,,,,,,,,,,,,,,,,,,,,,,,,,,,,,,,,,,,,,,,,,,,,,,,,,,,,,,,,,,,,,,,,,,,,,,,,,,,,,,,,,,,,,,,,,,,,,,,,,,,,,,,,,,,,,,,,,,,,,,,,,,R1W7WT,train_y,blue_star,top_left,2025-01-24_16h14.37.194,HideSeek_v1,2022.2.5,59.979978684279956,
,,,,,,,,,,,,,,,0,0,0,0,10,0,10,0,,,,,,,,,,,,,,,,,,,,,,,,,,,,,,,conditions/schedules/train_y_first/blue_star_00/top_left/instructions/Slide11.png,conditions/schedules/train_y_first/blue_star_00/top_left/instructions/Audio11.wav,981.9568561000051,981.954225150001,11,"[18.522631200001342, 18.21091280001565, 17.679395899991505, 19.909414099995047, 6.197201899980428, 5.44743989998824, 5.651465999981156, 12.089662499987753, 6.223057399998652, 7.5717370999918785, 10.343672099988908]","[18.522638099995675, 0.032218099979218096, 0.03750990002299659, 0.11309780000010505, 0.03772279998520389, 0.049008999980287626, 0.0497726000030525, 0.07043809999595396, 0.1835766000149306, 0.07583699998212978, 10.343679199984763]",0,,,,,,,,,,,,,,,,,,,,,,,,,,,,,,,,,,,,,,,,,,,,,,,,,,,,,,,,,,,,,,,,,,,,,,,,,,,,,,,,,,,,,,,,,,,,,,,,,,,,,,,,,,,,,,,,,,,,,,,,,,,,R1W7WT,train_y,blue_star,top_left,2025-01-24_16h14.37.194,HideSeek_v1,2022.2.5,59.979978684279956,
,,,,,,,,,,,,,,,0,0,0,0,11,0,11,0,,,,,,,,,,,,,,,,,,,,,,,,,,,,,,,conditions/schedules/train_y_first/blue_star_00/top_left/instructions/Slide12.png,conditions/schedules/train_y_first/blue_star_00/top_left/instructions/Audio12.wav,992.3745606000011,992.3697053499927,12,"[18.522631200001342, 18.21091280001565, 17.679395899991505, 19.909414099995047, 6.197201899980428, 5.44743989998824, 5.651465999981156, 12.089662499987753, 6.223057399998652, 7.5717370999918785, 10.343672099988908, 14.346397199988132]","[18.522638099995675, 0.032218099979218096, 0.03750990002299659, 0.11309780000010505, 0.03772279998520389, 0.049008999980287626, 0.0497726000030525, 0.07043809999595396, 0.1835766000149306, 0.07583699998212978, 0.05044699998688884, 14.346404100011569]",0,,,,,,,,,,,,,,,,,,,,,,,,,,,,,,,,,,,,,,,,,,,,,,,,,,,,,,,,,,,,,,,,,,,,,,,,,,,,,,,,,,,,,,,,,,,,,,,,,,,,,,,,,,,,,,,,,,,,,,,,,,,,R1W7WT,train_y,blue_star,top_left,2025-01-24_16h14.37.194,HideSeek_v1,2022.2.5,59.979978684279956,
1,0,8,0,3,0,-5,66,2,instr_dim1_1,,,,,,0,0,0,0,,,,,0,0,0,0,,,,,,,,,,,,,,,,,,,,,,,,,,,,,,,,,,,,,stimuli/alien_stimuli/66.png,conditions/schedules/train_y_first/blue_star_00/top_left/inputInstr_1.xlsx,stimuli/alien_stimuli/66.png,1006.8172768999939,1006.8172768999939,1006.8172768999939,1006.8172768999939,1006.8068553000164,return,12.434368699992774,"[-0.16, -0.08, 0, 0.08, 0.16, 0.24, 0.32, 0.4, 0.48, 0.56]","[-0.4, -0.32, -0.24, -0.16, -0.08, 0, 0.08, 0.16, 0.24, 0.32]",3,8,0,0,0.4,0.0,1019.4232182000123,1019.4232182000123,1019.4232182000123,1019.4232182000123,1019.4232182000123,1019.4232182000123,1019.4232182000123,1019.4144534500257,8.42637279999326,return,8.25235930000781,stimuli/alien_stimuli/66.png,66,0,1,,,,,,,,,,,,,,,,,,,,,,,,,,,,,,,,,,,,,,,,,,,,,,,,,,,,,,,,,,,,,,,,,,,,,,,,,,,,,,,,,,,,,,,,,R1W7WT,train_y,blue_star,top_left,2025-01-24_16h14.37.194,HideSeek_v1,2022.2.5,59.979978684279956,
,,,,,,,,,,,30,,,,0,0,0,0,,,,,,,,,,,,,,,,,,,,,,,,,,,,,,,,,,,,,,,,,,,,,,,,,,,,,,,,,,,,,,,,,,,,,,,,,,,,,,21,0.7,0,0,99,1,30,0,conditions/schedules/train_y_first/blue_star_00/top_left/inputTrain_1.1.xlsx,99,1,1,1,0,,,,,,,,,,,,,,,,,,,,,,,,,,,,,,,,,,,,,,,,,,,,,,,,,,,,,,,,,,,,,,,,,,,,,,,,,,,R1W7WT,train_y,blue_star,top_left,2025-01-24_16h14.37.194,HideSeek_v1,2022.2.5,59.979978684279956,
,,,,,,,,,,,,,,,1,0,1,0,0,0,0,0,,,,,,,,,,,,,,,,,,,,,,,,,,,,,,,conditions/schedules/train_y_first/blue_star_00/top_left/instructions/Slide13.png,conditions/schedules/train_y_first/blue_star_00/top_left/instructions/Audio13.wav,1027.8365079000068,1027.839861350006,13,"[18.522631200001342, 18.21091280001565, 17.679395899991505, 19.909414099995047, 6.197201899980428, 5.44743989998824, 5.651465999981156, 12.089662499987753, 6.223057399998652, 7.5717370999918785, 10.343672099988908, 14.346397199988132, 17.7856930999842]","[18.522638099995675, 0.032218099979218096, 0.03750990002299659, 0.11309780000010505, 0.03772279998520389, 0.049008999980287626, 0.0497726000030525, 0.07043809999595396, 0.1835766000149306, 0.07583699998212978, 0.05044699998688884, 14.346404100011569, 17.785701599990716]",0,,,,,,,,,,,,,,,,,,,,,,,,,,,,,,,,,,,,,,,,,,,,,,,,,,,,,,,,,,,,,,,,,,,,,,,,,,,,,,,,,,,,,,,,,,,,,,,,,,,,,,,,,,,,,,,,,,,,,,,,,,,,R1W7WT,train_y,blue_star,top_left,2025-01-24_16h14.37.194,HideSeek_v1,2022.2.5,59.979978684279956,
,,,,,,,,,,,,,,,1,0,1,0,1,0,1,0,,,,,,,,,,,,,,,,,,,,,,,,,,,,,,,conditions/schedules/train_y_first/blue_star_00/top_left/instructions/Slide14.png,conditions/schedules/train_y_first/blue_star_00/top_left/instructions/Audio14.wav,1045.6944041000097,1045.692049550009,14,"[18.522631200001342, 18.21091280001565, 17.679395899991505, 19.909414099995047, 6.197201899980428, 5.44743989998824, 5.651465999981156, 12.089662499987753, 6.223057399998652, 7.5717370999918785, 10.343672099988908, 14.346397199988132, 17.7856930999842, 17.553663500002585]","[18.522638099995675, 0.032218099979218096, 0.03750990002299659, 0.11309780000010505, 0.03772279998520389, 0.049008999980287626, 0.0497726000030525, 0.07043809999595396, 0.1835766000149306, 0.07583699998212978, 0.05044699998688884, 14.346404100011569, 0.09159209998324513, 17.553670099994633]",0,,,,,,,,,,,,,,,,,,,,,,,,,,,,,,,,,,,,,,,,,,,,,,,,,,,,,,,,,,,,,,,,,,,,,,,,,,,,,,,,,,,,,,,,,,,,,,,,,,,,,,,,,,,,,,,,,,,,,,,,,,,,R1W7WT,train_y,blue_star,top_left,2025-01-24_16h14.37.194,HideSeek_v1,2022.2.5,59.979978684279956,
2,2,8,2,8,0,0,61,2,instr_dim1_1,,,,,,1,0,1,0,,,,,0,0,0,0,,,,,,,,,,,,,,,,,,,,,,,,,,,,,,,,,,,,,stimuli/alien_stimuli/61.png,conditions/schedules/train_y_first/blue_star_00/top_left/inputInstr_1.xlsx,stimuli/alien_stimuli/61.png,1063.3476404999965,1063.3476404999965,1063.3476404999965,1063.3476404999965,1063.3510837500157,return,8.44359219999751,"[-0.16, -0.08, 0, 0.08, 0.16, 0.24, 0.32, 0.4, 0.48, 0.56]","[-0.4, -0.32, -0.24, -0.16, -0.08, 0, 0.08, 0.16, 0.24, 0.32]",8,8,2,2,0.0,0.0,1071.9295114999986,1071.9295114999986,1071.9295114999986,1071.9295114999986,1071.9295114999986,1071.9295114999986,1071.9295114999986,1071.9246344000042,6.795359500014456,return,6.648076699988451,stimuli/alien_stimuli/61.png,61,2,2,,,,,,,,,,,,,,,,,,,,,,,,,,,,,,,,,,,,,,,,,,,,,,,,,,,,,,,,,,,,,,,,,,,,,,,,,,,,,,,,,,,,,,,,,R1W7WT,train_y,blue_star,top_left,2025-01-24_16h14.37.194,HideSeek_v1,2022.2.5,59.979978684279956,
,,,,,,,,,,,30,,,,1,0,1,0,,,,,,,,,,,,,,,,,,,,,,,,,,,,,,,,,,,,,,,,,,,,,,,,,,,,,,,,,,,,,,,,,,,,,,,,,,,,,,21,0.7,0,0,99,1,30,0,conditions/schedules/train_y_first/blue_star_00/top_left/inputTrain_1.1.xlsx,99,1,1,1,0,,,,,,,,,,,,,,,,,,,,,,,,,,,,,,,,,,,,,,,,,,,,,,,,,,,,,,,,,,,,,,,,,,,,,,,,,,,R1W7WT,train_y,blue_star,top_left,2025-01-24_16h14.37.194,HideSeek_v1,2022.2.5,59.979978684279956,
,,,,,,,,,,,,,,,2,0,2,0,0,0,0,0,,,,,,,,,,,,,,,,,,,,,,,,,,,,,,,conditions/schedules/train_y_first/blue_star_00/top_left/instructions/Slide15.png,conditions/schedules/train_y_first/blue_star_00/top_left/instructions/Audio15.wav,1078.7412833999842,1078.7358297500061,15,"[18.522631200001342, 18.21091280001565, 17.679395899991505, 19.909414099995047, 6.197201899980428, 5.44743989998824, 5.651465999981156, 12.089662499987753, 6.223057399998652, 7.5717370999918785, 10.343672099988908, 14.346397199988132, 17.7856930999842, 17.553663500002585, 43.02151540000341]","[18.522638099995675, 0.032218099979218096, 0.03750990002299659, 0.11309780000010505, 0.03772279998520389, 0.049008999980287626, 0.0497726000030525, 0.07043809999595396, 0.1835766000149306, 0.07583699998212978, 0.05044699998688884, 14.346404100011569, 0.09159209998324513, 17.553670099994633, 43.02152310000383]",0,,,,,,,,,,,,,,,,,,,,,,,,,,,,,,,,,,,,,,,,,,,,,,,,,,,,,,,,,,,,,,,,,,,,,,,,,,,,,,,,,,,,,,,,,,,,,,,,,,,,,,,,,,,,,,,,,,,,,,,,,,,,R1W7WT,train_y,blue_star,top_left,2025-01-24_16h14.37.194,HideSeek_v1,2022.2.5,59.979978684279956,
,,,,,,,,,,,,,,,2,0,2,0,1,0,1,0,,,,,,,,,,,,,,,,,,,,,,,,,,,,,,,conditions/schedules/train_y_first/blue_star_00/top_left/instructions/Slide16.png,conditions/schedules/train_y_first/blue_star_00/top_left/instructions/Audio16.wav,1121.8407974999864,1121.8327309500019,16,"[18.522631200001342, 18.21091280001565, 17.679395899991505, 19.909414099995047, 6.197201899980428, 5.44743989998824, 5.651465999981156, 12.089662499987753, 6.223057399998652, 7.5717370999918785, 10.343672099988908, 14.346397199988132, 17.7856930999842, 17.553663500002585, 43.02151540000341, 22.513152400002582]","[18.522638099995675, 0.032218099979218096, 0.03750990002299659, 0.11309780000010505, 0.03772279998520389, 0.049008999980287626, 0.0497726000030525, 0.07043809999595396, 0.1835766000149306, 0.07583699998212978, 0.05044699998688884, 14.346404100011569, 0.09159209998324513, 17.553670099994633, 0.2090133000165224, 22.513159199996153]",0,,,,,,,,,,,,,,,,,,,,,,,,,,,,,,,,,,,,,,,,,,,,,,,,,,,,,,,,,,,,,,,,,,,,,,,,,,,,,,,,,,,,,,,,,,,,,,,,,,,,,,,,,,,,,,,,,,,,,,,,,,,,R1W7WT,train_y,blue_star,top_left,2025-01-24_16h14.37.194,HideSeek_v1,2022.2.5,59.979978684279956,
,0,5,0,1,0,-4,65,,train_dim1_1,1,30,,,,2,0,2,0,,,,,,,,,0,0,0,0,0,0,0,0,0,0,0,0,,,,,,,,,,,,,,,,,,,,,,,,,stimuli/alien_stimuli/65.png,,,,,,,,,,,,,,,,,,,,,,,,,,,,,,,,,,,,,,,30,,,,,,,,1144.4599182000093,1144.4599182000093,1144.4599182000093,1144.4599182000093,1144.4599182000093,0,0,-0.16,0,return,16.952880800003186,0,0,0,0,-0.16,0,return,16.855605699995067,,,,,,,,,,,,,,,,,,,,,,,,,,,,,,,,,,,,,,,,,,,,,,,,,,,,,,,,R1W7WT,train_y,blue_star,top_left,2025-01-24_16h14.37.194,HideSeek_v1,2022.2.5,59.979978684279956,
,3,7,3,2,0,-5,66,,train_dim1_1,2,30,,,,2,0,2,0,,,,,,,,,0,0,0,0,0,1,1,1,0,0,0,0,,,,,,,,,,,,,,,,,,,,,,,,,stimuli/alien_stimuli/66.png,,,,,,,,,,,,,,,,,,,,,,,,,,,,,stimuli/alien_stimuli/65.png,65,0,3,,,,,,,30,,,,,,,,1192.988921799988,1192.988921799988,1192.988921799988,1192.988921799988,1192.988921799988,,,,,down,3.022918100003153,0,0,0,99,0.08,0.08,down,2.9249981000029948,1191.4260206999897,-0.16,-0.32,0.32,0.0,-0.16,-0.16,-0.16,-0.16,-0.32,1162.9993726999965,1162.9993726999965,1162.9993726999965,1162.9993726999965,1162.9993726999965,1162.9993726999965,1162.9993726999965,1162.9993726999965,1162.983628000022,28.560810599999968,return,28.404252600012114,1192.988921799988,,,,,,,,,,,,,,,,,,,,,,,,,,,,,,,,,R1W7WT,train_y,blue_star,top_left,2025-01-24_16h14.37.194,HideSeek_v1,2022.2.5,59.979978684279956,
,3,7,3,2,0,-5,66,,train_dim1_1,2,30,,,,2,0,2,0,,,,,,,,,0,0,0,0,0,1,1,1,1,0,1,0,,,,,,,,,,,,,,,,,,,,,,,,,,,,,,,,,,,,,,,,,,,,,,,,,,,,,,,,,,,,,,,,30,,,,,,,,1196.0104218999913,1196.0104218999913,1196.0104218999913,1196.0104218999913,1196.0104218999913,,,,,down,0.3429074000159744,0,0,0,99,0.08,0.0,down,0.26135319998138584,,,,,,,,,,,,,,,,,,,,,,,,,,,,,,,,,,,,,,,,,,,,,,,,,,,,,,,,R1W7WT,train_y,blue_star,top_left,2025-01-24_16h14.37.194,HideSeek_v1,2022.2.5,59.979978684279956,
,3,7,3,2,0,-5,66,,train_dim1_1,2,30,,,,2,0,2,0,,,,,,,,,0,0,0,0,0,1,1,1,2,0,2,0,,,,,,,,,,,,,,,,,,,,,,,,,,,,,,,,,,,,,,,,,,,,,,,,,,,,,,,,,,,,,,,,30,,,,,,,,1196.3588167999987,1196.3588167999987,1196.3588167999987,1196.3588167999987,1196.3588167999987,,,,,down,0.10978239998803474,0,0,0,99,0.08,-0.08,down,0.03079210000578314,,,,,,,,,,,,,,,,,,,,,,,,,,,,,,,,,,,,,,,,,,,,,,,,,,,,,,,,R1W7WT,train_y,blue_star,top_left,2025-01-24_16h14.37.194,HideSeek_v1,2022.2.5,59.979978684279956,
,3,7,3,2,0,-5,66,,train_dim1_1,2,30,,,,2,0,2,0,,,,,,,,,0,0,0,0,0,1,1,1,3,0,3,0,,,,,,,,,,,,,,,,,,,,,,,,,,,,,,,,,,,,,,,,,,,,,,,,,,,,,,,,,,,,,,,,30,,,,,,,,1196.4752457999857,1196.4752457999857,1196.4752457999857,1196.4752457999857,1196.4752457999857,,,,,down,0.2930157000082545,0,0,0,99,0.08,-0.16,down,0.20873059998848476,,,,,,,,,,,,,,,,,,,,,,,,,,,,,,,,,,,,,,,,,,,,,,,,,,,,,,,,R1W7WT,train_y,blue_star,top_left,2025-01-24_16h14.37.194,HideSeek_v1,2022.2.5,59.979978684279956,
,3,7,3,2,0,-5,66,,train_dim1_1,2,30,,,,2,0,2,0,,,,,,,,,0,0,0,0,0,1,1,1,4,0,4,0,,,,,,,,,,,,,,,,,,,,,,,,,,,,,,,,,,,,,,,,,,,,,,,,,,,,,,,,,,,,,,,,30,,,,,,,,1196.7750803999952,1196.7750803999952,1196.7750803999952,1196.7750803999952,1196.7750803999952,,,,,down,0.27639680000720546,0,0,0,99,0.08,-0.24,down,0.19947160000447184,,,,,,,,,,,,,,,,,,,,,,,,,,,,,,,,,,,,,,,,,,,,,,,,,,,,,,,,R1W7WT,train_y,blue_star,top_left,2025-01-24_16h14.37.194,HideSeek_v1,2022.2.5,59.979978684279956,
,3,7,3,2,0,-5,66,,train_dim1_1,2,30,,,,2,0,2,0,,,,,,,,,0,0,0,0,0,1,1,1,5,0,5,0,,,,,,,,,,,,,,,,,,,,,,,,,,,,,,,,,,,,,,,,,,,,,,,,,,,,,,,,,,,,,,,,30,,,,,,,,1197.0583386000071,1197.0583386000071,1197.0583386000071,1197.0583386000071,1197.0583386000071,,,,,down,0.6266666000010446,0,0,0,99,0.08,-0.32,down,0.5470060000079684,,,,,,,,,,,,,,,,,,,,,,,,,,,,,,,,,,,,,,,,,,,,,,,,,,,,,,,,R1W7WT,train_y,blue_star,top_left,2025-01-24_16h14.37.194,HideSeek_v1,2022.2.5,59.979978684279956,
,3,7,3,2,0,-5,66,,train_dim1_1,2,30,,,,2,0,2,0,,,,,,,,,0,0,0,0,0,1,1,1,6,0,6,0,,,,,,,,,,,,,,,,,,,,,,,,,,,,,,,,,,,,,,,,,,,,,,,,,,,,,,,,,,,,,,,,30,,,,,,,,1197.6937996000051,1197.6937996000051,1197.6937996000051,1197.6937996000051,1197.6937996000051,,,,,left,0.6934638999809977,0,0,0,99,0.0,-0.32,left,0.6056923999858554,,,,,,,,,,,,,,,,,,,,,,,,,,,,,,,,,,,,,,,,,,,,,,,,,,,,,,,,R1W7WT,train_y,blue_star,top_left,2025-01-24_16h14.37.194,HideSeek_v1,2022.2.5,59.979978684279956,
,3,7,3,2,0,-5,66,,train_dim1_1,2,30,,,,2,0,2,0,,,,,,,,,0,0,0,0,0,1,1,1,7,0,7,0,,,,,,,,,,,,,,,,,,,,,,,,,,,,,,,,,,,,,,,,,,,,,,,,,,,,,,,,,,,,,,,,30,,,,,,,,1198.3927606999932,1198.3927606999932,1198.3927606999932,1198.3927606999932,1198.3927606999932,,,,,left,0.4100308000051882,0,0,0,99,-0.08,-0.32,left,0.33038739999756217,,,,,,,,,,,,,,,,,,,,,,,,,,,,,,,,,,,,,,,,,,,,,,,,,,,,,,,,R1W7WT,train_y,blue_star,top_left,2025-01-24_16h14.37.194,HideSeek_v1,2022.2.5,59.979978684279956,
,3,7,3,2,0,-5,66,,train_dim1_1,2,30,,,,2,0,2,0,,,,,,,,,0,0,0,0,0,1,1,1,8,0,8,0,,,,,,,,,,,,,,,,,,,,,,,,,,,,,,,,,,,,,,,,,,,,,,,,,,,,,,,,,,,,,,,,30,,,,,,,,1198.8099577999965,1198.8099577999965,1198.8099577999965,1198.8099577999965,1198.8099577999965,,,,,up,3.2290780000039376,0,0,0,99,-0.08,-0.24,up,3.1429791999980807,,,,,,,,,,,,,,,,,,,,,,,,,,,,,,,,,,,,,,,,,,,,,,,,,,,,,,,,R1W7WT,train_y,blue_star,top_left,2025-01-24_16h14.37.194,HideSeek_v1,2022.2.5,59.979978684279956,
,3,7,3,2,0,-5,66,,train_dim1_1,2,30,,,,2,0,2,0,,,,,,,,,0,0,0,0,0,1,1,1,9,0,9,0,,,,,,,,,,,,,,,,,,,,,,,,,,,,,,,,,,,,,,,,,,,,,,,,,,,,,,,,,,,,,,,,30,,,,,,,,1202.0466965000087,1202.0466965000087,1202.0466965000087,1202.0466965000087,1202.0466965000087,,,,,down,0.7597111999930348,0,0,0,99,-0.08,-0.32,down,0.6804973999969661,,,,,,,,,,,,,,,,,,,,,,,,,,,,,,,,,,,,,,,,,,,,,,,,,,,,,,,,R1W7WT,train_y,blue_star,top_left,2025-01-24_16h14.37.194,HideSeek_v1,2022.2.5,59.979978684279956,
,3,7,3,2,0,-5,66,,train_dim1_1,2,30,,,,2,0,2,0,,,,,,,,,0,0,0,0,0,1,1,1,10,0,10,0,,,,,,,,,,,,,,,,,,,,,,,,,,,,,,,,,,,,,,,,,,,,,,,,,,,,,,,,,,,,,,,,30,,,,,,,,1202.8134284999978,1202.8134284999978,1202.8134284999978,1202.8134284999978,1202.8134284999978,,,,,right,3.0115668999787886,0,0,0,99,0.0,-0.32,right,2.9269452999869827,,,,,,,,,,,,,,,,,,,,,,,,,,,,,,,,,,,,,,,,,,,,,,,,,,,,,,,,R1W7WT,train_y,blue_star,top_left,2025-01-24_16h14.37.194,HideSeek_v1,2022.2.5,59.979978684279956,
,3,7,3,2,0,-5,66,,train_dim1_1,2,30,,,,2,0,2,0,,,,,,,,,0,0,0,0,0,1,1,1,11,0,11,0,,,,,,,,,,,,,,,,,,,,,,,,,,,,,,,,,,,,,,,,,,,,,,,,,,,,,,,,,,,,,,,,30,,,,,,,,1205.8327443999879,1205.8327443999879,1205.8327443999879,1205.8327443999879,1205.8327443999879,,,,,right,0.9440570000151638,0,0,0,99,0.08,-0.32,right,0.8576448000094388,,,,,,,,,,,,,,,,,,,,,,,,,,,,,,,,,,,,,,,,,,,,,,,,,,,,,,,,R1W7WT,train_y,blue_star,top_left,2025-01-24_16h14.37.194,HideSeek_v1,2022.2.5,59.979978684279956,
,3,7,3,2,0,-5,66,,train_dim1_1,2,30,,,,2,0,2,0,,,,,,,,,0,0,0,0,0,1,1,1,12,0,12,0,,,,,,,,,,,,,,,,,,,,,,,,,,,,,,,,,,,,,,,,,,,,,,,,,,,,,,,,,,,,,,,,30,,,,,,,,1206.7832276000117,1206.7832276000117,1206.7832276000117,1206.7832276000117,1206.7832276000117,,,,,up,1.2940694999997504,0,0,0,99,0.08,-0.24,up,1.2208333000016864,,,,,,,,,,,,,,,,,,,,,,,,,,,,,,,,,,,,,,,,,,,,,,,,,,,,,,,,R1W7WT,train_y,blue_star,top_left,2025-01-24_16h14.37.194,HideSeek_v1,2022.2.5,59.979978684279956,
,3,7,3,2,0,-5,66,,train_dim1_1,2,30,,,,2,0,2,0,,,,,,,,,0,0,0,0,0,1,1,1,13,0,13,0,,,,,,,,,,,,,,,,,,,,,,,,,,,,,,,,,,,,,,,,,,,,,,,,,,,,,,,,,,,,,,,,30,,,,,,,,1208.0843220000097,1208.0843220000097,1208.0843220000097,1208.0843220000097,1208.0843220000097,-5,0,0.08,-0.24,return,0.6109765000001062,1,0,0,1,0.08,-0.24,return,0.5388371000008192,,,,,,,,,,,,,,,,,,,,,,,,,,,,,,,,,,,,,,,,,,,,,,,,,,,,,,,,R1W7WT,train_y,blue_star,top_left,2025-01-24_16h14.37.194,HideSeek_v1,2022.2.5,59.979978684279956,
,2,8,2,5,0,-3,64,,train_dim1_1,3,30,,,,2,0,2,0,,,,,,,,,0,0,0,0,0,2,2,2,0,0,0,0,,,,,,,,,,,,,,,,,,,,,,,,,stimuli/alien_stimuli/64.png,,,,,,,,,,,,,,,,,,,,,,,,,,,,,stimuli/alien_stimuli/66.png,66,3,4,,,,,,,30,,,,,,,,1223.8992571000126,1223.8992571000126,1223.8992571000126,1223.8992571000126,1223.8992571000126,,,,,down,2.758025099989027,1,0,0,99,0,0.15999999999999998,down,2.665339400002267,1222.3199971999857,0.08,-0.24,0.4,0.0,-0.039999999999999994,0.08,0.08,0.08,-0.24,1210.2779484000057,1210.2779484000057,1210.2779484000057,1210.2779484000057,1210.2779484000057,1210.2779484000057,1210.2779484000057,1210.2779484000057,1210.272990150022,12.149097199988319,return,12.01132140000118,,,,,,,,,,,,,,,,,,,,,,,,,,,,,,,,,,R1W7WT,train_y,blue_star,top_left,2025-01-24_16h14.37.194,HideSeek_v1,2022.2.5,59.979978684279956,
,2,8,2,5,0,-3,64,,train_dim1_1,3,30,,,,2,0,2,0,,,,,,,,,0,0,0,0,0,2,2,2,1,0,1,0,,,,,,,,,,,,,,,,,,,,,,,,,,,,,,,,,,,,,,,,,,,,,,,,,,,,,,,,,,,,,,,,30,,,,,,,,1226.649381299998,1226.649381299998,1226.649381299998,1226.649381299998,1226.649381299998,,,,,down,7.432308399991598,1,0,0,99,0,0.07999999999999997,down,7.356633499992313,,,,,,,,,,,,,,,,,,,,,,,,,,,,,,,,,,,,,,,,,,,,,,,,,,,,,,,,R1W7WT,train_y,blue_star,top_left,2025-01-24_16h14.37.194,HideSeek_v1,2022.2.5,59.979978684279956,
,2,8,2,5,0,-3,64,,train_dim1_1,3,30,,,,2,0,2,0,,,,,,,,,0,0,0,0,0,2,2,2,2,0,2,0,,,,,,,,,,,,,,,,,,,,,,,,,,,,,,,,,,,,,,,,,,,,,,,,,,,,,,,,,,,,,,,,30,,,,,,,,1234.0895894999849,1234.0895894999849,1234.0895894999849,1234.0895894999849,1234.0895894999849,,,,,down,0.3098687000165228,1,0,0,99,0,-2.7755575615628914e-17,down,0.22841569999582134,,,,,,,,,,,,,,,,,,,,,,,,,,,,,,,,,,,,,,,,,,,,,,,,,,,,,,,,R1W7WT,train_y,blue_star,top_left,2025-01-24_16h14.37.194,HideSeek_v1,2022.2.5,59.979978684279956,
,2,8,2,5,0,-3,64,,train_dim1_1,3,30,,,,2,0,2,0,,,,,,,,,0,0,0,0,0,2,2,2,3,0,3,0,,,,,,,,,,,,,,,,,,,,,,,,,,,,,,,,,,,,,,,,,,,,,,,,,,,,,,,,,,,,,,,,30,,,,,,,,1234.406901200011,1234.406901200011,1234.406901200011,1234.406901200011,1234.406901200011,,,,,down,2.978746599983424,1,0,0,99,0,-0.08000000000000003,down,2.8950988999858964,,,,,,,,,,,,,,,,,,,,,,,,,,,,,,,,,,,,,,,,,,,,,,,,,,,,,,,,R1W7WT,train_y,blue_star,top_left,2025-01-24_16h14.37.194,HideSeek_v1,2022.2.5,59.979978684279956,
,2,8,2,5,0,-3,64,,train_dim1_1,3,30,,,,2,0,2,0,,,,,,,,,0,0,0,0,0,2,2,2,4,0,4,0,,,,,,,,,,,,,,,,,,,,,,,,,,,,,,,,,,,,,,,,,,,,,,,,,,,,,,,,,,,,,,,,30,,,,,,,,1237.3915164000064,1237.3915164000064,1237.3915164000064,1237.3915164000064,1237.3915164000064,-9,0,0,-0.08000000000000003,return,1.127327800000785,1,1,0,0,0,-0.08000000000000003,return,1.0474725999811199,,,,,,,,,,,,,,,,,,,,,,,,,,,,,,,,,,,,,,,,,,,,,,,,,,,,,,,,R1W7WT,train_y,blue_star,top_left,2025-01-24_16h14.37.194,HideSeek_v1,2022.2.5,59.979978684279956,
,0,6,0,5,0,-1,62,,train_dim1_1,4,30,,,,2,0,2,0,,,,,,,,,0,0,0,0,0,3,3,3,0,0,0,0,,,,,,,,,,,,,,,,,,,,,,,,,stimuli/alien_stimuli/62.png,,,,,,,,,,,,,,,,,,,,,,,,,,,,,stimuli/alien_stimuli/64.png,64,2,5,,,,,,,30,,,,,,,,1261.5031929000106,1261.5031929000106,1261.5031929000106,1261.5031929000106,1261.5031929000106,,,,,down,4.409584500011988,1,1,0,99,-0.16,0.0,down,4.306349499995122,1259.9249775999924,0,0,0.24,0.0,0.12,0,0.0,0,0,1240.105779800011,1240.105779800011,1240.105779800011,1240.105779800011,1240.105779800011,1240.105779800011,1240.105779800011,1240.105779800011,1240.0975490500218,19.9245893000043,return,19.781973000004655,,,,,,,,,,,,,,,,,,,,,,,,,,,,,,,,,,R1W7WT,train_y,blue_star,top_left,2025-01-24_16h14.37.194,HideSeek_v1,2022.2.5,59.979978684279956,
,0,6,0,5,0,-1,62,,train_dim1_1,4,30,,,,2,0,2,0,,,,,,,,,0,0,0,0,0,3,3,3,1,0,1,0,,,,,,,,,,,,,,,,,,,,,,,,,,,,,,,,,,,,,,,,,,,,,,,,,,,,,,,,,,,,,,,,30,,,,,,,,1265.9002525999967,1265.9002525999967,1265.9002525999967,1265.9002525999967,1265.9002525999967,,,,,down,0.22686789999715984,1,1,0,99,-0.16,-0.08,down,0.14219589999993332,,,,,,,,,,,,,,,,,,,,,,,,,,,,,,,,,,,,,,,,,,,,,,,,,,,,,,,,R1W7WT,train_y,blue_star,top_left,2025-01-24_16h14.37.194,HideSeek_v1,2022.2.5,59.979978684279956,
,0,6,0,5,0,-1,62,,train_dim1_1,4,30,,,,2,0,2,0,,,,,,,,,0,0,0,0,0,3,3,3,2,0,2,0,,,,,,,,,,,,,,,,,,,,,,,,,,,,,,,,,,,,,,,,,,,,,,,,,,,,,,,,,,,,,,,,30,,,,,,,,1266.1336868999933,1266.1336868999933,1266.1336868999933,1266.1336868999933,1266.1336868999933,,,,,down,0.20940940000582486,1,1,0,99,-0.16,-0.16,down,0.13661919999867678,,,,,,,,,,,,,,,,,,,,,,,,,,,,,,,,,,,,,,,,,,,,,,,,,,,,,,,,R1W7WT,train_y,blue_star,top_left,2025-01-24_16h14.37.194,HideSeek_v1,2022.2.5,59.979978684279956,
,0,6,0,5,0,-1,62,,train_dim1_1,4,30,,,,2,0,2,0,,,,,,,,,0,0,0,0,0,3,3,3,3,0,3,0,,,,,,,,,,,,,,,,,,,,,,,,,,,,,,,,,,,,,,,,,,,,,,,,,,,,,,,,,,,,,,,,30,,,,,,,,1266.3499840000004,1266.3499840000004,1266.3499840000004,1266.3499840000004,1266.3499840000004,,,,,down,0.24308110002311878,1,1,0,99,-0.16,-0.24,down,0.16572950000409037,,,,,,,,,,,,,,,,,,,,,,,,,,,,,,,,,,,,,,,,,,,,,,,,,,,,,,,,R1W7WT,train_y,blue_star,top_left,2025-01-24_16h14.37.194,HideSeek_v1,2022.2.5,59.979978684279956,
,0,6,0,5,0,-1,62,,train_dim1_1,4,30,,,,2,0,2,0,,,,,,,,,0,0,0,0,0,3,3,3,4,0,4,0,,,,,,,,,,,,,,,,,,,,,,,,,,,,,,,,,,,,,,,,,,,,,,,,,,,,,,,,,,,,,,,,30,,,,,,,,1266.6006849000114,1266.6006849000114,1266.6006849000114,1266.6006849000114,1266.6006849000114,-13,0,-0.16,-0.24,return,3.762811299995519,1,0,0,0,-0.16,-0.24,return,3.679441999993287,,,,,,,,,,,,,,,,,,,,,,,,,,,,,,,,,,,,,,,,,,,,,,,,,,,,,,,,R1W7WT,train_y,blue_star,top_left,2025-01-24_16h14.37.194,HideSeek_v1,2022.2.5,59.979978684279956,
,3,8,3,8,0,0,61,,train_dim1_1,5,30,,,,2,0,2,0,,,,,,,,,0,0,0,0,0,4,4,4,0,0,0,0,,,,,,,,,,,,,,,,,,,,,,,,,stimuli/alien_stimuli/61.png,,,,,,,,,,,,,,,,,,,,,,,,,,,,,stimuli/alien_stimuli/62.png,62,0,6,,,,,,,30,,,,,,,,1284.504935600009,1284.504935600009,1284.504935600009,1284.504935600009,1284.504935600009,,,,,down,4.492010099987965,1,0,0,99,0.08,0.15999999999999998,down,4.389774099981878,1282.9334427999856,-0.16,0,0.08,0.0,0.04,-0.16,-0.16,-0.16,0,1271.9333966999839,1271.9333966999839,1271.9333966999839,1271.9333966999839,1271.9333966999839,1271.9333966999839,1271.9333966999839,1271.9333966999839,1271.923977150023,11.105642000009539,return,10.97225900000194,1271.9333966999839,,,,,,,,,,,,,,,,,,,,,,,,,,,,,,,,,R1W7WT,train_y,blue_star,top_left,2025-01-24_16h14.37.194,HideSeek_v1,2022.2.5,59.979978684279956,
,3,8,3,8,0,0,61,,train_dim1_1,5,30,,,,2,0,2,0,,,,,,,,,0,0,0,0,0,4,4,4,1,0,1,0,,,,,,,,,,,,,,,,,,,,,,,,,,,,,,,,,,,,,,,,,,,,,,,,,,,,,,,,,,,,,,,,30,,,,,,,,1288.9854185000004,1288.9854185000004,1288.9854185000004,1288.9854185000004,1288.9854185000004,,,,,up,6.5982495000062045,1,0,0,99,0.08,0.24,up,6.522922000003746,,,,,,,,,,,,,,,,,,,,,,,,,,,,,,,,,,,,,,,,,,,,,,,,,,,,,,,,R1W7WT,train_y,blue_star,top_left,2025-01-24_16h14.37.194,HideSeek_v1,2022.2.5,59.979978684279956,
,3,8,3,8,0,0,61,,train_dim1_1,5,30,,,,2,0,2,0,,,,,,,,,0,0,0,0,0,4,4,4,2,0,2,0,,,,,,,,,,,,,,,,,,,,,,,,,,,,,,,,,,,,,,,,,,,,,,,,,,,,,,,,,,,,,,,,30,,,,,,,,1295.5921691000112,1295.5921691000112,1295.5921691000112,1295.5921691000112,1295.5921691000112,,,,,down,1.2600734000152443,1,0,0,99,0.08,0.15999999999999998,down,1.1759255999932066,,,,,,,,,,,,,,,,,,,,,,,,,,,,,,,,,,,,,,,,,,,,,,,,,,,,,,,,R1W7WT,train_y,blue_star,top_left,2025-01-24_16h14.37.194,HideSeek_v1,2022.2.5,59.979978684279956,
,3,8,3,8,0,0,61,,train_dim1_1,5,30,,,,2,0,2,0,,,,,,,,,0,0,0,0,0,4,4,4,3,0,3,0,,,,,,,,,,,,,,,,,,,,,,,,,,,,,,,,,,,,,,,,,,,,,,,,,,,,,,,,,,,,,,,,30,,,,,,,,1296.8576401000028,1296.8576401000028,1296.8576401000028,1296.8576401000028,1296.8576401000028,-14,0,0.08,0.15999999999999998,return,0.47676510000019334,1,1,0,0,0.08,0.15999999999999998,return,0.396798800007673,,,,,,,,,,,,,,,,,,,,,,,,,,,,,,,,,,,,,,,,,,,,,,,,,,,,,,,,R1W7WT,train_y,blue_star,top_left,2025-01-24_16h14.37.194,HideSeek_v1,2022.2.5,59.979978684279956,
,1,9,1,8,0,-1,62,,train_dim1_1,6,30,,,,2,0,2,0,,,,,,,,,0,0,0,0,0,5,5,5,0,0,0,0,,,,,,,,,,,,,,,,,,,,,,,,,stimuli/alien_stimuli/62.png,,,,,,,,,,,,,,,,,,,,,,,,,,,,,stimuli/alien_stimuli/61.png,61,3,7,,,,,,,30,,,,,,,,1312.7597141999868,1312.7597141999868,1312.7597141999868,1312.7597141999868,1312.7597141999868,,,,,down,2.1744031999842264,1,1,0,99,-0.08,0.24,down,2.0734692999976687,1311.1769335999852,0.08,0.24,0.0,0.0,0.24,0.08,0.08,0.08,0.24,1298.9063595999905,1298.9063595999905,1298.9063595999905,1298.9063595999905,1298.9063595999905,1298.9063595999905,1298.9063595999905,1298.9063595999905,1298.8964253500103,12.381733899994288,return,12.253359099995578,1298.9063595999905,,,,,,,,,,,,,,,,,,,,,,,,,,,,,,,,,R1W7WT,train_y,blue_star,top_left,2025-01-24_16h14.37.194,HideSeek_v1,2022.2.5,59.979978684279956,
,1,9,1,8,0,-1,62,,train_dim1_1,6,30,,,,2,0,2,0,,,,,,,,,0,0,0,0,0,5,5,5,1,0,1,0,,,,,,,,,,,,,,,,,,,,,,,,,,,,,,,,,,,,,,,,,,,,,,,,,,,,,,,,,,,,,,,,30,,,,,,,,1314.9231806999887,1314.9231806999887,1314.9231806999887,1314.9231806999887,1314.9231806999887,,,,,down,0.35942269998486154,1,1,0,99,-0.08,0.15999999999999998,down,0.28234460001112893,,,,,,,,,,,,,,,,,,,,,,,,,,,,,,,,,,,,,,,,,,,,,,,,,,,,,,,,R1W7WT,train_y,blue_star,top_left,2025-01-24_16h14.37.194,HideSeek_v1,2022.2.5,59.979978684279956,
,1,9,1,8,0,-1,62,,train_dim1_1,6,30,,,,2,0,2,0,,,,,,,,,0,0,0,0,0,5,5,5,2,0,2,0,,,,,,,,,,,,,,,,,,,,,,,,,,,,,,,,,,,,,,,,,,,,,,,,,,,,,,,,,,,,,,,,30,,,,,,,,1315.2900800000061,1315.2900800000061,1315.2900800000061,1315.2900800000061,1315.2900800000061,-16,0,-0.08,0.15999999999999998,return,1.6111831000016537,1,1,0,0,-0.08,0.15999999999999998,return,1.5238957999972627,,,,,,,,,,,,,,,,,,,,,,,,,,,,,,,,,,,,,,,,,,,,,,,,,,,,,,,,R1W7WT,train_y,blue_star,top_left,2025-01-24_16h14.37.194,HideSeek_v1,2022.2.5,59.979978684279956,
,1,8,1,5,0,-3,64,,train_dim1_1,7,30,,,,2,0,2,0,,,,,,,,,0,0,0,0,0,6,6,6,0,0,0,0,,,,,,,,,,,,,,,,,,,,,,,,,stimuli/alien_stimuli/64.png,,,,,,,,,,,,,,,,,,,,,,,,,,,,,stimuli/alien_stimuli/62.png,62,1,8,,,,,,,30,,,,,,,,1323.2334296999907,1323.2334296999907,1323.2334296999907,1323.2334296999907,1323.2334296999907,,,,,down,7.178506900003413,1,1,0,99,-0.08,0.15999999999999998,down,7.105430499999784,1321.6837359000056,-0.08,0.24,0.08,0.0,0.28,-0.08,-0.08,-0.08,0.24,1318.469708299992,1318.469708299992,1318.469708299992,1318.469708299992,1318.469708299992,1318.469708299992,1318.469708299992,1318.469708299992,1318.46260605001,3.322735299996566,return,3.1886514000070747,1323.2334296999907,,,,,,,,,,,,,,,,,,,,,,,,,,,,,,,,,R1W7WT,train_y,blue_star,top_left,2025-01-24_16h14.37.194,HideSeek_v1,2022.2.5,59.979978684279956,
,1,8,1,5,0,-3,64,,train_dim1_1,7,30,,,,2,0,2,0,,,,,,,,,0,0,0,0,0,6,6,6,1,0,1,0,,,,,,,,,,,,,,,,,,,,,,,,,,,,,,,,,,,,,,,,,,,,,,,,,,,,,,,,,,,,,,,,30,,,,,,,,1330.4192231000052,1330.4192231000052,1330.4192231000052,1330.4192231000052,1330.4192231000052,,,,,down,3.0953957999881823,1,1,0,99,-0.08,0.07999999999999997,down,3.016235500021139,,,,,,,,,,,,,,,,,,,,,,,,,,,,,,,,,,,,,,,,,,,,,,,,,,,,,,,,R1W7WT,train_y,blue_star,top_left,2025-01-24_16h14.37.194,HideSeek_v1,2022.2.5,59.979978684279956,
,1,8,1,5,0,-3,64,,train_dim1_1,7,30,,,,2,0,2,0,,,,,,,,,0,0,0,0,0,6,6,6,2,0,2,0,,,,,,,,,,,,,,,,,,,,,,,,,,,,,,,,,,,,,,,,,,,,,,,,,,,,,,,,,,,,,,,,30,,,,,,,,1333.5211137000006,1333.5211137000006,1333.5211137000006,1333.5211137000006,1333.5211137000006,,,,,down,0.3264834000146948,1,1,0,99,-0.08,-2.7755575615628914e-17,down,0.24683509999886155,,,,,,,,,,,,,,,,,,,,,,,,,,,,,,,,,,,,,,,,,,,,,,,,,,,,,,,,R1W7WT,train_y,blue_star,top_left,2025-01-24_16h14.37.194,HideSeek_v1,2022.2.5,59.979978684279956,
,1,8,1,5,0,-3,64,,train_dim1_1,7,30,,,,2,0,2,0,,,,,,,,,0,0,0,0,0,6,6,6,3,0,3,0,,,,,,,,,,,,,,,,,,,,,,,,,,,,,,,,,,,,,,,,,,,,,,,,,,,,,,,,,,,,,,,,30,,,,,,,,1333.8549345000065,1333.8549345000065,1333.8549345000065,1333.8549345000065,1333.8549345000065,-19,0,-0.08,-2.7755575615628914e-17,return,0.9771862999768928,2,0,0,1,-0.08,-2.7755575615628914e-17,return,0.8905395000183489,,,,,,,,,,,,,,,,,,,,,,,,,,,,,,,,,,,,,,,,,,,,,,,,,,,,,,,,R1W7WT,train_y,blue_star,top_left,2025-01-24_16h14.37.194,HideSeek_v1,2022.2.5,59.979978684279956,
,4,7,4,7,0,0,61,,train_dim1_1,8,30,,,,2,0,2,0,,,,,,,,,0,0,0,0,0,7,7,7,0,0,0,0,,,,,,,,,,,,,,,,,,,,,,,,,stimuli/alien_stimuli/61.png,,,,,,,,,,,,,,,,,,,,,,,,,,,,,stimuli/alien_stimuli/64.png,64,1,9,,,,,,,30,,,,,,,,1340.9994507000083,1340.9994507000083,1340.9994507000083,1340.9994507000083,1340.9994507000083,,,,,down,2.4239597000123467,2,0,0,99,0.16,0.08,down,2.344555899995612,1339.4344840999984,-0.08,0,0.24,0.0,0.12,-0.08,-0.08,-0.08,0,1336.3951959999977,1336.3951959999977,1336.3951959999977,1336.3951959999977,1336.3951959999977,1336.3951959999977,1336.3951959999977,1336.3951959999977,1336.3939517500053,3.142200200003572,return,3.016190499998629,1336.3951959999977,,,,,,,,,,,,,,,,,,,,,,,,,,,,,,,,,R1W7WT,train_y,blue_star,top_left,2025-01-24_16h14.37.194,HideSeek_v1,2022.2.5,59.979978684279956,
,4,7,4,7,0,0,61,,train_dim1_1,8,30,,,,2,0,2,0,,,,,,,,,0,0,0,0,0,7,7,7,1,0,1,0,,,,,,,,,,,,,,,,,,,,,,,,,,,,,,,,,,,,,,,,,,,,,,,,,,,,,,,,,,,,,,,,30,,,,,,,,1343.4303711999964,1343.4303711999964,1343.4303711999964,1343.4303711999964,1343.4303711999964,,,,,down,0.9601147999928799,2,0,0,99,0.16,0.0,down,0.8828718999866396,,,,,,,,,,,,,,,,,,,,,,,,,,,,,,,,,,,,,,,,,,,,,,,,,,,,,,,,R1W7WT,train_y,blue_star,top_left,2025-01-24_16h14.37.194,HideSeek_v1,2022.2.5,59.979978684279956,
,4,7,4,7,0,0,61,,train_dim1_1,8,30,,,,2,0,2,0,,,,,,,,,0,0,0,0,0,7,7,7,2,0,2,0,,,,,,,,,,,,,,,,,,,,,,,,,,,,,,,,,,,,,,,,,,,,,,,,,,,,,,,,,,,,,,,,30,,,,,,,,1344.397330000007,1344.397330000007,1344.397330000007,1344.397330000007,1344.397330000007,,,,,down,14.471869200002402,2,0,0,99,0.16,-0.08,down,14.388454200001433,,,,,,,,,,,,,,,,,,,,,,,,,,,,,,,,,,,,,,,,,,,,,,,,,,,,,,,,R1W7WT,train_y,blue_star,top_left,2025-01-24_16h14.37.194,HideSeek_v1,2022.2.5,59.979978684279956,
,4,7,4,7,0,0,61,,train_dim1_1,8,30,,,,2,0,2,0,,,,,,,,,0,0,0,0,0,7,7,7,3,0,3,0,,,,,,,,,,,,,,,,,,,,,,,,,,,,,,,,,,,,,,,,,,,,,,,,,,,,,,,,,,,,,,,,30,,,,,,,,1358.8960404999962,1358.8960404999962,1358.8960404999962,1358.8960404999962,1358.8960404999962,,,,,down,0.42635960000916384,2,0,0,99,0.16,-0.16,down,0.3251347000186797,,,,,,,,,,,,,,,,,,,,,,,,,,,,,,,,,,,,,,,,,,,,,,,,,,,,,,,,R1W7WT,train_y,blue_star,top_left,2025-01-24_16h14.37.194,HideSeek_v1,2022.2.5,59.979978684279956,
,4,7,4,7,0,0,61,,train_dim1_1,8,30,,,,2,0,2,0,,,,,,,,,0,0,0,0,0,7,7,7,4,0,4,0,,,,,,,,,,,,,,,,,,,,,,,,,,,,,,,,,,,,,,,,,,,,,,,,,,,,,,,,,,,,,,,,30,,,,,,,,1359.3103436999954,1359.3103436999954,1359.3103436999954,1359.3103436999954,1359.3103436999954,,,,,up,1.211608499987051,2,0,0,99,0.16,-0.08,up,1.1353905999858398,,,,,,,,,,,,,,,,,,,,,,,,,,,,,,,,,,,,,,,,,,,,,,,,,,,,,,,,R1W7WT,train_y,blue_star,top_left,2025-01-24_16h14.37.194,HideSeek_v1,2022.2.5,59.979978684279956,
,4,7,4,7,0,0,61,,train_dim1_1,8,30,,,,2,0,2,0,,,,,,,,,0,0,0,0,0,7,7,7,5,0,5,0,,,,,,,,,,,,,,,,,,,,,,,,,,,,,,,,,,,,,,,,,,,,,,,,,,,,,,,,,,,,,,,,30,,,,,,,,1360.5290206999925,1360.5290206999925,1360.5290206999925,1360.5290206999925,1360.5290206999925,,,,,up,0.19251910000457428,2,0,0,99,0.16,0.0,up,0.10763569999835454,,,,,,,,,,,,,,,,,,,,,,,,,,,,,,,,,,,,,,,,,,,,,,,,,,,,,,,,R1W7WT,train_y,blue_star,top_left,2025-01-24_16h14.37.194,HideSeek_v1,2022.2.5,59.979978684279956,
,4,7,4,7,0,0,61,,train_dim1_1,8,30,,,,2,0,2,0,,,,,,,,,0,0,0,0,0,7,7,7,6,0,6,0,,,,,,,,,,,,,,,,,,,,,,,,,,,,,,,,,,,,,,,,,,,,,,,,,,,,,,,,,,,,,,,,30,,,,,,,,1360.7292340999993,1360.7292340999993,1360.7292340999993,1360.7292340999993,1360.7292340999993,,,,,up,0.16031989999464713,2,0,0,99,0.16,0.08,up,0.07471200000145473,,,,,,,,,,,,,,,,,,,,,,,,,,,,,,,,,,,,,,,,,,,,,,,,,,,,,,,,R1W7WT,train_y,blue_star,top_left,2025-01-24_16h14.37.194,HideSeek_v1,2022.2.5,59.979978684279956,
,4,7,4,7,0,0,61,,train_dim1_1,8,30,,,,2,0,2,0,,,,,,,,,0,0,0,0,0,7,7,7,7,0,7,0,,,,,,,,,,,,,,,,,,,,,,,,,,,,,,,,,,,,,,,,,,,,,,,,,,,,,,,,,,,,,,,,30,,,,,,,,1360.8958057999844,1360.8958057999844,1360.8958057999844,1360.8958057999844,1360.8958057999844,,,,,up,0.14202649999060668,2,0,0,99,0.16,0.16,up,0.0683928000216838,,,,,,,,,,,,,,,,,,,,,,,,,,,,,,,,,,,,,,,,,,,,,,,,,,,,,,,,R1W7WT,train_y,blue_star,top_left,2025-01-24_16h14.37.194,HideSeek_v1,2022.2.5,59.979978684279956,
,4,7,4,7,0,0,61,,train_dim1_1,8,30,,,,2,0,2,0,,,,,,,,,0,0,0,0,0,7,7,7,8,0,8,0,,,,,,,,,,,,,,,,,,,,,,,,,,,,,,,,,,,,,,,,,,,,,,,,,,,,,,,,,,,,,,,,30,,,,,,,,1361.044934000005,1361.044934000005,1361.044934000005,1361.044934000005,1361.044934000005,-19,0,0.16,0.16,return,1.010544899996603,3,0,0,1,0.16,0.16,return,0.9273908999748528,,,,,,,,,,,,,,,,,,,,,,,,,,,,,,,,,,,,,,,,,,,,,,,,,,,,,,,,R1W7WT,train_y,blue_star,top_left,2025-01-24_16h14.37.194,HideSeek_v1,2022.2.5,59.979978684279956,
,4,8,4,4,0,-4,65,,train_dim1_1,9,30,,,,2,0,2,0,,,,,,,,,0,0,0,0,0,8,8,8,0,0,0,0,,,,,,,,,,,,,,,,,,,,,,,,,stimuli/alien_stimuli/65.png,,,,,,,,,,,,,,,,,,,,,,,,,,,,,stimuli/alien_stimuli/61.png,61,4,10,,,,,,,30,,,,,,,,1369.322806399985,1369.322806399985,1369.322806399985,1369.322806399985,1369.322806399985,,,,,down,1.8900117999874055,3,0,0,99,0.16,0.15999999999999998,down,1.8123905999818817,1367.7582561000017,0.16,0.16,0.0,0.0,0.16,0.16,0.16,0.16,0.16,1363.624795599986,1363.624795599986,1363.624795599986,1363.624795599986,1363.624795599986,1363.624795599986,1363.624795599986,1363.624795599986,1363.6166180500236,4.242846200009808,return,4.111153500009095,1363.624795599986,,,,,,,,,,,,,,,,,,,,,,,,,,,,,,,,,R1W7WT,train_y,blue_star,top_left,2025-01-24_16h14.37.194,HideSeek_v1,2022.2.5,59.979978684279956,
,4,8,4,4,0,-4,65,,train_dim1_1,9,30,,,,2,0,2,0,,,,,,,,,0,0,0,0,0,8,8,8,1,0,1,0,,,,,,,,,,,,,,,,,,,,,,,,,,,,,,,,,,,,,,,,,,,,,,,,,,,,,,,,,,,,,,,,30,,,,,,,,1371.2199546000047,1371.2199546000047,1371.2199546000047,1371.2199546000047,1371.2199546000047,,,,,down,0.20957659999839962,3,0,0,99,0.16,0.07999999999999997,down,0.12223349997657351,,,,,,,,,,,,,,,,,,,,,,,,,,,,,,,,,,,,,,,,,,,,,,,,,,,,,,,,R1W7WT,train_y,blue_star,top_left,2025-01-24_16h14.37.194,HideSeek_v1,2022.2.5,59.979978684279956,
,4,8,4,4,0,-4,65,,train_dim1_1,9,30,,,,2,0,2,0,,,,,,,,,0,0,0,0,0,8,8,8,2,0,2,0,,,,,,,,,,,,,,,,,,,,,,,,,,,,,,,,,,,,,,,,,,,,,,,,,,,,,,,,,,,,,,,,30,,,,,,,,1371.4367562000116,1371.4367562000116,1371.4367562000116,1371.4367562000116,1371.4367562000116,,,,,down,0.19352070000604726,3,0,0,99,0.16,-2.7755575615628914e-17,down,0.1122515999886673,,,,,,,,,,,,,,,,,,,,,,,,,,,,,,,,,,,,,,,,,,,,,,,,,,,,,,,,R1W7WT,train_y,blue_star,top_left,2025-01-24_16h14.37.194,HideSeek_v1,2022.2.5,59.979978684279956,
,4,8,4,4,0,-4,65,,train_dim1_1,9,30,,,,2,0,2,0,,,,,,,,,0,0,0,0,0,8,8,8,3,0,3,0,,,,,,,,,,,,,,,,,,,,,,,,,,,,,,,,,,,,,,,,,,,,,,,,,,,,,,,,,,,,,,,,30,,,,,,,,1371.6373031999974,1371.6373031999974,1371.6373031999974,1371.6373031999974,1371.6373031999974,,,,,down,0.20954100001836196,3,0,0,99,0.16,-0.08000000000000003,down,0.12661159998970106,,,,,,,,,,,,,,,,,,,,,,,,,,,,,,,,,,,,,,,,,,,,,,,,,,,,,,,,R1W7WT,train_y,blue_star,top_left,2025-01-24_16h14.37.194,HideSeek_v1,2022.2.5,59.979978684279956,
,4,8,4,4,0,-4,65,,train_dim1_1,9,30,,,,2,0,2,0,,,,,,,,,0,0,0,0,0,8,8,8,4,0,4,0,,,,,,,,,,,,,,,,,,,,,,,,,,,,,,,,,,,,,,,,,,,,,,,,,,,,,,,,,,,,,,,,30,,,,,,,,1371.855656300002,1371.855656300002,1371.855656300002,1371.855656300002,1371.855656300002,,,,,down,0.19322560000000522,3,0,0,99,0.16,-0.16000000000000003,down,0.10692010002094321,,,,,,,,,,,,,,,,,,,,,,,,,,,,,,,,,,,,,,,,,,,,,,,,,,,,,,,,R1W7WT,train_y,blue_star,top_left,2025-01-24_16h14.37.194,HideSeek_v1,2022.2.5,59.979978684279956,
,4,8,4,4,0,-4,65,,train_dim1_1,9,30,,,,2,0,2,0,,,,,,,,,0,0,0,0,0,8,8,8,5,0,5,0,,,,,,,,,,,,,,,,,,,,,,,,,,,,,,,,,,,,,,,,,,,,,,,,,,,,,,,,,,,,,,,,30,,,,,,,,1372.053736300004,1372.053736300004,1372.053736300004,1372.053736300004,1372.053736300004,,,,,down,0.9603097999934107,3,0,0,99,0.16,-0.24000000000000005,down,0.8727224000031129,,,,,,,,,,,,,,,,,,,,,,,,,,,,,,,,,,,,,,,,,,,,,,,,,,,,,,,,R1W7WT,train_y,blue_star,top_left,2025-01-24_16h14.37.194,HideSeek_v1,2022.2.5,59.979978684279956,
,4,8,4,4,0,-4,65,,train_dim1_1,9,30,,,,2,0,2,0,,,,,,,,,0,0,0,0,0,8,8,8,6,0,6,0,,,,,,,,,,,,,,,,,,,,,,,,,,,,,,,,,,,,,,,,,,,,,,,,,,,,,,,,,,,,,,,,30,,,,,,,,1373.0209460000042,1373.0209460000042,1373.0209460000042,1373.0209460000042,1373.0209460000042,-25,0,0.16,-0.24000000000000005,return,1.6106301999825519,3,0,0,0,0.16,-0.24000000000000005,return,1.5254563000053167,,,,,,,,,,,,,,,,,,,,,,,,,,,,,,,,,,,,,,,,,,,,,,,,,,,,,,,,R1W7WT,train_y,blue_star,top_left,2025-01-24_16h14.37.194,HideSeek_v1,2022.2.5,59.979978684279956,
,2,7,2,2,0,-5,66,,train_dim1_1,10,30,,,,2,0,2,0,,,,,,,,,0,0,0,0,0,9,9,9,0,0,0,0,,,,,,,,,,,,,,,,,,,,,,,,,stimuli/alien_stimuli/66.png,,,,,,,,,,,,,,,,,,,,,,,,,,,,,stimuli/alien_stimuli/65.png,65,4,11,,,,,,,30,,,,,,,,1381.7663036999875,1381.7663036999875,1381.7663036999875,1381.7663036999875,1381.7663036999875,,,,,down,3.124744799977634,3,0,0,99,0,0.08,down,3.047739800007548,1380.2028101999895,0.16,-0.08,0.32,0.0,0.07999999999999999,0.16,0.16,0.16,-0.08,1376.2016950999969,1376.2016950999969,1376.2016950999969,1376.2016950999969,1376.2016950999969,1376.2016950999969,1376.2016950999969,1376.2016950999969,1376.193922150001,4.110031400021398,return,3.981881300016539,1376.2016950999969,,,,,,,,,,,,,,,,,,,,,,,,,,,,,,,,,R1W7WT,train_y,blue_star,top_left,2025-01-24_16h14.37.194,HideSeek_v1,2022.2.5,59.979978684279956,
,2,7,2,2,0,-5,66,,train_dim1_1,10,30,,,,2,0,2,0,,,,,,,,,0,0,0,0,0,9,9,9,1,0,1,0,,,,,,,,,,,,,,,,,,,,,,,,,,,,,,,,,,,,,,,,,,,,,,,,,,,,,,,,,,,,,,,,30,,,,,,,,1384.897776400001,1384.897776400001,1384.897776400001,1384.897776400001,1384.897776400001,,,,,down,0.24305730001651682,3,0,0,99,0,0.0,down,0.16595759999472648,,,,,,,,,,,,,,,,,,,,,,,,,,,,,,,,,,,,,,,,,,,,,,,,,,,,,,,,R1W7WT,train_y,blue_star,top_left,2025-01-24_16h14.37.194,HideSeek_v1,2022.2.5,59.979978684279956,
,2,7,2,2,0,-5,66,,train_dim1_1,10,30,,,,2,0,2,0,,,,,,,,,0,0,0,0,0,9,9,9,2,0,2,0,,,,,,,,,,,,,,,,,,,,,,,,,,,,,,,,,,,,,,,,,,,,,,,,,,,,,,,,,,,,,,,,30,,,,,,,,1385.1477622000093,1385.1477622000093,1385.1477622000093,1385.1477622000093,1385.1477622000093,,,,,down,0.21004809997975826,3,0,0,99,0,-0.08,down,0.1279303999908734,,,,,,,,,,,,,,,,,,,,,,,,,,,,,,,,,,,,,,,,,,,,,,,,,,,,,,,,R1W7WT,train_y,blue_star,top_left,2025-01-24_16h14.37.194,HideSeek_v1,2022.2.5,59.979978684279956,
,2,7,2,2,0,-5,66,,train_dim1_1,10,30,,,,2,0,2,0,,,,,,,,,0,0,0,0,0,9,9,9,3,0,3,0,,,,,,,,,,,,,,,,,,,,,,,,,,,,,,,,,,,,,,,,,,,,,,,,,,,,,,,,,,,,,,,,30,,,,,,,,1385.365368400002,1385.365368400002,1385.365368400002,1385.365368400002,1385.365368400002,,,,,down,0.19289000000571832,3,0,0,99,0,-0.16,down,0.11774529999820516,,,,,,,,,,,,,,,,,,,,,,,,,,,,,,,,,,,,,,,,,,,,,,,,,,,,,,,,R1W7WT,train_y,blue_star,top_left,2025-01-24_16h14.37.194,HideSeek_v1,2022.2.5,59.979978684279956,
,2,7,2,2,0,-5,66,,train_dim1_1,10,30,,,,2,0,2,0,,,,,,,,,0,0,0,0,0,9,9,9,4,0,4,0,,,,,,,,,,,,,,,,,,,,,,,,,,,,,,,,,,,,,,,,,,,,,,,,,,,,,,,,,,,,,,,,30,,,,,,,,1385.5649189999967,1385.5649189999967,1385.5649189999967,1385.5649189999967,1385.5649189999967,,,,,down,0.19318800000473857,3,0,0,99,0,-0.24,down,0.11443419998977333,,,,,,,,,,,,,,,,,,,,,,,,,,,,,,,,,,,,,,,,,,,,,,,,,,,,,,,,R1W7WT,train_y,blue_star,top_left,2025-01-24_16h14.37.194,HideSeek_v1,2022.2.5,59.979978684279956,
,2,7,2,2,0,-5,66,,train_dim1_1,10,30,,,,2,0,2,0,,,,,,,,,0,0,0,0,0,9,9,9,5,0,5,0,,,,,,,,,,,,,,,,,,,,,,,,,,,,,,,,,,,,,,,,,,,,,,,,,,,,,,,,,,,,,,,,30,,,,,,,,1385.765656100004,1385.765656100004,1385.765656100004,1385.765656100004,1385.765656100004,,,,,right,1.911166299978504,3,0,0,99,0.08,-0.24,right,1.8225874999770895,,,,,,,,,,,,,,,,,,,,,,,,,,,,,,,,,,,,,,,,,,,,,,,,,,,,,,,,R1W7WT,train_y,blue_star,top_left,2025-01-24_16h14.37.194,HideSeek_v1,2022.2.5,59.979978684279956,
,2,7,2,2,0,-5,66,,train_dim1_1,10,30,,,,2,0,2,0,,,,,,,,,0,0,0,0,0,9,9,9,6,0,6,0,,,,,,,,,,,,,,,,,,,,,,,,,,,,,,,,,,,,,,,,,,,,,,,,,,,,,,,,,,,,,,,,30,,,,,,,,1387.682818100002,1387.682818100002,1387.682818100002,1387.682818100002,1387.682818100002,,,,,left,0.5599318000022322,3,0,0,99,0.0,-0.24,left,0.47668039999553,,,,,,,,,,,,,,,,,,,,,,,,,,,,,,,,,,,,,,,,,,,,,,,,,,,,,,,,R1W7WT,train_y,blue_star,top_left,2025-01-24_16h14.37.194,HideSeek_v1,2022.2.5,59.979978684279956,
,2,7,2,2,0,-5,66,,train_dim1_1,10,30,,,,2,0,2,0,,,,,,,,,0,0,0,0,0,9,9,9,7,0,7,0,,,,,,,,,,,,,,,,,,,,,,,,,,,,,,,,,,,,,,,,,,,,,,,,,,,,,,,,,,,,,,,,30,,,,,,,,1388.2503540999896,1388.2503540999896,1388.2503540999896,1388.2503540999896,1388.2503540999896,-30,0,0.0,-0.24,return,0.710432399995625,4,0,0,1,0.0,-0.24,return,0.6253005999897141,,,,,,,,,,,,,,,,,,,,,,,,,,,,,,,,,,,,,,,,,,,,,,,,,,,,,,,,R1W7WT,train_y,blue_star,top_left,2025-01-24_16h14.37.194,HideSeek_v1,2022.2.5,59.979978684279956,
,4,6,4,2,0,-4,65,,train_dim1_1,11,30,,,,2,0,2,0,,,,,,,,,0,0,0,0,0,10,10,10,0,0,0,0,,,,,,,,,,,,,,,,,,,,,,,,,stimuli/alien_stimuli/65.png,,,,,,,,,,,,,,,,,,,,,,,,,,,,,stimuli/alien_stimuli/66.png,66,2,12,,,,,,,30,,,,,,,,1394.5274529999879,1394.5274529999879,1394.5274529999879,1394.5274529999879,1394.5274529999879,,,,,down,2.373429400002351,4,0,0,99,0.16,0.0,down,2.2871270999894477,1392.975880699989,0,-0.24,0.4,0.0,-0.039999999999999994,0,0.0,0,-0.24,1390.5461356999876,1390.5461356999876,1390.5461356999876,1390.5461356999876,1390.5461356999876,1390.5461356999876,1390.5461356999876,1390.5461356999876,1390.5389596499967,2.538771999999881,return,2.4106526999967173,1394.5274529999879,,,,,,,,,,,,,,,,,,,,,,,,,,,,,,,,,R1W7WT,train_y,blue_star,top_left,2025-01-24_16h14.37.194,HideSeek_v1,2022.2.5,59.979978684279956,
,4,6,4,2,0,-4,65,,train_dim1_1,11,30,,,,2,0,2,0,,,,,,,,,0,0,0,0,0,10,10,10,1,0,1,0,,,,,,,,,,,,,,,,,,,,,,,,,,,,,,,,,,,,,,,,,,,,,,,,,,,,,,,,,,,,,,,,30,,,,,,,,1396.9083389999869,1396.9083389999869,1396.9083389999869,1396.9083389999869,1396.9083389999869,,,,,down,0.2261667999846395,4,0,0,99,0.16,-0.08,down,0.15138609998393804,,,,,,,,,,,,,,,,,,,,,,,,,,,,,,,,,,,,,,,,,,,,,,,,,,,,,,,,R1W7WT,train_y,blue_star,top_left,2025-01-24_16h14.37.194,HideSeek_v1,2022.2.5,59.979978684279956,
,4,6,4,2,0,-4,65,,train_dim1_1,11,30,,,,2,0,2,0,,,,,,,,,0,0,0,0,0,10,10,10,2,0,2,0,,,,,,,,,,,,,,,,,,,,,,,,,,,,,,,,,,,,,,,,,,,,,,,,,,,,,,,,,,,,,,,,30,,,,,,,,1397.1411911000032,1397.1411911000032,1397.1411911000032,1397.1411911000032,1397.1411911000032,,,,,down,0.1769792000122834,4,0,0,99,0.16,-0.16,down,0.1037069000012707,,,,,,,,,,,,,,,,,,,,,,,,,,,,,,,,,,,,,,,,,,,,,,,,,,,,,,,,R1W7WT,train_y,blue_star,top_left,2025-01-24_16h14.37.194,HideSeek_v1,2022.2.5,59.979978684279956,
,4,6,4,2,0,-4,65,,train_dim1_1,11,30,,,,2,0,2,0,,,,,,,,,0,0,0,0,0,10,10,10,3,0,3,0,,,,,,,,,,,,,,,,,,,,,,,,,,,,,,,,,,,,,,,,,,,,,,,,,,,,,,,,,,,,,,,,30,,,,,,,,1397.3245405000052,1397.3245405000052,1397.3245405000052,1397.3245405000052,1397.3245405000052,,,,,down,0.19288269997923635,4,0,0,99,0.16,-0.24,down,0.11000350001268089,,,,,,,,,,,,,,,,,,,,,,,,,,,,,,,,,,,,,,,,,,,,,,,,,,,,,,,,R1W7WT,train_y,blue_star,top_left,2025-01-24_16h14.37.194,HideSeek_v1,2022.2.5,59.979978684279956,
,4,6,4,2,0,-4,65,,train_dim1_1,11,30,,,,2,0,2,0,,,,,,,,,0,0,0,0,0,10,10,10,4,0,4,0,,,,,,,,,,,,,,,,,,,,,,,,,,,,,,,,,,,,,,,,,,,,,,,,,,,,,,,,,,,,,,,,30,,,,,,,,1397.5243259000126,1397.5243259000126,1397.5243259000126,1397.5243259000126,1397.5243259000126,,,,,down,0.15978680000989698,4,0,0,99,0.16,-0.32,down,0.08070120000047609,,,,,,,,,,,,,,,,,,,,,,,,,,,,,,,,,,,,,,,,,,,,,,,,,,,,,,,,R1W7WT,train_y,blue_star,top_left,2025-01-24_16h14.37.194,HideSeek_v1,2022.2.5,59.979978684279956,
,4,6,4,2,0,-4,65,,train_dim1_1,11,30,,,,2,0,2,0,,,,,,,,,0,0,0,0,0,10,10,10,5,0,5,0,,,,,,,,,,,,,,,,,,,,,,,,,,,,,,,,,,,,,,,,,,,,,,,,,,,,,,,,,,,,,,,,30,,,,,,,,1397.691373699985,1397.691373699985,1397.691373699985,1397.691373699985,1397.691373699985,-35,0,0.16,-0.32,return,0.9438326999952551,4,1,0,0,0.16,-0.32,return,0.8559029000170995,,,,,,,,,,,,,,,,,,,,,,,,,,,,,,,,,,,,,,,,,,,,,,,,,,,,,,,,R1W7WT,train_y,blue_star,top_left,2025-01-24_16h14.37.194,HideSeek_v1,2022.2.5,59.979978684279956,
,0,5,0,5,0,0,61,,train_dim1_1,12,30,,,,2,0,2,0,,,,,,,,,0,0,0,0,0,11,11,11,0,0,0,0,,,,,,,,,,,,,,,,,,,,,,,,,stimuli/alien_stimuli/61.png,,,,,,,,,,,,,,,,,,,,,,,,,,,,,stimuli/alien_stimuli/65.png,65,4,13,,,,,,,30,,,,,,,,1404.3676094000111,1404.3676094000111,1404.3676094000111,1404.3676094000111,1404.3676094000111,-35,0,-0.16,0,return,4.309870500001125,5,0,0,1,-0.16,0,return,4.23420259996783,1402.8038911999902,0.16,-0.24,0.32,0.0,-0.07999999999999999,0.16,0.16,0.16,-0.24,1400.1952163999958,1400.1952163999958,1400.1952163999958,1400.1952163999958,1400.1952163999958,1400.1952163999958,1400.1952163999958,1400.1952163999958,1400.1809915000165,2.707714499993017,return,2.5768116999824997,1400.1952163999958,,,,,,,,,,,,,,,,,,,,,,,,,,,,,,,,,R1W7WT,train_y,blue_star,top_left,2025-01-24_16h14.37.194,HideSeek_v1,2022.2.5,59.979978684279956,
,4,8,4,7,0,-1,62,,train_dim1_1,13,30,,,,2,0,2,0,,,,,,,,,0,0,0,0,0,12,12,12,0,0,0,0,,,,,,,,,,,,,,,,,,,,,,,,,stimuli/alien_stimuli/62.png,,,,,,,,,,,,,,,,,,,,,,,,,,,,,stimuli/alien_stimuli/61.png,61,0,14,,,,,,,30,,,,,,,,1413.6266797999851,1413.6266797999851,1413.6266797999851,1413.6266797999851,1413.6266797999851,,,,,down,4.158235100010643,5,0,0,99,0.16,0.15999999999999998,down,4.070636299991747,1412.0739834000124,-0.16,0,0.0,0.0,0.0,-0.16,-0.16,-0.16,0,1410.2605276000104,1410.2605276000104,1410.2605276000104,1410.2605276000104,1410.2605276000104,1410.2605276000104,1410.2605276000104,1410.2605276000104,1410.2551846500078,1.9210048000095412,return,1.7830789999861736,1413.6266797999851,,,,,,,,,,,,,,,,,,,,,,,,,,,,,,,,,R1W7WT,train_y,blue_star,top_left,2025-01-24_16h14.37.194,HideSeek_v1,2022.2.5,59.979978684279956,
,4,8,4,7,0,-1,62,,train_dim1_1,13,30,,,,2,0,2,0,,,,,,,,,0,0,0,0,0,12,12,12,1,0,1,0,,,,,,,,,,,,,,,,,,,,,,,,,,,,,,,,,,,,,,,,,,,,,,,,,,,,,,,,,,,,,,,,30,,,,,,,,1417.7928405999846,1417.7928405999846,1417.7928405999846,1417.7928405999846,1417.7928405999846,,,,,down,0.24275130001478828,5,0,0,99,0.16,0.07999999999999997,down,0.15491879999171942,,,,,,,,,,,,,,,,,,,,,,,,,,,,,,,,,,,,,,,,,,,,,,,,,,,,,,,,R1W7WT,train_y,blue_star,top_left,2025-01-24_16h14.37.194,HideSeek_v1,2022.2.5,59.979978684279956,
,4,8,4,7,0,-1,62,,train_dim1_1,13,30,,,,2,0,2,0,,,,,,,,,0,0,0,0,0,12,12,12,2,0,2,0,,,,,,,,,,,,,,,,,,,,,,,,,,,,,,,,,,,,,,,,,,,,,,,,,,,,,,,,,,,,,,,,30,,,,,,,,1418.0422183999908,1418.0422183999908,1418.0422183999908,1418.0422183999908,1418.0422183999908,,,,,down,0.5600737000058871,5,0,0,99,0.16,-2.7755575615628914e-17,down,0.4799831999698654,,,,,,,,,,,,,,,,,,,,,,,,,,,,,,,,,,,,,,,,,,,,,,,,,,,,,,,,R1W7WT,train_y,blue_star,top_left,2025-01-24_16h14.37.194,HideSeek_v1,2022.2.5,59.979978684279956,
,4,8,4,7,0,-1,62,,train_dim1_1,13,30,,,,2,0,2,0,,,,,,,,,0,0,0,0,0,12,12,12,3,0,3,0,,,,,,,,,,,,,,,,,,,,,,,,,,,,,,,,,,,,,,,,,,,,,,,,,,,,,,,,,,,,,,,,30,,,,,,,,1418.6090416999941,1418.6090416999941,1418.6090416999941,1418.6090416999941,1418.6090416999941,-38,0,0.16,-2.7755575615628914e-17,return,0.7770595000183675,5,0,0,0,0.16,-2.7755575615628914e-17,return,0.6949474000139162,,,,,,,,,,,,,,,,,,,,,,,,,,,,,,,,,,,,,,,,,,,,,,,,,,,,,,,,R1W7WT,train_y,blue_star,top_left,2025-01-24_16h14.37.194,HideSeek_v1,2022.2.5,59.979978684279956,
,2,7,2,2,0,-5,66,,train_dim1_1,14,30,,,,2,0,2,0,,,,,,,,,0,0,0,0,0,13,13,13,0,0,0,0,,,,,,,,,,,,,,,,,,,,,,,,,stimuli/alien_stimuli/66.png,,,,,,,,,,,,,,,,,,,,,,,,,,,,,stimuli/alien_stimuli/62.png,62,4,15,,,,,,,30,,,,,,,,1426.6218031999888,1426.6218031999888,1426.6218031999888,1426.6218031999888,1426.6218031999888,,,,,down,1.8394825999857858,5,0,0,99,0,0.08,down,1.7651680000126362,1425.06987810001,0.16,0.16,0.08,0.0,0.2,0.16,0.16,0.16,0.16,1420.9478776000033,1420.9478776000033,1420.9478776000033,1420.9478776000033,1420.9478776000033,1420.9478776000033,1420.9478776000033,1420.9478776000033,1420.9475755499966,4.223791500000516,return,4.0997896999761,1426.6218031999888,,,,,,,,,,,,,,,,,,,,,,,,,,,,,,,,,R1W7WT,train_y,blue_star,top_left,2025-01-24_16h14.37.194,HideSeek_v1,2022.2.5,59.979978684279956,
,2,7,2,2,0,-5,66,,train_dim1_1,14,30,,,,2,0,2,0,,,,,,,,,0,0,0,0,0,13,13,13,1,0,1,0,,,,,,,,,,,,,,,,,,,,,,,,,,,,,,,,,,,,,,,,,,,,,,,,,,,,,,,,,,,,,,,,30,,,,,,,,1428.4676094999886,1428.4676094999886,1428.4676094999886,1428.4676094999886,1428.4676094999886,,,,,down,0.22617609999724664,5,0,0,99,0,0.0,down,0.1417236999841407,,,,,,,,,,,,,,,,,,,,,,,,,,,,,,,,,,,,,,,,,,,,,,,,,,,,,,,,R1W7WT,train_y,blue_star,top_left,2025-01-24_16h14.37.194,HideSeek_v1,2022.2.5,59.979978684279956,
,2,7,2,2,0,-5,66,,train_dim1_1,14,30,,,,2,0,2,0,,,,,,,,,0,0,0,0,0,13,13,13,2,0,2,0,,,,,,,,,,,,,,,,,,,,,,,,,,,,,,,,,,,,,,,,,,,,,,,,,,,,,,,,,,,,,,,,30,,,,,,,,1428.7012030000042,1428.7012030000042,1428.7012030000042,1428.7012030000042,1428.7012030000042,,,,,down,0.20911460000206716,5,0,0,99,0,-0.08,down,0.1233799000037834,,,,,,,,,,,,,,,,,,,,,,,,,,,,,,,,,,,,,,,,,,,,,,,,,,,,,,,,R1W7WT,train_y,blue_star,top_left,2025-01-24_16h14.37.194,HideSeek_v1,2022.2.5,59.979978684279956,
,2,7,2,2,0,-5,66,,train_dim1_1,14,30,,,,2,0,2,0,,,,,,,,,0,0,0,0,0,13,13,13,3,0,3,0,,,,,,,,,,,,,,,,,,,,,,,,,,,,,,,,,,,,,,,,,,,,,,,,,,,,,,,,,,,,,,,,30,,,,,,,,1428.9182741999975,1428.9182741999975,1428.9182741999975,1428.9182741999975,1428.9182741999975,,,,,down,0.2262263000011444,5,0,0,99,0,-0.16,down,0.15260460000718012,,,,,,,,,,,,,,,,,,,,,,,,,,,,,,,,,,,,,,,,,,,,,,,,,,,,,,,,R1W7WT,train_y,blue_star,top_left,2025-01-24_16h14.37.194,HideSeek_v1,2022.2.5,59.979978684279956,
,2,7,2,2,0,-5,66,,train_dim1_1,14,30,,,,2,0,2,0,,,,,,,,,0,0,0,0,0,13,13,13,4,0,4,0,,,,,,,,,,,,,,,,,,,,,,,,,,,,,,,,,,,,,,,,,,,,,,,,,,,,,,,,,,,,,,,,30,,,,,,,,1429.1512780000048,1429.1512780000048,1429.1512780000048,1429.1512780000048,1429.1512780000048,,,,,down,1.2603462999977637,5,0,0,99,0,-0.24,down,1.1803632999944966,,,,,,,,,,,,,,,,,,,,,,,,,,,,,,,,,,,,,,,,,,,,,,,,,,,,,,,,R1W7WT,train_y,blue_star,top_left,2025-01-24_16h14.37.194,HideSeek_v1,2022.2.5,59.979978684279956,
,2,7,2,2,0,-5,66,,train_dim1_1,14,30,,,,2,0,2,0,,,,,,,,,0,0,0,0,0,13,13,13,5,0,5,0,,,,,,,,,,,,,,,,,,,,,,,,,,,,,,,,,,,,,,,,,,,,,,,,,,,,,,,,,,,,,,,,30,,,,,,,,1430.4180645000015,1430.4180645000015,1430.4180645000015,1430.4180645000015,1430.4180645000015,-43,0,0,-0.24,return,2.2785554000001866,6,0,0,1,0,-0.24,return,2.198955500003649,,,,,,,,,,,,,,,,,,,,,,,,,,,,,,,,,,,,,,,,,,,,,,,,,,,,,,,,R1W7WT,train_y,blue_star,top_left,2025-01-24_16h14.37.194,HideSeek_v1,2022.2.5,59.979978684279956,
,1,9,1,6,0,-3,64,,train_dim1_1,15,30,,,,2,0,2,0,,,,,,,,,0,0,0,0,0,14,14,14,0,0,0,0,,,,,,,,,,,,,,,,,,,,,,,,,stimuli/alien_stimuli/64.png,,,,,,,,,,,,,,,,,,,,,,,,,,,,,stimuli/alien_stimuli/66.png,66,2,16,,,,,,,30,,,,,,,,1438.01209080001,1438.01209080001,1438.01209080001,1438.01209080001,1438.01209080001,,,,,down,3.3422074999834877,6,0,0,99,-0.08,0.24,down,3.259495699981926,1436.4487985000014,0,-0.24,0.4,0.0,-0.039999999999999994,0,0.0,0,-0.24,1434.2649269000103,1434.2649269000103,1434.2649269000103,1434.2649269000103,1434.2649269000103,1434.2649269000103,1434.2649269000103,1434.2649269000103,1434.2587638500204,2.292901799984975,return,2.151006400003098,1434.2649269000103,,,,,,,,,,,,,,,,,,,,,,,,,,,,,,,,,R1W7WT,train_y,blue_star,top_left,2025-01-24_16h14.37.194,HideSeek_v1,2022.2.5,59.979978684279956,
,1,9,1,6,0,-3,64,,train_dim1_1,15,30,,,,2,0,2,0,,,,,,,,,0,0,0,0,0,14,14,14,1,0,1,0,,,,,,,,,,,,,,,,,,,,,,,,,,,,,,,,,,,,,,,,,,,,,,,,,,,,,,,,,,,,,,,,30,,,,,,,,1441.3616964000103,1441.3616964000103,1441.3616964000103,1441.3616964000103,1441.3616964000103,,,,,down,4.712992800021311,6,0,0,99,-0.08,0.15999999999999998,down,4.639317699999083,,,,,,,,,,,,,,,,,,,,,,,,,,,,,,,,,,,,,,,,,,,,,,,,,,,,,,,,R1W7WT,train_y,blue_star,top_left,2025-01-24_16h14.37.194,HideSeek_v1,2022.2.5,59.979978684279956,
,1,9,1,6,0,-3,64,,train_dim1_1,15,30,,,,2,0,2,0,,,,,,,,,0,0,0,0,0,14,14,14,2,0,2,0,,,,,,,,,,,,,,,,,,,,,,,,,,,,,,,,,,,,,,,,,,,,,,,,,,,,,,,,,,,,,,,,30,,,,,,,,1446.0826537999965,1446.0826537999965,1446.0826537999965,1446.0826537999965,1446.0826537999965,,,,,down,1.8279916000028607,6,0,0,99,-0.08,0.07999999999999997,down,1.7467276999959722,,,,,,,,,,,,,,,,,,,,,,,,,,,,,,,,,,,,,,,,,,,,,,,,,,,,,,,,R1W7WT,train_y,blue_star,top_left,2025-01-24_16h14.37.194,HideSeek_v1,2022.2.5,59.979978684279956,
,1,9,1,6,0,-3,64,,train_dim1_1,15,30,,,,2,0,2,0,,,,,,,,,0,0,0,0,0,14,14,14,3,0,3,0,,,,,,,,,,,,,,,,,,,,,,,,,,,,,,,,,,,,,,,,,,,,,,,,,,,,,,,,,,,,,,,,30,,,,,,,,1447.9159373999864,1447.9159373999864,1447.9159373999864,1447.9159373999864,1447.9159373999864,,,,,down,0.3099828999838792,6,0,0,99,-0.08,-2.7755575615628914e-17,down,0.23580480000237003,,,,,,,,,,,,,,,,,,,,,,,,,,,,,,,,,,,,,,,,,,,,,,,,,,,,,,,,R1W7WT,train_y,blue_star,top_left,2025-01-24_16h14.37.194,HideSeek_v1,2022.2.5,59.979978684279956,
,1,9,1,6,0,-3,64,,train_dim1_1,15,30,,,,2,0,2,0,,,,,,,,,0,0,0,0,0,14,14,14,4,0,4,0,,,,,,,,,,,,,,,,,,,,,,,,,,,,,,,,,,,,,,,,,,,,,,,,,,,,,,,,,,,,,,,,30,,,,,,,,1448.2327411999868,1448.2327411999868,1448.2327411999868,1448.2327411999868,1448.2327411999868,-47,0,-0.08,-2.7755575615628914e-17,return,4.479948799998965,6,1,0,0,-0.08,-2.7755575615628914e-17,return,4.396426799998153,,,,,,,,,,,,,,,,,,,,,,,,,,,,,,,,,,,,,,,,,,,,,,,,,,,,,,,,R1W7WT,train_y,blue_star,top_left,2025-01-24_16h14.37.194,HideSeek_v1,2022.2.5,59.979978684279956,
,4,5,4,1,0,-4,65,,train_dim1_1,16,30,,,,2,0,2,0,,,,,,,,,0,0,0,0,0,15,15,15,0,0,0,0,,,,,,,,,,,,,,,,,,,,,,,,,stimuli/alien_stimuli/65.png,,,,,,,,,,,,,,,,,,,,,,,,,,,,,stimuli/alien_stimuli/64.png,64,1,17,,,,,,,30,,,,,,,,1458.5803297999955,1458.5803297999955,1458.5803297999955,1458.5803297999955,1458.5803297999955,,,,,down,1.7402202000084799,6,1,0,99,0.16,-0.08,down,1.6572486000077333,1457.0160027999955,-0.08,0.08,0.24,0.0,0.2,-0.08,-0.08,-0.08,0.08,1454.2950808999885,1454.2950808999885,1454.2950808999885,1454.2950808999885,1454.2950808999885,1454.2950808999885,1454.2950808999885,1454.2950808999885,1454.2919472999986,2.8426842000044417,return,2.6894790999940597,1454.2950808999885,,,,,,,,,,,,,,,,,,,,,,,,,,,,,,,,,R1W7WT,train_y,blue_star,top_left,2025-01-24_16h14.37.194,HideSeek_v1,2022.2.5,59.979978684279956,
,4,5,4,1,0,-4,65,,train_dim1_1,16,30,,,,2,0,2,0,,,,,,,,,0,0,0,0,0,15,15,15,1,0,1,0,,,,,,,,,,,,,,,,,,,,,,,,,,,,,,,,,,,,,,,,,,,,,,,,,,,,,,,,,,,,,,,,30,,,,,,,,1460.3275296000065,1460.3275296000065,1460.3275296000065,1460.3275296000065,1460.3275296000065,,,,,down,0.2088549000036437,6,1,0,99,0.16,-0.16,down,0.13048590000835247,,,,,,,,,,,,,,,,,,,,,,,,,,,,,,,,,,,,,,,,,,,,,,,,,,,,,,,,R1W7WT,train_y,blue_star,top_left,2025-01-24_16h14.37.194,HideSeek_v1,2022.2.5,59.979978684279956,
,4,5,4,1,0,-4,65,,train_dim1_1,16,30,,,,2,0,2,0,,,,,,,,,0,0,0,0,0,15,15,15,2,0,2,0,,,,,,,,,,,,,,,,,,,,,,,,,,,,,,,,,,,,,,,,,,,,,,,,,,,,,,,,,,,,,,,,30,,,,,,,,1460.5438933999976,1460.5438933999976,1460.5438933999976,1460.5438933999976,1460.5438933999976,,,,,down,0.19367720000445843,6,1,0,99,0.16,-0.24,down,0.12078689999179915,,,,,,,,,,,,,,,,,,,,,,,,,,,,,,,,,,,,,,,,,,,,,,,,,,,,,,,,R1W7WT,train_y,blue_star,top_left,2025-01-24_16h14.37.194,HideSeek_v1,2022.2.5,59.979978684279956,
,4,5,4,1,0,-4,65,,train_dim1_1,16,30,,,,2,0,2,0,,,,,,,,,0,0,0,0,0,15,15,15,3,0,3,0,,,,,,,,,,,,,,,,,,,,,,,,,,,,,,,,,,,,,,,,,,,,,,,,,,,,,,,,,,,,,,,,30,,,,,,,,1460.7445054999844,1460.7445054999844,1460.7445054999844,1460.7445054999844,1460.7445054999844,,,,,down,0.6100572000141256,6,1,0,99,0.16,-0.32,down,0.5342052999767475,,,,,,,,,,,,,,,,,,,,,,,,,,,,,,,,,,,,,,,,,,,,,,,,,,,,,,,,R1W7WT,train_y,blue_star,top_left,2025-01-24_16h14.37.194,HideSeek_v1,2022.2.5,59.979978684279956,
,4,5,4,1,0,-4,65,,train_dim1_1,16,30,,,,2,0,2,0,,,,,,,,,0,0,0,0,0,15,15,15,4,0,4,0,,,,,,,,,,,,,,,,,,,,,,,,,,,,,,,,,,,,,,,,,,,,,,,,,,,,,,,,,,,,,,,,30,,,,,,,,1461.360622200009,1461.360622200009,1461.360622200009,1461.360622200009,1461.360622200009,-51,0,0.16,-0.32,return,0.7273022999870591,7,0,0,1,0.16,-0.32,return,0.6523197999922559,,,,,,,,,,,,,,,,,,,,,,,,,,,,,,,,,,,,,,,,,,,,,,,,,,,,,,,,R1W7WT,train_y,blue_star,top_left,2025-01-24_16h14.37.194,HideSeek_v1,2022.2.5,59.979978684279956,
,3,8,3,5,0,-3,64,,train_dim1_1,17,30,,,,2,0,2,0,,,,,,,,,0,0,0,0,0,16,16,16,0,0,0,0,,,,,,,,,,,,,,,,,,,,,,,,,stimuli/alien_stimuli/64.png,,,,,,,,,,,,,,,,,,,,,,,,,,,,,stimuli/alien_stimuli/65.png,65,4,18,,,,,,,30,,,,,,,,1467.2361754000012,1467.2361754000012,1467.2361754000012,1467.2361754000012,1467.2361754000012,,,,,down,3.175320400012424,7,0,0,99,0.08,0.15999999999999998,down,3.0961643000191543,1465.6847663999943,0.16,-0.32,0.32,0.0,-0.16,0.16,0.16,0.16,-0.32,1463.6377236999979,1463.6377236999979,1463.6377236999979,1463.6377236999979,1463.6377236999979,1463.6377236999979,1463.6377236999979,1463.6377236999979,1463.6330447000043,2.1311168000102043,return,2.004598300001817,1463.6377236999979,,,,,,,,,,,,,,,,,,,,,,,,,,,,,,,,,R1W7WT,train_y,blue_star,top_left,2025-01-24_16h14.37.194,HideSeek_v1,2022.2.5,59.979978684279956,
,3,8,3,5,0,-3,64,,train_dim1_1,17,30,,,,2,0,2,0,,,,,,,,,0,0,0,0,0,16,16,16,1,0,1,0,,,,,,,,,,,,,,,,,,,,,,,,,,,,,,,,,,,,,,,,,,,,,,,,,,,,,,,,,,,,,,,,30,,,,,,,,1470.419028400007,1470.419028400007,1470.419028400007,1470.419028400007,1470.419028400007,,,,,down,0.20931879998533987,7,0,0,99,0.08,0.07999999999999997,down,0.13120430000708438,,,,,,,,,,,,,,,,,,,,,,,,,,,,,,,,,,,,,,,,,,,,,,,,,,,,,,,,R1W7WT,train_y,blue_star,top_left,2025-01-24_16h14.37.194,HideSeek_v1,2022.2.5,59.979978684279956,
,3,8,3,5,0,-3,64,,train_dim1_1,17,30,,,,2,0,2,0,,,,,,,,,0,0,0,0,0,16,16,16,2,0,2,0,,,,,,,,,,,,,,,,,,,,,,,,,,,,,,,,,,,,,,,,,,,,,,,,,,,,,,,,,,,,,,,,30,,,,,,,,1470.6353767999972,1470.6353767999972,1470.6353767999972,1470.6353767999972,1470.6353767999972,,,,,down,0.2097117000084836,7,0,0,99,0.08,-2.7755575615628914e-17,down,0.1318121000076644,,,,,,,,,,,,,,,,,,,,,,,,,,,,,,,,,,,,,,,,,,,,,,,,,,,,,,,,R1W7WT,train_y,blue_star,top_left,2025-01-24_16h14.37.194,HideSeek_v1,2022.2.5,59.979978684279956,
,3,8,3,5,0,-3,64,,train_dim1_1,17,30,,,,2,0,2,0,,,,,,,,,0,0,0,0,0,16,16,16,3,0,3,0,,,,,,,,,,,,,,,,,,,,,,,,,,,,,,,,,,,,,,,,,,,,,,,,,,,,,,,,,,,,,,,,30,,,,,,,,1470.8519680000027,1470.8519680000027,1470.8519680000027,1470.8519680000027,1470.8519680000027,,,,,down,1.8276987000135705,7,0,0,99,0.08,-0.08000000000000003,down,1.749069400015287,,,,,,,,,,,,,,,,,,,,,,,,,,,,,,,,,,,,,,,,,,,,,,,,,,,,,,,,R1W7WT,train_y,blue_star,top_left,2025-01-24_16h14.37.194,HideSeek_v1,2022.2.5,59.979978684279956,
,3,8,3,5,0,-3,64,,train_dim1_1,17,30,,,,2,0,2,0,,,,,,,,,0,0,0,0,0,16,16,16,4,0,4,0,,,,,,,,,,,,,,,,,,,,,,,,,,,,,,,,,,,,,,,,,,,,,,,,,,,,,,,,,,,,,,,,30,,,,,,,,1472.6866874000116,1472.6866874000116,1472.6866874000116,1472.6866874000116,1472.6866874000116,-55,0,0.08,-0.08000000000000003,return,2.912305900012143,7,1,0,0,0.08,-0.08000000000000003,return,2.8292845000105444,,,,,,,,,,,,,,,,,,,,,,,,,,,,,,,,,,,,,,,,,,,,,,,,,,,,,,,,R1W7WT,train_y,blue_star,top_left,2025-01-24_16h14.37.194,HideSeek_v1,2022.2.5,59.979978684279956,
,2,6,2,6,0,0,61,,train_dim1_1,18,30,,,,2,0,2,0,,,,,,,,,0,0,0,0,0,17,17,17,0,0,0,0,,,,,,,,,,,,,,,,,,,,,,,,,stimuli/alien_stimuli/61.png,,,,,,,,,,,,,,,,,,,,,,,,,,,,,stimuli/alien_stimuli/64.png,64,3,19,,,,,,,30,,,,,,,,1480.5809126000095,1480.5809126000095,1480.5809126000095,1480.5809126000095,1480.5809126000095,-55,0,0,0.08,return,3.4759595999785233,8,0,0,1,0,0.08,return,3.3940213000169024,1479.0151190999895,0.08,0,0.24,0.0,0.12,0.08,0.08,0.08,0,1477.166328899999,1477.166328899999,1477.166328899999,1477.166328899999,1477.166328899999,1477.166328899999,1477.166328899999,1477.166328899999,1477.1607735500088,1.9558125000039581,return,1.8148163000005297,1477.166328899999,,,,,,,,,,,,,,,,,,,,,,,,,,,,,,,,,R1W7WT,train_y,blue_star,top_left,2025-01-24_16h14.37.194,HideSeek_v1,2022.2.5,59.979978684279956,
,0,9,0,8,0,-1,62,,train_dim1_1,19,30,,,,2,0,2,0,,,,,,,,,0,0,0,0,0,18,18,18,0,0,0,0,,,,,,,,,,,,,,,,,,,,,,,,,stimuli/alien_stimuli/62.png,,,,,,,,,,,,,,,,,,,,,,,,,,,,,stimuli/alien_stimuli/61.png,61,2,20,,,,,,,30,,,,,,,,1488.8542361999862,1488.8542361999862,1488.8542361999862,1488.8542361999862,1488.8542361999862,,,,,down,2.4240071999956854,8,0,0,99,-0.16,0.24,down,2.351568699989002,1487.290855500003,0,0.08,0.0,0.0,0.08,0,0.0,0,0.08,1485.6223583999963,1485.6223583999963,1485.6223583999963,1485.6223583999963,1485.6223583999963,1485.6223583999963,1485.6223583999963,1485.6223583999963,1485.617877000023,1.7596358000009786,return,1.6354140999901574,,,,,,,,,,,,,,,,,,,,,,,,,,,,,,,,,,R1W7WT,train_y,blue_star,top_left,2025-01-24_16h14.37.194,HideSeek_v1,2022.2.5,59.979978684279956,
,0,9,0,8,0,-1,62,,train_dim1_1,19,30,,,,2,0,2,0,,,,,,,,,0,0,0,0,0,18,18,18,1,0,1,0,,,,,,,,,,,,,,,,,,,,,,,,,,,,,,,,,,,,,,,,,,,,,,,,,,,,,,,,,,,,,,,,30,,,,,,,,1491.2866626000032,1491.2866626000032,1491.2866626000032,1491.2866626000032,1491.2866626000032,,,,,down,0.20970030000898987,8,0,0,99,-0.16,0.15999999999999998,down,0.12765650000073947,,,,,,,,,,,,,,,,,,,,,,,,,,,,,,,,,,,,,,,,,,,,,,,,,,,,,,,,R1W7WT,train_y,blue_star,top_left,2025-01-24_16h14.37.194,HideSeek_v1,2022.2.5,59.979978684279956,
,0,9,0,8,0,-1,62,,train_dim1_1,19,30,,,,2,0,2,0,,,,,,,,,0,0,0,0,0,18,18,18,2,0,2,0,,,,,,,,,,,,,,,,,,,,,,,,,,,,,,,,,,,,,,,,,,,,,,,,,,,,,,,,,,,,,,,,30,,,,,,,,1491.504075200006,1491.504075200006,1491.504075200006,1491.504075200006,1491.504075200006,,,,,down,0.4429801999940537,8,0,0,99,-0.16,0.07999999999999997,down,0.3661786000011489,,,,,,,,,,,,,,,,,,,,,,,,,,,,,,,,,,,,,,,,,,,,,,,,,,,,,,,,R1W7WT,train_y,blue_star,top_left,2025-01-24_16h14.37.194,HideSeek_v1,2022.2.5,59.979978684279956,
,0,9,0,8,0,-1,62,,train_dim1_1,19,30,,,,2,0,2,0,,,,,,,,,0,0,0,0,0,18,18,18,3,0,3,0,,,,,,,,,,,,,,,,,,,,,,,,,,,,,,,,,,,,,,,,,,,,,,,,,,,,,,,,,,,,,,,,30,,,,,,,,1491.9533377999905,1491.9533377999905,1491.9533377999905,1491.9533377999905,1491.9533377999905,-58,0,-0.16,0.07999999999999997,return,1.5277499000076205,8,0,0,0,-0.16,0.07999999999999997,return,1.439833299984457,,,,,,,,,,,,,,,,,,,,,,,,,,,,,,,,,,,,,,,,,,,,,,,,,,,,,,,,R1W7WT,train_y,blue_star,top_left,2025-01-24_16h14.37.194,HideSeek_v1,2022.2.5,59.979978684279956,
,2,5,2,0,0,-5,66,,train_dim1_1,20,30,,,,2,0,2,0,,,,,,,,,0,0,0,0,0,19,19,19,0,0,0,0,,,,,,,,,,,,,,,,,,,,,,,,,stimuli/alien_stimuli/66.png,,,,,,,,,,,,,,,,,,,,,,,,,,,,,stimuli/alien_stimuli/62.png,62,0,21,,,,,,,30,,,,,,,,1502.1824961999955,1502.1824961999955,1502.1824961999955,1502.1824961999955,1502.1824961999955,,,,,down,1.6074483999982476,8,0,0,99,0,-0.08,down,1.5238471000047866,1500.6188207000087,-0.16,0.24,0.08,0.0,0.28,-0.16,-0.16,-0.16,0.24,1495.0319863999903,1495.0319863999903,1495.0319863999903,1495.0319863999903,1495.0319863999903,1495.0319863999903,1495.0319863999903,1495.0319863999903,1495.0256574000057,5.677925099997083,return,5.559418899996672,1495.0319863999903,,,,,,,,,,,,,,,,,,,,,,,,,,,,,,,,,R1W7WT,train_y,blue_star,top_left,2025-01-24_16h14.37.194,HideSeek_v1,2022.2.5,59.979978684279956,
,2,5,2,0,0,-5,66,,train_dim1_1,20,30,,,,2,0,2,0,,,,,,,,,0,0,0,0,0,19,19,19,1,0,1,0,,,,,,,,,,,,,,,,,,,,,,,,,,,,,,,,,,,,,,,,,,,,,,,,,,,,,,,,,,,,,,,,30,,,,,,,,1503.7962781999959,1503.7962781999959,1503.7962781999959,1503.7962781999959,1503.7962781999959,,,,,down,0.24275450001005083,8,0,0,99,0,-0.16,down,0.15715329998056404,,,,,,,,,,,,,,,,,,,,,,,,,,,,,,,,,,,,,,,,,,,,,,,,,,,,,,,,R1W7WT,train_y,blue_star,top_left,2025-01-24_16h14.37.194,HideSeek_v1,2022.2.5,59.979978684279956,
,2,5,2,0,0,-5,66,,train_dim1_1,20,30,,,,2,0,2,0,,,,,,,,,0,0,0,0,0,19,19,19,2,0,2,0,,,,,,,,,,,,,,,,,,,,,,,,,,,,,,,,,,,,,,,,,,,,,,,,,,,,,,,,,,,,,,,,30,,,,,,,,1504.0465306999977,1504.0465306999977,1504.0465306999977,1504.0465306999977,1504.0465306999977,,,,,down,0.24315199998090975,8,0,0,99,0,-0.24,down,0.16448139998828992,,,,,,,,,,,,,,,,,,,,,,,,,,,,,,,,,,,,,,,,,,,,,,,,,,,,,,,,R1W7WT,train_y,blue_star,top_left,2025-01-24_16h14.37.194,HideSeek_v1,2022.2.5,59.979978684279956,
,2,5,2,0,0,-5,66,,train_dim1_1,20,30,,,,2,0,2,0,,,,,,,,,0,0,0,0,0,19,19,19,3,0,3,0,,,,,,,,,,,,,,,,,,,,,,,,,,,,,,,,,,,,,,,,,,,,,,,,,,,,,,,,,,,,,,,,30,,,,,,,,1504.2967464000103,1504.2967464000103,1504.2967464000103,1504.2967464000103,1504.2967464000103,,,,,down,0.42703290001372807,8,0,0,99,0,-0.32,down,0.3492928999767173,,,,,,,,,,,,,,,,,,,,,,,,,,,,,,,,,,,,,,,,,,,,,,,,,,,,,,,,R1W7WT,train_y,blue_star,top_left,2025-01-24_16h14.37.194,HideSeek_v1,2022.2.5,59.979978684279956,
,2,5,2,0,0,-5,66,,train_dim1_1,20,30,,,,2,0,2,0,,,,,,,,,0,0,0,0,0,19,19,19,4,0,4,0,,,,,,,,,,,,,,,,,,,,,,,,,,,,,,,,,,,,,,,,,,,,,,,,,,,,,,,,,,,,,,,,30,,,,,,,,1504.7312475999934,1504.7312475999934,1504.7312475999934,1504.7312475999934,1504.7312475999934,-62,0,0,-0.32,return,3.7291488999908324,8,1,0,0,0,-0.32,return,3.6519404999853577,,,,,,,,,,,,,,,,,,,,,,,,,,,,,,,,,,,,,,,,,,,,,,,,,,,,,,,,R1W7WT,train_y,blue_star,top_left,2025-01-24_16h14.37.194,HideSeek_v1,2022.2.5,59.979978684279956,
,2,9,2,5,0,-4,65,,train_dim1_1,21,30,,,,2,0,2,0,,,,,,,,,0,0,0,0,0,20,20,20,0,0,0,0,,,,,,,,,,,,,,,,,,,,,,,,,stimuli/alien_stimuli/65.png,,,,,,,,,,,,,,,,,,,,,,,,,,,,,stimuli/alien_stimuli/66.png,66,2,22,,,,,,,30,,,,,,,,1513.4114274999883,1513.4114274999883,1513.4114274999883,1513.4114274999883,1513.4114274999883,,,,,down,4.489270899997791,8,1,0,99,0,0.24,down,4.41289519998827,1511.8563035000116,0,-0.4,0.4,0.0,-0.2,0,0.0,0,-0.4,1510.0210496000072,1510.0210496000072,1510.0210496000072,1510.0210496000072,1510.0210496000072,1510.0210496000072,1510.0210496000072,1510.0210496000072,1510.0213002500182,1.9310992999817245,return,1.8056678999855649,1510.0210496000072,,,,,,,,,,,,,,,,,,,,,,,,,,,,,,,,,R1W7WT,train_y,blue_star,top_left,2025-01-24_16h14.37.194,HideSeek_v1,2022.2.5,59.979978684279956,
,2,9,2,5,0,-4,65,,train_dim1_1,21,30,,,,2,0,2,0,,,,,,,,,0,0,0,0,0,20,20,20,1,0,1,0,,,,,,,,,,,,,,,,,,,,,,,,,,,,,,,,,,,,,,,,,,,,,,,,,,,,,,,,,,,,,,,,30,,,,,,,,1517.9086670000106,1517.9086670000106,1517.9086670000106,1517.9086670000106,1517.9086670000106,,,,,down,0.24301490001380444,8,1,0,99,0,0.15999999999999998,down,0.1579083999968134,,,,,,,,,,,,,,,,,,,,,,,,,,,,,,,,,,,,,,,,,,,,,,,,,,,,,,,,R1W7WT,train_y,blue_star,top_left,2025-01-24_16h14.37.194,HideSeek_v1,2022.2.5,59.979978684279956,
,2,9,2,5,0,-4,65,,train_dim1_1,21,30,,,,2,0,2,0,,,,,,,,,0,0,0,0,0,20,20,20,2,0,2,0,,,,,,,,,,,,,,,,,,,,,,,,,,,,,,,,,,,,,,,,,,,,,,,,,,,,,,,,,,,,,,,,30,,,,,,,,1518.1582446999964,1518.1582446999964,1518.1582446999964,1518.1582446999964,1518.1582446999964,,,,,down,0.17672189997392707,8,1,0,99,0,0.07999999999999997,down,0.09648479998577386,,,,,,,,,,,,,,,,,,,,,,,,,,,,,,,,,,,,,,,,,,,,,,,,,,,,,,,,R1W7WT,train_y,blue_star,top_left,2025-01-24_16h14.37.194,HideSeek_v1,2022.2.5,59.979978684279956,
,2,9,2,5,0,-4,65,,train_dim1_1,21,30,,,,2,0,2,0,,,,,,,,,0,0,0,0,0,20,20,20,3,0,3,0,,,,,,,,,,,,,,,,,,,,,,,,,,,,,,,,,,,,,,,,,,,,,,,,,,,,,,,,,,,,,,,,30,,,,,,,,1518.3416973999992,1518.3416973999992,1518.3416973999992,1518.3416973999992,1518.3416973999992,,,,,down,0.1760031000012532,8,1,0,99,0,-2.7755575615628914e-17,down,0.10162610001862049,,,,,,,,,,,,,,,,,,,,,,,,,,,,,,,,,,,,,,,,,,,,,,,,,,,,,,,,R1W7WT,train_y,blue_star,top_left,2025-01-24_16h14.37.194,HideSeek_v1,2022.2.5,59.979978684279956,
,2,9,2,5,0,-4,65,,train_dim1_1,21,30,,,,2,0,2,0,,,,,,,,,0,0,0,0,0,20,20,20,4,0,4,0,,,,,,,,,,,,,,,,,,,,,,,,,,,,,,,,,,,,,,,,,,,,,,,,,,,,,,,,,,,,,,,,30,,,,,,,,1518.5256260999886,1518.5256260999886,1518.5256260999886,1518.5256260999886,1518.5256260999886,,,,,down,0.17681570001877844,8,1,0,99,0,-0.08000000000000003,down,0.09967769999639131,,,,,,,,,,,,,,,,,,,,,,,,,,,,,,,,,,,,,,,,,,,,,,,,,,,,,,,,R1W7WT,train_y,blue_star,top_left,2025-01-24_16h14.37.194,HideSeek_v1,2022.2.5,59.979978684279956,
,2,9,2,5,0,-4,65,,train_dim1_1,21,30,,,,2,0,2,0,,,,,,,,,0,0,0,0,0,20,20,20,5,0,5,0,,,,,,,,,,,,,,,,,,,,,,,,,,,,,,,,,,,,,,,,,,,,,,,,,,,,,,,,,,,,,,,,30,,,,,,,,1518.7084636999934,1518.7084636999934,1518.7084636999934,1518.7084636999934,1518.7084636999934,,,,,down,0.2095215999870561,8,1,0,99,0,-0.16000000000000003,down,0.1316350999986753,,,,,,,,,,,,,,,,,,,,,,,,,,,,,,,,,,,,,,,,,,,,,,,,,,,,,,,,R1W7WT,train_y,blue_star,top_left,2025-01-24_16h14.37.194,HideSeek_v1,2022.2.5,59.979978684279956,
,2,9,2,5,0,-4,65,,train_dim1_1,21,30,,,,2,0,2,0,,,,,,,,,0,0,0,0,0,20,20,20,6,0,6,0,,,,,,,,,,,,,,,,,,,,,,,,,,,,,,,,,,,,,,,,,,,,,,,,,,,,,,,,,,,,,,,,30,,,,,,,,1518.9259009000089,1518.9259009000089,1518.9259009000089,1518.9259009000089,1518.9259009000089,-68,0,0,-0.16000000000000003,return,1.4798780999844894,8,0,0,0,0,-0.16000000000000003,return,1.4034007000154816,,,,,,,,,,,,,,,,,,,,,,,,,,,,,,,,,,,,,,,,,,,,,,,,,,,,,,,,R1W7WT,train_y,blue_star,top_left,2025-01-24_16h14.37.194,HideSeek_v1,2022.2.5,59.979978684279956,
,0,7,0,4,0,-3,64,,train_dim1_1,22,30,,,,2,0,2,0,,,,,,,,,0,0,0,0,0,21,21,21,0,0,0,0,,,,,,,,,,,,,,,,,,,,,,,,,stimuli/alien_stimuli/64.png,,,,,,,,,,,,,,,,,,,,,,,,,,,,,stimuli/alien_stimuli/65.png,65,2,23,,,,,,,30,,,,,,,,1526.2030386000115,1526.2030386000115,1526.2030386000115,1526.2030386000115,1526.2030386000115,,,,,down,2.0567863000032958,8,0,0,99,-0.16,0.08,down,1.9782212999998592,1524.6503750999982,0,0,0.32,0.0,0.16,0,0.0,0,0,1521.9863527999842,1521.9863527999842,1521.9863527999842,1521.9863527999842,1521.9863527999842,1521.9863527999842,1521.9863527999842,1521.9863527999842,1521.9811135500145,2.765819599997485,return,2.636400199990021,,,,,,,,,,,,,,,,,,,,,,,,,,,,,,,,,,R1W7WT,train_y,blue_star,top_left,2025-01-24_16h14.37.194,HideSeek_v1,2022.2.5,59.979978684279956,
,0,7,0,4,0,-3,64,,train_dim1_1,22,30,,,,2,0,2,0,,,,,,,,,0,0,0,0,0,21,21,21,1,0,1,0,,,,,,,,,,,,,,,,,,,,,,,,,,,,,,,,,,,,,,,,,,,,,,,,,,,,,,,,,,,,,,,,30,,,,,,,,1528.2666059999901,1528.2666059999901,1528.2666059999901,1528.2666059999901,1528.2666059999901,,,,,down,0.36009980001836084,8,0,0,99,-0.16,0.0,down,0.2715230000030715,,,,,,,,,,,,,,,,,,,,,,,,,,,,,,,,,,,,,,,,,,,,,,,,,,,,,,,,R1W7WT,train_y,blue_star,top_left,2025-01-24_16h14.37.194,HideSeek_v1,2022.2.5,59.979978684279956,
,0,7,0,4,0,-3,64,,train_dim1_1,22,30,,,,2,0,2,0,,,,,,,,,0,0,0,0,0,21,21,21,2,0,2,0,,,,,,,,,,,,,,,,,,,,,,,,,,,,,,,,,,,,,,,,,,,,,,,,,,,,,,,,,,,,,,,,30,,,,,,,,1528.6337269000069,1528.6337269000069,1528.6337269000069,1528.6337269000069,1528.6337269000069,-70,0,-0.16,0.0,return,1.72716079998645,8,1,0,0,-0.16,0.0,return,1.6450883999932557,,,,,,,,,,,,,,,,,,,,,,,,,,,,,,,,,,,,,,,,,,,,,,,,,,,,,,,,R1W7WT,train_y,blue_star,top_left,2025-01-24_16h14.37.194,HideSeek_v1,2022.2.5,59.979978684279956,
,0,8,0,8,0,0,61,,train_dim1_1,23,30,,,,2,0,2,0,,,,,,,,,0,0,0,0,0,22,22,22,0,0,0,0,,,,,,,,,,,,,,,,,,,,,,,,,stimuli/alien_stimuli/61.png,,,,,,,,,,,,,,,,,,,,,,,,,,,,,stimuli/alien_stimuli/64.png,64,0,24,,,,,,,30,,,,,,,,1535.0089455999841,1535.0089455999841,1535.0089455999841,1535.0089455999841,1535.0089455999841,,,,,down,1.5905904999817722,8,1,0,99,-0.16,0.15999999999999998,down,1.5170645999896806,1533.4516552999848,-0.16,-0.08,0.24,0.0,0.04,-0.16,-0.16,-0.16,-0.08,1531.9297132999927,1531.9297132999927,1531.9297132999927,1531.9297132999927,1531.9297132999927,1531.9297132999927,1531.9297132999927,1531.9297132999927,1531.9227513500023,1.6256053999823052,return,1.4852705000084825,1531.9297132999927,,,,,,,,,,,,,,,,,,,,,,,,,,,,,,,,,R1W7WT,train_y,blue_star,top_left,2025-01-24_16h14.37.194,HideSeek_v1,2022.2.5,59.979978684279956,
,0,8,0,8,0,0,61,,train_dim1_1,23,30,,,,2,0,2,0,,,,,,,,,0,0,0,0,0,22,22,22,1,0,1,0,,,,,,,,,,,,,,,,,,,,,,,,,,,,,,,,,,,,,,,,,,,,,,,,,,,,,,,,,,,,,,,,30,,,,,,,,1536.6078146999935,1536.6078146999935,1536.6078146999935,1536.6078146999935,1536.6078146999935,,,,,down,0.25890939999953844,8,1,0,99,-0.16,0.07999999999999997,down,0.1837521999841556,,,,,,,,,,,,,,,,,,,,,,,,,,,,,,,,,,,,,,,,,,,,,,,,,,,,,,,,R1W7WT,train_y,blue_star,top_left,2025-01-24_16h14.37.194,HideSeek_v1,2022.2.5,59.979978684279956,
,0,8,0,8,0,0,61,,train_dim1_1,23,30,,,,2,0,2,0,,,,,,,,,0,0,0,0,0,22,22,22,2,0,2,0,,,,,,,,,,,,,,,,,,,,,,,,,,,,,,,,,,,,,,,,,,,,,,,,,,,,,,,,,,,,,,,,30,,,,,,,,1536.8737339999934,1536.8737339999934,1536.8737339999934,1536.8737339999934,1536.8737339999934,-72,0,-0.16,0.07999999999999997,return,0.6935425999981817,8,0,0,0,-0.16,0.07999999999999997,return,0.6207161000056658,,,,,,,,,,,,,,,,,,,,,,,,,,,,,,,,,,,,,,,,,,,,,,,,,,,,,,,,R1W7WT,train_y,blue_star,top_left,2025-01-24_16h14.37.194,HideSeek_v1,2022.2.5,59.979978684279956,
,3,7,3,2,0,-5,66,,train_dim1_1,24,30,,,,2,0,2,0,,,,,,,,,0,0,0,0,0,23,23,23,0,0,0,0,,,,,,,,,,,,,,,,,,,,,,,,,stimuli/alien_stimuli/66.png,,,,,,,,,,,,,,,,,,,,,,,,,,,,,stimuli/alien_stimuli/61.png,61,0,25,,,,,,,30,,,,,,,,1542.7486074999906,1542.7486074999906,1542.7486074999906,1542.7486074999906,1542.7486074999906,,,,,down,1.2897744000074454,8,0,0,99,0.08,0.08,down,1.2073513000214007,1541.1973600999918,-0.16,0.24,0.0,0.0,0.24,-0.16,-0.16,-0.16,0.24,1539.1169093000062,1539.1169093000062,1539.1169093000062,1539.1169093000062,1539.1169093000062,1539.1169093000062,1539.1169093000062,1539.1169093000062,1539.1121870000031,2.1646440000040457,return,2.051877299993066,1539.1169093000062,,,,,,,,,,,,,,,,,,,,,,,,,,,,,,,,,R1W7WT,train_y,blue_star,top_left,2025-01-24_16h14.37.194,HideSeek_v1,2022.2.5,59.979978684279956,
,3,7,3,2,0,-5,66,,train_dim1_1,24,30,,,,2,0,2,0,,,,,,,,,0,0,0,0,0,23,23,23,1,0,1,0,,,,,,,,,,,,,,,,,,,,,,,,,,,,,,,,,,,,,,,,,,,,,,,,,,,,,,,,,,,,,,,,30,,,,,,,,1544.047764899995,1544.047764899995,1544.047764899995,1544.047764899995,1544.047764899995,,,,,down,0.20941469998797402,8,0,0,99,0.08,0.0,down,0.1351587999961339,,,,,,,,,,,,,,,,,,,,,,,,,,,,,,,,,,,,,,,,,,,,,,,,,,,,,,,,R1W7WT,train_y,blue_star,top_left,2025-01-24_16h14.37.194,HideSeek_v1,2022.2.5,59.979978684279956,
,3,7,3,2,0,-5,66,,train_dim1_1,24,30,,,,2,0,2,0,,,,,,,,,0,0,0,0,0,23,23,23,2,0,2,0,,,,,,,,,,,,,,,,,,,,,,,,,,,,,,,,,,,,,,,,,,,,,,,,,,,,,,,,,,,,,,,,30,,,,,,,,1544.263324700005,1544.263324700005,1544.263324700005,1544.263324700005,1544.263324700005,,,,,down,0.2263575000106357,8,0,0,99,0.08,-0.08,down,0.13907939998898655,,,,,,,,,,,,,,,,,,,,,,,,,,,,,,,,,,,,,,,,,,,,,,,,,,,,,,,,R1W7WT,train_y,blue_star,top_left,2025-01-24_16h14.37.194,HideSeek_v1,2022.2.5,59.979978684279956,
,3,7,3,2,0,-5,66,,train_dim1_1,24,30,,,,2,0,2,0,,,,,,,,,0,0,0,0,0,23,23,23,3,0,3,0,,,,,,,,,,,,,,,,,,,,,,,,,,,,,,,,,,,,,,,,,,,,,,,,,,,,,,,,,,,,,,,,30,,,,,,,,1544.496412699984,1544.496412699984,1544.496412699984,1544.496412699984,1544.496412699984,,,,,down,0.19368110000505112,8,0,0,99,0.08,-0.16,down,0.11588199998368509,,,,,,,,,,,,,,,,,,,,,,,,,,,,,,,,,,,,,,,,,,,,,,,,,,,,,,,,R1W7WT,train_y,blue_star,top_left,2025-01-24_16h14.37.194,HideSeek_v1,2022.2.5,59.979978684279956,
,3,7,3,2,0,-5,66,,train_dim1_1,24,30,,,,2,0,2,0,,,,,,,,,0,0,0,0,0,23,23,23,4,0,4,0,,,,,,,,,,,,,,,,,,,,,,,,,,,,,,,,,,,,,,,,,,,,,,,,,,,,,,,,,,,,,,,,30,,,,,,,,1544.6969629999949,1544.6969629999949,1544.6969629999949,1544.6969629999949,1544.6969629999949,,,,,down,0.1924384000012651,8,0,0,99,0.08,-0.24,down,0.11086310000973754,,,,,,,,,,,,,,,,,,,,,,,,,,,,,,,,,,,,,,,,,,,,,,,,,,,,,,,,R1W7WT,train_y,blue_star,top_left,2025-01-24_16h14.37.194,HideSeek_v1,2022.2.5,59.979978684279956,
,3,7,3,2,0,-5,66,,train_dim1_1,24,30,,,,2,0,2,0,,,,,,,,,0,0,0,0,0,23,23,23,5,0,5,0,,,,,,,,,,,,,,,,,,,,,,,,,,,,,,,,,,,,,,,,,,,,,,,,,,,,,,,,,,,,,,,,30,,,,,,,,1544.8967255000025,1544.8967255000025,1544.8967255000025,1544.8967255000025,1544.8967255000025,,,,,down,1.0106823000242002,8,0,0,99,0.08,-0.32,down,0.9244342999882065,,,,,,,,,,,,,,,,,,,,,,,,,,,,,,,,,,,,,,,,,,,,,,,,,,,,,,,,R1W7WT,train_y,blue_star,top_left,2025-01-24_16h14.37.194,HideSeek_v1,2022.2.5,59.979978684279956,
,3,7,3,2,0,-5,66,,train_dim1_1,24,30,,,,2,0,2,0,,,,,,,,,0,0,0,0,0,23,23,23,6,0,6,0,,,,,,,,,,,,,,,,,,,,,,,,,,,,,,,,,,,,,,,,,,,,,,,,,,,,,,,,,,,,,,,,30,,,,,,,,1545.9140489999845,1545.9140489999845,1545.9140489999845,1545.9140489999845,1545.9140489999845,,,,,left,7.021163700002944,8,0,0,99,0.0,-0.32,left,6.932074899988947,,,,,,,,,,,,,,,,,,,,,,,,,,,,,,,,,,,,,,,,,,,,,,,,,,,,,,,,R1W7WT,train_y,blue_star,top_left,2025-01-24_16h14.37.194,HideSeek_v1,2022.2.5,59.979978684279956,
,3,7,3,2,0,-5,66,,train_dim1_1,24,30,,,,2,0,2,0,,,,,,,,,0,0,0,0,0,23,23,23,7,0,7,0,,,,,,,,,,,,,,,,,,,,,,,,,,,,,,,,,,,,,,,,,,,,,,,,,,,,,,,,,,,,,,,,30,,,,,,,,1552.948956200009,1552.948956200009,1552.948956200009,1552.948956200009,1552.948956200009,,,,,right,0.49992579998797737,8,0,0,99,0.08,-0.32,right,0.41580699998303317,,,,,,,,,,,,,,,,,,,,,,,,,,,,,,,,,,,,,,,,,,,,,,,,,,,,,,,,R1W7WT,train_y,blue_star,top_left,2025-01-24_16h14.37.194,HideSeek_v1,2022.2.5,59.979978684279956,
,3,7,3,2,0,-5,66,,train_dim1_1,24,30,,,,2,0,2,0,,,,,,,,,0,0,0,0,0,23,23,23,8,0,8,0,,,,,,,,,,,,,,,,,,,,,,,,,,,,,,,,,,,,,,,,,,,,,,,,,,,,,,,,,,,,,,,,30,,,,,,,,1553.4536764000077,1553.4536764000077,1553.4536764000077,1553.4536764000077,1553.4536764000077,,,,,left,0.5100603000028059,8,0,0,99,0.0,-0.32,left,0.4368302999937441,,,,,,,,,,,,,,,,,,,,,,,,,,,,,,,,,,,,,,,,,,,,,,,,,,,,,,,,R1W7WT,train_y,blue_star,top_left,2025-01-24_16h14.37.194,HideSeek_v1,2022.2.5,59.979978684279956,
,3,7,3,2,0,-5,66,,train_dim1_1,24,30,,,,2,0,2,0,,,,,,,,,0,0,0,0,0,23,23,23,9,0,9,0,,,,,,,,,,,,,,,,,,,,,,,,,,,,,,,,,,,,,,,,,,,,,,,,,,,,,,,,,,,,,,,,30,,,,,,,,1553.971449100005,1553.971449100005,1553.971449100005,1553.971449100005,1553.971449100005,,,,,right,0.35982569999760017,8,0,0,99,0.08,-0.32,right,0.2758169999870006,,,,,,,,,,,,,,,,,,,,,,,,,,,,,,,,,,,,,,,,,,,,,,,,,,,,,,,,R1W7WT,train_y,blue_star,top_left,2025-01-24_16h14.37.194,HideSeek_v1,2022.2.5,59.979978684279956,
,3,7,3,2,0,-5,66,,train_dim1_1,24,30,,,,2,0,2,0,,,,,,,,,0,0,0,0,0,23,23,23,10,0,10,0,,,,,,,,,,,,,,,,,,,,,,,,,,,,,,,,,,,,,,,,,,,,,,,,,,,,,,,,,,,,,,,,30,,,,,,,,1554.3377598999941,1554.3377598999941,1554.3377598999941,1554.3377598999941,1554.3377598999941,,,,,left,0.5769347999885213,8,0,0,99,0.0,-0.32,left,0.49086130000068806,,,,,,,,,,,,,,,,,,,,,,,,,,,,,,,,,,,,,,,,,,,,,,,,,,,,,,,,R1W7WT,train_y,blue_star,top_left,2025-01-24_16h14.37.194,HideSeek_v1,2022.2.5,59.979978684279956,
,3,7,3,2,0,-5,66,,train_dim1_1,24,30,,,,2,0,2,0,,,,,,,,,0,0,0,0,0,23,23,23,11,0,11,0,,,,,,,,,,,,,,,,,,,,,,,,,,,,,,,,,,,,,,,,,,,,,,,,,,,,,,,,,,,,,,,,30,,,,,,,,1554.9214215000102,1554.9214215000102,1554.9214215000102,1554.9214215000102,1554.9214215000102,,,,,right,0.4102197000174783,8,0,0,99,0.08,-0.32,right,0.33130660001188517,,,,,,,,,,,,,,,,,,,,,,,,,,,,,,,,,,,,,,,,,,,,,,,,,,,,,,,,R1W7WT,train_y,blue_star,top_left,2025-01-24_16h14.37.194,HideSeek_v1,2022.2.5,59.979978684279956,
,3,7,3,2,0,-5,66,,train_dim1_1,24,30,,,,2,0,2,0,,,,,,,,,0,0,0,0,0,23,23,23,12,0,12,0,,,,,,,,,,,,,,,,,,,,,,,,,,,,,,,,,,,,,,,,,,,,,,,,,,,,,,,,,,,,,,,,30,,,,,,,,1555.3396457000053,1555.3396457000053,1555.3396457000053,1555.3396457000053,1555.3396457000053,-78,0,0.08,-0.32,return,6.464857300015865,8,1,0,0,0.08,-0.32,return,6.37674939999124,,,,,,,,,,,,,,,,,,,,,,,,,,,,,,,,,,,,,,,,,,,,,,,,,,,,,,,,R1W7WT,train_y,blue_star,top_left,2025-01-24_16h14.37.194,HideSeek_v1,2022.2.5,59.979978684279956,
,3,8,3,7,0,-1,62,,train_dim1_1,25,30,,,,2,0,2,0,,,,,,,,,0,0,0,0,0,24,24,24,0,0,0,0,,,,,,,,,,,,,,,,,,,,,,,,,stimuli/alien_stimuli/62.png,,,,,,,,,,,,,,,,,,,,,,,,,,,,,stimuli/alien_stimuli/66.png,66,3,26,,,,,,,30,,,,,,,,1566.7019409000059,1566.7019409000059,1566.7019409000059,1566.7019409000059,1566.7019409000059,,,,,down,1.3406098999839742,8,1,0,99,0.08,0.15999999999999998,down,1.2576521000009961,1565.1387959999847,0.08,-0.24,0.4,0.0,-0.039999999999999994,0.08,0.08,0.08,-0.24,1563.3735939000035,1563.3735939000035,1563.3735939000035,1563.3735939000035,1563.3735939000035,1563.3735939000035,1563.3735939000035,1563.3735939000035,1563.3656332500045,1.874454800010426,return,1.7460924999904819,1563.3735939000035,,,,,,,,,,,,,,,,,,,,,,,,,,,,,,,,,R1W7WT,train_y,blue_star,top_left,2025-01-24_16h14.37.194,HideSeek_v1,2022.2.5,59.979978684279956,
,3,8,3,7,0,-1,62,,train_dim1_1,25,30,,,,2,0,2,0,,,,,,,,,0,0,0,0,0,24,24,24,1,0,1,0,,,,,,,,,,,,,,,,,,,,,,,,,,,,,,,,,,,,,,,,,,,,,,,,,,,,,,,,,,,,,,,,30,,,,,,,,1568.0500268999895,1568.0500268999895,1568.0500268999895,1568.0500268999895,1568.0500268999895,,,,,down,0.19272190000629053,8,1,0,99,0.08,0.07999999999999997,down,0.1184998000098858,,,,,,,,,,,,,,,,,,,,,,,,,,,,,,,,,,,,,,,,,,,,,,,,,,,,,,,,R1W7WT,train_y,blue_star,top_left,2025-01-24_16h14.37.194,HideSeek_v1,2022.2.5,59.979978684279956,
,3,8,3,7,0,-1,62,,train_dim1_1,25,30,,,,2,0,2,0,,,,,,,,,0,0,0,0,0,24,24,24,2,0,2,0,,,,,,,,,,,,,,,,,,,,,,,,,,,,,,,,,,,,,,,,,,,,,,,,,,,,,,,,,,,,,,,,30,,,,,,,,1568.2495574000059,1568.2495574000059,1568.2495574000059,1568.2495574000059,1568.2495574000059,,,,,up,1.0604021000035573,8,1,0,99,0.08,0.15999999999999998,up,0.9883239999762736,,,,,,,,,,,,,,,,,,,,,,,,,,,,,,,,,,,,,,,,,,,,,,,,,,,,,,,,R1W7WT,train_y,blue_star,top_left,2025-01-24_16h14.37.194,HideSeek_v1,2022.2.5,59.979978684279956,
,3,8,3,7,0,-1,62,,train_dim1_1,25,30,,,,2,0,2,0,,,,,,,,,0,0,0,0,0,24,24,24,3,0,3,0,,,,,,,,,,,,,,,,,,,,,,,,,,,,,,,,,,,,,,,,,,,,,,,,,,,,,,,,,,,,,,,,30,,,,,,,,1569.3174344,1569.3174344,1569.3174344,1569.3174344,1569.3174344,,,,,up,0.17670099998940714,8,1,0,99,0.08,0.24,up,0.09616590000223368,,,,,,,,,,,,,,,,,,,,,,,,,,,,,,,,,,,,,,,,,,,,,,,,,,,,,,,,R1W7WT,train_y,blue_star,top_left,2025-01-24_16h14.37.194,HideSeek_v1,2022.2.5,59.979978684279956,
,3,8,3,7,0,-1,62,,train_dim1_1,25,30,,,,2,0,2,0,,,,,,,,,0,0,0,0,0,24,24,24,4,0,4,0,,,,,,,,,,,,,,,,,,,,,,,,,,,,,,,,,,,,,,,,,,,,,,,,,,,,,,,,,,,,,,,,30,,,,,,,,1569.5019458000024,1569.5019458000024,1569.5019458000024,1569.5019458000024,1569.5019458000024,-78,0,0.08,0.24,return,0.49346989998593926,8,1,0,0,0.08,0.24,return,0.41284239999367855,,,,,,,,,,,,,,,,,,,,,,,,,,,,,,,,,,,,,,,,,,,,,,,,,,,,,,,,R1W7WT,train_y,blue_star,top_left,2025-01-24_16h14.37.194,HideSeek_v1,2022.2.5,59.979978684279956,
,4,9,4,6,0,-3,64,,train_dim1_1,26,30,,,,2,0,2,0,,,,,,,,,0,0,0,0,0,25,25,25,0,0,0,0,,,,,,,,,,,,,,,,,,,,,,,,,stimuli/alien_stimuli/64.png,,,,,,,,,,,,,,,,,,,,,,,,,,,,,stimuli/alien_stimuli/62.png,62,3,27,,,,,,,30,,,,,,,,1576.6598835999903,1576.6598835999903,1576.6598835999903,1576.6598835999903,1576.6598835999903,,,,,down,1.3239848999946844,8,1,0,99,0.16,0.24,down,1.2418994999898132,1575.0970505999867,0.08,0.16,0.08,0.0,0.2,0.08,0.08,0.08,0.16,1571.5445280999993,1571.5445280999993,1571.5445280999993,1571.5445280999993,1571.5445280999993,1571.5445280999993,1571.5445280999993,1571.5445280999993,1571.5389184000203,3.6446124000067357,return,3.5259757999738213,1571.5445280999993,,,,,,,,,,,,,,,,,,,,,,,,,,,,,,,,,R1W7WT,train_y,blue_star,top_left,2025-01-24_16h14.37.194,HideSeek_v1,2022.2.5,59.979978684279956,
,4,9,4,6,0,-3,64,,train_dim1_1,26,30,,,,2,0,2,0,,,,,,,,,0,0,0,0,0,25,25,25,1,0,1,0,,,,,,,,,,,,,,,,,,,,,,,,,,,,,,,,,,,,,,,,,,,,,,,,,,,,,,,,,,,,,,,,30,,,,,,,,1577.9906947999843,1577.9906947999843,1577.9906947999843,1577.9906947999843,1577.9906947999843,,,,,down,0.22608429999672808,8,1,0,99,0.16,0.15999999999999998,down,0.14409660000819713,,,,,,,,,,,,,,,,,,,,,,,,,,,,,,,,,,,,,,,,,,,,,,,,,,,,,,,,R1W7WT,train_y,blue_star,top_left,2025-01-24_16h14.37.194,HideSeek_v1,2022.2.5,59.979978684279956,
,4,9,4,6,0,-3,64,,train_dim1_1,26,30,,,,2,0,2,0,,,,,,,,,0,0,0,0,0,25,25,25,2,0,2,0,,,,,,,,,,,,,,,,,,,,,,,,,,,,,,,,,,,,,,,,,,,,,,,,,,,,,,,,,,,,,,,,30,,,,,,,,1578.2245727000118,1578.2245727000118,1578.2245727000118,1578.2245727000118,1578.2245727000118,,,,,down,0.20958739999332465,8,1,0,99,0.16,0.07999999999999997,down,0.13412740000057966,,,,,,,,,,,,,,,,,,,,,,,,,,,,,,,,,,,,,,,,,,,,,,,,,,,,,,,,R1W7WT,train_y,blue_star,top_left,2025-01-24_16h14.37.194,HideSeek_v1,2022.2.5,59.979978684279956,
,4,9,4,6,0,-3,64,,train_dim1_1,26,30,,,,2,0,2,0,,,,,,,,,0,0,0,0,0,25,25,25,3,0,3,0,,,,,,,,,,,,,,,,,,,,,,,,,,,,,,,,,,,,,,,,,,,,,,,,,,,,,,,,,,,,,,,,30,,,,,,,,1578.4415512999985,1578.4415512999985,1578.4415512999985,1578.4415512999985,1578.4415512999985,,,,,down,0.24319730000570416,8,1,0,99,0.16,-2.7755575615628914e-17,down,0.15583319999859668,,,,,,,,,,,,,,,,,,,,,,,,,,,,,,,,,,,,,,,,,,,,,,,,,,,,,,,,R1W7WT,train_y,blue_star,top_left,2025-01-24_16h14.37.194,HideSeek_v1,2022.2.5,59.979978684279956,
,4,9,4,6,0,-3,64,,train_dim1_1,26,30,,,,2,0,2,0,,,,,,,,,0,0,0,0,0,25,25,25,4,0,4,0,,,,,,,,,,,,,,,,,,,,,,,,,,,,,,,,,,,,,,,,,,,,,,,,,,,,,,,,,,,,,,,,30,,,,,,,,1578.6918110999977,1578.6918110999977,1578.6918110999977,1578.6918110999977,1578.6918110999977,-82,0,0.16,-2.7755575615628914e-17,return,0.7101409999886528,8,1,0,0,0.16,-2.7755575615628914e-17,return,0.6368496000068262,,,,,,,,,,,,,,,,,,,,,,,,,,,,,,,,,,,,,,,,,,,,,,,,,,,,,,,,R1W7WT,train_y,blue_star,top_left,2025-01-24_16h14.37.194,HideSeek_v1,2022.2.5,59.979978684279956,
,3,9,3,4,0,-5,66,,train_dim1_1,27,30,,,,2,0,2,0,,,,,,,,,0,0,0,0,0,26,26,26,0,0,0,0,,,,,,,,,,,,,,,,,,,,,,,,,stimuli/alien_stimuli/66.png,,,,,,,,,,,,,,,,,,,,,,,,,,,,,stimuli/alien_stimuli/64.png,64,4,28,,,,,,,30,,,,,,,,1584.28407590001,1584.28407590001,1584.28407590001,1584.28407590001,1584.28407590001,,,,,down,1.672400799987372,8,1,0,99,0.08,0.24,down,1.6001516999967862,1582.732024099998,0.16,0.08,0.24,0.0,0.2,0.16,0.16,0.16,0.08,1580.9506035000086,1580.9506035000086,1580.9506035000086,1580.9506035000086,1580.9506035000086,1580.9506035000086,1580.9506035000086,1580.9506035000086,1580.9468630000017,1.8702143999980763,return,1.7510895000013988,1584.28407590001,,,,,,,,,,,,,,,,,,,,,,,,,,,,,,,,,R1W7WT,train_y,blue_star,top_left,2025-01-24_16h14.37.194,HideSeek_v1,2022.2.5,59.979978684279956,
,3,9,3,4,0,-5,66,,train_dim1_1,27,30,,,,2,0,2,0,,,,,,,,,0,0,0,0,0,26,26,26,1,0,1,0,,,,,,,,,,,,,,,,,,,,,,,,,,,,,,,,,,,,,,,,,,,,,,,,,,,,,,,,,,,,,,,,30,,,,,,,,1585.9646440999932,1585.9646440999932,1585.9646440999932,1585.9646440999932,1585.9646440999932,,,,,down,1.4272836000018287,8,1,0,99,0.08,0.15999999999999998,down,1.3523207000107504,,,,,,,,,,,,,,,,,,,,,,,,,,,,,,,,,,,,,,,,,,,,,,,,,,,,,,,,R1W7WT,train_y,blue_star,top_left,2025-01-24_16h14.37.194,HideSeek_v1,2022.2.5,59.979978684279956,
,3,9,3,4,0,-5,66,,train_dim1_1,27,30,,,,2,0,2,0,,,,,,,,,0,0,0,0,0,26,26,26,2,0,2,0,,,,,,,,,,,,,,,,,,,,,,,,,,,,,,,,,,,,,,,,,,,,,,,,,,,,,,,,,,,,,,,,30,,,,,,,,1587.4002090999857,1587.4002090999857,1587.4002090999857,1587.4002090999857,1587.4002090999857,,,,,down,0.19278589999885298,8,1,0,99,0.08,0.07999999999999997,down,0.11258319998160005,,,,,,,,,,,,,,,,,,,,,,,,,,,,,,,,,,,,,,,,,,,,,,,,,,,,,,,,R1W7WT,train_y,blue_star,top_left,2025-01-24_16h14.37.194,HideSeek_v1,2022.2.5,59.979978684279956,
,3,9,3,4,0,-5,66,,train_dim1_1,27,30,,,,2,0,2,0,,,,,,,,,0,0,0,0,0,26,26,26,3,0,3,0,,,,,,,,,,,,,,,,,,,,,,,,,,,,,,,,,,,,,,,,,,,,,,,,,,,,,,,,,,,,,,,,30,,,,,,,,1587.5997753999836,1587.5997753999836,1587.5997753999836,1587.5997753999836,1587.5997753999836,,,,,down,0.1763603999861516,8,1,0,99,0.08,-2.7755575615628914e-17,down,0.08970199999748729,,,,,,,,,,,,,,,,,,,,,,,,,,,,,,,,,,,,,,,,,,,,,,,,,,,,,,,,R1W7WT,train_y,blue_star,top_left,2025-01-24_16h14.37.194,HideSeek_v1,2022.2.5,59.979978684279956,
,3,9,3,4,0,-5,66,,train_dim1_1,27,30,,,,2,0,2,0,,,,,,,,,0,0,0,0,0,26,26,26,4,0,4,0,,,,,,,,,,,,,,,,,,,,,,,,,,,,,,,,,,,,,,,,,,,,,,,,,,,,,,,,,,,,,,,,30,,,,,,,,1587.7827686000091,1587.7827686000091,1587.7827686000091,1587.7827686000091,1587.7827686000091,,,,,down,0.5599795000161976,8,1,0,99,0.08,-0.08000000000000003,down,0.480585199984489,,,,,,,,,,,,,,,,,,,,,,,,,,,,,,,,,,,,,,,,,,,,,,,,,,,,,,,,R1W7WT,train_y,blue_star,top_left,2025-01-24_16h14.37.194,HideSeek_v1,2022.2.5,59.979978684279956,
,3,9,3,4,0,-5,66,,train_dim1_1,27,30,,,,2,0,2,0,,,,,,,,,0,0,0,0,0,26,26,26,5,0,5,0,,,,,,,,,,,,,,,,,,,,,,,,,,,,,,,,,,,,,,,,,,,,,,,,,,,,,,,,,,,,,,,,30,,,,,,,,1588.3493696000078,1588.3493696000078,1588.3493696000078,1588.3493696000078,1588.3493696000078,,,,,down,0.4767048000067007,8,1,0,99,0.08,-0.16000000000000003,down,0.40183170000091195,,,,,,,,,,,,,,,,,,,,,,,,,,,,,,,,,,,,,,,,,,,,,,,,,,,,,,,,R1W7WT,train_y,blue_star,top_left,2025-01-24_16h14.37.194,HideSeek_v1,2022.2.5,59.979978684279956,
,3,9,3,4,0,-5,66,,train_dim1_1,27,30,,,,2,0,2,0,,,,,,,,,0,0,0,0,0,26,26,26,6,0,6,0,,,,,,,,,,,,,,,,,,,,,,,,,,,,,,,,,,,,,,,,,,,,,,,,,,,,,,,,,,,,,,,,30,,,,,,,,1588.8338059000089,1588.8338059000089,1588.8338059000089,1588.8338059000089,1588.8338059000089,-88,0,0.08,-0.16000000000000003,return,2.3283793999871705,8,1,0,0,0.08,-0.16000000000000003,return,2.2511821999796666,,,,,,,,,,,,,,,,,,,,,,,,,,,,,,,,,,,,,,,,,,,,,,,,,,,,,,,,R1W7WT,train_y,blue_star,top_left,2025-01-24_16h14.37.194,HideSeek_v1,2022.2.5,59.979978684279956,
,4,6,4,6,0,0,61,,train_dim1_1,28,30,,,,2,0,2,0,,,,,,,,,0,0,0,0,0,27,27,27,0,0,0,0,,,,,,,,,,,,,,,,,,,,,,,,,stimuli/alien_stimuli/61.png,,,,,,,,,,,,,,,,,,,,,,,,,,,,,stimuli/alien_stimuli/66.png,66,3,29,,,,,,,30,,,,,,,,1599.031980300002,1599.031980300002,1599.031980300002,1599.031980300002,1599.031980300002,,,,,down,1.638126599980751,8,1,0,99,0.16,0.0,down,1.55947120001656,1597.4775238999864,0.08,-0.08,0.4,0.0,0.12,0.08,0.08,0.08,-0.08,1592.7316457999987,1592.7316457999987,1592.7316457999987,1592.7316457999987,1592.7316457999987,1592.7316457999987,1592.7316457999987,1592.7316457999987,1592.7233919500081,4.850763900001766,return,4.72391199998674,1592.7316457999987,,,,,,,,,,,,,,,,,,,,,,,,,,,,,,,,,R1W7WT,train_y,blue_star,top_left,2025-01-24_16h14.37.194,HideSeek_v1,2022.2.5,59.979978684279956,
,4,6,4,6,0,0,61,,train_dim1_1,28,30,,,,2,0,2,0,,,,,,,,,0,0,0,0,0,27,27,27,1,0,1,0,,,,,,,,,,,,,,,,,,,,,,,,,,,,,,,,,,,,,,,,,,,,,,,,,,,,,,,,,,,,,,,,30,,,,,,,,1600.677212300012,1600.677212300012,1600.677212300012,1600.677212300012,1600.677212300012,,,,,down,0.2100059000076726,8,1,0,99,0.16,-0.08,down,0.1285026999830734,,,,,,,,,,,,,,,,,,,,,,,,,,,,,,,,,,,,,,,,,,,,,,,,,,,,,,,,R1W7WT,train_y,blue_star,top_left,2025-01-24_16h14.37.194,HideSeek_v1,2022.2.5,59.979978684279956,
,4,6,4,6,0,0,61,,train_dim1_1,28,30,,,,2,0,2,0,,,,,,,,,0,0,0,0,0,27,27,27,2,0,2,0,,,,,,,,,,,,,,,,,,,,,,,,,,,,,,,,,,,,,,,,,,,,,,,,,,,,,,,,,,,,,,,,30,,,,,,,,1600.8942775999894,1600.8942775999894,1600.8942775999894,1600.8942775999894,1600.8942775999894,,,,,down,0.19283939999877475,8,1,0,99,0.16,-0.16,down,0.11348780000116676,,,,,,,,,,,,,,,,,,,,,,,,,,,,,,,,,,,,,,,,,,,,,,,,,,,,,,,,R1W7WT,train_y,blue_star,top_left,2025-01-24_16h14.37.194,HideSeek_v1,2022.2.5,59.979978684279956,
