trialInstr,x_fixStart,y_fixStart,x_corrSteps,y_corrSteps,x_nrSteps,y_nrSteps,alienID,trialLength,version,trialTrain,praclen,testlen,trial_label,break_on_off,beforeExpLoop.thisRepN,beforeExpLoop.thisTrialN,beforeExpLoop.thisN,beforeExpLoop.thisIndex,mini_instr_trials.thisRepN,mini_instr_trials.thisTrialN,mini_instr_trials.thisN,mini_instr_trials.thisIndex,instrLoop.thisRepN,instrLoop.thisTrialN,instrLoop.thisN,instrLoop.thisIndex,repeat_prac.thisRepN,repeat_prac.thisTrialN,repeat_prac.thisN,repeat_prac.thisIndex,trainLoop.thisRepN,trainLoop.thisTrialN,trainLoop.thisN,trainLoop.thisIndex,moveLoop_train.thisRepN,moveLoop_train.thisTrialN,moveLoop_train.thisN,moveLoop_train.thisIndex,experiment.thisRepN,experiment.thisTrialN,experiment.thisN,experiment.thisIndex,moveLoop_test.thisRepN,moveLoop_test.thisTrialN,moveLoop_test.thisN,moveLoop_test.thisIndex,mini_instr2_trials.thisRepN,mini_instr2_trials.thisTrialN,mini_instr2_trials.thisN,mini_instr2_trials.thisIndex,start_all_time,url,slideStim,audioStim,slides.started,sounds.started,nextButton.numClicks,nextButton.timesOn,nextButton.timesOff,prev_but.numClicks,prev_but.timesOn,prev_but.timesOff,alienStim,instrFile,alienStim_instr,gridImage_instr.started,startPos_3.started,key_instr.started,alienImage_3.started,sounds_1.started,key_instr.keys,key_instr.rt,all_x,all_y,FBy_corrSteps,FBy_fixStart,FBx_corrSteps,FBx_fixStart,FBy_pathSize_check,FBx_pathSize_check,gridImage_9.started,alienImageFB_3.started,startPosFB_3.started,keyFB_3.started,pathLine_ydir_2.started,pathLine_xdir_2.started,alienFace_3.started,sounds_2.started,RTFB_instr,keyFB_3.keys,keyFB_3.rt,draw_alienStim,draw_alienID,test_x,nrepcount,perfthres,percthres,earlierperf,earlystop,nextPrac,fileidx,praclen,saveACC_train,pracFile,nextPrac_train,addNrep,fileidx_endr,repExp,showearly,gridImage_4.started,startPos.started,movePos.started,key_resp.started,alienImage.started,wLy_dir,wLx_dir,x_movePos,y_movePos,buttonPress_train,RTchoice_train,cumAcctrain,aCorr,saveACC_choice,corrAns,x_movePos_end,y_movePos_end,key_resp.keys,key_resp.rt,text_2.started,text_2.stopped,aft_x_corrPos,aft_y_corrPos,y_pathSize_check,x_pathSize_check,y_pathdirY,x_pathdirY,x_pathdirX,x_corrPos,y_corrPos,gridImage_6.started,alienImageFB_2.started,startPosFB_2.started,movePosFB_2.started,keyFB_2.started,pathLine_xdir.started,pathLine_ydir.started,alienFace.started,sounds_4.started,RT_FBtrain,keyFB_2.keys,keyFB_2.rt,saveACC_pre,ACC,within_saveACC_train,earlystop_wloop,cumAcctrain_check,gridImage_3.started,alienImage_test.started,startPos_test.started,movePos_test.started,key_resp_test.started,wLy_dir_test,wLx_dir_test,buttonPress_test,RTchoice_test,cumAcctest,corrAns_test,key_resp_test.keys,key_resp_test.rt,text_3.started,text_3.stopped,total_time,end_all_time,key_resp_3.keys,slides_2.started,sounds_3.started,nextButton_2.numClicks,nextButton_2.timesOn,nextButton_2.timesOff,prev_but_2.numClicks,prev_but_2.timesOn,prev_but_2.timesOff,bye.started,participant,train_first,00_coordinate,starting corner,date,expName,psychopyVersion,frameRate,
,,,,,,,,,,,,,,,0,0,0,0,0,0,0,0,,,,,,,,,,,,,,,,,,,,,,,,,,,,,start_all_time,testround,conditions/schedules/train_y_first/red_square_00/bottom_left/instructions/Slide1.png,conditions/schedules/train_y_first/red_square_00/bottom_left/instructions/Audio1.wav,3016.5070905000903,3016.4532923998777,1,[10.317086399998516],[10.317102100001648],0,,,,,,,,,,,,,,,,,,,,,,,,,,,,,,,,,,,,,,,,,,,,,,,,,,,,,,,,,,,,,,,,,,,,,,,,,,,,,,,,,,,,,,,,,,,,,,,,,,,,,,,,,,,,,,,,,,,,,,,,,,,,R7Z1Z2 ,train_y,red_square,bottom_left,2025-02-14_17h10.53.421,HideSeek_v1,2022.2.5,59.87780140043574,
,,,,,,,,,,,,,,,0,0,0,0,1,0,1,0,,,,,,,,,,,,,,,,,,,,,,,,,,,,,,,conditions/schedules/train_y_first/red_square_00/bottom_left/instructions/Slide2.png,conditions/schedules/train_y_first/red_square_00/bottom_left/instructions/Audio2.wav,3026.8420088998973,3026.843942400068,2,"[10.317086399998516, 24.18706929986365]","[0.014125699875876307, 24.18707640003413]",0,,,,,,,,,,,,,,,,,,,,,,,,,,,,,,,,,,,,,,,,,,,,,,,,,,,,,,,,,,,,,,,,,,,,,,,,,,,,,,,,,,,,,,,,,,,,,,,,,,,,,,,,,,,,,,,,,,,,,,,,,,,,R7Z1Z2 ,train_y,red_square,bottom_left,2025-02-14_17h10.53.421,HideSeek_v1,2022.2.5,59.87780140043574,
,,,,,,,,,,,,,,,0,0,0,0,2,0,2,0,,,,,,,,,,,,,,,,,,,,,,,,,,,,,,,conditions/schedules/train_y_first/red_square_00/bottom_left/instructions/Slide3.png,conditions/schedules/train_y_first/red_square_00/bottom_left/instructions/Audio3.wav,3051.1677667999174,3051.0980551000684,3,"[10.317086399998516, 24.18706929986365, 16.686247900128365]","[0.014125699875876307, 0.0002210000529885292, 16.68625449994579]",0,,,,,,,,,,,,,,,,,,,,,,,,,,,,,,,,,,,,,,,,,,,,,,,,,,,,,,,,,,,,,,,,,,,,,,,,,,,,,,,,,,,,,,,,,,,,,,,,,,,,,,,,,,,,,,,,,,,,,,,,,,,,R7Z1Z2 ,train_y,red_square,bottom_left,2025-02-14_17h10.53.421,HideSeek_v1,2022.2.5,59.87780140043574,
,,,,,,,,,,,,,,,0,0,0,0,3,0,3,0,,,,,,,,,,,,,,,,,,,,,,,,,,,,,,,conditions/schedules/train_y_first/red_square_00/bottom_left/instructions/Slide4.png,conditions/schedules/train_y_first/red_square_00/bottom_left/instructions/Audio4.wav,3067.8709170001093,3067.861546800006,4,"[10.317086399998516, 24.18706929986365, 16.686247900128365, 19.621498900000006]","[0.014125699875876307, 0.0002210000529885292, 0.014386400114744902, 19.621506200172007]",0,,,,,,,,,,,,,,,,,,,,,,,,,,,,,,,,,,,,,,,,,,,,,,,,,,,,,,,,,,,,,,,,,,,,,,,,,,,,,,,,,,,,,,,,,,,,,,,,,,,,,,,,,,,,,,,,,,,,,,,,,,,,R7Z1Z2 ,train_y,red_square,bottom_left,2025-02-14_17h10.53.421,HideSeek_v1,2022.2.5,59.87780140043574,
,,,,,,,,,,,,,,,0,0,0,0,4,0,4,0,,,,,,,,,,,,,,,,,,,,,,,,,,,,,,,conditions/schedules/train_y_first/red_square_00/bottom_left/instructions/Slide5.png,conditions/schedules/train_y_first/red_square_00/bottom_left/instructions/Audio5.wav,3087.55733290012,3087.544541399926,5,"[10.317086399998516, 24.18706929986365, 16.686247900128365, 19.621498900000006, 5.038907299982384]","[0.014125699875876307, 0.0002210000529885292, 0.014386400114744902, 0.03487289999611676, 5.0389141999185085]",0,,,,,,,,,,,,,,,,,,,,,,,,,,,,,,,,,,,,,,,,,,,,,,,,,,,,,,,,,,,,,,,,,,,,,,,,,,,,,,,,,,,,,,,,,,,,,,,,,,,,,,,,,,,,,,,,,,,,,,,,,,,,R7Z1Z2 ,train_y,red_square,bottom_left,2025-02-14_17h10.53.421,HideSeek_v1,2022.2.5,59.87780140043574,
,,,,,,,,,,,,,,,0,0,0,0,5,0,5,0,,,,,,,,,,,,,,,,,,,,,,,,,,,,,,,conditions/schedules/train_y_first/red_square_00/bottom_left/instructions/Slide6.png,conditions/schedules/train_y_first/red_square_00/bottom_left/instructions/Audio6.wav,3092.6471492000856,3092.648665399989,6,"[10.317086399998516, 24.18706929986365, 16.686247900128365, 19.621498900000006, 5.038907299982384, 4.819637600099668]","[0.014125699875876307, 0.0002210000529885292, 0.014386400114744902, 0.03487289999611676, 0.048772700130939484, 4.819645200157538]",0,,,,,,,,,,,,,,,,,,,,,,,,,,,,,,,,,,,,,,,,,,,,,,,,,,,,,,,,,,,,,,,,,,,,,,,,,,,,,,,,,,,,,,,,,,,,,,,,,,,,,,,,,,,,,,,,,,,,,,,,,,,,R7Z1Z2 ,train_y,red_square,bottom_left,2025-02-14_17h10.53.421,HideSeek_v1,2022.2.5,59.87780140043574,
,,,,,,,,,,,,,,,0,0,0,0,6,0,6,0,,,,,,,,,,,,,,,,,,,,,,,,,,,,,,,conditions/schedules/train_y_first/red_square_00/bottom_left/instructions/Slide7.png,conditions/schedules/train_y_first/red_square_00/bottom_left/instructions/Audio7.wav,3097.5177325000986,3097.5193924000487,7,"[10.317086399998516, 24.18706929986365, 16.686247900128365, 19.621498900000006, 5.038907299982384, 4.819637600099668, 5.620232299901545]","[0.014125699875876307, 0.0002210000529885292, 0.014386400114744902, 0.03487289999611676, 0.048772700130939484, 0.11534000001847744, 5.620239699957892]",0,,,,,,,,,,,,,,,,,,,,,,,,,,,,,,,,,,,,,,,,,,,,,,,,,,,,,,,,,,,,,,,,,,,,,,,,,,,,,,,,,,,,,,,,,,,,,,,,,,,,,,,,,,,,,,,,,,,,,,,,,,,,R7Z1Z2 ,train_y,red_square,bottom_left,2025-02-14_17h10.53.421,HideSeek_v1,2022.2.5,59.87780140043574,
,,,,,,,,,,,,,,,0,0,0,0,7,0,7,0,,,,,,,,,,,,,,,,,,,,,,,,,,,,,,,conditions/schedules/train_y_first/red_square_00/bottom_left/instructions/Slide8.png,conditions/schedules/train_y_first/red_square_00/bottom_left/instructions/Audio8.wav,3103.1908172999974,3103.190656099934,8,"[10.317086399998516, 24.18706929986365, 16.686247900128365, 19.621498900000006, 5.038907299982384, 4.819637600099668, 5.620232299901545, 11.690354000078514]","[0.014125699875876307, 0.0002210000529885292, 0.014386400114744902, 0.03487289999611676, 0.048772700130939484, 0.11534000001847744, 0.0806324000004679, 11.690360500011593]",0,,,,,,,,,,,,,,,,,,,,,,,,,,,,,,,,,,,,,,,,,,,,,,,,,,,,,,,,,,,,,,,,,,,,,,,,,,,,,,,,,,,,,,,,,,,,,,,,,,,,,,,,,,,,,,,,,,,,,,,,,,,,R7Z1Z2 ,train_y,red_square,bottom_left,2025-02-14_17h10.53.421,HideSeek_v1,2022.2.5,59.87780140043574,
,,,,,,,,,,,,,,,0,0,0,0,8,0,8,0,,,,,,,,,,,,,,,,,,,,,,,,,,,,,,,conditions/schedules/train_y_first/red_square_00/bottom_left/instructions/Slide9.png,conditions/schedules/train_y_first/red_square_00/bottom_left/instructions/Audio9.wav,3114.9506584999617,3114.950433500111,9,"[10.317086399998516, 24.18706929986365, 16.686247900128365, 19.621498900000006, 5.038907299982384, 4.819637600099668, 5.620232299901545, 11.690354000078514, 5.903430199949071]","[0.014125699875876307, 0.0002210000529885292, 0.014386400114744902, 0.03487289999611676, 0.048772700130939484, 0.11534000001847744, 0.0806324000004679, 0.04691929998807609, 5.903438700130209]",0,,,,,,,,,,,,,,,,,,,,,,,,,,,,,,,,,,,,,,,,,,,,,,,,,,,,,,,,,,,,,,,,,,,,,,,,,,,,,,,,,,,,,,,,,,,,,,,,,,,,,,,,,,,,,,,,,,,,,,,,,,,,R7Z1Z2 ,train_y,red_square,bottom_left,2025-02-14_17h10.53.421,HideSeek_v1,2022.2.5,59.87780140043574,
,,,,,,,,,,,,,,,0,0,0,0,9,0,9,0,,,,,,,,,,,,,,,,,,,,,,,,,,,,,,,conditions/schedules/train_y_first/red_square_00/bottom_left/instructions/Slide10.png,conditions/schedules/train_y_first/red_square_00/bottom_left/instructions/Audio10.wav,3120.893554700073,3120.890082299942,10,"[10.317086399998516, 24.18706929986365, 16.686247900128365, 19.621498900000006, 5.038907299982384, 4.819637600099668, 5.620232299901545, 11.690354000078514, 5.903430199949071, 6.998658400028944]","[0.014125699875876307, 0.0002210000529885292, 0.014386400114744902, 0.03487289999611676, 0.048772700130939484, 0.11534000001847744, 0.0806324000004679, 0.04691929998807609, 0.0784370000474155, 6.99866670020856]",0,,,,,,,,,,,,,,,,,,,,,,,,,,,,,,,,,,,,,,,,,,,,,,,,,,,,,,,,,,,,,,,,,,,,,,,,,,,,,,,,,,,,,,,,,,,,,,,,,,,,,,,,,,,,,,,,,,,,,,,,,,,,R7Z1Z2 ,train_y,red_square,bottom_left,2025-02-14_17h10.53.421,HideSeek_v1,2022.2.5,59.87780140043574,
,,,,,,,,,,,,,,,0,0,0,0,10,0,10,0,,,,,,,,,,,,,,,,,,,,,,,,,,,,,,,conditions/schedules/train_y_first/red_square_00/bottom_left/instructions/Slide11.png,conditions/schedules/train_y_first/red_square_00/bottom_left/instructions/Audio11.wav,3127.9301998999435,3127.927925300086,11,"[10.317086399998516, 24.18706929986365, 16.686247900128365, 19.621498900000006, 5.038907299982384, 4.819637600099668, 5.620232299901545, 11.690354000078514, 5.903430199949071, 6.998658400028944, 10.136870199814439]","[0.014125699875876307, 0.0002210000529885292, 0.014386400114744902, 0.03487289999611676, 0.048772700130939484, 0.11534000001847744, 0.0806324000004679, 0.04691929998807609, 0.0784370000474155, 0.04549239994958043, 10.136876999866217]",0,,,,,,,,,,,,,,,,,,,,,,,,,,,,,,,,,,,,,,,,,,,,,,,,,,,,,,,,,,,,,,,,,,,,,,,,,,,,,,,,,,,,,,,,,,,,,,,,,,,,,,,,,,,,,,,,,,,,,,,,,,,,R7Z1Z2 ,train_y,red_square,bottom_left,2025-02-14_17h10.53.421,HideSeek_v1,2022.2.5,59.87780140043574,
,,,,,,,,,,,,,,,0,0,0,0,11,0,11,0,,,,,,,,,,,,,,,,,,,,,,,,,,,,,,,conditions/schedules/train_y_first/red_square_00/bottom_left/instructions/Slide12.png,conditions/schedules/train_y_first/red_square_00/bottom_left/instructions/Audio12.wav,3138.1342400999274,3138.1362797999755,12,"[10.317086399998516, 24.18706929986365, 16.686247900128365, 19.621498900000006, 5.038907299982384, 4.819637600099668, 5.620232299901545, 11.690354000078514, 5.903430199949071, 6.998658400028944, 10.136870199814439, 14.411652700044215]","[0.014125699875876307, 0.0002210000529885292, 0.014386400114744902, 0.03487289999611676, 0.048772700130939484, 0.11534000001847744, 0.0806324000004679, 0.04691929998807609, 0.0784370000474155, 0.04549239994958043, 0.033166500041261315, 14.411658799974248]",0,,,,,,,,,,,,,,,,,,,,,,,,,,,,,,,,,,,,,,,,,,,,,,,,,,,,,,,,,,,,,,,,,,,,,,,,,,,,,,,,,,,,,,,,,,,,,,,,,,,,,,,,,,,,,,,,,,,,,,,,,,,,R7Z1Z2 ,train_y,red_square,bottom_left,2025-02-14_17h10.53.421,HideSeek_v1,2022.2.5,59.87780140043574,
1,2,3,2,8,0,5,11,2,instr_dim1_1,,,,,,0,0,0,0,,,,,0,0,0,0,,,,,,,,,,,,,,,,,,,,,,,,,,,,,,,,,,,,,stimuli/alien_stimuli/11.png,conditions/schedules/train_y_first/red_square_00/bottom_left/inputInstr_1.xlsx,stimuli/alien_stimuli/11.png,3152.644952500006,3152.644952500006,3152.644952500006,3152.644952500006,3152.648553499952,return,8.27135009993799,"[-0.16, -0.08, 0, 0.08, 0.16, 0.24, 0.32, 0.4, 0.48, 0.56]","[-0.4, -0.32, -0.24, -0.16, -0.08, 0, 0.08, 0.16, 0.24, 0.32]",8,3,2,2,0.4,0.0,3161.0725656999275,3161.0725656999275,3161.0725656999275,3161.0725656999275,3161.0725656999275,3161.0725656999275,3161.0725656999275,3161.072037700098,0.23451310000382364,return,0.07060239976271987,stimuli/alien_stimuli/11.png,11,2,1,,,,,,,,,,,,,,,,,,,,,,,,,,,,,,,,,,,,,,,,,,,,,,,,,,,,,,,,,,,,,,,,,,,,,,,,,,,,,,,,,,,,,,,,,R7Z1Z2 ,train_y,red_square,bottom_left,2025-02-14_17h10.53.421,HideSeek_v1,2022.2.5,59.87780140043574,
,,,,,,,,,,,30,,,,0,0,0,0,,,,,,,,,,,,,,,,,,,,,,,,,,,,,,,,,,,,,,,,,,,,,,,,,,,,,,,,,,,,,,,,,,,,,,,,,,,,,,21,0.7,0,0,99,1,30,0,conditions/schedules/train_y_first/red_square_00/bottom_left/inputTrain_1.1.xlsx,99,1,1,1,0,,,,,,,,,,,,,,,,,,,,,,,,,,,,,,,,,,,,,,,,,,,,,,,,,,,,,,,,,,,,,,,,,,,,,,,,,,,R7Z1Z2 ,train_y,red_square,bottom_left,2025-02-14_17h10.53.421,HideSeek_v1,2022.2.5,59.87780140043574,
,,,,,,,,,,,,,,,1,0,1,0,0,0,0,0,,,,,,,,,,,,,,,,,,,,,,,,,,,,,,,conditions/schedules/train_y_first/red_square_00/bottom_left/instructions/Slide13.png,conditions/schedules/train_y_first/red_square_00/bottom_left/instructions/Audio13.wav,3161.318941900041,3161.3059123998974,13,"[10.317086399998516, 24.18706929986365, 16.686247900128365, 19.621498900000006, 5.038907299982384, 4.819637600099668, 5.620232299901545, 11.690354000078514, 5.903430199949071, 6.998658400028944, 10.136870199814439, 14.411652700044215, 18.182692600181326]","[0.014125699875876307, 0.0002210000529885292, 0.014386400114744902, 0.03487289999611676, 0.048772700130939484, 0.11534000001847744, 0.0806324000004679, 0.04691929998807609, 0.0784370000474155, 0.04549239994958043, 0.033166500041261315, 14.411658799974248, 18.182699100114405]",0,,,,,,,,,,,,,,,,,,,,,,,,,,,,,,,,,,,,,,,,,,,,,,,,,,,,,,,,,,,,,,,,,,,,,,,,,,,,,,,,,,,,,,,,,,,,,,,,,,,,,,,,,,,,,,,,,,,,,,,,,,,,R7Z1Z2 ,train_y,red_square,bottom_left,2025-02-14_17h10.53.421,HideSeek_v1,2022.2.5,59.87780140043574,
,,,,,,,,,,,,,,,1,0,1,0,1,0,1,0,,,,,,,,,,,,,,,,,,,,,,,,,,,,,,,conditions/schedules/train_y_first/red_square_00/bottom_left/instructions/Slide14.png,conditions/schedules/train_y_first/red_square_00/bottom_left/instructions/Audio14.wav,3179.5758493000176,3179.5705955000594,14,"[10.317086399998516, 24.18706929986365, 16.686247900128365, 19.621498900000006, 5.038907299982384, 4.819637600099668, 5.620232299901545, 11.690354000078514, 5.903430199949071, 6.998658400028944, 10.136870199814439, 14.411652700044215, 18.182692600181326, 16.688956199912354]","[0.014125699875876307, 0.0002210000529885292, 0.014386400114744902, 0.03487289999611676, 0.048772700130939484, 0.11534000001847744, 0.0806324000004679, 0.04691929998807609, 0.0784370000474155, 0.04549239994958043, 0.033166500041261315, 14.411658799974248, 0.01359530002810061, 16.68896279996261]",0,,,,,,,,,,,,,,,,,,,,,,,,,,,,,,,,,,,,,,,,,,,,,,,,,,,,,,,,,,,,,,,,,,,,,,,,,,,,,,,,,,,,,,,,,,,,,,,,,,,,,,,,,,,,,,,,,,,,,,,,,,,,R7Z1Z2 ,train_y,red_square,bottom_left,2025-02-14_17h10.53.421,HideSeek_v1,2022.2.5,59.87780140043574,
2,0,3,0,3,0,0,16,2,instr_dim1_1,,,,,,1,0,1,0,,,,,0,0,0,0,,,,,,,,,,,,,,,,,,,,,,,,,,,,,,,,,,,,,stimuli/alien_stimuli/16.png,conditions/schedules/train_y_first/red_square_00/bottom_left/inputInstr_1.xlsx,stimuli/alien_stimuli/16.png,3196.362088999944,3196.362088999944,3196.362088999944,3196.362088999944,3196.3680354000535,return,6.927868099883199,"[-0.16, -0.08, 0, 0.08, 0.16, 0.24, 0.32, 0.4, 0.48, 0.56]","[-0.4, -0.32, -0.24, -0.16, -0.08, 0, 0.08, 0.16, 0.24, 0.32]",3,3,0,0,0.0,0.0,3203.451817400055,3203.451817400055,3203.451817400055,3203.451817400055,3203.451817400055,3203.451817400055,3203.451817400055,3203.4402658001054,9.709405599860474,return,9.546485399827361,stimuli/alien_stimuli/16.png,16,0,2,,,,,,,,,,,,,,,,,,,,,,,,,,,,,,,,,,,,,,,,,,,,,,,,,,,,,,,,,,,,,,,,,,,,,,,,,,,,,,,,,,,,,,,,,R7Z1Z2 ,train_y,red_square,bottom_left,2025-02-14_17h10.53.421,HideSeek_v1,2022.2.5,59.87780140043574,
,,,,,,,,,,,30,,,,1,0,1,0,,,,,,,,,,,,,,,,,,,,,,,,,,,,,,,,,,,,,,,,,,,,,,,,,,,,,,,,,,,,,,,,,,,,,,,,,,,,,,21,0.7,0,0,99,1,30,0,conditions/schedules/train_y_first/red_square_00/bottom_left/inputTrain_1.1.xlsx,99,1,1,1,0,,,,,,,,,,,,,,,,,,,,,,,,,,,,,,,,,,,,,,,,,,,,,,,,,,,,,,,,,,,,,,,,,,,,,,,,,,,R7Z1Z2 ,train_y,red_square,bottom_left,2025-02-14_17h10.53.421,HideSeek_v1,2022.2.5,59.87780140043574,
,,,,,,,,,,,,,,,2,0,2,0,0,0,0,0,,,,,,,,,,,,,,,,,,,,,,,,,,,,,,,conditions/schedules/train_y_first/red_square_00/bottom_left/instructions/Slide15.png,conditions/schedules/train_y_first/red_square_00/bottom_left/instructions/Audio15.wav,3213.1613443999086,3213.148708899971,15,"[10.317086399998516, 24.18706929986365, 16.686247900128365, 19.621498900000006, 5.038907299982384, 4.819637600099668, 5.620232299901545, 11.690354000078514, 5.903430199949071, 6.998658400028944, 10.136870199814439, 14.411652700044215, 18.182692600181326, 16.688956199912354, 42.78717550006695]","[0.014125699875876307, 0.0002210000529885292, 0.014386400114744902, 0.03487289999611676, 0.048772700130939484, 0.11534000001847744, 0.0806324000004679, 0.04691929998807609, 0.0784370000474155, 0.04549239994958043, 0.033166500041261315, 14.411658799974248, 0.01359530002810061, 16.68896279996261, 42.78718230011873]",0,,,,,,,,,,,,,,,,,,,,,,,,,,,,,,,,,,,,,,,,,,,,,,,,,,,,,,,,,,,,,,,,,,,,,,,,,,,,,,,,,,,,,,,,,,,,,,,,,,,,,,,,,,,,,,,,,,,,,,,,,,,,R7Z1Z2 ,train_y,red_square,bottom_left,2025-02-14_17h10.53.421,HideSeek_v1,2022.2.5,59.87780140043574,
,,,,,,,,,,,,,,,2,0,2,0,1,0,1,0,,,,,,,,,,,,,,,,,,,,,,,,,,,,,,,conditions/schedules/train_y_first/red_square_00/bottom_left/instructions/Slide16.png,conditions/schedules/train_y_first/red_square_00/bottom_left/instructions/Audio16.wav,3256.0256058999803,3256.0173241999,16,"[10.317086399998516, 24.18706929986365, 16.686247900128365, 19.621498900000006, 5.038907299982384, 4.819637600099668, 5.620232299901545, 11.690354000078514, 5.903430199949071, 6.998658400028944, 10.136870199814439, 14.411652700044215, 18.182692600181326, 16.688956199912354, 42.78717550006695, 21.47379200020805]","[0.014125699875876307, 0.0002210000529885292, 0.014386400114744902, 0.03487289999611676, 0.048772700130939484, 0.11534000001847744, 0.0806324000004679, 0.04691929998807609, 0.0784370000474155, 0.04549239994958043, 0.033166500041261315, 14.411658799974248, 0.01359530002810061, 16.68896279996261, 0.07249120017513633, 21.47379850014113]",0,,,,,,,,,,,,,,,,,,,,,,,,,,,,,,,,,,,,,,,,,,,,,,,,,,,,,,,,,,,,,,,,,,,,,,,,,,,,,,,,,,,,,,,,,,,,,,,,,,,,,,,,,,,,,,,,,,,,,,,,,,,,R7Z1Z2 ,train_y,red_square,bottom_left,2025-02-14_17h10.53.421,HideSeek_v1,2022.2.5,59.87780140043574,
,0,0,0,1,0,1,15,,train_dim1_1,1,30,,,,2,0,2,0,,,,,,,,,0,0,0,0,0,0,0,0,0,0,0,0,,,,,,,,,,,,,,,,,,,,,,,,,stimuli/alien_stimuli/15.png,,,,,,,,,,,,,,,,,,,,,,,,,,,,,,,,,,,,,,,30,,,,,,,,3277.6077066001017,3277.6077066001017,3277.6077066001017,3277.6077066001017,3277.6077066001017,0,0,-0.16,-0.4,return,2.9967851999681443,0,1,0,0,-0.16,-0.4,return,2.8920724999625236,,,,,,,,,,,,,,,,,,,,,,,,,,,,,,,,,,,,,,,,,,,,,,,,,,,,,,,,R7Z1Z2 ,train_y,red_square,bottom_left,2025-02-14_17h10.53.421,HideSeek_v1,2022.2.5,59.87780140043574,
,3,2,3,2,0,0,16,,train_dim1_1,2,30,,,,2,0,2,0,,,,,,,,,0,0,0,0,0,1,1,1,0,0,0,0,,,,,,,,,,,,,,,,,,,,,,,,,stimuli/alien_stimuli/16.png,,,,,,,,,,,,,,,,,,,,,,,,,,,,,stimuli/alien_stimuli/15.png,15,0,3,,,,,,,30,,,,,,,,3301.9344806999434,3301.9344806999434,3301.9344806999434,3301.9344806999434,3301.9344806999434,0,0,0.08,-0.24,return,11.530691599939018,1,0,0,1,0.08,-0.24,return,11.446652999846265,3300.3706889001187,3301.9344806999434,-0.16,-0.32,0.08,0.0,-0.36,-0.16,-0.16,-0.16,-0.32,3282.175794099923,3282.175794099923,3282.175794099923,3282.175794099923,3282.175794099923,3282.175794099923,3282.175794099923,3282.175794099923,3282.172730399994,18.333962199976668,return,18.178286199923605,,,,,,,,,,,,,,,,,,,,,,,,,,,,,,,,,R7Z1Z2 ,train_y,red_square,bottom_left,2025-02-14_17h10.53.421,HideSeek_v1,2022.2.5,59.87780140043574,
,2,3,2,6,0,3,13,,train_dim1_1,3,30,,,,2,0,2,0,,,,,,,,,0,0,0,0,0,2,2,2,0,0,0,0,,,,,,,,,,,,,,,,,,,,,,,,,stimuli/alien_stimuli/13.png,,,,,,,,,,,,,,,,,,,,,,,,,,,,,stimuli/alien_stimuli/16.png,16,3,4,,,,,,,30,,,,,,,,3320.7934290999547,3320.7934290999547,3320.7934290999547,3320.7934290999547,3320.7934290999547,,,,,up,2.107076399959624,1,0,0,99,0,-0.08,up,2.0180178000591695,3319.236254400108,3320.7934290999547,0.08,-0.24,0.0,0.0,-0.24,0.08,0.08,0.08,-0.24,3315.0533046000637,3315.0533046000637,3315.0533046000637,3315.0533046000637,3315.0533046000637,3315.0533046000637,3315.0533046000637,3315.0533046000637,3315.0494733001105,4.322907299967483,return,4.16473379987292,,,,,,,,,,,,,,,,,,,,,,,,,,,,,,,,,R7Z1Z2 ,train_y,red_square,bottom_left,2025-02-14_17h10.53.421,HideSeek_v1,2022.2.5,59.87780140043574,
,2,3,2,6,0,3,13,,train_dim1_1,3,30,,,,2,0,2,0,,,,,,,,,0,0,0,0,0,2,2,2,1,0,1,0,,,,,,,,,,,,,,,,,,,,,,,,,,,,,,,,,,,,,,,,,,,,,,,,,,,,,,,,,,,,,,,,30,,,,,,,,3322.911929700058,3322.911929700058,3322.911929700058,3322.911929700058,3322.911929700058,,,,,up,0.4213686999864876,1,0,0,99,0,0.0,up,0.3350048998836428,,,,,,,,,,,,,,,,,,,,,,,,,,,,,,,,,,,,,,,,,,,,,,,,,,,,,,,,R7Z1Z2 ,train_y,red_square,bottom_left,2025-02-14_17h10.53.421,HideSeek_v1,2022.2.5,59.87780140043574,
,2,3,2,6,0,3,13,,train_dim1_1,3,30,,,,2,0,2,0,,,,,,,,,0,0,0,0,0,2,2,2,2,0,2,0,,,,,,,,,,,,,,,,,,,,,,,,,,,,,,,,,,,,,,,,,,,,,,,,,,,,,,,,,,,,,,,,30,,,,,,,,3323.3426463999785,3323.3426463999785,3323.3426463999785,3323.3426463999785,3323.3426463999785,,,,,up,0.6573427000548691,1,0,0,99,0,0.08,up,0.5798712999094278,,,,,,,,,,,,,,,,,,,,,,,,,,,,,,,,,,,,,,,,,,,,,,,,,,,,,,,,R7Z1Z2 ,train_y,red_square,bottom_left,2025-02-14_17h10.53.421,HideSeek_v1,2022.2.5,59.87780140043574,
,2,3,2,6,0,3,13,,train_dim1_1,3,30,,,,2,0,2,0,,,,,,,,,0,0,0,0,0,2,2,2,3,0,3,0,,,,,,,,,,,,,,,,,,,,,,,,,,,,,,,,,,,,,,,,,,,,,,,,,,,,,,,,,,,,,,,,30,,,,,,,,3324.0065222999547,3324.0065222999547,3324.0065222999547,3324.0065222999547,3324.0065222999547,3,0,0,0.08,return,2.662300700088963,2,0,0,1,0,0.08,return,2.5786420998629183,,,,,,,,,,,,,,,,,,,,,,,,,,,,,,,,,,,,,,,,,,,,,,,,,,,,,,,,R7Z1Z2 ,train_y,red_square,bottom_left,2025-02-14_17h10.53.421,HideSeek_v1,2022.2.5,59.87780140043574,
,0,1,0,5,0,4,12,,train_dim1_1,4,30,,,,2,0,2,0,,,,,,,,,0,0,0,0,0,3,3,3,0,0,0,0,,,,,,,,,,,,,,,,,,,,,,,,,stimuli/alien_stimuli/12.png,,,,,,,,,,,,,,,,,,,,,,,,,,,,,stimuli/alien_stimuli/13.png,13,2,5,,,,,,,30,,,,,,,,3332.6393248999957,3332.6393248999957,3332.6393248999957,3332.6393248999957,3332.6393248999957,,,,,up,1.8216387000866234,2,0,0,99,-0.16,-0.24,up,1.7344392996747047,3331.0793854000513,3332.6393248999957,0,0.08,0.24,0.0,-0.04,0,0.0,0,0.08,3328.2378330999054,3328.2378330999054,3328.2378330999054,3328.2378330999054,3328.2378330999054,3328.2378330999054,3328.2378330999054,3328.2378330999054,3328.2268270999193,2.954909199848771,return,2.8101085000671446,,,,,,,,,,,,,,,,,,,,,,,,,,,,,,,,,R7Z1Z2 ,train_y,red_square,bottom_left,2025-02-14_17h10.53.421,HideSeek_v1,2022.2.5,59.87780140043574,
,0,1,0,5,0,4,12,,train_dim1_1,4,30,,,,2,0,2,0,,,,,,,,,0,0,0,0,0,3,3,3,1,0,1,0,,,,,,,,,,,,,,,,,,,,,,,,,,,,,,,,,,,,,,,,,,,,,,,,,,,,,,,,,,,,,,,,30,,,,,,,,3334.466503500007,3334.466503500007,3334.466503500007,3334.466503500007,3334.466503500007,,,,,up,0.42624149983748794,2,0,0,99,-0.16,-0.15999999999999998,up,0.33990739984437823,,,,,,,,,,,,,,,,,,,,,,,,,,,,,,,,,,,,,,,,,,,,,,,,,,,,,,,,R7Z1Z2 ,train_y,red_square,bottom_left,2025-02-14_17h10.53.421,HideSeek_v1,2022.2.5,59.87780140043574,
,0,1,0,5,0,4,12,,train_dim1_1,4,30,,,,2,0,2,0,,,,,,,,,0,0,0,0,0,3,3,3,2,0,2,0,,,,,,,,,,,,,,,,,,,,,,,,,,,,,,,,,,,,,,,,,,,,,,,,,,,,,,,,,,,,,,,,30,,,,,,,,3334.9002636000514,3334.9002636000514,3334.9002636000514,3334.9002636000514,3334.9002636000514,,,,,up,0.5766955998260528,2,0,0,99,-0.16,-0.07999999999999997,up,0.48537509981542826,,,,,,,,,,,,,,,,,,,,,,,,,,,,,,,,,,,,,,,,,,,,,,,,,,,,,,,,R7Z1Z2 ,train_y,red_square,bottom_left,2025-02-14_17h10.53.421,HideSeek_v1,2022.2.5,59.87780140043574,
,0,1,0,5,0,4,12,,train_dim1_1,4,30,,,,2,0,2,0,,,,,,,,,0,0,0,0,0,3,3,3,3,0,3,0,,,,,,,,,,,,,,,,,,,,,,,,,,,,,,,,,,,,,,,,,,,,,,,,,,,,,,,,,,,,,,,,30,,,,,,,,3335.4832496999297,3335.4832496999297,3335.4832496999297,3335.4832496999297,3335.4832496999297,,,,,up,1.3106777998618782,2,0,0,99,-0.16,2.7755575615628914e-17,up,1.2257655998691916,,,,,,,,,,,,,,,,,,,,,,,,,,,,,,,,,,,,,,,,,,,,,,,,,,,,,,,,R7Z1Z2 ,train_y,red_square,bottom_left,2025-02-14_17h10.53.421,HideSeek_v1,2022.2.5,59.87780140043574,
,0,1,0,5,0,4,12,,train_dim1_1,4,30,,,,2,0,2,0,,,,,,,,,0,0,0,0,0,3,3,3,4,0,4,0,,,,,,,,,,,,,,,,,,,,,,,,,,,,,,,,,,,,,,,,,,,,,,,,,,,,,,,,,,,,,,,,30,,,,,,,,3336.8009571000002,3336.8009571000002,3336.8009571000002,3336.8009571000002,3336.8009571000002,7,0,-0.16,2.7755575615628914e-17,return,10.6353100000415,3,0,0,1,-0.16,2.7755575615628914e-17,return,10.551291599869728,,,,,,,,,,,,,,,,,,,,,,,,,,,,,,,,,,,,,,,,,,,,,,,,,,,,,,,,R7Z1Z2 ,train_y,red_square,bottom_left,2025-02-14_17h10.53.421,HideSeek_v1,2022.2.5,59.87780140043574,
,3,3,3,8,0,5,11,,train_dim1_1,5,30,,,,2,0,2,0,,,,,,,,,0,0,0,0,0,4,4,4,0,0,0,0,,,,,,,,,,,,,,,,,,,,,,,,,stimuli/alien_stimuli/11.png,,,,,,,,,,,,,,,,,,,,,,,,,,,,,stimuli/alien_stimuli/12.png,12,0,6,,,,,,,30,,,,,,,,3352.0689006000757,3352.0689006000757,3352.0689006000757,3352.0689006000757,3352.0689006000757,,,,,up,2.140519800130278,3,0,0,99,0.08,-0.08,up,2.0483844997361302,3350.5121603000443,3352.0689006000757,-0.16,0,0.32,0.0,-0.16,-0.16,-0.16,-0.16,0,3349.0303024000023,3349.0303024000023,3349.0303024000023,3349.0303024000023,3349.0303024000023,3349.0303024000023,3349.0303024000023,3349.0303024000023,3349.027971399948,1.620605500182137,return,1.4526455998420715,,,,,,,,,,,,,,,,,,,,,,,,,,,,,,,,,R7Z1Z2 ,train_y,red_square,bottom_left,2025-02-14_17h10.53.421,HideSeek_v1,2022.2.5,59.87780140043574,
,3,3,3,8,0,5,11,,train_dim1_1,5,30,,,,2,0,2,0,,,,,,,,,0,0,0,0,0,4,4,4,1,0,1,0,,,,,,,,,,,,,,,,,,,,,,,,,,,,,,,,,,,,,,,,,,,,,,,,,,,,,,,,,,,,,,,,30,,,,,,,,3354.2160773000214,3354.2160773000214,3354.2160773000214,3354.2160773000214,3354.2160773000214,,,,,up,0.4598892000503838,3,0,0,99,0.08,0.0,up,0.37188009987585247,,,,,,,,,,,,,,,,,,,,,,,,,,,,,,,,,,,,,,,,,,,,,,,,,,,,,,,,R7Z1Z2 ,train_y,red_square,bottom_left,2025-02-14_17h10.53.421,HideSeek_v1,2022.2.5,59.87780140043574,
,3,3,3,8,0,5,11,,train_dim1_1,5,30,,,,2,0,2,0,,,,,,,,,0,0,0,0,0,4,4,4,2,0,2,0,,,,,,,,,,,,,,,,,,,,,,,,,,,,,,,,,,,,,,,,,,,,,,,,,,,,,,,,,,,,,,,,30,,,,,,,,3354.682603399968,3354.682603399968,3354.682603399968,3354.682603399968,3354.682603399968,,,,,up,0.393116099992767,3,0,0,99,0.08,0.08,up,0.30539359990507364,,,,,,,,,,,,,,,,,,,,,,,,,,,,,,,,,,,,,,,,,,,,,,,,,,,,,,,,R7Z1Z2 ,train_y,red_square,bottom_left,2025-02-14_17h10.53.421,HideSeek_v1,2022.2.5,59.87780140043574,
,3,3,3,8,0,5,11,,train_dim1_1,5,30,,,,2,0,2,0,,,,,,,,,0,0,0,0,0,4,4,4,3,0,3,0,,,,,,,,,,,,,,,,,,,,,,,,,,,,,,,,,,,,,,,,,,,,,,,,,,,,,,,,,,,,,,,,30,,,,,,,,3355.08355160011,3355.08355160011,3355.08355160011,3355.08355160011,3355.08355160011,,,,,up,0.37669340008869767,3,0,0,99,0.08,0.16,up,0.29521399992518127,,,,,,,,,,,,,,,,,,,,,,,,,,,,,,,,,,,,,,,,,,,,,,,,,,,,,,,,R7Z1Z2 ,train_y,red_square,bottom_left,2025-02-14_17h10.53.421,HideSeek_v1,2022.2.5,59.87780140043574,
,3,3,3,8,0,5,11,,train_dim1_1,5,30,,,,2,0,2,0,,,,,,,,,0,0,0,0,0,4,4,4,4,0,4,0,,,,,,,,,,,,,,,,,,,,,,,,,,,,,,,,,,,,,,,,,,,,,,,,,,,,,,,,,,,,,,,,30,,,,,,,,3355.467356200097,3355.467356200097,3355.467356200097,3355.467356200097,3355.467356200097,11,0,0.08,0.16,return,0.7270133001729846,3,1,0,0,0.08,0.16,return,0.645741299726069,,,,,,,,,,,,,,,,,,,,,,,,,,,,,,,,,,,,,,,,,,,,,,,,,,,,,,,,R7Z1Z2 ,train_y,red_square,bottom_left,2025-02-14_17h10.53.421,HideSeek_v1,2022.2.5,59.87780140043574,
,1,4,1,8,0,4,12,,train_dim1_1,6,30,,,,2,0,2,0,,,,,,,,,0,0,0,0,0,5,5,5,0,0,0,0,,,,,,,,,,,,,,,,,,,,,,,,,stimuli/alien_stimuli/12.png,,,,,,,,,,,,,,,,,,,,,,,,,,,,,stimuli/alien_stimuli/11.png,11,3,7,,,,,,,30,,,,,,,,3361.3147487000097,3361.3147487000097,3361.3147487000097,3361.3147487000097,3361.3147487000097,,,,,up,2.4360627001151443,3,1,0,99,-0.08,0.0,up,2.3512021999340504,3359.753163800109,3361.3147487000097,0.08,0.24,0.4,0.0,0.039999999999999994,0.08,0.08,0.08,0.24,3357.7495925999247,3357.7495925999247,3357.7495925999247,3357.7495925999247,3357.7495925999247,3357.7495925999247,3357.7495925999247,3357.7495925999247,3357.7516187999863,2.1042543998919427,return,1.9866607000585645,,,,,,,,,,,,,,,,,,,,,,,,,,,,,,,,,R7Z1Z2 ,train_y,red_square,bottom_left,2025-02-14_17h10.53.421,HideSeek_v1,2022.2.5,59.87780140043574,
,1,4,1,8,0,4,12,,train_dim1_1,6,30,,,,2,0,2,0,,,,,,,,,0,0,0,0,0,5,5,5,1,0,1,0,,,,,,,,,,,,,,,,,,,,,,,,,,,,,,,,,,,,,,,,,,,,,,,,,,,,,,,,,,,,,,,,30,,,,,,,,3363.7574877999723,3363.7574877999723,3363.7574877999723,3363.7574877999723,3363.7574877999723,,,,,up,0.6266634999774396,3,1,0,99,-0.08,0.08,up,0.5456600999459624,,,,,,,,,,,,,,,,,,,,,,,,,,,,,,,,,,,,,,,,,,,,,,,,,,,,,,,,R7Z1Z2 ,train_y,red_square,bottom_left,2025-02-14_17h10.53.421,HideSeek_v1,2022.2.5,59.87780140043574,
,1,4,1,8,0,4,12,,train_dim1_1,6,30,,,,2,0,2,0,,,,,,,,,0,0,0,0,0,5,5,5,2,0,2,0,,,,,,,,,,,,,,,,,,,,,,,,,,,,,,,,,,,,,,,,,,,,,,,,,,,,,,,,,,,,,,,,30,,,,,,,,3364.3903298000805,3364.3903298000805,3364.3903298000805,3364.3903298000805,3364.3903298000805,,,,,up,0.5102242000866681,3,1,0,99,-0.08,0.16,up,0.4205021997913718,,,,,,,,,,,,,,,,,,,,,,,,,,,,,,,,,,,,,,,,,,,,,,,,,,,,,,,,R7Z1Z2 ,train_y,red_square,bottom_left,2025-02-14_17h10.53.421,HideSeek_v1,2022.2.5,59.87780140043574,
,1,4,1,8,0,4,12,,train_dim1_1,6,30,,,,2,0,2,0,,,,,,,,,0,0,0,0,0,5,5,5,3,0,3,0,,,,,,,,,,,,,,,,,,,,,,,,,,,,,,,,,,,,,,,,,,,,,,,,,,,,,,,,,,,,,,,,30,,,,,,,,3364.9083795999177,3364.9083795999177,3364.9083795999177,3364.9083795999177,3364.9083795999177,,,,,up,0.8102963999845088,3,1,0,99,-0.08,0.24,up,0.7211331999860704,,,,,,,,,,,,,,,,,,,,,,,,,,,,,,,,,,,,,,,,,,,,,,,,,,,,,,,,R7Z1Z2 ,train_y,red_square,bottom_left,2025-02-14_17h10.53.421,HideSeek_v1,2022.2.5,59.87780140043574,
,1,4,1,8,0,4,12,,train_dim1_1,6,30,,,,2,0,2,0,,,,,,,,,0,0,0,0,0,5,5,5,4,0,4,0,,,,,,,,,,,,,,,,,,,,,,,,,,,,,,,,,,,,,,,,,,,,,,,,,,,,,,,,,,,,,,,,30,,,,,,,,3365.7253306000493,3365.7253306000493,3365.7253306000493,3365.7253306000493,3365.7253306000493,,,,,up,0.4764421998988837,3,1,0,99,-0.08,0.32,up,0.3897921999450773,,,,,,,,,,,,,,,,,,,,,,,,,,,,,,,,,,,,,,,,,,,,,,,,,,,,,,,,R7Z1Z2 ,train_y,red_square,bottom_left,2025-02-14_17h10.53.421,HideSeek_v1,2022.2.5,59.87780140043574,
,1,4,1,8,0,4,12,,train_dim1_1,6,30,,,,2,0,2,0,,,,,,,,,0,0,0,0,0,5,5,5,5,0,5,0,,,,,,,,,,,,,,,,,,,,,,,,,,,,,,,,,,,,,,,,,,,,,,,,,,,,,,,,,,,,,,,,30,,,,,,,,3366.2095920001157,3366.2095920001157,3366.2095920001157,3366.2095920001157,3366.2095920001157,16,0,-0.08,0.32,return,0.6937156000640243,3,1,0,0,-0.08,0.32,return,0.6009342998731881,,,,,,,,,,,,,,,,,,,,,,,,,,,,,,,,,,,,,,,,,,,,,,,,,,,,,,,,R7Z1Z2 ,train_y,red_square,bottom_left,2025-02-14_17h10.53.421,HideSeek_v1,2022.2.5,59.87780140043574,
,1,3,1,6,0,3,13,,train_dim1_1,7,30,,,,2,0,2,0,,,,,,,,,0,0,0,0,0,6,6,6,0,0,0,0,,,,,,,,,,,,,,,,,,,,,,,,,stimuli/alien_stimuli/13.png,,,,,,,,,,,,,,,,,,,,,,,,,,,,,stimuli/alien_stimuli/12.png,12,1,8,,,,,,,30,,,,,,,,3371.7203818000853,3371.7203818000853,3371.7203818000853,3371.7203818000853,3371.7203818000853,,,,,up,1.4536793001461774,3,1,0,99,-0.08,-0.08,up,1.3666582996957004,3370.1619166000746,3371.7203818000853,-0.08,0.24,0.32,0.0,0.07999999999999999,-0.08,-0.08,-0.08,0.24,3368.47889030003,3368.47889030003,3368.47889030003,3368.47889030003,3368.47889030003,3368.47889030003,3368.47889030003,3368.47889030003,3368.477290299954,1.8035550001077354,return,1.6554393998812884,,,,,,,,,,,,,,,,,,,,,,,,,,,,,,,,,R7Z1Z2 ,train_y,red_square,bottom_left,2025-02-14_17h10.53.421,HideSeek_v1,2022.2.5,59.87780140043574,
,1,3,1,6,0,3,13,,train_dim1_1,7,30,,,,2,0,2,0,,,,,,,,,0,0,0,0,0,6,6,6,1,0,1,0,,,,,,,,,,,,,,,,,,,,,,,,,,,,,,,,,,,,,,,,,,,,,,,,,,,,,,,,,,,,,,,,30,,,,,,,,3373.1813596999273,3373.1813596999273,3373.1813596999273,3373.1813596999273,3373.1813596999273,,,,,up,0.5766119000036269,3,1,0,99,-0.08,0.0,up,0.49012780003249645,,,,,,,,,,,,,,,,,,,,,,,,,,,,,,,,,,,,,,,,,,,,,,,,,,,,,,,,R7Z1Z2 ,train_y,red_square,bottom_left,2025-02-14_17h10.53.421,HideSeek_v1,2022.2.5,59.87780140043574,
,1,3,1,6,0,3,13,,train_dim1_1,7,30,,,,2,0,2,0,,,,,,,,,0,0,0,0,0,6,6,6,2,0,2,0,,,,,,,,,,,,,,,,,,,,,,,,,,,,,,,,,,,,,,,,,,,,,,,,,,,,,,,,,,,,,,,,30,,,,,,,,3373.7643347999547,3373.7643347999547,3373.7643347999547,3373.7643347999547,3373.7643347999547,,,,,up,0.593226500088349,3,1,0,99,-0.08,0.08,up,0.5130962999537587,,,,,,,,,,,,,,,,,,,,,,,,,,,,,,,,,,,,,,,,,,,,,,,,,,,,,,,,R7Z1Z2 ,train_y,red_square,bottom_left,2025-02-14_17h10.53.421,HideSeek_v1,2022.2.5,59.87780140043574,
,1,3,1,6,0,3,13,,train_dim1_1,7,30,,,,2,0,2,0,,,,,,,,,0,0,0,0,0,6,6,6,3,0,3,0,,,,,,,,,,,,,,,,,,,,,,,,,,,,,,,,,,,,,,,,,,,,,,,,,,,,,,,,,,,,,,,,30,,,,,,,,3374.364967700094,3374.364967700094,3374.364967700094,3374.364967700094,3374.364967700094,19,0,-0.08,0.08,return,0.860692200018093,4,0,0,1,-0.08,0.08,return,0.7690993999131024,,,,,,,,,,,,,,,,,,,,,,,,,,,,,,,,,,,,,,,,,,,,,,,,,,,,,,,,R7Z1Z2 ,train_y,red_square,bottom_left,2025-02-14_17h10.53.421,HideSeek_v1,2022.2.5,59.87780140043574,
,4,2,4,7,0,5,11,,train_dim1_1,8,30,,,,2,0,2,0,,,,,,,,,0,0,0,0,0,7,7,7,0,0,0,0,,,,,,,,,,,,,,,,,,,,,,,,,stimuli/alien_stimuli/11.png,,,,,,,,,,,,,,,,,,,,,,,,,,,,,stimuli/alien_stimuli/13.png,13,1,9,,,,,,,30,,,,,,,,3379.477939900011,3379.477939900011,3379.477939900011,3379.477939900011,3379.477939900011,,,,,up,1.7369602001272142,4,0,0,99,0.16,-0.15999999999999998,up,1.6518967996817082,3377.918416599976,3379.477939900011,-0.08,0.08,0.24,0.0,-0.04,-0.08,-0.08,-0.08,0.08,3376.7792734999675,3376.7792734999675,3376.7792734999675,3376.7792734999675,3376.7792734999675,3376.7792734999675,3376.7792734999675,3376.7792734999675,3376.767518500099,1.2366032998543233,return,1.1087031997740269,,,,,,,,,,,,,,,,,,,,,,,,,,,,,,,,,R7Z1Z2 ,train_y,red_square,bottom_left,2025-02-14_17h10.53.421,HideSeek_v1,2022.2.5,59.87780140043574,
,4,2,4,7,0,5,11,,train_dim1_1,8,30,,,,2,0,2,0,,,,,,,,,0,0,0,0,0,7,7,7,1,0,1,0,,,,,,,,,,,,,,,,,,,,,,,,,,,,,,,,,,,,,,,,,,,,,,,,,,,,,,,,,,,,,,,,30,,,,,,,,3381.2220036000945,3381.2220036000945,3381.2220036000945,3381.2220036000945,3381.2220036000945,,,,,up,0.543002099962905,4,0,0,99,0.16,-0.07999999999999997,up,0.46172969974577427,,,,,,,,,,,,,,,,,,,,,,,,,,,,,,,,,,,,,,,,,,,,,,,,,,,,,,,,R7Z1Z2 ,train_y,red_square,bottom_left,2025-02-14_17h10.53.421,HideSeek_v1,2022.2.5,59.87780140043574,
,4,2,4,7,0,5,11,,train_dim1_1,8,30,,,,2,0,2,0,,,,,,,,,0,0,0,0,0,7,7,7,2,0,2,0,,,,,,,,,,,,,,,,,,,,,,,,,,,,,,,,,,,,,,,,,,,,,,,,,,,,,,,,,,,,,,,,30,,,,,,,,3381.771660800092,3381.771660800092,3381.771660800092,3381.771660800092,3381.771660800092,,,,,up,0.5435617999173701,4,0,0,99,0.16,2.7755575615628914e-17,up,0.46079249982722104,,,,,,,,,,,,,,,,,,,,,,,,,,,,,,,,,,,,,,,,,,,,,,,,,,,,,,,,R7Z1Z2 ,train_y,red_square,bottom_left,2025-02-14_17h10.53.421,HideSeek_v1,2022.2.5,59.87780140043574,
,4,2,4,7,0,5,11,,train_dim1_1,8,30,,,,2,0,2,0,,,,,,,,,0,0,0,0,0,7,7,7,3,0,3,0,,,,,,,,,,,,,,,,,,,,,,,,,,,,,,,,,,,,,,,,,,,,,,,,,,,,,,,,,,,,,,,,30,,,,,,,,3382.322812499944,3382.322812499944,3382.322812499944,3382.322812499944,3382.322812499944,,,,,up,2.9118874000851065,4,0,0,99,0.16,0.08000000000000003,up,2.8262245999649167,,,,,,,,,,,,,,,,,,,,,,,,,,,,,,,,,,,,,,,,,,,,,,,,,,,,,,,,R7Z1Z2 ,train_y,red_square,bottom_left,2025-02-14_17h10.53.421,HideSeek_v1,2022.2.5,59.87780140043574,
,4,2,4,7,0,5,11,,train_dim1_1,8,30,,,,2,0,2,0,,,,,,,,,0,0,0,0,0,7,7,7,4,0,4,0,,,,,,,,,,,,,,,,,,,,,,,,,,,,,,,,,,,,,,,,,,,,,,,,,,,,,,,,,,,,,,,,30,,,,,,,,3385.241318000015,3385.241318000015,3385.241318000015,3385.241318000015,3385.241318000015,,,,,up,1.71108329994604,4,0,0,99,0.16,0.16000000000000003,up,1.62414940004237,,,,,,,,,,,,,,,,,,,,,,,,,,,,,,,,,,,,,,,,,,,,,,,,,,,,,,,,R7Z1Z2 ,train_y,red_square,bottom_left,2025-02-14_17h10.53.421,HideSeek_v1,2022.2.5,59.87780140043574,
,4,2,4,7,0,5,11,,train_dim1_1,8,30,,,,2,0,2,0,,,,,,,,,0,0,0,0,0,7,7,7,5,0,5,0,,,,,,,,,,,,,,,,,,,,,,,,,,,,,,,,,,,,,,,,,,,,,,,,,,,,,,,,,,,,,,,,30,,,,,,,,3386.9602693999186,3386.9602693999186,3386.9602693999186,3386.9602693999186,3386.9602693999186,24,0,0.16,0.16000000000000003,return,0.5096955001354218,5,0,0,1,0.16,0.16000000000000003,return,0.4282397998031229,,,,,,,,,,,,,,,,,,,,,,,,,,,,,,,,,,,,,,,,,,,,,,,,,,,,,,,,R7Z1Z2 ,train_y,red_square,bottom_left,2025-02-14_17h10.53.421,HideSeek_v1,2022.2.5,59.87780140043574,
,4,3,4,4,0,1,15,,train_dim1_1,9,30,,,,2,0,2,0,,,,,,,,,0,0,0,0,0,8,8,8,0,0,0,0,,,,,,,,,,,,,,,,,,,,,,,,,stimuli/alien_stimuli/15.png,,,,,,,,,,,,,,,,,,,,,,,,,,,,,stimuli/alien_stimuli/11.png,11,4,10,,,,,,,30,,,,,,,,3391.8515961999074,3391.8515961999074,3391.8515961999074,3391.8515961999074,3391.8515961999074,24,0,0.16,-0.16,return,3.374450800009072,5,1,0,0,0.16,-0.16,return,3.2929370999336243,3390.2953590999823,3391.8515961999074,0.16,0.16,0.4,0.0,-0.039999999999999994,0.16,0.16,0.16,0.16,3389.0461782999337,3389.0461782999337,3389.0461782999337,3389.0461782999337,3389.0461782999337,3389.0461782999337,3389.0461782999337,3389.0461782999337,3389.044164400082,1.3698054999113083,return,1.2232406998518854,,,,,,,,,,,,,,,,,,,,,,,,,,,,,,,,,R7Z1Z2 ,train_y,red_square,bottom_left,2025-02-14_17h10.53.421,HideSeek_v1,2022.2.5,59.87780140043574,
,2,2,2,2,0,0,16,,train_dim1_1,10,30,,,,2,0,2,0,,,,,,,,,0,0,0,0,0,9,9,9,0,0,0,0,,,,,,,,,,,,,,,,,,,,,,,,,stimuli/alien_stimuli/16.png,,,,,,,,,,,,,,,,,,,,,,,,,,,,,stimuli/alien_stimuli/15.png,15,4,11,,,,,,,30,,,,,,,,3399.5580859999172,3399.5580859999172,3399.5580859999172,3399.5580859999172,3399.5580859999172,,,,,up,1.8728690999560058,5,1,0,99,0,-0.15999999999999998,up,1.7817523998674005,3398.0019443999045,3399.5580859999172,0.16,-0.08,0.08,0.0,-0.12,0.16,0.16,0.16,-0.08,3396.7823149999604,3396.7823149999604,3396.7823149999604,3396.7823149999604,3396.7823149999604,3396.7823149999604,3396.7823149999604,3396.7823149999604,3396.7675634000916,1.3198404000140727,return,1.1895475999917835,,,,,,,,,,,,,,,,,,,,,,,,,,,,,,,,,R7Z1Z2 ,train_y,red_square,bottom_left,2025-02-14_17h10.53.421,HideSeek_v1,2022.2.5,59.87780140043574,
,2,2,2,2,0,0,16,,train_dim1_1,10,30,,,,2,0,2,0,,,,,,,,,0,0,0,0,0,9,9,9,1,0,1,0,,,,,,,,,,,,,,,,,,,,,,,,,,,,,,,,,,,,,,,,,,,,,,,,,,,,,,,,,,,,,,,,30,,,,,,,,3401.4388439999893,3401.4388439999893,3401.4388439999893,3401.4388439999893,3401.4388439999893,25,0,0,-0.15999999999999998,return,0.6096846000291407,5,1,0,0,0,-0.15999999999999998,return,0.5212319998536259,,,,,,,,,,,,,,,,,,,,,,,,,,,,,,,,,,,,,,,,,,,,,,,,,,,,,,,,R7Z1Z2 ,train_y,red_square,bottom_left,2025-02-14_17h10.53.421,HideSeek_v1,2022.2.5,59.87780140043574,
,4,1,4,2,0,1,15,,train_dim1_1,11,30,,,,2,0,2,0,,,,,,,,,0,0,0,0,0,10,10,10,0,0,0,0,,,,,,,,,,,,,,,,,,,,,,,,,stimuli/alien_stimuli/15.png,,,,,,,,,,,,,,,,,,,,,,,,,,,,,stimuli/alien_stimuli/16.png,16,2,12,,,,,,,30,,,,,,,,3406.448815200012,3406.448815200012,3406.448815200012,3406.448815200012,3406.448815200012,,,,,up,1.0554919000715017,5,1,0,99,0.16,-0.24,up,0.9654701999388635,3404.8906576000154,3406.448815200012,0,-0.24,0.0,0.0,-0.24,0,0.0,0,-0.24,3403.603759099962,3403.603759099962,3403.603759099962,3403.603759099962,3403.603759099962,3403.603759099962,3403.603759099962,3403.603759099962,3403.5897572000977,1.3867348998319358,return,1.2694211998023093,,,,,,,,,,,,,,,,,,,,,,,,,,,,,,,,,R7Z1Z2 ,train_y,red_square,bottom_left,2025-02-14_17h10.53.421,HideSeek_v1,2022.2.5,59.87780140043574,
,4,1,4,2,0,1,15,,train_dim1_1,11,30,,,,2,0,2,0,,,,,,,,,0,0,0,0,0,10,10,10,1,0,1,0,,,,,,,,,,,,,,,,,,,,,,,,,,,,,,,,,,,,,,,,,,,,,,,,,,,,,,,,,,,,,,,,30,,,,,,,,3407.51009180001,3407.51009180001,3407.51009180001,3407.51009180001,3407.51009180001,26,0,0.16,-0.24,return,0.526580800069496,6,0,0,1,0.16,-0.24,return,0.4395449997391552,,,,,,,,,,,,,,,,,,,,,,,,,,,,,,,,,,,,,,,,,,,,,,,,,,,,,,,,R7Z1Z2 ,train_y,red_square,bottom_left,2025-02-14_17h10.53.421,HideSeek_v1,2022.2.5,59.87780140043574,
,0,0,0,5,0,5,11,,train_dim1_1,12,30,,,,2,0,2,0,,,,,,,,,0,0,0,0,0,11,11,11,0,0,0,0,,,,,,,,,,,,,,,,,,,,,,,,,stimuli/alien_stimuli/11.png,,,,,,,,,,,,,,,,,,,,,,,,,,,,,stimuli/alien_stimuli/15.png,15,4,13,,,,,,,30,,,,,,,,3412.5339818000793,3412.5339818000793,3412.5339818000793,3412.5339818000793,3412.5339818000793,,,,,up,1.640386100159958,6,0,0,99,-0.16,-0.32,up,1.557599799707532,3410.978925900068,3412.5339818000793,0.16,-0.24,0.08,0.0,-0.28,0.16,0.16,0.16,-0.24,3409.592433599988,3409.592433599988,3409.592433599988,3409.592433599988,3409.592433599988,3409.592433599988,3409.592433599988,3409.592433599988,3409.5781992000993,1.4864076999947429,return,1.3584000999107957,,,,,,,,,,,,,,,,,,,,,,,,,,,,,,,,,R7Z1Z2 ,train_y,red_square,bottom_left,2025-02-14_17h10.53.421,HideSeek_v1,2022.2.5,59.87780140043574,
,0,0,0,5,0,5,11,,train_dim1_1,12,30,,,,2,0,2,0,,,,,,,,,0,0,0,0,0,11,11,11,1,0,1,0,,,,,,,,,,,,,,,,,,,,,,,,,,,,,,,,,,,,,,,,,,,,,,,,,,,,,,,,,,,,,,,,30,,,,,,,,3414.18423169991,3414.18423169991,3414.18423169991,3414.18423169991,3414.18423169991,,,,,up,0.42637669993564487,6,0,0,99,-0.16,-0.24,up,0.345002300105989,,,,,,,,,,,,,,,,,,,,,,,,,,,,,,,,,,,,,,,,,,,,,,,,,,,,,,,,R7Z1Z2 ,train_y,red_square,bottom_left,2025-02-14_17h10.53.421,HideSeek_v1,2022.2.5,59.87780140043574,
,0,0,0,5,0,5,11,,train_dim1_1,12,30,,,,2,0,2,0,,,,,,,,,0,0,0,0,0,11,11,11,2,0,2,0,,,,,,,,,,,,,,,,,,,,,,,,,,,,,,,,,,,,,,,,,,,,,,,,,,,,,,,,,,,,,,,,30,,,,,,,,3414.615930699976,3414.615930699976,3414.615930699976,3414.615930699976,3414.615930699976,,,,,up,0.42661309987306595,6,0,0,99,-0.16,-0.15999999999999998,up,0.34001899999566376,,,,,,,,,,,,,,,,,,,,,,,,,,,,,,,,,,,,,,,,,,,,,,,,,,,,,,,,R7Z1Z2 ,train_y,red_square,bottom_left,2025-02-14_17h10.53.421,HideSeek_v1,2022.2.5,59.87780140043574,
,0,0,0,5,0,5,11,,train_dim1_1,12,30,,,,2,0,2,0,,,,,,,,,0,0,0,0,0,11,11,11,3,0,3,0,,,,,,,,,,,,,,,,,,,,,,,,,,,,,,,,,,,,,,,,,,,,,,,,,,,,,,,,,,,,,,,,30,,,,,,,,3415.0485370000824,3415.0485370000824,3415.0485370000824,3415.0485370000824,3415.0485370000824,,,,,up,0.4268973001744598,6,0,0,99,-0.16,-0.07999999999999997,up,0.3508510000538081,,,,,,,,,,,,,,,,,,,,,,,,,,,,,,,,,,,,,,,,,,,,,,,,,,,,,,,,R7Z1Z2 ,train_y,red_square,bottom_left,2025-02-14_17h10.53.421,HideSeek_v1,2022.2.5,59.87780140043574,
,0,0,0,5,0,5,11,,train_dim1_1,12,30,,,,2,0,2,0,,,,,,,,,0,0,0,0,0,11,11,11,4,0,4,0,,,,,,,,,,,,,,,,,,,,,,,,,,,,,,,,,,,,,,,,,,,,,,,,,,,,,,,,,,,,,,,,30,,,,,,,,3415.4828274999745,3415.4828274999745,3415.4828274999745,3415.4828274999745,3415.4828274999745,,,,,up,0.46002670004963875,6,0,0,99,-0.16,2.7755575615628914e-17,up,0.37475800001993775,,,,,,,,,,,,,,,,,,,,,,,,,,,,,,,,,,,,,,,,,,,,,,,,,,,,,,,,R7Z1Z2 ,train_y,red_square,bottom_left,2025-02-14_17h10.53.421,HideSeek_v1,2022.2.5,59.87780140043574,
,0,0,0,5,0,5,11,,train_dim1_1,12,30,,,,2,0,2,0,,,,,,,,,0,0,0,0,0,11,11,11,5,0,5,0,,,,,,,,,,,,,,,,,,,,,,,,,,,,,,,,,,,,,,,,,,,,,,,,,,,,,,,,,,,,,,,,30,,,,,,,,3415.9490076999646,3415.9490076999646,3415.9490076999646,3415.9490076999646,3415.9490076999646,31,0,-0.16,2.7755575615628914e-17,return,0.6603176000062376,7,0,0,1,-0.16,2.7755575615628914e-17,return,0.5712429999839514,,,,,,,,,,,,,,,,,,,,,,,,,,,,,,,,,,,,,,,,,,,,,,,,,,,,,,,,R7Z1Z2 ,train_y,red_square,bottom_left,2025-02-14_17h10.53.421,HideSeek_v1,2022.2.5,59.87780140043574,
,4,3,4,7,0,4,12,,train_dim1_1,13,30,,,,2,0,2,0,,,,,,,,,0,0,0,0,0,12,12,12,0,0,0,0,,,,,,,,,,,,,,,,,,,,,,,,,stimuli/alien_stimuli/12.png,,,,,,,,,,,,,,,,,,,,,,,,,,,,,stimuli/alien_stimuli/11.png,11,0,14,,,,,,,30,,,,,,,,3420.6249045000877,3420.6249045000877,3420.6249045000877,3420.6249045000877,3420.6249045000877,,,,,up,1.390000500017777,7,0,0,99,0.16,-0.08,up,1.3117683997843415,3419.06917589996,3420.6249045000877,-0.16,0,0.4,0.0,-0.2,-0.16,-0.16,-0.16,0,3418.1674987999722,3418.1674987999722,3418.1674987999722,3418.1674987999722,3418.1674987999722,3418.1674987999722,3418.1674987999722,3418.1674987999722,3418.168530799914,1.002904900116846,return,0.8763506999239326,,,,,,,,,,,,,,,,,,,,,,,,,,,,,,,,,R7Z1Z2 ,train_y,red_square,bottom_left,2025-02-14_17h10.53.421,HideSeek_v1,2022.2.5,59.87780140043574,
,4,3,4,7,0,4,12,,train_dim1_1,13,30,,,,2,0,2,0,,,,,,,,,0,0,0,0,0,12,12,12,1,0,1,0,,,,,,,,,,,,,,,,,,,,,,,,,,,,,,,,,,,,,,,,,,,,,,,,,,,,,,,,,,,,,,,,30,,,,,,,,3422.022549299989,3422.022549299989,3422.022549299989,3422.022549299989,3422.022549299989,,,,,up,0.39298510015942156,7,0,0,99,0.16,0.0,up,0.3160844997037202,,,,,,,,,,,,,,,,,,,,,,,,,,,,,,,,,,,,,,,,,,,,,,,,,,,,,,,,R7Z1Z2 ,train_y,red_square,bottom_left,2025-02-14_17h10.53.421,HideSeek_v1,2022.2.5,59.87780140043574,
,4,3,4,7,0,4,12,,train_dim1_1,13,30,,,,2,0,2,0,,,,,,,,,0,0,0,0,0,12,12,12,2,0,2,0,,,,,,,,,,,,,,,,,,,,,,,,,,,,,,,,,,,,,,,,,,,,,,,,,,,,,,,,,,,,,,,,30,,,,,,,,3422.4227907999884,3422.4227907999884,3422.4227907999884,3422.4227907999884,3422.4227907999884,,,,,up,0.3930933999363333,7,0,0,99,0.16,0.08,up,0.31255709985271096,,,,,,,,,,,,,,,,,,,,,,,,,,,,,,,,,,,,,,,,,,,,,,,,,,,,,,,,R7Z1Z2 ,train_y,red_square,bottom_left,2025-02-14_17h10.53.421,HideSeek_v1,2022.2.5,59.87780140043574,
,4,3,4,7,0,4,12,,train_dim1_1,13,30,,,,2,0,2,0,,,,,,,,,0,0,0,0,0,12,12,12,3,0,3,0,,,,,,,,,,,,,,,,,,,,,,,,,,,,,,,,,,,,,,,,,,,,,,,,,,,,,,,,,,,,,,,,30,,,,,,,,3422.8229402001016,3422.8229402001016,3422.8229402001016,3422.8229402001016,3422.8229402001016,,,,,up,0.40995350014418364,7,0,0,99,0.16,0.16,up,0.31705739977769554,,,,,,,,,,,,,,,,,,,,,,,,,,,,,,,,,,,,,,,,,,,,,,,,,,,,,,,,R7Z1Z2 ,train_y,red_square,bottom_left,2025-02-14_17h10.53.421,HideSeek_v1,2022.2.5,59.87780140043574,
,4,3,4,7,0,4,12,,train_dim1_1,13,30,,,,2,0,2,0,,,,,,,,,0,0,0,0,0,12,12,12,4,0,4,0,,,,,,,,,,,,,,,,,,,,,,,,,,,,,,,,,,,,,,,,,,,,,,,,,,,,,,,,,,,,,,,,30,,,,,,,,3423.241722200066,3423.241722200066,3423.241722200066,3423.241722200066,3423.241722200066,35,0,0.16,0.16,return,0.5264355998951942,8,0,0,1,0.16,0.16,return,0.4463331999722868,,,,,,,,,,,,,,,,,,,,,,,,,,,,,,,,,,,,,,,,,,,,,,,,,,,,,,,,R7Z1Z2 ,train_y,red_square,bottom_left,2025-02-14_17h10.53.421,HideSeek_v1,2022.2.5,59.87780140043574,
,2,2,2,2,0,0,16,,train_dim1_1,14,30,,,,2,0,2,0,,,,,,,,,0,0,0,0,0,13,13,13,0,0,0,0,,,,,,,,,,,,,,,,,,,,,,,,,stimuli/alien_stimuli/16.png,,,,,,,,,,,,,,,,,,,,,,,,,,,,,stimuli/alien_stimuli/12.png,12,4,15,,,,,,,30,,,,,,,,3427.6805269999895,3427.6805269999895,3427.6805269999895,3427.6805269999895,3427.6805269999895,35,0,0,-0.24,return,2.4407011000439525,9,0,0,1,0,-0.24,return,2.360076999757439,3426.124930900056,3427.6805269999895,0.16,0.16,0.32,0.0,0.0,0.16,0.16,0.16,0.16,3425.320727400016,3425.320727400016,3425.320727400016,3425.320727400016,3425.320727400016,3425.320727400016,3425.320727400016,3425.320727400016,3425.308047299972,0.9026600001379848,return,0.7783983999397606,,,,,,,,,,,,,,,,,,,,,,,,,,,,,,,,,R7Z1Z2 ,train_y,red_square,bottom_left,2025-02-14_17h10.53.421,HideSeek_v1,2022.2.5,59.87780140043574,
,1,4,1,7,0,3,13,,train_dim1_1,15,30,,,,2,0,2,0,,,,,,,,,0,0,0,0,0,14,14,14,0,0,0,0,,,,,,,,,,,,,,,,,,,,,,,,,stimuli/alien_stimuli/13.png,,,,,,,,,,,,,,,,,,,,,,,,,,,,,stimuli/alien_stimuli/16.png,16,2,16,,,,,,,30,,,,,,,,3434.0382153999526,3434.0382153999526,3434.0382153999526,3434.0382153999526,3434.0382153999526,,,,,up,1.2200373001396656,9,0,0,99,-0.08,0.0,up,1.1366632997523993,3432.480545300059,3434.0382153999526,0,-0.24,0.0,0.0,-0.24,0,0.0,0,-0.24,3431.6754324000794,3431.6754324000794,3431.6754324000794,3431.6754324000794,3431.6754324000794,3431.6754324000794,3431.6754324000794,3431.6754324000794,3431.6628680001013,0.9033732998650521,return,0.7799110997002572,,,,,,,,,,,,,,,,,,,,,,,,,,,,,,,,,R7Z1Z2 ,train_y,red_square,bottom_left,2025-02-14_17h10.53.421,HideSeek_v1,2022.2.5,59.87780140043574,
,1,4,1,7,0,3,13,,train_dim1_1,15,30,,,,2,0,2,0,,,,,,,,,0,0,0,0,0,14,14,14,1,0,1,0,,,,,,,,,,,,,,,,,,,,,,,,,,,,,,,,,,,,,,,,,,,,,,,,,,,,,,,,,,,,,,,,30,,,,,,,,3435.2656292999163,3435.2656292999163,3435.2656292999163,3435.2656292999163,3435.2656292999163,,,,,up,0.45966550009325147,9,0,0,99,-0.08,0.08,up,0.3811238999478519,,,,,,,,,,,,,,,,,,,,,,,,,,,,,,,,,,,,,,,,,,,,,,,,,,,,,,,,R7Z1Z2 ,train_y,red_square,bottom_left,2025-02-14_17h10.53.421,HideSeek_v1,2022.2.5,59.87780140043574,
,1,4,1,7,0,3,13,,train_dim1_1,15,30,,,,2,0,2,0,,,,,,,,,0,0,0,0,0,14,14,14,2,0,2,0,,,,,,,,,,,,,,,,,,,,,,,,,,,,,,,,,,,,,,,,,,,,,,,,,,,,,,,,,,,,,,,,30,,,,,,,,3435.7326899999753,3435.7326899999753,3435.7326899999753,3435.7326899999753,3435.7326899999753,,,,,up,0.3766263001598418,9,0,0,99,-0.08,0.16,up,0.2941415999084711,,,,,,,,,,,,,,,,,,,,,,,,,,,,,,,,,,,,,,,,,,,,,,,,,,,,,,,,R7Z1Z2 ,train_y,red_square,bottom_left,2025-02-14_17h10.53.421,HideSeek_v1,2022.2.5,59.87780140043574,
,1,4,1,7,0,3,13,,train_dim1_1,15,30,,,,2,0,2,0,,,,,,,,,0,0,0,0,0,14,14,14,3,0,3,0,,,,,,,,,,,,,,,,,,,,,,,,,,,,,,,,,,,,,,,,,,,,,,,,,,,,,,,,,,,,,,,,30,,,,,,,,3436.1160041000694,3436.1160041000694,3436.1160041000694,3436.1160041000694,3436.1160041000694,38,0,-0.08,0.16,return,0.5934396998491138,10,0,0,1,-0.08,0.16,return,0.5032205998431891,,,,,,,,,,,,,,,,,,,,,,,,,,,,,,,,,,,,,,,,,,,,,,,,,,,,,,,,R7Z1Z2 ,train_y,red_square,bottom_left,2025-02-14_17h10.53.421,HideSeek_v1,2022.2.5,59.87780140043574,
,4,0,4,1,0,1,15,,train_dim1_1,16,30,,,,2,0,2,0,,,,,,,,,0,0,0,0,0,15,15,15,0,0,0,0,,,,,,,,,,,,,,,,,,,,,,,,,stimuli/alien_stimuli/15.png,,,,,,,,,,,,,,,,,,,,,,,,,,,,,stimuli/alien_stimuli/13.png,13,1,17,,,,,,,30,,,,,,,,3440.4582823999226,3440.4582823999226,3440.4582823999226,3440.4582823999226,3440.4582823999226,,,,,up,1.7405028999783099,10,0,0,99,0.16,-0.32,up,1.6511723997537047,3438.9023641000967,3440.4582823999226,-0.08,0.16,0.24,0.0,0.04,-0.08,-0.08,-0.08,0.16,3438.265765900025,3438.265765900025,3438.265765900025,3438.265765900025,3438.265765900025,3438.265765900025,3438.265765900025,3438.265765900025,3438.2517065999564,0.7361536999233067,return,0.6048500998876989,,,,,,,,,,,,,,,,,,,,,,,,,,,,,,,,,R7Z1Z2 ,train_y,red_square,bottom_left,2025-02-14_17h10.53.421,HideSeek_v1,2022.2.5,59.87780140043574,
,4,0,4,1,0,1,15,,train_dim1_1,16,30,,,,2,0,2,0,,,,,,,,,0,0,0,0,0,15,15,15,1,0,1,0,,,,,,,,,,,,,,,,,,,,,,,,,,,,,,,,,,,,,,,,,,,,,,,,,,,,,,,,,,,,,,,,30,,,,,,,,3442.2058578999713,3442.2058578999713,3442.2058578999713,3442.2058578999713,3442.2058578999713,39,0,0.16,-0.32,return,0.5598387999925762,11,0,0,1,0.16,-0.32,return,0.47313359985128045,,,,,,,,,,,,,,,,,,,,,,,,,,,,,,,,,,,,,,,,,,,,,,,,,,,,,,,,R7Z1Z2 ,train_y,red_square,bottom_left,2025-02-14_17h10.53.421,HideSeek_v1,2022.2.5,59.87780140043574,
,3,3,3,6,0,3,13,,train_dim1_1,17,30,,,,2,0,2,0,,,,,,,,,0,0,0,0,0,16,16,16,0,0,0,0,,,,,,,,,,,,,,,,,,,,,,,,,stimuli/alien_stimuli/13.png,,,,,,,,,,,,,,,,,,,,,,,,,,,,,stimuli/alien_stimuli/15.png,15,4,18,,,,,,,30,,,,,,,,3446.783126299968,3446.783126299968,3446.783126299968,3446.783126299968,3446.783126299968,,,,,up,1.3363696997985244,11,0,0,99,0.08,-0.08,up,1.2494804998859763,3445.2239554999396,3446.783126299968,0.16,-0.32,0.08,0.0,-0.36,0.16,0.16,0.16,-0.32,3444.322033100063,3444.322033100063,3444.322033100063,3444.322033100063,3444.322033100063,3444.322033100063,3444.322033100063,3444.322033100063,3444.3236622000113,1.0028297000098974,return,0.8766479999758303,,,,,,,,,,,,,,,,,,,,,,,,,,,,,,,,,R7Z1Z2 ,train_y,red_square,bottom_left,2025-02-14_17h10.53.421,HideSeek_v1,2022.2.5,59.87780140043574,
,3,3,3,6,0,3,13,,train_dim1_1,17,30,,,,2,0,2,0,,,,,,,,,0,0,0,0,0,16,16,16,1,0,1,0,,,,,,,,,,,,,,,,,,,,,,,,,,,,,,,,,,,,,,,,,,,,,,,,,,,,,,,,,,,,,,,,30,,,,,,,,3448.126582900062,3448.126582900062,3448.126582900062,3448.126582900062,3448.126582900062,,,,,up,0.40963850007392466,11,0,0,99,0.08,0.0,up,0.3266350000631064,,,,,,,,,,,,,,,,,,,,,,,,,,,,,,,,,,,,,,,,,,,,,,,,,,,,,,,,R7Z1Z2 ,train_y,red_square,bottom_left,2025-02-14_17h10.53.421,HideSeek_v1,2022.2.5,59.87780140043574,
,3,3,3,6,0,3,13,,train_dim1_1,17,30,,,,2,0,2,0,,,,,,,,,0,0,0,0,0,16,16,16,2,0,2,0,,,,,,,,,,,,,,,,,,,,,,,,,,,,,,,,,,,,,,,,,,,,,,,,,,,,,,,,,,,,,,,,30,,,,,,,,3448.5429239999503,3448.5429239999503,3448.5429239999503,3448.5429239999503,3448.5429239999503,,,,,up,0.4101957001257688,11,0,0,99,0.08,0.08,up,0.32755439984612167,,,,,,,,,,,,,,,,,,,,,,,,,,,,,,,,,,,,,,,,,,,,,,,,,,,,,,,,R7Z1Z2 ,train_y,red_square,bottom_left,2025-02-14_17h10.53.421,HideSeek_v1,2022.2.5,59.87780140043574,
,3,3,3,6,0,3,13,,train_dim1_1,17,30,,,,2,0,2,0,,,,,,,,,0,0,0,0,0,16,16,16,3,0,3,0,,,,,,,,,,,,,,,,,,,,,,,,,,,,,,,,,,,,,,,,,,,,,,,,,,,,,,,,,,,,,,,,30,,,,,,,,3448.9608624000102,3448.9608624000102,3448.9608624000102,3448.9608624000102,3448.9608624000102,42,0,0.08,0.08,return,0.5436346000060439,12,0,0,1,0.08,0.08,return,0.45958319981582463,,,,,,,,,,,,,,,,,,,,,,,,,,,,,,,,,,,,,,,,,,,,,,,,,,,,,,,,R7Z1Z2 ,train_y,red_square,bottom_left,2025-02-14_17h10.53.421,HideSeek_v1,2022.2.5,59.87780140043574,
,2,1,2,6,0,5,11,,train_dim1_1,18,30,,,,2,0,2,0,,,,,,,,,0,0,0,0,0,17,17,17,0,0,0,0,,,,,,,,,,,,,,,,,,,,,,,,,stimuli/alien_stimuli/11.png,,,,,,,,,,,,,,,,,,,,,,,,,,,,,stimuli/alien_stimuli/13.png,13,3,19,,,,,,,30,,,,,,,,3453.4693483000156,3453.4693483000156,3453.4693483000156,3453.4693483000156,3453.4693483000156,,,,,up,1.2062392998486757,12,0,0,99,0,-0.24,up,1.1175753998104483,3451.9130049999803,3453.4693483000156,0.08,0.08,0.24,0.0,-0.04,0.08,0.08,0.08,0.08,3451.0593807999976,3451.0593807999976,3451.0593807999976,3451.0593807999976,3451.0593807999976,3451.0593807999976,3451.0593807999976,3451.0593807999976,3451.0456318000797,0.9529881000053138,return,0.8222856998909265,,,,,,,,,,,,,,,,,,,,,,,,,,,,,,,,,R7Z1Z2 ,train_y,red_square,bottom_left,2025-02-14_17h10.53.421,HideSeek_v1,2022.2.5,59.87780140043574,
,2,1,2,6,0,5,11,,train_dim1_1,18,30,,,,2,0,2,0,,,,,,,,,0,0,0,0,0,17,17,17,1,0,1,0,,,,,,,,,,,,,,,,,,,,,,,,,,,,,,,,,,,,,,,,,,,,,,,,,,,,,,,,,,,,,,,,30,,,,,,,,3454.6824449000414,3454.6824449000414,3454.6824449000414,3454.6824449000414,3454.6824449000414,,,,,up,0.42593919998034835,12,0,0,99,0,-0.15999999999999998,up,0.33726519998162985,,,,,,,,,,,,,,,,,,,,,,,,,,,,,,,,,,,,,,,,,,,,,,,,,,,,,,,,R7Z1Z2 ,train_y,red_square,bottom_left,2025-02-14_17h10.53.421,HideSeek_v1,2022.2.5,59.87780140043574,
,2,1,2,6,0,5,11,,train_dim1_1,18,30,,,,2,0,2,0,,,,,,,,,0,0,0,0,0,17,17,17,2,0,2,0,,,,,,,,,,,,,,,,,,,,,,,,,,,,,,,,,,,,,,,,,,,,,,,,,,,,,,,,,,,,,,,,30,,,,,,,,3455.1158278000075,3455.1158278000075,3455.1158278000075,3455.1158278000075,3455.1158278000075,,,,,up,0.4268189000431448,12,0,0,99,0,-0.07999999999999997,up,0.3494234997779131,,,,,,,,,,,,,,,,,,,,,,,,,,,,,,,,,,,,,,,,,,,,,,,,,,,,,,,,R7Z1Z2 ,train_y,red_square,bottom_left,2025-02-14_17h10.53.421,HideSeek_v1,2022.2.5,59.87780140043574,
,2,1,2,6,0,5,11,,train_dim1_1,18,30,,,,2,0,2,0,,,,,,,,,0,0,0,0,0,17,17,17,3,0,3,0,,,,,,,,,,,,,,,,,,,,,,,,,,,,,,,,,,,,,,,,,,,,,,,,,,,,,,,,,,,,,,,,30,,,,,,,,3455.5492255999707,3455.5492255999707,3455.5492255999707,3455.5492255999707,3455.5492255999707,,,,,up,0.527348600095138,12,0,0,99,0,2.7755575615628914e-17,up,0.4460241999477148,,,,,,,,,,,,,,,,,,,,,,,,,,,,,,,,,,,,,,,,,,,,,,,,,,,,,,,,R7Z1Z2 ,train_y,red_square,bottom_left,2025-02-14_17h10.53.421,HideSeek_v1,2022.2.5,59.87780140043574,
,2,1,2,6,0,5,11,,train_dim1_1,18,30,,,,2,0,2,0,,,,,,,,,0,0,0,0,0,17,17,17,4,0,4,0,,,,,,,,,,,,,,,,,,,,,,,,,,,,,,,,,,,,,,,,,,,,,,,,,,,,,,,,,,,,,,,,30,,,,,,,,3456.084171799943,3456.084171799943,3456.084171799943,3456.084171799943,3456.084171799943,,,,,up,0.5595531000290066,12,0,0,99,0,0.08000000000000003,up,0.46781280008144677,,,,,,,,,,,,,,,,,,,,,,,,,,,,,,,,,,,,,,,,,,,,,,,,,,,,,,,,R7Z1Z2 ,train_y,red_square,bottom_left,2025-02-14_17h10.53.421,HideSeek_v1,2022.2.5,59.87780140043574,
,2,1,2,6,0,5,11,,train_dim1_1,18,30,,,,2,0,2,0,,,,,,,,,0,0,0,0,0,17,17,17,5,0,5,0,,,,,,,,,,,,,,,,,,,,,,,,,,,,,,,,,,,,,,,,,,,,,,,,,,,,,,,,,,,,,,,,30,,,,,,,,3456.649710699916,3456.649710699916,3456.649710699916,3456.649710699916,3456.649710699916,47,0,0,0.08000000000000003,return,0.6938233999535441,13,0,0,1,0,0.08000000000000003,return,0.6049955000635237,,,,,,,,,,,,,,,,,,,,,,,,,,,,,,,,,,,,,,,,,,,,,,,,,,,,,,,,R7Z1Z2 ,train_y,red_square,bottom_left,2025-02-14_17h10.53.421,HideSeek_v1,2022.2.5,59.87780140043574,
,0,4,0,8,0,4,12,,train_dim1_1,19,30,,,,2,0,2,0,,,,,,,,,0,0,0,0,0,18,18,18,0,0,0,0,,,,,,,,,,,,,,,,,,,,,,,,,stimuli/alien_stimuli/12.png,,,,,,,,,,,,,,,,,,,,,,,,,,,,,stimuli/alien_stimuli/11.png,11,2,20,,,,,,,30,,,,,,,,3461.417162500089,3461.417162500089,3461.417162500089,3461.417162500089,3461.417162500089,,,,,up,1.0986408998724073,13,0,0,99,-0.16,0.0,up,1.0170774997677654,3459.853263200028,3461.417162500089,0,0.08,0.4,0.0,-0.12,0,0.0,0,0.08,3458.8986247000284,3458.8986247000284,3458.8986247000284,3458.8986247000284,3458.8986247000284,3458.8986247000284,3458.8986247000284,3458.8986247000284,3458.885541399941,1.0530878999270499,return,0.9228838998824358,,,,,,,,,,,,,,,,,,,,,,,,,,,,,,,,,R7Z1Z2 ,train_y,red_square,bottom_left,2025-02-14_17h10.53.421,HideSeek_v1,2022.2.5,59.87780140043574,
,0,4,0,8,0,4,12,,train_dim1_1,19,30,,,,2,0,2,0,,,,,,,,,0,0,0,0,0,18,18,18,1,0,1,0,,,,,,,,,,,,,,,,,,,,,,,,,,,,,,,,,,,,,,,,,,,,,,,,,,,,,,,,,,,,,,,,30,,,,,,,,3462.5227018999867,3462.5227018999867,3462.5227018999867,3462.5227018999867,3462.5227018999867,,,,,up,0.42609980003908277,13,0,0,99,-0.16,0.08,up,0.34846609993837774,,,,,,,,,,,,,,,,,,,,,,,,,,,,,,,,,,,,,,,,,,,,,,,,,,,,,,,,R7Z1Z2 ,train_y,red_square,bottom_left,2025-02-14_17h10.53.421,HideSeek_v1,2022.2.5,59.87780140043574,
,0,4,0,8,0,4,12,,train_dim1_1,19,30,,,,2,0,2,0,,,,,,,,,0,0,0,0,0,18,18,18,2,0,2,0,,,,,,,,,,,,,,,,,,,,,,,,,,,,,,,,,,,,,,,,,,,,,,,,,,,,,,,,,,,,,,,,30,,,,,,,,3462.95620330004,3462.95620330004,3462.95620330004,3462.95620330004,3462.95620330004,,,,,up,0.3767746000085026,13,0,0,99,-0.16,0.16,up,0.29919149982742965,,,,,,,,,,,,,,,,,,,,,,,,,,,,,,,,,,,,,,,,,,,,,,,,,,,,,,,,R7Z1Z2 ,train_y,red_square,bottom_left,2025-02-14_17h10.53.421,HideSeek_v1,2022.2.5,59.87780140043574,
,0,4,0,8,0,4,12,,train_dim1_1,19,30,,,,2,0,2,0,,,,,,,,,0,0,0,0,0,18,18,18,3,0,3,0,,,,,,,,,,,,,,,,,,,,,,,,,,,,,,,,,,,,,,,,,,,,,,,,,,,,,,,,,,,,,,,,30,,,,,,,,3463.3393846000545,3463.3393846000545,3463.3393846000545,3463.3393846000545,3463.3393846000545,,,,,up,0.3767565998714417,13,0,0,99,-0.16,0.24,up,0.2904173999559134,,,,,,,,,,,,,,,,,,,,,,,,,,,,,,,,,,,,,,,,,,,,,,,,,,,,,,,,R7Z1Z2 ,train_y,red_square,bottom_left,2025-02-14_17h10.53.421,HideSeek_v1,2022.2.5,59.87780140043574,
,0,4,0,8,0,4,12,,train_dim1_1,19,30,,,,2,0,2,0,,,,,,,,,0,0,0,0,0,18,18,18,4,0,4,0,,,,,,,,,,,,,,,,,,,,,,,,,,,,,,,,,,,,,,,,,,,,,,,,,,,,,,,,,,,,,,,,30,,,,,,,,3463.723646200029,3463.723646200029,3463.723646200029,3463.723646200029,3463.723646200029,51,0,-0.16,0.24,return,0.5271167999599129,14,0,0,1,-0.16,0.24,return,0.4353337998036295,,,,,,,,,,,,,,,,,,,,,,,,,,,,,,,,,,,,,,,,,,,,,,,,,,,,,,,,R7Z1Z2 ,train_y,red_square,bottom_left,2025-02-14_17h10.53.421,HideSeek_v1,2022.2.5,59.87780140043574,
,2,0,2,0,0,0,16,,train_dim1_1,20,30,,,,2,0,2,0,,,,,,,,,0,0,0,0,0,19,19,19,0,0,0,0,,,,,,,,,,,,,,,,,,,,,,,,,stimuli/alien_stimuli/16.png,,,,,,,,,,,,,,,,,,,,,,,,,,,,,stimuli/alien_stimuli/12.png,12,0,21,,,,,,,30,,,,,,,,3468.164283399936,3468.164283399936,3468.164283399936,3468.164283399936,3468.164283399936,51,0,0,-0.4,return,1.5392959001474082,15,0,0,1,0,-0.4,return,1.4529603999108076,3466.608741400065,3468.164283399936,-0.16,0.24,0.32,0.0,0.07999999999999999,-0.16,-0.16,-0.16,0.24,3465.8041499000974,3465.8041499000974,3465.8041499000974,3465.8041499000974,3465.8041499000974,3465.8041499000974,3465.8041499000974,3465.8041499000974,3465.791259099962,0.9029195001348853,return,0.7816423999611288,,,,,,,,,,,,,,,,,,,,,,,,,,,,,,,,,R7Z1Z2 ,train_y,red_square,bottom_left,2025-02-14_17h10.53.421,HideSeek_v1,2022.2.5,59.87780140043574,
,2,4,2,5,0,1,15,,train_dim1_1,21,30,,,,2,0,2,0,,,,,,,,,0,0,0,0,0,20,20,20,0,0,0,0,,,,,,,,,,,,,,,,,,,,,,,,,stimuli/alien_stimuli/15.png,,,,,,,,,,,,,,,,,,,,,,,,,,,,,stimuli/alien_stimuli/16.png,16,2,22,,,,,,,30,,,,,,,,3473.7373681999743,3473.7373681999743,3473.7373681999743,3473.7373681999743,3473.7373681999743,,,,,up,1.3550162999890745,15,0,0,99,0,0.0,up,1.2742067999206483,3472.1797660000157,3473.7373681999743,0,-0.4,0.0,0.0,-0.4,0,0.0,0,-0.4,3471.2585438999813,3471.2585438999813,3471.2585438999813,3471.2585438999813,3471.2585438999813,3471.2585438999813,3471.2585438999813,3471.2585438999813,3471.2459823000245,1.0193008000496775,return,0.8964380996767431,,,,,,,,,,,,,,,,,,,,,,,,,,,,,,,,,R7Z1Z2 ,train_y,red_square,bottom_left,2025-02-14_17h10.53.421,HideSeek_v1,2022.2.5,59.87780140043574,
,2,4,2,5,0,1,15,,train_dim1_1,21,30,,,,2,0,2,0,,,,,,,,,0,0,0,0,0,20,20,20,1,0,1,0,,,,,,,,,,,,,,,,,,,,,,,,,,,,,,,,,,,,,,,,,,,,,,,,,,,,,,,,,,,,,,,,30,,,,,,,,3475.1000334001146,3475.1000334001146,3475.1000334001146,3475.1000334001146,3475.1000334001146,52,0,0,0.0,return,0.4763247000519186,16,0,0,1,0,0.0,return,0.39235099987126887,,,,,,,,,,,,,,,,,,,,,,,,,,,,,,,,,,,,,,,,,,,,,,,,,,,,,,,,R7Z1Z2 ,train_y,red_square,bottom_left,2025-02-14_17h10.53.421,HideSeek_v1,2022.2.5,59.87780140043574,
,0,2,0,5,0,3,13,,train_dim1_1,22,30,,,,2,0,2,0,,,,,,,,,0,0,0,0,0,21,21,21,0,0,0,0,,,,,,,,,,,,,,,,,,,,,,,,,stimuli/alien_stimuli/13.png,,,,,,,,,,,,,,,,,,,,,,,,,,,,,stimuli/alien_stimuli/15.png,15,2,23,,,,,,,30,,,,,,,,3479.692118699895,3479.692118699895,3479.692118699895,3479.692118699895,3479.692118699895,,,,,up,1.3711183001287282,16,0,0,99,-0.16,-0.15999999999999998,up,1.2936224997974932,3478.1346565000713,3479.692118699895,0,0,0.08,0.0,-0.04,0,0.0,0,0,3477.130933600012,3477.130933600012,3477.130933600012,3477.130933600012,3477.130933600012,3477.130933600012,3477.130933600012,3477.130933600012,3477.117229500087,1.1030445999931544,return,0.9830890998709947,,,,,,,,,,,,,,,,,,,,,,,,,,,,,,,,,R7Z1Z2 ,train_y,red_square,bottom_left,2025-02-14_17h10.53.421,HideSeek_v1,2022.2.5,59.87780140043574,
,0,2,0,5,0,3,13,,train_dim1_1,22,30,,,,2,0,2,0,,,,,,,,,0,0,0,0,0,21,21,21,1,0,1,0,,,,,,,,,,,,,,,,,,,,,,,,,,,,,,,,,,,,,,,,,,,,,,,,,,,,,,,,,,,,,,,,30,,,,,,,,3481.07083280012,3481.07083280012,3481.07083280012,3481.07083280012,3481.07083280012,,,,,up,0.4262226999271661,16,0,0,99,-0.16,-0.07999999999999997,up,0.34577519982121885,,,,,,,,,,,,,,,,,,,,,,,,,,,,,,,,,,,,,,,,,,,,,,,,,,,,,,,,R7Z1Z2 ,train_y,red_square,bottom_left,2025-02-14_17h10.53.421,HideSeek_v1,2022.2.5,59.87780140043574,
,0,2,0,5,0,3,13,,train_dim1_1,22,30,,,,2,0,2,0,,,,,,,,,0,0,0,0,0,21,21,21,2,0,2,0,,,,,,,,,,,,,,,,,,,,,,,,,,,,,,,,,,,,,,,,,,,,,,,,,,,,,,,,,,,,,,,,30,,,,,,,,3481.50290569989,3481.50290569989,3481.50290569989,3481.50290569989,3481.50290569989,,,,,up,0.359853999922052,16,0,0,99,-0.16,2.7755575615628914e-17,up,0.2706103997770697,,,,,,,,,,,,,,,,,,,,,,,,,,,,,,,,,,,,,,,,,,,,,,,,,,,,,,,,R7Z1Z2 ,train_y,red_square,bottom_left,2025-02-14_17h10.53.421,HideSeek_v1,2022.2.5,59.87780140043574,
,0,2,0,5,0,3,13,,train_dim1_1,22,30,,,,2,0,2,0,,,,,,,,,0,0,0,0,0,21,21,21,3,0,3,0,,,,,,,,,,,,,,,,,,,,,,,,,,,,,,,,,,,,,,,,,,,,,,,,,,,,,,,,,,,,,,,,30,,,,,,,,3481.8707089999225,3481.8707089999225,3481.8707089999225,3481.8707089999225,3481.8707089999225,55,0,-0.16,2.7755575615628914e-17,return,0.5937905998434871,17,0,0,1,-0.16,2.7755575615628914e-17,return,0.5153035998810083,,,,,,,,,,,,,,,,,,,,,,,,,,,,,,,,,,,,,,,,,,,,,,,,,,,,,,,,R7Z1Z2 ,train_y,red_square,bottom_left,2025-02-14_17h10.53.421,HideSeek_v1,2022.2.5,59.87780140043574,
,0,3,0,8,0,5,11,,train_dim1_1,23,30,,,,2,0,2,0,,,,,,,,,0,0,0,0,0,22,22,22,0,0,0,0,,,,,,,,,,,,,,,,,,,,,,,,,stimuli/alien_stimuli/11.png,,,,,,,,,,,,,,,,,,,,,,,,,,,,,stimuli/alien_stimuli/13.png,13,0,24,,,,,,,30,,,,,,,,3486.6158666999545,3486.6158666999545,3486.6158666999545,3486.6158666999545,3486.6158666999545,,,,,up,1.6532091998960823,17,0,0,99,-0.16,-0.08,up,1.574024299858138,3485.057244000025,3486.6158666999545,-0.16,0,0.24,0.0,-0.12,-0.16,-0.16,-0.16,0,3484.0223735000473,3484.0223735000473,3484.0223735000473,3484.0223735000473,3484.0223735000473,3484.0223735000473,3484.0223735000473,3484.0223735000473,3484.0230861001182,1.1363349000457674,return,1.0046001998707652,,,,,,,,,,,,,,,,,,,,,,,,,,,,,,,,,R7Z1Z2 ,train_y,red_square,bottom_left,2025-02-14_17h10.53.421,HideSeek_v1,2022.2.5,59.87780140043574,
,0,3,0,8,0,5,11,,train_dim1_1,23,30,,,,2,0,2,0,,,,,,,,,0,0,0,0,0,22,22,22,1,0,1,0,,,,,,,,,,,,,,,,,,,,,,,,,,,,,,,,,,,,,,,,,,,,,,,,,,,,,,,,,,,,,,,,30,,,,,,,,3488.2763606000226,3488.2763606000226,3488.2763606000226,3488.2763606000226,3488.2763606000226,,,,,up,0.49305410007946193,17,0,0,99,-0.16,0.0,up,0.40741979982703924,,,,,,,,,,,,,,,,,,,,,,,,,,,,,,,,,,,,,,,,,,,,,,,,,,,,,,,,R7Z1Z2 ,train_y,red_square,bottom_left,2025-02-14_17h10.53.421,HideSeek_v1,2022.2.5,59.87780140043574,
,0,3,0,8,0,5,11,,train_dim1_1,23,30,,,,2,0,2,0,,,,,,,,,0,0,0,0,0,22,22,22,2,0,2,0,,,,,,,,,,,,,,,,,,,,,,,,,,,,,,,,,,,,,,,,,,,,,,,,,,,,,,,,,,,,,,,,30,,,,,,,,3488.7767177999485,3488.7767177999485,3488.7767177999485,3488.7767177999485,3488.7767177999485,,,,,up,0.4103294999804348,17,0,0,99,-0.16,0.08,up,0.3274950999766588,,,,,,,,,,,,,,,,,,,,,,,,,,,,,,,,,,,,,,,,,,,,,,,,,,,,,,,,R7Z1Z2 ,train_y,red_square,bottom_left,2025-02-14_17h10.53.421,HideSeek_v1,2022.2.5,59.87780140043574,
,0,3,0,8,0,5,11,,train_dim1_1,23,30,,,,2,0,2,0,,,,,,,,,0,0,0,0,0,22,22,22,3,0,3,0,,,,,,,,,,,,,,,,,,,,,,,,,,,,,,,,,,,,,,,,,,,,,,,,,,,,,,,,,,,,,,,,30,,,,,,,,3489.193700700067,3489.193700700067,3489.193700700067,3489.193700700067,3489.193700700067,,,,,up,0.39347130013629794,17,0,0,99,-0.16,0.16,up,0.317070699762553,,,,,,,,,,,,,,,,,,,,,,,,,,,,,,,,,,,,,,,,,,,,,,,,,,,,,,,,R7Z1Z2 ,train_y,red_square,bottom_left,2025-02-14_17h10.53.421,HideSeek_v1,2022.2.5,59.87780140043574,
,0,3,0,8,0,5,11,,train_dim1_1,23,30,,,,2,0,2,0,,,,,,,,,0,0,0,0,0,22,22,22,4,0,4,0,,,,,,,,,,,,,,,,,,,,,,,,,,,,,,,,,,,,,,,,,,,,,,,,,,,,,,,,,,,,,,,,30,,,,,,,,3489.593932900112,3489.593932900112,3489.593932900112,3489.593932900112,3489.593932900112,,,,,up,0.3935940000228584,17,0,0,99,-0.16,0.24,up,0.3155471996869892,,,,,,,,,,,,,,,,,,,,,,,,,,,,,,,,,,,,,,,,,,,,,,,,,,,,,,,,R7Z1Z2 ,train_y,red_square,bottom_left,2025-02-14_17h10.53.421,HideSeek_v1,2022.2.5,59.87780140043574,
,0,3,0,8,0,5,11,,train_dim1_1,23,30,,,,2,0,2,0,,,,,,,,,0,0,0,0,0,22,22,22,5,0,5,0,,,,,,,,,,,,,,,,,,,,,,,,,,,,,,,,,,,,,,,,,,,,,,,,,,,,,,,,,,,,,,,,30,,,,,,,,3489.9940061001107,3489.9940061001107,3489.9940061001107,3489.9940061001107,3489.9940061001107,60,0,-0.16,0.24,return,0.6269981998484582,18,0,0,1,-0.16,0.24,return,0.5490345999132842,,,,,,,,,,,,,,,,,,,,,,,,,,,,,,,,,,,,,,,,,,,,,,,,,,,,,,,,R7Z1Z2 ,train_y,red_square,bottom_left,2025-02-14_17h10.53.421,HideSeek_v1,2022.2.5,59.87780140043574,
,3,2,3,2,0,0,16,,train_dim1_1,24,30,,,,2,0,2,0,,,,,,,,,0,0,0,0,0,23,23,23,0,0,0,0,,,,,,,,,,,,,,,,,,,,,,,,,stimuli/alien_stimuli/16.png,,,,,,,,,,,,,,,,,,,,,,,,,,,,,stimuli/alien_stimuli/11.png,11,0,25,,,,,,,30,,,,,,,,3494.658727800008,3494.658727800008,3494.658727800008,3494.658727800008,3494.658727800008,60,0,0.08,-0.24,return,1.467178300023079,19,0,0,1,0.08,-0.24,return,1.3894358999095857,3493.097071999917,3494.658727800008,-0.16,0.24,0.4,0.0,0.039999999999999994,-0.16,-0.16,-0.16,0.24,3492.176376899937,3492.176376899937,3492.176376899937,3492.176376899937,3492.176376899937,3492.176376899937,3492.176376899937,3492.176376899937,3492.1630943999626,1.01972800004296,return,0.8953464997466654,,,,,,,,,,,,,,,,,,,,,,,,,,,,,,,,,R7Z1Z2 ,train_y,red_square,bottom_left,2025-02-14_17h10.53.421,HideSeek_v1,2022.2.5,59.87780140043574,
,3,3,3,7,0,4,12,,train_dim1_1,25,30,,,,2,0,2,0,,,,,,,,,0,0,0,0,0,24,24,24,0,0,0,0,,,,,,,,,,,,,,,,,,,,,,,,,stimuli/alien_stimuli/12.png,,,,,,,,,,,,,,,,,,,,,,,,,,,,,stimuli/alien_stimuli/16.png,16,3,26,,,,,,,30,,,,,,,,3499.892480300041,3499.892480300041,3499.892480300041,3499.892480300041,3499.892480300041,,,,,up,0.8876470001414418,19,0,0,99,0.08,-0.08,up,0.8044122999999672,3498.334834499983,3499.892480300041,0.08,-0.24,0.0,0.0,-0.24,0.08,0.08,0.08,-0.24,3497.682696700096,3497.682696700096,3497.682696700096,3497.682696700096,3497.682696700096,3497.682696700096,3497.682696700096,3497.682696700096,3497.6844150999095,0.752321399981156,return,0.6289687999524176,,,,,,,,,,,,,,,,,,,,,,,,,,,,,,,,,R7Z1Z2 ,train_y,red_square,bottom_left,2025-02-14_17h10.53.421,HideSeek_v1,2022.2.5,59.87780140043574,
,3,3,3,7,0,4,12,,train_dim1_1,25,30,,,,2,0,2,0,,,,,,,,,0,0,0,0,0,24,24,24,1,0,1,0,,,,,,,,,,,,,,,,,,,,,,,,,,,,,,,,,,,,,,,,,,,,,,,,,,,,,,,,,,,,,,,,30,,,,,,,,3500.7880065999925,3500.7880065999925,3500.7880065999925,3500.7880065999925,3500.7880065999925,,,,,up,0.45974439987912774,19,0,0,99,0.08,0.0,up,0.3669196998234838,,,,,,,,,,,,,,,,,,,,,,,,,,,,,,,,,,,,,,,,,,,,,,,,,,,,,,,,R7Z1Z2 ,train_y,red_square,bottom_left,2025-02-14_17h10.53.421,HideSeek_v1,2022.2.5,59.87780140043574,
,3,3,3,7,0,4,12,,train_dim1_1,25,30,,,,2,0,2,0,,,,,,,,,0,0,0,0,0,24,24,24,2,0,2,0,,,,,,,,,,,,,,,,,,,,,,,,,,,,,,,,,,,,,,,,,,,,,,,,,,,,,,,,,,,,,,,,30,,,,,,,,3501.254485799931,3501.254485799931,3501.254485799931,3501.254485799931,3501.254485799931,,,,,up,0.5101429000496864,19,0,0,99,0.08,0.08,up,0.41990669979713857,,,,,,,,,,,,,,,,,,,,,,,,,,,,,,,,,,,,,,,,,,,,,,,,,,,,,,,,R7Z1Z2 ,train_y,red_square,bottom_left,2025-02-14_17h10.53.421,HideSeek_v1,2022.2.5,59.87780140043574,
,3,3,3,7,0,4,12,,train_dim1_1,25,30,,,,2,0,2,0,,,,,,,,,0,0,0,0,0,24,24,24,3,0,3,0,,,,,,,,,,,,,,,,,,,,,,,,,,,,,,,,,,,,,,,,,,,,,,,,,,,,,,,,,,,,,,,,30,,,,,,,,3501.7716246999335,3501.7716246999335,3501.7716246999335,3501.7716246999335,3501.7716246999335,,,,,up,0.39325409987941384,19,0,0,99,0.08,0.16,up,0.3116933999117464,,,,,,,,,,,,,,,,,,,,,,,,,,,,,,,,,,,,,,,,,,,,,,,,,,,,,,,,R7Z1Z2 ,train_y,red_square,bottom_left,2025-02-14_17h10.53.421,HideSeek_v1,2022.2.5,59.87780140043574,
,3,3,3,7,0,4,12,,train_dim1_1,25,30,,,,2,0,2,0,,,,,,,,,0,0,0,0,0,24,24,24,4,0,4,0,,,,,,,,,,,,,,,,,,,,,,,,,,,,,,,,,,,,,,,,,,,,,,,,,,,,,,,,,,,,,,,,30,,,,,,,,3502.1716561999638,3502.1716561999638,3502.1716561999638,3502.1716561999638,3502.1716561999638,64,0,0.08,0.16,return,0.5271910999435931,20,0,0,1,0.08,0.16,return,0.4381925999186933,,,,,,,,,,,,,,,,,,,,,,,,,,,,,,,,,,,,,,,,,,,,,,,,,,,,,,,,R7Z1Z2 ,train_y,red_square,bottom_left,2025-02-14_17h10.53.421,HideSeek_v1,2022.2.5,59.87780140043574,
,4,4,4,7,0,3,13,,train_dim1_1,26,30,,,,2,0,2,0,,,,,,,,,0,0,0,0,0,25,25,25,0,0,0,0,,,,,,,,,,,,,,,,,,,,,,,,,stimuli/alien_stimuli/13.png,,,,,,,,,,,,,,,,,,,,,,,,,,,,,stimuli/alien_stimuli/12.png,12,3,27,,,,,,,30,,,,,,,,3506.71321419999,3506.71321419999,3506.71321419999,3506.71321419999,3506.71321419999,,,,,up,0.9046434999909252,20,0,0,99,0.16,0.0,up,0.8264844997320324,3505.157109099906,3506.71321419999,0.08,0.16,0.32,0.0,0.0,0.08,0.08,0.08,0.16,3504.256554099964,3504.256554099964,3504.256554099964,3504.256554099964,3504.256554099964,3504.256554099964,3504.256554099964,3504.256554099964,3504.2563982000574,1.002705599879846,return,0.877333999844268,,,,,,,,,,,,,,,,,,,,,,,,,,,,,,,,,R7Z1Z2 ,train_y,red_square,bottom_left,2025-02-14_17h10.53.421,HideSeek_v1,2022.2.5,59.87780140043574,
,4,4,4,7,0,3,13,,train_dim1_1,26,30,,,,2,0,2,0,,,,,,,,,0,0,0,0,0,25,25,25,1,0,1,0,,,,,,,,,,,,,,,,,,,,,,,,,,,,,,,,,,,,,,,,,,,,,,,,,,,,,,,,,,,,,,,,30,,,,,,,,3507.6256772999186,3507.6256772999186,3507.6256772999186,3507.6256772999186,3507.6256772999186,,,,,up,0.4431400999892503,20,0,0,99,0.16,0.08,up,0.35627819993533194,,,,,,,,,,,,,,,,,,,,,,,,,,,,,,,,,,,,,,,,,,,,,,,,,,,,,,,,R7Z1Z2 ,train_y,red_square,bottom_left,2025-02-14_17h10.53.421,HideSeek_v1,2022.2.5,59.87780140043574,
,4,4,4,7,0,3,13,,train_dim1_1,26,30,,,,2,0,2,0,,,,,,,,,0,0,0,0,0,25,25,25,2,0,2,0,,,,,,,,,,,,,,,,,,,,,,,,,,,,,,,,,,,,,,,,,,,,,,,,,,,,,,,,,,,,,,,,30,,,,,,,,3508.0771027000155,3508.0771027000155,3508.0771027000155,3508.0771027000155,3508.0771027000155,,,,,up,0.39255880005657673,20,0,0,99,0.16,0.16,up,0.3120879998896271,,,,,,,,,,,,,,,,,,,,,,,,,,,,,,,,,,,,,,,,,,,,,,,,,,,,,,,,R7Z1Z2 ,train_y,red_square,bottom_left,2025-02-14_17h10.53.421,HideSeek_v1,2022.2.5,59.87780140043574,
,4,4,4,7,0,3,13,,train_dim1_1,26,30,,,,2,0,2,0,,,,,,,,,0,0,0,0,0,25,25,25,3,0,3,0,,,,,,,,,,,,,,,,,,,,,,,,,,,,,,,,,,,,,,,,,,,,,,,,,,,,,,,,,,,,,,,,30,,,,,,,,3508.4762778999284,3508.4762778999284,3508.4762778999284,3508.4762778999284,3508.4762778999284,67,0,0.16,0.16,return,0.4932026001624763,21,0,0,1,0.16,0.16,return,0.41675589978694916,,,,,,,,,,,,,,,,,,,,,,,,,,,,,,,,,,,,,,,,,,,,,,,,,,,,,,,,R7Z1Z2 ,train_y,red_square,bottom_left,2025-02-14_17h10.53.421,HideSeek_v1,2022.2.5,59.87780140043574,
,3,4,3,4,0,0,16,,train_dim1_1,27,30,,,,2,0,2,0,,,,,,,,,0,0,0,0,0,26,26,26,0,0,0,0,,,,,,,,,,,,,,,,,,,,,,,,,stimuli/alien_stimuli/16.png,,,,,,,,,,,,,,,,,,,,,,,,,,,,,stimuli/alien_stimuli/13.png,13,4,28,,,,,,,30,,,,,,,,3512.8324319999665,3512.8324319999665,3512.8324319999665,3512.8324319999665,3512.8324319999665,67,0,0.08,-0.08,return,1.207236000103876,22,0,0,1,0.08,-0.08,return,1.127495399909094,3511.2787589000072,3512.8324319999665,0.16,0.16,0.24,0.0,0.04,0.16,0.16,0.16,0.16,3510.524609999964,3510.524609999964,3510.524609999964,3510.524609999964,3510.524609999964,3510.524609999964,3510.524609999964,3510.524609999964,3510.5114404999185,0.8530852000694722,return,0.737876599887386,,,,,,,,,,,,,,,,,,,,,,,,,,,,,,,,,R7Z1Z2 ,train_y,red_square,bottom_left,2025-02-14_17h10.53.421,HideSeek_v1,2022.2.5,59.87780140043574,
,4,1,4,6,0,5,11,,train_dim1_1,28,30,,,,2,0,2,0,,,,,,,,,0,0,0,0,0,27,27,27,0,0,0,0,,,,,,,,,,,,,,,,,,,,,,,,,stimuli/alien_stimuli/11.png,,,,,,,,,,,,,,,,,,,,,,,,,,,,,stimuli/alien_stimuli/16.png,16,3,29,,,,,,,30,,,,,,,,3517.9227213000413,3517.9227213000413,3517.9227213000413,3517.9227213000413,3517.9227213000413,,,,,up,0.9048720998689532,22,0,0,99,0.16,-0.24,up,0.816193199949339,3516.366611999925,3517.9227213000413,0.08,-0.08,0.0,0.0,-0.08,0.08,0.08,0.08,-0.08,3515.6004145999905,3515.6004145999905,3515.6004145999905,3515.6004145999905,3515.6004145999905,3515.6004145999905,3515.6004145999905,3515.6004145999905,3515.5991340000182,0.8697305000387132,return,0.7339172000065446,,,,,,,,,,,,,,,,,,,,,,,,,,,,,,,,,R7Z1Z2 ,train_y,red_square,bottom_left,2025-02-14_17h10.53.421,HideSeek_v1,2022.2.5,59.87780140043574,
,4,1,4,6,0,5,11,,train_dim1_1,28,30,,,,2,0,2,0,,,,,,,,,0,0,0,0,0,27,27,27,1,0,1,0,,,,,,,,,,,,,,,,,,,,,,,,,,,,,,,,,,,,,,,,,,,,,,,,,,,,,,,,,,,,,,,,30,,,,,,,,3518.836030300008,3518.836030300008,3518.836030300008,3518.836030300008,3518.836030300008,,,,,up,0.3764426000416279,22,0,0,99,0.16,-0.15999999999999998,up,0.29904389986768365,,,,,,,,,,,,,,,,,,,,,,,,,,,,,,,,,,,,,,,,,,,,,,,,,,,,,,,,R7Z1Z2 ,train_y,red_square,bottom_left,2025-02-14_17h10.53.421,HideSeek_v1,2022.2.5,59.87780140043574,
,4,1,4,6,0,5,11,,train_dim1_1,28,30,,,,2,0,2,0,,,,,,,,,0,0,0,0,0,27,27,27,2,0,2,0,,,,,,,,,,,,,,,,,,,,,,,,,,,,,,,,,,,,,,,,,,,,,,,,,,,,,,,,,,,,,,,,30,,,,,,,,3519.218813000014,3519.218813000014,3519.218813000014,3519.218813000014,3519.218813000014,,,,,up,0.4433965999633074,22,0,0,99,0.16,-0.07999999999999997,up,0.35144719993695617,,,,,,,,,,,,,,,,,,,,,,,,,,,,,,,,,,,,,,,,,,,,,,,,,,,,,,,,R7Z1Z2 ,train_y,red_square,bottom_left,2025-02-14_17h10.53.421,HideSeek_v1,2022.2.5,59.87780140043574,
,4,1,4,6,0,5,11,,train_dim1_1,28,30,,,,2,0,2,0,,,,,,,,,0,0,0,0,0,27,27,27,3,0,3,0,,,,,,,,,,,,,,,,,,,,,,,,,,,,,,,,,,,,,,,,,,,,,,,,,,,,,,,,,,,,,,,,30,,,,,,,,3519.669213199988,3519.669213199988,3519.669213199988,3519.669213199988,3519.669213199988,,,,,up,0.39340920001268387,22,0,0,99,0.16,2.7755575615628914e-17,up,0.31293619982898235,,,,,,,,,,,,,,,,,,,,,,,,,,,,,,,,,,,,,,,,,,,,,,,,,,,,,,,,R7Z1Z2 ,train_y,red_square,bottom_left,2025-02-14_17h10.53.421,HideSeek_v1,2022.2.5,59.87780140043574,
,4,1,4,6,0,5,11,,train_dim1_1,28,30,,,,2,0,2,0,,,,,,,,,0,0,0,0,0,27,27,27,4,0,4,0,,,,,,,,,,,,,,,,,,,,,,,,,,,,,,,,,,,,,,,,,,,,,,,,,,,,,,,,,,,,,,,,30,,,,,,,,3520.0694222999737,3520.0694222999737,3520.0694222999737,3520.0694222999737,3520.0694222999737,,,,,up,0.40982630010694265,22,0,0,99,0.16,0.08000000000000003,up,0.31832719990052283,,,,,,,,,,,,,,,,,,,,,,,,,,,,,,,,,,,,,,,,,,,,,,,,,,,,,,,,R7Z1Z2 ,train_y,red_square,bottom_left,2025-02-14_17h10.53.421,HideSeek_v1,2022.2.5,59.87780140043574,
,4,1,4,6,0,5,11,,train_dim1_1,28,30,,,,2,0,2,0,,,,,,,,,0,0,0,0,0,27,27,27,5,0,5,0,,,,,,,,,,,,,,,,,,,,,,,,,,,,,,,,,,,,,,,,,,,,,,,,,,,,,,,,,,,,,,,,30,,,,,,,,3520.486993599916,3520.486993599916,3520.486993599916,3520.486993599916,3520.486993599916,72,0,0.16,0.08000000000000003,return,0.4100858001038432,23,0,0,1,0.16,0.08000000000000003,return,0.32972509996034205,,,,,,,,,,,,,,,,,,,,,,,,,,,,,,,,,,,,,,,,,,,,,,,,,,,,,,,,R7Z1Z2 ,train_y,red_square,bottom_left,2025-02-14_17h10.53.421,HideSeek_v1,2022.2.5,59.87780140043574,
,2,2,2,6,0,4,12,,train_dim1_1,29,30,,,,2,0,2,0,,,,,,,,,0,0,0,0,0,28,28,28,0,0,0,0,,,,,,,,,,,,,,,,,,,,,,,,,stimuli/alien_stimuli/12.png,,,,,,,,,,,,,,,,,,,,,,,,,,,,,stimuli/alien_stimuli/11.png,11,4,30,,,,,,,30,,,,,,,,3525.0451861999463,3525.0451861999463,3525.0451861999463,3525.0451861999463,3525.0451861999463,,,,,up,0.9395573998335749,23,0,0,99,0,-0.15999999999999998,up,0.8625779000576586,3523.4894036999904,3525.0451861999463,0.16,0.08,0.4,0.0,-0.12,0.16,0.16,0.16,0.08,3522.451029899996,3522.451029899996,3522.451029899996,3522.451029899996,3522.451029899996,3522.451029899996,3522.451029899996,3522.451029899996,3522.438366699964,1.1362621998414397,return,1.0167016997002065,,,,,,,,,,,,,,,,,,,,,,,,,,,,,,,,,R7Z1Z2 ,train_y,red_square,bottom_left,2025-02-14_17h10.53.421,HideSeek_v1,2022.2.5,59.87780140043574,
,2,2,2,6,0,4,12,,train_dim1_1,29,30,,,,2,0,2,0,,,,,,,,,0,0,0,0,0,28,28,28,1,0,1,0,,,,,,,,,,,,,,,,,,,,,,,,,,,,,,,,,,,,,,,,,,,,,,,,,,,,,,,,,,,,,,,,30,,,,,,,,3525.992425699951,3525.992425699951,3525.992425699951,3525.992425699951,3525.992425699951,,,,,up,0.4930638000369072,23,0,0,99,0,-0.07999999999999997,up,0.40367929986678064,,,,,,,,,,,,,,,,,,,,,,,,,,,,,,,,,,,,,,,,,,,,,,,,,,,,,,,,R7Z1Z2 ,train_y,red_square,bottom_left,2025-02-14_17h10.53.421,HideSeek_v1,2022.2.5,59.87780140043574,
,2,2,2,6,0,4,12,,train_dim1_1,29,30,,,,2,0,2,0,,,,,,,,,0,0,0,0,0,28,28,28,2,0,2,0,,,,,,,,,,,,,,,,,,,,,,,,,,,,,,,,,,,,,,,,,,,,,,,,,,,,,,,,,,,,,,,,30,,,,,,,,3526.491945900023,3526.491945900023,3526.491945900023,3526.491945900023,3526.491945900023,,,,,up,0.40996229997836053,23,0,0,99,0,2.7755575615628914e-17,up,0.3188337997999042,,,,,,,,,,,,,,,,,,,,,,,,,,,,,,,,,,,,,,,,,,,,,,,,,,,,,,,,R7Z1Z2 ,train_y,red_square,bottom_left,2025-02-14_17h10.53.421,HideSeek_v1,2022.2.5,59.87780140043574,
,2,2,2,6,0,4,12,,train_dim1_1,29,30,,,,2,0,2,0,,,,,,,,,0,0,0,0,0,28,28,28,3,0,3,0,,,,,,,,,,,,,,,,,,,,,,,,,,,,,,,,,,,,,,,,,,,,,,,,,,,,,,,,,,,,,,,,30,,,,,,,,3526.9087388000917,3526.9087388000917,3526.9087388000917,3526.9087388000917,3526.9087388000917,,,,,up,0.4433200000785291,23,0,0,99,0,0.08000000000000003,up,0.3519800999201834,,,,,,,,,,,,,,,,,,,,,,,,,,,,,,,,,,,,,,,,,,,,,,,,,,,,,,,,R7Z1Z2 ,train_y,red_square,bottom_left,2025-02-14_17h10.53.421,HideSeek_v1,2022.2.5,59.87780140043574,
,2,2,2,6,0,4,12,,train_dim1_1,29,30,,,,2,0,2,0,,,,,,,,,0,0,0,0,0,28,28,28,4,0,4,0,,,,,,,,,,,,,,,,,,,,,,,,,,,,,,,,,,,,,,,,,,,,,,,,,,,,,,,,,,,,,,,,30,,,,,,,,3527.3598807998933,3527.3598807998933,3527.3598807998933,3527.3598807998933,3527.3598807998933,76,0,0,0.08000000000000003,return,0.8769221999682486,24,0,0,1,0,0.08000000000000003,return,0.7888699998147786,,,,,,,,,,,,,,,,,,,,,,,,,,,,,,,,,,,,,,,,,,,,,,,,,,,,,,,,R7Z1Z2 ,train_y,red_square,bottom_left,2025-02-14_17h10.53.421,HideSeek_v1,2022.2.5,59.87780140043574,
,0,1,0,2,0,1,15,,train_dim1_1,30,30,,,,2,0,2,0,,,,,,,,,0,0,0,0,0,29,29,29,0,0,0,0,,,,,,,,,,,,,,,,,,,,,,,,,stimuli/alien_stimuli/15.png,,,,,,,,,,,,,,,,,,,,,,,,,,,,,stimuli/alien_stimuli/12.png,12,2,31,,,,,,,30,,,,,,,,3532.452257399913,3532.452257399913,3532.452257399913,3532.452257399913,3532.452257399913,,,,,up,1.3553420999087393,24,0,0,99,-0.16,-0.24,up,1.2665399999823421,3530.8952605999075,3532.452257399913,0,0.08,0.32,0.0,-0.07999999999999999,0,0.0,0,0.08,3529.789252599934,3529.789252599934,3529.789252599934,3529.789252599934,3529.789252599934,3529.789252599934,3529.789252599934,3529.789252599934,3529.7779407000635,1.2028564000502229,return,1.082252899883315,,,,,,,,,,,,,,,,,,,,,,,,,,,,,,,,,R7Z1Z2 ,train_y,red_square,bottom_left,2025-02-14_17h10.53.421,HideSeek_v1,2022.2.5,59.87780140043574,
,0,1,0,2,0,1,15,,train_dim1_1,30,30,,,,2,0,2,0,,,,,,,,,0,0,0,0,0,29,29,29,1,0,1,0,,,,,,,,,,,,,,,,,,,,,,,,,,,,,,,,,,,,,,,,,,,,,,,,,,,,,,,,,,,,,,,,30,,,,,,,,3533.8151283999905,3533.8151283999905,3533.8151283999905,3533.8151283999905,3533.8151283999905,77,0,-0.16,-0.24,return,0.44309289986267686,25,0,0,1,-0.16,-0.24,return,0.3528604998718947,,,,,,,,,,,,,,,,,,,,,,,,,,,,,,,,,,,,,,,,,,,,,,,,,,,,,,,,R7Z1Z2 ,train_y,red_square,bottom_left,2025-02-14_17h10.53.421,HideSeek_v1,2022.2.5,59.87780140043574,
,,,,,,,,,,,30,,,,2,0,2,0,,,,,,,,,,,,,,,,,,,,,,,,,,,,,,,,,,,,,,,,,,,,,,,,,,,,,,,,,,,,,,,,,,,,,,,,,,stimuli/alien_stimuli/15.png,15,0,32,21,0.7,1.0416666666666667,1,1,1,30,0,conditions/schedules/train_y_first/red_square_00/bottom_left/inputTrain_2.1.xlsx,99,1,2,1,0,,,,,,,,,,,,,,,1,,,,,3536.566547699971,3538.1283607999794,-0.16,-0.24,0.08,0.0,-0.28,-0.16,-0.16,-0.16,-0.24,3535.813910000026,3535.813910000026,3535.813910000026,3535.813910000026,3535.813910000026,3535.813910000026,3535.813910000026,3535.813910000026,3535.799349100096,0.8525751000270247,return,0.7252253999467939,0,0.9,0,1,25,,,,,,,,,,,,,,,,,,,,,,,,,,,,R7Z1Z2 ,train_y,red_square,bottom_left,2025-02-14_17h10.53.421,HideSeek_v1,2022.2.5,59.87780140043574,
,,,,,,,,,,,,,,,3,0,3,0,0,0,0,0,,,,,,,,,,,,,,,,,,,,,,,,,,,,,,,conditions/schedules/train_y_first/red_square_00/bottom_left/instructions/Slide17.png,conditions/schedules/train_y_first/red_square_00/bottom_left/instructions/Audio17.wav,3538.1283607999794,3538.1179311999585,17,"[10.317086399998516, 24.18706929986365, 16.686247900128365, 19.621498900000006, 5.038907299982384, 4.819637600099668, 5.620232299901545, 11.690354000078514, 5.903430199949071, 6.998658400028944, 10.136870199814439, 14.411652700044215, 18.182692600181326, 16.688956199912354, 42.78717550006695, 21.47379200020805, 40.72051480016671]","[0.014125699875876307, 0.0002210000529885292, 0.014386400114744902, 0.03487289999611676, 0.048772700130939484, 0.11534000001847744, 0.0806324000004679, 0.04691929998807609, 0.0784370000474155, 0.04549239994958043, 0.033166500041261315, 14.411658799974248, 0.01359530002810061, 16.68896279996261, 0.07249120017513633, 21.47379850014113, 40.720523700118065]",0,,,,,,,,,,,,,,,,,,,,,,,,,,,,,,,,,,,,,,,,,,,,,,,,,,,,,,,,,,,,,,,,,,,,,,,,,,,,,,,,,,,,,,,,,,,,,,,,,,,,,,,,,,,,,,,,,,,,,,,,,,,,R7Z1Z2 ,train_y,red_square,bottom_left,2025-02-14_17h10.53.421,HideSeek_v1,2022.2.5,59.87780140043574,
,,,,,,,,,,,,,,,3,0,3,0,1,0,1,0,,,,,,,,,,,,,,,,,,,,,,,,,,,,,,,conditions/schedules/train_y_first/red_square_00/bottom_left/instructions/Slide18.png,conditions/schedules/train_y_first/red_square_00/bottom_left/instructions/Audio18.wav,3578.9149931999855,3578.901669899933,18,"[10.317086399998516, 24.18706929986365, 16.686247900128365, 19.621498900000006, 5.038907299982384, 4.819637600099668, 5.620232299901545, 11.690354000078514, 5.903430199949071, 6.998658400028944, 10.136870199814439, 14.411652700044215, 18.182692600181326, 16.688956199912354, 42.78717550006695, 21.47379200020805, 40.72051480016671, 8.157563500106335]","[0.014125699875876307, 0.0002210000529885292, 0.014386400114744902, 0.03487289999611676, 0.048772700130939484, 0.11534000001847744, 0.0806324000004679, 0.04691929998807609, 0.0784370000474155, 0.04549239994958043, 0.033166500041261315, 14.411658799974248, 0.01359530002810061, 16.68896279996261, 0.07249120017513633, 21.47379850014113, 0.03416400006972253, 8.157569600036368]",0,,,,,,,,,,,,,,,,,,,,,,,,,,,,,,,,,,,,,,,,,,,,,,,,,,,,,,,,,,,,,,,,,,,,,,,,,,,,,,,,,,,,,,,,,,,,,,,,,,,,,,,,,,,,,,,,,,,,,,,,,,,,R7Z1Z2 ,train_y,red_square,bottom_left,2025-02-14_17h10.53.421,HideSeek_v1,2022.2.5,59.87780140043574,
,,,,,,,,,,,,,,,3,0,3,0,2,0,2,0,,,,,,,,,,,,,,,,,,,,,,,,,,,,,,,conditions/schedules/train_y_first/red_square_00/bottom_left/instructions/Slide19.png,conditions/schedules/train_y_first/red_square_00/bottom_left/instructions/Audio19.wav,3587.1269827000797,3587.1252429999877,19,"[10.317086399998516, 24.18706929986365, 16.686247900128365, 19.621498900000006, 5.038907299982384, 4.819637600099668, 5.620232299901545, 11.690354000078514, 5.903430199949071, 6.998658400028944, 10.136870199814439, 14.411652700044215, 18.182692600181326, 16.688956199912354, 42.78717550006695, 21.47379200020805, 40.72051480016671, 8.157563500106335, 10.454446299932897]","[0.014125699875876307, 0.0002210000529885292, 0.014386400114744902, 0.03487289999611676, 0.048772700130939484, 0.11534000001847744, 0.0806324000004679, 0.04691929998807609, 0.0784370000474155, 0.04549239994958043, 0.033166500041261315, 14.411658799974248, 0.01359530002810061, 16.68896279996261, 0.07249120017513633, 21.47379850014113, 0.03416400006972253, 0.030415700050070882, 10.454452599864453]",0,,,,,,,,,,,,,,,,,,,,,,,,,,,,,,,,,,,,,,,,,,,,,,,,,,,,,,,,,,,,,,,,,,,,,,,,,,,,,,,,,,,,,,,,,,,,,,,,,,,,,,,,,,,,,,,,,,,,,,,,,,,,R7Z1Z2 ,train_y,red_square,bottom_left,2025-02-14_17h10.53.421,HideSeek_v1,2022.2.5,59.87780140043574,
,,,,,,,,,,,,,,,3,0,3,0,3,0,3,0,,,,,,,,,,,,,,,,,,,,,,,,,,,,,,,conditions/schedules/train_y_first/red_square_00/bottom_left/instructions/Slide20.png,conditions/schedules/train_y_first/red_square_00/bottom_left/instructions/Audio20.wav,3597.6494005999994,3597.6507689999416,20,"[10.317086399998516, 24.18706929986365, 16.686247900128365, 19.621498900000006, 5.038907299982384, 4.819637600099668, 5.620232299901545, 11.690354000078514, 5.903430199949071, 6.998658400028944, 10.136870199814439, 14.411652700044215, 18.182692600181326, 16.688956199912354, 42.78717550006695, 21.47379200020805, 40.72051480016671, 8.157563500106335, 10.454446299932897, 12.742571299895644]","[0.014125699875876307, 0.0002210000529885292, 0.014386400114744902, 0.03487289999611676, 0.048772700130939484, 0.11534000001847744, 0.0806324000004679, 0.04691929998807609, 0.0784370000474155, 0.04549239994958043, 0.033166500041261315, 14.411658799974248, 0.01359530002810061, 16.68896279996261, 0.07249120017513633, 21.47379850014113, 0.03416400006972253, 0.030415700050070882, 0.03203090000897646, 12.7425778999459]",0,,,,,,,,,,,,,,,,,,,,,,,,,,,,,,,,,,,,,,,,,,,,,,,,,,,,,,,,,,,,,,,,,,,,,,,,,,,,,,,,,,,,,,,,,,,,,,,,,,,,,,,,,,,,,,,,,,,,,,,,,,,,R7Z1Z2 ,train_y,red_square,bottom_left,2025-02-14_17h10.53.421,HideSeek_v1,2022.2.5,59.87780140043574,
1,3,2,8,2,5,0,66,2,instr_dim1_2,,,,,,3,0,3,0,,,,,0,0,0,0,,,,,,,,,,,,,,,,,,,,,,,,,,,,,,,,,,,,,stimuli/alien_stimuli/66.png,conditions/schedules/train_y_first/red_square_00/bottom_left/inputInstr_2.xlsx,stimuli/alien_stimuli/66.png,3610.4975860000122,3610.4975860000122,3610.4975860000122,3610.4975860000122,3610.494646199979,return,7.017525099916384,"[-0.16, -0.08, 0, 0.08, 0.16, 0.24, 0.32, 0.4, 0.48, 0.56]","[-0.4, -0.32, -0.24, -0.16, -0.08, 0, 0.08, 0.16, 0.24, 0.32]",2,2,8,3,0.0,0.4,3617.67005169997,3617.67005169997,3617.67005169997,3617.67005169997,3617.67005169997,3617.67005169997,3617.67005169997,3617.6505452999845,7.156848800135776,return,6.995311199687421,stimuli/alien_stimuli/66.png,66,3,1,,,,,,,,,,,,,,,,,,,,,,,,,,,,,,,,,,,,,,,,,,,,,,,,,,,,,,,,,,,,,,,,,,,,,,,,,,,,,,,,,,,,,,,,,R7Z1Z2 ,train_y,red_square,bottom_left,2025-02-14_17h10.53.421,HideSeek_v1,2022.2.5,59.87780140043574,
,,,,,,,,,,,30,,,,3,0,3,0,,,,,,,,,,,,,,,,,,,,,,,,,,,,,,,,,,,,,,,,,,,,,,,,,,,,,,,,,,,,,,,,,,,,,,,,,,,,,,21,0.7,1.0416666666666667,1,99,2,30,0,conditions/schedules/train_y_first/red_square_00/bottom_left/inputTrain_2.1.xlsx,99,1,2,1,0,,,,,,,,,,,,,,,,,,,,,,,,,,,,,,,,,,,,,,,,,,,,,,,,,,,,,,,,,,,,,,,,,,,,,,,,,,,R7Z1Z2 ,train_y,red_square,bottom_left,2025-02-14_17h10.53.421,HideSeek_v1,2022.2.5,59.87780140043574,
,,,,,,,,,,,,,,,4,0,4,0,0,0,0,0,,,,,,,,,,,,,,,,,,,,,,,,,,,,,,,conditions/schedules/train_y_first/red_square_00/bottom_left/instructions/Slide21.png,conditions/schedules/train_y_first/red_square_00/bottom_left/instructions/Audio21.wav,3624.8218022999354,3624.82310950011,21,"[10.317086399998516, 24.18706929986365, 16.686247900128365, 19.621498900000006, 5.038907299982384, 4.819637600099668, 5.620232299901545, 11.690354000078514, 5.903430199949071, 6.998658400028944, 10.136870199814439, 14.411652700044215, 18.182692600181326, 16.688956199912354, 42.78717550006695, 21.47379200020805, 40.72051480016671, 8.157563500106335, 10.454446299932897, 12.742571299895644, 13.293145700125024]","[0.014125699875876307, 0.0002210000529885292, 0.014386400114744902, 0.03487289999611676, 0.048772700130939484, 0.11534000001847744, 0.0806324000004679, 0.04691929998807609, 0.0784370000474155, 0.04549239994958043, 0.033166500041261315, 14.411658799974248, 0.01359530002810061, 16.68896279996261, 0.07249120017513633, 21.47379850014113, 0.03416400006972253, 0.030415700050070882, 0.03203090000897646, 12.7425778999459, 13.293152699945495]",0,,,,,,,,,,,,,,,,,,,,,,,,,,,,,,,,,,,,,,,,,,,,,,,,,,,,,,,,,,,,,,,,,,,,,,,,,,,,,,,,,,,,,,,,,,,,,,,,,,,,,,,,,,,,,,,,,,,,,,,,,,,,R7Z1Z2 ,train_y,red_square,bottom_left,2025-02-14_17h10.53.421,HideSeek_v1,2022.2.5,59.87780140043574,
2,4,0,4,0,0,0,16,2,instr_dim1_2,,,,,,4,0,4,0,,,,,0,0,0,0,,,,,,,,,,,,,,,,,,,,,,,,,,,,,,,,,,,,,stimuli/alien_stimuli/16.png,conditions/schedules/train_y_first/red_square_00/bottom_left/inputInstr_2.xlsx,stimuli/alien_stimuli/16.png,3638.2212700999808,3638.2212700999808,3638.2212700999808,3638.2212700999808,3638.217706100084,return,3.356820499757305,"[-0.16, -0.08, 0, 0.08, 0.16, 0.24, 0.32, 0.4, 0.48, 0.56]","[-0.4, -0.32, -0.24, -0.16, -0.08, 0, 0.08, 0.16, 0.24, 0.32]",0,0,4,4,0.0,0.0,3641.7472238000482,3641.7472238000482,3641.7472238000482,3641.7472238000482,3641.7472238000482,3641.7472238000482,3641.7472238000482,3641.737273900071,5.489041599910706,return,5.3130953998770565,stimuli/alien_stimuli/16.png,16,4,2,,,,,,,,,,,,,,,,,,,,,,,,,,,,,,,,,,,,,,,,,,,,,,,,,,,,,,,,,,,,,,,,,,,,,,,,,,,,,,,,,,,,,,,,,R7Z1Z2 ,train_y,red_square,bottom_left,2025-02-14_17h10.53.421,HideSeek_v1,2022.2.5,59.87780140043574,
,,,,,,,,,,,30,,,,4,0,4,0,,,,,,,,,,,,,,,,,,,,,,,,,,,,,,,,,,,,,,,,,,,,,,,,,,,,,,,,,,,,,,,,,,,,,,,,,,,,,,21,0.7,1.0416666666666667,1,99,2,30,0,conditions/schedules/train_y_first/red_square_00/bottom_left/inputTrain_2.1.xlsx,99,1,2,1,0,,,,,,,,,,,,,,,,,,,,,,,,,,,,,,,,,,,,,,,,,,,,,,,,,,,,,,,,,,,,,,,,,,,,,,,,,,,R7Z1Z2 ,train_y,red_square,bottom_left,2025-02-14_17h10.53.421,HideSeek_v1,2022.2.5,59.87780140043574,
,,,,,,,,,,,,,,,5,0,5,0,0,0,0,0,,,,,,,,,,,,,,,,,,,,,,,,,,,,,,,conditions/schedules/train_y_first/red_square_00/bottom_left/instructions/Slide22.png,conditions/schedules/train_y_first/red_square_00/bottom_left/instructions/Audio22.wav,3647.2273818000685,3647.2251184999477,22,"[10.317086399998516, 24.18706929986365, 16.686247900128365, 19.621498900000006, 5.038907299982384, 4.819637600099668, 5.620232299901545, 11.690354000078514, 5.903430199949071, 6.998658400028944, 10.136870199814439, 14.411652700044215, 18.182692600181326, 16.688956199912354, 42.78717550006695, 21.47379200020805, 40.72051480016671, 8.157563500106335, 10.454446299932897, 12.742571299895644, 13.293145700125024, 30.43584579997696]","[0.014125699875876307, 0.0002210000529885292, 0.014386400114744902, 0.03487289999611676, 0.048772700130939484, 0.11534000001847744, 0.0806324000004679, 0.04691929998807609, 0.0784370000474155, 0.04549239994958043, 0.033166500041261315, 14.411658799974248, 0.01359530002810061, 16.68896279996261, 0.07249120017513633, 21.47379850014113, 0.03416400006972253, 0.030415700050070882, 0.03203090000897646, 12.7425778999459, 13.293152699945495, 30.435852099908516]",0,,,,,,,,,,,,,,,,,,,,,,,,,,,,,,,,,,,,,,,,,,,,,,,,,,,,,,,,,,,,,,,,,,,,,,,,,,,,,,,,,,,,,,,,,,,,,,,,,,,,,,,,,,,,,,,,,,,,,,,,,,,,R7Z1Z2 ,train_y,red_square,bottom_left,2025-02-14_17h10.53.421,HideSeek_v1,2022.2.5,59.87780140043574,
,2,1,5,1,3,0,46,,train_dim1_2,1,30,,,,5,0,5,0,,,,,,,,,0,0,0,0,0,0,0,0,0,0,0,0,,,,,,,,,,,,,,,,,,,,,,,,,stimuli/alien_stimuli/46.png,,,,,,,,,,,,,,,,,,,,,,,,,,,,,,,,,,,,,,,30,,,,,,,,3677.7633617999963,3677.7633617999963,3677.7633617999963,3677.7633617999963,3677.7633617999963,,,,,right,6.849351600045338,0,0,0,99,0.08,-0.32,right,6.746029099682346,,,,,,,,,,,,,,,,,,,,,,,,,,,,,,,,,,,,,,,,,,,,,,,,,,,,,,,,R7Z1Z2 ,train_y,red_square,bottom_left,2025-02-14_17h10.53.421,HideSeek_v1,2022.2.5,59.87780140043574,
,2,1,5,1,3,0,46,,train_dim1_2,1,30,,,,5,0,5,0,,,,,,,,,0,0,0,0,0,0,0,0,1,0,1,0,,,,,,,,,,,,,,,,,,,,,,,,,,,,,,,,,,,,,,,,,,,,,,,,,,,,,,,,,,,,,,,,30,,,,,,,,3684.6039112000726,3684.6039112000726,3684.6039112000726,3684.6039112000726,3684.6039112000726,,,,,right,0.5256246000062674,0,0,0,99,0.16,-0.32,right,0.44077079999260604,,,,,,,,,,,,,,,,,,,,,,,,,,,,,,,,,,,,,,,,,,,,,,,,,,,,,,,,R7Z1Z2 ,train_y,red_square,bottom_left,2025-02-14_17h10.53.421,HideSeek_v1,2022.2.5,59.87780140043574,
,2,1,5,1,3,0,46,,train_dim1_2,1,30,,,,5,0,5,0,,,,,,,,,0,0,0,0,0,0,0,0,2,0,2,0,,,,,,,,,,,,,,,,,,,,,,,,,,,,,,,,,,,,,,,,,,,,,,,,,,,,,,,,,,,,,,,,30,,,,,,,,3685.136224699905,3685.136224699905,3685.136224699905,3685.136224699905,3685.136224699905,77,2,0.16,-0.32,return,4.262750299880281,0,1,0,0,0.16,-0.32,return,4.1887578999157995,,,,,,,,,,,,,,,,,,,,,,,,,,,,,,,,,,,,,,,,,,,,,,,,,,,,,,,,R7Z1Z2 ,train_y,red_square,bottom_left,2025-02-14_17h10.53.421,HideSeek_v1,2022.2.5,59.87780140043574,
,2,4,2,4,0,0,16,,train_dim1_2,2,30,,,,5,0,5,0,,,,,,,,,0,0,0,0,0,1,1,1,0,0,0,0,,,,,,,,,,,,,,,,,,,,,,,,,stimuli/alien_stimuli/16.png,,,,,,,,,,,,,,,,,,,,,,,,,,,,,stimuli/alien_stimuli/46.png,46,2,3,,,,,,,30,,,,,,,,3695.579482600093,3695.579482600093,3695.579482600093,3695.579482600093,3695.579482600093,77,2,0,-0.08,return,3.0722390001174062,1,0,0,1,0,-0.08,return,2.977664199890569,3694.0137138001155,3695.579482600093,0.24,-0.32,0.0,0.24,-0.32,0.24,0.12,0.24,-0.32,3690.9854305000044,3690.9854305000044,3690.9854305000044,3690.9854305000044,3690.9854305000044,3690.9854305000044,3690.9854305000044,3690.9854305000044,3690.977848700015,3.155062299920246,return,3.004889399977401,,,,,,,,,,,,,,,,,,,,,,,,,,,,,,,,,R7Z1Z2 ,train_y,red_square,bottom_left,2025-02-14_17h10.53.421,HideSeek_v1,2022.2.5,59.87780140043574,
,4,4,5,4,1,0,26,,train_dim1_2,3,30,,,,5,0,5,0,,,,,,,,,0,0,0,0,0,2,2,2,0,0,0,0,,,,,,,,,,,,,,,,,,,,,,,,,stimuli/alien_stimuli/26.png,,,,,,,,,,,,,,,,,,,,,,,,,,,,,stimuli/alien_stimuli/16.png,16,2,4,,,,,,,30,,,,,,,,3703.302285199985,3703.302285199985,3703.302285199985,3703.302285199985,3703.302285199985,,,,,right,2.2227026000618935,1,0,0,99,0.24,-0.08,right,2.112763299839571,3701.7201529000886,3703.302285199985,0,-0.08,0.0,0.0,-0.08,0,0.0,0,-0.08,3700.225877400022,3700.225877400022,3700.225877400022,3700.225877400022,3700.225877400022,3700.225877400022,3700.225877400022,3700.225877400022,3700.2187224000227,1.6204265002161264,return,1.4688438000157475,,,,,,,,,,,,,,,,,,,,,,,,,,,,,,,,,R7Z1Z2 ,train_y,red_square,bottom_left,2025-02-14_17h10.53.421,HideSeek_v1,2022.2.5,59.87780140043574,
,4,4,5,4,1,0,26,,train_dim1_2,3,30,,,,5,0,5,0,,,,,,,,,0,0,0,0,0,2,2,2,1,0,1,0,,,,,,,,,,,,,,,,,,,,,,,,,,,,,,,,,,,,,,,,,,,,,,,,,,,,,,,,,,,,,,,,30,,,,,,,,3705.5081796001177,3705.5081796001177,3705.5081796001177,3705.5081796001177,3705.5081796001177,77,3,0.24,-0.08,return,1.3264921999070793,2,0,0,1,0.24,-0.08,return,1.2373847998678684,,,,,,,,,,,,,,,,,,,,,,,,,,,,,,,,,,,,,,,,,,,,,,,,,,,,,,,,R7Z1Z2 ,train_y,red_square,bottom_left,2025-02-14_17h10.53.421,HideSeek_v1,2022.2.5,59.87780140043574,
,2,3,6,3,4,0,56,,train_dim1_2,4,30,,,,5,0,5,0,,,,,,,,,0,0,0,0,0,3,3,3,0,0,0,0,,,,,,,,,,,,,,,,,,,,,,,,,stimuli/alien_stimuli/56.png,,,,,,,,,,,,,,,,,,,,,,,,,,,,,stimuli/alien_stimuli/26.png,26,4,5,,,,,,,30,,,,,,,,3710.9860678999685,3710.9860678999685,3710.9860678999685,3710.9860678999685,3710.9860678999685,,,,,right,0.9900108999572694,2,0,0,99,0.08,-0.16,right,0.8813896998763084,3709.409784599906,3710.9860678999685,0.24,-0.08,0.0,0.08,-0.08,0.24,0.2,0.24,-0.08,3708.4008925999515,3708.4008925999515,3708.4008925999515,3708.4008925999515,3708.4008925999515,3708.4008925999515,3708.4008925999515,3708.4008925999515,3708.3925316000823,1.1194149998482317,return,0.9819954996928573,,,,,,,,,,,,,,,,,,,,,,,,,,,,,,,,,R7Z1Z2 ,train_y,red_square,bottom_left,2025-02-14_17h10.53.421,HideSeek_v1,2022.2.5,59.87780140043574,
,2,3,6,3,4,0,56,,train_dim1_2,4,30,,,,5,0,5,0,,,,,,,,,0,0,0,0,0,3,3,3,1,0,1,0,,,,,,,,,,,,,,,,,,,,,,,,,,,,,,,,,,,,,,,,,,,,,,,,,,,,,,,,,,,,,,,,30,,,,,,,,3711.9614701999817,3711.9614701999817,3711.9614701999817,3711.9614701999817,3711.9614701999817,,,,,right,0.5259660000447184,2,0,0,99,0.16,-0.16,right,0.44336389983072877,,,,,,,,,,,,,,,,,,,,,,,,,,,,,,,,,,,,,,,,,,,,,,,,,,,,,,,,R7Z1Z2 ,train_y,red_square,bottom_left,2025-02-14_17h10.53.421,HideSeek_v1,2022.2.5,59.87780140043574,
,2,3,6,3,4,0,56,,train_dim1_2,4,30,,,,5,0,5,0,,,,,,,,,0,0,0,0,0,3,3,3,2,0,2,0,,,,,,,,,,,,,,,,,,,,,,,,,,,,,,,,,,,,,,,,,,,,,,,,,,,,,,,,,,,,,,,,30,,,,,,,,3712.49421039992,3712.49421039992,3712.49421039992,3712.49421039992,3712.49421039992,,,,,right,0.4931565001606941,2,0,0,99,0.24,-0.16,right,0.41092249983921647,,,,,,,,,,,,,,,,,,,,,,,,,,,,,,,,,,,,,,,,,,,,,,,,,,,,,,,,R7Z1Z2 ,train_y,red_square,bottom_left,2025-02-14_17h10.53.421,HideSeek_v1,2022.2.5,59.87780140043574,
,2,3,6,3,4,0,56,,train_dim1_2,4,30,,,,5,0,5,0,,,,,,,,,0,0,0,0,0,3,3,3,3,0,3,0,,,,,,,,,,,,,,,,,,,,,,,,,,,,,,,,,,,,,,,,,,,,,,,,,,,,,,,,,,,,,,,,30,,,,,,,,3712.9942922999617,3712.9942922999617,3712.9942922999617,3712.9942922999617,3712.9942922999617,,,,,right,0.5601194000337273,2,0,0,99,0.32,-0.16,right,0.47436179989017546,,,,,,,,,,,,,,,,,,,,,,,,,,,,,,,,,,,,,,,,,,,,,,,,,,,,,,,,R7Z1Z2 ,train_y,red_square,bottom_left,2025-02-14_17h10.53.421,HideSeek_v1,2022.2.5,59.87780140043574,
,2,3,6,3,4,0,56,,train_dim1_2,4,30,,,,5,0,5,0,,,,,,,,,0,0,0,0,0,3,3,3,4,0,4,0,,,,,,,,,,,,,,,,,,,,,,,,,,,,,,,,,,,,,,,,,,,,,,,,,,,,,,,,,,,,,,,,30,,,,,,,,3713.5615129000507,3713.5615129000507,3713.5615129000507,3713.5615129000507,3713.5615129000507,,,,,right,0.99369279993698,2,0,0,99,0.4,-0.16,right,0.9156181998550892,,,,,,,,,,,,,,,,,,,,,,,,,,,,,,,,,,,,,,,,,,,,,,,,,,,,,,,,R7Z1Z2 ,train_y,red_square,bottom_left,2025-02-14_17h10.53.421,HideSeek_v1,2022.2.5,59.87780140043574,
,2,3,6,3,4,0,56,,train_dim1_2,4,30,,,,5,0,5,0,,,,,,,,,0,0,0,0,0,3,3,3,5,0,5,0,,,,,,,,,,,,,,,,,,,,,,,,,,,,,,,,,,,,,,,,,,,,,,,,,,,,,,,,,,,,,,,,30,,,,,,,,3714.562287299894,3714.562287299894,3714.562287299894,3714.562287299894,3714.562287299894,77,8,0.4,-0.16,return,0.6437613999005407,2,1,0,0,0.4,-0.16,return,0.5692990999668837,,,,,,,,,,,,,,,,,,,,,,,,,,,,,,,,,,,,,,,,,,,,,,,,,,,,,,,,R7Z1Z2 ,train_y,red_square,bottom_left,2025-02-14_17h10.53.421,HideSeek_v1,2022.2.5,59.87780140043574,
,0,2,5,2,5,0,66,,train_dim1_2,5,30,,,,5,0,5,0,,,,,,,,,0,0,0,0,0,4,4,4,0,0,0,0,,,,,,,,,,,,,,,,,,,,,,,,,stimuli/alien_stimuli/66.png,,,,,,,,,,,,,,,,,,,,,,,,,,,,,stimuli/alien_stimuli/56.png,56,2,6,,,,,,,30,,,,,,,,3720.295293800067,3720.295293800067,3720.295293800067,3720.295293800067,3720.295293800067,,,,,right,2.7399738000240177,2,1,0,99,-0.08,-0.24,right,2.6400566999800503,3718.7177005999256,3720.295293800067,0.32,-0.16,0.0,0.32,-0.16,0.32,0.16,0.32,-0.16,3716.7721559999045,3716.7721559999045,3716.7721559999045,3716.7721559999045,3716.7721559999045,3716.7721559999045,3716.7721559999045,3716.7721559999045,3716.765895199962,2.0539031999651343,return,1.9175544998142868,,,,,,,,,,,,,,,,,,,,,,,,,,,,,,,,,R7Z1Z2 ,train_y,red_square,bottom_left,2025-02-14_17h10.53.421,HideSeek_v1,2022.2.5,59.87780140043574,
,0,2,5,2,5,0,66,,train_dim1_2,5,30,,,,5,0,5,0,,,,,,,,,0,0,0,0,0,4,4,4,1,0,1,0,,,,,,,,,,,,,,,,,,,,,,,,,,,,,,,,,,,,,,,,,,,,,,,,,,,,,,,,,,,,,,,,30,,,,,,,,3723.0189694000874,3723.0189694000874,3723.0189694000874,3723.0189694000874,3723.0189694000874,,,,,right,0.9261975998524576,2,1,0,99,0.0,-0.24,right,0.8484528998378664,,,,,,,,,,,,,,,,,,,,,,,,,,,,,,,,,,,,,,,,,,,,,,,,,,,,,,,,R7Z1Z2 ,train_y,red_square,bottom_left,2025-02-14_17h10.53.421,HideSeek_v1,2022.2.5,59.87780140043574,
