trialInstr,x_fixStart,y_fixStart,x_corrSteps,y_corrSteps,x_nrSteps,y_nrSteps,alienID,trialLength,version,trialTrain,praclen,testlen,trial_label,break_on_off,beforeExpLoop.thisRepN,beforeExpLoop.thisTrialN,beforeExpLoop.thisN,beforeExpLoop.thisIndex,mini_instr_trials.thisRepN,mini_instr_trials.thisTrialN,mini_instr_trials.thisN,mini_instr_trials.thisIndex,instrLoop.thisRepN,instrLoop.thisTrialN,instrLoop.thisN,instrLoop.thisIndex,repeat_prac.thisRepN,repeat_prac.thisTrialN,repeat_prac.thisN,repeat_prac.thisIndex,trainLoop.thisRepN,trainLoop.thisTrialN,trainLoop.thisN,trainLoop.thisIndex,moveLoop_train.thisRepN,moveLoop_train.thisTrialN,moveLoop_train.thisN,moveLoop_train.thisIndex,experiment.thisRepN,experiment.thisTrialN,experiment.thisN,experiment.thisIndex,moveLoop_test.thisRepN,moveLoop_test.thisTrialN,moveLoop_test.thisN,moveLoop_test.thisIndex,mini_instr2_trials.thisRepN,mini_instr2_trials.thisTrialN,mini_instr2_trials.thisN,mini_instr2_trials.thisIndex,start_all_time,url,slideStim,audioStim,slides.started,sounds.started,nextButton.numClicks,nextButton.timesOn,nextButton.timesOff,prev_but.numClicks,prev_but.timesOn,prev_but.timesOff,alienStim,instrFile,alienStim_instr,gridImage_instr.started,startPos_3.started,key_instr.started,alienImage_3.started,sounds_1.started,key_instr.keys,key_instr.rt,all_x,all_y,FBy_corrSteps,FBy_fixStart,FBx_corrSteps,FBx_fixStart,FBy_pathSize_check,FBx_pathSize_check,gridImage_9.started,alienImageFB_3.started,startPosFB_3.started,keyFB_3.started,pathLine_ydir_2.started,pathLine_xdir_2.started,alienFace_3.started,sounds_2.started,RTFB_instr,keyFB_3.keys,keyFB_3.rt,draw_alienStim,draw_alienID,test_x,nrepcount,perfthres,percthres,earlierperf,earlystop,nextPrac,fileidx,praclen,saveACC_train,pracFile,nextPrac_train,addNrep,fileidx_endr,repExp,showearly,gridImage_4.started,startPos.started,movePos.started,key_resp.started,alienImage.started,buttonPress_train,RTchoice_train,cumAcctrain,aCorr,saveACC_choice,corrAns,x_movePos_end,y_movePos_end,key_resp.keys,key_resp.rt,wLy_dir,wLx_dir,x_movePos,y_movePos,text_2.started,text_2.stopped,aft_x_corrPos,aft_y_corrPos,y_pathSize_check,x_pathSize_check,y_pathdirY,x_pathdirY,x_pathdirX,x_corrPos,y_corrPos,gridImage_6.started,alienImageFB_2.started,startPosFB_2.started,movePosFB_2.started,keyFB_2.started,pathLine_xdir.started,pathLine_ydir.started,alienFace.started,sounds_4.started,RT_FBtrain,keyFB_2.keys,keyFB_2.rt,saveACC_pre,ACC,within_saveACC_train,earlystop_wloop,cumAcctrain_check,gridImage_3.started,alienImage_test.started,startPos_test.started,movePos_test.started,key_resp_test.started,wLy_dir_test,wLx_dir_test,buttonPress_test,RTchoice_test,cumAcctest,corrAns_test,key_resp_test.keys,key_resp_test.rt,text_3.started,text_3.stopped,total_time,end_all_time,key_resp_3.keys,slides_2.started,sounds_3.started,nextButton_2.numClicks,nextButton_2.timesOn,nextButton_2.timesOff,prev_but_2.numClicks,prev_but_2.timesOn,prev_but_2.timesOff,bye.started,participant,train_first,00_coordinate,starting corner,date,expName,psychopyVersion,frameRate,
,,,,,,,,,,,,,,,0,0,0,0,0,0,0,0,,,,,,,,,,,,,,,,,,,,,,,,,,,,,start_all_time,testround,conditions/schedules/train_y_first/red_square_00/bottom_right/instructions/Slide1.png,conditions/schedules/train_y_first/red_square_00/bottom_right/instructions/Audio1.wav,98.31404129997827,98.26746272365563,1,[7.502587200142443],[7.502594700083137],0,,,,,,,,,,,,,,,,,,,,,,,,,,,,,,,,,,,,,,,,,,,,,,,,,,,,,,,,,,,,,,,,,,,,,,,,,,,,,,,,,,,,,,,,,,,,,,,,,,,,,,,,,,,,,,,,,,,,,,,,,,,,RW2XLH,train_y,red_square,bottom_right,2025-09-13_12h04.35.025,HideSeek_v1,2022.2.5,59.918522827941715,
,,,,,,,,,,,,,,,0,0,0,0,1,0,1,0,,,,,,,,,,,,,,,,,,,,,,,,,,,,,,,conditions/schedules/train_y_first/red_square_00/bottom_right/instructions/Slide2.png,conditions/schedules/train_y_first/red_square_00/bottom_right/instructions/Audio2.wav,105.84096760000102,105.84074089990463,2,"[7.502587200142443, 17.762038100045174]","[7.502594700083137, 17.762044200208038]",0,,,,,,,,,,,,,,,,,,,,,,,,,,,,,,,,,,,,,,,,,,,,,,,,,,,,,,,,,,,,,,,,,,,,,,,,,,,,,,,,,,,,,,,,,,,,,,,,,,,,,,,,,,,,,,,,,,,,,,,,,,,,RW2XLH,train_y,red_square,bottom_right,2025-09-13_12h04.35.025,HideSeek_v1,2022.2.5,59.918522827941715,
,,,,,,,,,,,,,,,0,0,0,0,2,0,2,0,,,,,,,,,,,,,,,,,,,,,,,,,,,,,,,conditions/schedules/train_y_first/red_square_00/bottom_right/instructions/Slide3.png,conditions/schedules/train_y_first/red_square_00/bottom_right/instructions/Audio3.wav,123.67120769992471,123.67219940002542,3,"[7.502587200142443, 17.762038100045174, 17.063003099989146]","[7.502594700083137, 0.014149899827316403, 17.0630097000394]",0,,,,,,,,,,,,,,,,,,,,,,,,,,,,,,,,,,,,,,,,,,,,,,,,,,,,,,,,,,,,,,,,,,,,,,,,,,,,,,,,,,,,,,,,,,,,,,,,,,,,,,,,,,,,,,,,,,,,,,,,,,,,RW2XLH,train_y,red_square,bottom_right,2025-09-13_12h04.35.025,HideSeek_v1,2022.2.5,59.918522827941715,
,,,,,,,,,,,,,,,0,0,0,0,3,0,3,0,,,,,,,,,,,,,,,,,,,,,,,,,,,,,,,conditions/schedules/train_y_first/red_square_00/bottom_right/instructions/Slide4.png,conditions/schedules/train_y_first/red_square_00/bottom_right/instructions/Audio4.wav,140.81403389992192,140.803227800061,4,"[7.502587200142443, 17.762038100045174, 17.063003099989146, 19.253425400005654]","[7.502594700083137, 0.014149899827316403, 17.0630097000394, 19.253431899938732]",0,,,,,,,,,,,,,,,,,,,,,,,,,,,,,,,,,,,,,,,,,,,,,,,,,,,,,,,,,,,,,,,,,,,,,,,,,,,,,,,,,,,,,,,,,,,,,,,,,,,,,,,,,,,,,,,,,,,,,,,,,,,,RW2XLH,train_y,red_square,bottom_right,2025-09-13_12h04.35.025,HideSeek_v1,2022.2.5,59.918522827941715,
,,,,,,,,,,,,,,,0,0,0,0,4,0,4,0,,,,,,,,,,,,,,,,,,,,,,,,,,,,,,,conditions/schedules/train_y_first/red_square_00/bottom_right/instructions/Slide5.png,conditions/schedules/train_y_first/red_square_00/bottom_right/instructions/Audio5.wav,160.13660870003514,160.13559030008037,5,"[7.502587200142443, 17.762038100045174, 17.063003099989146, 19.253425400005654, 4.6339635998010635]","[7.502594700083137, 0.014149899827316403, 17.0630097000394, 19.253431899938732, 4.63396989996545]",0,,,,,,,,,,,,,,,,,,,,,,,,,,,,,,,,,,,,,,,,,,,,,,,,,,,,,,,,,,,,,,,,,,,,,,,,,,,,,,,,,,,,,,,,,,,,,,,,,,,,,,,,,,,,,,,,,,,,,,,,,,,,RW2XLH,train_y,red_square,bottom_right,2025-09-13_12h04.35.025,HideSeek_v1,2022.2.5,59.918522827941715,
,,,,,,,,,,,,,,,0,0,0,0,5,0,5,0,,,,,,,,,,,,,,,,,,,,,,,,,,,,,,,conditions/schedules/train_y_first/red_square_00/bottom_right/instructions/Slide6.png,conditions/schedules/train_y_first/red_square_00/bottom_right/instructions/Audio6.wav,164.82620329991914,164.8230811599642,6,"[7.502587200142443, 17.762038100045174, 17.063003099989146, 19.253425400005654, 4.6339635998010635, 4.448333699954674]","[7.502594700083137, 0.014149899827316403, 17.0630097000394, 19.253431899938732, 0.01428709994070232, 4.448340500006452]",0,,,,,,,,,,,,,,,,,,,,,,,,,,,,,,,,,,,,,,,,,,,,,,,,,,,,,,,,,,,,,,,,,,,,,,,,,,,,,,,,,,,,,,,,,,,,,,,,,,,,,,,,,,,,,,,,,,,,,,,,,,,,RW2XLH,train_y,red_square,bottom_right,2025-09-13_12h04.35.025,HideSeek_v1,2022.2.5,59.918522827941715,
,,,,,,,,,,,,,,,0,0,0,0,6,0,6,0,,,,,,,,,,,,,,,,,,,,,,,,,,,,,,,conditions/schedules/train_y_first/red_square_00/bottom_right/instructions/Slide7.png,conditions/schedules/train_y_first/red_square_00/bottom_right/instructions/Audio7.wav,169.33047199994326,169.3267560598906,7,"[7.502587200142443, 17.762038100045174, 17.063003099989146, 19.253425400005654, 4.6339635998010635, 4.448333699954674, 5.231215400155634]","[7.502594700083137, 0.014149899827316403, 17.0630097000394, 19.253431899938732, 0.01428709994070232, 0.014131100149825215, 5.2312218002043664]",0,,,,,,,,,,,,,,,,,,,,,,,,,,,,,,,,,,,,,,,,,,,,,,,,,,,,,,,,,,,,,,,,,,,,,,,,,,,,,,,,,,,,,,,,,,,,,,,,,,,,,,,,,,,,,,,,,,,,,,,,,,,,RW2XLH,train_y,red_square,bottom_right,2025-09-13_12h04.35.025,HideSeek_v1,2022.2.5,59.918522827941715,
,,,,,,,,,,,,,,,0,0,0,0,7,0,7,0,,,,,,,,,,,,,,,,,,,,,,,,,,,,,,,conditions/schedules/train_y_first/red_square_00/bottom_right/instructions/Slide8.png,conditions/schedules/train_y_first/red_square_00/bottom_right/instructions/Audio8.wav,174.61451669991948,174.61433405987918,8,"[7.502587200142443, 17.762038100045174, 17.063003099989146, 19.253425400005654, 4.6339635998010635, 4.448333699954674, 5.231215400155634, 11.673899200046435]","[7.502594700083137, 0.014149899827316403, 17.0630097000394, 19.253431899938732, 0.01428709994070232, 0.014131100149825215, 0.03117750003002584, 11.673905699979514]",0,,,,,,,,,,,,,,,,,,,,,,,,,,,,,,,,,,,,,,,,,,,,,,,,,,,,,,,,,,,,,,,,,,,,,,,,,,,,,,,,,,,,,,,,,,,,,,,,,,,,,,,,,,,,,,,,,,,,,,,,,,,,RW2XLH,train_y,red_square,bottom_right,2025-09-13_12h04.35.025,HideSeek_v1,2022.2.5,59.918522827941715,
,,,,,,,,,,,,,,,0,0,0,0,8,0,8,0,,,,,,,,,,,,,,,,,,,,,,,,,,,,,,,conditions/schedules/train_y_first/red_square_00/bottom_right/instructions/Slide9.png,conditions/schedules/train_y_first/red_square_00/bottom_right/instructions/Audio9.wav,186.3551707000006,186.35735169996042,9,"[7.502587200142443, 17.762038100045174, 17.063003099989146, 19.253425400005654, 4.6339635998010635, 4.448333699954674, 5.231215400155634, 11.673899200046435, 6.338764199987054]","[7.502594700083137, 0.014149899827316403, 17.0630097000394, 19.253431899938732, 0.01428709994070232, 0.014131100149825215, 0.03117750003002584, 11.673905699979514, 6.3387710999231786]",0,,,,,,,,,,,,,,,,,,,,,,,,,,,,,,,,,,,,,,,,,,,,,,,,,,,,,,,,,,,,,,,,,,,,,,,,,,,,,,,,,,,,,,,,,,,,,,,,,,,,,,,,,,,,,,,,,,,,,,,,,,,,RW2XLH,train_y,red_square,bottom_right,2025-09-13_12h04.35.025,HideSeek_v1,2022.2.5,59.918522827941715,
,,,,,,,,,,,,,,,0,0,0,0,9,0,9,0,,,,,,,,,,,,,,,,,,,,,,,,,,,,,,,conditions/schedules/train_y_first/red_square_00/bottom_right/instructions/Slide10.png,conditions/schedules/train_y_first/red_square_00/bottom_right/instructions/Audio10.wav,192.73143980000168,192.72922791994642,10,"[7.502587200142443, 17.762038100045174, 17.063003099989146, 19.253425400005654, 4.6339635998010635, 4.448333699954674, 5.231215400155634, 11.673899200046435, 6.338764199987054, 6.784051700029522]","[7.502594700083137, 0.014149899827316403, 17.0630097000394, 19.253431899938732, 0.01428709994070232, 0.014131100149825215, 0.03117750003002584, 11.673905699979514, 0.06211069994606078, 6.784058299846947]",0,,,,,,,,,,,,,,,,,,,,,,,,,,,,,,,,,,,,,,,,,,,,,,,,,,,,,,,,,,,,,,,,,,,,,,,,,,,,,,,,,,,,,,,,,,,,,,,,,,,,,,,,,,,,,,,,,,,,,,,,,,,,RW2XLH,train_y,red_square,bottom_right,2025-09-13_12h04.35.025,HideSeek_v1,2022.2.5,59.918522827941715,
,,,,,,,,,,,,,,,0,0,0,0,10,0,10,0,,,,,,,,,,,,,,,,,,,,,,,,,,,,,,,conditions/schedules/train_y_first/red_square_00/bottom_right/instructions/Slide11.png,conditions/schedules/train_y_first/red_square_00/bottom_right/instructions/Audio11.wav,199.55619279993698,199.55144962004852,11,"[7.502587200142443, 17.762038100045174, 17.063003099989146, 19.253425400005654, 4.6339635998010635, 4.448333699954674, 5.231215400155634, 11.673899200046435, 6.338764199987054, 6.784051700029522, 9.70147049985826]","[7.502594700083137, 0.014149899827316403, 17.0630097000394, 19.253431899938732, 0.01428709994070232, 0.014131100149825215, 0.03117750003002584, 11.673905699979514, 0.06211069994606078, 0.06449720007367432, 9.701476800022647]",0,,,,,,,,,,,,,,,,,,,,,,,,,,,,,,,,,,,,,,,,,,,,,,,,,,,,,,,,,,,,,,,,,,,,,,,,,,,,,,,,,,,,,,,,,,,,,,,,,,,,,,,,,,,,,,,,,,,,,,,,,,,,RW2XLH,train_y,red_square,bottom_right,2025-09-13_12h04.35.025,HideSeek_v1,2022.2.5,59.918522827941715,
,,,,,,,,,,,,,,,0,0,0,0,11,0,11,0,,,,,,,,,,,,,,,,,,,,,,,,,,,,,,,conditions/schedules/train_y_first/red_square_00/bottom_right/instructions/Slide12.png,conditions/schedules/train_y_first/red_square_00/bottom_right/instructions/Audio12.wav,209.31257359986193,209.310044959886,12,"[7.502587200142443, 17.762038100045174, 17.063003099989146, 19.253425400005654, 4.6339635998010635, 4.448333699954674, 5.231215400155634, 11.673899200046435, 6.338764199987054, 6.784051700029522, 9.70147049985826, 13.339312600204721]","[7.502594700083137, 0.014149899827316403, 17.0630097000394, 19.253431899938732, 0.01428709994070232, 0.014131100149825215, 0.03117750003002584, 11.673905699979514, 0.06211069994606078, 0.06449720007367432, 0.06210210011340678, 13.339318700134754]",0,,,,,,,,,,,,,,,,,,,,,,,,,,,,,,,,,,,,,,,,,,,,,,,,,,,,,,,,,,,,,,,,,,,,,,,,,,,,,,,,,,,,,,,,,,,,,,,,,,,,,,,,,,,,,,,,,,,,,,,,,,,,RW2XLH,train_y,red_square,bottom_right,2025-09-13_12h04.35.025,HideSeek_v1,2022.2.5,59.918522827941715,
1,7,3,7,8,0,5,11,2,instr_dim1_1,,,,,,0,0,0,0,,,,,0,0,0,0,,,,,,,,,,,,,,,,,,,,,,,,,,,,,,,,,,,,,stimuli/alien_stimuli/11.png,conditions/schedules/train_y_first/red_square_00/bottom_right/inputInstr_1.xlsx,stimuli/alien_stimuli/11.png,222.75558130000718,222.75558130000718,222.75558130000718,222.75558130000718,222.75429958000313,return,13.39400069997646,"[-0.16, -0.08, 0, 0.08, 0.16, 0.24, 0.32, 0.4, 0.48, 0.56]","[-0.4, -0.32, -0.24, -0.16, -0.08, 0, 0.08, 0.16, 0.24, 0.32]",8,3,7,7,0.4,0.0,236.31915709981695,236.31915709981695,236.31915709981695,236.31915709981695,236.31915709981695,236.31915709981695,236.31915709981695,236.3153036601143,5.572304999921471,return,5.406403499888256,stimuli/alien_stimuli/11.png,11,7,1,,,,,,,,,,,,,,,,,,,,,,,,,,,,,,,,,,,,,,,,,,,,,,,,,,,,,,,,,,,,,,,,,,,,,,,,,,,,,,,,,,,,,,,,,RW2XLH,train_y,red_square,bottom_right,2025-09-13_12h04.35.025,HideSeek_v1,2022.2.5,59.918522827941715,
,,,,,,,,,,,30,,,,0,0,0,0,,,,,,,,,,,,,,,,,,,,,,,,,,,,,,,,,,,,,,,,,,,,,,,,,,,,,,,,,,,,,,,,,,,,,,,,,,,,,,21,0.7,0,0,99,1,30,0,conditions/schedules/train_y_first/red_square_00/bottom_right/inputTrain_1.1.xlsx,99,1,1,1,0,,,,,,,,,,,,,,,,,,,,,,,,,,,,,,,,,,,,,,,,,,,,,,,,,,,,,,,,,,,,,,,,,,,,,,,,,,,RW2XLH,train_y,red_square,bottom_right,2025-09-13_12h04.35.025,HideSeek_v1,2022.2.5,59.918522827941715,
,,,,,,,,,,,,,,,1,0,1,0,0,0,0,0,,,,,,,,,,,,,,,,,,,,,,,,,,,,,,,conditions/schedules/train_y_first/red_square_00/bottom_right/instructions/Slide13.png,conditions/schedules/train_y_first/red_square_00/bottom_right/instructions/Audio13.wav,241.90787899983115,241.90333020011894,13,"[7.502587200142443, 17.762038100045174, 17.063003099989146, 19.253425400005654, 4.6339635998010635, 4.448333699954674, 5.231215400155634, 11.673899200046435, 6.338764199987054, 6.784051700029522, 9.70147049985826, 13.339312600204721, 16.256721100071445]","[7.502594700083137, 0.014149899827316403, 17.0630097000394, 19.253431899938732, 0.01428709994070232, 0.014131100149825215, 0.03117750003002584, 11.673905699979514, 0.06211069994606078, 0.06449720007367432, 0.06210210011340678, 13.339318700134754, 16.256727600004524]",0,,,,,,,,,,,,,,,,,,,,,,,,,,,,,,,,,,,,,,,,,,,,,,,,,,,,,,,,,,,,,,,,,,,,,,,,,,,,,,,,,,,,,,,,,,,,,,,,,,,,,,,,,,,,,,,,,,,,,,,,,,,,RW2XLH,train_y,red_square,bottom_right,2025-09-13_12h04.35.025,HideSeek_v1,2022.2.5,59.918522827941715,
,,,,,,,,,,,,,,,1,0,1,0,1,0,1,0,,,,,,,,,,,,,,,,,,,,,,,,,,,,,,,conditions/schedules/train_y_first/red_square_00/bottom_right/instructions/Slide14.png,conditions/schedules/train_y_first/red_square_00/bottom_right/instructions/Audio14.wav,258.24106469983235,258.2337029000046,14,"[7.502587200142443, 17.762038100045174, 17.063003099989146, 19.253425400005654, 4.6339635998010635, 4.448333699954674, 5.231215400155634, 11.673899200046435, 6.338764199987054, 6.784051700029522, 9.70147049985826, 13.339312600204721, 16.256721100071445, 17.304571600165218]","[7.502594700083137, 0.014149899827316403, 17.0630097000394, 19.253431899938732, 0.01428709994070232, 0.014131100149825215, 0.03117750003002584, 11.673905699979514, 0.06211069994606078, 0.06449720007367432, 0.06210210011340678, 13.339318700134754, 0.03642090014182031, 17.30457800021395]",0,,,,,,,,,,,,,,,,,,,,,,,,,,,,,,,,,,,,,,,,,,,,,,,,,,,,,,,,,,,,,,,,,,,,,,,,,,,,,,,,,,,,,,,,,,,,,,,,,,,,,,,,,,,,,,,,,,,,,,,,,,,,RW2XLH,train_y,red_square,bottom_right,2025-09-13_12h04.35.025,HideSeek_v1,2022.2.5,59.918522827941715,
2,5,3,5,3,0,0,16,2,instr_dim1_1,,,,,,1,0,1,0,,,,,0,0,0,0,,,,,,,,,,,,,,,,,,,,,,,,,,,,,,,,,,,,,stimuli/alien_stimuli/16.png,conditions/schedules/train_y_first/red_square_00/bottom_right/inputInstr_1.xlsx,stimuli/alien_stimuli/16.png,275.64661639998667,275.64661639998667,275.64661639998667,275.64661639998667,275.6482006799197,return,7.419442600104958,"[-0.16, -0.08, 0, 0.08, 0.16, 0.24, 0.32, 0.4, 0.48, 0.56]","[-0.4, -0.32, -0.24, -0.16, -0.08, 0, 0.08, 0.16, 0.24, 0.32]",3,3,5,5,0.0,0.0,283.22126389993355,283.22126389993355,283.22126389993355,283.22126389993355,283.22126389993355,283.22126389993355,283.22126389993355,283.2208395601483,5.5051207998767495,return,5.345033599995077,stimuli/alien_stimuli/16.png,16,5,2,,,,,,,,,,,,,,,,,,,,,,,,,,,,,,,,,,,,,,,,,,,,,,,,,,,,,,,,,,,,,,,,,,,,,,,,,,,,,,,,,,,,,,,,,RW2XLH,train_y,red_square,bottom_right,2025-09-13_12h04.35.025,HideSeek_v1,2022.2.5,59.918522827941715,
,,,,,,,,,,,30,,,,1,0,1,0,,,,,,,,,,,,,,,,,,,,,,,,,,,,,,,,,,,,,,,,,,,,,,,,,,,,,,,,,,,,,,,,,,,,,,,,,,,,,,21,0.7,0,0,99,1,30,0,conditions/schedules/train_y_first/red_square_00/bottom_right/inputTrain_1.1.xlsx,99,1,1,1,0,,,,,,,,,,,,,,,,,,,,,,,,,,,,,,,,,,,,,,,,,,,,,,,,,,,,,,,,,,,,,,,,,,,,,,,,,,,RW2XLH,train_y,red_square,bottom_right,2025-09-13_12h04.35.025,HideSeek_v1,2022.2.5,59.918522827941715,
,,,,,,,,,,,,,,,2,0,2,0,0,0,0,0,,,,,,,,,,,,,,,,,,,,,,,,,,,,,,,conditions/schedules/train_y_first/red_square_00/bottom_right/instructions/Slide15.png,conditions/schedules/train_y_first/red_square_00/bottom_right/instructions/Audio15.wav,288.7740270998329,288.7753271800466,15,"[7.502587200142443, 17.762038100045174, 17.063003099989146, 19.253425400005654, 4.6339635998010635, 4.448333699954674, 5.231215400155634, 11.673899200046435, 6.338764199987054, 6.784051700029522, 9.70147049985826, 13.339312600204721, 16.256721100071445, 17.304571600165218, 43.25179190002382]","[7.502594700083137, 0.014149899827316403, 17.0630097000394, 19.253431899938732, 0.01428709994070232, 0.014131100149825215, 0.03117750003002584, 11.673905699979514, 0.06211069994606078, 0.06449720007367432, 0.06210210011340678, 13.339318700134754, 0.03642090014182031, 17.30457800021395, 43.251798500074074]",0,,,,,,,,,,,,,,,,,,,,,,,,,,,,,,,,,,,,,,,,,,,,,,,,,,,,,,,,,,,,,,,,,,,,,,,,,,,,,,,,,,,,,,,,,,,,,,,,,,,,,,,,,,,,,,,,,,,,,,,,,,,,RW2XLH,train_y,red_square,bottom_right,2025-09-13_12h04.35.025,HideSeek_v1,2022.2.5,59.918522827941715,
,,,,,,,,,,,,,,,2,0,2,0,1,0,1,0,,,,,,,,,,,,,,,,,,,,,,,,,,,,,,,conditions/schedules/train_y_first/red_square_00/bottom_right/instructions/Slide16.png,conditions/schedules/train_y_first/red_square_00/bottom_right/instructions/Audio16.wav,332.08967259991914,332.0782598599326,16,"[7.502587200142443, 17.762038100045174, 17.063003099989146, 19.253425400005654, 4.6339635998010635, 4.448333699954674, 5.231215400155634, 11.673899200046435, 6.338764199987054, 6.784051700029522, 9.70147049985826, 13.339312600204721, 16.256721100071445, 17.304571600165218, 43.25179190002382, 21.087134999921545]","[7.502594700083137, 0.014149899827316403, 17.0630097000394, 19.253431899938732, 0.01428709994070232, 0.014131100149825215, 0.03117750003002584, 11.673905699979514, 0.06211069994606078, 0.06449720007367432, 0.06210210011340678, 13.339318700134754, 0.03642090014182031, 17.30457800021395, 0.05312149995006621, 21.087141199968755]",0,,,,,,,,,,,,,,,,,,,,,,,,,,,,,,,,,,,,,,,,,,,,,,,,,,,,,,,,,,,,,,,,,,,,,,,,,,,,,,,,,,,,,,,,,,,,,,,,,,,,,,,,,,,,,,,,,,,,,,,,,,,,RW2XLH,train_y,red_square,bottom_right,2025-09-13_12h04.35.025,HideSeek_v1,2022.2.5,59.918522827941715,
,5,0,5,1,0,1,15,,train_dim1_1,1,30,,,,2,0,2,0,,,,,,,,,0,0,0,0,0,0,0,0,0,0,0,0,,,,,,,,,,,,,,,,,,,,,,,,,stimuli/alien_stimuli/15.png,,,,,,,,,,,,,,,,,,,,,,,,,,,,,,,,,,,,,,,30,,,,,,,,353.28939950000495,353.28939950000495,353.28939950000495,353.28939950000495,353.28939950000495,up,4.757474499987438,0,0,0,99,0.24,-0.32,up,4.650975200114772,,,,,,,,,,,,,,,,,,,,,,,,,,,,,,,,,,,,,,,,,,,,,,,,,,,,,,,,,,,,RW2XLH,train_y,red_square,bottom_right,2025-09-13_12h04.35.025,HideSeek_v1,2022.2.5,59.918522827941715,
,5,0,5,1,0,1,15,,train_dim1_1,1,30,,,,2,0,2,0,,,,,,,,,0,0,0,0,0,0,0,0,1,0,1,0,,,,,,,,,,,,,,,,,,,,,,,,,,,,,,,,,,,,,,,,,,,,,,,,,,,,,,,,,,,,,,,,30,,,,,,,,358.0370745998807,358.0370745998807,358.0370745998807,358.0370745998807,358.0370745998807,up,2.877921999897808,0,0,0,99,0.24,-0.24,up,2.7851807000115514,,,,,,,,,,,,,,,,,,,,,,,,,,,,,,,,,,,,,,,,,,,,,,,,,,,,,,,,,,,,RW2XLH,train_y,red_square,bottom_right,2025-09-13_12h04.35.025,HideSeek_v1,2022.2.5,59.918522827941715,
,5,0,5,1,0,1,15,,train_dim1_1,1,30,,,,2,0,2,0,,,,,,,,,0,0,0,0,0,0,0,0,2,0,2,0,,,,,,,,,,,,,,,,,,,,,,,,,,,,,,,,,,,,,,,,,,,,,,,,,,,,,,,,,,,,,,,,30,,,,,,,,360.92101329984143,360.92101329984143,360.92101329984143,360.92101329984143,360.92101329984143,up,0.6436946999747306,0,0,0,99,0.24,-0.15999999999999998,up,0.5629206001758575,,,,,,,,,,,,,,,,,,,,,,,,,,,,,,,,,,,,,,,,,,,,,,,,,,,,,,,,,,,,RW2XLH,train_y,red_square,bottom_right,2025-09-13_12h04.35.025,HideSeek_v1,2022.2.5,59.918522827941715,
,5,0,5,1,0,1,15,,train_dim1_1,1,30,,,,2,0,2,0,,,,,,,,,0,0,0,0,0,0,0,0,3,0,3,0,,,,,,,,,,,,,,,,,,,,,,,,,,,,,,,,,,,,,,,,,,,,,,,,,,,,,,,,,,,,,,,,30,,,,,,,,361.5711015998386,361.5711015998386,361.5711015998386,361.5711015998386,361.5711015998386,up,2.6784117000643164,0,0,0,99,0.24,-0.07999999999999997,up,2.593602300155908,,,,,,,,,,,,,,,,,,,,,,,,,,,,,,,,,,,,,,,,,,,,,,,,,,,,,,,,,,,,RW2XLH,train_y,red_square,bottom_right,2025-09-13_12h04.35.025,HideSeek_v1,2022.2.5,59.918522827941715,
,5,0,5,1,0,1,15,,train_dim1_1,1,30,,,,2,0,2,0,,,,,,,,,0,0,0,0,0,0,0,0,4,0,4,0,,,,,,,,,,,,,,,,,,,,,,,,,,,,,,,,,,,,,,,,,,,,,,,,,,,,,,,,,,,,,,,,30,,,,,,,,364.2596558998339,364.2596558998339,364.2596558998339,364.2596558998339,364.2596558998339,up,0.6406549999956042,0,0,0,99,0.24,2.7755575615628914e-17,up,0.5491271999198943,,,,,,,,,,,,,,,,,,,,,,,,,,,,,,,,,,,,,,,,,,,,,,,,,,,,,,,,,,,,RW2XLH,train_y,red_square,bottom_right,2025-09-13_12h04.35.025,HideSeek_v1,2022.2.5,59.918522827941715,
,5,0,5,1,0,1,15,,train_dim1_1,1,30,,,,2,0,2,0,,,,,,,,,0,0,0,0,0,0,0,0,5,0,5,0,,,,,,,,,,,,,,,,,,,,,,,,,,,,,,,,,,,,,,,,,,,,,,,,,,,,,,,,,,,,,,,,30,,,,,,,,364.90687289997004,364.90687289997004,364.90687289997004,364.90687289997004,364.90687289997004,return,5.964640700025484,0,0,0,0,0.24,2.7755575615628914e-17,return,5.884947200072929,5,0,0.24,2.7755575615628914e-17,,,,,,,,,,,,,,,,,,,,,,,,,,,,,,,,,,,,,,,,,,,,,,,,,,,,,,,,RW2XLH,train_y,red_square,bottom_right,2025-09-13_12h04.35.025,HideSeek_v1,2022.2.5,59.918522827941715,
,8,2,8,2,0,0,16,,train_dim1_1,2,30,,,,2,0,2,0,,,,,,,,,0,0,0,0,0,1,1,1,0,0,0,0,,,,,,,,,,,,,,,,,,,,,,,,,stimuli/alien_stimuli/16.png,,,,,,,,,,,,,,,,,,,,,,,,,,,,,stimuli/alien_stimuli/15.png,15,5,3,,,,,,,30,,,,,,,,402.55491269985214,402.55491269985214,402.55491269985214,402.55491269985214,402.55491269985214,left,5.091174300061539,0,0,0,99,0.39999999999999997,-0.24,left,4.987671999959275,,,,,400.9852739998605,402.55491269985214,0.24,-0.32,0.08,0.0,-0.36,0.24,0.24,0.24,-0.32,372.46110479999334,372.46110479999334,372.46110479999334,372.46110479999334,372.46110479999334,372.46110479999334,372.46110479999334,372.46110479999334,372.4451186200604,28.65918459999375,return,28.49501399998553,,,,,,,,,,,,,,,,,,,,,,,,,,,,,,,,,RW2XLH,train_y,red_square,bottom_right,2025-09-13_12h04.35.025,HideSeek_v1,2022.2.5,59.918522827941715,
,8,2,8,2,0,0,16,,train_dim1_1,2,30,,,,2,0,2,0,,,,,,,,,0,0,0,0,0,1,1,1,1,0,1,0,,,,,,,,,,,,,,,,,,,,,,,,,,,,,,,,,,,,,,,,,,,,,,,,,,,,,,,,,,,,,,,,30,,,,,,,,407.6448591998778,407.6448591998778,407.6448591998778,407.6448591998778,407.6448591998778,return,2.0089666000567377,0,1,0,0,0.39999999999999997,-0.24,return,1.9176980000920594,5,-1,0.39999999999999997,-0.24,,,,,,,,,,,,,,,,,,,,,,,,,,,,,,,,,,,,,,,,,,,,,,,,,,,,,,,,RW2XLH,train_y,red_square,bottom_right,2025-09-13_12h04.35.025,HideSeek_v1,2022.2.5,59.918522827941715,
,7,3,7,6,0,3,13,,train_dim1_1,3,30,,,,2,0,2,0,,,,,,,,,0,0,0,0,0,2,2,2,0,0,0,0,,,,,,,,,,,,,,,,,,,,,,,,,stimuli/alien_stimuli/13.png,,,,,,,,,,,,,,,,,,,,,,,,,,,,,stimuli/alien_stimuli/16.png,16,8,4,,,,,,,30,,,,,,,,448.9649685998447,448.9649685998447,448.9649685998447,448.9649685998447,448.9649685998447,down,4.756164599908516,0,1,0,99,0.4,-0.24,down,4.65499519999139,,,,,447.39069469994865,448.9649685998447,0.48,-0.24,0.0,0.0,-0.24,0.48,0.48,0.48,-0.24,411.22876049997285,411.22876049997285,411.22876049997285,411.22876049997285,411.22876049997285,411.22876049997285,411.22876049997285,411.22876049997285,411.2270120200701,36.28216699999757,return,36.13884499995038,,,,,,,,,,,,,,,,,,,,,,,,,,,,,,,,,RW2XLH,train_y,red_square,bottom_right,2025-09-13_12h04.35.025,HideSeek_v1,2022.2.5,59.918522827941715,
,7,3,7,6,0,3,13,,train_dim1_1,3,30,,,,2,0,2,0,,,,,,,,,0,0,0,0,0,2,2,2,1,0,1,0,,,,,,,,,,,,,,,,,,,,,,,,,,,,,,,,,,,,,,,,,,,,,,,,,,,,,,,,,,,,,,,,30,,,,,,,,453.7146001998335,453.7146001998335,453.7146001998335,453.7146001998335,453.7146001998335,left,1.1765070999972522,0,1,0,99,0.32,-0.24,left,1.0833210998680443,,,,,,,,,,,,,,,,,,,,,,,,,,,,,,,,,,,,,,,,,,,,,,,,,,,,,,,,,,,,RW2XLH,train_y,red_square,bottom_right,2025-09-13_12h04.35.025,HideSeek_v1,2022.2.5,59.918522827941715,
,7,3,7,6,0,3,13,,train_dim1_1,3,30,,,,2,0,2,0,,,,,,,,,0,0,0,0,0,2,2,2,2,0,2,0,,,,,,,,,,,,,,,,,,,,,,,,,,,,,,,,,,,,,,,,,,,,,,,,,,,,,,,,,,,,,,,,30,,,,,,,,454.8971008998342,454.8971008998342,454.8971008998342,454.8971008998342,454.8971008998342,up,1.9446044000796974,0,1,0,99,0.32,-0.15999999999999998,up,1.8552725999616086,,,,,,,,,,,,,,,,,,,,,,,,,,,,,,,,,,,,,,,,,,,,,,,,,,,,,,,,,,,,RW2XLH,train_y,red_square,bottom_right,2025-09-13_12h04.35.025,HideSeek_v1,2022.2.5,59.918522827941715,
,7,3,7,6,0,3,13,,train_dim1_1,3,30,,,,2,0,2,0,,,,,,,,,0,0,0,0,0,2,2,2,3,0,3,0,,,,,,,,,,,,,,,,,,,,,,,,,,,,,,,,,,,,,,,,,,,,,,,,,,,,,,,,,,,,,,,,30,,,,,,,,456.8532886998728,456.8532886998728,456.8532886998728,456.8532886998728,456.8532886998728,right,2.361088499892503,0,1,0,99,0.4,-0.15999999999999998,right,2.2676928001455963,,,,,,,,,,,,,,,,,,,,,,,,,,,,,,,,,,,,,,,,,,,,,,,,,,,,,,,,,,,,RW2XLH,train_y,red_square,bottom_right,2025-09-13_12h04.35.025,HideSeek_v1,2022.2.5,59.918522827941715,
,7,3,7,6,0,3,13,,train_dim1_1,3,30,,,,2,0,2,0,,,,,,,,,0,0,0,0,0,2,2,2,4,0,4,0,,,,,,,,,,,,,,,,,,,,,,,,,,,,,,,,,,,,,,,,,,,,,,,,,,,,,,,,,,,,,,,,30,,,,,,,,459.22095989994705,459.22095989994705,459.22095989994705,459.22095989994705,459.22095989994705,return,4.577213800046593,0,0,0,0,0.4,-0.15999999999999998,return,4.4923459000419825,5,-1,0.4,-0.15999999999999998,,,,,,,,,,,,,,,,,,,,,,,,,,,,,,,,,,,,,,,,,,,,,,,,,,,,,,,,RW2XLH,train_y,red_square,bottom_right,2025-09-13_12h04.35.025,HideSeek_v1,2022.2.5,59.918522827941715,
,5,1,5,5,0,4,12,,train_dim1_1,4,30,,,,2,0,2,0,,,,,,,,,0,0,0,0,0,3,3,3,0,0,0,0,,,,,,,,,,,,,,,,,,,,,,,,,stimuli/alien_stimuli/12.png,,,,,,,,,,,,,,,,,,,,,,,,,,,,,stimuli/alien_stimuli/13.png,13,7,5,,,,,,,30,,,,,,,,489.8167802998796,489.8167802998796,489.8167802998796,489.8167802998796,489.8167802998796,return,13.495755500160158,0,0,0,0,0.24,-0.32,return,13.396468800026923,5,-1,0.24,-0.32,488.2412148998119,489.8167802998796,0.4,0.08,0.24,0.0,-0.04,0.4,0.4,0.4,0.08,465.3889582999982,465.3889582999982,465.3889582999982,465.3889582999982,465.3889582999982,465.3889582999982,465.3889582999982,465.3889582999982,465.3886571599869,22.98811660008505,return,22.830422299914062,,,,,,,,,,,,,,,,,,,,,,,,,,,,,,,,,RW2XLH,train_y,red_square,bottom_right,2025-09-13_12h04.35.025,HideSeek_v1,2022.2.5,59.918522827941715,
,8,3,8,8,0,5,11,,train_dim1_1,5,30,,,,2,0,2,0,,,,,,,,,0,0,0,0,0,4,4,4,0,0,0,0,,,,,,,,,,,,,,,,,,,,,,,,,stimuli/alien_stimuli/11.png,,,,,,,,,,,,,,,,,,,,,,,,,,,,,stimuli/alien_stimuli/12.png,12,5,6,,,,,,,30,,,,,,,,523.3290239998605,523.3290239998605,523.3290239998605,523.3290239998605,523.3290239998605,up,4.237717499956489,0,0,0,99,0.48,-0.08,up,4.139447299996391,,,,,521.7524127999786,523.3290239998605,0.24,0,0.32,0.0,-0.16,0.24,0.24,0.24,0,504.89027479989454,504.89027479989454,504.89027479989454,504.89027479989454,504.89027479989454,504.89027479989454,504.89027479989454,504.89027479989454,504.8881650600815,16.999832100002095,return,16.832749899942428,,,,,,,,,,,,,,,,,,,,,,,,,,,,,,,,,RW2XLH,train_y,red_square,bottom_right,2025-09-13_12h04.35.025,HideSeek_v1,2022.2.5,59.918522827941715,
,8,3,8,8,0,5,11,,train_dim1_1,5,30,,,,2,0,2,0,,,,,,,,,0,0,0,0,0,4,4,4,1,0,1,0,,,,,,,,,,,,,,,,,,,,,,,,,,,,,,,,,,,,,,,,,,,,,,,,,,,,,,,,,,,,,,,,30,,,,,,,,527.5605929999147,527.5605929999147,527.5605929999147,527.5605929999147,527.5605929999147,up,0.6590281999669969,0,0,0,99,0.48,0.0,up,0.5759616999421269,,,,,,,,,,,,,,,,,,,,,,,,,,,,,,,,,,,,,,,,,,,,,,,,,,,,,,,,,,,,RW2XLH,train_y,red_square,bottom_right,2025-09-13_12h04.35.025,HideSeek_v1,2022.2.5,59.918522827941715,
,8,3,8,8,0,5,11,,train_dim1_1,5,30,,,,2,0,2,0,,,,,,,,,0,0,0,0,0,4,4,4,2,0,2,0,,,,,,,,,,,,,,,,,,,,,,,,,,,,,,,,,,,,,,,,,,,,,,,,,,,,,,,,,,,,,,,,30,,,,,,,,528.2249948999379,528.2249948999379,528.2249948999379,528.2249948999379,528.2249948999379,up,0.977017099969089,0,0,0,99,0.48,0.08,up,0.8990591999609023,,,,,,,,,,,,,,,,,,,,,,,,,,,,,,,,,,,,,,,,,,,,,,,,,,,,,,,,,,,,RW2XLH,train_y,red_square,bottom_right,2025-09-13_12h04.35.025,HideSeek_v1,2022.2.5,59.918522827941715,
,8,3,8,8,0,5,11,,train_dim1_1,5,30,,,,2,0,2,0,,,,,,,,,0,0,0,0,0,4,4,4,3,0,3,0,,,,,,,,,,,,,,,,,,,,,,,,,,,,,,,,,,,,,,,,,,,,,,,,,,,,,,,,,,,,,,,,30,,,,,,,,529.2134640999138,529.2134640999138,529.2134640999138,529.2134640999138,529.2134640999138,up,1.4580023000016809,0,0,0,99,0.48,0.16,up,1.3755545997992158,,,,,,,,,,,,,,,,,,,,,,,,,,,,,,,,,,,,,,,,,,,,,,,,,,,,,,,,,,,,RW2XLH,train_y,red_square,bottom_right,2025-09-13_12h04.35.025,HideSeek_v1,2022.2.5,59.918522827941715,
,8,3,8,8,0,5,11,,train_dim1_1,5,30,,,,2,0,2,0,,,,,,,,,0,0,0,0,0,4,4,4,4,0,4,0,,,,,,,,,,,,,,,,,,,,,,,,,,,,,,,,,,,,,,,,,,,,,,,,,,,,,,,,,,,,,,,,30,,,,,,,,530.6798003998119,530.6798003998119,530.6798003998119,530.6798003998119,530.6798003998119,return,1.025688499910757,0,1,0,0,0.48,0.16,return,0.9469244999345392,9,-1,0.48,0.16,,,,,,,,,,,,,,,,,,,,,,,,,,,,,,,,,,,,,,,,,,,,,,,,,,,,,,,,RW2XLH,train_y,red_square,bottom_right,2025-09-13_12h04.35.025,HideSeek_v1,2022.2.5,59.918522827941715,
,6,4,6,8,0,4,12,,train_dim1_1,6,30,,,,2,0,2,0,,,,,,,,,0,0,0,0,0,5,5,5,0,0,0,0,,,,,,,,,,,,,,,,,,,,,,,,,stimuli/alien_stimuli/12.png,,,,,,,,,,,,,,,,,,,,,,,,,,,,,stimuli/alien_stimuli/11.png,11,8,7,,,,,,,30,,,,,,,,544.9168981998228,544.9168981998228,544.9168981998228,544.9168981998228,544.9168981998228,up,4.086442499887198,0,1,0,99,0.32,0.0,up,3.9762864999938756,,,,,543.3369447998703,544.9168981998228,0.48,0.24,0.4,0.0,0.039999999999999994,0.48,0.48,0.48,0.24,533.277910299832,533.277910299832,533.277910299832,533.277910299832,533.277910299832,533.277910299832,533.277910299832,533.277910299832,533.278384620091,10.176969000138342,return,10.041273499839008,,,,,,,,,,,,,,,,,,,,,,,,,,,,,,,,,RW2XLH,train_y,red_square,bottom_right,2025-09-13_12h04.35.025,HideSeek_v1,2022.2.5,59.918522827941715,
,6,4,6,8,0,4,12,,train_dim1_1,6,30,,,,2,0,2,0,,,,,,,,,0,0,0,0,0,5,5,5,1,0,1,0,,,,,,,,,,,,,,,,,,,,,,,,,,,,,,,,,,,,,,,,,,,,,,,,,,,,,,,,,,,,,,,,30,,,,,,,,549.0021469998173,549.0021469998173,549.0021469998173,549.0021469998173,549.0021469998173,up,0.24064949993044138,0,1,0,99,0.32,0.08,up,0.1425900999456644,,,,,,,,,,,,,,,,,,,,,,,,,,,,,,,,,,,,,,,,,,,,,,,,,,,,,,,,,,,,RW2XLH,train_y,red_square,bottom_right,2025-09-13_12h04.35.025,HideSeek_v1,2022.2.5,59.918522827941715,
,6,4,6,8,0,4,12,,train_dim1_1,6,30,,,,2,0,2,0,,,,,,,,,0,0,0,0,0,5,5,5,2,0,2,0,,,,,,,,,,,,,,,,,,,,,,,,,,,,,,,,,,,,,,,,,,,,,,,,,,,,,,,,,,,,,,,,30,,,,,,,,549.2470026998781,549.2470026998781,549.2470026998781,549.2470026998781,549.2470026998781,up,0.39111740002408624,0,1,0,99,0.32,0.16,up,0.30905640008859336,,,,,,,,,,,,,,,,,,,,,,,,,,,,,,,,,,,,,,,,,,,,,,,,,,,,,,,,,,,,RW2XLH,train_y,red_square,bottom_right,2025-09-13_12h04.35.025,HideSeek_v1,2022.2.5,59.918522827941715,
,6,4,6,8,0,4,12,,train_dim1_1,6,30,,,,2,0,2,0,,,,,,,,,0,0,0,0,0,5,5,5,3,0,3,0,,,,,,,,,,,,,,,,,,,,,,,,,,,,,,,,,,,,,,,,,,,,,,,,,,,,,,,,,,,,,,,,30,,,,,,,,549.6434803998563,549.6434803998563,549.6434803998563,549.6434803998563,549.6434803998563,return,1.6613440001383424,0,1,0,0,0.32,0.16,return,1.5787944998592138,12,-1,0.32,0.16,,,,,,,,,,,,,,,,,,,,,,,,,,,,,,,,,,,,,,,,,,,,,,,,,,,,,,,,RW2XLH,train_y,red_square,bottom_right,2025-09-13_12h04.35.025,HideSeek_v1,2022.2.5,59.918522827941715,
,6,3,6,6,0,3,13,,train_dim1_1,7,30,,,,2,0,2,0,,,,,,,,,0,0,0,0,0,6,6,6,0,0,0,0,,,,,,,,,,,,,,,,,,,,,,,,,stimuli/alien_stimuli/13.png,,,,,,,,,,,,,,,,,,,,,,,,,,,,,stimuli/alien_stimuli/12.png,12,6,8,,,,,,,30,,,,,,,,561.8761374999303,561.8761374999303,561.8761374999303,561.8761374999303,561.8761374999303,up,3.422997900051996,0,1,0,99,0.32,-0.08,up,3.344511599978432,,,,,560.3174250000156,561.8761374999303,0.32,0.24,0.32,0.0,0.07999999999999999,0.32,0.32,0.32,0.24,552.8789643999189,552.8789643999189,552.8789643999189,552.8789643999189,552.8789643999189,552.8789643999189,552.8789643999189,552.8789643999189,552.8779584199656,7.55881299986504,return,7.409427800215781,,,,,,,,,,,,,,,,,,,,,,,,,,,,,,,,,RW2XLH,train_y,red_square,bottom_right,2025-09-13_12h04.35.025,HideSeek_v1,2022.2.5,59.918522827941715,
,6,3,6,6,0,3,13,,train_dim1_1,7,30,,,,2,0,2,0,,,,,,,,,0,0,0,0,0,6,6,6,1,0,1,0,,,,,,,,,,,,,,,,,,,,,,,,,,,,,,,,,,,,,,,,,,,,,,,,,,,,,,,,,,,,,,,,30,,,,,,,,565.3084391998127,565.3084391998127,565.3084391998127,565.3084391998127,565.3084391998127,up,0.5904383999295533,0,1,0,99,0.32,0.0,up,0.5018086999189109,,,,,,,,,,,,,,,,,,,,,,,,,,,,,,,,,,,,,,,,,,,,,,,,,,,,,,,,,,,,RW2XLH,train_y,red_square,bottom_right,2025-09-13_12h04.35.025,HideSeek_v1,2022.2.5,59.918522827941715,
,6,3,6,6,0,3,13,,train_dim1_1,7,30,,,,2,0,2,0,,,,,,,,,0,0,0,0,0,6,6,6,2,0,2,0,,,,,,,,,,,,,,,,,,,,,,,,,,,,,,,,,,,,,,,,,,,,,,,,,,,,,,,,,,,,,,,,30,,,,,,,,565.9103587998543,565.9103587998543,565.9103587998543,565.9103587998543,565.9103587998543,up,0.7571793999522924,0,1,0,99,0.32,0.08,up,0.6669405000284314,,,,,,,,,,,,,,,,,,,,,,,,,,,,,,,,,,,,,,,,,,,,,,,,,,,,,,,,,,,,RW2XLH,train_y,red_square,bottom_right,2025-09-13_12h04.35.025,HideSeek_v1,2022.2.5,59.918522827941715,
,6,3,6,6,0,3,13,,train_dim1_1,7,30,,,,2,0,2,0,,,,,,,,,0,0,0,0,0,6,6,6,3,0,3,0,,,,,,,,,,,,,,,,,,,,,,,,,,,,,,,,,,,,,,,,,,,,,,,,,,,,,,,,,,,,,,,,30,,,,,,,,566.6764583999757,566.6764583999757,566.6764583999757,566.6764583999757,566.6764583999757,up,0.8757699001580477,0,1,0,99,0.32,0.16,up,0.7870181000325829,,,,,,,,,,,,,,,,,,,,,,,,,,,,,,,,,,,,,,,,,,,,,,,,,,,,,,,,,,,,RW2XLH,train_y,red_square,bottom_right,2025-09-13_12h04.35.025,HideSeek_v1,2022.2.5,59.918522827941715,
,6,3,6,6,0,3,13,,train_dim1_1,7,30,,,,2,0,2,0,,,,,,,,,0,0,0,0,0,6,6,6,4,0,4,0,,,,,,,,,,,,,,,,,,,,,,,,,,,,,,,,,,,,,,,,,,,,,,,,,,,,,,,,,,,,,,,,30,,,,,,,,567.560108799953,567.560108799953,567.560108799953,567.560108799953,567.560108799953,return,0.7742226999253035,0,1,0,0,0.32,0.16,return,0.6826156000606716,16,-1,0.32,0.16,,,,,,,,,,,,,,,,,,,,,,,,,,,,,,,,,,,,,,,,,,,,,,,,,,,,,,,,RW2XLH,train_y,red_square,bottom_right,2025-09-13_12h04.35.025,HideSeek_v1,2022.2.5,59.918522827941715,
,9,2,9,7,0,5,11,,train_dim1_1,8,30,,,,2,0,2,0,,,,,,,,,0,0,0,0,0,7,7,7,0,0,0,0,,,,,,,,,,,,,,,,,,,,,,,,,stimuli/alien_stimuli/11.png,,,,,,,,,,,,,,,,,,,,,,,,,,,,,stimuli/alien_stimuli/13.png,13,6,9,,,,,,,30,,,,,,,,581.2596175000072,581.2596175000072,581.2596175000072,581.2596175000072,581.2596175000072,up,3.306126599898562,0,1,0,99,0.56,-0.15999999999999998,up,3.2005419000051916,,,,,579.6839143999387,581.2596175000072,0.32,0.08,0.24,0.0,-0.04,0.32,0.32,0.32,0.08,569.9016676000319,569.9016676000319,569.9016676000319,569.9016676000319,569.9016676000319,569.9016676000319,569.9016676000319,569.9016676000319,569.8920694800327,9.894221700029448,return,9.750792199978605,,,,,,,,,,,,,,,,,,,,,,,,,,,,,,,,,RW2XLH,train_y,red_square,bottom_right,2025-09-13_12h04.35.025,HideSeek_v1,2022.2.5,59.918522827941715,
,9,2,9,7,0,5,11,,train_dim1_1,8,30,,,,2,0,2,0,,,,,,,,,0,0,0,0,0,7,7,7,1,0,1,0,,,,,,,,,,,,,,,,,,,,,,,,,,,,,,,,,,,,,,,,,,,,,,,,,,,,,,,,,,,,,,,,30,,,,,,,,584.5563695998862,584.5563695998862,584.5563695998862,584.5563695998862,584.5563695998862,up,0.2598003998864442,0,1,0,99,0.56,-0.07999999999999997,up,0.17740070004947484,,,,,,,,,,,,,,,,,,,,,,,,,,,,,,,,,,,,,,,,,,,,,,,,,,,,,,,,,,,,RW2XLH,train_y,red_square,bottom_right,2025-09-13_12h04.35.025,HideSeek_v1,2022.2.5,59.918522827941715,
,9,2,9,7,0,5,11,,train_dim1_1,8,30,,,,2,0,2,0,,,,,,,,,0,0,0,0,0,7,7,7,2,0,2,0,,,,,,,,,,,,,,,,,,,,,,,,,,,,,,,,,,,,,,,,,,,,,,,,,,,,,,,,,,,,,,,,30,,,,,,,,584.8233749000356,584.8233749000356,584.8233749000356,584.8233749000356,584.8233749000356,up,0.259624500060454,0,1,0,99,0.56,2.7755575615628914e-17,up,0.17690299986861646,,,,,,,,,,,,,,,,,,,,,,,,,,,,,,,,,,,,,,,,,,,,,,,,,,,,,,,,,,,,RW2XLH,train_y,red_square,bottom_right,2025-09-13_12h04.35.025,HideSeek_v1,2022.2.5,59.918522827941715,
,9,2,9,7,0,5,11,,train_dim1_1,8,30,,,,2,0,2,0,,,,,,,,,0,0,0,0,0,7,7,7,3,0,3,0,,,,,,,,,,,,,,,,,,,,,,,,,,,,,,,,,,,,,,,,,,,,,,,,,,,,,,,,,,,,,,,,30,,,,,,,,585.0921141998842,585.0921141998842,585.0921141998842,585.0921141998842,585.0921141998842,left,0.6099446001462638,0,1,0,99,0.48000000000000004,2.7755575615628914e-17,left,0.5221313000656664,,,,,,,,,,,,,,,,,,,,,,,,,,,,,,,,,,,,,,,,,,,,,,,,,,,,,,,,,,,,RW2XLH,train_y,red_square,bottom_right,2025-09-13_12h04.35.025,HideSeek_v1,2022.2.5,59.918522827941715,
,9,2,9,7,0,5,11,,train_dim1_1,8,30,,,,2,0,2,0,,,,,,,,,0,0,0,0,0,7,7,7,4,0,4,0,,,,,,,,,,,,,,,,,,,,,,,,,,,,,,,,,,,,,,,,,,,,,,,,,,,,,,,,,,,,,,,,30,,,,,,,,585.7060122999828,585.7060122999828,585.7060122999828,585.7060122999828,585.7060122999828,left,0.2769831002224237,0,1,0,99,0.4,2.7755575615628914e-17,left,0.18408480007201433,,,,,,,,,,,,,,,,,,,,,,,,,,,,,,,,,,,,,,,,,,,,,,,,,,,,,,,,,,,,RW2XLH,train_y,red_square,bottom_right,2025-09-13_12h04.35.025,HideSeek_v1,2022.2.5,59.918522827941715,
,9,2,9,7,0,5,11,,train_dim1_1,8,30,,,,2,0,2,0,,,,,,,,,0,0,0,0,0,7,7,7,5,0,5,0,,,,,,,,,,,,,,,,,,,,,,,,,,,,,,,,,,,,,,,,,,,,,,,,,,,,,,,,,,,,,,,,30,,,,,,,,585.9910465998109,585.9910465998109,585.9910465998109,585.9910465998109,585.9910465998109,return,1.594478900078684,0,0,0,0,0.4,2.7755575615628914e-17,return,1.5069703001063317,19,-3,0.4,2.7755575615628914e-17,,,,,,,,,,,,,,,,,,,,,,,,,,,,,,,,,,,,,,,,,,,,,,,,,,,,,,,,RW2XLH,train_y,red_square,bottom_right,2025-09-13_12h04.35.025,HideSeek_v1,2022.2.5,59.918522827941715,
,9,3,9,4,0,1,15,,train_dim1_1,9,30,,,,2,0,2,0,,,,,,,,,0,0,0,0,0,8,8,8,0,0,0,0,,,,,,,,,,,,,,,,,,,,,,,,,stimuli/alien_stimuli/15.png,,,,,,,,,,,,,,,,,,,,,,,,,,,,,stimuli/alien_stimuli/11.png,11,9,10,,,,,,,30,,,,,,,,598.141026899917,598.141026899917,598.141026899917,598.141026899917,598.141026899917,up,3.8400889998301864,0,0,0,99,0.56,-0.08,up,3.7621832001022995,,,,,596.5808568999637,598.141026899917,0.56,0.16,0.4,0.0,-0.039999999999999994,0.56,0.56,0.56,0.16,589.1603887998499,589.1603887998499,589.1603887998499,589.1603887998499,589.1603887998499,589.1603887998499,589.1603887998499,589.1603887998499,589.1581782200374,7.542071900097653,return,7.395170399919152,,,,,,,,,,,,,,,,,,,,,,,,,,,,,,,,,RW2XLH,train_y,red_square,bottom_right,2025-09-13_12h04.35.025,HideSeek_v1,2022.2.5,59.918522827941715,
,9,3,9,4,0,1,15,,train_dim1_1,9,30,,,,2,0,2,0,,,,,,,,,0,0,0,0,0,8,8,8,1,0,1,0,,,,,,,,,,,,,,,,,,,,,,,,,,,,,,,,,,,,,,,,,,,,,,,,,,,,,,,,,,,,,,,,30,,,,,,,,601.9882957998198,601.9882957998198,601.9882957998198,601.9882957998198,601.9882957998198,up,0.29266649996861815,0,0,0,99,0.56,0.0,up,0.20919779990799725,,,,,,,,,,,,,,,,,,,,,,,,,,,,,,,,,,,,,,,,,,,,,,,,,,,,,,,,,,,,RW2XLH,train_y,red_square,bottom_right,2025-09-13_12h04.35.025,HideSeek_v1,2022.2.5,59.918522827941715,
,9,3,9,4,0,1,15,,train_dim1_1,9,30,,,,2,0,2,0,,,,,,,,,0,0,0,0,0,8,8,8,2,0,2,0,,,,,,,,,,,,,,,,,,,,,,,,,,,,,,,,,,,,,,,,,,,,,,,,,,,,,,,,,,,,,,,,30,,,,,,,,602.2886588999536,602.2886588999536,602.2886588999536,602.2886588999536,602.2886588999536,up,0.29312360007315874,0,0,0,99,0.56,0.08,up,0.2100707001518458,,,,,,,,,,,,,,,,,,,,,,,,,,,,,,,,,,,,,,,,,,,,,,,,,,,,,,,,,,,,RW2XLH,train_y,red_square,bottom_right,2025-09-13_12h04.35.025,HideSeek_v1,2022.2.5,59.918522827941715,
,9,3,9,4,0,1,15,,train_dim1_1,9,30,,,,2,0,2,0,,,,,,,,,0,0,0,0,0,8,8,8,3,0,3,0,,,,,,,,,,,,,,,,,,,,,,,,,,,,,,,,,,,,,,,,,,,,,,,,,,,,,,,,,,,,,,,,30,,,,,,,,602.5866286000237,602.5866286000237,602.5866286000237,602.5866286000237,602.5866286000237,return,1.3942702999338508,0,0,0,0,0.56,0.08,return,1.317989599891007,22,-3,0.56,0.08,,,,,,,,,,,,,,,,,,,,,,,,,,,,,,,,,,,,,,,,,,,,,,,,,,,,,,,,RW2XLH,train_y,red_square,bottom_right,2025-09-13_12h04.35.025,HideSeek_v1,2022.2.5,59.918522827941715,
,7,2,7,2,0,0,16,,train_dim1_1,10,30,,,,2,0,2,0,,,,,,,,,0,0,0,0,0,9,9,9,0,0,0,0,,,,,,,,,,,,,,,,,,,,,,,,,stimuli/alien_stimuli/16.png,,,,,,,,,,,,,,,,,,,,,,,,,,,,,stimuli/alien_stimuli/15.png,15,9,11,,,,,,,30,,,,,,,,611.8690328998491,611.8690328998491,611.8690328998491,611.8690328998491,611.8690328998491,return,0.8707131999544799,1,0,0,1,0.4,-0.24,return,0.7817669999785721,22,-3,0.4,-0.24,610.3090154998936,611.8690328998491,0.56,-0.08,0.08,0.0,-0.12,0.56,0.56,0.56,-0.08,605.5578290999401,605.5578290999401,605.5578290999401,605.5578290999401,605.5578290999401,605.5578290999401,605.5578290999401,605.5578290999401,605.5551079199649,4.873525799950585,return,4.7329592001624405,,,,,,,,,,,,,,,,,,,,,,,,,,,,,,,,,RW2XLH,train_y,red_square,bottom_right,2025-09-13_12h04.35.025,HideSeek_v1,2022.2.5,59.918522827941715,
,9,1,9,2,0,1,15,,train_dim1_1,11,30,,,,2,0,2,0,,,,,,,,,0,0,0,0,0,10,10,10,0,0,0,0,,,,,,,,,,,,,,,,,,,,,,,,,stimuli/alien_stimuli/15.png,,,,,,,,,,,,,,,,,,,,,,,,,,,,,stimuli/alien_stimuli/16.png,16,7,12,,,,,,,30,,,,,,,,625.2280833998229,625.2280833998229,625.2280833998229,625.2280833998229,625.2280833998229,up,4.2598475001286715,1,0,0,99,0.56,-0.24,up,4.1375126000493765,,,,,623.636740299873,625.2280833998229,0.4,-0.24,0.0,0.0,-0.24,0.4,0.4,0.4,-0.24,614.2983587000053,614.2983587000053,614.2983587000053,614.2983587000053,614.2983587000053,614.2983587000053,614.2983587000053,614.2983587000053,614.2955822799122,9.443202799884602,return,9.313656799960881,,,,,,,,,,,,,,,,,,,,,,,,,,,,,,,,,RW2XLH,train_y,red_square,bottom_right,2025-09-13_12h04.35.025,HideSeek_v1,2022.2.5,59.918522827941715,
,9,1,9,2,0,1,15,,train_dim1_1,11,30,,,,2,0,2,0,,,,,,,,,0,0,0,0,0,10,10,10,1,0,1,0,,,,,,,,,,,,,,,,,,,,,,,,,,,,,,,,,,,,,,,,,,,,,,,,,,,,,,,,,,,,,,,,30,,,,,,,,629.4629369999748,629.4629369999748,629.4629369999748,629.4629369999748,629.4629369999748,return,0.9755587000399828,2,0,0,1,0.56,-0.24,return,0.8968011001124978,23,-3,0.56,-0.24,,,,,,,,,,,,,,,,,,,,,,,,,,,,,,,,,,,,,,,,,,,,,,,,,,,,,,,,RW2XLH,train_y,red_square,bottom_right,2025-09-13_12h04.35.025,HideSeek_v1,2022.2.5,59.918522827941715,
,5,0,5,5,0,5,11,,train_dim1_1,12,30,,,,2,0,2,0,,,,,,,,,0,0,0,0,0,11,11,11,0,0,0,0,,,,,,,,,,,,,,,,,,,,,,,,,stimuli/alien_stimuli/11.png,,,,,,,,,,,,,,,,,,,,,,,,,,,,,stimuli/alien_stimuli/15.png,15,9,13,,,,,,,30,,,,,,,,639.5955876999069,639.5955876999069,639.5955876999069,639.5955876999069,639.5955876999069,up,3.1529117999598384,2,0,0,99,0.24,-0.32,up,3.063070199918002,,,,,638.0319383998867,639.5955876999069,0.56,-0.24,0.08,0.0,-0.28,0.56,0.56,0.56,-0.24,632.0150029999204,632.0150029999204,632.0150029999204,632.0150029999204,632.0150029999204,632.0150029999204,632.0150029999204,632.0150029999204,632.0100515200756,6.140570600051433,return,5.987515800166875,,,,,,,,,,,,,,,,,,,,,,,,,,,,,,,,,RW2XLH,train_y,red_square,bottom_right,2025-09-13_12h04.35.025,HideSeek_v1,2022.2.5,59.918522827941715,
,5,0,5,5,0,5,11,,train_dim1_1,12,30,,,,2,0,2,0,,,,,,,,,0,0,0,0,0,11,11,11,1,0,1,0,,,,,,,,,,,,,,,,,,,,,,,,,,,,,,,,,,,,,,,,,,,,,,,,,,,,,,,,,,,,,,,,30,,,,,,,,642.7549816998653,642.7549816998653,642.7549816998653,642.7549816998653,642.7549816998653,up,0.2927718998398632,2,0,0,99,0.24,-0.24,up,0.20921999984420836,,,,,,,,,,,,,,,,,,,,,,,,,,,,,,,,,,,,,,,,,,,,,,,,,,,,,,,,,,,,RW2XLH,train_y,red_square,bottom_right,2025-09-13_12h04.35.025,HideSeek_v1,2022.2.5,59.918522827941715,
,5,0,5,5,0,5,11,,train_dim1_1,12,30,,,,2,0,2,0,,,,,,,,,0,0,0,0,0,11,11,11,2,0,2,0,,,,,,,,,,,,,,,,,,,,,,,,,,,,,,,,,,,,,,,,,,,,,,,,,,,,,,,,,,,,,,,,30,,,,,,,,643.0586224999279,643.0586224999279,643.0586224999279,643.0586224999279,643.0586224999279,return,1.5606415998190641,2,0,0,0,0.24,-0.24,return,1.475782100111246,25,-3,0.24,-0.24,,,,,,,,,,,,,,,,,,,,,,,,,,,,,,,,,,,,,,,,,,,,,,,,,,,,,,,,RW2XLH,train_y,red_square,bottom_right,2025-09-13_12h04.35.025,HideSeek_v1,2022.2.5,59.918522827941715,
,9,3,9,7,0,4,12,,train_dim1_1,13,30,,,,2,0,2,0,,,,,,,,,0,0,0,0,0,12,12,12,0,0,0,0,,,,,,,,,,,,,,,,,,,,,,,,,stimuli/alien_stimuli/12.png,,,,,,,,,,,,,,,,,,,,,,,,,,,,,stimuli/alien_stimuli/11.png,11,5,14,,,,,,,30,,,,,,,,653.2908801999874,653.2908801999874,653.2908801999874,653.2908801999874,653.2908801999874,up,2.4511568997986615,2,0,0,99,0.56,-0.08,up,2.372159299906343,,,,,651.7266708998941,653.2908801999874,0.24,0,0.4,0.0,-0.2,0.24,0.24,0.24,0,646.1905965998303,646.1905965998303,646.1905965998303,646.1905965998303,646.1905965998303,646.1905965998303,646.1905965998303,646.1905965998303,646.1886537200771,5.656796199968085,return,5.5174706999678165,,,,,,,,,,,,,,,,,,,,,,,,,,,,,,,,,RW2XLH,train_y,red_square,bottom_right,2025-09-13_12h04.35.025,HideSeek_v1,2022.2.5,59.918522827941715,
,9,3,9,7,0,4,12,,train_dim1_1,13,30,,,,2,0,2,0,,,,,,,,,0,0,0,0,0,12,12,12,1,0,1,0,,,,,,,,,,,,,,,,,,,,,,,,,,,,,,,,,,,,,,,,,,,,,,,,,,,,,,,,,,,,,,,,30,,,,,,,,655.7507964000106,655.7507964000106,655.7507964000106,655.7507964000106,655.7507964000106,up,0.29164059995673597,2,0,0,99,0.56,0.0,up,0.20165250007994473,,,,,,,,,,,,,,,,,,,,,,,,,,,,,,,,,,,,,,,,,,,,,,,,,,,,,,,,,,,,RW2XLH,train_y,red_square,bottom_right,2025-09-13_12h04.35.025,HideSeek_v1,2022.2.5,59.918522827941715,
,9,3,9,7,0,4,12,,train_dim1_1,13,30,,,,2,0,2,0,,,,,,,,,0,0,0,0,0,12,12,12,2,0,2,0,,,,,,,,,,,,,,,,,,,,,,,,,,,,,,,,,,,,,,,,,,,,,,,,,,,,,,,,,,,,,,,,30,,,,,,,,656.0523899998516,656.0523899998516,656.0523899998516,656.0523899998516,656.0523899998516,up,1.4084747000597417,2,0,0,99,0.56,0.08,up,1.3279965999536216,,,,,,,,,,,,,,,,,,,,,,,,,,,,,,,,,,,,,,,,,,,,,,,,,,,,,,,,,,,,RW2XLH,train_y,red_square,bottom_right,2025-09-13_12h04.35.025,HideSeek_v1,2022.2.5,59.918522827941715,
,9,3,9,7,0,4,12,,train_dim1_1,13,30,,,,2,0,2,0,,,,,,,,,0,0,0,0,0,12,12,12,3,0,3,0,,,,,,,,,,,,,,,,,,,,,,,,,,,,,,,,,,,,,,,,,,,,,,,,,,,,,,,,,,,,,,,,30,,,,,,,,657.4668554998934,657.4668554998934,657.4668554998934,657.4668554998934,657.4668554998934,return,0.5599591000936925,2,1,0,0,0.56,0.08,return,0.4772320999763906,28,-3,0.56,0.08,,,,,,,,,,,,,,,,,,,,,,,,,,,,,,,,,,,,,,,,,,,,,,,,,,,,,,,,RW2XLH,train_y,red_square,bottom_right,2025-09-13_12h04.35.025,HideSeek_v1,2022.2.5,59.918522827941715,
,7,2,7,2,0,0,16,,train_dim1_1,14,30,,,,2,0,2,0,,,,,,,,,0,0,0,0,0,13,13,13,0,0,0,0,,,,,,,,,,,,,,,,,,,,,,,,,stimuli/alien_stimuli/16.png,,,,,,,,,,,,,,,,,,,,,,,,,,,,,stimuli/alien_stimuli/12.png,12,9,15,,,,,,,30,,,,,,,,666.77770039998,666.77770039998,666.77770039998,666.77770039998,666.77770039998,up,4.593327400041744,2,1,0,99,0.4,-0.15999999999999998,up,4.501966999843717,,,,,665.2208286998793,666.77770039998,0.56,0.16,0.32,0.0,0.0,0.56,0.56,0.56,0.16,659.6044877998065,659.6044877998065,659.6044877998065,659.6044877998065,659.6044877998065,659.6044877998065,659.6044877998065,659.6044877998065,659.6000111200847,5.739847799995914,return,5.584145599976182,,,,,,,,,,,,,,,,,,,,,,,,,,,,,,,,,RW2XLH,train_y,red_square,bottom_right,2025-09-13_12h04.35.025,HideSeek_v1,2022.2.5,59.918522827941715,
,7,2,7,2,0,0,16,,train_dim1_1,14,30,,,,2,0,2,0,,,,,,,,,0,0,0,0,0,13,13,13,1,0,1,0,,,,,,,,,,,,,,,,,,,,,,,,,,,,,,,,,,,,,,,,,,,,,,,,,,,,,,,,,,,,,,,,30,,,,,,,,671.3791630999185,671.3791630999185,671.3791630999185,671.3791630999185,671.3791630999185,up,0.3928685002028942,2,1,0,99,0.4,-0.07999999999999997,up,0.30521430005319417,,,,,,,,,,,,,,,,,,,,,,,,,,,,,,,,,,,,,,,,,,,,,,,,,,,,,,,,,,,,RW2XLH,train_y,red_square,bottom_right,2025-09-13_12h04.35.025,HideSeek_v1,2022.2.5,59.918522827941715,
,7,2,7,2,0,0,16,,train_dim1_1,14,30,,,,2,0,2,0,,,,,,,,,0,0,0,0,0,13,13,13,2,0,2,0,,,,,,,,,,,,,,,,,,,,,,,,,,,,,,,,,,,,,,,,,,,,,,,,,,,,,,,,,,,,,,,,30,,,,,,,,671.7784912998322,671.7784912998322,671.7784912998322,671.7784912998322,671.7784912998322,return,1.49392080004327,2,0,0,0,0.4,-0.07999999999999997,return,1.4005117998458445,30,-3,0.4,-0.07999999999999997,,,,,,,,,,,,,,,,,,,,,,,,,,,,,,,,,,,,,,,,,,,,,,,,,,,,,,,,RW2XLH,train_y,red_square,bottom_right,2025-09-13_12h04.35.025,HideSeek_v1,2022.2.5,59.918522827941715,
,6,4,6,7,0,3,13,,train_dim1_1,15,30,,,,2,0,2,0,,,,,,,,,0,0,0,0,0,14,14,14,0,0,0,0,,,,,,,,,,,,,,,,,,,,,,,,,stimuli/alien_stimuli/13.png,,,,,,,,,,,,,,,,,,,,,,,,,,,,,stimuli/alien_stimuli/16.png,16,7,16,,,,,,,30,,,,,,,,679.7596734999679,679.7596734999679,679.7596734999679,679.7596734999679,679.7596734999679,up,3.7882818998768926,2,0,0,99,0.32,0.0,up,3.699719499796629,,,,,678.1986220998224,679.7596734999679,0.4,-0.24,0.0,0.0,-0.24,0.4,0.4,0.4,-0.24,674.847488099942,674.847488099942,674.847488099942,674.847488099942,674.847488099942,674.847488099942,674.847488099942,674.847488099942,674.84590442013,3.4718700000084937,return,3.333896500058472,,,,,,,,,,,,,,,,,,,,,,,,,,,,,,,,,RW2XLH,train_y,red_square,bottom_right,2025-09-13_12h04.35.025,HideSeek_v1,2022.2.5,59.918522827941715,
,6,4,6,7,0,3,13,,train_dim1_1,15,30,,,,2,0,2,0,,,,,,,,,0,0,0,0,0,14,14,14,1,0,1,0,,,,,,,,,,,,,,,,,,,,,,,,,,,,,,,,,,,,,,,,,,,,,,,,,,,,,,,,,,,,,,,,30,,,,,,,,683.5550845998805,683.5550845998805,683.5550845998805,683.5550845998805,683.5550845998805,return,2.1437367000617087,2,0,0,0,0.32,0.0,return,2.066003500018269,31,-3,0.32,0.0,,,,,,,,,,,,,,,,,,,,,,,,,,,,,,,,,,,,,,,,,,,,,,,,,,,,,,,,RW2XLH,train_y,red_square,bottom_right,2025-09-13_12h04.35.025,HideSeek_v1,2022.2.5,59.918522827941715,
,9,0,9,1,0,1,15,,train_dim1_1,16,30,,,,2,0,2,0,,,,,,,,,0,0,0,0,0,15,15,15,0,0,0,0,,,,,,,,,,,,,,,,,,,,,,,,,stimuli/alien_stimuli/15.png,,,,,,,,,,,,,,,,,,,,,,,,,,,,,stimuli/alien_stimuli/13.png,13,6,17,,,,,,,30,,,,,,,,691.9055526999291,691.9055526999291,691.9055526999291,691.9055526999291,691.9055526999291,return,4.587214299943298,2,1,0,0,0.56,-0.4,return,4.500911199953407,31,-3,0.56,-0.4,690.341851899866,691.9055526999291,0.32,0.16,0.24,0.0,0.04,0.32,0.32,0.32,0.16,687.2746760000009,687.2746760000009,687.2746760000009,687.2746760000009,687.2746760000009,687.2746760000009,687.2746760000009,687.2746760000009,687.2727268200833,3.1881798999384046,return,3.047146299853921,,,,,,,,,,,,,,,,,,,,,,,,,,,,,,,,,RW2XLH,train_y,red_square,bottom_right,2025-09-13_12h04.35.025,HideSeek_v1,2022.2.5,59.918522827941715,
,8,3,8,6,0,3,13,,train_dim1_1,17,30,,,,2,0,2,0,,,,,,,,,0,0,0,0,0,16,16,16,0,0,0,0,,,,,,,,,,,,,,,,,,,,,,,,,stimuli/alien_stimuli/13.png,,,,,,,,,,,,,,,,,,,,,,,,,,,,,stimuli/alien_stimuli/15.png,15,9,18,,,,,,,30,,,,,,,,705.0661757998168,705.0661757998168,705.0661757998168,705.0661757998168,705.0661757998168,left,2.151872399961576,2,1,0,99,0.39999999999999997,-0.16,left,2.064393100095913,,,,,703.5029622998554,705.0661757998168,0.56,-0.32,0.08,0.0,-0.36,0.56,0.56,0.56,-0.32,698.0709243998863,698.0709243998863,698.0709243998863,698.0709243998863,698.0709243998863,698.0709243998863,698.0709243998863,698.0709243998863,698.0652259199414,5.556487099966034,return,5.414962999988347,,,,,,,,,,,,,,,,,,,,,,,,,,,,,,,,,RW2XLH,train_y,red_square,bottom_right,2025-09-13_12h04.35.025,HideSeek_v1,2022.2.5,59.918522827941715,
,8,3,8,6,0,3,13,,train_dim1_1,17,30,,,,2,0,2,0,,,,,,,,,0,0,0,0,0,16,16,16,1,0,1,0,,,,,,,,,,,,,,,,,,,,,,,,,,,,,,,,,,,,,,,,,,,,,,,,,,,,,,,,,,,,,,,,30,,,,,,,,707.2249357998371,707.2249357998371,707.2249357998371,707.2249357998371,707.2249357998371,left,0.3253279000055045,2,1,0,99,0.31999999999999995,-0.16,left,0.23593480000272393,,,,,,,,,,,,,,,,,,,,,,,,,,,,,,,,,,,,,,,,,,,,,,,,,,,,,,,,,,,,RW2XLH,train_y,red_square,bottom_right,2025-09-13_12h04.35.025,HideSeek_v1,2022.2.5,59.918522827941715,
,8,3,8,6,0,3,13,,train_dim1_1,17,30,,,,2,0,2,0,,,,,,,,,0,0,0,0,0,16,16,16,2,0,2,0,,,,,,,,,,,,,,,,,,,,,,,,,,,,,,,,,,,,,,,,,,,,,,,,,,,,,,,,,,,,,,,,30,,,,,,,,707.5615483999718,707.5615483999718,707.5615483999718,707.5615483999718,707.5615483999718,up,1.7278154999949038,2,1,0,99,0.31999999999999995,-0.08,up,1.6351954999845475,,,,,,,,,,,,,,,,,,,,,,,,,,,,,,,,,,,,,,,,,,,,,,,,,,,,,,,,,,,,RW2XLH,train_y,red_square,bottom_right,2025-09-13_12h04.35.025,HideSeek_v1,2022.2.5,59.918522827941715,
,8,3,8,6,0,3,13,,train_dim1_1,17,30,,,,2,0,2,0,,,,,,,,,0,0,0,0,0,16,16,16,3,0,3,0,,,,,,,,,,,,,,,,,,,,,,,,,,,,,,,,,,,,,,,,,,,,,,,,,,,,,,,,,,,,,,,,30,,,,,,,,709.3170691998675,709.3170691998675,709.3170691998675,709.3170691998675,709.3170691998675,down,1.0595714000519365,2,1,0,99,0.31999999999999995,-0.16,down,0.9572931998409331,,,,,,,,,,,,,,,,,,,,,,,,,,,,,,,,,,,,,,,,,,,,,,,,,,,,,,,,,,,,RW2XLH,train_y,red_square,bottom_right,2025-09-13_12h04.35.025,HideSeek_v1,2022.2.5,59.918522827941715,
,8,3,8,6,0,3,13,,train_dim1_1,17,30,,,,2,0,2,0,,,,,,,,,0,0,0,0,0,16,16,16,4,0,4,0,,,,,,,,,,,,,,,,,,,,,,,,,,,,,,,,,,,,,,,,,,,,,,,,,,,,,,,,,,,,,,,,30,,,,,,,,710.360620399937,710.360620399937,710.360620399937,710.360620399937,710.360620399937,down,0.7436109001282603,2,1,0,99,0.31999999999999995,-0.24,down,0.6523101998027414,,,,,,,,,,,,,,,,,,,,,,,,,,,,,,,,,,,,,,,,,,,,,,,,,,,,,,,,,,,,RW2XLH,train_y,red_square,bottom_right,2025-09-13_12h04.35.025,HideSeek_v1,2022.2.5,59.918522827941715,
,8,3,8,6,0,3,13,,train_dim1_1,17,30,,,,2,0,2,0,,,,,,,,,0,0,0,0,0,16,16,16,5,0,5,0,,,,,,,,,,,,,,,,,,,,,,,,,,,,,,,,,,,,,,,,,,,,,,,,,,,,,,,,,,,,,,,,30,,,,,,,,711.1133482998703,711.1133482998703,711.1133482998703,711.1133482998703,711.1133482998703,down,1.5256185000762343,2,1,0,99,0.31999999999999995,-0.32,down,1.441484399838373,,,,,,,,,,,,,,,,,,,,,,,,,,,,,,,,,,,,,,,,,,,,,,,,,,,,,,,,,,,,RW2XLH,train_y,red_square,bottom_right,2025-09-13_12h04.35.025,HideSeek_v1,2022.2.5,59.918522827941715,
,8,3,8,6,0,3,13,,train_dim1_1,17,30,,,,2,0,2,0,,,,,,,,,0,0,0,0,0,16,16,16,6,0,6,0,,,,,,,,,,,,,,,,,,,,,,,,,,,,,,,,,,,,,,,,,,,,,,,,,,,,,,,,,,,,,,,,30,,,,,,,,712.6447528998833,712.6447528998833,712.6447528998833,712.6447528998833,712.6447528998833,right,1.9447699000593275,2,1,0,99,0.39999999999999997,-0.32,right,1.855724100023508,,,,,,,,,,,,,,,,,,,,,,,,,,,,,,,,,,,,,,,,,,,,,,,,,,,,,,,,,,,,RW2XLH,train_y,red_square,bottom_right,2025-09-13_12h04.35.025,HideSeek_v1,2022.2.5,59.918522827941715,
,8,3,8,6,0,3,13,,train_dim1_1,17,30,,,,2,0,2,0,,,,,,,,,0,0,0,0,0,16,16,16,7,0,7,0,,,,,,,,,,,,,,,,,,,,,,,,,,,,,,,,,,,,,,,,,,,,,,,,,,,,,,,,,,,,,,,,30,,,,,,,,714.5968633999582,714.5968633999582,714.5968633999582,714.5968633999582,714.5968633999582,right,0.35968269989825785,2,1,0,99,0.48,-0.32,right,0.2754198999609798,,,,,,,,,,,,,,,,,,,,,,,,,,,,,,,,,,,,,,,,,,,,,,,,,,,,,,,,,,,,RW2XLH,train_y,red_square,bottom_right,2025-09-13_12h04.35.025,HideSeek_v1,2022.2.5,59.918522827941715,
,8,3,8,6,0,3,13,,train_dim1_1,17,30,,,,2,0,2,0,,,,,,,,,0,0,0,0,0,16,16,16,8,0,8,0,,,,,,,,,,,,,,,,,,,,,,,,,,,,,,,,,,,,,,,,,,,,,,,,,,,,,,,,,,,,,,,,30,,,,,,,,714.9662609999068,714.9662609999068,714.9662609999068,714.9662609999068,714.9662609999068,return,1.5426870000083,2,0,0,0,0.48,-0.32,return,1.4640901000238955,29,-3,0.48,-0.32,,,,,,,,,,,,,,,,,,,,,,,,,,,,,,,,,,,,,,,,,,,,,,,,,,,,,,,,RW2XLH,train_y,red_square,bottom_right,2025-09-13_12h04.35.025,HideSeek_v1,2022.2.5,59.918522827941715,
,7,1,7,6,0,5,11,,train_dim1_1,18,30,,,,2,0,2,0,,,,,,,,,0,0,0,0,0,17,17,17,0,0,0,0,,,,,,,,,,,,,,,,,,,,,,,,,stimuli/alien_stimuli/11.png,,,,,,,,,,,,,,,,,,,,,,,,,,,,,stimuli/alien_stimuli/13.png,13,8,19,,,,,,,30,,,,,,,,723.6515802999493,723.6515802999493,723.6515802999493,723.6515802999493,723.6515802999493,up,1.9860563001129776,2,0,0,99,0.4,-0.24,up,1.8792032999917865,,,,,722.0682940999977,723.6515802999493,0.48,0.08,0.24,0.0,-0.04,0.48,0.48,0.48,0.08,718.0805106000043,718.0805106000043,718.0805106000043,718.0805106000043,718.0805106000043,718.0805106000043,718.0805106000043,718.0805106000043,718.081909920089,4.10520049999468,return,3.964496900094673,,,,,,,,,,,,,,,,,,,,,,,,,,,,,,,,,RW2XLH,train_y,red_square,bottom_right,2025-09-13_12h04.35.025,HideSeek_v1,2022.2.5,59.918522827941715,
,7,1,7,6,0,5,11,,train_dim1_1,18,30,,,,2,0,2,0,,,,,,,,,0,0,0,0,0,17,17,17,1,0,1,0,,,,,,,,,,,,,,,,,,,,,,,,,,,,,,,,,,,,,,,,,,,,,,,,,,,,,,,,,,,,,,,,30,,,,,,,,725.6252643999178,725.6252643999178,725.6252643999178,725.6252643999178,725.6252643999178,up,0.2422738999594003,2,0,0,99,0.4,-0.15999999999999998,up,0.15120399999432266,,,,,,,,,,,,,,,,,,,,,,,,,,,,,,,,,,,,,,,,,,,,,,,,,,,,,,,,,,,,RW2XLH,train_y,red_square,bottom_right,2025-09-13_12h04.35.025,HideSeek_v1,2022.2.5,59.918522827941715,
,7,1,7,6,0,5,11,,train_dim1_1,18,30,,,,2,0,2,0,,,,,,,,,0,0,0,0,0,17,17,17,2,0,2,0,,,,,,,,,,,,,,,,,,,,,,,,,,,,,,,,,,,,,,,,,,,,,,,,,,,,,,,,,,,,,,,,30,,,,,,,,725.8766401000321,725.8766401000321,725.8766401000321,725.8766401000321,725.8766401000321,up,0.21011919993907213,2,0,0,99,0.4,-0.07999999999999997,up,0.11850919993594289,,,,,,,,,,,,,,,,,,,,,,,,,,,,,,,,,,,,,,,,,,,,,,,,,,,,,,,,,,,,RW2XLH,train_y,red_square,bottom_right,2025-09-13_12h04.35.025,HideSeek_v1,2022.2.5,59.918522827941715,
,7,1,7,6,0,5,11,,train_dim1_1,18,30,,,,2,0,2,0,,,,,,,,,0,0,0,0,0,17,17,17,3,0,3,0,,,,,,,,,,,,,,,,,,,,,,,,,,,,,,,,,,,,,,,,,,,,,,,,,,,,,,,,,,,,,,,,30,,,,,,,,726.0939128999598,726.0939128999598,726.0939128999598,726.0939128999598,726.0939128999598,up,1.8946318000089377,2,0,0,99,0.4,2.7755575615628914e-17,up,1.8097707000561059,,,,,,,,,,,,,,,,,,,,,,,,,,,,,,,,,,,,,,,,,,,,,,,,,,,,,,,,,,,,RW2XLH,train_y,red_square,bottom_right,2025-09-13_12h04.35.025,HideSeek_v1,2022.2.5,59.918522827941715,
,7,1,7,6,0,5,11,,train_dim1_1,18,30,,,,2,0,2,0,,,,,,,,,0,0,0,0,0,17,17,17,4,0,4,0,,,,,,,,,,,,,,,,,,,,,,,,,,,,,,,,,,,,,,,,,,,,,,,,,,,,,,,,,,,,,,,,30,,,,,,,,727.9937593999784,727.9937593999784,727.9937593999784,727.9937593999784,727.9937593999784,return,1.1591880000196397,2,1,0,0,0.4,2.7755575615628914e-17,return,1.069223300088197,33,-3,0.4,2.7755575615628914e-17,,,,,,,,,,,,,,,,,,,,,,,,,,,,,,,,,,,,,,,,,,,,,,,,,,,,,,,,RW2XLH,train_y,red_square,bottom_right,2025-09-13_12h04.35.025,HideSeek_v1,2022.2.5,59.918522827941715,
,5,4,5,8,0,4,12,,train_dim1_1,19,30,,,,2,0,2,0,,,,,,,,,0,0,0,0,0,18,18,18,0,0,0,0,,,,,,,,,,,,,,,,,,,,,,,,,stimuli/alien_stimuli/12.png,,,,,,,,,,,,,,,,,,,,,,,,,,,,,stimuli/alien_stimuli/11.png,11,7,20,,,,,,,30,,,,,,,,734.9914788999595,734.9914788999595,734.9914788999595,734.9914788999595,734.9914788999595,up,1.6850141999311745,2,1,0,99,0.24,0.0,up,1.5912927999161184,,,,,733.4275815000292,734.9914788999595,0.4,0.08,0.4,0.0,-0.12,0.4,0.4,0.4,0.08,730.7345883999951,730.7345883999951,730.7345883999951,730.7345883999951,730.7345883999951,730.7345883999951,730.7345883999951,730.7345883999951,730.7255832201336,2.820968500105664,return,2.666414799867198,,,,,,,,,,,,,,,,,,,,,,,,,,,,,,,,,RW2XLH,train_y,red_square,bottom_right,2025-09-13_12h04.35.025,HideSeek_v1,2022.2.5,59.918522827941715,
,5,4,5,8,0,4,12,,train_dim1_1,19,30,,,,2,0,2,0,,,,,,,,,0,0,0,0,0,18,18,18,1,0,1,0,,,,,,,,,,,,,,,,,,,,,,,,,,,,,,,,,,,,,,,,,,,,,,,,,,,,,,,,,,,,,,,,30,,,,,,,,736.6849960999098,736.6849960999098,736.6849960999098,736.6849960999098,736.6849960999098,up,1.4755287000443786,2,1,0,99,0.24,0.08,up,1.3880433000158519,,,,,,,,,,,,,,,,,,,,,,,,,,,,,,,,,,,,,,,,,,,,,,,,,,,,,,,,,,,,RW2XLH,train_y,red_square,bottom_right,2025-09-13_12h04.35.025,HideSeek_v1,2022.2.5,59.918522827941715,
,5,4,5,8,0,4,12,,train_dim1_1,19,30,,,,2,0,2,0,,,,,,,,,0,0,0,0,0,18,18,18,2,0,2,0,,,,,,,,,,,,,,,,,,,,,,,,,,,,,,,,,,,,,,,,,,,,,,,,,,,,,,,,,,,,,,,,30,,,,,,,,738.166661700001,738.166661700001,738.166661700001,738.166661700001,738.166661700001,up,0.8101498999167234,2,1,0,99,0.24,0.16,up,0.7237134999595582,,,,,,,,,,,,,,,,,,,,,,,,,,,,,,,,,,,,,,,,,,,,,,,,,,,,,,,,,,,,RW2XLH,train_y,red_square,bottom_right,2025-09-13_12h04.35.025,HideSeek_v1,2022.2.5,59.918522827941715,
,5,4,5,8,0,4,12,,train_dim1_1,19,30,,,,2,0,2,0,,,,,,,,,0,0,0,0,0,18,18,18,3,0,3,0,,,,,,,,,,,,,,,,,,,,,,,,,,,,,,,,,,,,,,,,,,,,,,,,,,,,,,,,,,,,,,,,30,,,,,,,,738.9848074000329,738.9848074000329,738.9848074000329,738.9848074000329,738.9848074000329,up,0.8758263001218438,2,1,0,99,0.24,0.24,up,0.785042499890551,,,,,,,,,,,,,,,,,,,,,,,,,,,,,,,,,,,,,,,,,,,,,,,,,,,,,,,,,,,,RW2XLH,train_y,red_square,bottom_right,2025-09-13_12h04.35.025,HideSeek_v1,2022.2.5,59.918522827941715,
,5,4,5,8,0,4,12,,train_dim1_1,19,30,,,,2,0,2,0,,,,,,,,,0,0,0,0,0,18,18,18,4,0,4,0,,,,,,,,,,,,,,,,,,,,,,,,,,,,,,,,,,,,,,,,,,,,,,,,,,,,,,,,,,,,,,,,30,,,,,,,,739.8675563000143,739.8675563000143,739.8675563000143,739.8675563000143,739.8675563000143,up,2.3619635000359267,2,1,0,99,0.24,0.32,up,2.283327099867165,,,,,,,,,,,,,,,,,,,,,,,,,,,,,,,,,,,,,,,,,,,,,,,,,,,,,,,,,,,,RW2XLH,train_y,red_square,bottom_right,2025-09-13_12h04.35.025,HideSeek_v1,2022.2.5,59.918522827941715,
,5,4,5,8,0,4,12,,train_dim1_1,19,30,,,,2,0,2,0,,,,,,,,,0,0,0,0,0,18,18,18,5,0,5,0,,,,,,,,,,,,,,,,,,,,,,,,,,,,,,,,,,,,,,,,,,,,,,,,,,,,,,,,,,,,,,,,30,,,,,,,,742.2416615998372,742.2416615998372,742.2416615998372,742.2416615998372,742.2416615998372,return,0.40740060014650226,2,1,0,0,0.24,0.32,return,0.31856629997491837,38,-3,0.24,0.32,,,,,,,,,,,,,,,,,,,,,,,,,,,,,,,,,,,,,,,,,,,,,,,,,,,,,,,,RW2XLH,train_y,red_square,bottom_right,2025-09-13_12h04.35.025,HideSeek_v1,2022.2.5,59.918522827941715,
,7,0,7,0,0,0,16,,train_dim1_1,20,30,,,,2,0,2,0,,,,,,,,,0,0,0,0,0,19,19,19,0,0,0,0,,,,,,,,,,,,,,,,,,,,,,,,,stimuli/alien_stimuli/16.png,,,,,,,,,,,,,,,,,,,,,,,,,,,,,stimuli/alien_stimuli/12.png,12,5,21,,,,,,,30,,,,,,,,750.0197844000068,750.0197844000068,750.0197844000068,750.0197844000068,750.0197844000068,return,3.037153400015086,3,0,0,1,0.4,-0.4,return,2.9470546999946237,38,-3,0.4,-0.4,748.4567758999765,750.0197844000068,0.24,0.24,0.32,0.0,0.07999999999999999,0.24,0.24,0.24,0.24,744.2270923999604,744.2270923999604,744.2270923999604,744.2270923999604,744.2270923999604,744.2270923999604,744.2270923999604,744.2270923999604,744.2199114200193,4.355893400032073,return,4.2099524000659585,,,,,,,,,,,,,,,,,,,,,,,,,,,,,,,,,RW2XLH,train_y,red_square,bottom_right,2025-09-13_12h04.35.025,HideSeek_v1,2022.2.5,59.918522827941715,
,7,4,7,5,0,1,15,,train_dim1_1,21,30,,,,2,0,2,0,,,,,,,,,0,0,0,0,0,20,20,20,0,0,0,0,,,,,,,,,,,,,,,,,,,,,,,,,stimuli/alien_stimuli/15.png,,,,,,,,,,,,,,,,,,,,,,,,,,,,,stimuli/alien_stimuli/16.png,16,7,22,,,,,,,30,,,,,,,,759.4607508999761,759.4607508999761,759.4607508999761,759.4607508999761,759.4607508999761,up,3.539979299996048,3,0,0,99,0.4,0.0,up,3.4511323999613523,,,,,757.8979058999103,759.4607508999761,0.4,-0.4,0.0,0.0,-0.4,0.4,0.4,0.4,-0.4,754.6286789998412,754.6286789998412,754.6286789998412,754.6286789998412,754.6286789998412,754.6286789998412,754.6286789998412,754.6286789998412,754.628507819958,3.3884018999524415,return,3.23872430017218,,,,,,,,,,,,,,,,,,,,,,,,,,,,,,,,,RW2XLH,train_y,red_square,bottom_right,2025-09-13_12h04.35.025,HideSeek_v1,2022.2.5,59.918522827941715,
,7,4,7,5,0,1,15,,train_dim1_1,21,30,,,,2,0,2,0,,,,,,,,,0,0,0,0,0,20,20,20,1,0,1,0,,,,,,,,,,,,,,,,,,,,,,,,,,,,,,,,,,,,,,,,,,,,,,,,,,,,,,,,,,,,,,,,30,,,,,,,,763.0058832999784,763.0058832999784,763.0058832999784,763.0058832999784,763.0058832999784,return,0.4091828998643905,4,0,0,1,0.4,0.0,return,0.3226905001793057,39,-3,0.4,0.0,,,,,,,,,,,,,,,,,,,,,,,,,,,,,,,,,,,,,,,,,,,,,,,,,,,,,,,,RW2XLH,train_y,red_square,bottom_right,2025-09-13_12h04.35.025,HideSeek_v1,2022.2.5,59.918522827941715,
,5,2,5,5,0,3,13,,train_dim1_1,22,30,,,,2,0,2,0,,,,,,,,,0,0,0,0,0,21,21,21,0,0,0,0,,,,,,,,,,,,,,,,,,,,,,,,,stimuli/alien_stimuli/13.png,,,,,,,,,,,,,,,,,,,,,,,,,,,,,stimuli/alien_stimuli/15.png,15,7,23,,,,,,,30,,,,,,,,770.5886079999618,770.5886079999618,770.5886079999618,770.5886079999618,770.5886079999618,up,4.672752300044522,4,0,0,99,0.24,-0.15999999999999998,up,4.586034399922937,,,,,769.023853899911,770.5886079999618,0.4,0,0.08,0.0,-0.04,0.4,0.4,0.4,0,764.9905465999618,764.9905465999618,764.9905465999618,764.9905465999618,764.9905465999618,764.9905465999618,764.9905465999618,764.9905465999618,764.987105319975,4.155556600075215,return,4.006175500107929,,,,,,,,,,,,,,,,,,,,,,,,,,,,,,,,,RW2XLH,train_y,red_square,bottom_right,2025-09-13_12h04.35.025,HideSeek_v1,2022.2.5,59.918522827941715,
,5,2,5,5,0,3,13,,train_dim1_1,22,30,,,,2,0,2,0,,,,,,,,,0,0,0,0,0,21,21,21,1,0,1,0,,,,,,,,,,,,,,,,,,,,,,,,,,,,,,,,,,,,,,,,,,,,,,,,,,,,,,,,,,,,,,,,30,,,,,,,,775.2694754998665,775.2694754998665,775.2694754998665,775.2694754998665,775.2694754998665,up,0.30632780003361404,4,0,0,99,0.24,-0.07999999999999997,up,0.21190240001305938,,,,,,,,,,,,,,,,,,,,,,,,,,,,,,,,,,,,,,,,,,,,,,,,,,,,,,,,,,,,RW2XLH,train_y,red_square,bottom_right,2025-09-13_12h04.35.025,HideSeek_v1,2022.2.5,59.918522827941715,
,5,2,5,5,0,3,13,,train_dim1_1,22,30,,,,2,0,2,0,,,,,,,,,0,0,0,0,0,21,21,21,2,0,2,0,,,,,,,,,,,,,,,,,,,,,,,,,,,,,,,,,,,,,,,,,,,,,,,,,,,,,,,,,,,,,,,,30,,,,,,,,775.5904852999374,775.5904852999374,775.5904852999374,775.5904852999374,775.5904852999374,up,0.44119529984891415,4,0,0,99,0.24,2.7755575615628914e-17,up,0.35174109996296465,,,,,,,,,,,,,,,,,,,,,,,,,,,,,,,,,,,,,,,,,,,,,,,,,,,,,,,,,,,,RW2XLH,train_y,red_square,bottom_right,2025-09-13_12h04.35.025,HideSeek_v1,2022.2.5,59.918522827941715,
,5,2,5,5,0,3,13,,train_dim1_1,22,30,,,,2,0,2,0,,,,,,,,,0,0,0,0,0,21,21,21,3,0,3,0,,,,,,,,,,,,,,,,,,,,,,,,,,,,,,,,,,,,,,,,,,,,,,,,,,,,,,,,,,,,,,,,30,,,,,,,,776.0383579998743,776.0383579998743,776.0383579998743,776.0383579998743,776.0383579998743,up,1.2425685001071543,4,0,0,99,0.24,0.08000000000000003,up,1.1465733998920768,,,,,,,,,,,,,,,,,,,,,,,,,,,,,,,,,,,,,,,,,,,,,,,,,,,,,,,,,,,,RW2XLH,train_y,red_square,bottom_right,2025-09-13_12h04.35.025,HideSeek_v1,2022.2.5,59.918522827941715,
,5,2,5,5,0,3,13,,train_dim1_1,22,30,,,,2,0,2,0,,,,,,,,,0,0,0,0,0,21,21,21,4,0,4,0,,,,,,,,,,,,,,,,,,,,,,,,,,,,,,,,,,,,,,,,,,,,,,,,,,,,,,,,,,,,,,,,30,,,,,,,,777.282518699998,777.282518699998,777.282518699998,777.282518699998,777.282518699998,return,1.1441314998082817,4,1,0,0,0.24,0.08000000000000003,return,1.0588197999168187,43,-3,0.24,0.08000000000000003,,,,,,,,,,,,,,,,,,,,,,,,,,,,,,,,,,,,,,,,,,,,,,,,,,,,,,,,RW2XLH,train_y,red_square,bottom_right,2025-09-13_12h04.35.025,HideSeek_v1,2022.2.5,59.918522827941715,
,5,3,5,8,0,5,11,,train_dim1_1,23,30,,,,2,0,2,0,,,,,,,,,0,0,0,0,0,22,22,22,0,0,0,0,,,,,,,,,,,,,,,,,,,,,,,,,stimuli/alien_stimuli/11.png,,,,,,,,,,,,,,,,,,,,,,,,,,,,,stimuli/alien_stimuli/13.png,13,5,24,,,,,,,30,,,,,,,,785.030777500011,785.030777500011,785.030777500011,785.030777500011,785.030777500011,up,3.4550938000902534,4,1,0,99,0.24,-0.08,up,3.376861499855295,,,,,783.4692141998094,785.030777500011,0.24,0,0.24,0.0,-0.12,0.24,0.24,0.24,0,780.0046184000093,780.0046184000093,780.0046184000093,780.0046184000093,780.0046184000093,780.0046184000093,780.0046184000093,780.0046184000093,779.9999622199684,3.5885729000438005,return,3.4372217999771237,,,,,,,,,,,,,,,,,,,,,,,,,,,,,,,,,RW2XLH,train_y,red_square,bottom_right,2025-09-13_12h04.35.025,HideSeek_v1,2022.2.5,59.918522827941715,
,5,3,5,8,0,5,11,,train_dim1_1,23,30,,,,2,0,2,0,,,,,,,,,0,0,0,0,0,22,22,22,1,0,1,0,,,,,,,,,,,,,,,,,,,,,,,,,,,,,,,,,,,,,,,,,,,,,,,,,,,,,,,,,,,,,,,,30,,,,,,,,788.4935006999876,788.4935006999876,788.4935006999876,788.4935006999876,788.4935006999876,up,0.39220619993284345,4,1,0,99,0.24,0.0,up,0.30913159996271133,,,,,,,,,,,,,,,,,,,,,,,,,,,,,,,,,,,,,,,,,,,,,,,,,,,,,,,,,,,,RW2XLH,train_y,red_square,bottom_right,2025-09-13_12h04.35.025,HideSeek_v1,2022.2.5,59.918522827941715,
,5,3,5,8,0,5,11,,train_dim1_1,23,30,,,,2,0,2,0,,,,,,,,,0,0,0,0,0,22,22,22,2,0,2,0,,,,,,,,,,,,,,,,,,,,,,,,,,,,,,,,,,,,,,,,,,,,,,,,,,,,,,,,,,,,,,,,30,,,,,,,,788.8936397999059,788.8936397999059,788.8936397999059,788.8936397999059,788.8936397999059,up,0.1601585999596864,4,1,0,99,0.24,0.08,up,0.07191099994815886,,,,,,,,,,,,,,,,,,,,,,,,,,,,,,,,,,,,,,,,,,,,,,,,,,,,,,,,,,,,RW2XLH,train_y,red_square,bottom_right,2025-09-13_12h04.35.025,HideSeek_v1,2022.2.5,59.918522827941715,
,5,3,5,8,0,5,11,,train_dim1_1,23,30,,,,2,0,2,0,,,,,,,,,0,0,0,0,0,22,22,22,3,0,3,0,,,,,,,,,,,,,,,,,,,,,,,,,,,,,,,,,,,,,,,,,,,,,,,,,,,,,,,,,,,,,,,,30,,,,,,,,789.0614352999255,789.0614352999255,789.0614352999255,789.0614352999255,789.0614352999255,up,2.5452255001291633,4,1,0,99,0.24,0.16,up,2.452502700034529,,,,,,,,,,,,,,,,,,,,,,,,,,,,,,,,,,,,,,,,,,,,,,,,,,,,,,,,,,,,RW2XLH,train_y,red_square,bottom_right,2025-09-13_12h04.35.025,HideSeek_v1,2022.2.5,59.918522827941715,
,5,3,5,8,0,5,11,,train_dim1_1,23,30,,,,2,0,2,0,,,,,,,,,0,0,0,0,0,22,22,22,4,0,4,0,,,,,,,,,,,,,,,,,,,,,,,,,,,,,,,,,,,,,,,,,,,,,,,,,,,,,,,,,,,,,,,,30,,,,,,,,791.6105561000295,791.6105561000295,791.6105561000295,791.6105561000295,791.6105561000295,down,2.9450226000044495,4,1,0,99,0.24,0.08,down,2.8574604999739677,,,,,,,,,,,,,,,,,,,,,,,,,,,,,,,,,,,,,,,,,,,,,,,,,,,,,,,,,,,,RW2XLH,train_y,red_square,bottom_right,2025-09-13_12h04.35.025,HideSeek_v1,2022.2.5,59.918522827941715,
,5,3,5,8,0,5,11,,train_dim1_1,23,30,,,,2,0,2,0,,,,,,,,,0,0,0,0,0,22,22,22,5,0,5,0,,,,,,,,,,,,,,,,,,,,,,,,,,,,,,,,,,,,,,,,,,,,,,,,,,,,,,,,,,,,,,,,30,,,,,,,,794.5634735999629,794.5634735999629,794.5634735999629,794.5634735999629,794.5634735999629,return,0.24337710021063685,4,0,0,0,0.24,0.08,return,0.15618409984745085,46,-3,0.24,0.08,,,,,,,,,,,,,,,,,,,,,,,,,,,,,,,,,,,,,,,,,,,,,,,,,,,,,,,,RW2XLH,train_y,red_square,bottom_right,2025-09-13_12h04.35.025,HideSeek_v1,2022.2.5,59.918522827941715,
,8,2,8,2,0,0,16,,train_dim1_1,24,30,,,,2,0,2,0,,,,,,,,,0,0,0,0,0,23,23,23,0,0,0,0,,,,,,,,,,,,,,,,,,,,,,,,,stimuli/alien_stimuli/16.png,,,,,,,,,,,,,,,,,,,,,,,,,,,,,stimuli/alien_stimuli/11.png,11,5,25,,,,,,,30,,,,,,,,803.262454399839,803.262454399839,803.262454399839,803.262454399839,803.262454399839,return,1.3532114999834448,5,0,0,1,0.48,-0.24,return,1.2710603999439627,46,-3,0.48,-0.24,801.7010611000005,803.262454399839,0.24,0.24,0.4,0.0,0.039999999999999994,0.24,0.24,0.24,0.24,796.3848929000087,796.3848929000087,796.3848929000087,796.3848929000087,796.3848929000087,796.3848929000087,796.3848929000087,796.3848929000087,796.3801546199247,5.440108699956909,return,5.295427999924868,,,,,,,,,,,,,,,,,,,,,,,,,,,,,,,,,RW2XLH,train_y,red_square,bottom_right,2025-09-13_12h04.35.025,HideSeek_v1,2022.2.5,59.918522827941715,
,8,3,8,7,0,4,12,,train_dim1_1,25,30,,,,2,0,2,0,,,,,,,,,0,0,0,0,0,24,24,24,0,0,0,0,,,,,,,,,,,,,,,,,,,,,,,,,stimuli/alien_stimuli/12.png,,,,,,,,,,,,,,,,,,,,,,,,,,,,,stimuli/alien_stimuli/16.png,16,8,26,,,,,,,30,,,,,,,,810.2833066999447,810.2833066999447,810.2833066999447,810.2833066999447,810.2833066999447,up,2.1048404998145998,5,0,0,99,0.48,-0.08,up,2.0139317999128252,,,,,808.7231079000048,810.2833066999447,0.48,-0.24,0.0,0.0,-0.24,0.48,0.48,0.48,-0.24,806.1733979999553,806.1733979999553,806.1733979999553,806.1733979999553,806.1733979999553,806.1733979999553,806.1733979999553,806.1733979999553,806.1713807800552,2.6541291000321507,return,2.5275750998407602,,,,,,,,,,,,,,,,,,,,,,,,,,,,,,,,,RW2XLH,train_y,red_square,bottom_right,2025-09-13_12h04.35.025,HideSeek_v1,2022.2.5,59.918522827941715,
,8,3,8,7,0,4,12,,train_dim1_1,25,30,,,,2,0,2,0,,,,,,,,,0,0,0,0,0,24,24,24,1,0,1,0,,,,,,,,,,,,,,,,,,,,,,,,,,,,,,,,,,,,,,,,,,,,,,,,,,,,,,,,,,,,,,,,30,,,,,,,,812.3963448998984,812.3963448998984,812.3963448998984,812.3963448998984,812.3963448998984,return,1.3768496001139283,5,0,0,0,0.48,-0.08,return,1.2957166000269353,47,-3,0.48,-0.08,,,,,,,,,,,,,,,,,,,,,,,,,,,,,,,,,,,,,,,,,,,,,,,,,,,,,,,,RW2XLH,train_y,red_square,bottom_right,2025-09-13_12h04.35.025,HideSeek_v1,2022.2.5,59.918522827941715,
,9,4,9,7,0,3,13,,train_dim1_1,26,30,,,,2,0,2,0,,,,,,,,,0,0,0,0,0,25,25,25,0,0,0,0,,,,,,,,,,,,,,,,,,,,,,,,,stimuli/alien_stimuli/13.png,,,,,,,,,,,,,,,,,,,,,,,,,,,,,stimuli/alien_stimuli/12.png,12,8,27,,,,,,,30,,,,,,,,822.9626871999353,822.9626871999353,822.9626871999353,822.9626871999353,822.9626871999353,up,1.519875899888575,5,0,0,99,0.56,0.0,up,1.4251629998907447,,,,,821.400740099838,822.9626871999353,0.48,0.16,0.32,0.0,0.0,0.48,0.48,0.48,0.16,815.331659700023,815.331659700023,815.331659700023,815.331659700023,815.331659700023,815.331659700023,815.331659700023,815.331659700023,815.3294730799971,6.173426199937239,return,6.040006799856201,,,,,,,,,,,,,,,,,,,,,,,,,,,,,,,,,RW2XLH,train_y,red_square,bottom_right,2025-09-13_12h04.35.025,HideSeek_v1,2022.2.5,59.918522827941715,
,9,4,9,7,0,3,13,,train_dim1_1,26,30,,,,2,0,2,0,,,,,,,,,0,0,0,0,0,25,25,25,1,0,1,0,,,,,,,,,,,,,,,,,,,,,,,,,,,,,,,,,,,,,,,,,,,,,,,,,,,,,,,,,,,,,,,,30,,,,,,,,824.4887704998255,824.4887704998255,824.4887704998255,824.4887704998255,824.4887704998255,up,0.7767279001418501,5,0,0,99,0.56,0.08,up,0.6872070000972599,,,,,,,,,,,,,,,,,,,,,,,,,,,,,,,,,,,,,,,,,,,,,,,,,,,,,,,,,,,,RW2XLH,train_y,red_square,bottom_right,2025-09-13_12h04.35.025,HideSeek_v1,2022.2.5,59.918522827941715,
,9,4,9,7,0,3,13,,train_dim1_1,26,30,,,,2,0,2,0,,,,,,,,,0,0,0,0,0,25,25,25,2,0,2,0,,,,,,,,,,,,,,,,,,,,,,,,,,,,,,,,,,,,,,,,,,,,,,,,,,,,,,,,,,,,,,,,30,,,,,,,,825.2713099999819,825.2713099999819,825.2713099999819,825.2713099999819,825.2713099999819,up,0.5768283999059349,5,0,0,99,0.56,0.16,up,0.4991702998522669,,,,,,,,,,,,,,,,,,,,,,,,,,,,,,,,,,,,,,,,,,,,,,,,,,,,,,,,,,,,RW2XLH,train_y,red_square,bottom_right,2025-09-13_12h04.35.025,HideSeek_v1,2022.2.5,59.918522827941715,
,9,4,9,7,0,3,13,,train_dim1_1,26,30,,,,2,0,2,0,,,,,,,,,0,0,0,0,0,25,25,25,3,0,3,0,,,,,,,,,,,,,,,,,,,,,,,,,,,,,,,,,,,,,,,,,,,,,,,,,,,,,,,,,,,,,,,,30,,,,,,,,825.8578663999215,825.8578663999215,825.8578663999215,825.8578663999215,825.8578663999215,up,1.778004600200802,5,0,0,99,0.56,0.24,up,1.6824811999686062,,,,,,,,,,,,,,,,,,,,,,,,,,,,,,,,,,,,,,,,,,,,,,,,,,,,,,,,,,,,RW2XLH,train_y,red_square,bottom_right,2025-09-13_12h04.35.025,HideSeek_v1,2022.2.5,59.918522827941715,
,9,4,9,7,0,3,13,,train_dim1_1,26,30,,,,2,0,2,0,,,,,,,,,0,0,0,0,0,25,25,25,4,0,4,0,,,,,,,,,,,,,,,,,,,,,,,,,,,,,,,,,,,,,,,,,,,,,,,,,,,,,,,,,,,,,,,,30,,,,,,,,827.643605499994,827.643605499994,827.643605499994,827.643605499994,827.643605499994,down,2.5437744001392275,5,0,0,99,0.56,0.15999999999999998,down,2.4528310000896454,,,,,,,,,,,,,,,,,,,,,,,,,,,,,,,,,,,,,,,,,,,,,,,,,,,,,,,,,,,,RW2XLH,train_y,red_square,bottom_right,2025-09-13_12h04.35.025,HideSeek_v1,2022.2.5,59.918522827941715,
,9,4,9,7,0,3,13,,train_dim1_1,26,30,,,,2,0,2,0,,,,,,,,,0,0,0,0,0,25,25,25,5,0,5,0,,,,,,,,,,,,,,,,,,,,,,,,,,,,,,,,,,,,,,,,,,,,,,,,,,,,,,,,,,,,,,,,30,,,,,,,,830.1936743999831,830.1936743999831,830.1936743999831,830.1936743999831,830.1936743999831,return,0.34300510003231466,6,0,0,1,0.56,0.15999999999999998,return,0.2513578999787569,50,-3,0.56,0.15999999999999998,,,,,,,,,,,,,,,,,,,,,,,,,,,,,,,,,,,,,,,,,,,,,,,,,,,,,,,,RW2XLH,train_y,red_square,bottom_right,2025-09-13_12h04.35.025,HideSeek_v1,2022.2.5,59.918522827941715,
,8,4,8,4,0,0,16,,train_dim1_1,27,30,,,,2,0,2,0,,,,,,,,,0,0,0,0,0,26,26,26,0,0,0,0,,,,,,,,,,,,,,,,,,,,,,,,,stimuli/alien_stimuli/16.png,,,,,,,,,,,,,,,,,,,,,,,,,,,,,stimuli/alien_stimuli/13.png,13,9,28,,,,,,,30,,,,,,,,836.8240648999345,836.8240648999345,836.8240648999345,836.8240648999345,836.8240648999345,return,2.65298860007897,7,0,0,1,0.48,-0.08,return,2.5629955001641065,50,-3,0.48,-0.08,835.2622742999811,836.8240648999345,0.56,0.16,0.24,0.0,0.04,0.56,0.56,0.56,0.16,832.1114427000284,832.1114427000284,832.1114427000284,832.1114427000284,832.1114427000284,832.1114427000284,832.1114427000284,832.1114427000284,832.1095521200914,3.2715922000352293,return,3.1265502001624554,,,,,,,,,,,,,,,,,,,,,,,,,,,,,,,,,RW2XLH,train_y,red_square,bottom_right,2025-09-13_12h04.35.025,HideSeek_v1,2022.2.5,59.918522827941715,
,9,1,9,6,0,5,11,,train_dim1_1,28,30,,,,2,0,2,0,,,,,,,,,0,0,0,0,0,27,27,27,0,0,0,0,,,,,,,,,,,,,,,,,,,,,,,,,stimuli/alien_stimuli/11.png,,,,,,,,,,,,,,,,,,,,,,,,,,,,,stimuli/alien_stimuli/16.png,16,8,29,,,,,,,30,,,,,,,,844.079880699981,844.079880699981,844.079880699981,844.079880699981,844.079880699981,up,4.804851199965924,7,0,0,99,0.56,-0.24,up,4.720119799952954,,,,,842.5181544998195,844.079880699981,0.48,-0.08,0.0,0.0,-0.08,0.48,0.48,0.48,-0.08,841.0373649999965,841.0373649999965,841.0373649999965,841.0373649999965,841.0373649999965,841.0373649999965,841.0373649999965,841.0373649999965,841.0337267800933,1.5863065999001265,return,1.4569357999134809,,,,,,,,,,,,,,,,,,,,,,,,,,,,,,,,,RW2XLH,train_y,red_square,bottom_right,2025-09-13_12h04.35.025,HideSeek_v1,2022.2.5,59.918522827941715,
,9,1,9,6,0,5,11,,train_dim1_1,28,30,,,,2,0,2,0,,,,,,,,,0,0,0,0,0,27,27,27,1,0,1,0,,,,,,,,,,,,,,,,,,,,,,,,,,,,,,,,,,,,,,,,,,,,,,,,,,,,,,,,,,,,,,,,30,,,,,,,,848.8943772998173,848.8943772998173,848.8943772998173,848.8943772998173,848.8943772998173,up,0.44233180000446737,7,0,0,99,0.56,-0.15999999999999998,up,0.34800609992817044,,,,,,,,,,,,,,,,,,,,,,,,,,,,,,,,,,,,,,,,,,,,,,,,,,,,,,,,,,,,RW2XLH,train_y,red_square,bottom_right,2025-09-13_12h04.35.025,HideSeek_v1,2022.2.5,59.918522827941715,
,9,1,9,6,0,5,11,,train_dim1_1,28,30,,,,2,0,2,0,,,,,,,,,0,0,0,0,0,27,27,27,2,0,2,0,,,,,,,,,,,,,,,,,,,,,,,,,,,,,,,,,,,,,,,,,,,,,,,,,,,,,,,,,,,,,,,,30,,,,,,,,849.3416156999301,849.3416156999301,849.3416156999301,849.3416156999301,849.3416156999301,up,0.610197699861601,7,0,0,99,0.56,-0.07999999999999997,up,0.5272594001144171,,,,,,,,,,,,,,,,,,,,,,,,,,,,,,,,,,,,,,,,,,,,,,,,,,,,,,,,,,,,RW2XLH,train_y,red_square,bottom_right,2025-09-13_12h04.35.025,HideSeek_v1,2022.2.5,59.918522827941715,
,9,1,9,6,0,5,11,,train_dim1_1,28,30,,,,2,0,2,0,,,,,,,,,0,0,0,0,0,27,27,27,3,0,3,0,,,,,,,,,,,,,,,,,,,,,,,,,,,,,,,,,,,,,,,,,,,,,,,,,,,,,,,,,,,,,,,,30,,,,,,,,849.9606502000242,849.9606502000242,849.9606502000242,849.9606502000242,849.9606502000242,up,0.8268788000568748,7,0,0,99,0.56,2.7755575615628914e-17,up,0.7362806000746787,,,,,,,,,,,,,,,,,,,,,,,,,,,,,,,,,,,,,,,,,,,,,,,,,,,,,,,,,,,,RW2XLH,train_y,red_square,bottom_right,2025-09-13_12h04.35.025,HideSeek_v1,2022.2.5,59.918522827941715,
,9,1,9,6,0,5,11,,train_dim1_1,28,30,,,,2,0,2,0,,,,,,,,,0,0,0,0,0,27,27,27,4,0,4,0,,,,,,,,,,,,,,,,,,,,,,,,,,,,,,,,,,,,,,,,,,,,,,,,,,,,,,,,,,,,,,,,30,,,,,,,,850.7927876999602,850.7927876999602,850.7927876999602,850.7927876999602,850.7927876999602,return,1.794727899832651,7,1,0,0,0.56,2.7755575615628914e-17,return,1.7070512000937015,54,-3,0.56,2.7755575615628914e-17,,,,,,,,,,,,,,,,,,,,,,,,,,,,,,,,,,,,,,,,,,,,,,,,,,,,,,,,RW2XLH,train_y,red_square,bottom_right,2025-09-13_12h04.35.025,HideSeek_v1,2022.2.5,59.918522827941715,
,7,2,7,6,0,4,12,,train_dim1_1,29,30,,,,2,0,2,0,,,,,,,,,0,0,0,0,0,28,28,28,0,0,0,0,,,,,,,,,,,,,,,,,,,,,,,,,stimuli/alien_stimuli/12.png,,,,,,,,,,,,,,,,,,,,,,,,,,,,,stimuli/alien_stimuli/11.png,11,9,30,,,,,,,30,,,,,,,,860.8104806998745,860.8104806998745,860.8104806998745,860.8104806998745,860.8104806998745,up,0.9195926000829786,7,1,0,99,0.4,-0.15999999999999998,up,0.8253826999571174,,,,,859.2486498998478,860.8104806998745,0.56,0.08,0.4,0.0,-0.12,0.56,0.56,0.56,0.08,854.1651168998796,854.1651168998796,854.1651168998796,854.1651168998796,854.1651168998796,854.1651168998796,854.1651168998796,854.1651168998796,854.161318520084,5.20600779983215,return,5.054912100080401,,,,,,,,,,,,,,,,,,,,,,,,,,,,,,,,,RW2XLH,train_y,red_square,bottom_right,2025-09-13_12h04.35.025,HideSeek_v1,2022.2.5,59.918522827941715,
,7,2,7,6,0,4,12,,train_dim1_1,29,30,,,,2,0,2,0,,,,,,,,,0,0,0,0,0,28,28,28,1,0,1,0,,,,,,,,,,,,,,,,,,,,,,,,,,,,,,,,,,,,,,,,,,,,,,,,,,,,,,,,,,,,,,,,30,,,,,,,,861.7396425998304,861.7396425998304,861.7396425998304,861.7396425998304,861.7396425998304,up,1.4575320999138057,7,1,0,99,0.4,-0.07999999999999997,up,1.3791364999487996,,,,,,,,,,,,,,,,,,,,,,,,,,,,,,,,,,,,,,,,,,,,,,,,,,,,,,,,,,,,RW2XLH,train_y,red_square,bottom_right,2025-09-13_12h04.35.025,HideSeek_v1,2022.2.5,59.918522827941715,
,7,2,7,6,0,4,12,,train_dim1_1,29,30,,,,2,0,2,0,,,,,,,,,0,0,0,0,0,28,28,28,2,0,2,0,,,,,,,,,,,,,,,,,,,,,,,,,,,,,,,,,,,,,,,,,,,,,,,,,,,,,,,,,,,,,,,,30,,,,,,,,863.2028783999849,863.2028783999849,863.2028783999849,863.2028783999849,863.2028783999849,up,0.7438597998116165,7,1,0,99,0.4,2.7755575615628914e-17,up,0.6671191002242267,,,,,,,,,,,,,,,,,,,,,,,,,,,,,,,,,,,,,,,,,,,,,,,,,,,,,,,,,,,,RW2XLH,train_y,red_square,bottom_right,2025-09-13_12h04.35.025,HideSeek_v1,2022.2.5,59.918522827941715,
,7,2,7,6,0,4,12,,train_dim1_1,29,30,,,,2,0,2,0,,,,,,,,,0,0,0,0,0,28,28,28,3,0,3,0,,,,,,,,,,,,,,,,,,,,,,,,,,,,,,,,,,,,,,,,,,,,,,,,,,,,,,,,,,,,,,,,30,,,,,,,,863.9543881998397,863.9543881998397,863.9543881998397,863.9543881998397,863.9543881998397,up,1.610969000030309,7,1,0,99,0.4,0.08000000000000003,up,1.5234019001945853,,,,,,,,,,,,,,,,,,,,,,,,,,,,,,,,,,,,,,,,,,,,,,,,,,,,,,,,,,,,RW2XLH,train_y,red_square,bottom_right,2025-09-13_12h04.35.025,HideSeek_v1,2022.2.5,59.918522827941715,
,7,2,7,6,0,4,12,,train_dim1_1,29,30,,,,2,0,2,0,,,,,,,,,0,0,0,0,0,28,28,28,4,0,4,0,,,,,,,,,,,,,,,,,,,,,,,,,,,,,,,,,,,,,,,,,,,,,,,,,,,,,,,,,,,,,,,,30,,,,,,,,865.5745955000166,865.5745955000166,865.5745955000166,865.5745955000166,865.5745955000166,return,1.1917644999921322,8,0,0,1,0.4,0.08000000000000003,return,1.1148089999333024,58,-3,0.4,0.08000000000000003,,,,,,,,,,,,,,,,,,,,,,,,,,,,,,,,,,,,,,,,,,,,,,,,,,,,,,,,RW2XLH,train_y,red_square,bottom_right,2025-09-13_12h04.35.025,HideSeek_v1,2022.2.5,59.918522827941715,
,5,1,5,2,0,1,15,,train_dim1_1,30,30,,,,2,0,2,0,,,,,,,,,0,0,0,0,0,29,29,29,0,0,0,0,,,,,,,,,,,,,,,,,,,,,,,,,stimuli/alien_stimuli/15.png,,,,,,,,,,,,,,,,,,,,,,,,,,,,,stimuli/alien_stimuli/12.png,12,7,31,,,,,,,30,,,,,,,,873.4024824998342,873.4024824998342,873.4024824998342,873.4024824998342,873.4024824998342,return,3.090127999894321,8,1,0,0,0.24,-0.32,return,2.997422100044787,58,-3,0.24,-0.32,871.8426249998156,873.4024824998342,0.4,0.08,0.32,0.0,-0.07999999999999999,0.4,0.4,0.4,0.08,868.335899699945,868.335899699945,868.335899699945,868.335899699945,868.335899699945,868.335899699945,868.335899699945,868.335899699945,868.3231074799551,3.621401699958369,return,3.4834500001743436,,,,,,,,,,,,,,,,,,,,,,,,,,,,,,,,,RW2XLH,train_y,red_square,bottom_right,2025-09-13_12h04.35.025,HideSeek_v1,2022.2.5,59.918522827941715,
,,,,,,,,,,,30,,,,2,0,2,0,,,,,,,,,,,,,,,,,,,,,,,,,,,,,,,,,,,,,,,,,,,,,,,,,,,,,,,,,,,,,,,,,,,,,,,,,,stimuli/alien_stimuli/15.png,15,5,32,21,0.7,0.33333333333333337,1,1,1,30,0,conditions/schedules/train_y_first/red_square_00/bottom_right/inputTrain_2.1.xlsx,99,1,2,1,0,,,,,,,,,,,0,,,,,,,,,882.0843699998222,883.6339875999838,0.24,-0.24,0.08,0.0,-0.28,0.24,0.24,0.24,-0.24,878.065325899981,878.065325899981,878.065325899981,878.065325899981,878.065325899981,878.065325899981,878.065325899981,878.065325899981,878.06470591994,4.138712000101805,return,3.998601300176233,0,0.9,0,1,8,,,,,,,,,,,,,,,,,,,,,,,,,,,,RW2XLH,train_y,red_square,bottom_right,2025-09-13_12h04.35.025,HideSeek_v1,2022.2.5,59.918522827941715,
,,,,,,,,,,,,,,,3,0,3,0,0,0,0,0,,,,,,,,,,,,,,,,,,,,,,,,,,,,,,,conditions/schedules/train_y_first/red_square_00/bottom_right/instructions/Slide17.png,conditions/schedules/train_y_first/red_square_00/bottom_right/instructions/Audio17.wav,883.6339875999838,883.6356190599035,17,"[7.502587200142443, 17.762038100045174, 17.063003099989146, 19.253425400005654, 4.6339635998010635, 4.448333699954674, 5.231215400155634, 11.673899200046435, 6.338764199987054, 6.784051700029522, 9.70147049985826, 13.339312600204721, 16.256721100071445, 17.304571600165218, 43.25179190002382, 21.087134999921545, 114.42812100006267]","[7.502594700083137, 0.014149899827316403, 17.0630097000394, 19.253431899938732, 0.01428709994070232, 0.014131100149825215, 0.03117750003002584, 11.673905699979514, 0.06211069994606078, 0.06449720007367432, 0.06210210011340678, 13.339318700134754, 0.03642090014182031, 17.30457800021395, 0.05312149995006621, 21.087141199968755, 114.42812830000184]",0,,,,,,,,,,,,,,,,,,,,,,,,,,,,,,,,,,,,,,,,,,,,,,,,,,,,,,,,,,,,,,,,,,,,,,,,,,,,,,,,,,,,,,,,,,,,,,,,,,,,,,,,,,,,,,,,,,,,,,,,,,,,RW2XLH,train_y,red_square,bottom_right,2025-09-13_12h04.35.025,HideSeek_v1,2022.2.5,59.918522827941715,
,,,,,,,,,,,,,,,3,0,3,0,1,0,1,0,,,,,,,,,,,,,,,,,,,,,,,,,,,,,,,conditions/schedules/train_y_first/red_square_00/bottom_right/instructions/Slide18.png,conditions/schedules/train_y_first/red_square_00/bottom_right/instructions/Audio18.wav,998.1294123998377,998.1309314999962,18,"[7.502587200142443, 17.762038100045174, 17.063003099989146, 19.253425400005654, 4.6339635998010635, 4.448333699954674, 5.231215400155634, 11.673899200046435, 6.338764199987054, 6.784051700029522, 9.70147049985826, 13.339312600204721, 16.256721100071445, 17.304571600165218, 43.25179190002382, 21.087134999921545, 114.42812100006267, 7.121669900137931]","[7.502594700083137, 0.014149899827316403, 17.0630097000394, 19.253431899938732, 0.01428709994070232, 0.014131100149825215, 0.03117750003002584, 11.673905699979514, 0.06211069994606078, 0.06449720007367432, 0.06210210011340678, 13.339318700134754, 0.03642090014182031, 17.30457800021395, 0.05312149995006621, 21.087141199968755, 0.03212129999883473, 7.121676500188187]",0,,,,,,,,,,,,,,,,,,,,,,,,,,,,,,,,,,,,,,,,,,,,,,,,,,,,,,,,,,,,,,,,,,,,,,,,,,,,,,,,,,,,,,,,,,,,,,,,,,,,,,,,,,,,,,,,,,,,,,,,,,,,RW2XLH,train_y,red_square,bottom_right,2025-09-13_12h04.35.025,HideSeek_v1,2022.2.5,59.918522827941715,
,,,,,,,,,,,,,,,3,0,3,0,2,0,2,0,,,,,,,,,,,,,,,,,,,,,,,,,,,,,,,conditions/schedules/train_y_first/red_square_00/bottom_right/instructions/Slide19.png,conditions/schedules/train_y_first/red_square_00/bottom_right/instructions/Audio19.wav,1005.312670599902,1005.3035493600182,19,"[7.502587200142443, 17.762038100045174, 17.063003099989146, 19.253425400005654, 4.6339635998010635, 4.448333699954674, 5.231215400155634, 11.673899200046435, 6.338764199987054, 6.784051700029522, 9.70147049985826, 13.339312600204721, 16.256721100071445, 17.304571600165218, 43.25179190002382, 21.087134999921545, 114.42812100006267, 7.121669900137931, 10.464033500058576]","[7.502594700083137, 0.014149899827316403, 17.0630097000394, 19.253431899938732, 0.01428709994070232, 0.014131100149825215, 0.03117750003002584, 11.673905699979514, 0.06211069994606078, 0.06449720007367432, 0.06210210011340678, 13.339318700134754, 0.03642090014182031, 17.30457800021395, 0.05312149995006621, 21.087141199968755, 0.03212129999883473, 0.014193200040608644, 10.464040100108832]",0,,,,,,,,,,,,,,,,,,,,,,,,,,,,,,,,,,,,,,,,,,,,,,,,,,,,,,,,,,,,,,,,,,,,,,,,,,,,,,,,,,,,,,,,,,,,,,,,,,,,,,,,,,,,,,,,,,,,,,,,,,,,RW2XLH,train_y,red_square,bottom_right,2025-09-13_12h04.35.025,HideSeek_v1,2022.2.5,59.918522827941715,
,,,,,,,,,,,,,,,3,0,3,0,3,0,3,0,,,,,,,,,,,,,,,,,,,,,,,,,,,,,,,conditions/schedules/train_y_first/red_square_00/bottom_right/instructions/Slide20.png,conditions/schedules/train_y_first/red_square_00/bottom_right/instructions/Audio20.wav,1015.8503739999142,1015.845634499914,20,"[7.502587200142443, 17.762038100045174, 17.063003099989146, 19.253425400005654, 4.6339635998010635, 4.448333699954674, 5.231215400155634, 11.673899200046435, 6.338764199987054, 6.784051700029522, 9.70147049985826, 13.339312600204721, 16.256721100071445, 17.304571600165218, 43.25179190002382, 21.087134999921545, 114.42812100006267, 7.121669900137931, 10.464033500058576, 14.121922800084576]","[7.502594700083137, 0.014149899827316403, 17.0630097000394, 19.253431899938732, 0.01428709994070232, 0.014131100149825215, 0.03117750003002584, 11.673905699979514, 0.06211069994606078, 0.06449720007367432, 0.06210210011340678, 13.339318700134754, 0.03642090014182031, 17.30457800021395, 0.05312149995006621, 21.087141199968755, 0.03212129999883473, 0.014193200040608644, 0.031381200067698956, 14.121930200140923]",0,,,,,,,,,,,,,,,,,,,,,,,,,,,,,,,,,,,,,,,,,,,,,,,,,,,,,,,,,,,,,,,,,,,,,,,,,,,,,,,,,,,,,,,,,,,,,,,,,,,,,,,,,,,,,,,,,,,,,,,,,,,,RW2XLH,train_y,red_square,bottom_right,2025-09-13_12h04.35.025,HideSeek_v1,2022.2.5,59.918522827941715,
1,8,2,3,2,-5,0,66,2,instr_dim1_2,,,,,,3,0,3,0,,,,,0,0,0,0,,,,,,,,,,,,,,,,,,,,,,,,,,,,,,,,,,,,,stimuli/alien_stimuli/66.png,conditions/schedules/train_y_first/red_square_00/bottom_right/inputInstr_2.xlsx,stimuli/alien_stimuli/66.png,1030.0827722998802,1030.0827722998802,1030.0827722998802,1030.0827722998802,1030.073941379902,return,7.547266599955037,"[-0.16, -0.08, 0, 0.08, 0.16, 0.24, 0.32, 0.4, 0.48, 0.56]","[-0.4, -0.32, -0.24, -0.16, -0.08, 0, 0.08, 0.16, 0.24, 0.32]",2,2,3,8,0.0,0.4,1037.797237199964,1037.797237199964,1037.797237199964,1037.797237199964,1037.797237199964,1037.797237199964,1037.797237199964,1037.7803985601058,9.808632999891415,return,9.636794799938798,stimuli/alien_stimuli/66.png,66,8,1,,,,,,,,,,,,,,,,,,,,,,,,,,,,,,,,,,,,,,,,,,,,,,,,,,,,,,,,,,,,,,,,,,,,,,,,,,,,,,,,,,,,,,,,,RW2XLH,train_y,red_square,bottom_right,2025-09-13_12h04.35.025,HideSeek_v1,2022.2.5,59.918522827941715,
,,,,,,,,,,,30,,,,3,0,3,0,,,,,,,,,,,,,,,,,,,,,,,,,,,,,,,,,,,,,,,,,,,,,,,,,,,,,,,,,,,,,,,,,,,,,,,,,,,,,,21,0.7,0.33333333333333337,1,99,2,30,0,conditions/schedules/train_y_first/red_square_00/bottom_right/inputTrain_2.1.xlsx,99,1,2,1,0,,,,,,,,,,,,,,,,,,,,,,,,,,,,,,,,,,,,,,,,,,,,,,,,,,,,,,,,,,,,,,,,,,,,,,,,,,,RW2XLH,train_y,red_square,bottom_right,2025-09-13_12h04.35.025,HideSeek_v1,2022.2.5,59.918522827941715,
,,,,,,,,,,,,,,,4,0,4,0,0,0,0,0,,,,,,,,,,,,,,,,,,,,,,,,,,,,,,,conditions/schedules/train_y_first/red_square_00/bottom_right/instructions/Slide21.png,conditions/schedules/train_y_first/red_square_00/bottom_right/instructions/Audio21.wav,1047.6060158000328,1047.6049383000936,21,"[7.502587200142443, 17.762038100045174, 17.063003099989146, 19.253425400005654, 4.6339635998010635, 4.448333699954674, 5.231215400155634, 11.673899200046435, 6.338764199987054, 6.784051700029522, 9.70147049985826, 13.339312600204721, 16.256721100071445, 17.304571600165218, 43.25179190002382, 21.087134999921545, 114.42812100006267, 7.121669900137931, 10.464033500058576, 14.121922800084576, 13.457802899880335]","[7.502594700083137, 0.014149899827316403, 17.0630097000394, 19.253431899938732, 0.01428709994070232, 0.014131100149825215, 0.03117750003002584, 11.673905699979514, 0.06211069994606078, 0.06449720007367432, 0.06210210011340678, 13.339318700134754, 0.03642090014182031, 17.30457800021395, 0.05312149995006621, 21.087141199968755, 0.03212129999883473, 0.014193200040608644, 0.031381200067698956, 14.121930200140923, 13.45780949993059]",0,,,,,,,,,,,,,,,,,,,,,,,,,,,,,,,,,,,,,,,,,,,,,,,,,,,,,,,,,,,,,,,,,,,,,,,,,,,,,,,,,,,,,,,,,,,,,,,,,,,,,,,,,,,,,,,,,,,,,,,,,,,,RW2XLH,train_y,red_square,bottom_right,2025-09-13_12h04.35.025,HideSeek_v1,2022.2.5,59.918522827941715,
2,9,0,9,0,0,0,16,2,instr_dim1_2,,,,,,4,0,4,0,,,,,0,0,0,0,,,,,,,,,,,,,,,,,,,,,,,,,,,,,,,,,,,,,stimuli/alien_stimuli/16.png,conditions/schedules/train_y_first/red_square_00/bottom_right/inputInstr_2.xlsx,stimuli/alien_stimuli/16.png,1061.1643777999561,1061.1643777999561,1061.1643777999561,1061.1643777999561,1061.1661965799285,return,15.35983099997975,"[-0.16, -0.08, 0, 0.08, 0.16, 0.24, 0.32, 0.4, 0.48, 0.56]","[-0.4, -0.32, -0.24, -0.16, -0.08, 0, 0.08, 0.16, 0.24, 0.32]",0,0,9,9,0.0,0.0,1076.7174450999591,1076.7174450999591,1076.7174450999591,1076.7174450999591,1076.7174450999591,1076.7174450999591,1076.7174450999591,1076.6957336000632,5.656177199911326,return,5.4558469001203775,stimuli/alien_stimuli/16.png,16,9,2,,,,,,,,,,,,,,,,,,,,,,,,,,,,,,,,,,,,,,,,,,,,,,,,,,,,,,,,,,,,,,,,,,,,,,,,,,,,,,,,,,,,,,,,,RW2XLH,train_y,red_square,bottom_right,2025-09-13_12h04.35.025,HideSeek_v1,2022.2.5,59.918522827941715,
,,,,,,,,,,,30,,,,4,0,4,0,,,,,,,,,,,,,,,,,,,,,,,,,,,,,,,,,,,,,,,,,,,,,,,,,,,,,,,,,,,,,,,,,,,,,,,,,,,,,,21,0.7,0.33333333333333337,1,99,2,30,0,conditions/schedules/train_y_first/red_square_00/bottom_right/inputTrain_2.1.xlsx,99,1,2,1,0,,,,,,,,,,,,,,,,,,,,,,,,,,,,,,,,,,,,,,,,,,,,,,,,,,,,,,,,,,,,,,,,,,,,,,,,,,,RW2XLH,train_y,red_square,bottom_right,2025-09-13_12h04.35.025,HideSeek_v1,2022.2.5,59.918522827941715,
,,,,,,,,,,,,,,,5,0,5,0,0,0,0,0,,,,,,,,,,,,,,,,,,,,,,,,,,,,,,,conditions/schedules/train_y_first/red_square_00/bottom_right/instructions/Slide22.png,conditions/schedules/train_y_first/red_square_00/bottom_right/instructions/Audio22.wav,1082.3904556999914,1082.383960379986,22,"[7.502587200142443, 17.762038100045174, 17.063003099989146, 19.253425400005654, 4.6339635998010635, 4.448333699954674, 5.231215400155634, 11.673899200046435, 6.338764199987054, 6.784051700029522, 9.70147049985826, 13.339312600204721, 16.256721100071445, 17.304571600165218, 43.25179190002382, 21.087134999921545, 114.42812100006267, 7.121669900137931, 10.464033500058576, 14.121922800084576, 13.457802899880335, 31.60079270019196]","[7.502594700083137, 0.014149899827316403, 17.0630097000394, 19.253431899938732, 0.01428709994070232, 0.014131100149825215, 0.03117750003002584, 11.673905699979514, 0.06211069994606078, 0.06449720007367432, 0.06210210011340678, 13.339318700134754, 0.03642090014182031, 17.30457800021395, 0.05312149995006621, 21.087141199968755, 0.03212129999883473, 0.014193200040608644, 0.031381200067698956, 14.121930200140923, 13.45780949993059, 31.60079940012656]",0,,,,,,,,,,,,,,,,,,,,,,,,,,,,,,,,,,,,,,,,,,,,,,,,,,,,,,,,,,,,,,,,,,,,,,,,,,,,,,,,,,,,,,,,,,,,,,,,,,,,,,,,,,,,,,,,,,,,,,,,,,,,RW2XLH,train_y,red_square,bottom_right,2025-09-13_12h04.35.025,HideSeek_v1,2022.2.5,59.918522827941715,
,7,1,4,1,-3,0,46,,train_dim1_2,1,30,,,,5,0,5,0,,,,,,,,,0,0,0,0,0,0,0,0,0,0,0,0,,,,,,,,,,,,,,,,,,,,,,,,,stimuli/alien_stimuli/46.png,,,,,,,,,,,,,,,,,,,,,,,,,,,,,,,,,,,,,,,30,,,,,,,,1114.0938638998196,1114.0938638998196,1114.0938638998196,1114.0938638998196,1114.0938638998196,left,4.9223688000347465,0,1,0,99,0.32,-0.32,left,4.833328100154176,,,,,,,,,,,,,,,,,,,,,,,,,,,,,,,,,,,,,,,,,,,,,,,,,,,,,,,,,,,,RW2XLH,train_y,red_square,bottom_right,2025-09-13_12h04.35.025,HideSeek_v1,2022.2.5,59.918522827941715,
,7,1,4,1,-3,0,46,,train_dim1_2,1,30,,,,5,0,5,0,,,,,,,,,0,0,0,0,0,0,0,0,1,0,1,0,,,,,,,,,,,,,,,,,,,,,,,,,,,,,,,,,,,,,,,,,,,,,,,,,,,,,,,,,,,,,,,,30,,,,,,,,1119.0153085000347,1119.0153085000347,1119.0153085000347,1119.0153085000347,1119.0153085000347,left,1.1575992000289261,0,1,0,99,0.24,-0.32,left,1.0686855998355895,,,,,,,,,,,,,,,,,,,,,,,,,,,,,,,,,,,,,,,,,,,,,,,,,,,,,,,,,,,,RW2XLH,train_y,red_square,bottom_right,2025-09-13_12h04.35.025,HideSeek_v1,2022.2.5,59.918522827941715,
,7,1,4,1,-3,0,46,,train_dim1_2,1,30,,,,5,0,5,0,,,,,,,,,0,0,0,0,0,0,0,0,2,0,2,0,,,,,,,,,,,,,,,,,,,,,,,,,,,,,,,,,,,,,,,,,,,,,,,,,,,,,,,,,,,,,,,,30,,,,,,,,1120.1795418998227,1120.1795418998227,1120.1795418998227,1120.1795418998227,1120.1795418998227,left,0.6935235001146793,0,1,0,99,0.15999999999999998,-0.32,left,0.6190857000183314,,,,,,,,,,,,,,,,,,,,,,,,,,,,,,,,,,,,,,,,,,,,,,,,,,,,,,,,,,,,RW2XLH,train_y,red_square,bottom_right,2025-09-13_12h04.35.025,HideSeek_v1,2022.2.5,59.918522827941715,
,7,1,4,1,-3,0,46,,train_dim1_2,1,30,,,,5,0,5,0,,,,,,,,,0,0,0,0,0,0,0,0,3,0,3,0,,,,,,,,,,,,,,,,,,,,,,,,,,,,,,,,,,,,,,,,,,,,,,,,,,,,,,,,,,,,,,,,30,,,,,,,,1120.8824989998247,1120.8824989998247,1120.8824989998247,1120.8824989998247,1120.8824989998247,left,0.6268450999632478,0,1,0,99,0.07999999999999997,-0.32,left,0.550283000105992,,,,,,,,,,,,,,,,,,,,,,,,,,,,,,,,,,,,,,,,,,,,,,,,,,,,,,,,,,,,RW2XLH,train_y,red_square,bottom_right,2025-09-13_12h04.35.025,HideSeek_v1,2022.2.5,59.918522827941715,
,7,1,4,1,-3,0,46,,train_dim1_2,1,30,,,,5,0,5,0,,,,,,,,,0,0,0,0,0,0,0,0,4,0,4,0,,,,,,,,,,,,,,,,,,,,,,,,,,,,,,,,,,,,,,,,,,,,,,,,,,,,,,,,,,,,,,,,30,,,,,,,,1121.5135270999745,1121.5135270999745,1121.5135270999745,1121.5135270999745,1121.5135270999745,left,0.7267469000071287,0,1,0,99,-2.7755575615628914e-17,-0.32,left,0.6468416000716388,,,,,,,,,,,,,,,,,,,,,,,,,,,,,,,,,,,,,,,,,,,,,,,,,,,,,,,,,,,,RW2XLH,train_y,red_square,bottom_right,2025-09-13_12h04.35.025,HideSeek_v1,2022.2.5,59.918522827941715,
,7,1,4,1,-3,0,46,,train_dim1_2,1,30,,,,5,0,5,0,,,,,,,,,0,0,0,0,0,0,0,0,5,0,5,0,,,,,,,,,,,,,,,,,,,,,,,,,,,,,,,,,,,,,,,,,,,,,,,,,,,,,,,,,,,,,,,,30,,,,,,,,1122.2480051999446,1122.2480051999446,1122.2480051999446,1122.2480051999446,1122.2480051999446,return,2.2441054000519216,0,0,0,0,-2.7755575615628914e-17,-0.32,return,2.1666511001531035,58,-8,-2.7755575615628914e-17,-0.32,,,,,,,,,,,,,,,,,,,,,,,,,,,,,,,,,,,,,,,,,,,,,,,,,,,,,,,,RW2XLH,train_y,red_square,bottom_right,2025-09-13_12h04.35.025,HideSeek_v1,2022.2.5,59.918522827941715,
,7,4,7,4,0,0,16,,train_dim1_2,2,30,,,,5,0,5,0,,,,,,,,,0,0,0,0,0,1,1,1,0,0,0,0,,,,,,,,,,,,,,,,,,,,,,,,,stimuli/alien_stimuli/16.png,,,,,,,,,,,,,,,,,,,,,,,,,,,,,stimuli/alien_stimuli/46.png,46,7,3,,,,,,,30,,,,,,,,1130.8282090998255,1130.8282090998255,1130.8282090998255,1130.8282090998255,1130.8282090998255,left,3.384280600119382,0,0,0,99,0.32,-0.08,left,3.29945129994303,,,,,1129.256140399957,1130.8282090998255,0.16,-0.32,0.0,0.24,-0.32,0.16,0.28,0.16,-0.32,1126.0804441999644,1126.0804441999644,1126.0804441999644,1126.0804441999644,1126.0804441999644,1126.0804441999644,1126.0804441999644,1126.0804441999644,1126.0701870201156,3.304642600007355,return,3.1468674999196082,,,,,,,,,,,,,,,,,,,,,,,,,,,,,,,,,RW2XLH,train_y,red_square,bottom_right,2025-09-13_12h04.35.025,HideSeek_v1,2022.2.5,59.918522827941715,
,7,4,7,4,0,0,16,,train_dim1_2,2,30,,,,5,0,5,0,,,,,,,,,0,0,0,0,0,1,1,1,1,0,1,0,,,,,,,,,,,,,,,,,,,,,,,,,,,,,,,,,,,,,,,,,,,,,,,,,,,,,,,,,,,,,,,,30,,,,,,,,1134.2134715998545,1134.2134715998545,1134.2134715998545,1134.2134715998545,1134.2134715998545,left,0.24206640012562275,0,0,0,99,0.24,-0.08,left,0.15922769997268915,,,,,,,,,,,,,,,,,,,,,,,,,,,,,,,,,,,,,,,,,,,,,,,,,,,,,,,,,,,,RW2XLH,train_y,red_square,bottom_right,2025-09-13_12h04.35.025,HideSeek_v1,2022.2.5,59.918522827941715,
,7,4,7,4,0,0,16,,train_dim1_2,2,30,,,,5,0,5,0,,,,,,,,,0,0,0,0,0,1,1,1,2,0,2,0,,,,,,,,,,,,,,,,,,,,,,,,,,,,,,,,,,,,,,,,,,,,,,,,,,,,,,,,,,,,,,,,30,,,,,,,,1134.4674447998405,1134.4674447998405,1134.4674447998405,1134.4674447998405,1134.4674447998405,left,0.22439400013536215,0,0,0,99,0.15999999999999998,-0.08,left,0.14084469992667437,,,,,,,,,,,,,,,,,,,,,,,,,,,,,,,,,,,,,,,,,,,,,,,,,,,,,,,,,,,,RW2XLH,train_y,red_square,bottom_right,2025-09-13_12h04.35.025,HideSeek_v1,2022.2.5,59.918522827941715,
,7,4,7,4,0,0,16,,train_dim1_2,2,30,,,,5,0,5,0,,,,,,,,,0,0,0,0,0,1,1,1,3,0,3,0,,,,,,,,,,,,,,,,,,,,,,,,,,,,,,,,,,,,,,,,,,,,,,,,,,,,,,,,,,,,,,,,30,,,,,,,,1134.7014812999405,1134.7014812999405,1134.7014812999405,1134.7014812999405,1134.7014812999405,left,1.2435347000136971,0,0,0,99,0.07999999999999997,-0.08,left,1.158304100157693,,,,,,,,,,,,,,,,,,,,,,,,,,,,,,,,,,,,,,,,,,,,,,,,,,,,,,,,,,,,RW2XLH,train_y,red_square,bottom_right,2025-09-13_12h04.35.025,HideSeek_v1,2022.2.5,59.918522827941715,
,7,4,7,4,0,0,16,,train_dim1_2,2,30,,,,5,0,5,0,,,,,,,,,0,0,0,0,0,1,1,1,4,0,4,0,,,,,,,,,,,,,,,,,,,,,,,,,,,,,,,,,,,,,,,,,,,,,,,,,,,,,,,,,,,,,,,,30,,,,,,,,1135.9464644999243,1135.9464644999243,1135.9464644999243,1135.9464644999243,1135.9464644999243,return,0.34305669995956123,0,0,0,0,0.07999999999999997,-0.08,return,0.2578280000016093,58,-12,0.07999999999999997,-0.08,,,,,,,,,,,,,,,,,,,,,,,,,,,,,,,,,,,,,,,,,,,,,,,,,,,,,,,,RW2XLH,train_y,red_square,bottom_right,2025-09-13_12h04.35.025,HideSeek_v1,2022.2.5,59.918522827941715,
,9,4,8,4,-1,0,26,,train_dim1_2,3,30,,,,5,0,5,0,,,,,,,,,0,0,0,0,0,2,2,2,0,0,0,0,,,,,,,,,,,,,,,,,,,,,,,,,stimuli/alien_stimuli/26.png,,,,,,,,,,,,,,,,,,,,,,,,,,,,,stimuli/alien_stimuli/16.png,16,7,4,,,,,,,30,,,,,,,,1143.4862106998917,1143.4862106998917,1143.4862106998917,1143.4862106998917,1143.4862106998917,up,6.18820029986091,0,0,0,99,0.56,0.0,up,6.1033820998854935,,,,,1141.9165246000048,1143.4862106998917,0.4,-0.08,0.0,0.0,-0.08,0.4,0.4,0.4,-0.08,1137.8881840999238,1137.8881840999238,1137.8881840999238,1137.8881840999238,1137.8881840999238,1137.8881840999238,1137.8881840999238,1137.8881840999238,1137.8799829600612,4.172095899935812,return,4.00916750007309,,,,,,,,,,,,,,,,,,,,,,,,,,,,,,,,,RW2XLH,train_y,red_square,bottom_right,2025-09-13_12h04.35.025,HideSeek_v1,2022.2.5,59.918522827941715,
,9,4,8,4,-1,0,26,,train_dim1_2,3,30,,,,5,0,5,0,,,,,,,,,0,0,0,0,0,2,2,2,1,0,1,0,,,,,,,,,,,,,,,,,,,,,,,,,,,,,,,,,,,,,,,,,,,,,,,,,,,,,,,,,,,,,,,,30,,,,,,,,1149.6772835999727,1149.6772835999727,1149.6772835999727,1149.6772835999727,1149.6772835999727,up,0.7079344000667334,0,0,0,99,0.56,0.08,up,0.626151000149548,,,,,,,,,,,,,,,,,,,,,,,,,,,,,,,,,,,,,,,,,,,,,,,,,,,,,,,,,,,,RW2XLH,train_y,red_square,bottom_right,2025-09-13_12h04.35.025,HideSeek_v1,2022.2.5,59.918522827941715,
,9,4,8,4,-1,0,26,,train_dim1_2,3,30,,,,5,0,5,0,,,,,,,,,0,0,0,0,0,2,2,2,2,0,2,0,,,,,,,,,,,,,,,,,,,,,,,,,,,,,,,,,,,,,,,,,,,,,,,,,,,,,,,,,,,,,,,,30,,,,,,,,1150.39111159998,1150.39111159998,1150.39111159998,1150.39111159998,1150.39111159998,down,2.744716700166464,0,0,0,99,0.56,0.0,down,2.6676715000066906,,,,,,,,,,,,,,,,,,,,,,,,,,,,,,,,,,,,,,,,,,,,,,,,,,,,,,,,,,,,RW2XLH,train_y,red_square,bottom_right,2025-09-13_12h04.35.025,HideSeek_v1,2022.2.5,59.918522827941715,
