trialInstr,x_fixStart,y_fixStart,x_corrSteps,y_corrSteps,x_nrSteps,y_nrSteps,alienID,trialLength,version,trialTrain,praclen,testlen,trial_label,break_on_off,beforeExpLoop.thisRepN,beforeExpLoop.thisTrialN,beforeExpLoop.thisN,beforeExpLoop.thisIndex,mini_instr_trials.thisRepN,mini_instr_trials.thisTrialN,mini_instr_trials.thisN,mini_instr_trials.thisIndex,instrLoop.thisRepN,instrLoop.thisTrialN,instrLoop.thisN,instrLoop.thisIndex,repeat_prac.thisRepN,repeat_prac.thisTrialN,repeat_prac.thisN,repeat_prac.thisIndex,trainLoop.thisRepN,trainLoop.thisTrialN,trainLoop.thisN,trainLoop.thisIndex,moveLoop_train.thisRepN,moveLoop_train.thisTrialN,moveLoop_train.thisN,moveLoop_train.thisIndex,experiment.thisRepN,experiment.thisTrialN,experiment.thisN,experiment.thisIndex,moveLoop_test.thisRepN,moveLoop_test.thisTrialN,moveLoop_test.thisN,moveLoop_test.thisIndex,mini_instr2_trials.thisRepN,mini_instr2_trials.thisTrialN,mini_instr2_trials.thisN,mini_instr2_trials.thisIndex,start_all_time,url,slideStim,audioStim,slides.started,sounds.started,nextButton.numClicks,nextButton.timesOn,nextButton.timesOff,prev_but.numClicks,prev_but.timesOn,prev_but.timesOff,alienStim,instrFile,alienStim_instr,gridImage_instr.started,startPos_3.started,key_instr.started,alienImage_3.started,sounds_1.started,key_instr.keys,key_instr.rt,all_x,all_y,FBy_corrSteps,FBy_fixStart,FBx_corrSteps,FBx_fixStart,FBy_pathSize_check,FBx_pathSize_check,gridImage_9.started,alienImageFB_3.started,startPosFB_3.started,keyFB_3.started,pathLine_ydir_2.started,pathLine_xdir_2.started,alienFace_3.started,sounds_2.started,RTFB_instr,keyFB_3.keys,keyFB_3.rt,draw_alienStim,draw_alienID,test_x,nrepcount,perfthres,percthres,earlierperf,earlystop,nextPrac,fileidx,praclen,saveACC_train,pracFile,nextPrac_train,addNrep,fileidx_endr,repExp,showearly,gridImage_4.started,startPos.started,movePos.started,key_resp.started,alienImage.started,buttonPress_train,RTchoice_train,cumAcctrain,aCorr,saveACC_choice,corrAns,x_movePos_end,y_movePos_end,key_resp.keys,key_resp.rt,wLy_dir,wLx_dir,x_movePos,y_movePos,text_2.started,text_2.stopped,aft_x_corrPos,aft_y_corrPos,y_pathSize_check,x_pathSize_check,y_pathdirY,x_pathdirY,x_pathdirX,x_corrPos,y_corrPos,gridImage_6.started,alienImageFB_2.started,startPosFB_2.started,movePosFB_2.started,keyFB_2.started,pathLine_xdir.started,pathLine_ydir.started,alienFace.started,sounds_4.started,RT_FBtrain,keyFB_2.keys,keyFB_2.rt,saveACC_pre,ACC,within_saveACC_train,earlystop_wloop,cumAcctrain_check,gridImage_3.started,alienImage_test.started,startPos_test.started,movePos_test.started,key_resp_test.started,wLy_dir_test,wLx_dir_test,buttonPress_test,RTchoice_test,cumAcctest,corrAns_test,key_resp_test.keys,key_resp_test.rt,text_3.started,text_3.stopped,total_time,end_all_time,key_resp_3.keys,slides_2.started,sounds_3.started,nextButton_2.numClicks,nextButton_2.timesOn,nextButton_2.timesOff,prev_but_2.numClicks,prev_but_2.timesOn,prev_but_2.timesOff,bye.started,participant,train_first,00_coordinate,starting corner,date,expName,psychopyVersion,frameRate,
,,,,,,,,,,,,,,,0,0,0,0,0,0,0,0,,,,,,,,,,,,,,,,,,,,,,,,,,,,,start_all_time,testround,conditions/schedules/train_x_first/red_square_00/bottom_right/instructions/Slide1.png,conditions/schedules/train_x_first/red_square_00/bottom_right/instructions/Audio1.wav,1903.5945017999038,1903.5374192192685,1,[7.144131900044158],[7.144138399977237],0,,,,,,,,,,,,,,,,,,,,,,,,,,,,,,,,,,,,,,,,,,,,,,,,,,,,,,,,,,,,,,,,,,,,,,,,,,,,,,,,,,,,,,,,,,,,,,,,,,,,,,,,,,,,,,,,,,,,,,,,,,,,RXEKMV,train_x,red_square,bottom_right,2025-05-26_14h34.48.281,HideSeek_v1,2022.2.5,59.94837247328519,
,,,,,,,,,,,,,,,0,0,0,0,1,0,1,0,,,,,,,,,,,,,,,,,,,,,,,,,,,,,,,conditions/schedules/train_x_first/red_square_00/bottom_right/instructions/Slide2.png,conditions/schedules/train_x_first/red_square_00/bottom_right/instructions/Audio2.wav,1910.7574528999394,1910.7585987999337,2,"[7.144131900044158, 18.080536400084384]","[0.00020720006432384253, 18.080543200019747]",0,,,,,,,,,,,,,,,,,,,,,,,,,,,,,,,,,,,,,,,,,,,,,,,,,,,,,,,,,,,,,,,,,,,,,,,,,,,,,,,,,,,,,,,,,,,,,,,,,,,,,,,,,,,,,,,,,,,,,,,,,,,,RXEKMV,train_x,red_square,bottom_right,2025-05-26_14h34.48.281,HideSeek_v1,2022.2.5,59.94837247328519,
,,,,,,,,,,,,,,,0,0,0,0,2,0,2,0,,,,,,,,,,,,,,,,,,,,,,,,,,,,,,,conditions/schedules/train_x_first/red_square_00/bottom_right/instructions/Slide3.png,conditions/schedules/train_x_first/red_square_00/bottom_right/instructions/Audio3.wav,1928.9173262999393,1928.9067696999991,3,"[7.144131900044158, 18.080536400084384, 16.967869300046004]","[0.00020720006432384253, 0.014158900012262166, 16.96787619998213]",0,,,,,,,,,,,,,,,,,,,,,,,,,,,,,,,,,,,,,,,,,,,,,,,,,,,,,,,,,,,,,,,,,,,,,,,,,,,,,,,,,,,,,,,,,,,,,,,,,,,,,,,,,,,,,,,,,,,,,,,,,,,,RXEKMV,train_x,red_square,bottom_right,2025-05-26_14h34.48.281,HideSeek_v1,2022.2.5,59.94837247328519,
,,,,,,,,,,,,,,,0,0,0,0,3,0,3,0,,,,,,,,,,,,,,,,,,,,,,,,,,,,,,,conditions/schedules/train_x_first/red_square_00/bottom_right/instructions/Slide4.png,conditions/schedules/train_x_first/red_square_00/bottom_right/instructions/Audio4.wav,1945.9604432999622,1945.9542387999827,4,"[7.144131900044158, 18.080536400084384, 16.967869300046004, 19.240918700001203]","[0.00020720006432384253, 0.014158900012262166, 0.03002780000679195, 19.240925900056027]",0,,,,,,,,,,,,,,,,,,,,,,,,,,,,,,,,,,,,,,,,,,,,,,,,,,,,,,,,,,,,,,,,,,,,,,,,,,,,,,,,,,,,,,,,,,,,,,,,,,,,,,,,,,,,,,,,,,,,,,,,,,,,RXEKMV,train_x,red_square,bottom_right,2025-05-26_14h34.48.281,HideSeek_v1,2022.2.5,59.94837247328519,
,,,,,,,,,,,,,,,0,0,0,0,4,0,4,0,,,,,,,,,,,,,,,,,,,,,,,,,,,,,,,conditions/schedules/train_x_first/red_square_00/bottom_right/instructions/Slide5.png,conditions/schedules/train_x_first/red_square_00/bottom_right/instructions/Audio5.wav,1965.269866699935,1965.2699074998964,5,"[7.144131900044158, 18.080536400084384, 16.967869300046004, 19.240918700001203, 4.351568599930033]","[0.00020720006432384253, 0.014158900012262166, 0.03002780000679195, 0.031143000000156462, 4.351575499982573]",0,,,,,,,,,,,,,,,,,,,,,,,,,,,,,,,,,,,,,,,,,,,,,,,,,,,,,,,,,,,,,,,,,,,,,,,,,,,,,,,,,,,,,,,,,,,,,,,,,,,,,,,,,,,,,,,,,,,,,,,,,,,,RXEKMV,train_x,red_square,bottom_right,2025-05-26_14h34.48.281,HideSeek_v1,2022.2.5,59.94837247328519,
,,,,,,,,,,,,,,,0,0,0,0,5,0,5,0,,,,,,,,,,,,,,,,,,,,,,,,,,,,,,,conditions/schedules/train_x_first/red_square_00/bottom_right/instructions/Slide6.png,conditions/schedules/train_x_first/red_square_00/bottom_right/instructions/Audio6.wav,1969.6720234999666,1969.6736898199888,6,"[7.144131900044158, 18.080536400084384, 16.967869300046004, 19.240918700001203, 4.351568599930033, 4.753513799980283]","[0.00020720006432384253, 0.014158900012262166, 0.03002780000679195, 0.031143000000156462, 0.050063899951055646, 4.753521000035107]",0,,,,,,,,,,,,,,,,,,,,,,,,,,,,,,,,,,,,,,,,,,,,,,,,,,,,,,,,,,,,,,,,,,,,,,,,,,,,,,,,,,,,,,,,,,,,,,,,,,,,,,,,,,,,,,,,,,,,,,,,,,,,RXEKMV,train_x,red_square,bottom_right,2025-05-26_14h34.48.281,HideSeek_v1,2022.2.5,59.94837247328519,
,,,,,,,,,,,,,,,0,0,0,0,6,0,6,0,,,,,,,,,,,,,,,,,,,,,,,,,,,,,,,conditions/schedules/train_x_first/red_square_00/bottom_right/instructions/Slide7.png,conditions/schedules/train_x_first/red_square_00/bottom_right/instructions/Audio7.wav,1974.4764559000032,1974.4777172199683,7,"[7.144131900044158, 18.080536400084384, 16.967869300046004, 19.240918700001203, 4.351568599930033, 4.753513799980283, 5.403608800028451]","[0.00020720006432384253, 0.014158900012262166, 0.03002780000679195, 0.031143000000156462, 0.050063899951055646, 0.06592029996681958, 5.403614799957722]",0,,,,,,,,,,,,,,,,,,,,,,,,,,,,,,,,,,,,,,,,,,,,,,,,,,,,,,,,,,,,,,,,,,,,,,,,,,,,,,,,,,,,,,,,,,,,,,,,,,,,,,,,,,,,,,,,,,,,,,,,,,,,RXEKMV,train_x,red_square,bottom_right,2025-05-26_14h34.48.281,HideSeek_v1,2022.2.5,59.94837247328519,
,,,,,,,,,,,,,,,0,0,0,0,7,0,7,0,,,,,,,,,,,,,,,,,,,,,,,,,,,,,,,conditions/schedules/train_x_first/red_square_00/bottom_right/instructions/Slide8.png,conditions/schedules/train_x_first/red_square_00/bottom_right/instructions/Audio8.wav,1979.9315934999613,1979.9321503199171,8,"[7.144131900044158, 18.080536400084384, 16.967869300046004, 19.240918700001203, 4.351568599930033, 4.753513799980283, 5.403608800028451, 11.50835180003196]","[0.00020720006432384253, 0.014158900012262166, 0.03002780000679195, 0.031143000000156462, 0.050063899951055646, 0.06592029996681958, 0.06503239995799959, 11.508359399973415]",0,,,,,,,,,,,,,,,,,,,,,,,,,,,,,,,,,,,,,,,,,,,,,,,,,,,,,,,,,,,,,,,,,,,,,,,,,,,,,,,,,,,,,,,,,,,,,,,,,,,,,,,,,,,,,,,,,,,,,,,,,,,,RXEKMV,train_x,red_square,bottom_right,2025-05-26_14h34.48.281,HideSeek_v1,2022.2.5,59.94837247328519,
,,,,,,,,,,,,,,,0,0,0,0,8,0,8,0,,,,,,,,,,,,,,,,,,,,,,,,,,,,,,,conditions/schedules/train_x_first/red_square_00/bottom_right/instructions/Slide9.png,conditions/schedules/train_x_first/red_square_00/bottom_right/instructions/Audio9.wav,1991.5110271999147,1991.50847469992,9,"[7.144131900044158, 18.080536400084384, 16.967869300046004, 19.240918700001203, 4.351568599930033, 4.753513799980283, 5.403608800028451, 11.50835180003196, 5.716947700013407]","[0.00020720006432384253, 0.014158900012262166, 0.03002780000679195, 0.031143000000156462, 0.050063899951055646, 0.06592029996681958, 0.06503239995799959, 0.031097099999897182, 5.716955699957907]",0,,,,,,,,,,,,,,,,,,,,,,,,,,,,,,,,,,,,,,,,,,,,,,,,,,,,,,,,,,,,,,,,,,,,,,,,,,,,,,,,,,,,,,,,,,,,,,,,,,,,,,,,,,,,,,,,,,,,,,,,,,,,RXEKMV,train_x,red_square,bottom_right,2025-05-26_14h34.48.281,HideSeek_v1,2022.2.5,59.94837247328519,
,,,,,,,,,,,,,,,0,0,0,0,9,0,9,0,,,,,,,,,,,,,,,,,,,,,,,,,,,,,,,conditions/schedules/train_x_first/red_square_00/bottom_right/instructions/Slide10.png,conditions/schedules/train_x_first/red_square_00/bottom_right/instructions/Audio10.wav,1997.264903399977,1997.2632248399314,10,"[7.144131900044158, 18.080536400084384, 16.967869300046004, 19.240918700001203, 4.351568599930033, 4.753513799980283, 5.403608800028451, 11.50835180003196, 5.716947700013407, 6.868832099949941]","[0.00020720006432384253, 0.014158900012262166, 0.03002780000679195, 0.031143000000156462, 0.050063899951055646, 0.06592029996681958, 0.06503239995799959, 0.031097099999897182, 0.11295350000727922, 6.8688400000100955]",0,,,,,,,,,,,,,,,,,,,,,,,,,,,,,,,,,,,,,,,,,,,,,,,,,,,,,,,,,,,,,,,,,,,,,,,,,,,,,,,,,,,,,,,,,,,,,,,,,,,,,,,,,,,,,,,,,,,,,,,,,,,,RXEKMV,train_x,red_square,bottom_right,2025-05-26_14h34.48.281,HideSeek_v1,2022.2.5,59.94837247328519,
,,,,,,,,,,,,,,,0,0,0,0,10,0,10,0,,,,,,,,,,,,,,,,,,,,,,,,,,,,,,,conditions/schedules/train_x_first/red_square_00/bottom_right/instructions/Slide11.png,conditions/schedules/train_x_first/red_square_00/bottom_right/instructions/Audio11.wav,2004.1992687999737,2004.202381699928,11,"[7.144131900044158, 18.080536400084384, 16.967869300046004, 19.240918700001203, 4.351568599930033, 4.753513799980283, 5.403608800028451, 11.50835180003196, 5.716947700013407, 6.868832099949941, 9.291445099981502]","[0.00020720006432384253, 0.014158900012262166, 0.03002780000679195, 0.031143000000156462, 0.050063899951055646, 0.06592029996681958, 0.06503239995799959, 0.031097099999897182, 0.11295350000727922, 0.05021050001960248, 9.29145260003861]",0,,,,,,,,,,,,,,,,,,,,,,,,,,,,,,,,,,,,,,,,,,,,,,,,,,,,,,,,,,,,,,,,,,,,,,,,,,,,,,,,,,,,,,,,,,,,,,,,,,,,,,,,,,,,,,,,,,,,,,,,,,,,RXEKMV,train_x,red_square,bottom_right,2025-05-26_14h34.48.281,HideSeek_v1,2022.2.5,59.94837247328519,
,,,,,,,,,,,,,,,0,0,0,0,11,0,11,0,,,,,,,,,,,,,,,,,,,,,,,,,,,,,,,conditions/schedules/train_x_first/red_square_00/bottom_right/instructions/Slide12.png,conditions/schedules/train_x_first/red_square_00/bottom_right/instructions/Audio12.wav,2013.5463133999147,2013.5434656199068,12,"[7.144131900044158, 18.080536400084384, 16.967869300046004, 19.240918700001203, 4.351568599930033, 4.753513799980283, 5.403608800028451, 11.50835180003196, 5.716947700013407, 6.868832099949941, 9.291445099981502, 12.705244800075889]","[0.00020720006432384253, 0.014158900012262166, 0.03002780000679195, 0.031143000000156462, 0.050063899951055646, 0.06592029996681958, 0.06503239995799959, 0.031097099999897182, 0.11295350000727922, 0.05021050001960248, 0.046729300054721534, 12.705251600011252]",0,,,,,,,,,,,,,,,,,,,,,,,,,,,,,,,,,,,,,,,,,,,,,,,,,,,,,,,,,,,,,,,,,,,,,,,,,,,,,,,,,,,,,,,,,,,,,,,,,,,,,,,,,,,,,,,,,,,,,,,,,,,,RXEKMV,train_x,red_square,bottom_right,2025-05-26_14h34.48.281,HideSeek_v1,2022.2.5,59.94837247328519,
1,8,2,3,2,-5,0,66,2,instr_dim1_1,,,,,,0,0,0,0,,,,,0,0,0,0,,,,,,,,,,,,,,,,,,,,,,,,,,,,,,,,,,,,,stimuli/alien_stimuli/66.png,conditions/schedules/train_x_first/red_square_00/bottom_right/inputInstr_1.xlsx,stimuli/alien_stimuli/66.png,2026.3545304000145,2026.3545304000145,2026.3545304000145,2026.3545304000145,2026.353931259946,return,9.484930399921723,"[-0.16, -0.08, 0, 0.08, 0.16, 0.24, 0.32, 0.4, 0.48, 0.56]","[-0.4, -0.32, -0.24, -0.16, -0.08, 0, 0.08, 0.16, 0.24, 0.32]",2,2,3,8,0.0,0.4,2035.9895991999656,2035.9895991999656,2035.9895991999656,2035.9895991999656,2035.9895991999656,2035.9895991999656,2035.9895991999656,2035.9785168399103,7.556708399904892,return,7.403817199985497,stimuli/alien_stimuli/66.png,66,8,1,,,,,,,,,,,,,,,,,,,,,,,,,,,,,,,,,,,,,,,,,,,,,,,,,,,,,,,,,,,,,,,,,,,,,,,,,,,,,,,,,,,,,,,,,RXEKMV,train_x,red_square,bottom_right,2025-05-26_14h34.48.281,HideSeek_v1,2022.2.5,59.94837247328519,
,,,,,,,,,,,30,,,,0,0,0,0,,,,,,,,,,,,,,,,,,,,,,,,,,,,,,,,,,,,,,,,,,,,,,,,,,,,,,,,,,,,,,,,,,,,,,,,,,,,,,21,0.7,0,0,99,1,30,0,conditions/schedules/train_x_first/red_square_00/bottom_right/inputTrain_1.1.xlsx,99,1,1,1,0,,,,,,,,,,,,,,,,,,,,,,,,,,,,,,,,,,,,,,,,,,,,,,,,,,,,,,,,,,,,,,,,,,,,,,,,,,,RXEKMV,train_x,red_square,bottom_right,2025-05-26_14h34.48.281,HideSeek_v1,2022.2.5,59.94837247328519,
,,,,,,,,,,,,,,,1,0,1,0,0,0,0,0,,,,,,,,,,,,,,,,,,,,,,,,,,,,,,,conditions/schedules/train_x_first/red_square_00/bottom_right/instructions/Slide13.png,conditions/schedules/train_x_first/red_square_00/bottom_right/instructions/Audio13.wav,2043.5482432999415,2043.5347514399327,13,"[7.144131900044158, 18.080536400084384, 16.967869300046004, 19.240918700001203, 4.351568599930033, 4.753513799980283, 5.403608800028451, 11.50835180003196, 5.716947700013407, 6.868832099949941, 9.291445099981502, 12.705244800075889, 18.00031570007559]","[0.00020720006432384253, 0.014158900012262166, 0.03002780000679195, 0.031143000000156462, 0.050063899951055646, 0.06592029996681958, 0.06503239995799959, 0.031097099999897182, 0.11295350000727922, 0.05021050001960248, 0.046729300054721534, 12.705251600011252, 18.000324200023897]",0,,,,,,,,,,,,,,,,,,,,,,,,,,,,,,,,,,,,,,,,,,,,,,,,,,,,,,,,,,,,,,,,,,,,,,,,,,,,,,,,,,,,,,,,,,,,,,,,,,,,,,,,,,,,,,,,,,,,,,,,,,,,RXEKMV,train_x,red_square,bottom_right,2025-05-26_14h34.48.281,HideSeek_v1,2022.2.5,59.94837247328519,
,,,,,,,,,,,,,,,1,0,1,0,1,0,1,0,,,,,,,,,,,,,,,,,,,,,,,,,,,,,,,conditions/schedules/train_x_first/red_square_00/bottom_right/instructions/Slide14.png,conditions/schedules/train_x_first/red_square_00/bottom_right/instructions/Audio14.wav,2061.6121268999996,2061.5998530199286,14,"[7.144131900044158, 18.080536400084384, 16.967869300046004, 19.240918700001203, 4.351568599930033, 4.753513799980283, 5.403608800028451, 11.50835180003196, 5.716947700013407, 6.868832099949941, 9.291445099981502, 12.705244800075889, 18.00031570007559, 13.34640090004541]","[0.00020720006432384253, 0.014158900012262166, 0.03002780000679195, 0.031143000000156462, 0.050063899951055646, 0.06592029996681958, 0.06503239995799959, 0.031097099999897182, 0.11295350000727922, 0.05021050001960248, 0.046729300054721534, 12.705251600011252, 0.03558500006329268, 13.346408299985342]",0,,,,,,,,,,,,,,,,,,,,,,,,,,,,,,,,,,,,,,,,,,,,,,,,,,,,,,,,,,,,,,,,,,,,,,,,,,,,,,,,,,,,,,,,,,,,,,,,,,,,,,,,,,,,,,,,,,,,,,,,,,,,RXEKMV,train_x,red_square,bottom_right,2025-05-26_14h34.48.281,HideSeek_v1,2022.2.5,59.94837247328519,
2,9,0,9,0,0,0,16,2,instr_dim1_1,,,,,,1,0,1,0,,,,,0,0,0,0,,,,,,,,,,,,,,,,,,,,,,,,,,,,,,,,,,,,,stimuli/alien_stimuli/16.png,conditions/schedules/train_x_first/red_square_00/bottom_right/inputInstr_1.xlsx,stimuli/alien_stimuli/16.png,2075.0674703000113,2075.0674703000113,2075.0674703000113,2075.0674703000113,2075.0610620599473,return,7.905248599941842,"[-0.16, -0.08, 0, 0.08, 0.16, 0.24, 0.32, 0.4, 0.48, 0.56]","[-0.4, -0.32, -0.24, -0.16, -0.08, 0, 0.08, 0.16, 0.24, 0.32]",0,0,9,9,0.0,0.0,2083.139842899982,2083.139842899982,2083.139842899982,2083.139842899982,2083.139842899982,2083.139842899982,2083.139842899982,2083.1177187399007,8.207765299943276,return,8.049395799986087,stimuli/alien_stimuli/16.png,16,9,2,,,,,,,,,,,,,,,,,,,,,,,,,,,,,,,,,,,,,,,,,,,,,,,,,,,,,,,,,,,,,,,,,,,,,,,,,,,,,,,,,,,,,,,,,RXEKMV,train_x,red_square,bottom_right,2025-05-26_14h34.48.281,HideSeek_v1,2022.2.5,59.94837247328519,
,,,,,,,,,,,30,,,,1,0,1,0,,,,,,,,,,,,,,,,,,,,,,,,,,,,,,,,,,,,,,,,,,,,,,,,,,,,,,,,,,,,,,,,,,,,,,,,,,,,,,21,0.7,0,0,99,1,30,0,conditions/schedules/train_x_first/red_square_00/bottom_right/inputTrain_1.1.xlsx,99,1,1,1,0,,,,,,,,,,,,,,,,,,,,,,,,,,,,,,,,,,,,,,,,,,,,,,,,,,,,,,,,,,,,,,,,,,,,,,,,,,,RXEKMV,train_x,red_square,bottom_right,2025-05-26_14h34.48.281,HideSeek_v1,2022.2.5,59.94837247328519,
,,,,,,,,,,,,,,,2,0,2,0,0,0,0,0,,,,,,,,,,,,,,,,,,,,,,,,,,,,,,,conditions/schedules/train_x_first/red_square_00/bottom_right/instructions/Slide15.png,conditions/schedules/train_x_first/red_square_00/bottom_right/instructions/Audio15.wav,2091.345638299943,2091.341295619961,15,"[7.144131900044158, 18.080536400084384, 16.967869300046004, 19.240918700001203, 4.351568599930033, 4.753513799980283, 5.403608800028451, 11.50835180003196, 5.716947700013407, 6.868832099949941, 9.291445099981502, 12.705244800075889, 18.00031570007559, 13.34640090004541, 30.70167490001768]","[0.00020720006432384253, 0.014158900012262166, 0.03002780000679195, 0.031143000000156462, 0.050063899951055646, 0.06592029996681958, 0.06503239995799959, 0.031097099999897182, 0.11295350000727922, 0.05021050001960248, 0.046729300054721534, 12.705251600011252, 0.03558500006329268, 13.346408299985342, 30.701682800077833]",0,,,,,,,,,,,,,,,,,,,,,,,,,,,,,,,,,,,,,,,,,,,,,,,,,,,,,,,,,,,,,,,,,,,,,,,,,,,,,,,,,,,,,,,,,,,,,,,,,,,,,,,,,,,,,,,,,,,,,,,,,,,,RXEKMV,train_x,red_square,bottom_right,2025-05-26_14h34.48.281,HideSeek_v1,2022.2.5,59.94837247328519,
,,,,,,,,,,,,,,,2,0,2,0,1,0,1,0,,,,,,,,,,,,,,,,,,,,,,,,,,,,,,,conditions/schedules/train_x_first/red_square_00/bottom_right/instructions/Slide16.png,conditions/schedules/train_x_first/red_square_00/bottom_right/instructions/Audio16.wav,2122.117020400008,2122.1166957999812,16,"[7.144131900044158, 18.080536400084384, 16.967869300046004, 19.240918700001203, 4.351568599930033, 4.753513799980283, 5.403608800028451, 11.50835180003196, 5.716947700013407, 6.868832099949941, 9.291445099981502, 12.705244800075889, 18.00031570007559, 13.34640090004541, 30.70167490001768, 21.431332199950702]","[0.00020720006432384253, 0.014158900012262166, 0.03002780000679195, 0.031143000000156462, 0.050063899951055646, 0.06592029996681958, 0.06503239995799959, 0.031097099999897182, 0.11295350000727922, 0.05021050001960248, 0.046729300054721534, 12.705251600011252, 0.03558500006329268, 13.346408299985342, 0.09672999999020249, 21.431339400005527]",0,,,,,,,,,,,,,,,,,,,,,,,,,,,,,,,,,,,,,,,,,,,,,,,,,,,,,,,,,,,,,,,,,,,,,,,,,,,,,,,,,,,,,,,,,,,,,,,,,,,,,,,,,,,,,,,,,,,,,,,,,,,,RXEKMV,train_x,red_square,bottom_right,2025-05-26_14h34.48.281,HideSeek_v1,2022.2.5,59.94837247328519,
,7,1,4,1,-3,0,46,,train_dim1_1,1,30,,,,2,0,2,0,,,,,,,,,0,0,0,0,0,0,0,0,0,0,0,0,,,,,,,,,,,,,,,,,,,,,,,,,stimuli/alien_stimuli/46.png,,,,,,,,,,,,,,,,,,,,,,,,,,,,,,,,,,,,,,,30,,,,,,,,2143.6490256999386,2143.6490256999386,2143.6490256999386,2143.6490256999386,2143.6490256999386,right,9.568061199970543,0,0,0,99,0.48000000000000004,-0.32,right,9.466495700064115,,,,,,,,,,,,,,,,,,,,,,,,,,,,,,,,,,,,,,,,,,,,,,,,,,,,,,,,,,,,RXEKMV,train_x,red_square,bottom_right,2025-05-26_14h34.48.281,HideSeek_v1,2022.2.5,59.94837247328519,
,7,1,4,1,-3,0,46,,train_dim1_1,1,30,,,,2,0,2,0,,,,,,,,,0,0,0,0,0,0,0,0,1,0,1,0,,,,,,,,,,,,,,,,,,,,,,,,,,,,,,,,,,,,,,,,,,,,,,,,,,,,,,,,,,,,,,,,30,,,,,,,,2153.2073911000043,2153.2073911000043,2153.2073911000043,2153.2073911000043,2153.2073911000043,return,1.093764999997802,0,0,0,0,0.48000000000000004,-0.32,return,1.0190537000307813,0,1,0.48000000000000004,-0.32,,,,,,,,,,,,,,,,,,,,,,,,,,,,,,,,,,,,,,,,,,,,,,,,,,,,,,,,RXEKMV,train_x,red_square,bottom_right,2025-05-26_14h34.48.281,HideSeek_v1,2022.2.5,59.94837247328519,
,7,4,7,4,0,0,16,,train_dim1_1,2,30,,,,2,0,2,0,,,,,,,,,0,0,0,0,0,1,1,1,0,0,0,0,,,,,,,,,,,,,,,,,,,,,,,,,stimuli/alien_stimuli/16.png,,,,,,,,,,,,,,,,,,,,,,,,,,,,,stimuli/alien_stimuli/46.png,46,7,3,,,,,,,30,,,,,,,,2191.0013060999336,2191.0013060999336,2191.0013060999336,2191.0013060999336,2191.0013060999336,return,7.643121300032362,1,0,0,1,0.4,-0.08,return,7.52987700002268,0,1,0.4,-0.08,2189.4224599999143,2191.0013060999336,0.16,-0.32,0.0,0.24,-0.32,0.16,0.28,0.16,-0.32,2155.8729442999465,2155.8729442999465,2155.8729442999465,2155.8729442999465,2155.8729442999465,2155.8729442999465,2155.8729442999465,2155.8729442999465,2155.8613650599727,33.66389369999524,return,33.529271699953824,,,,,,,,,,,,,,,,,,,,,,,,,,,,,,,,,RXEKMV,train_x,red_square,bottom_right,2025-05-26_14h34.48.281,HideSeek_v1,2022.2.5,59.94837247328519,
,9,4,8,4,-1,0,26,,train_dim1_1,3,30,,,,2,0,2,0,,,,,,,,,0,0,0,0,0,2,2,2,0,0,0,0,,,,,,,,,,,,,,,,,,,,,,,,,stimuli/alien_stimuli/26.png,,,,,,,,,,,,,,,,,,,,,,,,,,,,,stimuli/alien_stimuli/16.png,16,7,4,,,,,,,30,,,,,,,,2208.670704499935,2208.670704499935,2208.670704499935,2208.670704499935,2208.670704499935,down,8.761906500090845,1,0,0,99,0.56,-0.16,down,8.667613700032234,,,,,2207.10392039991,2208.670704499935,0.4,-0.08,0.0,0.0,-0.08,0.4,0.4,0.4,-0.08,2200.2119451999897,2200.2119451999897,2200.2119451999897,2200.2119451999897,2200.2119451999897,2200.2119451999897,2200.2119451999897,2200.2119451999897,2200.198191739968,7.02441039995756,return,6.865811299998313,,,,,,,,,,,,,,,,,,,,,,,,,,,,,,,,,RXEKMV,train_x,red_square,bottom_right,2025-05-26_14h34.48.281,HideSeek_v1,2022.2.5,59.94837247328519,
,9,4,8,4,-1,0,26,,train_dim1_1,3,30,,,,2,0,2,0,,,,,,,,,0,0,0,0,0,2,2,2,1,0,1,0,,,,,,,,,,,,,,,,,,,,,,,,,,,,,,,,,,,,,,,,,,,,,,,,,,,,,,,,,,,,,,,,30,,,,,,,,2217.4304158999585,2217.4304158999585,2217.4304158999585,2217.4304158999585,2217.4304158999585,down,0.69328000000678,1,0,0,99,0.56,-0.24,down,0.6119008000241593,,,,,,,,,,,,,,,,,,,,,,,,,,,,,,,,,,,,,,,,,,,,,,,,,,,,,,,,,,,,RXEKMV,train_x,red_square,bottom_right,2025-05-26_14h34.48.281,HideSeek_v1,2022.2.5,59.94837247328519,
,9,4,8,4,-1,0,26,,train_dim1_1,3,30,,,,2,0,2,0,,,,,,,,,0,0,0,0,0,2,2,2,2,0,2,0,,,,,,,,,,,,,,,,,,,,,,,,,,,,,,,,,,,,,,,,,,,,,,,,,,,,,,,,,,,,,,,,30,,,,,,,,2218.1297694999957,2218.1297694999957,2218.1297694999957,2218.1297694999957,2218.1297694999957,return,0.8272195999743417,1,0,0,0,0.56,-0.24,return,0.7367698999587446,-2,1,0.56,-0.24,,,,,,,,,,,,,,,,,,,,,,,,,,,,,,,,,,,,,,,,,,,,,,,,,,,,,,,,RXEKMV,train_x,red_square,bottom_right,2025-05-26_14h34.48.281,HideSeek_v1,2022.2.5,59.94837247328519,
,7,3,3,3,-4,0,56,,train_dim1_1,4,30,,,,2,0,2,0,,,,,,,,,0,0,0,0,0,3,3,3,0,0,0,0,,,,,,,,,,,,,,,,,,,,,,,,,stimuli/alien_stimuli/56.png,,,,,,,,,,,,,,,,,,,,,,,,,,,,,stimuli/alien_stimuli/26.png,26,9,5,,,,,,,30,,,,,,,,2225.7622914999956,2225.7622914999956,2225.7622914999956,2225.7622914999956,2225.7622914999956,left,5.193385699996725,1,0,0,99,0.32,-0.16,left,5.107395799946971,,,,,2224.2013137999456,2225.7622914999956,0.48,-0.08,0.0,0.08,-0.08,0.48,0.52,0.48,-0.08,2220.5432392999064,2220.5432392999064,2220.5432392999064,2220.5432392999064,2220.5432392999064,2220.5432392999064,2220.5432392999064,2220.5432392999064,2220.531655739993,3.789217700017616,return,3.6271193999564275,,,,,,,,,,,,,,,,,,,,,,,,,,,,,,,,,RXEKMV,train_x,red_square,bottom_right,2025-05-26_14h34.48.281,HideSeek_v1,2022.2.5,59.94837247328519,
,7,3,3,3,-4,0,56,,train_dim1_1,4,30,,,,2,0,2,0,,,,,,,,,0,0,0,0,0,3,3,3,1,0,1,0,,,,,,,,,,,,,,,,,,,,,,,,,,,,,,,,,,,,,,,,,,,,,,,,,,,,,,,,,,,,,,,,30,,,,,,,,2230.956585399923,2230.956585399923,2230.956585399923,2230.956585399923,2230.956585399923,left,1.4937474000034854,1,0,0,99,0.24,-0.16,left,1.4099729000590742,,,,,,,,,,,,,,,,,,,,,,,,,,,,,,,,,,,,,,,,,,,,,,,,,,,,,,,,,,,,RXEKMV,train_x,red_square,bottom_right,2025-05-26_14h34.48.281,HideSeek_v1,2022.2.5,59.94837247328519,
,7,3,3,3,-4,0,56,,train_dim1_1,4,30,,,,2,0,2,0,,,,,,,,,0,0,0,0,0,3,3,3,2,0,2,0,,,,,,,,,,,,,,,,,,,,,,,,,,,,,,,,,,,,,,,,,,,,,,,,,,,,,,,,,,,,,,,,30,,,,,,,,2232.458339900011,2232.458339900011,2232.458339900011,2232.458339900011,2232.458339900011,left,1.7592431999510154,1,0,0,99,0.15999999999999998,-0.16,left,1.6847169999964535,,,,,,,,,,,,,,,,,,,,,,,,,,,,,,,,,,,,,,,,,,,,,,,,,,,,,,,,,,,,RXEKMV,train_x,red_square,bottom_right,2025-05-26_14h34.48.281,HideSeek_v1,2022.2.5,59.94837247328519,
,7,3,3,3,-4,0,56,,train_dim1_1,4,30,,,,2,0,2,0,,,,,,,,,0,0,0,0,0,3,3,3,3,0,3,0,,,,,,,,,,,,,,,,,,,,,,,,,,,,,,,,,,,,,,,,,,,,,,,,,,,,,,,,,,,,,,,,30,,,,,,,,2234.224484700011,2234.224484700011,2234.224484700011,2234.224484700011,2234.224484700011,left,1.1106631000293419,1,0,0,99,0.07999999999999997,-0.16,left,1.0364741999655962,,,,,,,,,,,,,,,,,,,,,,,,,,,,,,,,,,,,,,,,,,,,,,,,,,,,,,,,,,,,RXEKMV,train_x,red_square,bottom_right,2025-05-26_14h34.48.281,HideSeek_v1,2022.2.5,59.94837247328519,
,7,3,3,3,-4,0,56,,train_dim1_1,4,30,,,,2,0,2,0,,,,,,,,,0,0,0,0,0,3,3,3,4,0,4,0,,,,,,,,,,,,,,,,,,,,,,,,,,,,,,,,,,,,,,,,,,,,,,,,,,,,,,,,,,,,,,,,30,,,,,,,,2235.3420063999947,2235.3420063999947,2235.3420063999947,2235.3420063999947,2235.3420063999947,left,1.2276732999598607,1,0,0,99,-2.7755575615628914e-17,-0.16,left,1.1442913999781013,,,,,,,,,,,,,,,,,,,,,,,,,,,,,,,,,,,,,,,,,,,,,,,,,,,,,,,,,,,,RXEKMV,train_x,red_square,bottom_right,2025-05-26_14h34.48.281,HideSeek_v1,2022.2.5,59.94837247328519,
,7,3,3,3,-4,0,56,,train_dim1_1,4,30,,,,2,0,2,0,,,,,,,,,0,0,0,0,0,3,3,3,5,0,5,0,,,,,,,,,,,,,,,,,,,,,,,,,,,,,,,,,,,,,,,,,,,,,,,,,,,,,,,,,,,,,,,,30,,,,,,,,2236.5830217999173,2236.5830217999173,2236.5830217999173,2236.5830217999173,2236.5830217999173,return,1.3064455999992788,1,1,0,0,-2.7755575615628914e-17,-0.16,return,1.2148237999062985,-2,-4,-2.7755575615628914e-17,-0.16,,,,,,,,,,,,,,,,,,,,,,,,,,,,,,,,,,,,,,,,,,,,,,,,,,,,,,,,RXEKMV,train_x,red_square,bottom_right,2025-05-26_14h34.48.281,HideSeek_v1,2022.2.5,59.94837247328519,
,5,2,0,2,-5,0,66,,train_dim1_1,5,30,,,,2,0,2,0,,,,,,,,,0,0,0,0,0,4,4,4,0,0,0,0,,,,,,,,,,,,,,,,,,,,,,,,,stimuli/alien_stimuli/66.png,,,,,,,,,,,,,,,,,,,,,,,,,,,,,stimuli/alien_stimuli/56.png,56,7,6,,,,,,,30,,,,,,,,2247.989378899918,2247.989378899918,2247.989378899918,2247.989378899918,2247.989378899918,left,6.634082700009458,1,1,0,99,0.15999999999999998,-0.24,left,6.542294000042602,,,,,2246.4195320999715,2247.989378899918,0.08,-0.16,0.0,0.32,-0.16,0.08,0.24000000000000002,0.08,-0.16,2239.4668169999495,2239.4668169999495,2239.4668169999495,2239.4668169999495,2239.4668169999495,2239.4668169999495,2239.4668169999495,2239.4668169999495,2239.4472996599507,7.074803500087,return,6.931456899968907,,,,,,,,,,,,,,,,,,,,,,,,,,,,,,,,,RXEKMV,train_x,red_square,bottom_right,2025-05-26_14h34.48.281,HideSeek_v1,2022.2.5,59.94837247328519,
,5,2,0,2,-5,0,66,,train_dim1_1,5,30,,,,2,0,2,0,,,,,,,,,0,0,0,0,0,4,4,4,1,0,1,0,,,,,,,,,,,,,,,,,,,,,,,,,,,,,,,,,,,,,,,,,,,,,,,,,,,,,,,,,,,,,,,,30,,,,,,,,2254.6245763999177,2254.6245763999177,2254.6245763999177,2254.6245763999177,2254.6245763999177,left,2.4105720999650657,1,1,0,99,0.07999999999999997,-0.24,left,2.3265193999977782,,,,,,,,,,,,,,,,,,,,,,,,,,,,,,,,,,,,,,,,,,,,,,,,,,,,,,,,,,,,RXEKMV,train_x,red_square,bottom_right,2025-05-26_14h34.48.281,HideSeek_v1,2022.2.5,59.94837247328519,
,5,2,0,2,-5,0,66,,train_dim1_1,5,30,,,,2,0,2,0,,,,,,,,,0,0,0,0,0,4,4,4,2,0,2,0,,,,,,,,,,,,,,,,,,,,,,,,,,,,,,,,,,,,,,,,,,,,,,,,,,,,,,,,,,,,,,,,30,,,,,,,,2257.040695599979,2257.040695599979,2257.040695599979,2257.040695599979,2257.040695599979,left,0.7605389000382274,1,1,0,99,-2.7755575615628914e-17,-0.24,left,0.6793720000423491,,,,,,,,,,,,,,,,,,,,,,,,,,,,,,,,,,,,,,,,,,,,,,,,,,,,,,,,,,,,RXEKMV,train_x,red_square,bottom_right,2025-05-26_14h34.48.281,HideSeek_v1,2022.2.5,59.94837247328519,
,5,2,0,2,-5,0,66,,train_dim1_1,5,30,,,,2,0,2,0,,,,,,,,,0,0,0,0,0,4,4,4,3,0,3,0,,,,,,,,,,,,,,,,,,,,,,,,,,,,,,,,,,,,,,,,,,,,,,,,,,,,,,,,,,,,,,,,30,,,,,,,,2257.8092054999433,2257.8092054999433,2257.8092054999433,2257.8092054999433,2257.8092054999433,left,0.7262205000733957,1,1,0,99,-0.08000000000000003,-0.24,left,0.6515288000227883,,,,,,,,,,,,,,,,,,,,,,,,,,,,,,,,,,,,,,,,,,,,,,,,,,,,,,,,,,,,RXEKMV,train_x,red_square,bottom_right,2025-05-26_14h34.48.281,HideSeek_v1,2022.2.5,59.94837247328519,
,5,2,0,2,-5,0,66,,train_dim1_1,5,30,,,,2,0,2,0,,,,,,,,,0,0,0,0,0,4,4,4,4,0,4,0,,,,,,,,,,,,,,,,,,,,,,,,,,,,,,,,,,,,,,,,,,,,,,,,,,,,,,,,,,,,,,,,30,,,,,,,,2258.5427427999675,2258.5427427999675,2258.5427427999675,2258.5427427999675,2258.5427427999675,left,0.6437227999558672,1,1,0,99,-0.16000000000000003,-0.24,left,0.5575914999935776,,,,,,,,,,,,,,,,,,,,,,,,,,,,,,,,,,,,,,,,,,,,,,,,,,,,,,,,,,,,RXEKMV,train_x,red_square,bottom_right,2025-05-26_14h34.48.281,HideSeek_v1,2022.2.5,59.94837247328519,
,5,2,0,2,-5,0,66,,train_dim1_1,5,30,,,,2,0,2,0,,,,,,,,,0,0,0,0,0,4,4,4,5,0,5,0,,,,,,,,,,,,,,,,,,,,,,,,,,,,,,,,,,,,,,,,,,,,,,,,,,,,,,,,,,,,,,,,30,,,,,,,,2259.1930221999064,2259.1930221999064,2259.1930221999064,2259.1930221999064,2259.1930221999064,return,0.6103068999946117,2,0,0,1,-0.16000000000000003,-0.24,return,0.5230433999095112,-2,-9,-0.16000000000000003,-0.24,,,,,,,,,,,,,,,,,,,,,,,,,,,,,,,,,,,,,,,,,,,,,,,,,,,,,,,,RXEKMV,train_x,red_square,bottom_right,2025-05-26_14h34.48.281,HideSeek_v1,2022.2.5,59.94837247328519,
,5,0,4,0,-1,0,26,,train_dim1_1,6,30,,,,2,0,2,0,,,,,,,,,0,0,0,0,0,5,5,5,0,0,0,0,,,,,,,,,,,,,,,,,,,,,,,,,stimuli/alien_stimuli/26.png,,,,,,,,,,,,,,,,,,,,,,,,,,,,,stimuli/alien_stimuli/66.png,66,5,7,,,,,,,30,,,,,,,,2265.278273599921,2265.278273599921,2265.278273599921,2265.278273599921,2265.278273599921,return,3.4067396000027657,2,1,0,0,0.24,-0.4,return,3.305494400090538,-2,-9,0.24,-0.4,2263.700875999988,2265.278273599921,-0.16,-0.24,0.0,0.4,-0.24,-0.16,0.039999999999999994,-0.16,-0.24,2261.380766899907,2261.380766899907,2261.380766899907,2261.380766899907,2261.380766899907,2261.380766899907,2261.380766899907,2261.380766899907,2261.3655636599287,2.4380036999937147,return,2.3043324999744073,,,,,,,,,,,,,,,,,,,,,,,,,,,,,,,,,RXEKMV,train_x,red_square,bottom_right,2025-05-26_14h34.48.281,HideSeek_v1,2022.2.5,59.94837247328519,
,8,0,3,0,-5,0,66,,train_dim1_1,7,30,,,,2,0,2,0,,,,,,,,,0,0,0,0,0,6,6,6,0,0,0,0,,,,,,,,,,,,,,,,,,,,,,,,,stimuli/alien_stimuli/66.png,,,,,,,,,,,,,,,,,,,,,,,,,,,,,stimuli/alien_stimuli/26.png,26,5,8,,,,,,,30,,,,,,,,2274.3023772999877,2274.3023772999877,2274.3023772999877,2274.3023772999877,2274.3023772999877,left,1.8727953999768943,2,1,0,99,0.39999999999999997,-0.4,left,1.7605403999332339,,,,,2272.7248969000066,2274.3023772999877,0.16,-0.4,0.0,0.08,-0.4,0.16,0.2,0.16,-0.4,2270.231469499995,2270.231469499995,2270.231469499995,2270.231469499995,2270.231469499995,2270.231469499995,2270.231469499995,2270.231469499995,2270.2228605599375,2.604310700087808,return,2.4719103999668732,,,,,,,,,,,,,,,,,,,,,,,,,,,,,,,,,RXEKMV,train_x,red_square,bottom_right,2025-05-26_14h34.48.281,HideSeek_v1,2022.2.5,59.94837247328519,
,8,0,3,0,-5,0,66,,train_dim1_1,7,30,,,,2,0,2,0,,,,,,,,,0,0,0,0,0,6,6,6,1,0,1,0,,,,,,,,,,,,,,,,,,,,,,,,,,,,,,,,,,,,,,,,,,,,,,,,,,,,,,,,,,,,,,,,30,,,,,,,,2276.1600301999133,2276.1600301999133,2276.1600301999133,2276.1600301999133,2276.1600301999133,left,0.7936642999993637,2,1,0,99,0.31999999999999995,-0.4,left,0.7108714999631047,,,,,,,,,,,,,,,,,,,,,,,,,,,,,,,,,,,,,,,,,,,,,,,,,,,,,,,,,,,,RXEKMV,train_x,red_square,bottom_right,2025-05-26_14h34.48.281,HideSeek_v1,2022.2.5,59.94837247328519,
,8,0,3,0,-5,0,66,,train_dim1_1,7,30,,,,2,0,2,0,,,,,,,,,0,0,0,0,0,6,6,6,2,0,2,0,,,,,,,,,,,,,,,,,,,,,,,,,,,,,,,,,,,,,,,,,,,,,,,,,,,,,,,,,,,,,,,,30,,,,,,,,2276.95787449996,2276.95787449996,2276.95787449996,2276.95787449996,2276.95787449996,left,0.9435883000260219,2,1,0,99,0.23999999999999994,-0.4,left,0.8638226999901235,,,,,,,,,,,,,,,,,,,,,,,,,,,,,,,,,,,,,,,,,,,,,,,,,,,,,,,,,,,,RXEKMV,train_x,red_square,bottom_right,2025-05-26_14h34.48.281,HideSeek_v1,2022.2.5,59.94837247328519,
,8,0,3,0,-5,0,66,,train_dim1_1,7,30,,,,2,0,2,0,,,,,,,,,0,0,0,0,0,6,6,6,3,0,3,0,,,,,,,,,,,,,,,,,,,,,,,,,,,,,,,,,,,,,,,,,,,,,,,,,,,,,,,,,,,,,,,,30,,,,,,,,2277.9082504999824,2277.9082504999824,2277.9082504999824,2277.9082504999824,2277.9082504999824,left,0.9109180000377819,2,1,0,99,0.15999999999999992,-0.4,left,0.8353560999967158,,,,,,,,,,,,,,,,,,,,,,,,,,,,,,,,,,,,,,,,,,,,,,,,,,,,,,,,,,,,RXEKMV,train_x,red_square,bottom_right,2025-05-26_14h34.48.281,HideSeek_v1,2022.2.5,59.94837247328519,
,8,0,3,0,-5,0,66,,train_dim1_1,7,30,,,,2,0,2,0,,,,,,,,,0,0,0,0,0,6,6,6,4,0,4,0,,,,,,,,,,,,,,,,,,,,,,,,,,,,,,,,,,,,,,,,,,,,,,,,,,,,,,,,,,,,,,,,30,,,,,,,,2278.8277256999863,2278.8277256999863,2278.8277256999863,2278.8277256999863,2278.8277256999863,left,0.8589767999947071,2,1,0,99,0.07999999999999992,-0.4,left,0.7757848999463022,,,,,,,,,,,,,,,,,,,,,,,,,,,,,,,,,,,,,,,,,,,,,,,,,,,,,,,,,,,,RXEKMV,train_x,red_square,bottom_right,2025-05-26_14h34.48.281,HideSeek_v1,2022.2.5,59.94837247328519,
,8,0,3,0,-5,0,66,,train_dim1_1,7,30,,,,2,0,2,0,,,,,,,,,0,0,0,0,0,6,6,6,5,0,5,0,,,,,,,,,,,,,,,,,,,,,,,,,,,,,,,,,,,,,,,,,,,,,,,,,,,,,,,,,,,,,,,,30,,,,,,,,2279.6931167999282,2279.6931167999282,2279.6931167999282,2279.6931167999282,2279.6931167999282,return,0.7098349999869242,3,0,0,1,0.07999999999999992,-0.4,return,0.6360564000206068,-2,-14,0.07999999999999992,-0.4,,,,,,,,,,,,,,,,,,,,,,,,,,,,,,,,,,,,,,,,,,,,,,,,,,,,,,,,RXEKMV,train_x,red_square,bottom_right,2025-05-26_14h34.48.281,HideSeek_v1,2022.2.5,59.94837247328519,
,5,4,2,4,-3,0,46,,train_dim1_1,8,30,,,,2,0,2,0,,,,,,,,,0,0,0,0,0,7,7,7,0,0,0,0,,,,,,,,,,,,,,,,,,,,,,,,,stimuli/alien_stimuli/46.png,,,,,,,,,,,,,,,,,,,,,,,,,,,,,stimuli/alien_stimuli/66.png,66,8,9,,,,,,,30,,,,,,,,2284.888539699954,2284.888539699954,2284.888539699954,2284.888539699954,2284.888539699954,left,9.726497299969196,3,0,0,99,0.15999999999999998,-0.08,left,9.624168999958783,,,,,2283.317033499945,2284.888539699954,0.08,-0.4,0.0,0.4,-0.4,0.08,0.27999999999999997,0.08,-0.4,2281.9826351999072,2281.9826351999072,2281.9826351999072,2281.9826351999072,2281.9826351999072,2281.9826351999072,2281.9826351999072,2281.9826351999072,2281.966191359912,1.4533198000863194,return,1.306537299999036,,,,,,,,,,,,,,,,,,,,,,,,,,,,,,,,,RXEKMV,train_x,red_square,bottom_right,2025-05-26_14h34.48.281,HideSeek_v1,2022.2.5,59.94837247328519,
,5,4,2,4,-3,0,46,,train_dim1_1,8,30,,,,2,0,2,0,,,,,,,,,0,0,0,0,0,7,7,7,1,0,1,0,,,,,,,,,,,,,,,,,,,,,,,,,,,,,,,,,,,,,,,,,,,,,,,,,,,,,,,,,,,,,,,,30,,,,,,,,2294.6070236999076,2294.6070236999076,2294.6070236999076,2294.6070236999076,2294.6070236999076,return,2.5115657000569627,3,0,0,0,0.15999999999999998,-0.08,return,2.438062100089155,-2,-15,0.15999999999999998,-0.08,,,,,,,,,,,,,,,,,,,,,,,,,,,,,,,,,,,,,,,,,,,,,,,,,,,,,,,,RXEKMV,train_x,red_square,bottom_right,2025-05-26_14h34.48.281,HideSeek_v1,2022.2.5,59.94837247328519,
,6,0,2,0,-4,0,56,,train_dim1_1,9,30,,,,2,0,2,0,,,,,,,,,0,0,0,0,0,8,8,8,0,0,0,0,,,,,,,,,,,,,,,,,,,,,,,,,stimuli/alien_stimuli/56.png,,,,,,,,,,,,,,,,,,,,,,,,,,,,,stimuli/alien_stimuli/46.png,46,5,10,,,,,,,30,,,,,,,,2301.615505599999,2301.615505599999,2301.615505599999,2301.615505599999,2301.615505599999,left,1.872768700006418,3,0,0,99,0.24,-0.4,left,1.7707572999643162,,,,,2300.0474847999867,2301.615505599999,0,-0.08,0.0,0.24,-0.08,0,0.12,0,-0.08,2298.699129699962,2298.699129699962,2298.699129699962,2298.699129699962,2298.699129699962,2298.699129699962,2298.699129699962,2298.699129699962,2298.6799949599663,1.4696869000326842,return,1.3176068000029773,,,,,,,,,,,,,,,,,,,,,,,,,,,,,,,,,RXEKMV,train_x,red_square,bottom_right,2025-05-26_14h34.48.281,HideSeek_v1,2022.2.5,59.94837247328519,
,6,0,2,0,-4,0,56,,train_dim1_1,9,30,,,,2,0,2,0,,,,,,,,,0,0,0,0,0,8,8,8,1,0,1,0,,,,,,,,,,,,,,,,,,,,,,,,,,,,,,,,,,,,,,,,,,,,,,,,,,,,,,,,,,,,,,,,30,,,,,,,,2303.483000700013,2303.483000700013,2303.483000700013,2303.483000700013,2303.483000700013,left,0.6597982000093907,3,0,0,99,0.15999999999999998,-0.4,left,0.5779902999056503,,,,,,,,,,,,,,,,,,,,,,,,,,,,,,,,,,,,,,,,,,,,,,,,,,,,,,,,,,,,RXEKMV,train_x,red_square,bottom_right,2025-05-26_14h34.48.281,HideSeek_v1,2022.2.5,59.94837247328519,
,6,0,2,0,-4,0,56,,train_dim1_1,9,30,,,,2,0,2,0,,,,,,,,,0,0,0,0,0,8,8,8,2,0,2,0,,,,,,,,,,,,,,,,,,,,,,,,,,,,,,,,,,,,,,,,,,,,,,,,,,,,,,,,,,,,,,,,30,,,,,,,,2304.149017299991,2304.149017299991,2304.149017299991,2304.149017299991,2304.149017299991,left,0.7271073999581859,3,0,0,99,0.07999999999999997,-0.4,left,0.6417861999943852,,,,,,,,,,,,,,,,,,,,,,,,,,,,,,,,,,,,,,,,,,,,,,,,,,,,,,,,,,,,RXEKMV,train_x,red_square,bottom_right,2025-05-26_14h34.48.281,HideSeek_v1,2022.2.5,59.94837247328519,
,6,0,2,0,-4,0,56,,train_dim1_1,9,30,,,,2,0,2,0,,,,,,,,,0,0,0,0,0,8,8,8,3,0,3,0,,,,,,,,,,,,,,,,,,,,,,,,,,,,,,,,,,,,,,,,,,,,,,,,,,,,,,,,,,,,,,,,30,,,,,,,,2304.883429999929,2304.883429999929,2304.883429999929,2304.883429999929,2304.883429999929,left,1.1772422000067309,3,0,0,99,-2.7755575615628914e-17,-0.4,left,1.096140000037849,,,,,,,,,,,,,,,,,,,,,,,,,,,,,,,,,,,,,,,,,,,,,,,,,,,,,,,,,,,,RXEKMV,train_x,red_square,bottom_right,2025-05-26_14h34.48.281,HideSeek_v1,2022.2.5,59.94837247328519,
,6,0,2,0,-4,0,56,,train_dim1_1,9,30,,,,2,0,2,0,,,,,,,,,0,0,0,0,0,8,8,8,4,0,4,0,,,,,,,,,,,,,,,,,,,,,,,,,,,,,,,,,,,,,,,,,,,,,,,,,,,,,,,,,,,,,,,,30,,,,,,,,2306.0675579999806,2306.0675579999806,2306.0675579999806,2306.0675579999806,2306.0675579999806,return,0.5766902000177652,4,0,0,1,-2.7755575615628914e-17,-0.4,return,0.4925251000095159,-2,-19,-2.7755575615628914e-17,-0.4,,,,,,,,,,,,,,,,,,,,,,,,,,,,,,,,,,,,,,,,,,,,,,,,,,,,,,,,RXEKMV,train_x,red_square,bottom_right,2025-05-26_14h34.48.281,HideSeek_v1,2022.2.5,59.94837247328519,
,5,3,5,3,0,0,16,,train_dim1_1,10,30,,,,2,0,2,0,,,,,,,,,0,0,0,0,0,9,9,9,0,0,0,0,,,,,,,,,,,,,,,,,,,,,,,,,stimuli/alien_stimuli/16.png,,,,,,,,,,,,,,,,,,,,,,,,,,,,,stimuli/alien_stimuli/56.png,56,6,11,,,,,,,30,,,,,,,,2311.1552653999534,2311.1552653999534,2311.1552653999534,2311.1552653999534,2311.1552653999534,return,1.9903210999909788,5,0,0,1,0.24,-0.16,return,1.8774216000456363,-2,-19,0.24,-0.16,2309.5723257999634,2311.1552653999534,0,-0.4,0.0,0.32,-0.4,0,0.16,0,-0.4,2308.2134343999205,2308.2134343999205,2308.2134343999205,2308.2134343999205,2308.2134343999205,2308.2134343999205,2308.2134343999205,2308.2134343999205,2308.2044476598967,1.4701566000003368,return,1.3381436000345275,,,,,,,,,,,,,,,,,,,,,,,,,,,,,,,,,RXEKMV,train_x,red_square,bottom_right,2025-05-26_14h34.48.281,HideSeek_v1,2022.2.5,59.94837247328519,
,7,2,4,2,-3,0,46,,train_dim1_1,11,30,,,,2,0,2,0,,,,,,,,,0,0,0,0,0,10,10,10,0,0,0,0,,,,,,,,,,,,,,,,,,,,,,,,,stimuli/alien_stimuli/46.png,,,,,,,,,,,,,,,,,,,,,,,,,,,,,stimuli/alien_stimuli/16.png,16,5,12,,,,,,,30,,,,,,,,2317.5038095999043,2317.5038095999043,2317.5038095999043,2317.5038095999043,2317.5038095999043,left,2.1720151000190526,5,0,0,99,0.32,-0.24,left,2.0796999000012875,,,,,2315.9439436999382,2317.5038095999043,0.24,-0.16,0.0,0.0,-0.16,0.24,0.24,0.24,-0.16,2314.6844760999084,2314.6844760999084,2314.6844760999084,2314.6844760999084,2314.6844760999084,2314.6844760999084,2314.6844760999084,2314.6844760999084,2314.6764140599407,1.3698637000052258,return,1.242663100012578,,,,,,,,,,,,,,,,,,,,,,,,,,,,,,,,,RXEKMV,train_x,red_square,bottom_right,2025-05-26_14h34.48.281,HideSeek_v1,2022.2.5,59.94837247328519,
,7,2,4,2,-3,0,46,,train_dim1_1,11,30,,,,2,0,2,0,,,,,,,,,0,0,0,0,0,10,10,10,1,0,1,0,,,,,,,,,,,,,,,,,,,,,,,,,,,,,,,,,,,,,,,,,,,,,,,,,,,,,,,,,,,,,,,,30,,,,,,,,2319.676902099978,2319.676902099978,2319.676902099978,2319.676902099978,2319.676902099978,left,0.7266585000324994,5,0,0,99,0.24,-0.24,left,0.6459288999903947,,,,,,,,,,,,,,,,,,,,,,,,,,,,,,,,,,,,,,,,,,,,,,,,,,,,,,,,,,,,RXEKMV,train_x,red_square,bottom_right,2025-05-26_14h34.48.281,HideSeek_v1,2022.2.5,59.94837247328519,
,7,2,4,2,-3,0,46,,train_dim1_1,11,30,,,,2,0,2,0,,,,,,,,,0,0,0,0,0,10,10,10,2,0,2,0,,,,,,,,,,,,,,,,,,,,,,,,,,,,,,,,,,,,,,,,,,,,,,,,,,,,,,,,,,,,,,,,30,,,,,,,,2320.409430200001,2320.409430200001,2320.409430200001,2320.409430200001,2320.409430200001,left,0.8771370000904426,5,0,0,99,0.15999999999999998,-0.24,left,0.7968277999898419,,,,,,,,,,,,,,,,,,,,,,,,,,,,,,,,,,,,,,,,,,,,,,,,,,,,,,,,,,,,RXEKMV,train_x,red_square,bottom_right,2025-05-26_14h34.48.281,HideSeek_v1,2022.2.5,59.94837247328519,
,7,2,4,2,-3,0,46,,train_dim1_1,11,30,,,,2,0,2,0,,,,,,,,,0,0,0,0,0,10,10,10,3,0,3,0,,,,,,,,,,,,,,,,,,,,,,,,,,,,,,,,,,,,,,,,,,,,,,,,,,,,,,,,,,,,,,,,30,,,,,,,,2321.294377199956,2321.294377199956,2321.294377199956,2321.294377199956,2321.294377199956,return,2.4287418000167236,6,0,0,1,0.15999999999999998,-0.24,return,2.3561826000222936,-2,-22,0.15999999999999998,-0.24,,,,,,,,,,,,,,,,,,,,,,,,,,,,,,,,,,,,,,,,,,,,,,,,,,,,,,,,RXEKMV,train_x,red_square,bottom_right,2025-05-26_14h34.48.281,HideSeek_v1,2022.2.5,59.94837247328519,
,5,0,4,0,-1,0,26,,train_dim1_1,12,30,,,,2,0,2,0,,,,,,,,,0,0,0,0,0,11,11,11,0,0,0,0,,,,,,,,,,,,,,,,,,,,,,,,,stimuli/alien_stimuli/26.png,,,,,,,,,,,,,,,,,,,,,,,,,,,,,stimuli/alien_stimuli/46.png,46,7,13,,,,,,,30,,,,,,,,2328.3277127000038,2328.3277127000038,2328.3277127000038,2328.3277127000038,2328.3277127000038,left,11.646586799994111,6,0,0,99,0.15999999999999998,-0.4,left,11.546651600045152,,,,,2326.7553049999988,2328.3277127000038,0.16,-0.24,0.0,0.24,-0.24,0.16,0.28,0.16,-0.24,2325.303840199951,2325.303840199951,2325.303840199951,2325.303840199951,2325.303840199951,2325.303840199951,2325.303840199951,2325.303840199951,2325.2852009598864,1.5737737999297678,return,1.4211590000195429,,,,,,,,,,,,,,,,,,,,,,,,,,,,,,,,,RXEKMV,train_x,red_square,bottom_right,2025-05-26_14h34.48.281,HideSeek_v1,2022.2.5,59.94837247328519,
,5,0,4,0,-1,0,26,,train_dim1_1,12,30,,,,2,0,2,0,,,,,,,,,0,0,0,0,0,11,11,11,1,0,1,0,,,,,,,,,,,,,,,,,,,,,,,,,,,,,,,,,,,,,,,,,,,,,,,,,,,,,,,,,,,,,,,,30,,,,,,,,2339.964918099926,2339.964918099926,2339.964918099926,2339.964918099926,2339.964918099926,return,0.5099177999654785,7,0,0,1,0.15999999999999998,-0.4,return,0.4245891000609845,-2,-23,0.15999999999999998,-0.4,,,,,,,,,,,,,,,,,,,,,,,,,,,,,,,,,,,,,,,,,,,,,,,,,,,,,,,,RXEKMV,train_x,red_square,bottom_right,2025-05-26_14h34.48.281,HideSeek_v1,2022.2.5,59.94837247328519,
,5,4,1,4,-4,0,56,,train_dim1_1,13,30,,,,2,0,2,0,,,,,,,,,0,0,0,0,0,12,12,12,0,0,0,0,,,,,,,,,,,,,,,,,,,,,,,,,stimuli/alien_stimuli/56.png,,,,,,,,,,,,,,,,,,,,,,,,,,,,,stimuli/alien_stimuli/26.png,26,5,14,,,,,,,30,,,,,,,,2345.0521925999783,2345.0521925999783,2345.0521925999783,2345.0521925999783,2345.0521925999783,left,2.1235133999725804,7,0,0,99,0.15999999999999998,-0.08,left,2.0293900000397116,,,,,2343.483253299957,2345.0521925999783,0.16,-0.4,0.0,0.08,-0.4,0.16,0.2,0.16,-0.4,2342.0549850999378,2342.0549850999378,2342.0549850999378,2342.0549850999378,2342.0549850999378,2342.0549850999378,2342.0549850999378,2342.0549850999378,2342.048993639997,1.553656900068745,return,1.3991281000198796,,,,,,,,,,,,,,,,,,,,,,,,,,,,,,,,,RXEKMV,train_x,red_square,bottom_right,2025-05-26_14h34.48.281,HideSeek_v1,2022.2.5,59.94837247328519,
,5,4,1,4,-4,0,56,,train_dim1_1,13,30,,,,2,0,2,0,,,,,,,,,0,0,0,0,0,12,12,12,1,0,1,0,,,,,,,,,,,,,,,,,,,,,,,,,,,,,,,,,,,,,,,,,,,,,,,,,,,,,,,,,,,,,,,,30,,,,,,,,2347.169747899985,2347.169747899985,2347.169747899985,2347.169747899985,2347.169747899985,left,0.6759052000707015,7,0,0,99,0.07999999999999997,-0.08,left,0.590178299928084,,,,,,,,,,,,,,,,,,,,,,,,,,,,,,,,,,,,,,,,,,,,,,,,,,,,,,,,,,,,RXEKMV,train_x,red_square,bottom_right,2025-05-26_14h34.48.281,HideSeek_v1,2022.2.5,59.94837247328519,
,5,4,1,4,-4,0,56,,train_dim1_1,13,30,,,,2,0,2,0,,,,,,,,,0,0,0,0,0,12,12,12,2,0,2,0,,,,,,,,,,,,,,,,,,,,,,,,,,,,,,,,,,,,,,,,,,,,,,,,,,,,,,,,,,,,,,,,30,,,,,,,,2347.85248589993,2347.85248589993,2347.85248589993,2347.85248589993,2347.85248589993,left,0.6776871000183746,7,0,0,99,-2.7755575615628914e-17,-0.08,left,0.5865434999577701,,,,,,,,,,,,,,,,,,,,,,,,,,,,,,,,,,,,,,,,,,,,,,,,,,,,,,,,,,,,RXEKMV,train_x,red_square,bottom_right,2025-05-26_14h34.48.281,HideSeek_v1,2022.2.5,59.94837247328519,
,5,4,1,4,-4,0,56,,train_dim1_1,13,30,,,,2,0,2,0,,,,,,,,,0,0,0,0,0,12,12,12,3,0,3,0,,,,,,,,,,,,,,,,,,,,,,,,,,,,,,,,,,,,,,,,,,,,,,,,,,,,,,,,,,,,,,,,30,,,,,,,,2348.536882999935,2348.536882999935,2348.536882999935,2348.536882999935,2348.536882999935,return,0.9267181000905111,7,1,0,0,-2.7755575615628914e-17,-0.08,return,0.8493470000103116,-2,-26,-2.7755575615628914e-17,-0.08,,,,,,,,,,,,,,,,,,,,,,,,,,,,,,,,,,,,,,,,,,,,,,,,,,,,,,,,RXEKMV,train_x,red_square,bottom_right,2025-05-26_14h34.48.281,HideSeek_v1,2022.2.5,59.94837247328519,
,9,3,9,3,0,0,16,,train_dim1_1,14,30,,,,2,0,2,0,,,,,,,,,0,0,0,0,0,13,13,13,0,0,0,0,,,,,,,,,,,,,,,,,,,,,,,,,stimuli/alien_stimuli/16.png,,,,,,,,,,,,,,,,,,,,,,,,,,,,,stimuli/alien_stimuli/56.png,56,5,15,,,,,,,30,,,,,,,,2354.0928330000024,2354.0928330000024,2354.0928330000024,2354.0928330000024,2354.0928330000024,return,1.6033924000803381,8,0,0,1,0.56,-0.16,return,1.4926701999502257,-2,-26,0.56,-0.16,2352.507982100011,2354.0928330000024,-0.08,-0.08,0.0,0.32,-0.08,-0.08,0.07999999999999999,-0.08,-0.08,2351.0304132999154,2351.0304132999154,2351.0304132999154,2351.0304132999154,2351.0304132999154,2351.0304132999154,2351.0304132999154,2351.0304132999154,2351.0234865599778,1.586881999974139,return,1.4580185000086203,,,,,,,,,,,,,,,,,,,,,,,,,,,,,,,,,RXEKMV,train_x,red_square,bottom_right,2025-05-26_14h34.48.281,HideSeek_v1,2022.2.5,59.94837247328519,
,9,2,4,2,-5,0,66,,train_dim1_1,15,30,,,,2,0,2,0,,,,,,,,,0,0,0,0,0,14,14,14,0,0,0,0,,,,,,,,,,,,,,,,,,,,,,,,,stimuli/alien_stimuli/66.png,,,,,,,,,,,,,,,,,,,,,,,,,,,,,stimuli/alien_stimuli/16.png,16,9,16,,,,,,,30,,,,,,,,2360.6548632999184,2360.6548632999184,2360.6548632999184,2360.6548632999184,2360.6548632999184,left,2.123258400009945,8,0,0,99,0.48000000000000004,-0.24,left,2.0333047000458464,,,,,2359.096642099903,2360.6548632999184,0.56,-0.16,0.0,0.0,-0.16,0.56,0.56,0.56,-0.16,2357.2381269999314,2357.2381269999314,2357.2381269999314,2357.2381269999314,2357.2381269999314,2357.2381269999314,2357.2381269999314,2357.2381269999314,2357.2284208599012,1.970409999950789,return,1.840345700038597,,,,,,,,,,,,,,,,,,,,,,,,,,,,,,,,,RXEKMV,train_x,red_square,bottom_right,2025-05-26_14h34.48.281,HideSeek_v1,2022.2.5,59.94837247328519,
,9,2,4,2,-5,0,66,,train_dim1_1,15,30,,,,2,0,2,0,,,,,,,,,0,0,0,0,0,14,14,14,1,0,1,0,,,,,,,,,,,,,,,,,,,,,,,,,,,,,,,,,,,,,,,,,,,,,,,,,,,,,,,,,,,,,,,,30,,,,,,,,2362.7790106999455,2362.7790106999455,2362.7790106999455,2362.7790106999455,2362.7790106999455,left,0.7602385999634862,8,0,0,99,0.4,-0.24,left,0.674753800034523,,,,,,,,,,,,,,,,,,,,,,,,,,,,,,,,,,,,,,,,,,,,,,,,,,,,,,,,,,,,RXEKMV,train_x,red_square,bottom_right,2025-05-26_14h34.48.281,HideSeek_v1,2022.2.5,59.94837247328519,
,9,2,4,2,-5,0,66,,train_dim1_1,15,30,,,,2,0,2,0,,,,,,,,,0,0,0,0,0,14,14,14,2,0,2,0,,,,,,,,,,,,,,,,,,,,,,,,,,,,,,,,,,,,,,,,,,,,,,,,,,,,,,,,,,,,,,,,30,,,,,,,,2363.547422099975,2363.547422099975,2363.547422099975,2363.547422099975,2363.547422099975,left,1.2605384000344202,8,0,0,99,0.32,-0.24,left,1.1823578999610618,,,,,,,,,,,,,,,,,,,,,,,,,,,,,,,,,,,,,,,,,,,,,,,,,,,,,,,,,,,,RXEKMV,train_x,red_square,bottom_right,2025-05-26_14h34.48.281,HideSeek_v1,2022.2.5,59.94837247328519,
,9,2,4,2,-5,0,66,,train_dim1_1,15,30,,,,2,0,2,0,,,,,,,,,0,0,0,0,0,14,14,14,3,0,3,0,,,,,,,,,,,,,,,,,,,,,,,,,,,,,,,,,,,,,,,,,,,,,,,,,,,,,,,,,,,,,,,,30,,,,,,,,2364.813620199915,2364.813620199915,2364.813620199915,2364.813620199915,2364.813620199915,left,0.8605332999723032,8,0,0,99,0.24,-0.24,left,0.7833013000199571,,,,,,,,,,,,,,,,,,,,,,,,,,,,,,,,,,,,,,,,,,,,,,,,,,,,,,,,,,,,RXEKMV,train_x,red_square,bottom_right,2025-05-26_14h34.48.281,HideSeek_v1,2022.2.5,59.94837247328519,
,9,2,4,2,-5,0,66,,train_dim1_1,15,30,,,,2,0,2,0,,,,,,,,,0,0,0,0,0,14,14,14,4,0,4,0,,,,,,,,,,,,,,,,,,,,,,,,,,,,,,,,,,,,,,,,,,,,,,,,,,,,,,,,,,,,,,,,30,,,,,,,,2365.681142499903,2365.681142499903,2365.681142499903,2365.681142499903,2365.681142499903,left,0.9942017000867054,8,0,0,99,0.15999999999999998,-0.24,left,0.9111366999568418,,,,,,,,,,,,,,,,,,,,,,,,,,,,,,,,,,,,,,,,,,,,,,,,,,,,,,,,,,,,RXEKMV,train_x,red_square,bottom_right,2025-05-26_14h34.48.281,HideSeek_v1,2022.2.5,59.94837247328519,
,9,2,4,2,-5,0,66,,train_dim1_1,15,30,,,,2,0,2,0,,,,,,,,,0,0,0,0,0,14,14,14,5,0,5,0,,,,,,,,,,,,,,,,,,,,,,,,,,,,,,,,,,,,,,,,,,,,,,,,,,,,,,,,,,,,,,,,30,,,,,,,,2366.6820442999015,2366.6820442999015,2366.6820442999015,2366.6820442999015,2366.6820442999015,return,0.8437202000059187,9,0,0,1,0.15999999999999998,-0.24,return,0.7671226999955252,-2,-31,0.15999999999999998,-0.24,,,,,,,,,,,,,,,,,,,,,,,,,,,,,,,,,,,,,,,,,,,,,,,,,,,,,,,,RXEKMV,train_x,red_square,bottom_right,2025-05-26_14h34.48.281,HideSeek_v1,2022.2.5,59.94837247328519,
,8,3,4,3,-4,0,56,,train_dim1_1,16,30,,,,2,0,2,0,,,,,,,,,0,0,0,0,0,15,15,15,0,0,0,0,,,,,,,,,,,,,,,,,,,,,,,,,stimuli/alien_stimuli/56.png,,,,,,,,,,,,,,,,,,,,,,,,,,,,,stimuli/alien_stimuli/66.png,66,9,17,,,,,,,30,,,,,,,,2371.716220299946,2371.716220299946,2371.716220299946,2371.716220299946,2371.716220299946,left,1.4736600000178441,9,0,0,99,0.39999999999999997,-0.16,left,1.360420500044711,,,,,2370.1390812000027,2371.716220299946,0.16,-0.24,0.0,0.4,-0.24,0.16,0.36000000000000004,0.16,-0.24,2369.0898439999437,2369.0898439999437,2369.0898439999437,2369.0898439999437,2369.0898439999437,2369.0898439999437,2369.0898439999437,2369.0898439999437,2369.0714920799946,1.1531420000828803,return,1.0275792999891564,,,,,,,,,,,,,,,,,,,,,,,,,,,,,,,,,RXEKMV,train_x,red_square,bottom_right,2025-05-26_14h34.48.281,HideSeek_v1,2022.2.5,59.94837247328519,
,8,3,4,3,-4,0,56,,train_dim1_1,16,30,,,,2,0,2,0,,,,,,,,,0,0,0,0,0,15,15,15,1,0,1,0,,,,,,,,,,,,,,,,,,,,,,,,,,,,,,,,,,,,,,,,,,,,,,,,,,,,,,,,,,,,,,,,30,,,,,,,,2373.1770262999926,2373.1770262999926,2373.1770262999926,2373.1770262999926,2373.1770262999926,left,0.6599376000231132,9,0,0,99,0.31999999999999995,-0.16,left,0.5744994999840856,,,,,,,,,,,,,,,,,,,,,,,,,,,,,,,,,,,,,,,,,,,,,,,,,,,,,,,,,,,,RXEKMV,train_x,red_square,bottom_right,2025-05-26_14h34.48.281,HideSeek_v1,2022.2.5,59.94837247328519,
,8,3,4,3,-4,0,56,,train_dim1_1,16,30,,,,2,0,2,0,,,,,,,,,0,0,0,0,0,15,15,15,2,0,2,0,,,,,,,,,,,,,,,,,,,,,,,,,,,,,,,,,,,,,,,,,,,,,,,,,,,,,,,,,,,,,,,,30,,,,,,,,2373.8400596999563,2373.8400596999563,2373.8400596999563,2373.8400596999563,2373.8400596999563,left,0.7434517000801861,9,0,0,99,0.23999999999999994,-0.16,left,0.6651999999303371,,,,,,,,,,,,,,,,,,,,,,,,,,,,,,,,,,,,,,,,,,,,,,,,,,,,,,,,,,,,RXEKMV,train_x,red_square,bottom_right,2025-05-26_14h34.48.281,HideSeek_v1,2022.2.5,59.94837247328519,
,8,3,4,3,-4,0,56,,train_dim1_1,16,30,,,,2,0,2,0,,,,,,,,,0,0,0,0,0,15,15,15,3,0,3,0,,,,,,,,,,,,,,,,,,,,,,,,,,,,,,,,,,,,,,,,,,,,,,,,,,,,,,,,,,,,,,,,30,,,,,,,,2374.5909870999167,2374.5909870999167,2374.5909870999167,2374.5909870999167,2374.5909870999167,left,0.7440496999770403,9,0,0,99,0.15999999999999992,-0.16,left,0.6540694999275729,,,,,,,,,,,,,,,,,,,,,,,,,,,,,,,,,,,,,,,,,,,,,,,,,,,,,,,,,,,,RXEKMV,train_x,red_square,bottom_right,2025-05-26_14h34.48.281,HideSeek_v1,2022.2.5,59.94837247328519,
,8,3,4,3,-4,0,56,,train_dim1_1,16,30,,,,2,0,2,0,,,,,,,,,0,0,0,0,0,15,15,15,4,0,4,0,,,,,,,,,,,,,,,,,,,,,,,,,,,,,,,,,,,,,,,,,,,,,,,,,,,,,,,,,,,,,,,,30,,,,,,,,2375.3417829999235,2375.3417829999235,2375.3417829999235,2375.3417829999235,2375.3417829999235,return,0.6268018000992015,10,0,0,1,0.15999999999999992,-0.16,return,0.5422348999418318,-2,-35,0.15999999999999992,-0.16,,,,,,,,,,,,,,,,,,,,,,,,,,,,,,,,,,,,,,,,,,,,,,,,,,,,,,,,RXEKMV,train_x,red_square,bottom_right,2025-05-26_14h34.48.281,HideSeek_v1,2022.2.5,59.94837247328519,
,7,4,6,4,-1,0,26,,train_dim1_1,17,30,,,,2,0,2,0,,,,,,,,,0,0,0,0,0,16,16,16,0,0,0,0,,,,,,,,,,,,,,,,,,,,,,,,,stimuli/alien_stimuli/26.png,,,,,,,,,,,,,,,,,,,,,,,,,,,,,stimuli/alien_stimuli/56.png,56,8,18,,,,,,,30,,,,,,,,2380.047198599903,2380.047198599903,2380.047198599903,2380.047198599903,2380.047198599903,left,2.922465299954638,10,0,0,99,0.32,-0.08,left,2.8115420999238268,,,,,2378.4626430999488,2380.047198599903,0.16,-0.16,0.0,0.32,-0.16,0.16,0.32,0.16,-0.16,2377.5374966999516,2377.5374966999516,2377.5374966999516,2377.5374966999516,2377.5374966999516,2377.5374966999516,2377.5374966999516,2377.5374966999516,2377.528503759997,1.0361752000171691,return,0.8972486000275239,,,,,,,,,,,,,,,,,,,,,,,,,,,,,,,,,RXEKMV,train_x,red_square,bottom_right,2025-05-26_14h34.48.281,HideSeek_v1,2022.2.5,59.94837247328519,
,7,4,6,4,-1,0,26,,train_dim1_1,17,30,,,,2,0,2,0,,,,,,,,,0,0,0,0,0,16,16,16,1,0,1,0,,,,,,,,,,,,,,,,,,,,,,,,,,,,,,,,,,,,,,,,,,,,,,,,,,,,,,,,,,,,,,,,30,,,,,,,,2382.950334199937,2382.950334199937,2382.950334199937,2382.950334199937,2382.950334199937,return,0.5434883000561967,11,0,0,1,0.32,-0.08,return,0.4673303000163287,-2,-36,0.32,-0.08,,,,,,,,,,,,,,,,,,,,,,,,,,,,,,,,,,,,,,,,,,,,,,,,,,,,,,,,RXEKMV,train_x,red_square,bottom_right,2025-05-26_14h34.48.281,HideSeek_v1,2022.2.5,59.94837247328519,
,7,1,2,1,-5,0,66,,train_dim1_1,18,30,,,,2,0,2,0,,,,,,,,,0,0,0,0,0,17,17,17,0,0,0,0,,,,,,,,,,,,,,,,,,,,,,,,,stimuli/alien_stimuli/66.png,,,,,,,,,,,,,,,,,,,,,,,,,,,,,stimuli/alien_stimuli/26.png,26,7,19,,,,,,,30,,,,,,,,2387.6003669999773,2387.6003669999773,2387.6003669999773,2387.6003669999773,2387.6003669999773,left,1.3048287000274286,11,0,0,99,0.32,-0.32,left,1.1927046000491828,,,,,2386.0189641999314,2387.6003669999773,0.32,-0.08,0.0,0.08,-0.08,0.32,0.36,0.32,-0.08,2385.0616814999375,2385.0616814999375,2385.0616814999375,2385.0616814999375,2385.0616814999375,2385.0616814999375,2385.0616814999375,2385.0616814999375,2385.0515902598854,1.0695427999598905,return,0.9337418000213802,,,,,,,,,,,,,,,,,,,,,,,,,,,,,,,,,RXEKMV,train_x,red_square,bottom_right,2025-05-26_14h34.48.281,HideSeek_v1,2022.2.5,59.94837247328519,
,7,1,2,1,-5,0,66,,train_dim1_1,18,30,,,,2,0,2,0,,,,,,,,,0,0,0,0,0,17,17,17,1,0,1,0,,,,,,,,,,,,,,,,,,,,,,,,,,,,,,,,,,,,,,,,,,,,,,,,,,,,,,,,,,,,,,,,30,,,,,,,,2388.8853667000076,2388.8853667000076,2388.8853667000076,2388.8853667000076,2388.8853667000076,left,0.7091814999002963,11,0,0,99,0.24,-0.32,left,0.6344811000162736,,,,,,,,,,,,,,,,,,,,,,,,,,,,,,,,,,,,,,,,,,,,,,,,,,,,,,,,,,,,RXEKMV,train_x,red_square,bottom_right,2025-05-26_14h34.48.281,HideSeek_v1,2022.2.5,59.94837247328519,
,7,1,2,1,-5,0,66,,train_dim1_1,18,30,,,,2,0,2,0,,,,,,,,,0,0,0,0,0,17,17,17,2,0,2,0,,,,,,,,,,,,,,,,,,,,,,,,,,,,,,,,,,,,,,,,,,,,,,,,,,,,,,,,,,,,,,,,30,,,,,,,,2389.6021285000024,2389.6021285000024,2389.6021285000024,2389.6021285000024,2389.6021285000024,left,0.7437334000132978,11,0,0,99,0.15999999999999998,-0.32,left,0.6598251999821514,,,,,,,,,,,,,,,,,,,,,,,,,,,,,,,,,,,,,,,,,,,,,,,,,,,,,,,,,,,,RXEKMV,train_x,red_square,bottom_right,2025-05-26_14h34.48.281,HideSeek_v1,2022.2.5,59.94837247328519,
,7,1,2,1,-5,0,66,,train_dim1_1,18,30,,,,2,0,2,0,,,,,,,,,0,0,0,0,0,17,17,17,3,0,3,0,,,,,,,,,,,,,,,,,,,,,,,,,,,,,,,,,,,,,,,,,,,,,,,,,,,,,,,,,,,,,,,,30,,,,,,,,2390.3515534999315,2390.3515534999315,2390.3515534999315,2390.3515534999315,2390.3515534999315,left,0.7605886999517679,11,0,0,99,0.07999999999999997,-0.32,left,0.6881116000004113,,,,,,,,,,,,,,,,,,,,,,,,,,,,,,,,,,,,,,,,,,,,,,,,,,,,,,,,,,,,RXEKMV,train_x,red_square,bottom_right,2025-05-26_14h34.48.281,HideSeek_v1,2022.2.5,59.94837247328519,
,7,1,2,1,-5,0,66,,train_dim1_1,18,30,,,,2,0,2,0,,,,,,,,,0,0,0,0,0,17,17,17,4,0,4,0,,,,,,,,,,,,,,,,,,,,,,,,,,,,,,,,,,,,,,,,,,,,,,,,,,,,,,,,,,,,,,,,30,,,,,,,,2391.1197470999323,2391.1197470999323,2391.1197470999323,2391.1197470999323,2391.1197470999323,left,0.7265022000065073,11,0,0,99,-2.7755575615628914e-17,-0.32,left,0.654779399977997,,,,,,,,,,,,,,,,,,,,,,,,,,,,,,,,,,,,,,,,,,,,,,,,,,,,,,,,,,,,RXEKMV,train_x,red_square,bottom_right,2025-05-26_14h34.48.281,HideSeek_v1,2022.2.5,59.94837247328519,
,7,1,2,1,-5,0,66,,train_dim1_1,18,30,,,,2,0,2,0,,,,,,,,,0,0,0,0,0,17,17,17,5,0,5,0,,,,,,,,,,,,,,,,,,,,,,,,,,,,,,,,,,,,,,,,,,,,,,,,,,,,,,,,,,,,,,,,30,,,,,,,,2391.853461899911,2391.853461899911,2391.853461899911,2391.853461899911,2391.853461899911,return,0.7604885000037029,12,0,0,1,-2.7755575615628914e-17,-0.32,return,0.6722882998874411,-2,-41,-2.7755575615628914e-17,-0.32,,,,,,,,,,,,,,,,,,,,,,,,,,,,,,,,,,,,,,,,,,,,,,,,,,,,,,,,RXEKMV,train_x,red_square,bottom_right,2025-05-26_14h34.48.281,HideSeek_v1,2022.2.5,59.94837247328519,
,5,3,2,3,-3,0,46,,train_dim1_1,19,30,,,,2,0,2,0,,,,,,,,,0,0,0,0,0,18,18,18,0,0,0,0,,,,,,,,,,,,,,,,,,,,,,,,,stimuli/alien_stimuli/46.png,,,,,,,,,,,,,,,,,,,,,,,,,,,,,stimuli/alien_stimuli/66.png,66,7,20,,,,,,,30,,,,,,,,2396.5195089000044,2396.5195089000044,2396.5195089000044,2396.5195089000044,2396.5195089000044,left,2.9056495000841096,12,0,0,99,0.15999999999999998,-0.16,left,2.825337399961427,,,,,2394.959703499917,2396.5195089000044,0,-0.32,0.0,0.4,-0.32,0,0.2,0,-0.32,2394.17745879991,2394.17745879991,2394.17745879991,2394.17745879991,2394.17745879991,2394.17745879991,2394.17745879991,2394.17745879991,2394.1591397799784,0.8857446999754757,return,0.7580469000386074,,,,,,,,,,,,,,,,,,,,,,,,,,,,,,,,,RXEKMV,train_x,red_square,bottom_right,2025-05-26_14h34.48.281,HideSeek_v1,2022.2.5,59.94837247328519,
,5,3,2,3,-3,0,46,,train_dim1_1,19,30,,,,2,0,2,0,,,,,,,,,0,0,0,0,0,18,18,18,1,0,1,0,,,,,,,,,,,,,,,,,,,,,,,,,,,,,,,,,,,,,,,,,,,,,,,,,,,,,,,,,,,,,,,,30,,,,,,,,2399.426414299989,2399.426414299989,2399.426414299989,2399.426414299989,2399.426414299989,left,0.6436602999456227,12,0,0,99,0.07999999999999997,-0.16,left,0.5653353999368846,,,,,,,,,,,,,,,,,,,,,,,,,,,,,,,,,,,,,,,,,,,,,,,,,,,,,,,,,,,,RXEKMV,train_x,red_square,bottom_right,2025-05-26_14h34.48.281,HideSeek_v1,2022.2.5,59.94837247328519,
,5,3,2,3,-3,0,46,,train_dim1_1,19,30,,,,2,0,2,0,,,,,,,,,0,0,0,0,0,18,18,18,2,0,2,0,,,,,,,,,,,,,,,,,,,,,,,,,,,,,,,,,,,,,,,,,,,,,,,,,,,,,,,,,,,,,,,,30,,,,,,,,2400.0767543999245,2400.0767543999245,2400.0767543999245,2400.0767543999245,2400.0767543999245,left,0.6599973000120372,12,0,0,99,-2.7755575615628914e-17,-0.16,left,0.5812067000661045,,,,,,,,,,,,,,,,,,,,,,,,,,,,,,,,,,,,,,,,,,,,,,,,,,,,,,,,,,,,RXEKMV,train_x,red_square,bottom_right,2025-05-26_14h34.48.281,HideSeek_v1,2022.2.5,59.94837247328519,
,5,3,2,3,-3,0,46,,train_dim1_1,19,30,,,,2,0,2,0,,,,,,,,,0,0,0,0,0,18,18,18,3,0,3,0,,,,,,,,,,,,,,,,,,,,,,,,,,,,,,,,,,,,,,,,,,,,,,,,,,,,,,,,,,,,,,,,30,,,,,,,,2400.7442181999795,2400.7442181999795,2400.7442181999795,2400.7442181999795,2400.7442181999795,left,0.62708190002013,12,0,0,99,-0.08000000000000003,-0.16,left,0.5535328999394551,,,,,,,,,,,,,,,,,,,,,,,,,,,,,,,,,,,,,,,,,,,,,,,,,,,,,,,,,,,,RXEKMV,train_x,red_square,bottom_right,2025-05-26_14h34.48.281,HideSeek_v1,2022.2.5,59.94837247328519,
,5,3,2,3,-3,0,46,,train_dim1_1,19,30,,,,2,0,2,0,,,,,,,,,0,0,0,0,0,18,18,18,4,0,4,0,,,,,,,,,,,,,,,,,,,,,,,,,,,,,,,,,,,,,,,,,,,,,,,,,,,,,,,,,,,,,,,,30,,,,,,,,2401.3793117000023,2401.3793117000023,2401.3793117000023,2401.3793117000023,2401.3793117000023,return,0.5930368000408635,12,1,0,0,-0.08000000000000003,-0.16,return,0.5195448999293149,-2,-45,-0.08000000000000003,-0.16,,,,,,,,,,,,,,,,,,,,,,,,,,,,,,,,,,,,,,,,,,,,,,,,,,,,,,,,RXEKMV,train_x,red_square,bottom_right,2025-05-26_14h34.48.281,HideSeek_v1,2022.2.5,59.94837247328519,
,5,1,5,1,0,0,16,,train_dim1_1,20,30,,,,2,0,2,0,,,,,,,,,0,0,0,0,0,19,19,19,0,0,0,0,,,,,,,,,,,,,,,,,,,,,,,,,stimuli/alien_stimuli/16.png,,,,,,,,,,,,,,,,,,,,,,,,,,,,,stimuli/alien_stimuli/46.png,46,5,21,,,,,,,30,,,,,,,,2407.301077399985,2407.301077399985,2407.301077399985,2407.301077399985,2407.301077399985,return,1.3713481000158936,13,0,0,1,0.24,-0.32,return,1.25873599993065,-2,-45,0.24,-0.32,2405.718632599921,2407.301077399985,0,-0.16,0.0,0.24,-0.16,0,0.12,0,-0.16,2403.5352820999688,2403.5352820999688,2403.5352820999688,2403.5352820999688,2403.5352820999688,2403.5352820999688,2403.5352820999688,2403.5352820999688,2403.5167217799462,2.2874394999817014,return,2.15770139999222,,,,,,,,,,,,,,,,,,,,,,,,,,,,,,,,,RXEKMV,train_x,red_square,bottom_right,2025-05-26_14h34.48.281,HideSeek_v1,2022.2.5,59.94837247328519,
,9,2,6,2,-3,0,46,,train_dim1_1,21,30,,,,2,0,2,0,,,,,,,,,0,0,0,0,0,20,20,20,0,0,0,0,,,,,,,,,,,,,,,,,,,,,,,,,stimuli/alien_stimuli/46.png,,,,,,,,,,,,,,,,,,,,,,,,,,,,,stimuli/alien_stimuli/16.png,16,5,22,,,,,,,30,,,,,,,,2412.849315200001,2412.849315200001,2412.849315200001,2412.849315200001,2412.849315200001,left,1.421118599944748,13,0,0,99,0.48000000000000004,-0.24,left,1.3274083000142127,,,,,2411.289791499963,2412.849315200001,0.24,-0.32,0.0,0.0,-0.32,0.24,0.24,0.24,-0.32,2410.2141875999514,2410.2141875999514,2410.2141875999514,2410.2141875999514,2410.2141875999514,2410.2141875999514,2410.2141875999514,2410.2141875999514,2410.2056712599006,1.1865267999237403,return,1.0448755000252277,,,,,,,,,,,,,,,,,,,,,,,,,,,,,,,,,RXEKMV,train_x,red_square,bottom_right,2025-05-26_14h34.48.281,HideSeek_v1,2022.2.5,59.94837247328519,
,9,2,6,2,-3,0,46,,train_dim1_1,21,30,,,,2,0,2,0,,,,,,,,,0,0,0,0,0,20,20,20,1,0,1,0,,,,,,,,,,,,,,,,,,,,,,,,,,,,,,,,,,,,,,,,,,,,,,,,,,,,,,,,,,,,,,,,30,,,,,,,,2414.2758082000073,2414.2758082000073,2414.2758082000073,2414.2758082000073,2414.2758082000073,left,0.6092546998988837,13,0,0,99,0.4,-0.24,left,0.5287856999784708,,,,,,,,,,,,,,,,,,,,,,,,,,,,,,,,,,,,,,,,,,,,,,,,,,,,,,,,,,,,RXEKMV,train_x,red_square,bottom_right,2025-05-26_14h34.48.281,HideSeek_v1,2022.2.5,59.94837247328519,
,9,2,6,2,-3,0,46,,train_dim1_1,21,30,,,,2,0,2,0,,,,,,,,,0,0,0,0,0,20,20,20,2,0,2,0,,,,,,,,,,,,,,,,,,,,,,,,,,,,,,,,,,,,,,,,,,,,,,,,,,,,,,,,,,,,,,,,30,,,,,,,,2414.889302799944,2414.889302799944,2414.889302799944,2414.889302799944,2414.889302799944,left,0.6096508000046015,13,0,0,99,0.32,-0.24,left,0.5315664999652654,,,,,,,,,,,,,,,,,,,,,,,,,,,,,,,,,,,,,,,,,,,,,,,,,,,,,,,,,,,,RXEKMV,train_x,red_square,bottom_right,2025-05-26_14h34.48.281,HideSeek_v1,2022.2.5,59.94837247328519,
,9,2,6,2,-3,0,46,,train_dim1_1,21,30,,,,2,0,2,0,,,,,,,,,0,0,0,0,0,20,20,20,3,0,3,0,,,,,,,,,,,,,,,,,,,,,,,,,,,,,,,,,,,,,,,,,,,,,,,,,,,,,,,,,,,,,,,,30,,,,,,,,2415.5057455999777,2415.5057455999777,2415.5057455999777,2415.5057455999777,2415.5057455999777,return,0.6603913999861106,14,0,0,1,0.32,-0.24,return,0.5881569000193849,-2,-48,0.32,-0.24,,,,,,,,,,,,,,,,,,,,,,,,,,,,,,,,,,,,,,,,,,,,,,,,,,,,,,,,RXEKMV,train_x,red_square,bottom_right,2025-05-26_14h34.48.281,HideSeek_v1,2022.2.5,59.94837247328519,
,6,0,5,0,-1,0,26,,train_dim1_1,22,30,,,,2,0,2,0,,,,,,,,,0,0,0,0,0,21,21,21,0,0,0,0,,,,,,,,,,,,,,,,,,,,,,,,,stimuli/alien_stimuli/26.png,,,,,,,,,,,,,,,,,,,,,,,,,,,,,stimuli/alien_stimuli/46.png,46,9,23,,,,,,,30,,,,,,,,2420.090857699979,2420.090857699979,2420.090857699979,2420.090857699979,2420.090857699979,left,1.6568968000356108,14,0,0,99,0.24,-0.4,left,1.5727829000679776,,,,,2418.529134099954,2420.090857699979,0.32,-0.24,0.0,0.24,-0.24,0.32,0.44000000000000006,0.32,-0.24,2417.7292118999176,2417.7292118999176,2417.7292118999176,2417.7292118999176,2417.7292118999176,2417.7292118999176,2417.7292118999176,2417.7292118999176,2417.7114720799727,0.9032181999646127,return,0.7727084000362083,,,,,,,,,,,,,,,,,,,,,,,,,,,,,,,,,RXEKMV,train_x,red_square,bottom_right,2025-05-26_14h34.48.281,HideSeek_v1,2022.2.5,59.94837247328519,
,6,0,5,0,-1,0,26,,train_dim1_1,22,30,,,,2,0,2,0,,,,,,,,,0,0,0,0,0,21,21,21,1,0,1,0,,,,,,,,,,,,,,,,,,,,,,,,,,,,,,,,,,,,,,,,,,,,,,,,,,,,,,,,,,,,,,,,30,,,,,,,,2421.7504427999957,2421.7504427999957,2421.7504427999957,2421.7504427999957,2421.7504427999957,return,0.5262822000076994,15,0,0,1,0.24,-0.4,return,0.4451452000066638,-2,-49,0.24,-0.4,,,,,,,,,,,,,,,,,,,,,,,,,,,,,,,,,,,,,,,,,,,,,,,,,,,,,,,,RXEKMV,train_x,red_square,bottom_right,2025-05-26_14h34.48.281,HideSeek_v1,2022.2.5,59.94837247328519,
,7,1,2,1,-5,0,66,,train_dim1_1,23,30,,,,2,0,2,0,,,,,,,,,0,0,0,0,0,22,22,22,0,0,0,0,,,,,,,,,,,,,,,,,,,,,,,,,stimuli/alien_stimuli/66.png,,,,,,,,,,,,,,,,,,,,,,,,,,,,,stimuli/alien_stimuli/26.png,26,6,24,,,,,,,30,,,,,,,,2426.081974999979,2426.081974999979,2426.081974999979,2426.081974999979,2426.081974999979,left,1.1199102000100538,15,0,0,99,0.32,-0.32,left,1.0334339999826625,,,,,2424.5175423999317,2426.081974999979,0.24,-0.4,0.0,0.08,-0.4,0.24,0.28,0.24,-0.4,2423.8416295999195,2423.8416295999195,2423.8416295999195,2423.8416295999195,2423.8416295999195,2423.8416295999195,2423.8416295999195,2423.8416295999195,2423.833684259909,0.7859552999725565,return,0.6485679000616074,,,,,,,,,,,,,,,,,,,,,,,,,,,,,,,,,RXEKMV,train_x,red_square,bottom_right,2025-05-26_14h34.48.281,HideSeek_v1,2022.2.5,59.94837247328519,
,7,1,2,1,-5,0,66,,train_dim1_1,23,30,,,,2,0,2,0,,,,,,,,,0,0,0,0,0,22,22,22,1,0,1,0,,,,,,,,,,,,,,,,,,,,,,,,,,,,,,,,,,,,,,,,,,,,,,,,,,,,,,,,,,,,,,,,30,,,,,,,,2427.200473899953,2427.200473899953,2427.200473899953,2427.200473899953,2427.200473899953,left,0.6433530999347568,15,0,0,99,0.24,-0.32,left,0.5685741999186575,,,,,,,,,,,,,,,,,,,,,,,,,,,,,,,,,,,,,,,,,,,,,,,,,,,,,,,,,,,,RXEKMV,train_x,red_square,bottom_right,2025-05-26_14h34.48.281,HideSeek_v1,2022.2.5,59.94837247328519,
,7,1,2,1,-5,0,66,,train_dim1_1,23,30,,,,2,0,2,0,,,,,,,,,0,0,0,0,0,22,22,22,2,0,2,0,,,,,,,,,,,,,,,,,,,,,,,,,,,,,,,,,,,,,,,,,,,,,,,,,,,,,,,,,,,,,,,,30,,,,,,,,2427.849406399997,2427.849406399997,2427.849406399997,2427.849406399997,2427.849406399997,left,0.7267927000066265,15,0,0,99,0.15999999999999998,-0.32,left,0.6512745999498293,,,,,,,,,,,,,,,,,,,,,,,,,,,,,,,,,,,,,,,,,,,,,,,,,,,,,,,,,,,,RXEKMV,train_x,red_square,bottom_right,2025-05-26_14h34.48.281,HideSeek_v1,2022.2.5,59.94837247328519,
,7,1,2,1,-5,0,66,,train_dim1_1,23,30,,,,2,0,2,0,,,,,,,,,0,0,0,0,0,22,22,22,3,0,3,0,,,,,,,,,,,,,,,,,,,,,,,,,,,,,,,,,,,,,,,,,,,,,,,,,,,,,,,,,,,,,,,,30,,,,,,,,2428.5841185000027,2428.5841185000027,2428.5841185000027,2428.5841185000027,2428.5841185000027,left,0.7099738999968395,15,0,0,99,0.07999999999999997,-0.32,left,0.6284319999394938,,,,,,,,,,,,,,,,,,,,,,,,,,,,,,,,,,,,,,,,,,,,,,,,,,,,,,,,,,,,RXEKMV,train_x,red_square,bottom_right,2025-05-26_14h34.48.281,HideSeek_v1,2022.2.5,59.94837247328519,
,7,1,2,1,-5,0,66,,train_dim1_1,23,30,,,,2,0,2,0,,,,,,,,,0,0,0,0,0,22,22,22,4,0,4,0,,,,,,,,,,,,,,,,,,,,,,,,,,,,,,,,,,,,,,,,,,,,,,,,,,,,,,,,,,,,,,,,30,,,,,,,,2429.3013868000126,2429.3013868000126,2429.3013868000126,2429.3013868000126,2429.3013868000126,left,0.7435503000160679,15,0,0,99,-2.7755575615628914e-17,-0.32,left,0.6625616999808699,,,,,,,,,,,,,,,,,,,,,,,,,,,,,,,,,,,,,,,,,,,,,,,,,,,,,,,,,,,,RXEKMV,train_x,red_square,bottom_right,2025-05-26_14h34.48.281,HideSeek_v1,2022.2.5,59.94837247328519,
,7,1,2,1,-5,0,66,,train_dim1_1,23,30,,,,2,0,2,0,,,,,,,,,0,0,0,0,0,22,22,22,5,0,5,0,,,,,,,,,,,,,,,,,,,,,,,,,,,,,,,,,,,,,,,,,,,,,,,,,,,,,,,,,,,,,,,,30,,,,,,,,2430.0518835999537,2430.0518835999537,2430.0518835999537,2430.0518835999537,2430.0518835999537,return,0.6601308999815956,16,0,0,1,-2.7755575615628914e-17,-0.32,return,0.5827386999735609,-2,-54,-2.7755575615628914e-17,-0.32,,,,,,,,,,,,,,,,,,,,,,,,,,,,,,,,,,,,,,,,,,,,,,,,,,,,,,,,RXEKMV,train_x,red_square,bottom_right,2025-05-26_14h34.48.281,HideSeek_v1,2022.2.5,59.94837247328519,
,9,4,5,4,-4,0,56,,train_dim1_1,24,30,,,,2,0,2,0,,,,,,,,,0,0,0,0,0,23,23,23,0,0,0,0,,,,,,,,,,,,,,,,,,,,,,,,,stimuli/alien_stimuli/56.png,,,,,,,,,,,,,,,,,,,,,,,,,,,,,stimuli/alien_stimuli/66.png,66,7,25,,,,,,,30,,,,,,,,2434.6835514999693,2434.6835514999693,2434.6835514999693,2434.6835514999693,2434.6835514999693,left,1.0373944999882951,16,0,0,99,0.48000000000000004,-0.08,left,0.930773300002329,,,,,2433.1078382999403,2434.6835514999693,0,-0.32,0.0,0.4,-0.32,0,0.2,0,-0.32,2432.278009200003,2432.278009200003,2432.278009200003,2432.278009200003,2432.278009200003,2432.278009200003,2432.278009200003,2432.278009200003,2432.2572579799453,0.9363742000423372,return,0.808938100002706,,,,,,,,,,,,,,,,,,,,,,,,,,,,,,,,,RXEKMV,train_x,red_square,bottom_right,2025-05-26_14h34.48.281,HideSeek_v1,2022.2.5,59.94837247328519,
,9,4,5,4,-4,0,56,,train_dim1_1,24,30,,,,2,0,2,0,,,,,,,,,0,0,0,0,0,23,23,23,1,0,1,0,,,,,,,,,,,,,,,,,,,,,,,,,,,,,,,,,,,,,,,,,,,,,,,,,,,,,,,,,,,,,,,,30,,,,,,,,2435.708949199994,2435.708949199994,2435.708949199994,2435.708949199994,2435.708949199994,left,0.6432195999659598,16,0,0,99,0.4,-0.08,left,0.558162699919194,,,,,,,,,,,,,,,,,,,,,,,,,,,,,,,,,,,,,,,,,,,,,,,,,,,,,,,,,,,,RXEKMV,train_x,red_square,bottom_right,2025-05-26_14h34.48.281,HideSeek_v1,2022.2.5,59.94837247328519,
,9,4,5,4,-4,0,56,,train_dim1_1,24,30,,,,2,0,2,0,,,,,,,,,0,0,0,0,0,23,23,23,2,0,2,0,,,,,,,,,,,,,,,,,,,,,,,,,,,,,,,,,,,,,,,,,,,,,,,,,,,,,,,,,,,,,,,,30,,,,,,,,2436.358283599955,2436.358283599955,2436.358283599955,2436.358283599955,2436.358283599955,left,0.6769644999876618,16,0,0,99,0.32,-0.08,left,0.5877735000103712,,,,,,,,,,,,,,,,,,,,,,,,,,,,,,,,,,,,,,,,,,,,,,,,,,,,,,,,,,,,RXEKMV,train_x,red_square,bottom_right,2025-05-26_14h34.48.281,HideSeek_v1,2022.2.5,59.94837247328519,
,9,4,5,4,-4,0,56,,train_dim1_1,24,30,,,,2,0,2,0,,,,,,,,,0,0,0,0,0,23,23,23,3,0,3,0,,,,,,,,,,,,,,,,,,,,,,,,,,,,,,,,,,,,,,,,,,,,,,,,,,,,,,,,,,,,,,,,30,,,,,,,,2437.042958599981,2437.042958599981,2437.042958599981,2437.042958599981,2437.042958599981,left,0.6270075000356883,16,0,0,99,0.24,-0.08,left,0.5508184999926016,,,,,,,,,,,,,,,,,,,,,,,,,,,,,,,,,,,,,,,,,,,,,,,,,,,,,,,,,,,,RXEKMV,train_x,red_square,bottom_right,2025-05-26_14h34.48.281,HideSeek_v1,2022.2.5,59.94837247328519,
,9,4,5,4,-4,0,56,,train_dim1_1,24,30,,,,2,0,2,0,,,,,,,,,0,0,0,0,0,23,23,23,4,0,4,0,,,,,,,,,,,,,,,,,,,,,,,,,,,,,,,,,,,,,,,,,,,,,,,,,,,,,,,,,,,,,,,,30,,,,,,,,2437.6772266000044,2437.6772266000044,2437.6772266000044,2437.6772266000044,2437.6772266000044,return,1.1768533999565989,17,0,0,1,0.24,-0.08,return,1.0896558000240475,-2,-58,0.24,-0.08,,,,,,,,,,,,,,,,,,,,,,,,,,,,,,,,,,,,,,,,,,,,,,,,,,,,,,,,RXEKMV,train_x,red_square,bottom_right,2025-05-26_14h34.48.281,HideSeek_v1,2022.2.5,59.94837247328519,
,8,0,8,0,0,0,16,,train_dim1_1,25,30,,,,2,0,2,0,,,,,,,,,0,0,0,0,0,24,24,24,0,0,0,0,,,,,,,,,,,,,,,,,,,,,,,,,stimuli/alien_stimuli/16.png,,,,,,,,,,,,,,,,,,,,,,,,,,,,,stimuli/alien_stimuli/56.png,56,9,26,,,,,,,30,,,,,,,,2442.781373200007,2442.781373200007,2442.781373200007,2442.781373200007,2442.781373200007,return,1.3860395000083372,18,0,0,1,0.48,-0.4,return,1.2730697999941185,-2,-58,0.48,-0.4,2441.197677799966,2442.781373200007,0.24,-0.08,0.0,0.32,-0.08,0.24,0.4,0.24,-0.08,2440.4198300999124,2440.4198300999124,2440.4198300999124,2440.4198300999124,2440.4198300999124,2440.4198300999124,2440.4198300999124,2440.4198300999124,2440.4140042599756,0.8863519000587985,return,0.7483048000140116,,,,,,,,,,,,,,,,,,,,,,,,,,,,,,,,,RXEKMV,train_x,red_square,bottom_right,2025-05-26_14h34.48.281,HideSeek_v1,2022.2.5,59.94837247328519,
,6,1,1,1,-5,0,66,,train_dim1_1,26,30,,,,2,0,2,0,,,,,,,,,0,0,0,0,0,25,25,25,0,0,0,0,,,,,,,,,,,,,,,,,,,,,,,,,stimuli/alien_stimuli/66.png,,,,,,,,,,,,,,,,,,,,,,,,,,,,,stimuli/alien_stimuli/16.png,16,8,27,,,,,,,30,,,,,,,,2448.1824497999623,2448.1824497999623,2448.1824497999623,2448.1824497999623,2448.1824497999623,left,1.3691567999776453,18,0,0,99,0.24,-0.32,left,1.2779933999991044,,,,,2446.619171599974,2448.1824497999623,0.48,-0.4,0.0,0.0,-0.4,0.48,0.48,0.48,-0.4,2445.7118592999177,2445.7118592999177,2445.7118592999177,2445.7118592999177,2445.7118592999177,2445.7118592999177,2445.7118592999177,2445.7118592999177,2445.7015701599885,1.0196055999258533,return,0.881902200053446,,,,,,,,,,,,,,,,,,,,,,,,,,,,,,,,,RXEKMV,train_x,red_square,bottom_right,2025-05-26_14h34.48.281,HideSeek_v1,2022.2.5,59.94837247328519,
,6,1,1,1,-5,0,66,,train_dim1_1,26,30,,,,2,0,2,0,,,,,,,,,0,0,0,0,0,25,25,25,1,0,1,0,,,,,,,,,,,,,,,,,,,,,,,,,,,,,,,,,,,,,,,,,,,,,,,,,,,,,,,,,,,,,,,,30,,,,,,,,2449.552087899996,2449.552087899996,2449.552087899996,2449.552087899996,2449.552087899996,left,0.6597109999274835,18,0,0,99,0.15999999999999998,-0.32,left,0.5762364000547677,,,,,,,,,,,,,,,,,,,,,,,,,,,,,,,,,,,,,,,,,,,,,,,,,,,,,,,,,,,,RXEKMV,train_x,red_square,bottom_right,2025-05-26_14h34.48.281,HideSeek_v1,2022.2.5,59.94837247328519,
,6,1,1,1,-5,0,66,,train_dim1_1,26,30,,,,2,0,2,0,,,,,,,,,0,0,0,0,0,25,25,25,2,0,2,0,,,,,,,,,,,,,,,,,,,,,,,,,,,,,,,,,,,,,,,,,,,,,,,,,,,,,,,,,,,,,,,,30,,,,,,,,2450.2182410999667,2450.2182410999667,2450.2182410999667,2450.2182410999667,2450.2182410999667,left,0.7102124999510124,18,0,0,99,0.07999999999999997,-0.32,left,0.6279717999277636,,,,,,,,,,,,,,,,,,,,,,,,,,,,,,,,,,,,,,,,,,,,,,,,,,,,,,,,,,,,RXEKMV,train_x,red_square,bottom_right,2025-05-26_14h34.48.281,HideSeek_v1,2022.2.5,59.94837247328519,
,6,1,1,1,-5,0,66,,train_dim1_1,26,30,,,,2,0,2,0,,,,,,,,,0,0,0,0,0,25,25,25,3,0,3,0,,,,,,,,,,,,,,,,,,,,,,,,,,,,,,,,,,,,,,,,,,,,,,,,,,,,,,,,,,,,,,,,30,,,,,,,,2450.9358122999547,2450.9358122999547,2450.9358122999547,2450.9358122999547,2450.9358122999547,left,0.9774085000390187,18,0,0,99,-2.7755575615628914e-17,-0.32,left,0.8955450999783352,,,,,,,,,,,,,,,,,,,,,,,,,,,,,,,,,,,,,,,,,,,,,,,,,,,,,,,,,,,,RXEKMV,train_x,red_square,bottom_right,2025-05-26_14h34.48.281,HideSeek_v1,2022.2.5,59.94837247328519,
,6,1,1,1,-5,0,66,,train_dim1_1,26,30,,,,2,0,2,0,,,,,,,,,0,0,0,0,0,25,25,25,4,0,4,0,,,,,,,,,,,,,,,,,,,,,,,,,,,,,,,,,,,,,,,,,,,,,,,,,,,,,,,,,,,,,,,,30,,,,,,,,2451.9204093000153,2451.9204093000153,2451.9204093000153,2451.9204093000153,2451.9204093000153,left,0.709932400030084,18,0,0,99,-0.08000000000000003,-0.32,left,0.6275877000298351,,,,,,,,,,,,,,,,,,,,,,,,,,,,,,,,,,,,,,,,,,,,,,,,,,,,,,,,,,,,RXEKMV,train_x,red_square,bottom_right,2025-05-26_14h34.48.281,HideSeek_v1,2022.2.5,59.94837247328519,
,6,1,1,1,-5,0,66,,train_dim1_1,26,30,,,,2,0,2,0,,,,,,,,,0,0,0,0,0,25,25,25,5,0,5,0,,,,,,,,,,,,,,,,,,,,,,,,,,,,,,,,,,,,,,,,,,,,,,,,,,,,,,,,,,,,,,,,30,,,,,,,,2452.6370887999656,2452.6370887999656,2452.6370887999656,2452.6370887999656,2452.6370887999656,return,1.994887899956666,19,0,0,1,-0.08000000000000003,-0.32,return,1.9182000999571756,-2,-63,-0.08000000000000003,-0.32,,,,,,,,,,,,,,,,,,,,,,,,,,,,,,,,,,,,,,,,,,,,,,,,,,,,,,,,RXEKMV,train_x,red_square,bottom_right,2025-05-26_14h34.48.281,HideSeek_v1,2022.2.5,59.94837247328519,
,5,1,2,1,-3,0,46,,train_dim1_1,27,30,,,,2,0,2,0,,,,,,,,,0,0,0,0,0,26,26,26,0,0,0,0,,,,,,,,,,,,,,,,,,,,,,,,,stimuli/alien_stimuli/46.png,,,,,,,,,,,,,,,,,,,,,,,,,,,,,stimuli/alien_stimuli/66.png,66,6,28,,,,,,,30,,,,,,,,2458.561905300012,2458.561905300012,2458.561905300012,2458.561905300012,2458.561905300012,left,1.805540099972859,19,0,0,99,0.15999999999999998,-0.32,left,1.714406399987638,,,,,2456.9943672999507,2458.561905300012,-0.08,-0.32,0.0,0.4,-0.32,-0.08,0.12,-0.08,-0.32,2456.2183688000077,2456.2183688000077,2456.2183688000077,2456.2183688000077,2456.2183688000077,2456.2183688000077,2456.2183688000077,2456.2183688000077,2456.2108313399367,0.9024269999936223,return,0.7465469000162557,,,,,,,,,,,,,,,,,,,,,,,,,,,,,,,,,RXEKMV,train_x,red_square,bottom_right,2025-05-26_14h34.48.281,HideSeek_v1,2022.2.5,59.94837247328519,
,5,1,2,1,-3,0,46,,train_dim1_1,27,30,,,,2,0,2,0,,,,,,,,,0,0,0,0,0,26,26,26,1,0,1,0,,,,,,,,,,,,,,,,,,,,,,,,,,,,,,,,,,,,,,,,,,,,,,,,,,,,,,,,,,,,,,,,30,,,,,,,,2460.3611193000106,2460.3611193000106,2460.3611193000106,2460.3611193000106,2460.3611193000106,left,0.6599312999751419,19,0,0,99,0.07999999999999997,-0.32,left,0.5829465999267995,,,,,,,,,,,,,,,,,,,,,,,,,,,,,,,,,,,,,,,,,,,,,,,,,,,,,,,,,,,,RXEKMV,train_x,red_square,bottom_right,2025-05-26_14h34.48.281,HideSeek_v1,2022.2.5,59.94837247328519,
,5,1,2,1,-3,0,46,,train_dim1_1,27,30,,,,2,0,2,0,,,,,,,,,0,0,0,0,0,26,26,26,2,0,2,0,,,,,,,,,,,,,,,,,,,,,,,,,,,,,,,,,,,,,,,,,,,,,,,,,,,,,,,,,,,,,,,,30,,,,,,,,2461.0274292000104,2461.0274292000104,2461.0274292000104,2461.0274292000104,2461.0274292000104,left,0.7774535999633372,19,0,0,99,-2.7755575615628914e-17,-0.32,left,0.6969005999853835,,,,,,,,,,,,,,,,,,,,,,,,,,,,,,,,,,,,,,,,,,,,,,,,,,,,,,,,,,,,RXEKMV,train_x,red_square,bottom_right,2025-05-26_14h34.48.281,HideSeek_v1,2022.2.5,59.94837247328519,
,5,1,2,1,-3,0,46,,train_dim1_1,27,30,,,,2,0,2,0,,,,,,,,,0,0,0,0,0,26,26,26,3,0,3,0,,,,,,,,,,,,,,,,,,,,,,,,,,,,,,,,,,,,,,,,,,,,,,,,,,,,,,,,,,,,,,,,30,,,,,,,,2461.813168999972,2461.813168999972,2461.813168999972,2461.813168999972,2461.813168999972,return,0.6084755000192672,20,0,0,1,-2.7755575615628914e-17,-0.32,return,0.532012699986808,-2,-66,-2.7755575615628914e-17,-0.32,,,,,,,,,,,,,,,,,,,,,,,,,,,,,,,,,,,,,,,,,,,,,,,,,,,,,,,,RXEKMV,train_x,red_square,bottom_right,2025-05-26_14h34.48.281,HideSeek_v1,2022.2.5,59.94837247328519,
,8,1,7,1,-1,0,26,,train_dim1_1,28,30,,,,2,0,2,0,,,,,,,,,0,0,0,0,0,27,27,27,0,0,0,0,,,,,,,,,,,,,,,,,,,,,,,,,stimuli/alien_stimuli/26.png,,,,,,,,,,,,,,,,,,,,,,,,,,,,,stimuli/alien_stimuli/46.png,46,5,29,,,,,,,30,,,,,,,,2466.365318199969,2466.365318199969,2466.365318199969,2466.365318199969,2466.365318199969,left,1.92168600007426,20,0,0,99,0.39999999999999997,-0.32,left,1.8322562000248581,,,,,2464.8006677000085,2466.365318199969,0,-0.32,0.0,0.24,-0.32,0,0.12,0,-0.32,2463.9891859999625,2463.9891859999625,2463.9891859999625,2463.9891859999625,2463.9891859999625,2463.9891859999625,2463.9891859999625,2463.9891859999625,2463.9671588799683,0.9194691000739112,return,0.7938245000550523,,,,,,,,,,,,,,,,,,,,,,,,,,,,,,,,,RXEKMV,train_x,red_square,bottom_right,2025-05-26_14h34.48.281,HideSeek_v1,2022.2.5,59.94837247328519,
,8,1,7,1,-1,0,26,,train_dim1_1,28,30,,,,2,0,2,0,,,,,,,,,0,0,0,0,0,27,27,27,1,0,1,0,,,,,,,,,,,,,,,,,,,,,,,,,,,,,,,,,,,,,,,,,,,,,,,,,,,,,,,,,,,,,,,,30,,,,,,,,2468.2874076999724,2468.2874076999724,2468.2874076999724,2468.2874076999724,2468.2874076999724,return,0.5099511999869719,21,0,0,1,0.39999999999999997,-0.32,return,0.4234725999413058,-2,-67,0.39999999999999997,-0.32,,,,,,,,,,,,,,,,,,,,,,,,,,,,,,,,,,,,,,,,,,,,,,,,,,,,,,,,RXEKMV,train_x,red_square,bottom_right,2025-05-26_14h34.48.281,HideSeek_v1,2022.2.5,59.94837247328519,
,9,0,5,0,-4,0,56,,train_dim1_1,29,30,,,,2,0,2,0,,,,,,,,,0,0,0,0,0,28,28,28,0,0,0,0,,,,,,,,,,,,,,,,,,,,,,,,,stimuli/alien_stimuli/56.png,,,,,,,,,,,,,,,,,,,,,,,,,,,,,stimuli/alien_stimuli/26.png,26,8,30,,,,,,,30,,,,,,,,2472.9359214999713,2472.9359214999713,2472.9359214999713,2472.9359214999713,2472.9359214999713,left,1.2730187999550253,21,0,0,99,0.48000000000000004,-0.4,left,1.1772019000491127,,,,,2471.372999400017,2472.9359214999713,0.4,-0.32,0.0,0.08,-0.32,0.4,0.44,0.4,-0.32,2470.3618959999876,2470.3618959999876,2470.3618959999876,2470.3618959999876,2470.3618959999876,2470.3618959999876,2470.3618959999876,2470.3618959999876,2470.3554695599014,1.1196241000434384,return,0.9838391999946907,,,,,,,,,,,,,,,,,,,,,,,,,,,,,,,,,RXEKMV,train_x,red_square,bottom_right,2025-05-26_14h34.48.281,HideSeek_v1,2022.2.5,59.94837247328519,
,9,0,5,0,-4,0,56,,train_dim1_1,29,30,,,,2,0,2,0,,,,,,,,,0,0,0,0,0,28,28,28,1,0,1,0,,,,,,,,,,,,,,,,,,,,,,,,,,,,,,,,,,,,,,,,,,,,,,,,,,,,,,,,,,,,,,,,30,,,,,,,,2474.2071541999467,2474.2071541999467,2474.2071541999467,2474.2071541999467,2474.2071541999467,left,0.5592047999380156,21,0,0,99,0.4,-0.4,left,0.48565449996385723,,,,,,,,,,,,,,,,,,,,,,,,,,,,,,,,,,,,,,,,,,,,,,,,,,,,,,,,,,,,RXEKMV,train_x,red_square,bottom_right,2025-05-26_14h34.48.281,HideSeek_v1,2022.2.5,59.94837247328519,
,9,0,5,0,-4,0,56,,train_dim1_1,29,30,,,,2,0,2,0,,,,,,,,,0,0,0,0,0,28,28,28,2,0,2,0,,,,,,,,,,,,,,,,,,,,,,,,,,,,,,,,,,,,,,,,,,,,,,,,,,,,,,,,,,,,,,,,30,,,,,,,,2474.774077499984,2474.774077499984,2474.774077499984,2474.774077499984,2474.774077499984,left,0.5767768999794498,21,0,0,99,0.32,-0.4,left,0.49637569999322295,,,,,,,,,,,,,,,,,,,,,,,,,,,,,,,,,,,,,,,,,,,,,,,,,,,,,,,,,,,,RXEKMV,train_x,red_square,bottom_right,2025-05-26_14h34.48.281,HideSeek_v1,2022.2.5,59.94837247328519,
,9,0,5,0,-4,0,56,,train_dim1_1,29,30,,,,2,0,2,0,,,,,,,,,0,0,0,0,0,28,28,28,3,0,3,0,,,,,,,,,,,,,,,,,,,,,,,,,,,,,,,,,,,,,,,,,,,,,,,,,,,,,,,,,,,,,,,,30,,,,,,,,2475.3581088999053,2475.3581088999053,2475.3581088999053,2475.3581088999053,2475.3581088999053,left,0.6103505999781191,21,0,0,99,0.24,-0.4,left,0.5219310999382287,,,,,,,,,,,,,,,,,,,,,,,,,,,,,,,,,,,,,,,,,,,,,,,,,,,,,,,,,,,,RXEKMV,train_x,red_square,bottom_right,2025-05-26_14h34.48.281,HideSeek_v1,2022.2.5,59.94837247328519,
,9,0,5,0,-4,0,56,,train_dim1_1,29,30,,,,2,0,2,0,,,,,,,,,0,0,0,0,0,28,28,28,4,0,4,0,,,,,,,,,,,,,,,,,,,,,,,,,,,,,,,,,,,,,,,,,,,,,,,,,,,,,,,,,,,,,,,,30,,,,,,,,2475.9763344000094,2475.9763344000094,2475.9763344000094,2475.9763344000094,2475.9763344000094,return,0.609777000034228,22,0,0,1,0.24,-0.4,return,0.5320152000058442,-2,-71,0.24,-0.4,,,,,,,,,,,,,,,,,,,,,,,,,,,,,,,,,,,,,,,,,,,,,,,,,,,,,,,,RXEKMV,train_x,red_square,bottom_right,2025-05-26_14h34.48.281,HideSeek_v1,2022.2.5,59.94837247328519,
,7,2,7,2,0,0,16,,train_dim1_1,30,30,,,,2,0,2,0,,,,,,,,,0,0,0,0,0,29,29,29,0,0,0,0,,,,,,,,,,,,,,,,,,,,,,,,,stimuli/alien_stimuli/16.png,,,,,,,,,,,,,,,,,,,,,,,,,,,,,stimuli/alien_stimuli/56.png,56,9,31,,,,,,,30,,,,,,,,2480.7663461999036,2480.7663461999036,2480.7663461999036,2480.7663461999036,2480.7663461999036,return,1.73285140004009,23,0,0,1,0.4,-0.24,return,1.6384760000510141,-2,-71,0.4,-0.24,2479.196042699972,2480.7663461999036,0.24,-0.4,0.0,0.32,-0.4,0.24,0.4,0.24,-0.4,2478.1502547999844,2478.1502547999844,2478.1502547999844,2478.1502547999844,2478.1502547999844,2478.1502547999844,2478.1502547999844,2478.1502547999844,2478.1285877799382,1.1532431999221444,return,1.0200458000181243,,,,,,,,,,,,,,,,,,,,,,,,,,,,,,,,,RXEKMV,train_x,red_square,bottom_right,2025-05-26_14h34.48.281,HideSeek_v1,2022.2.5,59.94837247328519,
,,,,,,,,,,,30,,,,2,0,2,0,,,,,,,,,,,,,,,,,,,,,,,,,,,,,,,,,,,,,,,,,,,,,,,,,,,,,,,,,,,,,,,,,,,,,,,,,,stimuli/alien_stimuli/16.png,16,7,32,21,0.7,0.9583333333333335,1,1,1,30,0,conditions/schedules/train_x_first/red_square_00/bottom_right/inputTrain_2.1.xlsx,99,1,2,1,0,,,,,,,,,,,1,,,,,,,,,2484.8008254999295,2486.3467316000024,0.4,-0.24,0.0,0.0,-0.24,0.4,0.4,0.4,-0.24,2484.059645399917,2484.059645399917,2484.059645399917,2484.059645399917,2484.059645399917,2484.059645399917,2484.059645399917,2484.059645399917,2484.0503290599445,0.852640499942936,return,0.7238772000418976,0,0.9,0,1,23,,,,,,,,,,,,,,,,,,,,,,,,,,,,RXEKMV,train_x,red_square,bottom_right,2025-05-26_14h34.48.281,HideSeek_v1,2022.2.5,59.94837247328519,
,,,,,,,,,,,,,,,3,0,3,0,0,0,0,0,,,,,,,,,,,,,,,,,,,,,,,,,,,,,,,conditions/schedules/train_x_first/red_square_00/bottom_right/instructions/Slide17.png,conditions/schedules/train_x_first/red_square_00/bottom_right/instructions/Audio17.wav,2486.3467316000024,2486.335418739938,17,"[7.144131900044158, 18.080536400084384, 16.967869300046004, 19.240918700001203, 4.351568599930033, 4.753513799980283, 5.403608800028451, 11.50835180003196, 5.716947700013407, 6.868832099949941, 9.291445099981502, 12.705244800075889, 18.00031570007559, 13.34640090004541, 30.70167490001768, 21.431332199950702, 51.47869739995804]","[0.00020720006432384253, 0.014158900012262166, 0.03002780000679195, 0.031143000000156462, 0.050063899951055646, 0.06592029996681958, 0.06503239995799959, 0.031097099999897182, 0.11295350000727922, 0.05021050001960248, 0.046729300054721534, 12.705251600011252, 0.03558500006329268, 13.346408299985342, 0.09672999999020249, 21.431339400005527, 51.47870579990558]",0,,,,,,,,,,,,,,,,,,,,,,,,,,,,,,,,,,,,,,,,,,,,,,,,,,,,,,,,,,,,,,,,,,,,,,,,,,,,,,,,,,,,,,,,,,,,,,,,,,,,,,,,,,,,,,,,,,,,,,,,,,,,RXEKMV,train_x,red_square,bottom_right,2025-05-26_14h34.48.281,HideSeek_v1,2022.2.5,59.94837247328519,
,,,,,,,,,,,,,,,3,0,3,0,1,0,1,0,,,,,,,,,,,,,,,,,,,,,,,,,,,,,,,conditions/schedules/train_x_first/red_square_00/bottom_right/instructions/Slide18.png,conditions/schedules/train_x_first/red_square_00/bottom_right/instructions/Audio18.wav,2537.897674900014,2537.894747399958,18,"[7.144131900044158, 18.080536400084384, 16.967869300046004, 19.240918700001203, 4.351568599930033, 4.753513799980283, 5.403608800028451, 11.50835180003196, 5.716947700013407, 6.868832099949941, 9.291445099981502, 12.705244800075889, 18.00031570007559, 13.34640090004541, 30.70167490001768, 21.431332199950702, 51.47869739995804, 7.567580600036308]","[0.00020720006432384253, 0.014158900012262166, 0.03002780000679195, 0.031143000000156462, 0.050063899951055646, 0.06592029996681958, 0.06503239995799959, 0.031097099999897182, 0.11295350000727922, 0.05021050001960248, 0.046729300054721534, 12.705251600011252, 0.03558500006329268, 13.346408299985342, 0.09672999999020249, 21.431339400005527, 0.014036600012332201, 7.567587099969387]",0,,,,,,,,,,,,,,,,,,,,,,,,,,,,,,,,,,,,,,,,,,,,,,,,,,,,,,,,,,,,,,,,,,,,,,,,,,,,,,,,,,,,,,,,,,,,,,,,,,,,,,,,,,,,,,,,,,,,,,,,,,,,RXEKMV,train_x,red_square,bottom_right,2025-05-26_14h34.48.281,HideSeek_v1,2022.2.5,59.94837247328519,
,,,,,,,,,,,,,,,3,0,3,0,2,0,2,0,,,,,,,,,,,,,,,,,,,,,,,,,,,,,,,conditions/schedules/train_x_first/red_square_00/bottom_right/instructions/Slide19.png,conditions/schedules/train_x_first/red_square_00/bottom_right/instructions/Audio19.wav,2545.5249982000096,2545.517962619895,19,"[7.144131900044158, 18.080536400084384, 16.967869300046004, 19.240918700001203, 4.351568599930033, 4.753513799980283, 5.403608800028451, 11.50835180003196, 5.716947700013407, 6.868832099949941, 9.291445099981502, 12.705244800075889, 18.00031570007559, 13.34640090004541, 30.70167490001768, 21.431332199950702, 51.47869739995804, 7.567580600036308, 10.265052700066008]","[0.00020720006432384253, 0.014158900012262166, 0.03002780000679195, 0.031143000000156462, 0.050063899951055646, 0.06592029996681958, 0.06503239995799959, 0.031097099999897182, 0.11295350000727922, 0.05021050001960248, 0.046729300054721534, 12.705251600011252, 0.03558500006329268, 13.346408299985342, 0.09672999999020249, 21.431339400005527, 0.014036600012332201, 0.00024480000138282776, 10.265059299999848]",0,,,,,,,,,,,,,,,,,,,,,,,,,,,,,,,,,,,,,,,,,,,,,,,,,,,,,,,,,,,,,,,,,,,,,,,,,,,,,,,,,,,,,,,,,,,,,,,,,,,,,,,,,,,,,,,,,,,,,,,,,,,,RXEKMV,train_x,red_square,bottom_right,2025-05-26_14h34.48.281,HideSeek_v1,2022.2.5,59.94837247328519,
,,,,,,,,,,,,,,,3,0,3,0,3,0,3,0,,,,,,,,,,,,,,,,,,,,,,,,,,,,,,,conditions/schedules/train_x_first/red_square_00/bottom_right/instructions/Slide20.png,conditions/schedules/train_x_first/red_square_00/bottom_right/instructions/Audio20.wav,2555.862951499992,2555.8596043,20,"[7.144131900044158, 18.080536400084384, 16.967869300046004, 19.240918700001203, 4.351568599930033, 4.753513799980283, 5.403608800028451, 11.50835180003196, 5.716947700013407, 6.868832099949941, 9.291445099981502, 12.705244800075889, 18.00031570007559, 13.34640090004541, 30.70167490001768, 21.431332199950702, 51.47869739995804, 7.567580600036308, 10.265052700066008, 13.772456099977717]","[0.00020720006432384253, 0.014158900012262166, 0.03002780000679195, 0.031143000000156462, 0.050063899951055646, 0.06592029996681958, 0.06503239995799959, 0.031097099999897182, 0.11295350000727922, 0.05021050001960248, 0.046729300054721534, 12.705251600011252, 0.03558500006329268, 13.346408299985342, 0.09672999999020249, 21.431339400005527, 0.014036600012332201, 0.00024480000138282776, 10.265059299999848, 13.772463100031018]",0,,,,,,,,,,,,,,,,,,,,,,,,,,,,,,,,,,,,,,,,,,,,,,,,,,,,,,,,,,,,,,,,,,,,,,,,,,,,,,,,,,,,,,,,,,,,,,,,,,,,,,,,,,,,,,,,,,,,,,,,,,,,RXEKMV,train_x,red_square,bottom_right,2025-05-26_14h34.48.281,HideSeek_v1,2022.2.5,59.94837247328519,
1,7,3,7,8,0,5,11,2,instr_dim1_2,,,,,,3,0,3,0,,,,,0,0,0,0,,,,,,,,,,,,,,,,,,,,,,,,,,,,,,,,,,,,,stimuli/alien_stimuli/11.png,conditions/schedules/train_x_first/red_square_00/bottom_right/inputInstr_2.xlsx,stimuli/alien_stimuli/11.png,2569.7382811999414,2569.7382811999414,2569.7382811999414,2569.7382811999414,2569.737913259887,return,7.559315100079402,"[-0.16, -0.08, 0, 0.08, 0.16, 0.24, 0.32, 0.4, 0.48, 0.56]","[-0.4, -0.32, -0.24, -0.16, -0.08, 0, 0.08, 0.16, 0.24, 0.32]",8,3,7,7,0.4,0.0,2577.454100199975,2577.454100199975,2577.454100199975,2577.454100199975,2577.454100199975,2577.454100199975,2577.454100199975,2577.4440939399647,11.74424769997131,return,11.584135200013407,stimuli/alien_stimuli/11.png,11,7,1,,,,,,,,,,,,,,,,,,,,,,,,,,,,,,,,,,,,,,,,,,,,,,,,,,,,,,,,,,,,,,,,,,,,,,,,,,,,,,,,,,,,,,,,,RXEKMV,train_x,red_square,bottom_right,2025-05-26_14h34.48.281,HideSeek_v1,2022.2.5,59.94837247328519,
,,,,,,,,,,,30,,,,3,0,3,0,,,,,,,,,,,,,,,,,,,,,,,,,,,,,,,,,,,,,,,,,,,,,,,,,,,,,,,,,,,,,,,,,,,,,,,,,,,,,,21,0.7,0.9583333333333335,1,99,2,30,0,conditions/schedules/train_x_first/red_square_00/bottom_right/inputTrain_2.1.xlsx,99,1,2,1,0,,,,,,,,,,,,,,,,,,,,,,,,,,,,,,,,,,,,,,,,,,,,,,,,,,,,,,,,,,,,,,,,,,,,,,,,,,,RXEKMV,train_x,red_square,bottom_right,2025-05-26_14h34.48.281,HideSeek_v1,2022.2.5,59.94837247328519,
,,,,,,,,,,,,,,,4,0,4,0,0,0,0,0,,,,,,,,,,,,,,,,,,,,,,,,,,,,,,,conditions/schedules/train_x_first/red_square_00/bottom_right/instructions/Slide21.png,conditions/schedules/train_x_first/red_square_00/bottom_right/instructions/Audio21.wav,2589.2142879000166,2589.2039807199035,21,"[7.144131900044158, 18.080536400084384, 16.967869300046004, 19.240918700001203, 4.351568599930033, 4.753513799980283, 5.403608800028451, 11.50835180003196, 5.716947700013407, 6.868832099949941, 9.291445099981502, 12.705244800075889, 18.00031570007559, 13.34640090004541, 30.70167490001768, 21.431332199950702, 51.47869739995804, 7.567580600036308, 10.265052700066008, 13.772456099977717, 16.78381900000386]","[0.00020720006432384253, 0.014158900012262166, 0.03002780000679195, 0.031143000000156462, 0.050063899951055646, 0.06592029996681958, 0.06503239995799959, 0.031097099999897182, 0.11295350000727922, 0.05021050001960248, 0.046729300054721534, 12.705251600011252, 0.03558500006329268, 13.346408299985342, 0.09672999999020249, 21.431339400005527, 0.014036600012332201, 0.00024480000138282776, 10.265059299999848, 13.772463100031018, 16.78382619994227]",0,,,,,,,,,,,,,,,,,,,,,,,,,,,,,,,,,,,,,,,,,,,,,,,,,,,,,,,,,,,,,,,,,,,,,,,,,,,,,,,,,,,,,,,,,,,,,,,,,,,,,,,,,,,,,,,,,,,,,,,,,,,,RXEKMV,train_x,red_square,bottom_right,2025-05-26_14h34.48.281,HideSeek_v1,2022.2.5,59.94837247328519,
2,5,3,5,3,0,0,16,2,instr_dim1_2,,,,,,4,0,4,0,,,,,0,0,0,0,,,,,,,,,,,,,,,,,,,,,,,,,,,,,,,,,,,,,stimuli/alien_stimuli/16.png,conditions/schedules/train_x_first/red_square_00/bottom_right/inputInstr_2.xlsx,stimuli/alien_stimuli/16.png,2606.10148949991,2606.10148949991,2606.10148949991,2606.10148949991,2606.1015346599743,return,9.302852900000289,"[-0.16, -0.08, 0, 0.08, 0.16, 0.24, 0.32, 0.4, 0.48, 0.56]","[-0.4, -0.32, -0.24, -0.16, -0.08, 0, 0.08, 0.16, 0.24, 0.32]",3,3,5,5,0.0,0.0,2615.556130099925,2615.556130099925,2615.556130099925,2615.556130099925,2615.556130099925,2615.556130099925,2615.556130099925,2615.542616539984,8.457914900034666,return,8.309779400005937,stimuli/alien_stimuli/16.png,16,5,2,,,,,,,,,,,,,,,,,,,,,,,,,,,,,,,,,,,,,,,,,,,,,,,,,,,,,,,,,,,,,,,,,,,,,,,,,,,,,,,,,,,,,,,,,RXEKMV,train_x,red_square,bottom_right,2025-05-26_14h34.48.281,HideSeek_v1,2022.2.5,59.94837247328519,
,,,,,,,,,,,30,,,,4,0,4,0,,,,,,,,,,,,,,,,,,,,,,,,,,,,,,,,,,,,,,,,,,,,,,,,,,,,,,,,,,,,,,,,,,,,,,,,,,,,,,21,0.7,0.9583333333333335,1,99,2,30,0,conditions/schedules/train_x_first/red_square_00/bottom_right/inputTrain_2.1.xlsx,99,1,2,1,0,,,,,,,,,,,,,,,,,,,,,,,,,,,,,,,,,,,,,,,,,,,,,,,,,,,,,,,,,,,,,,,,,,,,,,,,,,,RXEKMV,train_x,red_square,bottom_right,2025-05-26_14h34.48.281,HideSeek_v1,2022.2.5,59.94837247328519,
,,,,,,,,,,,,,,,5,0,5,0,0,0,0,0,,,,,,,,,,,,,,,,,,,,,,,,,,,,,,,conditions/schedules/train_x_first/red_square_00/bottom_right/instructions/Slide22.png,conditions/schedules/train_x_first/red_square_00/bottom_right/instructions/Audio22.wav,2624.0433490999276,2624.032858099905,22,"[7.144131900044158, 18.080536400084384, 16.967869300046004, 19.240918700001203, 4.351568599930033, 4.753513799980283, 5.403608800028451, 11.50835180003196, 5.716947700013407, 6.868832099949941, 9.291445099981502, 12.705244800075889, 18.00031570007559, 13.34640090004541, 30.70167490001768, 21.431332199950702, 51.47869739995804, 7.567580600036308, 10.265052700066008, 13.772456099977717, 16.78381900000386, 42.82387910003308]","[0.00020720006432384253, 0.014158900012262166, 0.03002780000679195, 0.031143000000156462, 0.050063899951055646, 0.06592029996681958, 0.06503239995799959, 0.031097099999897182, 0.11295350000727922, 0.05021050001960248, 0.046729300054721534, 12.705251600011252, 0.03558500006329268, 13.346408299985342, 0.09672999999020249, 21.431339400005527, 0.014036600012332201, 0.00024480000138282776, 10.265059299999848, 13.772463100031018, 16.78382619994227, 42.82388640008867]",0,,,,,,,,,,,,,,,,,,,,,,,,,,,,,,,,,,,,,,,,,,,,,,,,,,,,,,,,,,,,,,,,,,,,,,,,,,,,,,,,,,,,,,,,,,,,,,,,,,,,,,,,,,,,,,,,,,,,,,,,,,,,RXEKMV,train_x,red_square,bottom_right,2025-05-26_14h34.48.281,HideSeek_v1,2022.2.5,59.94837247328519,
,5,0,5,1,0,1,15,,train_dim1_2,1,30,,,,5,0,5,0,,,,,,,,,0,0,0,0,0,0,0,0,0,0,0,0,,,,,,,,,,,,,,,,,,,,,,,,,stimuli/alien_stimuli/15.png,,,,,,,,,,,,,,,,,,,,,,,,,,,,,,,,,,,,,,,30,,,,,,,,2666.9728485000087,2666.9728485000087,2666.9728485000087,2666.9728485000087,2666.9728485000087,return,4.330098200007342,0,1,0,0,0.24,-0.4,return,4.22942799993325,-2,-71,0.24,-0.4,,,,,,,,,,,,,,,,,,,,,,,,,,,,,,,,,,,,,,,,,,,,,,,,,,,,,,,,RXEKMV,train_x,red_square,bottom_right,2025-05-26_14h34.48.281,HideSeek_v1,2022.2.5,59.94837247328519,
,8,2,8,2,0,0,16,,train_dim1_2,2,30,,,,5,0,5,0,,,,,,,,,0,0,0,0,0,1,1,1,0,0,0,0,,,,,,,,,,,,,,,,,,,,,,,,,stimuli/alien_stimuli/16.png,,,,,,,,,,,,,,,,,,,,,,,,,,,,,stimuli/alien_stimuli/15.png,15,5,3,,,,,,,30,,,,,,,,2678.4529183999402,2678.4529183999402,2678.4529183999402,2678.4529183999402,2678.4529183999402,return,2.1382793999509886,1,0,0,1,0.48,-0.24,return,2.053404900012538,-2,-71,0.48,-0.24,2676.8935330999084,2678.4529183999402,0.24,-0.32,0.08,0.0,-0.36,0.24,0.24,0.24,-0.32,2672.8582418999868,2672.8582418999868,2672.8582418999868,2672.8582418999868,2672.8582418999868,2672.8582418999868,2672.8582418999868,2672.8582418999868,2672.856862539891,4.155848800088279,return,4.013521500048228,,,,,,,,,,,,,,,,,,,,,,,,,,,,,,,,,RXEKMV,train_x,red_square,bottom_right,2025-05-26_14h34.48.281,HideSeek_v1,2022.2.5,59.94837247328519,
,7,3,7,6,0,3,13,,train_dim1_2,3,30,,,,5,0,5,0,,,,,,,,,0,0,0,0,0,2,2,2,0,0,0,0,,,,,,,,,,,,,,,,,,,,,,,,,stimuli/alien_stimuli/13.png,,,,,,,,,,,,,,,,,,,,,,,,,,,,,stimuli/alien_stimuli/16.png,16,8,4,,,,,,,30,,,,,,,,2685.556912399945,2685.556912399945,2685.556912399945,2685.556912399945,2685.556912399945,up,3.1247186000691727,1,0,0,99,0.4,-0.08,up,3.0340061000315472,,,,,2683.9994687999133,2685.556912399945,0.48,-0.24,0.0,0.0,-0.24,0.48,0.48,0.48,-0.24,2682.145309699932,2682.145309699932,2682.145309699932,2682.145309699932,2682.145309699932,2682.145309699932,2682.145309699932,2682.145309699932,2682.1315453799907,1.9535154000623152,return,1.828037100029178,,,,,,,,,,,,,,,,,,,,,,,,,,,,,,,,,RXEKMV,train_x,red_square,bottom_right,2025-05-26_14h34.48.281,HideSeek_v1,2022.2.5,59.94837247328519,
,7,3,7,6,0,3,13,,train_dim1_2,3,30,,,,5,0,5,0,,,,,,,,,0,0,0,0,0,2,2,2,1,0,1,0,,,,,,,,,,,,,,,,,,,,,,,,,,,,,,,,,,,,,,,,,,,,,,,,,,,,,,,,,,,,,,,,30,,,,,,,,2688.6871353999013,2688.6871353999013,2688.6871353999013,2688.6871353999013,2688.6871353999013,return,0.9102795000653714,1,0,0,0,0.4,-0.08,return,0.8232357999077067,-1,-71,0.4,-0.08,,,,,,,,,,,,,,,,,,,,,,,,,,,,,,,,,,,,,,,,,,,,,,,,,,,,,,,,RXEKMV,train_x,red_square,bottom_right,2025-05-26_14h34.48.281,HideSeek_v1,2022.2.5,59.94837247328519,
,5,1,5,5,0,4,12,,train_dim1_2,4,30,,,,5,0,5,0,,,,,,,,,0,0,0,0,0,3,3,3,0,0,0,0,,,,,,,,,,,,,,,,,,,,,,,,,stimuli/alien_stimuli/12.png,,,,,,,,,,,,,,,,,,,,,,,,,,,,,stimuli/alien_stimuli/13.png,13,7,5,,,,,,,30,,,,,,,,2697.1343963999534,2697.1343963999534,2697.1343963999534,2697.1343963999534,2697.1343963999534,up,2.007454299950041,1,0,0,99,0.24,-0.24,up,1.9255007999017835,,,,,2695.5754366999026,2697.1343963999534,0.4,0.08,0.24,0.0,-0.04,0.4,0.4,0.4,0.08,2691.155907899956,2691.155907899956,2691.155907899956,2691.155907899956,2691.155907899956,2691.155907899956,2691.155907899956,2691.155907899956,2691.1553803599672,4.522307400009595,return,4.395505800028332,,,,,,,,,,,,,,,,,,,,,,,,,,,,,,,,,RXEKMV,train_x,red_square,bottom_right,2025-05-26_14h34.48.281,HideSeek_v1,2022.2.5,59.94837247328519,
,5,1,5,5,0,4,12,,train_dim1_2,4,30,,,,5,0,5,0,,,,,,,,,0,0,0,0,0,3,3,3,1,0,1,0,,,,,,,,,,,,,,,,,,,,,,,,,,,,,,,,,,,,,,,,,,,,,,,,,,,,,,,,,,,,,,,,30,,,,,,,,2699.14695319999,2699.14695319999,2699.14695319999,2699.14695319999,2699.14695319999,up,0.6597359000006691,1,0,0,99,0.24,-0.15999999999999998,up,0.5788351000519469,,,,,,,,,,,,,,,,,,,,,,,,,,,,,,,,,,,,,,,,,,,,,,,,,,,,,,,,,,,,RXEKMV,train_x,red_square,bottom_right,2025-05-26_14h34.48.281,HideSeek_v1,2022.2.5,59.94837247328519,
,5,1,5,5,0,4,12,,train_dim1_2,4,30,,,,5,0,5,0,,,,,,,,,0,0,0,0,0,3,3,3,2,0,2,0,,,,,,,,,,,,,,,,,,,,,,,,,,,,,,,,,,,,,,,,,,,,,,,,,,,,,,,,,,,,,,,,30,,,,,,,,2699.813462499995,2699.813462499995,2699.813462499995,2699.813462499995,2699.813462499995,up,0.5435332000488415,1,0,0,99,0.24,-0.07999999999999997,up,0.4570640000747517,,,,,,,,,,,,,,,,,,,,,,,,,,,,,,,,,,,,,,,,,,,,,,,,,,,,,,,,,,,,RXEKMV,train_x,red_square,bottom_right,2025-05-26_14h34.48.281,HideSeek_v1,2022.2.5,59.94837247328519,
,5,1,5,5,0,4,12,,train_dim1_2,4,30,,,,5,0,5,0,,,,,,,,,0,0,0,0,0,3,3,3,3,0,3,0,,,,,,,,,,,,,,,,,,,,,,,,,,,,,,,,,,,,,,,,,,,,,,,,,,,,,,,,,,,,,,,,30,,,,,,,,2700.3650682999287,2700.3650682999287,2700.3650682999287,2700.3650682999287,2700.3650682999287,up,0.526672099949792,1,0,0,99,0.24,2.7755575615628914e-17,up,0.4331174000399187,,,,,,,,,,,,,,,,,,,,,,,,,,,,,,,,,,,,,,,,,,,,,,,,,,,,,,,,,,,,RXEKMV,train_x,red_square,bottom_right,2025-05-26_14h34.48.281,HideSeek_v1,2022.2.5,59.94837247328519,
,5,1,5,5,0,4,12,,train_dim1_2,4,30,,,,5,0,5,0,,,,,,,,,0,0,0,0,0,3,3,3,4,0,4,0,,,,,,,,,,,,,,,,,,,,,,,,,,,,,,,,,,,,,,,,,,,,,,,,,,,,,,,,,,,,,,,,30,,,,,,,,2700.8987207999453,2700.8987207999453,2700.8987207999453,2700.8987207999453,2700.8987207999453,up,2.4783691000193357,1,0,0,99,0.24,0.08000000000000003,up,2.3886223000008613,,,,,,,,,,,,,,,,,,,,,,,,,,,,,,,,,,,,,,,,,,,,,,,,,,,,,,,,,,,,RXEKMV,train_x,red_square,bottom_right,2025-05-26_14h34.48.281,HideSeek_v1,2022.2.5,59.94837247328519,
,5,1,5,5,0,4,12,,train_dim1_2,4,30,,,,5,0,5,0,,,,,,,,,0,0,0,0,0,3,3,3,5,0,5,0,,,,,,,,,,,,,,,,,,,,,,,,,,,,,,,,,,,,,,,,,,,,,,,,,,,,,,,,,,,,,,,,30,,,,,,,,2703.384029399953,2703.384029399953,2703.384029399953,2703.384029399953,2703.384029399953,return,0.7935555999865755,1,1,0,0,0.24,0.08000000000000003,return,0.7013069000095129,4,-71,0.24,0.08000000000000003,,,,,,,,,,,,,,,,,,,,,,,,,,,,,,,,,,,,,,,,,,,,,,,,,,,,,,,,RXEKMV,train_x,red_square,bottom_right,2025-05-26_14h34.48.281,HideSeek_v1,2022.2.5,59.94837247328519,
,8,3,8,8,0,5,11,,train_dim1_2,5,30,,,,5,0,5,0,,,,,,,,,0,0,0,0,0,4,4,4,0,0,0,0,,,,,,,,,,,,,,,,,,,,,,,,,stimuli/alien_stimuli/11.png,,,,,,,,,,,,,,,,,,,,,,,,,,,,,stimuli/alien_stimuli/12.png,12,5,6,,,,,,,30,,,,,,,,2709.578361999942,2709.578361999942,2709.578361999942,2709.578361999942,2709.578361999942,up,1.3377461000345647,1,1,0,99,0.48,-0.08,up,1.255357899935916,,,,,2708.0192738999613,2709.578361999942,0.24,0,0.32,0.0,-0.16,0.24,0.24,0.24,0,2705.7528418999864,2705.7528418999864,2705.7528418999864,2705.7528418999864,2705.7528418999864,2705.7528418999864,2705.7528418999864,2705.7528418999864,2705.7506947399816,2.3872769000008702,return,2.2431798999896273,,,,,,,,,,,,,,,,,,,,,,,,,,,,,,,,,RXEKMV,train_x,red_square,bottom_right,2025-05-26_14h34.48.281,HideSeek_v1,2022.2.5,59.94837247328519,
,8,3,8,8,0,5,11,,train_dim1_2,5,30,,,,5,0,5,0,,,,,,,,,0,0,0,0,0,4,4,4,1,0,1,0,,,,,,,,,,,,,,,,,,,,,,,,,,,,,,,,,,,,,,,,,,,,,,,,,,,,,,,,,,,,,,,,30,,,,,,,,2710.923110899981,2710.923110899981,2710.923110899981,2710.923110899981,2710.923110899981,up,0.5933408999117091,1,1,0,99,0.48,0.0,up,0.5035847999388352,,,,,,,,,,,,,,,,,,,,,,,,,,,,,,,,,,,,,,,,,,,,,,,,,,,,,,,,,,,,RXEKMV,train_x,red_square,bottom_right,2025-05-26_14h34.48.281,HideSeek_v1,2022.2.5,59.94837247328519,
,8,3,8,8,0,5,11,,train_dim1_2,5,30,,,,5,0,5,0,,,,,,,,,0,0,0,0,0,4,4,4,2,0,2,0,,,,,,,,,,,,,,,,,,,,,,,,,,,,,,,,,,,,,,,,,,,,,,,,,,,,,,,,,,,,,,,,30,,,,,,,,2711.523279899964,2711.523279899964,2711.523279899964,2711.523279899964,2711.523279899964,up,0.5933765999507159,1,1,0,99,0.48,0.08,up,0.5086229000007734,,,,,,,,,,,,,,,,,,,,,,,,,,,,,,,,,,,,,,,,,,,,,,,,,,,,,,,,,,,,RXEKMV,train_x,red_square,bottom_right,2025-05-26_14h34.48.281,HideSeek_v1,2022.2.5,59.94837247328519,
