trialInstr,x_fixStart,y_fixStart,x_corrSteps,y_corrSteps,x_nrSteps,y_nrSteps,alienID,trialLength,version,trialTrain,praclen,testlen,trial_label,break_on_off,beforeExpLoop.thisRepN,beforeExpLoop.thisTrialN,beforeExpLoop.thisN,beforeExpLoop.thisIndex,mini_instr_trials.thisRepN,mini_instr_trials.thisTrialN,mini_instr_trials.thisN,mini_instr_trials.thisIndex,instrLoop.thisRepN,instrLoop.thisTrialN,instrLoop.thisN,instrLoop.thisIndex,repeat_prac.thisRepN,repeat_prac.thisTrialN,repeat_prac.thisN,repeat_prac.thisIndex,trainLoop.thisRepN,trainLoop.thisTrialN,trainLoop.thisN,trainLoop.thisIndex,moveLoop_train.thisRepN,moveLoop_train.thisTrialN,moveLoop_train.thisN,moveLoop_train.thisIndex,experiment.thisRepN,experiment.thisTrialN,experiment.thisN,experiment.thisIndex,moveLoop_test.thisRepN,moveLoop_test.thisTrialN,moveLoop_test.thisN,moveLoop_test.thisIndex,mini_instr2_trials.thisRepN,mini_instr2_trials.thisTrialN,mini_instr2_trials.thisN,mini_instr2_trials.thisIndex,start_all_time,url,slideStim,audioStim,slides.started,sounds.started,nextButton.numClicks,nextButton.timesOn,nextButton.timesOff,prev_but.numClicks,prev_but.timesOn,prev_but.timesOff,alienStim,instrFile,alienStim_instr,gridImage_instr.started,startPos_3.started,key_instr.started,alienImage_3.started,sounds_1.started,key_instr.keys,key_instr.rt,all_x,all_y,FBy_corrSteps,FBy_fixStart,FBx_corrSteps,FBx_fixStart,FBy_pathSize_check,FBx_pathSize_check,gridImage_9.started,alienImageFB_3.started,startPosFB_3.started,keyFB_3.started,pathLine_ydir_2.started,pathLine_xdir_2.started,alienFace_3.started,sounds_2.started,RTFB_instr,keyFB_3.keys,keyFB_3.rt,draw_alienStim,draw_alienID,test_x,nrepcount,perfthres,percthres,earlierperf,earlystop,nextPrac,fileidx,praclen,saveACC_train,pracFile,nextPrac_train,addNrep,fileidx_endr,repExp,showearly,gridImage_4.started,startPos.started,movePos.started,key_resp.started,alienImage.started,buttonPress_train,RTchoice_train,cumAcctrain,aCorr,saveACC_choice,corrAns,x_movePos_end,y_movePos_end,key_resp.keys,key_resp.rt,wLy_dir,wLx_dir,x_movePos,y_movePos,text_2.started,text_2.stopped,aft_x_corrPos,aft_y_corrPos,y_pathSize_check,x_pathSize_check,y_pathdirY,x_pathdirY,x_pathdirX,x_corrPos,y_corrPos,gridImage_6.started,alienImageFB_2.started,startPosFB_2.started,movePosFB_2.started,keyFB_2.started,pathLine_xdir.started,pathLine_ydir.started,alienFace.started,sounds_4.started,RT_FBtrain,keyFB_2.keys,keyFB_2.rt,saveACC_pre,ACC,within_saveACC_train,earlystop_wloop,cumAcctrain_check,gridImage_3.started,alienImage_test.started,startPos_test.started,movePos_test.started,key_resp_test.started,wLy_dir_test,wLx_dir_test,buttonPress_test,RTchoice_test,cumAcctest,corrAns_test,key_resp_test.keys,key_resp_test.rt,text_3.started,text_3.stopped,total_time,end_all_time,key_resp_3.keys,slides_2.started,sounds_3.started,nextButton_2.numClicks,nextButton_2.timesOn,nextButton_2.timesOff,prev_but_2.numClicks,prev_but_2.timesOn,prev_but_2.timesOff,bye.started,participant,train_first,00_coordinate,starting corner,date,expName,psychopyVersion,frameRate,
,,,,,,,,,,,,,,,0,0,0,0,0,0,0,0,,,,,,,,,,,,,,,,,,,,,,,,,,,,,start_all_time,testround,conditions/schedules/train_x_first/blue_star_00/top_left/instructions/Slide1.png,conditions/schedules/train_x_first/blue_star_00/top_left/instructions/Audio1.wav,272.5545903001912,272.5097778198775,1,[7.152114199940115],[7.1521206996403635],0,,,,,,,,,,,,,,,,,,,,,,,,,,,,,,,,,,,,,,,,,,,,,,,,,,,,,,,,,,,,,,,,,,,,,,,,,,,,,,,,,,,,,,,,,,,,,,,,,,,,,,,,,,,,,,,,,,,,,,,,,,,,T8QTJ3,train_x,blue_star,top_left,2025-02-27_17h10.59.070,HideSeek_v1,2022.2.5,59.963254517059376,
,,,,,,,,,,,,,,,0,0,0,0,1,0,1,0,,,,,,,,,,,,,,,,,,,,,,,,,,,,,,,conditions/schedules/train_x_first/blue_star_00/top_left/instructions/Slide2.png,conditions/schedules/train_x_first/blue_star_00/top_left/instructions/Audio2.wav,279.7264870000072,279.71379341986034,2,"[7.152114199940115, 36.865553400013596]","[0.00022639986127614975, 36.86556029971689]",0,,,,,,,,,,,,,,,,,,,,,,,,,,,,,,,,,,,,,,,,,,,,,,,,,,,,,,,,,,,,,,,,,,,,,,,,,,,,,,,,,,,,,,,,,,,,,,,,,,,,,,,,,,,,,,,,,,,,,,,,,,,,T8QTJ3,train_x,blue_star,top_left,2025-02-27_17h10.59.070,HideSeek_v1,2022.2.5,59.963254517059376,
,,,,,,,,,,,,,,,0,0,0,0,2,0,2,0,,,,,,,,,,,,,,,,,,,,,,,,,,,,,,,conditions/schedules/train_x_first/blue_star_00/top_left/instructions/Slide3.png,conditions/schedules/train_x_first/blue_star_00/top_left/instructions/Audio3.wav,316.6690346002579,316.66106914984994,3,"[7.152114199940115, 36.865553400013596, 16.953563999850303]","[0.00022639986127614975, 0.014041800051927567, 16.953571300022304]",0,,,,,,,,,,,,,,,,,,,,,,,,,,,,,,,,,,,,,,,,,,,,,,,,,,,,,,,,,,,,,,,,,,,,,,,,,,,,,,,,,,,,,,,,,,,,,,,,,,,,,,,,,,,,,,,,,,,,,,,,,,,,T8QTJ3,train_x,blue_star,top_left,2025-02-27_17h10.59.070,HideSeek_v1,2022.2.5,59.963254517059376,
,,,,,,,,,,,,,,,0,0,0,0,3,0,3,0,,,,,,,,,,,,,,,,,,,,,,,,,,,,,,,conditions/schedules/train_x_first/blue_star_00/top_left/instructions/Slide4.png,conditions/schedules/train_x_first/blue_star_00/top_left/instructions/Audio4.wav,333.7018000003882,333.69187115016393,4,"[7.152114199940115, 36.865553400013596, 16.953563999850303, 19.486990800127387]","[0.00022639986127614975, 0.014041800051927567, 0.05471740011125803, 19.486997100058943]",0,,,,,,,,,,,,,,,,,,,,,,,,,,,,,,,,,,,,,,,,,,,,,,,,,,,,,,,,,,,,,,,,,,,,,,,,,,,,,,,,,,,,,,,,,,,,,,,,,,,,,,,,,,,,,,,,,,,,,,,,,,,,T8QTJ3,train_x,blue_star,top_left,2025-02-27_17h10.59.070,HideSeek_v1,2022.2.5,59.963254517059376,
,,,,,,,,,,,,,,,0,0,0,0,4,0,4,0,,,,,,,,,,,,,,,,,,,,,,,,,,,,,,,conditions/schedules/train_x_first/blue_star_00/top_left/instructions/Slide5.png,conditions/schedules/train_x_first/blue_star_00/top_left/instructions/Audio5.wav,353.25852140039206,353.25802245014347,5,"[7.152114199940115, 36.865553400013596, 16.953563999850303, 19.486990800127387, 4.7009825999848545]","[0.00022639986127614975, 0.014041800051927567, 0.05471740011125803, 0.04724919982254505, 4.700990200042725]",0,,,,,,,,,,,,,,,,,,,,,,,,,,,,,,,,,,,,,,,,,,,,,,,,,,,,,,,,,,,,,,,,,,,,,,,,,,,,,,,,,,,,,,,,,,,,,,,,,,,,,,,,,,,,,,,,,,,,,,,,,,,,T8QTJ3,train_x,blue_star,top_left,2025-02-27_17h10.59.070,HideSeek_v1,2022.2.5,59.963254517059376,
,,,,,,,,,,,,,,,0,0,0,0,5,0,5,0,,,,,,,,,,,,,,,,,,,,,,,,,,,,,,,conditions/schedules/train_x_first/blue_star_00/top_left/instructions/Slide6.png,conditions/schedules/train_x_first/blue_star_00/top_left/instructions/Audio6.wav,358.01056940015405,358.0119297202677,6,"[7.152114199940115, 36.865553400013596, 16.953563999850303, 19.486990800127387, 4.7009825999848545, 4.935915799811482]","[0.00022639986127614975, 0.014041800051927567, 0.05471740011125803, 0.04724919982254505, 0.04871369991451502, 4.935922099743038]",0,,,,,,,,,,,,,,,,,,,,,,,,,,,,,,,,,,,,,,,,,,,,,,,,,,,,,,,,,,,,,,,,,,,,,,,,,,,,,,,,,,,,,,,,,,,,,,,,,,,,,,,,,,,,,,,,,,,,,,,,,,,,T8QTJ3,train_x,blue_star,top_left,2025-02-27_17h10.59.070,HideSeek_v1,2022.2.5,59.963254517059376,
,,,,,,,,,,,,,,,0,0,0,0,6,0,6,0,,,,,,,,,,,,,,,,,,,,,,,,,,,,,,,conditions/schedules/train_x_first/blue_star_00/top_left/instructions/Slide7.png,conditions/schedules/train_x_first/blue_star_00/top_left/instructions/Audio7.wav,362.9976576003246,362.9993522200734,7,"[7.152114199940115, 36.865553400013596, 16.953563999850303, 19.486990800127387, 4.7009825999848545, 4.935915799811482, 5.737460299860686]","[0.00022639986127614975, 0.014041800051927567, 0.05471740011125803, 0.04724919982254505, 0.04871369991451502, 0.06598189985379577, 5.737466900143772]",0,,,,,,,,,,,,,,,,,,,,,,,,,,,,,,,,,,,,,,,,,,,,,,,,,,,,,,,,,,,,,,,,,,,,,,,,,,,,,,,,,,,,,,,,,,,,,,,,,,,,,,,,,,,,,,,,,,,,,,,,,,,,T8QTJ3,train_x,blue_star,top_left,2025-02-27_17h10.59.070,HideSeek_v1,2022.2.5,59.963254517059376,
,,,,,,,,,,,,,,,0,0,0,0,7,0,7,0,,,,,,,,,,,,,,,,,,,,,,,,,,,,,,,conditions/schedules/train_x_first/blue_star_00/top_left/instructions/Slide8.png,conditions/schedules/train_x_first/blue_star_00/top_left/instructions/Audio8.wav,368.7882331004366,368.78775862008337,8,"[7.152114199940115, 36.865553400013596, 16.953563999850303, 19.486990800127387, 4.7009825999848545, 4.935915799811482, 5.737460299860686, 11.890086600091308]","[0.00022639986127614975, 0.014041800051927567, 0.05471740011125803, 0.04724919982254505, 0.04871369991451502, 0.06598189985379577, 0.09652769984677434, 11.890094500035048]",0,,,,,,,,,,,,,,,,,,,,,,,,,,,,,,,,,,,,,,,,,,,,,,,,,,,,,,,,,,,,,,,,,,,,,,,,,,,,,,,,,,,,,,,,,,,,,,,,,,,,,,,,,,,,,,,,,,,,,,,,,,,,T8QTJ3,train_x,blue_star,top_left,2025-02-27_17h10.59.070,HideSeek_v1,2022.2.5,59.963254517059376,
,,,,,,,,,,,,,,,0,0,0,0,8,0,8,0,,,,,,,,,,,,,,,,,,,,,,,,,,,,,,,conditions/schedules/train_x_first/blue_star_00/top_left/instructions/Slide9.png,conditions/schedules/train_x_first/blue_star_00/top_left/instructions/Audio9.wav,380.747159300372,380.74767754995264,9,"[7.152114199940115, 36.865553400013596, 16.953563999850303, 19.486990800127387, 4.7009825999848545, 4.935915799811482, 5.737460299860686, 11.890086600091308, 6.11906799999997]","[0.00022639986127614975, 0.014041800051927567, 0.05471740011125803, 0.04724919982254505, 0.04871369991451502, 0.06598189985379577, 0.09652769984677434, 0.03114739991724491, 6.119074299931526]",0,,,,,,,,,,,,,,,,,,,,,,,,,,,,,,,,,,,,,,,,,,,,,,,,,,,,,,,,,,,,,,,,,,,,,,,,,,,,,,,,,,,,,,,,,,,,,,,,,,,,,,,,,,,,,,,,,,,,,,,,,,,,T8QTJ3,train_x,blue_star,top_left,2025-02-27_17h10.59.070,HideSeek_v1,2022.2.5,59.963254517059376,
,,,,,,,,,,,,,,,0,0,0,0,9,0,9,0,,,,,,,,,,,,,,,,,,,,,,,,,,,,,,,conditions/schedules/train_x_first/blue_star_00/top_left/instructions/Slide10.png,conditions/schedules/train_x_first/blue_star_00/top_left/instructions/Audio10.wav,386.92095370031893,386.9189508199692,10,"[7.152114199940115, 36.865553400013596, 16.953563999850303, 19.486990800127387, 4.7009825999848545, 4.935915799811482, 5.737460299860686, 11.890086600091308, 6.11906799999997, 7.2349097998812795]","[0.00022639986127614975, 0.014041800051927567, 0.05471740011125803, 0.04724919982254505, 0.04871369991451502, 0.06598189985379577, 0.09652769984677434, 0.03114739991724491, 0.04597839992493391, 7.234916899818927]",0,,,,,,,,,,,,,,,,,,,,,,,,,,,,,,,,,,,,,,,,,,,,,,,,,,,,,,,,,,,,,,,,,,,,,,,,,,,,,,,,,,,,,,,,,,,,,,,,,,,,,,,,,,,,,,,,,,,,,,,,,,,,T8QTJ3,train_x,blue_star,top_left,2025-02-27_17h10.59.070,HideSeek_v1,2022.2.5,59.963254517059376,
,,,,,,,,,,,,,,,0,0,0,0,10,0,10,0,,,,,,,,,,,,,,,,,,,,,,,,,,,,,,,conditions/schedules/train_x_first/blue_star_00/top_left/instructions/Slide11.png,conditions/schedules/train_x_first/blue_star_00/top_left/instructions/Audio11.wav,394.22889100015163,394.22550555015914,11,"[7.152114199940115, 36.865553400013596, 16.953563999850303, 19.486990800127387, 4.7009825999848545, 4.935915799811482, 5.737460299860686, 11.890086600091308, 6.11906799999997, 7.2349097998812795, 9.735464500263333]","[0.00022639986127614975, 0.014041800051927567, 0.05471740011125803, 0.04724919982254505, 0.04871369991451502, 0.06598189985379577, 0.09652769984677434, 0.03114739991724491, 0.04597839992493391, 0.03066800022497773, 9.735471399966627]",0,,,,,,,,,,,,,,,,,,,,,,,,,,,,,,,,,,,,,,,,,,,,,,,,,,,,,,,,,,,,,,,,,,,,,,,,,,,,,,,,,,,,,,,,,,,,,,,,,,,,,,,,,,,,,,,,,,,,,,,,,,,,T8QTJ3,train_x,blue_star,top_left,2025-02-27_17h10.59.070,HideSeek_v1,2022.2.5,59.963254517059376,
,,,,,,,,,,,,,,,0,0,0,0,11,0,11,0,,,,,,,,,,,,,,,,,,,,,,,,,,,,,,,conditions/schedules/train_x_first/blue_star_00/top_left/instructions/Slide12.png,conditions/schedules/train_x_first/blue_star_00/top_left/instructions/Audio12.wav,404.01836430002004,404.01674702027816,12,"[7.152114199940115, 36.865553400013596, 16.953563999850303, 19.486990800127387, 4.7009825999848545, 4.935915799811482, 5.737460299860686, 11.890086600091308, 6.11906799999997, 7.2349097998812795, 9.735464500263333, 13.00691770017147]","[0.00022639986127614975, 0.014041800051927567, 0.05471740011125803, 0.04724919982254505, 0.04871369991451502, 0.06598189985379577, 0.09652769984677434, 0.03114739991724491, 0.04597839992493391, 0.03066800022497773, 0.06302870018407702, 13.006926600355655]",0,,,,,,,,,,,,,,,,,,,,,,,,,,,,,,,,,,,,,,,,,,,,,,,,,,,,,,,,,,,,,,,,,,,,,,,,,,,,,,,,,,,,,,,,,,,,,,,,,,,,,,,,,,,,,,,,,,,,,,,,,,,,T8QTJ3,train_x,blue_star,top_left,2025-02-27_17h10.59.070,HideSeek_v1,2022.2.5,59.963254517059376,
1,4,5,9,5,5,0,11,2,instr_dim1_1,,,,,,0,0,0,0,,,,,0,0,0,0,,,,,,,,,,,,,,,,,,,,,,,,,,,,,,,,,,,,,stimuli/alien_stimuli/11.png,conditions/schedules/train_x_first/blue_star_00/top_left/inputInstr_1.xlsx,stimuli/alien_stimuli/11.png,417.1309729004279,417.1309729004279,417.1309729004279,417.1309729004279,417.1278226101306,return,9.164300899486989,"[-0.16, -0.08, 0, 0.08, 0.16, 0.24, 0.32, 0.4, 0.48, 0.56]","[-0.4, -0.32, -0.24, -0.16, -0.08, 0, 0.08, 0.16, 0.24, 0.32]",5,5,9,4,0.0,0.4,426.44869150035083,426.44869150035083,426.44869150035083,426.44869150035083,426.44869150035083,426.44869150035083,426.44869150035083,426.4354421400465,9.775705500040203,return,9.624706499744207,stimuli/alien_stimuli/11.png,11,4,1,,,,,,,,,,,,,,,,,,,,,,,,,,,,,,,,,,,,,,,,,,,,,,,,,,,,,,,,,,,,,,,,,,,,,,,,,,,,,,,,,,,,,,,,,T8QTJ3,train_x,blue_star,top_left,2025-02-27_17h10.59.070,HideSeek_v1,2022.2.5,59.963254517059376,
,,,,,,,,,,,30,,,,0,0,0,0,,,,,,,,,,,,,,,,,,,,,,,,,,,,,,,,,,,,,,,,,,,,,,,,,,,,,,,,,,,,,,,,,,,,,,,,,,,,,,21,0.7,0,0,99,1,30,0,conditions/schedules/train_x_first/blue_star_00/top_left/inputTrain_1.1.xlsx,99,1,1,1,0,,,,,,,,,,,,,,,,,,,,,,,,,,,,,,,,,,,,,,,,,,,,,,,,,,,,,,,,,,,,,,,,,,,,,,,,,,,T8QTJ3,train_x,blue_star,top_left,2025-02-27_17h10.59.070,HideSeek_v1,2022.2.5,59.963254517059376,
,,,,,,,,,,,,,,,1,0,1,0,0,0,0,0,,,,,,,,,,,,,,,,,,,,,,,,,,,,,,,conditions/schedules/train_x_first/blue_star_00/top_left/instructions/Slide13.png,conditions/schedules/train_x_first/blue_star_00/top_left/instructions/Audio13.wav,436.22258430020884,436.21032683989034,13,"[7.152114199940115, 36.865553400013596, 16.953563999850303, 19.486990800127387, 4.7009825999848545, 4.935915799811482, 5.737460299860686, 11.890086600091308, 6.11906799999997, 7.2349097998812795, 9.735464500263333, 13.00691770017147, 18.6507804999128]","[0.00022639986127614975, 0.014041800051927567, 0.05471740011125803, 0.04724919982254505, 0.04871369991451502, 0.06598189985379577, 0.09652769984677434, 0.03114739991724491, 0.04597839992493391, 0.03066800022497773, 0.06302870018407702, 13.006926600355655, 18.650787399616092]",0,,,,,,,,,,,,,,,,,,,,,,,,,,,,,,,,,,,,,,,,,,,,,,,,,,,,,,,,,,,,,,,,,,,,,,,,,,,,,,,,,,,,,,,,,,,,,,,,,,,,,,,,,,,,,,,,,,,,,,,,,,,,T8QTJ3,train_x,blue_star,top_left,2025-02-27_17h10.59.070,HideSeek_v1,2022.2.5,59.963254517059376,
,,,,,,,,,,,,,,,1,0,1,0,1,0,1,0,,,,,,,,,,,,,,,,,,,,,,,,,,,,,,,conditions/schedules/train_x_first/blue_star_00/top_left/instructions/Slide14.png,conditions/schedules/train_x_first/blue_star_00/top_left/instructions/Audio14.wav,454.9408044000156,454.94227805011906,14,"[7.152114199940115, 36.865553400013596, 16.953563999850303, 19.486990800127387, 4.7009825999848545, 4.935915799811482, 5.737460299860686, 11.890086600091308, 6.11906799999997, 7.2349097998812795, 9.735464500263333, 13.00691770017147, 18.6507804999128, 12.926621799822897]","[0.00022639986127614975, 0.014041800051927567, 0.05471740011125803, 0.04724919982254505, 0.04871369991451502, 0.06598189985379577, 0.09652769984677434, 0.03114739991724491, 0.04597839992493391, 0.03066800022497773, 0.06302870018407702, 13.006926600355655, 0.0990630998276174, 12.92662959964946]",0,,,,,,,,,,,,,,,,,,,,,,,,,,,,,,,,,,,,,,,,,,,,,,,,,,,,,,,,,,,,,,,,,,,,,,,,,,,,,,,,,,,,,,,,,,,,,,,,,,,,,,,,,,,,,,,,,,,,,,,,,,,,T8QTJ3,train_x,blue_star,top_left,2025-02-27_17h10.59.070,HideSeek_v1,2022.2.5,59.963254517059376,
2,3,7,3,7,0,0,61,2,instr_dim1_1,,,,,,1,0,1,0,,,,,0,0,0,0,,,,,,,,,,,,,,,,,,,,,,,,,,,,,,,,,,,,,stimuli/alien_stimuli/61.png,conditions/schedules/train_x_first/blue_star_00/top_left/inputInstr_1.xlsx,stimuli/alien_stimuli/61.png,467.9670184003189,467.9670184003189,467.9670184003189,467.9670184003189,467.95305968020114,return,6.821631399448961,"[-0.16, -0.08, 0, 0.08, 0.16, 0.24, 0.32, 0.4, 0.48, 0.56]","[-0.4, -0.32, -0.24, -0.16, -0.08, 0, 0.08, 0.16, 0.24, 0.32]",7,7,3,3,0.0,0.0,474.9381551002152,474.9381551002152,474.9381551002152,474.9381551002152,474.9381551002152,474.9381551002152,474.9381551002152,474.9255040401593,6.289371200371534,return,6.138882800005376,stimuli/alien_stimuli/61.png,61,3,2,,,,,,,,,,,,,,,,,,,,,,,,,,,,,,,,,,,,,,,,,,,,,,,,,,,,,,,,,,,,,,,,,,,,,,,,,,,,,,,,,,,,,,,,,T8QTJ3,train_x,blue_star,top_left,2025-02-27_17h10.59.070,HideSeek_v1,2022.2.5,59.963254517059376,
,,,,,,,,,,,30,,,,1,0,1,0,,,,,,,,,,,,,,,,,,,,,,,,,,,,,,,,,,,,,,,,,,,,,,,,,,,,,,,,,,,,,,,,,,,,,,,,,,,,,,21,0.7,0,0,99,1,30,0,conditions/schedules/train_x_first/blue_star_00/top_left/inputTrain_1.1.xlsx,99,1,1,1,0,,,,,,,,,,,,,,,,,,,,,,,,,,,,,,,,,,,,,,,,,,,,,,,,,,,,,,,,,,,,,,,,,,,,,,,,,,,T8QTJ3,train_x,blue_star,top_left,2025-02-27_17h10.59.070,HideSeek_v1,2022.2.5,59.963254517059376,
,,,,,,,,,,,,,,,2,0,2,0,0,0,0,0,,,,,,,,,,,,,,,,,,,,,,,,,,,,,,,conditions/schedules/train_x_first/blue_star_00/top_left/instructions/Slide15.png,conditions/schedules/train_x_first/blue_star_00/top_left/instructions/Audio15.wav,481.2333131004125,481.2310355700087,15,"[7.152114199940115, 36.865553400013596, 16.953563999850303, 19.486990800127387, 4.7009825999848545, 4.935915799811482, 5.737460299860686, 11.890086600091308, 6.11906799999997, 7.2349097998812795, 9.735464500263333, 13.00691770017147, 18.6507804999128, 12.926621799822897, 31.320159600116313]","[0.00022639986127614975, 0.014041800051927567, 0.05471740011125803, 0.04724919982254505, 0.04871369991451502, 0.06598189985379577, 0.09652769984677434, 0.03114739991724491, 0.04597839992493391, 0.03066800022497773, 0.06302870018407702, 13.006926600355655, 0.0990630998276174, 12.92662959964946, 31.3201662003994]",0,,,,,,,,,,,,,,,,,,,,,,,,,,,,,,,,,,,,,,,,,,,,,,,,,,,,,,,,,,,,,,,,,,,,,,,,,,,,,,,,,,,,,,,,,,,,,,,,,,,,,,,,,,,,,,,,,,,,,,,,,,,,T8QTJ3,train_x,blue_star,top_left,2025-02-27_17h10.59.070,HideSeek_v1,2022.2.5,59.963254517059376,
,,,,,,,,,,,,,,,2,0,2,0,1,0,1,0,,,,,,,,,,,,,,,,,,,,,,,,,,,,,,,conditions/schedules/train_x_first/blue_star_00/top_left/instructions/Slide16.png,conditions/schedules/train_x_first/blue_star_00/top_left/instructions/Audio16.wav,512.6271049003117,512.6234805502463,16,"[7.152114199940115, 36.865553400013596, 16.953563999850303, 19.486990800127387, 4.7009825999848545, 4.935915799811482, 5.737460299860686, 11.890086600091308, 6.11906799999997, 7.2349097998812795, 9.735464500263333, 13.00691770017147, 18.6507804999128, 12.926621799822897, 31.320159600116313, 21.211451599840075]","[0.00022639986127614975, 0.014041800051927567, 0.05471740011125803, 0.04724919982254505, 0.04871369991451502, 0.06598189985379577, 0.09652769984677434, 0.03114739991724491, 0.04597839992493391, 0.03066800022497773, 0.06302870018407702, 13.006926600355655, 0.0990630998276174, 12.92662959964946, 0.03026650007814169, 21.211458299774677]",0,,,,,,,,,,,,,,,,,,,,,,,,,,,,,,,,,,,,,,,,,,,,,,,,,,,,,,,,,,,,,,,,,,,,,,,,,,,,,,,,,,,,,,,,,,,,,,,,,,,,,,,,,,,,,,,,,,,,,,,,,,,,T8QTJ3,train_x,blue_star,top_left,2025-02-27_17h10.59.070,HideSeek_v1,2022.2.5,59.963254517059376,
,2,6,5,6,3,0,31,,train_dim1_1,1,30,,,,2,0,2,0,,,,,,,,,0,0,0,0,0,0,0,0,0,0,0,0,,,,,,,,,,,,,,,,,,,,,,,,,stimuli/alien_stimuli/31.png,,,,,,,,,,,,,,,,,,,,,,,,,,,,,,,,,,,,,,,30,,,,,,,,533.9367592004128,533.9367592004128,533.9367592004128,533.9367592004128,533.9367592004128,right,7.785714999772608,0,0,0,99,0.08,0.08,right,7.683488499838859,,,,,,,,,,,,,,,,,,,,,,,,,,,,,,,,,,,,,,,,,,,,,,,,,,,,,,,,,,,,T8QTJ3,train_x,blue_star,top_left,2025-02-27_17h10.59.070,HideSeek_v1,2022.2.5,59.963254517059376,
,2,6,5,6,3,0,31,,train_dim1_1,1,30,,,,2,0,2,0,,,,,,,,,0,0,0,0,0,0,0,0,1,0,1,0,,,,,,,,,,,,,,,,,,,,,,,,,,,,,,,,,,,,,,,,,,,,,,,,,,,,,,,,,,,,,,,,30,,,,,,,,541.711563100107,541.711563100107,541.711563100107,541.711563100107,541.711563100107,right,4.313266200013459,0,0,0,99,0.16,0.08,right,4.229837500024587,,,,,,,,,,,,,,,,,,,,,,,,,,,,,,,,,,,,,,,,,,,,,,,,,,,,,,,,,,,,T8QTJ3,train_x,blue_star,top_left,2025-02-27_17h10.59.070,HideSeek_v1,2022.2.5,59.963254517059376,
,2,6,5,6,3,0,31,,train_dim1_1,1,30,,,,2,0,2,0,,,,,,,,,0,0,0,0,0,0,0,0,2,0,2,0,,,,,,,,,,,,,,,,,,,,,,,,,,,,,,,,,,,,,,,,,,,,,,,,,,,,,,,,,,,,,,,,30,,,,,,,,546.0322885001078,546.0322885001078,546.0322885001078,546.0322885001078,546.0322885001078,right,5.4475350002758205,0,0,0,99,0.24,0.08,right,5.363137200009078,,,,,,,,,,,,,,,,,,,,,,,,,,,,,,,,,,,,,,,,,,,,,,,,,,,,,,,,,,,,T8QTJ3,train_x,blue_star,top_left,2025-02-27_17h10.59.070,HideSeek_v1,2022.2.5,59.963254517059376,
,2,6,5,6,3,0,31,,train_dim1_1,1,30,,,,2,0,2,0,,,,,,,,,0,0,0,0,0,0,0,0,3,0,3,0,,,,,,,,,,,,,,,,,,,,,,,,,,,,,,,,,,,,,,,,,,,,,,,,,,,,,,,,,,,,,,,,30,,,,,,,,551.4861626001075,551.4861626001075,551.4861626001075,551.4861626001075,551.4861626001075,down,1.7109813997521996,0,0,0,99,0.24,0.0,down,1.6332212998531759,,,,,,,,,,,,,,,,,,,,,,,,,,,,,,,,,,,,,,,,,,,,,,,,,,,,,,,,,,,,T8QTJ3,train_x,blue_star,top_left,2025-02-27_17h10.59.070,HideSeek_v1,2022.2.5,59.963254517059376,
,2,6,5,6,3,0,31,,train_dim1_1,1,30,,,,2,0,2,0,,,,,,,,,0,0,0,0,0,0,0,0,4,0,4,0,,,,,,,,,,,,,,,,,,,,,,,,,,,,,,,,,,,,,,,,,,,,,,,,,,,,,,,,,,,,,,,,30,,,,,,,,553.2076949002221,553.2076949002221,553.2076949002221,553.2076949002221,553.2076949002221,down,2.358551900368184,0,0,0,99,0.24,-0.08,down,2.2784944996237755,,,,,,,,,,,,,,,,,,,,,,,,,,,,,,,,,,,,,,,,,,,,,,,,,,,,,,,,,,,,T8QTJ3,train_x,blue_star,top_left,2025-02-27_17h10.59.070,HideSeek_v1,2022.2.5,59.963254517059376,
,2,6,5,6,3,0,31,,train_dim1_1,1,30,,,,2,0,2,0,,,,,,,,,0,0,0,0,0,0,0,0,5,0,5,0,,,,,,,,,,,,,,,,,,,,,,,,,,,,,,,,,,,,,,,,,,,,,,,,,,,,,,,,,,,,,,,,30,,,,,,,,555.5729191000573,555.5729191000573,555.5729191000573,555.5729191000573,555.5729191000573,right,1.3101622997783124,0,0,0,99,0.32,-0.08,right,1.225448299665004,,,,,,,,,,,,,,,,,,,,,,,,,,,,,,,,,,,,,,,,,,,,,,,,,,,,,,,,,,,,T8QTJ3,train_x,blue_star,top_left,2025-02-27_17h10.59.070,HideSeek_v1,2022.2.5,59.963254517059376,
,2,6,5,6,3,0,31,,train_dim1_1,1,30,,,,2,0,2,0,,,,,,,,,0,0,0,0,0,0,0,0,6,0,6,0,,,,,,,,,,,,,,,,,,,,,,,,,,,,,,,,,,,,,,,,,,,,,,,,,,,,,,,,,,,,,,,,30,,,,,,,,556.8896618001163,556.8896618001163,556.8896618001163,556.8896618001163,556.8896618001163,right,1.8947673998773098,0,0,0,99,0.4,-0.08,right,1.8220168999396265,,,,,,,,,,,,,,,,,,,,,,,,,,,,,,,,,,,,,,,,,,,,,,,,,,,,,,,,,,,,T8QTJ3,train_x,blue_star,top_left,2025-02-27_17h10.59.070,HideSeek_v1,2022.2.5,59.963254517059376,
,2,6,5,6,3,0,31,,train_dim1_1,1,30,,,,2,0,2,0,,,,,,,,,0,0,0,0,0,0,0,0,7,0,7,0,,,,,,,,,,,,,,,,,,,,,,,,,,,,,,,,,,,,,,,,,,,,,,,,,,,,,,,,,,,,,,,,30,,,,,,,,558.791362600401,558.791362600401,558.791362600401,558.791362600401,558.791362600401,return,1.2934521003626287,0,0,0,0,0.4,-0.08,return,1.2110524997115135,-2,5,0.4,-0.08,,,,,,,,,,,,,,,,,,,,,,,,,,,,,,,,,,,,,,,,,,,,,,,,,,,,,,,,T8QTJ3,train_x,blue_star,top_left,2025-02-27_17h10.59.070,HideSeek_v1,2022.2.5,59.963254517059376,
,2,9,7,9,5,0,11,,train_dim1_1,2,30,,,,2,0,2,0,,,,,,,,,0,0,0,0,0,1,1,1,0,0,0,0,,,,,,,,,,,,,,,,,,,,,,,,,stimuli/alien_stimuli/11.png,,,,,,,,,,,,,,,,,,,,,,,,,,,,,stimuli/alien_stimuli/31.png,31,2,3,,,,,,,30,,,,,,,,589.6789195002057,589.6789195002057,589.6789195002057,589.6789195002057,589.6789195002057,down,5.609467800240964,0,0,0,99,0,0.24,down,5.51157799968496,,,,,588.1028873003088,589.6789195002057,0.24,0.08,0.0,0.24,0.08,0.24,0.12,0.24,0.08,561.6597497002222,561.6597497002222,561.6597497002222,561.6597497002222,561.6597497002222,561.6597497002222,561.6597497002222,561.6597497002222,561.6475028098096,26.557675700169057,return,26.418040099553764,,,,,,,,,,,,,,,,,,,,,,,,,,,,,,,,,T8QTJ3,train_x,blue_star,top_left,2025-02-27_17h10.59.070,HideSeek_v1,2022.2.5,59.963254517059376,
,2,9,7,9,5,0,11,,train_dim1_1,2,30,,,,2,0,2,0,,,,,,,,,0,0,0,0,0,1,1,1,1,0,1,0,,,,,,,,,,,,,,,,,,,,,,,,,,,,,,,,,,,,,,,,,,,,,,,,,,,,,,,,,,,,,,,,30,,,,,,,,595.2778896000236,595.2778896000236,595.2778896000236,595.2778896000236,595.2778896000236,down,1.543035099748522,0,0,0,99,0,0.15999999999999998,down,1.4636990996077657,,,,,,,,,,,,,,,,,,,,,,,,,,,,,,,,,,,,,,,,,,,,,,,,,,,,,,,,,,,,T8QTJ3,train_x,blue_star,top_left,2025-02-27_17h10.59.070,HideSeek_v1,2022.2.5,59.963254517059376,
,2,9,7,9,5,0,11,,train_dim1_1,2,30,,,,2,0,2,0,,,,,,,,,0,0,0,0,0,1,1,1,2,0,2,0,,,,,,,,,,,,,,,,,,,,,,,,,,,,,,,,,,,,,,,,,,,,,,,,,,,,,,,,,,,,,,,,30,,,,,,,,596.8271755999885,596.8271755999885,596.8271755999885,596.8271755999885,596.8271755999885,right,1.7777927001006901,0,0,0,99,0.08,0.15999999999999998,right,1.6872796998359263,,,,,,,,,,,,,,,,,,,,,,,,,,,,,,,,,,,,,,,,,,,,,,,,,,,,,,,,,,,,T8QTJ3,train_x,blue_star,top_left,2025-02-27_17h10.59.070,HideSeek_v1,2022.2.5,59.963254517059376,
,2,9,7,9,5,0,11,,train_dim1_1,2,30,,,,2,0,2,0,,,,,,,,,0,0,0,0,0,1,1,1,3,0,3,0,,,,,,,,,,,,,,,,,,,,,,,,,,,,,,,,,,,,,,,,,,,,,,,,,,,,,,,,,,,,,,,,30,,,,,,,,598.610906300135,598.610906300135,598.610906300135,598.610906300135,598.610906300135,right,1.3775663999840617,0,0,0,99,0.16,0.15999999999999998,right,1.2933693998493254,,,,,,,,,,,,,,,,,,,,,,,,,,,,,,,,,,,,,,,,,,,,,,,,,,,,,,,,,,,,T8QTJ3,train_x,blue_star,top_left,2025-02-27_17h10.59.070,HideSeek_v1,2022.2.5,59.963254517059376,
,2,9,7,9,5,0,11,,train_dim1_1,2,30,,,,2,0,2,0,,,,,,,,,0,0,0,0,0,1,1,1,4,0,4,0,,,,,,,,,,,,,,,,,,,,,,,,,,,,,,,,,,,,,,,,,,,,,,,,,,,,,,,,,,,,,,,,30,,,,,,,,599.9960549003445,599.9960549003445,599.9960549003445,599.9960549003445,599.9960549003445,right,0.6437197998166084,0,0,0,99,0.24,0.15999999999999998,right,0.5560084995813668,,,,,,,,,,,,,,,,,,,,,,,,,,,,,,,,,,,,,,,,,,,,,,,,,,,,,,,,,,,,T8QTJ3,train_x,blue_star,top_left,2025-02-27_17h10.59.070,HideSeek_v1,2022.2.5,59.963254517059376,
,2,9,7,9,5,0,11,,train_dim1_1,2,30,,,,2,0,2,0,,,,,,,,,0,0,0,0,0,1,1,1,5,0,5,0,,,,,,,,,,,,,,,,,,,,,,,,,,,,,,,,,,,,,,,,,,,,,,,,,,,,,,,,,,,,,,,,30,,,,,,,,600.6474258000962,600.6474258000962,600.6474258000962,600.6474258000962,600.6474258000962,return,1.8945797001942992,0,0,0,0,0.24,0.15999999999999998,return,1.8061935994774103,-4,8,0.24,0.15999999999999998,,,,,,,,,,,,,,,,,,,,,,,,,,,,,,,,,,,,,,,,,,,,,,,,,,,,,,,,T8QTJ3,train_x,blue_star,top_left,2025-02-27_17h10.59.070,HideSeek_v1,2022.2.5,59.963254517059376,
,4,9,8,9,4,0,21,,train_dim1_1,3,30,,,,2,0,2,0,,,,,,,,,0,0,0,0,0,2,2,2,0,0,0,0,,,,,,,,,,,,,,,,,,,,,,,,,stimuli/alien_stimuli/21.png,,,,,,,,,,,,,,,,,,,,,,,,,,,,,stimuli/alien_stimuli/11.png,11,2,4,,,,,,,30,,,,,,,,616.8897200003266,616.8897200003266,616.8897200003266,616.8897200003266,616.8897200003266,left,6.177459100261331,0,0,0,99,0.08,0.32,left,6.065417499747127,,,,,615.3086693002842,616.8897200003266,0.4,0.32,0.0,0.4,0.32,0.4,0.2,0.4,0.32,604.1276110000908,604.1276110000908,604.1276110000908,604.1276110000908,604.1276110000908,604.1276110000908,604.1276110000908,604.1276110000908,604.1162069399842,11.311992599628866,return,11.159481899812818,,,,,,,,,,,,,,,,,,,,,,,,,,,,,,,,,T8QTJ3,train_x,blue_star,top_left,2025-02-27_17h10.59.070,HideSeek_v1,2022.2.5,59.963254517059376,
,4,9,8,9,4,0,21,,train_dim1_1,3,30,,,,2,0,2,0,,,,,,,,,0,0,0,0,0,2,2,2,1,0,1,0,,,,,,,,,,,,,,,,,,,,,,,,,,,,,,,,,,,,,,,,,,,,,,,,,,,,,,,,,,,,,,,,30,,,,,,,,623.0570607003756,623.0570607003756,623.0570607003756,623.0570607003756,623.0570607003756,left,0.8379454002715647,0,0,0,99,0.0,0.32,left,0.7450636997818947,,,,,,,,,,,,,,,,,,,,,,,,,,,,,,,,,,,,,,,,,,,,,,,,,,,,,,,,,,,,T8QTJ3,train_x,blue_star,top_left,2025-02-27_17h10.59.070,HideSeek_v1,2022.2.5,59.963254517059376,
,4,9,8,9,4,0,21,,train_dim1_1,3,30,,,,2,0,2,0,,,,,,,,,0,0,0,0,0,2,2,2,2,0,2,0,,,,,,,,,,,,,,,,,,,,,,,,,,,,,,,,,,,,,,,,,,,,,,,,,,,,,,,,,,,,,,,,30,,,,,,,,623.8991836002097,623.8991836002097,623.8991836002097,623.8991836002097,623.8991836002097,left,1.0270254998467863,0,0,0,99,-0.08,0.32,left,0.9405933995731175,,,,,,,,,,,,,,,,,,,,,,,,,,,,,,,,,,,,,,,,,,,,,,,,,,,,,,,,,,,,T8QTJ3,train_x,blue_star,top_left,2025-02-27_17h10.59.070,HideSeek_v1,2022.2.5,59.963254517059376,
,4,9,8,9,4,0,21,,train_dim1_1,3,30,,,,2,0,2,0,,,,,,,,,0,0,0,0,0,2,2,2,3,0,3,0,,,,,,,,,,,,,,,,,,,,,,,,,,,,,,,,,,,,,,,,,,,,,,,,,,,,,,,,,,,,,,,,30,,,,,,,,624.9337170002982,624.9337170002982,624.9337170002982,624.9337170002982,624.9337170002982,return,1.3439160999841988,0,0,0,0,-0.08,0.32,return,1.2610962996259332,-4,5,-0.08,0.32,,,,,,,,,,,,,,,,,,,,,,,,,,,,,,,,,,,,,,,,,,,,,,,,,,,,,,,,T8QTJ3,train_x,blue_star,top_left,2025-02-27_17h10.59.070,HideSeek_v1,2022.2.5,59.963254517059376,
,2,8,3,8,1,0,51,,train_dim1_1,4,30,,,,2,0,2,0,,,,,,,,,0,0,0,0,0,3,3,3,0,0,0,0,,,,,,,,,,,,,,,,,,,,,,,,,stimuli/alien_stimuli/51.png,,,,,,,,,,,,,,,,,,,,,,,,,,,,,stimuli/alien_stimuli/21.png,21,4,5,,,,,,,30,,,,,,,,640.1058420999907,640.1058420999907,640.1058420999907,640.1058420999907,640.1058420999907,right,7.393629999831319,0,0,0,99,0.08,0.24,right,7.282257399987429,,,,,638.5279064001516,640.1058420999907,0.48,0.32,0.0,0.32,0.32,0.48,0.32,0.48,0.32,627.8610632000491,627.8610632000491,627.8610632000491,627.8610632000491,627.8610632000491,627.8610632000491,627.8610632000491,627.8610632000491,627.8523869399913,10.794702500104904,return,10.634828200098127,,,,,,,,,,,,,,,,,,,,,,,,,,,,,,,,,T8QTJ3,train_x,blue_star,top_left,2025-02-27_17h10.59.070,HideSeek_v1,2022.2.5,59.963254517059376,
,2,8,3,8,1,0,51,,train_dim1_1,4,30,,,,2,0,2,0,,,,,,,,,0,0,0,0,0,3,3,3,1,0,1,0,,,,,,,,,,,,,,,,,,,,,,,,,,,,,,,,,,,,,,,,,,,,,,,,,,,,,,,,,,,,,,,,30,,,,,,,,647.4846596000716,647.4846596000716,647.4846596000716,647.4846596000716,647.4846596000716,right,1.0099066002294421,0,0,0,99,0.16,0.24,right,0.925936299841851,,,,,,,,,,,,,,,,,,,,,,,,,,,,,,,,,,,,,,,,,,,,,,,,,,,,,,,,,,,,T8QTJ3,train_x,blue_star,top_left,2025-02-27_17h10.59.070,HideSeek_v1,2022.2.5,59.963254517059376,
,2,8,3,8,1,0,51,,train_dim1_1,4,30,,,,2,0,2,0,,,,,,,,,0,0,0,0,0,3,3,3,2,0,2,0,,,,,,,,,,,,,,,,,,,,,,,,,,,,,,,,,,,,,,,,,,,,,,,,,,,,,,,,,,,,,,,,30,,,,,,,,648.5018831002526,648.5018831002526,648.5018831002526,648.5018831002526,648.5018831002526,right,1.0439842003397644,0,0,0,99,0.24,0.24,right,0.956785099580884,,,,,,,,,,,,,,,,,,,,,,,,,,,,,,,,,,,,,,,,,,,,,,,,,,,,,,,,,,,,T8QTJ3,train_x,blue_star,top_left,2025-02-27_17h10.59.070,HideSeek_v1,2022.2.5,59.963254517059376,
,2,8,3,8,1,0,51,,train_dim1_1,4,30,,,,2,0,2,0,,,,,,,,,0,0,0,0,0,3,3,3,3,0,3,0,,,,,,,,,,,,,,,,,,,,,,,,,,,,,,,,,,,,,,,,,,,,,,,,,,,,,,,,,,,,,,,,30,,,,,,,,649.5526823000982,649.5526823000982,649.5526823000982,649.5526823000982,649.5526823000982,right,0.9151999000459909,0,0,0,99,0.32,0.24,right,0.8307092995382845,,,,,,,,,,,,,,,,,,,,,,,,,,,,,,,,,,,,,,,,,,,,,,,,,,,,,,,,,,,,T8QTJ3,train_x,blue_star,top_left,2025-02-27_17h10.59.070,HideSeek_v1,2022.2.5,59.963254517059376,
,2,8,3,8,1,0,51,,train_dim1_1,4,30,,,,2,0,2,0,,,,,,,,,0,0,0,0,0,3,3,3,4,0,4,0,,,,,,,,,,,,,,,,,,,,,,,,,,,,,,,,,,,,,,,,,,,,,,,,,,,,,,,,,,,,,,,,30,,,,,,,,650.479060200043,650.479060200043,650.479060200043,650.479060200043,650.479060200043,right,1.3352009998634458,0,0,0,99,0.4,0.24,right,1.260697199497372,,,,,,,,,,,,,,,,,,,,,,,,,,,,,,,,,,,,,,,,,,,,,,,,,,,,,,,,,,,,T8QTJ3,train_x,blue_star,top_left,2025-02-27_17h10.59.070,HideSeek_v1,2022.2.5,59.963254517059376,
,2,8,3,8,1,0,51,,train_dim1_1,4,30,,,,2,0,2,0,,,,,,,,,0,0,0,0,0,3,3,3,5,0,5,0,,,,,,,,,,,,,,,,,,,,,,,,,,,,,,,,,,,,,,,,,,,,,,,,,,,,,,,,,,,,,,,,30,,,,,,,,651.8212524000555,651.8212524000555,651.8212524000555,651.8212524000555,651.8212524000555,return,0.8936795997433364,0,0,0,0,0.4,0.24,return,0.8120823996141553,-4,10,0.4,0.24,,,,,,,,,,,,,,,,,,,,,,,,,,,,,,,,,,,,,,,,,,,,,,,,,,,,,,,,T8QTJ3,train_x,blue_star,top_left,2025-02-27_17h10.59.070,HideSeek_v1,2022.2.5,59.963254517059376,
,0,7,0,7,0,0,61,,train_dim1_1,5,30,,,,2,0,2,0,,,,,,,,,0,0,0,0,0,4,4,4,0,0,0,0,,,,,,,,,,,,,,,,,,,,,,,,,stimuli/alien_stimuli/61.png,,,,,,,,,,,,,,,,,,,,,,,,,,,,,stimuli/alien_stimuli/51.png,51,2,6,,,,,,,30,,,,,,,,662.2894680001773,662.2894680001773,662.2894680001773,662.2894680001773,662.2894680001773,down,12.932281000074,0,0,0,99,-0.16,0.08,down,12.850884499493986,,,,,660.7296183002181,662.2894680001773,0.08,0.24,0.0,0.08,0.24,0.08,0.04,0.08,0.24,654.2964142002165,654.2964142002165,654.2964142002165,654.2964142002165,654.2964142002165,654.2964142002165,654.2964142002165,654.2964142002165,654.2743473100011,6.557818699628115,return,6.409125799778849,,,,,,,,,,,,,,,,,,,,,,,,,,,,,,,,,T8QTJ3,train_x,blue_star,top_left,2025-02-27_17h10.59.070,HideSeek_v1,2022.2.5,59.963254517059376,
,0,7,0,7,0,0,61,,train_dim1_1,5,30,,,,2,0,2,0,,,,,,,,,0,0,0,0,0,4,4,4,1,0,1,0,,,,,,,,,,,,,,,,,,,,,,,,,,,,,,,,,,,,,,,,,,,,,,,,,,,,,,,,,,,,,,,,30,,,,,,,,675.2416934003122,675.2416934003122,675.2416934003122,675.2416934003122,675.2416934003122,down,0.9595621000044048,0,0,0,99,-0.16,0.0,down,0.8589043994434178,,,,,,,,,,,,,,,,,,,,,,,,,,,,,,,,,,,,,,,,,,,,,,,,,,,,,,,,,,,,T8QTJ3,train_x,blue_star,top_left,2025-02-27_17h10.59.070,HideSeek_v1,2022.2.5,59.963254517059376,
,0,7,0,7,0,0,61,,train_dim1_1,5,30,,,,2,0,2,0,,,,,,,,,0,0,0,0,0,4,4,4,2,0,2,0,,,,,,,,,,,,,,,,,,,,,,,,,,,,,,,,,,,,,,,,,,,,,,,,,,,,,,,,,,,,,,,,30,,,,,,,,676.1888296999969,676.1888296999969,676.1888296999969,676.1888296999969,676.1888296999969,return,1.2440577996894717,0,0,0,0,-0.16,0.0,return,1.1674499996006489,-6,10,-0.16,0.0,,,,,,,,,,,,,,,,,,,,,,,,,,,,,,,,,,,,,,,,,,,,,,,,,,,,,,,,T8QTJ3,train_x,blue_star,top_left,2025-02-27_17h10.59.070,HideSeek_v1,2022.2.5,59.963254517059376,
,0,5,4,5,4,0,21,,train_dim1_1,6,30,,,,2,0,2,0,,,,,,,,,0,0,0,0,0,5,5,5,0,0,0,0,,,,,,,,,,,,,,,,,,,,,,,,,stimuli/alien_stimuli/21.png,,,,,,,,,,,,,,,,,,,,,,,,,,,,,stimuli/alien_stimuli/61.png,61,0,7,,,,,,,30,,,,,,,,686.631305700168,686.631305700168,686.631305700168,686.631305700168,686.631305700168,right,12.348001000005752,0,0,0,99,-0.08,0,right,12.26096439966932,,,,,685.0666238004342,686.631305700168,-0.16,0.16,0.0,0.0,0.16,-0.16,-0.16,-0.16,0.16,679.0068975002505,679.0068975002505,679.0068975002505,679.0068975002505,679.0068975002505,679.0068975002505,679.0068975002505,679.0068975002505,678.9948374098633,6.1741631999611855,return,6.042549800127745,,,,,,,,,,,,,,,,,,,,,,,,,,,,,,,,,T8QTJ3,train_x,blue_star,top_left,2025-02-27_17h10.59.070,HideSeek_v1,2022.2.5,59.963254517059376,
,0,5,4,5,4,0,21,,train_dim1_1,6,30,,,,2,0,2,0,,,,,,,,,0,0,0,0,0,5,5,5,1,0,1,0,,,,,,,,,,,,,,,,,,,,,,,,,,,,,,,,,,,,,,,,,,,,,,,,,,,,,,,,,,,,,,,,30,,,,,,,,698.9959843000397,698.9959843000397,698.9959843000397,698.9959843000397,698.9959843000397,right,0.7925192997790873,0,0,0,99,0.0,0,right,0.6950693000108004,,,,,,,,,,,,,,,,,,,,,,,,,,,,,,,,,,,,,,,,,,,,,,,,,,,,,,,,,,,,T8QTJ3,train_x,blue_star,top_left,2025-02-27_17h10.59.070,HideSeek_v1,2022.2.5,59.963254517059376,
,0,5,4,5,4,0,21,,train_dim1_1,6,30,,,,2,0,2,0,,,,,,,,,0,0,0,0,0,5,5,5,2,0,2,0,,,,,,,,,,,,,,,,,,,,,,,,,,,,,,,,,,,,,,,,,,,,,,,,,,,,,,,,,,,,,,,,30,,,,,,,,699.7793678999878,699.7793678999878,699.7793678999878,699.7793678999878,699.7793678999878,right,0.9602194996550679,0,0,0,99,0.08,0,right,0.875378199853003,,,,,,,,,,,,,,,,,,,,,,,,,,,,,,,,,,,,,,,,,,,,,,,,,,,,,,,,,,,,T8QTJ3,train_x,blue_star,top_left,2025-02-27_17h10.59.070,HideSeek_v1,2022.2.5,59.963254517059376,
,0,5,4,5,4,0,21,,train_dim1_1,6,30,,,,2,0,2,0,,,,,,,,,0,0,0,0,0,5,5,5,3,0,3,0,,,,,,,,,,,,,,,,,,,,,,,,,,,,,,,,,,,,,,,,,,,,,,,,,,,,,,,,,,,,,,,,30,,,,,,,,700.7463484001346,700.7463484001346,700.7463484001346,700.7463484001346,700.7463484001346,right,2.1782142999581993,0,0,0,99,0.16,0,right,2.1013499996624887,,,,,,,,,,,,,,,,,,,,,,,,,,,,,,,,,,,,,,,,,,,,,,,,,,,,,,,,,,,,T8QTJ3,train_x,blue_star,top_left,2025-02-27_17h10.59.070,HideSeek_v1,2022.2.5,59.963254517059376,
,0,5,4,5,4,0,21,,train_dim1_1,6,30,,,,2,0,2,0,,,,,,,,,0,0,0,0,0,5,5,5,4,0,4,0,,,,,,,,,,,,,,,,,,,,,,,,,,,,,,,,,,,,,,,,,,,,,,,,,,,,,,,,,,,,,,,,30,,,,,,,,702.9317675000057,702.9317675000057,702.9317675000057,702.9317675000057,702.9317675000057,right,3.846013099886477,0,0,0,99,0.24,0,right,3.7649689000099897,,,,,,,,,,,,,,,,,,,,,,,,,,,,,,,,,,,,,,,,,,,,,,,,,,,,,,,,,,,,T8QTJ3,train_x,blue_star,top_left,2025-02-27_17h10.59.070,HideSeek_v1,2022.2.5,59.963254517059376,
,0,5,4,5,4,0,21,,train_dim1_1,6,30,,,,2,0,2,0,,,,,,,,,0,0,0,0,0,5,5,5,5,0,5,0,,,,,,,,,,,,,,,,,,,,,,,,,,,,,,,,,,,,,,,,,,,,,,,,,,,,,,,,,,,,,,,,30,,,,,,,,706.7845646003261,706.7845646003261,706.7845646003261,706.7845646003261,706.7845646003261,return,0.8600914003327489,0,1,0,0,0.24,0,return,0.7706678998656571,-6,15,0.24,0,,,,,,,,,,,,,,,,,,,,,,,,,,,,,,,,,,,,,,,,,,,,,,,,,,,,,,,,T8QTJ3,train_x,blue_star,top_left,2025-02-27_17h10.59.070,HideSeek_v1,2022.2.5,59.963254517059376,
,3,5,3,5,0,0,61,,train_dim1_1,7,30,,,,2,0,2,0,,,,,,,,,0,0,0,0,0,6,6,6,0,0,0,0,,,,,,,,,,,,,,,,,,,,,,,,,stimuli/alien_stimuli/61.png,,,,,,,,,,,,,,,,,,,,,,,,,,,,,stimuli/alien_stimuli/21.png,21,0,8,,,,,,,30,,,,,,,,726.440360000357,726.440360000357,726.440360000357,726.440360000357,726.440360000357,right,8.110528599936515,0,1,0,99,0.16,0,right,8.007603199686855,,,,,724.8660361003131,726.440360000357,0.16,0,0.0,0.32,0.0,0.16,0.0,0.16,0,709.2254550000653,709.2254550000653,709.2254550000653,709.2254550000653,709.2254550000653,709.2254550000653,709.2254550000653,709.2254550000653,709.2033878099639,15.765261999797076,return,15.620072399731725,,,,,,,,,,,,,,,,,,,,,,,,,,,,,,,,,T8QTJ3,train_x,blue_star,top_left,2025-02-27_17h10.59.070,HideSeek_v1,2022.2.5,59.963254517059376,
,3,5,3,5,0,0,61,,train_dim1_1,7,30,,,,2,0,2,0,,,,,,,,,0,0,0,0,0,6,6,6,1,0,1,0,,,,,,,,,,,,,,,,,,,,,,,,,,,,,,,,,,,,,,,,,,,,,,,,,,,,,,,,,,,,,,,,30,,,,,,,,734.5383333000354,734.5383333000354,734.5383333000354,734.5383333000354,734.5383333000354,return,1.1272039003670216,0,1,0,0,0.16,0,return,1.0514793996699154,-6,16,0.16,0,,,,,,,,,,,,,,,,,,,,,,,,,,,,,,,,,,,,,,,,,,,,,,,,,,,,,,,,T8QTJ3,train_x,blue_star,top_left,2025-02-27_17h10.59.070,HideSeek_v1,2022.2.5,59.963254517059376,
,0,9,3,9,3,0,31,,train_dim1_1,8,30,,,,2,0,2,0,,,,,,,,,0,0,0,0,0,7,7,7,0,0,0,0,,,,,,,,,,,,,,,,,,,,,,,,,stimuli/alien_stimuli/31.png,,,,,,,,,,,,,,,,,,,,,,,,,,,,,stimuli/alien_stimuli/61.png,61,3,9,,,,,,,30,,,,,,,,745.7762526003644,745.7762526003644,745.7762526003644,745.7762526003644,745.7762526003644,down,16.03366900002584,0,1,0,99,-0.16,0.24,down,15.943878099322319,,,,,744.215349000413,745.7762526003644,0.08,0,0.0,0.0,0.0,0.08,0.08,0.08,0,737.2390376003459,737.2390376003459,737.2390376003459,737.2390376003459,737.2390376003459,737.2390376003459,737.2390376003459,737.2390376003459,737.2265030099545,7.091374099720269,return,6.95713229989633,,,,,,,,,,,,,,,,,,,,,,,,,,,,,,,,,T8QTJ3,train_x,blue_star,top_left,2025-02-27_17h10.59.070,HideSeek_v1,2022.2.5,59.963254517059376,
,0,9,3,9,3,0,31,,train_dim1_1,8,30,,,,2,0,2,0,,,,,,,,,0,0,0,0,0,7,7,7,1,0,1,0,,,,,,,,,,,,,,,,,,,,,,,,,,,,,,,,,,,,,,,,,,,,,,,,,,,,,,,,,,,,,,,,30,,,,,,,,761.8304946003482,761.8304946003482,761.8304946003482,761.8304946003482,761.8304946003482,down,2.244407400023192,0,1,0,99,-0.16,0.15999999999999998,down,2.1420424999669194,,,,,,,,,,,,,,,,,,,,,,,,,,,,,,,,,,,,,,,,,,,,,,,,,,,,,,,,,,,,T8QTJ3,train_x,blue_star,top_left,2025-02-27_17h10.59.070,HideSeek_v1,2022.2.5,59.963254517059376,
,0,9,3,9,3,0,31,,train_dim1_1,8,30,,,,2,0,2,0,,,,,,,,,0,0,0,0,0,7,7,7,2,0,2,0,,,,,,,,,,,,,,,,,,,,,,,,,,,,,,,,,,,,,,,,,,,,,,,,,,,,,,,,,,,,,,,,30,,,,,,,,764.0630919001997,764.0630919001997,764.0630919001997,764.0630919001997,764.0630919001997,return,1.6603803001344204,0,0,0,0,-0.16,0.15999999999999998,return,1.5868556001223624,-8,16,-0.16,0.15999999999999998,,,,,,,,,,,,,,,,,,,,,,,,,,,,,,,,,,,,,,,,,,,,,,,,,,,,,,,,T8QTJ3,train_x,blue_star,top_left,2025-02-27_17h10.59.070,HideSeek_v1,2022.2.5,59.963254517059376,
,1,5,2,5,1,0,51,,train_dim1_1,9,30,,,,2,0,2,0,,,,,,,,,0,0,0,0,0,8,8,8,0,0,0,0,,,,,,,,,,,,,,,,,,,,,,,,,stimuli/alien_stimuli/51.png,,,,,,,,,,,,,,,,,,,,,,,,,,,,,stimuli/alien_stimuli/31.png,31,0,10,,,,,,,30,,,,,,,,773.7156837000512,773.7156837000512,773.7156837000512,773.7156837000512,773.7156837000512,right,88.09516290016472,0,0,0,99,0.0,0,right,87.99848319962621,,,,,772.1553900004365,773.7156837000512,0.08,0.32,0.0,0.24,0.32,0.08,-0.04,0.08,0.32,767.2973665003665,767.2973665003665,767.2973665003665,767.2973665003665,767.2973665003665,767.2973665003665,767.2973665003665,767.2973665003665,767.2846010099631,4.973043600097299,return,4.827754599507898,,,,,,,,,,,,,,,,,,,,,,,,,,,,,,,,,T8QTJ3,train_x,blue_star,top_left,2025-02-27_17h10.59.070,HideSeek_v1,2022.2.5,59.963254517059376,
,1,5,2,5,1,0,51,,train_dim1_1,9,30,,,,2,0,2,0,,,,,,,,,0,0,0,0,0,8,8,8,1,0,1,0,,,,,,,,,,,,,,,,,,,,,,,,,,,,,,,,,,,,,,,,,,,,,,,,,,,,,,,,,,,,,,,,30,,,,,,,,861.8290593000129,861.8290593000129,861.8290593000129,861.8290593000129,861.8290593000129,return,1.8273403998464346,1,0,0,1,0.0,0,return,1.726794600021094,-8,17,0.0,0,,,,,,,,,,,,,,,,,,,,,,,,,,,,,,,,,,,,,,,,,,,,,,,,,,,,,,,,T8QTJ3,train_x,blue_star,top_left,2025-02-27_17h10.59.070,HideSeek_v1,2022.2.5,59.963254517059376,
,0,8,5,8,5,0,11,,train_dim1_1,10,30,,,,2,0,2,0,,,,,,,,,0,0,0,0,0,9,9,9,0,0,0,0,,,,,,,,,,,,,,,,,,,,,,,,,stimuli/alien_stimuli/11.png,,,,,,,,,,,,,,,,,,,,,,,,,,,,,stimuli/alien_stimuli/51.png,51,1,11,,,,,,,30,,,,,,,,875.4656290002167,875.4656290002167,875.4656290002167,875.4656290002167,875.4656290002167,right,7.778183499816805,1,0,0,99,-0.08,0.24,right,7.675571799743921,,,,,873.889794900082,875.4656290002167,0,0,0.0,0.08,0.0,0,-0.04,0,0,865.2153988000937,865.2153988000937,865.2153988000937,865.2153988000937,865.2153988000937,865.2153988000937,865.2153988000937,865.2153988000937,865.1992603098508,8.792387099936604,return,8.645211699884385,,,,,,,,,,,,,,,,,,,,,,,,,,,,,,,,,T8QTJ3,train_x,blue_star,top_left,2025-02-27_17h10.59.070,HideSeek_v1,2022.2.5,59.963254517059376,
,0,8,5,8,5,0,11,,train_dim1_1,10,30,,,,2,0,2,0,,,,,,,,,0,0,0,0,0,9,9,9,1,0,1,0,,,,,,,,,,,,,,,,,,,,,,,,,,,,,,,,,,,,,,,,,,,,,,,,,,,,,,,,,,,,,,,,30,,,,,,,,883.2326912004501,883.2326912004501,883.2326912004501,883.2326912004501,883.2326912004501,right,0.8262601001188159,1,0,0,99,0.0,0.24,right,0.7468479997478426,,,,,,,,,,,,,,,,,,,,,,,,,,,,,,,,,,,,,,,,,,,,,,,,,,,,,,,,,,,,T8QTJ3,train_x,blue_star,top_left,2025-02-27_17h10.59.070,HideSeek_v1,2022.2.5,59.963254517059376,
,0,8,5,8,5,0,11,,train_dim1_1,10,30,,,,2,0,2,0,,,,,,,,,0,0,0,0,0,9,9,9,2,0,2,0,,,,,,,,,,,,,,,,,,,,,,,,,,,,,,,,,,,,,,,,,,,,,,,,,,,,,,,,,,,,,,,,30,,,,,,,,884.0650071003474,884.0650071003474,884.0650071003474,884.0650071003474,884.0650071003474,right,1.5773907001130283,1,0,0,99,0.08,0.24,right,1.4864256996661425,,,,,,,,,,,,,,,,,,,,,,,,,,,,,,,,,,,,,,,,,,,,,,,,,,,,,,,,,,,,T8QTJ3,train_x,blue_star,top_left,2025-02-27_17h10.59.070,HideSeek_v1,2022.2.5,59.963254517059376,
,0,8,5,8,5,0,11,,train_dim1_1,10,30,,,,2,0,2,0,,,,,,,,,0,0,0,0,0,9,9,9,3,0,3,0,,,,,,,,,,,,,,,,,,,,,,,,,,,,,,,,,,,,,,,,,,,,,,,,,,,,,,,,,,,,,,,,30,,,,,,,,885.6497308001854,885.6497308001854,885.6497308001854,885.6497308001854,885.6497308001854,right,1.0105697996914387,1,0,0,99,0.16,0.24,right,0.9287360995076597,,,,,,,,,,,,,,,,,,,,,,,,,,,,,,,,,,,,,,,,,,,,,,,,,,,,,,,,,,,,T8QTJ3,train_x,blue_star,top_left,2025-02-27_17h10.59.070,HideSeek_v1,2022.2.5,59.963254517059376,
,0,8,5,8,5,0,11,,train_dim1_1,10,30,,,,2,0,2,0,,,,,,,,,0,0,0,0,0,9,9,9,4,0,4,0,,,,,,,,,,,,,,,,,,,,,,,,,,,,,,,,,,,,,,,,,,,,,,,,,,,,,,,,,,,,,,,,30,,,,,,,,886.6672415002249,886.6672415002249,886.6672415002249,886.6672415002249,886.6672415002249,return,12.469835199881345,1,1,0,0,0.16,0.24,return,12.381076700054109,-8,21,0.16,0.24,,,,,,,,,,,,,,,,,,,,,,,,,,,,,,,,,,,,,,,,,,,,,,,,,,,,,,,,T8QTJ3,train_x,blue_star,top_left,2025-02-27_17h10.59.070,HideSeek_v1,2022.2.5,59.963254517059376,
,2,7,5,7,3,0,31,,train_dim1_1,11,30,,,,2,0,2,0,,,,,,,,,0,0,0,0,0,10,10,10,0,0,0,0,,,,,,,,,,,,,,,,,,,,,,,,,stimuli/alien_stimuli/31.png,,,,,,,,,,,,,,,,,,,,,,,,,,,,,stimuli/alien_stimuli/11.png,11,0,12,,,,,,,30,,,,,,,,909.0611121002585,909.0611121002585,909.0611121002585,909.0611121002585,909.0611121002585,right,15.735321500338614,1,1,0,99,0.08,0.16,right,15.65372489951551,,,,,907.5008988003246,909.0611121002585,0.24,0.24,0.0,0.4,0.24,0.24,0.039999999999999994,0.24,0.24,900.7343238000758,900.7343238000758,900.7343238000758,900.7343238000758,900.7343238000758,900.7343238000758,900.7343238000758,900.7343238000758,900.7287310700398,6.908085700124502,return,6.749192399438471,,,,,,,,,,,,,,,,,,,,,,,,,,,,,,,,,T8QTJ3,train_x,blue_star,top_left,2025-02-27_17h10.59.070,HideSeek_v1,2022.2.5,59.963254517059376,
,2,7,5,7,3,0,31,,train_dim1_1,11,30,,,,2,0,2,0,,,,,,,,,0,0,0,0,0,10,10,10,1,0,1,0,,,,,,,,,,,,,,,,,,,,,,,,,,,,,,,,,,,,,,,,,,,,,,,,,,,,,,,,,,,,,,,,30,,,,,,,,924.8129732999951,924.8129732999951,924.8129732999951,924.8129732999951,924.8129732999951,right,1.3097462002187967,1,1,0,99,0.16,0.16,right,1.218984399922192,,,,,,,,,,,,,,,,,,,,,,,,,,,,,,,,,,,,,,,,,,,,,,,,,,,,,,,,,,,,T8QTJ3,train_x,blue_star,top_left,2025-02-27_17h10.59.070,HideSeek_v1,2022.2.5,59.963254517059376,
,2,7,5,7,3,0,31,,train_dim1_1,11,30,,,,2,0,2,0,,,,,,,,,0,0,0,0,0,10,10,10,2,0,2,0,,,,,,,,,,,,,,,,,,,,,,,,,,,,,,,,,,,,,,,,,,,,,,,,,,,,,,,,,,,,,,,,30,,,,,,,,926.1129066003487,926.1129066003487,926.1129066003487,926.1129066003487,926.1129066003487,right,5.581047799903899,1,1,0,99,0.24,0.16,right,5.506333699449897,,,,,,,,,,,,,,,,,,,,,,,,,,,,,,,,,,,,,,,,,,,,,,,,,,,,,,,,,,,,T8QTJ3,train_x,blue_star,top_left,2025-02-27_17h10.59.070,HideSeek_v1,2022.2.5,59.963254517059376,
,2,7,5,7,3,0,31,,train_dim1_1,11,30,,,,2,0,2,0,,,,,,,,,0,0,0,0,0,10,10,10,3,0,3,0,,,,,,,,,,,,,,,,,,,,,,,,,,,,,,,,,,,,,,,,,,,,,,,,,,,,,,,,,,,,,,,,30,,,,,,,,931.7022121003829,931.7022121003829,931.7022121003829,931.7022121003829,931.7022121003829,return,19.492598199751228,2,0,0,1,0.24,0.16,return,19.409490299411118,-8,24,0.24,0.16,,,,,,,,,,,,,,,,,,,,,,,,,,,,,,,,,,,,,,,,,,,,,,,,,,,,,,,,T8QTJ3,train_x,blue_star,top_left,2025-02-27_17h10.59.070,HideSeek_v1,2022.2.5,59.963254517059376,
,0,5,4,5,4,0,21,,train_dim1_1,12,30,,,,2,0,2,0,,,,,,,,,0,0,0,0,0,11,11,11,0,0,0,0,,,,,,,,,,,,,,,,,,,,,,,,,stimuli/alien_stimuli/21.png,,,,,,,,,,,,,,,,,,,,,,,,,,,,,stimuli/alien_stimuli/31.png,31,2,13,,,,,,,30,,,,,,,,962.3250761004165,962.3250761004165,962.3250761004165,962.3250761004165,962.3250761004165,right,4.79281760007143,2,0,0,99,-0.08,0,right,4.698647299781442,,,,,960.7618073001504,962.3250761004165,0.24,0.16,0.0,0.24,0.16,0.24,0.12,0.24,0.16,952.7926787002943,952.7926787002943,952.7926787002943,952.7926787002943,952.7926787002943,952.7926787002943,952.7926787002943,952.7926787002943,952.7718766398729,8.109053999651223,return,7.9489006996154785,,,,,,,,,,,,,,,,,,,,,,,,,,,,,,,,,T8QTJ3,train_x,blue_star,top_left,2025-02-27_17h10.59.070,HideSeek_v1,2022.2.5,59.963254517059376,
,0,5,4,5,4,0,21,,train_dim1_1,12,30,,,,2,0,2,0,,,,,,,,,0,0,0,0,0,11,11,11,1,0,1,0,,,,,,,,,,,,,,,,,,,,,,,,,,,,,,,,,,,,,,,,,,,,,,,,,,,,,,,,,,,,,,,,30,,,,,,,,967.1182794002816,967.1182794002816,967.1182794002816,967.1182794002816,967.1182794002816,right,1.0598398000001907,2,0,0,99,0.0,0,right,0.9692541998811066,,,,,,,,,,,,,,,,,,,,,,,,,,,,,,,,,,,,,,,,,,,,,,,,,,,,,,,,,,,,T8QTJ3,train_x,blue_star,top_left,2025-02-27_17h10.59.070,HideSeek_v1,2022.2.5,59.963254517059376,
,0,5,4,5,4,0,21,,train_dim1_1,12,30,,,,2,0,2,0,,,,,,,,,0,0,0,0,0,11,11,11,2,0,2,0,,,,,,,,,,,,,,,,,,,,,,,,,,,,,,,,,,,,,,,,,,,,,,,,,,,,,,,,,,,,,,,,30,,,,,,,,968.1848271000199,968.1848271000199,968.1848271000199,968.1848271000199,968.1848271000199,right,1.4777481998316944,2,0,0,99,0.08,0,right,1.38529699947685,,,,,,,,,,,,,,,,,,,,,,,,,,,,,,,,,,,,,,,,,,,,,,,,,,,,,,,,,,,,T8QTJ3,train_x,blue_star,top_left,2025-02-27_17h10.59.070,HideSeek_v1,2022.2.5,59.963254517059376,
,0,5,4,5,4,0,21,,train_dim1_1,12,30,,,,2,0,2,0,,,,,,,,,0,0,0,0,0,11,11,11,3,0,3,0,,,,,,,,,,,,,,,,,,,,,,,,,,,,,,,,,,,,,,,,,,,,,,,,,,,,,,,,,,,,,,,,30,,,,,,,,969.6698470003903,969.6698470003903,969.6698470003903,969.6698470003903,969.6698470003903,right,2.1946117002516985,2,0,0,99,0.16,0,right,2.1172052999027073,,,,,,,,,,,,,,,,,,,,,,,,,,,,,,,,,,,,,,,,,,,,,,,,,,,,,,,,,,,,T8QTJ3,train_x,blue_star,top_left,2025-02-27_17h10.59.070,HideSeek_v1,2022.2.5,59.963254517059376,
,0,5,4,5,4,0,21,,train_dim1_1,12,30,,,,2,0,2,0,,,,,,,,,0,0,0,0,0,11,11,11,4,0,4,0,,,,,,,,,,,,,,,,,,,,,,,,,,,,,,,,,,,,,,,,,,,,,,,,,,,,,,,,,,,,,,,,30,,,,,,,,971.8713925001211,971.8713925001211,971.8713925001211,971.8713925001211,971.8713925001211,return,1.1937571000307798,3,0,0,1,0.16,0,return,1.1126582995057106,-8,28,0.16,0,,,,,,,,,,,,,,,,,,,,,,,,,,,,,,,,,,,,,,,,,,,,,,,,,,,,,,,,T8QTJ3,train_x,blue_star,top_left,2025-02-27_17h10.59.070,HideSeek_v1,2022.2.5,59.963254517059376,
,0,9,1,9,1,0,51,,train_dim1_1,13,30,,,,2,0,2,0,,,,,,,,,0,0,0,0,0,12,12,12,0,0,0,0,,,,,,,,,,,,,,,,,,,,,,,,,stimuli/alien_stimuli/51.png,,,,,,,,,,,,,,,,,,,,,,,,,,,,,stimuli/alien_stimuli/21.png,21,0,14,,,,,,,30,,,,,,,,980.320675900206,980.320675900206,980.320675900206,980.320675900206,980.320675900206,return,4.893203500192612,3,1,0,0,-0.16,0.32,return,4.801356099545956,-8,28,-0.16,0.32,978.7601004000753,980.320675900206,0.16,0,0.0,0.32,0.0,0.16,0.0,0.16,0,974.6540694003925,974.6540694003925,974.6540694003925,974.6540694003925,974.6540694003925,974.6540694003925,974.6540694003925,974.6540694003925,974.6396998397075,4.239183600060642,return,4.086811799556017,,,,,,,,,,,,,,,,,,,,,,,,,,,,,,,,,T8QTJ3,train_x,blue_star,top_left,2025-02-27_17h10.59.070,HideSeek_v1,2022.2.5,59.963254517059376,
,4,8,9,8,5,0,11,,train_dim1_1,14,30,,,,2,0,2,0,,,,,,,,,0,0,0,0,0,13,13,13,0,0,0,0,,,,,,,,,,,,,,,,,,,,,,,,,stimuli/alien_stimuli/11.png,,,,,,,,,,,,,,,,,,,,,,,,,,,,,stimuli/alien_stimuli/51.png,51,0,15,,,,,,,30,,,,,,,,992.4994860002771,992.4994860002771,992.4994860002771,992.4994860002771,992.4994860002771,right,10.763931399676949,3,1,0,99,0.24,0.24,right,10.676500999834388,,,,,990.9367547002621,992.4994860002771,-0.08,0.32,0.0,0.08,0.32,-0.08,-0.12,-0.08,0.32,986.780912999995,986.780912999995,986.780912999995,986.780912999995,986.780912999995,986.780912999995,986.780912999995,986.780912999995,986.7665724098217,4.272510400041938,return,4.130681999959052,,,,,,,,,,,,,,,,,,,,,,,,,,,,,,,,,T8QTJ3,train_x,blue_star,top_left,2025-02-27_17h10.59.070,HideSeek_v1,2022.2.5,59.963254517059376,
,4,8,9,8,5,0,11,,train_dim1_1,14,30,,,,2,0,2,0,,,,,,,,,0,0,0,0,0,13,13,13,1,0,1,0,,,,,,,,,,,,,,,,,,,,,,,,,,,,,,,,,,,,,,,,,,,,,,,,,,,,,,,,,,,,,,,,30,,,,,,,,1003.2837530001998,1003.2837530001998,1003.2837530001998,1003.2837530001998,1003.2837530001998,right,0.8262669998221099,3,1,0,99,0.32,0.24,right,0.7298540999181569,,,,,,,,,,,,,,,,,,,,,,,,,,,,,,,,,,,,,,,,,,,,,,,,,,,,,,,,,,,,T8QTJ3,train_x,blue_star,top_left,2025-02-27_17h10.59.070,HideSeek_v1,2022.2.5,59.963254517059376,
,4,8,9,8,5,0,11,,train_dim1_1,14,30,,,,2,0,2,0,,,,,,,,,0,0,0,0,0,13,13,13,2,0,2,0,,,,,,,,,,,,,,,,,,,,,,,,,,,,,,,,,,,,,,,,,,,,,,,,,,,,,,,,,,,,,,,,30,,,,,,,,1004.0985971000046,1004.0985971000046,1004.0985971000046,1004.0985971000046,1004.0985971000046,right,1.7277110000140965,3,1,0,99,0.4,0.24,right,1.6372857000678778,,,,,,,,,,,,,,,,,,,,,,,,,,,,,,,,,,,,,,,,,,,,,,,,,,,,,,,,,,,,T8QTJ3,train_x,blue_star,top_left,2025-02-27_17h10.59.070,HideSeek_v1,2022.2.5,59.963254517059376,
,4,8,9,8,5,0,11,,train_dim1_1,14,30,,,,2,0,2,0,,,,,,,,,0,0,0,0,0,13,13,13,3,0,3,0,,,,,,,,,,,,,,,,,,,,,,,,,,,,,,,,,,,,,,,,,,,,,,,,,,,,,,,,,,,,,,,,30,,,,,,,,1005.8332981001586,1005.8332981001586,1005.8332981001586,1005.8332981001586,1005.8332981001586,right,1.4269042001105845,3,1,0,99,0.48000000000000004,0.24,right,1.3460958995856345,,,,,,,,,,,,,,,,,,,,,,,,,,,,,,,,,,,,,,,,,,,,,,,,,,,,,,,,,,,,T8QTJ3,train_x,blue_star,top_left,2025-02-27_17h10.59.070,HideSeek_v1,2022.2.5,59.963254517059376,
,4,8,9,8,5,0,11,,train_dim1_1,14,30,,,,2,0,2,0,,,,,,,,,0,0,0,0,0,13,13,13,4,0,4,0,,,,,,,,,,,,,,,,,,,,,,,,,,,,,,,,,,,,,,,,,,,,,,,,,,,,,,,,,,,,,,,,30,,,,,,,,1007.2673896001652,1007.2673896001652,1007.2673896001652,1007.2673896001652,1007.2673896001652,right,1.1606712997891009,3,1,0,99,0.56,0.24,right,1.0821861000731587,,,,,,,,,,,,,,,,,,,,,,,,,,,,,,,,,,,,,,,,,,,,,,,,,,,,,,,,,,,,T8QTJ3,train_x,blue_star,top_left,2025-02-27_17h10.59.070,HideSeek_v1,2022.2.5,59.963254517059376,
,4,8,9,8,5,0,11,,train_dim1_1,14,30,,,,2,0,2,0,,,,,,,,,0,0,0,0,0,13,13,13,5,0,5,0,,,,,,,,,,,,,,,,,,,,,,,,,,,,,,,,,,,,,,,,,,,,,,,,,,,,,,,,,,,,,,,,30,,,,,,,,1008.4350739000365,1008.4350739000365,1008.4350739000365,1008.4350739000365,1008.4350739000365,return,1.593731400091201,4,0,0,1,0.56,0.24,return,1.5041389996185899,-8,33,0.56,0.24,,,,,,,,,,,,,,,,,,,,,,,,,,,,,,,,,,,,,,,,,,,,,,,,,,,,,,,,T8QTJ3,train_x,blue_star,top_left,2025-02-27_17h10.59.070,HideSeek_v1,2022.2.5,59.963254517059376,
,4,7,4,7,0,0,61,,train_dim1_1,15,30,,,,2,0,2,0,,,,,,,,,0,0,0,0,0,14,14,14,0,0,0,0,,,,,,,,,,,,,,,,,,,,,,,,,stimuli/alien_stimuli/61.png,,,,,,,,,,,,,,,,,,,,,,,,,,,,,stimuli/alien_stimuli/11.png,11,4,16,,,,,,,30,,,,,,,,1016.120407700073,1016.120407700073,1016.120407700073,1016.120407700073,1016.120407700073,right,14.197313799988478,4,0,0,99,0.24,0.16,right,14.114311899524182,,,,,1014.5563450003974,1016.120407700073,0.56,0.24,0.0,0.4,0.24,0.56,0.36000000000000004,0.56,0.24,1011.6159855001606,1011.6159855001606,1011.6159855001606,1011.6159855001606,1011.6159855001606,1011.6159855001606,1011.6159855001606,1011.6159855001606,1011.6037772397511,3.0719359000213444,return,2.921833099797368,,,,,,,,,,,,,,,,,,,,,,,,,,,,,,,,,T8QTJ3,train_x,blue_star,top_left,2025-02-27_17h10.59.070,HideSeek_v1,2022.2.5,59.963254517059376,
,4,7,4,7,0,0,61,,train_dim1_1,15,30,,,,2,0,2,0,,,,,,,,,0,0,0,0,0,14,14,14,1,0,1,0,,,,,,,,,,,,,,,,,,,,,,,,,,,,,,,,,,,,,,,,,,,,,,,,,,,,,,,,,,,,,,,,30,,,,,,,,1030.3353917002678,1030.3353917002678,1030.3353917002678,1030.3353917002678,1030.3353917002678,return,1.1097552999854088,4,1,0,0,0.24,0.16,return,1.0111329997889698,-8,34,0.24,0.16,,,,,,,,,,,,,,,,,,,,,,,,,,,,,,,,,,,,,,,,,,,,,,,,,,,,,,,,T8QTJ3,train_x,blue_star,top_left,2025-02-27_17h10.59.070,HideSeek_v1,2022.2.5,59.963254517059376,
,3,8,4,8,1,0,51,,train_dim1_1,16,30,,,,2,0,2,0,,,,,,,,,0,0,0,0,0,15,15,15,0,0,0,0,,,,,,,,,,,,,,,,,,,,,,,,,stimuli/alien_stimuli/51.png,,,,,,,,,,,,,,,,,,,,,,,,,,,,,stimuli/alien_stimuli/61.png,61,4,17,,,,,,,30,,,,,,,,1038.3688481003046,1038.3688481003046,1038.3688481003046,1038.3688481003046,1038.3688481003046,right,5.426800400018692,4,1,0,99,0.16,0.24,right,5.329937399830669,,,,,1036.808116600383,1038.3688481003046,0.16,0.16,0.0,0.0,0.16,0.16,0.16,0.16,0.16,1033.015168900136,1033.015168900136,1033.015168900136,1033.015168900136,1033.015168900136,1033.015168900136,1033.015168900136,1033.015168900136,1033.0048175400123,3.922256200108677,return,3.775663699489087,,,,,,,,,,,,,,,,,,,,,,,,,,,,,,,,,T8QTJ3,train_x,blue_star,top_left,2025-02-27_17h10.59.070,HideSeek_v1,2022.2.5,59.963254517059376,
,3,8,4,8,1,0,51,,train_dim1_1,16,30,,,,2,0,2,0,,,,,,,,,0,0,0,0,0,15,15,15,1,0,1,0,,,,,,,,,,,,,,,,,,,,,,,,,,,,,,,,,,,,,,,,,,,,,,,,,,,,,,,,,,,,,,,,30,,,,,,,,1043.7968766000122,1043.7968766000122,1043.7968766000122,1043.7968766000122,1043.7968766000122,right,0.8094299999065697,4,1,0,99,0.24,0.24,right,0.7207663995213807,,,,,,,,,,,,,,,,,,,,,,,,,,,,,,,,,,,,,,,,,,,,,,,,,,,,,,,,,,,,T8QTJ3,train_x,blue_star,top_left,2025-02-27_17h10.59.070,HideSeek_v1,2022.2.5,59.963254517059376,
,3,8,4,8,1,0,51,,train_dim1_1,16,30,,,,2,0,2,0,,,,,,,,,0,0,0,0,0,15,15,15,2,0,2,0,,,,,,,,,,,,,,,,,,,,,,,,,,,,,,,,,,,,,,,,,,,,,,,,,,,,,,,,,,,,,,,,30,,,,,,,,1044.6131579000503,1044.6131579000503,1044.6131579000503,1044.6131579000503,1044.6131579000503,return,1.9612527000717819,4,1,0,0,0.24,0.24,return,1.8848537998273969,-8,36,0.24,0.24,,,,,,,,,,,,,,,,,,,,,,,,,,,,,,,,,,,,,,,,,,,,,,,,,,,,,,,,T8QTJ3,train_x,blue_star,top_left,2025-02-27_17h10.59.070,HideSeek_v1,2022.2.5,59.963254517059376,
,2,9,6,9,4,0,21,,train_dim1_1,17,30,,,,2,0,2,0,,,,,,,,,0,0,0,0,0,16,16,16,0,0,0,0,,,,,,,,,,,,,,,,,,,,,,,,,stimuli/alien_stimuli/21.png,,,,,,,,,,,,,,,,,,,,,,,,,,,,,stimuli/alien_stimuli/51.png,51,3,18,,,,,,,30,,,,,,,,1053.1323707001284,1053.1323707001284,1053.1323707001284,1053.1323707001284,1053.1323707001284,right,7.0604491997510195,4,1,0,99,0.08,0.32,right,6.962855199817568,,,,,1051.5703300000168,1053.1323707001284,0.16,0.24,0.0,0.08,0.24,0.16,0.12,0.16,0.24,1048.155674500391,1048.155674500391,1048.155674500391,1048.155674500391,1048.155674500391,1048.155674500391,1048.155674500391,1048.155674500391,1048.1342696100937,3.53853080002591,return,3.398831899743527,,,,,,,,,,,,,,,,,,,,,,,,,,,,,,,,,T8QTJ3,train_x,blue_star,top_left,2025-02-27_17h10.59.070,HideSeek_v1,2022.2.5,59.963254517059376,
,2,9,6,9,4,0,21,,train_dim1_1,17,30,,,,2,0,2,0,,,,,,,,,0,0,0,0,0,16,16,16,1,0,1,0,,,,,,,,,,,,,,,,,,,,,,,,,,,,,,,,,,,,,,,,,,,,,,,,,,,,,,,,,,,,,,,,30,,,,,,,,1060.1946315001696,1060.1946315001696,1060.1946315001696,1060.1946315001696,1060.1946315001696,right,0.7100789002142847,4,1,0,99,0.16,0.32,right,0.6307996995747089,,,,,,,,,,,,,,,,,,,,,,,,,,,,,,,,,,,,,,,,,,,,,,,,,,,,,,,,,,,,T8QTJ3,train_x,blue_star,top_left,2025-02-27_17h10.59.070,HideSeek_v1,2022.2.5,59.963254517059376,
,2,9,6,9,4,0,21,,train_dim1_1,17,30,,,,2,0,2,0,,,,,,,,,0,0,0,0,0,16,16,16,2,0,2,0,,,,,,,,,,,,,,,,,,,,,,,,,,,,,,,,,,,,,,,,,,,,,,,,,,,,,,,,,,,,,,,,30,,,,,,,,1060.9112348002382,1060.9112348002382,1060.9112348002382,1060.9112348002382,1060.9112348002382,right,0.8773573003709316,4,1,0,99,0.24,0.32,right,0.7881809994578362,,,,,,,,,,,,,,,,,,,,,,,,,,,,,,,,,,,,,,,,,,,,,,,,,,,,,,,,,,,,T8QTJ3,train_x,blue_star,top_left,2025-02-27_17h10.59.070,HideSeek_v1,2022.2.5,59.963254517059376,
,2,9,6,9,4,0,21,,train_dim1_1,17,30,,,,2,0,2,0,,,,,,,,,0,0,0,0,0,16,16,16,3,0,3,0,,,,,,,,,,,,,,,,,,,,,,,,,,,,,,,,,,,,,,,,,,,,,,,,,,,,,,,,,,,,,,,,30,,,,,,,,1061.7957654003985,1061.7957654003985,1061.7957654003985,1061.7957654003985,1061.7957654003985,right,0.893756200093776,4,1,0,99,0.32,0.32,right,0.8039895999245346,,,,,,,,,,,,,,,,,,,,,,,,,,,,,,,,,,,,,,,,,,,,,,,,,,,,,,,,,,,,T8QTJ3,train_x,blue_star,top_left,2025-02-27_17h10.59.070,HideSeek_v1,2022.2.5,59.963254517059376,
,2,9,6,9,4,0,21,,train_dim1_1,17,30,,,,2,0,2,0,,,,,,,,,0,0,0,0,0,16,16,16,4,0,4,0,,,,,,,,,,,,,,,,,,,,,,,,,,,,,,,,,,,,,,,,,,,,,,,,,,,,,,,,,,,,,,,,30,,,,,,,,1062.6962280003354,1062.6962280003354,1062.6962280003354,1062.6962280003354,1062.6962280003354,return,0.8937001000158489,5,0,0,1,0.32,0.32,return,0.8183093001134694,-8,40,0.32,0.32,,,,,,,,,,,,,,,,,,,,,,,,,,,,,,,,,,,,,,,,,,,,,,,,,,,,,,,,T8QTJ3,train_x,blue_star,top_left,2025-02-27_17h10.59.070,HideSeek_v1,2022.2.5,59.963254517059376,
,2,6,2,6,0,0,61,,train_dim1_1,18,30,,,,2,0,2,0,,,,,,,,,0,0,0,0,0,17,17,17,0,0,0,0,,,,,,,,,,,,,,,,,,,,,,,,,stimuli/alien_stimuli/61.png,,,,,,,,,,,,,,,,,,,,,,,,,,,,,stimuli/alien_stimuli/21.png,21,2,19,,,,,,,30,,,,,,,,1070.4453156003729,1070.4453156003729,1070.4453156003729,1070.4453156003729,1070.4453156003729,return,3.873451900202781,6,0,0,1,0,0.08,return,3.7864833995699883,-8,40,0,0.08,1068.8842947003432,1070.4453156003729,0.32,0.32,0.0,0.32,0.32,0.32,0.16,0.32,0.32,1065.1706962003373,1065.1706962003373,1065.1706962003373,1065.1706962003373,1065.1706962003373,1065.1706962003373,1065.1706962003373,1065.1706962003373,1065.1484167101326,3.8385894000530243,return,3.6863587996922433,,,,,,,,,,,,,,,,,,,,,,,,,,,,,,,,,T8QTJ3,train_x,blue_star,top_left,2025-02-27_17h10.59.070,HideSeek_v1,2022.2.5,59.963254517059376,
,0,8,3,8,3,0,31,,train_dim1_1,19,30,,,,2,0,2,0,,,,,,,,,0,0,0,0,0,18,18,18,0,0,0,0,,,,,,,,,,,,,,,,,,,,,,,,,stimuli/alien_stimuli/31.png,,,,,,,,,,,,,,,,,,,,,,,,,,,,,stimuli/alien_stimuli/61.png,61,2,20,,,,,,,30,,,,,,,,1080.117495200131,1080.117495200131,1080.117495200131,1080.117495200131,1080.117495200131,right,7.561915599741042,6,0,0,99,-0.08,0.24,right,7.469491499941796,,,,,1078.5594037002884,1080.117495200131,0,0.08,0.0,0.0,0.08,0,0.0,0,0.08,1075.8808503001928,1075.8808503001928,1075.8808503001928,1075.8808503001928,1075.8808503001928,1075.8808503001928,1075.8808503001928,1075.8808503001928,1075.873642410198,2.788124800194055,return,2.657948199659586,,,,,,,,,,,,,,,,,,,,,,,,,,,,,,,,,T8QTJ3,train_x,blue_star,top_left,2025-02-27_17h10.59.070,HideSeek_v1,2022.2.5,59.963254517059376,
,0,8,3,8,3,0,31,,train_dim1_1,19,30,,,,2,0,2,0,,,,,,,,,0,0,0,0,0,18,18,18,1,0,1,0,,,,,,,,,,,,,,,,,,,,,,,,,,,,,,,,,,,,,,,,,,,,,,,,,,,,,,,,,,,,,,,,30,,,,,,,,1087.6838617003523,1087.6838617003523,1087.6838617003523,1087.6838617003523,1087.6838617003523,right,0.8079459997825325,6,0,0,99,0.0,0.24,right,0.72384939994663,,,,,,,,,,,,,,,,,,,,,,,,,,,,,,,,,,,,,,,,,,,,,,,,,,,,,,,,,,,,T8QTJ3,train_x,blue_star,top_left,2025-02-27_17h10.59.070,HideSeek_v1,2022.2.5,59.963254517059376,
,0,8,3,8,3,0,31,,train_dim1_1,19,30,,,,2,0,2,0,,,,,,,,,0,0,0,0,0,18,18,18,2,0,2,0,,,,,,,,,,,,,,,,,,,,,,,,,,,,,,,,,,,,,,,,,,,,,,,,,,,,,,,,,,,,,,,,30,,,,,,,,1088.4967396003194,1088.4967396003194,1088.4967396003194,1088.4967396003194,1088.4967396003194,right,0.8936625998467207,6,0,0,99,0.08,0.24,right,0.8169468999840319,,,,,,,,,,,,,,,,,,,,,,,,,,,,,,,,,,,,,,,,,,,,,,,,,,,,,,,,,,,,T8QTJ3,train_x,blue_star,top_left,2025-02-27_17h10.59.070,HideSeek_v1,2022.2.5,59.963254517059376,
,0,8,3,8,3,0,31,,train_dim1_1,19,30,,,,2,0,2,0,,,,,,,,,0,0,0,0,0,18,18,18,3,0,3,0,,,,,,,,,,,,,,,,,,,,,,,,,,,,,,,,,,,,,,,,,,,,,,,,,,,,,,,,,,,,,,,,30,,,,,,,,1089.3980845999904,1089.3980845999904,1089.3980845999904,1089.3980845999904,1089.3980845999904,return,1.027481300290674,7,0,0,1,0.08,0.24,return,0.943042999599129,-8,43,0.08,0.24,,,,,,,,,,,,,,,,,,,,,,,,,,,,,,,,,,,,,,,,,,,,,,,,,,,,,,,,T8QTJ3,train_x,blue_star,top_left,2025-02-27_17h10.59.070,HideSeek_v1,2022.2.5,59.963254517059376,
,0,6,5,6,5,0,11,,train_dim1_1,20,30,,,,2,0,2,0,,,,,,,,,0,0,0,0,0,19,19,19,0,0,0,0,,,,,,,,,,,,,,,,,,,,,,,,,stimuli/alien_stimuli/11.png,,,,,,,,,,,,,,,,,,,,,,,,,,,,,stimuli/alien_stimuli/31.png,31,0,21,,,,,,,30,,,,,,,,1096.5704025002196,1096.5704025002196,1096.5704025002196,1096.5704025002196,1096.5704025002196,right,4.20700419973582,7,0,0,99,-0.08,0.08,right,4.123459899798036,,,,,1095.0064583001658,1096.5704025002196,0.08,0.24,0.0,0.24,0.24,0.08,-0.04,0.08,0.24,1092.007108299993,1092.007108299993,1092.007108299993,1092.007108299993,1092.007108299993,1092.007108299993,1092.007108299993,1092.007108299993,1091.9869212098884,3.1217167996801436,return,2.978097999934107,,,,,,,,,,,,,,,,,,,,,,,,,,,,,,,,,T8QTJ3,train_x,blue_star,top_left,2025-02-27_17h10.59.070,HideSeek_v1,2022.2.5,59.963254517059376,
,0,6,5,6,5,0,11,,train_dim1_1,20,30,,,,2,0,2,0,,,,,,,,,0,0,0,0,0,19,19,19,1,0,1,0,,,,,,,,,,,,,,,,,,,,,,,,,,,,,,,,,,,,,,,,,,,,,,,,,,,,,,,,,,,,,,,,30,,,,,,,,1100.7790830000304,1100.7790830000304,1100.7790830000304,1100.7790830000304,1100.7790830000304,right,0.7767195999622345,7,0,0,99,0.0,0.08,right,0.6979656997136772,,,,,,,,,,,,,,,,,,,,,,,,,,,,,,,,,,,,,,,,,,,,,,,,,,,,,,,,,,,,T8QTJ3,train_x,blue_star,top_left,2025-02-27_17h10.59.070,HideSeek_v1,2022.2.5,59.963254517059376,
,0,6,5,6,5,0,11,,train_dim1_1,20,30,,,,2,0,2,0,,,,,,,,,0,0,0,0,0,19,19,19,2,0,2,0,,,,,,,,,,,,,,,,,,,,,,,,,,,,,,,,,,,,,,,,,,,,,,,,,,,,,,,,,,,,,,,,30,,,,,,,,1101.562701600138,1101.562701600138,1101.562701600138,1101.562701600138,1101.562701600138,right,0.7431767997331917,7,0,0,99,0.08,0.08,right,0.6616317997686565,,,,,,,,,,,,,,,,,,,,,,,,,,,,,,,,,,,,,,,,,,,,,,,,,,,,,,,,,,,,T8QTJ3,train_x,blue_star,top_left,2025-02-27_17h10.59.070,HideSeek_v1,2022.2.5,59.963254517059376,
,0,6,5,6,5,0,11,,train_dim1_1,20,30,,,,2,0,2,0,,,,,,,,,0,0,0,0,0,19,19,19,3,0,3,0,,,,,,,,,,,,,,,,,,,,,,,,,,,,,,,,,,,,,,,,,,,,,,,,,,,,,,,,,,,,,,,,30,,,,,,,,1102.312128700316,1102.312128700316,1102.312128700316,1102.312128700316,1102.312128700316,right,0.9439522000029683,7,0,0,99,0.16,0.08,right,0.8621106995269656,,,,,,,,,,,,,,,,,,,,,,,,,,,,,,,,,,,,,,,,,,,,,,,,,,,,,,,,,,,,T8QTJ3,train_x,blue_star,top_left,2025-02-27_17h10.59.070,HideSeek_v1,2022.2.5,59.963254517059376,
,0,6,5,6,5,0,11,,train_dim1_1,20,30,,,,2,0,2,0,,,,,,,,,0,0,0,0,0,19,19,19,4,0,4,0,,,,,,,,,,,,,,,,,,,,,,,,,,,,,,,,,,,,,,,,,,,,,,,,,,,,,,,,,,,,,,,,30,,,,,,,,1103.2631693002768,1103.2631693002768,1103.2631693002768,1103.2631693002768,1103.2631693002768,right,2.6783067998476326,7,0,0,99,0.24,0.08,right,2.5986556001007557,,,,,,,,,,,,,,,,,,,,,,,,,,,,,,,,,,,,,,,,,,,,,,,,,,,,,,,,,,,,T8QTJ3,train_x,blue_star,top_left,2025-02-27_17h10.59.070,HideSeek_v1,2022.2.5,59.963254517059376,
,0,6,5,6,5,0,11,,train_dim1_1,20,30,,,,2,0,2,0,,,,,,,,,0,0,0,0,0,19,19,19,5,0,5,0,,,,,,,,,,,,,,,,,,,,,,,,,,,,,,,,,,,,,,,,,,,,,,,,,,,,,,,,,,,,,,,,30,,,,,,,,1105.9484084001742,1105.9484084001742,1105.9484084001742,1105.9484084001742,1105.9484084001742,return,1.0608259998261929,8,0,0,1,0.24,0.08,return,0.9796890001744032,-8,48,0.24,0.08,,,,,,,,,,,,,,,,,,,,,,,,,,,,,,,,,,,,,,,,,,,,,,,,,,,,,,,,T8QTJ3,train_x,blue_star,top_left,2025-02-27_17h10.59.070,HideSeek_v1,2022.2.5,59.963254517059376,
,4,7,7,7,3,0,31,,train_dim1_1,21,30,,,,2,0,2,0,,,,,,,,,0,0,0,0,0,20,20,20,0,0,0,0,,,,,,,,,,,,,,,,,,,,,,,,,stimuli/alien_stimuli/31.png,,,,,,,,,,,,,,,,,,,,,,,,,,,,,stimuli/alien_stimuli/11.png,11,0,22,,,,,,,30,,,,,,,,1112.711187100038,1112.711187100038,1112.711187100038,1112.711187100038,1112.711187100038,right,7.027999599929899,8,0,0,99,0.24,0.16,right,6.944239299744368,,,,,1111.1532374001108,1112.711187100038,0.24,0.08,0.0,0.4,0.08,0.24,0.039999999999999994,0.24,0.08,1108.6042843000032,1108.6042843000032,1108.6042843000032,1108.6042843000032,1108.6042843000032,1108.6042843000032,1108.6042843000032,1108.6042843000032,1108.584919439815,2.686686399858445,return,2.527032899670303,,,,,,,,,,,,,,,,,,,,,,,,,,,,,,,,,T8QTJ3,train_x,blue_star,top_left,2025-02-27_17h10.59.070,HideSeek_v1,2022.2.5,59.963254517059376,
,4,7,7,7,3,0,31,,train_dim1_1,21,30,,,,2,0,2,0,,,,,,,,,0,0,0,0,0,20,20,20,1,0,1,0,,,,,,,,,,,,,,,,,,,,,,,,,,,,,,,,,,,,,,,,,,,,,,,,,,,,,,,,,,,,,,,,30,,,,,,,,1119.7413350003771,1119.7413350003771,1119.7413350003771,1119.7413350003771,1119.7413350003771,right,0.7265956001356244,8,0,0,99,0.32,0.16,right,0.644642099738121,,,,,,,,,,,,,,,,,,,,,,,,,,,,,,,,,,,,,,,,,,,,,,,,,,,,,,,,,,,,T8QTJ3,train_x,blue_star,top_left,2025-02-27_17h10.59.070,HideSeek_v1,2022.2.5,59.963254517059376,
,4,7,7,7,3,0,31,,train_dim1_1,21,30,,,,2,0,2,0,,,,,,,,,0,0,0,0,0,20,20,20,2,0,2,0,,,,,,,,,,,,,,,,,,,,,,,,,,,,,,,,,,,,,,,,,,,,,,,,,,,,,,,,,,,,,,,,30,,,,,,,,1120.4742297003977,1120.4742297003977,1120.4742297003977,1120.4742297003977,1120.4742297003977,right,0.6764911999925971,8,0,0,99,0.4,0.16,right,0.6034239996224642,,,,,,,,,,,,,,,,,,,,,,,,,,,,,,,,,,,,,,,,,,,,,,,,,,,,,,,,,,,,T8QTJ3,train_x,blue_star,top_left,2025-02-27_17h10.59.070,HideSeek_v1,2022.2.5,59.963254517059376,
,4,7,7,7,3,0,31,,train_dim1_1,21,30,,,,2,0,2,0,,,,,,,,,0,0,0,0,0,20,20,20,3,0,3,0,,,,,,,,,,,,,,,,,,,,,,,,,,,,,,,,,,,,,,,,,,,,,,,,,,,,,,,,,,,,,,,,30,,,,,,,,1121.1583070000634,1121.1583070000634,1121.1583070000634,1121.1583070000634,1121.1583070000634,return,0.977432600222528,9,0,0,1,0.4,0.16,return,0.8988928999751806,-8,51,0.4,0.16,,,,,,,,,,,,,,,,,,,,,,,,,,,,,,,,,,,,,,,,,,,,,,,,,,,,,,,,T8QTJ3,train_x,blue_star,top_left,2025-02-27_17h10.59.070,HideSeek_v1,2022.2.5,59.963254517059376,
,1,5,5,5,4,0,21,,train_dim1_1,22,30,,,,2,0,2,0,,,,,,,,,0,0,0,0,0,21,21,21,0,0,0,0,,,,,,,,,,,,,,,,,,,,,,,,,stimuli/alien_stimuli/21.png,,,,,,,,,,,,,,,,,,,,,,,,,,,,,stimuli/alien_stimuli/31.png,31,4,23,,,,,,,30,,,,,,,,1127.520162800327,1127.520162800327,1127.520162800327,1127.520162800327,1127.520162800327,right,4.092947300057858,9,0,0,99,0.0,0,right,3.9921262999996543,,,,,1125.9487697002478,1127.520162800327,0.4,0.16,0.0,0.24,0.16,0.4,0.28,0.4,0.16,1123.7133004004136,1123.7133004004136,1123.7133004004136,1123.7133004004136,1123.7133004004136,1123.7133004004136,1123.7133004004136,1123.7133004004136,1123.6967100101056,2.3543334999121726,return,2.215015299618244,,,,,,,,,,,,,,,,,,,,,,,,,,,,,,,,,T8QTJ3,train_x,blue_star,top_left,2025-02-27_17h10.59.070,HideSeek_v1,2022.2.5,59.963254517059376,
,1,5,5,5,4,0,21,,train_dim1_1,22,30,,,,2,0,2,0,,,,,,,,,0,0,0,0,0,21,21,21,1,0,1,0,,,,,,,,,,,,,,,,,,,,,,,,,,,,,,,,,,,,,,,,,,,,,,,,,,,,,,,,,,,,,,,,30,,,,,,,,1131.6046518003568,1131.6046518003568,1131.6046518003568,1131.6046518003568,1131.6046518003568,right,0.7265857998281717,9,0,0,99,0.08,0,right,0.6447288999333978,,,,,,,,,,,,,,,,,,,,,,,,,,,,,,,,,,,,,,,,,,,,,,,,,,,,,,,,,,,,T8QTJ3,train_x,blue_star,top_left,2025-02-27_17h10.59.070,HideSeek_v1,2022.2.5,59.963254517059376,
,1,5,5,5,4,0,21,,train_dim1_1,22,30,,,,2,0,2,0,,,,,,,,,0,0,0,0,0,21,21,21,2,0,2,0,,,,,,,,,,,,,,,,,,,,,,,,,,,,,,,,,,,,,,,,,,,,,,,,,,,,,,,,,,,,,,,,30,,,,,,,,1132.3386576003395,1132.3386576003395,1132.3386576003395,1132.3386576003395,1132.3386576003395,right,0.7432812000624835,9,0,0,99,0.16,0,right,0.6585746998898685,,,,,,,,,,,,,,,,,,,,,,,,,,,,,,,,,,,,,,,,,,,,,,,,,,,,,,,,,,,,T8QTJ3,train_x,blue_star,top_left,2025-02-27_17h10.59.070,HideSeek_v1,2022.2.5,59.963254517059376,
,1,5,5,5,4,0,21,,train_dim1_1,22,30,,,,2,0,2,0,,,,,,,,,0,0,0,0,0,21,21,21,3,0,3,0,,,,,,,,,,,,,,,,,,,,,,,,,,,,,,,,,,,,,,,,,,,,,,,,,,,,,,,,,,,,,,,,30,,,,,,,,1133.0875019002706,1133.0875019002706,1133.0875019002706,1133.0875019002706,1133.0875019002706,right,0.9439814002253115,9,0,0,99,0.24,0,right,0.8518630997277796,,,,,,,,,,,,,,,,,,,,,,,,,,,,,,,,,,,,,,,,,,,,,,,,,,,,,,,,,,,,T8QTJ3,train_x,blue_star,top_left,2025-02-27_17h10.59.070,HideSeek_v1,2022.2.5,59.963254517059376,
,1,5,5,5,4,0,21,,train_dim1_1,22,30,,,,2,0,2,0,,,,,,,,,0,0,0,0,0,21,21,21,4,0,4,0,,,,,,,,,,,,,,,,,,,,,,,,,,,,,,,,,,,,,,,,,,,,,,,,,,,,,,,,,,,,,,,,30,,,,,,,,1134.039542700164,1134.039542700164,1134.039542700164,1134.039542700164,1134.039542700164,return,0.860281600151211,10,0,0,1,0.24,0,return,0.7762330998666584,-8,55,0.24,0,,,,,,,,,,,,,,,,,,,,,,,,,,,,,,,,,,,,,,,,,,,,,,,,,,,,,,,,T8QTJ3,train_x,blue_star,top_left,2025-02-27_17h10.59.070,HideSeek_v1,2022.2.5,59.963254517059376,
,2,6,2,6,0,0,61,,train_dim1_1,23,30,,,,2,0,2,0,,,,,,,,,0,0,0,0,0,22,22,22,0,0,0,0,,,,,,,,,,,,,,,,,,,,,,,,,stimuli/alien_stimuli/61.png,,,,,,,,,,,,,,,,,,,,,,,,,,,,,stimuli/alien_stimuli/21.png,21,1,24,,,,,,,30,,,,,,,,1140.370737500023,1140.370737500023,1140.370737500023,1140.370737500023,1140.370737500023,return,2.4745744997635484,11,0,0,1,0,0.08,return,2.363233699928969,-8,55,0,0.08,1138.7927380003966,1140.370737500023,0.24,0,0.0,0.32,0.0,0.24,0.07999999999999999,0.24,0,1136.4647208000533,1136.4647208000533,1136.4647208000533,1136.4647208000533,1136.4647208000533,1136.4647208000533,1136.4647208000533,1136.4647208000533,1136.4571643099653,2.4378442000597715,return,2.300127800088376,,,,,,,,,,,,,,,,,,,,,,,,,,,,,,,,,T8QTJ3,train_x,blue_star,top_left,2025-02-27_17h10.59.070,HideSeek_v1,2022.2.5,59.963254517059376,
,4,9,5,9,1,0,51,,train_dim1_1,24,30,,,,2,0,2,0,,,,,,,,,0,0,0,0,0,23,23,23,0,0,0,0,,,,,,,,,,,,,,,,,,,,,,,,,stimuli/alien_stimuli/51.png,,,,,,,,,,,,,,,,,,,,,,,,,,,,,stimuli/alien_stimuli/61.png,61,2,25,,,,,,,30,,,,,,,,1147.8098022001795,1147.8098022001795,1147.8098022001795,1147.8098022001795,1147.8098022001795,return,7.712501700036228,11,1,0,0,0.16,0.32,return,7.601870199665427,-8,55,0.16,0.32,1146.2319887001067,1147.8098022001795,0,0.08,0.0,0.0,0.08,0,0.0,0,0.08,1144.3850601003505,1144.3850601003505,1144.3850601003505,1144.3850601003505,1144.3850601003505,1144.3850601003505,1144.3850601003505,1144.3850601003505,1144.3639173800125,1.9538920000195503,return,1.8256757999770343,,,,,,,,,,,,,,,,,,,,,,,,,,,,,,,,,T8QTJ3,train_x,blue_star,top_left,2025-02-27_17h10.59.070,HideSeek_v1,2022.2.5,59.963254517059376,
,3,5,8,5,5,0,11,,train_dim1_1,25,30,,,,2,0,2,0,,,,,,,,,0,0,0,0,0,24,24,24,0,0,0,0,,,,,,,,,,,,,,,,,,,,,,,,,stimuli/alien_stimuli/11.png,,,,,,,,,,,,,,,,,,,,,,,,,,,,,stimuli/alien_stimuli/51.png,51,4,26,,,,,,,30,,,,,,,,1161.7578951003961,1161.7578951003961,1161.7578951003961,1161.7578951003961,1161.7578951003961,right,1.7887133997865021,11,1,0,99,0.16,0,right,1.7034804001450539,,,,,1160.1937261000276,1161.7578951003961,0.24,0.32,0.0,0.08,0.32,0.24,0.2,0.24,0.32,1157.0889885001816,1157.0889885001816,1157.0889885001816,1157.0889885001816,1157.0889885001816,1157.0889885001816,1157.0889885001816,1157.0889885001816,1157.0743910397402,3.2385042002424598,return,3.08605569973588,,,,,,,,,,,,,,,,,,,,,,,,,,,,,,,,,T8QTJ3,train_x,blue_star,top_left,2025-02-27_17h10.59.070,HideSeek_v1,2022.2.5,59.963254517059376,
,3,5,8,5,5,0,11,,train_dim1_1,25,30,,,,2,0,2,0,,,,,,,,,0,0,0,0,0,24,24,24,1,0,1,0,,,,,,,,,,,,,,,,,,,,,,,,,,,,,,,,,,,,,,,,,,,,,,,,,,,,,,,,,,,,,,,,30,,,,,,,,1163.5472882003523,1163.5472882003523,1163.5472882003523,1163.5472882003523,1163.5472882003523,right,0.5760693000629544,11,1,0,99,0.24,0,right,0.4864462995901704,,,,,,,,,,,,,,,,,,,,,,,,,,,,,,,,,,,,,,,,,,,,,,,,,,,,,,,,,,,,T8QTJ3,train_x,blue_star,top_left,2025-02-27_17h10.59.070,HideSeek_v1,2022.2.5,59.963254517059376,
,3,5,8,5,5,0,11,,train_dim1_1,25,30,,,,2,0,2,0,,,,,,,,,0,0,0,0,0,24,24,24,2,0,2,0,,,,,,,,,,,,,,,,,,,,,,,,,,,,,,,,,,,,,,,,,,,,,,,,,,,,,,,,,,,,,,,,30,,,,,,,,1164.1307976003736,1164.1307976003736,1164.1307976003736,1164.1307976003736,1164.1307976003736,right,0.643089700024575,11,1,0,99,0.32,0,right,0.5614656000398099,,,,,,,,,,,,,,,,,,,,,,,,,,,,,,,,,,,,,,,,,,,,,,,,,,,,,,,,,,,,T8QTJ3,train_x,blue_star,top_left,2025-02-27_17h10.59.070,HideSeek_v1,2022.2.5,59.963254517059376,
,3,5,8,5,5,0,11,,train_dim1_1,25,30,,,,2,0,2,0,,,,,,,,,0,0,0,0,0,24,24,24,3,0,3,0,,,,,,,,,,,,,,,,,,,,,,,,,,,,,,,,,,,,,,,,,,,,,,,,,,,,,,,,,,,,,,,,30,,,,,,,,1164.7807696000673,1164.7807696000673,1164.7807696000673,1164.7807696000673,1164.7807696000673,right,0.7771791997365654,11,1,0,99,0.4,0,right,0.7000096999108791,,,,,,,,,,,,,,,,,,,,,,,,,,,,,,,,,,,,,,,,,,,,,,,,,,,,,,,,,,,,T8QTJ3,train_x,blue_star,top_left,2025-02-27_17h10.59.070,HideSeek_v1,2022.2.5,59.963254517059376,
,3,5,8,5,5,0,11,,train_dim1_1,25,30,,,,2,0,2,0,,,,,,,,,0,0,0,0,0,24,24,24,4,0,4,0,,,,,,,,,,,,,,,,,,,,,,,,,,,,,,,,,,,,,,,,,,,,,,,,,,,,,,,,,,,,,,,,30,,,,,,,,1165.5656143003143,1165.5656143003143,1165.5656143003143,1165.5656143003143,1165.5656143003143,right,0.5599764003418386,11,1,0,99,0.48000000000000004,0,right,0.4772324999794364,,,,,,,,,,,,,,,,,,,,,,,,,,,,,,,,,,,,,,,,,,,,,,,,,,,,,,,,,,,,T8QTJ3,train_x,blue_star,top_left,2025-02-27_17h10.59.070,HideSeek_v1,2022.2.5,59.963254517059376,
,3,5,8,5,5,0,11,,train_dim1_1,25,30,,,,2,0,2,0,,,,,,,,,0,0,0,0,0,24,24,24,5,0,5,0,,,,,,,,,,,,,,,,,,,,,,,,,,,,,,,,,,,,,,,,,,,,,,,,,,,,,,,,,,,,,,,,30,,,,,,,,1166.1326335002668,1166.1326335002668,1166.1326335002668,1166.1326335002668,1166.1326335002668,return,0.8773529999889433,12,0,0,1,0.48000000000000004,0,return,0.7955187996849418,-8,60,0.48000000000000004,0,,,,,,,,,,,,,,,,,,,,,,,,,,,,,,,,,,,,,,,,,,,,,,,,,,,,,,,,T8QTJ3,train_x,blue_star,top_left,2025-02-27_17h10.59.070,HideSeek_v1,2022.2.5,59.963254517059376,
,1,6,1,6,0,0,61,,train_dim1_1,26,30,,,,2,0,2,0,,,,,,,,,0,0,0,0,0,25,25,25,0,0,0,0,,,,,,,,,,,,,,,,,,,,,,,,,stimuli/alien_stimuli/61.png,,,,,,,,,,,,,,,,,,,,,,,,,,,,,stimuli/alien_stimuli/11.png,11,3,27,,,,,,,30,,,,,,,,1172.1213189000264,1172.1213189000264,1172.1213189000264,1172.1213189000264,1172.1213189000264,return,2.0881847999989986,13,0,0,1,-0.08,0.08,return,1.9957268997095525,-8,60,-0.08,0.08,1170.5524343000725,1172.1213189000264,0.48,0,0.0,0.4,0.0,0.48,0.27999999999999997,0.48,0,1168.5970456004143,1168.5970456004143,1168.5970456004143,1168.5970456004143,1168.5970456004143,1168.5970456004143,1168.5970456004143,1168.5970456004143,1168.583821039833,2.087650000117719,return,1.9381340998224914,,,,,,,,,,,,,,,,,,,,,,,,,,,,,,,,,T8QTJ3,train_x,blue_star,top_left,2025-02-27_17h10.59.070,HideSeek_v1,2022.2.5,59.963254517059376,
,0,6,3,6,3,0,31,,train_dim1_1,27,30,,,,2,0,2,0,,,,,,,,,0,0,0,0,0,26,26,26,0,0,0,0,,,,,,,,,,,,,,,,,,,,,,,,,stimuli/alien_stimuli/31.png,,,,,,,,,,,,,,,,,,,,,,,,,,,,,stimuli/alien_stimuli/61.png,61,1,28,,,,,,,30,,,,,,,,1179.1010740003549,1179.1010740003549,1179.1010740003549,1179.1010740003549,1179.1010740003549,right,2.0905387001112103,13,0,0,99,-0.08,0.08,right,1.985679599456489,,,,,1177.5247111003846,1179.1010740003549,-0.08,0.08,0.0,0.0,0.08,-0.08,-0.08,-0.08,0.08,1175.7576991003007,1175.7576991003007,1175.7576991003007,1175.7576991003007,1175.7576991003007,1175.7576991003007,1175.7576991003007,1175.7576991003007,1175.7400648797861,1.8704734002240002,return,1.751160599756986,,,,,,,,,,,,,,,,,,,,,,,,,,,,,,,,,T8QTJ3,train_x,blue_star,top_left,2025-02-27_17h10.59.070,HideSeek_v1,2022.2.5,59.963254517059376,
,0,6,3,6,3,0,31,,train_dim1_1,27,30,,,,2,0,2,0,,,,,,,,,0,0,0,0,0,26,26,26,1,0,1,0,,,,,,,,,,,,,,,,,,,,,,,,,,,,,,,,,,,,,,,,,,,,,,,,,,,,,,,,,,,,,,,,30,,,,,,,,1181.1761530004442,1181.1761530004442,1181.1761530004442,1181.1761530004442,1181.1761530004442,right,0.9261747002601624,13,0,0,99,0.0,0.08,right,0.8454318000003695,,,,,,,,,,,,,,,,,,,,,,,,,,,,,,,,,,,,,,,,,,,,,,,,,,,,,,,,,,,,T8QTJ3,train_x,blue_star,top_left,2025-02-27_17h10.59.070,HideSeek_v1,2022.2.5,59.963254517059376,
,0,6,3,6,3,0,31,,train_dim1_1,27,30,,,,2,0,2,0,,,,,,,,,0,0,0,0,0,26,26,26,2,0,2,0,,,,,,,,,,,,,,,,,,,,,,,,,,,,,,,,,,,,,,,,,,,,,,,,,,,,,,,,,,,,,,,,30,,,,,,,,1182.1080830004066,1182.1080830004066,1182.1080830004066,1182.1080830004066,1182.1080830004066,right,2.395158200059086,13,0,0,99,0.08,0.08,right,2.3077483996748924,,,,,,,,,,,,,,,,,,,,,,,,,,,,,,,,,,,,,,,,,,,,,,,,,,,,,,,,,,,,T8QTJ3,train_x,blue_star,top_left,2025-02-27_17h10.59.070,HideSeek_v1,2022.2.5,59.963254517059376,
,0,6,3,6,3,0,31,,train_dim1_1,27,30,,,,2,0,2,0,,,,,,,,,0,0,0,0,0,26,26,26,3,0,3,0,,,,,,,,,,,,,,,,,,,,,,,,,,,,,,,,,,,,,,,,,,,,,,,,,,,,,,,,,,,,,,,,30,,,,,,,,1184.5102218003012,1184.5102218003012,1184.5102218003012,1184.5102218003012,1184.5102218003012,return,0.7768665999174118,14,0,0,1,0.08,0.08,return,0.6988050998188555,-8,63,0.08,0.08,,,,,,,,,,,,,,,,,,,,,,,,,,,,,,,,,,,,,,,,,,,,,,,,,,,,,,,,T8QTJ3,train_x,blue_star,top_left,2025-02-27_17h10.59.070,HideSeek_v1,2022.2.5,59.963254517059376,
,3,6,7,6,4,0,21,,train_dim1_1,28,30,,,,2,0,2,0,,,,,,,,,0,0,0,0,0,27,27,27,0,0,0,0,,,,,,,,,,,,,,,,,,,,,,,,,stimuli/alien_stimuli/21.png,,,,,,,,,,,,,,,,,,,,,,,,,,,,,stimuli/alien_stimuli/31.png,31,0,29,,,,,,,30,,,,,,,,1190.6739414003678,1190.6739414003678,1190.6739414003678,1190.6739414003678,1190.6739414003678,right,1.9728526999242604,14,0,0,99,0.16,0.08,right,1.872981899883598,,,,,1189.1009950004518,1190.6739414003678,0.08,0.08,0.0,0.24,0.08,0.08,-0.04,0.08,0.08,1186.8658248004504,1186.8658248004504,1186.8658248004504,1186.8658248004504,1186.8658248004504,1186.8658248004504,1186.8658248004504,1186.8658248004504,1186.8492013100067,2.35449910024181,return,2.206654599867761,,,,,,,,,,,,,,,,,,,,,,,,,,,,,,,,,T8QTJ3,train_x,blue_star,top_left,2025-02-27_17h10.59.070,HideSeek_v1,2022.2.5,59.963254517059376,
,3,6,7,6,4,0,21,,train_dim1_1,28,30,,,,2,0,2,0,,,,,,,,,0,0,0,0,0,27,27,27,1,0,1,0,,,,,,,,,,,,,,,,,,,,,,,,,,,,,,,,,,,,,,,,,,,,,,,,,,,,,,,,,,,,,,,,30,,,,,,,,1192.6392259001732,1192.6392259001732,1192.6392259001732,1192.6392259001732,1192.6392259001732,right,0.609619100112468,14,0,0,99,0.24,0.08,right,0.5172681999392807,,,,,,,,,,,,,,,,,,,,,,,,,,,,,,,,,,,,,,,,,,,,,,,,,,,,,,,,,,,,T8QTJ3,train_x,blue_star,top_left,2025-02-27_17h10.59.070,HideSeek_v1,2022.2.5,59.963254517059376,
,3,6,7,6,4,0,21,,train_dim1_1,28,30,,,,2,0,2,0,,,,,,,,,0,0,0,0,0,27,27,27,2,0,2,0,,,,,,,,,,,,,,,,,,,,,,,,,,,,,,,,,,,,,,,,,,,,,,,,,,,,,,,,,,,,,,,,30,,,,,,,,1193.254767200444,1193.254767200444,1193.254767200444,1193.254767200444,1193.254767200444,right,0.12633119989186525,14,0,0,99,0.32,0.08,right,0.0465895994566381,,,,,,,,,,,,,,,,,,,,,,,,,,,,,,,,,,,,,,,,,,,,,,,,,,,,,,,,,,,,T8QTJ3,train_x,blue_star,top_left,2025-02-27_17h10.59.070,HideSeek_v1,2022.2.5,59.963254517059376,
,3,6,7,6,4,0,21,,train_dim1_1,28,30,,,,2,0,2,0,,,,,,,,,0,0,0,0,0,27,27,27,3,0,3,0,,,,,,,,,,,,,,,,,,,,,,,,,,,,,,,,,,,,,,,,,,,,,,,,,,,,,,,,,,,,,,,,30,,,,,,,,1193.3878458002582,1193.3878458002582,1193.3878458002582,1193.3878458002582,1193.3878458002582,right,1.560851200018078,14,0,0,99,0.4,0.08,right,1.4712830996140838,,,,,,,,,,,,,,,,,,,,,,,,,,,,,,,,,,,,,,,,,,,,,,,,,,,,,,,,,,,,T8QTJ3,train_x,blue_star,top_left,2025-02-27_17h10.59.070,HideSeek_v1,2022.2.5,59.963254517059376,
,3,6,7,6,4,0,21,,train_dim1_1,28,30,,,,2,0,2,0,,,,,,,,,0,0,0,0,0,27,27,27,4,0,4,0,,,,,,,,,,,,,,,,,,,,,,,,,,,,,,,,,,,,,,,,,,,,,,,,,,,,,,,,,,,,,,,,30,,,,,,,,1194.9559081001207,1194.9559081001207,1194.9559081001207,1194.9559081001207,1194.9559081001207,return,1.2106607002206147,15,0,0,1,0.4,0.08,return,1.1203704001381993,-8,67,0.4,0.08,,,,,,,,,,,,,,,,,,,,,,,,,,,,,,,,,,,,,,,,,,,,,,,,,,,,,,,,T8QTJ3,train_x,blue_star,top_left,2025-02-27_17h10.59.070,HideSeek_v1,2022.2.5,59.963254517059376,
,4,5,5,5,1,0,51,,train_dim1_1,29,30,,,,2,0,2,0,,,,,,,,,0,0,0,0,0,28,28,28,0,0,0,0,,,,,,,,,,,,,,,,,,,,,,,,,stimuli/alien_stimuli/51.png,,,,,,,,,,,,,,,,,,,,,,,,,,,,,stimuli/alien_stimuli/21.png,21,3,30,,,,,,,30,,,,,,,,1201.1349913002923,1201.1349913002923,1201.1349913002923,1201.1349913002923,1201.1349913002923,right,3.091085100080818,15,0,0,99,0.24,0,right,2.9863184997811913,,,,,1199.5595248001628,1201.1349913002923,0.4,0.08,0.0,0.32,0.08,0.4,0.24000000000000002,0.4,0.08,1197.7304508001544,1197.7304508001544,1197.7304508001544,1197.7304508001544,1197.7304508001544,1197.7304508001544,1197.7304508001544,1197.7304508001544,1197.72495481004,1.9371172999963164,return,1.8077479996718466,,,,,,,,,,,,,,,,,,,,,,,,,,,,,,,,,T8QTJ3,train_x,blue_star,top_left,2025-02-27_17h10.59.070,HideSeek_v1,2022.2.5,59.963254517059376,
,4,5,5,5,1,0,51,,train_dim1_1,29,30,,,,2,0,2,0,,,,,,,,,0,0,0,0,0,28,28,28,1,0,1,0,,,,,,,,,,,,,,,,,,,,,,,,,,,,,,,,,,,,,,,,,,,,,,,,,,,,,,,,,,,,,,,,30,,,,,,,,1204.2133434000425,1204.2133434000425,1204.2133434000425,1204.2133434000425,1204.2133434000425,return,0.9094675998203456,16,0,0,1,0.24,0,return,0.8314491999335587,-8,68,0.24,0,,,,,,,,,,,,,,,,,,,,,,,,,,,,,,,,,,,,,,,,,,,,,,,,,,,,,,,,T8QTJ3,train_x,blue_star,top_left,2025-02-27_17h10.59.070,HideSeek_v1,2022.2.5,59.963254517059376,
,2,7,7,7,5,0,11,,train_dim1_1,30,30,,,,2,0,2,0,,,,,,,,,0,0,0,0,0,29,29,29,0,0,0,0,,,,,,,,,,,,,,,,,,,,,,,,,stimuli/alien_stimuli/11.png,,,,,,,,,,,,,,,,,,,,,,,,,,,,,stimuli/alien_stimuli/51.png,51,4,31,,,,,,,30,,,,,,,,1210.0267246002331,1210.0267246002331,1210.0267246002331,1210.0267246002331,1210.0267246002331,right,1.824369499925524,16,0,0,99,0.08,0.16,right,1.725745199713856,,,,,1208.4504822003655,1210.0267246002331,0.24,0,0.0,0.08,0.0,0.24,0.2,0.24,0,1206.6874763001688,1206.6874763001688,1206.6874763001688,1206.6874763001688,1206.6874763001688,1206.6874763001688,1206.6874763001688,1206.6874763001688,1206.6654687802306,1.870630799792707,return,1.7453208998776972,,,,,,,,,,,,,,,,,,,,,,,,,,,,,,,,,T8QTJ3,train_x,blue_star,top_left,2025-02-27_17h10.59.070,HideSeek_v1,2022.2.5,59.963254517059376,
,2,7,7,7,5,0,11,,train_dim1_1,30,30,,,,2,0,2,0,,,,,,,,,0,0,0,0,0,29,29,29,1,0,1,0,,,,,,,,,,,,,,,,,,,,,,,,,,,,,,,,,,,,,,,,,,,,,,,,,,,,,,,,,,,,,,,,30,,,,,,,,1211.8372507002205,1211.8372507002205,1211.8372507002205,1211.8372507002205,1211.8372507002205,right,0.5595328998751938,16,0,0,99,0.16,0.16,right,0.4745361995883286,,,,,,,,,,,,,,,,,,,,,,,,,,,,,,,,,,,,,,,,,,,,,,,,,,,,,,,,,,,,T8QTJ3,train_x,blue_star,top_left,2025-02-27_17h10.59.070,HideSeek_v1,2022.2.5,59.963254517059376,
,2,7,7,7,5,0,11,,train_dim1_1,30,30,,,,2,0,2,0,,,,,,,,,0,0,0,0,0,29,29,29,2,0,2,0,,,,,,,,,,,,,,,,,,,,,,,,,,,,,,,,,,,,,,,,,,,,,,,,,,,,,,,,,,,,,,,,30,,,,,,,,1212.4040082003921,1212.4040082003921,1212.4040082003921,1212.4040082003921,1212.4040082003921,right,1.0438645998947322,16,0,0,99,0.24,0.16,right,0.9538908000104129,,,,,,,,,,,,,,,,,,,,,,,,,,,,,,,,,,,,,,,,,,,,,,,,,,,,,,,,,,,,T8QTJ3,train_x,blue_star,top_left,2025-02-27_17h10.59.070,HideSeek_v1,2022.2.5,59.963254517059376,
,2,7,7,7,5,0,11,,train_dim1_1,30,30,,,,2,0,2,0,,,,,,,,,0,0,0,0,0,29,29,29,3,0,3,0,,,,,,,,,,,,,,,,,,,,,,,,,,,,,,,,,,,,,,,,,,,,,,,,,,,,,,,,,,,,,,,,30,,,,,,,,1213.4546351004392,1213.4546351004392,1213.4546351004392,1213.4546351004392,1213.4546351004392,right,0.9271818003617227,16,0,0,99,0.32,0.16,right,0.8377279997803271,,,,,,,,,,,,,,,,,,,,,,,,,,,,,,,,,,,,,,,,,,,,,,,,,,,,,,,,,,,,T8QTJ3,train_x,blue_star,top_left,2025-02-27_17h10.59.070,HideSeek_v1,2022.2.5,59.963254517059376,
,2,7,7,7,5,0,11,,train_dim1_1,30,30,,,,2,0,2,0,,,,,,,,,0,0,0,0,0,29,29,29,4,0,4,0,,,,,,,,,,,,,,,,,,,,,,,,,,,,,,,,,,,,,,,,,,,,,,,,,,,,,,,,,,,,,,,,30,,,,,,,,1214.391016700305,1214.391016700305,1214.391016700305,1214.391016700305,1214.391016700305,right,1.377383400220424,16,0,0,99,0.4,0.16,right,1.2966166995465755,,,,,,,,,,,,,,,,,,,,,,,,,,,,,,,,,,,,,,,,,,,,,,,,,,,,,,,,,,,,T8QTJ3,train_x,blue_star,top_left,2025-02-27_17h10.59.070,HideSeek_v1,2022.2.5,59.963254517059376,
,2,7,7,7,5,0,11,,train_dim1_1,30,30,,,,2,0,2,0,,,,,,,,,0,0,0,0,0,29,29,29,5,0,5,0,,,,,,,,,,,,,,,,,,,,,,,,,,,,,,,,,,,,,,,,,,,,,,,,,,,,,,,,,,,,,,,,30,,,,,,,,1215.7733115004376,1215.7733115004376,1215.7733115004376,1215.7733115004376,1215.7733115004376,return,1.344025299884379,17,0,0,1,0.4,0.16,return,1.257419599685818,-8,73,0.4,0.16,,,,,,,,,,,,,,,,,,,,,,,,,,,,,,,,,,,,,,,,,,,,,,,,,,,,,,,,T8QTJ3,train_x,blue_star,top_left,2025-02-27_17h10.59.070,HideSeek_v1,2022.2.5,59.963254517059376,
,,,,,,,,,,,30,,,,2,0,2,0,,,,,,,,,,,,,,,,,,,,,,,,,,,,,,,,,,,,,,,,,,,,,,,,,,,,,,,,,,,,,,,,,,,,,,,,,,stimuli/alien_stimuli/11.png,11,2,32,21,0.7,0.7083333333333335,1,1,1,30,0,conditions/schedules/train_x_first/blue_star_00/top_left/inputTrain_2.1.xlsx,99,1,2,1,0,,,,,,,,,,,1,,,,,,,,,1220.4943191003986,1222.0529991001822,0.4,0.16,0.0,0.4,0.16,0.4,0.2,0.4,0.16,1218.706854800228,1218.706854800228,1218.706854800228,1218.706854800228,1218.706854800228,1218.706854800228,1218.706854800228,1218.706854800228,1218.69213413978,1.921110900118947,return,1.7703257999382913,0,0.9,0,1,17,,,,,,,,,,,,,,,,,,,,,,,,,,,,T8QTJ3,train_x,blue_star,top_left,2025-02-27_17h10.59.070,HideSeek_v1,2022.2.5,59.963254517059376,
,,,,,,,,,,,,,,,3,0,3,0,0,0,0,0,,,,,,,,,,,,,,,,,,,,,,,,,,,,,,,conditions/schedules/train_x_first/blue_star_00/top_left/instructions/Slide17.png,conditions/schedules/train_x_first/blue_star_00/top_left/instructions/Audio17.wav,1222.0529991001822,1222.0451687202788,17,"[7.152114199940115, 36.865553400013596, 16.953563999850303, 19.486990800127387, 4.7009825999848545, 4.935915799811482, 5.737460299860686, 11.890086600091308, 6.11906799999997, 7.2349097998812795, 9.735464500263333, 13.00691770017147, 18.6507804999128, 12.926621799822897, 31.320159600116313, 21.211451599840075, 49.630305000115186]","[0.00022639986127614975, 0.014041800051927567, 0.05471740011125803, 0.04724919982254505, 0.04871369991451502, 0.06598189985379577, 0.09652769984677434, 0.03114739991724491, 0.04597839992493391, 0.03066800022497773, 0.06302870018407702, 13.006926600355655, 0.0990630998276174, 12.92662959964946, 0.03026650007814169, 21.211458299774677, 49.630311800166965]",0,,,,,,,,,,,,,,,,,,,,,,,,,,,,,,,,,,,,,,,,,,,,,,,,,,,,,,,,,,,,,,,,,,,,,,,,,,,,,,,,,,,,,,,,,,,,,,,,,,,,,,,,,,,,,,,,,,,,,,,,,,,,T8QTJ3,train_x,blue_star,top_left,2025-02-27_17h10.59.070,HideSeek_v1,2022.2.5,59.963254517059376,
,,,,,,,,,,,,,,,3,0,3,0,1,0,1,0,,,,,,,,,,,,,,,,,,,,,,,,,,,,,,,conditions/schedules/train_x_first/blue_star_00/top_left/instructions/Slide18.png,conditions/schedules/train_x_first/blue_star_00/top_left/instructions/Audio18.wav,1271.7499323002994,1271.7362370198591,18,"[7.152114199940115, 36.865553400013596, 16.953563999850303, 19.486990800127387, 4.7009825999848545, 4.935915799811482, 5.737460299860686, 11.890086600091308, 6.11906799999997, 7.2349097998812795, 9.735464500263333, 13.00691770017147, 18.6507804999128, 12.926621799822897, 31.320159600116313, 21.211451599840075, 49.630305000115186, 6.589142999611795]","[0.00022639986127614975, 0.014041800051927567, 0.05471740011125803, 0.04724919982254505, 0.04871369991451502, 0.06598189985379577, 0.09652769984677434, 0.03114739991724491, 0.04597839992493391, 0.03066800022497773, 0.06302870018407702, 13.006926600355655, 0.0990630998276174, 12.92662959964946, 0.03026650007814169, 21.211458299774677, 0.034162699710577726, 6.589149399660528]",0,,,,,,,,,,,,,,,,,,,,,,,,,,,,,,,,,,,,,,,,,,,,,,,,,,,,,,,,,,,,,,,,,,,,,,,,,,,,,,,,,,,,,,,,,,,,,,,,,,,,,,,,,,,,,,,,,,,,,,,,,,,,T8QTJ3,train_x,blue_star,top_left,2025-02-27_17h10.59.070,HideSeek_v1,2022.2.5,59.963254517059376,
,,,,,,,,,,,,,,,3,0,3,0,2,0,2,0,,,,,,,,,,,,,,,,,,,,,,,,,,,,,,,conditions/schedules/train_x_first/blue_star_00/top_left/instructions/Slide19.png,conditions/schedules/train_x_first/blue_star_00/top_left/instructions/Audio19.wav,1278.3770487001166,1278.3749545900616,19,"[7.152114199940115, 36.865553400013596, 16.953563999850303, 19.486990800127387, 4.7009825999848545, 4.935915799811482, 5.737460299860686, 11.890086600091308, 6.11906799999997, 7.2349097998812795, 9.735464500263333, 13.00691770017147, 18.6507804999128, 12.926621799822897, 31.320159600116313, 21.211451599840075, 49.630305000115186, 6.589142999611795, 10.419604700058699]","[0.00022639986127614975, 0.014041800051927567, 0.05471740011125803, 0.04724919982254505, 0.04871369991451502, 0.06598189985379577, 0.09652769984677434, 0.03114739991724491, 0.04597839992493391, 0.03066800022497773, 0.06302870018407702, 13.006926600355655, 0.0990630998276174, 12.92662959964946, 0.03026650007814169, 21.211458299774677, 0.034162699710577726, 0.07790419971570373, 10.419611199758947]",0,,,,,,,,,,,,,,,,,,,,,,,,,,,,,,,,,,,,,,,,,,,,,,,,,,,,,,,,,,,,,,,,,,,,,,,,,,,,,,,,,,,,,,,,,,,,,,,,,,,,,,,,,,,,,,,,,,,,,,,,,,,,T8QTJ3,train_x,blue_star,top_left,2025-02-27_17h10.59.070,HideSeek_v1,2022.2.5,59.963254517059376,
,,,,,,,,,,,,,,,3,0,3,0,3,0,3,0,,,,,,,,,,,,,,,,,,,,,,,,,,,,,,,conditions/schedules/train_x_first/blue_star_00/top_left/instructions/Slide20.png,conditions/schedules/train_x_first/blue_star_00/top_left/instructions/Audio20.wav,1288.8650039001368,1288.867014850257,20,"[7.152114199940115, 36.865553400013596, 16.953563999850303, 19.486990800127387, 4.7009825999848545, 4.935915799811482, 5.737460299860686, 11.890086600091308, 6.11906799999997, 7.2349097998812795, 9.735464500263333, 13.00691770017147, 18.6507804999128, 12.926621799822897, 31.320159600116313, 21.211451599840075, 49.630305000115186, 6.589142999611795, 10.419604700058699, 14.561411400325596]","[0.00022639986127614975, 0.014041800051927567, 0.05471740011125803, 0.04724919982254505, 0.04871369991451502, 0.06598189985379577, 0.09652769984677434, 0.03114739991724491, 0.04597839992493391, 0.03066800022497773, 0.06302870018407702, 13.006926600355655, 0.0990630998276174, 12.92662959964946, 0.03026650007814169, 21.211458299774677, 0.034162699710577726, 0.07790419971570373, 0.013963399920612574, 14.561418800149113]",0,,,,,,,,,,,,,,,,,,,,,,,,,,,,,,,,,,,,,,,,,,,,,,,,,,,,,,,,,,,,,,,,,,,,,,,,,,,,,,,,,,,,,,,,,,,,,,,,,,,,,,,,,,,,,,,,,,,,,,,,,,,,T8QTJ3,train_x,blue_star,top_left,2025-02-27_17h10.59.070,HideSeek_v1,2022.2.5,59.963254517059376,
1,0,8,0,3,0,-5,66,2,instr_dim1_2,,,,,,3,0,3,0,,,,,0,0,0,0,,,,,,,,,,,,,,,,,,,,,,,,,,,,,,,,,,,,,stimuli/alien_stimuli/66.png,conditions/schedules/train_x_first/blue_star_00/top_left/inputInstr_2.xlsx,stimuli/alien_stimuli/66.png,1303.5187246003188,1303.5187246003188,1303.5187246003188,1303.5187246003188,1303.5125515799969,return,7.234283600002527,"[-0.16, -0.08, 0, 0.08, 0.16, 0.24, 0.32, 0.4, 0.48, 0.56]","[-0.4, -0.32, -0.24, -0.16, -0.08, 0, 0.08, 0.16, 0.24, 0.32]",3,8,0,0,0.4,0.0,1310.902266500052,1310.902266500052,1310.902266500052,1310.902266500052,1310.902266500052,1310.902266500052,1310.902266500052,1310.9021406399086,9.909415899775922,return,9.768335999920964,stimuli/alien_stimuli/66.png,66,0,1,,,,,,,,,,,,,,,,,,,,,,,,,,,,,,,,,,,,,,,,,,,,,,,,,,,,,,,,,,,,,,,,,,,,,,,,,,,,,,,,,,,,,,,,,T8QTJ3,train_x,blue_star,top_left,2025-02-27_17h10.59.070,HideSeek_v1,2022.2.5,59.963254517059376,
,,,,,,,,,,,30,,,,3,0,3,0,,,,,,,,,,,,,,,,,,,,,,,,,,,,,,,,,,,,,,,,,,,,,,,,,,,,,,,,,,,,,,,,,,,,,,,,,,,,,,21,0.7,0.7083333333333335,1,99,2,30,0,conditions/schedules/train_x_first/blue_star_00/top_left/inputTrain_2.1.xlsx,99,1,2,1,0,,,,,,,,,,,,,,,,,,,,,,,,,,,,,,,,,,,,,,,,,,,,,,,,,,,,,,,,,,,,,,,,,,,,,,,,,,,T8QTJ3,train_x,blue_star,top_left,2025-02-27_17h10.59.070,HideSeek_v1,2022.2.5,59.963254517059376,
,,,,,,,,,,,,,,,4,0,4,0,0,0,0,0,,,,,,,,,,,,,,,,,,,,,,,,,,,,,,,conditions/schedules/train_x_first/blue_star_00/top_left/instructions/Slide21.png,conditions/schedules/train_x_first/blue_star_00/top_left/instructions/Audio21.wav,1320.8453912003897,1320.8435669997707,21,"[7.152114199940115, 36.865553400013596, 16.953563999850303, 19.486990800127387, 4.7009825999848545, 4.935915799811482, 5.737460299860686, 11.890086600091308, 6.11906799999997, 7.2349097998812795, 9.735464500263333, 13.00691770017147, 18.6507804999128, 12.926621799822897, 31.320159600116313, 21.211451599840075, 49.630305000115186, 6.589142999611795, 10.419604700058699, 14.561411400325596, 17.176300399936736]","[0.00022639986127614975, 0.014041800051927567, 0.05471740011125803, 0.04724919982254505, 0.04871369991451502, 0.06598189985379577, 0.09652769984677434, 0.03114739991724491, 0.04597839992493391, 0.03066800022497773, 0.06302870018407702, 13.006926600355655, 0.0990630998276174, 12.92662959964946, 0.03026650007814169, 21.211458299774677, 0.034162699710577726, 0.07790419971570373, 0.013963399920612574, 14.561418800149113, 17.176308900117874]",0,,,,,,,,,,,,,,,,,,,,,,,,,,,,,,,,,,,,,,,,,,,,,,,,,,,,,,,,,,,,,,,,,,,,,,,,,,,,,,,,,,,,,,,,,,,,,,,,,,,,,,,,,,,,,,,,,,,,,,,,,,,,T8QTJ3,train_x,blue_star,top_left,2025-02-27_17h10.59.070,HideSeek_v1,2022.2.5,59.963254517059376,
2,2,8,2,8,0,0,61,2,instr_dim1_2,,,,,,4,0,4,0,,,,,0,0,0,0,,,,,,,,,,,,,,,,,,,,,,,,,,,,,,,,,,,,,stimuli/alien_stimuli/61.png,conditions/schedules/train_x_first/blue_star_00/top_left/inputInstr_2.xlsx,stimuli/alien_stimuli/61.png,1338.1236112001352,1338.1236112001352,1338.1236112001352,1338.1236112001352,1338.1245994098017,return,6.807665299624205,"[-0.16, -0.08, 0, 0.08, 0.16, 0.24, 0.32, 0.4, 0.48, 0.56]","[-0.4, -0.32, -0.24, -0.16, -0.08, 0, 0.08, 0.16, 0.24, 0.32]",8,8,2,2,0.0,0.0,1345.0853913002647,1345.0853913002647,1345.0853913002647,1345.0853913002647,1345.0853913002647,1345.0853913002647,1345.0853913002647,1345.0801632401533,6.940049599856138,return,6.799026599619538,stimuli/alien_stimuli/61.png,61,2,2,,,,,,,,,,,,,,,,,,,,,,,,,,,,,,,,,,,,,,,,,,,,,,,,,,,,,,,,,,,,,,,,,,,,,,,,,,,,,,,,,,,,,,,,,T8QTJ3,train_x,blue_star,top_left,2025-02-27_17h10.59.070,HideSeek_v1,2022.2.5,59.963254517059376,
,,,,,,,,,,,30,,,,4,0,4,0,,,,,,,,,,,,,,,,,,,,,,,,,,,,,,,,,,,,,,,,,,,,,,,,,,,,,,,,,,,,,,,,,,,,,,,,,,,,,,21,0.7,0.7083333333333335,1,99,2,30,0,conditions/schedules/train_x_first/blue_star_00/top_left/inputTrain_2.1.xlsx,99,1,2,1,0,,,,,,,,,,,,,,,,,,,,,,,,,,,,,,,,,,,,,,,,,,,,,,,,,,,,,,,,,,,,,,,,,,,,,,,,,,,T8QTJ3,train_x,blue_star,top_left,2025-02-27_17h10.59.070,HideSeek_v1,2022.2.5,59.963254517059376,
,,,,,,,,,,,,,,,5,0,5,0,0,0,0,0,,,,,,,,,,,,,,,,,,,,,,,,,,,,,,,conditions/schedules/train_x_first/blue_star_00/top_left/instructions/Slide22.png,conditions/schedules/train_x_first/blue_star_00/top_left/instructions/Audio22.wav,1352.0536904004402,1352.0525120999664,22,"[7.152114199940115, 36.865553400013596, 16.953563999850303, 19.486990800127387, 4.7009825999848545, 4.935915799811482, 5.737460299860686, 11.890086600091308, 6.11906799999997, 7.2349097998812795, 9.735464500263333, 13.00691770017147, 18.6507804999128, 12.926621799822897, 31.320159600116313, 21.211451599840075, 49.630305000115186, 6.589142999611795, 10.419604700058699, 14.561411400325596, 17.176300399936736, 42.94841119972989]","[0.00022639986127614975, 0.014041800051927567, 0.05471740011125803, 0.04724919982254505, 0.04871369991451502, 0.06598189985379577, 0.09652769984677434, 0.03114739991724491, 0.04597839992493391, 0.03066800022497773, 0.06302870018407702, 13.006926600355655, 0.0990630998276174, 12.92662959964946, 0.03026650007814169, 21.211458299774677, 0.034162699710577726, 0.07790419971570373, 0.013963399920612574, 14.561418800149113, 17.176308900117874, 42.94841799978167]",0,,,,,,,,,,,,,,,,,,,,,,,,,,,,,,,,,,,,,,,,,,,,,,,,,,,,,,,,,,,,,,,,,,,,,,,,,,,,,,,,,,,,,,,,,,,,,,,,,,,,,,,,,,,,,,,,,,,,,,,,,,,,T8QTJ3,train_x,blue_star,top_left,2025-02-27_17h10.59.070,HideSeek_v1,2022.2.5,59.963254517059376,
,0,5,0,1,0,-4,65,,train_dim1_2,1,30,,,,5,0,5,0,,,,,,,,,0,0,0,0,0,0,0,0,0,0,0,0,,,,,,,,,,,,,,,,,,,,,,,,,stimuli/alien_stimuli/65.png,,,,,,,,,,,,,,,,,,,,,,,,,,,,,,,,,,,,,,,30,,,,,,,,1395.1007421002723,1395.1007421002723,1395.1007421002723,1395.1007421002723,1395.1007421002723,down,8.851615100167692,0,0,0,99,-0.16,-0.08,down,8.757196299731731,,,,,,,,,,,,,,,,,,,,,,,,,,,,,,,,,,,,,,,,,,,,,,,,,,,,,,,,,,,,T8QTJ3,train_x,blue_star,top_left,2025-02-27_17h10.59.070,HideSeek_v1,2022.2.5,59.963254517059376,
,0,5,0,1,0,-4,65,,train_dim1_2,1,30,,,,5,0,5,0,,,,,,,,,0,0,0,0,0,0,0,0,1,0,1,0,,,,,,,,,,,,,,,,,,,,,,,,,,,,,,,,,,,,,,,,,,,,,,,,,,,,,,,,,,,,,,,,30,,,,,,,,1403.9438979001716,1403.9438979001716,1403.9438979001716,1403.9438979001716,1403.9438979001716,down,0.8083346001803875,0,0,0,99,-0.16,-0.16,down,0.7219516998156905,,,,,,,,,,,,,,,,,,,,,,,,,,,,,,,,,,,,,,,,,,,,,,,,,,,,,,,,,,,,T8QTJ3,train_x,blue_star,top_left,2025-02-27_17h10.59.070,HideSeek_v1,2022.2.5,59.963254517059376,
,0,5,0,1,0,-4,65,,train_dim1_2,1,30,,,,5,0,5,0,,,,,,,,,0,0,0,0,0,0,0,0,2,0,2,0,,,,,,,,,,,,,,,,,,,,,,,,,,,,,,,,,,,,,,,,,,,,,,,,,,,,,,,,,,,,,,,,30,,,,,,,,1404.7579816002399,1404.7579816002399,1404.7579816002399,1404.7579816002399,1404.7579816002399,down,1.1272967997938395,0,0,0,99,-0.16,-0.24,down,1.0513661000877619,,,,,,,,,,,,,,,,,,,,,,,,,,,,,,,,,,,,,,,,,,,,,,,,,,,,,,,,,,,,T8QTJ3,train_x,blue_star,top_left,2025-02-27_17h10.59.070,HideSeek_v1,2022.2.5,59.963254517059376,
,0,5,0,1,0,-4,65,,train_dim1_2,1,30,,,,5,0,5,0,,,,,,,,,0,0,0,0,0,0,0,0,3,0,3,0,,,,,,,,,,,,,,,,,,,,,,,,,,,,,,,,,,,,,,,,,,,,,,,,,,,,,,,,,,,,,,,,30,,,,,,,,1405.8929522000253,1405.8929522000253,1405.8929522000253,1405.8929522000253,1405.8929522000253,down,0.8102134000509977,0,0,0,99,-0.16,-0.32,down,0.7297644000500441,,,,,,,,,,,,,,,,,,,,,,,,,,,,,,,,,,,,,,,,,,,,,,,,,,,,,,,,,,,,T8QTJ3,train_x,blue_star,top_left,2025-02-27_17h10.59.070,HideSeek_v1,2022.2.5,59.963254517059376,
,0,5,0,1,0,-4,65,,train_dim1_2,1,30,,,,5,0,5,0,,,,,,,,,0,0,0,0,0,0,0,0,4,0,4,0,,,,,,,,,,,,,,,,,,,,,,,,,,,,,,,,,,,,,,,,,,,,,,,,,,,,,,,,,,,,,,,,30,,,,,,,,1406.710065800231,1406.710065800231,1406.710065800231,1406.710065800231,1406.710065800231,down,2.0281237000599504,0,0,0,99,-0.16,-0.4,down,1.9522441998124123,,,,,,,,,,,,,,,,,,,,,,,,,,,,,,,,,,,,,,,,,,,,,,,,,,,,,,,,,,,,T8QTJ3,train_x,blue_star,top_left,2025-02-27_17h10.59.070,HideSeek_v1,2022.2.5,59.963254517059376,
,0,5,0,1,0,-4,65,,train_dim1_2,1,30,,,,5,0,5,0,,,,,,,,,0,0,0,0,0,0,0,0,5,0,5,0,,,,,,,,,,,,,,,,,,,,,,,,,,,,,,,,,,,,,,,,,,,,,,,,,,,,,,,,,,,,,,,,30,,,,,,,,1408.745465300046,1408.745465300046,1408.745465300046,1408.745465300046,1408.745465300046,return,1.0436921999789774,0,1,0,0,-0.16,-0.4,return,0.9684362001717091,-13,73,-0.16,-0.4,,,,,,,,,,,,,,,,,,,,,,,,,,,,,,,,,,,,,,,,,,,,,,,,,,,,,,,,T8QTJ3,train_x,blue_star,top_left,2025-02-27_17h10.59.070,HideSeek_v1,2022.2.5,59.963254517059376,
,3,7,3,2,0,-5,66,,train_dim1_2,2,30,,,,5,0,5,0,,,,,,,,,0,0,0,0,0,1,1,1,0,0,0,0,,,,,,,,,,,,,,,,,,,,,,,,,stimuli/alien_stimuli/66.png,,,,,,,,,,,,,,,,,,,,,,,,,,,,,stimuli/alien_stimuli/65.png,65,0,3,,,,,,,30,,,,,,,,1415.9082469004206,1415.9082469004206,1415.9082469004206,1415.9082469004206,1415.9082469004206,down,3.8399865003302693,0,1,0,99,0.08,0.08,down,3.7526980000548065,,,,,1414.3543294002302,1415.9082469004206,-0.16,-0.32,0.32,0.0,-0.16,-0.16,-0.16,-0.16,-0.32,1411.3716336004436,1411.3716336004436,1411.3716336004436,1411.3716336004436,1411.3716336004436,1411.3716336004436,1411.3716336004436,1411.3716336004436,1411.3519660099873,3.1045335000380874,return,2.962379700038582,,,,,,,,,,,,,,,,,,,,,,,,,,,,,,,,,T8QTJ3,train_x,blue_star,top_left,2025-02-27_17h10.59.070,HideSeek_v1,2022.2.5,59.963254517059376,
,3,7,3,2,0,-5,66,,train_dim1_2,2,30,,,,5,0,5,0,,,,,,,,,0,0,0,0,0,1,1,1,1,0,1,0,,,,,,,,,,,,,,,,,,,,,,,,,,,,,,,,,,,,,,,,,,,,,,,,,,,,,,,,,,,,,,,,30,,,,,,,,1419.7558453003876,1419.7558453003876,1419.7558453003876,1419.7558453003876,1419.7558453003876,down,1.3766448004171252,0,1,0,99,0.08,0.0,down,1.2968913996592164,,,,,,,,,,,,,,,,,,,,,,,,,,,,,,,,,,,,,,,,,,,,,,,,,,,,,,,,,,,,T8QTJ3,train_x,blue_star,top_left,2025-02-27_17h10.59.070,HideSeek_v1,2022.2.5,59.963254517059376,
,3,7,3,2,0,-5,66,,train_dim1_2,2,30,,,,5,0,5,0,,,,,,,,,0,0,0,0,0,1,1,1,2,0,2,0,,,,,,,,,,,,,,,,,,,,,,,,,,,,,,,,,,,,,,,,,,,,,,,,,,,,,,,,,,,,,,,,30,,,,,,,,1421.1395212002099,1421.1395212002099,1421.1395212002099,1421.1395212002099,1421.1395212002099,down,1.3774480000138283,0,1,0,99,0.08,-0.08,down,1.2928541996516287,,,,,,,,,,,,,,,,,,,,,,,,,,,,,,,,,,,,,,,,,,,,,,,,,,,,,,,,,,,,T8QTJ3,train_x,blue_star,top_left,2025-02-27_17h10.59.070,HideSeek_v1,2022.2.5,59.963254517059376,
