trialTrain,x_fixStart,y_fixStart,x_corrSteps,y_corrSteps,x_nrSteps,y_nrSteps,alienID,testlen,version,trial_label,break_on_off,beforeExpLoop.thisRepN,beforeExpLoop.thisTrialN,beforeExpLoop.thisN,beforeExpLoop.thisIndex,mini_instr_trials.thisRepN,mini_instr_trials.thisTrialN,mini_instr_trials.thisN,mini_instr_trials.thisIndex,instrLoop.thisRepN,instrLoop.thisTrialN,instrLoop.thisN,instrLoop.thisIndex,repeat_prac.thisRepN,repeat_prac.thisTrialN,repeat_prac.thisN,repeat_prac.thisIndex,trainLoop.thisRepN,trainLoop.thisTrialN,trainLoop.thisN,trainLoop.thisIndex,experiment.thisRepN,experiment.thisTrialN,experiment.thisN,experiment.thisIndex,moveLoop_test.thisRepN,moveLoop_test.thisTrialN,moveLoop_test.thisN,moveLoop_test.thisIndex,breaks.thisRepN,breaks.thisTrialN,breaks.thisN,breaks.thisIndex,start_all_time,url,slideStim,audioStim,slides.started,sounds.started,nextButton.numClicks,nextButton.timesOn,nextButton.timesOff,prev_but.numClicks,prev_but.timesOn,prev_but.timesOff,perfthres,percthres,earlierperf,earlystop,nextPrac,fileidx,praclen,saveACC_train,pracFile,nextPrac_train,addNrep,fileidx_endr,repExp,showearly,alienStim,gridImage_3.started,alienImage_test.started,startPos_test.started,movePos_test.started,key_resp_test.started,wLy_dir_test,wLx_dir_test,buttonPress_test,RTchoice_test,cumAcctest,saveACC_choice,corrAns_test,x_movePos_end,y_movePos_end,key_resp_test.keys,key_resp_test.rt,fixation_text.started,fixation_text.stopped,draw_alienStim,draw_alienID,test_x,nrepcount,participant,train_first,00_coordinate,starting corner,date,expName,psychopyVersion,frameRate,
,,,,,,,,,,,,0,0,0,0,0,0,0,0,,,,,,,,,,,,,,,,,,,,,,,,,start_all_time,testround,conditions/schedules/train_y_first/red_square_00/bottom_left/instructions/Slide1.png,conditions/schedules/train_y_first/red_square_00/bottom_left/instructions/Audio1.wav,26.592883199919015,26.526582279149444,1,[1.0789097000379115],[1.0789161999709904],0,,,,,,,,,,,,,,,,,,,,,,,,,,,,,,,,,,,,,,,,test3,train_y,red_square,bottom_left,2024-11-06_12h34.58.380,HideSeek_v1,2022.2.5,60.1169274604328,
,,,,,,,,,,,,0,0,0,0,1,0,1,0,,,,,,,,,,,,,,,,,,,,,,,,,,,conditions/schedules/train_y_first/red_square_00/bottom_left/instructions/Slide2.png,conditions/schedules/train_y_first/red_square_00/bottom_left/instructions/Audio2.wav,27.659135499969125,27.64278213995276,2,"[1.0789097000379115, 0.11976399994455278]","[0.00024800002574920654, 0.11977200000546873]",0,,,,,,,,,,,,,,,,,,,,,,,,,,,,,,,,,,,,,,,,test3,train_y,red_square,bottom_left,2024-11-06_12h34.58.380,HideSeek_v1,2022.2.5,60.1169274604328,
,,,,,,,,,,,,0,0,0,0,2,0,2,0,,,,,,,,,,,,,,,,,,,,,,,,,,,conditions/schedules/train_y_first/red_square_00/bottom_left/instructions/Slide3.png,conditions/schedules/train_y_first/red_square_00/bottom_left/instructions/Audio3.wav,27.826087799970992,27.80931033998495,3,"[1.0789097000379115, 0.11976399994455278, 0.0875218000728637]","[0.00024800002574920654, 0.00029740005265921354, 0.08752980001736432]",0,,,,,,,,,,,,,,,,,,,,,,,,,,,,,,,,,,,,,,,,test3,train_y,red_square,bottom_left,2024-11-06_12h34.58.380,HideSeek_v1,2022.2.5,60.1169274604328,
,,,,,,,,,,,,0,0,0,0,3,0,3,0,,,,,,,,,,,,,,,,,,,,,,,,,,,conditions/schedules/train_y_first/red_square_00/bottom_left/instructions/Slide4.png,conditions/schedules/train_y_first/red_square_00/bottom_left/instructions/Audio4.wav,27.960379699943587,27.942504139977974,4,"[1.0789097000379115, 0.11976399994455278, 0.0875218000728637, 0.08400929998606443]","[0.00024800002574920654, 0.00029740005265921354, 0.08752980001736432, 0.08401770005002618]",0,,,,,,,,,,,,,,,,,,,,,,,,,,,,,,,,,,,,,,,,test3,train_y,red_square,bottom_left,2024-11-06_12h34.58.380,HideSeek_v1,2022.2.5,60.1169274604328,
,,,,,,,,,,,,0,0,0,0,4,0,4,0,,,,,,,,,,,,,,,,,,,,,,,,,,,conditions/schedules/train_y_first/red_square_00/bottom_left/instructions/Slide5.png,conditions/schedules/train_y_first/red_square_00/bottom_left/instructions/Audio5.wav,28.078676100005396,28.075726139952895,5,"[1.0789097000379115, 0.11976399994455278, 0.0875218000728637, 0.08400929998606443, 0.07798719999846071]","[0.00024800002574920654, 0.00029740005265921354, 0.08752980001736432, 0.08401770005002618, 0.07799489994067699]",0,,,,,,,,,,,,,,,,,,,,,,,,,,,,,,,,,,,,,,,,test3,train_y,red_square,bottom_left,2024-11-06_12h34.58.380,HideSeek_v1,2022.2.5,60.1169274604328,
,,,,,,,,,,,,0,0,0,0,5,0,5,0,,,,,,,,,,,,,,,,,,,,,,,,,,,conditions/schedules/train_y_first/red_square_00/bottom_left/instructions/Slide6.png,conditions/schedules/train_y_first/red_square_00/bottom_left/instructions/Audio6.wav,28.209641200024635,28.192848039919046,6,"[1.0789097000379115, 0.11976399994455278, 0.0875218000728637, 0.08400929998606443, 0.07798719999846071, 0.060125799966044724]","[0.00024800002574920654, 0.00029740005265921354, 0.08752980001736432, 0.08401770005002618, 0.07799489994067699, 0.06013339990749955]",0,,,,,,,,,,,,,,,,,,,,,,,,,,,,,,,,,,,,,,,,test3,train_y,red_square,bottom_left,2024-11-06_12h34.58.380,HideSeek_v1,2022.2.5,60.1169274604328,
,,,,,,,,,,,,0,0,0,0,6,0,6,0,,,,,,,,,,,,,,,,,,,,,,,,,,,conditions/schedules/train_y_first/red_square_00/bottom_left/instructions/Slide7.png,conditions/schedules/train_y_first/red_square_00/bottom_left/instructions/Audio7.wav,28.295400899951346,28.2930818399298,7,"[1.0789097000379115, 0.11976399994455278, 0.0875218000728637, 0.08400929998606443, 0.07798719999846071, 0.060125799966044724, 0.07869790005497634]","[0.00024800002574920654, 0.00029740005265921354, 0.08752980001736432, 0.08401770005002618, 0.07799489994067699, 0.06013339990749955, 0.0787082000169903]",0,,,,,,,,,,,,,,,,,,,,,,,,,,,,,,,,,,,,,,,,test3,train_y,red_square,bottom_left,2024-11-06_12h34.58.380,HideSeek_v1,2022.2.5,60.1169274604328,
,,,,,,,,,,,,0,0,0,0,7,0,7,0,,,,,,,,,,,,,,,,,,,,,,,,,,,conditions/schedules/train_y_first/red_square_00/bottom_left/instructions/Slide8.png,conditions/schedules/train_y_first/red_square_00/bottom_left/instructions/Audio8.wav,28.425548400031403,28.40967883997364,8,"[1.0789097000379115, 0.11976399994455278, 0.0875218000728637, 0.08400929998606443, 0.07798719999846071, 0.060125799966044724, 0.07869790005497634, 0.05849800002761185]","[0.00024800002574920654, 0.00029740005265921354, 0.08752980001736432, 0.08401770005002618, 0.07799489994067699, 0.06013339990749955, 0.0787082000169903, 0.05850579997058958]",0,,,,,,,,,,,,,,,,,,,,,,,,,,,,,,,,,,,,,,,,test3,train_y,red_square,bottom_left,2024-11-06_12h34.58.380,HideSeek_v1,2022.2.5,60.1169274604328,
,,,,,,,,,,,,0,0,0,0,8,0,8,0,,,,,,,,,,,,,,,,,,,,,,,,,,,conditions/schedules/train_y_first/red_square_00/bottom_left/instructions/Slide9.png,conditions/schedules/train_y_first/red_square_00/bottom_left/instructions/Audio9.wav,28.512840699986555,28.50951273996616,9,"[1.0789097000379115, 0.11976399994455278, 0.0875218000728637, 0.08400929998606443, 0.07798719999846071, 0.060125799966044724, 0.07869790005497634, 0.05849800002761185, 0.1598119999980554]","[0.00024800002574920654, 0.00029740005265921354, 0.08752980001736432, 0.08401770005002618, 0.07799489994067699, 0.06013339990749955, 0.0787082000169903, 0.05850579997058958, 0.15981979994103312]",0,,,,,,,,,,,,,,,,,,,,,,,,,,,,,,,,,,,,,,,,test3,train_y,red_square,bottom_left,2024-11-06_12h34.58.380,HideSeek_v1,2022.2.5,60.1169274604328,
,,,,,,,,,,,,0,0,0,0,9,0,9,0,,,,,,,,,,,,,,,,,,,,,,,,,,,conditions/schedules/train_y_first/red_square_00/bottom_left/instructions/Slide10.png,conditions/schedules/train_y_first/red_square_00/bottom_left/instructions/Audio10.wav,28.709813199937344,28.69242255999707,10,"[1.0789097000379115, 0.11976399994455278, 0.0875218000728637, 0.08400929998606443, 0.07798719999846071, 0.060125799966044724, 0.07869790005497634, 0.05849800002761185, 0.1598119999980554, 0.0706169999903068]","[0.00024800002574920654, 0.00029740005265921354, 0.08752980001736432, 0.08401770005002618, 0.07799489994067699, 0.06013339990749955, 0.0787082000169903, 0.05850579997058958, 0.15981979994103312, 0.0706243000458926]",0,,,,,,,,,,,,,,,,,,,,,,,,,,,,,,,,,,,,,,,,test3,train_y,red_square,bottom_left,2024-11-06_12h34.58.380,HideSeek_v1,2022.2.5,60.1169274604328,
,,,,,,,,,,,,0,0,0,0,10,0,10,0,,,,,,,,,,,,,,,,,,,,,,,,,,,conditions/schedules/train_y_first/red_square_00/bottom_left/instructions/Slide11.png,conditions/schedules/train_y_first/red_square_00/bottom_left/instructions/Audio11.wav,28.809360899962485,28.79250905993395,11,"[1.0789097000379115, 0.11976399994455278, 0.0875218000728637, 0.08400929998606443, 0.07798719999846071, 0.060125799966044724, 0.07869790005497634, 0.05849800002761185, 0.1598119999980554, 0.0706169999903068, 0.06987789995037019]","[0.00024800002574920654, 0.00029740005265921354, 0.08752980001736432, 0.08401770005002618, 0.07799489994067699, 0.06013339990749955, 0.0787082000169903, 0.05850579997058958, 0.15981979994103312, 0.0706243000458926, 0.06988619989715517]",0,,,,,,,,,,,,,,,,,,,,,,,,,,,,,,,,,,,,,,,,test3,train_y,red_square,bottom_left,2024-11-06_12h34.58.380,HideSeek_v1,2022.2.5,60.1169274604328,
,,,,,,,,,,,,0,0,0,0,11,0,11,0,,,,,,,,,,,,,,,,,,,,,,,,,,,conditions/schedules/train_y_first/red_square_00/bottom_left/instructions/Slide12.png,conditions/schedules/train_y_first/red_square_00/bottom_left/instructions/Audio12.wav,28.92612530000042,28.909380839916412,12,"[1.0789097000379115, 0.11976399994455278, 0.0875218000728637, 0.08400929998606443, 0.07798719999846071, 0.060125799966044724, 0.07869790005497634, 0.05849800002761185, 0.1598119999980554, 0.0706169999903068, 0.06987789995037019, 0.07465429999865592]","[0.00024800002574920654, 0.00029740005265921354, 0.08752980001736432, 0.08401770005002618, 0.07799489994067699, 0.06013339990749955, 0.0787082000169903, 0.05850579997058958, 0.15981979994103312, 0.0706243000458926, 0.06988619989715517, 0.07466259994544089]",0,,,,,,,,,,,,,,,,,,,,,,,,,,,,,,,,,,,,,,,,test3,train_y,red_square,bottom_left,2024-11-06_12h34.58.380,HideSeek_v1,2022.2.5,60.1169274604328,
,,,,,,,,,,,,0,0,0,0,,,,,,,,,,,,,,,,,,,,,,,,,,,,,,,,,,,,,,,,,17,0.7,0,0,99,1,30,0,conditions/schedules/train_y_first/red_square_00/bottom_left/inputTrain_1.1.xlsx,99,1,1,1,0,,,,,,,,,,,,,,,,,,,,,,,,test3,train_y,red_square,bottom_left,2024-11-06_12h34.58.380,HideSeek_v1,2022.2.5,60.1169274604328,
,,,,,,,,,,,,1,0,1,0,0,0,0,0,,,,,,,,,,,,,,,,,,,,,,,,,,,conditions/schedules/train_y_first/red_square_00/bottom_left/instructions/Slide13.png,conditions/schedules/train_y_first/red_square_00/bottom_left/instructions/Audio13.wav,29.17660100001376,29.15894907988841,13,"[1.0789097000379115, 0.11976399994455278, 0.0875218000728637, 0.08400929998606443, 0.07798719999846071, 0.060125799966044724, 0.07869790005497634, 0.05849800002761185, 0.1598119999980554, 0.0706169999903068, 0.06987789995037019, 0.07465429999865592, 0.02861279994249344]","[0.00024800002574920654, 0.00029740005265921354, 0.08752980001736432, 0.08401770005002618, 0.07799489994067699, 0.06013339990749955, 0.0787082000169903, 0.05850579997058958, 0.15981979994103312, 0.0706243000458926, 0.06988619989715517, 0.07466259994544089, 0.028620800003409386]",0,,,,,,,,,,,,,,,,,,,,,,,,,,,,,,,,,,,,,,,,test3,train_y,red_square,bottom_left,2024-11-06_12h34.58.380,HideSeek_v1,2022.2.5,60.1169274604328,
,,,,,,,,,,,,1,0,1,0,1,0,1,0,,,,,,,,,,,,,,,,,,,,,,,,,,,conditions/schedules/train_y_first/red_square_00/bottom_left/instructions/Slide14.png,conditions/schedules/train_y_first/red_square_00/bottom_left/instructions/Audio14.wav,29.242963299970143,29.22661634000251,14,"[1.0789097000379115, 0.11976399994455278, 0.0875218000728637, 0.08400929998606443, 0.07798719999846071, 0.060125799966044724, 0.07869790005497634, 0.05849800002761185, 0.1598119999980554, 0.0706169999903068, 0.06987789995037019, 0.07465429999865592, 0.02861279994249344, 0.05541210004594177]","[0.00024800002574920654, 0.00029740005265921354, 0.08752980001736432, 0.08401770005002618, 0.07799489994067699, 0.06013339990749955, 0.0787082000169903, 0.05850579997058958, 0.15981979994103312, 0.0706243000458926, 0.06988619989715517, 0.07466259994544089, 0.028620800003409386, 0.05541950010228902]",0,,,,,,,,,,,,,,,,,,,,,,,,,,,,,,,,,,,,,,,,test3,train_y,red_square,bottom_left,2024-11-06_12h34.58.380,HideSeek_v1,2022.2.5,60.1169274604328,
,,,,,,,,,,,,1,0,1,0,,,,,,,,,,,,,,,,,,,,,,,,,,,,,,,,,,,,,,,,,17,0.7,0,0,99,1,30,0,conditions/schedules/train_y_first/red_square_00/bottom_left/inputTrain_1.1.xlsx,99,1,1,1,0,,,,,,,,,,,,,,,,,,,,,,,,test3,train_y,red_square,bottom_left,2024-11-06_12h34.58.380,HideSeek_v1,2022.2.5,60.1169274604328,
,,,,,,,,,,,,2,0,2,0,0,0,0,0,,,,,,,,,,,,,,,,,,,,,,,,,,,conditions/schedules/train_y_first/red_square_00/bottom_left/instructions/Slide15.png,conditions/schedules/train_y_first/red_square_00/bottom_left/instructions/Audio15.wav,29.409299499937333,29.39260345998919,15,"[1.0789097000379115, 0.11976399994455278, 0.0875218000728637, 0.08400929998606443, 0.07798719999846071, 0.060125799966044724, 0.07869790005497634, 0.05849800002761185, 0.1598119999980554, 0.0706169999903068, 0.06987789995037019, 0.07465429999865592, 0.02861279994249344, 0.05541210004594177, 0.10607330000493675]","[0.00024800002574920654, 0.00029740005265921354, 0.08752980001736432, 0.08401770005002618, 0.07799489994067699, 0.06013339990749955, 0.0787082000169903, 0.05850579997058958, 0.15981979994103312, 0.0706243000458926, 0.06988619989715517, 0.07466259994544089, 0.028620800003409386, 0.001639900030568242, 0.10607980005443096]",0,,,,,,,,,,,,,,,,,,,,,,,,,,,,,,,,,,,,,,,,test3,train_y,red_square,bottom_left,2024-11-06_12h34.58.380,HideSeek_v1,2022.2.5,60.1169274604328,
,,,,,,,,,,,,2,0,2,0,1,0,1,0,,,,,,,,,,,,,,,,,,,,,,,,,,,conditions/schedules/train_y_first/red_square_00/bottom_left/instructions/Slide16.png,conditions/schedules/train_y_first/red_square_00/bottom_left/instructions/Audio16.wav,29.559502199990675,29.54239453993505,16,"[1.0789097000379115, 0.11976399994455278, 0.0875218000728637, 0.08400929998606443, 0.07798719999846071, 0.060125799966044724, 0.07869790005497634, 0.05849800002761185, 0.1598119999980554, 0.0706169999903068, 0.06987789995037019, 0.07465429999865592, 0.02861279994249344, 0.05541210004594177, 0.10607330000493675, 0.05644770001526922]","[0.00024800002574920654, 0.00029740005265921354, 0.08752980001736432, 0.08401770005002618, 0.07799489994067699, 0.06013339990749955, 0.0787082000169903, 0.05850579997058958, 0.15981979994103312, 0.0706243000458926, 0.06988619989715517, 0.07466259994544089, 0.028620800003409386, 0.001639900030568242, 0.10607980005443096, 0.05645560007542372]",0,,,,,,,,,,,,,,,,,,,,,,,,,,,,,,,,,,,,,,,,test3,train_y,red_square,bottom_left,2024-11-06_12h34.58.380,HideSeek_v1,2022.2.5,60.1169274604328,
,,,,,,,,,,,,2,0,2,0,,,,,,,,,,,,,,,,,,,,,,,,,,,,,,,,,,,,,,,,,17,0.7,0,0,99,1,30,0,conditions/schedules/train_y_first/red_square_00/bottom_left/inputTrain_1.1.xlsx,99,1,1,1,0,,,,,,,,,,,,,,,,,,,,,,,,test3,train_y,red_square,bottom_left,2024-11-06_12h34.58.380,HideSeek_v1,2022.2.5,60.1169274604328,
,,,,,,,,,,,,3,0,3,0,0,0,0,0,,,,,,,,,,,,,,,,,,,,,,,,,,,conditions/schedules/train_y_first/red_square_00/bottom_left/instructions/Slide17.png,conditions/schedules/train_y_first/red_square_00/bottom_left/instructions/Audio17.wav,29.710879800026305,29.692677479959094,17,"[1.0789097000379115, 0.11976399994455278, 0.0875218000728637, 0.08400929998606443, 0.07798719999846071, 0.060125799966044724, 0.07869790005497634, 0.05849800002761185, 0.1598119999980554, 0.0706169999903068, 0.06987789995037019, 0.07465429999865592, 0.02861279994249344, 0.05541210004594177, 0.10607330000493675, 0.05644770001526922, 0.019887199974618852]","[0.00024800002574920654, 0.00029740005265921354, 0.08752980001736432, 0.08401770005002618, 0.07799489994067699, 0.06013339990749955, 0.0787082000169903, 0.05850579997058958, 0.15981979994103312, 0.0706243000458926, 0.06988619989715517, 0.07466259994544089, 0.028620800003409386, 0.001639900030568242, 0.10607980005443096, 0.05645560007542372, 0.019897600053809583]",0,,,,,,,,,,,,,,,,,,,,,,,,,,,,,,,,,,,,,,,,test3,train_y,red_square,bottom_left,2024-11-06_12h34.58.380,HideSeek_v1,2022.2.5,60.1169274604328,
,,,,,,,,,,,,3,0,3,0,1,0,1,0,,,,,,,,,,,,,,,,,,,,,,,,,,,conditions/schedules/train_y_first/red_square_00/bottom_left/instructions/Slide18.png,conditions/schedules/train_y_first/red_square_00/bottom_left/instructions/Audio18.wav,29.776021800003946,29.760895140015055,18,"[1.0789097000379115, 0.11976399994455278, 0.0875218000728637, 0.08400929998606443, 0.07798719999846071, 0.060125799966044724, 0.07869790005497634, 0.05849800002761185, 0.1598119999980554, 0.0706169999903068, 0.06987789995037019, 0.07465429999865592, 0.02861279994249344, 0.05541210004594177, 0.10607330000493675, 0.05644770001526922, 0.019887199974618852, 0.07413039996754378]","[0.00024800002574920654, 0.00029740005265921354, 0.08752980001736432, 0.08401770005002618, 0.07799489994067699, 0.06013339990749955, 0.0787082000169903, 0.05850579997058958, 0.15981979994103312, 0.0706243000458926, 0.06988619989715517, 0.07466259994544089, 0.028620800003409386, 0.001639900030568242, 0.10607980005443096, 0.05645560007542372, 0.019897600053809583, 0.07413910003378987]",0,,,,,,,,,,,,,,,,,,,,,,,,,,,,,,,,,,,,,,,,test3,train_y,red_square,bottom_left,2024-11-06_12h34.58.380,HideSeek_v1,2022.2.5,60.1169274604328,
,,,,,,,,,,,,3,0,3,0,2,0,2,0,,,,,,,,,,,,,,,,,,,,,,,,,,,conditions/schedules/train_y_first/red_square_00/bottom_left/instructions/Slide19.png,conditions/schedules/train_y_first/red_square_00/bottom_left/instructions/Audio19.wav,29.893091499921866,29.87612484000856,19,"[1.0789097000379115, 0.11976399994455278, 0.0875218000728637, 0.08400929998606443, 0.07798719999846071, 0.060125799966044724, 0.07869790005497634, 0.05849800002761185, 0.1598119999980554, 0.0706169999903068, 0.06987789995037019, 0.07465429999865592, 0.02861279994249344, 0.05541210004594177, 0.10607330000493675, 0.05644770001526922, 0.019887199974618852, 0.07413039996754378, 0.07560470001772046]","[0.00024800002574920654, 0.00029740005265921354, 0.08752980001736432, 0.08401770005002618, 0.07799489994067699, 0.06013339990749955, 0.0787082000169903, 0.05850579997058958, 0.15981979994103312, 0.0706243000458926, 0.06988619989715517, 0.07466259994544089, 0.028620800003409386, 0.001639900030568242, 0.10607980005443096, 0.05645560007542372, 0.019897600053809583, 0.07413910003378987, 0.07561249996069819]",0,,,,,,,,,,,,,,,,,,,,,,,,,,,,,,,,,,,,,,,,test3,train_y,red_square,bottom_left,2024-11-06_12h34.58.380,HideSeek_v1,2022.2.5,60.1169274604328,
,,,,,,,,,,,,3,0,3,0,3,0,3,0,,,,,,,,,,,,,,,,,,,,,,,,,,,conditions/schedules/train_y_first/red_square_00/bottom_left/instructions/Slide20.png,conditions/schedules/train_y_first/red_square_00/bottom_left/instructions/Audio20.wav,30.009321599965915,29.992382339912,20,"[1.0789097000379115, 0.11976399994455278, 0.0875218000728637, 0.08400929998606443, 0.07798719999846071, 0.060125799966044724, 0.07869790005497634, 0.05849800002761185, 0.1598119999980554, 0.0706169999903068, 0.06987789995037019, 0.07465429999865592, 0.02861279994249344, 0.05541210004594177, 0.10607330000493675, 0.05644770001526922, 0.019887199974618852, 0.07413039996754378, 0.07560470001772046, 0.19185329996980727]","[0.00024800002574920654, 0.00029740005265921354, 0.08752980001736432, 0.08401770005002618, 0.07799489994067699, 0.06013339990749955, 0.0787082000169903, 0.05850579997058958, 0.15981979994103312, 0.0706243000458926, 0.06988619989715517, 0.07466259994544089, 0.028620800003409386, 0.001639900030568242, 0.10607980005443096, 0.05645560007542372, 0.019897600053809583, 0.07413910003378987, 0.07561249996069819, 0.1918614999158308]",0,,,,,,,,,,,,,,,,,,,,,,,,,,,,,,,,,,,,,,,,test3,train_y,red_square,bottom_left,2024-11-06_12h34.58.380,HideSeek_v1,2022.2.5,60.1169274604328,
,,,,,,,,,,,,3,0,3,0,,,,,,,,,,,,,,,,,,,,,,,,,,,,,,,,,,,,,,,,,17,0.7,0,0,99,1,30,0,conditions/schedules/train_y_first/red_square_00/bottom_left/inputTrain_1.1.xlsx,99,1,1,1,0,,,,,,,,,,,,,,,,,,,,,,,,test3,train_y,red_square,bottom_left,2024-11-06_12h34.58.380,HideSeek_v1,2022.2.5,60.1169274604328,
,,,,,,,,,,,,4,0,4,0,0,0,0,0,,,,,,,,,,,,,,,,,,,,,,,,,,,conditions/schedules/train_y_first/red_square_00/bottom_left/instructions/Slide21.png,conditions/schedules/train_y_first/red_square_00/bottom_left/instructions/Audio21.wav,30.309961199993268,30.292615259985908,21,"[1.0789097000379115, 0.11976399994455278, 0.0875218000728637, 0.08400929998606443, 0.07798719999846071, 0.060125799966044724, 0.07869790005497634, 0.05849800002761185, 0.1598119999980554, 0.0706169999903068, 0.06987789995037019, 0.07465429999865592, 0.02861279994249344, 0.05541210004594177, 0.10607330000493675, 0.05644770001526922, 0.019887199974618852, 0.07413039996754378, 0.07560470001772046, 0.19185329996980727, 0.026145000010728836]","[0.00024800002574920654, 0.00029740005265921354, 0.08752980001736432, 0.08401770005002618, 0.07799489994067699, 0.06013339990749955, 0.0787082000169903, 0.05850579997058958, 0.15981979994103312, 0.0706243000458926, 0.06988619989715517, 0.07466259994544089, 0.028620800003409386, 0.001639900030568242, 0.10607980005443096, 0.05645560007542372, 0.019897600053809583, 0.07413910003378987, 0.07561249996069819, 0.1918614999158308, 0.026154400082305074]",0,,,,,,,,,,,,,,,,,,,,,,,,,,,,,,,,,,,,,,,,test3,train_y,red_square,bottom_left,2024-11-06_12h34.58.380,HideSeek_v1,2022.2.5,60.1169274604328,
,,,,,,,,,,,,4,0,4,0,,,,,,,,,,,,,,,,,,,,,,,,,,,,,,,,,,,,,,,,,17,0.7,0,0,99,1,30,0,conditions/schedules/train_y_first/red_square_00/bottom_left/inputTrain_1.1.xlsx,99,1,1,1,0,,,,,,,,,,,,,,,,,,,,,,,,test3,train_y,red_square,bottom_left,2024-11-06_12h34.58.380,HideSeek_v1,2022.2.5,60.1169274604328,
,,,,,,,,,,,,5,0,5,0,0,0,0,0,,,,,,,,,,,,,,,,,,,,,,,,,,,conditions/schedules/train_y_first/red_square_00/bottom_left/instructions/Slide22.png,conditions/schedules/train_y_first/red_square_00/bottom_left/instructions/Audio22.wav,30.444753199932165,30.443335439963267,22,"[1.0789097000379115, 0.11976399994455278, 0.0875218000728637, 0.08400929998606443, 0.07798719999846071, 0.060125799966044724, 0.07869790005497634, 0.05849800002761185, 0.1598119999980554, 0.0706169999903068, 0.06987789995037019, 0.07465429999865592, 0.02861279994249344, 0.05541210004594177, 0.10607330000493675, 0.05644770001526922, 0.019887199974618852, 0.07413039996754378, 0.07560470001772046, 0.19185329996980727, 0.026145000010728836, 0.017528100055642426]","[0.00024800002574920654, 0.00029740005265921354, 0.08752980001736432, 0.08401770005002618, 0.07799489994067699, 0.06013339990749955, 0.0787082000169903, 0.05850579997058958, 0.15981979994103312, 0.0706243000458926, 0.06988619989715517, 0.07466259994544089, 0.028620800003409386, 0.001639900030568242, 0.10607980005443096, 0.05645560007542372, 0.019897600053809583, 0.07413910003378987, 0.07561249996069819, 0.1918614999158308, 0.026154400082305074, 0.017535799997858703]",0,,,,,,,,,,,,,,,,,,,,,,,,,,,,,,,,,,,,,,,,test3,train_y,red_square,bottom_left,2024-11-06_12h34.58.380,HideSeek_v1,2022.2.5,60.1169274604328,
,,,,,,,,,,,,5,0,5,0,,,,,,,,,,,,,,,,,,,,,,,,,,,,,,,,,,,,,,,,,17,0.7,0,0,99,1,30,0,conditions/schedules/train_y_first/red_square_00/bottom_left/inputTrain_1.1.xlsx,99,1,1,1,0,,,,,,,,,,,,,,,,,,,,,,,,test3,train_y,red_square,bottom_left,2024-11-06_12h34.58.380,HideSeek_v1,2022.2.5,60.1169274604328,
,,,,,,,,,,,,6,0,6,0,0,0,0,0,,,,,,,,,,,,,,,,,,,,,,,,,,,conditions/schedules/train_y_first/red_square_00/bottom_left/instructions/Slide23.png,conditions/schedules/train_y_first/red_square_00/bottom_left/instructions/Audio23.wav,30.560029899934307,30.561455659905917,23,"[1.0789097000379115, 0.11976399994455278, 0.0875218000728637, 0.08400929998606443, 0.07798719999846071, 0.060125799966044724, 0.07869790005497634, 0.05849800002761185, 0.1598119999980554, 0.0706169999903068, 0.06987789995037019, 0.07465429999865592, 0.02861279994249344, 0.05541210004594177, 0.10607330000493675, 0.05644770001526922, 0.019887199974618852, 0.07413039996754378, 0.07560470001772046, 0.19185329996980727, 0.026145000010728836, 0.017528100055642426, 0.015091900015249848]","[0.00024800002574920654, 0.00029740005265921354, 0.08752980001736432, 0.08401770005002618, 0.07799489994067699, 0.06013339990749955, 0.0787082000169903, 0.05850579997058958, 0.15981979994103312, 0.0706243000458926, 0.06988619989715517, 0.07466259994544089, 0.028620800003409386, 0.001639900030568242, 0.10607980005443096, 0.05645560007542372, 0.019897600053809583, 0.07413910003378987, 0.07561249996069819, 0.1918614999158308, 0.026154400082305074, 0.017535799997858703, 0.015100099961273372]",0,,,,,,,,,,,,,,,,,,,,,,,,,,,,,,,,,,,,,,,,test3,train_y,red_square,bottom_left,2024-11-06_12h34.58.380,HideSeek_v1,2022.2.5,60.1169274604328,
,,,,,,,,,,,,6,0,6,0,1,0,1,0,,,,,,,,,,,,,,,,,,,,,,,,,,,conditions/schedules/train_y_first/red_square_00/bottom_left/instructions/Slide24.png,conditions/schedules/train_y_first/red_square_00/bottom_left/instructions/Audio24.wav,30.625789099955,30.610045239923057,24,"[1.0789097000379115, 0.11976399994455278, 0.0875218000728637, 0.08400929998606443, 0.07798719999846071, 0.060125799966044724, 0.07869790005497634, 0.05849800002761185, 0.1598119999980554, 0.0706169999903068, 0.06987789995037019, 0.07465429999865592, 0.02861279994249344, 0.05541210004594177, 0.10607330000493675, 0.05644770001526922, 0.019887199974618852, 0.07413039996754378, 0.07560470001772046, 0.19185329996980727, 0.026145000010728836, 0.017528100055642426, 0.015091900015249848, 0.08908369997516274]","[0.00024800002574920654, 0.00029740005265921354, 0.08752980001736432, 0.08401770005002618, 0.07799489994067699, 0.06013339990749955, 0.0787082000169903, 0.05850579997058958, 0.15981979994103312, 0.0706243000458926, 0.06988619989715517, 0.07466259994544089, 0.028620800003409386, 0.001639900030568242, 0.10607980005443096, 0.05645560007542372, 0.019897600053809583, 0.07413910003378987, 0.07561249996069819, 0.1918614999158308, 0.026154400082305074, 0.017535799997858703, 0.015100099961273372, 0.08909110003151]",0,,,,,,,,,,,,,,,,,,,,,,,,,,,,,,,,,,,,,,,,test3,train_y,red_square,bottom_left,2024-11-06_12h34.58.380,HideSeek_v1,2022.2.5,60.1169274604328,
,,,,,,,,,,,,6,0,6,0,2,0,2,0,,,,,,,,,,,,,,,,,,,,,,,,,,,conditions/schedules/train_y_first/red_square_00/bottom_left/instructions/Slide25.png,conditions/schedules/train_y_first/red_square_00/bottom_left/instructions/Audio25.wav,30.759072299930267,30.742798839940225,25,"[1.0789097000379115, 0.11976399994455278, 0.0875218000728637, 0.08400929998606443, 0.07798719999846071, 0.060125799966044724, 0.07869790005497634, 0.05849800002761185, 0.1598119999980554, 0.0706169999903068, 0.06987789995037019, 0.07465429999865592, 0.02861279994249344, 0.05541210004594177, 0.10607330000493675, 0.05644770001526922, 0.019887199974618852, 0.07413039996754378, 0.07560470001772046, 0.19185329996980727, 0.026145000010728836, 0.017528100055642426, 0.015091900015249848, 0.08908369997516274, 0.07487989997025579]","[0.00024800002574920654, 0.00029740005265921354, 0.08752980001736432, 0.08401770005002618, 0.07799489994067699, 0.06013339990749955, 0.0787082000169903, 0.05850579997058958, 0.15981979994103312, 0.0706243000458926, 0.06988619989715517, 0.07466259994544089, 0.028620800003409386, 0.001639900030568242, 0.10607980005443096, 0.05645560007542372, 0.019897600053809583, 0.07413910003378987, 0.07561249996069819, 0.1918614999158308, 0.026154400082305074, 0.017535799997858703, 0.015100099961273372, 0.08909110003151, 0.07488750002812594]",0,,,,,,,,,,,,,,,,,,,,,,,,,,,,,,,,,,,,,,,,test3,train_y,red_square,bottom_left,2024-11-06_12h34.58.380,HideSeek_v1,2022.2.5,60.1169274604328,
,,,,,,,,,,,,6,0,6,0,,,,,,,,,,,,,,,,,,,,,,,,,,,,,,,,,,,,,,,,,17,0.7,0,0,99,1,30,0,conditions/schedules/train_y_first/red_square_00/bottom_left/inputTrain_1.1.xlsx,99,1,1,1,0,,,,,,,,,,,,,,,,,,,,,,,,test3,train_y,red_square,bottom_left,2024-11-06_12h34.58.380,HideSeek_v1,2022.2.5,60.1169274604328,
,,,,,,,,,,,,7,0,7,0,0,0,0,0,,,,,,,,,,,,,,,,,,,,,,,,,,,conditions/schedules/train_y_first/red_square_00/bottom_left/instructions/Slide26.png,conditions/schedules/train_y_first/red_square_00/bottom_left/instructions/Audio26.wav,30.928099900018424,30.9258528599632,26,"[1.0789097000379115, 0.11976399994455278, 0.0875218000728637, 0.08400929998606443, 0.07798719999846071, 0.060125799966044724, 0.07869790005497634, 0.05849800002761185, 0.1598119999980554, 0.0706169999903068, 0.06987789995037019, 0.07465429999865592, 0.02861279994249344, 0.05541210004594177, 0.10607330000493675, 0.05644770001526922, 0.019887199974618852, 0.07413039996754378, 0.07560470001772046, 0.19185329996980727, 0.026145000010728836, 0.017528100055642426, 0.015091900015249848, 0.08908369997516274, 0.07487989997025579, 0.1116901000496]","[0.00024800002574920654, 0.00029740005265921354, 0.08752980001736432, 0.08401770005002618, 0.07799489994067699, 0.06013339990749955, 0.0787082000169903, 0.05850579997058958, 0.15981979994103312, 0.0706243000458926, 0.06988619989715517, 0.07466259994544089, 0.028620800003409386, 0.001639900030568242, 0.10607980005443096, 0.05645560007542372, 0.019897600053809583, 0.07413910003378987, 0.07561249996069819, 0.1918614999158308, 0.026154400082305074, 0.017535799997858703, 0.015100099961273372, 0.08909110003151, 0.07488750002812594, 0.11169900000095367]",0,,,,,,,,,,,,,,,,,,,,,,,,,,,,,,,,,,,,,,,,test3,train_y,red_square,bottom_left,2024-11-06_12h34.58.380,HideSeek_v1,2022.2.5,60.1169274604328,
,,,,,,,,,,,,7,0,7,0,,,,,,,,,,,,,,,,,,,,,,,,,,,,,,,,,,,,,,,,,17,0.7,0,0,99,1,30,0,conditions/schedules/train_y_first/red_square_00/bottom_left/inputTrain_1.1.xlsx,99,1,1,1,0,,,,,,,,,,,,,,,,,,,,,,,,test3,train_y,red_square,bottom_left,2024-11-06_12h34.58.380,HideSeek_v1,2022.2.5,60.1169274604328,
,,,,,,,,,,,,8,0,8,0,0,0,0,0,,,,,,,,,,,,,,,,,,,,,,,,,,,conditions/schedules/train_y_first/red_square_00/bottom_left/instructions/Slide27.png,conditions/schedules/train_y_first/red_square_00/bottom_left/instructions/Audio27.wav,31.15892439999152,31.14227775995387,27,"[1.0789097000379115, 0.11976399994455278, 0.0875218000728637, 0.08400929998606443, 0.07798719999846071, 0.060125799966044724, 0.07869790005497634, 0.05849800002761185, 0.1598119999980554, 0.0706169999903068, 0.06987789995037019, 0.07465429999865592, 0.02861279994249344, 0.05541210004594177, 0.10607330000493675, 0.05644770001526922, 0.019887199974618852, 0.07413039996754378, 0.07560470001772046, 0.19185329996980727, 0.026145000010728836, 0.017528100055642426, 0.015091900015249848, 0.08908369997516274, 0.07487989997025579, 0.1116901000496, 0.041817400022409856]","[0.00024800002574920654, 0.00029740005265921354, 0.08752980001736432, 0.08401770005002618, 0.07799489994067699, 0.06013339990749955, 0.0787082000169903, 0.05850579997058958, 0.15981979994103312, 0.0706243000458926, 0.06988619989715517, 0.07466259994544089, 0.028620800003409386, 0.001639900030568242, 0.10607980005443096, 0.05645560007542372, 0.019897600053809583, 0.07413910003378987, 0.07561249996069819, 0.1918614999158308, 0.026154400082305074, 0.017535799997858703, 0.015100099961273372, 0.08909110003151, 0.07488750002812594, 0.11169900000095367, 0.04182450007647276]",0,,,,,,,,,,,,,,,,,,,,,,,,,,,,,,,,,,,,,,,,test3,train_y,red_square,bottom_left,2024-11-06_12h34.58.380,HideSeek_v1,2022.2.5,60.1169274604328,
,,,,,,,,,,,,8,0,8,0,,,,,,,,,,,,,,,,,,,,,,,,,,,,,,,,,,,,,,,,,17,0.7,0,0,99,1,30,0,conditions/schedules/train_y_first/red_square_00/bottom_left/inputTrain_1.1.xlsx,99,1,1,1,0,,,,,,,,,,,,,,,,,,,,,,,,test3,train_y,red_square,bottom_left,2024-11-06_12h34.58.380,HideSeek_v1,2022.2.5,60.1169274604328,
,,,,,,,,,,,,9,0,9,0,0,0,0,0,,,,,,,,,,,,,,,,,,,,,,,,,,,conditions/schedules/train_y_first/red_square_00/bottom_left/instructions/Slide28.png,conditions/schedules/train_y_first/red_square_00/bottom_left/instructions/Audio28.wav,31.29265239997767,31.292591059918053,28,"[1.0789097000379115, 0.11976399994455278, 0.0875218000728637, 0.08400929998606443, 0.07798719999846071, 0.060125799966044724, 0.07869790005497634, 0.05849800002761185, 0.1598119999980554, 0.0706169999903068, 0.06987789995037019, 0.07465429999865592, 0.02861279994249344, 0.05541210004594177, 0.10607330000493675, 0.05644770001526922, 0.019887199974618852, 0.07413039996754378, 0.07560470001772046, 0.19185329996980727, 0.026145000010728836, 0.017528100055642426, 0.015091900015249848, 0.08908369997516274, 0.07487989997025579, 0.1116901000496, 0.041817400022409856, 0.049028499983251095]","[0.00024800002574920654, 0.00029740005265921354, 0.08752980001736432, 0.08401770005002618, 0.07799489994067699, 0.06013339990749955, 0.0787082000169903, 0.05850579997058958, 0.15981979994103312, 0.0706243000458926, 0.06988619989715517, 0.07466259994544089, 0.028620800003409386, 0.001639900030568242, 0.10607980005443096, 0.05645560007542372, 0.019897600053809583, 0.07413910003378987, 0.07561249996069819, 0.1918614999158308, 0.026154400082305074, 0.017535799997858703, 0.015100099961273372, 0.08909110003151, 0.07488750002812594, 0.11169900000095367, 0.04182450007647276, 0.04903769993688911]",0,,,,,,,,,,,,,,,,,,,,,,,,,,,,,,,,,,,,,,,,test3,train_y,red_square,bottom_left,2024-11-06_12h34.58.380,HideSeek_v1,2022.2.5,60.1169274604328,
,,,,,,,,,,,,9,0,9,0,1,0,1,0,,,,,,,,,,,,,,,,,,,,,,,,,,,conditions/schedules/train_y_first/red_square_00/bottom_left/instructions/Slide29.png,conditions/schedules/train_y_first/red_square_00/bottom_left/instructions/Audio29.wav,31.393113199970685,31.375931539933664,29,"[1.0789097000379115, 0.11976399994455278, 0.0875218000728637, 0.08400929998606443, 0.07798719999846071, 0.060125799966044724, 0.07869790005497634, 0.05849800002761185, 0.1598119999980554, 0.0706169999903068, 0.06987789995037019, 0.07465429999865592, 0.02861279994249344, 0.05541210004594177, 0.10607330000493675, 0.05644770001526922, 0.019887199974618852, 0.07413039996754378, 0.07560470001772046, 0.19185329996980727, 0.026145000010728836, 0.017528100055642426, 0.015091900015249848, 0.08908369997516274, 0.07487989997025579, 0.1116901000496, 0.041817400022409856, 0.049028499983251095, 0.05609470000490546]","[0.00024800002574920654, 0.00029740005265921354, 0.08752980001736432, 0.08401770005002618, 0.07799489994067699, 0.06013339990749955, 0.0787082000169903, 0.05850579997058958, 0.15981979994103312, 0.0706243000458926, 0.06988619989715517, 0.07466259994544089, 0.028620800003409386, 0.001639900030568242, 0.10607980005443096, 0.05645560007542372, 0.019897600053809583, 0.07413910003378987, 0.07561249996069819, 0.1918614999158308, 0.026154400082305074, 0.017535799997858703, 0.015100099961273372, 0.08909110003151, 0.07488750002812594, 0.11169900000095367, 0.04182450007647276, 0.04903769993688911, 0.05610460008028895]",0,,,,,,,,,,,,,,,,,,,,,,,,,,,,,,,,,,,,,,,,test3,train_y,red_square,bottom_left,2024-11-06_12h34.58.380,HideSeek_v1,2022.2.5,60.1169274604328,
,,,,,,,,,,,,9,0,9,0,2,0,2,0,,,,,,,,,,,,,,,,,,,,,,,,,,,conditions/schedules/train_y_first/red_square_00/bottom_left/instructions/Slide30.png,conditions/schedules/train_y_first/red_square_00/bottom_left/instructions/Audio30.wav,31.476318200002424,31.459396160021427,30,"[1.0789097000379115, 0.11976399994455278, 0.0875218000728637, 0.08400929998606443, 0.07798719999846071, 0.060125799966044724, 0.07869790005497634, 0.05849800002761185, 0.1598119999980554, 0.0706169999903068, 0.06987789995037019, 0.07465429999865592, 0.02861279994249344, 0.05541210004594177, 0.10607330000493675, 0.05644770001526922, 0.019887199974618852, 0.07413039996754378, 0.07560470001772046, 0.19185329996980727, 0.026145000010728836, 0.017528100055642426, 0.015091900015249848, 0.08908369997516274, 0.07487989997025579, 0.1116901000496, 0.041817400022409856, 0.049028499983251095, 0.05609470000490546, 0.4875444999197498]","[0.00024800002574920654, 0.00029740005265921354, 0.08752980001736432, 0.08401770005002618, 0.07799489994067699, 0.06013339990749955, 0.0787082000169903, 0.05850579997058958, 0.15981979994103312, 0.0706243000458926, 0.06988619989715517, 0.07466259994544089, 0.028620800003409386, 0.001639900030568242, 0.10607980005443096, 0.05645560007542372, 0.019897600053809583, 0.07413910003378987, 0.07561249996069819, 0.1918614999158308, 0.026154400082305074, 0.017535799997858703, 0.015100099961273372, 0.08909110003151, 0.07488750002812594, 0.11169900000095367, 0.04182450007647276, 0.04903769993688911, 0.05610460008028895, 0.4875513999722898]",0,,,,,,,,,,,,,,,,,,,,,,,,,,,,,,,,,,,,,,,,test3,train_y,red_square,bottom_left,2024-11-06_12h34.58.380,HideSeek_v1,2022.2.5,60.1169274604328,
,,,,,,,,,,,,9,0,9,0,3,0,3,0,,,,,,,,,,,,,,,,,,,,,,,,,,,conditions/schedules/train_y_first/red_square_00/bottom_left/instructions/Slide31.png,conditions/schedules/train_y_first/red_square_00/bottom_left/instructions/Audio31.wav,32.0092073000269,31.99230733992299,31,"[1.0789097000379115, 0.11976399994455278, 0.0875218000728637, 0.08400929998606443, 0.07798719999846071, 0.060125799966044724, 0.07869790005497634, 0.05849800002761185, 0.1598119999980554, 0.0706169999903068, 0.06987789995037019, 0.07465429999865592, 0.02861279994249344, 0.05541210004594177, 0.10607330000493675, 0.05644770001526922, 0.019887199974618852, 0.07413039996754378, 0.07560470001772046, 0.19185329996980727, 0.026145000010728836, 0.017528100055642426, 0.015091900015249848, 0.08908369997516274, 0.07487989997025579, 0.1116901000496, 0.041817400022409856, 0.049028499983251095, 0.05609470000490546, 0.4875444999197498, 0.0873516999417916]","[0.00024800002574920654, 0.00029740005265921354, 0.08752980001736432, 0.08401770005002618, 0.07799489994067699, 0.06013339990749955, 0.0787082000169903, 0.05850579997058958, 0.15981979994103312, 0.0706243000458926, 0.06988619989715517, 0.07466259994544089, 0.028620800003409386, 0.001639900030568242, 0.10607980005443096, 0.05645560007542372, 0.019897600053809583, 0.07413910003378987, 0.07561249996069819, 0.1918614999158308, 0.026154400082305074, 0.017535799997858703, 0.015100099961273372, 0.08909110003151, 0.07488750002812594, 0.11169900000095367, 0.04182450007647276, 0.04903769993688911, 0.05610460008028895, 0.4875513999722898, 0.08735789998900145]",0,,,,,,,,,,,,,,,,,,,,,,,,,,,,,,,,,,,,,,,,test3,train_y,red_square,bottom_left,2024-11-06_12h34.58.380,HideSeek_v1,2022.2.5,60.1169274604328,
,,,,,,,,,,,,9,0,9,0,,,,,,,,,,,,,,,,,,,,,,,,,,,,,,,,,,,,,,,,,17,0.7,0,0,99,1,30,0,conditions/schedules/train_y_first/red_square_00/bottom_left/inputTrain_1.1.xlsx,99,1,1,1,0,,,,,,,,,,,,,,,,,,,,,,,,test3,train_y,red_square,bottom_left,2024-11-06_12h34.58.380,HideSeek_v1,2022.2.5,60.1169274604328,
1,2,4,2,6,0,2,14,72,test_exp,train_1D_first_new,0,,,,,,,,,,,,,,,,,,,,,0,0,0,0,0,0,0,0,,,,,,,,,,,,,,,,,,,,,,,,,,,,,,,stimuli/alien_stimuli/14.png,32.22591659997124,32.22591659997124,32.22591659997124,32.22591659997124,32.22591659997124,0,0,return,0.8135467999381945,0,0,0,0,-0.08,return,0.7246955999871716,,,,,,,test3,train_y,red_square,bottom_left,2024-11-06_12h34.58.380,HideSeek_v1,2022.2.5,60.1169274604328,
1,2,4,2,6,0,2,14,72,test_exp,train_1D_first_new,0,,,,,,,,,,,,,,,,,,,,,0,0,0,0,,,,,,,,,,,,,,,,,,,,,,,,,,,,,,,,,,,,,,,,,,,,,,,,,,,,32.99227239994798,34.0927468999289,stimuli/alien_stimuli/14.png,14,2,1,test3,train_y,red_square,bottom_left,2024-11-06_12h34.58.380,HideSeek_v1,2022.2.5,60.1169274604328,
2,4,1,7,5,3,4,42,72,test_exp,untrained,0,,,,,,,,,,,,,,,,,,,,,0,1,1,1,0,0,0,0,,,,,,,,,,,,,,,,,,,,,,,,,,,,,,,stimuli/alien_stimuli/42.png,34.0927468999289,34.0927468999289,34.0927468999289,34.0927468999289,34.0927468999289,0,0,return,0.31202930002473295,0,0,0,0.16,-0.32,return,0.18764749995898455,,,,,,,test3,train_y,red_square,bottom_left,2024-11-06_12h34.58.380,HideSeek_v1,2022.2.5,60.1169274604328,
2,4,1,7,5,3,4,42,72,test_exp,untrained,0,,,,,,,,,,,,,,,,,,,,,0,1,1,1,,,,,,,,,,,,,,,,,,,,,,,,,,,,,,,,,,,,,,,,,,,,,,,,,,,,34.32589300000109,35.376557099982165,stimuli/alien_stimuli/14.png,14,2,2,test3,train_y,red_square,bottom_left,2024-11-06_12h34.58.380,HideSeek_v1,2022.2.5,60.1169274604328,
3,1,1,4,2,3,1,45,72,test_exp,untrained,0,,,,,,,,,,,,,,,,,,,,,0,2,2,2,0,0,0,0,,,,,,,,,,,,,,,,,,,,,,,,,,,,,,,stimuli/alien_stimuli/45.png,35.376557099982165,35.376557099982165,35.376557099982165,35.376557099982165,35.376557099982165,0,0,return,0.26364989997819066,0,0,0,-0.08,-0.32,return,0.18675779993645847,,,,,,,test3,train_y,red_square,bottom_left,2024-11-06_12h34.58.380,HideSeek_v1,2022.2.5,60.1169274604328,
3,1,1,4,2,3,1,45,72,test_exp,untrained,0,,,,,,,,,,,,,,,,,,,,,0,2,2,2,,,,,,,,,,,,,,,,,,,,,,,,,,,,,,,,,,,,,,,,,,,,,,,,,,,,35.60932719998527,36.6924559000181,stimuli/alien_stimuli/14.png,14,2,3,test3,train_y,red_square,bottom_left,2024-11-06_12h34.58.380,HideSeek_v1,2022.2.5,60.1169274604328,
4,0,0,0,1,0,1,15,72,test_exp,train_1D_first_repeat,0,,,,,,,,,,,,,,,,,,,,,0,3,3,3,0,0,0,0,,,,,,,,,,,,,,,,,,,,,,,,,,,,,,,stimuli/alien_stimuli/15.png,36.6924559000181,36.6924559000181,36.6924559000181,36.6924559000181,36.6924559000181,0,0,return,0.2615432000020519,0,0,0,-0.16,-0.4,return,0.16223130002617836,,,,,,,test3,train_y,red_square,bottom_left,2024-11-06_12h34.58.380,HideSeek_v1,2022.2.5,60.1169274604328,
4,0,0,0,1,0,1,15,72,test_exp,train_1D_first_repeat,0,,,,,,,,,,,,,,,,,,,,,0,3,3,3,,,,,,,,,,,,,,,,,,,,,,,,,,,,,,,,,,,,,,,,,,,,,,,,,,,,36.89290440001059,37.99305849999655,stimuli/alien_stimuli/14.png,14,2,4,test3,train_y,red_square,bottom_left,2024-11-06_12h34.58.380,HideSeek_v1,2022.2.5,60.1169274604328,
5,4,4,9,9,5,5,61,72,test_exp,untrained,0,,,,,,,,,,,,,,,,,,,,,0,4,4,4,0,0,0,0,,,,,,,,,,,,,,,,,,,,,,,,,,,,,,,stimuli/alien_stimuli/61.png,37.99305849999655,37.99305849999655,37.99305849999655,37.99305849999655,37.99305849999655,0,0,return,0.17850499995984137,0,0,0,0.16,-0.08,return,0.06396659999154508,,,,,,,test3,train_y,red_square,bottom_left,2024-11-06_12h34.58.380,HideSeek_v1,2022.2.5,60.1169274604328,
5,4,4,9,9,5,5,61,72,test_exp,untrained,0,,,,,,,,,,,,,,,,,,,,,0,4,4,4,,,,,,,,,,,,,,,,,,,,,,,,,,,,,,,,,,,,,,,,,,,,,,,,,,,,38.09221529995557,39.160033499938436,stimuli/alien_stimuli/14.png,14,2,5,test3,train_y,red_square,bottom_left,2024-11-06_12h34.58.380,HideSeek_v1,2022.2.5,60.1169274604328,
6,0,2,5,5,5,3,63,72,test_exp,untrained,0,,,,,,,,,,,,,,,,,,,,,0,5,5,5,0,0,0,0,,,,,,,,,,,,,,,,,,,,,,,,,,,,,,,stimuli/alien_stimuli/63.png,39.160033499938436,39.160033499938436,39.160033499938436,39.160033499938436,39.160033499938436,0,0,return,0.16256099997553974,0,0,0,-0.16,-0.24,return,0.08309889992233366,,,,,,,test3,train_y,red_square,bottom_left,2024-11-06_12h34.58.380,HideSeek_v1,2022.2.5,60.1169274604328,
6,0,2,5,5,5,3,63,72,test_exp,untrained,0,,,,,,,,,,,,,,,,,,,,,0,5,5,5,,,,,,,,,,,,,,,,,,,,,,,,,,,,,,,,,,,,,,,,,,,,,,,,,,,,39.2756024999544,40.35994579992257,stimuli/alien_stimuli/14.png,14,2,6,test3,train_y,red_square,bottom_left,2024-11-06_12h34.58.380,HideSeek_v1,2022.2.5,60.1169274604328,
7,4,0,6,5,2,5,31,72,test_exp,untrained,0,,,,,,,,,,,,,,,,,,,,,0,6,6,6,0,0,0,0,,,,,,,,,,,,,,,,,,,,,,,,,,,,,,,stimuli/alien_stimuli/31.png,40.35994579992257,40.35994579992257,40.35994579992257,40.35994579992257,40.35994579992257,0,0,return,0.09611170005518943,0,0,0,0.16,-0.4,return,0.0011142999865114689,,,,,,,test3,train_y,red_square,bottom_left,2024-11-06_12h34.58.380,HideSeek_v1,2022.2.5,60.1169274604328,
7,4,0,6,5,2,5,31,72,test_exp,untrained,0,,,,,,,,,,,,,,,,,,,,,0,6,6,6,,,,,,,,,,,,,,,,,,,,,,,,,,,,,,,,,,,,,,,,,,,,,,,,,,,,40.39268459996674,41.4587333999807,stimuli/alien_stimuli/14.png,14,2,7,test3,train_y,red_square,bottom_left,2024-11-06_12h34.58.380,HideSeek_v1,2022.2.5,60.1169274604328,
8,2,1,5,4,3,3,43,72,test_exp,train_2D_repeat,0,,,,,,,,,,,,,,,,,,,,,0,7,7,7,0,0,0,0,,,,,,,,,,,,,,,,,,,,,,,,,,,,,,,stimuli/alien_stimuli/43.png,41.4587333999807,41.4587333999807,41.4587333999807,41.4587333999807,41.4587333999807,0,0,return,0.18051520001608878,0,0,0,0,-0.32,return,0.08820679993368685,,,,,,,test3,train_y,red_square,bottom_left,2024-11-06_12h34.58.380,HideSeek_v1,2022.2.5,60.1169274604328,
8,2,1,5,4,3,3,43,72,test_exp,train_2D_repeat,0,,,,,,,,,,,,,,,,,,,,,0,7,7,7,,,,,,,,,,,,,,,,,,,,,,,,,,,,,,,,,,,,,,,,,,,,,,,,,,,,41.592685299925506,42.69266840000637,stimuli/alien_stimuli/14.png,14,2,8,test3,train_y,red_square,bottom_left,2024-11-06_12h34.58.380,HideSeek_v1,2022.2.5,60.1169274604328,
9,4,3,8,8,4,5,51,72,test_exp,untrained,0,,,,,,,,,,,,,,,,,,,,,0,8,8,8,0,0,0,0,,,,,,,,,,,,,,,,,,,,,,,,,,,,,,,stimuli/alien_stimuli/51.png,42.69266840000637,42.69266840000637,42.69266840000637,42.69266840000637,42.69266840000637,0,0,return,0.16212270001415163,0,0,0,0.16,-0.16,return,0.0496779999230057,,,,,,,test3,train_y,red_square,bottom_left,2024-11-06_12h34.58.380,HideSeek_v1,2022.2.5,60.1169274604328,
9,4,3,8,8,4,5,51,72,test_exp,untrained,0,,,,,,,,,,,,,,,,,,,,,0,8,8,8,,,,,,,,,,,,,,,,,,,,,,,,,,,,,,,,,,,,,,,,,,,,,,,,,,,,42.77618759998586,43.85937229997944,stimuli/alien_stimuli/14.png,14,2,9,test3,train_y,red_square,bottom_left,2024-11-06_12h34.58.380,HideSeek_v1,2022.2.5,60.1169274604328,
10,1,0,2,5,1,5,21,72,test_exp,train_2D_repeat,0,,,,,,,,,,,,,,,,,,,,,0,9,9,9,0,0,0,0,,,,,,,,,,,,,,,,,,,,,,,,,,,,,,,stimuli/alien_stimuli/21.png,43.85937229997944,43.85937229997944,43.85937229997944,43.85937229997944,43.85937229997944,0,0,return,0.26329530007205904,0,0,0,-0.08,-0.4,return,0.16103940003085881,,,,,,,test3,train_y,red_square,bottom_left,2024-11-06_12h34.58.380,HideSeek_v1,2022.2.5,60.1169274604328,
10,1,0,2,5,1,5,21,72,test_exp,train_2D_repeat,0,,,,,,,,,,,,,,,,,,,,,0,9,9,9,,,,,,,,,,,,,,,,,,,,,,,,,,,,,,,,,,,,,,,,,,,,,,,,,,,,44.05879639997147,45.143334900029004,stimuli/alien_stimuli/14.png,14,2,10,test3,train_y,red_square,bottom_left,2024-11-06_12h34.58.380,HideSeek_v1,2022.2.5,60.1169274604328,
11,3,0,7,2,4,2,54,72,test_exp,train_2D_repeat,0,,,,,,,,,,,,,,,,,,,,,0,10,10,10,0,0,0,0,,,,,,,,,,,,,,,,,,,,,,,,,,,,,,,stimuli/alien_stimuli/54.png,45.143334900029004,45.143334900029004,45.143334900029004,45.143334900029004,45.143334900029004,0,0,return,0.162309099920094,0,0,0,0.08,-0.4,return,0.05529199994634837,,,,,,,test3,train_y,red_square,bottom_left,2024-11-06_12h34.58.380,HideSeek_v1,2022.2.5,60.1169274604328,
11,3,0,7,2,4,2,54,72,test_exp,train_2D_repeat,0,,,,,,,,,,,,,,,,,,,,,0,10,10,10,,,,,,,,,,,,,,,,,,,,,,,,,,,,,,,,,,,,,,,,,,,,,,,,,,,,45.243062200024724,46.32520800002385,stimuli/alien_stimuli/14.png,14,2,11,test3,train_y,red_square,bottom_left,2024-11-06_12h34.58.380,HideSeek_v1,2022.2.5,60.1169274604328,
12,2,3,3,3,1,0,26,72,test_exp,train_1D_sec_new,0,,,,,,,,,,,,,,,,,,,,,0,11,11,11,0,0,0,0,,,,,,,,,,,,,,,,,,,,,,,,,,,,,,,stimuli/alien_stimuli/26.png,46.32520800002385,46.32520800002385,46.32520800002385,46.32520800002385,46.32520800002385,0,0,return,0.129332400043495,0,0,0,0,-0.16,return,0.025371900061145425,,,,,,,test3,train_y,red_square,bottom_left,2024-11-06_12h34.58.380,HideSeek_v1,2022.2.5,60.1169274604328,
12,2,3,3,3,1,0,26,72,test_exp,train_1D_sec_new,0,,,,,,,,,,,,,,,,,,,,,0,11,11,11,,,,,,,,,,,,,,,,,,,,,,,,,,,,,,,,,,,,,,,,,,,,,,,,,,,,46.3923101000255,47.509494700003415,stimuli/alien_stimuli/14.png,14,2,12,test3,train_y,red_square,bottom_left,2024-11-06_12h34.58.380,HideSeek_v1,2022.2.5,60.1169274604328,
13,1,2,1,6,0,4,12,72,test_exp,train_1D_first_new,0,,,,,,,,,,,,,,,,,,,,,0,12,12,12,0,0,0,0,,,,,,,,,,,,,,,,,,,,,,,,,,,,,,,stimuli/alien_stimuli/12.png,47.509494700003415,47.509494700003415,47.509494700003415,47.509494700003415,47.509494700003415,0,0,return,0.16443729994352907,0,0,0,-0.08,-0.24,return,0.02807899995241314,,,,,,,test3,train_y,red_square,bottom_left,2024-11-06_12h34.58.380,HideSeek_v1,2022.2.5,60.1169274604328,
13,1,2,1,6,0,4,12,72,test_exp,train_1D_first_new,0,,,,,,,,,,,,,,,,,,,,,0,12,12,12,,,,,,,,,,,,,,,,,,,,,,,,,,,,,,,,,,,,,,,,,,,,,,,,,,,,47.575547399930656,48.65954959997907,stimuli/alien_stimuli/14.png,14,2,13,test3,train_y,red_square,bottom_left,2024-11-06_12h34.58.380,HideSeek_v1,2022.2.5,60.1169274604328,
14,2,3,5,3,3,0,46,72,test_exp,untrained_1D_sec_leftout,0,,,,,,,,,,,,,,,,,,,,,0,13,13,13,0,0,0,0,,,,,,,,,,,,,,,,,,,,,,,,,,,,,,,stimuli/alien_stimuli/46.png,48.65954959997907,48.65954959997907,48.65954959997907,48.65954959997907,48.65954959997907,0,0,return,0.2625030999770388,0,0,0,0,-0.16,return,0.16051890002563596,,,,,,,test3,train_y,red_square,bottom_left,2024-11-06_12h34.58.380,HideSeek_v1,2022.2.5,60.1169274604328,
14,2,3,5,3,3,0,46,72,test_exp,untrained_1D_sec_leftout,0,,,,,,,,,,,,,,,,,,,,,0,13,13,13,,,,,,,,,,,,,,,,,,,,,,,,,,,,,,,,,,,,,,,,,,,,,,,,,,,,48.859178700018674,49.942241100012325,stimuli/alien_stimuli/14.png,14,2,14,test3,train_y,red_square,bottom_left,2024-11-06_12h34.58.380,HideSeek_v1,2022.2.5,60.1169274604328,
15,2,4,2,4,0,0,16,72,test_exp,train_1D_sec_repeat,0,,,,,,,,,,,,,,,,,,,,,0,14,14,14,0,0,0,0,,,,,,,,,,,,,,,,,,,,,,,,,,,,,,,stimuli/alien_stimuli/16.png,49.942241100012325,49.942241100012325,49.942241100012325,49.942241100012325,49.942241100012325,0,0,return,0.17949639994185418,1,0,1,0,-0.08,return,0.08179590001236647,,,,,,,test3,train_y,red_square,bottom_left,2024-11-06_12h34.58.380,HideSeek_v1,2022.2.5,60.1169274604328,
15,2,4,2,4,0,0,16,72,test_exp,train_1D_sec_repeat,0,,,,,,,,,,,,,,,,,,,,,0,14,14,14,,,,,,,,,,,,,,,,,,,,,,,,,,,,,,,,,,,,,,,,,,,,,,,,,,,,50.05936199997086,51.14295819995459,stimuli/alien_stimuli/14.png,14,2,15,test3,train_y,red_square,bottom_left,2024-11-06_12h34.58.380,HideSeek_v1,2022.2.5,60.1169274604328,
16,1,4,3,5,2,1,35,72,test_exp,untrained,0,,,,,,,,,,,,,,,,,,,,,0,15,15,15,0,0,0,0,,,,,,,,,,,,,,,,,,,,,,,,,,,,,,,stimuli/alien_stimuli/35.png,51.14295819995459,51.14295819995459,51.14295819995459,51.14295819995459,51.14295819995459,0,0,return,0.19475549994967878,1,0,0,-0.08,-0.08,return,0.09467179991770536,,,,,,,test3,train_y,red_square,bottom_left,2024-11-06_12h34.58.380,HideSeek_v1,2022.2.5,60.1169274604328,
16,1,4,3,5,2,1,35,72,test_exp,untrained,0,,,,,,,,,,,,,,,,,,,,,0,15,15,15,,,,,,,,,,,,,,,,,,,,,,,,,,,,,,,,,,,,,,,,,,,,,,,,,,,,51.275723499944434,52.35894519998692,stimuli/alien_stimuli/14.png,14,2,16,test3,train_y,red_square,bottom_left,2024-11-06_12h34.58.380,HideSeek_v1,2022.2.5,60.1169274604328,
17,3,2,8,6,5,4,62,72,test_exp,untrained,0,,,,,,,,,,,,,,,,,,,,,0,16,16,16,0,0,0,0,,,,,,,,,,,,,,,,,,,,,,,,,,,,,,,stimuli/alien_stimuli/62.png,52.35894519998692,52.35894519998692,52.35894519998692,52.35894519998692,52.35894519998692,0,0,return,0.1461795000359416,1,0,0,0.08,-0.24,return,0.04784450004808605,,,,,,,test3,train_y,red_square,bottom_left,2024-11-06_12h34.58.380,HideSeek_v1,2022.2.5,60.1169274604328,
17,3,2,8,6,5,4,62,72,test_exp,untrained,0,,,,,,,,,,,,,,,,,,,,,0,16,16,16,,,,,,,,,,,,,,,,,,,,,,,,,,,,,,,,,,,,,,,,,,,,,,,,,,,,52.442463899962604,53.52591820002999,stimuli/alien_stimuli/14.png,14,2,17,test3,train_y,red_square,bottom_left,2024-11-06_12h34.58.380,HideSeek_v1,2022.2.5,60.1169274604328,
18,3,4,7,8,4,4,52,72,test_exp,untrained,1,,,,,,,,,,,,,,,,,,,,,0,17,17,17,0,0,0,0,,,,,,,,,,,,,,,,,,,,,,,,,,,,,,,stimuli/alien_stimuli/52.png,53.52591820002999,53.52591820002999,53.52591820002999,53.52591820002999,53.52591820002999,0,0,return,0.31330529996193945,1,0,0,0.08,-0.08,return,0.20216099999379367,,,,,,,test3,train_y,red_square,bottom_left,2024-11-06_12h34.58.380,HideSeek_v1,2022.2.5,60.1169274604328,
18,3,4,7,8,4,4,52,72,test_exp,untrained,1,,,,,,,,,,,,,,,,,,,,,0,17,17,17,,,,,,,,,,,,,,,,,,,,,,,,,,,,,,,,,,,,,,,,,,,,,,,,,,,,53.77544639992993,54.859248999971896,stimuli/alien_stimuli/14.png,14,2,18,test3,train_y,red_square,bottom_left,2024-11-06_12h34.58.380,HideSeek_v1,2022.2.5,60.1169274604328,
19,2,0,7,2,5,2,64,72,test_exp,untrained,0,,,,,,,,,,,,,,,,,,,,,0,18,18,18,0,0,0,0,,,,,,,,,,,,,,,,,,,,,,,,,,,,,,,stimuli/alien_stimuli/64.png,54.859248999971896,54.859248999971896,54.859248999971896,54.859248999971896,54.859248999971896,0,0,return,0.38051679998170584,1,0,0,0,-0.4,return,0.26802960003260523,,,,,,,test3,train_y,red_square,bottom_left,2024-11-06_12h34.58.380,HideSeek_v1,2022.2.5,60.1169274604328,
19,2,0,7,2,5,2,64,72,test_exp,untrained,0,,,,,,,,,,,,,,,,,,,,,0,18,18,18,,,,,,,,,,,,,,,,,,,,,,,,,,,,,,,,,,,,,,,,,,,,,,,,,,,,55.175393800018355,56.25931729993317,stimuli/alien_stimuli/14.png,14,2,19,test3,train_y,red_square,bottom_left,2024-11-06_12h34.58.380,HideSeek_v1,2022.2.5,60.1169274604328,
20,3,3,3,6,0,3,13,72,test_exp,untrained_1D_first_leftout,0,,,,,,,,,,,,,,,,,,,,,0,19,19,19,0,0,0,0,,,,,,,,,,,,,,,,,,,,,,,,,,,,,,,stimuli/alien_stimuli/13.png,56.25931729993317,56.25931729993317,56.25931729993317,56.25931729993317,56.25931729993317,0,0,return,0.8628213000483811,1,0,0,0.08,-0.16,return,0.7545020999386907,,,,,,,test3,train_y,red_square,bottom_left,2024-11-06_12h34.58.380,HideSeek_v1,2022.2.5,60.1169274604328,
20,3,3,3,6,0,3,13,72,test_exp,untrained_1D_first_leftout,0,,,,,,,,,,,,,,,,,,,,,0,19,19,19,,,,,,,,,,,,,,,,,,,,,,,,,,,,,,,,,,,,,,,,,,,,,,,,,,,,57.05893860000651,58.142107099993154,stimuli/alien_stimuli/14.png,14,2,20,test3,train_y,red_square,bottom_left,2024-11-06_12h34.58.380,HideSeek_v1,2022.2.5,60.1169274604328,
,,,,,,,,,,,,,,,,,,,,,,,,,,,,,,,,,,,,,,,,,,,,,,,,,,,,,,,,,,,,,,,,,,,,,,stimuli/alien_stimuli/25.png,58.142107099993154,58.142107099993154,58.142107099993154,58.142107099993154,58.142107099993154,,,,,,,,,,,,,,,,,,,,,,,,,,
