trialTrain,x_fixStart,y_fixStart,x_corrSteps,y_corrSteps,x_nrSteps,y_nrSteps,alienID,testlen,version,trial_label,break_on_off,beforeExpLoop.thisRepN,beforeExpLoop.thisTrialN,beforeExpLoop.thisN,beforeExpLoop.thisIndex,mini_instr_trials.thisRepN,mini_instr_trials.thisTrialN,mini_instr_trials.thisN,mini_instr_trials.thisIndex,instrLoop.thisRepN,instrLoop.thisTrialN,instrLoop.thisN,instrLoop.thisIndex,repeat_prac.thisRepN,repeat_prac.thisTrialN,repeat_prac.thisN,repeat_prac.thisIndex,trainLoop.thisRepN,trainLoop.thisTrialN,trainLoop.thisN,trainLoop.thisIndex,experiment.thisRepN,experiment.thisTrialN,experiment.thisN,experiment.thisIndex,moveLoop_test.thisRepN,moveLoop_test.thisTrialN,moveLoop_test.thisN,moveLoop_test.thisIndex,breaks.thisRepN,breaks.thisTrialN,breaks.thisN,breaks.thisIndex,start_all_time,url,slideStim,audioStim,slides.started,sounds.started,nextButton.numClicks,nextButton.timesOn,nextButton.timesOff,prev_but.numClicks,prev_but.timesOn,prev_but.timesOff,perfthres,percthres,earlierperf,earlystop,nextPrac,fileidx,praclen,saveACC_train,pracFile,nextPrac_train,addNrep,fileidx_endr,repExp,showearly,alienStim,gridImage_3.started,alienImage_test.started,startPos_test.started,movePos_test.started,key_resp_test.started,wLy_dir_test,wLx_dir_test,buttonPress_test,RTchoice_test,cumAcctest,saveACC_choice,corrAns_test,x_movePos_end,y_movePos_end,key_resp_test.keys,key_resp_test.rt,fixation_text.started,fixation_text.stopped,draw_alienStim,draw_alienID,test_x,nrepcount,participant,train_first,00_coordinate,starting corner,date,expName,psychopyVersion,frameRate,
,,,,,,,,,,,,0,0,0,0,0,0,0,0,,,,,,,,,,,,,,,,,,,,,,,,,start_all_time,testround,conditions/schedules/train_y_first/red_square_00/bottom_left/instructions/Slide1.png,conditions/schedules/train_y_first/red_square_00/bottom_left/instructions/Audio1.wav,33.348292400012724,33.27400692170486,1,[9.238934599910863],[9.238942099967971],0,,,,,,,,,,,,,,,,,,,,,,,,,,,,,,,,,,,,,,,,test1,train_y,red_square,bottom_left,2024-11-06_12h19.21.406,HideSeek_v1,2022.2.5,60.24121789807927,
,,,,,,,,,,,,0,0,0,0,1,0,1,0,,,,,,,,,,,,,,,,,,,,,,,,,,,conditions/schedules/train_y_first/red_square_00/bottom_left/instructions/Slide2.png,conditions/schedules/train_y_first/red_square_00/bottom_left/instructions/Audio2.wav,42.579236799967475,42.56252047999296,2,"[9.238934599910863, 0.4520835999865085]","[0.13615379994735122, 0.45209180004894733]",0,,,,,,,,,,,,,,,,,,,,,,,,,,,,,,,,,,,,,,,,test1,train_y,red_square,bottom_left,2024-11-06_12h19.21.406,HideSeek_v1,2022.2.5,60.24121789807927,
,,,,,,,,,,,,0,0,0,0,2,0,2,0,,,,,,,,,,,,,,,,,,,,,,,,,,,conditions/schedules/train_y_first/red_square_00/bottom_left/instructions/Slide3.png,conditions/schedules/train_y_first/red_square_00/bottom_left/instructions/Audio3.wav,43.080351599957794,43.07849858000409,3,"[9.238934599910863, 0.4520835999865085, 0.1785154000390321]","[0.13615379994735122, 0.013372199959121644, 0.17852319998200983]",0,,,,,,,,,,,,,,,,,,,,,,,,,,,,,,,,,,,,,,,,test1,train_y,red_square,bottom_left,2024-11-06_12h19.21.406,HideSeek_v1,2022.2.5,60.24121789807927,
,,,,,,,,,,,,0,0,0,0,3,0,3,0,,,,,,,,,,,,,,,,,,,,,,,,,,,conditions/schedules/train_y_first/red_square_00/bottom_left/instructions/Slide4.png,conditions/schedules/train_y_first/red_square_00/bottom_left/instructions/Audio4.wav,43.31308969995007,43.31184527997393,4,"[9.238934599910863, 0.4520835999865085, 0.1785154000390321, 0.16569619998335838]","[0.13615379994735122, 0.013372199959121644, 0.00021029997151345015, 0.16570280003361404]",0,,,,,,,,,,,,,,,,,,,,,,,,,,,,,,,,,,,,,,,,test1,train_y,red_square,bottom_left,2024-11-06_12h19.21.406,HideSeek_v1,2022.2.5,60.24121789807927,
,,,,,,,,,,,,0,0,0,0,4,0,4,0,,,,,,,,,,,,,,,,,,,,,,,,,,,conditions/schedules/train_y_first/red_square_00/bottom_left/instructions/Slide5.png,conditions/schedules/train_y_first/red_square_00/bottom_left/instructions/Audio5.wav,43.51481149997562,43.51177835995332,5,"[9.238934599910863, 0.4520835999865085, 0.1785154000390321, 0.16569619998335838, 0.16026739997323602]","[0.13615379994735122, 0.013372199959121644, 0.00021029997151345015, 0.012984200031496584, 0.16027480002958328]",0,,,,,,,,,,,,,,,,,,,,,,,,,,,,,,,,,,,,,,,,test1,train_y,red_square,bottom_left,2024-11-06_12h19.21.406,HideSeek_v1,2022.2.5,60.24121789807927,
,,,,,,,,,,,,0,0,0,0,5,0,5,0,,,,,,,,,,,,,,,,,,,,,,,,,,,conditions/schedules/train_y_first/red_square_00/bottom_left/instructions/Slide6.png,conditions/schedules/train_y_first/red_square_00/bottom_left/instructions/Audio6.wav,43.714522199938074,43.71202436003369,6,"[9.238934599910863, 0.4520835999865085, 0.1785154000390321, 0.16569619998335838, 0.16026739997323602, 0.12766490003559738]","[0.13615379994735122, 0.013372199959121644, 0.00021029997151345015, 0.012984200031496584, 0.00018850003834813833, 0.1276718000881374]",0,,,,,,,,,,,,,,,,,,,,,,,,,,,,,,,,,,,,,,,,test1,train_y,red_square,bottom_left,2024-11-06_12h19.21.406,HideSeek_v1,2022.2.5,60.24121789807927,
,,,,,,,,,,,,0,0,0,0,6,0,6,0,,,,,,,,,,,,,,,,,,,,,,,,,,,conditions/schedules/train_y_first/red_square_00/bottom_left/instructions/Slide7.png,conditions/schedules/train_y_first/red_square_00/bottom_left/instructions/Audio7.wav,43.88188849994913,43.87844526006375,7,"[9.238934599910863, 0.4520835999865085, 0.1785154000390321, 0.16569619998335838, 0.16026739997323602, 0.12766490003559738, 0.15989280003122985]","[0.13615379994735122, 0.013372199959121644, 0.00021029997151345015, 0.012984200031496584, 0.00018850003834813833, 0.013117299997247756, 0.15989910007920116]",0,,,,,,,,,,,,,,,,,,,,,,,,,,,,,,,,,,,,,,,,test1,train_y,red_square,bottom_left,2024-11-06_12h19.21.406,HideSeek_v1,2022.2.5,60.24121789807927,
,,,,,,,,,,,,0,0,0,0,7,0,7,0,,,,,,,,,,,,,,,,,,,,,,,,,,,conditions/schedules/train_y_first/red_square_00/bottom_left/instructions/Slide8.png,conditions/schedules/train_y_first/red_square_00/bottom_left/instructions/Audio8.wav,44.08203449996654,44.078619160060775,8,"[9.238934599910863, 0.4520835999865085, 0.1785154000390321, 0.16569619998335838, 0.16026739997323602, 0.12766490003559738, 0.15989280003122985, 0.12758760002907366]","[0.13615379994735122, 0.013372199959121644, 0.00021029997151345015, 0.012984200031496584, 0.00018850003834813833, 0.013117299997247756, 0.00018830003682523966, 0.1275946000823751]",0,,,,,,,,,,,,,,,,,,,,,,,,,,,,,,,,,,,,,,,,test1,train_y,red_square,bottom_left,2024-11-06_12h19.21.406,HideSeek_v1,2022.2.5,60.24121789807927,
,,,,,,,,,,,,0,0,0,0,8,0,8,0,,,,,,,,,,,,,,,,,,,,,,,,,,,conditions/schedules/train_y_first/red_square_00/bottom_left/instructions/Slide9.png,conditions/schedules/train_y_first/red_square_00/bottom_left/instructions/Audio9.wav,44.24980290001258,44.245397160016005,9,"[9.238934599910863, 0.4520835999865085, 0.1785154000390321, 0.16569619998335838, 0.16026739997323602, 0.12766490003559738, 0.15989280003122985, 0.12758760002907366, 0.12686640000902116]","[0.13615379994735122, 0.013372199959121644, 0.00021029997151345015, 0.012984200031496584, 0.00018850003834813833, 0.013117299997247756, 0.00018830003682523966, 0.014304200070910156, 0.1268764000851661]",0,,,,,,,,,,,,,,,,,,,,,,,,,,,,,,,,,,,,,,,,test1,train_y,red_square,bottom_left,2024-11-06_12h19.21.406,HideSeek_v1,2022.2.5,60.24121789807927,
,,,,,,,,,,,,0,0,0,0,9,0,9,0,,,,,,,,,,,,,,,,,,,,,,,,,,,conditions/schedules/train_y_first/red_square_00/bottom_left/instructions/Slide10.png,conditions/schedules/train_y_first/red_square_00/bottom_left/instructions/Audio10.wav,44.41176930000074,44.39493363995571,10,"[9.238934599910863, 0.4520835999865085, 0.1785154000390321, 0.16569619998335838, 0.16026739997323602, 0.12766490003559738, 0.15989280003122985, 0.12758760002907366, 0.12686640000902116, 0.15273620001971722]","[0.13615379994735122, 0.013372199959121644, 0.00021029997151345015, 0.012984200031496584, 0.00018850003834813833, 0.013117299997247756, 0.00018830003682523966, 0.014304200070910156, 0.03598939999938011, 0.1527445000829175]",0,,,,,,,,,,,,,,,,,,,,,,,,,,,,,,,,,,,,,,,,test1,train_y,red_square,bottom_left,2024-11-06_12h19.21.406,HideSeek_v1,2022.2.5,60.24121789807927,
,,,,,,,,,,,,0,0,0,0,10,0,10,0,,,,,,,,,,,,,,,,,,,,,,,,,,,conditions/schedules/train_y_first/red_square_00/bottom_left/instructions/Slide11.png,conditions/schedules/train_y_first/red_square_00/bottom_left/instructions/Audio11.wav,44.59507489996031,44.5783543399768,11,"[9.238934599910863, 0.4520835999865085, 0.1785154000390321, 0.16569619998335838, 0.16026739997323602, 0.12766490003559738, 0.15989280003122985, 0.12758760002907366, 0.12686640000902116, 0.15273620001971722, 0.13877309998497367]","[0.13615379994735122, 0.013372199959121644, 0.00021029997151345015, 0.012984200031496584, 0.00018850003834813833, 0.013117299997247756, 0.00018830003682523966, 0.014304200070910156, 0.03598939999938011, 0.021457000053487718, 0.13877880002837628]",0,,,,,,,,,,,,,,,,,,,,,,,,,,,,,,,,,,,,,,,,test1,train_y,red_square,bottom_left,2024-11-06_12h19.21.406,HideSeek_v1,2022.2.5,60.24121789807927,
,,,,,,,,,,,,0,0,0,0,11,0,11,0,,,,,,,,,,,,,,,,,,,,,,,,,,,conditions/schedules/train_y_first/red_square_00/bottom_left/instructions/Slide12.png,conditions/schedules/train_y_first/red_square_00/bottom_left/instructions/Audio12.wav,44.778517800034024,44.7620666600531,12,"[9.238934599910863, 0.4520835999865085, 0.1785154000390321, 0.16569619998335838, 0.16026739997323602, 0.12766490003559738, 0.15989280003122985, 0.12758760002907366, 0.12686640000902116, 0.15273620001971722, 0.13877309998497367, 0.14226150000467896]","[0.13615379994735122, 0.013372199959121644, 0.00021029997151345015, 0.012984200031496584, 0.00018850003834813833, 0.013117299997247756, 0.00018830003682523966, 0.014304200070910156, 0.03598939999938011, 0.021457000053487718, 0.024447700008749962, 0.14227040007244796]",0,,,,,,,,,,,,,,,,,,,,,,,,,,,,,,,,,,,,,,,,test1,train_y,red_square,bottom_left,2024-11-06_12h19.21.406,HideSeek_v1,2022.2.5,60.24121789807927,
,,,,,,,,,,,,0,0,0,0,,,,,,,,,,,,,,,,,,,,,,,,,,,,,,,,,,,,,,,,,17,0.7,0,0,99,1,30,0,conditions/schedules/train_y_first/red_square_00/bottom_left/inputTrain_1.1.xlsx,99,1,1,1,0,,,,,,,,,,,,,,,,,,,,,,,,test1,train_y,red_square,bottom_left,2024-11-06_12h19.21.406,HideSeek_v1,2022.2.5,60.24121789807927,
,,,,,,,,,,,,1,0,1,0,0,0,0,0,,,,,,,,,,,,,,,,,,,,,,,,,,,conditions/schedules/train_y_first/red_square_00/bottom_left/instructions/Slide13.png,conditions/schedules/train_y_first/red_square_00/bottom_left/instructions/Audio13.wav,45.013750799931586,45.01223273999058,13,"[9.238934599910863, 0.4520835999865085, 0.1785154000390321, 0.16569619998335838, 0.16026739997323602, 0.12766490003559738, 0.15989280003122985, 0.12758760002907366, 0.12686640000902116, 0.15273620001971722, 0.13877309998497367, 0.14226150000467896, 0.06228029995691031]","[0.13615379994735122, 0.013372199959121644, 0.00021029997151345015, 0.012984200031496584, 0.00018850003834813833, 0.013117299997247756, 0.00018830003682523966, 0.014304200070910156, 0.03598939999938011, 0.021457000053487718, 0.024447700008749962, 0.14227040007244796, 0.062287300010211766]",0,,,,,,,,,,,,,,,,,,,,,,,,,,,,,,,,,,,,,,,,test1,train_y,red_square,bottom_left,2024-11-06_12h19.21.406,HideSeek_v1,2022.2.5,60.24121789807927,
,,,,,,,,,,,,1,0,1,0,1,0,1,0,,,,,,,,,,,,,,,,,,,,,,,,,,,conditions/schedules/train_y_first/red_square_00/bottom_left/instructions/Slide14.png,conditions/schedules/train_y_first/red_square_00/bottom_left/instructions/Audio14.wav,45.12872359994799,45.1118167599896,14,"[9.238934599910863, 0.4520835999865085, 0.1785154000390321, 0.16569619998335838, 0.16026739997323602, 0.12766490003559738, 0.15989280003122985, 0.12758760002907366, 0.12686640000902116, 0.15273620001971722, 0.13877309998497367, 0.14226150000467896, 0.06228029995691031, 0.12137659988366067]","[0.13615379994735122, 0.013372199959121644, 0.00021029997151345015, 0.012984200031496584, 0.00018850003834813833, 0.013117299997247756, 0.00018830003682523966, 0.014304200070910156, 0.03598939999938011, 0.021457000053487718, 0.024447700008749962, 0.14227040007244796, 0.00019269995391368866, 0.12138469994533807]",0,,,,,,,,,,,,,,,,,,,,,,,,,,,,,,,,,,,,,,,,test1,train_y,red_square,bottom_left,2024-11-06_12h19.21.406,HideSeek_v1,2022.2.5,60.24121789807927,
,,,,,,,,,,,,1,0,1,0,,,,,,,,,,,,,,,,,,,,,,,,,,,,,,,,,,,,,,,,,17,0.7,0,0,99,1,30,0,conditions/schedules/train_y_first/red_square_00/bottom_left/inputTrain_1.1.xlsx,99,1,1,1,0,,,,,,,,,,,,,,,,,,,,,,,,test1,train_y,red_square,bottom_left,2024-11-06_12h19.21.406,HideSeek_v1,2022.2.5,60.24121789807927,
,,,,,,,,,,,,2,0,2,0,0,0,0,0,,,,,,,,,,,,,,,,,,,,,,,,,,,conditions/schedules/train_y_first/red_square_00/bottom_left/instructions/Slide15.png,conditions/schedules/train_y_first/red_square_00/bottom_left/instructions/Audio15.wav,45.36170310003217,45.34479314000346,15,"[9.238934599910863, 0.4520835999865085, 0.1785154000390321, 0.16569619998335838, 0.16026739997323602, 0.12766490003559738, 0.15989280003122985, 0.12758760002907366, 0.12686640000902116, 0.15273620001971722, 0.13877309998497367, 0.14226150000467896, 0.06228029995691031, 0.12137659988366067, 0.05521299992688]","[0.13615379994735122, 0.013372199959121644, 0.00021029997151345015, 0.012984200031496584, 0.00018850003834813833, 0.013117299997247756, 0.00018830003682523966, 0.014304200070910156, 0.03598939999938011, 0.021457000053487718, 0.024447700008749962, 0.14227040007244796, 0.00019269995391368866, 0.12138469994533807, 0.055219999980181456]",0,,,,,,,,,,,,,,,,,,,,,,,,,,,,,,,,,,,,,,,,test1,train_y,red_square,bottom_left,2024-11-06_12h19.21.406,HideSeek_v1,2022.2.5,60.24121789807927,
,,,,,,,,,,,,2,0,2,0,1,0,1,0,,,,,,,,,,,,,,,,,,,,,,,,,,,conditions/schedules/train_y_first/red_square_00/bottom_left/instructions/Slide16.png,conditions/schedules/train_y_first/red_square_00/bottom_left/instructions/Audio16.wav,45.479284000000916,45.462000180012545,16,"[9.238934599910863, 0.4520835999865085, 0.1785154000390321, 0.16569619998335838, 0.16026739997323602, 0.12766490003559738, 0.15989280003122985, 0.12758760002907366, 0.12686640000902116, 0.15273620001971722, 0.13877309998497367, 0.14226150000467896, 0.06228029995691031, 0.12137659988366067, 0.05521299992688, 0.1088115000165999]","[0.13615379994735122, 0.013372199959121644, 0.00021029997151345015, 0.012984200031496584, 0.00018850003834813833, 0.013117299997247756, 0.00018830003682523966, 0.014304200070910156, 0.03598939999938011, 0.021457000053487718, 0.024447700008749962, 0.14227040007244796, 0.00019269995391368866, 0.12138469994533807, 0.055219999980181456, 0.10881710005924106]",0,,,,,,,,,,,,,,,,,,,,,,,,,,,,,,,,,,,,,,,,test1,train_y,red_square,bottom_left,2024-11-06_12h19.21.406,HideSeek_v1,2022.2.5,60.24121789807927,
,,,,,,,,,,,,2,0,2,0,,,,,,,,,,,,,,,,,,,,,,,,,,,,,,,,,,,,,,,,,17,0.7,0,0,99,1,30,0,conditions/schedules/train_y_first/red_square_00/bottom_left/inputTrain_1.1.xlsx,99,1,1,1,0,,,,,,,,,,,,,,,,,,,,,,,,test1,train_y,red_square,bottom_left,2024-11-06_12h19.21.406,HideSeek_v1,2022.2.5,60.24121789807927,
,,,,,,,,,,,,3,0,3,0,0,0,0,0,,,,,,,,,,,,,,,,,,,,,,,,,,,conditions/schedules/train_y_first/red_square_00/bottom_left/instructions/Slide17.png,conditions/schedules/train_y_first/red_square_00/bottom_left/instructions/Audio17.wav,45.679528999957256,45.67841044003144,17,"[9.238934599910863, 0.4520835999865085, 0.1785154000390321, 0.16569619998335838, 0.16026739997323602, 0.12766490003559738, 0.15989280003122985, 0.12758760002907366, 0.12686640000902116, 0.15273620001971722, 0.13877309998497367, 0.14226150000467896, 0.06228029995691031, 0.12137659988366067, 0.05521299992688, 0.1088115000165999, 0.04975709994323552]","[0.13615379994735122, 0.013372199959121644, 0.00021029997151345015, 0.012984200031496584, 0.00018850003834813833, 0.013117299997247756, 0.00018830003682523966, 0.014304200070910156, 0.03598939999938011, 0.021457000053487718, 0.024447700008749962, 0.14227040007244796, 0.00019269995391368866, 0.12138469994533807, 0.055219999980181456, 0.10881710005924106, 0.04976590001024306]",0,,,,,,,,,,,,,,,,,,,,,,,,,,,,,,,,,,,,,,,,test1,train_y,red_square,bottom_left,2024-11-06_12h19.21.406,HideSeek_v1,2022.2.5,60.24121789807927,
,,,,,,,,,,,,3,0,3,0,1,0,1,0,,,,,,,,,,,,,,,,,,,,,,,,,,,conditions/schedules/train_y_first/red_square_00/bottom_left/instructions/Slide18.png,conditions/schedules/train_y_first/red_square_00/bottom_left/instructions/Audio18.wav,45.779176999931224,45.762041659979154,18,"[9.238934599910863, 0.4520835999865085, 0.1785154000390321, 0.16569619998335838, 0.16026739997323602, 0.12766490003559738, 0.15989280003122985, 0.12758760002907366, 0.12686640000902116, 0.15273620001971722, 0.13877309998497367, 0.14226150000467896, 0.06228029995691031, 0.12137659988366067, 0.05521299992688, 0.1088115000165999, 0.04975709994323552, 0.143362500006333]","[0.13615379994735122, 0.013372199959121644, 0.00021029997151345015, 0.012984200031496584, 0.00018850003834813833, 0.013117299997247756, 0.00018830003682523966, 0.014304200070910156, 0.03598939999938011, 0.021457000053487718, 0.024447700008749962, 0.14227040007244796, 0.00019269995391368866, 0.12138469994533807, 0.055219999980181456, 0.10881710005924106, 0.00018949992954730988, 0.14336869993712753]",0,,,,,,,,,,,,,,,,,,,,,,,,,,,,,,,,,,,,,,,,test1,train_y,red_square,bottom_left,2024-11-06_12h19.21.406,HideSeek_v1,2022.2.5,60.24121789807927,
,,,,,,,,,,,,3,0,3,0,2,0,2,0,,,,,,,,,,,,,,,,,,,,,,,,,,,conditions/schedules/train_y_first/red_square_00/bottom_left/instructions/Slide19.png,conditions/schedules/train_y_first/red_square_00/bottom_left/instructions/Audio19.wav,45.96242120000534,45.94553176006303,19,"[9.238934599910863, 0.4520835999865085, 0.1785154000390321, 0.16569619998335838, 0.16026739997323602, 0.12766490003559738, 0.15989280003122985, 0.12758760002907366, 0.12686640000902116, 0.15273620001971722, 0.13877309998497367, 0.14226150000467896, 0.06228029995691031, 0.12137659988366067, 0.05521299992688, 0.1088115000165999, 0.04975709994323552, 0.143362500006333, 0.507213499979116]","[0.13615379994735122, 0.013372199959121644, 0.00021029997151345015, 0.012984200031496584, 0.00018850003834813833, 0.013117299997247756, 0.00018830003682523966, 0.014304200070910156, 0.03598939999938011, 0.021457000053487718, 0.024447700008749962, 0.14227040007244796, 0.00019269995391368866, 0.12138469994533807, 0.055219999980181456, 0.10881710005924106, 0.00018949992954730988, 0.14336869993712753, 0.5072210000362247]",0,,,,,,,,,,,,,,,,,,,,,,,,,,,,,,,,,,,,,,,,test1,train_y,red_square,bottom_left,2024-11-06_12h19.21.406,HideSeek_v1,2022.2.5,60.24121789807927,
,,,,,,,,,,,,3,0,3,0,3,0,3,0,,,,,,,,,,,,,,,,,,,,,,,,,,,conditions/schedules/train_y_first/red_square_00/bottom_left/instructions/Slide20.png,conditions/schedules/train_y_first/red_square_00/bottom_left/instructions/Audio20.wav,46.5118436999619,46.495616160053764,20,"[9.238934599910863, 0.4520835999865085, 0.1785154000390321, 0.16569619998335838, 0.16026739997323602, 0.12766490003559738, 0.15989280003122985, 0.12758760002907366, 0.12686640000902116, 0.15273620001971722, 0.13877309998497367, 0.14226150000467896, 0.06228029995691031, 0.12137659988366067, 0.05521299992688, 0.1088115000165999, 0.04975709994323552, 0.143362500006333, 0.507213499979116, 0.10556589998304844]","[0.13615379994735122, 0.013372199959121644, 0.00021029997151345015, 0.012984200031496584, 0.00018850003834813833, 0.013117299997247756, 0.00018830003682523966, 0.014304200070910156, 0.03598939999938011, 0.021457000053487718, 0.024447700008749962, 0.14227040007244796, 0.00019269995391368866, 0.12138469994533807, 0.055219999980181456, 0.10881710005924106, 0.00018949992954730988, 0.14336869993712753, 0.00019340007565915585, 0.105572700034827]",0,,,,,,,,,,,,,,,,,,,,,,,,,,,,,,,,,,,,,,,,test1,train_y,red_square,bottom_left,2024-11-06_12h19.21.406,HideSeek_v1,2022.2.5,60.24121789807927,
,,,,,,,,,,,,3,0,3,0,,,,,,,,,,,,,,,,,,,,,,,,,,,,,,,,,,,,,,,,,17,0.7,0,0,99,1,30,0,conditions/schedules/train_y_first/red_square_00/bottom_left/inputTrain_1.1.xlsx,99,1,1,1,0,,,,,,,,,,,,,,,,,,,,,,,,test1,train_y,red_square,bottom_left,2024-11-06_12h19.21.406,HideSeek_v1,2022.2.5,60.24121789807927,
,,,,,,,,,,,,4,0,4,0,0,0,0,0,,,,,,,,,,,,,,,,,,,,,,,,,,,conditions/schedules/train_y_first/red_square_00/bottom_left/instructions/Slide21.png,conditions/schedules/train_y_first/red_square_00/bottom_left/instructions/Audio21.wav,46.71313889999874,46.71180504006334,21,"[9.238934599910863, 0.4520835999865085, 0.1785154000390321, 0.16569619998335838, 0.16026739997323602, 0.12766490003559738, 0.15989280003122985, 0.12758760002907366, 0.12686640000902116, 0.15273620001971722, 0.13877309998497367, 0.14226150000467896, 0.06228029995691031, 0.12137659988366067, 0.05521299992688, 0.1088115000165999, 0.04975709994323552, 0.143362500006333, 0.507213499979116, 0.10556589998304844, 0.07949570007622242]","[0.13615379994735122, 0.013372199959121644, 0.00021029997151345015, 0.012984200031496584, 0.00018850003834813833, 0.013117299997247756, 0.00018830003682523966, 0.014304200070910156, 0.03598939999938011, 0.021457000053487718, 0.024447700008749962, 0.14227040007244796, 0.00019269995391368866, 0.12138469994533807, 0.055219999980181456, 0.10881710005924106, 0.00018949992954730988, 0.14336869993712753, 0.00019340007565915585, 0.105572700034827, 0.07950450002681464]",0,,,,,,,,,,,,,,,,,,,,,,,,,,,,,,,,,,,,,,,,test1,train_y,red_square,bottom_left,2024-11-06_12h19.21.406,HideSeek_v1,2022.2.5,60.24121789807927,
,,,,,,,,,,,,4,0,4,0,,,,,,,,,,,,,,,,,,,,,,,,,,,,,,,,,,,,,,,,,17,0.7,0,0,99,1,30,0,conditions/schedules/train_y_first/red_square_00/bottom_left/inputTrain_1.1.xlsx,99,1,1,1,0,,,,,,,,,,,,,,,,,,,,,,,,test1,train_y,red_square,bottom_left,2024-11-06_12h19.21.406,HideSeek_v1,2022.2.5,60.24121789807927,
,,,,,,,,,,,,5,0,5,0,0,0,0,0,,,,,,,,,,,,,,,,,,,,,,,,,,,conditions/schedules/train_y_first/red_square_00/bottom_left/instructions/Slide22.png,conditions/schedules/train_y_first/red_square_00/bottom_left/instructions/Audio22.wav,46.911617500009015,46.89489534001332,22,"[9.238934599910863, 0.4520835999865085, 0.1785154000390321, 0.16569619998335838, 0.16026739997323602, 0.12766490003559738, 0.15989280003122985, 0.12758760002907366, 0.12686640000902116, 0.15273620001971722, 0.13877309998497367, 0.14226150000467896, 0.06228029995691031, 0.12137659988366067, 0.05521299992688, 0.1088115000165999, 0.04975709994323552, 0.143362500006333, 0.507213499979116, 0.10556589998304844, 0.07949570007622242, 0.05879479995928705]","[0.13615379994735122, 0.013372199959121644, 0.00021029997151345015, 0.012984200031496584, 0.00018850003834813833, 0.013117299997247756, 0.00018830003682523966, 0.014304200070910156, 0.03598939999938011, 0.021457000053487718, 0.024447700008749962, 0.14227040007244796, 0.00019269995391368866, 0.12138469994533807, 0.055219999980181456, 0.10881710005924106, 0.00018949992954730988, 0.14336869993712753, 0.00019340007565915585, 0.105572700034827, 0.07950450002681464, 0.058801100007258356]",0,,,,,,,,,,,,,,,,,,,,,,,,,,,,,,,,,,,,,,,,test1,train_y,red_square,bottom_left,2024-11-06_12h19.21.406,HideSeek_v1,2022.2.5,60.24121789807927,
,,,,,,,,,,,,5,0,5,0,,,,,,,,,,,,,,,,,,,,,,,,,,,,,,,,,,,,,,,,,17,0.7,0,0,99,1,30,0,conditions/schedules/train_y_first/red_square_00/bottom_left/inputTrain_1.1.xlsx,99,1,1,1,0,,,,,,,,,,,,,,,,,,,,,,,,test1,train_y,red_square,bottom_left,2024-11-06_12h19.21.406,HideSeek_v1,2022.2.5,60.24121789807927,
,,,,,,,,,,,,6,0,6,0,0,0,0,0,,,,,,,,,,,,,,,,,,,,,,,,,,,conditions/schedules/train_y_first/red_square_00/bottom_left/instructions/Slide23.png,conditions/schedules/train_y_first/red_square_00/bottom_left/instructions/Audio23.wav,47.06245269998908,47.0620297400048,23,"[9.238934599910863, 0.4520835999865085, 0.1785154000390321, 0.16569619998335838, 0.16026739997323602, 0.12766490003559738, 0.15989280003122985, 0.12758760002907366, 0.12686640000902116, 0.15273620001971722, 0.13877309998497367, 0.14226150000467896, 0.06228029995691031, 0.12137659988366067, 0.05521299992688, 0.1088115000165999, 0.04975709994323552, 0.143362500006333, 0.507213499979116, 0.10556589998304844, 0.07949570007622242, 0.05879479995928705, 0.06439740001223981]","[0.13615379994735122, 0.013372199959121644, 0.00021029997151345015, 0.012984200031496584, 0.00018850003834813833, 0.013117299997247756, 0.00018830003682523966, 0.014304200070910156, 0.03598939999938011, 0.021457000053487718, 0.024447700008749962, 0.14227040007244796, 0.00019269995391368866, 0.12138469994533807, 0.055219999980181456, 0.10881710005924106, 0.00018949992954730988, 0.14336869993712753, 0.00019340007565915585, 0.105572700034827, 0.07950450002681464, 0.058801100007258356, 0.06440460006706417]",0,,,,,,,,,,,,,,,,,,,,,,,,,,,,,,,,,,,,,,,,test1,train_y,red_square,bottom_left,2024-11-06_12h19.21.406,HideSeek_v1,2022.2.5,60.24121789807927,
,,,,,,,,,,,,6,0,6,0,1,0,1,0,,,,,,,,,,,,,,,,,,,,,,,,,,,conditions/schedules/train_y_first/red_square_00/bottom_left/instructions/Slide24.png,conditions/schedules/train_y_first/red_square_00/bottom_left/instructions/Audio24.wav,47.1781402999768,47.161842259997506,24,"[9.238934599910863, 0.4520835999865085, 0.1785154000390321, 0.16569619998335838, 0.16026739997323602, 0.12766490003559738, 0.15989280003122985, 0.12758760002907366, 0.12686640000902116, 0.15273620001971722, 0.13877309998497367, 0.14226150000467896, 0.06228029995691031, 0.12137659988366067, 0.05521299992688, 0.1088115000165999, 0.04975709994323552, 0.143362500006333, 0.507213499979116, 0.10556589998304844, 0.07949570007622242, 0.05879479995928705, 0.06439740001223981, 0.12386439996771514]","[0.13615379994735122, 0.013372199959121644, 0.00021029997151345015, 0.012984200031496584, 0.00018850003834813833, 0.013117299997247756, 0.00018830003682523966, 0.014304200070910156, 0.03598939999938011, 0.021457000053487718, 0.024447700008749962, 0.14227040007244796, 0.00019269995391368866, 0.12138469994533807, 0.055219999980181456, 0.10881710005924106, 0.00018949992954730988, 0.14336869993712753, 0.00019340007565915585, 0.105572700034827, 0.07950450002681464, 0.058801100007258356, 0.00019609997980296612, 0.1238708000164479]",0,,,,,,,,,,,,,,,,,,,,,,,,,,,,,,,,,,,,,,,,test1,train_y,red_square,bottom_left,2024-11-06_12h19.21.406,HideSeek_v1,2022.2.5,60.24121789807927,
,,,,,,,,,,,,6,0,6,0,2,0,2,0,,,,,,,,,,,,,,,,,,,,,,,,,,,conditions/schedules/train_y_first/red_square_00/bottom_left/instructions/Slide25.png,conditions/schedules/train_y_first/red_square_00/bottom_left/instructions/Audio25.wav,47.34528909996152,47.328214860009034,25,"[9.238934599910863, 0.4520835999865085, 0.1785154000390321, 0.16569619998335838, 0.16026739997323602, 0.12766490003559738, 0.15989280003122985, 0.12758760002907366, 0.12686640000902116, 0.15273620001971722, 0.13877309998497367, 0.14226150000467896, 0.06228029995691031, 0.12137659988366067, 0.05521299992688, 0.1088115000165999, 0.04975709994323552, 0.143362500006333, 0.507213499979116, 0.10556589998304844, 0.07949570007622242, 0.05879479995928705, 0.06439740001223981, 0.12386439996771514, 0.5241672999691218]","[0.13615379994735122, 0.013372199959121644, 0.00021029997151345015, 0.012984200031496584, 0.00018850003834813833, 0.013117299997247756, 0.00018830003682523966, 0.014304200070910156, 0.03598939999938011, 0.021457000053487718, 0.024447700008749962, 0.14227040007244796, 0.00019269995391368866, 0.12138469994533807, 0.055219999980181456, 0.10881710005924106, 0.00018949992954730988, 0.14336869993712753, 0.00019340007565915585, 0.105572700034827, 0.07950450002681464, 0.058801100007258356, 0.00019609997980296612, 0.1238708000164479, 0.5241727000102401]",0,,,,,,,,,,,,,,,,,,,,,,,,,,,,,,,,,,,,,,,,test1,train_y,red_square,bottom_left,2024-11-06_12h19.21.406,HideSeek_v1,2022.2.5,60.24121789807927,
,,,,,,,,,,,,6,0,6,0,,,,,,,,,,,,,,,,,,,,,,,,,,,,,,,,,,,,,,,,,17,0.7,0,0,99,1,30,0,conditions/schedules/train_y_first/red_square_00/bottom_left/inputTrain_1.1.xlsx,99,1,1,1,0,,,,,,,,,,,,,,,,,,,,,,,,test1,train_y,red_square,bottom_left,2024-11-06_12h19.21.406,HideSeek_v1,2022.2.5,60.24121789807927,
,,,,,,,,,,,,7,0,7,0,0,0,0,0,,,,,,,,,,,,,,,,,,,,,,,,,,,conditions/schedules/train_y_first/red_square_00/bottom_left/instructions/Slide26.png,conditions/schedules/train_y_first/red_square_00/bottom_left/instructions/Audio26.wav,47.96489249996375,47.96175354002044,26,"[9.238934599910863, 0.4520835999865085, 0.1785154000390321, 0.16569619998335838, 0.16026739997323602, 0.12766490003559738, 0.15989280003122985, 0.12758760002907366, 0.12686640000902116, 0.15273620001971722, 0.13877309998497367, 0.14226150000467896, 0.06228029995691031, 0.12137659988366067, 0.05521299992688, 0.1088115000165999, 0.04975709994323552, 0.143362500006333, 0.507213499979116, 0.10556589998304844, 0.07949570007622242, 0.05879479995928705, 0.06439740001223981, 0.12386439996771514, 0.5241672999691218, 0.07772570010274649]","[0.13615379994735122, 0.013372199959121644, 0.00021029997151345015, 0.012984200031496584, 0.00018850003834813833, 0.013117299997247756, 0.00018830003682523966, 0.014304200070910156, 0.03598939999938011, 0.021457000053487718, 0.024447700008749962, 0.14227040007244796, 0.00019269995391368866, 0.12138469994533807, 0.055219999980181456, 0.10881710005924106, 0.00018949992954730988, 0.14336869993712753, 0.00019340007565915585, 0.105572700034827, 0.07950450002681464, 0.058801100007258356, 0.00019609997980296612, 0.1238708000164479, 0.5241727000102401, 0.07773310004267842]",0,,,,,,,,,,,,,,,,,,,,,,,,,,,,,,,,,,,,,,,,test1,train_y,red_square,bottom_left,2024-11-06_12h19.21.406,HideSeek_v1,2022.2.5,60.24121789807927,
,,,,,,,,,,,,7,0,7,0,,,,,,,,,,,,,,,,,,,,,,,,,,,,,,,,,,,,,,,,,17,0.7,0,0,99,1,30,0,conditions/schedules/train_y_first/red_square_00/bottom_left/inputTrain_1.1.xlsx,99,1,1,1,0,,,,,,,,,,,,,,,,,,,,,,,,test1,train_y,red_square,bottom_left,2024-11-06_12h19.21.406,HideSeek_v1,2022.2.5,60.24121789807927,
,,,,,,,,,,,,8,0,8,0,0,0,0,0,,,,,,,,,,,,,,,,,,,,,,,,,,,conditions/schedules/train_y_first/red_square_00/bottom_left/instructions/Slide27.png,conditions/schedules/train_y_first/red_square_00/bottom_left/instructions/Audio27.wav,48.161990299937315,48.14509334000759,27,"[9.238934599910863, 0.4520835999865085, 0.1785154000390321, 0.16569619998335838, 0.16026739997323602, 0.12766490003559738, 0.15989280003122985, 0.12758760002907366, 0.12686640000902116, 0.15273620001971722, 0.13877309998497367, 0.14226150000467896, 0.06228029995691031, 0.12137659988366067, 0.05521299992688, 0.1088115000165999, 0.04975709994323552, 0.143362500006333, 0.507213499979116, 0.10556589998304844, 0.07949570007622242, 0.05879479995928705, 0.06439740001223981, 0.12386439996771514, 0.5241672999691218, 0.07772570010274649, 0.0875061999540776]","[0.13615379994735122, 0.013372199959121644, 0.00021029997151345015, 0.012984200031496584, 0.00018850003834813833, 0.013117299997247756, 0.00018830003682523966, 0.014304200070910156, 0.03598939999938011, 0.021457000053487718, 0.024447700008749962, 0.14227040007244796, 0.00019269995391368866, 0.12138469994533807, 0.055219999980181456, 0.10881710005924106, 0.00018949992954730988, 0.14336869993712753, 0.00019340007565915585, 0.105572700034827, 0.07950450002681464, 0.058801100007258356, 0.00019609997980296612, 0.1238708000164479, 0.5241727000102401, 0.07773310004267842, 0.08751380001194775]",0,,,,,,,,,,,,,,,,,,,,,,,,,,,,,,,,,,,,,,,,test1,train_y,red_square,bottom_left,2024-11-06_12h19.21.406,HideSeek_v1,2022.2.5,60.24121789807927,
,,,,,,,,,,,,8,0,8,0,,,,,,,,,,,,,,,,,,,,,,,,,,,,,,,,,,,,,,,,,17,0.7,0,0,99,1,30,0,conditions/schedules/train_y_first/red_square_00/bottom_left/inputTrain_1.1.xlsx,99,1,1,1,0,,,,,,,,,,,,,,,,,,,,,,,,test1,train_y,red_square,bottom_left,2024-11-06_12h19.21.406,HideSeek_v1,2022.2.5,60.24121789807927,
,,,,,,,,,,,,9,0,9,0,0,0,0,0,,,,,,,,,,,,,,,,,,,,,,,,,,,conditions/schedules/train_y_first/red_square_00/bottom_left/instructions/Slide28.png,conditions/schedules/train_y_first/red_square_00/bottom_left/instructions/Audio28.wav,48.34602179995272,48.34470374002122,28,"[9.238934599910863, 0.4520835999865085, 0.1785154000390321, 0.16569619998335838, 0.16026739997323602, 0.12766490003559738, 0.15989280003122985, 0.12758760002907366, 0.12686640000902116, 0.15273620001971722, 0.13877309998497367, 0.14226150000467896, 0.06228029995691031, 0.12137659988366067, 0.05521299992688, 0.1088115000165999, 0.04975709994323552, 0.143362500006333, 0.507213499979116, 0.10556589998304844, 0.07949570007622242, 0.05879479995928705, 0.06439740001223981, 0.12386439996771514, 0.5241672999691218, 0.07772570010274649, 0.0875061999540776, 0.08109089999925345]","[0.13615379994735122, 0.013372199959121644, 0.00021029997151345015, 0.012984200031496584, 0.00018850003834813833, 0.013117299997247756, 0.00018830003682523966, 0.014304200070910156, 0.03598939999938011, 0.021457000053487718, 0.024447700008749962, 0.14227040007244796, 0.00019269995391368866, 0.12138469994533807, 0.055219999980181456, 0.10881710005924106, 0.00018949992954730988, 0.14336869993712753, 0.00019340007565915585, 0.105572700034827, 0.07950450002681464, 0.058801100007258356, 0.00019609997980296612, 0.1238708000164479, 0.5241727000102401, 0.07773310004267842, 0.08751380001194775, 0.08109920006245375]",0,,,,,,,,,,,,,,,,,,,,,,,,,,,,,,,,,,,,,,,,test1,train_y,red_square,bottom_left,2024-11-06_12h19.21.406,HideSeek_v1,2022.2.5,60.24121789807927,
,,,,,,,,,,,,9,0,9,0,1,0,1,0,,,,,,,,,,,,,,,,,,,,,,,,,,,conditions/schedules/train_y_first/red_square_00/bottom_left/instructions/Slide29.png,conditions/schedules/train_y_first/red_square_00/bottom_left/instructions/Audio29.wav,48.478585400036536,48.46147835995071,29,"[9.238934599910863, 0.4520835999865085, 0.1785154000390321, 0.16569619998335838, 0.16026739997323602, 0.12766490003559738, 0.15989280003122985, 0.12758760002907366, 0.12686640000902116, 0.15273620001971722, 0.13877309998497367, 0.14226150000467896, 0.06228029995691031, 0.12137659988366067, 0.05521299992688, 0.1088115000165999, 0.04975709994323552, 0.143362500006333, 0.507213499979116, 0.10556589998304844, 0.07949570007622242, 0.05879479995928705, 0.06439740001223981, 0.12386439996771514, 0.5241672999691218, 0.07772570010274649, 0.0875061999540776, 0.08109089999925345, 0.12065339996479452]","[0.13615379994735122, 0.013372199959121644, 0.00021029997151345015, 0.012984200031496584, 0.00018850003834813833, 0.013117299997247756, 0.00018830003682523966, 0.014304200070910156, 0.03598939999938011, 0.021457000053487718, 0.024447700008749962, 0.14227040007244796, 0.00019269995391368866, 0.12138469994533807, 0.055219999980181456, 0.10881710005924106, 0.00018949992954730988, 0.14336869993712753, 0.00019340007565915585, 0.105572700034827, 0.07950450002681464, 0.058801100007258356, 0.00019609997980296612, 0.1238708000164479, 0.5241727000102401, 0.07773310004267842, 0.08751380001194775, 0.08109920006245375, 0.12066030001733452]",0,,,,,,,,,,,,,,,,,,,,,,,,,,,,,,,,,,,,,,,,test1,train_y,red_square,bottom_left,2024-11-06_12h19.21.406,HideSeek_v1,2022.2.5,60.24121789807927,
,,,,,,,,,,,,9,0,9,0,2,0,2,0,,,,,,,,,,,,,,,,,,,,,,,,,,,conditions/schedules/train_y_first/red_square_00/bottom_left/instructions/Slide30.png,conditions/schedules/train_y_first/red_square_00/bottom_left/instructions/Audio30.wav,48.62879809993319,48.611960439989346,30,"[9.238934599910863, 0.4520835999865085, 0.1785154000390321, 0.16569619998335838, 0.16026739997323602, 0.12766490003559738, 0.15989280003122985, 0.12758760002907366, 0.12686640000902116, 0.15273620001971722, 0.13877309998497367, 0.14226150000467896, 0.06228029995691031, 0.12137659988366067, 0.05521299992688, 0.1088115000165999, 0.04975709994323552, 0.143362500006333, 0.507213499979116, 0.10556589998304844, 0.07949570007622242, 0.05879479995928705, 0.06439740001223981, 0.12386439996771514, 0.5241672999691218, 0.07772570010274649, 0.0875061999540776, 0.08109089999925345, 0.12065339996479452, 0.5058152000419796]","[0.13615379994735122, 0.013372199959121644, 0.00021029997151345015, 0.012984200031496584, 0.00018850003834813833, 0.013117299997247756, 0.00018830003682523966, 0.014304200070910156, 0.03598939999938011, 0.021457000053487718, 0.024447700008749962, 0.14227040007244796, 0.00019269995391368866, 0.12138469994533807, 0.055219999980181456, 0.10881710005924106, 0.00018949992954730988, 0.14336869993712753, 0.00019340007565915585, 0.105572700034827, 0.07950450002681464, 0.058801100007258356, 0.00019609997980296612, 0.1238708000164479, 0.5241727000102401, 0.07773310004267842, 0.08751380001194775, 0.08109920006245375, 0.12066030001733452, 0.5058227999834344]",0,,,,,,,,,,,,,,,,,,,,,,,,,,,,,,,,,,,,,,,,test1,train_y,red_square,bottom_left,2024-11-06_12h19.21.406,HideSeek_v1,2022.2.5,60.24121789807927,
,,,,,,,,,,,,9,0,9,0,3,0,3,0,,,,,,,,,,,,,,,,,,,,,,,,,,,conditions/schedules/train_y_first/red_square_00/bottom_left/instructions/Slide31.png,conditions/schedules/train_y_first/red_square_00/bottom_left/instructions/Audio31.wav,49.178736399975605,49.16173836002127,31,"[9.238934599910863, 0.4520835999865085, 0.1785154000390321, 0.16569619998335838, 0.16026739997323602, 0.12766490003559738, 0.15989280003122985, 0.12758760002907366, 0.12686640000902116, 0.15273620001971722, 0.13877309998497367, 0.14226150000467896, 0.06228029995691031, 0.12137659988366067, 0.05521299992688, 0.1088115000165999, 0.04975709994323552, 0.143362500006333, 0.507213499979116, 0.10556589998304844, 0.07949570007622242, 0.05879479995928705, 0.06439740001223981, 0.12386439996771514, 0.5241672999691218, 0.07772570010274649, 0.0875061999540776, 0.08109089999925345, 0.12065339996479452, 0.5058152000419796, 0.12244450009893626]","[0.13615379994735122, 0.013372199959121644, 0.00021029997151345015, 0.012984200031496584, 0.00018850003834813833, 0.013117299997247756, 0.00018830003682523966, 0.014304200070910156, 0.03598939999938011, 0.021457000053487718, 0.024447700008749962, 0.14227040007244796, 0.00019269995391368866, 0.12138469994533807, 0.055219999980181456, 0.10881710005924106, 0.00018949992954730988, 0.14336869993712753, 0.00019340007565915585, 0.105572700034827, 0.07950450002681464, 0.058801100007258356, 0.00019609997980296612, 0.1238708000164479, 0.5241727000102401, 0.07773310004267842, 0.08751380001194775, 0.08109920006245375, 0.12066030001733452, 0.5058227999834344, 0.12245170003734529]",0,,,,,,,,,,,,,,,,,,,,,,,,,,,,,,,,,,,,,,,,test1,train_y,red_square,bottom_left,2024-11-06_12h19.21.406,HideSeek_v1,2022.2.5,60.24121789807927,
,,,,,,,,,,,,9,0,9,0,,,,,,,,,,,,,,,,,,,,,,,,,,,,,,,,,,,,,,,,,17,0.7,0,0,99,1,30,0,conditions/schedules/train_y_first/red_square_00/bottom_left/inputTrain_1.1.xlsx,99,1,1,1,0,,,,,,,,,,,,,,,,,,,,,,,,test1,train_y,red_square,bottom_left,2024-11-06_12h19.21.406,HideSeek_v1,2022.2.5,60.24121789807927,
1,2,4,2,6,0,2,14,72,test_exp,train_1D_first_new,0,,,,,,,,,,,,,,,,,,,,,0,0,0,0,0,0,0,0,,,,,,,,,,,,,,,,,,,,,,,,,,,,,,,stimuli/alien_stimuli/14.png,49.428444399964064,49.428444399964064,49.428444399964064,49.428444399964064,49.428444399964064,0,0,return,1.0632129999576136,0,0,0,0,-0.08,return,0.9721262999810278,,,,,,,test1,train_y,red_square,bottom_left,2024-11-06_12h19.21.406,HideSeek_v1,2022.2.5,60.24121789807927,
1,2,4,2,6,0,2,14,72,test_exp,train_1D_first_new,0,,,,,,,,,,,,,,,,,,,,,0,0,0,0,,,,,,,,,,,,,,,,,,,,,,,,,,,,,,,,,,,,,,,,,,,,,,,,,,,,50.445284600020386,51.54541409993544,stimuli/alien_stimuli/14.png,14,2,1,test1,train_y,red_square,bottom_left,2024-11-06_12h19.21.406,HideSeek_v1,2022.2.5,60.24121789807927,
2,4,1,7,5,3,4,42,72,test_exp,untrained,0,,,,,,,,,,,,,,,,,,,,,0,1,1,1,0,0,0,0,,,,,,,,,,,,,,,,,,,,,,,,,,,,,,,stimuli/alien_stimuli/42.png,51.54541409993544,51.54541409993544,51.54541409993544,51.54541409993544,51.54541409993544,0,0,return,0.4783297999529168,0,0,0,0.16,-0.32,return,0.35921619995497167,,,,,,,test1,train_y,red_square,bottom_left,2024-11-06_12h19.21.406,HideSeek_v1,2022.2.5,60.24121789807927,
2,4,1,7,5,3,4,42,72,test_exp,untrained,0,,,,,,,,,,,,,,,,,,,,,0,1,1,1,,,,,,,,,,,,,,,,,,,,,,,,,,,,,,,,,,,,,,,,,,,,,,,,,,,,51.945151099935174,53.013419799972326,stimuli/alien_stimuli/14.png,14,2,2,test1,train_y,red_square,bottom_left,2024-11-06_12h19.21.406,HideSeek_v1,2022.2.5,60.24121789807927,
3,1,1,4,2,3,1,45,72,test_exp,untrained,0,,,,,,,,,,,,,,,,,,,,,0,2,2,2,0,0,0,0,,,,,,,,,,,,,,,,,,,,,,,,,,,,,,,stimuli/alien_stimuli/45.png,53.013419799972326,53.013419799972326,53.013419799972326,53.013419799972326,53.013419799972326,0,0,return,0.3120440000202507,0,0,0,-0.08,-0.32,return,0.22015029995236546,,,,,,,test1,train_y,red_square,bottom_left,2024-11-06_12h19.21.406,HideSeek_v1,2022.2.5,60.24121789807927,
3,1,1,4,2,3,1,45,72,test_exp,untrained,0,,,,,,,,,,,,,,,,,,,,,0,2,2,2,,,,,,,,,,,,,,,,,,,,,,,,,,,,,,,,,,,,,,,,,,,,,,,,,,,,53.2787282000063,54.37889759999234,stimuli/alien_stimuli/14.png,14,2,3,test1,train_y,red_square,bottom_left,2024-11-06_12h19.21.406,HideSeek_v1,2022.2.5,60.24121789807927,
4,0,0,0,1,0,1,15,72,test_exp,train_1D_first_repeat,0,,,,,,,,,,,,,,,,,,,,,0,3,3,3,0,0,0,0,,,,,,,,,,,,,,,,,,,,,,,,,,,,,,,stimuli/alien_stimuli/15.png,54.37889759999234,54.37889759999234,54.37889759999234,54.37889759999234,54.37889759999234,0,0,return,0.3954395999899134,0,0,0,-0.16,-0.4,return,0.2708335000788793,,,,,,,test1,train_y,red_square,bottom_left,2024-11-06_12h19.21.406,HideSeek_v1,2022.2.5,60.24121789807927,
4,0,0,0,1,0,1,15,72,test_exp,train_1D_first_repeat,0,,,,,,,,,,,,,,,,,,,,,0,3,3,3,,,,,,,,,,,,,,,,,,,,,,,,,,,,,,,,,,,,,,,,,,,,,,,,,,,,54.69543329998851,55.79559979995247,stimuli/alien_stimuli/14.png,14,2,4,test1,train_y,red_square,bottom_left,2024-11-06_12h19.21.406,HideSeek_v1,2022.2.5,60.24121789807927,
5,4,4,9,9,5,5,61,72,test_exp,untrained,0,,,,,,,,,,,,,,,,,,,,,0,4,4,4,0,0,0,0,,,,,,,,,,,,,,,,,,,,,,,,,,,,,,,stimuli/alien_stimuli/61.png,55.79559979995247,55.79559979995247,55.79559979995247,55.79559979995247,55.79559979995247,0,0,return,0.39573790004942566,0,0,0,0.16,-0.08,return,0.2724121999926865,,,,,,,test1,train_y,red_square,bottom_left,2024-11-06_12h19.21.406,HideSeek_v1,2022.2.5,60.24121789807927,
5,4,4,9,9,5,5,61,72,test_exp,untrained,0,,,,,,,,,,,,,,,,,,,,,0,4,4,4,,,,,,,,,,,,,,,,,,,,,,,,,,,,,,,,,,,,,,,,,,,,,,,,,,,,56.1122858999297,57.179468599963,stimuli/alien_stimuli/14.png,14,2,5,test1,train_y,red_square,bottom_left,2024-11-06_12h19.21.406,HideSeek_v1,2022.2.5,60.24121789807927,
6,0,2,5,5,5,3,63,72,test_exp,untrained,0,,,,,,,,,,,,,,,,,,,,,0,5,5,5,0,0,0,0,,,,,,,,,,,,,,,,,,,,,,,,,,,,,,,stimuli/alien_stimuli/63.png,57.179468599963,57.179468599963,57.179468599963,57.179468599963,57.179468599963,0,0,return,0.3463542000390589,0,0,0,-0.16,-0.24,return,0.25557819998357445,,,,,,,test1,train_y,red_square,bottom_left,2024-11-06_12h19.21.406,HideSeek_v1,2022.2.5,60.24121789807927,
6,0,2,5,5,5,3,63,72,test_exp,untrained,0,,,,,,,,,,,,,,,,,,,,,0,5,5,5,,,,,,,,,,,,,,,,,,,,,,,,,,,,,,,,,,,,,,,,,,,,,,,,,,,,57.478844100027345,58.61124130000826,stimuli/alien_stimuli/14.png,14,2,6,test1,train_y,red_square,bottom_left,2024-11-06_12h19.21.406,HideSeek_v1,2022.2.5,60.24121789807927,
7,4,0,6,5,2,5,31,72,test_exp,untrained,0,,,,,,,,,,,,,,,,,,,,,0,6,6,6,0,0,0,0,,,,,,,,,,,,,,,,,,,,,,,,,,,,,,,stimuli/alien_stimuli/31.png,58.61124130000826,58.61124130000826,58.61124130000826,58.61124130000826,58.61124130000826,0,0,return,0.3790856000268832,0,0,0,0.16,-0.4,return,0.22345260006841272,,,,,,,test1,train_y,red_square,bottom_left,2024-11-06_12h19.21.406,HideSeek_v1,2022.2.5,60.24121789807927,
7,4,0,6,5,2,5,31,72,test_exp,untrained,0,,,,,,,,,,,,,,,,,,,,,0,6,6,6,,,,,,,,,,,,,,,,,,,,,,,,,,,,,,,,,,,,,,,,,,,,,,,,,,,,58.87872629996855,59.96178030001465,stimuli/alien_stimuli/14.png,14,2,7,test1,train_y,red_square,bottom_left,2024-11-06_12h19.21.406,HideSeek_v1,2022.2.5,60.24121789807927,
8,2,1,5,4,3,3,43,72,test_exp,train_2D_repeat,0,,,,,,,,,,,,,,,,,,,,,0,7,7,7,0,0,0,0,,,,,,,,,,,,,,,,,,,,,,,,,,,,,,,stimuli/alien_stimuli/43.png,59.96178030001465,59.96178030001465,59.96178030001465,59.96178030001465,59.96178030001465,0,0,return,0.2969765999587253,0,0,0,0,-0.32,return,0.196146700065583,,,,,,,test1,train_y,red_square,bottom_left,2024-11-06_12h19.21.406,HideSeek_v1,2022.2.5,60.24121789807927,
8,2,1,5,4,3,3,43,72,test_exp,train_2D_repeat,0,,,,,,,,,,,,,,,,,,,,,0,7,7,7,,,,,,,,,,,,,,,,,,,,,,,,,,,,,,,,,,,,,,,,,,,,,,,,,,,,60.19524549995549,61.295491299941204,stimuli/alien_stimuli/14.png,14,2,8,test1,train_y,red_square,bottom_left,2024-11-06_12h19.21.406,HideSeek_v1,2022.2.5,60.24121789807927,
9,4,3,8,8,4,5,51,72,test_exp,untrained,0,,,,,,,,,,,,,,,,,,,,,0,8,8,8,0,0,0,0,,,,,,,,,,,,,,,,,,,,,,,,,,,,,,,stimuli/alien_stimuli/51.png,61.295491299941204,61.295491299941204,61.295491299941204,61.295491299941204,61.295491299941204,0,0,return,0.3461423000553623,0,0,0,0.16,-0.16,return,0.22609280003234744,,,,,,,test1,train_y,red_square,bottom_left,2024-11-06_12h19.21.406,HideSeek_v1,2022.2.5,60.24121789807927,
9,4,3,8,8,4,5,51,72,test_exp,untrained,0,,,,,,,,,,,,,,,,,,,,,0,8,8,8,,,,,,,,,,,,,,,,,,,,,,,,,,,,,,,,,,,,,,,,,,,,,,,,,,,,61.561769300024025,62.6617447999306,stimuli/alien_stimuli/14.png,14,2,9,test1,train_y,red_square,bottom_left,2024-11-06_12h19.21.406,HideSeek_v1,2022.2.5,60.24121789807927,
10,1,0,2,5,1,5,21,72,test_exp,train_2D_repeat,0,,,,,,,,,,,,,,,,,,,,,0,9,9,9,0,0,0,0,,,,,,,,,,,,,,,,,,,,,,,,,,,,,,,stimuli/alien_stimuli/21.png,62.6617447999306,62.6617447999306,62.6617447999306,62.6617447999306,62.6617447999306,0,0,return,0.32850950001738966,0,0,0,-0.08,-0.4,return,0.21130770002491772,,,,,,,test1,train_y,red_square,bottom_left,2024-11-06_12h19.21.406,HideSeek_v1,2022.2.5,60.24121789807927,
10,1,0,2,5,1,5,21,72,test_exp,train_2D_repeat,0,,,,,,,,,,,,,,,,,,,,,0,9,9,9,,,,,,,,,,,,,,,,,,,,,,,,,,,,,,,,,,,,,,,,,,,,,,,,,,,,62.91166109999176,64.01208010001574,stimuli/alien_stimuli/14.png,14,2,10,test1,train_y,red_square,bottom_left,2024-11-06_12h19.21.406,HideSeek_v1,2022.2.5,60.24121789807927,
11,3,0,7,2,4,2,54,72,test_exp,train_2D_repeat,0,,,,,,,,,,,,,,,,,,,,,0,10,10,10,0,0,0,0,,,,,,,,,,,,,,,,,,,,,,,,,,,,,,,stimuli/alien_stimuli/54.png,64.01208010001574,64.01208010001574,64.01208010001574,64.01208010001574,64.01208010001574,0,0,return,0.3642580999294296,0,0,0,0.08,-0.4,return,0.24057529994752258,,,,,,,test1,train_y,red_square,bottom_left,2024-11-06_12h19.21.406,HideSeek_v1,2022.2.5,60.24121789807927,
11,3,0,7,2,4,2,54,72,test_exp,train_2D_repeat,0,,,,,,,,,,,,,,,,,,,,,0,10,10,10,,,,,,,,,,,,,,,,,,,,,,,,,,,,,,,,,,,,,,,,,,,,,,,,,,,,64.29506919998676,65.39515679993201,stimuli/alien_stimuli/14.png,14,2,11,test1,train_y,red_square,bottom_left,2024-11-06_12h19.21.406,HideSeek_v1,2022.2.5,60.24121789807927,
12,2,3,3,3,1,0,26,72,test_exp,train_1D_sec_new,0,,,,,,,,,,,,,,,,,,,,,0,11,11,11,0,0,0,0,,,,,,,,,,,,,,,,,,,,,,,,,,,,,,,stimuli/alien_stimuli/26.png,65.39515679993201,65.39515679993201,65.39515679993201,65.39515679993201,65.39515679993201,0,0,return,0.34545410005375743,0,0,0,0,-0.16,return,0.22367750003468245,,,,,,,test1,train_y,red_square,bottom_left,2024-11-06_12h19.21.406,HideSeek_v1,2022.2.5,60.24121789807927,
12,2,3,3,3,1,0,26,72,test_exp,train_1D_sec_new,0,,,,,,,,,,,,,,,,,,,,,0,11,11,11,,,,,,,,,,,,,,,,,,,,,,,,,,,,,,,,,,,,,,,,,,,,,,,,,,,,65.66172159998678,66.81221519992687,stimuli/alien_stimuli/14.png,14,2,12,test1,train_y,red_square,bottom_left,2024-11-06_12h19.21.406,HideSeek_v1,2022.2.5,60.24121789807927,
13,1,2,1,6,0,4,12,72,test_exp,train_1D_first_new,0,,,,,,,,,,,,,,,,,,,,,0,12,12,12,0,0,0,0,,,,,,,,,,,,,,,,,,,,,,,,,,,,,,,stimuli/alien_stimuli/12.png,66.81221519992687,66.81221519992687,66.81221519992687,66.81221519992687,66.81221519992687,0,0,return,0.39753529999870807,0,0,0,-0.08,-0.24,return,0.22195329994428903,,,,,,,test1,train_y,red_square,bottom_left,2024-11-06_12h19.21.406,HideSeek_v1,2022.2.5,60.24121789807927,
13,1,2,1,6,0,4,12,72,test_exp,train_1D_first_new,0,,,,,,,,,,,,,,,,,,,,,0,12,12,12,,,,,,,,,,,,,,,,,,,,,,,,,,,,,,,,,,,,,,,,,,,,,,,,,,,,67.07860010000877,68.17893840000033,stimuli/alien_stimuli/14.png,14,2,13,test1,train_y,red_square,bottom_left,2024-11-06_12h19.21.406,HideSeek_v1,2022.2.5,60.24121789807927,
14,2,3,5,3,3,0,46,72,test_exp,untrained_1D_sec_leftout,0,,,,,,,,,,,,,,,,,,,,,0,13,13,13,0,0,0,0,,,,,,,,,,,,,,,,,,,,,,,,,,,,,,,stimuli/alien_stimuli/46.png,68.17893840000033,68.17893840000033,68.17893840000033,68.17893840000033,68.17893840000033,0,0,return,0.34561929991468787,0,0,0,0,-0.16,return,0.22986929991748184,,,,,,,test1,train_y,red_square,bottom_left,2024-11-06_12h19.21.406,HideSeek_v1,2022.2.5,60.24121789807927,
14,2,3,5,3,3,0,46,72,test_exp,untrained_1D_sec_leftout,0,,,,,,,,,,,,,,,,,,,,,0,13,13,13,,,,,,,,,,,,,,,,,,,,,,,,,,,,,,,,,,,,,,,,,,,,,,,,,,,,68.44507789995987,69.54517840000335,stimuli/alien_stimuli/14.png,14,2,14,test1,train_y,red_square,bottom_left,2024-11-06_12h19.21.406,HideSeek_v1,2022.2.5,60.24121789807927,
15,2,4,2,4,0,0,16,72,test_exp,train_1D_sec_repeat,0,,,,,,,,,,,,,,,,,,,,,0,14,14,14,0,0,0,0,,,,,,,,,,,,,,,,,,,,,,,,,,,,,,,stimuli/alien_stimuli/16.png,69.54517840000335,69.54517840000335,69.54517840000335,69.54517840000335,69.54517840000335,0,0,return,0.29644089995417744,1,0,1,0,-0.08,return,0.18257860001176596,,,,,,,test1,train_y,red_square,bottom_left,2024-11-06_12h19.21.406,HideSeek_v1,2022.2.5,60.24121789807927,
15,2,4,2,4,0,0,16,72,test_exp,train_1D_sec_repeat,0,,,,,,,,,,,,,,,,,,,,,0,14,14,14,,,,,,,,,,,,,,,,,,,,,,,,,,,,,,,,,,,,,,,,,,,,,,,,,,,,69.76160510000773,70.86202779994346,stimuli/alien_stimuli/14.png,14,2,15,test1,train_y,red_square,bottom_left,2024-11-06_12h19.21.406,HideSeek_v1,2022.2.5,60.24121789807927,
16,1,4,3,5,2,1,35,72,test_exp,untrained,0,,,,,,,,,,,,,,,,,,,,,0,15,15,15,0,0,0,0,,,,,,,,,,,,,,,,,,,,,,,,,,,,,,,stimuli/alien_stimuli/35.png,70.86202779994346,70.86202779994346,70.86202779994346,70.86202779994346,70.86202779994346,0,0,return,0.3126248000189662,1,0,0,-0.08,-0.08,return,0.19088570005260408,,,,,,,test1,train_y,red_square,bottom_left,2024-11-06_12h19.21.406,HideSeek_v1,2022.2.5,60.24121789807927,
16,1,4,3,5,2,1,35,72,test_exp,untrained,0,,,,,,,,,,,,,,,,,,,,,0,15,15,15,,,,,,,,,,,,,,,,,,,,,,,,,,,,,,,,,,,,,,,,,,,,,,,,,,,,71.09531469992362,72.19535099994391,stimuli/alien_stimuli/14.png,14,2,16,test1,train_y,red_square,bottom_left,2024-11-06_12h19.21.406,HideSeek_v1,2022.2.5,60.24121789807927,
17,3,2,8,6,5,4,62,72,test_exp,untrained,0,,,,,,,,,,,,,,,,,,,,,0,16,16,16,0,0,0,0,,,,,,,,,,,,,,,,,,,,,,,,,,,,,,,stimuli/alien_stimuli/62.png,72.19535099994391,72.19535099994391,72.19535099994391,72.19535099994391,72.19535099994391,0,0,return,0.3268217999720946,1,0,0,0.08,-0.24,return,0.2108832000521943,,,,,,,test1,train_y,red_square,bottom_left,2024-11-06_12h19.21.406,HideSeek_v1,2022.2.5,60.24121789807927,
17,3,2,8,6,5,4,62,72,test_exp,untrained,0,,,,,,,,,,,,,,,,,,,,,0,16,16,16,,,,,,,,,,,,,,,,,,,,,,,,,,,,,,,,,,,,,,,,,,,,,,,,,,,,72.4448803999694,73.54490760003682,stimuli/alien_stimuli/14.png,14,2,17,test1,train_y,red_square,bottom_left,2024-11-06_12h19.21.406,HideSeek_v1,2022.2.5,60.24121789807927,
18,3,4,7,8,4,4,52,72,test_exp,untrained,1,,,,,,,,,,,,,,,,,,,,,0,17,17,17,0,0,0,0,,,,,,,,,,,,,,,,,,,,,,,,,,,,,,,stimuli/alien_stimuli/52.png,73.54490760003682,73.54490760003682,73.54490760003682,73.54490760003682,73.54490760003682,0,0,return,0.41212660004384816,1,0,0,0.08,-0.08,return,0.2950421000132337,,,,,,,test1,train_y,red_square,bottom_left,2024-11-06_12h19.21.406,HideSeek_v1,2022.2.5,60.24121789807927,
18,3,4,7,8,4,4,52,72,test_exp,untrained,1,,,,,,,,,,,,,,,,,,,,,0,17,17,17,,,,,,,,,,,,,,,,,,,,,,,,,,,,,,,,,,,,,,,,,,,,,,,,,,,,73.87789450003766,74.96128940000199,stimuli/alien_stimuli/14.png,14,2,18,test1,train_y,red_square,bottom_left,2024-11-06_12h19.21.406,HideSeek_v1,2022.2.5,60.24121789807927,
19,2,0,7,2,5,2,64,72,test_exp,untrained,0,,,,,,,,,,,,,,,,,,,,,0,18,18,18,0,0,0,0,,,,,,,,,,,,,,,,,,,,,,,,,,,,,,,stimuli/alien_stimuli/64.png,74.96128940000199,74.96128940000199,74.96128940000199,74.96128940000199,74.96128940000199,0,0,return,1.0630971000064164,1,0,0,0,-0.4,return,0.9654265000717714,,,,,,,test1,train_y,red_square,bottom_left,2024-11-06_12h19.21.406,HideSeek_v1,2022.2.5,60.24121789807927,
19,2,0,7,2,5,2,64,72,test_exp,untrained,0,,,,,,,,,,,,,,,,,,,,,0,18,18,18,,,,,,,,,,,,,,,,,,,,,,,,,,,,,,,,,,,,,,,,,,,,,,,,,,,,75.9618194999639,77.06227729993407,stimuli/alien_stimuli/14.png,14,2,19,test1,train_y,red_square,bottom_left,2024-11-06_12h19.21.406,HideSeek_v1,2022.2.5,60.24121789807927,
20,3,3,3,6,0,3,13,72,test_exp,untrained_1D_first_leftout,0,,,,,,,,,,,,,,,,,,,,,0,19,19,19,0,0,0,0,,,,,,,,,,,,,,,,,,,,,,,,,,,,,,,stimuli/alien_stimuli/13.png,77.06227729993407,77.06227729993407,77.06227729993407,77.06227729993407,77.06227729993407,0,0,return,0.4296368999639526,1,0,0,0.08,-0.16,return,0.30615770001895726,,,,,,,test1,train_y,red_square,bottom_left,2024-11-06_12h19.21.406,HideSeek_v1,2022.2.5,60.24121789807927,
20,3,3,3,6,0,3,13,72,test_exp,untrained_1D_first_leftout,0,,,,,,,,,,,,,,,,,,,,,0,19,19,19,,,,,,,,,,,,,,,,,,,,,,,,,,,,,,,,,,,,,,,,,,,,,,,,,,,,77.41157759993803,78.51173000002746,stimuli/alien_stimuli/14.png,14,2,20,test1,train_y,red_square,bottom_left,2024-11-06_12h19.21.406,HideSeek_v1,2022.2.5,60.24121789807927,
21,3,0,4,1,1,1,25,72,test_exp,untrained,0,,,,,,,,,,,,,,,,,,,,,0,20,20,20,0,0,0,0,,,,,,,,,,,,,,,,,,,,,,,,,,,,,,,stimuli/alien_stimuli/25.png,78.51173000002746,78.51173000002746,78.51173000002746,78.51173000002746,78.51173000002746,0,0,return,0.344915600027889,1,0,0,0.08,-0.4,return,0.22796859999652952,,,,,,,test1,train_y,red_square,bottom_left,2024-11-06_12h19.21.406,HideSeek_v1,2022.2.5,60.24121789807927,
21,3,0,4,1,1,1,25,72,test_exp,untrained,0,,,,,,,,,,,,,,,,,,,,,0,20,20,20,,,,,,,,,,,,,,,,,,,,,,,,,,,,,,,,,,,,,,,,,,,,,,,,,,,,78.77911420003511,79.8785192000214,stimuli/alien_stimuli/14.png,14,2,21,test1,train_y,red_square,bottom_left,2024-11-06_12h19.21.406,HideSeek_v1,2022.2.5,60.24121789807927,
22,1,0,3,4,2,4,32,72,test_exp,train_2D_new,0,,,,,,,,,,,,,,,,,,,,,0,21,21,21,0,0,0,0,,,,,,,,,,,,,,,,,,,,,,,,,,,,,,,stimuli/alien_stimuli/32.png,79.8785192000214,79.8785192000214,79.8785192000214,79.8785192000214,79.8785192000214,0,0,return,0.34544930001720786,1,0,0,-0.08,-0.4,return,0.22929050005041063,,,,,,,test1,train_y,red_square,bottom_left,2024-11-06_12h19.21.406,HideSeek_v1,2022.2.5,60.24121789807927,
22,1,0,3,4,2,4,32,72,test_exp,train_2D_new,0,,,,,,,,,,,,,,,,,,,,,0,21,21,21,,,,,,,,,,,,,,,,,,,,,,,,,,,,,,,,,,,,,,,,,,,,,,,,,,,,80.14493890001904,81.22807790001389,stimuli/alien_stimuli/14.png,14,2,22,test1,train_y,red_square,bottom_left,2024-11-06_12h19.21.406,HideSeek_v1,2022.2.5,60.24121789807927,
23,1,3,5,6,4,3,53,72,test_exp,untrained,0,,,,,,,,,,,,,,,,,,,,,0,22,22,22,0,0,0,0,,,,,,,,,,,,,,,,,,,,,,,,,,,,,,,stimuli/alien_stimuli/53.png,81.22807790001389,81.22807790001389,81.22807790001389,81.22807790001389,81.22807790001389,0,0,return,0.3297672999324277,1,0,0,-0.08,-0.16,return,0.22224749997258186,,,,,,,test1,train_y,red_square,bottom_left,2024-11-06_12h19.21.406,HideSeek_v1,2022.2.5,60.24121789807927,
23,1,3,5,6,4,3,53,72,test_exp,untrained,0,,,,,,,,,,,,,,,,,,,,,0,22,22,22,,,,,,,,,,,,,,,,,,,,,,,,,,,,,,,,,,,,,,,,,,,,,,,,,,,,81.49463279999327,82.57946949999314,stimuli/alien_stimuli/14.png,14,2,23,test1,train_y,red_square,bottom_left,2024-11-06_12h19.21.406,HideSeek_v1,2022.2.5,60.24121789807927,
24,0,0,2,2,2,2,34,72,test_exp,untrained,0,,,,,,,,,,,,,,,,,,,,,0,23,23,23,0,0,0,0,,,,,,,,,,,,,,,,,,,,,,,,,,,,,,,stimuli/alien_stimuli/34.png,82.57946949999314,82.57946949999314,82.57946949999314,82.57946949999314,82.57946949999314,0,0,return,0.3127783000236377,1,0,0,-0.16,-0.4,return,0.2016791000496596,,,,,,,test1,train_y,red_square,bottom_left,2024-11-06_12h19.21.406,HideSeek_v1,2022.2.5,60.24121789807927,
24,0,0,2,2,2,2,34,72,test_exp,untrained,0,,,,,,,,,,,,,,,,,,,,,0,23,23,23,,,,,,,,,,,,,,,,,,,,,,,,,,,,,,,,,,,,,,,,,,,,,,,,,,,,82.8280302999774,83.91224249999505,stimuli/alien_stimuli/14.png,14,2,24,test1,train_y,red_square,bottom_left,2024-11-06_12h19.21.406,HideSeek_v1,2022.2.5,60.24121789807927,
25,0,2,5,2,5,0,66,72,test_exp,train_1D_sec_repeat,0,,,,,,,,,,,,,,,,,,,,,0,24,24,24,0,0,0,0,,,,,,,,,,,,,,,,,,,,,,,,,,,,,,,stimuli/alien_stimuli/66.png,83.91224249999505,83.91224249999505,83.91224249999505,83.91224249999505,83.91224249999505,0,0,return,0.295493199955672,1,0,0,-0.16,-0.24,return,0.19093249994330108,,,,,,,test1,train_y,red_square,bottom_left,2024-11-06_12h19.21.406,HideSeek_v1,2022.2.5,60.24121789807927,
25,0,2,5,2,5,0,66,72,test_exp,train_1D_sec_repeat,0,,,,,,,,,,,,,,,,,,,,,0,24,24,24,,,,,,,,,,,,,,,,,,,,,,,,,,,,,,,,,,,,,,,,,,,,,,,,,,,,84.14464099996258,85.22863959998358,stimuli/alien_stimuli/14.png,14,2,25,test1,train_y,red_square,bottom_left,2024-11-06_12h19.21.406,HideSeek_v1,2022.2.5,60.24121789807927,
26,0,3,0,8,0,5,11,72,test_exp,train_1D_first_new,0,,,,,,,,,,,,,,,,,,,,,0,25,25,25,0,0,0,0,,,,,,,,,,,,,,,,,,,,,,,,,,,,,,,stimuli/alien_stimuli/11.png,85.22863959998358,85.22863959998358,85.22863959998358,85.22863959998358,85.22863959998358,0,0,return,0.3286870999727398,1,0,0,-0.16,-0.16,return,0.21776870009489357,,,,,,,test1,train_y,red_square,bottom_left,2024-11-06_12h19.21.406,HideSeek_v1,2022.2.5,60.24121789807927,
26,0,3,0,8,0,5,11,72,test_exp,train_1D_first_new,0,,,,,,,,,,,,,,,,,,,,,0,25,25,25,,,,,,,,,,,,,,,,,,,,,,,,,,,,,,,,,,,,,,,,,,,,,,,,,,,,85.4943400999764,86.59512229997199,stimuli/alien_stimuli/14.png,14,2,26,test1,train_y,red_square,bottom_left,2024-11-06_12h19.21.406,HideSeek_v1,2022.2.5,60.24121789807927,
27,1,0,2,3,1,3,23,72,test_exp,untrained,0,,,,,,,,,,,,,,,,,,,,,0,26,26,26,0,0,0,0,,,,,,,,,,,,,,,,,,,,,,,,,,,,,,,stimuli/alien_stimuli/23.png,86.59512229997199,86.59512229997199,86.59512229997199,86.59512229997199,86.59512229997199,0,0,return,0.34665610000956804,1,0,0,-0.08,-0.4,return,0.21797340002376586,,,,,,,test1,train_y,red_square,bottom_left,2024-11-06_12h19.21.406,HideSeek_v1,2022.2.5,60.24121789807927,
27,1,0,2,3,1,3,23,72,test_exp,untrained,0,,,,,,,,,,,,,,,,,,,,,0,26,26,26,,,,,,,,,,,,,,,,,,,,,,,,,,,,,,,,,,,,,,,,,,,,,,,,,,,,86.86101330001839,87.96192449994851,stimuli/alien_stimuli/14.png,14,2,27,test1,train_y,red_square,bottom_left,2024-11-06_12h19.21.406,HideSeek_v1,2022.2.5,60.24121789807927,
28,4,2,7,7,3,5,41,72,test_exp,untrained,0,,,,,,,,,,,,,,,,,,,,,0,27,27,27,0,0,0,0,,,,,,,,,,,,,,,,,,,,,,,,,,,,,,,stimuli/alien_stimuli/41.png,87.96192449994851,87.96192449994851,87.96192449994851,87.96192449994851,87.96192449994851,0,0,return,0.3288232999620959,1,0,0,0.16,-0.24,return,0.20440839999355376,,,,,,,test1,train_y,red_square,bottom_left,2024-11-06_12h19.21.406,HideSeek_v1,2022.2.5,60.24121789807927,
28,4,2,7,7,3,5,41,72,test_exp,untrained,0,,,,,,,,,,,,,,,,,,,,,0,27,27,27,,,,,,,,,,,,,,,,,,,,,,,,,,,,,,,,,,,,,,,,,,,,,,,,,,,,88.21144660003483,89.3118026999291,stimuli/alien_stimuli/14.png,14,2,28,test1,train_y,red_square,bottom_left,2024-11-06_12h19.21.406,HideSeek_v1,2022.2.5,60.24121789807927,
29,3,1,4,3,1,2,24,72,test_exp,untrained,0,,,,,,,,,,,,,,,,,,,,,0,28,28,28,0,0,0,0,,,,,,,,,,,,,,,,,,,,,,,,,,,,,,,stimuli/alien_stimuli/24.png,89.3118026999291,89.3118026999291,89.3118026999291,89.3118026999291,89.3118026999291,0,0,return,0.27918970002792776,1,0,0,0.08,-0.32,return,0.1604063999839127,,,,,,,test1,train_y,red_square,bottom_left,2024-11-06_12h19.21.406,HideSeek_v1,2022.2.5,60.24121789807927,
29,3,1,4,3,1,2,24,72,test_exp,untrained,0,,,,,,,,,,,,,,,,,,,,,0,28,28,28,,,,,,,,,,,,,,,,,,,,,,,,,,,,,,,,,,,,,,,,,,,,,,,,,,,,89.51118609996047,90.57904510002118,stimuli/alien_stimuli/14.png,14,2,29,test1,train_y,red_square,bottom_left,2024-11-06_12h19.21.406,HideSeek_v1,2022.2.5,60.24121789807927,
30,4,0,5,4,1,4,22,72,test_exp,untrained,0,,,,,,,,,,,,,,,,,,,,,0,29,29,29,0,0,0,0,,,,,,,,,,,,,,,,,,,,,,,,,,,,,,,stimuli/alien_stimuli/22.png,90.57904510002118,90.57904510002118,90.57904510002118,90.57904510002118,90.57904510002118,0,0,return,0.27947260008659214,1,0,0,0.16,-0.4,return,0.19622049992904067,,,,,,,test1,train_y,red_square,bottom_left,2024-11-06_12h19.21.406,HideSeek_v1,2022.2.5,60.24121789807927,
30,4,0,5,4,1,4,22,72,test_exp,untrained,0,,,,,,,,,,,,,,,,,,,,,0,29,29,29,,,,,,,,,,,,,,,,,,,,,,,,,,,,,,,,,,,,,,,,,,,,,,,,,,,,90.81163749995176,91.89473790000193,stimuli/alien_stimuli/14.png,14,2,30,test1,train_y,red_square,bottom_left,2024-11-06_12h19.21.406,HideSeek_v1,2022.2.5,60.24121789807927,
31,0,2,4,3,4,1,55,72,test_exp,untrained,0,,,,,,,,,,,,,,,,,,,,,0,30,30,30,0,0,0,0,,,,,,,,,,,,,,,,,,,,,,,,,,,,,,,stimuli/alien_stimuli/55.png,91.89473790000193,91.89473790000193,91.89473790000193,91.89473790000193,91.89473790000193,0,0,return,0.2967174999648705,1,0,0,-0.16,-0.24,return,0.19555800000671297,,,,,,,test1,train_y,red_square,bottom_left,2024-11-06_12h19.21.406,HideSeek_v1,2022.2.5,60.24121789807927,
31,0,2,4,3,4,1,55,72,test_exp,untrained,0,,,,,,,,,,,,,,,,,,,,,0,30,30,30,,,,,,,,,,,,,,,,,,,,,,,,,,,,,,,,,,,,,,,,,,,,,,,,,,,,92.12812270002905,93.22814579994883,stimuli/alien_stimuli/14.png,14,2,31,test1,train_y,red_square,bottom_left,2024-11-06_12h19.21.406,HideSeek_v1,2022.2.5,60.24121789807927,
32,4,3,9,4,5,1,65,72,test_exp,train_2D_repeat,0,,,,,,,,,,,,,,,,,,,,,0,31,31,31,0,0,0,0,,,,,,,,,,,,,,,,,,,,,,,,,,,,,,,stimuli/alien_stimuli/65.png,93.22814579994883,93.22814579994883,93.22814579994883,93.22814579994883,93.22814579994883,0,0,return,0.3295105999568477,1,0,0,0.16,-0.16,return,0.2034211999271065,,,,,,,test1,train_y,red_square,bottom_left,2024-11-06_12h19.21.406,HideSeek_v1,2022.2.5,60.24121789807927,
32,4,3,9,4,5,1,65,72,test_exp,train_2D_repeat,0,,,,,,,,,,,,,,,,,,,,,0,31,31,31,,,,,,,,,,,,,,,,,,,,,,,,,,,,,,,,,,,,,,,,,,,,,,,,,,,,93.4778920999961,94.56161690002773,stimuli/alien_stimuli/14.png,14,2,32,test1,train_y,red_square,bottom_left,2024-11-06_12h19.21.406,HideSeek_v1,2022.2.5,60.24121789807927,
33,0,4,3,6,3,2,44,72,test_exp,untrained,0,,,,,,,,,,,,,,,,,,,,,0,32,32,32,0,0,0,0,,,,,,,,,,,,,,,,,,,,,,,,,,,,,,,stimuli/alien_stimuli/44.png,94.56161690002773,94.56161690002773,94.56161690002773,94.56161690002773,94.56161690002773,0,0,return,0.3141154999611899,1,0,0,-0.16,-0.08,return,0.2068289000308141,,,,,,,test1,train_y,red_square,bottom_left,2024-11-06_12h19.21.406,HideSeek_v1,2022.2.5,60.24121789807927,
33,0,4,3,6,3,2,44,72,test_exp,untrained,0,,,,,,,,,,,,,,,,,,,,,0,32,32,32,,,,,,,,,,,,,,,,,,,,,,,,,,,,,,,,,,,,,,,,,,,,,,,,,,,,94.81130589998793,95.9119786999654,stimuli/alien_stimuli/14.png,14,2,33,test1,train_y,red_square,bottom_left,2024-11-06_12h19.21.406,HideSeek_v1,2022.2.5,60.24121789807927,
34,2,0,6,0,4,0,56,72,test_exp,train_1D_sec_repeat,0,,,,,,,,,,,,,,,,,,,,,0,33,33,33,0,0,0,0,,,,,,,,,,,,,,,,,,,,,,,,,,,,,,,stimuli/alien_stimuli/56.png,95.9119786999654,95.9119786999654,95.9119786999654,95.9119786999654,95.9119786999654,0,0,return,0.3300206999992952,1,0,0,0,-0.4,return,0.20828570006415248,,,,,,,test1,train_y,red_square,bottom_left,2024-11-06_12h19.21.406,HideSeek_v1,2022.2.5,60.24121789807927,
34,2,0,6,0,4,0,56,72,test_exp,train_1D_sec_repeat,0,,,,,,,,,,,,,,,,,,,,,0,33,33,33,,,,,,,,,,,,,,,,,,,,,,,,,,,,,,,,,,,,,,,,,,,,,,,,,,,,96.16111829993315,97.34434209996834,stimuli/alien_stimuli/14.png,14,2,34,test1,train_y,red_square,bottom_left,2024-11-06_12h19.21.406,HideSeek_v1,2022.2.5,60.24121789807927,
35,2,3,4,3,2,0,36,72,test_exp,train_1D_sec_new,0,,,,,,,,,,,,,,,,,,,,,0,34,34,34,0,0,0,0,,,,,,,,,,,,,,,,,,,,,,,,,,,,,,,stimuli/alien_stimuli/36.png,97.34434209996834,97.34434209996834,97.34434209996834,97.34434209996834,97.34434209996834,0,0,return,0.2924277000129223,1,0,0,0,-0.16,return,0.17089100007433444,,,,,,,test1,train_y,red_square,bottom_left,2024-11-06_12h19.21.406,HideSeek_v1,2022.2.5,60.24121789807927,
35,2,3,4,3,2,0,36,72,test_exp,train_1D_sec_new,0,,,,,,,,,,,,,,,,,,,,,0,34,34,34,,,,,,,,,,,,,,,,,,,,,,,,,,,,,,,,,,,,,,,,,,,,,,,,,,,,97.56154359993525,98.62788239994552,stimuli/alien_stimuli/14.png,14,2,35,test1,train_y,red_square,bottom_left,2024-11-06_12h19.21.406,HideSeek_v1,2022.2.5,60.24121789807927,
36,3,4,5,7,2,3,33,72,test_exp,untrained,1,,,,,,,,,,,,,,,,,,,,,0,35,35,35,0,0,0,0,,,,,,,,,,,,,,,,,,,,,,,,,,,,,,,stimuli/alien_stimuli/33.png,98.62788239994552,98.62788239994552,98.62788239994552,98.62788239994552,98.62788239994552,0,0,return,0.21399939991533756,1,0,0,0.08,-0.08,return,0.125762699986808,,,,,,,test1,train_y,red_square,bottom_left,2024-11-06_12h19.21.406,HideSeek_v1,2022.2.5,60.24121789807927,
36,3,4,5,7,2,3,33,72,test_exp,untrained,1,,,,,,,,,,,,,,,,,,,,,0,35,35,35,,,,,,,,,,,,,,,,,,,,,,,,,,,,,,,,,,,,,,,,,,,,,,,,,,,,98.79503279994242,99.87895679997746,stimuli/alien_stimuli/14.png,14,2,36,test1,train_y,red_square,bottom_left,2024-11-06_12h19.21.406,HideSeek_v1,2022.2.5,60.24121789807927,
37,2,3,2,5,0,2,14,72,test_exp,train_1D_first_repeat,0,,,,,,,,,,,,,,,,,,,,,0,36,36,36,0,0,0,0,,,,,,,,,,,,,,,,,,,,,,,,,,,,,,,stimuli/alien_stimuli/14.png,99.87895679997746,99.87895679997746,99.87895679997746,99.87895679997746,99.87895679997746,0,0,return,0.3118045999435708,1,0,0,0,-0.16,return,0.21167390001937747,,,,,,,test1,train_y,red_square,bottom_left,2024-11-06_12h19.21.406,HideSeek_v1,2022.2.5,60.24121789807927,
37,2,3,2,5,0,2,14,72,test_exp,train_1D_first_repeat,0,,,,,,,,,,,,,,,,,,,,,0,36,36,36,,,,,,,,,,,,,,,,,,,,,,,,,,,,,,,,,,,,,,,,,,,,,,,,,,,,100.12782309995964,101.21169639995787,stimuli/alien_stimuli/14.png,14,2,37,test1,train_y,red_square,bottom_left,2024-11-06_12h19.21.406,HideSeek_v1,2022.2.5,60.24121789807927,
38,0,1,5,1,5,0,66,72,test_exp,train_1D_sec_new,0,,,,,,,,,,,,,,,,,,,,,0,37,37,37,0,0,0,0,,,,,,,,,,,,,,,,,,,,,,,,,,,,,,,stimuli/alien_stimuli/66.png,101.21169639995787,101.21169639995787,101.21169639995787,101.21169639995787,101.21169639995787,0,0,return,0.2963757000397891,1,0,0,-0.16,-0.32,return,0.19412169989664108,,,,,,,test1,train_y,red_square,bottom_left,2024-11-06_12h19.21.406,HideSeek_v1,2022.2.5,60.24121789807927,
38,0,1,5,1,5,0,66,72,test_exp,train_1D_sec_new,0,,,,,,,,,,,,,,,,,,,,,0,37,37,37,,,,,,,,,,,,,,,,,,,,,,,,,,,,,,,,,,,,,,,,,,,,,,,,,,,,101.44426579994615,102.52845600002911,stimuli/alien_stimuli/14.png,14,2,38,test1,train_y,red_square,bottom_left,2024-11-06_12h19.21.406,HideSeek_v1,2022.2.5,60.24121789807927,
39,1,1,5,4,4,3,53,72,test_exp,untrained,0,,,,,,,,,,,,,,,,,,,,,0,38,38,38,0,0,0,0,,,,,,,,,,,,,,,,,,,,,,,,,,,,,,,stimuli/alien_stimuli/53.png,102.52845600002911,102.52845600002911,102.52845600002911,102.52845600002911,102.52845600002911,0,0,return,0.2794981000479311,1,0,0,-0.08,-0.32,return,0.18023319996427745,,,,,,,test1,train_y,red_square,bottom_left,2024-11-06_12h19.21.406,HideSeek_v1,2022.2.5,60.24121789807927,
39,1,1,5,4,4,3,53,72,test_exp,untrained,0,,,,,,,,,,,,,,,,,,,,,0,38,38,38,,,,,,,,,,,,,,,,,,,,,,,,,,,,,,,,,,,,,,,,,,,,,,,,,,,,102.7448798000114,103.8281989999814,stimuli/alien_stimuli/14.png,14,2,39,test1,train_y,red_square,bottom_left,2024-11-06_12h19.21.406,HideSeek_v1,2022.2.5,60.24121789807927,
40,1,2,3,3,2,1,35,72,test_exp,untrained,0,,,,,,,,,,,,,,,,,,,,,0,39,39,39,0,0,0,0,,,,,,,,,,,,,,,,,,,,,,,,,,,,,,,stimuli/alien_stimuli/35.png,103.8281989999814,103.8281989999814,103.8281989999814,103.8281989999814,103.8281989999814,0,0,return,0.2952660999726504,1,0,0,-0.08,-0.24,return,0.19963570008985698,,,,,,,test1,train_y,red_square,bottom_left,2024-11-06_12h19.21.406,HideSeek_v1,2022.2.5,60.24121789807927,
40,1,2,3,3,2,1,35,72,test_exp,untrained,0,,,,,,,,,,,,,,,,,,,,,0,39,39,39,,,,,,,,,,,,,,,,,,,,,,,,,,,,,,,,,,,,,,,,,,,,,,,,,,,,104.06138510000892,105.1445640999591,stimuli/alien_stimuli/14.png,14,2,40,test1,train_y,red_square,bottom_left,2024-11-06_12h19.21.406,HideSeek_v1,2022.2.5,60.24121789807927,
41,3,0,6,0,3,0,46,72,test_exp,untrained_1D_sec_leftout,0,,,,,,,,,,,,,,,,,,,,,0,40,40,40,0,0,0,0,,,,,,,,,,,,,,,,,,,,,,,,,,,,,,,stimuli/alien_stimuli/46.png,105.1445640999591,105.1445640999591,105.1445640999591,105.1445640999591,105.1445640999591,0,0,return,0.22931419999804348,1,0,0,0.08,-0.4,return,0.1191617000149563,,,,,,,test1,train_y,red_square,bottom_left,2024-11-06_12h19.21.406,HideSeek_v1,2022.2.5,60.24121789807927,
41,3,0,6,0,3,0,46,72,test_exp,untrained_1D_sec_leftout,0,,,,,,,,,,,,,,,,,,,,,0,40,40,40,,,,,,,,,,,,,,,,,,,,,,,,,,,,,,,,,,,,,,,,,,,,,,,,,,,,105.31158480001613,106.39485269994475,stimuli/alien_stimuli/14.png,14,2,41,test1,train_y,red_square,bottom_left,2024-11-06_12h19.21.406,HideSeek_v1,2022.2.5,60.24121789807927,
42,2,2,3,6,1,4,22,72,test_exp,untrained,0,,,,,,,,,,,,,,,,,,,,,0,41,41,41,0,0,0,0,,,,,,,,,,,,,,,,,,,,,,,,,,,,,,,stimuli/alien_stimuli/22.png,106.39485269994475,106.39485269994475,106.39485269994475,106.39485269994475,106.39485269994475,0,0,return,0.6457321000052616,1,0,0,0,-0.24,return,0.5361256999894977,,,,,,,test1,train_y,red_square,bottom_left,2024-11-06_12h19.21.406,HideSeek_v1,2022.2.5,60.24121789807927,
42,2,2,3,6,1,4,22,72,test_exp,untrained,0,,,,,,,,,,,,,,,,,,,,,0,41,41,41,,,,,,,,,,,,,,,,,,,,,,,,,,,,,,,,,,,,,,,,,,,,,,,,,,,,106.97801880002953,108.06096030003391,stimuli/alien_stimuli/14.png,14,2,42,test1,train_y,red_square,bottom_left,2024-11-06_12h19.21.406,HideSeek_v1,2022.2.5,60.24121789807927,
43,3,3,7,3,4,0,56,72,test_exp,train_1D_sec_new,0,,,,,,,,,,,,,,,,,,,,,0,42,42,42,0,0,0,0,,,,,,,,,,,,,,,,,,,,,,,,,,,,,,,stimuli/alien_stimuli/56.png,108.06096030003391,108.06096030003391,108.06096030003391,108.06096030003391,108.06096030003391,0,0,return,0.3623594999080524,1,0,0,0.08,-0.16,return,0.2574809999205172,,,,,,,test1,train_y,red_square,bottom_left,2024-11-06_12h19.21.406,HideSeek_v1,2022.2.5,60.24121789807927,
43,3,3,7,3,4,0,56,72,test_exp,train_1D_sec_new,0,,,,,,,,,,,,,,,,,,,,,0,42,42,42,,,,,,,,,,,,,,,,,,,,,,,,,,,,,,,,,,,,,,,,,,,,,,,,,,,,108.36139460001141,109.44515819998924,stimuli/alien_stimuli/14.png,14,2,43,test1,train_y,red_square,bottom_left,2024-11-06_12h19.21.406,HideSeek_v1,2022.2.5,60.24121789807927,
44,3,2,3,2,0,0,16,72,test_exp,train_1D_sec_new,0,,,,,,,,,,,,,,,,,,,,,0,43,43,43,0,0,0,0,,,,,,,,,,,,,,,,,,,,,,,,,,,,,,,stimuli/alien_stimuli/16.png,109.44515819998924,109.44515819998924,109.44515819998924,109.44515819998924,109.44515819998924,0,0,return,0.3124377999920398,2,0,1,0.08,-0.24,return,0.20984659995883703,,,,,,,test1,train_y,red_square,bottom_left,2024-11-06_12h19.21.406,HideSeek_v1,2022.2.5,60.24121789807927,
44,3,2,3,2,0,0,16,72,test_exp,train_1D_sec_new,0,,,,,,,,,,,,,,,,,,,,,0,43,43,43,,,,,,,,,,,,,,,,,,,,,,,,,,,,,,,,,,,,,,,,,,,,,,,,,,,,109.69426889996976,110.89449219999369,stimuli/alien_stimuli/14.png,14,2,44,test1,train_y,red_square,bottom_left,2024-11-06_12h19.21.406,HideSeek_v1,2022.2.5,60.24121789807927,
45,0,0,4,2,4,2,54,72,test_exp,train_2D_new,0,,,,,,,,,,,,,,,,,,,,,0,44,44,44,0,0,0,0,,,,,,,,,,,,,,,,,,,,,,,,,,,,,,,stimuli/alien_stimuli/54.png,110.89449219999369,110.89449219999369,110.89449219999369,110.89449219999369,110.89449219999369,0,0,return,0.4285410000011325,2,0,0,-0.16,-0.4,return,0.2146653999807313,,,,,,,test1,train_y,red_square,bottom_left,2024-11-06_12h19.21.406,HideSeek_v1,2022.2.5,60.24121789807927,
45,0,0,4,2,4,2,54,72,test_exp,train_2D_new,0,,,,,,,,,,,,,,,,,,,,,0,44,44,44,,,,,,,,,,,,,,,,,,,,,,,,,,,,,,,,,,,,,,,,,,,,,,,,,,,,111.14482699998189,112.22824949992355,stimuli/alien_stimuli/14.png,14,2,45,test1,train_y,red_square,bottom_left,2024-11-06_12h19.21.406,HideSeek_v1,2022.2.5,60.24121789807927,
46,2,4,3,5,1,1,25,72,test_exp,untrained,0,,,,,,,,,,,,,,,,,,,,,0,45,45,45,0,0,0,0,,,,,,,,,,,,,,,,,,,,,,,,,,,,,,,stimuli/alien_stimuli/25.png,112.22824949992355,112.22824949992355,112.22824949992355,112.22824949992355,112.22824949992355,0,0,return,0.3287087999051437,2,0,0,0,-0.08,return,0.218134899972938,,,,,,,test1,train_y,red_square,bottom_left,2024-11-06_12h19.21.406,HideSeek_v1,2022.2.5,60.24121789807927,
46,2,4,3,5,1,1,25,72,test_exp,untrained,0,,,,,,,,,,,,,,,,,,,,,0,45,45,45,,,,,,,,,,,,,,,,,,,,,,,,,,,,,,,,,,,,,,,,,,,,,,,,,,,,112.49459859996568,113.5779157000361,stimuli/alien_stimuli/14.png,14,2,46,test1,train_y,red_square,bottom_left,2024-11-06_12h19.21.406,HideSeek_v1,2022.2.5,60.24121789807927,
47,2,1,2,4,0,3,13,72,test_exp,untrained_1D_first_leftout,0,,,,,,,,,,,,,,,,,,,,,0,46,46,46,0,0,0,0,,,,,,,,,,,,,,,,,,,,,,,,,,,,,,,stimuli/alien_stimuli/13.png,113.5779157000361,113.5779157000361,113.5779157000361,113.5779157000361,113.5779157000361,0,0,return,0.33002490003127605,2,0,0,0,-0.32,return,0.21758669998962432,,,,,,,test1,train_y,red_square,bottom_left,2024-11-06_12h19.21.406,HideSeek_v1,2022.2.5,60.24121789807927,
47,2,1,2,4,0,3,13,72,test_exp,untrained_1D_first_leftout,0,,,,,,,,,,,,,,,,,,,,,0,46,46,46,,,,,,,,,,,,,,,,,,,,,,,,,,,,,,,,,,,,,,,,,,,,,,,,,,,,113.84427370002959,114.8962020999752,stimuli/alien_stimuli/14.png,14,2,47,test1,train_y,red_square,bottom_left,2024-11-06_12h19.21.406,HideSeek_v1,2022.2.5,60.24121789807927,
48,0,1,0,5,0,4,12,72,test_exp,train_1D_first_repeat,0,,,,,,,,,,,,,,,,,,,,,0,47,47,47,0,0,0,0,,,,,,,,,,,,,,,,,,,,,,,,,,,,,,,stimuli/alien_stimuli/12.png,114.8962020999752,114.8962020999752,114.8962020999752,114.8962020999752,114.8962020999752,0,0,return,0.3121498000109568,2,0,0,-0.16,-0.32,return,0.23598560004029423,,,,,,,test1,train_y,red_square,bottom_left,2024-11-06_12h19.21.406,HideSeek_v1,2022.2.5,60.24121789807927,
48,0,1,0,5,0,4,12,72,test_exp,train_1D_first_repeat,0,,,,,,,,,,,,,,,,,,,,,0,47,47,47,,,,,,,,,,,,,,,,,,,,,,,,,,,,,,,,,,,,,,,,,,,,,,,,,,,,115.17791520000901,116.2619621999329,stimuli/alien_stimuli/14.png,14,2,48,test1,train_y,red_square,bottom_left,2024-11-06_12h19.21.406,HideSeek_v1,2022.2.5,60.24121789807927,
49,3,1,8,5,5,4,62,72,test_exp,untrained,0,,,,,,,,,,,,,,,,,,,,,0,48,48,48,0,0,0,0,,,,,,,,,,,,,,,,,,,,,,,,,,,,,,,stimuli/alien_stimuli/62.png,116.2619621999329,116.2619621999329,116.2619621999329,116.2619621999329,116.2619621999329,0,0,return,0.3107427000068128,2,0,0,0.08,-0.32,return,0.2131194999674335,,,,,,,test1,train_y,red_square,bottom_left,2024-11-06_12h19.21.406,HideSeek_v1,2022.2.5,60.24121789807927,
49,3,1,8,5,5,4,62,72,test_exp,untrained,0,,,,,,,,,,,,,,,,,,,,,0,48,48,48,,,,,,,,,,,,,,,,,,,,,,,,,,,,,,,,,,,,,,,,,,,,,,,,,,,,116.51129880000371,117.57827719999477,stimuli/alien_stimuli/14.png,14,2,49,test1,train_y,red_square,bottom_left,2024-11-06_12h19.21.406,HideSeek_v1,2022.2.5,60.24121789807927,
50,3,0,8,5,5,5,61,72,test_exp,untrained,0,,,,,,,,,,,,,,,,,,,,,0,49,49,49,0,0,0,0,,,,,,,,,,,,,,,,,,,,,,,,,,,,,,,stimuli/alien_stimuli/61.png,117.57827719999477,117.57827719999477,117.57827719999477,117.57827719999477,117.57827719999477,0,0,return,0.32929230004083365,2,0,0,0.08,-0.4,return,0.2416910999454558,,,,,,,test1,train_y,red_square,bottom_left,2024-11-06_12h19.21.406,HideSeek_v1,2022.2.5,60.24121789807927,
50,3,0,8,5,5,5,61,72,test_exp,untrained,0,,,,,,,,,,,,,,,,,,,,,0,49,49,49,,,,,,,,,,,,,,,,,,,,,,,,,,,,,,,,,,,,,,,,,,,,,,,,,,,,117.86094689997844,118.94477950001601,stimuli/alien_stimuli/14.png,14,2,50,test1,train_y,red_square,bottom_left,2024-11-06_12h19.21.406,HideSeek_v1,2022.2.5,60.24121789807927,
,,,,,,,,,,,,,,,,,,,,,,,,,,,,,,,,,,,,,,,,,,,,,,,,,,,,,,,,,,,,,,,,,,,,,,stimuli/alien_stimuli/43.png,118.94477950001601,118.94477950001601,118.94477950001601,118.94477950001601,118.94477950001601,,,,,,,,,,,,,,,,,,,,,,,,,,
