trialTrain,x_fixStart,y_fixStart,x_corrSteps,y_corrSteps,x_nrSteps,y_nrSteps,alienID,testlen,version,trial_label,break_on_off,beforeExpLoop.thisRepN,beforeExpLoop.thisTrialN,beforeExpLoop.thisN,beforeExpLoop.thisIndex,mini_instr_trials.thisRepN,mini_instr_trials.thisTrialN,mini_instr_trials.thisN,mini_instr_trials.thisIndex,instrLoop.thisRepN,instrLoop.thisTrialN,instrLoop.thisN,instrLoop.thisIndex,repeat_prac.thisRepN,repeat_prac.thisTrialN,repeat_prac.thisN,repeat_prac.thisIndex,trainLoop.thisRepN,trainLoop.thisTrialN,trainLoop.thisN,trainLoop.thisIndex,experiment.thisRepN,experiment.thisTrialN,experiment.thisN,experiment.thisIndex,moveLoop_test.thisRepN,moveLoop_test.thisTrialN,moveLoop_test.thisN,moveLoop_test.thisIndex,breaks.thisRepN,breaks.thisTrialN,breaks.thisN,breaks.thisIndex,start_all_time,url,slideStim,audioStim,slides.started,sounds.started,nextButton.numClicks,nextButton.timesOn,nextButton.timesOff,prev_but.numClicks,prev_but.timesOn,prev_but.timesOff,perfthres,percthres,earlierperf,earlystop,nextPrac,fileidx,praclen,saveACC_train,pracFile,nextPrac_train,addNrep,fileidx_endr,repExp,showearly,alienStim,gridImage_3.started,alienImage_test.started,startPos_test.started,movePos_test.started,key_resp_test.started,wLy_dir_test,wLx_dir_test,buttonPress_test,RTchoice_test,cumAcctest,saveACC_choice,corrAns_test,x_movePos_end,y_movePos_end,key_resp_test.keys,key_resp_test.rt,fixation_text.started,fixation_text.stopped,draw_alienStim,draw_alienID,test_x,nrepcount,image_break_3.started,key_resp_7.started,key_resp_7.keys,key_resp_7.rt,participant,train_first,00_coordinate,starting corner,date,expName,psychopyVersion,frameRate,
,,,,,,,,,,,,0,0,0,0,0,0,0,0,,,,,,,,,,,,,,,,,,,,,,,,,start_all_time,testround,conditions/schedules/train_y_first/red_square_00/top_left/instructions/Slide1.png,conditions/schedules/train_y_first/red_square_00/top_left/instructions/Audio1.wav,35.720798099879175,35.647820639563726,1,[1.638651000102982],[1.6386717001441866],0,,,,,,,,,,,,,,,,,,,,,,,,,,,,,,,,,,,,,,,,,,,,test,train_y,red_square,top_left,2024-11-07_15h22.20.468,HideSeek_v1,2022.2.5,59.824677787542825,
,,,,,,,,,,,,0,0,0,0,1,0,1,0,,,,,,,,,,,,,,,,,,,,,,,,,,,conditions/schedules/train_y_first/red_square_00/top_left/instructions/Slide2.png,conditions/schedules/train_y_first/red_square_00/top_left/instructions/Audio2.wav,37.38631789991632,37.370268379850316,2,"[1.638651000102982, 0.3217702000401914]","[1.6386717001441866, 0.32178090000525117]",0,,,,,,,,,,,,,,,,,,,,,,,,,,,,,,,,,,,,,,,,,,,,test,train_y,red_square,top_left,2024-11-07_15h22.20.468,HideSeek_v1,2022.2.5,59.824677787542825,
,,,,,,,,,,,,0,0,0,0,2,0,2,0,,,,,,,,,,,,,,,,,,,,,,,,,,,conditions/schedules/train_y_first/red_square_00/top_left/instructions/Slide3.png,conditions/schedules/train_y_first/red_square_00/top_left/instructions/Audio3.wav,37.80403429991566,37.78684147987515,3,"[1.638651000102982, 0.3217702000401914, 0.07780269999057055]","[1.6386717001441866, 0.32178090000525117, 0.07781170005910099]",0,,,,,,,,,,,,,,,,,,,,,,,,,,,,,,,,,,,,,,,,,,,,test,train_y,red_square,top_left,2024-11-07_15h22.20.468,HideSeek_v1,2022.2.5,59.824677787542825,
,,,,,,,,,,,,0,0,0,0,3,0,3,0,,,,,,,,,,,,,,,,,,,,,,,,,,,conditions/schedules/train_y_first/red_square_00/top_left/instructions/Slide4.png,conditions/schedules/train_y_first/red_square_00/top_left/instructions/Audio4.wav,37.97032669978216,37.95407077977434,4,"[1.638651000102982, 0.3217702000401914, 0.07780269999057055, 0.07493629981763661]","[1.6386717001441866, 0.32178090000525117, 0.07781170005910099, 0.07494669989682734]",0,,,,,,,,,,,,,,,,,,,,,,,,,,,,,,,,,,,,,,,,,,,,test,train_y,red_square,top_left,2024-11-07_15h22.20.468,HideSeek_v1,2022.2.5,59.824677787542825,
,,,,,,,,,,,,0,0,0,0,4,0,4,0,,,,,,,,,,,,,,,,,,,,,,,,,,,conditions/schedules/train_y_first/red_square_00/top_left/instructions/Slide5.png,conditions/schedules/train_y_first/red_square_00/top_left/instructions/Audio5.wav,38.12324269977398,38.120425779884684,5,"[1.638651000102982, 0.3217702000401914, 0.07780269999057055, 0.07493629981763661, 0.11554330005310476]","[1.6386717001441866, 0.32178090000525117, 0.07781170005910099, 0.07494669989682734, 0.11555330012924969]",0,,,,,,,,,,,,,,,,,,,,,,,,,,,,,,,,,,,,,,,,,,,,test,train_y,red_square,top_left,2024-11-07_15h22.20.468,HideSeek_v1,2022.2.5,59.824677787542825,
,,,,,,,,,,,,0,0,0,0,5,0,5,0,,,,,,,,,,,,,,,,,,,,,,,,,,,conditions/schedules/train_y_first/red_square_00/top_left/instructions/Slide6.png,conditions/schedules/train_y_first/red_square_00/top_left/instructions/Audio6.wav,38.320985900005326,38.30398494983092,6,"[1.638651000102982, 0.3217702000401914, 0.07780269999057055, 0.07493629981763661, 0.11554330005310476, 0.10774239990860224]","[1.6386717001441866, 0.32178090000525117, 0.07781170005910099, 0.07494669989682734, 0.00028540007770061493, 0.10774999996647239]",0,,,,,,,,,,,,,,,,,,,,,,,,,,,,,,,,,,,,,,,,,,,,test,train_y,red_square,top_left,2024-11-07_15h22.20.468,HideSeek_v1,2022.2.5,59.824677787542825,
,,,,,,,,,,,,0,0,0,0,6,0,6,0,,,,,,,,,,,,,,,,,,,,,,,,,,,conditions/schedules/train_y_first/red_square_00/top_left/instructions/Slide7.png,conditions/schedules/train_y_first/red_square_00/top_left/instructions/Audio7.wav,38.50368479988538,38.48739824979566,7,"[1.638651000102982, 0.3217702000401914, 0.07780269999057055, 0.07493629981763661, 0.11554330005310476, 0.10774239990860224, 0.10526839992962778]","[1.6386717001441866, 0.32178090000525117, 0.07781170005910099, 0.07494669989682734, 0.00028540007770061493, 0.00025839987210929394, 0.10527889989316463]",0,,,,,,,,,,,,,,,,,,,,,,,,,,,,,,,,,,,,,,,,,,,,test,train_y,red_square,top_left,2024-11-07_15h22.20.468,HideSeek_v1,2022.2.5,59.824677787542825,
,,,,,,,,,,,,0,0,0,0,7,0,7,0,,,,,,,,,,,,,,,,,,,,,,,,,,,conditions/schedules/train_y_first/red_square_00/top_left/instructions/Slide8.png,conditions/schedules/train_y_first/red_square_00/top_left/instructions/Audio8.wav,38.69024649984203,38.68723397986032,8,"[1.638651000102982, 0.3217702000401914, 0.07780269999057055, 0.07493629981763661, 0.11554330005310476, 0.10774239990860224, 0.10526839992962778, 0.10111090005375445]","[1.6386717001441866, 0.32178090000525117, 0.07781170005910099, 0.07494669989682734, 0.00028540007770061493, 0.00025839987210929394, 0.10527889989316463, 0.10113080008886755]",0,,,,,,,,,,,,,,,,,,,,,,,,,,,,,,,,,,,,,,,,,,,,test,train_y,red_square,top_left,2024-11-07_15h22.20.468,HideSeek_v1,2022.2.5,59.824677787542825,
,,,,,,,,,,,,0,0,0,0,8,0,8,0,,,,,,,,,,,,,,,,,,,,,,,,,,,conditions/schedules/train_y_first/red_square_00/top_left/instructions/Slide9.png,conditions/schedules/train_y_first/red_square_00/top_left/instructions/Audio9.wav,38.87160640000366,38.85463564982638,9,"[1.638651000102982, 0.3217702000401914, 0.07780269999057055, 0.07493629981763661, 0.11554330005310476, 0.10774239990860224, 0.10526839992962778, 0.10111090005375445, 0.08543770015239716]","[1.6386717001441866, 0.32178090000525117, 0.07781170005910099, 0.07494669989682734, 0.00028540007770061493, 0.00025839987210929394, 0.10527889989316463, 0.10113080008886755, 0.08545770007185638]",0,,,,,,,,,,,,,,,,,,,,,,,,,,,,,,,,,,,,,,,,,,,,test,train_y,red_square,top_left,2024-11-07_15h22.20.468,HideSeek_v1,2022.2.5,59.824677787542825,
,,,,,,,,,,,,0,0,0,0,9,0,9,0,,,,,,,,,,,,,,,,,,,,,,,,,,,conditions/schedules/train_y_first/red_square_00/top_left/instructions/Slide10.png,conditions/schedules/train_y_first/red_square_00/top_left/instructions/Audio10.wav,39.022474199999124,39.00457631978207,10,"[1.638651000102982, 0.3217702000401914, 0.07780269999057055, 0.07493629981763661, 0.11554330005310476, 0.10774239990860224, 0.10526839992962778, 0.10111090005375445, 0.08543770015239716, 0.10389929986558855]","[1.6386717001441866, 0.32178090000525117, 0.07781170005910099, 0.07494669989682734, 0.00028540007770061493, 0.00025839987210929394, 0.10527889989316463, 0.10113080008886755, 0.0002780999056994915, 0.10391229996457696]",0,,,,,,,,,,,,,,,,,,,,,,,,,,,,,,,,,,,,,,,,,,,,test,train_y,red_square,top_left,2024-11-07_15h22.20.468,HideSeek_v1,2022.2.5,59.824677787542825,
,,,,,,,,,,,,0,0,0,0,10,0,10,0,,,,,,,,,,,,,,,,,,,,,,,,,,,conditions/schedules/train_y_first/red_square_00/top_left/instructions/Slide11.png,conditions/schedules/train_y_first/red_square_00/top_left/instructions/Audio11.wav,39.186747199855745,39.1711567199789,11,"[1.638651000102982, 0.3217702000401914, 0.07780269999057055, 0.07493629981763661, 0.11554330005310476, 0.10774239990860224, 0.10526839992962778, 0.10111090005375445, 0.08543770015239716, 0.10389929986558855, 0.10399900004267693]","[1.6386717001441866, 0.32178090000525117, 0.07781170005910099, 0.07494669989682734, 0.00028540007770061493, 0.00025839987210929394, 0.10527889989316463, 0.10113080008886755, 0.0002780999056994915, 0.0002625000197440386, 0.10400910000316799]",0,,,,,,,,,,,,,,,,,,,,,,,,,,,,,,,,,,,,,,,,,,,,test,train_y,red_square,top_left,2024-11-07_15h22.20.468,HideSeek_v1,2022.2.5,59.824677787542825,
,,,,,,,,,,,,0,0,0,0,11,0,11,0,,,,,,,,,,,,,,,,,,,,,,,,,,,conditions/schedules/train_y_first/red_square_00/top_left/instructions/Slide12.png,conditions/schedules/train_y_first/red_square_00/top_left/instructions/Audio12.wav,39.371389999985695,39.35424294997938,12,"[1.638651000102982, 0.3217702000401914, 0.07780269999057055, 0.07493629981763661, 0.11554330005310476, 0.10774239990860224, 0.10526839992962778, 0.10111090005375445, 0.08543770015239716, 0.10389929986558855, 0.10399900004267693, 0.10183369996957481]","[1.6386717001441866, 0.32178090000525117, 0.07781170005910099, 0.07494669989682734, 0.00028540007770061493, 0.00025839987210929394, 0.10527889989316463, 0.10113080008886755, 0.0002780999056994915, 0.0002625000197440386, 0.10400910000316799, 0.10184310004115105]",0,,,,,,,,,,,,,,,,,,,,,,,,,,,,,,,,,,,,,,,,,,,,test,train_y,red_square,top_left,2024-11-07_15h22.20.468,HideSeek_v1,2022.2.5,59.824677787542825,
,,,,,,,,,,,,0,0,0,0,,,,,,,,,,,,,,,,,,,,,,,,,,,,,,,,,,,,,,,,,17,0.7,0,0,99,1,30,0,conditions/schedules/train_y_first/red_square_00/top_left/inputTrain_1.1.xlsx,99,1,1,1,0,,,,,,,,,,,,,,,,,,,,,,,,,,,,test,train_y,red_square,top_left,2024-11-07_15h22.20.468,HideSeek_v1,2022.2.5,59.824677787542825,
,,,,,,,,,,,,1,0,1,0,0,0,0,0,,,,,,,,,,,,,,,,,,,,,,,,,,,conditions/schedules/train_y_first/red_square_00/top_left/instructions/Slide13.png,conditions/schedules/train_y_first/red_square_00/top_left/instructions/Audio13.wav,39.75305649987422,39.738250009808695,13,"[1.638651000102982, 0.3217702000401914, 0.07780269999057055, 0.07493629981763661, 0.11554330005310476, 0.10774239990860224, 0.10526839992962778, 0.10111090005375445, 0.08543770015239716, 0.10389929986558855, 0.10399900004267693, 0.10183369996957481, 0.05858980002813041]","[1.6386717001441866, 0.32178090000525117, 0.07781170005910099, 0.07494669989682734, 0.00028540007770061493, 0.00025839987210929394, 0.10527889989316463, 0.10113080008886755, 0.0002780999056994915, 0.0002625000197440386, 0.10400910000316799, 0.10184310004115105, 0.05860029999166727]",0,,,,,,,,,,,,,,,,,,,,,,,,,,,,,,,,,,,,,,,,,,,,test,train_y,red_square,top_left,2024-11-07_15h22.20.468,HideSeek_v1,2022.2.5,59.824677787542825,
,,,,,,,,,,,,1,0,1,0,1,0,1,0,,,,,,,,,,,,,,,,,,,,,,,,,,,conditions/schedules/train_y_first/red_square_00/top_left/instructions/Slide14.png,conditions/schedules/train_y_first/red_square_00/top_left/instructions/Audio14.wav,39.94062199979089,39.93708736980334,14,"[1.638651000102982, 0.3217702000401914, 0.07780269999057055, 0.07493629981763661, 0.11554330005310476, 0.10774239990860224, 0.10526839992962778, 0.10111090005375445, 0.08543770015239716, 0.10389929986558855, 0.10399900004267693, 0.10183369996957481, 0.05858980002813041, 0.14603100018575788]","[1.6386717001441866, 0.32178090000525117, 0.07781170005910099, 0.07494669989682734, 0.00028540007770061493, 0.00025839987210929394, 0.10527889989316463, 0.10113080008886755, 0.0002780999056994915, 0.0002625000197440386, 0.10400910000316799, 0.10184310004115105, 0.05860029999166727, 0.14603880001232028]",0,,,,,,,,,,,,,,,,,,,,,,,,,,,,,,,,,,,,,,,,,,,,test,train_y,red_square,top_left,2024-11-07_15h22.20.468,HideSeek_v1,2022.2.5,59.824677787542825,
,,,,,,,,,,,,1,0,1,0,,,,,,,,,,,,,,,,,,,,,,,,,,,,,,,,,,,,,,,,,17,0.7,0,0,99,1,30,0,conditions/schedules/train_y_first/red_square_00/top_left/inputTrain_1.1.xlsx,99,1,1,1,0,,,,,,,,,,,,,,,,,,,,,,,,,,,,test,train_y,red_square,top_left,2024-11-07_15h22.20.468,HideSeek_v1,2022.2.5,59.824677787542825,
,,,,,,,,,,,,2,0,2,0,0,0,0,0,,,,,,,,,,,,,,,,,,,,,,,,,,,conditions/schedules/train_y_first/red_square_00/top_left/instructions/Slide15.png,conditions/schedules/train_y_first/red_square_00/top_left/instructions/Audio15.wav,40.28772039990872,40.26867125984282,15,"[1.638651000102982, 0.3217702000401914, 0.07780269999057055, 0.07493629981763661, 0.11554330005310476, 0.10774239990860224, 0.10526839992962778, 0.10111090005375445, 0.08543770015239716, 0.10389929986558855, 0.10399900004267693, 0.10183369996957481, 0.05858980002813041, 0.14603100018575788, 0.3404496998991817]","[1.6386717001441866, 0.32178090000525117, 0.07781170005910099, 0.07494669989682734, 0.00028540007770061493, 0.00025839987210929394, 0.10527889989316463, 0.10113080008886755, 0.0002780999056994915, 0.0002625000197440386, 0.10400910000316799, 0.10184310004115105, 0.05860029999166727, 0.14603880001232028, 0.3404602000955492]",0,,,,,,,,,,,,,,,,,,,,,,,,,,,,,,,,,,,,,,,,,,,,test,train_y,red_square,top_left,2024-11-07_15h22.20.468,HideSeek_v1,2022.2.5,59.824677787542825,
,,,,,,,,,,,,2,0,2,0,1,0,1,0,,,,,,,,,,,,,,,,,,,,,,,,,,,conditions/schedules/train_y_first/red_square_00/top_left/instructions/Slide16.png,conditions/schedules/train_y_first/red_square_00/top_left/instructions/Audio16.wav,40.72057509981096,40.704011579789224,16,"[1.638651000102982, 0.3217702000401914, 0.07780269999057055, 0.07493629981763661, 0.11554330005310476, 0.10774239990860224, 0.10526839992962778, 0.10111090005375445, 0.08543770015239716, 0.10389929986558855, 0.10399900004267693, 0.10183369996957481, 0.05858980002813041, 0.14603100018575788, 0.3404496998991817, 0.2314146999269724]","[1.6386717001441866, 0.32178090000525117, 0.07781170005910099, 0.07494669989682734, 0.00028540007770061493, 0.00025839987210929394, 0.10527889989316463, 0.10113080008886755, 0.0002780999056994915, 0.0002625000197440386, 0.10400910000316799, 0.10184310004115105, 0.05860029999166727, 0.14603880001232028, 0.0002584999892860651, 0.23142309999093413]",0,,,,,,,,,,,,,,,,,,,,,,,,,,,,,,,,,,,,,,,,,,,,test,train_y,red_square,top_left,2024-11-07_15h22.20.468,HideSeek_v1,2022.2.5,59.824677787542825,
,,,,,,,,,,,,2,0,2,0,,,,,,,,,,,,,,,,,,,,,,,,,,,,,,,,,,,,,,,,,17,0.7,0,0,99,1,30,0,conditions/schedules/train_y_first/red_square_00/top_left/inputTrain_1.1.xlsx,99,1,1,1,0,,,,,,,,,,,,,,,,,,,,,,,,,,,,test,train_y,red_square,top_left,2024-11-07_15h22.20.468,HideSeek_v1,2022.2.5,59.824677787542825,
,,,,,,,,,,,,3,0,3,0,0,0,0,0,,,,,,,,,,,,,,,,,,,,,,,,,,,conditions/schedules/train_y_first/red_square_00/top_left/instructions/Slide17.png,conditions/schedules/train_y_first/red_square_00/top_left/instructions/Audio17.wav,41.135613799793646,41.120980059821164,17,"[1.638651000102982, 0.3217702000401914, 0.07780269999057055, 0.07493629981763661, 0.11554330005310476, 0.10774239990860224, 0.10526839992962778, 0.10111090005375445, 0.08543770015239716, 0.10389929986558855, 0.10399900004267693, 0.10183369996957481, 0.05858980002813041, 0.14603100018575788, 0.3404496998991817, 0.2314146999269724, 0.05697640008293092]","[1.6386717001441866, 0.32178090000525117, 0.07781170005910099, 0.07494669989682734, 0.00028540007770061493, 0.00025839987210929394, 0.10527889989316463, 0.10113080008886755, 0.0002780999056994915, 0.0002625000197440386, 0.10400910000316799, 0.10184310004115105, 0.05860029999166727, 0.14603880001232028, 0.0002584999892860651, 0.23142309999093413, 0.056985000148415565]",0,,,,,,,,,,,,,,,,,,,,,,,,,,,,,,,,,,,,,,,,,,,,test,train_y,red_square,top_left,2024-11-07_15h22.20.468,HideSeek_v1,2022.2.5,59.824677787542825,
,,,,,,,,,,,,3,0,3,0,1,0,1,0,,,,,,,,,,,,,,,,,,,,,,,,,,,conditions/schedules/train_y_first/red_square_00/top_left/instructions/Slide18.png,conditions/schedules/train_y_first/red_square_00/top_left/instructions/Audio18.wav,41.26884499983862,41.253997849998996,18,"[1.638651000102982, 0.3217702000401914, 0.07780269999057055, 0.07493629981763661, 0.11554330005310476, 0.10774239990860224, 0.10526839992962778, 0.10111090005375445, 0.08543770015239716, 0.10389929986558855, 0.10399900004267693, 0.10183369996957481, 0.05858980002813041, 0.14603100018575788, 0.3404496998991817, 0.2314146999269724, 0.05697640008293092, 0.18753670016303658]","[1.6386717001441866, 0.32178090000525117, 0.07781170005910099, 0.07494669989682734, 0.00028540007770061493, 0.00025839987210929394, 0.10527889989316463, 0.10113080008886755, 0.0002780999056994915, 0.0002625000197440386, 0.10400910000316799, 0.10184310004115105, 0.05860029999166727, 0.14603880001232028, 0.0002584999892860651, 0.23142309999093413, 0.056985000148415565, 0.18754420010372996]",0,,,,,,,,,,,,,,,,,,,,,,,,,,,,,,,,,,,,,,,,,,,,test,train_y,red_square,top_left,2024-11-07_15h22.20.468,HideSeek_v1,2022.2.5,59.824677787542825,
,,,,,,,,,,,,3,0,3,0,2,0,2,0,,,,,,,,,,,,,,,,,,,,,,,,,,,conditions/schedules/train_y_first/red_square_00/top_left/instructions/Slide19.png,conditions/schedules/train_y_first/red_square_00/top_left/instructions/Audio19.wav,41.55407339986414,41.53774527977221,19,"[1.638651000102982, 0.3217702000401914, 0.07780269999057055, 0.07493629981763661, 0.11554330005310476, 0.10774239990860224, 0.10526839992962778, 0.10111090005375445, 0.08543770015239716, 0.10389929986558855, 0.10399900004267693, 0.10183369996957481, 0.05858980002813041, 0.14603100018575788, 0.3404496998991817, 0.2314146999269724, 0.05697640008293092, 0.18753670016303658, 0.17541150003671646]","[1.6386717001441866, 0.32178090000525117, 0.07781170005910099, 0.07494669989682734, 0.00028540007770061493, 0.00025839987210929394, 0.10527889989316463, 0.10113080008886755, 0.0002780999056994915, 0.0002625000197440386, 0.10400910000316799, 0.10184310004115105, 0.05860029999166727, 0.14603880001232028, 0.0002584999892860651, 0.23142309999093413, 0.056985000148415565, 0.18754420010372996, 0.17541899997740984]",0,,,,,,,,,,,,,,,,,,,,,,,,,,,,,,,,,,,,,,,,,,,,test,train_y,red_square,top_left,2024-11-07_15h22.20.468,HideSeek_v1,2022.2.5,59.824677787542825,
,,,,,,,,,,,,3,0,3,0,3,0,3,0,,,,,,,,,,,,,,,,,,,,,,,,,,,conditions/schedules/train_y_first/red_square_00/top_left/instructions/Slide20.png,conditions/schedules/train_y_first/red_square_00/top_left/instructions/Audio20.wav,41.82077159988694,41.80420937999152,20,"[1.638651000102982, 0.3217702000401914, 0.07780269999057055, 0.07493629981763661, 0.11554330005310476, 0.10774239990860224, 0.10526839992962778, 0.10111090005375445, 0.08543770015239716, 0.10389929986558855, 0.10399900004267693, 0.10183369996957481, 0.05858980002813041, 0.14603100018575788, 0.3404496998991817, 0.2314146999269724, 0.05697640008293092, 0.18753670016303658, 0.17541150003671646, 0.14442040002904832]","[1.6386717001441866, 0.32178090000525117, 0.07781170005910099, 0.07494669989682734, 0.00028540007770061493, 0.00025839987210929394, 0.10527889989316463, 0.10113080008886755, 0.0002780999056994915, 0.0002625000197440386, 0.10400910000316799, 0.10184310004115105, 0.05860029999166727, 0.14603880001232028, 0.0002584999892860651, 0.23142309999093413, 0.056985000148415565, 0.18754420010372996, 0.17541899997740984, 0.1444280999712646]",0,,,,,,,,,,,,,,,,,,,,,,,,,,,,,,,,,,,,,,,,,,,,test,train_y,red_square,top_left,2024-11-07_15h22.20.468,HideSeek_v1,2022.2.5,59.824677787542825,
,,,,,,,,,,,,3,0,3,0,,,,,,,,,,,,,,,,,,,,,,,,,,,,,,,,,,,,,,,,,17,0.7,0,0,99,1,30,0,conditions/schedules/train_y_first/red_square_00/top_left/inputTrain_1.1.xlsx,99,1,1,1,0,,,,,,,,,,,,,,,,,,,,,,,,,,,,test,train_y,red_square,top_left,2024-11-07_15h22.20.468,HideSeek_v1,2022.2.5,59.824677787542825,
,,,,,,,,,,,,4,0,4,0,0,0,0,0,,,,,,,,,,,,,,,,,,,,,,,,,,,conditions/schedules/train_y_first/red_square_00/top_left/instructions/Slide21.png,conditions/schedules/train_y_first/red_square_00/top_left/instructions/Audio21.wav,42.152150199981406,42.137013459904125,21,"[1.638651000102982, 0.3217702000401914, 0.07780269999057055, 0.07493629981763661, 0.11554330005310476, 0.10774239990860224, 0.10526839992962778, 0.10111090005375445, 0.08543770015239716, 0.10389929986558855, 0.10399900004267693, 0.10183369996957481, 0.05858980002813041, 0.14603100018575788, 0.3404496998991817, 0.2314146999269724, 0.05697640008293092, 0.18753670016303658, 0.17541150003671646, 0.14442040002904832, 0.18748309998773038]","[1.6386717001441866, 0.32178090000525117, 0.07781170005910099, 0.07494669989682734, 0.00028540007770061493, 0.00025839987210929394, 0.10527889989316463, 0.10113080008886755, 0.0002780999056994915, 0.0002625000197440386, 0.10400910000316799, 0.10184310004115105, 0.05860029999166727, 0.14603880001232028, 0.0002584999892860651, 0.23142309999093413, 0.056985000148415565, 0.18754420010372996, 0.17541899997740984, 0.021168199833482504, 0.18749219994060695]",0,,,,,,,,,,,,,,,,,,,,,,,,,,,,,,,,,,,,,,,,,,,,test,train_y,red_square,top_left,2024-11-07_15h22.20.468,HideSeek_v1,2022.2.5,59.824677787542825,
,,,,,,,,,,,,4,0,4,0,,,,,,,,,,,,,,,,,,,,,,,,,,,,,,,,,,,,,,,,,17,0.7,0,0,99,1,30,0,conditions/schedules/train_y_first/red_square_00/top_left/inputTrain_1.1.xlsx,99,1,1,1,0,,,,,,,,,,,,,,,,,,,,,,,,,,,,test,train_y,red_square,top_left,2024-11-07_15h22.20.468,HideSeek_v1,2022.2.5,59.824677787542825,
,,,,,,,,,,,,5,0,5,0,0,0,0,0,,,,,,,,,,,,,,,,,,,,,,,,,,,conditions/schedules/train_y_first/red_square_00/top_left/instructions/Slide22.png,conditions/schedules/train_y_first/red_square_00/top_left/instructions/Audio22.wav,42.55382679984905,42.53684828979895,22,"[1.638651000102982, 0.3217702000401914, 0.07780269999057055, 0.07493629981763661, 0.11554330005310476, 0.10774239990860224, 0.10526839992962778, 0.10111090005375445, 0.08543770015239716, 0.10389929986558855, 0.10399900004267693, 0.10183369996957481, 0.05858980002813041, 0.14603100018575788, 0.3404496998991817, 0.2314146999269724, 0.05697640008293092, 0.18753670016303658, 0.17541150003671646, 0.14442040002904832, 0.18748309998773038, 0.04752699984237552]","[1.6386717001441866, 0.32178090000525117, 0.07781170005910099, 0.07494669989682734, 0.00028540007770061493, 0.00025839987210929394, 0.10527889989316463, 0.10113080008886755, 0.0002780999056994915, 0.0002625000197440386, 0.10400910000316799, 0.10184310004115105, 0.05860029999166727, 0.14603880001232028, 0.0002584999892860651, 0.23142309999093413, 0.056985000148415565, 0.18754420010372996, 0.17541899997740984, 0.021168199833482504, 0.18749219994060695, 0.04753679991699755]",0,,,,,,,,,,,,,,,,,,,,,,,,,,,,,,,,,,,,,,,,,,,,test,train_y,red_square,top_left,2024-11-07_15h22.20.468,HideSeek_v1,2022.2.5,59.824677787542825,
,,,,,,,,,,,,5,0,5,0,,,,,,,,,,,,,,,,,,,,,,,,,,,,,,,,,,,,,,,,,17,0.7,0,0,99,1,30,0,conditions/schedules/train_y_first/red_square_00/top_left/inputTrain_1.1.xlsx,99,1,1,1,0,,,,,,,,,,,,,,,,,,,,,,,,,,,,test,train_y,red_square,top_left,2024-11-07_15h22.20.468,HideSeek_v1,2022.2.5,59.824677787542825,
,,,,,,,,,,,,6,0,6,0,0,0,0,0,,,,,,,,,,,,,,,,,,,,,,,,,,,conditions/schedules/train_y_first/red_square_00/top_left/instructions/Slide23.png,conditions/schedules/train_y_first/red_square_00/top_left/instructions/Audio23.wav,42.78739169985056,42.771034559793776,23,"[1.638651000102982, 0.3217702000401914, 0.07780269999057055, 0.07493629981763661, 0.11554330005310476, 0.10774239990860224, 0.10526839992962778, 0.10111090005375445, 0.08543770015239716, 0.10389929986558855, 0.10399900004267693, 0.10183369996957481, 0.05858980002813041, 0.14603100018575788, 0.3404496998991817, 0.2314146999269724, 0.05697640008293092, 0.18753670016303658, 0.17541150003671646, 0.14442040002904832, 0.18748309998773038, 0.04752699984237552, 0.05912910006009042]","[1.6386717001441866, 0.32178090000525117, 0.07781170005910099, 0.07494669989682734, 0.00028540007770061493, 0.00025839987210929394, 0.10527889989316463, 0.10113080008886755, 0.0002780999056994915, 0.0002625000197440386, 0.10400910000316799, 0.10184310004115105, 0.05860029999166727, 0.14603880001232028, 0.0002584999892860651, 0.23142309999093413, 0.056985000148415565, 0.18754420010372996, 0.17541899997740984, 0.021168199833482504, 0.18749219994060695, 0.04753679991699755, 0.05913860001601279]",0,,,,,,,,,,,,,,,,,,,,,,,,,,,,,,,,,,,,,,,,,,,,test,train_y,red_square,top_left,2024-11-07_15h22.20.468,HideSeek_v1,2022.2.5,59.824677787542825,
,,,,,,,,,,,,6,0,6,0,1,0,1,0,,,,,,,,,,,,,,,,,,,,,,,,,,,conditions/schedules/train_y_first/red_square_00/top_left/instructions/Slide24.png,conditions/schedules/train_y_first/red_square_00/top_left/instructions/Audio24.wav,42.93713939981535,42.92079337993637,24,"[1.638651000102982, 0.3217702000401914, 0.07780269999057055, 0.07493629981763661, 0.11554330005310476, 0.10774239990860224, 0.10526839992962778, 0.10111090005375445, 0.08543770015239716, 0.10389929986558855, 0.10399900004267693, 0.10183369996957481, 0.05858980002813041, 0.14603100018575788, 0.3404496998991817, 0.2314146999269724, 0.05697640008293092, 0.18753670016303658, 0.17541150003671646, 0.14442040002904832, 0.18748309998773038, 0.04752699984237552, 0.05912910006009042, 0.16522120009176433]","[1.6386717001441866, 0.32178090000525117, 0.07781170005910099, 0.07494669989682734, 0.00028540007770061493, 0.00025839987210929394, 0.10527889989316463, 0.10113080008886755, 0.0002780999056994915, 0.0002625000197440386, 0.10400910000316799, 0.10184310004115105, 0.05860029999166727, 0.14603880001232028, 0.0002584999892860651, 0.23142309999093413, 0.056985000148415565, 0.18754420010372996, 0.17541899997740984, 0.021168199833482504, 0.18749219994060695, 0.04753679991699755, 0.05913860001601279, 0.1652293000370264]",0,,,,,,,,,,,,,,,,,,,,,,,,,,,,,,,,,,,,,,,,,,,,test,train_y,red_square,top_left,2024-11-07_15h22.20.468,HideSeek_v1,2022.2.5,59.824677787542825,
,,,,,,,,,,,,6,0,6,0,2,0,2,0,,,,,,,,,,,,,,,,,,,,,,,,,,,conditions/schedules/train_y_first/red_square_00/top_left/instructions/Slide25.png,conditions/schedules/train_y_first/red_square_00/top_left/instructions/Audio25.wav,43.185344900004566,43.170253679901364,25,"[1.638651000102982, 0.3217702000401914, 0.07780269999057055, 0.07493629981763661, 0.11554330005310476, 0.10774239990860224, 0.10526839992962778, 0.10111090005375445, 0.08543770015239716, 0.10389929986558855, 0.10399900004267693, 0.10183369996957481, 0.05858980002813041, 0.14603100018575788, 0.3404496998991817, 0.2314146999269724, 0.05697640008293092, 0.18753670016303658, 0.17541150003671646, 0.14442040002904832, 0.18748309998773038, 0.04752699984237552, 0.05912910006009042, 0.16522120009176433, 0.1550748001318425]","[1.6386717001441866, 0.32178090000525117, 0.07781170005910099, 0.07494669989682734, 0.00028540007770061493, 0.00025839987210929394, 0.10527889989316463, 0.10113080008886755, 0.0002780999056994915, 0.0002625000197440386, 0.10400910000316799, 0.10184310004115105, 0.05860029999166727, 0.14603880001232028, 0.0002584999892860651, 0.23142309999093413, 0.056985000148415565, 0.18754420010372996, 0.17541899997740984, 0.021168199833482504, 0.18749219994060695, 0.04753679991699755, 0.05913860001601279, 0.1652293000370264, 0.15508850011974573]",0,,,,,,,,,,,,,,,,,,,,,,,,,,,,,,,,,,,,,,,,,,,,test,train_y,red_square,top_left,2024-11-07_15h22.20.468,HideSeek_v1,2022.2.5,59.824677787542825,
,,,,,,,,,,,,6,0,6,0,,,,,,,,,,,,,,,,,,,,,,,,,,,,,,,,,,,,,,,,,17,0.7,0,0,99,1,30,0,conditions/schedules/train_y_first/red_square_00/top_left/inputTrain_1.1.xlsx,99,1,1,1,0,,,,,,,,,,,,,,,,,,,,,,,,,,,,test,train_y,red_square,top_left,2024-11-07_15h22.20.468,HideSeek_v1,2022.2.5,59.824677787542825,
,,,,,,,,,,,,7,0,7,0,0,0,0,0,,,,,,,,,,,,,,,,,,,,,,,,,,,conditions/schedules/train_y_first/red_square_00/top_left/instructions/Slide26.png,conditions/schedules/train_y_first/red_square_00/top_left/instructions/Audio26.wav,43.57086019986309,43.552447819802914,26,"[1.638651000102982, 0.3217702000401914, 0.07780269999057055, 0.07493629981763661, 0.11554330005310476, 0.10774239990860224, 0.10526839992962778, 0.10111090005375445, 0.08543770015239716, 0.10389929986558855, 0.10399900004267693, 0.10183369996957481, 0.05858980002813041, 0.14603100018575788, 0.3404496998991817, 0.2314146999269724, 0.05697640008293092, 0.18753670016303658, 0.17541150003671646, 0.14442040002904832, 0.18748309998773038, 0.04752699984237552, 0.05912910006009042, 0.16522120009176433, 0.1550748001318425, 0.02852839999832213]","[1.6386717001441866, 0.32178090000525117, 0.07781170005910099, 0.07494669989682734, 0.00028540007770061493, 0.00025839987210929394, 0.10527889989316463, 0.10113080008886755, 0.0002780999056994915, 0.0002625000197440386, 0.10400910000316799, 0.10184310004115105, 0.05860029999166727, 0.14603880001232028, 0.0002584999892860651, 0.23142309999093413, 0.056985000148415565, 0.18754420010372996, 0.17541899997740984, 0.021168199833482504, 0.18749219994060695, 0.04753679991699755, 0.05913860001601279, 0.1652293000370264, 0.15508850011974573, 0.028548100031912327]",0,,,,,,,,,,,,,,,,,,,,,,,,,,,,,,,,,,,,,,,,,,,,test,train_y,red_square,top_left,2024-11-07_15h22.20.468,HideSeek_v1,2022.2.5,59.824677787542825,
,,,,,,,,,,,,7,0,7,0,,,,,,,,,,,,,,,,,,,,,,,,,,,,,,,,,,,,,,,,,17,0.7,0,0,99,1,30,0,conditions/schedules/train_y_first/red_square_00/top_left/inputTrain_1.1.xlsx,99,1,1,1,0,,,,,,,,,,,,,,,,,,,,,,,,,,,,test,train_y,red_square,top_left,2024-11-07_15h22.20.468,HideSeek_v1,2022.2.5,59.824677787542825,
,,,,,,,,,,,,8,0,8,0,0,0,0,0,,,,,,,,,,,,,,,,,,,,,,,,,,,conditions/schedules/train_y_first/red_square_00/top_left/instructions/Slide27.png,conditions/schedules/train_y_first/red_square_00/top_left/instructions/Audio27.wav,43.810525599867105,43.78735998985358,27,"[1.638651000102982, 0.3217702000401914, 0.07780269999057055, 0.07493629981763661, 0.11554330005310476, 0.10774239990860224, 0.10526839992962778, 0.10111090005375445, 0.08543770015239716, 0.10389929986558855, 0.10399900004267693, 0.10183369996957481, 0.05858980002813041, 0.14603100018575788, 0.3404496998991817, 0.2314146999269724, 0.05697640008293092, 0.18753670016303658, 0.17541150003671646, 0.14442040002904832, 0.18748309998773038, 0.04752699984237552, 0.05912910006009042, 0.16522120009176433, 0.1550748001318425, 0.02852839999832213, 0.08567690011113882]","[1.6386717001441866, 0.32178090000525117, 0.07781170005910099, 0.07494669989682734, 0.00028540007770061493, 0.00025839987210929394, 0.10527889989316463, 0.10113080008886755, 0.0002780999056994915, 0.0002625000197440386, 0.10400910000316799, 0.10184310004115105, 0.05860029999166727, 0.14603880001232028, 0.0002584999892860651, 0.23142309999093413, 0.056985000148415565, 0.18754420010372996, 0.17541899997740984, 0.021168199833482504, 0.18749219994060695, 0.04753679991699755, 0.05913860001601279, 0.1652293000370264, 0.15508850011974573, 0.028548100031912327, 0.08568629994988441]",0,,,,,,,,,,,,,,,,,,,,,,,,,,,,,,,,,,,,,,,,,,,,test,train_y,red_square,top_left,2024-11-07_15h22.20.468,HideSeek_v1,2022.2.5,59.824677787542825,
,,,,,,,,,,,,8,0,8,0,,,,,,,,,,,,,,,,,,,,,,,,,,,,,,,,,,,,,,,,,17,0.7,0,0,99,1,30,0,conditions/schedules/train_y_first/red_square_00/top_left/inputTrain_1.1.xlsx,99,1,1,1,0,,,,,,,,,,,,,,,,,,,,,,,,,,,,test,train_y,red_square,top_left,2024-11-07_15h22.20.468,HideSeek_v1,2022.2.5,59.824677787542825,
,,,,,,,,,,,,9,0,9,0,0,0,0,0,,,,,,,,,,,,,,,,,,,,,,,,,,,conditions/schedules/train_y_first/red_square_00/top_left/instructions/Slide28.png,conditions/schedules/train_y_first/red_square_00/top_left/instructions/Audio28.wav,44.08736199978739,44.07085795989261,28,"[1.638651000102982, 0.3217702000401914, 0.07780269999057055, 0.07493629981763661, 0.11554330005310476, 0.10774239990860224, 0.10526839992962778, 0.10111090005375445, 0.08543770015239716, 0.10389929986558855, 0.10399900004267693, 0.10183369996957481, 0.05858980002813041, 0.14603100018575788, 0.3404496998991817, 0.2314146999269724, 0.05697640008293092, 0.18753670016303658, 0.17541150003671646, 0.14442040002904832, 0.18748309998773038, 0.04752699984237552, 0.05912910006009042, 0.16522120009176433, 0.1550748001318425, 0.02852839999832213, 0.08567690011113882, 0.07328180014155805]","[1.6386717001441866, 0.32178090000525117, 0.07781170005910099, 0.07494669989682734, 0.00028540007770061493, 0.00025839987210929394, 0.10527889989316463, 0.10113080008886755, 0.0002780999056994915, 0.0002625000197440386, 0.10400910000316799, 0.10184310004115105, 0.05860029999166727, 0.14603880001232028, 0.0002584999892860651, 0.23142309999093413, 0.056985000148415565, 0.18754420010372996, 0.17541899997740984, 0.021168199833482504, 0.18749219994060695, 0.04753679991699755, 0.05913860001601279, 0.1652293000370264, 0.15508850011974573, 0.028548100031912327, 0.08568629994988441, 0.07328970008529723]",0,,,,,,,,,,,,,,,,,,,,,,,,,,,,,,,,,,,,,,,,,,,,test,train_y,red_square,top_left,2024-11-07_15h22.20.468,HideSeek_v1,2022.2.5,59.824677787542825,
,,,,,,,,,,,,9,0,9,0,1,0,1,0,,,,,,,,,,,,,,,,,,,,,,,,,,,conditions/schedules/train_y_first/red_square_00/top_left/instructions/Slide29.png,conditions/schedules/train_y_first/red_square_00/top_left/instructions/Audio29.wav,44.254635099787265,44.23711977996864,29,"[1.638651000102982, 0.3217702000401914, 0.07780269999057055, 0.07493629981763661, 0.11554330005310476, 0.10774239990860224, 0.10526839992962778, 0.10111090005375445, 0.08543770015239716, 0.10389929986558855, 0.10399900004267693, 0.10183369996957481, 0.05858980002813041, 0.14603100018575788, 0.3404496998991817, 0.2314146999269724, 0.05697640008293092, 0.18753670016303658, 0.17541150003671646, 0.14442040002904832, 0.18748309998773038, 0.04752699984237552, 0.05912910006009042, 0.16522120009176433, 0.1550748001318425, 0.02852839999832213, 0.08567690011113882, 0.07328180014155805, 0.2603563000448048]","[1.6386717001441866, 0.32178090000525117, 0.07781170005910099, 0.07494669989682734, 0.00028540007770061493, 0.00025839987210929394, 0.10527889989316463, 0.10113080008886755, 0.0002780999056994915, 0.0002625000197440386, 0.10400910000316799, 0.10184310004115105, 0.05860029999166727, 0.14603880001232028, 0.0002584999892860651, 0.23142309999093413, 0.056985000148415565, 0.18754420010372996, 0.17541899997740984, 0.021168199833482504, 0.18749219994060695, 0.04753679991699755, 0.05913860001601279, 0.1652293000370264, 0.15508850011974573, 0.028548100031912327, 0.08568629994988441, 0.07328970008529723, 0.26036670012399554]",0,,,,,,,,,,,,,,,,,,,,,,,,,,,,,,,,,,,,,,,,,,,,test,train_y,red_square,top_left,2024-11-07_15h22.20.468,HideSeek_v1,2022.2.5,59.824677787542825,
,,,,,,,,,,,,9,0,9,0,2,0,2,0,,,,,,,,,,,,,,,,,,,,,,,,,,,conditions/schedules/train_y_first/red_square_00/top_left/instructions/Slide30.png,conditions/schedules/train_y_first/red_square_00/top_left/instructions/Audio30.wav,44.587358199991286,44.57104964996688,30,"[1.638651000102982, 0.3217702000401914, 0.07780269999057055, 0.07493629981763661, 0.11554330005310476, 0.10774239990860224, 0.10526839992962778, 0.10111090005375445, 0.08543770015239716, 0.10389929986558855, 0.10399900004267693, 0.10183369996957481, 0.05858980002813041, 0.14603100018575788, 0.3404496998991817, 0.2314146999269724, 0.05697640008293092, 0.18753670016303658, 0.17541150003671646, 0.14442040002904832, 0.18748309998773038, 0.04752699984237552, 0.05912910006009042, 0.16522120009176433, 0.1550748001318425, 0.02852839999832213, 0.08567690011113882, 0.07328180014155805, 0.2603563000448048, 0.37833199999295175]","[1.6386717001441866, 0.32178090000525117, 0.07781170005910099, 0.07494669989682734, 0.00028540007770061493, 0.00025839987210929394, 0.10527889989316463, 0.10113080008886755, 0.0002780999056994915, 0.0002625000197440386, 0.10400910000316799, 0.10184310004115105, 0.05860029999166727, 0.14603880001232028, 0.0002584999892860651, 0.23142309999093413, 0.056985000148415565, 0.18754420010372996, 0.17541899997740984, 0.021168199833482504, 0.18749219994060695, 0.04753679991699755, 0.05913860001601279, 0.1652293000370264, 0.15508850011974573, 0.028548100031912327, 0.08568629994988441, 0.07328970008529723, 0.0004913001321256161, 0.3783400000538677]",0,,,,,,,,,,,,,,,,,,,,,,,,,,,,,,,,,,,,,,,,,,,,test,train_y,red_square,top_left,2024-11-07_15h22.20.468,HideSeek_v1,2022.2.5,59.824677787542825,
,,,,,,,,,,,,9,0,9,0,3,0,3,0,,,,,,,,,,,,,,,,,,,,,,,,,,,conditions/schedules/train_y_first/red_square_00/top_left/instructions/Slide31.png,conditions/schedules/train_y_first/red_square_00/top_left/instructions/Audio31.wav,45.05295749986544,45.03796067978256,31,"[1.638651000102982, 0.3217702000401914, 0.07780269999057055, 0.07493629981763661, 0.11554330005310476, 0.10774239990860224, 0.10526839992962778, 0.10111090005375445, 0.08543770015239716, 0.10389929986558855, 0.10399900004267693, 0.10183369996957481, 0.05858980002813041, 0.14603100018575788, 0.3404496998991817, 0.2314146999269724, 0.05697640008293092, 0.18753670016303658, 0.17541150003671646, 0.14442040002904832, 0.18748309998773038, 0.04752699984237552, 0.05912910006009042, 0.16522120009176433, 0.1550748001318425, 0.02852839999832213, 0.08567690011113882, 0.07328180014155805, 0.2603563000448048, 0.37833199999295175, 0.28695130022242665]","[1.6386717001441866, 0.32178090000525117, 0.07781170005910099, 0.07494669989682734, 0.00028540007770061493, 0.00025839987210929394, 0.10527889989316463, 0.10113080008886755, 0.0002780999056994915, 0.0002625000197440386, 0.10400910000316799, 0.10184310004115105, 0.05860029999166727, 0.14603880001232028, 0.0002584999892860651, 0.23142309999093413, 0.056985000148415565, 0.18754420010372996, 0.17541899997740984, 0.021168199833482504, 0.18749219994060695, 0.04753679991699755, 0.05913860001601279, 0.1652293000370264, 0.15508850011974573, 0.028548100031912327, 0.08568629994988441, 0.07328970008529723, 0.0004913001321256161, 0.3783400000538677, 0.2869614001829177]",0,,,,,,,,,,,,,,,,,,,,,,,,,,,,,,,,,,,,,,,,,,,,test,train_y,red_square,top_left,2024-11-07_15h22.20.468,HideSeek_v1,2022.2.5,59.824677787542825,
,,,,,,,,,,,,9,0,9,0,,,,,,,,,,,,,,,,,,,,,,,,,,,,,,,,,,,,,,,,,17,0.7,0,0,99,1,30,0,conditions/schedules/train_y_first/red_square_00/top_left/inputTrain_1.1.xlsx,99,1,1,1,0,,,,,,,,,,,,,,,,,,,,,,,,,,,,test,train_y,red_square,top_left,2024-11-07_15h22.20.468,HideSeek_v1,2022.2.5,59.824677787542825,
1,2,9,2,7,0,-2,14,72,test_exp,train_1D_first_new,0,,,,,,,,,,,,,,,,,,,,,0,0,0,0,0,0,0,0,,,,,,,,,,,,,,,,,,,,,,,,,,,,,,,stimuli/alien_stimuli/14.png,45.58731189998798,45.58731189998798,45.58731189998798,45.58731189998798,45.58731189998798,0,0,return,0.7810418999288231,0,0,0,0,0.32,return,0.6439987001940608,,,,,,,,,,,test,train_y,red_square,top_left,2024-11-07_15h22.20.468,HideSeek_v1,2022.2.5,59.824677787542825,
1,2,9,2,7,0,-2,14,72,test_exp,train_1D_first_new,0,,,,,,,,,,,,,,,,,,,,,0,0,0,0,,,,,,,,,,,,,,,,,,,,,,,,,,,,,,,,,,,,,,,,,,,,,,,,,,,,46.2701585998293,47.42054749978706,stimuli/alien_stimuli/14.png,14,2,1,,,,,test,train_y,red_square,top_left,2024-11-07_15h22.20.468,HideSeek_v1,2022.2.5,59.824677787542825,
2,4,6,7,2,3,-4,42,72,test_exp,untrained,0,,,,,,,,,,,,,,,,,,,,,0,1,1,1,0,0,0,0,,,,,,,,,,,,,,,,,,,,,,,,,,,,,,,stimuli/alien_stimuli/42.png,47.42054749978706,47.42054749978706,47.42054749978706,47.42054749978706,47.42054749978706,0,-1,left,3.716946000000462,0,0,99,0.08,0.08,left,3.567508100066334,,,,,,,,,,,test,train_y,red_square,top_left,2024-11-07_15h22.20.468,HideSeek_v1,2022.2.5,59.824677787542825,
2,4,6,7,2,3,-4,42,72,test_exp,untrained,0,,,,,,,,,,,,,,,,,,,,,0,1,1,1,1,0,1,0,,,,,,,,,,,,,,,,,,,,,,,,,,,,,,,,51.08667039987631,51.08667039987631,51.08667039987631,51.08667039987631,51.08667039987631,-1,-1,down,0.09095960017293692,0,0,99,0.08,0.0,down,0.0009433000814169645,,,,,,,,,,,test,train_y,red_square,top_left,2024-11-07_15h22.20.468,HideSeek_v1,2022.2.5,59.824677787542825,
2,4,6,7,2,3,-4,42,72,test_exp,untrained,0,,,,,,,,,,,,,,,,,,,,,0,1,1,1,2,0,2,0,,,,,,,,,,,,,,,,,,,,,,,,,,,,,,,,51.18797229998745,51.18797229998745,51.18797229998745,51.18797229998745,51.18797229998745,-1,0,right,0.20795030007138848,0,0,99,0.16,0.0,right,0.11267890012823045,,,,,,,,,,,test,train_y,red_square,top_left,2024-11-07_15h22.20.468,HideSeek_v1,2022.2.5,59.824677787542825,
2,4,6,7,2,3,-4,42,72,test_exp,untrained,0,,,,,,,,,,,,,,,,,,,,,0,1,1,1,3,0,3,0,,,,,,,,,,,,,,,,,,,,,,,,,,,,,,,,51.40414489991963,51.40414489991963,51.40414489991963,51.40414489991963,51.40414489991963,-1,-1,left,0.17461689980700612,0,0,99,0.08,0.0,left,0.07124560000374913,,,,,,,,,,,test,train_y,red_square,top_left,2024-11-07_15h22.20.468,HideSeek_v1,2022.2.5,59.824677787542825,
2,4,6,7,2,3,-4,42,72,test_exp,untrained,0,,,,,,,,,,,,,,,,,,,,,0,1,1,1,4,0,4,0,,,,,,,,,,,,,,,,,,,,,,,,,,,,,,,,51.58855759981088,51.58855759981088,51.58855759981088,51.58855759981088,51.58855759981088,-1,-1,return,0.9733342002145946,0,0,0,0.08,0.0,return,0.881123100174591,,,,,,,,,,,test,train_y,red_square,top_left,2024-11-07_15h22.20.468,HideSeek_v1,2022.2.5,59.824677787542825,
2,4,6,7,2,3,-4,42,72,test_exp,untrained,0,,,,,,,,,,,,,,,,,,,,,0,1,1,1,,,,,,,,,,,,,,,,,,,,,,,,,,,,,,,,,,,,,,,,,,,,,,,,,,,,52.50324219977483,53.60443179984577,stimuli/alien_stimuli/14.png,14,2,2,,,,,test,train_y,red_square,top_left,2024-11-07_15h22.20.468,HideSeek_v1,2022.2.5,59.824677787542825,
3,1,6,4,5,3,-1,45,72,test_exp,untrained,0,,,,,,,,,,,,,,,,,,,,,0,2,2,2,0,0,0,0,,,,,,,,,,,,,,,,,,,,,,,,,,,,,,,stimuli/alien_stimuli/45.png,53.60443179984577,53.60443179984577,53.60443179984577,53.60443179984577,53.60443179984577,-1,-1,return,0.44979879981838167,0,0,0,-0.08,0.08,return,0.33718970022164285,,,,,,,,,,,test,train_y,red_square,top_left,2024-11-07_15h22.20.468,HideSeek_v1,2022.2.5,59.824677787542825,
3,1,6,4,5,3,-1,45,72,test_exp,untrained,0,,,,,,,,,,,,,,,,,,,,,0,2,2,2,,,,,,,,,,,,,,,,,,,,,,,,,,,,,,,,,,,,,,,,,,,,,,,,,,,,53.986380899790674,55.13761889981106,stimuli/alien_stimuli/14.png,14,2,3,,,,,test,train_y,red_square,top_left,2024-11-07_15h22.20.468,HideSeek_v1,2022.2.5,59.824677787542825,
4,0,5,0,4,0,-1,15,72,test_exp,train_1D_first_repeat,0,,,,,,,,,,,,,,,,,,,,,0,3,3,3,0,0,0,0,,,,,,,,,,,,,,,,,,,,,,,,,,,,,,,stimuli/alien_stimuli/15.png,55.13761889981106,55.13761889981106,55.13761889981106,55.13761889981106,55.13761889981106,-1,-1,return,0.33293260005302727,0,0,0,-0.16,0,return,0.17890170007012784,,,,,,,,,,,test,train_y,red_square,top_left,2024-11-07_15h22.20.468,HideSeek_v1,2022.2.5,59.824677787542825,
4,0,5,0,4,0,-1,15,72,test_exp,train_1D_first_repeat,0,,,,,,,,,,,,,,,,,,,,,0,3,3,3,,,,,,,,,,,,,,,,,,,,,,,,,,,,,,,,,,,,,,,,,,,,,,,,,,,,55.35326739982702,56.503511799965054,stimuli/alien_stimuli/14.png,14,2,4,,,,,test,train_y,red_square,top_left,2024-11-07_15h22.20.468,HideSeek_v1,2022.2.5,59.824677787542825,
5,4,9,9,4,5,-5,61,72,test_exp,untrained,0,,,,,,,,,,,,,,,,,,,,,0,4,4,4,0,0,0,0,,,,,,,,,,,,,,,,,,,,,,,,,,,,,,,stimuli/alien_stimuli/61.png,56.503511799965054,56.503511799965054,56.503511799965054,56.503511799965054,56.503511799965054,-1,-1,return,1.0678617998491973,0,0,0,0.16,0.32,return,0.908014900283888,,,,,,,,,,,test,train_y,red_square,top_left,2024-11-07_15h22.20.468,HideSeek_v1,2022.2.5,59.824677787542825,
5,4,9,9,4,5,-5,61,72,test_exp,untrained,0,,,,,,,,,,,,,,,,,,,,,0,4,4,4,,,,,,,,,,,,,,,,,,,,,,,,,,,,,,,,,,,,,,,,,,,,,,,,,,,,57.453449099790305,58.57196129998192,stimuli/alien_stimuli/14.png,14,2,5,,,,,test,train_y,red_square,top_left,2024-11-07_15h22.20.468,HideSeek_v1,2022.2.5,59.824677787542825,
6,0,7,5,4,5,-3,63,72,test_exp,untrained,0,,,,,,,,,,,,,,,,,,,,,0,5,5,5,0,0,0,0,,,,,,,,,,,,,,,,,,,,,,,,,,,,,,,stimuli/alien_stimuli/63.png,58.57196129998192,58.57196129998192,58.57196129998192,58.57196129998192,58.57196129998192,-1,-1,return,0.3342885999009013,0,0,0,-0.16,0.16,return,0.20290570007637143,,,,,,,,,,,test,train_y,red_square,top_left,2024-11-07_15h22.20.468,HideSeek_v1,2022.2.5,59.824677787542825,
6,0,7,5,4,5,-3,63,72,test_exp,untrained,0,,,,,,,,,,,,,,,,,,,,,0,5,5,5,,,,,,,,,,,,,,,,,,,,,,,,,,,,,,,,,,,,,,,,,,,,,,,,,,,,58.820955199887976,59.97067939979024,stimuli/alien_stimuli/14.png,14,2,6,,,,,test,train_y,red_square,top_left,2024-11-07_15h22.20.468,HideSeek_v1,2022.2.5,59.824677787542825,
7,4,5,6,0,2,-5,31,72,test_exp,untrained,0,,,,,,,,,,,,,,,,,,,,,0,6,6,6,0,0,0,0,,,,,,,,,,,,,,,,,,,,,,,,,,,,,,,stimuli/alien_stimuli/31.png,59.97067939979024,59.97067939979024,59.97067939979024,59.97067939979024,59.97067939979024,-1,-1,return,0.3487211999017745,0,0,0,0.16,0,return,0.19338550022803247,,,,,,,,,,,test,train_y,red_square,top_left,2024-11-07_15h22.20.468,HideSeek_v1,2022.2.5,59.824677787542825,
7,4,5,6,0,2,-5,31,72,test_exp,untrained,0,,,,,,,,,,,,,,,,,,,,,0,6,6,6,,,,,,,,,,,,,,,,,,,,,,,,,,,,,,,,,,,,,,,,,,,,,,,,,,,,60.20326179987751,61.33816869999282,stimuli/alien_stimuli/14.png,14,2,7,,,,,test,train_y,red_square,top_left,2024-11-07_15h22.20.468,HideSeek_v1,2022.2.5,59.824677787542825,
8,2,6,5,3,3,-3,43,72,test_exp,train_2D_repeat,0,,,,,,,,,,,,,,,,,,,,,0,7,7,7,0,0,0,0,,,,,,,,,,,,,,,,,,,,,,,,,,,,,,,stimuli/alien_stimuli/43.png,61.33816869999282,61.33816869999282,61.33816869999282,61.33816869999282,61.33816869999282,-1,-1,return,0.20081609999760985,0,0,0,0,0.08,return,0.054431200260296464,,,,,,,,,,,test,train_y,red_square,top_left,2024-11-07_15h22.20.468,HideSeek_v1,2022.2.5,59.824677787542825,
8,2,6,5,3,3,-3,43,72,test_exp,train_2D_repeat,0,,,,,,,,,,,,,,,,,,,,,0,7,7,7,,,,,,,,,,,,,,,,,,,,,,,,,,,,,,,,,,,,,,,,,,,,,,,,,,,,61.43684139987454,62.5872558997944,stimuli/alien_stimuli/14.png,14,2,8,,,,,test,train_y,red_square,top_left,2024-11-07_15h22.20.468,HideSeek_v1,2022.2.5,59.824677787542825,
9,4,8,8,3,4,-5,51,72,test_exp,untrained,0,,,,,,,,,,,,,,,,,,,,,0,8,8,8,0,0,0,0,,,,,,,,,,,,,,,,,,,,,,,,,,,,,,,stimuli/alien_stimuli/51.png,62.5872558997944,62.5872558997944,62.5872558997944,62.5872558997944,62.5872558997944,-1,-1,return,0.3661593000870198,0,0,0,0.16,0.24,return,0.2124114001635462,,,,,,,,,,,test,train_y,red_square,top_left,2024-11-07_15h22.20.468,HideSeek_v1,2022.2.5,59.824677787542825,
9,4,8,8,3,4,-5,51,72,test_exp,untrained,0,,,,,,,,,,,,,,,,,,,,,0,8,8,8,,,,,,,,,,,,,,,,,,,,,,,,,,,,,,,,,,,,,,,,,,,,,,,,,,,,62.83652039989829,64.0043077999726,stimuli/alien_stimuli/14.png,14,2,9,,,,,test,train_y,red_square,top_left,2024-11-07_15h22.20.468,HideSeek_v1,2022.2.5,59.824677787542825,
10,1,5,2,0,1,-5,21,72,test_exp,train_2D_repeat,0,,,,,,,,,,,,,,,,,,,,,0,9,9,9,0,0,0,0,,,,,,,,,,,,,,,,,,,,,,,,,,,,,,,stimuli/alien_stimuli/21.png,64.0043077999726,64.0043077999726,64.0043077999726,64.0043077999726,64.0043077999726,-1,-1,return,0.18422110006213188,0,0,0,-0.08,0,return,0.015927100088447332,,,,,,,,,,,test,train_y,red_square,top_left,2024-11-07_15h22.20.468,HideSeek_v1,2022.2.5,59.824677787542825,
10,1,5,2,0,1,-5,21,72,test_exp,train_2D_repeat,0,,,,,,,,,,,,,,,,,,,,,0,9,9,9,,,,,,,,,,,,,,,,,,,,,,,,,,,,,,,,,,,,,,,,,,,,,,,,,,,,64.05340579990298,65.18735109991394,stimuli/alien_stimuli/14.png,14,2,10,,,,,test,train_y,red_square,top_left,2024-11-07_15h22.20.468,HideSeek_v1,2022.2.5,59.824677787542825,
11,3,5,7,3,4,-2,54,72,test_exp,train_2D_repeat,0,,,,,,,,,,,,,,,,,,,,,0,10,10,10,0,0,0,0,,,,,,,,,,,,,,,,,,,,,,,,,,,,,,,stimuli/alien_stimuli/54.png,65.18735109991394,65.18735109991394,65.18735109991394,65.18735109991394,65.18735109991394,-1,-1,return,0.18238079990260303,0,0,0,0.08,0,return,0.049719100119546056,,,,,,,,,,,test,train_y,red_square,top_left,2024-11-07_15h22.20.468,HideSeek_v1,2022.2.5,59.824677787542825,
11,3,5,7,3,4,-2,54,72,test_exp,train_2D_repeat,0,,,,,,,,,,,,,,,,,,,,,0,10,10,10,,,,,,,,,,,,,,,,,,,,,,,,,,,,,,,,,,,,,,,,,,,,,,,,,,,,65.27001719991677,66.4208997997921,stimuli/alien_stimuli/14.png,14,2,11,,,,,test,train_y,red_square,top_left,2024-11-07_15h22.20.468,HideSeek_v1,2022.2.5,59.824677787542825,
12,2,8,3,8,1,0,26,72,test_exp,train_1D_sec_new,0,,,,,,,,,,,,,,,,,,,,,0,11,11,11,0,0,0,0,,,,,,,,,,,,,,,,,,,,,,,,,,,,,,,stimuli/alien_stimuli/26.png,66.4208997997921,66.4208997997921,66.4208997997921,66.4208997997921,66.4208997997921,-1,-1,return,0.2831831001676619,0,0,0,0,0.24,return,0.11966960015706718,,,,,,,,,,,test,train_y,red_square,top_left,2024-11-07_15h22.20.468,HideSeek_v1,2022.2.5,59.824677787542825,
12,2,8,3,8,1,0,26,72,test_exp,train_1D_sec_new,0,,,,,,,,,,,,,,,,,,,,,0,11,11,11,,,,,,,,,,,,,,,,,,,,,,,,,,,,,,,,,,,,,,,,,,,,,,,,,,,,66.58716629981063,67.73726389999501,stimuli/alien_stimuli/14.png,14,2,12,,,,,test,train_y,red_square,top_left,2024-11-07_15h22.20.468,HideSeek_v1,2022.2.5,59.824677787542825,
13,1,7,1,3,0,-4,12,72,test_exp,train_1D_first_new,0,,,,,,,,,,,,,,,,,,,,,0,12,12,12,0,0,0,0,,,,,,,,,,,,,,,,,,,,,,,,,,,,,,,stimuli/alien_stimuli/12.png,67.73726389999501,67.73726389999501,67.73726389999501,67.73726389999501,67.73726389999501,-1,-1,return,0.19941830006428063,0,0,0,-0.08,0.16,return,0.05047390004619956,,,,,,,,,,,test,train_y,red_square,top_left,2024-11-07_15h22.20.468,HideSeek_v1,2022.2.5,59.824677787542825,
13,1,7,1,3,0,-4,12,72,test_exp,train_1D_first_new,0,,,,,,,,,,,,,,,,,,,,,0,12,12,12,,,,,,,,,,,,,,,,,,,,,,,,,,,,,,,,,,,,,,,,,,,,,,,,,,,,67.82020129985176,68.97096109995618,stimuli/alien_stimuli/14.png,14,2,13,,,,,test,train_y,red_square,top_left,2024-11-07_15h22.20.468,HideSeek_v1,2022.2.5,59.824677787542825,
14,2,8,5,8,3,0,46,72,test_exp,untrained_1D_sec_leftout,0,,,,,,,,,,,,,,,,,,,,,0,13,13,13,0,0,0,0,,,,,,,,,,,,,,,,,,,,,,,,,,,,,,,stimuli/alien_stimuli/46.png,68.97096109995618,68.97096109995618,68.97096109995618,68.97096109995618,68.97096109995618,-1,-1,return,0.3657470000907779,0,0,0,0,0.24,return,0.20993890007957816,,,,,,,,,,,test,train_y,red_square,top_left,2024-11-07_15h22.20.468,HideSeek_v1,2022.2.5,59.824677787542825,
14,2,8,5,8,3,0,46,72,test_exp,untrained_1D_sec_leftout,0,,,,,,,,,,,,,,,,,,,,,0,13,13,13,,,,,,,,,,,,,,,,,,,,,,,,,,,,,,,,,,,,,,,,,,,,,,,,,,,,69.2199563998729,70.37068299995735,stimuli/alien_stimuli/14.png,14,2,14,,,,,test,train_y,red_square,top_left,2024-11-07_15h22.20.468,HideSeek_v1,2022.2.5,59.824677787542825,
15,2,9,2,9,0,0,16,72,test_exp,train_1D_sec_repeat,0,,,,,,,,,,,,,,,,,,,,,0,14,14,14,0,0,0,0,,,,,,,,,,,,,,,,,,,,,,,,,,,,,,,stimuli/alien_stimuli/16.png,70.37068299995735,70.37068299995735,70.37068299995735,70.37068299995735,70.37068299995735,-1,-1,return,0.3325810001697391,1,0,1,0,0.32,return,0.18200630019418895,,,,,,,,,,,test,train_y,red_square,top_left,2024-11-07_15h22.20.468,HideSeek_v1,2022.2.5,59.824677787542825,
15,2,9,2,9,0,0,16,72,test_exp,train_1D_sec_repeat,0,,,,,,,,,,,,,,,,,,,,,0,14,14,14,,,,,,,,,,,,,,,,,,,,,,,,,,,,,,,,,,,,,,,,,,,,,,,,,,,,70.58653389988467,71.72046979982406,stimuli/alien_stimuli/14.png,14,2,15,,,,,test,train_y,red_square,top_left,2024-11-07_15h22.20.468,HideSeek_v1,2022.2.5,59.824677787542825,
16,1,9,3,8,2,-1,35,72,test_exp,untrained,0,,,,,,,,,,,,,,,,,,,,,0,15,15,15,0,0,0,0,,,,,,,,,,,,,,,,,,,,,,,,,,,,,,,stimuli/alien_stimuli/35.png,71.72046979982406,71.72046979982406,71.72046979982406,71.72046979982406,71.72046979982406,-1,-1,return,0.21549870003946126,1,0,0,-0.08,0.32,return,0.07875330024398863,,,,,,,,,,,test,train_y,red_square,top_left,2024-11-07_15h22.20.468,HideSeek_v1,2022.2.5,59.824677787542825,
16,1,9,3,8,2,-1,35,72,test_exp,untrained,0,,,,,,,,,,,,,,,,,,,,,0,15,15,15,,,,,,,,,,,,,,,,,,,,,,,,,,,,,,,,,,,,,,,,,,,,,,,,,,,,71.83688459987752,72.98724129982293,stimuli/alien_stimuli/14.png,14,2,16,,,,,test,train_y,red_square,top_left,2024-11-07_15h22.20.468,HideSeek_v1,2022.2.5,59.824677787542825,
17,3,7,8,3,5,-4,62,72,test_exp,untrained,0,,,,,,,,,,,,,,,,,,,,,0,16,16,16,0,0,0,0,,,,,,,,,,,,,,,,,,,,,,,,,,,,,,,stimuli/alien_stimuli/62.png,72.98724129982293,72.98724129982293,72.98724129982293,72.98724129982293,72.98724129982293,-1,-1,return,0.5970844000112265,1,0,0,0.08,0.16,return,0.4452262001577765,,,,,,,,,,,test,train_y,red_square,top_left,2024-11-07_15h22.20.468,HideSeek_v1,2022.2.5,59.824677787542825,
17,3,7,8,3,5,-4,62,72,test_exp,untrained,0,,,,,,,,,,,,,,,,,,,,,0,16,16,16,,,,,,,,,,,,,,,,,,,,,,,,,,,,,,,,,,,,,,,,,,,,,,,,,,,,73.4703563998919,74.62093309988268,stimuli/alien_stimuli/14.png,14,2,17,,,,,test,train_y,red_square,top_left,2024-11-07_15h22.20.468,HideSeek_v1,2022.2.5,59.824677787542825,
18,3,9,7,5,4,-4,52,72,test_exp,untrained,1,,,,,,,,,,,,,,,,,,,,,0,17,17,17,0,0,0,0,,,,,,,,,,,,,,,,,,,,,,,,,,,,,,,stimuli/alien_stimuli/52.png,74.62093309988268,74.62093309988268,74.62093309988268,74.62093309988268,74.62093309988268,-1,-1,return,0.43151859985664487,1,0,0,0.08,0.32,return,0.2739152000285685,,,,,,,,,,,test,train_y,red_square,top_left,2024-11-07_15h22.20.468,HideSeek_v1,2022.2.5,59.824677787542825,
1,2,9,2,7,0,-2,14,72,test_exp,train_1D_first_new,0,,,,,,,,,,,,,,,,,,,,,0,17,17,17,,,,,0,0,0,0,,,,,,,,,,,,,,,,,,,,,,,,,,,,,,,,,,,,,,,,,,,,74.93778159981593,75.98473129980266,,,,,75.98473129980266,75.98473129980266,space,32.69906840007752,test,train_y,red_square,top_left,2024-11-07_15h22.20.468,HideSeek_v1,2022.2.5,59.824677787542825,
2,4,6,7,2,3,-4,42,72,test_exp,untrained,0,,,,,,,,,,,,,,,,,,,,,0,17,17,17,,,,,0,1,1,1,,,,,,,,,,,,,,,,,,,,,,,,,,,,,,,,,,,,,,,,,,,,,,,,,,108.70265529979952,108.70265529979952,space,0.2688603999558836,test,train_y,red_square,top_left,2024-11-07_15h22.20.468,HideSeek_v1,2022.2.5,59.824677787542825,
3,1,6,4,5,3,-1,45,72,test_exp,untrained,0,,,,,,,,,,,,,,,,,,,,,0,17,17,17,,,,,0,2,2,2,,,,,,,,,,,,,,,,,,,,,,,,,,,,,,,,,,,,,,,,,,,,,,,,,,109.00307539990172,109.00307539990172,space,0.1280936999246478,test,train_y,red_square,top_left,2024-11-07_15h22.20.468,HideSeek_v1,2022.2.5,59.824677787542825,
4,0,5,0,4,0,-1,15,72,test_exp,train_1D_first_repeat,0,,,,,,,,,,,,,,,,,,,,,0,17,17,17,,,,,0,3,3,3,,,,,,,,,,,,,,,,,,,,,,,,,,,,,,,,,,,,,,,,,,,,,,,,,,109.15331299998797,109.15331299998797,space,1.6972251001279801,test,train_y,red_square,top_left,2024-11-07_15h22.20.468,HideSeek_v1,2022.2.5,59.824677787542825,
5,4,9,9,4,5,-5,61,72,test_exp,untrained,0,,,,,,,,,,,,,,,,,,,,,0,17,17,17,,,,,0,4,4,4,,,,,,,,,,,,,,,,,,,,,,,,,,,,,,,,,,,,,,,,,,,,,,,,,,110.86974939983338,110.86974939983338,space,0.15822330000810325,test,train_y,red_square,top_left,2024-11-07_15h22.20.468,HideSeek_v1,2022.2.5,59.824677787542825,
6,0,7,5,4,5,-3,63,72,test_exp,untrained,0,,,,,,,,,,,,,,,,,,,,,0,17,17,17,,,,,0,5,5,5,,,,,,,,,,,,,,,,,,,,,,,,,,,,,,,,,,,,,,,,,,,,,,,,,,111.05309750000015,111.05309750000015,space,0.1040406001266092,test,train_y,red_square,top_left,2024-11-07_15h22.20.468,HideSeek_v1,2022.2.5,59.824677787542825,
7,4,5,6,0,2,-5,31,72,test_exp,untrained,0,,,,,,,,,,,,,,,,,,,,,0,17,17,17,,,,,0,6,6,6,,,,,,,,,,,,,,,,,,,,,,,,,,,,,,,,,,,,,,,,,,,,,,,,,,111.18650859990157,111.18650859990157,space,0.10897099995054305,test,train_y,red_square,top_left,2024-11-07_15h22.20.468,HideSeek_v1,2022.2.5,59.824677787542825,
8,2,6,5,3,3,-3,43,72,test_exp,train_2D_repeat,0,,,,,,,,,,,,,,,,,,,,,0,17,17,17,,,,,0,7,7,7,,,,,,,,,,,,,,,,,,,,,,,,,,,,,,,,,,,,,,,,,,,,,,,,,,111.31958869984373,111.31958869984373,space,0.2136005002539605,test,train_y,red_square,top_left,2024-11-07_15h22.20.468,HideSeek_v1,2022.2.5,59.824677787542825,
9,4,8,8,3,4,-5,51,72,test_exp,untrained,0,,,,,,,,,,,,,,,,,,,,,0,17,17,17,,,,,0,8,8,8,,,,,,,,,,,,,,,,,,,,,,,,,,,,,,,,,,,,,,,,,,,,,,,,,,111.55303549999371,111.55303549999371,space,1.5285253999754786,test,train_y,red_square,top_left,2024-11-07_15h22.20.468,HideSeek_v1,2022.2.5,59.824677787542825,
10,1,5,2,0,1,-5,21,72,test_exp,train_2D_repeat,0,,,,,,,,,,,,,,,,,,,,,0,17,17,17,,,,,0,9,9,9,,,,,,,,,,,,,,,,,,,,,,,,,,,,,,,,,,,,,,,,,,,,,,,,,,113.1032055998221,113.1032055998221,space,0.2419135000091046,test,train_y,red_square,top_left,2024-11-07_15h22.20.468,HideSeek_v1,2022.2.5,59.824677787542825,
11,3,5,7,3,4,-2,54,72,test_exp,train_2D_repeat,0,,,,,,,,,,,,,,,,,,,,,0,17,17,17,,,,,0,10,10,10,,,,,,,,,,,,,,,,,,,,,,,,,,,,,,,,,,,,,,,,,,,,,,,,,,113.36932869977318,113.36932869977318,space,3.9818010001908988,test,train_y,red_square,top_left,2024-11-07_15h22.20.468,HideSeek_v1,2022.2.5,59.824677787542825,
12,2,8,3,8,1,0,26,72,test_exp,train_1D_sec_new,0,,,,,,,,,,,,,,,,,,,,,0,17,17,17,,,,,0,11,11,11,,,,,,,,,,,,,,,,,,,,,,,,,,,,,,,,,,,,,,,,,,,,,,,,,,117.36949449987151,117.36949449987151,space,0.1496061000507325,test,train_y,red_square,top_left,2024-11-07_15h22.20.468,HideSeek_v1,2022.2.5,59.824677787542825,
13,1,7,1,3,0,-4,12,72,test_exp,train_1D_first_new,0,,,,,,,,,,,,,,,,,,,,,0,17,17,17,,,,,0,12,12,12,,,,,,,,,,,,,,,,,,,,,,,,,,,,,,,,,,,,,,,,,,,,,,,,,,117.53654699982144,117.53654699982144,space,0.17306010029278696,test,train_y,red_square,top_left,2024-11-07_15h22.20.468,HideSeek_v1,2022.2.5,59.824677787542825,
14,2,8,5,8,3,0,46,72,test_exp,untrained_1D_sec_leftout,0,,,,,,,,,,,,,,,,,,,,,0,17,17,17,,,,,0,13,13,13,,,,,,,,,,,,,,,,,,,,,,,,,,,,,,,,,,,,,,,,,,,,,,,,,,117.73691429989412,117.73691429989412,space,0.1423284001648426,test,train_y,red_square,top_left,2024-11-07_15h22.20.468,HideSeek_v1,2022.2.5,59.824677787542825,
15,2,9,2,9,0,0,16,72,test_exp,train_1D_sec_repeat,0,,,,,,,,,,,,,,,,,,,,,0,17,17,17,,,,,0,14,14,14,,,,,,,,,,,,,,,,,,,,,,,,,,,,,,,,,,,,,,,,,,,,,,,,,,117.90320539986715,117.90320539986715,space,0.5434692001435906,test,train_y,red_square,top_left,2024-11-07_15h22.20.468,HideSeek_v1,2022.2.5,59.824677787542825,
16,1,9,3,8,2,-1,35,72,test_exp,untrained,0,,,,,,,,,,,,,,,,,,,,,0,17,17,17,,,,,0,15,15,15,,,,,,,,,,,,,,,,,,,,,,,,,,,,,,,,,,,,,,,,,,,,,,,,,,118.46940349997021,118.46940349997021,space,0.2497928999364376,test,train_y,red_square,top_left,2024-11-07_15h22.20.468,HideSeek_v1,2022.2.5,59.824677787542825,
17,3,7,8,3,5,-4,62,72,test_exp,untrained,0,,,,,,,,,,,,,,,,,,,,,0,17,17,17,,,,,0,16,16,16,,,,,,,,,,,,,,,,,,,,,,,,,,,,,,,,,,,,,,,,,,,,,,,,,,118.73609269992448,118.73609269992448,space,0.21099960012361407,test,train_y,red_square,top_left,2024-11-07_15h22.20.468,HideSeek_v1,2022.2.5,59.824677787542825,
,,,,,,,,,,,,,,,,,,,,,,,,,,,,,,,,,,,,,,,,,,,,,,,,,,,,,,,,,,,,,,,,,,,,,,,,,,,,,,,,,,,,,,,,,,,,,119.18622279982083,119.18622279982083,,,,,,,,,,,
