trialInstr,x_fixStart,y_fixStart,x_corrSteps,y_corrSteps,x_nrSteps,y_nrSteps,alienID,trialLength,version,trialTrain,praclen,beforeExpLoop.thisRepN,beforeExpLoop.thisTrialN,beforeExpLoop.thisN,beforeExpLoop.thisIndex,mini_instr_trials.thisRepN,mini_instr_trials.thisTrialN,mini_instr_trials.thisN,mini_instr_trials.thisIndex,instrLoop.thisRepN,instrLoop.thisTrialN,instrLoop.thisN,instrLoop.thisIndex,repeat_prac.thisRepN,repeat_prac.thisTrialN,repeat_prac.thisN,repeat_prac.thisIndex,trainLoop.thisRepN,trainLoop.thisTrialN,trainLoop.thisN,trainLoop.thisIndex,moveLoop_train.thisRepN,moveLoop_train.thisTrialN,moveLoop_train.thisN,moveLoop_train.thisIndex,start_all_time,url,slideStim,audioStim,slides.started,sounds.started,nextButton.numClicks,nextButton.timesOn,nextButton.timesOff,prev_but.numClicks,prev_but.timesOn,prev_but.timesOff,alienStim,instrFile,alienStim_instr,gridImage_instr.started,startPos_3.started,key_instr.started,alienImage_3.started,sounds_1.started,key_instr.keys,key_instr.rt,all_x,all_y,FBy_corrSteps,FBy_fixStart,FBx_corrSteps,FBx_fixStart,FBy_pathSize_check,FBx_pathSize_check,gridImage_9.started,alienImageFB_3.started,startPosFB_3.started,keyFB_3.started,pathLine_ydir_2.started,pathLine_xdir_2.started,alienFace_3.started,sounds_2.started,RTFB_instr,keyFB_3.keys,keyFB_3.rt,draw_alienStim,draw_alienID,test_x,nrepcount,perfthres,percthres,earlierperf,earlystop,nextPrac,fileidx,praclen,saveACC_train,pracFile,nextPrac_train,addNrep,fileidx_endr,repExp,showearly,gridImage_4.started,startPos.started,movePos.started,key_resp.started,alienImage.started,buttonPress_train,RTchoice_train,cumAcctrain,aCorr,saveACC_choice,corrAns,x_movePos_end,y_movePos_end,key_resp.keys,key_resp.rt,wLy_dir,wLx_dir,x_movePos,y_movePos,text_2.started,text_2.stopped,aft_x_corrPos,aft_y_corrPos,y_pathSize_check,x_pathSize_check,y_pathdirY,x_pathdirY,x_pathdirX,x_corrPos,y_corrPos,gridImage_6.started,alienImageFB_2.started,startPosFB_2.started,movePosFB_2.started,keyFB_2.started,pathLine_xdir.started,pathLine_ydir.started,alienFace.started,sounds_4.started,RT_FBtrain,keyFB_2.keys,keyFB_2.rt,participant,train_first,direction of x,starting corner,date,expName,psychopyVersion,frameRate,
,,,,,,,,,,,,0,0,0,0,0,0,0,0,,,,,,,,,,,,,,,,,start_all_time,testround,conditions/schedules/train_y_first/x_increasing_steps/top_left/instructions/Slide1.png,conditions/schedules/train_y_first/x_increasing_steps/top_left/instructions/Audio1.wav,262.0090404000366,261.96896377037046,1,[8.2266660000314],[8.226683199987747],0,,,,,,,,,,,,,,,,,,,,,,,,,,,,,,,,,,,,,,,,,,,,,,,,,,,,,,,,,,,,,,,,,,,,,,,,,,,,,,,,,,,,,,,,,,,,test,train_y,x_increasing_steps,top_left,2024-10-30_10h59.53.521,HideSeek_v1,2022.2.5,59.9070362506841,
,,,,,,,,,,,,0,0,0,0,1,0,1,0,,,,,,,,,,,,,,,,,,,conditions/schedules/train_y_first/x_increasing_steps/top_left/instructions/Slide2.png,conditions/schedules/train_y_first/x_increasing_steps/top_left/instructions/Audio2.wav,270.3255119000096,270.30806159001077,2,"[8.2266660000314, 0.8059975999640301]","[0.0002682000049389899, 0.8060141999740154]",0,,,,,,,,,,,,,,,,,,,,,,,,,,,,,,,,,,,,,,,,,,,,,,,,,,,,,,,,,,,,,,,,,,,,,,,,,,,,,,,,,,,,,,,,,,,,test,train_y,x_increasing_steps,top_left,2024-10-30_10h59.53.521,HideSeek_v1,2022.2.5,59.9070362506841,
,,,,,,,,,,,,0,0,0,0,2,0,2,0,,,,,,,,,,,,,,,,,,,conditions/schedules/train_y_first/x_increasing_steps/top_left/instructions/Slide3.png,conditions/schedules/train_y_first/x_increasing_steps/top_left/instructions/Audio3.wav,271.20974700001534,271.20833362004487,3,"[8.2266660000314, 0.8059975999640301, 1.1993462999816984]","[0.0002682000049389899, 0.09808610001346096, 1.1993558999965899]",0,,,,,,,,,,,,,,,,,,,,,,,,,,,,,,,,,,,,,,,,,,,,,,,,,,,,,,,,,,,,,,,,,,,,,,,,,,,,,,,,,,,,,,,,,,,,test,train_y,x_increasing_steps,top_left,2024-10-30_10h59.53.521,HideSeek_v1,2022.2.5,59.9070362506841,
,,,,,,,,,,,,0,0,0,0,3,0,3,0,,,,,,,,,,,,,,,,,,,conditions/schedules/train_y_first/x_increasing_steps/top_left/instructions/Slide4.png,conditions/schedules/train_y_first/x_increasing_steps/top_left/instructions/Audio4.wav,272.4924556000042,272.4750186500023,4,"[8.2266660000314, 0.8059975999640301, 1.1993462999816984, 0.6055027000256814]","[0.0002682000049389899, 0.09808610001346096, 1.1993558999965899, 0.6055143999983557]",0,,,,,,,,,,,,,,,,,,,,,,,,,,,,,,,,,,,,,,,,,,,,,,,,,,,,,,,,,,,,,,,,,,,,,,,,,,,,,,,,,,,,,,,,,,,,test,train_y,x_increasing_steps,top_left,2024-10-30_10h59.53.521,HideSeek_v1,2022.2.5,59.9070362506841,
,,,,,,,,,,,,0,0,0,0,4,0,4,0,,,,,,,,,,,,,,,,,,,conditions/schedules/train_y_first/x_increasing_steps/top_left/instructions/Slide5.png,conditions/schedules/train_y_first/x_increasing_steps/top_left/instructions/Audio5.wav,273.1611899000127,273.1584359499975,5,"[8.2266660000314, 0.8059975999640301, 1.1993462999816984, 0.6055027000256814, 0.3321735999779776]","[0.0002682000049389899, 0.09808610001346096, 1.1993558999965899, 0.016827700019348413, 0.33218279998982325]",0,,,,,,,,,,,,,,,,,,,,,,,,,,,,,,,,,,,,,,,,,,,,,,,,,,,,,,,,,,,,,,,,,,,,,,,,,,,,,,,,,,,,,,,,,,,,test,train_y,x_increasing_steps,top_left,2024-10-30_10h59.53.521,HideSeek_v1,2022.2.5,59.9070362506841,
,,,,,,,,,,,,0,0,0,0,5,0,5,0,,,,,,,,,,,,,,,,,,,conditions/schedules/train_y_first/x_increasing_steps/top_left/instructions/Slide6.png,conditions/schedules/train_y_first/x_increasing_steps/top_left/instructions/Audio6.wav,273.5594545000349,273.54251658002613,6,"[8.2266660000314, 0.8059975999640301, 1.1993462999816984, 0.6055027000256814, 0.3321735999779776, 0.2736960999900475]","[0.0002682000049389899, 0.09808610001346096, 1.1993558999965899, 0.016827700019348413, 0.023729700013063848, 0.2737051000003703]",0,,,,,,,,,,,,,,,,,,,,,,,,,,,,,,,,,,,,,,,,,,,,,,,,,,,,,,,,,,,,,,,,,,,,,,,,,,,,,,,,,,,,,,,,,,,,test,train_y,x_increasing_steps,top_left,2024-10-30_10h59.53.521,HideSeek_v1,2022.2.5,59.9070362506841,
,,,,,,,,,,,,0,0,0,0,6,0,6,0,,,,,,,,,,,,,,,,,,,conditions/schedules/train_y_first/x_increasing_steps/top_left/instructions/Slide7.png,conditions/schedules/train_y_first/x_increasing_steps/top_left/instructions/Audio7.wav,273.8922120000352,273.875163980003,7,"[8.2266660000314, 0.8059975999640301, 1.1993462999816984, 0.6055027000256814, 0.3321735999779776, 0.2736960999900475, 0.2054206000175327]","[0.0002682000049389899, 0.09808610001346096, 1.1993558999965899, 0.016827700019348413, 0.023729700013063848, 0.021855700004380196, 0.2054292000248097]",0,,,,,,,,,,,,,,,,,,,,,,,,,,,,,,,,,,,,,,,,,,,,,,,,,,,,,,,,,,,,,,,,,,,,,,,,,,,,,,,,,,,,,,,,,,,,test,train_y,x_increasing_steps,top_left,2024-10-30_10h59.53.521,HideSeek_v1,2022.2.5,59.9070362506841,
,,,,,,,,,,,,0,0,0,0,7,0,7,0,,,,,,,,,,,,,,,,,,,conditions/schedules/train_y_first/x_increasing_steps/top_left/instructions/Slide8.png,conditions/schedules/train_y_first/x_increasing_steps/top_left/instructions/Audio8.wav,274.1588595000212,274.1417469800217,8,"[8.2266660000314, 0.8059975999640301, 1.1993462999816984, 0.6055027000256814, 0.3321735999779776, 0.2736960999900475, 0.2054206000175327, 0.37329209997551516]","[0.0002682000049389899, 0.09808610001346096, 1.1993558999965899, 0.016827700019348413, 0.023729700013063848, 0.021855700004380196, 0.03992369998013601, 0.37330769997788593]",0,,,,,,,,,,,,,,,,,,,,,,,,,,,,,,,,,,,,,,,,,,,,,,,,,,,,,,,,,,,,,,,,,,,,,,,,,,,,,,,,,,,,,,,,,,,,test,train_y,x_increasing_steps,top_left,2024-10-30_10h59.53.521,HideSeek_v1,2022.2.5,59.9070362506841,
,,,,,,,,,,,,0,0,0,0,8,0,8,0,,,,,,,,,,,,,,,,,,,conditions/schedules/train_y_first/x_increasing_steps/top_left/instructions/Slide9.png,conditions/schedules/train_y_first/x_increasing_steps/top_left/instructions/Audio9.wav,274.5918574000243,274.57492098002695,9,"[8.2266660000314, 0.8059975999640301, 1.1993462999816984, 0.6055027000256814, 0.3321735999779776, 0.2736960999900475, 0.2054206000175327, 0.37329209997551516, 0.3245998999918811]","[0.0002682000049389899, 0.09808610001346096, 1.1993558999965899, 0.016827700019348413, 0.023729700013063848, 0.021855700004380196, 0.03992369998013601, 0.00028879998717457056, 0.324611600022763]",0,,,,,,,,,,,,,,,,,,,,,,,,,,,,,,,,,,,,,,,,,,,,,,,,,,,,,,,,,,,,,,,,,,,,,,,,,,,,,,,,,,,,,,,,,,,,test,train_y,x_increasing_steps,top_left,2024-10-30_10h59.53.521,HideSeek_v1,2022.2.5,59.9070362506841,
,,,,,,,,,,,,0,0,0,0,9,0,9,0,,,,,,,,,,,,,,,,,,,conditions/schedules/train_y_first/x_increasing_steps/top_left/instructions/Slide10.png,conditions/schedules/train_y_first/x_increasing_steps/top_left/instructions/Audio10.wav,274.9586108000367,274.9418611100409,10,"[8.2266660000314, 0.8059975999640301, 1.1993462999816984, 0.6055027000256814, 0.3321735999779776, 0.2736960999900475, 0.2054206000175327, 0.37329209997551516, 0.3245998999918811, 3.4388050000416115]","[0.0002682000049389899, 0.09808610001346096, 1.1993558999965899, 0.016827700019348413, 0.023729700013063848, 0.021855700004380196, 0.03992369998013601, 0.00028879998717457056, 0.054605200013611466, 3.4388204000424594]",0,,,,,,,,,,,,,,,,,,,,,,,,,,,,,,,,,,,,,,,,,,,,,,,,,,,,,,,,,,,,,,,,,,,,,,,,,,,,,,,,,,,,,,,,,,,,test,train_y,x_increasing_steps,top_left,2024-10-30_10h59.53.521,HideSeek_v1,2022.2.5,59.9070362506841,
,,,,,,,,,,,,0,0,0,0,10,0,10,0,,,,,,,,,,,,,,,,,,,conditions/schedules/train_y_first/x_increasing_steps/top_left/instructions/Slide11.png,conditions/schedules/train_y_first/x_increasing_steps/top_left/instructions/Audio11.wav,278.4595915999962,278.4425959800137,11,"[8.2266660000314, 0.8059975999640301, 1.1993462999816984, 0.6055027000256814, 0.3321735999779776, 0.2736960999900475, 0.2054206000175327, 0.37329209997551516, 0.3245998999918811, 3.4388050000416115, 5.708007099980023]","[0.0002682000049389899, 0.09808610001346096, 1.1993558999965899, 0.016827700019348413, 0.023729700013063848, 0.021855700004380196, 0.03992369998013601, 0.00028879998717457056, 0.054605200013611466, 0.0002410999732092023, 5.708016299991868]",0,,,,,,,,,,,,,,,,,,,,,,,,,,,,,,,,,,,,,,,,,,,,,,,,,,,,,,,,,,,,,,,,,,,,,,,,,,,,,,,,,,,,,,,,,,,,test,train_y,x_increasing_steps,top_left,2024-10-30_10h59.53.521,HideSeek_v1,2022.2.5,59.9070362506841,
,,,,,,,,,,,,0,0,0,0,11,0,11,0,,,,,,,,,,,,,,,,,,,conditions/schedules/train_y_first/x_increasing_steps/top_left/instructions/Slide12.png,conditions/schedules/train_y_first/x_increasing_steps/top_left/instructions/Audio12.wav,284.2585722000222,284.2416085200384,12,"[8.2266660000314, 0.8059975999640301, 1.1993462999816984, 0.6055027000256814, 0.3321735999779776, 0.2736960999900475, 0.2054206000175327, 0.37329209997551516, 0.3245998999918811, 3.4388050000416115, 5.708007099980023, 2.954056699993089]","[0.0002682000049389899, 0.09808610001346096, 1.1993558999965899, 0.016827700019348413, 0.023729700013063848, 0.021855700004380196, 0.03992369998013601, 0.00028879998717457056, 0.054605200013611466, 0.0002410999732092023, 0.020005200000014156, 2.9540666000102647]",0,,,,,,,,,,,,,,,,,,,,,,,,,,,,,,,,,,,,,,,,,,,,,,,,,,,,,,,,,,,,,,,,,,,,,,,,,,,,,,,,,,,,,,,,,,,,test,train_y,x_increasing_steps,top_left,2024-10-30_10h59.53.521,HideSeek_v1,2022.2.5,59.9070362506841,
1,2,3,2,8,0,5,11,2,instr_dim1_1,,,0,0,0,0,,,,,0,0,0,0,,,,,,,,,,,,,,,,,,,,,,,,,stimuli/alien_stimuli/11.png,conditions/schedules/train_y_first/x_increasing_steps/top_left/inputInstr_1.xlsx,stimuli/alien_stimuli/11.png,287.32539840001846,287.32539840001846,287.32539840001846,287.32539840001846,287.2914799200371,return,2.6622250000364147,"[-0.16, -0.08, 0, 0.08, 0.16, 0.24, 0.32, 0.4, 0.48, 0.56]","[-0.4, -0.32, -0.24, -0.16, -0.08, 0, 0.08, 0.16, 0.24, 0.32]",8,3,2,2,0.4,0.0,290.1590698999935,290.1590698999935,290.1590698999935,290.1590698999935,290.1590698999935,290.1590698999935,290.1590698999935,290.12421136000194,1.8510865000425838,return,1.6707706000306644,stimuli/alien_stimuli/11.png,11,2,1,,,,,,,,,,,,,,,,,,,,,,,,,,,,,,,,,,,,,,,,,,,,,,,,,,,,,,,,,test,train_y,x_increasing_steps,top_left,2024-10-30_10h59.53.521,HideSeek_v1,2022.2.5,59.9070362506841,
,,,,,,,,,,,30,0,0,0,0,,,,,,,,,,,,,,,,,,,,,,,,,,,,,,,,,,,,,,,,,,,,,,,,,,,,,,,,,,,,,,,,,,17,0.7,0,0,99,1,30,0,conditions/schedules/train_y_first/x_increasing_steps/top_left/inputTrain_1.1.xlsx,99,1,1,1,0,,,,,,,,,,,,,,,,,,,,,,,,,,,,,,,,,,,,,,,,,,,test,train_y,x_increasing_steps,top_left,2024-10-30_10h59.53.521,HideSeek_v1,2022.2.5,59.9070362506841,
,,,,,,,,,,,,1,0,1,0,0,0,0,0,,,,,,,,,,,,,,,,,,,conditions/schedules/train_y_first/x_increasing_steps/top_left/instructions/Slide13.png,conditions/schedules/train_y_first/x_increasing_steps/top_left/instructions/Audio13.wav,292.0002551000216,291.990915530012,13,"[8.2266660000314, 0.8059975999640301, 1.1993462999816984, 0.6055027000256814, 0.3321735999779776, 0.2736960999900475, 0.2054206000175327, 0.37329209997551516, 0.3245998999918811, 3.4388050000416115, 5.708007099980023, 2.954056699993089, 10.193206499970984]","[0.0002682000049389899, 0.09808610001346096, 1.1993558999965899, 0.016827700019348413, 0.023729700013063848, 0.021855700004380196, 0.03992369998013601, 0.00028879998717457056, 0.054605200013611466, 0.0002410999732092023, 0.020005200000014156, 2.9540666000102647, 10.193215899984352]",0,,,,,,,,,,,,,,,,,,,,,,,,,,,,,,,,,,,,,,,,,,,,,,,,,,,,,,,,,,,,,,,,,,,,,,,,,,,,,,,,,,,,,,,,,,,,test,train_y,x_increasing_steps,top_left,2024-10-30_10h59.53.521,HideSeek_v1,2022.2.5,59.9070362506841,
,,,,,,,,,,,,1,0,1,0,1,0,1,0,,,,,,,,,,,,,,,,,,,conditions/schedules/train_y_first/x_increasing_steps/top_left/instructions/Slide14.png,conditions/schedules/train_y_first/x_increasing_steps/top_left/instructions/Audio14.wav,302.2612342000357,302.2598321500118,14,"[8.2266660000314, 0.8059975999640301, 1.1993462999816984, 0.6055027000256814, 0.3321735999779776, 0.2736960999900475, 0.2054206000175327, 0.37329209997551516, 0.3245998999918811, 3.4388050000416115, 5.708007099980023, 2.954056699993089, 10.193206499970984, 1.6820917999721132]","[0.0002682000049389899, 0.09808610001346096, 1.1993558999965899, 0.016827700019348413, 0.023729700013063848, 0.021855700004380196, 0.03992369998013601, 0.00028879998717457056, 0.054605200013611466, 0.0002410999732092023, 0.020005200000014156, 2.9540666000102647, 0.08076989999972284, 1.6821010999847203]",0,,,,,,,,,,,,,,,,,,,,,,,,,,,,,,,,,,,,,,,,,,,,,,,,,,,,,,,,,,,,,,,,,,,,,,,,,,,,,,,,,,,,,,,,,,,,test,train_y,x_increasing_steps,top_left,2024-10-30_10h59.53.521,HideSeek_v1,2022.2.5,59.9070362506841,
2,0,3,0,3,0,0,16,2,instr_dim1_1,,,1,0,1,0,,,,,0,0,0,0,,,,,,,,,,,,,,,,,,,,,,,,,stimuli/alien_stimuli/16.png,conditions/schedules/train_y_first/x_increasing_steps/top_left/inputInstr_1.xlsx,stimuli/alien_stimuli/16.png,304.07756940001855,304.07756940001855,304.07756940001855,304.07756940001855,304.07424823002657,return,3.913300900021568,"[-0.16, -0.08, 0, 0.08, 0.16, 0.24, 0.32, 0.4, 0.48, 0.56]","[-0.4, -0.32, -0.24, -0.16, -0.08, 0, 0.08, 0.16, 0.24, 0.32]",3,3,0,0,0.0,0.0,308.1417217000271,308.1417217000271,308.1417217000271,308.1417217000271,308.1417217000271,308.1417217000271,308.1417217000271,308.1258403600077,1.0821179999620654,return,0.9233722999924794,stimuli/alien_stimuli/16.png,16,0,2,,,,,,,,,,,,,,,,,,,,,,,,,,,,,,,,,,,,,,,,,,,,,,,,,,,,,,,,,test,train_y,x_increasing_steps,top_left,2024-10-30_10h59.53.521,HideSeek_v1,2022.2.5,59.9070362506841,
,,,,,,,,,,,30,1,0,1,0,,,,,,,,,,,,,,,,,,,,,,,,,,,,,,,,,,,,,,,,,,,,,,,,,,,,,,,,,,,,,,,,,,17,0.7,0,0,99,1,30,0,conditions/schedules/train_y_first/x_increasing_steps/top_left/inputTrain_1.1.xlsx,99,1,1,1,0,,,,,,,,,,,,,,,,,,,,,,,,,,,,,,,,,,,,,,,,,,,test,train_y,x_increasing_steps,top_left,2024-10-30_10h59.53.521,HideSeek_v1,2022.2.5,59.9070362506841,
,,,,,,,,,,,,2,0,2,0,0,0,0,0,,,,,,,,,,,,,,,,,,,conditions/schedules/train_y_first/x_increasing_steps/top_left/instructions/Slide15.png,conditions/schedules/train_y_first/x_increasing_steps/top_left/instructions/Audio15.wav,309.29153789998963,309.28983341000276,15,"[8.2266660000314, 0.8059975999640301, 1.1993462999816984, 0.6055027000256814, 0.3321735999779776, 0.2736960999900475, 0.2054206000175327, 0.37329209997551516, 0.3245998999918811, 3.4388050000416115, 5.708007099980023, 2.954056699993089, 10.193206499970984, 1.6820917999721132, 2.3191079000243917]","[0.0002682000049389899, 0.09808610001346096, 1.1993558999965899, 0.016827700019348413, 0.023729700013063848, 0.021855700004380196, 0.03992369998013601, 0.00028879998717457056, 0.054605200013611466, 0.0002410999732092023, 0.020005200000014156, 2.9540666000102647, 0.08076989999972284, 1.6821010999847203, 2.319118800049182]",0,,,,,,,,,,,,,,,,,,,,,,,,,,,,,,,,,,,,,,,,,,,,,,,,,,,,,,,,,,,,,,,,,,,,,,,,,,,,,,,,,,,,,,,,,,,,test,train_y,x_increasing_steps,top_left,2024-10-30_10h59.53.521,HideSeek_v1,2022.2.5,59.9070362506841,
,,,,,,,,,,,,2,0,2,0,1,0,1,0,,,,,,,,,,,,,,,,,,,conditions/schedules/train_y_first/x_increasing_steps/top_left/instructions/Slide16.png,conditions/schedules/train_y_first/x_increasing_steps/top_left/instructions/Audio16.wav,311.6737810000195,311.6750498500187,16,"[8.2266660000314, 0.8059975999640301, 1.1993462999816984, 0.6055027000256814, 0.3321735999779776, 0.2736960999900475, 0.2054206000175327, 0.37329209997551516, 0.3245998999918811, 3.4388050000416115, 5.708007099980023, 2.954056699993089, 10.193206499970984, 1.6820917999721132, 2.3191079000243917, 3.282894399948418]","[0.0002682000049389899, 0.09808610001346096, 1.1993558999965899, 0.016827700019348413, 0.023729700013063848, 0.021855700004380196, 0.03992369998013601, 0.00028879998717457056, 0.054605200013611466, 0.0002410999732092023, 0.020005200000014156, 2.9540666000102647, 0.08076989999972284, 1.6821010999847203, 0.14966209995327517, 3.2829045999678783]",0,,,,,,,,,,,,,,,,,,,,,,,,,,,,,,,,,,,,,,,,,,,,,,,,,,,,,,,,,,,,,,,,,,,,,,,,,,,,,,,,,,,,,,,,,,,,test,train_y,x_increasing_steps,top_left,2024-10-30_10h59.53.521,HideSeek_v1,2022.2.5,59.9070362506841,
,0,0,0,1,0,1,15,,train_dim1_1,1,30,2,0,2,0,,,,,,,,,0,0,0,0,0,0,0,0,0,0,0,0,,,,,,,,,,,,,stimuli/alien_stimuli/15.png,,,,,,,,,,,,,,,,,,,,,,,,,,,,,,,,,,,,,,,30,,,,,,,,315.06359430000884,315.06359430000884,315.06359430000884,315.06359430000884,315.06359430000884,up,1.8916547000408173,0,0,0,99,-0.16,-0.32,up,1.787606899975799,,,,,,,,,,,,,,,,,,,,,,,,,,,,test,train_y,x_increasing_steps,top_left,2024-10-30_10h59.53.521,HideSeek_v1,2022.2.5,59.9070362506841,
,0,0,0,1,0,1,15,,train_dim1_1,1,30,2,0,2,0,,,,,,,,,0,0,0,0,0,0,0,0,1,0,1,0,,,,,,,,,,,,,,,,,,,,,,,,,,,,,,,,,,,,,,,,,,,,,,,,,,,,30,,,,,,,,316.9586641000351,316.9586641000351,316.9586641000351,316.9586641000351,316.9586641000351,return,0.9075768000329845,1,0,0,1,-0.16,-0.32,return,0.8030792000354268,1,0,-0.16,-0.32,,,,,,,,,,,,,,,,,,,,,,,,test,train_y,x_increasing_steps,top_left,2024-10-30_10h59.53.521,HideSeek_v1,2022.2.5,59.9070362506841,
,3,2,3,2,0,0,16,,train_dim1_1,2,30,2,0,2,0,,,,,,,,,0,0,0,0,0,1,1,1,0,0,0,0,,,,,,,,,,,,,stimuli/alien_stimuli/16.png,,,,,,,,,,,,,,,,,,,,,,,,,,,,,stimuli/alien_stimuli/15.png,15,0,3,,,,,,,30,,,,,,,,322.7582401999971,322.7582401999971,322.7582401999971,322.7582401999971,322.7582401999971,return,8.553780500020366,2,0,0,1,0.08,-0.24,return,8.452830499969423,1,0,0.08,-0.24,321.1917232000269,322.7582401999971,-0.16,-0.32,0.08,0.0,-0.36,-0.16,-0.16,-0.16,-0.32,319.4584775000112,319.4584775000112,319.4584775000112,319.4584775000112,319.4584775000112,319.4584775000112,319.4584775000112,319.4584775000112,319.4073468900169,1.8855853999848478,return,1.7143311999971047,test,train_y,x_increasing_steps,top_left,2024-10-30_10h59.53.521,HideSeek_v1,2022.2.5,59.9070362506841,
,2,3,2,5,0,2,14,,train_dim1_1,3,30,2,0,2,0,,,,,,,,,0,0,0,0,0,2,2,2,0,0,0,0,,,,,,,,,,,,,stimuli/alien_stimuli/14.png,,,,,,,,,,,,,,,,,,,,,,,,,,,,,stimuli/alien_stimuli/16.png,16,3,4,,,,,,,30,,,,,,,,340.43252020003274,340.43252020003274,340.43252020003274,340.43252020003274,340.43252020003274,up,3.4213509000255726,2,0,0,99,0,-0.08,up,3.3163967999862507,,,,,338.8579902999918,340.43252020003274,0.08,-0.24,0.0,0.0,-0.24,0.08,0.08,0.08,-0.24,332.87356259999797,332.87356259999797,332.87356259999797,332.87356259999797,332.87356259999797,332.87356259999797,332.87356259999797,332.87356259999797,332.8573654899956,6.102746699994896,return,5.967825800005812,test,train_y,x_increasing_steps,top_left,2024-10-30_10h59.53.521,HideSeek_v1,2022.2.5,59.9070362506841,
,2,3,2,5,0,2,14,,train_dim1_1,3,30,2,0,2,0,,,,,,,,,0,0,0,0,0,2,2,2,1,0,1,0,,,,,,,,,,,,,,,,,,,,,,,,,,,,,,,,,,,,,,,,,,,,,,,,,,,,30,,,,,,,,343.8563012999948,343.8563012999948,343.8563012999948,343.8563012999948,343.8563012999948,up,0.20730060001369566,2,0,0,99,0,0.0,up,0.11893440003041178,,,,,,,,,,,,,,,,,,,,,,,,,,,,test,train_y,x_increasing_steps,top_left,2024-10-30_10h59.53.521,HideSeek_v1,2022.2.5,59.9070362506841,
,2,3,2,5,0,2,14,,train_dim1_1,3,30,2,0,2,0,,,,,,,,,0,0,0,0,0,2,2,2,2,0,2,0,,,,,,,,,,,,,,,,,,,,,,,,,,,,,,,,,,,,,,,,,,,,,,,,,,,,30,,,,,,,,344.06460700003663,344.06460700003663,344.06460700003663,344.06460700003663,344.06460700003663,return,5.974300699948799,3,0,0,1,0,0.0,return,5.878833999973722,3,0,0,0.0,,,,,,,,,,,,,,,,,,,,,,,,test,train_y,x_increasing_steps,top_left,2024-10-30_10h59.53.521,HideSeek_v1,2022.2.5,59.9070362506841,
,0,1,0,5,0,4,12,,train_dim1_1,4,30,2,0,2,0,,,,,,,,,0,0,0,0,0,3,3,3,0,0,0,0,,,,,,,,,,,,,stimuli/alien_stimuli/12.png,,,,,,,,,,,,,,,,,,,,,,,,,,,,,stimuli/alien_stimuli/14.png,14,2,5,,,,,,,30,,,,,,,,354.1158783999854,354.1158783999854,354.1158783999854,354.1158783999854,354.1158783999854,up,2.1025901999673806,3,0,0,99,-0.16,-0.24,up,2.002905200002715,,,,,352.54099220002536,354.1158783999854,0,0,0.16,0.0,-0.08,0,0.0,0,0,351.6166067000013,351.6166067000013,351.6166067000013,351.6166067000013,351.6166067000013,351.6166067000013,351.6166067000013,351.6166067000013,351.6071756600286,1.0516952000325546,return,0.8926200999994762,test,train_y,x_increasing_steps,top_left,2024-10-30_10h59.53.521,HideSeek_v1,2022.2.5,59.9070362506841,
,0,1,0,5,0,4,12,,train_dim1_1,4,30,2,0,2,0,,,,,,,,,0,0,0,0,0,3,3,3,1,0,1,0,,,,,,,,,,,,,,,,,,,,,,,,,,,,,,,,,,,,,,,,,,,,,,,,,,,,30,,,,,,,,356.22424160002265,356.22424160002265,356.22424160002265,356.22424160002265,356.22424160002265,up,0.3409618000150658,3,0,0,99,-0.16,-0.15999999999999998,up,0.24654689995804802,,,,,,,,,,,,,,,,,,,,,,,,,,,,test,train_y,x_increasing_steps,top_left,2024-10-30_10h59.53.521,HideSeek_v1,2022.2.5,59.9070362506841,
,0,1,0,5,0,4,12,,train_dim1_1,4,30,2,0,2,0,,,,,,,,,0,0,0,0,0,3,3,3,2,0,2,0,,,,,,,,,,,,,,,,,,,,,,,,,,,,,,,,,,,,,,,,,,,,,,,,,,,,30,,,,,,,,356.56974080001237,356.56974080001237,356.56974080001237,356.56974080001237,356.56974080001237,up,0.24131849996047094,3,0,0,99,-0.16,-0.07999999999999997,up,0.14169549994403496,,,,,,,,,,,,,,,,,,,,,,,,,,,,test,train_y,x_increasing_steps,top_left,2024-10-30_10h59.53.521,HideSeek_v1,2022.2.5,59.9070362506841,
,0,1,0,5,0,4,12,,train_dim1_1,4,30,2,0,2,0,,,,,,,,,0,0,0,0,0,3,3,3,3,0,3,0,,,,,,,,,,,,,,,,,,,,,,,,,,,,,,,,,,,,,,,,,,,,,,,,,,,,30,,,,,,,,356.8161811000318,356.8161811000318,356.8161811000318,356.8161811000318,356.8161811000318,up,0.25803349999478087,3,0,0,99,-0.16,2.7755575615628914e-17,up,0.1729860000195913,,,,,,,,,,,,,,,,,,,,,,,,,,,,test,train_y,x_increasing_steps,top_left,2024-10-30_10h59.53.521,HideSeek_v1,2022.2.5,59.9070362506841,
,0,1,0,5,0,4,12,,train_dim1_1,4,30,2,0,2,0,,,,,,,,,0,0,0,0,0,3,3,3,4,0,4,0,,,,,,,,,,,,,,,,,,,,,,,,,,,,,,,,,,,,,,,,,,,,,,,,,,,,30,,,,,,,,357.12972389999777,357.12972389999777,357.12972389999777,357.12972389999777,357.12972389999777,return,0.32487250003032386,4,0,0,1,-0.16,2.7755575615628914e-17,return,0.19129919999977574,7,0,-0.16,2.7755575615628914e-17,,,,,,,,,,,,,,,,,,,,,,,,test,train_y,x_increasing_steps,top_left,2024-10-30_10h59.53.521,HideSeek_v1,2022.2.5,59.9070362506841,
,3,3,3,8,0,5,11,,train_dim1_1,5,30,2,0,2,0,,,,,,,,,0,0,0,0,0,4,4,4,0,0,0,0,,,,,,,,,,,,,stimuli/alien_stimuli/11.png,,,,,,,,,,,,,,,,,,,,,,,,,,,,,stimuli/alien_stimuli/12.png,12,0,6,,,,,,,30,,,,,,,,361.1442660000175,361.1442660000175,361.1442660000175,361.1442660000175,361.1442660000175,up,12.919671599986032,4,0,0,99,0.08,-0.08,up,12.823335699969903,,,,,359.5743588000187,361.1442660000175,-0.16,0,0.32,0.0,-0.16,-0.16,-0.16,-0.16,0,358.9729318000027,358.9729318000027,358.9729318000027,358.9729318000027,358.9729318000027,358.9729318000027,358.9729318000027,358.9729318000027,358.9578009900288,0.7172072999528609,return,0.579329099971801,test,train_y,x_increasing_steps,top_left,2024-10-30_10h59.53.521,HideSeek_v1,2022.2.5,59.9070362506841,
,3,3,3,8,0,5,11,,train_dim1_1,5,30,2,0,2,0,,,,,,,,,0,0,0,0,0,4,4,4,1,0,1,0,,,,,,,,,,,,,,,,,,,,,,,,,,,,,,,,,,,,,,,,,,,,,,,,,,,,30,,,,,,,,374.06903350003995,374.06903350003995,374.06903350003995,374.06903350003995,374.06903350003995,up,0.30777300003683195,4,0,0,99,0.08,0.0,up,0.21082310000201687,,,,,,,,,,,,,,,,,,,,,,,,,,,,test,train_y,x_increasing_steps,top_left,2024-10-30_10h59.53.521,HideSeek_v1,2022.2.5,59.9070362506841,
,3,3,3,8,0,5,11,,train_dim1_1,5,30,2,0,2,0,,,,,,,,,0,0,0,0,0,4,4,4,2,0,2,0,,,,,,,,,,,,,,,,,,,,,,,,,,,,,,,,,,,,,,,,,,,,,,,,,,,,30,,,,,,,,374.38859019998927,374.38859019998927,374.38859019998927,374.38859019998927,374.38859019998927,up,0.27450410003075376,4,0,0,99,0.08,0.08,up,0.183757999970112,,,,,,,,,,,,,,,,,,,,,,,,,,,,test,train_y,x_increasing_steps,top_left,2024-10-30_10h59.53.521,HideSeek_v1,2022.2.5,59.9070362506841,
,3,3,3,8,0,5,11,,train_dim1_1,5,30,2,0,2,0,,,,,,,,,0,0,0,0,0,4,4,4,3,0,3,0,,,,,,,,,,,,,,,,,,,,,,,,,,,,,,,,,,,,,,,,,,,,,,,,,,,,30,,,,,,,,374.6709764000261,374.6709764000261,374.6709764000261,374.6709764000261,374.6709764000261,up,0.2586834000539966,4,0,0,99,0.08,0.16,up,0.16077499999664724,,,,,,,,,,,,,,,,,,,,,,,,,,,,test,train_y,x_increasing_steps,top_left,2024-10-30_10h59.53.521,HideSeek_v1,2022.2.5,59.9070362506841,
,3,3,3,8,0,5,11,,train_dim1_1,5,30,2,0,2,0,,,,,,,,,0,0,0,0,0,4,4,4,4,0,4,0,,,,,,,,,,,,,,,,,,,,,,,,,,,,,,,,,,,,,,,,,,,,,,,,,,,,30,,,,,,,,374.93803140003,374.93803140003,374.93803140003,374.93803140003,374.93803140003,up,0.191060799988918,4,0,0,99,0.08,0.24,up,0.10433419997571036,,,,,,,,,,,,,,,,,,,,,,,,,,,,test,train_y,x_increasing_steps,top_left,2024-10-30_10h59.53.521,HideSeek_v1,2022.2.5,59.9070362506841,
,3,3,3,8,0,5,11,,train_dim1_1,5,30,2,0,2,0,,,,,,,,,0,0,0,0,0,4,4,4,5,0,5,0,,,,,,,,,,,,,,,,,,,,,,,,,,,,,,,,,,,,,,,,,,,,,,,,,,,,30,,,,,,,,375.1359221999883,375.1359221999883,375.1359221999883,375.1359221999883,375.1359221999883,return,0.2746296999976039,5,0,0,1,0.08,0.24,return,0.1780931000248529,12,0,0.08,0.24,,,,,,,,,,,,,,,,,,,,,,,,test,train_y,x_increasing_steps,top_left,2024-10-30_10h59.53.521,HideSeek_v1,2022.2.5,59.9070362506841,
,1,4,1,8,0,4,12,,train_dim1_1,6,30,2,0,2,0,,,,,,,,,0,0,0,0,0,5,5,5,0,0,0,0,,,,,,,,,,,,,stimuli/alien_stimuli/12.png,,,,,,,,,,,,,,,,,,,,,,,,,,,,,stimuli/alien_stimuli/11.png,11,3,7,,,,,,,30,,,,,,,,379.53652250004234,379.53652250004234,379.53652250004234,379.53652250004234,379.53652250004234,up,1.0207749999826774,5,0,0,99,-0.08,0.0,up,0.9303033000323921,,,,,377.97416760004126,379.53652250004234,0.08,0.24,0.4,0.0,0.039999999999999994,0.08,0.08,0.08,0.24,376.9602376000257,376.9602376000257,376.9602376000257,376.9602376000257,376.9602376000257,376.9602376000257,376.9602376000257,376.9602376000257,376.95713118999265,1.1183020999887958,return,0.9914626000099815,test,train_y,x_increasing_steps,top_left,2024-10-30_10h59.53.521,HideSeek_v1,2022.2.5,59.9070362506841,
,1,4,1,8,0,4,12,,train_dim1_1,6,30,2,0,2,0,,,,,,,,,0,0,0,0,0,5,5,5,1,0,1,0,,,,,,,,,,,,,,,,,,,,,,,,,,,,,,,,,,,,,,,,,,,,,,,,,,,,30,,,,,,,,380.57520620001014,380.57520620001014,380.57520620001014,380.57520620001014,380.57520620001014,up,0.24103499995544553,5,0,0,99,-0.08,0.08,up,0.13567840005271137,,,,,,,,,,,,,,,,,,,,,,,,,,,,test,train_y,x_increasing_steps,top_left,2024-10-30_10h59.53.521,HideSeek_v1,2022.2.5,59.9070362506841,
,1,4,1,8,0,4,12,,train_dim1_1,6,30,2,0,2,0,,,,,,,,,0,0,0,0,0,5,5,5,2,0,2,0,,,,,,,,,,,,,,,,,,,,,,,,,,,,,,,,,,,,,,,,,,,,,,,,,,,,30,,,,,,,,380.8130773000303,380.8130773000303,380.8130773000303,380.8130773000303,380.8130773000303,up,0.19104679999873042,5,0,0,99,-0.08,0.16,up,0.09722290001809597,,,,,,,,,,,,,,,,,,,,,,,,,,,,test,train_y,x_increasing_steps,top_left,2024-10-30_10h59.53.521,HideSeek_v1,2022.2.5,59.9070362506841,
,1,4,1,8,0,4,12,,train_dim1_1,6,30,2,0,2,0,,,,,,,,,0,0,0,0,0,5,5,5,3,0,3,0,,,,,,,,,,,,,,,,,,,,,,,,,,,,,,,,,,,,,,,,,,,,,,,,,,,,30,,,,,,,,381.0117106999969,381.0117106999969,381.0117106999969,381.0117106999969,381.0117106999969,up,0.1751512999762781,5,0,0,99,-0.08,0.24,up,0.08532620000187308,,,,,,,,,,,,,,,,,,,,,,,,,,,,test,train_y,x_increasing_steps,top_left,2024-10-30_10h59.53.521,HideSeek_v1,2022.2.5,59.9070362506841,
,1,4,1,8,0,4,12,,train_dim1_1,6,30,2,0,2,0,,,,,,,,,0,0,0,0,0,5,5,5,4,0,4,0,,,,,,,,,,,,,,,,,,,,,,,,,,,,,,,,,,,,,,,,,,,,,,,,,,,,30,,,,,,,,381.19754240004113,381.19754240004113,381.19754240004113,381.19754240004113,381.19754240004113,return,0.189814799989108,6,0,0,1,-0.08,0.24,return,0.0977644000086002,16,0,-0.08,0.24,,,,,,,,,,,,,,,,,,,,,,,,test,train_y,x_increasing_steps,top_left,2024-10-30_10h59.53.521,HideSeek_v1,2022.2.5,59.9070362506841,
,1,3,1,5,0,2,14,,train_dim1_1,7,30,2,0,2,0,,,,,,,,,0,0,0,0,0,6,6,6,0,0,0,0,,,,,,,,,,,,,stimuli/alien_stimuli/14.png,,,,,,,,,,,,,,,,,,,,,,,,,,,,,stimuli/alien_stimuli/12.png,12,1,8,,,,,,,30,,,,,,,,386.2683124000323,386.2683124000323,386.2683124000323,386.2683124000323,386.2683124000323,up,1.1697210000129417,6,0,0,99,-0.08,-0.08,up,1.080225799989421,,,,,384.7072004000074,386.2683124000323,-0.08,0.24,0.32,0.0,0.07999999999999999,-0.08,-0.08,-0.08,0.24,382.9581072999863,382.9581072999863,382.9581072999863,382.9581072999863,382.9581072999863,382.9581072999863,382.9581072999863,382.9581072999863,382.9402643900248,1.8689513000426814,return,1.7303677999880165,test,train_y,x_increasing_steps,top_left,2024-10-30_10h59.53.521,HideSeek_v1,2022.2.5,59.9070362506841,
,1,3,1,5,0,2,14,,train_dim1_1,7,30,2,0,2,0,,,,,,,,,0,0,0,0,0,6,6,6,1,0,1,0,,,,,,,,,,,,,,,,,,,,,,,,,,,,,,,,,,,,,,,,,,,,,,,,,,,,30,,,,,,,,387.44859099999303,387.44859099999303,387.44859099999303,387.44859099999303,387.44859099999303,up,0.957569100020919,6,0,0,99,-0.08,0.0,up,0.8630365999997593,,,,,,,,,,,,,,,,,,,,,,,,,,,,test,train_y,x_increasing_steps,top_left,2024-10-30_10h59.53.521,HideSeek_v1,2022.2.5,59.9070362506841,
,1,3,1,5,0,2,14,,train_dim1_1,7,30,2,0,2,0,,,,,,,,,0,0,0,0,0,6,6,6,2,0,2,0,,,,,,,,,,,,,,,,,,,,,,,,,,,,,,,,,,,,,,,,,,,,,,,,,,,,30,,,,,,,,388.41713060002076,388.41713060002076,388.41713060002076,388.41713060002076,388.41713060002076,return,0.490789900009986,7,0,0,1,-0.08,0.0,return,0.39602530002593994,18,0,-0.08,0.0,,,,,,,,,,,,,,,,,,,,,,,,test,train_y,x_increasing_steps,top_left,2024-10-30_10h59.53.521,HideSeek_v1,2022.2.5,59.9070362506841,
,4,2,4,7,0,5,11,,train_dim1_1,8,30,2,0,2,0,,,,,,,,,0,0,0,0,0,7,7,7,0,0,0,0,,,,,,,,,,,,,stimuli/alien_stimuli/11.png,,,,,,,,,,,,,,,,,,,,,,,,,,,,,stimuli/alien_stimuli/14.png,14,1,9,,,,,,,30,,,,,,,,395.2695564000169,395.2695564000169,395.2695564000169,395.2695564000169,395.2695564000169,up,7.68613499996718,7,0,0,99,0.16,-0.15999999999999998,up,7.600989600003231,,,,,393.70751750003546,395.2695564000169,-0.08,0,0.16,0.0,-0.08,-0.08,-0.08,-0.08,0,390.46698900003685,390.46698900003685,390.46698900003685,390.46698900003685,390.46698900003685,390.46698900003685,390.46698900003685,390.46698900003685,390.45688589004567,3.352923099999316,return,3.213012699969113,test,train_y,x_increasing_steps,top_left,2024-10-30_10h59.53.521,HideSeek_v1,2022.2.5,59.9070362506841,
,4,2,4,7,0,5,11,,train_dim1_1,8,30,2,0,2,0,,,,,,,,,0,0,0,0,0,7,7,7,1,0,1,0,,,,,,,,,,,,,,,,,,,,,,,,,,,,,,,,,,,,,,,,,,,,,,,,,,,,30,,,,,,,,402.9746764000156,402.9746764000156,402.9746764000156,402.9746764000156,402.9746764000156,up,1.475204299960751,7,0,0,99,0.16,-0.07999999999999997,up,1.379408999986481,,,,,,,,,,,,,,,,,,,,,,,,,,,,test,train_y,x_increasing_steps,top_left,2024-10-30_10h59.53.521,HideSeek_v1,2022.2.5,59.9070362506841,
,4,2,4,7,0,5,11,,train_dim1_1,8,30,2,0,2,0,,,,,,,,,0,0,0,0,0,7,7,7,2,0,2,0,,,,,,,,,,,,,,,,,,,,,,,,,,,,,,,,,,,,,,,,,,,,,,,,,,,,30,,,,,,,,404.45804510003654,404.45804510003654,404.45804510003654,404.45804510003654,404.45804510003654,up,0.3236837000004016,7,0,0,99,0.16,2.7755575615628914e-17,up,0.22674690000712872,,,,,,,,,,,,,,,,,,,,,,,,,,,,test,train_y,x_increasing_steps,top_left,2024-10-30_10h59.53.521,HideSeek_v1,2022.2.5,59.9070362506841,
,4,2,4,7,0,5,11,,train_dim1_1,8,30,2,0,2,0,,,,,,,,,0,0,0,0,0,7,7,7,3,0,3,0,,,,,,,,,,,,,,,,,,,,,,,,,,,,,,,,,,,,,,,,,,,,,,,,,,,,30,,,,,,,,404.79580190003617,404.79580190003617,404.79580190003617,404.79580190003617,404.79580190003617,up,0.22610740002710372,7,0,0,99,0.16,0.08000000000000003,up,0.1350467999582179,,,,,,,,,,,,,,,,,,,,,,,,,,,,test,train_y,x_increasing_steps,top_left,2024-10-30_10h59.53.521,HideSeek_v1,2022.2.5,59.9070362506841,
,4,2,4,7,0,5,11,,train_dim1_1,8,30,2,0,2,0,,,,,,,,,0,0,0,0,0,7,7,7,4,0,4,0,,,,,,,,,,,,,,,,,,,,,,,,,,,,,,,,,,,,,,,,,,,,,,,,,,,,30,,,,,,,,405.02424930001143,405.02424930001143,405.02424930001143,405.02424930001143,405.02424930001143,up,0.25878649996593595,7,0,0,99,0.16,0.16000000000000003,up,0.16525170003296807,,,,,,,,,,,,,,,,,,,,,,,,,,,,test,train_y,x_increasing_steps,top_left,2024-10-30_10h59.53.521,HideSeek_v1,2022.2.5,59.9070362506841,
,4,2,4,7,0,5,11,,train_dim1_1,8,30,2,0,2,0,,,,,,,,,0,0,0,0,0,7,7,7,5,0,5,0,,,,,,,,,,,,,,,,,,,,,,,,,,,,,,,,,,,,,,,,,,,,,,,,,,,,30,,,,,,,,405.2845234000124,405.2845234000124,405.2845234000124,405.2845234000124,405.2845234000124,return,0.3405081999953836,8,0,0,1,0.16,0.16000000000000003,return,0.25278849998721853,23,0,0.16,0.16000000000000003,,,,,,,,,,,,,,,,,,,,,,,,test,train_y,x_increasing_steps,top_left,2024-10-30_10h59.53.521,HideSeek_v1,2022.2.5,59.9070362506841,
,,,,,,,,,,,,,,,,,,,,,,,,,,,,,,,,,,,,,,,,,,,,,,,,,,,,,,,,,,,,,,,,,,,,,,,,,,,,,,,,,,,,,,,,,,,,,,,,,,,,,,,,,1,,,,,,,,,405.5736512999865,407.1868856000365,0.16,0.16,0.4,0.0,-0.039999999999999994,0.16,0.16,0.16,0.16,407.1868856000365,407.1868856000365,407.1868856000365,407.1868856000365,407.1868856000365,407.1868856000365,407.1868856000365,407.1868856000365,407.17337799002416,,,,,,,,,,,,
