trialTrain,x_fixStart,y_fixStart,x_corrSteps,y_corrSteps,x_nrSteps,y_nrSteps,alienID,testlen,version,trial_label,beforeExpLoop.thisRepN,beforeExpLoop.thisTrialN,beforeExpLoop.thisN,beforeExpLoop.thisIndex,mini_instr_trials.thisRepN,mini_instr_trials.thisTrialN,mini_instr_trials.thisN,mini_instr_trials.thisIndex,instrLoop.thisRepN,instrLoop.thisTrialN,instrLoop.thisN,instrLoop.thisIndex,repeat_prac.thisRepN,repeat_prac.thisTrialN,repeat_prac.thisN,repeat_prac.thisIndex,trainLoop.thisRepN,trainLoop.thisTrialN,trainLoop.thisN,trainLoop.thisIndex,experiment.thisRepN,experiment.thisTrialN,experiment.thisN,experiment.thisIndex,moveLoop_test.thisRepN,moveLoop_test.thisTrialN,moveLoop_test.thisN,moveLoop_test.thisIndex,start_all_time,url,slideStim,audioStim,slides.started,sounds.started,nextButton.numClicks,nextButton.timesOn,nextButton.timesOff,prev_but.numClicks,prev_but.timesOn,prev_but.timesOff,perfthres,percthres,earlierperf,earlystop,nextPrac,fileidx,praclen,saveACC_train,pracFile,nextPrac_train,addNrep,fileidx_endr,repExp,showearly,alienStim,gridImage_3.started,alienImage_test.started,startPos_test.started,movePos_test.started,key_resp_test.started,wLy_dir_test,wLx_dir_test,buttonPress_test,RTchoice_test,cumAcctest,saveACC_choice,corrAns_test,x_movePos_end,y_movePos_end,key_resp_test.keys,key_resp_test.rt,fixation_text.started,participant,train_first,direction of x,starting corner,date,expName,psychopyVersion,frameRate,
,,,,,,,,,,,0,0,0,0,0,0,0,0,,,,,,,,,,,,,,,,,,,,,start_all_time,testround,conditions/schedules/train_y_first/x_increasing_steps/top_left/instructions/Slide1.png,conditions/schedules/train_y_first/x_increasing_steps/top_left/instructions/Audio1.wav,25.305691699963063,25.1648867908807,1,[1.9378332999767736],[1.9378479999722913],0,,,,,,,,,,,,,,,,,,,,,,,,,,,,,,,,,,,test,train_y,increasing,top_left,2024-10-30_16h21.22.771,HideSeek_v1,2022.2.5,60.18556412195373,
,,,,,,,,,,,0,0,0,0,1,0,1,0,,,,,,,,,,,,,,,,,,,,,,,conditions/schedules/train_y_first/x_increasing_steps/top_left/instructions/Slide2.png,conditions/schedules/train_y_first/x_increasing_steps/top_left/instructions/Audio2.wav,27.17100879998179,27.154450780013576,2,"[1.9378332999767736, 0.17054750001989305]","[0.00046790001215413213, 0.17055719997733831]",0,,,,,,,,,,,,,,,,,,,,,,,,,,,,,,,,,,,test,train_y,increasing,top_left,2024-10-30_16h21.22.771,HideSeek_v1,2022.2.5,60.18556412195373,
,,,,,,,,,,,0,0,0,0,2,0,2,0,,,,,,,,,,,,,,,,,,,,,,,conditions/schedules/train_y_first/x_increasing_steps/top_left/instructions/Slide3.png,conditions/schedules/train_y_first/x_increasing_steps/top_left/instructions/Audio3.wav,27.38813289999962,27.387187179992907,3,"[1.9378332999767736, 0.17054750001989305, 0.14982670004246756]","[0.00046790001215413213, 0.03286810003919527, 0.14983559999382123]",0,,,,,,,,,,,,,,,,,,,,,,,,,,,,,,,,,,,test,train_y,increasing,top_left,2024-10-30_16h21.22.771,HideSeek_v1,2022.2.5,60.18556412195373,
,,,,,,,,,,,0,0,0,0,3,0,3,0,,,,,,,,,,,,,,,,,,,,,,,conditions/schedules/train_y_first/x_increasing_steps/top_left/instructions/Slide4.png,conditions/schedules/train_y_first/x_increasing_steps/top_left/instructions/Audio4.wav,27.587104699981865,27.57067780997022,4,"[1.9378332999767736, 0.17054750001989305, 0.14982670004246756, 0.13708570000017062]","[0.00046790001215413213, 0.03286810003919527, 0.01980480004567653, 0.13709230005042627]",0,,,,,,,,,,,,,,,,,,,,,,,,,,,,,,,,,,,test,train_y,increasing,top_left,2024-10-30_16h21.22.771,HideSeek_v1,2022.2.5,60.18556412195373,
,,,,,,,,,,,0,0,0,0,4,0,4,0,,,,,,,,,,,,,,,,,,,,,,,conditions/schedules/train_y_first/x_increasing_steps/top_left/instructions/Slide5.png,conditions/schedules/train_y_first/x_increasing_steps/top_left/instructions/Audio5.wav,27.759582599974237,27.75414460999309,5,"[1.9378332999767736, 0.17054750001989305, 0.14982670004246756, 0.13708570000017062, 0.12679190002381802]","[0.00046790001215413213, 0.03286810003919527, 0.01980480004567653, 0.015657100011594594, 0.1267993000219576]",0,,,,,,,,,,,,,,,,,,,,,,,,,,,,,,,,,,,test,train_y,increasing,top_left,2024-10-30_16h21.22.771,HideSeek_v1,2022.2.5,60.18556412195373,
,,,,,,,,,,,0,0,0,0,5,0,5,0,,,,,,,,,,,,,,,,,,,,,,,conditions/schedules/train_y_first/x_increasing_steps/top_left/instructions/Slide6.png,conditions/schedules/train_y_first/x_increasing_steps/top_left/instructions/Audio6.wav,27.92509879998397,27.920465609960956,6,"[1.9378332999767736, 0.17054750001989305, 0.14982670004246756, 0.13708570000017062, 0.12679190002381802, 0.1427403999841772]","[0.00046790001215413213, 0.03286810003919527, 0.01980480004567653, 0.015657100011594594, 0.013675599999260157, 0.14274789998307824]",0,,,,,,,,,,,,,,,,,,,,,,,,,,,,,,,,,,,test,train_y,increasing,top_left,2024-10-30_16h21.22.771,HideSeek_v1,2022.2.5,60.18556412195373,
,,,,,,,,,,,0,0,0,0,6,0,6,0,,,,,,,,,,,,,,,,,,,,,,,conditions/schedules/train_y_first/x_increasing_steps/top_left/instructions/Slide7.png,conditions/schedules/train_y_first/x_increasing_steps/top_left/instructions/Audio7.wav,28.106396599963773,28.103835109999636,7,"[1.9378332999767736, 0.17054750001989305, 0.14982670004246756, 0.13708570000017062, 0.12679190002381802, 0.1427403999841772, 0.29609749995870516]","[0.00046790001215413213, 0.03286810003919527, 0.01980480004567653, 0.015657100011594594, 0.013675599999260157, 0.14538269996410236, 0.2961059999652207]",0,,,,,,,,,,,,,,,,,,,,,,,,,,,,,,,,,,,test,train_y,increasing,top_left,2024-10-30_16h21.22.771,HideSeek_v1,2022.2.5,60.18556412195373,
,,,,,,,,,,,0,0,0,0,7,0,7,0,,,,,,,,,,,,,,,,,,,,,,,conditions/schedules/train_y_first/x_increasing_steps/top_left/instructions/Slide8.png,conditions/schedules/train_y_first/x_increasing_steps/top_left/instructions/Audio8.wav,28.439883299986832,28.43734770998708,8,"[1.9378332999767736, 0.17054750001989305, 0.14982670004246756, 0.13708570000017062, 0.12679190002381802, 0.1427403999841772, 0.29609749995870516, 0.12882450001779944]","[0.00046790001215413213, 0.03286810003919527, 0.01980480004567653, 0.015657100011594594, 0.013675599999260157, 0.14538269996410236, 0.00019539997447282076, 0.12883300002431497]",0,,,,,,,,,,,,,,,,,,,,,,,,,,,,,,,,,,,test,train_y,increasing,top_left,2024-10-30_16h21.22.771,HideSeek_v1,2022.2.5,60.18556412195373,
,,,,,,,,,,,0,0,0,0,8,0,8,0,,,,,,,,,,,,,,,,,,,,,,,conditions/schedules/train_y_first/x_increasing_steps/top_left/instructions/Slide9.png,conditions/schedules/train_y_first/x_increasing_steps/top_left/instructions/Audio9.wav,28.60590569995111,28.60377780997078,9,"[1.9378332999767736, 0.17054750001989305, 0.14982670004246756, 0.13708570000017062, 0.12679190002381802, 0.1427403999841772, 0.29609749995870516, 0.12882450001779944, 0.17914880003081635]","[0.00046790001215413213, 0.03286810003919527, 0.01980480004567653, 0.015657100011594594, 0.013675599999260157, 0.14538269996410236, 0.00019539997447282076, 0.014409900002647191, 0.17915700003504753]",0,,,,,,,,,,,,,,,,,,,,,,,,,,,,,,,,,,,test,train_y,increasing,top_left,2024-10-30_16h21.22.771,HideSeek_v1,2022.2.5,60.18556412195373,
,,,,,,,,,,,0,0,0,0,9,0,9,0,,,,,,,,,,,,,,,,,,,,,,,conditions/schedules/train_y_first/x_increasing_steps/top_left/instructions/Slide10.png,conditions/schedules/train_y_first/x_increasing_steps/top_left/instructions/Audio10.wav,28.820500499976333,28.803709039988462,10,"[1.9378332999767736, 0.17054750001989305, 0.14982670004246756, 0.13708570000017062, 0.12679190002381802, 0.1427403999841772, 0.29609749995870516, 0.12882450001779944, 0.17914880003081635, 0.3228216999559663]","[0.00046790001215413213, 0.03286810003919527, 0.01980480004567653, 0.015657100011594594, 0.013675599999260157, 0.14538269996410236, 0.00019539997447282076, 0.014409900002647191, 0.0002046999870799482, 0.3228292999556288]",0,,,,,,,,,,,,,,,,,,,,,,,,,,,,,,,,,,,test,train_y,increasing,top_left,2024-10-30_16h21.22.771,HideSeek_v1,2022.2.5,60.18556412195373,
,,,,,,,,,,,0,0,0,0,10,0,10,0,,,,,,,,,,,,,,,,,,,,,,,conditions/schedules/train_y_first/x_increasing_steps/top_left/instructions/Slide11.png,conditions/schedules/train_y_first/x_increasing_steps/top_left/instructions/Audio11.wav,29.170930799969938,29.154079139989335,11,"[1.9378332999767736, 0.17054750001989305, 0.14982670004246756, 0.13708570000017062, 0.12679190002381802, 0.1427403999841772, 0.29609749995870516, 0.12882450001779944, 0.17914880003081635, 0.3228216999559663, 0.3391655000159517]","[0.00046790001215413213, 0.03286810003919527, 0.01980480004567653, 0.015657100011594594, 0.013675599999260157, 0.14538269996410236, 0.00019539997447282076, 0.014409900002647191, 0.0002046999870799482, 0.05619689996819943, 0.33917280001332983]",0,,,,,,,,,,,,,,,,,,,,,,,,,,,,,,,,,,,test,train_y,increasing,top_left,2024-10-30_16h21.22.771,HideSeek_v1,2022.2.5,60.18556412195373,
,,,,,,,,,,,0,0,0,0,11,0,11,0,,,,,,,,,,,,,,,,,,,,,,,conditions/schedules/train_y_first/x_increasing_steps/top_left/instructions/Slide12.png,conditions/schedules/train_y_first/x_increasing_steps/top_left/instructions/Audio12.wav,29.54187869996531,29.536754309985554,12,"[1.9378332999767736, 0.17054750001989305, 0.14982670004246756, 0.13708570000017062, 0.12679190002381802, 0.1427403999841772, 0.29609749995870516, 0.12882450001779944, 0.17914880003081635, 0.3228216999559663, 0.3391655000159517, 0.1434659999795258]","[0.00046790001215413213, 0.03286810003919527, 0.01980480004567653, 0.015657100011594594, 0.013675599999260157, 0.14538269996410236, 0.00019539997447282076, 0.014409900002647191, 0.0002046999870799482, 0.05619689996819943, 0.00019559997599571943, 0.1434733999776654]",0,,,,,,,,,,,,,,,,,,,,,,,,,,,,,,,,,,,test,train_y,increasing,top_left,2024-10-30_16h21.22.771,HideSeek_v1,2022.2.5,60.18556412195373,
,,,,,,,,,,,0,0,0,0,,,,,,,,,,,,,,,,,,,,,,,,,,,,,,,,,,,,,17,0.7,0,0,99,1,30,0,conditions/schedules/train_y_first/x_increasing_steps/top_left/inputTrain_1.1.xlsx,99,1,1,1,0,,,,,,,,,,,,,,,,,,,test,train_y,increasing,top_left,2024-10-30_16h21.22.771,HideSeek_v1,2022.2.5,60.18556412195373,
,,,,,,,,,,,1,0,1,0,0,0,0,0,,,,,,,,,,,,,,,,,,,,,,,conditions/schedules/train_y_first/x_increasing_steps/top_left/instructions/Slide13.png,conditions/schedules/train_y_first/x_increasing_steps/top_left/instructions/Audio13.wav,29.857801599951927,29.853884070034837,13,"[1.9378332999767736, 0.17054750001989305, 0.14982670004246756, 0.13708570000017062, 0.12679190002381802, 0.1427403999841772, 0.29609749995870516, 0.12882450001779944, 0.17914880003081635, 0.3228216999559663, 0.3391655000159517, 0.1434659999795258, 0.16157290001865476]","[0.00046790001215413213, 0.03286810003919527, 0.01980480004567653, 0.015657100011594594, 0.013675599999260157, 0.14538269996410236, 0.00019539997447282076, 0.014409900002647191, 0.0002046999870799482, 0.05619689996819943, 0.00019559997599571943, 0.015491399972233921, 0.16158159996848553]",0,,,,,,,,,,,,,,,,,,,,,,,,,,,,,,,,,,,test,train_y,increasing,top_left,2024-10-30_16h21.22.771,HideSeek_v1,2022.2.5,60.18556412195373,
,,,,,,,,,,,1,0,1,0,1,0,1,0,,,,,,,,,,,,,,,,,,,,,,,conditions/schedules/train_y_first/x_increasing_steps/top_left/instructions/Slide14.png,conditions/schedules/train_y_first/x_increasing_steps/top_left/instructions/Audio14.wav,30.070742999960203,30.05365211001481,14,"[1.9378332999767736, 0.17054750001989305, 0.14982670004246756, 0.13708570000017062, 0.12679190002381802, 0.1427403999841772, 0.29609749995870516, 0.12882450001779944, 0.17914880003081635, 0.3228216999559663, 0.3391655000159517, 0.1434659999795258, 0.16157290001865476, 0.1438227000180632]","[0.00046790001215413213, 0.03286810003919527, 0.01980480004567653, 0.015657100011594594, 0.013675599999260157, 0.14538269996410236, 0.00019539997447282076, 0.014409900002647191, 0.0002046999870799482, 0.05619689996819943, 0.00019559997599571943, 0.015491399972233921, 0.00019519997294992208, 0.14383259997703135]",0,,,,,,,,,,,,,,,,,,,,,,,,,,,,,,,,,,,test,train_y,increasing,top_left,2024-10-30_16h21.22.771,HideSeek_v1,2022.2.5,60.18556412195373,
,,,,,,,,,,,1,0,1,0,,,,,,,,,,,,,,,,,,,,,,,,,,,,,,,,,,,,,17,0.7,0,0,99,1,30,0,conditions/schedules/train_y_first/x_increasing_steps/top_left/inputTrain_1.1.xlsx,99,1,1,1,0,,,,,,,,,,,,,,,,,,,test,train_y,increasing,top_left,2024-10-30_16h21.22.771,HideSeek_v1,2022.2.5,60.18556412195373,
,,,,,,,,,,,2,0,2,0,0,0,0,0,,,,,,,,,,,,,,,,,,,,,,,conditions/schedules/train_y_first/x_increasing_steps/top_left/instructions/Slide15.png,conditions/schedules/train_y_first/x_increasing_steps/top_left/instructions/Audio15.wav,30.32047999999486,30.303730390005512,15,"[1.9378332999767736, 0.17054750001989305, 0.14982670004246756, 0.13708570000017062, 0.12679190002381802, 0.1427403999841772, 0.29609749995870516, 0.12882450001779944, 0.17914880003081635, 0.3228216999559663, 0.3391655000159517, 0.1434659999795258, 0.16157290001865476, 0.1438227000180632, 0.0706676000263542]","[0.00046790001215413213, 0.03286810003919527, 0.01980480004567653, 0.015657100011594594, 0.013675599999260157, 0.14538269996410236, 0.00019539997447282076, 0.014409900002647191, 0.0002046999870799482, 0.05619689996819943, 0.00019559997599571943, 0.015491399972233921, 0.00019519997294992208, 0.14383259997703135, 0.07067510002525523]",0,,,,,,,,,,,,,,,,,,,,,,,,,,,,,,,,,,,test,train_y,increasing,top_left,2024-10-30_16h21.22.771,HideSeek_v1,2022.2.5,60.18556412195373,
,,,,,,,,,,,2,0,2,0,1,0,1,0,,,,,,,,,,,,,,,,,,,,,,,conditions/schedules/train_y_first/x_increasing_steps/top_left/instructions/Slide16.png,conditions/schedules/train_y_first/x_increasing_steps/top_left/instructions/Audio16.wav,30.425393399957102,30.420321509969654,16,"[1.9378332999767736, 0.17054750001989305, 0.14982670004246756, 0.13708570000017062, 0.12679190002381802, 0.1427403999841772, 0.29609749995870516, 0.12882450001779944, 0.17914880003081635, 0.3228216999559663, 0.3391655000159517, 0.1434659999795258, 0.16157290001865476, 0.1438227000180632, 0.0706676000263542, 0.12654739996651188]","[0.00046790001215413213, 0.03286810003919527, 0.01980480004567653, 0.015657100011594594, 0.013675599999260157, 0.14538269996410236, 0.00019539997447282076, 0.014409900002647191, 0.0002046999870799482, 0.05619689996819943, 0.00019559997599571943, 0.015491399972233921, 0.00019519997294992208, 0.14383259997703135, 0.0002003999543376267, 0.12655679997988045]",0,,,,,,,,,,,,,,,,,,,,,,,,,,,,,,,,,,,test,train_y,increasing,top_left,2024-10-30_16h21.22.771,HideSeek_v1,2022.2.5,60.18556412195373,
,,,,,,,,,,,2,0,2,0,,,,,,,,,,,,,,,,,,,,,,,,,,,,,,,,,,,,,17,0.7,0,0,99,1,30,0,conditions/schedules/train_y_first/x_increasing_steps/top_left/inputTrain_1.1.xlsx,99,1,1,1,0,,,,,,,,,,,,,,,,,,,test,train_y,increasing,top_left,2024-10-30_16h21.22.771,HideSeek_v1,2022.2.5,60.18556412195373,
,,,,,,,,,,,3,0,3,0,0,0,0,0,,,,,,,,,,,,,,,,,,,,,,,conditions/schedules/train_y_first/x_increasing_steps/top_left/instructions/Slide17.png,conditions/schedules/train_y_first/x_increasing_steps/top_left/instructions/Audio17.wav,30.65389509999659,30.637408619979396,17,"[1.9378332999767736, 0.17054750001989305, 0.14982670004246756, 0.13708570000017062, 0.12679190002381802, 0.1427403999841772, 0.29609749995870516, 0.12882450001779944, 0.17914880003081635, 0.3228216999559663, 0.3391655000159517, 0.1434659999795258, 0.16157290001865476, 0.1438227000180632, 0.0706676000263542, 0.12654739996651188, 0.10507610003696755]","[0.00046790001215413213, 0.03286810003919527, 0.01980480004567653, 0.015657100011594594, 0.013675599999260157, 0.14538269996410236, 0.00019539997447282076, 0.014409900002647191, 0.0002046999870799482, 0.05619689996819943, 0.00019559997599571943, 0.015491399972233921, 0.00019519997294992208, 0.14383259997703135, 0.0002003999543376267, 0.12655679997988045, 0.10508440004196018]",0,,,,,,,,,,,,,,,,,,,,,,,,,,,,,,,,,,,test,train_y,increasing,top_left,2024-10-30_16h21.22.771,HideSeek_v1,2022.2.5,60.18556412195373,
,,,,,,,,,,,3,0,3,0,1,0,1,0,,,,,,,,,,,,,,,,,,,,,,,conditions/schedules/train_y_first/x_increasing_steps/top_left/instructions/Slide18.png,conditions/schedules/train_y_first/x_increasing_steps/top_left/instructions/Audio18.wav,30.790026799950283,30.787010010011727,18,"[1.9378332999767736, 0.17054750001989305, 0.14982670004246756, 0.13708570000017062, 0.12679190002381802, 0.1427403999841772, 0.29609749995870516, 0.12882450001779944, 0.17914880003081635, 0.3228216999559663, 0.3391655000159517, 0.1434659999795258, 0.16157290001865476, 0.1438227000180632, 0.0706676000263542, 0.12654739996651188, 0.10507610003696755, 0.17884059995412827]","[0.00046790001215413213, 0.03286810003919527, 0.01980480004567653, 0.015657100011594594, 0.013675599999260157, 0.14538269996410236, 0.00019539997447282076, 0.014409900002647191, 0.0002046999870799482, 0.05619689996819943, 0.00019559997599571943, 0.015491399972233921, 0.00019519997294992208, 0.14383259997703135, 0.0002003999543376267, 0.12655679997988045, 0.014313399966340512, 0.1788490999606438]",0,,,,,,,,,,,,,,,,,,,,,,,,,,,,,,,,,,,test,train_y,increasing,top_left,2024-10-30_16h21.22.771,HideSeek_v1,2022.2.5,60.18556412195373,
,,,,,,,,,,,3,0,3,0,2,0,2,0,,,,,,,,,,,,,,,,,,,,,,,conditions/schedules/train_y_first/x_increasing_steps/top_left/instructions/Slide19.png,conditions/schedules/train_y_first/x_increasing_steps/top_left/instructions/Audio19.wav,31.008612299978267,31.004291610006476,19,"[1.9378332999767736, 0.17054750001989305, 0.14982670004246756, 0.13708570000017062, 0.12679190002381802, 0.1427403999841772, 0.29609749995870516, 0.12882450001779944, 0.17914880003081635, 0.3228216999559663, 0.3391655000159517, 0.1434659999795258, 0.16157290001865476, 0.1438227000180632, 0.0706676000263542, 0.12654739996651188, 0.10507610003696755, 0.17884059995412827, 0.1276489000301808]","[0.00046790001215413213, 0.03286810003919527, 0.01980480004567653, 0.015657100011594594, 0.013675599999260157, 0.14538269996410236, 0.00019539997447282076, 0.014409900002647191, 0.0002046999870799482, 0.05619689996819943, 0.00019559997599571943, 0.015491399972233921, 0.00019519997294992208, 0.14383259997703135, 0.0002003999543376267, 0.12655679997988045, 0.014313399966340512, 0.00020900001982226968, 0.1276565000298433]",0,,,,,,,,,,,,,,,,,,,,,,,,,,,,,,,,,,,test,train_y,increasing,top_left,2024-10-30_16h21.22.771,HideSeek_v1,2022.2.5,60.18556412195373,
,,,,,,,,,,,3,0,3,0,3,0,3,0,,,,,,,,,,,,,,,,,,,,,,,conditions/schedules/train_y_first/x_increasing_steps/top_left/instructions/Slide20.png,conditions/schedules/train_y_first/x_increasing_steps/top_left/instructions/Audio20.wav,31.17536429996835,31.170619409967912,20,"[1.9378332999767736, 0.17054750001989305, 0.14982670004246756, 0.13708570000017062, 0.12679190002381802, 0.1427403999841772, 0.29609749995870516, 0.12882450001779944, 0.17914880003081635, 0.3228216999559663, 0.3391655000159517, 0.1434659999795258, 0.16157290001865476, 0.1438227000180632, 0.0706676000263542, 0.12654739996651188, 0.10507610003696755, 0.17884059995412827, 0.1276489000301808, 0.15960829996038228]","[0.00046790001215413213, 0.03286810003919527, 0.01980480004567653, 0.015657100011594594, 0.013675599999260157, 0.14538269996410236, 0.00019539997447282076, 0.014409900002647191, 0.0002046999870799482, 0.05619689996819943, 0.00019559997599571943, 0.015491399972233921, 0.00019519997294992208, 0.14383259997703135, 0.0002003999543376267, 0.12655679997988045, 0.014313399966340512, 0.00020900001982226968, 0.01480870001250878, 0.15961540001444519]",0,,,,,,,,,,,,,,,,,,,,,,,,,,,,,,,,,,,test,train_y,increasing,top_left,2024-10-30_16h21.22.771,HideSeek_v1,2022.2.5,60.18556412195373,
,,,,,,,,,,,3,0,3,0,,,,,,,,,,,,,,,,,,,,,,,,,,,,,,,,,,,,,17,0.7,0,0,99,1,30,0,conditions/schedules/train_y_first/x_increasing_steps/top_left/inputTrain_1.1.xlsx,99,1,1,1,0,,,,,,,,,,,,,,,,,,,test,train_y,increasing,top_left,2024-10-30_16h21.22.771,HideSeek_v1,2022.2.5,60.18556412195373,
,,,,,,,,,,,4,0,4,0,0,0,0,0,,,,,,,,,,,,,,,,,,,,,,,conditions/schedules/train_y_first/x_increasing_steps/top_left/instructions/Slide21.png,conditions/schedules/train_y_first/x_increasing_steps/top_left/instructions/Audio21.wav,31.438109099981375,31.436790490028216,21,"[1.9378332999767736, 0.17054750001989305, 0.14982670004246756, 0.13708570000017062, 0.12679190002381802, 0.1427403999841772, 0.29609749995870516, 0.12882450001779944, 0.17914880003081635, 0.3228216999559663, 0.3391655000159517, 0.1434659999795258, 0.16157290001865476, 0.1438227000180632, 0.0706676000263542, 0.12654739996651188, 0.10507610003696755, 0.17884059995412827, 0.1276489000301808, 0.15960829996038228, 0.09720119996927679]","[0.00046790001215413213, 0.03286810003919527, 0.01980480004567653, 0.015657100011594594, 0.013675599999260157, 0.14538269996410236, 0.00019539997447282076, 0.014409900002647191, 0.0002046999870799482, 0.05619689996819943, 0.00019559997599571943, 0.015491399972233921, 0.00019519997294992208, 0.14383259997703135, 0.0002003999543376267, 0.12655679997988045, 0.014313399966340512, 0.00020900001982226968, 0.01480870001250878, 0.15961540001444519, 0.09720909997122362]",0,,,,,,,,,,,,,,,,,,,,,,,,,,,,,,,,,,,test,train_y,increasing,top_left,2024-10-30_16h21.22.771,HideSeek_v1,2022.2.5,60.18556412195373,
,,,,,,,,,,,4,0,4,0,,,,,,,,,,,,,,,,,,,,,,,,,,,,,,,,,,,,,17,0.7,0,0,99,1,30,0,conditions/schedules/train_y_first/x_increasing_steps/top_left/inputTrain_1.1.xlsx,99,1,1,1,0,,,,,,,,,,,,,,,,,,,test,train_y,increasing,top_left,2024-10-30_16h21.22.771,HideSeek_v1,2022.2.5,60.18556412195373,
,,,,,,,,,,,5,0,5,0,0,0,0,0,,,,,,,,,,,,,,,,,,,,,,,conditions/schedules/train_y_first/x_increasing_steps/top_left/instructions/Slide22.png,conditions/schedules/train_y_first/x_increasing_steps/top_left/instructions/Audio22.wav,31.65460859995801,31.63705148998997,22,"[1.9378332999767736, 0.17054750001989305, 0.14982670004246756, 0.13708570000017062, 0.12679190002381802, 0.1427403999841772, 0.29609749995870516, 0.12882450001779944, 0.17914880003081635, 0.3228216999559663, 0.3391655000159517, 0.1434659999795258, 0.16157290001865476, 0.1438227000180632, 0.0706676000263542, 0.12654739996651188, 0.10507610003696755, 0.17884059995412827, 0.1276489000301808, 0.15960829996038228, 0.09720119996927679, 0.09253000002354383]","[0.00046790001215413213, 0.03286810003919527, 0.01980480004567653, 0.015657100011594594, 0.013675599999260157, 0.14538269996410236, 0.00019539997447282076, 0.014409900002647191, 0.0002046999870799482, 0.05619689996819943, 0.00019559997599571943, 0.015491399972233921, 0.00019519997294992208, 0.14383259997703135, 0.0002003999543376267, 0.12655679997988045, 0.014313399966340512, 0.00020900001982226968, 0.01480870001250878, 0.15961540001444519, 0.09720909997122362, 0.0925390999764204]",0,,,,,,,,,,,,,,,,,,,,,,,,,,,,,,,,,,,test,train_y,increasing,top_left,2024-10-30_16h21.22.771,HideSeek_v1,2022.2.5,60.18556412195373,
,,,,,,,,,,,5,0,5,0,,,,,,,,,,,,,,,,,,,,,,,,,,,,,,,,,,,,,17,0.7,0,0,99,1,30,0,conditions/schedules/train_y_first/x_increasing_steps/top_left/inputTrain_1.1.xlsx,99,1,1,1,0,,,,,,,,,,,,,,,,,,,test,train_y,increasing,top_left,2024-10-30_16h21.22.771,HideSeek_v1,2022.2.5,60.18556412195373,
,,,,,,,,,,,6,0,6,0,0,0,0,0,,,,,,,,,,,,,,,,,,,,,,,conditions/schedules/train_y_first/x_increasing_steps/top_left/instructions/Slide23.png,conditions/schedules/train_y_first/x_increasing_steps/top_left/instructions/Audio23.wav,31.832400299957953,31.820038119971287,23,"[1.9378332999767736, 0.17054750001989305, 0.14982670004246756, 0.13708570000017062, 0.12679190002381802, 0.1427403999841772, 0.29609749995870516, 0.12882450001779944, 0.17914880003081635, 0.3228216999559663, 0.3391655000159517, 0.1434659999795258, 0.16157290001865476, 0.1438227000180632, 0.0706676000263542, 0.12654739996651188, 0.10507610003696755, 0.17884059995412827, 0.1276489000301808, 0.15960829996038228, 0.09720119996927679, 0.09253000002354383, 0.13684250001097098]","[0.00046790001215413213, 0.03286810003919527, 0.01980480004567653, 0.015657100011594594, 0.013675599999260157, 0.14538269996410236, 0.00019539997447282076, 0.014409900002647191, 0.0002046999870799482, 0.05619689996819943, 0.00019559997599571943, 0.015491399972233921, 0.00019519997294992208, 0.14383259997703135, 0.0002003999543376267, 0.12655679997988045, 0.014313399966340512, 0.00020900001982226968, 0.01480870001250878, 0.15961540001444519, 0.09720909997122362, 0.00021849997574463487, 0.13685569999506697]",0,,,,,,,,,,,,,,,,,,,,,,,,,,,,,,,,,,,test,train_y,increasing,top_left,2024-10-30_16h21.22.771,HideSeek_v1,2022.2.5,60.18556412195373,
,,,,,,,,,,,6,0,6,0,1,0,1,0,,,,,,,,,,,,,,,,,,,,,,,conditions/schedules/train_y_first/x_increasing_steps/top_left/instructions/Slide24.png,conditions/schedules/train_y_first/x_increasing_steps/top_left/instructions/Audio24.wav,32.020628799975384,32.00414840996382,24,"[1.9378332999767736, 0.17054750001989305, 0.14982670004246756, 0.13708570000017062, 0.12679190002381802, 0.1427403999841772, 0.29609749995870516, 0.12882450001779944, 0.17914880003081635, 0.3228216999559663, 0.3391655000159517, 0.1434659999795258, 0.16157290001865476, 0.1438227000180632, 0.0706676000263542, 0.12654739996651188, 0.10507610003696755, 0.17884059995412827, 0.1276489000301808, 0.15960829996038228, 0.09720119996927679, 0.09253000002354383, 0.13684250001097098, 0.35846529999980703]","[0.00046790001215413213, 0.03286810003919527, 0.01980480004567653, 0.015657100011594594, 0.013675599999260157, 0.14538269996410236, 0.00019539997447282076, 0.014409900002647191, 0.0002046999870799482, 0.05619689996819943, 0.00019559997599571943, 0.015491399972233921, 0.00019519997294992208, 0.14383259997703135, 0.0002003999543376267, 0.12655679997988045, 0.014313399966340512, 0.00020900001982226968, 0.01480870001250878, 0.15961540001444519, 0.09720909997122362, 0.00021849997574463487, 0.07489290001103655, 0.3584716999903321]",0,,,,,,,,,,,,,,,,,,,,,,,,,,,,,,,,,,,test,train_y,increasing,top_left,2024-10-30_16h21.22.771,HideSeek_v1,2022.2.5,60.18556412195373,
,,,,,,,,,,,6,0,6,0,2,0,2,0,,,,,,,,,,,,,,,,,,,,,,,conditions/schedules/train_y_first/x_increasing_steps/top_left/instructions/Slide25.png,conditions/schedules/train_y_first/x_increasing_steps/top_left/instructions/Audio25.wav,32.40779799997108,32.40407730996958,25,"[1.9378332999767736, 0.17054750001989305, 0.14982670004246756, 0.13708570000017062, 0.12679190002381802, 0.1427403999841772, 0.29609749995870516, 0.12882450001779944, 0.17914880003081635, 0.3228216999559663, 0.3391655000159517, 0.1434659999795258, 0.16157290001865476, 0.1438227000180632, 0.0706676000263542, 0.12654739996651188, 0.10507610003696755, 0.17884059995412827, 0.1276489000301808, 0.15960829996038228, 0.09720119996927679, 0.09253000002354383, 0.13684250001097098, 0.35846529999980703, 0.17736060003517196]","[0.00046790001215413213, 0.03286810003919527, 0.01980480004567653, 0.015657100011594594, 0.013675599999260157, 0.14538269996410236, 0.00019539997447282076, 0.014409900002647191, 0.0002046999870799482, 0.05619689996819943, 0.00019559997599571943, 0.015491399972233921, 0.00019519997294992208, 0.14383259997703135, 0.0002003999543376267, 0.12655679997988045, 0.014313399966340512, 0.00020900001982226968, 0.01480870001250878, 0.15961540001444519, 0.09720909997122362, 0.00021849997574463487, 0.07489290001103655, 0.04378480004379526, 0.1773683000355959]",0,,,,,,,,,,,,,,,,,,,,,,,,,,,,,,,,,,,test,train_y,increasing,top_left,2024-10-30_16h21.22.771,HideSeek_v1,2022.2.5,60.18556412195373,
,,,,,,,,,,,6,0,6,0,,,,,,,,,,,,,,,,,,,,,,,,,,,,,,,,,,,,,17,0.7,0,0,99,1,30,0,conditions/schedules/train_y_first/x_increasing_steps/top_left/inputTrain_1.1.xlsx,99,1,1,1,0,,,,,,,,,,,,,,,,,,,test,train_y,increasing,top_left,2024-10-30_16h21.22.771,HideSeek_v1,2022.2.5,60.18556412195373,
,,,,,,,,,,,7,0,7,0,0,0,0,0,,,,,,,,,,,,,,,,,,,,,,,conditions/schedules/train_y_first/x_increasing_steps/top_left/instructions/Slide26.png,conditions/schedules/train_y_first/x_increasing_steps/top_left/instructions/Audio26.wav,32.68903109995881,32.68696449001436,26,"[1.9378332999767736, 0.17054750001989305, 0.14982670004246756, 0.13708570000017062, 0.12679190002381802, 0.1427403999841772, 0.29609749995870516, 0.12882450001779944, 0.17914880003081635, 0.3228216999559663, 0.3391655000159517, 0.1434659999795258, 0.16157290001865476, 0.1438227000180632, 0.0706676000263542, 0.12654739996651188, 0.10507610003696755, 0.17884059995412827, 0.1276489000301808, 0.15960829996038228, 0.09720119996927679, 0.09253000002354383, 0.13684250001097098, 0.35846529999980703, 0.17736060003517196, 0.07919499999843538]","[0.00046790001215413213, 0.03286810003919527, 0.01980480004567653, 0.015657100011594594, 0.013675599999260157, 0.14538269996410236, 0.00019539997447282076, 0.014409900002647191, 0.0002046999870799482, 0.05619689996819943, 0.00019559997599571943, 0.015491399972233921, 0.00019519997294992208, 0.14383259997703135, 0.0002003999543376267, 0.12655679997988045, 0.014313399966340512, 0.00020900001982226968, 0.01480870001250878, 0.15961540001444519, 0.09720909997122362, 0.00021849997574463487, 0.07489290001103655, 0.04378480004379526, 0.1773683000355959, 0.07920310000190511]",0,,,,,,,,,,,,,,,,,,,,,,,,,,,,,,,,,,,test,train_y,increasing,top_left,2024-10-30_16h21.22.771,HideSeek_v1,2022.2.5,60.18556412195373,
,,,,,,,,,,,7,0,7,0,,,,,,,,,,,,,,,,,,,,,,,,,,,,,,,,,,,,,17,0.7,0,0,99,1,30,0,conditions/schedules/train_y_first/x_increasing_steps/top_left/inputTrain_1.1.xlsx,99,1,1,1,0,,,,,,,,,,,,,,,,,,,test,train_y,increasing,top_left,2024-10-30_16h21.22.771,HideSeek_v1,2022.2.5,60.18556412195373,
,,,,,,,,,,,8,0,8,0,0,0,0,0,,,,,,,,,,,,,,,,,,,,,,,conditions/schedules/train_y_first/x_increasing_steps/top_left/instructions/Slide27.png,conditions/schedules/train_y_first/x_increasing_steps/top_left/instructions/Audio27.wav,32.87493859999813,32.87036358998739,27,"[1.9378332999767736, 0.17054750001989305, 0.14982670004246756, 0.13708570000017062, 0.12679190002381802, 0.1427403999841772, 0.29609749995870516, 0.12882450001779944, 0.17914880003081635, 0.3228216999559663, 0.3391655000159517, 0.1434659999795258, 0.16157290001865476, 0.1438227000180632, 0.0706676000263542, 0.12654739996651188, 0.10507610003696755, 0.17884059995412827, 0.1276489000301808, 0.15960829996038228, 0.09720119996927679, 0.09253000002354383, 0.13684250001097098, 0.35846529999980703, 0.17736060003517196, 0.07919499999843538, 0.1436898999963887]","[0.00046790001215413213, 0.03286810003919527, 0.01980480004567653, 0.015657100011594594, 0.013675599999260157, 0.14538269996410236, 0.00019539997447282076, 0.014409900002647191, 0.0002046999870799482, 0.05619689996819943, 0.00019559997599571943, 0.015491399972233921, 0.00019519997294992208, 0.14383259997703135, 0.0002003999543376267, 0.12655679997988045, 0.014313399966340512, 0.00020900001982226968, 0.01480870001250878, 0.15961540001444519, 0.09720909997122362, 0.00021849997574463487, 0.07489290001103655, 0.04378480004379526, 0.1773683000355959, 0.07920310000190511, 0.14369890000671148]",0,,,,,,,,,,,,,,,,,,,,,,,,,,,,,,,,,,,test,train_y,increasing,top_left,2024-10-30_16h21.22.771,HideSeek_v1,2022.2.5,60.18556412195373,
,,,,,,,,,,,8,0,8,0,,,,,,,,,,,,,,,,,,,,,,,,,,,,,,,,,,,,,17,0.7,0,0,99,1,30,0,conditions/schedules/train_y_first/x_increasing_steps/top_left/inputTrain_1.1.xlsx,99,1,1,1,0,,,,,,,,,,,,,,,,,,,test,train_y,increasing,top_left,2024-10-30_16h21.22.771,HideSeek_v1,2022.2.5,60.18556412195373,
,,,,,,,,,,,9,0,9,0,0,0,0,0,,,,,,,,,,,,,,,,,,,,,,,conditions/schedules/train_y_first/x_increasing_steps/top_left/instructions/Slide28.png,conditions/schedules/train_y_first/x_increasing_steps/top_left/instructions/Audio28.wav,33.121462299954146,33.12019638999482,28,"[1.9378332999767736, 0.17054750001989305, 0.14982670004246756, 0.13708570000017062, 0.12679190002381802, 0.1427403999841772, 0.29609749995870516, 0.12882450001779944, 0.17914880003081635, 0.3228216999559663, 0.3391655000159517, 0.1434659999795258, 0.16157290001865476, 0.1438227000180632, 0.0706676000263542, 0.12654739996651188, 0.10507610003696755, 0.17884059995412827, 0.1276489000301808, 0.15960829996038228, 0.09720119996927679, 0.09253000002354383, 0.13684250001097098, 0.35846529999980703, 0.17736060003517196, 0.07919499999843538, 0.1436898999963887, 0.09786209999583662]","[0.00046790001215413213, 0.03286810003919527, 0.01980480004567653, 0.015657100011594594, 0.013675599999260157, 0.14538269996410236, 0.00019539997447282076, 0.014409900002647191, 0.0002046999870799482, 0.05619689996819943, 0.00019559997599571943, 0.015491399972233921, 0.00019519997294992208, 0.14383259997703135, 0.0002003999543376267, 0.12655679997988045, 0.014313399966340512, 0.00020900001982226968, 0.01480870001250878, 0.15961540001444519, 0.09720909997122362, 0.00021849997574463487, 0.07489290001103655, 0.04378480004379526, 0.1773683000355959, 0.07920310000190511, 0.14369890000671148, 0.0978700999985449]",0,,,,,,,,,,,,,,,,,,,,,,,,,,,,,,,,,,,test,train_y,increasing,top_left,2024-10-30_16h21.22.771,HideSeek_v1,2022.2.5,60.18556412195373,
,,,,,,,,,,,9,0,9,0,1,0,1,0,,,,,,,,,,,,,,,,,,,,,,,conditions/schedules/train_y_first/x_increasing_steps/top_left/instructions/Slide29.png,conditions/schedules/train_y_first/x_increasing_steps/top_left/instructions/Audio29.wav,33.26145839999663,33.254701609985204,29,"[1.9378332999767736, 0.17054750001989305, 0.14982670004246756, 0.13708570000017062, 0.12679190002381802, 0.1427403999841772, 0.29609749995870516, 0.12882450001779944, 0.17914880003081635, 0.3228216999559663, 0.3391655000159517, 0.1434659999795258, 0.16157290001865476, 0.1438227000180632, 0.0706676000263542, 0.12654739996651188, 0.10507610003696755, 0.17884059995412827, 0.1276489000301808, 0.15960829996038228, 0.09720119996927679, 0.09253000002354383, 0.13684250001097098, 0.35846529999980703, 0.17736060003517196, 0.07919499999843538, 0.1436898999963887, 0.09786209999583662, 0.3731242999783717]","[0.00046790001215413213, 0.03286810003919527, 0.01980480004567653, 0.015657100011594594, 0.013675599999260157, 0.14538269996410236, 0.00019539997447282076, 0.014409900002647191, 0.0002046999870799482, 0.05619689996819943, 0.00019559997599571943, 0.015491399972233921, 0.00019519997294992208, 0.14383259997703135, 0.0002003999543376267, 0.12655679997988045, 0.014313399966340512, 0.00020900001982226968, 0.01480870001250878, 0.15961540001444519, 0.09720909997122362, 0.00021849997574463487, 0.07489290001103655, 0.04378480004379526, 0.1773683000355959, 0.07920310000190511, 0.14369890000671148, 0.03934710001340136, 0.37312970001949]",0,,,,,,,,,,,,,,,,,,,,,,,,,,,,,,,,,,,test,train_y,increasing,top_left,2024-10-30_16h21.22.771,HideSeek_v1,2022.2.5,60.18556412195373,
,,,,,,,,,,,9,0,9,0,2,0,2,0,,,,,,,,,,,,,,,,,,,,,,,conditions/schedules/train_y_first/x_increasing_steps/top_left/instructions/Slide30.png,conditions/schedules/train_y_first/x_increasing_steps/top_left/instructions/Audio30.wav,33.670727199991234,33.65395293995971,30,"[1.9378332999767736, 0.17054750001989305, 0.14982670004246756, 0.13708570000017062, 0.12679190002381802, 0.1427403999841772, 0.29609749995870516, 0.12882450001779944, 0.17914880003081635, 0.3228216999559663, 0.3391655000159517, 0.1434659999795258, 0.16157290001865476, 0.1438227000180632, 0.0706676000263542, 0.12654739996651188, 0.10507610003696755, 0.17884059995412827, 0.1276489000301808, 0.15960829996038228, 0.09720119996927679, 0.09253000002354383, 0.13684250001097098, 0.35846529999980703, 0.17736060003517196, 0.07919499999843538, 0.1436898999963887, 0.09786209999583662, 0.3731242999783717, 0.19114349997835234]","[0.00046790001215413213, 0.03286810003919527, 0.01980480004567653, 0.015657100011594594, 0.013675599999260157, 0.14538269996410236, 0.00019539997447282076, 0.014409900002647191, 0.0002046999870799482, 0.05619689996819943, 0.00019559997599571943, 0.015491399972233921, 0.00019519997294992208, 0.14383259997703135, 0.0002003999543376267, 0.12655679997988045, 0.014313399966340512, 0.00020900001982226968, 0.01480870001250878, 0.15961540001444519, 0.09720909997122362, 0.00021849997574463487, 0.07489290001103655, 0.04378480004379526, 0.1773683000355959, 0.07920310000190511, 0.14369890000671148, 0.03934710001340136, 0.057593600009568036, 0.19115249998867512]",0,,,,,,,,,,,,,,,,,,,,,,,,,,,,,,,,,,,test,train_y,increasing,top_left,2024-10-30_16h21.22.771,HideSeek_v1,2022.2.5,60.18556412195373,
,,,,,,,,,,,9,0,9,0,3,0,3,0,,,,,,,,,,,,,,,,,,,,,,,conditions/schedules/train_y_first/x_increasing_steps/top_left/instructions/Slide31.png,conditions/schedules/train_y_first/x_increasing_steps/top_left/instructions/Audio31.wav,33.904303599963896,33.88715021000826,31,"[1.9378332999767736, 0.17054750001989305, 0.14982670004246756, 0.13708570000017062, 0.12679190002381802, 0.1427403999841772, 0.29609749995870516, 0.12882450001779944, 0.17914880003081635, 0.3228216999559663, 0.3391655000159517, 0.1434659999795258, 0.16157290001865476, 0.1438227000180632, 0.0706676000263542, 0.12654739996651188, 0.10507610003696755, 0.17884059995412827, 0.1276489000301808, 0.15960829996038228, 0.09720119996927679, 0.09253000002354383, 0.13684250001097098, 0.35846529999980703, 0.17736060003517196, 0.07919499999843538, 0.1436898999963887, 0.09786209999583662, 0.3731242999783717, 0.19114349997835234, 0.13633439998375252]","[0.00046790001215413213, 0.03286810003919527, 0.01980480004567653, 0.015657100011594594, 0.013675599999260157, 0.14538269996410236, 0.00019539997447282076, 0.014409900002647191, 0.0002046999870799482, 0.05619689996819943, 0.00019559997599571943, 0.015491399972233921, 0.00019519997294992208, 0.14383259997703135, 0.0002003999543376267, 0.12655679997988045, 0.014313399966340512, 0.00020900001982226968, 0.01480870001250878, 0.15961540001444519, 0.09720909997122362, 0.00021849997574463487, 0.07489290001103655, 0.04378480004379526, 0.1773683000355959, 0.07920310000190511, 0.14369890000671148, 0.03934710001340136, 0.057593600009568036, 0.020199300022795796, 0.13634450000245124]",0,,,,,,,,,,,,,,,,,,,,,,,,,,,,,,,,,,,test,train_y,increasing,top_left,2024-10-30_16h21.22.771,HideSeek_v1,2022.2.5,60.18556412195373,
,,,,,,,,,,,9,0,9,0,,,,,,,,,,,,,,,,,,,,,,,,,,,,,,,,,,,,,17,0.7,0,0,99,1,30,0,conditions/schedules/train_y_first/x_increasing_steps/top_left/inputTrain_1.1.xlsx,99,1,1,1,0,,,,,,,,,,,,,,,,,,,test,train_y,increasing,top_left,2024-10-30_16h21.22.771,HideSeek_v1,2022.2.5,60.18556412195373,
1,2,4,2,6,0,2,14,72,test_exp,train_1D_first_new,,,,,,,,,,,,,,,,,,,,,0,0,0,0,0,0,0,0,,,,,,,,,,,,,,,,,,,,,,,,,,,stimuli/alien_stimuli/14.png,34.18858769995859,34.18858769995859,34.18858769995859,34.18858769995859,34.18858769995859,0,0,return,1.253446500049904,0,0,0,0,-0.08,return,1.1614792000036687,,test,train_y,increasing,top_left,2024-10-30_16h21.22.771,HideSeek_v1,2022.2.5,60.18556412195373,
