trialTrain,x_fixStart,y_fixStart,x_corrSteps,y_corrSteps,x_nrSteps,y_nrSteps,alienID,testlen,version,trial_label,break_on_off,beforeExpLoop.thisRepN,beforeExpLoop.thisTrialN,beforeExpLoop.thisN,beforeExpLoop.thisIndex,mini_instr_trials.thisRepN,mini_instr_trials.thisTrialN,mini_instr_trials.thisN,mini_instr_trials.thisIndex,instrLoop.thisRepN,instrLoop.thisTrialN,instrLoop.thisN,instrLoop.thisIndex,repeat_prac.thisRepN,repeat_prac.thisTrialN,repeat_prac.thisN,repeat_prac.thisIndex,trainLoop.thisRepN,trainLoop.thisTrialN,trainLoop.thisN,trainLoop.thisIndex,experiment.thisRepN,experiment.thisTrialN,experiment.thisN,experiment.thisIndex,moveLoop_test.thisRepN,moveLoop_test.thisTrialN,moveLoop_test.thisN,moveLoop_test.thisIndex,breaks.thisRepN,breaks.thisTrialN,breaks.thisN,breaks.thisIndex,start_all_time,url,slideStim,audioStim,slides.started,sounds.started,nextButton.numClicks,nextButton.timesOn,nextButton.timesOff,prev_but.numClicks,prev_but.timesOn,prev_but.timesOff,perfthres,percthres,earlierperf,earlystop,nextPrac,fileidx,praclen,saveACC_train,pracFile,nextPrac_train,addNrep,fileidx_endr,repExp,showearly,alienStim,gridImage_3.started,alienImage_test.started,startPos_test.started,movePos_test.started,key_resp_test.started,wLy_dir_test,wLx_dir_test,buttonPress_test,RTchoice_test,cumAcctest,saveACC_choice,corrAns_test,x_movePos_end,y_movePos_end,key_resp_test.keys,key_resp_test.rt,fixation_text.started,fixation_text.stopped,draw_alienStim,draw_alienID,test_x,nrepcount,image_break_3.started,key_resp_7.started,key_resp_7.keys,key_resp_7.rt,participant,train_first,00_coordinate,starting corner,date,expName,psychopyVersion,frameRate,
,,,,,,,,,,,,0,0,0,0,0,0,0,0,,,,,,,,,,,,,,,,,,,,,,,,,start_all_time,testround,conditions/schedules/train_y_first/red_square_00/top_left/instructions/Slide1.png,conditions/schedules/train_y_first/red_square_00/top_left/instructions/Audio1.wav,21.46043700003065,21.421599939838053,1,[10.503001500037499],[10.503010999993421],0,,,,,,,,,,,,,,,,,,,,,,,,,,,,,,,,,,,,,,,,,,,,test,train_y,red_square,top_left,2024-11-06_14h15.01.439,HideSeek_v1,2022.2.5,60.00841318770383,
,,,,,,,,,,,,0,0,0,0,1,0,1,0,,,,,,,,,,,,,,,,,,,,,,,,,,,conditions/schedules/train_y_first/red_square_00/top_left/instructions/Slide2.png,conditions/schedules/train_y_first/red_square_00/top_left/instructions/Audio2.wav,31.99356179998722,31.97730335998349,2,"[10.503001500037499, 0.3753756999503821]","[0.141517199925147, 0.37538290000520647]",0,,,,,,,,,,,,,,,,,,,,,,,,,,,,,,,,,,,,,,,,,,,,test,train_y,red_square,top_left,2024-11-06_14h15.01.439,HideSeek_v1,2022.2.5,60.00841318770383,
,,,,,,,,,,,,0,0,0,0,2,0,2,0,,,,,,,,,,,,,,,,,,,,,,,,,,,conditions/schedules/train_y_first/red_square_00/top_left/instructions/Slide3.png,conditions/schedules/train_y_first/red_square_00/top_left/instructions/Audio3.wav,32.41501170000993,32.41089876005426,3,"[10.503001500037499, 0.3753756999503821, 0.2609254999551922]","[0.141517199925147, 0.16051700001116842, 0.2609356000320986]",0,,,,,,,,,,,,,,,,,,,,,,,,,,,,,,,,,,,,,,,,,,,,test,train_y,red_square,top_left,2024-11-06_14h15.01.439,HideSeek_v1,2022.2.5,60.00841318770383,
,,,,,,,,,,,,0,0,0,0,3,0,3,0,,,,,,,,,,,,,,,,,,,,,,,,,,,conditions/schedules/train_y_first/red_square_00/top_left/instructions/Slide4.png,conditions/schedules/train_y_first/red_square_00/top_left/instructions/Audio4.wav,32.72790140006691,32.71075142001501,4,"[10.503001500037499, 0.3753756999503821, 0.2609254999551922, 1.0339294000295922]","[0.141517199925147, 0.16051700001116842, 0.8002798999659717, 1.0339378999779]",0,,,,,,,,,,,,,,,,,,,,,,,,,,,,,,,,,,,,,,,,,,,,test,train_y,red_square,top_left,2024-11-06_14h15.01.439,HideSeek_v1,2022.2.5,60.00841318770383,
,,,,,,,,,,,,0,0,0,0,4,0,4,0,,,,,,,,,,,,,,,,,,,,,,,,,,,conditions/schedules/train_y_first/red_square_00/top_left/instructions/Slide5.png,conditions/schedules/train_y_first/red_square_00/top_left/instructions/Audio5.wav,33.8113527999958,33.81060995997395,5,"[10.503001500037499, 0.3753756999503821, 0.2609254999551922, 1.0339294000295922, 0.2493428000016138]","[0.141517199925147, 0.16051700001116842, 0.8002798999659717, 0.00019890000112354755, 0.2493509000632912]",0,,,,,,,,,,,,,,,,,,,,,,,,,,,,,,,,,,,,,,,,,,,,test,train_y,red_square,top_left,2024-11-06_14h15.01.439,HideSeek_v1,2022.2.5,60.00841318770383,
,,,,,,,,,,,,0,0,0,0,5,0,5,0,,,,,,,,,,,,,,,,,,,,,,,,,,,conditions/schedules/train_y_first/red_square_00/top_left/instructions/Slide6.png,conditions/schedules/train_y_first/red_square_00/top_left/instructions/Audio6.wav,34.11169439996593,34.110543459979816,6,"[10.503001500037499, 0.3753756999503821, 0.2609254999551922, 1.0339294000295922, 0.2493428000016138, 0.16391160001512617]","[0.141517199925147, 0.16051700001116842, 0.8002798999659717, 0.00019890000112354755, 0.01476869999896735, 0.1639202000806108]",0,,,,,,,,,,,,,,,,,,,,,,,,,,,,,,,,,,,,,,,,,,,,test,train_y,red_square,top_left,2024-11-06_14h15.01.439,HideSeek_v1,2022.2.5,60.00841318770383,
,,,,,,,,,,,,0,0,0,0,6,0,6,0,,,,,,,,,,,,,,,,,,,,,,,,,,,conditions/schedules/train_y_first/red_square_00/top_left/instructions/Slide7.png,conditions/schedules/train_y_first/red_square_00/top_left/instructions/Audio7.wav,34.31607110006735,34.3107388200122,7,"[10.503001500037499, 0.3753756999503821, 0.2609254999551922, 1.0339294000295922, 0.2493428000016138, 0.16391160001512617, 0.14301380002871156]","[0.141517199925147, 0.16051700001116842, 0.8002798999659717, 0.00019890000112354755, 0.01476869999896735, 0.014799600001424551, 0.14302170008886606]",0,,,,,,,,,,,,,,,,,,,,,,,,,,,,,,,,,,,,,,,,,,,,test,train_y,red_square,top_left,2024-11-06_14h15.01.439,HideSeek_v1,2022.2.5,60.00841318770383,
,,,,,,,,,,,,0,0,0,0,7,0,7,0,,,,,,,,,,,,,,,,,,,,,,,,,,,conditions/schedules/train_y_first/red_square_00/top_left/instructions/Slide8.png,conditions/schedules/train_y_first/red_square_00/top_left/instructions/Audio8.wav,34.510456899995916,34.494148720067464,8,"[10.503001500037499, 0.3753756999503821, 0.2609254999551922, 1.0339294000295922, 0.2493428000016138, 0.16391160001512617, 0.14301380002871156, 0.1580674999859184]","[0.141517199925147, 0.16051700001116842, 0.8002798999659717, 0.00019890000112354755, 0.01476869999896735, 0.014799600001424551, 0.00018839992117136717, 0.15807549993041903]",0,,,,,,,,,,,,,,,,,,,,,,,,,,,,,,,,,,,,,,,,,,,,test,train_y,red_square,top_left,2024-11-06_14h15.01.439,HideSeek_v1,2022.2.5,60.00841318770383,
,,,,,,,,,,,,0,0,0,0,8,0,8,0,,,,,,,,,,,,,,,,,,,,,,,,,,,conditions/schedules/train_y_first/red_square_00/top_left/instructions/Slide9.png,conditions/schedules/train_y_first/red_square_00/top_left/instructions/Audio9.wav,34.69950550002977,34.693808519991585,9,"[10.503001500037499, 0.3753756999503821, 0.2609254999551922, 1.0339294000295922, 0.2493428000016138, 0.16391160001512617, 0.14301380002871156, 0.1580674999859184, 0.14369980001356453]","[0.141517199925147, 0.16051700001116842, 0.8002798999659717, 0.00019890000112354755, 0.01476869999896735, 0.014799600001424551, 0.00018839992117136717, 0.014986799913458526, 0.1437062999466434]",0,,,,,,,,,,,,,,,,,,,,,,,,,,,,,,,,,,,,,,,,,,,,test,train_y,red_square,top_left,2024-11-06_14h15.01.439,HideSeek_v1,2022.2.5,60.00841318770383,
,,,,,,,,,,,,0,0,0,0,9,0,9,0,,,,,,,,,,,,,,,,,,,,,,,,,,,conditions/schedules/train_y_first/red_square_00/top_left/instructions/Slide10.png,conditions/schedules/train_y_first/red_square_00/top_left/instructions/Audio10.wav,34.87746420002077,34.860527280066165,10,"[10.503001500037499, 0.3753756999503821, 0.2609254999551922, 1.0339294000295922, 0.2493428000016138, 0.16391160001512617, 0.14301380002871156, 0.1580674999859184, 0.14369980001356453, 0.1502023000502959]","[0.141517199925147, 0.16051700001116842, 0.8002798999659717, 0.00019890000112354755, 0.01476869999896735, 0.014799600001424551, 0.00018839992117136717, 0.014986799913458526, 0.01723560004029423, 0.15020919998642057]",0,,,,,,,,,,,,,,,,,,,,,,,,,,,,,,,,,,,,,,,,,,,,test,train_y,red_square,top_left,2024-11-06_14h15.01.439,HideSeek_v1,2022.2.5,60.00841318770383,
,,,,,,,,,,,,0,0,0,0,10,0,10,0,,,,,,,,,,,,,,,,,,,,,,,,,,,conditions/schedules/train_y_first/red_square_00/top_left/instructions/Slide11.png,conditions/schedules/train_y_first/red_square_00/top_left/instructions/Audio11.wav,35.060619099996984,35.04384498000145,11,"[10.503001500037499, 0.3753756999503821, 0.2609254999551922, 1.0339294000295922, 0.2493428000016138, 0.16391160001512617, 0.14301380002871156, 0.1580674999859184, 0.14369980001356453, 0.1502023000502959, 0.1507692999439314]","[0.141517199925147, 0.16051700001116842, 0.8002798999659717, 0.00019890000112354755, 0.01476869999896735, 0.014799600001424551, 0.00018839992117136717, 0.014986799913458526, 0.01723560004029423, 0.017488299985416234, 0.15077710000332445]",0,,,,,,,,,,,,,,,,,,,,,,,,,,,,,,,,,,,,,,,,,,,,test,train_y,red_square,top_left,2024-11-06_14h15.01.439,HideSeek_v1,2022.2.5,60.00841318770383,
,,,,,,,,,,,,0,0,0,0,11,0,11,0,,,,,,,,,,,,,,,,,,,,,,,,,,,conditions/schedules/train_y_first/red_square_00/top_left/instructions/Slide12.png,conditions/schedules/train_y_first/red_square_00/top_left/instructions/Audio12.wav,35.26046320004389,35.24383702002233,12,"[10.503001500037499, 0.3753756999503821, 0.2609254999551922, 1.0339294000295922, 0.2493428000016138, 0.16391160001512617, 0.14301380002871156, 0.1580674999859184, 0.14369980001356453, 0.1502023000502959, 0.1507692999439314, 0.1521364999935031]","[0.141517199925147, 0.16051700001116842, 0.8002798999659717, 0.00019890000112354755, 0.01476869999896735, 0.014799600001424551, 0.00018839992117136717, 0.014986799913458526, 0.01723560004029423, 0.017488299985416234, 0.00019910000264644623, 0.15214479994028807]",0,,,,,,,,,,,,,,,,,,,,,,,,,,,,,,,,,,,,,,,,,,,,test,train_y,red_square,top_left,2024-11-06_14h15.01.439,HideSeek_v1,2022.2.5,60.00841318770383,
,,,,,,,,,,,,0,0,0,0,,,,,,,,,,,,,,,,,,,,,,,,,,,,,,,,,,,,,,,,,17,0.7,0,0,99,1,30,0,conditions/schedules/train_y_first/red_square_00/top_left/inputTrain_1.1.xlsx,99,1,1,1,0,,,,,,,,,,,,,,,,,,,,,,,,,,,,test,train_y,red_square,top_left,2024-11-06_14h15.01.439,HideSeek_v1,2022.2.5,60.00841318770383,
,,,,,,,,,,,,1,0,1,0,0,0,0,0,,,,,,,,,,,,,,,,,,,,,,,,,,,conditions/schedules/train_y_first/red_square_00/top_left/instructions/Slide13.png,conditions/schedules/train_y_first/red_square_00/top_left/instructions/Audio13.wav,35.527188800042495,35.51089328002418,13,"[10.503001500037499, 0.3753756999503821, 0.2609254999551922, 1.0339294000295922, 0.2493428000016138, 0.16391160001512617, 0.14301380002871156, 0.1580674999859184, 0.14369980001356453, 0.1502023000502959, 0.1507692999439314, 0.1521364999935031, 0.20558109995909035]","[0.141517199925147, 0.16051700001116842, 0.8002798999659717, 0.00019890000112354755, 0.01476869999896735, 0.014799600001424551, 0.00018839992117136717, 0.014986799913458526, 0.01723560004029423, 0.017488299985416234, 0.00019910000264644623, 0.15214479994028807, 0.20558880001772195]",0,,,,,,,,,,,,,,,,,,,,,,,,,,,,,,,,,,,,,,,,,,,,test,train_y,red_square,top_left,2024-11-06_14h15.01.439,HideSeek_v1,2022.2.5,60.00841318770383,
,,,,,,,,,,,,1,0,1,0,1,0,1,0,,,,,,,,,,,,,,,,,,,,,,,,,,,conditions/schedules/train_y_first/red_square_00/top_left/instructions/Slide14.png,conditions/schedules/train_y_first/red_square_00/top_left/instructions/Audio14.wav,35.77860409999266,35.77735915998928,14,"[10.503001500037499, 0.3753756999503821, 0.2609254999551922, 1.0339294000295922, 0.2493428000016138, 0.16391160001512617, 0.14301380002871156, 0.1580674999859184, 0.14369980001356453, 0.1502023000502959, 0.1507692999439314, 0.1521364999935031, 0.20558109995909035, 0.14703270001336932]","[0.141517199925147, 0.16051700001116842, 0.8002798999659717, 0.00019890000112354755, 0.01476869999896735, 0.014799600001424551, 0.00018839992117136717, 0.014986799913458526, 0.01723560004029423, 0.017488299985416234, 0.00019910000264644623, 0.15214479994028807, 0.00019230006728321314, 0.14703920006286353]",0,,,,,,,,,,,,,,,,,,,,,,,,,,,,,,,,,,,,,,,,,,,,test,train_y,red_square,top_left,2024-11-06_14h15.01.439,HideSeek_v1,2022.2.5,60.00841318770383,
,,,,,,,,,,,,1,0,1,0,,,,,,,,,,,,,,,,,,,,,,,,,,,,,,,,,,,,,,,,,17,0.7,0,0,99,1,30,0,conditions/schedules/train_y_first/red_square_00/top_left/inputTrain_1.1.xlsx,99,1,1,1,0,,,,,,,,,,,,,,,,,,,,,,,,,,,,test,train_y,red_square,top_left,2024-11-06_14h15.01.439,HideSeek_v1,2022.2.5,60.00841318770383,
,,,,,,,,,,,,2,0,2,0,0,0,0,0,,,,,,,,,,,,,,,,,,,,,,,,,,,conditions/schedules/train_y_first/red_square_00/top_left/instructions/Slide15.png,conditions/schedules/train_y_first/red_square_00/top_left/instructions/Audio15.wav,36.04952110000886,36.04402212002315,15,"[10.503001500037499, 0.3753756999503821, 0.2609254999551922, 1.0339294000295922, 0.2493428000016138, 0.16391160001512617, 0.14301380002871156, 0.1580674999859184, 0.14369980001356453, 0.1502023000502959, 0.1507692999439314, 0.1521364999935031, 0.20558109995909035, 0.14703270001336932, 0.21127990004606545]","[0.141517199925147, 0.16051700001116842, 0.8002798999659717, 0.00019890000112354755, 0.01476869999896735, 0.014799600001424551, 0.00018839992117136717, 0.014986799913458526, 0.01723560004029423, 0.017488299985416234, 0.00019910000264644623, 0.15214479994028807, 0.00019230006728321314, 0.14703920006286353, 0.21128760010469705]",0,,,,,,,,,,,,,,,,,,,,,,,,,,,,,,,,,,,,,,,,,,,,test,train_y,red_square,top_left,2024-11-06_14h15.01.439,HideSeek_v1,2022.2.5,60.00841318770383,
,,,,,,,,,,,,2,0,2,0,1,0,1,0,,,,,,,,,,,,,,,,,,,,,,,,,,,conditions/schedules/train_y_first/red_square_00/top_left/instructions/Slide16.png,conditions/schedules/train_y_first/red_square_00/top_left/instructions/Audio16.wav,36.31060960004106,36.29412122002105,16,"[10.503001500037499, 0.3753756999503821, 0.2609254999551922, 1.0339294000295922, 0.2493428000016138, 0.16391160001512617, 0.14301380002871156, 0.1580674999859184, 0.14369980001356453, 0.1502023000502959, 0.1507692999439314, 0.1521364999935031, 0.20558109995909035, 0.14703270001336932, 0.21127990004606545, 0.17060950002633035]","[0.141517199925147, 0.16051700001116842, 0.8002798999659717, 0.00019890000112354755, 0.01476869999896735, 0.014799600001424551, 0.00018839992117136717, 0.014986799913458526, 0.01723560004029423, 0.017488299985416234, 0.00019910000264644623, 0.15214479994028807, 0.00019230006728321314, 0.14703920006286353, 0.020760799990966916, 0.17061699996702373]",0,,,,,,,,,,,,,,,,,,,,,,,,,,,,,,,,,,,,,,,,,,,,test,train_y,red_square,top_left,2024-11-06_14h15.01.439,HideSeek_v1,2022.2.5,60.00841318770383,
,,,,,,,,,,,,2,0,2,0,,,,,,,,,,,,,,,,,,,,,,,,,,,,,,,,,,,,,,,,,17,0.7,0,0,99,1,30,0,conditions/schedules/train_y_first/red_square_00/top_left/inputTrain_1.1.xlsx,99,1,1,1,0,,,,,,,,,,,,,,,,,,,,,,,,,,,,test,train_y,red_square,top_left,2024-11-06_14h15.01.439,HideSeek_v1,2022.2.5,60.00841318770383,
,,,,,,,,,,,,3,0,3,0,0,0,0,0,,,,,,,,,,,,,,,,,,,,,,,,,,,conditions/schedules/train_y_first/red_square_00/top_left/instructions/Slide17.png,conditions/schedules/train_y_first/red_square_00/top_left/instructions/Audio17.wav,36.583093799999915,36.57727057997836,17,"[10.503001500037499, 0.3753756999503821, 0.2609254999551922, 1.0339294000295922, 0.2493428000016138, 0.16391160001512617, 0.14301380002871156, 0.1580674999859184, 0.14369980001356453, 0.1502023000502959, 0.1507692999439314, 0.1521364999935031, 0.20558109995909035, 0.14703270001336932, 0.21127990004606545, 0.17060950002633035, 0.0762762000085786]","[0.141517199925147, 0.16051700001116842, 0.8002798999659717, 0.00019890000112354755, 0.01476869999896735, 0.014799600001424551, 0.00018839992117136717, 0.014986799913458526, 0.01723560004029423, 0.017488299985416234, 0.00019910000264644623, 0.15214479994028807, 0.00019230006728321314, 0.14703920006286353, 0.020760799990966916, 0.17061699996702373, 0.07628299994394183]",0,,,,,,,,,,,,,,,,,,,,,,,,,,,,,,,,,,,,,,,,,,,,test,train_y,red_square,top_left,2024-11-06_14h15.01.439,HideSeek_v1,2022.2.5,60.00841318770383,
,,,,,,,,,,,,3,0,3,0,1,0,1,0,,,,,,,,,,,,,,,,,,,,,,,,,,,conditions/schedules/train_y_first/red_square_00/top_left/instructions/Slide18.png,conditions/schedules/train_y_first/red_square_00/top_left/instructions/Audio18.wav,36.71063540002797,36.69414012007183,18,"[10.503001500037499, 0.3753756999503821, 0.2609254999551922, 1.0339294000295922, 0.2493428000016138, 0.16391160001512617, 0.14301380002871156, 0.1580674999859184, 0.14369980001356453, 0.1502023000502959, 0.1507692999439314, 0.1521364999935031, 0.20558109995909035, 0.14703270001336932, 0.21127990004606545, 0.17060950002633035, 0.0762762000085786, 0.13987109996378422]","[0.141517199925147, 0.16051700001116842, 0.8002798999659717, 0.00019890000112354755, 0.01476869999896735, 0.014799600001424551, 0.00018839992117136717, 0.014986799913458526, 0.01723560004029423, 0.017488299985416234, 0.00019910000264644623, 0.15214479994028807, 0.00019230006728321314, 0.14703920006286353, 0.020760799990966916, 0.17061699996702373, 0.00019369996152818203, 0.13987760001327842]",0,,,,,,,,,,,,,,,,,,,,,,,,,,,,,,,,,,,,,,,,,,,,test,train_y,red_square,top_left,2024-11-06_14h15.01.439,HideSeek_v1,2022.2.5,60.00841318770383,
,,,,,,,,,,,,3,0,3,0,2,0,2,0,,,,,,,,,,,,,,,,,,,,,,,,,,,conditions/schedules/train_y_first/red_square_00/top_left/instructions/Slide19.png,conditions/schedules/train_y_first/red_square_00/top_left/instructions/Audio19.wav,36.893948600045405,36.87712352002273,19,"[10.503001500037499, 0.3753756999503821, 0.2609254999551922, 1.0339294000295922, 0.2493428000016138, 0.16391160001512617, 0.14301380002871156, 0.1580674999859184, 0.14369980001356453, 0.1502023000502959, 0.1507692999439314, 0.1521364999935031, 0.20558109995909035, 0.14703270001336932, 0.21127990004606545, 0.17060950002633035, 0.0762762000085786, 0.13987109996378422, 0.14001350000035018]","[0.141517199925147, 0.16051700001116842, 0.8002798999659717, 0.00019890000112354755, 0.01476869999896735, 0.014799600001424551, 0.00018839992117136717, 0.014986799913458526, 0.01723560004029423, 0.017488299985416234, 0.00019910000264644623, 0.15214479994028807, 0.00019230006728321314, 0.14703920006286353, 0.020760799990966916, 0.17061699996702373, 0.00019369996152818203, 0.0001984999980777502, 0.1400200999341905]",0,,,,,,,,,,,,,,,,,,,,,,,,,,,,,,,,,,,,,,,,,,,,test,train_y,red_square,top_left,2024-11-06_14h15.01.439,HideSeek_v1,2022.2.5,60.00841318770383,
,,,,,,,,,,,,3,0,3,0,3,0,3,0,,,,,,,,,,,,,,,,,,,,,,,,,,,conditions/schedules/train_y_first/red_square_00/top_left/instructions/Slide20.png,conditions/schedules/train_y_first/red_square_00/top_left/instructions/Audio20.wav,37.0772469000658,37.06048552006251,20,"[10.503001500037499, 0.3753756999503821, 0.2609254999551922, 1.0339294000295922, 0.2493428000016138, 0.16391160001512617, 0.14301380002871156, 0.1580674999859184, 0.14369980001356453, 0.1502023000502959, 0.1507692999439314, 0.1521364999935031, 0.20558109995909035, 0.14703270001336932, 0.21127990004606545, 0.17060950002633035, 0.0762762000085786, 0.13987109996378422, 0.14001350000035018, 0.12399230001028627]","[0.141517199925147, 0.16051700001116842, 0.8002798999659717, 0.00019890000112354755, 0.01476869999896735, 0.014799600001424551, 0.00018839992117136717, 0.014986799913458526, 0.01723560004029423, 0.017488299985416234, 0.00019910000264644623, 0.15214479994028807, 0.00019230006728321314, 0.14703920006286353, 0.020760799990966916, 0.17061699996702373, 0.00019369996152818203, 0.0001984999980777502, 0.1400200999341905, 0.12400010006967932]",0,,,,,,,,,,,,,,,,,,,,,,,,,,,,,,,,,,,,,,,,,,,,test,train_y,red_square,top_left,2024-11-06_14h15.01.439,HideSeek_v1,2022.2.5,60.00841318770383,
,,,,,,,,,,,,3,0,3,0,,,,,,,,,,,,,,,,,,,,,,,,,,,,,,,,,,,,,,,,,17,0.7,0,0,99,1,30,0,conditions/schedules/train_y_first/red_square_00/top_left/inputTrain_1.1.xlsx,99,1,1,1,0,,,,,,,,,,,,,,,,,,,,,,,,,,,,test,train_y,red_square,top_left,2024-11-06_14h15.01.439,HideSeek_v1,2022.2.5,60.00841318770383,
,,,,,,,,,,,,4,0,4,0,0,0,0,0,,,,,,,,,,,,,,,,,,,,,,,,,,,conditions/schedules/train_y_first/red_square_00/top_left/instructions/Slide21.png,conditions/schedules/train_y_first/red_square_00/top_left/instructions/Audio21.wav,37.310573199996725,37.29424867999042,21,"[10.503001500037499, 0.3753756999503821, 0.2609254999551922, 1.0339294000295922, 0.2493428000016138, 0.16391160001512617, 0.14301380002871156, 0.1580674999859184, 0.14369980001356453, 0.1502023000502959, 0.1507692999439314, 0.1521364999935031, 0.20558109995909035, 0.14703270001336932, 0.21127990004606545, 0.17060950002633035, 0.0762762000085786, 0.13987109996378422, 0.14001350000035018, 0.12399230001028627, 0.09131300006993115]","[0.141517199925147, 0.16051700001116842, 0.8002798999659717, 0.00019890000112354755, 0.01476869999896735, 0.014799600001424551, 0.00018839992117136717, 0.014986799913458526, 0.01723560004029423, 0.017488299985416234, 0.00019910000264644623, 0.15214479994028807, 0.00019230006728321314, 0.14703920006286353, 0.020760799990966916, 0.17061699996702373, 0.00019369996152818203, 0.0001984999980777502, 0.1400200999341905, 0.12400010006967932, 0.09131909999996424]",0,,,,,,,,,,,,,,,,,,,,,,,,,,,,,,,,,,,,,,,,,,,,test,train_y,red_square,top_left,2024-11-06_14h15.01.439,HideSeek_v1,2022.2.5,60.00841318770383,
,,,,,,,,,,,,4,0,4,0,,,,,,,,,,,,,,,,,,,,,,,,,,,,,,,,,,,,,,,,,17,0.7,0,0,99,1,30,0,conditions/schedules/train_y_first/red_square_00/top_left/inputTrain_1.1.xlsx,99,1,1,1,0,,,,,,,,,,,,,,,,,,,,,,,,,,,,test,train_y,red_square,top_left,2024-11-06_14h15.01.439,HideSeek_v1,2022.2.5,60.00841318770383,
,,,,,,,,,,,,5,0,5,0,0,0,0,0,,,,,,,,,,,,,,,,,,,,,,,,,,,conditions/schedules/train_y_first/red_square_00/top_left/instructions/Slide22.png,conditions/schedules/train_y_first/red_square_00/top_left/instructions/Audio22.wav,37.51089470006991,37.494095080054834,22,"[10.503001500037499, 0.3753756999503821, 0.2609254999551922, 1.0339294000295922, 0.2493428000016138, 0.16391160001512617, 0.14301380002871156, 0.1580674999859184, 0.14369980001356453, 0.1502023000502959, 0.1507692999439314, 0.1521364999935031, 0.20558109995909035, 0.14703270001336932, 0.21127990004606545, 0.17060950002633035, 0.0762762000085786, 0.13987109996378422, 0.14001350000035018, 0.12399230001028627, 0.09131300006993115, 0.06704819994047284]","[0.141517199925147, 0.16051700001116842, 0.8002798999659717, 0.00019890000112354755, 0.01476869999896735, 0.014799600001424551, 0.00018839992117136717, 0.014986799913458526, 0.01723560004029423, 0.017488299985416234, 0.00019910000264644623, 0.15214479994028807, 0.00019230006728321314, 0.14703920006286353, 0.020760799990966916, 0.17061699996702373, 0.00019369996152818203, 0.0001984999980777502, 0.1400200999341905, 0.12400010006967932, 0.09131909999996424, 0.06705529999453574]",0,,,,,,,,,,,,,,,,,,,,,,,,,,,,,,,,,,,,,,,,,,,,test,train_y,red_square,top_left,2024-11-06_14h15.01.439,HideSeek_v1,2022.2.5,60.00841318770383,
,,,,,,,,,,,,5,0,5,0,,,,,,,,,,,,,,,,,,,,,,,,,,,,,,,,,,,,,,,,,17,0.7,0,0,99,1,30,0,conditions/schedules/train_y_first/red_square_00/top_left/inputTrain_1.1.xlsx,99,1,1,1,0,,,,,,,,,,,,,,,,,,,,,,,,,,,,test,train_y,red_square,top_left,2024-11-06_14h15.01.439,HideSeek_v1,2022.2.5,60.00841318770383,
,,,,,,,,,,,,6,0,6,0,0,0,0,0,,,,,,,,,,,,,,,,,,,,,,,,,,,conditions/schedules/train_y_first/red_square_00/top_left/instructions/Slide23.png,conditions/schedules/train_y_first/red_square_00/top_left/instructions/Audio23.wav,37.68269110005349,37.67746478003683,23,"[10.503001500037499, 0.3753756999503821, 0.2609254999551922, 1.0339294000295922, 0.2493428000016138, 0.16391160001512617, 0.14301380002871156, 0.1580674999859184, 0.14369980001356453, 0.1502023000502959, 0.1507692999439314, 0.1521364999935031, 0.20558109995909035, 0.14703270001336932, 0.21127990004606545, 0.17060950002633035, 0.0762762000085786, 0.13987109996378422, 0.14001350000035018, 0.12399230001028627, 0.09131300006993115, 0.06704819994047284, 0.09356329997535795]","[0.141517199925147, 0.16051700001116842, 0.8002798999659717, 0.00019890000112354755, 0.01476869999896735, 0.014799600001424551, 0.00018839992117136717, 0.014986799913458526, 0.01723560004029423, 0.017488299985416234, 0.00019910000264644623, 0.15214479994028807, 0.00019230006728321314, 0.14703920006286353, 0.020760799990966916, 0.17061699996702373, 0.00019369996152818203, 0.0001984999980777502, 0.1400200999341905, 0.12400010006967932, 0.09131909999996424, 0.06705529999453574, 0.09357100003398955]",0,,,,,,,,,,,,,,,,,,,,,,,,,,,,,,,,,,,,,,,,,,,,test,train_y,red_square,top_left,2024-11-06_14h15.01.439,HideSeek_v1,2022.2.5,60.00841318770383,
,,,,,,,,,,,,6,0,6,0,1,0,1,0,,,,,,,,,,,,,,,,,,,,,,,,,,,conditions/schedules/train_y_first/red_square_00/top_left/instructions/Slide24.png,conditions/schedules/train_y_first/red_square_00/top_left/instructions/Audio24.wav,37.82690149999689,37.81068042003317,24,"[10.503001500037499, 0.3753756999503821, 0.2609254999551922, 1.0339294000295922, 0.2493428000016138, 0.16391160001512617, 0.14301380002871156, 0.1580674999859184, 0.14369980001356453, 0.1502023000502959, 0.1507692999439314, 0.1521364999935031, 0.20558109995909035, 0.14703270001336932, 0.21127990004606545, 0.17060950002633035, 0.0762762000085786, 0.13987109996378422, 0.14001350000035018, 0.12399230001028627, 0.09131300006993115, 0.06704819994047284, 0.09356329997535795, 0.15389479999430478]","[0.141517199925147, 0.16051700001116842, 0.8002798999659717, 0.00019890000112354755, 0.01476869999896735, 0.014799600001424551, 0.00018839992117136717, 0.014986799913458526, 0.01723560004029423, 0.017488299985416234, 0.00019910000264644623, 0.15214479994028807, 0.00019230006728321314, 0.14703920006286353, 0.020760799990966916, 0.17061699996702373, 0.00019369996152818203, 0.0001984999980777502, 0.1400200999341905, 0.12400010006967932, 0.09131909999996424, 0.06705529999453574, 0.020280599943362176, 0.1539027999388054]",0,,,,,,,,,,,,,,,,,,,,,,,,,,,,,,,,,,,,,,,,,,,,test,train_y,red_square,top_left,2024-11-06_14h15.01.439,HideSeek_v1,2022.2.5,60.00841318770383,
,,,,,,,,,,,,6,0,6,0,2,0,2,0,,,,,,,,,,,,,,,,,,,,,,,,,,,conditions/schedules/train_y_first/red_square_00/top_left/instructions/Slide25.png,conditions/schedules/train_y_first/red_square_00/top_left/instructions/Audio25.wav,38.02708829997573,38.010306820052215,25,"[10.503001500037499, 0.3753756999503821, 0.2609254999551922, 1.0339294000295922, 0.2493428000016138, 0.16391160001512617, 0.14301380002871156, 0.1580674999859184, 0.14369980001356453, 0.1502023000502959, 0.1507692999439314, 0.1521364999935031, 0.20558109995909035, 0.14703270001336932, 0.21127990004606545, 0.17060950002633035, 0.0762762000085786, 0.13987109996378422, 0.14001350000035018, 0.12399230001028627, 0.09131300006993115, 0.06704819994047284, 0.09356329997535795, 0.15389479999430478, 0.15594970004167408]","[0.141517199925147, 0.16051700001116842, 0.8002798999659717, 0.00019890000112354755, 0.01476869999896735, 0.014799600001424551, 0.00018839992117136717, 0.014986799913458526, 0.01723560004029423, 0.017488299985416234, 0.00019910000264644623, 0.15214479994028807, 0.00019230006728321314, 0.14703920006286353, 0.020760799990966916, 0.17061699996702373, 0.00019369996152818203, 0.0001984999980777502, 0.1400200999341905, 0.12400010006967932, 0.09131909999996424, 0.06705529999453574, 0.020280599943362176, 0.022417100029997528, 0.15596240002196282]",0,,,,,,,,,,,,,,,,,,,,,,,,,,,,,,,,,,,,,,,,,,,,test,train_y,red_square,top_left,2024-11-06_14h15.01.439,HideSeek_v1,2022.2.5,60.00841318770383,
,,,,,,,,,,,,6,0,6,0,,,,,,,,,,,,,,,,,,,,,,,,,,,,,,,,,,,,,,,,,17,0.7,0,0,99,1,30,0,conditions/schedules/train_y_first/red_square_00/top_left/inputTrain_1.1.xlsx,99,1,1,1,0,,,,,,,,,,,,,,,,,,,,,,,,,,,,test,train_y,red_square,top_left,2024-11-06_14h15.01.439,HideSeek_v1,2022.2.5,60.00841318770383,
,,,,,,,,,,,,7,0,7,0,0,0,0,0,,,,,,,,,,,,,,,,,,,,,,,,,,,conditions/schedules/train_y_first/red_square_00/top_left/instructions/Slide26.png,conditions/schedules/train_y_first/red_square_00/top_left/instructions/Audio26.wav,38.29374660004396,38.277386279997884,26,"[10.503001500037499, 0.3753756999503821, 0.2609254999551922, 1.0339294000295922, 0.2493428000016138, 0.16391160001512617, 0.14301380002871156, 0.1580674999859184, 0.14369980001356453, 0.1502023000502959, 0.1507692999439314, 0.1521364999935031, 0.20558109995909035, 0.14703270001336932, 0.21127990004606545, 0.17060950002633035, 0.0762762000085786, 0.13987109996378422, 0.14001350000035018, 0.12399230001028627, 0.09131300006993115, 0.06704819994047284, 0.09356329997535795, 0.15389479999430478, 0.15594970004167408, 0.08462660002987832]","[0.141517199925147, 0.16051700001116842, 0.8002798999659717, 0.00019890000112354755, 0.01476869999896735, 0.014799600001424551, 0.00018839992117136717, 0.014986799913458526, 0.01723560004029423, 0.017488299985416234, 0.00019910000264644623, 0.15214479994028807, 0.00019230006728321314, 0.14703920006286353, 0.020760799990966916, 0.17061699996702373, 0.00019369996152818203, 0.0001984999980777502, 0.1400200999341905, 0.12400010006967932, 0.09131909999996424, 0.06705529999453574, 0.020280599943362176, 0.022417100029997528, 0.15596240002196282, 0.08463419997133315]",0,,,,,,,,,,,,,,,,,,,,,,,,,,,,,,,,,,,,,,,,,,,,test,train_y,red_square,top_left,2024-11-06_14h15.01.439,HideSeek_v1,2022.2.5,60.00841318770383,
,,,,,,,,,,,,7,0,7,0,,,,,,,,,,,,,,,,,,,,,,,,,,,,,,,,,,,,,,,,,17,0.7,0,0,99,1,30,0,conditions/schedules/train_y_first/red_square_00/top_left/inputTrain_1.1.xlsx,99,1,1,1,0,,,,,,,,,,,,,,,,,,,,,,,,,,,,test,train_y,red_square,top_left,2024-11-06_14h15.01.439,HideSeek_v1,2022.2.5,60.00841318770383,
,,,,,,,,,,,,8,0,8,0,0,0,0,0,,,,,,,,,,,,,,,,,,,,,,,,,,,conditions/schedules/train_y_first/red_square_00/top_left/instructions/Slide27.png,conditions/schedules/train_y_first/red_square_00/top_left/instructions/Audio27.wav,38.493848200072534,38.47707798004849,27,"[10.503001500037499, 0.3753756999503821, 0.2609254999551922, 1.0339294000295922, 0.2493428000016138, 0.16391160001512617, 0.14301380002871156, 0.1580674999859184, 0.14369980001356453, 0.1502023000502959, 0.1507692999439314, 0.1521364999935031, 0.20558109995909035, 0.14703270001336932, 0.21127990004606545, 0.17060950002633035, 0.0762762000085786, 0.13987109996378422, 0.14001350000035018, 0.12399230001028627, 0.09131300006993115, 0.06704819994047284, 0.09356329997535795, 0.15389479999430478, 0.15594970004167408, 0.08462660002987832, 0.08900669997092336]","[0.141517199925147, 0.16051700001116842, 0.8002798999659717, 0.00019890000112354755, 0.01476869999896735, 0.014799600001424551, 0.00018839992117136717, 0.014986799913458526, 0.01723560004029423, 0.017488299985416234, 0.00019910000264644623, 0.15214479994028807, 0.00019230006728321314, 0.14703920006286353, 0.020760799990966916, 0.17061699996702373, 0.00019369996152818203, 0.0001984999980777502, 0.1400200999341905, 0.12400010006967932, 0.09131909999996424, 0.06705529999453574, 0.020280599943362176, 0.022417100029997528, 0.15596240002196282, 0.08463419997133315, 0.08901400002650917]",0,,,,,,,,,,,,,,,,,,,,,,,,,,,,,,,,,,,,,,,,,,,,test,train_y,red_square,top_left,2024-11-06_14h15.01.439,HideSeek_v1,2022.2.5,60.00841318770383,
,,,,,,,,,,,,8,0,8,0,,,,,,,,,,,,,,,,,,,,,,,,,,,,,,,,,,,,,,,,,17,0.7,0,0,99,1,30,0,conditions/schedules/train_y_first/red_square_00/top_left/inputTrain_1.1.xlsx,99,1,1,1,0,,,,,,,,,,,,,,,,,,,,,,,,,,,,test,train_y,red_square,top_left,2024-11-06_14h15.01.439,HideSeek_v1,2022.2.5,60.00841318770383,
,,,,,,,,,,,,9,0,9,0,0,0,0,0,,,,,,,,,,,,,,,,,,,,,,,,,,,conditions/schedules/train_y_first/red_square_00/top_left/instructions/Slide28.png,conditions/schedules/train_y_first/red_square_00/top_left/instructions/Audio28.wav,38.69420899997931,38.67729778004578,28,"[10.503001500037499, 0.3753756999503821, 0.2609254999551922, 1.0339294000295922, 0.2493428000016138, 0.16391160001512617, 0.14301380002871156, 0.1580674999859184, 0.14369980001356453, 0.1502023000502959, 0.1507692999439314, 0.1521364999935031, 0.20558109995909035, 0.14703270001336932, 0.21127990004606545, 0.17060950002633035, 0.0762762000085786, 0.13987109996378422, 0.14001350000035018, 0.12399230001028627, 0.09131300006993115, 0.06704819994047284, 0.09356329997535795, 0.15389479999430478, 0.15594970004167408, 0.08462660002987832, 0.08900669997092336, 0.08666240004822612]","[0.141517199925147, 0.16051700001116842, 0.8002798999659717, 0.00019890000112354755, 0.01476869999896735, 0.014799600001424551, 0.00018839992117136717, 0.014986799913458526, 0.01723560004029423, 0.017488299985416234, 0.00019910000264644623, 0.15214479994028807, 0.00019230006728321314, 0.14703920006286353, 0.020760799990966916, 0.17061699996702373, 0.00019369996152818203, 0.0001984999980777502, 0.1400200999341905, 0.12400010006967932, 0.09131909999996424, 0.06705529999453574, 0.020280599943362176, 0.022417100029997528, 0.15596240002196282, 0.08463419997133315, 0.08901400002650917, 0.086668899981305]",0,,,,,,,,,,,,,,,,,,,,,,,,,,,,,,,,,,,,,,,,,,,,test,train_y,red_square,top_left,2024-11-06_14h15.01.439,HideSeek_v1,2022.2.5,60.00841318770383,
,,,,,,,,,,,,9,0,9,0,1,0,1,0,,,,,,,,,,,,,,,,,,,,,,,,,,,conditions/schedules/train_y_first/red_square_00/top_left/instructions/Slide29.png,conditions/schedules/train_y_first/red_square_00/top_left/instructions/Audio29.wav,38.82748290000018,38.82727036005817,29,"[10.503001500037499, 0.3753756999503821, 0.2609254999551922, 1.0339294000295922, 0.2493428000016138, 0.16391160001512617, 0.14301380002871156, 0.1580674999859184, 0.14369980001356453, 0.1502023000502959, 0.1507692999439314, 0.1521364999935031, 0.20558109995909035, 0.14703270001336932, 0.21127990004606545, 0.17060950002633035, 0.0762762000085786, 0.13987109996378422, 0.14001350000035018, 0.12399230001028627, 0.09131300006993115, 0.06704819994047284, 0.09356329997535795, 0.15389479999430478, 0.15594970004167408, 0.08462660002987832, 0.08900669997092336, 0.08666240004822612, 0.1489026000490412]","[0.141517199925147, 0.16051700001116842, 0.8002798999659717, 0.00019890000112354755, 0.01476869999896735, 0.014799600001424551, 0.00018839992117136717, 0.014986799913458526, 0.01723560004029423, 0.017488299985416234, 0.00019910000264644623, 0.15214479994028807, 0.00019230006728321314, 0.14703920006286353, 0.020760799990966916, 0.17061699996702373, 0.00019369996152818203, 0.0001984999980777502, 0.1400200999341905, 0.12400010006967932, 0.09131909999996424, 0.06705529999453574, 0.020280599943362176, 0.022417100029997528, 0.15596240002196282, 0.08463419997133315, 0.08901400002650917, 0.00020190002396702766, 0.14890850009396672]",0,,,,,,,,,,,,,,,,,,,,,,,,,,,,,,,,,,,,,,,,,,,,test,train_y,red_square,top_left,2024-11-06_14h15.01.439,HideSeek_v1,2022.2.5,60.00841318770383,
,,,,,,,,,,,,9,0,9,0,2,0,2,0,,,,,,,,,,,,,,,,,,,,,,,,,,,conditions/schedules/train_y_first/red_square_00/top_left/instructions/Slide30.png,conditions/schedules/train_y_first/red_square_00/top_left/instructions/Audio30.wav,39.010239899973385,38.99364927997813,30,"[10.503001500037499, 0.3753756999503821, 0.2609254999551922, 1.0339294000295922, 0.2493428000016138, 0.16391160001512617, 0.14301380002871156, 0.1580674999859184, 0.14369980001356453, 0.1502023000502959, 0.1507692999439314, 0.1521364999935031, 0.20558109995909035, 0.14703270001336932, 0.21127990004606545, 0.17060950002633035, 0.0762762000085786, 0.13987109996378422, 0.14001350000035018, 0.12399230001028627, 0.09131300006993115, 0.06704819994047284, 0.09356329997535795, 0.15389479999430478, 0.15594970004167408, 0.08462660002987832, 0.08900669997092336, 0.08666240004822612, 0.1489026000490412, 0.1546095999656245]","[0.141517199925147, 0.16051700001116842, 0.8002798999659717, 0.00019890000112354755, 0.01476869999896735, 0.014799600001424551, 0.00018839992117136717, 0.014986799913458526, 0.01723560004029423, 0.017488299985416234, 0.00019910000264644623, 0.15214479994028807, 0.00019230006728321314, 0.14703920006286353, 0.020760799990966916, 0.17061699996702373, 0.00019369996152818203, 0.0001984999980777502, 0.1400200999341905, 0.12400010006967932, 0.09131909999996424, 0.06705529999453574, 0.020280599943362176, 0.022417100029997528, 0.15596240002196282, 0.08463419997133315, 0.08901400002650917, 0.00020190002396702766, 0.02041789994109422, 0.1546169000212103]",0,,,,,,,,,,,,,,,,,,,,,,,,,,,,,,,,,,,,,,,,,,,,test,train_y,red_square,top_left,2024-11-06_14h15.01.439,HideSeek_v1,2022.2.5,60.00841318770383,
,,,,,,,,,,,,9,0,9,0,3,0,3,0,,,,,,,,,,,,,,,,,,,,,,,,,,,conditions/schedules/train_y_first/red_square_00/top_left/instructions/Slide31.png,conditions/schedules/train_y_first/red_square_00/top_left/instructions/Audio31.wav,39.21063640003558,39.19432371995645,31,"[10.503001500037499, 0.3753756999503821, 0.2609254999551922, 1.0339294000295922, 0.2493428000016138, 0.16391160001512617, 0.14301380002871156, 0.1580674999859184, 0.14369980001356453, 0.1502023000502959, 0.1507692999439314, 0.1521364999935031, 0.20558109995909035, 0.14703270001336932, 0.21127990004606545, 0.17060950002633035, 0.0762762000085786, 0.13987109996378422, 0.14001350000035018, 0.12399230001028627, 0.09131300006993115, 0.06704819994047284, 0.09356329997535795, 0.15389479999430478, 0.15594970004167408, 0.08462660002987832, 0.08900669997092336, 0.08666240004822612, 0.1489026000490412, 0.1546095999656245, 0.1528443000279367]","[0.141517199925147, 0.16051700001116842, 0.8002798999659717, 0.00019890000112354755, 0.01476869999896735, 0.014799600001424551, 0.00018839992117136717, 0.014986799913458526, 0.01723560004029423, 0.017488299985416234, 0.00019910000264644623, 0.15214479994028807, 0.00019230006728321314, 0.14703920006286353, 0.020760799990966916, 0.17061699996702373, 0.00019369996152818203, 0.0001984999980777502, 0.1400200999341905, 0.12400010006967932, 0.09131909999996424, 0.06705529999453574, 0.020280599943362176, 0.022417100029997528, 0.15596240002196282, 0.08463419997133315, 0.08901400002650917, 0.00020190002396702766, 0.02041789994109422, 0.00021920003928244114, 0.15285149996634573]",0,,,,,,,,,,,,,,,,,,,,,,,,,,,,,,,,,,,,,,,,,,,,test,train_y,red_square,top_left,2024-11-06_14h15.01.439,HideSeek_v1,2022.2.5,60.00841318770383,
,,,,,,,,,,,,9,0,9,0,,,,,,,,,,,,,,,,,,,,,,,,,,,,,,,,,,,,,,,,,17,0.7,0,0,99,1,30,0,conditions/schedules/train_y_first/red_square_00/top_left/inputTrain_1.1.xlsx,99,1,1,1,0,,,,,,,,,,,,,,,,,,,,,,,,,,,,test,train_y,red_square,top_left,2024-11-06_14h15.01.439,HideSeek_v1,2022.2.5,60.00841318770383,
1,2,9,2,7,0,-2,14,72,test_exp,train_1D_first_new,0,,,,,,,,,,,,,,,,,,,,,0,0,0,0,0,0,0,0,,,,,,,,,,,,,,,,,,,,,,,,,,,,,,,stimuli/alien_stimuli/14.png,39.5435439000139,39.5435439000139,39.5435439000139,39.5435439000139,39.5435439000139,0,0,return,0.8618381000123918,0,0,0,0,0.32,return,0.7182167998980731,,,,,,,,,,,test,train_y,red_square,top_left,2024-11-06_14h15.01.439,HideSeek_v1,2022.2.5,60.00841318770383,
1,2,9,2,7,0,-2,14,72,test_exp,train_1D_first_new,0,,,,,,,,,,,,,,,,,,,,,0,0,0,0,,,,,,,,,,,,,,,,,,,,,,,,,,,,,,,,,,,,,,,,,,,,,,,,,,,,40.310394900036044,41.39440570003353,stimuli/alien_stimuli/14.png,14,2,1,,,,,test,train_y,red_square,top_left,2024-11-06_14h15.01.439,HideSeek_v1,2022.2.5,60.00841318770383,
2,4,6,7,2,3,-4,42,72,test_exp,untrained,0,,,,,,,,,,,,,,,,,,,,,0,1,1,1,0,0,0,0,,,,,,,,,,,,,,,,,,,,,,,,,,,,,,,stimuli/alien_stimuli/42.png,41.39440570003353,41.39440570003353,41.39440570003353,41.39440570003353,41.39440570003353,0,0,return,0.29510849993675947,0,0,0,0.16,0.08,return,0.19791250000707805,,,,,,,,,,,test,train_y,red_square,top_left,2024-11-06_14h15.01.439,HideSeek_v1,2022.2.5,60.00841318770383,
2,4,6,7,2,3,-4,42,72,test_exp,untrained,0,,,,,,,,,,,,,,,,,,,,,0,1,1,1,,,,,,,,,,,,,,,,,,,,,,,,,,,,,,,,,,,,,,,,,,,,,,,,,,,,41.62701329996344,42.69345700007398,stimuli/alien_stimuli/14.png,14,2,2,,,,,test,train_y,red_square,top_left,2024-11-06_14h15.01.439,HideSeek_v1,2022.2.5,60.00841318770383,
3,1,6,4,5,3,-1,45,72,test_exp,untrained,0,,,,,,,,,,,,,,,,,,,,,0,2,2,2,0,0,0,0,,,,,,,,,,,,,,,,,,,,,,,,,,,,,,,stimuli/alien_stimuli/45.png,42.69345700007398,42.69345700007398,42.69345700007398,42.69345700007398,42.69345700007398,0,0,return,0.27903740003239363,0,0,0,-0.08,0.08,return,0.18868749996181577,,,,,,,,,,,test,train_y,red_square,top_left,2024-11-06_14h15.01.439,HideSeek_v1,2022.2.5,60.00841318770383,
3,1,6,4,5,3,-1,45,72,test_exp,untrained,0,,,,,,,,,,,,,,,,,,,,,0,2,2,2,,,,,,,,,,,,,,,,,,,,,,,,,,,,,,,,,,,,,,,,,,,,,,,,,,,,42.92677260003984,44.02682290005032,stimuli/alien_stimuli/14.png,14,2,3,,,,,test,train_y,red_square,top_left,2024-11-06_14h15.01.439,HideSeek_v1,2022.2.5,60.00841318770383,
4,0,5,0,4,0,-1,15,72,test_exp,train_1D_first_repeat,0,,,,,,,,,,,,,,,,,,,,,0,3,3,3,0,0,0,0,,,,,,,,,,,,,,,,,,,,,,,,,,,,,,,stimuli/alien_stimuli/15.png,44.02682290005032,44.02682290005032,44.02682290005032,44.02682290005032,44.02682290005032,0,0,return,0.2784825999988243,0,0,0,-0.16,0,return,0.16444169997703284,,,,,,,,,,,test,train_y,red_square,top_left,2024-11-06_14h15.01.439,HideSeek_v1,2022.2.5,60.00841318770383,
4,0,5,0,4,0,-1,15,72,test_exp,train_1D_first_repeat,0,,,,,,,,,,,,,,,,,,,,,0,3,3,3,,,,,,,,,,,,,,,,,,,,,,,,,,,,,,,,,,,,,,,,,,,,,,,,,,,,44.22702250001021,45.32704480004031,stimuli/alien_stimuli/14.png,14,2,4,,,,,test,train_y,red_square,top_left,2024-11-06_14h15.01.439,HideSeek_v1,2022.2.5,60.00841318770383,
5,4,9,9,4,5,-5,61,72,test_exp,untrained,0,,,,,,,,,,,,,,,,,,,,,0,4,4,4,0,0,0,0,,,,,,,,,,,,,,,,,,,,,,,,,,,,,,,stimuli/alien_stimuli/61.png,45.32704480004031,45.32704480004031,45.32704480004031,45.32704480004031,45.32704480004031,0,0,return,0.3124788000714034,0,0,0,0.16,0.32,return,0.18807999999262393,,,,,,,,,,,test,train_y,red_square,top_left,2024-11-06_14h15.01.439,HideSeek_v1,2022.2.5,60.00841318770383,
5,4,9,9,4,5,-5,61,72,test_exp,untrained,0,,,,,,,,,,,,,,,,,,,,,0,4,4,4,,,,,,,,,,,,,,,,,,,,,,,,,,,,,,,,,,,,,,,,,,,,,,,,,,,,45.56054470001254,46.62710949999746,stimuli/alien_stimuli/14.png,14,2,5,,,,,test,train_y,red_square,top_left,2024-11-06_14h15.01.439,HideSeek_v1,2022.2.5,60.00841318770383,
6,0,7,5,4,5,-3,63,72,test_exp,untrained,0,,,,,,,,,,,,,,,,,,,,,0,5,5,5,0,0,0,0,,,,,,,,,,,,,,,,,,,,,,,,,,,,,,,stimuli/alien_stimuli/63.png,46.62710949999746,46.62710949999746,46.62710949999746,46.62710949999746,46.62710949999746,0,0,return,0.21238389995414764,0,0,0,-0.16,0.16,return,0.13209339999593794,,,,,,,,,,,test,train_y,red_square,top_left,2024-11-06_14h15.01.439,HideSeek_v1,2022.2.5,60.00841318770383,
6,0,7,5,4,5,-3,63,72,test_exp,untrained,0,,,,,,,,,,,,,,,,,,,,,0,5,5,5,,,,,,,,,,,,,,,,,,,,,,,,,,,,,,,,,,,,,,,,,,,,,,,,,,,,46.793836100026965,47.876914700027555,stimuli/alien_stimuli/14.png,14,2,6,,,,,test,train_y,red_square,top_left,2024-11-06_14h15.01.439,HideSeek_v1,2022.2.5,60.00841318770383,
7,4,5,6,0,2,-5,31,72,test_exp,untrained,0,,,,,,,,,,,,,,,,,,,,,0,6,6,6,0,0,0,0,,,,,,,,,,,,,,,,,,,,,,,,,,,,,,,stimuli/alien_stimuli/31.png,47.876914700027555,47.876914700027555,47.876914700027555,47.876914700027555,47.876914700027555,0,0,return,0.3112136999843642,0,0,0,0.16,0,return,0.20246569998562336,,,,,,,,,,,test,train_y,red_square,top_left,2024-11-06_14h15.01.439,HideSeek_v1,2022.2.5,60.00841318770383,
7,4,5,6,0,2,-5,31,72,test_exp,untrained,0,,,,,,,,,,,,,,,,,,,,,0,6,6,6,,,,,,,,,,,,,,,,,,,,,,,,,,,,,,,,,,,,,,,,,,,,,,,,,,,,48.12683269998524,49.21004110004287,stimuli/alien_stimuli/14.png,14,2,7,,,,,test,train_y,red_square,top_left,2024-11-06_14h15.01.439,HideSeek_v1,2022.2.5,60.00841318770383,
8,2,6,5,3,3,-3,43,72,test_exp,train_2D_repeat,0,,,,,,,,,,,,,,,,,,,,,0,7,7,7,0,0,0,0,,,,,,,,,,,,,,,,,,,,,,,,,,,,,,,stimuli/alien_stimuli/43.png,49.21004110004287,49.21004110004287,49.21004110004287,49.21004110004287,49.21004110004287,0,0,return,0.2617802999448031,0,0,0,0,0.08,return,0.16139929997734725,,,,,,,,,,,test,train_y,red_square,top_left,2024-11-06_14h15.01.439,HideSeek_v1,2022.2.5,60.00841318770383,
8,2,6,5,3,3,-3,43,72,test_exp,train_2D_repeat,0,,,,,,,,,,,,,,,,,,,,,0,7,7,7,,,,,,,,,,,,,,,,,,,,,,,,,,,,,,,,,,,,,,,,,,,,,,,,,,,,49.41023050004151,50.49437700002454,stimuli/alien_stimuli/14.png,14,2,8,,,,,test,train_y,red_square,top_left,2024-11-06_14h15.01.439,HideSeek_v1,2022.2.5,60.00841318770383,
9,4,8,8,3,4,-5,51,72,test_exp,untrained,0,,,,,,,,,,,,,,,,,,,,,0,8,8,8,0,0,0,0,,,,,,,,,,,,,,,,,,,,,,,,,,,,,,,stimuli/alien_stimuli/51.png,50.49437700002454,50.49437700002454,50.49437700002454,50.49437700002454,50.49437700002454,0,0,return,0.27934480004478246,0,0,0,0.16,0.24,return,0.1748719000024721,,,,,,,,,,,test,train_y,red_square,top_left,2024-11-06_14h15.01.439,HideSeek_v1,2022.2.5,60.00841318770383,
9,4,8,8,3,4,-5,51,72,test_exp,untrained,0,,,,,,,,,,,,,,,,,,,,,0,8,8,8,,,,,,,,,,,,,,,,,,,,,,,,,,,,,,,,,,,,,,,,,,,,,,,,,,,,50.710493799997494,51.81059400003869,stimuli/alien_stimuli/14.png,14,2,9,,,,,test,train_y,red_square,top_left,2024-11-06_14h15.01.439,HideSeek_v1,2022.2.5,60.00841318770383,
10,1,5,2,0,1,-5,21,72,test_exp,train_2D_repeat,0,,,,,,,,,,,,,,,,,,,,,0,9,9,9,0,0,0,0,,,,,,,,,,,,,,,,,,,,,,,,,,,,,,,stimuli/alien_stimuli/21.png,51.81059400003869,51.81059400003869,51.81059400003869,51.81059400003869,51.81059400003869,0,0,return,0.22945440001785755,0,0,0,-0.08,0,return,0.11697969993110746,,,,,,,,,,,test,train_y,red_square,top_left,2024-11-06_14h15.01.439,HideSeek_v1,2022.2.5,60.00841318770383,
10,1,5,2,0,1,-5,21,72,test_exp,train_2D_repeat,0,,,,,,,,,,,,,,,,,,,,,0,9,9,9,,,,,,,,,,,,,,,,,,,,,,,,,,,,,,,,,,,,,,,,,,,,,,,,,,,,51.96019370004069,53.043720399960876,stimuli/alien_stimuli/14.png,14,2,10,,,,,test,train_y,red_square,top_left,2024-11-06_14h15.01.439,HideSeek_v1,2022.2.5,60.00841318770383,
11,3,5,7,3,4,-2,54,72,test_exp,train_2D_repeat,0,,,,,,,,,,,,,,,,,,,,,0,10,10,10,0,0,0,0,,,,,,,,,,,,,,,,,,,,,,,,,,,,,,,stimuli/alien_stimuli/54.png,53.043720399960876,53.043720399960876,53.043720399960876,53.043720399960876,53.043720399960876,0,0,return,0.5791844999184832,0,0,0,0.08,0,return,0.47130299999844283,,,,,,,,,,,test,train_y,red_square,top_left,2024-11-06_14h15.01.439,HideSeek_v1,2022.2.5,60.00841318770383,
11,3,5,7,3,4,-2,54,72,test_exp,train_2D_repeat,0,,,,,,,,,,,,,,,,,,,,,0,10,10,10,,,,,,,,,,,,,,,,,,,,,,,,,,,,,,,,,,,,,,,,,,,,,,,,,,,,53.560198300052434,54.64473070006352,stimuli/alien_stimuli/14.png,14,2,11,,,,,test,train_y,red_square,top_left,2024-11-06_14h15.01.439,HideSeek_v1,2022.2.5,60.00841318770383,
12,2,8,3,8,1,0,26,72,test_exp,train_1D_sec_new,0,,,,,,,,,,,,,,,,,,,,,0,11,11,11,0,0,0,0,,,,,,,,,,,,,,,,,,,,,,,,,,,,,,,stimuli/alien_stimuli/26.png,54.64473070006352,54.64473070006352,54.64473070006352,54.64473070006352,54.64473070006352,0,0,return,0.2952701000031084,0,0,0,0,0.24,return,0.1960552999516949,,,,,,,,,,,test,train_y,red_square,top_left,2024-11-06_14h15.01.439,HideSeek_v1,2022.2.5,60.00841318770383,
12,2,8,3,8,1,0,26,72,test_exp,train_1D_sec_new,0,,,,,,,,,,,,,,,,,,,,,0,11,11,11,,,,,,,,,,,,,,,,,,,,,,,,,,,,,,,,,,,,,,,,,,,,,,,,,,,,54.87681100005284,56.01014470006339,stimuli/alien_stimuli/14.png,14,2,12,,,,,test,train_y,red_square,top_left,2024-11-06_14h15.01.439,HideSeek_v1,2022.2.5,60.00841318770383,
13,1,7,1,3,0,-4,12,72,test_exp,train_1D_first_new,0,,,,,,,,,,,,,,,,,,,,,0,12,12,12,0,0,0,0,,,,,,,,,,,,,,,,,,,,,,,,,,,,,,,stimuli/alien_stimuli/12.png,56.01014470006339,56.01014470006339,56.01014470006339,56.01014470006339,56.01014470006339,0,0,return,0.24607690004631877,0,0,0,-0.08,0.16,return,0.09981079993303865,,,,,,,,,,,test,train_y,red_square,top_left,2024-11-06_14h15.01.439,HideSeek_v1,2022.2.5,60.00841318770383,
13,1,7,1,3,0,-4,12,72,test_exp,train_1D_first_new,0,,,,,,,,,,,,,,,,,,,,,0,12,12,12,,,,,,,,,,,,,,,,,,,,,,,,,,,,,,,,,,,,,,,,,,,,,,,,,,,,56.1434697000077,57.226676500053145,stimuli/alien_stimuli/14.png,14,2,13,,,,,test,train_y,red_square,top_left,2024-11-06_14h15.01.439,HideSeek_v1,2022.2.5,60.00841318770383,
14,2,8,5,8,3,0,46,72,test_exp,untrained_1D_sec_leftout,0,,,,,,,,,,,,,,,,,,,,,0,13,13,13,0,0,0,0,,,,,,,,,,,,,,,,,,,,,,,,,,,,,,,stimuli/alien_stimuli/46.png,57.226676500053145,57.226676500053145,57.226676500053145,57.226676500053145,57.226676500053145,0,0,return,0.2120429000351578,0,0,0,0,0.24,return,0.11452100006863475,,,,,,,,,,,test,train_y,red_square,top_left,2024-11-06_14h15.01.439,HideSeek_v1,2022.2.5,60.00841318770383,
14,2,8,5,8,3,0,46,72,test_exp,untrained_1D_sec_leftout,0,,,,,,,,,,,,,,,,,,,,,0,13,13,13,,,,,,,,,,,,,,,,,,,,,,,,,,,,,,,,,,,,,,,,,,,,,,,,,,,,57.37663309997879,58.46016550005879,stimuli/alien_stimuli/14.png,14,2,14,,,,,test,train_y,red_square,top_left,2024-11-06_14h15.01.439,HideSeek_v1,2022.2.5,60.00841318770383,
15,2,9,2,9,0,0,16,72,test_exp,train_1D_sec_repeat,0,,,,,,,,,,,,,,,,,,,,,0,14,14,14,0,0,0,0,,,,,,,,,,,,,,,,,,,,,,,,,,,,,,,stimuli/alien_stimuli/16.png,58.46016550005879,58.46016550005879,58.46016550005879,58.46016550005879,58.46016550005879,0,0,return,0.2632129000267014,1,0,1,0,0.32,return,0.16430380009114742,,,,,,,,,,,test,train_y,red_square,top_left,2024-11-06_14h15.01.439,HideSeek_v1,2022.2.5,60.00841318770383,
15,2,9,2,9,0,0,16,72,test_exp,train_1D_sec_repeat,0,,,,,,,,,,,,,,,,,,,,,0,14,14,14,,,,,,,,,,,,,,,,,,,,,,,,,,,,,,,,,,,,,,,,,,,,,,,,,,,,58.6603419999592,59.743485099985264,stimuli/alien_stimuli/14.png,14,2,15,,,,,test,train_y,red_square,top_left,2024-11-06_14h15.01.439,HideSeek_v1,2022.2.5,60.00841318770383,
16,1,9,3,8,2,-1,35,72,test_exp,untrained,0,,,,,,,,,,,,,,,,,,,,,0,15,15,15,0,0,0,0,,,,,,,,,,,,,,,,,,,,,,,,,,,,,,,stimuli/alien_stimuli/35.png,59.743485099985264,59.743485099985264,59.743485099985264,59.743485099985264,59.743485099985264,0,0,return,0.2292622000677511,1,0,0,-0.08,0.32,return,0.12112219992559403,,,,,,,,,,,test,train_y,red_square,top_left,2024-11-06_14h15.01.439,HideSeek_v1,2022.2.5,60.00841318770383,
16,1,9,3,8,2,-1,35,72,test_exp,untrained,0,,,,,,,,,,,,,,,,,,,,,0,15,15,15,,,,,,,,,,,,,,,,,,,,,,,,,,,,,,,,,,,,,,,,,,,,,,,,,,,,59.909771500038914,61.01074960001279,stimuli/alien_stimuli/14.png,14,2,16,,,,,test,train_y,red_square,top_left,2024-11-06_14h15.01.439,HideSeek_v1,2022.2.5,60.00841318770383,
17,3,7,8,3,5,-4,62,72,test_exp,untrained,0,,,,,,,,,,,,,,,,,,,,,0,16,16,16,0,0,0,0,,,,,,,,,,,,,,,,,,,,,,,,,,,,,,,stimuli/alien_stimuli/62.png,61.01074960001279,61.01074960001279,61.01074960001279,61.01074960001279,61.01074960001279,0,0,return,0.34563080000225455,1,0,0,0.08,0.16,return,0.22274510003626347,,,,,,,,,,,test,train_y,red_square,top_left,2024-11-06_14h15.01.439,HideSeek_v1,2022.2.5,60.00841318770383,
17,3,7,8,3,5,-4,62,72,test_exp,untrained,0,,,,,,,,,,,,,,,,,,,,,0,16,16,16,,,,,,,,,,,,,,,,,,,,,,,,,,,,,,,,,,,,,,,,,,,,,,,,,,,,61.27695249998942,62.360172700020485,stimuli/alien_stimuli/14.png,14,2,17,,,,,test,train_y,red_square,top_left,2024-11-06_14h15.01.439,HideSeek_v1,2022.2.5,60.00841318770383,
18,3,9,7,5,4,-4,52,72,test_exp,untrained,1,,,,,,,,,,,,,,,,,,,,,0,17,17,17,0,0,0,0,,,,,,,,,,,,,,,,,,,,,,,,,,,,,,,stimuli/alien_stimuli/52.png,62.360172700020485,62.360172700020485,62.360172700020485,62.360172700020485,62.360172700020485,0,0,return,0.34424790006596595,1,0,0,0.08,0.32,return,0.24270669999532402,,,,,,,,,,,test,train_y,red_square,top_left,2024-11-06_14h15.01.439,HideSeek_v1,2022.2.5,60.00841318770383,
29,3,6,4,4,1,-2,24,72,test_exp,untrained,0,,,,,,,,,,,,,,,,,,,,,0,17,17,17,,,,,0,0,0,28,,,,,,,,,,,,,,,,,,,,,,,,,,,,,,,,,,,,,,,,,,,,62.64311790000647,63.6767833000049,,,,,63.6767833000049,63.6767833000049,space,1.2962233000434935,test,train_y,red_square,top_left,2024-11-06_14h15.01.439,HideSeek_v1,2022.2.5,60.00841318770383,
15,2,9,2,9,0,0,16,72,test_exp,train_1D_sec_repeat,0,,,,,,,,,,,,,,,,,,,,,0,17,17,17,,,,,0,1,1,14,,,,,,,,,,,,,,,,,,,,,,,,,,,,,,,,,,,,,,,,,,,,,,,,,,64.99339259997942,64.99339259997942,space,3.9985785000026226,test,train_y,red_square,top_left,2024-11-06_14h15.01.439,HideSeek_v1,2022.2.5,60.00841318770383,
32,4,8,9,7,5,-1,65,72,test_exp,train_2D_repeat,0,,,,,,,,,,,,,,,,,,,,,0,17,17,17,,,,,0,2,2,31,,,,,,,,,,,,,,,,,,,,,,,,,,,,,,,,,,,,,,,,,,,,,,,,,,69.01005320006516,69.01005320006516,space,5.846569799934514,test,train_y,red_square,top_left,2024-11-06_14h15.01.439,HideSeek_v1,2022.2.5,60.00841318770383,
2,4,6,7,2,3,-4,42,72,test_exp,untrained,0,,,,,,,,,,,,,,,,,,,,,0,17,17,17,,,,,0,3,3,1,,,,,,,,,,,,,,,,,,,,,,,,,,,,,,,,,,,,,,,,,,,,,,,,,,74.87652769999113,74.87652769999113,space,2.380554399918765,test,train_y,red_square,top_left,2024-11-06_14h15.01.439,HideSeek_v1,2022.2.5,60.00841318770383,
14,2,8,5,8,3,0,46,72,test_exp,untrained_1D_sec_leftout,0,,,,,,,,,,,,,,,,,,,,,0,17,17,17,,,,,0,4,4,13,,,,,,,,,,,,,,,,,,,,,,,,,,,,,,,,,,,,,,,,,,,,,,,,,,77.27644120005425,77.27644120005425,space,2.8358182000229135,test,train_y,red_square,top_left,2024-11-06_14h15.01.439,HideSeek_v1,2022.2.5,60.00841318770383,
56,1,9,3,6,2,-3,33,72,test_exp,untrained,0,,,,,,,,,,,,,,,,,,,,,0,17,17,17,,,,,0,5,5,55,,,,,,,,,,,,,,,,,,,,,,,,,,,,,,,,,,,,,,,,,,,,,,,,,,80.14293349999934,80.14293349999934,space,3.657026100088842,test,train_y,red_square,top_left,2024-11-06_14h15.01.439,HideSeek_v1,2022.2.5,60.00841318770383,
33,0,9,3,7,3,-2,44,72,test_exp,untrained,0,,,,,,,,,,,,,,,,,,,,,0,17,17,17,,,,,0,6,6,32,,,,,,,,,,,,,,,,,,,,,,,,,,,,,,,,,,,,,,,,,,,,,,,,,,83.82678100001067,83.82678100001067,space,0.12161660008132458,test,train_y,red_square,top_left,2024-11-06_14h15.01.439,HideSeek_v1,2022.2.5,60.00841318770383,
12,2,8,3,8,1,0,26,72,test_exp,train_1D_sec_new,0,,,,,,,,,,,,,,,,,,,,,0,17,17,17,,,,,0,7,7,11,,,,,,,,,,,,,,,,,,,,,,,,,,,,,,,,,,,,,,,,,,,,,,,,,,83.97634020005353,83.97634020005353,space,0.128017200040631,test,train_y,red_square,top_left,2024-11-06_14h15.01.439,HideSeek_v1,2022.2.5,60.00841318770383,
71,4,5,7,1,3,-4,42,72,test_exp,untrained,0,,,,,,,,,,,,,,,,,,,,,0,17,17,17,,,,,0,8,8,70,,,,,,,,,,,,,,,,,,,,,,,,,,,,,,,,,,,,,,,,,,,,,,,,,,84.12658609997015,84.12658609997015,space,0.12911560002248734,test,train_y,red_square,top_left,2024-11-06_14h15.01.439,HideSeek_v1,2022.2.5,60.00841318770383,
47,2,6,2,3,0,-3,13,72,test_exp,untrained_1D_first_leftout,0,,,,,,,,,,,,,,,,,,,,,0,17,17,17,,,,,0,9,9,46,,,,,,,,,,,,,,,,,,,,,,,,,,,,,,,,,,,,,,,,,,,,,,,,,,84.27659889997449,84.27659889997449,space,0.12868040008470416,test,train_y,red_square,top_left,2024-11-06_14h15.01.439,HideSeek_v1,2022.2.5,60.00841318770383,
51,1,8,4,5,3,-3,43,72,test_exp,train_2D_new,0,,,,,,,,,,,,,,,,,,,,,0,17,17,17,,,,,0,10,10,50,,,,,,,,,,,,,,,,,,,,,,,,,,,,,,,,,,,,,,,,,,,,,,,,,,84.42685739998706,84.42685739998706,space,0.14291490009054542,test,train_y,red_square,top_left,2024-11-06_14h15.01.439,HideSeek_v1,2022.2.5,60.00841318770383,
5,4,9,9,4,5,-5,61,72,test_exp,untrained,0,,,,,,,,,,,,,,,,,,,,,0,17,17,17,,,,,0,11,11,4,,,,,,,,,,,,,,,,,,,,,,,,,,,,,,,,,,,,,,,,,,,,,,,,,,84.59332640003413,84.59332640003413,space,1.6186014999402687,test,train_y,red_square,top_left,2024-11-06_14h15.01.439,HideSeek_v1,2022.2.5,60.00841318770383,
48,0,6,0,2,0,-4,12,72,test_exp,train_1D_first_repeat,0,,,,,,,,,,,,,,,,,,,,,0,17,17,17,,,,,0,12,12,47,,,,,,,,,,,,,,,,,,,,,,,,,,,,,,,,,,,,,,,,,,,,,,,,,,86.24331000004895,86.24331000004895,space,0.20581190008670092,test,train_y,red_square,top_left,2024-11-06_14h15.01.439,HideSeek_v1,2022.2.5,60.00841318770383,
3,1,6,4,5,3,-1,45,72,test_exp,untrained,0,,,,,,,,,,,,,,,,,,,,,0,17,17,17,,,,,0,13,13,2,,,,,,,,,,,,,,,,,,,,,,,,,,,,,,,,,,,,,,,,,,,,,,,,,,86.47626090003178,86.47626090003178,space,0.17330539994873106,test,train_y,red_square,top_left,2024-11-06_14h15.01.439,HideSeek_v1,2022.2.5,60.00841318770383,
50,3,5,8,0,5,-5,61,72,test_exp,untrained,0,,,,,,,,,,,,,,,,,,,,,0,17,17,17,,,,,0,14,14,49,,,,,,,,,,,,,,,,,,,,,,,,,,,,,,,,,,,,,,,,,,,,,,,,,,86.67646330001298,86.67646330001298,space,0.17004580004140735,test,train_y,red_square,top_left,2024-11-06_14h15.01.439,HideSeek_v1,2022.2.5,60.00841318770383,
35,2,8,4,8,2,0,36,72,test_exp,train_1D_sec_new,0,,,,,,,,,,,,,,,,,,,,,0,17,17,17,,,,,0,15,15,34,,,,,,,,,,,,,,,,,,,,,,,,,,,,,,,,,,,,,,,,,,,,,,,,,,86.87661280005705,86.87661280005705,space,0.5128745000110939,test,train_y,red_square,top_left,2024-11-06_14h15.01.439,HideSeek_v1,2022.2.5,60.00841318770383,
58,1,7,5,6,4,-1,55,72,test_exp,untrained,0,,,,,,,,,,,,,,,,,,,,,0,17,17,17,,,,,0,16,16,57,,,,,,,,,,,,,,,,,,,,,,,,,,,,,,,,,,,,,,,,,,,,,,,,,,87.40978980006184,87.40978980006184,space,0.384984300006181,test,train_y,red_square,top_left,2024-11-06_14h15.01.439,HideSeek_v1,2022.2.5,60.00841318770383,
7,4,5,6,0,2,-5,31,72,test_exp,untrained,0,,,,,,,,,,,,,,,,,,,,,0,17,17,17,,,,,0,17,17,6,,,,,,,,,,,,,,,,,,,,,,,,,,,,,,,,,,,,,,,,,,,,,,,,,,87.82674950000364,87.82674950000364,space,0.7788507000077516,test,train_y,red_square,top_left,2024-11-06_14h15.01.439,HideSeek_v1,2022.2.5,60.00841318770383,
