trialTrain,x_fixStart,y_fixStart,x_corrSteps,y_corrSteps,x_nrSteps,y_nrSteps,alienID,testlen,version,trial_label,break_on_off,beforeExpLoop.thisRepN,beforeExpLoop.thisTrialN,beforeExpLoop.thisN,beforeExpLoop.thisIndex,mini_instr_trials.thisRepN,mini_instr_trials.thisTrialN,mini_instr_trials.thisN,mini_instr_trials.thisIndex,instrLoop.thisRepN,instrLoop.thisTrialN,instrLoop.thisN,instrLoop.thisIndex,repeat_prac.thisRepN,repeat_prac.thisTrialN,repeat_prac.thisN,repeat_prac.thisIndex,trainLoop.thisRepN,trainLoop.thisTrialN,trainLoop.thisN,trainLoop.thisIndex,experiment.thisRepN,experiment.thisTrialN,experiment.thisN,experiment.thisIndex,moveLoop_test.thisRepN,moveLoop_test.thisTrialN,moveLoop_test.thisN,moveLoop_test.thisIndex,breaks.thisRepN,breaks.thisTrialN,breaks.thisN,breaks.thisIndex,start_all_time,url,slideStim,audioStim,slides.started,sounds.started,nextButton.numClicks,nextButton.timesOn,nextButton.timesOff,prev_but.numClicks,prev_but.timesOn,prev_but.timesOff,perfthres,percthres,earlierperf,earlystop,nextPrac,fileidx,praclen,saveACC_train,pracFile,nextPrac_train,addNrep,fileidx_endr,repExp,showearly,alienStim,gridImage_3.started,alienImage_test.started,startPos_test.started,movePos_test.started,key_resp_test.started,wLy_dir_test,wLx_dir_test,buttonPress_test,RTchoice_test,cumAcctest,saveACC_choice,corrAns_test,x_movePos_end,y_movePos_end,key_resp_test.keys,key_resp_test.rt,fixation_text.started,fixation_text.stopped,draw_alienStim,draw_alienID,test_x,nrepcount,participant,train_first,00_coordinate,starting corner,date,expName,psychopyVersion,frameRate,
,,,,,,,,,,,,0,0,0,0,0,0,0,0,,,,,,,,,,,,,,,,,,,,,,,,,start_all_time,testround,conditions/schedules/train_y_first/red_square_00/bottom_left/instructions/Slide1.png,conditions/schedules/train_y_first/red_square_00/bottom_left/instructions/Audio1.wav,29.004038200015202,28.9679185410263,1,[1.0682229999219999],[1.0682315999874845],0,,,,,,,,,,,,,,,,,,,,,,,,,,,,,,,,,,,,,,,,test2,train_y,red_square,bottom_left,2024-11-06_12h29.48.879,HideSeek_v1,2022.2.5,59.85009945608526,
,,,,,,,,,,,,0,0,0,0,1,0,1,0,,,,,,,,,,,,,,,,,,,,,,,,,,,conditions/schedules/train_y_first/red_square_00/bottom_left/instructions/Slide2.png,conditions/schedules/train_y_first/red_square_00/bottom_left/instructions/Audio2.wav,30.087104200036265,30.070127740013415,2,"[1.0682229999219999, 0.15634729992598295]","[1.0682315999874845, 0.15635419997852296]",0,,,,,,,,,,,,,,,,,,,,,,,,,,,,,,,,,,,,,,,,test2,train_y,red_square,bottom_left,2024-11-06_12h29.48.879,HideSeek_v1,2022.2.5,59.85009945608526,
,,,,,,,,,,,,0,0,0,0,2,0,2,0,,,,,,,,,,,,,,,,,,,,,,,,,,,conditions/schedules/train_y_first/red_square_00/bottom_left/instructions/Slide3.png,conditions/schedules/train_y_first/red_square_00/bottom_left/instructions/Audio3.wav,30.287209700094536,30.270408540009523,3,"[1.0682229999219999, 0.15634729992598295, 0.12294859997928143]","[1.0682315999874845, 0.00020389992278069258, 0.1229558999184519]",0,,,,,,,,,,,,,,,,,,,,,,,,,,,,,,,,,,,,,,,,test2,train_y,red_square,bottom_left,2024-11-06_12h29.48.879,HideSeek_v1,2022.2.5,59.85009945608526,
,,,,,,,,,,,,0,0,0,0,3,0,3,0,,,,,,,,,,,,,,,,,,,,,,,,,,,conditions/schedules/train_y_first/red_square_00/bottom_left/instructions/Slide4.png,conditions/schedules/train_y_first/red_square_00/bottom_left/instructions/Audio4.wav,30.453539400012232,30.43687994007487,4,"[1.0682229999219999, 0.15634729992598295, 0.12294859997928143, 0.12293199996929616]","[1.0682315999874845, 0.00020389992278069258, 0.00019619998056441545, 0.12293850001879036]",0,,,,,,,,,,,,,,,,,,,,,,,,,,,,,,,,,,,,,,,,test2,train_y,red_square,bottom_left,2024-11-06_12h29.48.879,HideSeek_v1,2022.2.5,59.85009945608526,
,,,,,,,,,,,,0,0,0,0,4,0,4,0,,,,,,,,,,,,,,,,,,,,,,,,,,,conditions/schedules/train_y_first/red_square_00/bottom_left/instructions/Slide5.png,conditions/schedules/train_y_first/red_square_00/bottom_left/instructions/Audio5.wav,30.605220400029793,30.60386144006625,5,"[1.0682229999219999, 0.15634729992598295, 0.12294859997928143, 0.12293199996929616, 0.11306620005052537]","[1.0682315999874845, 0.00020389992278069258, 0.00019619998056441545, 0.00021930004004389048, 0.11307369999121875]",0,,,,,,,,,,,,,,,,,,,,,,,,,,,,,,,,,,,,,,,,test2,train_y,red_square,bottom_left,2024-11-06_12h29.48.879,HideSeek_v1,2022.2.5,59.85009945608526,
,,,,,,,,,,,,0,0,0,0,5,0,5,0,,,,,,,,,,,,,,,,,,,,,,,,,,,conditions/schedules/train_y_first/red_square_00/bottom_left/instructions/Slide6.png,conditions/schedules/train_y_first/red_square_00/bottom_left/instructions/Audio6.wav,30.756739799981005,30.75421114007477,6,"[1.0682229999219999, 0.15634729992598295, 0.12294859997928143, 0.12293199996929616, 0.11306620005052537, 0.11102359998039901]","[1.0682315999874845, 0.00020389992278069258, 0.00019619998056441545, 0.00021930004004389048, 0.00020690006203949451, 0.11102970002684742]",0,,,,,,,,,,,,,,,,,,,,,,,,,,,,,,,,,,,,,,,,test2,train_y,red_square,bottom_left,2024-11-06_12h29.48.879,HideSeek_v1,2022.2.5,59.85009945608526,
,,,,,,,,,,,,0,0,0,0,6,0,6,0,,,,,,,,,,,,,,,,,,,,,,,,,,,conditions/schedules/train_y_first/red_square_00/bottom_left/instructions/Slide7.png,conditions/schedules/train_y_first/red_square_00/bottom_left/instructions/Audio7.wav,30.90328169998247,30.903629540093245,7,"[1.0682229999219999, 0.15634729992598295, 0.12294859997928143, 0.12293199996929616, 0.11306620005052537, 0.11102359998039901, 0.09784160007257015]","[1.0682315999874845, 0.00020389992278069258, 0.00019619998056441545, 0.00021930004004389048, 0.00020690006203949451, 0.01340559998061508, 0.09784960001707077]",0,,,,,,,,,,,,,,,,,,,,,,,,,,,,,,,,,,,,,,,,test2,train_y,red_square,bottom_left,2024-11-06_12h29.48.879,HideSeek_v1,2022.2.5,59.85009945608526,
,,,,,,,,,,,,0,0,0,0,7,0,7,0,,,,,,,,,,,,,,,,,,,,,,,,,,,conditions/schedules/train_y_first/red_square_00/bottom_left/instructions/Slide8.png,conditions/schedules/train_y_first/red_square_00/bottom_left/instructions/Audio8.wav,31.053742700023577,31.036929140076975,8,"[1.0682229999219999, 0.15634729992598295, 0.12294859997928143, 0.12293199996929616, 0.11306620005052537, 0.11102359998039901, 0.09784160007257015, 0.10862909990828484]","[1.0682315999874845, 0.00020389992278069258, 0.00019619998056441545, 0.00021930004004389048, 0.00020690006203949451, 0.01340559998061508, 0.02512159990146756, 0.10863819997757673]",0,,,,,,,,,,,,,,,,,,,,,,,,,,,,,,,,,,,,,,,,test2,train_y,red_square,bottom_left,2024-11-06_12h29.48.879,HideSeek_v1,2022.2.5,59.85009945608526,
,,,,,,,,,,,,0,0,0,0,8,0,8,0,,,,,,,,,,,,,,,,,,,,,,,,,,,conditions/schedules/train_y_first/red_square_00/bottom_left/instructions/Slide9.png,conditions/schedules/train_y_first/red_square_00/bottom_left/instructions/Audio9.wav,31.19026639999356,31.187423340021635,9,"[1.0682229999219999, 0.15634729992598295, 0.12294859997928143, 0.12293199996929616, 0.11306620005052537, 0.11102359998039901, 0.09784160007257015, 0.10862909990828484, 0.1112664999673143]","[1.0682315999874845, 0.00020389992278069258, 0.00019619998056441545, 0.00021930004004389048, 0.00020690006203949451, 0.01340559998061508, 0.02512159990146756, 0.013409900013357401, 0.11127240001223981]",0,,,,,,,,,,,,,,,,,,,,,,,,,,,,,,,,,,,,,,,,test2,train_y,red_square,bottom_left,2024-11-06_12h29.48.879,HideSeek_v1,2022.2.5,59.85009945608526,
,,,,,,,,,,,,0,0,0,0,9,0,9,0,,,,,,,,,,,,,,,,,,,,,,,,,,,conditions/schedules/train_y_first/red_square_00/bottom_left/instructions/Slide10.png,conditions/schedules/train_y_first/red_square_00/bottom_left/instructions/Audio10.wav,31.337198000052013,31.319977260101588,10,"[1.0682229999219999, 0.15634729992598295, 0.12294859997928143, 0.12293199996929616, 0.11306620005052537, 0.11102359998039901, 0.09784160007257015, 0.10862909990828484, 0.1112664999673143, 0.13537859998177737]","[1.0682315999874845, 0.00020389992278069258, 0.00019619998056441545, 0.00021930004004389048, 0.00020690006203949451, 0.01340559998061508, 0.02512159990146756, 0.013409900013357401, 0.018362300004810095, 0.13538560003507882]",0,,,,,,,,,,,,,,,,,,,,,,,,,,,,,,,,,,,,,,,,test2,train_y,red_square,bottom_left,2024-11-06_12h29.48.879,HideSeek_v1,2022.2.5,59.85009945608526,
,,,,,,,,,,,,0,0,0,0,10,0,10,0,,,,,,,,,,,,,,,,,,,,,,,,,,,conditions/schedules/train_y_first/red_square_00/bottom_left/instructions/Slide11.png,conditions/schedules/train_y_first/red_square_00/bottom_left/instructions/Audio11.wav,31.503693300066516,31.48711536000483,11,"[1.0682229999219999, 0.15634729992598295, 0.12294859997928143, 0.12293199996929616, 0.11306620005052537, 0.11102359998039901, 0.09784160007257015, 0.10862909990828484, 0.1112664999673143, 0.13537859998177737, 0.10570489999372512]","[1.0682315999874845, 0.00020389992278069258, 0.00019619998056441545, 0.00021930004004389048, 0.00020690006203949451, 0.01340559998061508, 0.02512159990146756, 0.013409900013357401, 0.018362300004810095, 0.00019340007565915585, 0.10571200004778802]",0,,,,,,,,,,,,,,,,,,,,,,,,,,,,,,,,,,,,,,,,test2,train_y,red_square,bottom_left,2024-11-06_12h29.48.879,HideSeek_v1,2022.2.5,59.85009945608526,
,,,,,,,,,,,,0,0,0,0,11,0,11,0,,,,,,,,,,,,,,,,,,,,,,,,,,,conditions/schedules/train_y_first/red_square_00/bottom_left/instructions/Slide12.png,conditions/schedules/train_y_first/red_square_00/bottom_left/instructions/Audio12.wav,31.64109799999278,31.637235440057704,12,"[1.0682229999219999, 0.15634729992598295, 0.12294859997928143, 0.12293199996929616, 0.11306620005052537, 0.11102359998039901, 0.09784160007257015, 0.10862909990828484, 0.1112664999673143, 0.13537859998177737, 0.10570489999372512, 0.1096156999701634]","[1.0682315999874845, 0.00020389992278069258, 0.00019619998056441545, 0.00021930004004389048, 0.00020690006203949451, 0.01340559998061508, 0.02512159990146756, 0.013409900013357401, 0.018362300004810095, 0.00019340007565915585, 0.0135076999431476, 0.10962270002346486]",0,,,,,,,,,,,,,,,,,,,,,,,,,,,,,,,,,,,,,,,,test2,train_y,red_square,bottom_left,2024-11-06_12h29.48.879,HideSeek_v1,2022.2.5,59.85009945608526,
,,,,,,,,,,,,0,0,0,0,,,,,,,,,,,,,,,,,,,,,,,,,,,,,,,,,,,,,,,,,17,0.7,0,0,99,1,30,0,conditions/schedules/train_y_first/red_square_00/bottom_left/inputTrain_1.1.xlsx,99,1,1,1,0,,,,,,,,,,,,,,,,,,,,,,,,test2,train_y,red_square,bottom_left,2024-11-06_12h29.48.879,HideSeek_v1,2022.2.5,59.85009945608526,
,,,,,,,,,,,,1,0,1,0,0,0,0,0,,,,,,,,,,,,,,,,,,,,,,,,,,,conditions/schedules/train_y_first/red_square_00/bottom_left/instructions/Slide13.png,conditions/schedules/train_y_first/red_square_00/bottom_left/instructions/Audio13.wav,31.92333800008055,31.92127288011834,13,"[1.0682229999219999, 0.15634729992598295, 0.12294859997928143, 0.12293199996929616, 0.11306620005052537, 0.11102359998039901, 0.09784160007257015, 0.10862909990828484, 0.1112664999673143, 0.13537859998177737, 0.10570489999372512, 0.1096156999701634, 0.09549130010418594]","[1.0682315999874845, 0.00020389992278069258, 0.00019619998056441545, 0.00021930004004389048, 0.00020690006203949451, 0.01340559998061508, 0.02512159990146756, 0.013409900013357401, 0.018362300004810095, 0.00019340007565915585, 0.0135076999431476, 0.10962270002346486, 0.09549970005173236]",0,,,,,,,,,,,,,,,,,,,,,,,,,,,,,,,,,,,,,,,,test2,train_y,red_square,bottom_left,2024-11-06_12h29.48.879,HideSeek_v1,2022.2.5,59.85009945608526,
,,,,,,,,,,,,1,0,1,0,1,0,1,0,,,,,,,,,,,,,,,,,,,,,,,,,,,conditions/schedules/train_y_first/red_square_00/bottom_left/instructions/Slide14.png,conditions/schedules/train_y_first/red_square_00/bottom_left/instructions/Audio14.wav,32.06985640001949,32.05386124001816,14,"[1.0682229999219999, 0.15634729992598295, 0.12294859997928143, 0.12293199996929616, 0.11306620005052537, 0.11102359998039901, 0.09784160007257015, 0.10862909990828484, 0.1112664999673143, 0.13537859998177737, 0.10570489999372512, 0.1096156999701634, 0.09549130010418594, 0.07448830001521856]","[1.0682315999874845, 0.00020389992278069258, 0.00019619998056441545, 0.00021930004004389048, 0.00020690006203949451, 0.01340559998061508, 0.02512159990146756, 0.013409900013357401, 0.018362300004810095, 0.00019340007565915585, 0.0135076999431476, 0.10962270002346486, 0.09549970005173236, 0.07449439994525164]",0,,,,,,,,,,,,,,,,,,,,,,,,,,,,,,,,,,,,,,,,test2,train_y,red_square,bottom_left,2024-11-06_12h29.48.879,HideSeek_v1,2022.2.5,59.85009945608526,
,,,,,,,,,,,,1,0,1,0,,,,,,,,,,,,,,,,,,,,,,,,,,,,,,,,,,,,,,,,,17,0.7,0,0,99,1,30,0,conditions/schedules/train_y_first/red_square_00/bottom_left/inputTrain_1.1.xlsx,99,1,1,1,0,,,,,,,,,,,,,,,,,,,,,,,,test2,train_y,red_square,bottom_left,2024-11-06_12h29.48.879,HideSeek_v1,2022.2.5,59.85009945608526,
,,,,,,,,,,,,2,0,2,0,0,0,0,0,,,,,,,,,,,,,,,,,,,,,,,,,,,conditions/schedules/train_y_first/red_square_00/bottom_left/instructions/Slide15.png,conditions/schedules/train_y_first/red_square_00/bottom_left/instructions/Audio15.wav,32.25331050006207,32.23716616004239,15,"[1.0682229999219999, 0.15634729992598295, 0.12294859997928143, 0.12293199996929616, 0.11306620005052537, 0.11102359998039901, 0.09784160007257015, 0.10862909990828484, 0.1112664999673143, 0.13537859998177737, 0.10570489999372512, 0.1096156999701634, 0.09549130010418594, 0.07448830001521856, 0.10736669995822012]","[1.0682315999874845, 0.00020389992278069258, 0.00019619998056441545, 0.00021930004004389048, 0.00020690006203949451, 0.01340559998061508, 0.02512159990146756, 0.013409900013357401, 0.018362300004810095, 0.00019340007565915585, 0.0135076999431476, 0.10962270002346486, 0.09549970005173236, 0.0023580999113619328, 0.10737449990119785]",0,,,,,,,,,,,,,,,,,,,,,,,,,,,,,,,,,,,,,,,,test2,train_y,red_square,bottom_left,2024-11-06_12h29.48.879,HideSeek_v1,2022.2.5,59.85009945608526,
,,,,,,,,,,,,2,0,2,0,1,0,1,0,,,,,,,,,,,,,,,,,,,,,,,,,,,conditions/schedules/train_y_first/red_square_00/bottom_left/instructions/Slide16.png,conditions/schedules/train_y_first/red_square_00/bottom_left/instructions/Audio16.wav,32.40428300003987,32.387518740002996,16,"[1.0682229999219999, 0.15634729992598295, 0.12294859997928143, 0.12293199996929616, 0.11306620005052537, 0.11102359998039901, 0.09784160007257015, 0.10862909990828484, 0.1112664999673143, 0.13537859998177737, 0.10570489999372512, 0.1096156999701634, 0.09549130010418594, 0.07448830001521856, 0.10736669995822012, 0.07252479996532202]","[1.0682315999874845, 0.00020389992278069258, 0.00019619998056441545, 0.00021930004004389048, 0.00020690006203949451, 0.01340559998061508, 0.02512159990146756, 0.013409900013357401, 0.018362300004810095, 0.00019340007565915585, 0.0135076999431476, 0.10962270002346486, 0.09549970005173236, 0.0023580999113619328, 0.10737449990119785, 0.07253330003004521]",0,,,,,,,,,,,,,,,,,,,,,,,,,,,,,,,,,,,,,,,,test2,train_y,red_square,bottom_left,2024-11-06_12h29.48.879,HideSeek_v1,2022.2.5,59.85009945608526,
,,,,,,,,,,,,2,0,2,0,,,,,,,,,,,,,,,,,,,,,,,,,,,,,,,,,,,,,,,,,17,0.7,0,0,99,1,30,0,conditions/schedules/train_y_first/red_square_00/bottom_left/inputTrain_1.1.xlsx,99,1,1,1,0,,,,,,,,,,,,,,,,,,,,,,,,test2,train_y,red_square,bottom_left,2024-11-06_12h29.48.879,HideSeek_v1,2022.2.5,59.85009945608526,
,,,,,,,,,,,,3,0,3,0,0,0,0,0,,,,,,,,,,,,,,,,,,,,,,,,,,,conditions/schedules/train_y_first/red_square_00/bottom_left/instructions/Slide17.png,conditions/schedules/train_y_first/red_square_00/bottom_left/instructions/Audio17.wav,32.569827700033784,32.570758660114365,17,"[1.0682229999219999, 0.15634729992598295, 0.12294859997928143, 0.12293199996929616, 0.11306620005052537, 0.11102359998039901, 0.09784160007257015, 0.10862909990828484, 0.1112664999673143, 0.13537859998177737, 0.10570489999372512, 0.1096156999701634, 0.09549130010418594, 0.07448830001521856, 0.10736669995822012, 0.07252479996532202, 0.3983915999997407]","[1.0682315999874845, 0.00020389992278069258, 0.00019619998056441545, 0.00021930004004389048, 0.00020690006203949451, 0.01340559998061508, 0.02512159990146756, 0.013409900013357401, 0.018362300004810095, 0.00019340007565915585, 0.0135076999431476, 0.10962270002346486, 0.09549970005173236, 0.0023580999113619328, 0.10737449990119785, 0.11485409992747009, 0.3983978999312967]",0,,,,,,,,,,,,,,,,,,,,,,,,,,,,,,,,,,,,,,,,test2,train_y,red_square,bottom_left,2024-11-06_12h29.48.879,HideSeek_v1,2022.2.5,59.85009945608526,
,,,,,,,,,,,,3,0,3,0,1,0,1,0,,,,,,,,,,,,,,,,,,,,,,,,,,,conditions/schedules/train_y_first/red_square_00/bottom_left/instructions/Slide18.png,conditions/schedules/train_y_first/red_square_00/bottom_left/instructions/Audio18.wav,33.020777600002475,33.00373144003097,18,"[1.0682229999219999, 0.15634729992598295, 0.12294859997928143, 0.12293199996929616, 0.11306620005052537, 0.11102359998039901, 0.09784160007257015, 0.10862909990828484, 0.1112664999673143, 0.13537859998177737, 0.10570489999372512, 0.1096156999701634, 0.09549130010418594, 0.07448830001521856, 0.10736669995822012, 0.07252479996532202, 0.3983915999997407, 0.15556640003342181]","[1.0682315999874845, 0.00020389992278069258, 0.00019619998056441545, 0.00021930004004389048, 0.00020690006203949451, 0.01340559998061508, 0.02512159990146756, 0.013409900013357401, 0.018362300004810095, 0.00019340007565915585, 0.0135076999431476, 0.10962270002346486, 0.09549970005173236, 0.0023580999113619328, 0.10737449990119785, 0.11485409992747009, 0.3983978999312967, 0.15557419997639954]",0,,,,,,,,,,,,,,,,,,,,,,,,,,,,,,,,,,,,,,,,test2,train_y,red_square,bottom_left,2024-11-06_12h29.48.879,HideSeek_v1,2022.2.5,59.85009945608526,
,,,,,,,,,,,,3,0,3,0,2,0,2,0,,,,,,,,,,,,,,,,,,,,,,,,,,,conditions/schedules/train_y_first/red_square_00/bottom_left/instructions/Slide19.png,conditions/schedules/train_y_first/red_square_00/bottom_left/instructions/Audio19.wav,33.219573299982585,33.22077562001068,19,"[1.0682229999219999, 0.15634729992598295, 0.12294859997928143, 0.12293199996929616, 0.11306620005052537, 0.11102359998039901, 0.09784160007257015, 0.10862909990828484, 0.1112664999673143, 0.13537859998177737, 0.10570489999372512, 0.1096156999701634, 0.09549130010418594, 0.07448830001521856, 0.10736669995822012, 0.07252479996532202, 0.3983915999997407, 0.15556640003342181, 0.08274759992491454]","[1.0682315999874845, 0.00020389992278069258, 0.00019619998056441545, 0.00021930004004389048, 0.00020690006203949451, 0.01340559998061508, 0.02512159990146756, 0.013409900013357401, 0.018362300004810095, 0.00019340007565915585, 0.0135076999431476, 0.10962270002346486, 0.09549970005173236, 0.0023580999113619328, 0.10737449990119785, 0.11485409992747009, 0.3983978999312967, 0.15557419997639954, 0.08276139991357923]",0,,,,,,,,,,,,,,,,,,,,,,,,,,,,,,,,,,,,,,,,test2,train_y,red_square,bottom_left,2024-11-06_12h29.48.879,HideSeek_v1,2022.2.5,59.85009945608526,
,,,,,,,,,,,,3,0,3,0,3,0,3,0,,,,,,,,,,,,,,,,,,,,,,,,,,,conditions/schedules/train_y_first/red_square_00/bottom_left/instructions/Slide20.png,conditions/schedules/train_y_first/red_square_00/bottom_left/instructions/Audio20.wav,33.35348669998348,33.33734304001555,20,"[1.0682229999219999, 0.15634729992598295, 0.12294859997928143, 0.12293199996929616, 0.11306620005052537, 0.11102359998039901, 0.09784160007257015, 0.10862909990828484, 0.1112664999673143, 0.13537859998177737, 0.10570489999372512, 0.1096156999701634, 0.09549130010418594, 0.07448830001521856, 0.10736669995822012, 0.07252479996532202, 0.3983915999997407, 0.15556640003342181, 0.08274759992491454, 0.08631460007745773]","[1.0682315999874845, 0.00020389992278069258, 0.00019619998056441545, 0.00021930004004389048, 0.00020690006203949451, 0.01340559998061508, 0.02512159990146756, 0.013409900013357401, 0.018362300004810095, 0.00019340007565915585, 0.0135076999431476, 0.10962270002346486, 0.09549970005173236, 0.0023580999113619328, 0.10737449990119785, 0.11485409992747009, 0.3983978999312967, 0.15557419997639954, 0.08276139991357923, 0.08632150001358241]",0,,,,,,,,,,,,,,,,,,,,,,,,,,,,,,,,,,,,,,,,test2,train_y,red_square,bottom_left,2024-11-06_12h29.48.879,HideSeek_v1,2022.2.5,59.85009945608526,
,,,,,,,,,,,,3,0,3,0,,,,,,,,,,,,,,,,,,,,,,,,,,,,,,,,,,,,,,,,,17,0.7,0,0,99,1,30,0,conditions/schedules/train_y_first/red_square_00/bottom_left/inputTrain_1.1.xlsx,99,1,1,1,0,,,,,,,,,,,,,,,,,,,,,,,,test2,train_y,red_square,bottom_left,2024-11-06_12h29.48.879,HideSeek_v1,2022.2.5,59.85009945608526,
,,,,,,,,,,,,4,0,4,0,0,0,0,0,,,,,,,,,,,,,,,,,,,,,,,,,,,conditions/schedules/train_y_first/red_square_00/bottom_left/instructions/Slide21.png,conditions/schedules/train_y_first/red_square_00/bottom_left/instructions/Audio21.wav,33.55356790008955,33.537561260070646,21,"[1.0682229999219999, 0.15634729992598295, 0.12294859997928143, 0.12293199996929616, 0.11306620005052537, 0.11102359998039901, 0.09784160007257015, 0.10862909990828484, 0.1112664999673143, 0.13537859998177737, 0.10570489999372512, 0.1096156999701634, 0.09549130010418594, 0.07448830001521856, 0.10736669995822012, 0.07252479996532202, 0.3983915999997407, 0.15556640003342181, 0.08274759992491454, 0.08631460007745773, 0.026088799932040274]","[1.0682315999874845, 0.00020389992278069258, 0.00019619998056441545, 0.00021930004004389048, 0.00020690006203949451, 0.01340559998061508, 0.02512159990146756, 0.013409900013357401, 0.018362300004810095, 0.00019340007565915585, 0.0135076999431476, 0.10962270002346486, 0.09549970005173236, 0.0023580999113619328, 0.10737449990119785, 0.11485409992747009, 0.3983978999312967, 0.15557419997639954, 0.08276139991357923, 0.08632150001358241, 0.026094699976965785]",0,,,,,,,,,,,,,,,,,,,,,,,,,,,,,,,,,,,,,,,,test2,train_y,red_square,bottom_left,2024-11-06_12h29.48.879,HideSeek_v1,2022.2.5,59.85009945608526,
,,,,,,,,,,,,4,0,4,0,,,,,,,,,,,,,,,,,,,,,,,,,,,,,,,,,,,,,,,,,17,0.7,0,0,99,1,30,0,conditions/schedules/train_y_first/red_square_00/bottom_left/inputTrain_1.1.xlsx,99,1,1,1,0,,,,,,,,,,,,,,,,,,,,,,,,test2,train_y,red_square,bottom_left,2024-11-06_12h29.48.879,HideSeek_v1,2022.2.5,59.85009945608526,
,,,,,,,,,,,,5,0,5,0,0,0,0,0,,,,,,,,,,,,,,,,,,,,,,,,,,,conditions/schedules/train_y_first/red_square_00/bottom_left/instructions/Slide22.png,conditions/schedules/train_y_first/red_square_00/bottom_left/instructions/Audio22.wav,33.68792930000927,33.6707169601228,22,"[1.0682229999219999, 0.15634729992598295, 0.12294859997928143, 0.12293199996929616, 0.11306620005052537, 0.11102359998039901, 0.09784160007257015, 0.10862909990828484, 0.1112664999673143, 0.13537859998177737, 0.10570489999372512, 0.1096156999701634, 0.09549130010418594, 0.07448830001521856, 0.10736669995822012, 0.07252479996532202, 0.3983915999997407, 0.15556640003342181, 0.08274759992491454, 0.08631460007745773, 0.026088799932040274, 0.027108000009320676]","[1.0682315999874845, 0.00020389992278069258, 0.00019619998056441545, 0.00021930004004389048, 0.00020690006203949451, 0.01340559998061508, 0.02512159990146756, 0.013409900013357401, 0.018362300004810095, 0.00019340007565915585, 0.0135076999431476, 0.10962270002346486, 0.09549970005173236, 0.0023580999113619328, 0.10737449990119785, 0.11485409992747009, 0.3983978999312967, 0.15557419997639954, 0.08276139991357923, 0.08632150001358241, 0.026094699976965785, 0.027114999946206808]",0,,,,,,,,,,,,,,,,,,,,,,,,,,,,,,,,,,,,,,,,test2,train_y,red_square,bottom_left,2024-11-06_12h29.48.879,HideSeek_v1,2022.2.5,59.85009945608526,
,,,,,,,,,,,,5,0,5,0,,,,,,,,,,,,,,,,,,,,,,,,,,,,,,,,,,,,,,,,,17,0.7,0,0,99,1,30,0,conditions/schedules/train_y_first/red_square_00/bottom_left/inputTrain_1.1.xlsx,99,1,1,1,0,,,,,,,,,,,,,,,,,,,,,,,,test2,train_y,red_square,bottom_left,2024-11-06_12h29.48.879,HideSeek_v1,2022.2.5,59.85009945608526,
,,,,,,,,,,,,6,0,6,0,0,0,0,0,,,,,,,,,,,,,,,,,,,,,,,,,,,conditions/schedules/train_y_first/red_square_00/bottom_left/instructions/Slide23.png,conditions/schedules/train_y_first/red_square_00/bottom_left/instructions/Audio23.wav,33.806335500092246,33.80507836004253,23,"[1.0682229999219999, 0.15634729992598295, 0.12294859997928143, 0.12293199996929616, 0.11306620005052537, 0.11102359998039901, 0.09784160007257015, 0.10862909990828484, 0.1112664999673143, 0.13537859998177737, 0.10570489999372512, 0.1096156999701634, 0.09549130010418594, 0.07448830001521856, 0.10736669995822012, 0.07252479996532202, 0.3983915999997407, 0.15556640003342181, 0.08274759992491454, 0.08631460007745773, 0.026088799932040274, 0.027108000009320676, 0.015705799916759133]","[1.0682315999874845, 0.00020389992278069258, 0.00019619998056441545, 0.00021930004004389048, 0.00020690006203949451, 0.01340559998061508, 0.02512159990146756, 0.013409900013357401, 0.018362300004810095, 0.00019340007565915585, 0.0135076999431476, 0.10962270002346486, 0.09549970005173236, 0.0023580999113619328, 0.10737449990119785, 0.11485409992747009, 0.3983978999312967, 0.15557419997639954, 0.08276139991357923, 0.08632150001358241, 0.026094699976965785, 0.027114999946206808, 0.015714799985289574]",0,,,,,,,,,,,,,,,,,,,,,,,,,,,,,,,,,,,,,,,,test2,train_y,red_square,bottom_left,2024-11-06_12h29.48.879,HideSeek_v1,2022.2.5,59.85009945608526,
,,,,,,,,,,,,6,0,6,0,1,0,1,0,,,,,,,,,,,,,,,,,,,,,,,,,,,conditions/schedules/train_y_first/red_square_00/bottom_left/instructions/Slide24.png,conditions/schedules/train_y_first/red_square_00/bottom_left/instructions/Audio24.wav,33.8703947000904,33.8565422401065,24,"[1.0682229999219999, 0.15634729992598295, 0.12294859997928143, 0.12293199996929616, 0.11306620005052537, 0.11102359998039901, 0.09784160007257015, 0.10862909990828484, 0.1112664999673143, 0.13537859998177737, 0.10570489999372512, 0.1096156999701634, 0.09549130010418594, 0.07448830001521856, 0.10736669995822012, 0.07252479996532202, 0.3983915999997407, 0.15556640003342181, 0.08274759992491454, 0.08631460007745773, 0.026088799932040274, 0.027108000009320676, 0.015705799916759133, 0.08543079998344183]","[1.0682315999874845, 0.00020389992278069258, 0.00019619998056441545, 0.00021930004004389048, 0.00020690006203949451, 0.01340559998061508, 0.02512159990146756, 0.013409900013357401, 0.018362300004810095, 0.00019340007565915585, 0.0135076999431476, 0.10962270002346486, 0.09549970005173236, 0.0023580999113619328, 0.10737449990119785, 0.11485409992747009, 0.3983978999312967, 0.15557419997639954, 0.08276139991357923, 0.08632150001358241, 0.026094699976965785, 0.027114999946206808, 0.015714799985289574, 0.08543699991423637]",0,,,,,,,,,,,,,,,,,,,,,,,,,,,,,,,,,,,,,,,,test2,train_y,red_square,bottom_left,2024-11-06_12h29.48.879,HideSeek_v1,2022.2.5,59.85009945608526,
,,,,,,,,,,,,6,0,6,0,2,0,2,0,,,,,,,,,,,,,,,,,,,,,,,,,,,conditions/schedules/train_y_first/red_square_00/bottom_left/instructions/Slide25.png,conditions/schedules/train_y_first/red_square_00/bottom_left/instructions/Audio25.wav,34.00353970006108,33.98683534001466,25,"[1.0682229999219999, 0.15634729992598295, 0.12294859997928143, 0.12293199996929616, 0.11306620005052537, 0.11102359998039901, 0.09784160007257015, 0.10862909990828484, 0.1112664999673143, 0.13537859998177737, 0.10570489999372512, 0.1096156999701634, 0.09549130010418594, 0.07448830001521856, 0.10736669995822012, 0.07252479996532202, 0.3983915999997407, 0.15556640003342181, 0.08274759992491454, 0.08631460007745773, 0.026088799932040274, 0.027108000009320676, 0.015705799916759133, 0.08543079998344183, 0.07505420001689345]","[1.0682315999874845, 0.00020389992278069258, 0.00019619998056441545, 0.00021930004004389048, 0.00020690006203949451, 0.01340559998061508, 0.02512159990146756, 0.013409900013357401, 0.018362300004810095, 0.00019340007565915585, 0.0135076999431476, 0.10962270002346486, 0.09549970005173236, 0.0023580999113619328, 0.10737449990119785, 0.11485409992747009, 0.3983978999312967, 0.15557419997639954, 0.08276139991357923, 0.08632150001358241, 0.026094699976965785, 0.027114999946206808, 0.015714799985289574, 0.08543699991423637, 0.075061000068672]",0,,,,,,,,,,,,,,,,,,,,,,,,,,,,,,,,,,,,,,,,test2,train_y,red_square,bottom_left,2024-11-06_12h29.48.879,HideSeek_v1,2022.2.5,59.85009945608526,
,,,,,,,,,,,,6,0,6,0,,,,,,,,,,,,,,,,,,,,,,,,,,,,,,,,,,,,,,,,,17,0.7,0,0,99,1,30,0,conditions/schedules/train_y_first/red_square_00/bottom_left/inputTrain_1.1.xlsx,99,1,1,1,0,,,,,,,,,,,,,,,,,,,,,,,,test2,train_y,red_square,bottom_left,2024-11-06_12h29.48.879,HideSeek_v1,2022.2.5,59.85009945608526,
,,,,,,,,,,,,7,0,7,0,0,0,0,0,,,,,,,,,,,,,,,,,,,,,,,,,,,conditions/schedules/train_y_first/red_square_00/bottom_left/instructions/Slide26.png,conditions/schedules/train_y_first/red_square_00/bottom_left/instructions/Audio26.wav,34.18688910000492,34.170777860120864,26,"[1.0682229999219999, 0.15634729992598295, 0.12294859997928143, 0.12293199996929616, 0.11306620005052537, 0.11102359998039901, 0.09784160007257015, 0.10862909990828484, 0.1112664999673143, 0.13537859998177737, 0.10570489999372512, 0.1096156999701634, 0.09549130010418594, 0.07448830001521856, 0.10736669995822012, 0.07252479996532202, 0.3983915999997407, 0.15556640003342181, 0.08274759992491454, 0.08631460007745773, 0.026088799932040274, 0.027108000009320676, 0.015705799916759133, 0.08543079998344183, 0.07505420001689345, 0.025435499963350594]","[1.0682315999874845, 0.00020389992278069258, 0.00019619998056441545, 0.00021930004004389048, 0.00020690006203949451, 0.01340559998061508, 0.02512159990146756, 0.013409900013357401, 0.018362300004810095, 0.00019340007565915585, 0.0135076999431476, 0.10962270002346486, 0.09549970005173236, 0.0023580999113619328, 0.10737449990119785, 0.11485409992747009, 0.3983978999312967, 0.15557419997639954, 0.08276139991357923, 0.08632150001358241, 0.026094699976965785, 0.027114999946206808, 0.015714799985289574, 0.08543699991423637, 0.075061000068672, 0.025442899903282523]",0,,,,,,,,,,,,,,,,,,,,,,,,,,,,,,,,,,,,,,,,test2,train_y,red_square,bottom_left,2024-11-06_12h29.48.879,HideSeek_v1,2022.2.5,59.85009945608526,
,,,,,,,,,,,,7,0,7,0,,,,,,,,,,,,,,,,,,,,,,,,,,,,,,,,,,,,,,,,,17,0.7,0,0,99,1,30,0,conditions/schedules/train_y_first/red_square_00/bottom_left/inputTrain_1.1.xlsx,99,1,1,1,0,,,,,,,,,,,,,,,,,,,,,,,,test2,train_y,red_square,bottom_left,2024-11-06_12h29.48.879,HideSeek_v1,2022.2.5,59.85009945608526,
,,,,,,,,,,,,8,0,8,0,0,0,0,0,,,,,,,,,,,,,,,,,,,,,,,,,,,conditions/schedules/train_y_first/red_square_00/bottom_left/instructions/Slide27.png,conditions/schedules/train_y_first/red_square_00/bottom_left/instructions/Audio27.wav,34.320216400083154,34.304038160038175,27,"[1.0682229999219999, 0.15634729992598295, 0.12294859997928143, 0.12293199996929616, 0.11306620005052537, 0.11102359998039901, 0.09784160007257015, 0.10862909990828484, 0.1112664999673143, 0.13537859998177737, 0.10570489999372512, 0.1096156999701634, 0.09549130010418594, 0.07448830001521856, 0.10736669995822012, 0.07252479996532202, 0.3983915999997407, 0.15556640003342181, 0.08274759992491454, 0.08631460007745773, 0.026088799932040274, 0.027108000009320676, 0.015705799916759133, 0.08543079998344183, 0.07505420001689345, 0.025435499963350594, 0.021633600001223385]","[1.0682315999874845, 0.00020389992278069258, 0.00019619998056441545, 0.00021930004004389048, 0.00020690006203949451, 0.01340559998061508, 0.02512159990146756, 0.013409900013357401, 0.018362300004810095, 0.00019340007565915585, 0.0135076999431476, 0.10962270002346486, 0.09549970005173236, 0.0023580999113619328, 0.10737449990119785, 0.11485409992747009, 0.3983978999312967, 0.15557419997639954, 0.08276139991357923, 0.08632150001358241, 0.026094699976965785, 0.027114999946206808, 0.015714799985289574, 0.08543699991423637, 0.075061000068672, 0.025442899903282523, 0.021643899963237345]",0,,,,,,,,,,,,,,,,,,,,,,,,,,,,,,,,,,,,,,,,test2,train_y,red_square,bottom_left,2024-11-06_12h29.48.879,HideSeek_v1,2022.2.5,59.85009945608526,
,,,,,,,,,,,,8,0,8,0,,,,,,,,,,,,,,,,,,,,,,,,,,,,,,,,,,,,,,,,,17,0.7,0,0,99,1,30,0,conditions/schedules/train_y_first/red_square_00/bottom_left/inputTrain_1.1.xlsx,99,1,1,1,0,,,,,,,,,,,,,,,,,,,,,,,,test2,train_y,red_square,bottom_left,2024-11-06_12h29.48.879,HideSeek_v1,2022.2.5,59.85009945608526,
,,,,,,,,,,,,9,0,9,0,0,0,0,0,,,,,,,,,,,,,,,,,,,,,,,,,,,conditions/schedules/train_y_first/red_square_00/bottom_left/instructions/Slide28.png,conditions/schedules/train_y_first/red_square_00/bottom_left/instructions/Audio28.wav,34.440263600088656,34.43736546011641,28,"[1.0682229999219999, 0.15634729992598295, 0.12294859997928143, 0.12293199996929616, 0.11306620005052537, 0.11102359998039901, 0.09784160007257015, 0.10862909990828484, 0.1112664999673143, 0.13537859998177737, 0.10570489999372512, 0.1096156999701634, 0.09549130010418594, 0.07448830001521856, 0.10736669995822012, 0.07252479996532202, 0.3983915999997407, 0.15556640003342181, 0.08274759992491454, 0.08631460007745773, 0.026088799932040274, 0.027108000009320676, 0.015705799916759133, 0.08543079998344183, 0.07505420001689345, 0.025435499963350594, 0.021633600001223385, 0.014726400026120245]","[1.0682315999874845, 0.00020389992278069258, 0.00019619998056441545, 0.00021930004004389048, 0.00020690006203949451, 0.01340559998061508, 0.02512159990146756, 0.013409900013357401, 0.018362300004810095, 0.00019340007565915585, 0.0135076999431476, 0.10962270002346486, 0.09549970005173236, 0.0023580999113619328, 0.10737449990119785, 0.11485409992747009, 0.3983978999312967, 0.15557419997639954, 0.08276139991357923, 0.08632150001358241, 0.026094699976965785, 0.027114999946206808, 0.015714799985289574, 0.08543699991423637, 0.075061000068672, 0.025442899903282523, 0.021643899963237345, 0.014737899997271597]",0,,,,,,,,,,,,,,,,,,,,,,,,,,,,,,,,,,,,,,,,test2,train_y,red_square,bottom_left,2024-11-06_12h29.48.879,HideSeek_v1,2022.2.5,59.85009945608526,
,,,,,,,,,,,,9,0,9,0,1,0,1,0,,,,,,,,,,,,,,,,,,,,,,,,,,,conditions/schedules/train_y_first/red_square_00/bottom_left/instructions/Slide29.png,conditions/schedules/train_y_first/red_square_00/bottom_left/instructions/Audio29.wav,34.502774200052954,34.49047034010291,29,"[1.0682229999219999, 0.15634729992598295, 0.12294859997928143, 0.12293199996929616, 0.11306620005052537, 0.11102359998039901, 0.09784160007257015, 0.10862909990828484, 0.1112664999673143, 0.13537859998177737, 0.10570489999372512, 0.1096156999701634, 0.09549130010418594, 0.07448830001521856, 0.10736669995822012, 0.07252479996532202, 0.3983915999997407, 0.15556640003342181, 0.08274759992491454, 0.08631460007745773, 0.026088799932040274, 0.027108000009320676, 0.015705799916759133, 0.08543079998344183, 0.07505420001689345, 0.025435499963350594, 0.021633600001223385, 0.014726400026120245, 0.08280999993439764]","[1.0682315999874845, 0.00020389992278069258, 0.00019619998056441545, 0.00021930004004389048, 0.00020690006203949451, 0.01340559998061508, 0.02512159990146756, 0.013409900013357401, 0.018362300004810095, 0.00019340007565915585, 0.0135076999431476, 0.10962270002346486, 0.09549970005173236, 0.0023580999113619328, 0.10737449990119785, 0.11485409992747009, 0.3983978999312967, 0.15557419997639954, 0.08276139991357923, 0.08632150001358241, 0.026094699976965785, 0.027114999946206808, 0.015714799985289574, 0.08543699991423637, 0.075061000068672, 0.025442899903282523, 0.021643899963237345, 0.00020489993039518595, 0.08282189990859479]",0,,,,,,,,,,,,,,,,,,,,,,,,,,,,,,,,,,,,,,,,test2,train_y,red_square,bottom_left,2024-11-06_12h29.48.879,HideSeek_v1,2022.2.5,59.85009945608526,
,,,,,,,,,,,,9,0,9,0,2,0,2,0,,,,,,,,,,,,,,,,,,,,,,,,,,,conditions/schedules/train_y_first/red_square_00/bottom_left/instructions/Slide30.png,conditions/schedules/train_y_first/red_square_00/bottom_left/instructions/Audio30.wav,34.62118440004997,34.603270760062145,30,"[1.0682229999219999, 0.15634729992598295, 0.12294859997928143, 0.12293199996929616, 0.11306620005052537, 0.11102359998039901, 0.09784160007257015, 0.10862909990828484, 0.1112664999673143, 0.13537859998177737, 0.10570489999372512, 0.1096156999701634, 0.09549130010418594, 0.07448830001521856, 0.10736669995822012, 0.07252479996532202, 0.3983915999997407, 0.15556640003342181, 0.08274759992491454, 0.08631460007745773, 0.026088799932040274, 0.027108000009320676, 0.015705799916759133, 0.08543079998344183, 0.07505420001689345, 0.025435499963350594, 0.021633600001223385, 0.014726400026120245, 0.08280999993439764, 0.1056893999921158]","[1.0682315999874845, 0.00020389992278069258, 0.00019619998056441545, 0.00021930004004389048, 0.00020690006203949451, 0.01340559998061508, 0.02512159990146756, 0.013409900013357401, 0.018362300004810095, 0.00019340007565915585, 0.0135076999431476, 0.10962270002346486, 0.09549970005173236, 0.0023580999113619328, 0.10737449990119785, 0.11485409992747009, 0.3983978999312967, 0.15557419997639954, 0.08276139991357923, 0.08632150001358241, 0.026094699976965785, 0.027114999946206808, 0.015714799985289574, 0.08543699991423637, 0.075061000068672, 0.025442899903282523, 0.021643899963237345, 0.00020489993039518595, 0.08282189990859479, 0.10569580004084855]",0,,,,,,,,,,,,,,,,,,,,,,,,,,,,,,,,,,,,,,,,test2,train_y,red_square,bottom_left,2024-11-06_12h29.48.879,HideSeek_v1,2022.2.5,59.85009945608526,
,,,,,,,,,,,,9,0,9,0,3,0,3,0,,,,,,,,,,,,,,,,,,,,,,,,,,,conditions/schedules/train_y_first/red_square_00/bottom_left/instructions/Slide31.png,conditions/schedules/train_y_first/red_square_00/bottom_left/instructions/Audio31.wav,34.77146150008775,34.75410544008482,31,"[1.0682229999219999, 0.15634729992598295, 0.12294859997928143, 0.12293199996929616, 0.11306620005052537, 0.11102359998039901, 0.09784160007257015, 0.10862909990828484, 0.1112664999673143, 0.13537859998177737, 0.10570489999372512, 0.1096156999701634, 0.09549130010418594, 0.07448830001521856, 0.10736669995822012, 0.07252479996532202, 0.3983915999997407, 0.15556640003342181, 0.08274759992491454, 0.08631460007745773, 0.026088799932040274, 0.027108000009320676, 0.015705799916759133, 0.08543079998344183, 0.07505420001689345, 0.025435499963350594, 0.021633600001223385, 0.014726400026120245, 0.08280999993439764, 0.1056893999921158, 0.07472300005611032]","[1.0682315999874845, 0.00020389992278069258, 0.00019619998056441545, 0.00021930004004389048, 0.00020690006203949451, 0.01340559998061508, 0.02512159990146756, 0.013409900013357401, 0.018362300004810095, 0.00019340007565915585, 0.0135076999431476, 0.10962270002346486, 0.09549970005173236, 0.0023580999113619328, 0.10737449990119785, 0.11485409992747009, 0.3983978999312967, 0.15557419997639954, 0.08276139991357923, 0.08632150001358241, 0.026094699976965785, 0.027114999946206808, 0.015714799985289574, 0.08543699991423637, 0.075061000068672, 0.025442899903282523, 0.021643899963237345, 0.00020489993039518595, 0.08282189990859479, 0.10569580004084855, 0.0747315000044182]",0,,,,,,,,,,,,,,,,,,,,,,,,,,,,,,,,,,,,,,,,test2,train_y,red_square,bottom_left,2024-11-06_12h29.48.879,HideSeek_v1,2022.2.5,59.85009945608526,
,,,,,,,,,,,,9,0,9,0,,,,,,,,,,,,,,,,,,,,,,,,,,,,,,,,,,,,,,,,,17,0.7,0,0,99,1,30,0,conditions/schedules/train_y_first/red_square_00/bottom_left/inputTrain_1.1.xlsx,99,1,1,1,0,,,,,,,,,,,,,,,,,,,,,,,,test2,train_y,red_square,bottom_left,2024-11-06_12h29.48.879,HideSeek_v1,2022.2.5,59.85009945608526,
1,2,4,2,6,0,2,14,72,test_exp,train_1D_first_new,0,,,,,,,,,,,,,,,,,,,,,0,0,0,0,0,0,0,0,,,,,,,,,,,,,,,,,,,,,,,,,,,,,,,stimuli/alien_stimuli/14.png,34.98709220008459,34.98709220008459,34.98709220008459,34.98709220008459,34.98709220008459,0,0,return,1.0595516000175849,0,0,0,0,-0.08,return,0.9567950000055134,,,,,,,test2,train_y,red_square,bottom_left,2024-11-06_12h29.48.879,HideSeek_v1,2022.2.5,59.85009945608526,
1,2,4,2,6,0,2,14,72,test_exp,train_1D_first_new,0,,,,,,,,,,,,,,,,,,,,,0,0,0,0,,,,,,,,,,,,,,,,,,,,,,,,,,,,,,,,,,,,,,,,,,,,,,,,,,,,35.9865170000121,37.12138580007013,stimuli/alien_stimuli/14.png,14,2,1,test2,train_y,red_square,bottom_left,2024-11-06_12h29.48.879,HideSeek_v1,2022.2.5,59.85009945608526,
2,4,1,7,5,3,4,42,72,test_exp,untrained,0,,,,,,,,,,,,,,,,,,,,,0,1,1,1,0,0,0,0,,,,,,,,,,,,,,,,,,,,,,,,,,,,,,,stimuli/alien_stimuli/42.png,37.12138580007013,37.12138580007013,37.12138580007013,37.12138580007013,37.12138580007013,0,0,return,0.39597650000359863,0,0,0,0.16,-0.32,return,0.24133630003780127,,,,,,,test2,train_y,red_square,bottom_left,2024-11-06_12h29.48.879,HideSeek_v1,2022.2.5,59.85009945608526,
2,4,1,7,5,3,4,42,72,test_exp,untrained,0,,,,,,,,,,,,,,,,,,,,,0,1,1,1,,,,,,,,,,,,,,,,,,,,,,,,,,,,,,,,,,,,,,,,,,,,,,,,,,,,37.40329769998789,38.454182200017385,stimuli/alien_stimuli/14.png,14,2,2,test2,train_y,red_square,bottom_left,2024-11-06_12h29.48.879,HideSeek_v1,2022.2.5,59.85009945608526,
3,1,1,4,2,3,1,45,72,test_exp,untrained,0,,,,,,,,,,,,,,,,,,,,,0,2,2,2,0,0,0,0,,,,,,,,,,,,,,,,,,,,,,,,,,,,,,,stimuli/alien_stimuli/45.png,38.454182200017385,38.454182200017385,38.454182200017385,38.454182200017385,38.454182200017385,0,0,return,0.27964690001681447,0,0,0,-0.08,-0.32,return,0.2093361000297591,,,,,,,test2,train_y,red_square,bottom_left,2024-11-06_12h29.48.879,HideSeek_v1,2022.2.5,59.85009945608526,
3,1,1,4,2,3,1,45,72,test_exp,untrained,0,,,,,,,,,,,,,,,,,,,,,0,2,2,2,,,,,,,,,,,,,,,,,,,,,,,,,,,,,,,,,,,,,,,,,,,,,,,,,,,,38.70367840002291,39.787493900046684,stimuli/alien_stimuli/14.png,14,2,3,test2,train_y,red_square,bottom_left,2024-11-06_12h29.48.879,HideSeek_v1,2022.2.5,59.85009945608526,
4,0,0,0,1,0,1,15,72,test_exp,train_1D_first_repeat,0,,,,,,,,,,,,,,,,,,,,,0,3,3,3,0,0,0,0,,,,,,,,,,,,,,,,,,,,,,,,,,,,,,,stimuli/alien_stimuli/15.png,39.787493900046684,39.787493900046684,39.787493900046684,39.787493900046684,39.787493900046684,0,0,return,0.33011310000438243,0,0,0,-0.16,-0.4,return,0.2259300999576226,,,,,,,test2,train_y,red_square,bottom_left,2024-11-06_12h29.48.879,HideSeek_v1,2022.2.5,59.85009945608526,
4,0,0,0,1,0,1,15,72,test_exp,train_1D_first_repeat,0,,,,,,,,,,,,,,,,,,,,,0,3,3,3,,,,,,,,,,,,,,,,,,,,,,,,,,,,,,,,,,,,,,,,,,,,,,,,,,,,40.053131800028495,41.13654029997997,stimuli/alien_stimuli/14.png,14,2,4,test2,train_y,red_square,bottom_left,2024-11-06_12h29.48.879,HideSeek_v1,2022.2.5,59.85009945608526,
5,4,4,9,9,5,5,61,72,test_exp,untrained,0,,,,,,,,,,,,,,,,,,,,,0,4,4,4,0,0,0,0,,,,,,,,,,,,,,,,,,,,,,,,,,,,,,,stimuli/alien_stimuli/61.png,41.13654029997997,41.13654029997997,41.13654029997997,41.13654029997997,41.13654029997997,0,0,return,0.2622024000156671,0,0,0,0.16,-0.08,return,0.15480119991116226,,,,,,,test2,train_y,red_square,bottom_left,2024-11-06_12h29.48.879,HideSeek_v1,2022.2.5,59.85009945608526,
5,4,4,9,9,5,5,61,72,test_exp,untrained,0,,,,,,,,,,,,,,,,,,,,,0,4,4,4,,,,,,,,,,,,,,,,,,,,,,,,,,,,,,,,,,,,,,,,,,,,,,,,,,,,41.336803600075655,42.390245000016876,stimuli/alien_stimuli/14.png,14,2,5,test2,train_y,red_square,bottom_left,2024-11-06_12h29.48.879,HideSeek_v1,2022.2.5,59.85009945608526,
6,0,2,5,5,5,3,63,72,test_exp,untrained,0,,,,,,,,,,,,,,,,,,,,,0,5,5,5,0,0,0,0,,,,,,,,,,,,,,,,,,,,,,,,,,,,,,,stimuli/alien_stimuli/63.png,42.390245000016876,42.390245000016876,42.390245000016876,42.390245000016876,42.390245000016876,0,0,return,0.2622010000050068,0,0,0,-0.16,-0.24,return,0.19213079998735338,,,,,,,test2,train_y,red_square,bottom_left,2024-11-06_12h29.48.879,HideSeek_v1,2022.2.5,59.85009945608526,
6,0,2,5,5,5,3,63,72,test_exp,untrained,0,,,,,,,,,,,,,,,,,,,,,0,5,5,5,,,,,,,,,,,,,,,,,,,,,,,,,,,,,,,,,,,,,,,,,,,,,,,,,,,,42.6202040000353,43.70377940009348,stimuli/alien_stimuli/14.png,14,2,6,test2,train_y,red_square,bottom_left,2024-11-06_12h29.48.879,HideSeek_v1,2022.2.5,59.85009945608526,
7,4,0,6,5,2,5,31,72,test_exp,untrained,0,,,,,,,,,,,,,,,,,,,,,0,6,6,6,0,0,0,0,,,,,,,,,,,,,,,,,,,,,,,,,,,,,,,stimuli/alien_stimuli/31.png,43.70377940009348,43.70377940009348,43.70377940009348,43.70377940009348,43.70377940009348,0,0,return,0.21259280003141612,0,0,0,0.16,-0.4,return,0.1156659999396652,,,,,,,test2,train_y,red_square,bottom_left,2024-11-06_12h29.48.879,HideSeek_v1,2022.2.5,59.85009945608526,
7,4,0,6,5,2,5,31,72,test_exp,untrained,0,,,,,,,,,,,,,,,,,,,,,0,6,6,6,,,,,,,,,,,,,,,,,,,,,,,,,,,,,,,,,,,,,,,,,,,,,,,,,,,,43.85376090009231,44.93728559999727,stimuli/alien_stimuli/14.png,14,2,7,test2,train_y,red_square,bottom_left,2024-11-06_12h29.48.879,HideSeek_v1,2022.2.5,59.85009945608526,
8,2,1,5,4,3,3,43,72,test_exp,train_2D_repeat,0,,,,,,,,,,,,,,,,,,,,,0,7,7,7,0,0,0,0,,,,,,,,,,,,,,,,,,,,,,,,,,,,,,,stimuli/alien_stimuli/43.png,44.93728559999727,44.93728559999727,44.93728559999727,44.93728559999727,44.93728559999727,0,0,return,0.26098670007195324,0,0,0,0,-0.32,return,0.1589734998997301,,,,,,,test2,train_y,red_square,bottom_left,2024-11-06_12h29.48.879,HideSeek_v1,2022.2.5,59.85009945608526,
8,2,1,5,4,3,3,43,72,test_exp,train_2D_repeat,0,,,,,,,,,,,,,,,,,,,,,0,7,7,7,,,,,,,,,,,,,,,,,,,,,,,,,,,,,,,,,,,,,,,,,,,,,,,,,,,,45.136871900060214,46.22047480009496,stimuli/alien_stimuli/14.png,14,2,8,test2,train_y,red_square,bottom_left,2024-11-06_12h29.48.879,HideSeek_v1,2022.2.5,59.85009945608526,
9,4,3,8,8,4,5,51,72,test_exp,untrained,0,,,,,,,,,,,,,,,,,,,,,0,8,8,8,0,0,0,0,,,,,,,,,,,,,,,,,,,,,,,,,,,,,,,stimuli/alien_stimuli/51.png,46.22047480009496,46.22047480009496,46.22047480009496,46.22047480009496,46.22047480009496,0,0,return,0.16212659992743284,0,0,0,0.16,-0.16,return,0.05531319999136031,,,,,,,test2,train_y,red_square,bottom_left,2024-11-06_12h29.48.879,HideSeek_v1,2022.2.5,59.85009945608526,
9,4,3,8,8,4,5,51,72,test_exp,untrained,0,,,,,,,,,,,,,,,,,,,,,0,8,8,8,,,,,,,,,,,,,,,,,,,,,,,,,,,,,,,,,,,,,,,,,,,,,,,,,,,,46.32028069999069,47.40373660007026,stimuli/alien_stimuli/14.png,14,2,9,test2,train_y,red_square,bottom_left,2024-11-06_12h29.48.879,HideSeek_v1,2022.2.5,59.85009945608526,
10,1,0,2,5,1,5,21,72,test_exp,train_2D_repeat,0,,,,,,,,,,,,,,,,,,,,,0,9,9,9,0,0,0,0,,,,,,,,,,,,,,,,,,,,,,,,,,,,,,,stimuli/alien_stimuli/21.png,47.40373660007026,47.40373660007026,47.40373660007026,47.40373660007026,47.40373660007026,0,0,return,0.23033149994444102,0,0,0,-0.08,-0.4,return,0.12735750002320856,,,,,,,test2,train_y,red_square,bottom_left,2024-11-06_12h29.48.879,HideSeek_v1,2022.2.5,59.85009945608526,
10,1,0,2,5,1,5,21,72,test_exp,train_2D_repeat,0,,,,,,,,,,,,,,,,,,,,,0,9,9,9,,,,,,,,,,,,,,,,,,,,,,,,,,,,,,,,,,,,,,,,,,,,,,,,,,,,47.56988890003413,48.65407639998011,stimuli/alien_stimuli/14.png,14,2,10,test2,train_y,red_square,bottom_left,2024-11-06_12h29.48.879,HideSeek_v1,2022.2.5,59.85009945608526,
11,3,0,7,2,4,2,54,72,test_exp,train_2D_repeat,0,,,,,,,,,,,,,,,,,,,,,0,10,10,10,0,0,0,0,,,,,,,,,,,,,,,,,,,,,,,,,,,,,,,stimuli/alien_stimuli/54.png,48.65407639998011,48.65407639998011,48.65407639998011,48.65407639998011,48.65407639998011,0,0,return,0.21230200002901256,0,0,0,0.08,-0.4,return,0.10855060000903904,,,,,,,test2,train_y,red_square,bottom_left,2024-11-06_12h29.48.879,HideSeek_v1,2022.2.5,59.85009945608526,
11,3,0,7,2,4,2,54,72,test_exp,train_2D_repeat,0,,,,,,,,,,,,,,,,,,,,,0,10,10,10,,,,,,,,,,,,,,,,,,,,,,,,,,,,,,,,,,,,,,,,,,,,,,,,,,,,48.80339630006347,49.887028900091536,stimuli/alien_stimuli/14.png,14,2,11,test2,train_y,red_square,bottom_left,2024-11-06_12h29.48.879,HideSeek_v1,2022.2.5,59.85009945608526,
12,2,3,3,3,1,0,26,72,test_exp,train_1D_sec_new,0,,,,,,,,,,,,,,,,,,,,,0,11,11,11,0,0,0,0,,,,,,,,,,,,,,,,,,,,,,,,,,,,,,,stimuli/alien_stimuli/26.png,49.887028900091536,49.887028900091536,49.887028900091536,49.887028900091536,49.887028900091536,0,0,return,0.2640211000107229,0,0,0,0,-0.16,return,0.16012969997245818,,,,,,,test2,train_y,red_square,bottom_left,2024-11-06_12h29.48.879,HideSeek_v1,2022.2.5,59.85009945608526,
12,2,3,3,3,1,0,26,72,test_exp,train_1D_sec_new,0,,,,,,,,,,,,,,,,,,,,,0,11,11,11,,,,,,,,,,,,,,,,,,,,,,,,,,,,,,,,,,,,,,,,,,,,,,,,,,,,50.08661950007081,51.16995570005383,stimuli/alien_stimuli/14.png,14,2,12,test2,train_y,red_square,bottom_left,2024-11-06_12h29.48.879,HideSeek_v1,2022.2.5,59.85009945608526,
13,1,2,1,6,0,4,12,72,test_exp,train_1D_first_new,0,,,,,,,,,,,,,,,,,,,,,0,12,12,12,0,0,0,0,,,,,,,,,,,,,,,,,,,,,,,,,,,,,,,stimuli/alien_stimuli/12.png,51.16995570005383,51.16995570005383,51.16995570005383,51.16995570005383,51.16995570005383,0,0,return,0.1806239999132231,0,0,0,-0.08,-0.24,return,0.07993980008177459,,,,,,,test2,train_y,red_square,bottom_left,2024-11-06_12h29.48.879,HideSeek_v1,2022.2.5,59.85009945608526,
13,1,2,1,6,0,4,12,72,test_exp,train_1D_first_new,0,,,,,,,,,,,,,,,,,,,,,0,12,12,12,,,,,,,,,,,,,,,,,,,,,,,,,,,,,,,,,,,,,,,,,,,,,,,,,,,,51.28704259998631,52.37056740000844,stimuli/alien_stimuli/14.png,14,2,13,test2,train_y,red_square,bottom_left,2024-11-06_12h29.48.879,HideSeek_v1,2022.2.5,59.85009945608526,
14,2,3,5,3,3,0,46,72,test_exp,untrained_1D_sec_leftout,0,,,,,,,,,,,,,,,,,,,,,0,13,13,13,0,0,0,0,,,,,,,,,,,,,,,,,,,,,,,,,,,,,,,stimuli/alien_stimuli/46.png,52.37056740000844,52.37056740000844,52.37056740000844,52.37056740000844,52.37056740000844,0,0,return,0.3287510999944061,0,0,0,0,-0.16,return,0.22592609992716461,,,,,,,test2,train_y,red_square,bottom_left,2024-11-06_12h29.48.879,HideSeek_v1,2022.2.5,59.85009945608526,
14,2,3,5,3,3,0,46,72,test_exp,untrained_1D_sec_leftout,0,,,,,,,,,,,,,,,,,,,,,0,13,13,13,,,,,,,,,,,,,,,,,,,,,,,,,,,,,,,,,,,,,,,,,,,,,,,,,,,,52.63667440006975,53.719892500084825,stimuli/alien_stimuli/14.png,14,2,14,test2,train_y,red_square,bottom_left,2024-11-06_12h29.48.879,HideSeek_v1,2022.2.5,59.85009945608526,
15,2,4,2,4,0,0,16,72,test_exp,train_1D_sec_repeat,0,,,,,,,,,,,,,,,,,,,,,0,14,14,14,0,0,0,0,,,,,,,,,,,,,,,,,,,,,,,,,,,,,,,stimuli/alien_stimuli/16.png,53.719892500084825,53.719892500084825,53.719892500084825,53.719892500084825,53.719892500084825,0,0,return,0.29622220003511757,1,0,1,0,-0.08,return,0.19589179998729378,,,,,,,test2,train_y,red_square,bottom_left,2024-11-06_12h29.48.879,HideSeek_v1,2022.2.5,59.85009945608526,
15,2,4,2,4,0,0,16,72,test_exp,train_1D_sec_repeat,0,,,,,,,,,,,,,,,,,,,,,0,14,14,14,,,,,,,,,,,,,,,,,,,,,,,,,,,,,,,,,,,,,,,,,,,,,,,,,,,,53.9530936999945,55.03646570001729,stimuli/alien_stimuli/14.png,14,2,15,test2,train_y,red_square,bottom_left,2024-11-06_12h29.48.879,HideSeek_v1,2022.2.5,59.85009945608526,
16,1,4,3,5,2,1,35,72,test_exp,untrained,0,,,,,,,,,,,,,,,,,,,,,0,15,15,15,0,0,0,0,,,,,,,,,,,,,,,,,,,,,,,,,,,,,,,stimuli/alien_stimuli/35.png,55.03646570001729,55.03646570001729,55.03646570001729,55.03646570001729,55.03646570001729,0,0,return,0.31313290004618466,1,0,0,-0.08,-0.08,return,0.21093499998096377,,,,,,,test2,train_y,red_square,bottom_left,2024-11-06_12h29.48.879,HideSeek_v1,2022.2.5,59.85009945608526,
16,1,4,3,5,2,1,35,72,test_exp,untrained,0,,,,,,,,,,,,,,,,,,,,,0,15,15,15,,,,,,,,,,,,,,,,,,,,,,,,,,,,,,,,,,,,,,,,,,,,,,,,,,,,55.28675730002578,56.37003340001684,stimuli/alien_stimuli/14.png,14,2,16,test2,train_y,red_square,bottom_left,2024-11-06_12h29.48.879,HideSeek_v1,2022.2.5,59.85009945608526,
17,3,2,8,6,5,4,62,72,test_exp,untrained,0,,,,,,,,,,,,,,,,,,,,,0,16,16,16,0,0,0,0,,,,,,,,,,,,,,,,,,,,,,,,,,,,,,,stimuli/alien_stimuli/62.png,56.37003340001684,56.37003340001684,56.37003340001684,56.37003340001684,56.37003340001684,0,0,return,0.32827900000847876,1,0,0,0.08,-0.24,return,0.2260159000288695,,,,,,,test2,train_y,red_square,bottom_left,2024-11-06_12h29.48.879,HideSeek_v1,2022.2.5,59.85009945608526,
17,3,2,8,6,5,4,62,72,test_exp,untrained,0,,,,,,,,,,,,,,,,,,,,,0,16,16,16,,,,,,,,,,,,,,,,,,,,,,,,,,,,,,,,,,,,,,,,,,,,,,,,,,,,56.63735610002186,57.736984400078654,stimuli/alien_stimuli/14.png,14,2,17,test2,train_y,red_square,bottom_left,2024-11-06_12h29.48.879,HideSeek_v1,2022.2.5,59.85009945608526,
18,3,4,7,8,4,4,52,72,test_exp,untrained,1,,,,,,,,,,,,,,,,,,,,,0,17,17,17,0,0,0,0,,,,,,,,,,,,,,,,,,,,,,,,,,,,,,,stimuli/alien_stimuli/52.png,57.736984400078654,57.736984400078654,57.736984400078654,57.736984400078654,57.736984400078654,0,0,return,0.36421369994059205,1,0,0,0.08,-0.08,return,0.2521815999643877,,,,,,,test2,train_y,red_square,bottom_left,2024-11-06_12h29.48.879,HideSeek_v1,2022.2.5,59.85009945608526,
18,3,4,7,8,4,4,52,72,test_exp,untrained,1,,,,,,,,,,,,,,,,,,,,,0,17,17,17,,,,,,,,,,,,,,,,,,,,,,,,,,,,,,,,,,,,,,,,,,,,,,,,,,,,58.03629429999273,59.12024840002414,stimuli/alien_stimuli/14.png,14,2,18,test2,train_y,red_square,bottom_left,2024-11-06_12h29.48.879,HideSeek_v1,2022.2.5,59.85009945608526,
19,2,0,7,2,5,2,64,72,test_exp,untrained,0,,,,,,,,,,,,,,,,,,,,,0,18,18,18,0,0,0,0,,,,,,,,,,,,,,,,,,,,,,,,,,,,,,,stimuli/alien_stimuli/64.png,59.12024840002414,59.12024840002414,59.12024840002414,59.12024840002414,59.12024840002414,0,0,return,0.5295817999867722,1,0,0,0,-0.4,return,0.4200380000984296,,,,,,,test2,train_y,red_square,bottom_left,2024-11-06_12h29.48.879,HideSeek_v1,2022.2.5,59.85009945608526,
19,2,0,7,2,5,2,64,72,test_exp,untrained,0,,,,,,,,,,,,,,,,,,,,,0,18,18,18,,,,,,,,,,,,,,,,,,,,,,,,,,,,,,,,,,,,,,,,,,,,,,,,,,,,59.58627490000799,60.66996139998082,stimuli/alien_stimuli/14.png,14,2,19,test2,train_y,red_square,bottom_left,2024-11-06_12h29.48.879,HideSeek_v1,2022.2.5,59.85009945608526,
20,3,3,3,6,0,3,13,72,test_exp,untrained_1D_first_leftout,0,,,,,,,,,,,,,,,,,,,,,0,19,19,19,0,0,0,0,,,,,,,,,,,,,,,,,,,,,,,,,,,,,,,stimuli/alien_stimuli/13.png,60.66996139998082,60.66996139998082,60.66996139998082,60.66996139998082,60.66996139998082,0,0,return,0.36281049996614456,1,0,0,0.08,-0.16,return,0.26439589995425195,,,,,,,test2,train_y,red_square,bottom_left,2024-11-06_12h29.48.879,HideSeek_v1,2022.2.5,59.85009945608526,
20,3,3,3,6,0,3,13,72,test_exp,untrained_1D_first_leftout,0,,,,,,,,,,,,,,,,,,,,,0,19,19,19,,,,,,,,,,,,,,,,,,,,,,,,,,,,,,,,,,,,,,,,,,,,,,,,,,,,60.96978040004615,62.05308420001529,stimuli/alien_stimuli/14.png,14,2,20,test2,train_y,red_square,bottom_left,2024-11-06_12h29.48.879,HideSeek_v1,2022.2.5,59.85009945608526,
,,,,,,,,,,,,,,,,,,,,,,,,,,,,,,,,,,,,,,,,,,,,,,,,,,,,,,,,,,,,,,,,,,,,,,stimuli/alien_stimuli/25.png,62.05308420001529,62.05308420001529,62.05308420001529,62.05308420001529,62.05308420001529,,,,,,,,,,,,,,,,,,,,,,,,,,
