trialInstr,x_fixStart,y_fixStart,x_corrSteps,y_corrSteps,x_nrSteps,y_nrSteps,alienID,trialLength,version,trialTrain,praclen,testlen,trial_label,break_on_off,beforeExpLoop.thisRepN,beforeExpLoop.thisTrialN,beforeExpLoop.thisN,beforeExpLoop.thisIndex,mini_instr_trials.thisRepN,mini_instr_trials.thisTrialN,mini_instr_trials.thisN,mini_instr_trials.thisIndex,instrLoop.thisRepN,instrLoop.thisTrialN,instrLoop.thisN,instrLoop.thisIndex,repeat_prac.thisRepN,repeat_prac.thisTrialN,repeat_prac.thisN,repeat_prac.thisIndex,trainLoop.thisRepN,trainLoop.thisTrialN,trainLoop.thisN,trainLoop.thisIndex,moveLoop_train.thisRepN,moveLoop_train.thisTrialN,moveLoop_train.thisN,moveLoop_train.thisIndex,experiment.thisRepN,experiment.thisTrialN,experiment.thisN,experiment.thisIndex,moveLoop_test.thisRepN,moveLoop_test.thisTrialN,moveLoop_test.thisN,moveLoop_test.thisIndex,mini_instr2_trials.thisRepN,mini_instr2_trials.thisTrialN,mini_instr2_trials.thisN,mini_instr2_trials.thisIndex,start_all_time,url,slideStim,audioStim,slides.started,sounds.started,nextButton.numClicks,nextButton.timesOn,nextButton.timesOff,prev_but.numClicks,prev_but.timesOn,prev_but.timesOff,alienStim,instrFile,alienStim_instr,gridImage_instr.started,startPos_3.started,key_instr.started,alienImage_3.started,sounds_1.started,key_instr.keys,key_instr.rt,all_x,all_y,FBy_corrSteps,FBy_fixStart,FBx_corrSteps,FBx_fixStart,FBy_pathSize_check,FBx_pathSize_check,gridImage_9.started,alienImageFB_3.started,startPosFB_3.started,keyFB_3.started,pathLine_ydir_2.started,pathLine_xdir_2.started,alienFace_3.started,sounds_2.started,RTFB_instr,keyFB_3.keys,keyFB_3.rt,draw_alienStim,draw_alienID,test_x,nrepcount,perfthres,percthres,earlierperf,earlystop,nextPrac,fileidx,praclen,saveACC_train,pracFile,nextPrac_train,addNrep,fileidx_endr,repExp,showearly,gridImage_4.started,startPos.started,movePos.started,key_resp.started,alienImage.started,wLy_dir,wLx_dir,x_movePos,y_movePos,buttonPress_train,RTchoice_train,cumAcctrain,aCorr,saveACC_choice,corrAns,x_movePos_end,y_movePos_end,key_resp.keys,key_resp.rt,text_2.started,text_2.stopped,aft_x_corrPos,aft_y_corrPos,y_pathSize_check,x_pathSize_check,y_pathdirY,x_pathdirY,x_pathdirX,x_corrPos,y_corrPos,gridImage_6.started,alienImageFB_2.started,startPosFB_2.started,movePosFB_2.started,keyFB_2.started,pathLine_xdir.started,pathLine_ydir.started,alienFace.started,sounds_4.started,RT_FBtrain,keyFB_2.keys,keyFB_2.rt,saveACC_pre,ACC,within_saveACC_train,earlystop_wloop,cumAcctrain_check,gridImage_3.started,alienImage_test.started,startPos_test.started,movePos_test.started,key_resp_test.started,wLy_dir_test,wLx_dir_test,buttonPress_test,RTchoice_test,cumAcctest,corrAns_test,key_resp_test.keys,key_resp_test.rt,text_3.started,text_3.stopped,total_time,end_all_time,key_resp_3.keys,slides_2.started,sounds_3.started,nextButton_2.numClicks,nextButton_2.timesOn,nextButton_2.timesOff,prev_but_2.numClicks,prev_but_2.timesOn,prev_but_2.timesOff,bye.started,participant,train_first,00_coordinate,starting corner,date,expName,psychopyVersion,frameRate,
,,,,,,,,,,,,,,,0,0,0,0,0,0,0,0,,,,,,,,,,,,,,,,,,,,,,,,,,,,,start_all_time,testround,conditions/schedules/train_y_first/blue_star_00/top_left/instructions/Slide1.png,conditions/schedules/train_y_first/blue_star_00/top_left/instructions/Audio1.wav,110.15070799994282,110.11541528014932,1,[2.826538600027561],[2.826545999967493],0,,,,,,,,,,,,,,,,,,,,,,,,,,,,,,,,,,,,,,,,,,,,,,,,,,,,,,,,,,,,,,,,,,,,,,,,,,,,,,,,,,,,,,,,,,,,,,,,,,,,,,,,,,,,,,,,,,,,,,,,,,,,test,train_y,blue_star,top_left,2024-12-23_18h10.59.459,HideSeek_v1,2022.2.5,60.07322926460177,
,,,,,,,,,,,,,,,0,0,0,0,1,0,1,0,,,,,,,,,,,,,,,,,,,,,,,,,,,,,,,conditions/schedules/train_y_first/blue_star_00/top_left/instructions/Slide2.png,conditions/schedules/train_y_first/blue_star_00/top_left/instructions/Audio2.wav,113.01653429993894,113.0134131499799,2,"[2.826538600027561, 0.5289662999566644]","[0.04573979997076094, 0.5289738000137731]",0,,,,,,,,,,,,,,,,,,,,,,,,,,,,,,,,,,,,,,,,,,,,,,,,,,,,,,,,,,,,,,,,,,,,,,,,,,,,,,,,,,,,,,,,,,,,,,,,,,,,,,,,,,,,,,,,,,,,,,,,,,,,test,train_y,blue_star,top_left,2024-12-23_18h10.59.459,HideSeek_v1,2022.2.5,60.07322926460177,
,,,,,,,,,,,,,,,0,0,0,0,2,0,2,0,,,,,,,,,,,,,,,,,,,,,,,,,,,,,,,conditions/schedules/train_y_first/blue_star_00/top_left/instructions/Slide3.png,conditions/schedules/train_y_first/blue_star_00/top_left/instructions/Audio3.wav,113.61369859997649,113.59692801996134,3,"[2.826538600027561, 0.5289662999566644, 0.4522165000671521]","[0.04573979997076094, 0.06861750001553446, 0.4522233000025153]",0,,,,,,,,,,,,,,,,,,,,,,,,,,,,,,,,,,,,,,,,,,,,,,,,,,,,,,,,,,,,,,,,,,,,,,,,,,,,,,,,,,,,,,,,,,,,,,,,,,,,,,,,,,,,,,,,,,,,,,,,,,,,test,train_y,blue_star,top_left,2024-12-23_18h10.59.459,HideSeek_v1,2022.2.5,60.07322926460177,
,,,,,,,,,,,,,,,0,0,0,0,3,0,3,0,,,,,,,,,,,,,,,,,,,,,,,,,,,,,,,conditions/schedules/train_y_first/blue_star_00/top_left/instructions/Slide4.png,conditions/schedules/train_y_first/blue_star_00/top_left/instructions/Audio4.wav,114.13102520001121,114.13032754999585,4,"[2.826538600027561, 0.5289662999566644, 0.4522165000671521, 0.3646583999507129]","[0.04573979997076094, 0.06861750001553446, 0.08098929992411286, 0.3646655000047758]",0,,,,,,,,,,,,,,,,,,,,,,,,,,,,,,,,,,,,,,,,,,,,,,,,,,,,,,,,,,,,,,,,,,,,,,,,,,,,,,,,,,,,,,,,,,,,,,,,,,,,,,,,,,,,,,,,,,,,,,,,,,,,test,train_y,blue_star,top_left,2024-12-23_18h10.59.459,HideSeek_v1,2022.2.5,60.07322926460177,
,,,,,,,,,,,,,,,0,0,0,0,4,0,4,0,,,,,,,,,,,,,,,,,,,,,,,,,,,,,,,conditions/schedules/train_y_first/blue_star_00/top_left/instructions/Slide5.png,conditions/schedules/train_y_first/blue_star_00/top_left/instructions/Audio5.wav,114.56354509992525,114.54678461998701,5,"[2.826538600027561, 0.5289662999566644, 0.4522165000671521, 0.3646583999507129, 0.3890536999097094]","[0.04573979997076094, 0.06861750001553446, 0.08098929992411286, 0.08883409993723035, 0.38906069996301085]",0,,,,,,,,,,,,,,,,,,,,,,,,,,,,,,,,,,,,,,,,,,,,,,,,,,,,,,,,,,,,,,,,,,,,,,,,,,,,,,,,,,,,,,,,,,,,,,,,,,,,,,,,,,,,,,,,,,,,,,,,,,,,test,train_y,blue_star,top_left,2024-12-23_18h10.59.459,HideSeek_v1,2022.2.5,60.07322926460177,
,,,,,,,,,,,,,,,0,0,0,0,5,0,5,0,,,,,,,,,,,,,,,,,,,,,,,,,,,,,,,conditions/schedules/train_y_first/blue_star_00/top_left/instructions/Slide6.png,conditions/schedules/train_y_first/blue_star_00/top_left/instructions/Audio6.wav,115.00024810002651,114.99673731992952,6,"[2.826538600027561, 0.5289662999566644, 0.4522165000671521, 0.3646583999507129, 0.3890536999097094, 0.3781355998944491]","[0.04573979997076094, 0.06861750001553446, 0.08098929992411286, 0.08883409993723035, 0.061413299990817904, 0.37814279994927347]",0,,,,,,,,,,,,,,,,,,,,,,,,,,,,,,,,,,,,,,,,,,,,,,,,,,,,,,,,,,,,,,,,,,,,,,,,,,,,,,,,,,,,,,,,,,,,,,,,,,,,,,,,,,,,,,,,,,,,,,,,,,,,test,train_y,blue_star,top_left,2024-12-23_18h10.59.459,HideSeek_v1,2022.2.5,60.07322926460177,
,,,,,,,,,,,,,,,0,0,0,0,6,0,6,0,,,,,,,,,,,,,,,,,,,,,,,,,,,,,,,conditions/schedules/train_y_first/blue_star_00/top_left/instructions/Slide7.png,conditions/schedules/train_y_first/blue_star_00/top_left/instructions/Audio7.wav,115.44708199996967,115.43030721992254,7,"[2.826538600027561, 0.5289662999566644, 0.4522165000671521, 0.3646583999507129, 0.3890536999097094, 0.3781355998944491, 0.4049927999731153]","[0.04573979997076094, 0.06861750001553446, 0.08098929992411286, 0.08883409993723035, 0.061413299990817904, 0.00020999996922910213, 0.40500139992218465]",0,,,,,,,,,,,,,,,,,,,,,,,,,,,,,,,,,,,,,,,,,,,,,,,,,,,,,,,,,,,,,,,,,,,,,,,,,,,,,,,,,,,,,,,,,,,,,,,,,,,,,,,,,,,,,,,,,,,,,,,,,,,,test,train_y,blue_star,top_left,2024-12-23_18h10.59.459,HideSeek_v1,2022.2.5,60.07322926460177,
,,,,,,,,,,,,,,,0,0,0,0,7,0,7,0,,,,,,,,,,,,,,,,,,,,,,,,,,,,,,,conditions/schedules/train_y_first/blue_star_00/top_left/instructions/Slide8.png,conditions/schedules/train_y_first/blue_star_00/top_left/instructions/Audio8.wav,115.91412079997826,115.89722811996471,8,"[2.826538600027561, 0.5289662999566644, 0.4522165000671521, 0.3646583999507129, 0.3890536999097094, 0.3781355998944491, 0.4049927999731153, 0.38804330001585186]","[0.04573979997076094, 0.06861750001553446, 0.08098929992411286, 0.08883409993723035, 0.061413299990817904, 0.00020999996922910213, 0.07102829997893423, 0.38805100007448345]",0,,,,,,,,,,,,,,,,,,,,,,,,,,,,,,,,,,,,,,,,,,,,,,,,,,,,,,,,,,,,,,,,,,,,,,,,,,,,,,,,,,,,,,,,,,,,,,,,,,,,,,,,,,,,,,,,,,,,,,,,,,,,test,train_y,blue_star,top_left,2024-12-23_18h10.59.459,HideSeek_v1,2022.2.5,60.07322926460177,
,,,,,,,,,,,,,,,0,0,0,0,8,0,8,0,,,,,,,,,,,,,,,,,,,,,,,,,,,,,,,conditions/schedules/train_y_first/blue_star_00/top_left/instructions/Slide9.png,conditions/schedules/train_y_first/blue_star_00/top_left/instructions/Audio9.wav,116.36393869994208,116.34720601998269,9,"[2.826538600027561, 0.5289662999566644, 0.4522165000671521, 0.3646583999507129, 0.3890536999097094, 0.3781355998944491, 0.4049927999731153, 0.38804330001585186, 0.3220604000380263]","[0.04573979997076094, 0.06861750001553446, 0.08098929992411286, 0.08883409993723035, 0.061413299990817904, 0.00020999996922910213, 0.07102829997893423, 0.02200170001015067, 0.32206870010122657]",0,,,,,,,,,,,,,,,,,,,,,,,,,,,,,,,,,,,,,,,,,,,,,,,,,,,,,,,,,,,,,,,,,,,,,,,,,,,,,,,,,,,,,,,,,,,,,,,,,,,,,,,,,,,,,,,,,,,,,,,,,,,,test,train_y,blue_star,top_left,2024-12-23_18h10.59.459,HideSeek_v1,2022.2.5,60.07322926460177,
,,,,,,,,,,,,,,,0,0,0,0,9,0,9,0,,,,,,,,,,,,,,,,,,,,,,,,,,,,,,,conditions/schedules/train_y_first/blue_star_00/top_left/instructions/Slide10.png,conditions/schedules/train_y_first/blue_star_00/top_left/instructions/Audio10.wav,116.73079609998967,116.73012501997873,10,"[2.826538600027561, 0.5289662999566644, 0.4522165000671521, 0.3646583999507129, 0.3890536999097094, 0.3781355998944491, 0.4049927999731153, 0.38804330001585186, 0.3220604000380263, 0.3164126999909058]","[0.04573979997076094, 0.06861750001553446, 0.08098929992411286, 0.08883409993723035, 0.061413299990817904, 0.00020999996922910213, 0.07102829997893423, 0.02200170001015067, 0.032557700062170625, 0.3164198000449687]",0,,,,,,,,,,,,,,,,,,,,,,,,,,,,,,,,,,,,,,,,,,,,,,,,,,,,,,,,,,,,,,,,,,,,,,,,,,,,,,,,,,,,,,,,,,,,,,,,,,,,,,,,,,,,,,,,,,,,,,,,,,,,test,train_y,blue_star,top_left,2024-12-23_18h10.59.459,HideSeek_v1,2022.2.5,60.07322926460177,
,,,,,,,,,,,,,,,0,0,0,0,10,0,10,0,,,,,,,,,,,,,,,,,,,,,,,,,,,,,,,conditions/schedules/train_y_first/blue_star_00/top_left/instructions/Slide11.png,conditions/schedules/train_y_first/blue_star_00/top_left/instructions/Audio11.wav,117.09720929991454,117.08027368995828,11,"[2.826538600027561, 0.5289662999566644, 0.4522165000671521, 0.3646583999507129, 0.3890536999097094, 0.3781355998944491, 0.4049927999731153, 0.38804330001585186, 0.3220604000380263, 0.3164126999909058, 0.33610000007320195]","[0.04573979997076094, 0.06861750001553446, 0.08098929992411286, 0.08883409993723035, 0.061413299990817904, 0.00020999996922910213, 0.07102829997893423, 0.02200170001015067, 0.032557700062170625, 0.05210640002042055, 0.3361074000131339]",0,,,,,,,,,,,,,,,,,,,,,,,,,,,,,,,,,,,,,,,,,,,,,,,,,,,,,,,,,,,,,,,,,,,,,,,,,,,,,,,,,,,,,,,,,,,,,,,,,,,,,,,,,,,,,,,,,,,,,,,,,,,,test,train_y,blue_star,top_left,2024-12-23_18h10.59.459,HideSeek_v1,2022.2.5,60.07322926460177,
,,,,,,,,,,,,,,,0,0,0,0,11,0,11,0,,,,,,,,,,,,,,,,,,,,,,,,,,,,,,,conditions/schedules/train_y_first/blue_star_00/top_left/instructions/Slide12.png,conditions/schedules/train_y_first/blue_star_00/top_left/instructions/Audio12.wav,117.4972064999165,117.48042981997132,12,"[2.826538600027561, 0.5289662999566644, 0.4522165000671521, 0.3646583999507129, 0.3890536999097094, 0.3781355998944491, 0.4049927999731153, 0.38804330001585186, 0.3220604000380263, 0.3164126999909058, 0.33610000007320195, 0.32308910007122904]","[0.04573979997076094, 0.06861750001553446, 0.08098929992411286, 0.08883409993723035, 0.061413299990817904, 0.00020999996922910213, 0.07102829997893423, 0.02200170001015067, 0.032557700062170625, 0.05210640002042055, 0.039848800050094724, 0.3230970000149682]",0,,,,,,,,,,,,,,,,,,,,,,,,,,,,,,,,,,,,,,,,,,,,,,,,,,,,,,,,,,,,,,,,,,,,,,,,,,,,,,,,,,,,,,,,,,,,,,,,,,,,,,,,,,,,,,,,,,,,,,,,,,,,test,train_y,blue_star,top_left,2024-12-23_18h10.59.459,HideSeek_v1,2022.2.5,60.07322926460177,
1,0,8,0,3,0,-5,66,2,instr_dim1_1,,,,,,0,0,0,0,,,,,0,0,0,0,,,,,,,,,,,,,,,,,,,,,,,,,,,,,,,,,,,,,stimuli/alien_stimuli/66.png,conditions/schedules/train_y_first/blue_star_00/top_left/inputInstr_1.xlsx,stimuli/alien_stimuli/66.png,117.91391509992536,117.91391509992536,117.91391509992536,117.91391509992536,117.8799856499536,return,1.2521629000548273,"[-0.16, -0.08, 0, 0.08, 0.16, 0.24, 0.32, 0.4, 0.48, 0.56]","[-0.4, -0.32, -0.24, -0.16, -0.08, 0, 0.08, 0.16, 0.24, 0.32]",3,8,0,0,0.4,0.0,119.31351509992965,119.31351509992965,119.31351509992965,119.31351509992965,119.31351509992965,119.31351509992965,119.31351509992965,119.29674181002193,0.5336840000236407,return,0.3899078000104055,stimuli/alien_stimuli/66.png,66,0,1,,,,,,,,,,,,,,,,,,,,,,,,,,,,,,,,,,,,,,,,,,,,,,,,,,,,,,,,,,,,,,,,,,,,,,,,,,,,,,,,,,,,,,,,,test,train_y,blue_star,top_left,2024-12-23_18h10.59.459,HideSeek_v1,2022.2.5,60.07322926460177,
,,,,,,,,,,,30,,,,0,0,0,0,,,,,,,,,,,,,,,,,,,,,,,,,,,,,,,,,,,,,,,,,,,,,,,,,,,,,,,,,,,,,,,,,,,,,,,,,,,,,,21,0.7,0,0,99,1,30,0,conditions/schedules/train_y_first/blue_star_00/top_left/inputTrain_1.1.xlsx,99,1,1,1,0,,,,,,,,,,,,,,,,,,,,,,,,,,,,,,,,,,,,,,,,,,,,,,,,,,,,,,,,,,,,,,,,,,,,,,,,,,,test,train_y,blue_star,top_left,2024-12-23_18h10.59.459,HideSeek_v1,2022.2.5,60.07322926460177,
,,,,,,,,,,,,,,,1,0,1,0,0,0,0,0,,,,,,,,,,,,,,,,,,,,,,,,,,,,,,,conditions/schedules/train_y_first/blue_star_00/top_left/instructions/Slide13.png,conditions/schedules/train_y_first/blue_star_00/top_left/instructions/Audio13.wav,119.86369339993689,119.84643184000161,13,"[2.826538600027561, 0.5289662999566644, 0.4522165000671521, 0.3646583999507129, 0.3890536999097094, 0.3781355998944491, 0.4049927999731153, 0.38804330001585186, 0.3220604000380263, 0.3164126999909058, 0.33610000007320195, 0.32308910007122904, 0.6087655000155792]","[0.04573979997076094, 0.06861750001553446, 0.08098929992411286, 0.08883409993723035, 0.061413299990817904, 0.00020999996922910213, 0.07102829997893423, 0.02200170001015067, 0.032557700062170625, 0.05210640002042055, 0.039848800050094724, 0.3230970000149682, 0.6087733999593183]",0,,,,,,,,,,,,,,,,,,,,,,,,,,,,,,,,,,,,,,,,,,,,,,,,,,,,,,,,,,,,,,,,,,,,,,,,,,,,,,,,,,,,,,,,,,,,,,,,,,,,,,,,,,,,,,,,,,,,,,,,,,,,test,train_y,blue_star,top_left,2024-12-23_18h10.59.459,HideSeek_v1,2022.2.5,60.07322926460177,
,,,,,,,,,,,,,,,1,0,1,0,1,0,1,0,,,,,,,,,,,,,,,,,,,,,,,,,,,,,,,conditions/schedules/train_y_first/blue_star_00/top_left/instructions/Slide14.png,conditions/schedules/train_y_first/blue_star_00/top_left/instructions/Audio14.wav,120.53013909992296,120.51357471996452,14,"[2.826538600027561, 0.5289662999566644, 0.4522165000671521, 0.3646583999507129, 0.3890536999097094, 0.3781355998944491, 0.4049927999731153, 0.38804330001585186, 0.3220604000380263, 0.3164126999909058, 0.33610000007320195, 0.32308910007122904, 0.6087655000155792, 0.37020990008022636]","[0.04573979997076094, 0.06861750001553446, 0.08098929992411286, 0.08883409993723035, 0.061413299990817904, 0.00020999996922910213, 0.07102829997893423, 0.02200170001015067, 0.032557700062170625, 0.05210640002042055, 0.039848800050094724, 0.3230970000149682, 0.07005450001452118, 0.37021660001482815]",0,,,,,,,,,,,,,,,,,,,,,,,,,,,,,,,,,,,,,,,,,,,,,,,,,,,,,,,,,,,,,,,,,,,,,,,,,,,,,,,,,,,,,,,,,,,,,,,,,,,,,,,,,,,,,,,,,,,,,,,,,,,,test,train_y,blue_star,top_left,2024-12-23_18h10.59.459,HideSeek_v1,2022.2.5,60.07322926460177,
2,2,8,2,8,0,0,61,2,instr_dim1_1,,,,,,1,0,1,0,,,,,0,0,0,0,,,,,,,,,,,,,,,,,,,,,,,,,,,,,,,,,,,,,stimuli/alien_stimuli/61.png,conditions/schedules/train_y_first/blue_star_00/top_left/inputInstr_1.xlsx,stimuli/alien_stimuli/61.png,120.96818009996787,120.96818009996787,120.96818009996787,120.96818009996787,120.96354094997514,return,0.9030086999991909,"[-0.16, -0.08, 0, 0.08, 0.16, 0.24, 0.32, 0.4, 0.48, 0.56]","[-0.4, -0.32, -0.24, -0.16, -0.08, 0, 0.08, 0.16, 0.24, 0.32]",8,8,2,2,0.0,0.0,121.99727629998233,121.99727629998233,121.99727629998233,121.99727629998233,121.99727629998233,121.99727629998233,121.99727629998233,121.98024538001046,0.3840543000260368,return,0.2567985999630764,stimuli/alien_stimuli/61.png,61,2,2,,,,,,,,,,,,,,,,,,,,,,,,,,,,,,,,,,,,,,,,,,,,,,,,,,,,,,,,,,,,,,,,,,,,,,,,,,,,,,,,,,,,,,,,,test,train_y,blue_star,top_left,2024-12-23_18h10.59.459,HideSeek_v1,2022.2.5,60.07322926460177,
,,,,,,,,,,,30,,,,1,0,1,0,,,,,,,,,,,,,,,,,,,,,,,,,,,,,,,,,,,,,,,,,,,,,,,,,,,,,,,,,,,,,,,,,,,,,,,,,,,,,,21,0.7,0,0,99,1,30,0,conditions/schedules/train_y_first/blue_star_00/top_left/inputTrain_1.1.xlsx,99,1,1,1,0,,,,,,,,,,,,,,,,,,,,,,,,,,,,,,,,,,,,,,,,,,,,,,,,,,,,,,,,,,,,,,,,,,,,,,,,,,,test,train_y,blue_star,top_left,2024-12-23_18h10.59.459,HideSeek_v1,2022.2.5,60.07322926460177,
,,,,,,,,,,,,,,,2,0,2,0,0,0,0,0,,,,,,,,,,,,,,,,,,,,,,,,,,,,,,,conditions/schedules/train_y_first/blue_star_00/top_left/instructions/Slide15.png,conditions/schedules/train_y_first/blue_star_00/top_left/instructions/Audio15.wav,122.41374609991908,122.39652763996274,15,"[2.826538600027561, 0.5289662999566644, 0.4522165000671521, 0.3646583999507129, 0.3890536999097094, 0.3781355998944491, 0.4049927999731153, 0.38804330001585186, 0.3220604000380263, 0.3164126999909058, 0.33610000007320195, 0.32308910007122904, 0.6087655000155792, 0.37020990008022636, 0.5086948000825942]","[0.04573979997076094, 0.06861750001553446, 0.08098929992411286, 0.08883409993723035, 0.061413299990817904, 0.00020999996922910213, 0.07102829997893423, 0.02200170001015067, 0.032557700062170625, 0.05210640002042055, 0.039848800050094724, 0.3230970000149682, 0.07005450001452118, 0.37021660001482815, 0.5087027000263333]",0,,,,,,,,,,,,,,,,,,,,,,,,,,,,,,,,,,,,,,,,,,,,,,,,,,,,,,,,,,,,,,,,,,,,,,,,,,,,,,,,,,,,,,,,,,,,,,,,,,,,,,,,,,,,,,,,,,,,,,,,,,,,test,train_y,blue_star,top_left,2024-12-23_18h10.59.459,HideSeek_v1,2022.2.5,60.07322926460177,
,,,,,,,,,,,,,,,2,0,2,0,1,0,1,0,,,,,,,,,,,,,,,,,,,,,,,,,,,,,,,conditions/schedules/train_y_first/blue_star_00/top_left/instructions/Slide16.png,conditions/schedules/train_y_first/blue_star_00/top_left/instructions/Audio16.wav,122.98064219998196,122.96323682002257,16,"[2.826538600027561, 0.5289662999566644, 0.4522165000671521, 0.3646583999507129, 0.3890536999097094, 0.3781355998944491, 0.4049927999731153, 0.38804330001585186, 0.3220604000380263, 0.3164126999909058, 0.33610000007320195, 0.32308910007122904, 0.6087655000155792, 0.37020990008022636, 0.5086948000825942, 0.36958119994960725]","[0.04573979997076094, 0.06861750001553446, 0.08098929992411286, 0.08883409993723035, 0.061413299990817904, 0.00020999996922910213, 0.07102829997893423, 0.02200170001015067, 0.032557700062170625, 0.05210640002042055, 0.039848800050094724, 0.3230970000149682, 0.07005450001452118, 0.37021660001482815, 0.03595849999692291, 0.36958759999834]",0,,,,,,,,,,,,,,,,,,,,,,,,,,,,,,,,,,,,,,,,,,,,,,,,,,,,,,,,,,,,,,,,,,,,,,,,,,,,,,,,,,,,,,,,,,,,,,,,,,,,,,,,,,,,,,,,,,,,,,,,,,,,test,train_y,blue_star,top_left,2024-12-23_18h10.59.459,HideSeek_v1,2022.2.5,60.07322926460177,
,0,5,0,1,0,-4,65,,train_dim1_1,1,30,,,,2,0,2,0,,,,,,,,,0,0,0,0,0,0,0,0,0,0,0,0,,,,,,,,,,,,,,,,,,,,,,,,,stimuli/alien_stimuli/65.png,,,,,,,,,,,,,,,,,,,,,,,,,,,,,,,,,,,,,,,30,,,,,,,,123.4306157999672,123.4306157999672,123.4306157999672,123.4306157999672,123.4306157999672,0,0,-0.16,0,return,1.0738251999719068,0,0,0,0,-0.16,0,return,0.9758814999368042,,,,,,,,,,,,,,,,,,,,,,,,,,,,,,,,,,,,,,,,,,,,,,,,,,,,,,,,test,train_y,blue_star,top_left,2024-12-23_18h10.59.459,HideSeek_v1,2022.2.5,60.07322926460177,
,3,7,3,2,0,-5,66,,train_dim1_1,2,30,,,,2,0,2,0,,,,,,,,,0,0,0,0,0,1,1,1,0,0,0,0,,,,,,,,,,,,,,,,,,,,,,,,,stimuli/alien_stimuli/66.png,,,,,,,,,,,,,,,,,,,,,,,,,,,,,stimuli/alien_stimuli/65.png,65,0,3,,,,,,,30,,,,,,,,128.71382389997598,128.71382389997598,128.71382389997598,128.71382389997598,128.71382389997598,,,,,down,1.058473200071603,0,0,0,99,0.08,0.08,down,0.9807230000151321,127.1639946999494,128.71382389997598,-0.16,-0.32,0.32,0.0,-0.16,-0.16,-0.16,-0.16,-0.32,126.06378349999432,126.06378349999432,126.06378349999432,126.06378349999432,126.06378349999432,126.06378349999432,126.06378349999432,126.06378349999432,126.03034427999519,1.219029700034298,return,1.0841864000540227,,,,,,,,,,,,,,,,,,,,,,,,,,,,,,,,,test,train_y,blue_star,top_left,2024-12-23_18h10.59.459,HideSeek_v1,2022.2.5,60.07322926460177,
,3,7,3,2,0,-5,66,,train_dim1_1,2,30,,,,2,0,2,0,,,,,,,,,0,0,0,0,0,1,1,1,1,0,1,0,,,,,,,,,,,,,,,,,,,,,,,,,,,,,,,,,,,,,,,,,,,,,,,,,,,,,,,,,,,,,,,,30,,,,,,,,129.78002199996263,129.78002199996263,129.78002199996263,129.78002199996263,129.78002199996263,,,,,down,0.2775318999774754,0,0,0,99,0.08,0.0,down,0.18972619995474815,,,,,,,,,,,,,,,,,,,,,,,,,,,,,,,,,,,,,,,,,,,,,,,,,,,,,,,,test,train_y,blue_star,top_left,2024-12-23_18h10.59.459,HideSeek_v1,2022.2.5,60.07322926460177,
,3,7,3,2,0,-5,66,,train_dim1_1,2,30,,,,2,0,2,0,,,,,,,,,0,0,0,0,0,1,1,1,2,0,2,0,,,,,,,,,,,,,,,,,,,,,,,,,,,,,,,,,,,,,,,,,,,,,,,,,,,,,,,,,,,,,,,,30,,,,,,,,130.06370419997256,130.06370419997256,130.06370419997256,130.06370419997256,130.06370419997256,,,,,down,0.26039990002755076,0,0,0,99,0.08,-0.08,down,0.17004529992118478,,,,,,,,,,,,,,,,,,,,,,,,,,,,,,,,,,,,,,,,,,,,,,,,,,,,,,,,test,train_y,blue_star,top_left,2024-12-23_18h10.59.459,HideSeek_v1,2022.2.5,60.07322926460177,
,3,7,3,2,0,-5,66,,train_dim1_1,2,30,,,,2,0,2,0,,,,,,,,,0,0,0,0,0,1,1,1,3,0,3,0,,,,,,,,,,,,,,,,,,,,,,,,,,,,,,,,,,,,,,,,,,,,,,,,,,,,,,,,,,,,,,,,30,,,,,,,,130.33035359997302,130.33035359997302,130.33035359997302,130.33035359997302,130.33035359997302,,,,,down,0.2772852999623865,0,0,0,99,0.08,-0.16,down,0.19326089997775853,,,,,,,,,,,,,,,,,,,,,,,,,,,,,,,,,,,,,,,,,,,,,,,,,,,,,,,,test,train_y,blue_star,top_left,2024-12-23_18h10.59.459,HideSeek_v1,2022.2.5,60.07322926460177,
,3,7,3,2,0,-5,66,,train_dim1_1,2,30,,,,2,0,2,0,,,,,,,,,0,0,0,0,0,1,1,1,4,0,4,0,,,,,,,,,,,,,,,,,,,,,,,,,,,,,,,,,,,,,,,,,,,,,,,,,,,,,,,,,,,,,,,,30,,,,,,,,130.61361000000034,130.61361000000034,130.61361000000034,130.61361000000034,130.61361000000034,-4,0,0.08,-0.16,return,0.3949600999476388,0,1,0,0,0.08,-0.16,return,0.30735459993593395,,,,,,,,,,,,,,,,,,,,,,,,,,,,,,,,,,,,,,,,,,,,,,,,,,,,,,,,test,train_y,blue_star,top_left,2024-12-23_18h10.59.459,HideSeek_v1,2022.2.5,60.07322926460177,
,2,8,2,5,0,-3,64,,train_dim1_1,3,30,,,,2,0,2,0,,,,,,,,,0,0,0,0,0,2,2,2,0,0,0,0,,,,,,,,,,,,,,,,,,,,,,,,,stimuli/alien_stimuli/64.png,,,,,,,,,,,,,,,,,,,,,,,,,,,,,stimuli/alien_stimuli/66.png,66,3,4,,,,,,,30,,,,,,,,135.06446789996698,135.06446789996698,135.06446789996698,135.06446789996698,135.06446789996698,,,,,down,0.7917388000059873,0,1,0,99,0,0.15999999999999998,down,0.7091056000208482,133.51336460001767,135.06446789996698,0.08,-0.24,0.4,0.0,-0.039999999999999994,0.08,0.08,0.08,-0.24,132.56356379995123,132.56356379995123,132.56356379995123,132.56356379995123,132.56356379995123,132.56356379995123,132.56356379995123,132.56356379995123,132.5468413800001,1.051845800015144,return,0.9217332999687642,,,,,,,,,,,,,,,,,,,,,,,,,,,,,,,,,test,train_y,blue_star,top_left,2024-12-23_18h10.59.459,HideSeek_v1,2022.2.5,60.07322926460177,
,2,8,2,5,0,-3,64,,train_dim1_1,3,30,,,,2,0,2,0,,,,,,,,,0,0,0,0,0,2,2,2,1,0,1,0,,,,,,,,,,,,,,,,,,,,,,,,,,,,,,,,,,,,,,,,,,,,,,,,,,,,,,,,,,,,,,,,30,,,,,,,,135.86794429994188,135.86794429994188,135.86794429994188,135.86794429994188,135.86794429994188,,,,,down,0.2599810999818146,0,1,0,99,0,0.07999999999999997,down,0.16389119997620583,,,,,,,,,,,,,,,,,,,,,,,,,,,,,,,,,,,,,,,,,,,,,,,,,,,,,,,,test,train_y,blue_star,top_left,2024-12-23_18h10.59.459,HideSeek_v1,2022.2.5,60.07322926460177,
,2,8,2,5,0,-3,64,,train_dim1_1,3,30,,,,2,0,2,0,,,,,,,,,0,0,0,0,0,2,2,2,2,0,2,0,,,,,,,,,,,,,,,,,,,,,,,,,,,,,,,,,,,,,,,,,,,,,,,,,,,,,,,,,,,,,,,,30,,,,,,,,136.12013759999536,136.12013759999536,136.12013759999536,136.12013759999536,136.12013759999536,,,,,down,0.2776546999812126,0,1,0,99,0,-2.7755575615628914e-17,down,0.19872509990818799,,,,,,,,,,,,,,,,,,,,,,,,,,,,,,,,,,,,,,,,,,,,,,,,,,,,,,,,test,train_y,blue_star,top_left,2024-12-23_18h10.59.459,HideSeek_v1,2022.2.5,60.07322926460177,
,2,8,2,5,0,-3,64,,train_dim1_1,3,30,,,,2,0,2,0,,,,,,,,,0,0,0,0,0,2,2,2,3,0,3,0,,,,,,,,,,,,,,,,,,,,,,,,,,,,,,,,,,,,,,,,,,,,,,,,,,,,,,,,,,,,,,,,30,,,,,,,,136.41381059994455,136.41381059994455,136.41381059994455,136.41381059994455,136.41381059994455,-7,0,0,-2.7755575615628914e-17,return,0.31117370002903044,1,0,0,1,0,-2.7755575615628914e-17,return,0.22206770000047982,,,,,,,,,,,,,,,,,,,,,,,,,,,,,,,,,,,,,,,,,,,,,,,,,,,,,,,,test,train_y,blue_star,top_left,2024-12-23_18h10.59.459,HideSeek_v1,2022.2.5,60.07322926460177,
,0,6,0,5,0,-1,62,,train_dim1_1,4,30,,,,2,0,2,0,,,,,,,,,0,0,0,0,0,3,3,3,0,0,0,0,,,,,,,,,,,,,,,,,,,,,,,,,stimuli/alien_stimuli/62.png,,,,,,,,,,,,,,,,,,,,,,,,,,,,,stimuli/alien_stimuli/64.png,64,2,5,,,,,,,30,,,,,,,,140.61766859993804,140.61766859993804,140.61766859993804,140.61766859993804,140.61766859993804,-7,0,-0.16,0.08,return,1.7749281999422237,1,1,0,0,-0.16,0.08,return,1.6805455000139773,139.0639291999396,140.61766859993804,0,0,0.24,0.0,0.12,0,0.0,0,0,138.28092900000047,138.28092900000047,138.28092900000047,138.28092900000047,138.28092900000047,138.28092900000047,138.28092900000047,138.28092900000047,138.2634485799819,0.8850672000553459,return,0.7654035000596195,,,,,,,,,,,,,,,,,,,,,,,,,,,,,,,,,test,train_y,blue_star,top_left,2024-12-23_18h10.59.459,HideSeek_v1,2022.2.5,60.07322926460177,
,3,8,3,8,0,0,61,,train_dim1_1,5,30,,,,2,0,2,0,,,,,,,,,0,0,0,0,0,4,4,4,0,0,0,0,,,,,,,,,,,,,,,,,,,,,,,,,stimuli/alien_stimuli/61.png,,,,,,,,,,,,,,,,,,,,,,,,,,,,,stimuli/alien_stimuli/62.png,62,0,6,,,,,,,30,,,,,,,,146.2641054999549,146.2641054999549,146.2641054999549,146.2641054999549,146.2641054999549,-7,0,0.08,0.24,return,2.975501099950634,2,0,0,1,0.08,0.24,return,2.891243699938059,144.71384620002937,146.2641054999549,-0.16,0,0.08,0.0,0.04,-0.16,-0.16,-0.16,0,143.93200339993928,143.93200339993928,143.93200339993928,143.93200339993928,143.93200339993928,143.93200339993928,143.93200339993928,143.93200339993928,143.92993477992712,0.8687570999609306,return,0.7622036000248045,,,,,,,,,,,,,,,,,,,,,,,,,,,,,,,,,test,train_y,blue_star,top_left,2024-12-23_18h10.59.459,HideSeek_v1,2022.2.5,60.07322926460177,
,1,9,1,8,0,-1,62,,train_dim1_1,6,30,,,,2,0,2,0,,,,,,,,,0,0,0,0,0,5,5,5,0,0,0,0,,,,,,,,,,,,,,,,,,,,,,,,,stimuli/alien_stimuli/62.png,,,,,,,,,,,,,,,,,,,,,,,,,,,,,stimuli/alien_stimuli/61.png,61,3,7,,,,,,,30,,,,,,,,153.51324010000098,153.51324010000098,153.51324010000098,153.51324010000098,153.51324010000098,,,,,down,2.508262199931778,2,0,0,99,-0.08,0.24,down,2.4288232000544667,151.96440059994347,153.51324010000098,0.08,0.24,0.0,0.0,0.24,0.08,0.08,0.08,0.24,150.78176739998162,150.78176739998162,150.78176739998162,150.78176739998162,150.78176739998162,150.78176739998162,150.78176739998162,150.78176739998162,150.76365614996757,1.2697145000565797,return,1.1556536999996752,,,,,,,,,,,,,,,,,,,,,,,,,,,,,,,,,test,train_y,blue_star,top_left,2024-12-23_18h10.59.459,HideSeek_v1,2022.2.5,60.07322926460177,
,1,9,1,8,0,-1,62,,train_dim1_1,6,30,,,,2,0,2,0,,,,,,,,,0,0,0,0,0,5,5,5,1,0,1,0,,,,,,,,,,,,,,,,,,,,,,,,,,,,,,,,,,,,,,,,,,,,,,,,,,,,,,,,,,,,,,,,30,,,,,,,,156.03092299995478,156.03092299995478,156.03092299995478,156.03092299995478,156.03092299995478,-8,0,-0.08,0.24,return,0.8767881999956444,3,0,0,1,-0.08,0.24,return,0.7895411999197677,,,,,,,,,,,,,,,,,,,,,,,,,,,,,,,,,,,,,,,,,,,,,,,,,,,,,,,,test,train_y,blue_star,top_left,2024-12-23_18h10.59.459,HideSeek_v1,2022.2.5,60.07322926460177,
,1,8,1,5,0,-3,64,,train_dim1_1,7,30,,,,2,0,2,0,,,,,,,,,0,0,0,0,0,6,6,6,0,0,0,0,,,,,,,,,,,,,,,,,,,,,,,,,stimuli/alien_stimuli/64.png,,,,,,,,,,,,,,,,,,,,,,,,,,,,,stimuli/alien_stimuli/62.png,62,1,8,,,,,,,30,,,,,,,,160.38025249994826,160.38025249994826,160.38025249994826,160.38025249994826,160.38025249994826,,,,,down,0.7416826999979094,3,0,0,99,-0.08,0.15999999999999998,down,0.655642099911347,158.83030639996286,160.38025249994826,-0.08,0.24,0.08,0.0,0.28,-0.08,-0.08,-0.08,0.24,158.44664679991547,158.44664679991547,158.44664679991547,158.44664679991547,158.44664679991547,158.44664679991547,158.44664679991547,158.44664679991547,158.42970934999175,0.46853019995614886,return,0.35218689998146147,,,,,,,,,,,,,,,,,,,,,,,,,,,,,,,,,test,train_y,blue_star,top_left,2024-12-23_18h10.59.459,HideSeek_v1,2022.2.5,60.07322926460177,
,1,8,1,5,0,-3,64,,train_dim1_1,7,30,,,,2,0,2,0,,,,,,,,,0,0,0,0,0,6,6,6,1,0,1,0,,,,,,,,,,,,,,,,,,,,,,,,,,,,,,,,,,,,,,,,,,,,,,,,,,,,,,,,,,,,,,,,30,,,,,,,,161.11768979998305,161.11768979998305,161.11768979998305,161.11768979998305,161.11768979998305,,,,,down,0.2607307001017034,3,0,0,99,-0.08,0.07999999999999997,down,0.19384389999322593,,,,,,,,,,,,,,,,,,,,,,,,,,,,,,,,,,,,,,,,,,,,,,,,,,,,,,,,test,train_y,blue_star,top_left,2024-12-23_18h10.59.459,HideSeek_v1,2022.2.5,60.07322926460177,
,1,8,1,5,0,-3,64,,train_dim1_1,7,30,,,,2,0,2,0,,,,,,,,,0,0,0,0,0,6,6,6,2,0,2,0,,,,,,,,,,,,,,,,,,,,,,,,,,,,,,,,,,,,,,,,,,,,,,,,,,,,,,,,,,,,,,,,30,,,,,,,,161.38573859992903,161.38573859992903,161.38573859992903,161.38573859992903,161.38573859992903,,,,,down,0.19398810004349798,3,0,0,99,-0.08,-2.7755575615628914e-17,down,0.11405980004929006,,,,,,,,,,,,,,,,,,,,,,,,,,,,,,,,,,,,,,,,,,,,,,,,,,,,,,,,test,train_y,blue_star,top_left,2024-12-23_18h10.59.459,HideSeek_v1,2022.2.5,60.07322926460177,
,1,8,1,5,0,-3,64,,train_dim1_1,7,30,,,,2,0,2,0,,,,,,,,,0,0,0,0,0,6,6,6,3,0,3,0,,,,,,,,,,,,,,,,,,,,,,,,,,,,,,,,,,,,,,,,,,,,,,,,,,,,,,,,,,,,,,,,30,,,,,,,,161.58476659993175,161.58476659993175,161.58476659993175,161.58476659993175,161.58476659993175,-11,0,-0.08,-2.7755575615628914e-17,return,0.2601946999784559,4,0,0,1,-0.08,-2.7755575615628914e-17,return,0.18926700006704777,,,,,,,,,,,,,,,,,,,,,,,,,,,,,,,,,,,,,,,,,,,,,,,,,,,,,,,,test,train_y,blue_star,top_left,2024-12-23_18h10.59.459,HideSeek_v1,2022.2.5,60.07322926460177,
,4,7,4,7,0,0,61,,train_dim1_1,8,30,,,,2,0,2,0,,,,,,,,,0,0,0,0,0,7,7,7,0,0,0,0,,,,,,,,,,,,,,,,,,,,,,,,,stimuli/alien_stimuli/61.png,,,,,,,,,,,,,,,,,,,,,,,,,,,,,stimuli/alien_stimuli/64.png,64,1,9,,,,,,,30,,,,,,,,165.61356650001835,165.61356650001835,165.61356650001835,165.61356650001835,165.61356650001835,-11,0,0.16,0.16,return,2.025257800007239,5,0,0,1,0.16,0.16,return,1.9470724000129849,164.063505899976,165.61356650001835,-0.08,0,0.24,0.0,0.12,-0.08,-0.08,-0.08,0,163.39715430000797,163.39715430000797,163.39715430000797,163.39715430000797,163.39715430000797,163.39715430000797,163.39715430000797,163.39715430000797,163.38003124995157,0.751418299973011,return,0.6366915000835434,,,,,,,,,,,,,,,,,,,,,,,,,,,,,,,,,test,train_y,blue_star,top_left,2024-12-23_18h10.59.459,HideSeek_v1,2022.2.5,60.07322926460177,
,4,8,4,4,0,-4,65,,train_dim1_1,9,30,,,,2,0,2,0,,,,,,,,,0,0,0,0,0,8,8,8,0,0,0,0,,,,,,,,,,,,,,,,,,,,,,,,,stimuli/alien_stimuli/65.png,,,,,,,,,,,,,,,,,,,,,,,,,,,,,stimuli/alien_stimuli/61.png,61,4,10,,,,,,,30,,,,,,,,171.3798330000136,171.3798330000136,171.3798330000136,171.3798330000136,171.3798330000136,,,,,down,1.391391700017266,5,0,0,99,0.16,0.15999999999999998,down,1.3050310000544414,169.82994859991595,171.3798330000136,0.16,0.16,0.0,0.0,0.16,0.16,0.16,0.16,0.16,169.18027749995235,169.18027749995235,169.18027749995235,169.18027749995235,169.18027749995235,169.18027749995235,169.18027749995235,169.18027749995235,169.16325724998023,0.7352572999661788,return,0.6256107001099735,,,,,,,,,,,,,,,,,,,,,,,,,,,,,,,,,test,train_y,blue_star,top_left,2024-12-23_18h10.59.459,HideSeek_v1,2022.2.5,60.07322926460177,
,4,8,4,4,0,-4,65,,train_dim1_1,9,30,,,,2,0,2,0,,,,,,,,,0,0,0,0,0,8,8,8,1,0,1,0,,,,,,,,,,,,,,,,,,,,,,,,,,,,,,,,,,,,,,,,,,,,,,,,,,,,,,,,,,,,,,,,30,,,,,,,,172.7672445999924,172.7672445999924,172.7672445999924,172.7672445999924,172.7672445999924,,,,,down,0.32746529998257756,5,0,0,99,0.16,0.07999999999999997,down,0.2530244999798015,,,,,,,,,,,,,,,,,,,,,,,,,,,,,,,,,,,,,,,,,,,,,,,,,,,,,,,,test,train_y,blue_star,top_left,2024-12-23_18h10.59.459,HideSeek_v1,2022.2.5,60.07322926460177,
,4,8,4,4,0,-4,65,,train_dim1_1,9,30,,,,2,0,2,0,,,,,,,,,0,0,0,0,0,8,8,8,2,0,2,0,,,,,,,,,,,,,,,,,,,,,,,,,,,,,,,,,,,,,,,,,,,,,,,,,,,,,,,,,,,,,,,,30,,,,,,,,173.11391740001272,173.11391740001272,173.11391740001272,173.11391740001272,173.11391740001272,,,,,down,0.3104672000044957,5,0,0,99,0.16,-2.7755575615628914e-17,down,0.2188077000901103,,,,,,,,,,,,,,,,,,,,,,,,,,,,,,,,,,,,,,,,,,,,,,,,,,,,,,,,test,train_y,blue_star,top_left,2024-12-23_18h10.59.459,HideSeek_v1,2022.2.5,60.07322926460177,
,4,8,4,4,0,-4,65,,train_dim1_1,9,30,,,,2,0,2,0,,,,,,,,,0,0,0,0,0,8,8,8,3,0,3,0,,,,,,,,,,,,,,,,,,,,,,,,,,,,,,,,,,,,,,,,,,,,,,,,,,,,,,,,,,,,,,,,30,,,,,,,,173.4191192999715,173.4191192999715,173.4191192999715,173.4191192999715,173.4191192999715,,,,,down,0.27682539995294064,5,0,0,99,0.16,-0.08000000000000003,down,0.19977170007769018,,,,,,,,,,,,,,,,,,,,,,,,,,,,,,,,,,,,,,,,,,,,,,,,,,,,,,,,test,train_y,blue_star,top_left,2024-12-23_18h10.59.459,HideSeek_v1,2022.2.5,60.07322926460177,
,4,8,4,4,0,-4,65,,train_dim1_1,9,30,,,,2,0,2,0,,,,,,,,,0,0,0,0,0,8,8,8,4,0,4,0,,,,,,,,,,,,,,,,,,,,,,,,,,,,,,,,,,,,,,,,,,,,,,,,,,,,,,,,,,,,,,,,30,,,,,,,,173.71349170000758,173.71349170000758,173.71349170000758,173.71349170000758,173.71349170000758,-15,0,0.16,-0.08000000000000003,return,0.31119609996676445,6,0,0,1,0.16,-0.08000000000000003,return,0.22969059995375574,,,,,,,,,,,,,,,,,,,,,,,,,,,,,,,,,,,,,,,,,,,,,,,,,,,,,,,,test,train_y,blue_star,top_left,2024-12-23_18h10.59.459,HideSeek_v1,2022.2.5,60.07322926460177,
,2,7,2,2,0,-5,66,,train_dim1_1,10,30,,,,2,0,2,0,,,,,,,,,0,0,0,0,0,9,9,9,0,0,0,0,,,,,,,,,,,,,,,,,,,,,,,,,stimuli/alien_stimuli/66.png,,,,,,,,,,,,,,,,,,,,,,,,,,,,,stimuli/alien_stimuli/65.png,65,4,11,,,,,,,30,,,,,,,,182.64662909996696,182.64662909996696,182.64662909996696,182.64662909996696,182.64662909996696,,,,,down,0.8919619999360293,6,0,0,99,0,0.08,down,0.8175215000519529,181.09665690001566,182.64662909996696,0.16,-0.08,0.32,0.0,0.07999999999999999,0.16,0.16,0.16,-0.08,175.56305230001453,175.56305230001453,175.56305230001453,175.56305230001453,175.56305230001453,175.56305230001453,175.56305230001453,175.56305230001453,175.54664225003216,5.618158900062554,return,5.5013070000568405,,,,,,,,,,,,,,,,,,,,,,,,,,,,,,,,,test,train_y,blue_star,top_left,2024-12-23_18h10.59.459,HideSeek_v1,2022.2.5,60.07322926460177,
,2,7,2,2,0,-5,66,,train_dim1_1,10,30,,,,2,0,2,0,,,,,,,,,0,0,0,0,0,9,9,9,1,0,1,0,,,,,,,,,,,,,,,,,,,,,,,,,,,,,,,,,,,,,,,,,,,,,,,,,,,,,,,,,,,,,,,,30,,,,,,,,183.54645239992533,183.54645239992533,183.54645239992533,183.54645239992533,183.54645239992533,,,,,down,0.7268854000139982,6,0,0,99,0,0.0,down,0.6387689000694081,,,,,,,,,,,,,,,,,,,,,,,,,,,,,,,,,,,,,,,,,,,,,,,,,,,,,,,,test,train_y,blue_star,top_left,2024-12-23_18h10.59.459,HideSeek_v1,2022.2.5,60.07322926460177,
,2,7,2,2,0,-5,66,,train_dim1_1,10,30,,,,2,0,2,0,,,,,,,,,0,0,0,0,0,9,9,9,2,0,2,0,,,,,,,,,,,,,,,,,,,,,,,,,,,,,,,,,,,,,,,,,,,,,,,,,,,,,,,,,,,,,,,,30,,,,,,,,184.26738079998177,184.26738079998177,184.26738079998177,184.26738079998177,184.26738079998177,,,,,down,0.8270069999853149,6,0,0,99,0,-0.08,down,0.7527335999766365,,,,,,,,,,,,,,,,,,,,,,,,,,,,,,,,,,,,,,,,,,,,,,,,,,,,,,,,test,train_y,blue_star,top_left,2024-12-23_18h10.59.459,HideSeek_v1,2022.2.5,60.07322926460177,
,2,7,2,2,0,-5,66,,train_dim1_1,10,30,,,,2,0,2,0,,,,,,,,,0,0,0,0,0,9,9,9,3,0,3,0,,,,,,,,,,,,,,,,,,,,,,,,,,,,,,,,,,,,,,,,,,,,,,,,,,,,,,,,,,,,,,,,30,,,,,,,,185.11342369997874,185.11342369997874,185.11342369997874,185.11342369997874,185.11342369997874,,,,,down,0.3274364999961108,6,0,0,99,0,-0.16,down,0.23644569993484765,,,,,,,,,,,,,,,,,,,,,,,,,,,,,,,,,,,,,,,,,,,,,,,,,,,,,,,,test,train_y,blue_star,top_left,2024-12-23_18h10.59.459,HideSeek_v1,2022.2.5,60.07322926460177,
,2,7,2,2,0,-5,66,,train_dim1_1,10,30,,,,2,0,2,0,,,,,,,,,0,0,0,0,0,9,9,9,4,0,4,0,,,,,,,,,,,,,,,,,,,,,,,,,,,,,,,,,,,,,,,,,,,,,,,,,,,,,,,,,,,,,,,,30,,,,,,,,185.43315559998155,185.43315559998155,185.43315559998155,185.43315559998155,185.43315559998155,,,,,down,0.360974199953489,6,0,0,99,0,-0.24,down,0.29488400008995086,,,,,,,,,,,,,,,,,,,,,,,,,,,,,,,,,,,,,,,,,,,,,,,,,,,,,,,,test,train_y,blue_star,top_left,2024-12-23_18h10.59.459,HideSeek_v1,2022.2.5,60.07322926460177,
,2,7,2,2,0,-5,66,,train_dim1_1,10,30,,,,2,0,2,0,,,,,,,,,0,0,0,0,0,9,9,9,5,0,5,0,,,,,,,,,,,,,,,,,,,,,,,,,,,,,,,,,,,,,,,,,,,,,,,,,,,,,,,,,,,,,,,,30,,,,,,,,185.80103129998315,185.80103129998315,185.80103129998315,185.80103129998315,185.80103129998315,-20,0,0,-0.24,return,0.5278138000285253,7,0,0,1,0,-0.24,return,0.4626092999242246,,,,,,,,,,,,,,,,,,,,,,,,,,,,,,,,,,,,,,,,,,,,,,,,,,,,,,,,test,train_y,blue_star,top_left,2024-12-23_18h10.59.459,HideSeek_v1,2022.2.5,60.07322926460177,
,4,6,4,2,0,-4,65,,train_dim1_1,11,30,,,,2,0,2,0,,,,,,,,,0,0,0,0,0,10,10,10,0,0,0,0,,,,,,,,,,,,,,,,,,,,,,,,,stimuli/alien_stimuli/65.png,,,,,,,,,,,,,,,,,,,,,,,,,,,,,stimuli/alien_stimuli/66.png,66,2,12,,,,,,,30,,,,,,,,190.46307970001362,190.46307970001362,190.46307970001362,190.46307970001362,190.46307970001362,,,,,down,9.791754800011404,7,0,0,99,0.16,0.0,down,9.71300450002309,188.9137206999585,190.46307970001362,0,-0.24,0.4,0.0,-0.039999999999999994,0,0.0,0,-0.24,187.88063159992453,187.88063159992453,187.88063159992453,187.88063159992453,187.88063159992453,187.88063159992453,187.88063159992453,187.88063159992453,187.86352795001585,1.1184706999920309,return,1.016559200012125,,,,,,,,,,,,,,,,,,,,,,,,,,,,,,,,,test,train_y,blue_star,top_left,2024-12-23_18h10.59.459,HideSeek_v1,2022.2.5,60.07322926460177,
,4,6,4,2,0,-4,65,,train_dim1_1,11,30,,,,2,0,2,0,,,,,,,,,0,0,0,0,0,10,10,10,1,0,1,0,,,,,,,,,,,,,,,,,,,,,,,,,,,,,,,,,,,,,,,,,,,,,,,,,,,,,,,,,,,,,,,,30,,,,,,,,200.2630945999408,200.2630945999408,200.2630945999408,200.2630945999408,200.2630945999408,,,,,down,0.3108339000027627,7,0,0,99,0.16,-0.08,down,0.223442199989222,,,,,,,,,,,,,,,,,,,,,,,,,,,,,,,,,,,,,,,,,,,,,,,,,,,,,,,,test,train_y,blue_star,top_left,2024-12-23_18h10.59.459,HideSeek_v1,2022.2.5,60.07322926460177,
,4,6,4,2,0,-4,65,,train_dim1_1,11,30,,,,2,0,2,0,,,,,,,,,0,0,0,0,0,10,10,10,2,0,2,0,,,,,,,,,,,,,,,,,,,,,,,,,,,,,,,,,,,,,,,,,,,,,,,,,,,,,,,,,,,,,,,,30,,,,,,,,200.5656181999948,200.5656181999948,200.5656181999948,200.5656181999948,200.5656181999948,,,,,down,0.34378400002606213,7,0,0,99,0.16,-0.16,down,0.27017090003937483,,,,,,,,,,,,,,,,,,,,,,,,,,,,,,,,,,,,,,,,,,,,,,,,,,,,,,,,test,train_y,blue_star,top_left,2024-12-23_18h10.59.459,HideSeek_v1,2022.2.5,60.07322926460177,
,4,6,4,2,0,-4,65,,train_dim1_1,11,30,,,,2,0,2,0,,,,,,,,,0,0,0,0,0,10,10,10,3,0,3,0,,,,,,,,,,,,,,,,,,,,,,,,,,,,,,,,,,,,,,,,,,,,,,,,,,,,,,,,,,,,,,,,30,,,,,,,,200.91516640002374,200.91516640002374,200.91516640002374,200.91516640002374,200.91516640002374,,,,,down,0.3107750000199303,7,0,0,99,0.16,-0.24,down,0.24793179996777326,,,,,,,,,,,,,,,,,,,,,,,,,,,,,,,,,,,,,,,,,,,,,,,,,,,,,,,,test,train_y,blue_star,top_left,2024-12-23_18h10.59.459,HideSeek_v1,2022.2.5,60.07322926460177,
,4,6,4,2,0,-4,65,,train_dim1_1,11,30,,,,2,0,2,0,,,,,,,,,0,0,0,0,0,10,10,10,4,0,4,0,,,,,,,,,,,,,,,,,,,,,,,,,,,,,,,,,,,,,,,,,,,,,,,,,,,,,,,,,,,,,,,,30,,,,,,,,201.2322176999878,201.2322176999878,201.2322176999878,201.2322176999878,201.2322176999878,-24,0,0.16,-0.24,return,0.3942986000329256,8,0,0,1,0.16,-0.24,return,0.32272529997862875,,,,,,,,,,,,,,,,,,,,,,,,,,,,,,,,,,,,,,,,,,,,,,,,,,,,,,,,test,train_y,blue_star,top_left,2024-12-23_18h10.59.459,HideSeek_v1,2022.2.5,60.07322926460177,
,0,5,0,5,0,0,61,,train_dim1_1,12,30,,,,2,0,2,0,,,,,,,,,0,0,0,0,0,11,11,11,0,0,0,0,,,,,,,,,,,,,,,,,,,,,,,,,stimuli/alien_stimuli/61.png,,,,,,,,,,,,,,,,,,,,,,,,,,,,,stimuli/alien_stimuli/65.png,65,4,13,,,,,,,30,,,,,,,,225.57983689999674,225.57983689999674,225.57983689999674,225.57983689999674,225.57983689999674,-24,0,-0.16,0,return,13.458328199922107,9,0,0,1,-0.16,0,return,13.374847600003704,224.02987969992682,225.57983689999674,0.16,-0.24,0.32,0.0,-0.07999999999999999,0.16,0.16,0.16,-0.24,203.1679681999376,203.1679681999376,203.1679681999376,203.1679681999376,203.1679681999376,203.1679681999376,203.1679681999376,203.1679681999376,203.16317934996914,20.93489509995561,return,20.835097800008953,,,,,,,,,,,,,,,,,,,,,,,,,,,,,,,,,test,train_y,blue_star,top_left,2024-12-23_18h10.59.459,HideSeek_v1,2022.2.5,60.07322926460177,
,4,8,4,7,0,-1,62,,train_dim1_1,13,30,,,,2,0,2,0,,,,,,,,,0,0,0,0,0,12,12,12,0,0,0,0,,,,,,,,,,,,,,,,,,,,,,,,,stimuli/alien_stimuli/62.png,,,,,,,,,,,,,,,,,,,,,,,,,,,,,stimuli/alien_stimuli/61.png,61,0,14,,,,,,,30,,,,,,,,242.9296672999626,242.9296672999626,242.9296672999626,242.9296672999626,242.9296672999626,,,,,down,2.2088491999311373,9,0,0,99,0.16,0.15999999999999998,down,2.1301356999902055,241.37988040002529,242.9296672999626,-0.16,0,0.0,0.0,0.0,-0.16,-0.16,-0.16,0,240.57996429991908,240.57996429991908,240.57996429991908,240.57996429991908,240.57996429991908,240.57996429991908,240.57996429991908,240.57996429991908,240.56295064999722,0.8853981000138447,return,0.7823868000414222,,,,,,,,,,,,,,,,,,,,,,,,,,,,,,,,,test,train_y,blue_star,top_left,2024-12-23_18h10.59.459,HideSeek_v1,2022.2.5,60.07322926460177,
,4,8,4,7,0,-1,62,,train_dim1_1,13,30,,,,2,0,2,0,,,,,,,,,0,0,0,0,0,12,12,12,1,0,1,0,,,,,,,,,,,,,,,,,,,,,,,,,,,,,,,,,,,,,,,,,,,,,,,,,,,,,,,,,,,,,,,,30,,,,,,,,245.1460478999652,245.1460478999652,245.1460478999652,245.1460478999652,245.1460478999652,-25,0,0.16,0.15999999999999998,return,0.5097896999213845,10,0,0,1,0.16,0.15999999999999998,return,0.4247476999880746,,,,,,,,,,,,,,,,,,,,,,,,,,,,,,,,,,,,,,,,,,,,,,,,,,,,,,,,test,train_y,blue_star,top_left,2024-12-23_18h10.59.459,HideSeek_v1,2022.2.5,60.07322926460177,
,2,7,2,2,0,-5,66,,train_dim1_1,14,30,,,,2,0,2,0,,,,,,,,,0,0,0,0,0,13,13,13,0,0,0,0,,,,,,,,,,,,,,,,,,,,,,,,,stimuli/alien_stimuli/66.png,,,,,,,,,,,,,,,,,,,,,,,,,,,,,stimuli/alien_stimuli/62.png,62,4,15,,,,,,,30,,,,,,,,249.66279209998902,249.66279209998902,249.66279209998902,249.66279209998902,249.66279209998902,,,,,down,2.8412621999159455,10,0,0,99,0,0.08,down,2.7646182000171393,248.11275849991944,249.66279209998902,0.16,0.16,0.08,0.0,0.2,0.16,0.16,0.16,0.16,247.19670809991658,247.19670809991658,247.19670809991658,247.19670809991658,247.19670809991658,247.19670809991658,247.19670809991658,247.19670809991658,247.17901085002813,1.001761700026691,return,0.891860399977304,,,,,,,,,,,,,,,,,,,,,,,,,,,,,,,,,test,train_y,blue_star,top_left,2024-12-23_18h10.59.459,HideSeek_v1,2022.2.5,60.07322926460177,
,2,7,2,2,0,-5,66,,train_dim1_1,14,30,,,,2,0,2,0,,,,,,,,,0,0,0,0,0,13,13,13,1,0,1,0,,,,,,,,,,,,,,,,,,,,,,,,,,,,,,,,,,,,,,,,,,,,,,,,,,,,,,,,,,,,,,,,30,,,,,,,,252.51262629998382,252.51262629998382,252.51262629998382,252.51262629998382,252.51262629998382,,,,,down,0.3439838000340387,10,0,0,99,0,0.0,down,0.2601796999806538,,,,,,,,,,,,,,,,,,,,,,,,,,,,,,,,,,,,,,,,,,,,,,,,,,,,,,,,test,train_y,blue_star,top_left,2024-12-23_18h10.59.459,HideSeek_v1,2022.2.5,60.07322926460177,
,2,7,2,2,0,-5,66,,train_dim1_1,14,30,,,,2,0,2,0,,,,,,,,,0,0,0,0,0,13,13,13,2,0,2,0,,,,,,,,,,,,,,,,,,,,,,,,,,,,,,,,,,,,,,,,,,,,,,,,,,,,,,,,,,,,,,,,30,,,,,,,,252.84996859997045,252.84996859997045,252.84996859997045,252.84996859997045,252.84996859997045,,,,,down,0.29441059997770935,10,0,0,99,0,-0.08,down,0.2270043999888003,,,,,,,,,,,,,,,,,,,,,,,,,,,,,,,,,,,,,,,,,,,,,,,,,,,,,,,,test,train_y,blue_star,top_left,2024-12-23_18h10.59.459,HideSeek_v1,2022.2.5,60.07322926460177,
,2,7,2,2,0,-5,66,,train_dim1_1,14,30,,,,2,0,2,0,,,,,,,,,0,0,0,0,0,13,13,13,3,0,3,0,,,,,,,,,,,,,,,,,,,,,,,,,,,,,,,,,,,,,,,,,,,,,,,,,,,,,,,,,,,,,,,,30,,,,,,,,253.16270739992615,253.16270739992615,253.16270739992615,253.16270739992615,253.16270739992615,,,,,down,0.36064089997671545,10,0,0,99,0,-0.16,down,0.2735662000486627,,,,,,,,,,,,,,,,,,,,,,,,,,,,,,,,,,,,,,,,,,,,,,,,,,,,,,,,test,train_y,blue_star,top_left,2024-12-23_18h10.59.459,HideSeek_v1,2022.2.5,60.07322926460177,
,2,7,2,2,0,-5,66,,train_dim1_1,14,30,,,,2,0,2,0,,,,,,,,,0,0,0,0,0,13,13,13,4,0,4,0,,,,,,,,,,,,,,,,,,,,,,,,,,,,,,,,,,,,,,,,,,,,,,,,,,,,,,,,,,,,,,,,30,,,,,,,,253.51692580000963,253.51692580000963,253.51692580000963,253.51692580000963,253.51692580000963,,,,,down,0.3275635000318289,10,0,0,99,0,-0.24,down,0.2628586000064388,,,,,,,,,,,,,,,,,,,,,,,,,,,,,,,,,,,,,,,,,,,,,,,,,,,,,,,,test,train_y,blue_star,top_left,2024-12-23_18h10.59.459,HideSeek_v1,2022.2.5,60.07322926460177,
,2,7,2,2,0,-5,66,,train_dim1_1,14,30,,,,2,0,2,0,,,,,,,,,0,0,0,0,0,13,13,13,5,0,5,0,,,,,,,,,,,,,,,,,,,,,,,,,,,,,,,,,,,,,,,,,,,,,,,,,,,,,,,,,,,,,,,,30,,,,,,,,253.85072689992376,253.85072689992376,253.85072689992376,253.85072689992376,253.85072689992376,-30,0,0,-0.24,return,0.6446540999459103,11,0,0,1,0,-0.24,return,0.5666767000220716,,,,,,,,,,,,,,,,,,,,,,,,,,,,,,,,,,,,,,,,,,,,,,,,,,,,,,,,test,train_y,blue_star,top_left,2024-12-23_18h10.59.459,HideSeek_v1,2022.2.5,60.07322926460177,
,1,9,1,6,0,-3,64,,train_dim1_1,15,30,,,,2,0,2,0,,,,,,,,,0,0,0,0,0,14,14,14,0,0,0,0,,,,,,,,,,,,,,,,,,,,,,,,,stimuli/alien_stimuli/64.png,,,,,,,,,,,,,,,,,,,,,,,,,,,,,stimuli/alien_stimuli/66.png,66,2,16,,,,,,,30,,,,,,,,260.57926769996993,260.57926769996993,260.57926769996993,260.57926769996993,260.57926769996993,,,,,down,4.208580499980599,11,0,0,99,-0.08,0.24,down,4.132140000001527,259.0291685999837,260.57926769996993,0,-0.24,0.4,0.0,-0.039999999999999994,0,0.0,0,-0.24,256.0462531999219,256.0462531999219,256.0462531999219,256.0462531999219,256.0462531999219,256.0462531999219,256.0462531999219,256.0462531999219,256.0291499500163,3.06877579994034,return,2.9649299000157043,,,,,,,,,,,,,,,,,,,,,,,,,,,,,,,,,test,train_y,blue_star,top_left,2024-12-23_18h10.59.459,HideSeek_v1,2022.2.5,60.07322926460177,
,1,9,1,6,0,-3,64,,train_dim1_1,15,30,,,,2,0,2,0,,,,,,,,,0,0,0,0,0,14,14,14,1,0,1,0,,,,,,,,,,,,,,,,,,,,,,,,,,,,,,,,,,,,,,,,,,,,,,,,,,,,,,,,,,,,,,,,30,,,,,,,,264.7829790000105,264.7829790000105,264.7829790000105,264.7829790000105,264.7829790000105,,,,,down,0.7439566000830382,11,0,0,99,-0.08,0.15999999999999998,down,0.6802604999393225,,,,,,,,,,,,,,,,,,,,,,,,,,,,,,,,,,,,,,,,,,,,,,,,,,,,,,,,test,train_y,blue_star,top_left,2024-12-23_18h10.59.459,HideSeek_v1,2022.2.5,60.07322926460177,
,1,9,1,6,0,-3,64,,train_dim1_1,15,30,,,,2,0,2,0,,,,,,,,,0,0,0,0,0,14,14,14,2,0,2,0,,,,,,,,,,,,,,,,,,,,,,,,,,,,,,,,,,,,,,,,,,,,,,,,,,,,,,,,,,,,,,,,30,,,,,,,,265.54600450000726,265.54600450000726,265.54600450000726,265.54600450000726,265.54600450000726,,,,,down,1.2443012000294402,11,0,0,99,-0.08,0.07999999999999997,down,1.1535347999306396,,,,,,,,,,,,,,,,,,,,,,,,,,,,,,,,,,,,,,,,,,,,,,,,,,,,,,,,test,train_y,blue_star,top_left,2024-12-23_18h10.59.459,HideSeek_v1,2022.2.5,60.07322926460177,
,1,9,1,6,0,-3,64,,train_dim1_1,15,30,,,,2,0,2,0,,,,,,,,,0,0,0,0,0,14,14,14,3,0,3,0,,,,,,,,,,,,,,,,,,,,,,,,,,,,,,,,,,,,,,,,,,,,,,,,,,,,,,,,,,,,,,,,30,,,,,,,,266.796198099968,266.796198099968,266.796198099968,266.796198099968,266.796198099968,-33,0,-0.08,0.07999999999999997,return,0.6778753999387845,12,0,0,1,-0.08,0.07999999999999997,return,0.5853777999291196,,,,,,,,,,,,,,,,,,,,,,,,,,,,,,,,,,,,,,,,,,,,,,,,,,,,,,,,test,train_y,blue_star,top_left,2024-12-23_18h10.59.459,HideSeek_v1,2022.2.5,60.07322926460177,
,4,5,4,1,0,-4,65,,train_dim1_1,16,30,,,,2,0,2,0,,,,,,,,,0,0,0,0,0,15,15,15,0,0,0,0,,,,,,,,,,,,,,,,,,,,,,,,,stimuli/alien_stimuli/65.png,,,,,,,,,,,,,,,,,,,,,,,,,,,,,stimuli/alien_stimuli/64.png,64,1,17,,,,,,,30,,,,,,,,271.446084999945,271.446084999945,271.446084999945,271.446084999945,271.446084999945,,,,,down,1.559076700010337,12,0,0,99,0.16,-0.08,down,1.471235299948603,269.8963715999853,271.446084999945,-0.08,0.08,0.24,0.0,0.2,-0.08,-0.08,-0.08,0.08,269.01246989995707,269.01246989995707,269.01246989995707,269.01246989995707,269.01246989995707,269.01246989995707,269.01246989995707,269.01246989995707,268.99539684993215,0.9687380000250414,return,0.8532120999880135,,,,,,,,,,,,,,,,,,,,,,,,,,,,,,,,,test,train_y,blue_star,top_left,2024-12-23_18h10.59.459,HideSeek_v1,2022.2.5,60.07322926460177,
,4,5,4,1,0,-4,65,,train_dim1_1,16,30,,,,2,0,2,0,,,,,,,,,0,0,0,0,0,15,15,15,1,0,1,0,,,,,,,,,,,,,,,,,,,,,,,,,,,,,,,,,,,,,,,,,,,,,,,,,,,,,,,,,,,,,,,,30,,,,,,,,273.01294469996355,273.01294469996355,273.01294469996355,273.01294469996355,273.01294469996355,,,,,down,0.3774170000106096,12,0,0,99,0.16,-0.16,down,0.28730959992390126,,,,,,,,,,,,,,,,,,,,,,,,,,,,,,,,,,,,,,,,,,,,,,,,,,,,,,,,test,train_y,blue_star,top_left,2024-12-23_18h10.59.459,HideSeek_v1,2022.2.5,60.07322926460177,
,4,5,4,1,0,-4,65,,train_dim1_1,16,30,,,,2,0,2,0,,,,,,,,,0,0,0,0,0,15,15,15,2,0,2,0,,,,,,,,,,,,,,,,,,,,,,,,,,,,,,,,,,,,,,,,,,,,,,,,,,,,,,,,,,,,,,,,30,,,,,,,,273.38217180001084,273.38217180001084,273.38217180001084,273.38217180001084,273.38217180001084,,,,,down,0.3267926999833435,12,0,0,99,0.16,-0.24,down,0.2604790000477806,,,,,,,,,,,,,,,,,,,,,,,,,,,,,,,,,,,,,,,,,,,,,,,,,,,,,,,,test,train_y,blue_star,top_left,2024-12-23_18h10.59.459,HideSeek_v1,2022.2.5,60.07322926460177,
,4,5,4,1,0,-4,65,,train_dim1_1,16,30,,,,2,0,2,0,,,,,,,,,0,0,0,0,0,15,15,15,3,0,3,0,,,,,,,,,,,,,,,,,,,,,,,,,,,,,,,,,,,,,,,,,,,,,,,,,,,,,,,,,,,,,,,,30,,,,,,,,273.7295567999827,273.7295567999827,273.7295567999827,273.7295567999827,273.7295567999827,,,,,down,0.3275479000294581,12,0,0,99,0.16,-0.32,down,0.2413583000889048,,,,,,,,,,,,,,,,,,,,,,,,,,,,,,,,,,,,,,,,,,,,,,,,,,,,,,,,test,train_y,blue_star,top_left,2024-12-23_18h10.59.459,HideSeek_v1,2022.2.5,60.07322926460177,
,4,5,4,1,0,-4,65,,train_dim1_1,16,30,,,,2,0,2,0,,,,,,,,,0,0,0,0,0,15,15,15,4,0,4,0,,,,,,,,,,,,,,,,,,,,,,,,,,,,,,,,,,,,,,,,,,,,,,,,,,,,,,,,,,,,,,,,30,,,,,,,,274.0623932000017,274.0623932000017,274.0623932000017,274.0623932000017,274.0623932000017,-37,0,0.16,-0.32,return,0.39387830009218305,13,0,0,1,0.16,-0.32,return,0.31432490004226565,,,,,,,,,,,,,,,,,,,,,,,,,,,,,,,,,,,,,,,,,,,,,,,,,,,,,,,,test,train_y,blue_star,top_left,2024-12-23_18h10.59.459,HideSeek_v1,2022.2.5,60.07322926460177,
,3,8,3,5,0,-3,64,,train_dim1_1,17,30,,,,2,0,2,0,,,,,,,,,0,0,0,0,0,16,16,16,0,0,0,0,,,,,,,,,,,,,,,,,,,,,,,,,stimuli/alien_stimuli/64.png,,,,,,,,,,,,,,,,,,,,,,,,,,,,,stimuli/alien_stimuli/65.png,65,4,18,,,,,,,30,,,,,,,,278.21689169993624,278.21689169993624,278.21689169993624,278.21689169993624,278.21689169993624,,,,,down,0.8581712999148294,13,0,0,99,0.08,0.15999999999999998,down,0.7813634000485763,276.679355799919,278.21689169993624,0.16,-0.32,0.32,0.0,-0.16,0.16,0.16,0.16,-0.32,275.9960415000096,275.9960415000096,275.9960415000096,275.9960415000096,275.9960415000096,275.9960415000096,275.9960415000096,275.9960415000096,275.9789363499731,0.7687531999545172,return,0.6648697000928223,,,,,,,,,,,,,,,,,,,,,,,,,,,,,,,,,test,train_y,blue_star,top_left,2024-12-23_18h10.59.459,HideSeek_v1,2022.2.5,60.07322926460177,
,3,8,3,5,0,-3,64,,train_dim1_1,17,30,,,,2,0,2,0,,,,,,,,,0,0,0,0,0,16,16,16,1,0,1,0,,,,,,,,,,,,,,,,,,,,,,,,,,,,,,,,,,,,,,,,,,,,,,,,,,,,,,,,,,,,,,,,30,,,,,,,,279.0839992000256,279.0839992000256,279.0839992000256,279.0839992000256,279.0839992000256,,,,,down,0.410418700077571,13,0,0,99,0.08,0.07999999999999997,down,0.3389595999615267,,,,,,,,,,,,,,,,,,,,,,,,,,,,,,,,,,,,,,,,,,,,,,,,,,,,,,,,test,train_y,blue_star,top_left,2024-12-23_18h10.59.459,HideSeek_v1,2022.2.5,60.07322926460177,
,3,8,3,5,0,-3,64,,train_dim1_1,17,30,,,,2,0,2,0,,,,,,,,,0,0,0,0,0,16,16,16,2,0,2,0,,,,,,,,,,,,,,,,,,,,,,,,,,,,,,,,,,,,,,,,,,,,,,,,,,,,,,,,,,,,,,,,30,,,,,,,,279.51317579997703,279.51317579997703,279.51317579997703,279.51317579997703,279.51317579997703,,,,,down,0.3111254000104964,13,0,0,99,0.08,-2.7755575615628914e-17,down,0.21902949991635978,,,,,,,,,,,,,,,,,,,,,,,,,,,,,,,,,,,,,,,,,,,,,,,,,,,,,,,,test,train_y,blue_star,top_left,2024-12-23_18h10.59.459,HideSeek_v1,2022.2.5,60.07322926460177,
,3,8,3,5,0,-3,64,,train_dim1_1,17,30,,,,2,0,2,0,,,,,,,,,0,0,0,0,0,16,16,16,3,0,3,0,,,,,,,,,,,,,,,,,,,,,,,,,,,,,,,,,,,,,,,,,,,,,,,,,,,,,,,,,,,,,,,,30,,,,,,,,279.8161037999671,279.8161037999671,279.8161037999671,279.8161037999671,279.8161037999671,-40,0,0.08,-2.7755575615628914e-17,return,0.41022389999125153,14,0,0,1,0.08,-2.7755575615628914e-17,return,0.33445019996725023,,,,,,,,,,,,,,,,,,,,,,,,,,,,,,,,,,,,,,,,,,,,,,,,,,,,,,,,test,train_y,blue_star,top_left,2024-12-23_18h10.59.459,HideSeek_v1,2022.2.5,60.07322926460177,
,2,6,2,6,0,0,61,,train_dim1_1,18,30,,,,2,0,2,0,,,,,,,,,0,0,0,0,0,17,17,17,0,0,0,0,,,,,,,,,,,,,,,,,,,,,,,,,stimuli/alien_stimuli/61.png,,,,,,,,,,,,,,,,,,,,,,,,,,,,,stimuli/alien_stimuli/64.png,64,3,19,,,,,,,30,,,,,,,,284.01250770001207,284.01250770001207,284.01250770001207,284.01250770001207,284.01250770001207,,,,,down,0.4579085001023486,14,0,0,99,0,0.0,down,0.37296880001667887,282.4625847999705,284.01250770001207,0.08,0,0.24,0.0,0.12,0.08,0.08,0.08,0,281.7647202999797,281.7647202999797,281.7647202999797,281.7647202999797,281.7647202999797,281.7647202999797,281.7647202999797,281.7647202999797,281.7620874500135,0.769397099968046,return,0.6744091999717057,,,,,,,,,,,,,,,,,,,,,,,,,,,,,,,,,test,train_y,blue_star,top_left,2024-12-23_18h10.59.459,HideSeek_v1,2022.2.5,60.07322926460177,
,2,6,2,6,0,0,61,,train_dim1_1,18,30,,,,2,0,2,0,,,,,,,,,0,0,0,0,0,17,17,17,1,0,1,0,,,,,,,,,,,,,,,,,,,,,,,,,,,,,,,,,,,,,,,,,,,,,,,,,,,,,,,,,,,,,,,,30,,,,,,,,284.4626447999617,284.4626447999617,284.4626447999617,284.4626447999617,284.4626447999617,,,,,up,1.0942062999820337,14,0,0,99,0,0.08,up,1.0209065000526607,,,,,,,,,,,,,,,,,,,,,,,,,,,,,,,,,,,,,,,,,,,,,,,,,,,,,,,,test,train_y,blue_star,top_left,2024-12-23_18h10.59.459,HideSeek_v1,2022.2.5,60.07322926460177,
,2,6,2,6,0,0,61,,train_dim1_1,18,30,,,,2,0,2,0,,,,,,,,,0,0,0,0,0,17,17,17,2,0,2,0,,,,,,,,,,,,,,,,,,,,,,,,,,,,,,,,,,,,,,,,,,,,,,,,,,,,,,,,,,,,,,,,30,,,,,,,,285.5647320999997,285.5647320999997,285.5647320999997,285.5647320999997,285.5647320999997,-40,0,0,0.08,return,0.37777320004533976,15,0,0,1,0,0.08,return,0.30161450000014156,,,,,,,,,,,,,,,,,,,,,,,,,,,,,,,,,,,,,,,,,,,,,,,,,,,,,,,,test,train_y,blue_star,top_left,2024-12-23_18h10.59.459,HideSeek_v1,2022.2.5,60.07322926460177,
,0,9,0,8,0,-1,62,,train_dim1_1,19,30,,,,2,0,2,0,,,,,,,,,0,0,0,0,0,18,18,18,0,0,0,0,,,,,,,,,,,,,,,,,,,,,,,,,stimuli/alien_stimuli/62.png,,,,,,,,,,,,,,,,,,,,,,,,,,,,,stimuli/alien_stimuli/61.png,61,2,20,,,,,,,30,,,,,,,,290.24574869999196,290.24574869999196,290.24574869999196,290.24574869999196,290.24574869999196,,,,,down,1.2243620000081137,15,0,0,99,-0.16,0.24,down,1.148234200081788,288.6956620999845,290.24574869999196,0,0.08,0.0,0.0,0.08,0,0.0,0,0.08,287.48027920001186,287.48027920001186,287.48027920001186,287.48027920001186,287.48027920001186,287.48027920001186,287.48027920001186,287.48027920001186,287.47913875000086,1.2854349999688566,return,1.1926184999756515,,,,,,,,,,,,,,,,,,,,,,,,,,,,,,,,,test,train_y,blue_star,top_left,2024-12-23_18h10.59.459,HideSeek_v1,2022.2.5,60.07322926460177,
,0,9,0,8,0,-1,62,,train_dim1_1,19,30,,,,2,0,2,0,,,,,,,,,0,0,0,0,0,18,18,18,1,0,1,0,,,,,,,,,,,,,,,,,,,,,,,,,,,,,,,,,,,,,,,,,,,,,,,,,,,,,,,,,,,,,,,,30,,,,,,,,291.4799789999379,291.4799789999379,291.4799789999379,291.4799789999379,291.4799789999379,-41,0,-0.16,0.24,return,0.8765129999956116,16,0,0,1,-0.16,0.24,return,0.7885816000634804,,,,,,,,,,,,,,,,,,,,,,,,,,,,,,,,,,,,,,,,,,,,,,,,,,,,,,,,test,train_y,blue_star,top_left,2024-12-23_18h10.59.459,HideSeek_v1,2022.2.5,60.07322926460177,
,2,5,2,0,0,-5,66,,train_dim1_1,20,30,,,,2,0,2,0,,,,,,,,,0,0,0,0,0,19,19,19,0,0,0,0,,,,,,,,,,,,,,,,,,,,,,,,,stimuli/alien_stimuli/66.png,,,,,,,,,,,,,,,,,,,,,,,,,,,,,stimuli/alien_stimuli/62.png,62,0,21,,,,,,,30,,,,,,,,296.2501750999363,296.2501750999363,296.2501750999363,296.2501750999363,296.2501750999363,,,,,down,1.3244207999669015,16,0,0,99,0,-0.08,down,1.2632382999872789,294.71244679996744,296.2501750999363,-0.16,0.24,0.08,0.0,0.28,-0.16,-0.16,-0.16,0.24,293.88199659995735,293.88199659995735,293.88199659995735,293.88199659995735,293.88199659995735,293.88199659995735,293.88199659995735,293.88199659995735,293.8787548500113,0.9020584999816492,return,0.8020672999555245,,,,,,,,,,,,,,,,,,,,,,,,,,,,,,,,,test,train_y,blue_star,top_left,2024-12-23_18h10.59.459,HideSeek_v1,2022.2.5,60.07322926460177,
,2,5,2,0,0,-5,66,,train_dim1_1,20,30,,,,2,0,2,0,,,,,,,,,0,0,0,0,0,19,19,19,1,0,1,0,,,,,,,,,,,,,,,,,,,,,,,,,,,,,,,,,,,,,,,,,,,,,,,,,,,,,,,,,,,,,,,,30,,,,,,,,297.59670709993225,297.59670709993225,297.59670709993225,297.59670709993225,297.59670709993225,,,,,down,0.3602915999945253,16,0,0,99,0,-0.16,down,0.26689900003839284,,,,,,,,,,,,,,,,,,,,,,,,,,,,,,,,,,,,,,,,,,,,,,,,,,,,,,,,test,train_y,blue_star,top_left,2024-12-23_18h10.59.459,HideSeek_v1,2022.2.5,60.07322926460177,
,2,5,2,0,0,-5,66,,train_dim1_1,20,30,,,,2,0,2,0,,,,,,,,,0,0,0,0,0,19,19,19,2,0,2,0,,,,,,,,,,,,,,,,,,,,,,,,,,,,,,,,,,,,,,,,,,,,,,,,,,,,,,,,,,,,,,,,30,,,,,,,,297.95036070002243,297.95036070002243,297.95036070002243,297.95036070002243,297.95036070002243,,,,,down,0.3104621999664232,16,0,0,99,0,-0.24,down,0.2422301999758929,,,,,,,,,,,,,,,,,,,,,,,,,,,,,,,,,,,,,,,,,,,,,,,,,,,,,,,,test,train_y,blue_star,top_left,2024-12-23_18h10.59.459,HideSeek_v1,2022.2.5,60.07322926460177,
,2,5,2,0,0,-5,66,,train_dim1_1,20,30,,,,2,0,2,0,,,,,,,,,0,0,0,0,0,19,19,19,3,0,3,0,,,,,,,,,,,,,,,,,,,,,,,,,,,,,,,,,,,,,,,,,,,,,,,,,,,,,,,,,,,,,,,,30,,,,,,,,298.26680129999295,298.26680129999295,298.26680129999295,298.26680129999295,298.26680129999295,,,,,down,0.29462259996216744,16,0,0,99,0,-0.32,down,0.224943200009875,,,,,,,,,,,,,,,,,,,,,,,,,,,,,,,,,,,,,,,,,,,,,,,,,,,,,,,,test,train_y,blue_star,top_left,2024-12-23_18h10.59.459,HideSeek_v1,2022.2.5,60.07322926460177,
,2,5,2,0,0,-5,66,,train_dim1_1,20,30,,,,2,0,2,0,,,,,,,,,0,0,0,0,0,19,19,19,4,0,4,0,,,,,,,,,,,,,,,,,,,,,,,,,,,,,,,,,,,,,,,,,,,,,,,,,,,,,,,,,,,,,,,,30,,,,,,,,298.5661194999702,298.5661194999702,298.5661194999702,298.5661194999702,298.5661194999702,,,,,down,0.31063849991187453,16,0,0,99,0,-0.4,down,0.23808430007193238,,,,,,,,,,,,,,,,,,,,,,,,,,,,,,,,,,,,,,,,,,,,,,,,,,,,,,,,test,train_y,blue_star,top_left,2024-12-23_18h10.59.459,HideSeek_v1,2022.2.5,60.07322926460177,
,2,5,2,0,0,-5,66,,train_dim1_1,20,30,,,,2,0,2,0,,,,,,,,,0,0,0,0,0,19,19,19,5,0,5,0,,,,,,,,,,,,,,,,,,,,,,,,,,,,,,,,,,,,,,,,,,,,,,,,,,,,,,,,,,,,,,,,30,,,,,,,,298.8960488999728,298.8960488999728,298.8960488999728,298.8960488999728,298.8960488999728,-46,0,0,-0.4,return,0.4940283999312669,17,0,0,1,0,-0.4,return,0.4063064999645576,,,,,,,,,,,,,,,,,,,,,,,,,,,,,,,,,,,,,,,,,,,,,,,,,,,,,,,,test,train_y,blue_star,top_left,2024-12-23_18h10.59.459,HideSeek_v1,2022.2.5,60.07322926460177,
,2,9,2,5,0,-4,65,,train_dim1_1,21,30,,,,2,0,2,0,,,,,,,,,0,0,0,0,0,20,20,20,0,0,0,0,,,,,,,,,,,,,,,,,,,,,,,,,stimuli/alien_stimuli/65.png,,,,,,,,,,,,,,,,,,,,,,,,,,,,,stimuli/alien_stimuli/66.png,66,2,22,,,,,,,30,,,,,,,,306.7666224000277,306.7666224000277,306.7666224000277,306.7666224000277,306.7666224000277,,,,,down,3.6744245999725536,17,0,0,99,0,0.24,down,3.5970443000551313,305.2289003999904,306.7666224000277,0,-0.4,0.4,0.0,-0.2,0,0.0,0,-0.4,300.9141369999852,300.9141369999852,300.9141369999852,300.9141369999852,300.9141369999852,300.9141369999852,300.9141369999852,300.9141369999852,300.91216644993983,4.385075400001369,return,4.286783199990168,,,,,,,,,,,,,,,,,,,,,,,,,,,,,,,,,test,train_y,blue_star,top_left,2024-12-23_18h10.59.459,HideSeek_v1,2022.2.5,60.07322926460177,
,2,9,2,5,0,-4,65,,train_dim1_1,21,30,,,,2,0,2,0,,,,,,,,,0,0,0,0,0,20,20,20,1,0,1,0,,,,,,,,,,,,,,,,,,,,,,,,,,,,,,,,,,,,,,,,,,,,,,,,,,,,,,,,,,,,,,,,30,,,,,,,,310.44901889993344,310.44901889993344,310.44901889993344,310.44901889993344,310.44901889993344,,,,,down,0.4109135000035167,17,0,0,99,0,0.15999999999999998,down,0.336998000042513,,,,,,,,,,,,,,,,,,,,,,,,,,,,,,,,,,,,,,,,,,,,,,,,,,,,,,,,test,train_y,blue_star,top_left,2024-12-23_18h10.59.459,HideSeek_v1,2022.2.5,60.07322926460177,
,2,9,2,5,0,-4,65,,train_dim1_1,21,30,,,,2,0,2,0,,,,,,,,,0,0,0,0,0,20,20,20,2,0,2,0,,,,,,,,,,,,,,,,,,,,,,,,,,,,,,,,,,,,,,,,,,,,,,,,,,,,,,,,,,,,,,,,30,,,,,,,,310.87957799993455,310.87957799993455,310.87957799993455,310.87957799993455,310.87957799993455,,,,,down,0.32727400003932416,17,0,0,99,0,0.07999999999999997,down,0.24163890001364052,,,,,,,,,,,,,,,,,,,,,,,,,,,,,,,,,,,,,,,,,,,,,,,,,,,,,,,,test,train_y,blue_star,top_left,2024-12-23_18h10.59.459,HideSeek_v1,2022.2.5,60.07322926460177,
,2,9,2,5,0,-4,65,,train_dim1_1,21,30,,,,2,0,2,0,,,,,,,,,0,0,0,0,0,20,20,20,3,0,3,0,,,,,,,,,,,,,,,,,,,,,,,,,,,,,,,,,,,,,,,,,,,,,,,,,,,,,,,,,,,,,,,,30,,,,,,,,311.1957163999323,311.1957163999323,311.1957163999323,311.1957163999323,311.1957163999323,,,,,down,0.3448472999734804,17,0,0,99,0,-2.7755575615628914e-17,down,0.28080900001805276,,,,,,,,,,,,,,,,,,,,,,,,,,,,,,,,,,,,,,,,,,,,,,,,,,,,,,,,test,train_y,blue_star,top_left,2024-12-23_18h10.59.459,HideSeek_v1,2022.2.5,60.07322926460177,
,2,9,2,5,0,-4,65,,train_dim1_1,21,30,,,,2,0,2,0,,,,,,,,,0,0,0,0,0,20,20,20,4,0,4,0,,,,,,,,,,,,,,,,,,,,,,,,,,,,,,,,,,,,,,,,,,,,,,,,,,,,,,,,,,,,,,,,30,,,,,,,,311.5471499999985,311.5471499999985,311.5471499999985,311.5471499999985,311.5471499999985,-50,0,0,-2.7755575615628914e-17,return,0.5444931999081746,18,0,0,1,0,-2.7755575615628914e-17,return,0.4695790000259876,,,,,,,,,,,,,,,,,,,,,,,,,,,,,,,,,,,,,,,,,,,,,,,,,,,,,,,,test,train_y,blue_star,top_left,2024-12-23_18h10.59.459,HideSeek_v1,2022.2.5,60.07322926460177,
,0,7,0,4,0,-3,64,,train_dim1_1,22,30,,,,2,0,2,0,,,,,,,,,0,0,0,0,0,21,21,21,0,0,0,0,,,,,,,,,,,,,,,,,,,,,,,,,stimuli/alien_stimuli/64.png,,,,,,,,,,,,,,,,,,,,,,,,,,,,,stimuli/alien_stimuli/65.png,65,2,23,,,,,,,30,,,,,,,,316.0507116999943,316.0507116999943,316.0507116999943,316.0507116999943,316.0507116999943,,,,,down,5.008109399932437,18,0,0,99,-0.16,0.08,down,4.9391082000220194,314.5126268999884,316.0507116999943,0,0,0.32,0.0,0.16,0,0.0,0,0,313.6322853999445,313.6322853999445,313.6322853999445,313.6322853999445,313.6322853999445,313.6322853999445,313.6322853999445,313.6322853999445,313.6287393500097,0.9528388000326231,return,0.8633415000513196,,,,,,,,,,,,,,,,,,,,,,,,,,,,,,,,,test,train_y,blue_star,top_left,2024-12-23_18h10.59.459,HideSeek_v1,2022.2.5,60.07322926460177,
,0,7,0,4,0,-3,64,,train_dim1_1,22,30,,,,2,0,2,0,,,,,,,,,0,0,0,0,0,21,21,21,1,0,1,0,,,,,,,,,,,,,,,,,,,,,,,,,,,,,,,,,,,,,,,,,,,,,,,,,,,,,,,,,,,,,,,,30,,,,,,,,321.0657581000123,321.0657581000123,321.0657581000123,321.0657581000123,321.0657581000123,,,,,down,0.29320900002494454,18,0,0,99,-0.16,0.0,down,0.23014390002936125,,,,,,,,,,,,,,,,,,,,,,,,,,,,,,,,,,,,,,,,,,,,,,,,,,,,,,,,test,train_y,blue_star,top_left,2024-12-23_18h10.59.459,HideSeek_v1,2022.2.5,60.07322926460177,
,0,7,0,4,0,-3,64,,train_dim1_1,22,30,,,,2,0,2,0,,,,,,,,,0,0,0,0,0,21,21,21,2,0,2,0,,,,,,,,,,,,,,,,,,,,,,,,,,,,,,,,,,,,,,,,,,,,,,,,,,,,,,,,,,,,,,,,30,,,,,,,,321.36447509995196,321.36447509995196,321.36447509995196,321.36447509995196,321.36447509995196,,,,,down,0.3775446000508964,18,0,0,99,-0.16,-0.08,down,0.30090260005090386,,,,,,,,,,,,,,,,,,,,,,,,,,,,,,,,,,,,,,,,,,,,,,,,,,,,,,,,test,train_y,blue_star,top_left,2024-12-23_18h10.59.459,HideSeek_v1,2022.2.5,60.07322926460177,
,0,7,0,4,0,-3,64,,train_dim1_1,22,30,,,,2,0,2,0,,,,,,,,,0,0,0,0,0,21,21,21,3,0,3,0,,,,,,,,,,,,,,,,,,,,,,,,,,,,,,,,,,,,,,,,,,,,,,,,,,,,,,,,,,,,,,,,30,,,,,,,,321.750354400021,321.750354400021,321.750354400021,321.750354400021,321.750354400021,-53,0,-0.16,-0.08,return,0.4593433999689296,19,0,0,1,-0.16,-0.08,return,0.3882073999848217,,,,,,,,,,,,,,,,,,,,,,,,,,,,,,,,,,,,,,,,,,,,,,,,,,,,,,,,test,train_y,blue_star,top_left,2024-12-23_18h10.59.459,HideSeek_v1,2022.2.5,60.07322926460177,
,0,8,0,8,0,0,61,,train_dim1_1,23,30,,,,2,0,2,0,,,,,,,,,0,0,0,0,0,22,22,22,0,0,0,0,,,,,,,,,,,,,,,,,,,,,,,,,stimuli/alien_stimuli/61.png,,,,,,,,,,,,,,,,,,,,,,,,,,,,,stimuli/alien_stimuli/64.png,64,0,24,,,,,,,30,,,,,,,,326.17947740003,326.17947740003,326.17947740003,326.17947740003,326.17947740003,-53,0,-0.16,0.24,return,5.466602300060913,20,0,0,1,-0.16,0.24,return,5.351701800012961,324.6346811000258,323.7657064999221,-0.16,-0.08,0.24,0.0,0.04,-0.16,-0.16,-0.16,-0.08,323.7657064999221,323.7657064999221,323.7657064999221,323.7657064999221,323.7657064999221,323.7657064999221,323.7657064999221,323.7657064999221,323.74583485000767,0.9434189000166953,return,0.817110399948433,,,,,,,,,,,,,,,,,,,,,,,,,,,,,,,,,test,train_y,blue_star,top_left,2024-12-23_18h10.59.459,HideSeek_v1,2022.2.5,60.07322926460177,
,3,7,3,2,0,-5,66,,train_dim1_1,24,30,,,,2,0,2,0,,,,,,,,,0,0,0,0,0,23,23,23,0,0,0,0,,,,,,,,,,,,,,,,,,,,,,,,,stimuli/alien_stimuli/66.png,,,,,,,,,,,,,,,,,,,,,,,,,,,,,stimuli/alien_stimuli/61.png,61,0,25,,,,,,,30,,,,,,,,335.6288270999212,335.6288270999212,335.6288270999212,335.6288270999212,335.6288270999212,,,,,down,3.625383200007491,20,0,0,99,0.08,0.08,down,3.538589800009504,334.07892180001363,335.6288270999212,-0.16,0.24,0.0,0.0,0.24,-0.16,-0.16,-0.16,0.24,333.1830915999599,333.1830915999599,333.1830915999599,333.1830915999599,333.1830915999599,333.1830915999599,333.1830915999599,333.1830915999599,333.1783125499496,0.9699232999701053,return,0.8798464999999851,,,,,,,,,,,,,,,,,,,,,,,,,,,,,,,,,test,train_y,blue_star,top_left,2024-12-23_18h10.59.459,HideSeek_v1,2022.2.5,60.07322926460177,
,3,7,3,2,0,-5,66,,train_dim1_1,24,30,,,,2,0,2,0,,,,,,,,,0,0,0,0,0,23,23,23,1,0,1,0,,,,,,,,,,,,,,,,,,,,,,,,,,,,,,,,,,,,,,,,,,,,,,,,,,,,,,,,,,,,,,,,30,,,,,,,,339.2621743999189,339.2621743999189,339.2621743999189,339.2621743999189,339.2621743999189,,,,,down,0.34383289993274957,20,0,0,99,0.08,0.0,down,0.251388999982737,,,,,,,,,,,,,,,,,,,,,,,,,,,,,,,,,,,,,,,,,,,,,,,,,,,,,,,,test,train_y,blue_star,top_left,2024-12-23_18h10.59.459,HideSeek_v1,2022.2.5,60.07322926460177,
,3,7,3,2,0,-5,66,,train_dim1_1,24,30,,,,2,0,2,0,,,,,,,,,0,0,0,0,0,23,23,23,2,0,2,0,,,,,,,,,,,,,,,,,,,,,,,,,,,,,,,,,,,,,,,,,,,,,,,,,,,,,,,,,,,,,,,,30,,,,,,,,339.5968707000138,339.5968707000138,339.5968707000138,339.5968707000138,339.5968707000138,,,,,down,0.32802160002756864,20,0,0,99,0.08,-0.08,down,0.26026639994233847,,,,,,,,,,,,,,,,,,,,,,,,,,,,,,,,,,,,,,,,,,,,,,,,,,,,,,,,test,train_y,blue_star,top_left,2024-12-23_18h10.59.459,HideSeek_v1,2022.2.5,60.07322926460177,
,3,7,3,2,0,-5,66,,train_dim1_1,24,30,,,,2,0,2,0,,,,,,,,,0,0,0,0,0,23,23,23,3,0,3,0,,,,,,,,,,,,,,,,,,,,,,,,,,,,,,,,,,,,,,,,,,,,,,,,,,,,,,,,,,,,,,,,30,,,,,,,,339.94593739998527,339.94593739998527,339.94593739998527,339.94593739998527,339.94593739998527,,,,,down,0.3440453000366688,20,0,0,99,0.08,-0.16,down,0.2570958000142127,,,,,,,,,,,,,,,,,,,,,,,,,,,,,,,,,,,,,,,,,,,,,,,,,,,,,,,,test,train_y,blue_star,top_left,2024-12-23_18h10.59.459,HideSeek_v1,2022.2.5,60.07322926460177,
,3,7,3,2,0,-5,66,,train_dim1_1,24,30,,,,2,0,2,0,,,,,,,,,0,0,0,0,0,23,23,23,4,0,4,0,,,,,,,,,,,,,,,,,,,,,,,,,,,,,,,,,,,,,,,,,,,,,,,,,,,,,,,,,,,,,,,,30,,,,,,,,340.2833182999166,340.2833182999166,340.2833182999166,340.2833182999166,340.2833182999166,,,,,down,0.3780318999197334,20,0,0,99,0.08,-0.24,down,0.3020857999799773,,,,,,,,,,,,,,,,,,,,,,,,,,,,,,,,,,,,,,,,,,,,,,,,,,,,,,,,test,train_y,blue_star,top_left,2024-12-23_18h10.59.459,HideSeek_v1,2022.2.5,60.07322926460177,
,3,7,3,2,0,-5,66,,train_dim1_1,24,30,,,,2,0,2,0,,,,,,,,,0,0,0,0,0,23,23,23,5,0,5,0,,,,,,,,,,,,,,,,,,,,,,,,,,,,,,,,,,,,,,,,,,,,,,,,,,,,,,,,,,,,,,,,30,,,,,,,,340.6786479000002,340.6786479000002,340.6786479000002,340.6786479000002,340.6786479000002,-58,0,0.08,-0.24,return,0.5944338000845164,21,0,0,1,0.08,-0.24,return,0.5108765000477433,,,,,,,,,,,,,,,,,,,,,,,,,,,,,,,,,,,,,,,,,,,,,,,,,,,,,,,,test,train_y,blue_star,top_left,2024-12-23_18h10.59.459,HideSeek_v1,2022.2.5,60.07322926460177,
,3,8,3,7,0,-1,62,,train_dim1_1,25,30,,,,2,0,2,0,,,,,,,,,0,0,0,0,0,24,24,24,0,0,0,0,,,,,,,,,,,,,,,,,,,,,,,,,stimuli/alien_stimuli/62.png,,,,,,,,,,,,,,,,,,,,,,,,,,,,,stimuli/alien_stimuli/66.png,66,3,26,,,,,,,30,,,,,,,,351.8171758999815,351.8171758999815,351.8171758999815,351.8171758999815,351.8171758999815,,,,,down,1.4755951000843197,21,0,0,99,0.08,0.15999999999999998,down,1.4054190999595448,350.27897590002976,351.8171758999815,0.08,-0.24,0.4,0.0,-0.039999999999999994,0.08,0.08,0.08,-0.24,342.8126189999748,342.8126189999748,342.8126189999748,342.8126189999748,342.8126189999748,342.8126189999748,342.8126189999748,342.8126189999748,342.79546485003084,7.5514631000114605,return,7.436982000013813,,,,,,,,,,,,,,,,,,,,,,,,,,,,,,,,,test,train_y,blue_star,top_left,2024-12-23_18h10.59.459,HideSeek_v1,2022.2.5,60.07322926460177,
,3,8,3,7,0,-1,62,,train_dim1_1,25,30,,,,2,0,2,0,,,,,,,,,0,0,0,0,0,24,24,24,1,0,1,0,,,,,,,,,,,,,,,,,,,,,,,,,,,,,,,,,,,,,,,,,,,,,,,,,,,,,,,,,,,,,,,,30,,,,,,,,353.3120484999381,353.3120484999381,353.3120484999381,353.3120484999381,353.3120484999381,-59,0,0.08,0.15999999999999998,return,0.47626749996561557,22,0,0,1,0.08,0.15999999999999998,return,0.3928398999851197,,,,,,,,,,,,,,,,,,,,,,,,,,,,,,,,,,,,,,,,,,,,,,,,,,,,,,,,test,train_y,blue_star,top_left,2024-12-23_18h10.59.459,HideSeek_v1,2022.2.5,60.07322926460177,
,4,9,4,6,0,-3,64,,train_dim1_1,26,30,,,,2,0,2,0,,,,,,,,,0,0,0,0,0,25,25,25,0,0,0,0,,,,,,,,,,,,,,,,,,,,,,,,,stimuli/alien_stimuli/64.png,,,,,,,,,,,,,,,,,,,,,,,,,,,,,stimuli/alien_stimuli/62.png,62,3,27,,,,,,,30,,,,,,,,357.7120835999958,357.7120835999958,357.7120835999958,357.7120835999958,357.7120835999958,,,,,down,0.8580446999985725,22,0,0,99,0.16,0.24,down,0.7747826999984682,356.1623828000156,357.7120835999958,0.08,0.16,0.08,0.0,0.2,0.08,0.08,0.08,0.16,355.3289878999349,355.3289878999349,355.3289878999349,355.3289878999349,355.3289878999349,355.3289878999349,355.3289878999349,355.3289878999349,355.31185155001003,0.9188859999412671,return,0.8046959999483079,,,,,,,,,,,,,,,,,,,,,,,,,,,,,,,,,test,train_y,blue_star,top_left,2024-12-23_18h10.59.459,HideSeek_v1,2022.2.5,60.07322926460177,
,4,9,4,6,0,-3,64,,train_dim1_1,26,30,,,,2,0,2,0,,,,,,,,,0,0,0,0,0,25,25,25,1,0,1,0,,,,,,,,,,,,,,,,,,,,,,,,,,,,,,,,,,,,,,,,,,,,,,,,,,,,,,,,,,,,,,,,30,,,,,,,,358.57926559995394,358.57926559995394,358.57926559995394,358.57926559995394,358.57926559995394,,,,,down,0.27723580005113035,22,0,0,99,0.16,0.15999999999999998,down,0.1950580000411719,,,,,,,,,,,,,,,,,,,,,,,,,,,,,,,,,,,,,,,,,,,,,,,,,,,,,,,,test,train_y,blue_star,top_left,2024-12-23_18h10.59.459,HideSeek_v1,2022.2.5,60.07322926460177,
,4,9,4,6,0,-3,64,,train_dim1_1,26,30,,,,2,0,2,0,,,,,,,,,0,0,0,0,0,25,25,25,2,0,2,0,,,,,,,,,,,,,,,,,,,,,,,,,,,,,,,,,,,,,,,,,,,,,,,,,,,,,,,,,,,,,,,,30,,,,,,,,358.85112609993666,358.85112609993666,358.85112609993666,358.85112609993666,358.85112609993666,,,,,down,0.24374549998901784,22,0,0,99,0.16,0.07999999999999997,down,0.1750082999933511,,,,,,,,,,,,,,,,,,,,,,,,,,,,,,,,,,,,,,,,,,,,,,,,,,,,,,,,test,train_y,blue_star,top_left,2024-12-23_18h10.59.459,HideSeek_v1,2022.2.5,60.07322926460177,
,4,9,4,6,0,-3,64,,train_dim1_1,26,30,,,,2,0,2,0,,,,,,,,,0,0,0,0,0,25,25,25,3,0,3,0,,,,,,,,,,,,,,,,,,,,,,,,,,,,,,,,,,,,,,,,,,,,,,,,,,,,,,,,,,,,,,,,30,,,,,,,,359.1125621999381,359.1125621999381,359.1125621999381,359.1125621999381,359.1125621999381,-62,0,0.16,0.07999999999999997,return,0.37780100002419204,23,0,0,1,0.16,0.07999999999999997,return,0.2979152000043541,,,,,,,,,,,,,,,,,,,,,,,,,,,,,,,,,,,,,,,,,,,,,,,,,,,,,,,,test,train_y,blue_star,top_left,2024-12-23_18h10.59.459,HideSeek_v1,2022.2.5,60.07322926460177,
,3,9,3,4,0,-5,66,,train_dim1_1,27,30,,,,2,0,2,0,,,,,,,,,0,0,0,0,0,26,26,26,0,0,0,0,,,,,,,,,,,,,,,,,,,,,,,,,stimuli/alien_stimuli/66.png,,,,,,,,,,,,,,,,,,,,,,,,,,,,,stimuli/alien_stimuli/64.png,64,4,28,,,,,,,30,,,,,,,,364.39552669995464,364.39552669995464,364.39552669995464,364.39552669995464,364.39552669995464,,,,,down,0.8577953000785783,23,0,0,99,0.08,0.24,down,0.7694744999753311,362.8454799000174,364.39552669995464,0.16,0.08,0.24,0.0,0.2,0.16,0.16,0.16,0.08,361.0290474999929,361.0290474999929,361.0290474999929,361.0290474999929,361.0290474999929,361.0290474999929,361.0290474999929,361.0290474999929,361.0119549499359,1.901532500050962,return,1.7891618000576273,,,,,,,,,,,,,,,,,,,,,,,,,,,,,,,,,test,train_y,blue_star,top_left,2024-12-23_18h10.59.459,HideSeek_v1,2022.2.5,60.07322926460177,
,3,9,3,4,0,-5,66,,train_dim1_1,27,30,,,,2,0,2,0,,,,,,,,,0,0,0,0,0,26,26,26,1,0,1,0,,,,,,,,,,,,,,,,,,,,,,,,,,,,,,,,,,,,,,,,,,,,,,,,,,,,,,,,,,,,,,,,30,,,,,,,,365.2624803999206,365.2624803999206,365.2624803999206,365.2624803999206,365.2624803999206,,,,,down,0.32726299995556474,23,0,0,99,0.08,0.15999999999999998,down,0.2460001000436023,,,,,,,,,,,,,,,,,,,,,,,,,,,,,,,,,,,,,,,,,,,,,,,,,,,,,,,,test,train_y,blue_star,top_left,2024-12-23_18h10.59.459,HideSeek_v1,2022.2.5,60.07322926460177,
,3,9,3,4,0,-5,66,,train_dim1_1,27,30,,,,2,0,2,0,,,,,,,,,0,0,0,0,0,26,26,26,2,0,2,0,,,,,,,,,,,,,,,,,,,,,,,,,,,,,,,,,,,,,,,,,,,,,,,,,,,,,,,,,,,,,,,,30,,,,,,,,365.58251079998445,365.58251079998445,365.58251079998445,365.58251079998445,365.58251079998445,,,,,down,0.32687150000128895,23,0,0,99,0.08,0.07999999999999997,down,0.25449800002388656,,,,,,,,,,,,,,,,,,,,,,,,,,,,,,,,,,,,,,,,,,,,,,,,,,,,,,,,test,train_y,blue_star,top_left,2024-12-23_18h10.59.459,HideSeek_v1,2022.2.5,60.07322926460177,
,3,9,3,4,0,-5,66,,train_dim1_1,27,30,,,,2,0,2,0,,,,,,,,,0,0,0,0,0,26,26,26,3,0,3,0,,,,,,,,,,,,,,,,,,,,,,,,,,,,,,,,,,,,,,,,,,,,,,,,,,,,,,,,,,,,,,,,30,,,,,,,,365.9159819999477,365.9159819999477,365.9159819999477,365.9159819999477,365.9159819999477,,,,,down,0.2943917999509722,23,0,0,99,0.08,-2.7755575615628914e-17,down,0.22096730000339448,,,,,,,,,,,,,,,,,,,,,,,,,,,,,,,,,,,,,,,,,,,,,,,,,,,,,,,,test,train_y,blue_star,top_left,2024-12-23_18h10.59.459,HideSeek_v1,2022.2.5,60.07322926460177,
,3,9,3,4,0,-5,66,,train_dim1_1,27,30,,,,2,0,2,0,,,,,,,,,0,0,0,0,0,26,26,26,4,0,4,0,,,,,,,,,,,,,,,,,,,,,,,,,,,,,,,,,,,,,,,,,,,,,,,,,,,,,,,,,,,,,,,,30,,,,,,,,366.21459569991566,366.21459569991566,366.21459569991566,366.21459569991566,366.21459569991566,,,,,down,0.344273499911651,23,0,0,99,0.08,-0.08000000000000003,down,0.26608670002315193,,,,,,,,,,,,,,,,,,,,,,,,,,,,,,,,,,,,,,,,,,,,,,,,,,,,,,,,test,train_y,blue_star,top_left,2024-12-23_18h10.59.459,HideSeek_v1,2022.2.5,60.07322926460177,
,3,9,3,4,0,-5,66,,train_dim1_1,27,30,,,,2,0,2,0,,,,,,,,,0,0,0,0,0,26,26,26,5,0,5,0,,,,,,,,,,,,,,,,,,,,,,,,,,,,,,,,,,,,,,,,,,,,,,,,,,,,,,,,,,,,,,,,30,,,,,,,,366.56420509994496,366.56420509994496,366.56420509994496,366.56420509994496,366.56420509994496,-67,0,0.08,-0.08000000000000003,return,0.3933728999691084,24,0,0,1,0.08,-0.08000000000000003,return,0.3188159998971969,,,,,,,,,,,,,,,,,,,,,,,,,,,,,,,,,,,,,,,,,,,,,,,,,,,,,,,,test,train_y,blue_star,top_left,2024-12-23_18h10.59.459,HideSeek_v1,2022.2.5,60.07322926460177,
,4,6,4,6,0,0,61,,train_dim1_1,28,30,,,,2,0,2,0,,,,,,,,,0,0,0,0,0,27,27,27,0,0,0,0,,,,,,,,,,,,,,,,,,,,,,,,,stimuli/alien_stimuli/61.png,,,,,,,,,,,,,,,,,,,,,,,,,,,,,stimuli/alien_stimuli/66.png,66,3,29,,,,,,,30,,,,,,,,376.33342509996146,376.33342509996146,376.33342509996146,376.33342509996146,376.33342509996146,-67,0,0.16,0.08,return,1.5923190000467002,25,0,0,1,0.16,0.08,return,1.5212433999404311,374.79508369998075,376.33342509996146,0.08,-0.08,0.4,0.0,0.12,0.08,0.08,0.08,-0.08,368.5118522000266,368.5118522000266,368.5118522000266,368.5118522000266,368.5118522000266,368.5118522000266,368.5118522000266,368.5118522000266,368.49532804999035,6.368182800011709,return,6.2569852999877185,,,,,,,,,,,,,,,,,,,,,,,,,,,,,,,,,test,train_y,blue_star,top_left,2024-12-23_18h10.59.459,HideSeek_v1,2022.2.5,60.07322926460177,
,2,7,2,6,0,-1,62,,train_dim1_1,29,30,,,,2,0,2,0,,,,,,,,,0,0,0,0,0,28,28,28,0,0,0,0,,,,,,,,,,,,,,,,,,,,,,,,,stimuli/alien_stimuli/62.png,,,,,,,,,,,,,,,,,,,,,,,,,,,,,stimuli/alien_stimuli/61.png,61,4,30,,,,,,,30,,,,,,,,382.0451477000024,382.0451477000024,382.0451477000024,382.0451477000024,382.0451477000024,,,,,down,1.0585268000140786,25,0,0,99,0,0.08,down,0.9695699000731111,380.4950217999285,382.0451477000024,0.16,0.08,0.0,0.0,0.08,0.16,0.16,0.16,0.08,379.478892599931,379.478892599931,379.478892599931,379.478892599931,379.478892599931,379.478892599931,379.478892599931,379.478892599931,379.4618785500061,1.102003199979663,return,0.9945753999054432,,,,,,,,,,,,,,,,,,,,,,,,,,,,,,,,,test,train_y,blue_star,top_left,2024-12-23_18h10.59.459,HideSeek_v1,2022.2.5,60.07322926460177,
,2,7,2,6,0,-1,62,,train_dim1_1,29,30,,,,2,0,2,0,,,,,,,,,0,0,0,0,0,28,28,28,1,0,1,0,,,,,,,,,,,,,,,,,,,,,,,,,,,,,,,,,,,,,,,,,,,,,,,,,,,,,,,,,,,,,,,,30,,,,,,,,383.09862659999635,383.09862659999635,383.09862659999635,383.09862659999635,383.09862659999635,-68,0,0,0.08,return,0.4944108999334276,26,0,0,1,0,0.08,return,0.41949700005352497,,,,,,,,,,,,,,,,,,,,,,,,,,,,,,,,,,,,,,,,,,,,,,,,,,,,,,,,test,train_y,blue_star,top_left,2024-12-23_18h10.59.459,HideSeek_v1,2022.2.5,60.07322926460177,
,0,6,0,2,0,-4,65,,train_dim1_1,30,30,,,,2,0,2,0,,,,,,,,,0,0,0,0,0,29,29,29,0,0,0,0,,,,,,,,,,,,,,,,,,,,,,,,,stimuli/alien_stimuli/65.png,,,,,,,,,,,,,,,,,,,,,,,,,,,,,stimuli/alien_stimuli/62.png,62,2,31,,,,,,,30,,,,,,,,387.53380809992086,387.53380809992086,387.53380809992086,387.53380809992086,387.53380809992086,,,,,down,1.225092599983327,26,0,0,99,-0.16,0.0,down,1.147746300091967,385.99535699991975,387.53380809992086,0,0.08,0.08,0.0,0.12,0,0.0,0,0.08,385.1451914999634,385.1451914999634,385.1451914999634,385.1451914999634,385.1451914999634,385.1451914999634,385.1451914999634,385.1451914999634,385.12852994992863,0.9347767999861389,return,0.8264312000246719,,,,,,,,,,,,,,,,,,,,,,,,,,,,,,,,,test,train_y,blue_star,top_left,2024-12-23_18h10.59.459,HideSeek_v1,2022.2.5,60.07322926460177,
,0,6,0,2,0,-4,65,,train_dim1_1,30,30,,,,2,0,2,0,,,,,,,,,0,0,0,0,0,29,29,29,1,0,1,0,,,,,,,,,,,,,,,,,,,,,,,,,,,,,,,,,,,,,,,,,,,,,,,,,,,,,,,,,,,,,,,,30,,,,,,,,388.7636779999593,388.7636779999593,388.7636779999593,388.7636779999593,388.7636779999593,,,,,down,0.2964003999950364,26,0,0,99,-0.16,-0.08,down,0.22311480005737394,,,,,,,,,,,,,,,,,,,,,,,,,,,,,,,,,,,,,,,,,,,,,,,,,,,,,,,,test,train_y,blue_star,top_left,2024-12-23_18h10.59.459,HideSeek_v1,2022.2.5,60.07322926460177,
,0,6,0,2,0,-4,65,,train_dim1_1,30,30,,,,2,0,2,0,,,,,,,,,0,0,0,0,0,29,29,29,2,0,2,0,,,,,,,,,,,,,,,,,,,,,,,,,,,,,,,,,,,,,,,,,,,,,,,,,,,,,,,,,,,,,,,,30,,,,,,,,389.07866100000683,389.07866100000683,389.07866100000683,389.07866100000683,389.07866100000683,,,,,down,0.27494529995601624,26,0,0,99,-0.16,-0.16,down,0.19724090001545846,,,,,,,,,,,,,,,,,,,,,,,,,,,,,,,,,,,,,,,,,,,,,,,,,,,,,,,,test,train_y,blue_star,top_left,2024-12-23_18h10.59.459,HideSeek_v1,2022.2.5,60.07322926460177,
,0,6,0,2,0,-4,65,,train_dim1_1,30,30,,,,2,0,2,0,,,,,,,,,0,0,0,0,0,29,29,29,3,0,3,0,,,,,,,,,,,,,,,,,,,,,,,,,,,,,,,,,,,,,,,,,,,,,,,,,,,,,,,,,,,,,,,,30,,,,,,,,389.34980359999463,389.34980359999463,389.34980359999463,389.34980359999463,389.34980359999463,,,,,down,0.26100870000664145,26,0,0,99,-0.16,-0.24,down,0.19295039994176477,,,,,,,,,,,,,,,,,,,,,,,,,,,,,,,,,,,,,,,,,,,,,,,,,,,,,,,,test,train_y,blue_star,top_left,2024-12-23_18h10.59.459,HideSeek_v1,2022.2.5,60.07322926460177,
,0,6,0,2,0,-4,65,,train_dim1_1,30,30,,,,2,0,2,0,,,,,,,,,0,0,0,0,0,29,29,29,4,0,4,0,,,,,,,,,,,,,,,,,,,,,,,,,,,,,,,,,,,,,,,,,,,,,,,,,,,,,,,,,,,,,,,,30,,,,,,,,389.628571499954,389.628571499954,389.628571499954,389.628571499954,389.628571499954,-72,0,-0.16,-0.24,return,0.39395479997619987,27,0,0,1,-0.16,-0.24,return,0.30285730003379285,,,,,,,,,,,,,,,,,,,,,,,,,,,,,,,,,,,,,,,,,,,,,,,,,,,,,,,,test,train_y,blue_star,top_left,2024-12-23_18h10.59.459,HideSeek_v1,2022.2.5,60.07322926460177,
,,,,,,,,,,,30,,,,2,0,2,0,,,,,,,,,,,,,,,,,,,,,,,,,,,,,,,,,,,,,,,,,,,,,,,,,,,,,,,,,,,,,,,,,,,,,,,,,,stimuli/alien_stimuli/65.png,65,0,32,21,0.7,1.125,1,1,1,30,0,conditions/schedules/train_y_first/blue_star_00/top_left/inputTrain_2.1.xlsx,99,1,2,1,0,,,,,,,,,,,,,,,1,,,,,392.57837330002803,394.1285064999247,-0.16,-0.24,0.32,0.0,-0.07999999999999999,-0.16,-0.16,-0.16,-0.24,391.561644100002,391.561644100002,391.561644100002,391.561644100002,391.561644100002,391.561644100002,391.561644100002,391.561644100002,391.545097550028,1.101835499983281,return,0.9952684000600129,0,0.9,0,1,27,,,,,,,,,,,,,,,,,,,,,,,,,,,,test,train_y,blue_star,top_left,2024-12-23_18h10.59.459,HideSeek_v1,2022.2.5,60.07322926460177,
,,,,,,,,,,,,,,,3,0,3,0,0,0,0,0,,,,,,,,,,,,,,,,,,,,,,,,,,,,,,,conditions/schedules/train_y_first/blue_star_00/top_left/instructions/Slide17.png,conditions/schedules/train_y_first/blue_star_00/top_left/instructions/Audio17.wav,394.1285064999247,394.1112316899467,17,"[2.826538600027561, 0.5289662999566644, 0.4522165000671521, 0.3646583999507129, 0.3890536999097094, 0.3781355998944491, 0.4049927999731153, 0.38804330001585186, 0.3220604000380263, 0.3164126999909058, 0.33610000007320195, 0.32308910007122904, 0.6087655000155792, 0.37020990008022636, 0.5086948000825942, 0.36958119994960725, 1.4863667000317946]","[0.04573979997076094, 0.06861750001553446, 0.08098929992411286, 0.08883409993723035, 0.061413299990817904, 0.00020999996922910213, 0.07102829997893423, 0.02200170001015067, 0.032557700062170625, 0.05210640002042055, 0.039848800050094724, 0.3230970000149682, 0.07005450001452118, 0.37021660001482815, 0.03595849999692291, 0.36958759999834, 1.486374199972488]",0,,,,,,,,,,,,,,,,,,,,,,,,,,,,,,,,,,,,,,,,,,,,,,,,,,,,,,,,,,,,,,,,,,,,,,,,,,,,,,,,,,,,,,,,,,,,,,,,,,,,,,,,,,,,,,,,,,,,,,,,,,,,test,train_y,blue_star,top_left,2024-12-23_18h10.59.459,HideSeek_v1,2022.2.5,60.07322926460177,
,,,,,,,,,,,,,,,3,0,3,0,1,0,1,0,,,,,,,,,,,,,,,,,,,,,,,,,,,,,,,conditions/schedules/train_y_first/blue_star_00/top_left/instructions/Slide18.png,conditions/schedules/train_y_first/blue_star_00/top_left/instructions/Audio18.wav,395.66287999995984,395.6616858199239,18,"[2.826538600027561, 0.5289662999566644, 0.4522165000671521, 0.3646583999507129, 0.3890536999097094, 0.3781355998944491, 0.4049927999731153, 0.38804330001585186, 0.3220604000380263, 0.3164126999909058, 0.33610000007320195, 0.32308910007122904, 0.6087655000155792, 0.37020990008022636, 0.5086948000825942, 0.36958119994960725, 1.4863667000317946, 0.5629025000380352]","[0.04573979997076094, 0.06861750001553446, 0.08098929992411286, 0.08883409993723035, 0.061413299990817904, 0.00020999996922910213, 0.07102829997893423, 0.02200170001015067, 0.032557700062170625, 0.05210640002042055, 0.039848800050094724, 0.3230970000149682, 0.07005450001452118, 0.37021660001482815, 0.03595849999692291, 0.36958759999834, 0.1465897000161931, 0.5629087999695912]",0,,,,,,,,,,,,,,,,,,,,,,,,,,,,,,,,,,,,,,,,,,,,,,,,,,,,,,,,,,,,,,,,,,,,,,,,,,,,,,,,,,,,,,,,,,,,,,,,,,,,,,,,,,,,,,,,,,,,,,,,,,,,test,train_y,blue_star,top_left,2024-12-23_18h10.59.459,HideSeek_v1,2022.2.5,60.07322926460177,
,,,,,,,,,,,,,,,3,0,3,0,2,0,2,0,,,,,,,,,,,,,,,,,,,,,,,,,,,,,,,conditions/schedules/train_y_first/blue_star_00/top_left/instructions/Slide19.png,conditions/schedules/train_y_first/blue_star_00/top_left/instructions/Audio19.wav,396.2953785000136,396.27806102002506,19,"[2.826538600027561, 0.5289662999566644, 0.4522165000671521, 0.3646583999507129, 0.3890536999097094, 0.3781355998944491, 0.4049927999731153, 0.38804330001585186, 0.3220604000380263, 0.3164126999909058, 0.33610000007320195, 0.32308910007122904, 0.6087655000155792, 0.37020990008022636, 0.5086948000825942, 0.36958119994960725, 1.4863667000317946, 0.5629025000380352, 0.6910157999955118]","[0.04573979997076094, 0.06861750001553446, 0.08098929992411286, 0.08883409993723035, 0.061413299990817904, 0.00020999996922910213, 0.07102829997893423, 0.02200170001015067, 0.032557700062170625, 0.05210640002042055, 0.039848800050094724, 0.3230970000149682, 0.07005450001452118, 0.37021660001482815, 0.03595849999692291, 0.36958759999834, 0.1465897000161931, 0.14072539994958788, 0.6910219999263063]",0,,,,,,,,,,,,,,,,,,,,,,,,,,,,,,,,,,,,,,,,,,,,,,,,,,,,,,,,,,,,,,,,,,,,,,,,,,,,,,,,,,,,,,,,,,,,,,,,,,,,,,,,,,,,,,,,,,,,,,,,,,,,test,train_y,blue_star,top_left,2024-12-23_18h10.59.459,HideSeek_v1,2022.2.5,60.07322926460177,
,,,,,,,,,,,,,,,3,0,3,0,3,0,3,0,,,,,,,,,,,,,,,,,,,,,,,,,,,,,,,conditions/schedules/train_y_first/blue_star_00/top_left/instructions/Slide20.png,conditions/schedules/train_y_first/blue_star_00/top_left/instructions/Audio20.wav,397.0451417999575,397.0284024199471,20,"[2.826538600027561, 0.5289662999566644, 0.4522165000671521, 0.3646583999507129, 0.3890536999097094, 0.3781355998944491, 0.4049927999731153, 0.38804330001585186, 0.3220604000380263, 0.3164126999909058, 0.33610000007320195, 0.32308910007122904, 0.6087655000155792, 0.37020990008022636, 0.5086948000825942, 0.36958119994960725, 1.4863667000317946, 0.5629025000380352, 0.6910157999955118, 5.327905399957672]","[0.04573979997076094, 0.06861750001553446, 0.08098929992411286, 0.08883409993723035, 0.061413299990817904, 0.00020999996922910213, 0.07102829997893423, 0.02200170001015067, 0.032557700062170625, 0.05210640002042055, 0.039848800050094724, 0.3230970000149682, 0.07005450001452118, 0.37021660001482815, 0.03595849999692291, 0.36958759999834, 0.1465897000161931, 0.14072539994958788, 0.14298879995476454, 5.327913400018588]",0,,,,,,,,,,,,,,,,,,,,,,,,,,,,,,,,,,,,,,,,,,,,,,,,,,,,,,,,,,,,,,,,,,,,,,,,,,,,,,,,,,,,,,,,,,,,,,,,,,,,,,,,,,,,,,,,,,,,,,,,,,,,test,train_y,blue_star,top_left,2024-12-23_18h10.59.459,HideSeek_v1,2022.2.5,60.07322926460177,
1,4,5,9,5,5,0,11,2,instr_dim1_2,,,,,,3,0,3,0,,,,,0,0,0,0,,,,,,,,,,,,,,,,,,,,,,,,,,,,,,,,,,,,,stimuli/alien_stimuli/11.png,conditions/schedules/train_y_first/blue_star_00/top_left/inputInstr_2.xlsx,stimuli/alien_stimuli/11.png,402.4618667999748,402.4618667999748,402.4618667999748,402.4618667999748,402.42823794996366,return,3.318740600021556,"[-0.16, -0.08, 0, 0.08, 0.16, 0.24, 0.32, 0.4, 0.48, 0.56]","[-0.4, -0.32, -0.24, -0.16, -0.08, 0, 0.08, 0.16, 0.24, 0.32]",5,5,9,4,0.0,0.4,405.9621034000302,405.9621034000302,405.9621034000302,405.9621034000302,405.9621034000302,405.9621034000302,405.9621034000302,405.87811594991945,0.5511195999570191,return,0.37973889999557287,stimuli/alien_stimuli/11.png,11,4,1,,,,,,,,,,,,,,,,,,,,,,,,,,,,,,,,,,,,,,,,,,,,,,,,,,,,,,,,,,,,,,,,,,,,,,,,,,,,,,,,,,,,,,,,,test,train_y,blue_star,top_left,2024-12-23_18h10.59.459,HideSeek_v1,2022.2.5,60.07322926460177,
,,,,,,,,,,,30,,,,3,0,3,0,,,,,,,,,,,,,,,,,,,,,,,,,,,,,,,,,,,,,,,,,,,,,,,,,,,,,,,,,,,,,,,,,,,,,,,,,,,,,,21,0.7,1.125,1,99,2,30,0,conditions/schedules/train_y_first/blue_star_00/top_left/inputTrain_2.1.xlsx,99,1,2,1,0,,,,,,,,,,,,,,,,,,,,,,,,,,,,,,,,,,,,,,,,,,,,,,,,,,,,,,,,,,,,,,,,,,,,,,,,,,,test,train_y,blue_star,top_left,2024-12-23_18h10.59.459,HideSeek_v1,2022.2.5,60.07322926460177,
,,,,,,,,,,,,,,,4,0,4,0,0,0,0,0,,,,,,,,,,,,,,,,,,,,,,,,,,,,,,,conditions/schedules/train_y_first/blue_star_00/top_left/instructions/Slide21.png,conditions/schedules/train_y_first/blue_star_00/top_left/instructions/Audio21.wav,406.4786395999836,406.4779389399569,21,"[2.826538600027561, 0.5289662999566644, 0.4522165000671521, 0.3646583999507129, 0.3890536999097094, 0.3781355998944491, 0.4049927999731153, 0.38804330001585186, 0.3220604000380263, 0.3164126999909058, 0.33610000007320195, 0.32308910007122904, 0.6087655000155792, 0.37020990008022636, 0.5086948000825942, 0.36958119994960725, 1.4863667000317946, 0.5629025000380352, 0.6910157999955118, 5.327905399957672, 4.915426400024444]","[0.04573979997076094, 0.06861750001553446, 0.08098929992411286, 0.08883409993723035, 0.061413299990817904, 0.00020999996922910213, 0.07102829997893423, 0.02200170001015067, 0.032557700062170625, 0.05210640002042055, 0.039848800050094724, 0.3230970000149682, 0.07005450001452118, 0.37021660001482815, 0.03595849999692291, 0.36958759999834, 0.1465897000161931, 0.14072539994958788, 0.14298879995476454, 5.327913400018588, 4.91543339996133]",0,,,,,,,,,,,,,,,,,,,,,,,,,,,,,,,,,,,,,,,,,,,,,,,,,,,,,,,,,,,,,,,,,,,,,,,,,,,,,,,,,,,,,,,,,,,,,,,,,,,,,,,,,,,,,,,,,,,,,,,,,,,,test,train_y,blue_star,top_left,2024-12-23_18h10.59.459,HideSeek_v1,2022.2.5,60.07322926460177,
2,3,7,3,7,0,0,61,2,instr_dim1_2,,,,,,4,0,4,0,,,,,0,0,0,0,,,,,,,,,,,,,,,,,,,,,,,,,,,,,,,,,,,,,stimuli/alien_stimuli/61.png,conditions/schedules/train_y_first/blue_star_00/top_left/inputInstr_2.xlsx,stimuli/alien_stimuli/61.png,411.47943089995533,411.47943089995533,411.47943089995533,411.47943089995533,411.4451660200255,return,1.0248126999940723,"[-0.16, -0.08, 0, 0.08, 0.16, 0.24, 0.32, 0.4, 0.48, 0.56]","[-0.4, -0.32, -0.24, -0.16, -0.08, 0, 0.08, 0.16, 0.24, 0.32]",7,7,3,3,0.0,0.0,412.66145519993734,412.66145519993734,412.66145519993734,412.66145519993734,412.66145519993734,412.66145519993734,412.66145519993734,412.5949890499469,0.4344384000869468,return,0.2779869999503717,stimuli/alien_stimuli/61.png,61,3,2,,,,,,,,,,,,,,,,,,,,,,,,,,,,,,,,,,,,,,,,,,,,,,,,,,,,,,,,,,,,,,,,,,,,,,,,,,,,,,,,,,,,,,,,,test,train_y,blue_star,top_left,2024-12-23_18h10.59.459,HideSeek_v1,2022.2.5,60.07322926460177,
,,,,,,,,,,,30,,,,4,0,4,0,,,,,,,,,,,,,,,,,,,,,,,,,,,,,,,,,,,,,,,,,,,,,,,,,,,,,,,,,,,,,,,,,,,,,,,,,,,,,,21,0.7,1.125,1,99,2,30,0,conditions/schedules/train_y_first/blue_star_00/top_left/inputTrain_2.1.xlsx,99,1,2,1,0,,,,,,,,,,,,,,,,,,,,,,,,,,,,,,,,,,,,,,,,,,,,,,,,,,,,,,,,,,,,,,,,,,,,,,,,,,,test,train_y,blue_star,top_left,2024-12-23_18h10.59.459,HideSeek_v1,2022.2.5,60.07322926460177,
,,,,,,,,,,,,,,,5,0,5,0,0,0,0,0,,,,,,,,,,,,,,,,,,,,,,,,,,,,,,,conditions/schedules/train_y_first/blue_star_00/top_left/instructions/Slide22.png,conditions/schedules/train_y_first/blue_star_00/top_left/instructions/Audio22.wav,413.0790237999754,413.0779181400081,22,"[2.826538600027561, 0.5289662999566644, 0.4522165000671521, 0.3646583999507129, 0.3890536999097094, 0.3781355998944491, 0.4049927999731153, 0.38804330001585186, 0.3220604000380263, 0.3164126999909058, 0.33610000007320195, 0.32308910007122904, 0.6087655000155792, 0.37020990008022636, 0.5086948000825942, 0.36958119994960725, 1.4863667000317946, 0.5629025000380352, 0.6910157999955118, 5.327905399957672, 4.915426400024444, 0.815128399990499]","[0.04573979997076094, 0.06861750001553446, 0.08098929992411286, 0.08883409993723035, 0.061413299990817904, 0.00020999996922910213, 0.07102829997893423, 0.02200170001015067, 0.032557700062170625, 0.05210640002042055, 0.039848800050094724, 0.3230970000149682, 0.07005450001452118, 0.37021660001482815, 0.03595849999692291, 0.36958759999834, 0.1465897000161931, 0.14072539994958788, 0.14298879995476454, 5.327913400018588, 4.91543339996133, 0.8151376999448985]",0,,,,,,,,,,,,,,,,,,,,,,,,,,,,,,,,,,,,,,,,,,,,,,,,,,,,,,,,,,,,,,,,,,,,,,,,,,,,,,,,,,,,,,,,,,,,,,,,,,,,,,,,,,,,,,,,,,,,,,,,,,,,test,train_y,blue_star,top_left,2024-12-23_18h10.59.459,HideSeek_v1,2022.2.5,60.07322926460177,
,2,6,5,6,3,0,31,,train_dim1_2,1,30,,,,5,0,5,0,,,,,,,,,0,0,0,0,0,0,0,0,0,0,0,0,,,,,,,,,,,,,,,,,,,,,,,,,stimuli/alien_stimuli/31.png,,,,,,,,,,,,,,,,,,,,,,,,,,,,,,,,,,,,,,,30,,,,,,,,413.9950253999559,413.9950253999559,413.9950253999559,413.9950253999559,413.9950253999559,,,,,right,1.3049067000392824,0,0,0,99,0.08,0.08,right,1.1947448999853805,,,,,,,,,,,,,,,,,,,,,,,,,,,,,,,,,,,,,,,,,,,,,,,,,,,,,,,,test,train_y,blue_star,top_left,2024-12-23_18h10.59.459,HideSeek_v1,2022.2.5,60.07322926460177,
,2,6,5,6,3,0,31,,train_dim1_2,1,30,,,,5,0,5,0,,,,,,,,,0,0,0,0,0,0,0,0,1,0,1,0,,,,,,,,,,,,,,,,,,,,,,,,,,,,,,,,,,,,,,,,,,,,,,,,,,,,,,,,,,,,,,,,30,,,,,,,,415.263785899966,415.263785899966,415.263785899966,415.263785899966,415.263785899966,,,,,right,0.26031639997381717,0,0,0,99,0.16,0.08,right,0.1898289000382647,,,,,,,,,,,,,,,,,,,,,,,,,,,,,,,,,,,,,,,,,,,,,,,,,,,,,,,,test,train_y,blue_star,top_left,2024-12-23_18h10.59.459,HideSeek_v1,2022.2.5,60.07322926460177,
,2,6,5,6,3,0,31,,train_dim1_2,1,30,,,,5,0,5,0,,,,,,,,,0,0,0,0,0,0,0,0,2,0,2,0,,,,,,,,,,,,,,,,,,,,,,,,,,,,,,,,,,,,,,,,,,,,,,,,,,,,,,,,,,,,,,,,30,,,,,,,,415.5288243999239,415.5288243999239,415.5288243999239,415.5288243999239,415.5288243999239,,,,,right,0.1946544999955222,0,0,0,99,0.24,0.08,right,0.12367310002446175,,,,,,,,,,,,,,,,,,,,,,,,,,,,,,,,,,,,,,,,,,,,,,,,,,,,,,,,test,train_y,blue_star,top_left,2024-12-23_18h10.59.459,HideSeek_v1,2022.2.5,60.07322926460177,
,2,6,5,6,3,0,31,,train_dim1_2,1,30,,,,5,0,5,0,,,,,,,,,0,0,0,0,0,0,0,0,3,0,3,0,,,,,,,,,,,,,,,,,,,,,,,,,,,,,,,,,,,,,,,,,,,,,,,,,,,,,,,,,,,,,,,,30,,,,,,,,415.7281834000023,415.7281834000023,415.7281834000023,415.7281834000023,415.7281834000023,-72,3,0.24,0.08,return,0.5108301999280229,1,0,0,1,0.24,0.08,return,0.4418815999524668,,,,,,,,,,,,,,,,,,,,,,,,,,,,,,,,,,,,,,,,,,,,,,,,,,,,,,,,test,train_y,blue_star,top_left,2024-12-23_18h10.59.459,HideSeek_v1,2022.2.5,60.07322926460177,
,2,9,7,9,5,0,11,,train_dim1_2,2,30,,,,5,0,5,0,,,,,,,,,0,0,0,0,0,1,1,1,0,0,0,0,,,,,,,,,,,,,,,,,,,,,,,,,stimuli/alien_stimuli/11.png,,,,,,,,,,,,,,,,,,,,,,,,,,,,,stimuli/alien_stimuli/31.png,31,2,3,,,,,,,30,,,,,,,,424.96159840002656,424.96159840002656,424.96159840002656,424.96159840002656,424.96159840002656,,,,,right,0.9420523999724537,1,0,0,99,0.08,0.32,right,0.8455284999217838,423.39516209997237,424.96159840002656,0.24,0.08,0.0,0.24,0.08,0.24,0.12,0.24,0.08,417.82848089991603,417.82848089991603,417.82848089991603,417.82848089991603,417.82848089991603,417.82848089991603,417.82848089991603,417.82848089991603,417.7780862499494,5.684989700093865,return,5.544117699959315,,,,,,,,,,,,,,,,,,,,,,,,,,,,,,,,,test,train_y,blue_star,top_left,2024-12-23_18h10.59.459,HideSeek_v1,2022.2.5,60.07322926460177,
,2,9,7,9,5,0,11,,train_dim1_2,2,30,,,,5,0,5,0,,,,,,,,,0,0,0,0,0,1,1,1,1,0,1,0,,,,,,,,,,,,,,,,,,,,,,,,,,,,,,,,,,,,,,,,,,,,,,,,,,,,,,,,,,,,,,,,30,,,,,,,,425.8825586999301,425.8825586999301,425.8825586999301,425.8825586999301,425.8825586999301,,,,,right,0.27624159993138164,1,0,0,99,0.16,0.32,right,0.21304639999289066,,,,,,,,,,,,,,,,,,,,,,,,,,,,,,,,,,,,,,,,,,,,,,,,,,,,,,,,test,train_y,blue_star,top_left,2024-12-23_18h10.59.459,HideSeek_v1,2022.2.5,60.07322926460177,
,2,9,7,9,5,0,11,,train_dim1_2,2,30,,,,5,0,5,0,,,,,,,,,0,0,0,0,0,1,1,1,2,0,2,0,,,,,,,,,,,,,,,,,,,,,,,,,,,,,,,,,,,,,,,,,,,,,,,,,,,,,,,,,,,,,,,,30,,,,,,,,426.1628792999545,426.1628792999545,426.1628792999545,426.1628792999545,426.1628792999545,,,,,right,0.29414389992598444,1,0,0,99,0.24,0.32,right,0.2219203000422567,,,,,,,,,,,,,,,,,,,,,,,,,,,,,,,,,,,,,,,,,,,,,,,,,,,,,,,,test,train_y,blue_star,top_left,2024-12-23_18h10.59.459,HideSeek_v1,2022.2.5,60.07322926460177,
,2,9,7,9,5,0,11,,train_dim1_2,2,30,,,,5,0,5,0,,,,,,,,,0,0,0,0,0,1,1,1,3,0,3,0,,,,,,,,,,,,,,,,,,,,,,,,,,,,,,,,,,,,,,,,,,,,,,,,,,,,,,,,,,,,,,,,30,,,,,,,,426.4646068000002,426.4646068000002,426.4646068000002,426.4646068000002,426.4646068000002,,,,,right,0.2607354000210762,1,0,0,99,0.32,0.32,right,0.18975140003021806,,,,,,,,,,,,,,,,,,,,,,,,,,,,,,,,,,,,,,,,,,,,,,,,,,,,,,,,test,train_y,blue_star,top_left,2024-12-23_18h10.59.459,HideSeek_v1,2022.2.5,60.07322926460177,
,2,9,7,9,5,0,11,,train_dim1_2,2,30,,,,5,0,5,0,,,,,,,,,0,0,0,0,0,1,1,1,4,0,4,0,,,,,,,,,,,,,,,,,,,,,,,,,,,,,,,,,,,,,,,,,,,,,,,,,,,,,,,,,,,,,,,,30,,,,,,,,426.73193399992306,426.73193399992306,426.73193399992306,426.73193399992306,426.73193399992306,,,,,right,0.2777780001051724,1,0,0,99,0.4,0.32,right,0.19949709996581078,,,,,,,,,,,,,,,,,,,,,,,,,,,,,,,,,,,,,,,,,,,,,,,,,,,,,,,,test,train_y,blue_star,top_left,2024-12-23_18h10.59.459,HideSeek_v1,2022.2.5,60.07322926460177,
,2,9,7,9,5,0,11,,train_dim1_2,2,30,,,,5,0,5,0,,,,,,,,,0,0,0,0,0,1,1,1,5,0,5,0,,,,,,,,,,,,,,,,,,,,,,,,,,,,,,,,,,,,,,,,,,,,,,,,,,,,,,,,,,,,,,,,30,,,,,,,,427.0153062000172,427.0153062000172,427.0153062000172,427.0153062000172,427.0153062000172,-72,8,0.4,0.32,return,0.9442037000553682,2,0,0,1,0.4,0.32,return,0.8674383999314159,,,,,,,,,,,,,,,,,,,,,,,,,,,,,,,,,,,,,,,,,,,,,,,,,,,,,,,,test,train_y,blue_star,top_left,2024-12-23_18h10.59.459,HideSeek_v1,2022.2.5,60.07322926460177,
,4,9,8,9,4,0,21,,train_dim1_2,3,30,,,,5,0,5,0,,,,,,,,,0,0,0,0,0,2,2,2,0,0,0,0,,,,,,,,,,,,,,,,,,,,,,,,,stimuli/alien_stimuli/21.png,,,,,,,,,,,,,,,,,,,,,,,,,,,,,stimuli/alien_stimuli/11.png,11,2,4,,,,,,,30,,,,,,,,432.47793930000626,432.47793930000626,432.47793930000626,432.47793930000626,432.47793930000626,,,,,right,0.8080777999712154,2,0,0,99,0.24,0.32,right,0.6943504000082612,430.89479729998857,432.47793930000626,0.4,0.32,0.0,0.4,0.32,0.4,0.2,0.4,0.32,429.5449839999201,429.5449839999201,429.5449839999201,429.5449839999201,429.5449839999201,429.5449839999201,429.5449839999201,429.5449839999201,429.4948278500233,1.4687804999994114,return,1.3271484000142664,,,,,,,,,,,,,,,,,,,,,,,,,,,,,,,,,test,train_y,blue_star,top_left,2024-12-23_18h10.59.459,HideSeek_v1,2022.2.5,60.07322926460177,
,4,9,8,9,4,0,21,,train_dim1_2,3,30,,,,5,0,5,0,,,,,,,,,0,0,0,0,0,2,2,2,1,0,1,0,,,,,,,,,,,,,,,,,,,,,,,,,,,,,,,,,,,,,,,,,,,,,,,,,,,,,,,,,,,,,,,,30,,,,,,,,433.26182030001655,433.26182030001655,433.26182030001655,433.26182030001655,433.26182030001655,,,,,right,0.35982499993406236,2,0,0,99,0.32,0.32,right,0.2807544000679627,,,,,,,,,,,,,,,,,,,,,,,,,,,,,,,,,,,,,,,,,,,,,,,,,,,,,,,,test,train_y,blue_star,top_left,2024-12-23_18h10.59.459,HideSeek_v1,2022.2.5,60.07322926460177,
,4,9,8,9,4,0,21,,train_dim1_2,3,30,,,,5,0,5,0,,,,,,,,,0,0,0,0,0,2,2,2,2,0,2,0,,,,,,,,,,,,,,,,,,,,,,,,,,,,,,,,,,,,,,,,,,,,,,,,,,,,,,,,,,,,,,,,30,,,,,,,,433.62810039997566,433.62810039997566,433.62810039997566,433.62810039997566,433.62810039997566,,,,,right,0.32683330005966127,2,0,0,99,0.4,0.32,right,0.24668759992346168,,,,,,,,,,,,,,,,,,,,,,,,,,,,,,,,,,,,,,,,,,,,,,,,,,,,,,,,test,train_y,blue_star,top_left,2024-12-23_18h10.59.459,HideSeek_v1,2022.2.5,60.07322926460177,
,4,9,8,9,4,0,21,,train_dim1_2,3,30,,,,5,0,5,0,,,,,,,,,0,0,0,0,0,2,2,2,3,0,3,0,,,,,,,,,,,,,,,,,,,,,,,,,,,,,,,,,,,,,,,,,,,,,,,,,,,,,,,,,,,,,,,,30,,,,,,,,433.9619881999679,433.9619881999679,433.9619881999679,433.9619881999679,433.9619881999679,,,,,right,0.2942206000443548,2,0,0,99,0.48000000000000004,0.32,right,0.2159576000412926,,,,,,,,,,,,,,,,,,,,,,,,,,,,,,,,,,,,,,,,,,,,,,,,,,,,,,,,test,train_y,blue_star,top_left,2024-12-23_18h10.59.459,HideSeek_v1,2022.2.5,60.07322926460177,
,4,9,8,9,4,0,21,,train_dim1_2,3,30,,,,5,0,5,0,,,,,,,,,0,0,0,0,0,2,2,2,4,0,4,0,,,,,,,,,,,,,,,,,,,,,,,,,,,,,,,,,,,,,,,,,,,,,,,,,,,,,,,,,,,,,,,,30,,,,,,,,434.2499865000136,434.2499865000136,434.2499865000136,434.2499865000136,434.2499865000136,-72,12,0.48000000000000004,0.32,return,0.37712840002495795,3,0,0,1,0.48000000000000004,0.32,return,0.29954469995573163,,,,,,,,,,,,,,,,,,,,,,,,,,,,,,,,,,,,,,,,,,,,,,,,,,,,,,,,test,train_y,blue_star,top_left,2024-12-23_18h10.59.459,HideSeek_v1,2022.2.5,60.07322926460177,
,2,8,3,8,1,0,51,,train_dim1_2,4,30,,,,5,0,5,0,,,,,,,,,0,0,0,0,0,3,3,3,0,0,0,0,,,,,,,,,,,,,,,,,,,,,,,,,stimuli/alien_stimuli/51.png,,,,,,,,,,,,,,,,,,,,,,,,,,,,,stimuli/alien_stimuli/21.png,21,4,5,,,,,,,30,,,,,,,,439.0788495999295,439.0788495999295,439.0788495999295,439.0788495999295,439.0788495999295,,,,,right,1.8751094000181183,3,0,0,99,0.08,0.24,right,1.7507235000375658,437.49473629996646,439.0788495999295,0.48,0.32,0.0,0.32,0.32,0.48,0.32,0.48,0.32,436.2293893999886,436.2293893999886,436.2293893999886,436.2293893999886,436.2293893999886,436.2293893999886,436.2293893999886,436.2293893999886,436.16096564999316,1.40227620000951,return,1.247336499975063,,,,,,,,,,,,,,,,,,,,,,,,,,,,,,,,,test,train_y,blue_star,top_left,2024-12-23_18h10.59.459,HideSeek_v1,2022.2.5,60.07322926460177,
,2,8,3,8,1,0,51,,train_dim1_2,4,30,,,,5,0,5,0,,,,,,,,,0,0,0,0,0,3,3,3,1,0,1,0,,,,,,,,,,,,,,,,,,,,,,,,,,,,,,,,,,,,,,,,,,,,,,,,,,,,,,,,,,,,,,,,30,,,,,,,,440.9168614000082,440.9168614000082,440.9168614000082,440.9168614000082,440.9168614000082,-72,13,0.08,0.24,return,0.3273759000003338,4,0,0,1,0.08,0.24,return,0.259337899973616,,,,,,,,,,,,,,,,,,,,,,,,,,,,,,,,,,,,,,,,,,,,,,,,,,,,,,,,test,train_y,blue_star,top_left,2024-12-23_18h10.59.459,HideSeek_v1,2022.2.5,60.07322926460177,
,0,7,0,7,0,0,61,,train_dim1_2,5,30,,,,5,0,5,0,,,,,,,,,0,0,0,0,0,4,4,4,0,0,0,0,,,,,,,,,,,,,,,,,,,,,,,,,stimuli/alien_stimuli/61.png,,,,,,,,,,,,,,,,,,,,,,,,,,,,,stimuli/alien_stimuli/51.png,51,2,6,,,,,,,30,,,,,,,,447.1446955000283,447.1446955000283,447.1446955000283,447.1446955000283,447.1446955000283,-72,13,-0.16,0.16,return,4.541984100011177,5,0,0,1,-0.16,0.16,return,4.447568700066768,445.57832560001407,447.1446955000283,0.08,0.24,0.0,0.08,0.24,0.08,0.04,0.08,0.24,442.84485230001155,442.84485230001155,442.84485230001155,442.84485230001155,442.84485230001155,442.84485230001155,442.84485230001155,442.84485230001155,442.77781704999506,2.8682027000468224,return,2.705751799978316,,,,,,,,,,,,,,,,,,,,,,,,,,,,,,,,,test,train_y,blue_star,top_left,2024-12-23_18h10.59.459,HideSeek_v1,2022.2.5,60.07322926460177,
