trialTrain,x_fixStart,y_fixStart,x_corrSteps,y_corrSteps,x_nrSteps,y_nrSteps,alienID,testlen,version,trial_label,break_on_off,beforeExpLoop.thisRepN,beforeExpLoop.thisTrialN,beforeExpLoop.thisN,beforeExpLoop.thisIndex,mini_instr_trials.thisRepN,mini_instr_trials.thisTrialN,mini_instr_trials.thisN,mini_instr_trials.thisIndex,instrLoop.thisRepN,instrLoop.thisTrialN,instrLoop.thisN,instrLoop.thisIndex,repeat_prac.thisRepN,repeat_prac.thisTrialN,repeat_prac.thisN,repeat_prac.thisIndex,trainLoop.thisRepN,trainLoop.thisTrialN,trainLoop.thisN,trainLoop.thisIndex,experiment.thisRepN,experiment.thisTrialN,experiment.thisN,experiment.thisIndex,moveLoop_test.thisRepN,moveLoop_test.thisTrialN,moveLoop_test.thisN,moveLoop_test.thisIndex,breaks.thisRepN,breaks.thisTrialN,breaks.thisN,breaks.thisIndex,start_all_time,url,slideStim,audioStim,slides.started,sounds.started,nextButton.numClicks,nextButton.timesOn,nextButton.timesOff,prev_but.numClicks,prev_but.timesOn,prev_but.timesOff,perfthres,percthres,earlierperf,earlystop,nextPrac,fileidx,praclen,saveACC_train,pracFile,nextPrac_train,addNrep,fileidx_endr,repExp,showearly,alienStim,gridImage_3.started,alienImage_test.started,startPos_test.started,movePos_test.started,key_resp_test.started,wLy_dir_test,wLx_dir_test,buttonPress_test,RTchoice_test,cumAcctest,saveACC_choice,corrAns_test,x_movePos_end,y_movePos_end,key_resp_test.keys,key_resp_test.rt,fixation_text.started,fixation_text.stopped,draw_alienStim,draw_alienID,test_x,nrepcount,image_break_3.started,key_resp_7.keys,key_resp_7.rt,participant,train_first,00_coordinate,starting corner,date,expName,psychopyVersion,frameRate,
,,,,,,,,,,,,0,0,0,0,0,0,0,0,,,,,,,,,,,,,,,,,,,,,,,,,start_all_time,testround,conditions/schedules/train_y_first/red_square_00/top_left/instructions/Slide1.png,conditions/schedules/train_y_first/red_square_00/top_left/instructions/Audio1.wav,37.08028520003427,37.065272200037725,1,[2.247728699934669],[2.247736299992539],0,,,,,,,,,,,,,,,,,,,,,,,,,,,,,,,,,,,,,,,,,,,test,train_y,red_square,top_left,2024-11-06_15h51.56.204,HideSeek_v1,2022.2.5,60.088317796462924,
,,,,,,,,,,,,0,0,0,0,1,0,1,0,,,,,,,,,,,,,,,,,,,,,,,,,,,conditions/schedules/train_y_first/red_square_00/top_left/instructions/Slide2.png,conditions/schedules/train_y_first/red_square_00/top_left/instructions/Audio2.wav,39.381457500043325,39.364876800077035,2,"[2.247728699934669, 0.12162820005323738]","[2.247736299992539, 0.12163479998707771]",0,,,,,,,,,,,,,,,,,,,,,,,,,,,,,,,,,,,,,,,,,,,test,train_y,red_square,top_left,2024-11-06_15h51.56.204,HideSeek_v1,2022.2.5,60.088317796462924,
,,,,,,,,,,,,0,0,0,0,2,0,2,0,,,,,,,,,,,,,,,,,,,,,,,,,,,conditions/schedules/train_y_first/red_square_00/top_left/instructions/Slide3.png,conditions/schedules/train_y_first/red_square_00/top_left/instructions/Audio3.wav,39.565740000107326,39.56490570009919,3,"[2.247728699934669, 0.12162820005323738, 0.11406239995267242]","[2.247736299992539, 0.12163479998707771, 0.11406980000901967]",0,,,,,,,,,,,,,,,,,,,,,,,,,,,,,,,,,,,,,,,,,,,test,train_y,red_square,top_left,2024-11-06_15h51.56.204,HideSeek_v1,2022.2.5,60.088317796462924,
,,,,,,,,,,,,0,0,0,0,3,0,3,0,,,,,,,,,,,,,,,,,,,,,,,,,,,conditions/schedules/train_y_first/red_square_00/top_left/instructions/Slide4.png,conditions/schedules/train_y_first/red_square_00/top_left/instructions/Audio4.wav,39.732993800076656,39.73164760004729,4,"[2.247728699934669, 0.12162820005323738, 0.11406239995267242, 0.16672390000894666]","[2.247736299992539, 0.12163479998707771, 0.0325967000098899, 0.16673329996410757]",0,,,,,,,,,,,,,,,,,,,,,,,,,,,,,,,,,,,,,,,,,,,test,train_y,red_square,top_left,2024-11-06_15h51.56.204,HideSeek_v1,2022.2.5,60.088317796462924,
,,,,,,,,,,,,0,0,0,0,4,0,4,0,,,,,,,,,,,,,,,,,,,,,,,,,,,conditions/schedules/train_y_first/red_square_00/top_left/instructions/Slide5.png,conditions/schedules/train_y_first/red_square_00/top_left/instructions/Audio5.wav,39.94707150000613,39.94875120008364,5,"[2.247728699934669, 0.12162820005323738, 0.11406239995267242, 0.16672390000894666, 0.13246539991814643]","[2.247736299992539, 0.12163479998707771, 0.0325967000098899, 0.16673329996410757, 0.13247309997677803]",0,,,,,,,,,,,,,,,,,,,,,,,,,,,,,,,,,,,,,,,,,,,test,train_y,red_square,top_left,2024-11-06_15h51.56.204,HideSeek_v1,2022.2.5,60.088317796462924,
,,,,,,,,,,,,0,0,0,0,5,0,5,0,,,,,,,,,,,,,,,,,,,,,,,,,,,conditions/schedules/train_y_first/red_square_00/top_left/instructions/Slide6.png,conditions/schedules/train_y_first/red_square_00/top_left/instructions/Audio6.wav,40.132254800060764,40.11550090009114,6,"[2.247728699934669, 0.12162820005323738, 0.11406239995267242, 0.16672390000894666, 0.13246539991814643, 0.14331380010116845]","[2.247736299992539, 0.12163479998707771, 0.0325967000098899, 0.16673329996410757, 0.00020400003995746374, 0.14332320005632937]",0,,,,,,,,,,,,,,,,,,,,,,,,,,,,,,,,,,,,,,,,,,,test,train_y,red_square,top_left,2024-11-06_15h51.56.204,HideSeek_v1,2022.2.5,60.088317796462924,
,,,,,,,,,,,,0,0,0,0,6,0,6,0,,,,,,,,,,,,,,,,,,,,,,,,,,,conditions/schedules/train_y_first/red_square_00/top_left/instructions/Slide7.png,conditions/schedules/train_y_first/red_square_00/top_left/instructions/Audio7.wav,40.315675100078806,40.298094200098426,7,"[2.247728699934669, 0.12162820005323738, 0.11406239995267242, 0.16672390000894666, 0.13246539991814643, 0.14331380010116845, 0.14285180007573217]","[2.247736299992539, 0.12163479998707771, 0.0325967000098899, 0.16673329996410757, 0.00020400003995746374, 0.0001938000787049532, 0.14286190003622323]",0,,,,,,,,,,,,,,,,,,,,,,,,,,,,,,,,,,,,,,,,,,,test,train_y,red_square,top_left,2024-11-06_15h51.56.204,HideSeek_v1,2022.2.5,60.088317796462924,
,,,,,,,,,,,,0,0,0,0,7,0,7,0,,,,,,,,,,,,,,,,,,,,,,,,,,,conditions/schedules/train_y_first/red_square_00/top_left/instructions/Slide8.png,conditions/schedules/train_y_first/red_square_00/top_left/instructions/Audio8.wav,40.49897310009692,40.48152969999938,8,"[2.247728699934669, 0.12162820005323738, 0.11406239995267242, 0.16672390000894666, 0.13246539991814643, 0.14331380010116845, 0.14285180007573217, 0.1419400000013411]","[2.247736299992539, 0.12163479998707771, 0.0325967000098899, 0.16673329996410757, 0.00020400003995746374, 0.0001938000787049532, 0.00019419996533542871, 0.14194620004855096]",0,,,,,,,,,,,,,,,,,,,,,,,,,,,,,,,,,,,,,,,,,,,test,train_y,red_square,top_left,2024-11-06_15h51.56.204,HideSeek_v1,2022.2.5,60.088317796462924,
,,,,,,,,,,,,0,0,0,0,8,0,8,0,,,,,,,,,,,,,,,,,,,,,,,,,,,conditions/schedules/train_y_first/red_square_00/top_left/instructions/Slide9.png,conditions/schedules/train_y_first/red_square_00/top_left/instructions/Audio9.wav,40.6820823000744,40.66488060007105,9,"[2.247728699934669, 0.12162820005323738, 0.11406239995267242, 0.16672390000894666, 0.13246539991814643, 0.14331380010116845, 0.14285180007573217, 0.1419400000013411, 0.14252210000995547]","[2.247736299992539, 0.12163479998707771, 0.0325967000098899, 0.16673329996410757, 0.00020400003995746374, 0.0001938000787049532, 0.00019419996533542871, 0.00019080005586147308, 0.14253040007315576]",0,,,,,,,,,,,,,,,,,,,,,,,,,,,,,,,,,,,,,,,,,,,test,train_y,red_square,top_left,2024-11-06_15h51.56.204,HideSeek_v1,2022.2.5,60.088317796462924,
,,,,,,,,,,,,0,0,0,0,9,0,9,0,,,,,,,,,,,,,,,,,,,,,,,,,,,conditions/schedules/train_y_first/red_square_00/top_left/instructions/Slide10.png,conditions/schedules/train_y_first/red_square_00/top_left/instructions/Audio10.wav,40.84902940003667,40.83216989999637,10,"[2.247728699934669, 0.12162820005323738, 0.11406239995267242, 0.16672390000894666, 0.13246539991814643, 0.14331380010116845, 0.14285180007573217, 0.1419400000013411, 0.14252210000995547, 0.11927939997985959]","[2.247736299992539, 0.12163479998707771, 0.0325967000098899, 0.16673329996410757, 0.00020400003995746374, 0.0001938000787049532, 0.00019419996533542871, 0.00019080005586147308, 0.00020519993267953396, 0.11928769992664456]",0,,,,,,,,,,,,,,,,,,,,,,,,,,,,,,,,,,,,,,,,,,,test,train_y,red_square,top_left,2024-11-06_15h51.56.204,HideSeek_v1,2022.2.5,60.088317796462924,
,,,,,,,,,,,,0,0,0,0,10,0,10,0,,,,,,,,,,,,,,,,,,,,,,,,,,,conditions/schedules/train_y_first/red_square_00/top_left/instructions/Slide11.png,conditions/schedules/train_y_first/red_square_00/top_left/instructions/Audio11.wav,40.99840070004575,40.982655300106856,11,"[2.247728699934669, 0.12162820005323738, 0.11406239995267242, 0.16672390000894666, 0.13246539991814643, 0.14331380010116845, 0.14285180007573217, 0.1419400000013411, 0.14252210000995547, 0.11927939997985959, 0.35306800005491823]","[2.247736299992539, 0.12163479998707771, 0.0325967000098899, 0.16673329996410757, 0.00020400003995746374, 0.0001938000787049532, 0.00019419996533542871, 0.00019080005586147308, 0.00020519993267953396, 0.202078300062567, 0.35307780001312494]",0,,,,,,,,,,,,,,,,,,,,,,,,,,,,,,,,,,,,,,,,,,,test,train_y,red_square,top_left,2024-11-06_15h51.56.204,HideSeek_v1,2022.2.5,60.088317796462924,
,,,,,,,,,,,,0,0,0,0,11,0,11,0,,,,,,,,,,,,,,,,,,,,,,,,,,,conditions/schedules/train_y_first/red_square_00/top_left/instructions/Slide12.png,conditions/schedules/train_y_first/red_square_00/top_left/instructions/Audio12.wav,41.398319000029005,41.38186610002304,12,"[2.247728699934669, 0.12162820005323738, 0.11406239995267242, 0.16672390000894666, 0.13246539991814643, 0.14331380010116845, 0.14285180007573217, 0.1419400000013411, 0.14252210000995547, 0.11927939997985959, 0.35306800005491823, 0.2908853000262752]","[2.247736299992539, 0.12163479998707771, 0.0325967000098899, 0.16673329996410757, 0.00020400003995746374, 0.0001938000787049532, 0.00019419996533542871, 0.00019080005586147308, 0.00020519993267953396, 0.202078300062567, 0.00019500008784234524, 0.29089390009175986]",0,,,,,,,,,,,,,,,,,,,,,,,,,,,,,,,,,,,,,,,,,,,test,train_y,red_square,top_left,2024-11-06_15h51.56.204,HideSeek_v1,2022.2.5,60.088317796462924,
,,,,,,,,,,,,0,0,0,0,,,,,,,,,,,,,,,,,,,,,,,,,,,,,,,,,,,,,,,,,17,0.7,0,0,99,1,30,0,conditions/schedules/train_y_first/red_square_00/top_left/inputTrain_1.1.xlsx,99,1,1,1,0,,,,,,,,,,,,,,,,,,,,,,,,,,,test,train_y,red_square,top_left,2024-11-06_15h51.56.204,HideSeek_v1,2022.2.5,60.088317796462924,
,,,,,,,,,,,,1,0,1,0,0,0,0,0,,,,,,,,,,,,,,,,,,,,,,,,,,,conditions/schedules/train_y_first/red_square_00/top_left/instructions/Slide13.png,conditions/schedules/train_y_first/red_square_00/top_left/instructions/Audio13.wav,41.86519320006482,41.84888840009226,13,"[2.247728699934669, 0.12162820005323738, 0.11406239995267242, 0.16672390000894666, 0.13246539991814643, 0.14331380010116845, 0.14285180007573217, 0.1419400000013411, 0.14252210000995547, 0.11927939997985959, 0.35306800005491823, 0.2908853000262752, 0.20620699995197356]","[2.247736299992539, 0.12163479998707771, 0.0325967000098899, 0.16673329996410757, 0.00020400003995746374, 0.0001938000787049532, 0.00019419996533542871, 0.00019080005586147308, 0.00020519993267953396, 0.202078300062567, 0.00019500008784234524, 0.29089390009175986, 0.20621510001365095]",0,,,,,,,,,,,,,,,,,,,,,,,,,,,,,,,,,,,,,,,,,,,test,train_y,red_square,top_left,2024-11-06_15h51.56.204,HideSeek_v1,2022.2.5,60.088317796462924,
,,,,,,,,,,,,1,0,1,0,1,0,1,0,,,,,,,,,,,,,,,,,,,,,,,,,,,conditions/schedules/train_y_first/red_square_00/top_left/instructions/Slide14.png,conditions/schedules/train_y_first/red_square_00/top_left/instructions/Audio14.wav,42.114648599992506,42.09842150007608,14,"[2.247728699934669, 0.12162820005323738, 0.11406239995267242, 0.16672390000894666, 0.13246539991814643, 0.14331380010116845, 0.14285180007573217, 0.1419400000013411, 0.14252210000995547, 0.11927939997985959, 0.35306800005491823, 0.2908853000262752, 0.20620699995197356, 0.13656229991465807]","[2.247736299992539, 0.12163479998707771, 0.0325967000098899, 0.16673329996410757, 0.00020400003995746374, 0.0001938000787049532, 0.00019419996533542871, 0.00019080005586147308, 0.00020519993267953396, 0.202078300062567, 0.00019500008784234524, 0.29089390009175986, 0.0001962999813258648, 0.13656919996719807]",0,,,,,,,,,,,,,,,,,,,,,,,,,,,,,,,,,,,,,,,,,,,test,train_y,red_square,top_left,2024-11-06_15h51.56.204,HideSeek_v1,2022.2.5,60.088317796462924,
,,,,,,,,,,,,1,0,1,0,,,,,,,,,,,,,,,,,,,,,,,,,,,,,,,,,,,,,,,,,17,0.7,0,0,99,1,30,0,conditions/schedules/train_y_first/red_square_00/top_left/inputTrain_1.1.xlsx,99,1,1,1,0,,,,,,,,,,,,,,,,,,,,,,,,,,,test,train_y,red_square,top_left,2024-11-06_15h51.56.204,HideSeek_v1,2022.2.5,60.088317796462924,
,,,,,,,,,,,,2,0,2,0,0,0,0,0,,,,,,,,,,,,,,,,,,,,,,,,,,,conditions/schedules/train_y_first/red_square_00/top_left/instructions/Slide15.png,conditions/schedules/train_y_first/red_square_00/top_left/instructions/Audio15.wav,42.36507930001244,42.3485052999924,15,"[2.247728699934669, 0.12162820005323738, 0.11406239995267242, 0.16672390000894666, 0.13246539991814643, 0.14331380010116845, 0.14285180007573217, 0.1419400000013411, 0.14252210000995547, 0.11927939997985959, 0.35306800005491823, 0.2908853000262752, 0.20620699995197356, 0.13656229991465807, 0.10486209997907281]","[2.247736299992539, 0.12163479998707771, 0.0325967000098899, 0.16673329996410757, 0.00020400003995746374, 0.0001938000787049532, 0.00019419996533542871, 0.00019080005586147308, 0.00020519993267953396, 0.202078300062567, 0.00019500008784234524, 0.29089390009175986, 0.0001962999813258648, 0.13656919996719807, 0.10486930003389716]",0,,,,,,,,,,,,,,,,,,,,,,,,,,,,,,,,,,,,,,,,,,,test,train_y,red_square,top_left,2024-11-06_15h51.56.204,HideSeek_v1,2022.2.5,60.088317796462924,
,,,,,,,,,,,,2,0,2,0,1,0,1,0,,,,,,,,,,,,,,,,,,,,,,,,,,,conditions/schedules/train_y_first/red_square_00/top_left/instructions/Slide16.png,conditions/schedules/train_y_first/red_square_00/top_left/instructions/Audio16.wav,42.532408800092526,42.51506960005499,16,"[2.247728699934669, 0.12162820005323738, 0.11406239995267242, 0.16672390000894666, 0.13246539991814643, 0.14331380010116845, 0.14285180007573217, 0.1419400000013411, 0.14252210000995547, 0.11927939997985959, 0.35306800005491823, 0.2908853000262752, 0.20620699995197356, 0.13656229991465807, 0.10486209997907281, 1.1017441999865696]","[2.247736299992539, 0.12163479998707771, 0.0325967000098899, 0.16673329996410757, 0.00020400003995746374, 0.0001938000787049532, 0.00019419996533542871, 0.00019080005586147308, 0.00020519993267953396, 0.202078300062567, 0.00019500008784234524, 0.29089390009175986, 0.0001962999813258648, 0.13656919996719807, 0.43449200002942234, 1.1017546000657603]",0,,,,,,,,,,,,,,,,,,,,,,,,,,,,,,,,,,,,,,,,,,,test,train_y,red_square,top_left,2024-11-06_15h51.56.204,HideSeek_v1,2022.2.5,60.088317796462924,
,,,,,,,,,,,,2,0,2,0,,,,,,,,,,,,,,,,,,,,,,,,,,,,,,,,,,,,,,,,,17,0.7,0,0,99,1,30,0,conditions/schedules/train_y_first/red_square_00/top_left/inputTrain_1.1.xlsx,99,1,1,1,0,,,,,,,,,,,,,,,,,,,,,,,,,,,test,train_y,red_square,top_left,2024-11-06_15h51.56.204,HideSeek_v1,2022.2.5,60.088317796462924,
,,,,,,,,,,,,3,0,3,0,0,0,0,0,,,,,,,,,,,,,,,,,,,,,,,,,,,conditions/schedules/train_y_first/red_square_00/top_left/instructions/Slide17.png,conditions/schedules/train_y_first/red_square_00/top_left/instructions/Audio17.wav,43.73258800001349,43.73204470005585,17,"[2.247728699934669, 0.12162820005323738, 0.11406239995267242, 0.16672390000894666, 0.13246539991814643, 0.14331380010116845, 0.14285180007573217, 0.1419400000013411, 0.14252210000995547, 0.11927939997985959, 0.35306800005491823, 0.2908853000262752, 0.20620699995197356, 0.13656229991465807, 0.10486209997907281, 1.1017441999865696, 1.8159877000143752]","[2.247736299992539, 0.12163479998707771, 0.0325967000098899, 0.16673329996410757, 0.00020400003995746374, 0.0001938000787049532, 0.00019419996533542871, 0.00019080005586147308, 0.00020519993267953396, 0.202078300062567, 0.00019500008784234524, 0.29089390009175986, 0.0001962999813258648, 0.13656919996719807, 0.43449200002942234, 0.7665517000714317, 1.815993900061585]",0,,,,,,,,,,,,,,,,,,,,,,,,,,,,,,,,,,,,,,,,,,,test,train_y,red_square,top_left,2024-11-06_15h51.56.204,HideSeek_v1,2022.2.5,60.088317796462924,
,,,,,,,,,,,,3,0,3,0,1,0,1,0,,,,,,,,,,,,,,,,,,,,,,,,,,,conditions/schedules/train_y_first/red_square_00/top_left/instructions/Slide18.png,conditions/schedules/train_y_first/red_square_00/top_left/instructions/Audio18.wav,45.59827449999284,45.581343500071675,18,"[2.247728699934669, 0.12162820005323738, 0.11406239995267242, 0.16672390000894666, 0.13246539991814643, 0.14331380010116845, 0.14285180007573217, 0.1419400000013411, 0.14252210000995547, 0.11927939997985959, 0.35306800005491823, 0.2908853000262752, 0.20620699995197356, 0.13656229991465807, 0.10486209997907281, 1.1017441999865696, 1.8159877000143752, 0.4704998000524938]","[2.247736299992539, 0.12163479998707771, 0.0325967000098899, 0.16673329996410757, 0.00020400003995746374, 0.0001938000787049532, 0.00019419996533542871, 0.00019080005586147308, 0.00020519993267953396, 0.202078300062567, 0.00019500008784234524, 0.29089390009175986, 0.0001962999813258648, 0.13656919996719807, 0.43449200002942234, 0.7665517000714317, 0.10197349998634309, 0.47050659998785704]",0,,,,,,,,,,,,,,,,,,,,,,,,,,,,,,,,,,,,,,,,,,,test,train_y,red_square,top_left,2024-11-06_15h51.56.204,HideSeek_v1,2022.2.5,60.088317796462924,
,,,,,,,,,,,,3,0,3,0,2,0,2,0,,,,,,,,,,,,,,,,,,,,,,,,,,,conditions/schedules/train_y_first/red_square_00/top_left/instructions/Slide19.png,conditions/schedules/train_y_first/red_square_00/top_left/instructions/Audio19.wav,46.11521120008547,46.09832650005119,19,"[2.247728699934669, 0.12162820005323738, 0.11406239995267242, 0.16672390000894666, 0.13246539991814643, 0.14331380010116845, 0.14285180007573217, 0.1419400000013411, 0.14252210000995547, 0.11927939997985959, 0.35306800005491823, 0.2908853000262752, 0.20620699995197356, 0.13656229991465807, 0.10486209997907281, 1.1017441999865696, 1.8159877000143752, 0.4704998000524938, 0.341155800037086]","[2.247736299992539, 0.12163479998707771, 0.0325967000098899, 0.16673329996410757, 0.00020400003995746374, 0.0001938000787049532, 0.00019419996533542871, 0.00019080005586147308, 0.00020519993267953396, 0.202078300062567, 0.00019500008784234524, 0.29089390009175986, 0.0001962999813258648, 0.13656919996719807, 0.43449200002942234, 0.7665517000714317, 0.10197349998634309, 0.10765460005495697, 0.3411654999945313]",0,,,,,,,,,,,,,,,,,,,,,,,,,,,,,,,,,,,,,,,,,,,test,train_y,red_square,top_left,2024-11-06_15h51.56.204,HideSeek_v1,2022.2.5,60.088317796462924,
,,,,,,,,,,,,3,0,3,0,3,0,3,0,,,,,,,,,,,,,,,,,,,,,,,,,,,conditions/schedules/train_y_first/red_square_00/top_left/instructions/Slide20.png,conditions/schedules/train_y_first/red_square_00/top_left/instructions/Audio20.wav,46.49894400010817,46.48180310010212,20,"[2.247728699934669, 0.12162820005323738, 0.11406239995267242, 0.16672390000894666, 0.13246539991814643, 0.14331380010116845, 0.14285180007573217, 0.1419400000013411, 0.14252210000995547, 0.11927939997985959, 0.35306800005491823, 0.2908853000262752, 0.20620699995197356, 0.13656229991465807, 0.10486209997907281, 1.1017441999865696, 1.8159877000143752, 0.4704998000524938, 0.341155800037086, 0.3087111000204459]","[2.247736299992539, 0.12163479998707771, 0.0325967000098899, 0.16673329996410757, 0.00020400003995746374, 0.0001938000787049532, 0.00019419996533542871, 0.00019080005586147308, 0.00020519993267953396, 0.202078300062567, 0.00019500008784234524, 0.29089390009175986, 0.0001962999813258648, 0.13656919996719807, 0.43449200002942234, 0.7665517000714317, 0.10197349998634309, 0.10765460005495697, 0.07490030000917614, 0.3087176000699401]",0,,,,,,,,,,,,,,,,,,,,,,,,,,,,,,,,,,,,,,,,,,,test,train_y,red_square,top_left,2024-11-06_15h51.56.204,HideSeek_v1,2022.2.5,60.088317796462924,
,,,,,,,,,,,,3,0,3,0,,,,,,,,,,,,,,,,,,,,,,,,,,,,,,,,,,,,,,,,,17,0.7,0,0,99,1,30,0,conditions/schedules/train_y_first/red_square_00/top_left/inputTrain_1.1.xlsx,99,1,1,1,0,,,,,,,,,,,,,,,,,,,,,,,,,,,test,train_y,red_square,top_left,2024-11-06_15h51.56.204,HideSeek_v1,2022.2.5,60.088317796462924,
,,,,,,,,,,,,4,0,4,0,0,0,0,0,,,,,,,,,,,,,,,,,,,,,,,,,,,conditions/schedules/train_y_first/red_square_00/top_left/instructions/Slide21.png,conditions/schedules/train_y_first/red_square_00/top_left/instructions/Audio21.wav,46.90142930008005,46.89851980003296,21,"[2.247728699934669, 0.12162820005323738, 0.11406239995267242, 0.16672390000894666, 0.13246539991814643, 0.14331380010116845, 0.14285180007573217, 0.1419400000013411, 0.14252210000995547, 0.11927939997985959, 0.35306800005491823, 0.2908853000262752, 0.20620699995197356, 0.13656229991465807, 0.10486209997907281, 1.1017441999865696, 1.8159877000143752, 0.4704998000524938, 0.341155800037086, 0.3087111000204459, 0.19530689995735884]","[2.247736299992539, 0.12163479998707771, 0.0325967000098899, 0.16673329996410757, 0.00020400003995746374, 0.0001938000787049532, 0.00019419996533542871, 0.00019080005586147308, 0.00020519993267953396, 0.202078300062567, 0.00019500008784234524, 0.29089390009175986, 0.0001962999813258648, 0.13656919996719807, 0.43449200002942234, 0.7665517000714317, 0.10197349998634309, 0.10765460005495697, 0.07490030000917614, 0.3087176000699401, 0.19531239999923855]",0,,,,,,,,,,,,,,,,,,,,,,,,,,,,,,,,,,,,,,,,,,,test,train_y,red_square,top_left,2024-11-06_15h51.56.204,HideSeek_v1,2022.2.5,60.088317796462924,
,,,,,,,,,,,,4,0,4,0,,,,,,,,,,,,,,,,,,,,,,,,,,,,,,,,,,,,,,,,,17,0.7,0,0,99,1,30,0,conditions/schedules/train_y_first/red_square_00/top_left/inputTrain_1.1.xlsx,99,1,1,1,0,,,,,,,,,,,,,,,,,,,,,,,,,,,test,train_y,red_square,top_left,2024-11-06_15h51.56.204,HideSeek_v1,2022.2.5,60.088317796462924,
,,,,,,,,,,,,5,0,5,0,0,0,0,0,,,,,,,,,,,,,,,,,,,,,,,,,,,conditions/schedules/train_y_first/red_square_00/top_left/instructions/Slide22.png,conditions/schedules/train_y_first/red_square_00/top_left/instructions/Audio22.wav,47.21456950006541,47.198023100022695,22,"[2.247728699934669, 0.12162820005323738, 0.11406239995267242, 0.16672390000894666, 0.13246539991814643, 0.14331380010116845, 0.14285180007573217, 0.1419400000013411, 0.14252210000995547, 0.11927939997985959, 0.35306800005491823, 0.2908853000262752, 0.20620699995197356, 0.13656229991465807, 0.10486209997907281, 1.1017441999865696, 1.8159877000143752, 0.4704998000524938, 0.341155800037086, 0.3087111000204459, 0.19530689995735884, 0.24166980001609772]","[2.247736299992539, 0.12163479998707771, 0.0325967000098899, 0.16673329996410757, 0.00020400003995746374, 0.0001938000787049532, 0.00019419996533542871, 0.00019080005586147308, 0.00020519993267953396, 0.202078300062567, 0.00019500008784234524, 0.29089390009175986, 0.0001962999813258648, 0.13656919996719807, 0.43449200002942234, 0.7665517000714317, 0.10197349998634309, 0.10765460005495697, 0.07490030000917614, 0.3087176000699401, 0.19531239999923855, 0.2416784999659285]",0,,,,,,,,,,,,,,,,,,,,,,,,,,,,,,,,,,,,,,,,,,,test,train_y,red_square,top_left,2024-11-06_15h51.56.204,HideSeek_v1,2022.2.5,60.088317796462924,
,,,,,,,,,,,,5,0,5,0,,,,,,,,,,,,,,,,,,,,,,,,,,,,,,,,,,,,,,,,,17,0.7,0,0,99,1,30,0,conditions/schedules/train_y_first/red_square_00/top_left/inputTrain_1.1.xlsx,99,1,1,1,0,,,,,,,,,,,,,,,,,,,,,,,,,,,test,train_y,red_square,top_left,2024-11-06_15h51.56.204,HideSeek_v1,2022.2.5,60.088317796462924,
,,,,,,,,,,,,6,0,6,0,0,0,0,0,,,,,,,,,,,,,,,,,,,,,,,,,,,conditions/schedules/train_y_first/red_square_00/top_left/instructions/Slide23.png,conditions/schedules/train_y_first/red_square_00/top_left/instructions/Audio23.wav,47.56569180008955,47.548420700000136,23,"[2.247728699934669, 0.12162820005323738, 0.11406239995267242, 0.16672390000894666, 0.13246539991814643, 0.14331380010116845, 0.14285180007573217, 0.1419400000013411, 0.14252210000995547, 0.11927939997985959, 0.35306800005491823, 0.2908853000262752, 0.20620699995197356, 0.13656229991465807, 0.10486209997907281, 1.1017441999865696, 1.8159877000143752, 0.4704998000524938, 0.341155800037086, 0.3087111000204459, 0.19530689995735884, 0.24166980001609772, 0.2778750999132171]","[2.247736299992539, 0.12163479998707771, 0.0325967000098899, 0.16673329996410757, 0.00020400003995746374, 0.0001938000787049532, 0.00019419996533542871, 0.00019080005586147308, 0.00020519993267953396, 0.202078300062567, 0.00019500008784234524, 0.29089390009175986, 0.0001962999813258648, 0.13656919996719807, 0.43449200002942234, 0.7665517000714317, 0.10197349998634309, 0.10765460005495697, 0.07490030000917614, 0.3087176000699401, 0.19531239999923855, 0.2416784999659285, 0.27788139996118844]",0,,,,,,,,,,,,,,,,,,,,,,,,,,,,,,,,,,,,,,,,,,,test,train_y,red_square,top_left,2024-11-06_15h51.56.204,HideSeek_v1,2022.2.5,60.088317796462924,
,,,,,,,,,,,,6,0,6,0,1,0,1,0,,,,,,,,,,,,,,,,,,,,,,,,,,,conditions/schedules/train_y_first/red_square_00/top_left/instructions/Slide24.png,conditions/schedules/train_y_first/red_square_00/top_left/instructions/Audio24.wav,47.88168019999284,47.86476470007329,24,"[2.247728699934669, 0.12162820005323738, 0.11406239995267242, 0.16672390000894666, 0.13246539991814643, 0.14331380010116845, 0.14285180007573217, 0.1419400000013411, 0.14252210000995547, 0.11927939997985959, 0.35306800005491823, 0.2908853000262752, 0.20620699995197356, 0.13656229991465807, 0.10486209997907281, 1.1017441999865696, 1.8159877000143752, 0.4704998000524938, 0.341155800037086, 0.3087111000204459, 0.19530689995735884, 0.24166980001609772, 0.2778750999132171, 0.30250549991615117]","[2.247736299992539, 0.12163479998707771, 0.0325967000098899, 0.16673329996410757, 0.00020400003995746374, 0.0001938000787049532, 0.00019419996533542871, 0.00019080005586147308, 0.00020519993267953396, 0.202078300062567, 0.00019500008784234524, 0.29089390009175986, 0.0001962999813258648, 0.13656919996719807, 0.43449200002942234, 0.7665517000714317, 0.10197349998634309, 0.10765460005495697, 0.07490030000917614, 0.3087176000699401, 0.19531239999923855, 0.2416784999659285, 0.05206369992811233, 0.30251499998848885]",0,,,,,,,,,,,,,,,,,,,,,,,,,,,,,,,,,,,,,,,,,,,test,train_y,red_square,top_left,2024-11-06_15h51.56.204,HideSeek_v1,2022.2.5,60.088317796462924,
,,,,,,,,,,,,6,0,6,0,2,0,2,0,,,,,,,,,,,,,,,,,,,,,,,,,,,conditions/schedules/train_y_first/red_square_00/top_left/instructions/Slide25.png,conditions/schedules/train_y_first/red_square_00/top_left/instructions/Audio25.wav,48.232450600015,48.21526980005438,25,"[2.247728699934669, 0.12162820005323738, 0.11406239995267242, 0.16672390000894666, 0.13246539991814643, 0.14331380010116845, 0.14285180007573217, 0.1419400000013411, 0.14252210000995547, 0.11927939997985959, 0.35306800005491823, 0.2908853000262752, 0.20620699995197356, 0.13656229991465807, 0.10486209997907281, 1.1017441999865696, 1.8159877000143752, 0.4704998000524938, 0.341155800037086, 0.3087111000204459, 0.19530689995735884, 0.24166980001609772, 0.2778750999132171, 0.30250549991615117, 0.2731717999558896]","[2.247736299992539, 0.12163479998707771, 0.0325967000098899, 0.16673329996410757, 0.00020400003995746374, 0.0001938000787049532, 0.00019419996533542871, 0.00019080005586147308, 0.00020519993267953396, 0.202078300062567, 0.00019500008784234524, 0.29089390009175986, 0.0001962999813258648, 0.13656919996719807, 0.43449200002942234, 0.7665517000714317, 0.10197349998634309, 0.10765460005495697, 0.07490030000917614, 0.3087176000699401, 0.19531239999923855, 0.2416784999659285, 0.05206369992811233, 0.05637959996238351, 0.27317940001375973]",0,,,,,,,,,,,,,,,,,,,,,,,,,,,,,,,,,,,,,,,,,,,test,train_y,red_square,top_left,2024-11-06_15h51.56.204,HideSeek_v1,2022.2.5,60.088317796462924,
,,,,,,,,,,,,6,0,6,0,,,,,,,,,,,,,,,,,,,,,,,,,,,,,,,,,,,,,,,,,17,0.7,0,0,99,1,30,0,conditions/schedules/train_y_first/red_square_00/top_left/inputTrain_1.1.xlsx,99,1,1,1,0,,,,,,,,,,,,,,,,,,,,,,,,,,,test,train_y,red_square,top_left,2024-11-06_15h51.56.204,HideSeek_v1,2022.2.5,60.088317796462924,
,,,,,,,,,,,,7,0,7,0,0,0,0,0,,,,,,,,,,,,,,,,,,,,,,,,,,,conditions/schedules/train_y_first/red_square_00/top_left/instructions/Slide26.png,conditions/schedules/train_y_first/red_square_00/top_left/instructions/Audio26.wav,48.61500940006226,48.59849630004028,26,"[2.247728699934669, 0.12162820005323738, 0.11406239995267242, 0.16672390000894666, 0.13246539991814643, 0.14331380010116845, 0.14285180007573217, 0.1419400000013411, 0.14252210000995547, 0.11927939997985959, 0.35306800005491823, 0.2908853000262752, 0.20620699995197356, 0.13656229991465807, 0.10486209997907281, 1.1017441999865696, 1.8159877000143752, 0.4704998000524938, 0.341155800037086, 0.3087111000204459, 0.19530689995735884, 0.24166980001609772, 0.2778750999132171, 0.30250549991615117, 0.2731717999558896, 0.17471960000693798]","[2.247736299992539, 0.12163479998707771, 0.0325967000098899, 0.16673329996410757, 0.00020400003995746374, 0.0001938000787049532, 0.00019419996533542871, 0.00019080005586147308, 0.00020519993267953396, 0.202078300062567, 0.00019500008784234524, 0.29089390009175986, 0.0001962999813258648, 0.13656919996719807, 0.43449200002942234, 0.7665517000714317, 0.10197349998634309, 0.10765460005495697, 0.07490030000917614, 0.3087176000699401, 0.19531239999923855, 0.2416784999659285, 0.05206369992811233, 0.05637959996238351, 0.27317940001375973, 0.17472700006328523]",0,,,,,,,,,,,,,,,,,,,,,,,,,,,,,,,,,,,,,,,,,,,test,train_y,red_square,top_left,2024-11-06_15h51.56.204,HideSeek_v1,2022.2.5,60.088317796462924,
,,,,,,,,,,,,7,0,7,0,,,,,,,,,,,,,,,,,,,,,,,,,,,,,,,,,,,,,,,,,17,0.7,0,0,99,1,30,0,conditions/schedules/train_y_first/red_square_00/top_left/inputTrain_1.1.xlsx,99,1,1,1,0,,,,,,,,,,,,,,,,,,,,,,,,,,,test,train_y,red_square,top_left,2024-11-06_15h51.56.204,HideSeek_v1,2022.2.5,60.088317796462924,
,,,,,,,,,,,,8,0,8,0,0,0,0,0,,,,,,,,,,,,,,,,,,,,,,,,,,,conditions/schedules/train_y_first/red_square_00/top_left/instructions/Slide27.png,conditions/schedules/train_y_first/red_square_00/top_left/instructions/Audio27.wav,48.897850100067444,48.88189609999536,27,"[2.247728699934669, 0.12162820005323738, 0.11406239995267242, 0.16672390000894666, 0.13246539991814643, 0.14331380010116845, 0.14285180007573217, 0.1419400000013411, 0.14252210000995547, 0.11927939997985959, 0.35306800005491823, 0.2908853000262752, 0.20620699995197356, 0.13656229991465807, 0.10486209997907281, 1.1017441999865696, 1.8159877000143752, 0.4704998000524938, 0.341155800037086, 0.3087111000204459, 0.19530689995735884, 0.24166980001609772, 0.2778750999132171, 0.30250549991615117, 0.2731717999558896, 0.17471960000693798, 0.272674800013192]","[2.247736299992539, 0.12163479998707771, 0.0325967000098899, 0.16673329996410757, 0.00020400003995746374, 0.0001938000787049532, 0.00019419996533542871, 0.00019080005586147308, 0.00020519993267953396, 0.202078300062567, 0.00019500008784234524, 0.29089390009175986, 0.0001962999813258648, 0.13656919996719807, 0.43449200002942234, 0.7665517000714317, 0.10197349998634309, 0.10765460005495697, 0.07490030000917614, 0.3087176000699401, 0.19531239999923855, 0.2416784999659285, 0.05206369992811233, 0.05637959996238351, 0.27317940001375973, 0.000202300027012825, 0.2726820999523625]",0,,,,,,,,,,,,,,,,,,,,,,,,,,,,,,,,,,,,,,,,,,,test,train_y,red_square,top_left,2024-11-06_15h51.56.204,HideSeek_v1,2022.2.5,60.088317796462924,
,,,,,,,,,,,,8,0,8,0,,,,,,,,,,,,,,,,,,,,,,,,,,,,,,,,,,,,,,,,,17,0.7,0,0,99,1,30,0,conditions/schedules/train_y_first/red_square_00/top_left/inputTrain_1.1.xlsx,99,1,1,1,0,,,,,,,,,,,,,,,,,,,,,,,,,,,test,train_y,red_square,top_left,2024-11-06_15h51.56.204,HideSeek_v1,2022.2.5,60.088317796462924,
,,,,,,,,,,,,9,0,9,0,0,0,0,0,,,,,,,,,,,,,,,,,,,,,,,,,,,conditions/schedules/train_y_first/red_square_00/top_left/instructions/Slide28.png,conditions/schedules/train_y_first/red_square_00/top_left/instructions/Audio28.wav,49.28156090003904,49.26501380010741,28,"[2.247728699934669, 0.12162820005323738, 0.11406239995267242, 0.16672390000894666, 0.13246539991814643, 0.14331380010116845, 0.14285180007573217, 0.1419400000013411, 0.14252210000995547, 0.11927939997985959, 0.35306800005491823, 0.2908853000262752, 0.20620699995197356, 0.13656229991465807, 0.10486209997907281, 1.1017441999865696, 1.8159877000143752, 0.4704998000524938, 0.341155800037086, 0.3087111000204459, 0.19530689995735884, 0.24166980001609772, 0.2778750999132171, 0.30250549991615117, 0.2731717999558896, 0.17471960000693798, 0.272674800013192, 0.24311299994587898]","[2.247736299992539, 0.12163479998707771, 0.0325967000098899, 0.16673329996410757, 0.00020400003995746374, 0.0001938000787049532, 0.00019419996533542871, 0.00019080005586147308, 0.00020519993267953396, 0.202078300062567, 0.00019500008784234524, 0.29089390009175986, 0.0001962999813258648, 0.13656919996719807, 0.43449200002942234, 0.7665517000714317, 0.10197349998634309, 0.10765460005495697, 0.07490030000917614, 0.3087176000699401, 0.19531239999923855, 0.2416784999659285, 0.05206369992811233, 0.05637959996238351, 0.27317940001375973, 0.000202300027012825, 0.2726820999523625, 0.24312060000374913]",0,,,,,,,,,,,,,,,,,,,,,,,,,,,,,,,,,,,,,,,,,,,test,train_y,red_square,top_left,2024-11-06_15h51.56.204,HideSeek_v1,2022.2.5,60.088317796462924,
,,,,,,,,,,,,9,0,9,0,1,0,1,0,,,,,,,,,,,,,,,,,,,,,,,,,,,conditions/schedules/train_y_first/red_square_00/top_left/instructions/Slide29.png,conditions/schedules/train_y_first/red_square_00/top_left/instructions/Audio29.wav,49.56781330006197,49.56554990003351,29,"[2.247728699934669, 0.12162820005323738, 0.11406239995267242, 0.16672390000894666, 0.13246539991814643, 0.14331380010116845, 0.14285180007573217, 0.1419400000013411, 0.14252210000995547, 0.11927939997985959, 0.35306800005491823, 0.2908853000262752, 0.20620699995197356, 0.13656229991465807, 0.10486209997907281, 1.1017441999865696, 1.8159877000143752, 0.4704998000524938, 0.341155800037086, 0.3087111000204459, 0.19530689995735884, 0.24166980001609772, 0.2778750999132171, 0.30250549991615117, 0.2731717999558896, 0.17471960000693798, 0.272674800013192, 0.24311299994587898, 0.3783251999411732]","[2.247736299992539, 0.12163479998707771, 0.0325967000098899, 0.16673329996410757, 0.00020400003995746374, 0.0001938000787049532, 0.00019419996533542871, 0.00019080005586147308, 0.00020519993267953396, 0.202078300062567, 0.00019500008784234524, 0.29089390009175986, 0.0001962999813258648, 0.13656919996719807, 0.43449200002942234, 0.7665517000714317, 0.10197349998634309, 0.10765460005495697, 0.07490030000917614, 0.3087176000699401, 0.19531239999923855, 0.2416784999659285, 0.05206369992811233, 0.05637959996238351, 0.27317940001375973, 0.000202300027012825, 0.2726820999523625, 0.0617371000116691, 0.37833099998533726]",0,,,,,,,,,,,,,,,,,,,,,,,,,,,,,,,,,,,,,,,,,,,test,train_y,red_square,top_left,2024-11-06_15h51.56.204,HideSeek_v1,2022.2.5,60.088317796462924,
,,,,,,,,,,,,9,0,9,0,2,0,2,0,,,,,,,,,,,,,,,,,,,,,,,,,,,conditions/schedules/train_y_first/red_square_00/top_left/instructions/Slide30.png,conditions/schedules/train_y_first/red_square_00/top_left/instructions/Audio30.wav,49.98173510003835,49.964940100023526,30,"[2.247728699934669, 0.12162820005323738, 0.11406239995267242, 0.16672390000894666, 0.13246539991814643, 0.14331380010116845, 0.14285180007573217, 0.1419400000013411, 0.14252210000995547, 0.11927939997985959, 0.35306800005491823, 0.2908853000262752, 0.20620699995197356, 0.13656229991465807, 0.10486209997907281, 1.1017441999865696, 1.8159877000143752, 0.4704998000524938, 0.341155800037086, 0.3087111000204459, 0.19530689995735884, 0.24166980001609772, 0.2778750999132171, 0.30250549991615117, 0.2731717999558896, 0.17471960000693798, 0.272674800013192, 0.24311299994587898, 0.3783251999411732, 0.3216216000728309]","[2.247736299992539, 0.12163479998707771, 0.0325967000098899, 0.16673329996410757, 0.00020400003995746374, 0.0001938000787049532, 0.00019419996533542871, 0.00019080005586147308, 0.00020519993267953396, 0.202078300062567, 0.00019500008784234524, 0.29089390009175986, 0.0001962999813258648, 0.13656919996719807, 0.43449200002942234, 0.7665517000714317, 0.10197349998634309, 0.10765460005495697, 0.07490030000917614, 0.3087176000699401, 0.19531239999923855, 0.2416784999659285, 0.05206369992811233, 0.05637959996238351, 0.27317940001375973, 0.000202300027012825, 0.2726820999523625, 0.0617371000116691, 0.10531660006381571, 0.3216285000089556]",0,,,,,,,,,,,,,,,,,,,,,,,,,,,,,,,,,,,,,,,,,,,test,train_y,red_square,top_left,2024-11-06_15h51.56.204,HideSeek_v1,2022.2.5,60.088317796462924,
,,,,,,,,,,,,9,0,9,0,3,0,3,0,,,,,,,,,,,,,,,,,,,,,,,,,,,conditions/schedules/train_y_first/red_square_00/top_left/instructions/Slide31.png,conditions/schedules/train_y_first/red_square_00/top_left/instructions/Audio31.wav,50.34834350005258,50.33144690004411,31,"[2.247728699934669, 0.12162820005323738, 0.11406239995267242, 0.16672390000894666, 0.13246539991814643, 0.14331380010116845, 0.14285180007573217, 0.1419400000013411, 0.14252210000995547, 0.11927939997985959, 0.35306800005491823, 0.2908853000262752, 0.20620699995197356, 0.13656229991465807, 0.10486209997907281, 1.1017441999865696, 1.8159877000143752, 0.4704998000524938, 0.341155800037086, 0.3087111000204459, 0.19530689995735884, 0.24166980001609772, 0.2778750999132171, 0.30250549991615117, 0.2731717999558896, 0.17471960000693798, 0.272674800013192, 0.24311299994587898, 0.3783251999411732, 0.3216216000728309, 0.3392420000163838]","[2.247736299992539, 0.12163479998707771, 0.0325967000098899, 0.16673329996410757, 0.00020400003995746374, 0.0001938000787049532, 0.00019419996533542871, 0.00019080005586147308, 0.00020519993267953396, 0.202078300062567, 0.00019500008784234524, 0.29089390009175986, 0.0001962999813258648, 0.13656919996719807, 0.43449200002942234, 0.7665517000714317, 0.10197349998634309, 0.10765460005495697, 0.07490030000917614, 0.3087176000699401, 0.19531239999923855, 0.2416784999659285, 0.05206369992811233, 0.05637959996238351, 0.27317940001375973, 0.000202300027012825, 0.2726820999523625, 0.0617371000116691, 0.10531660006381571, 0.05550690006930381, 0.3392502000788227]",0,,,,,,,,,,,,,,,,,,,,,,,,,,,,,,,,,,,,,,,,,,,test,train_y,red_square,top_left,2024-11-06_15h51.56.204,HideSeek_v1,2022.2.5,60.088317796462924,
,,,,,,,,,,,,9,0,9,0,,,,,,,,,,,,,,,,,,,,,,,,,,,,,,,,,,,,,,,,,17,0.7,0,0,99,1,30,0,conditions/schedules/train_y_first/red_square_00/top_left/inputTrain_1.1.xlsx,99,1,1,1,0,,,,,,,,,,,,,,,,,,,,,,,,,,,test,train_y,red_square,top_left,2024-11-06_15h51.56.204,HideSeek_v1,2022.2.5,60.088317796462924,
1,2,9,2,7,0,-2,14,72,test_exp,train_1D_first_new,0,,,,,,,,,,,,,,,,,,,,,0,0,0,0,0,0,0,0,,,,,,,,,,,,,,,,,,,,,,,,,,,,,,,stimuli/alien_stimuli/14.png,50.81538260006346,50.81538260006346,50.81538260006346,50.81538260006346,50.81538260006346,0,0,return,1.0454833999974653,0,0,0,0,0.32,return,0.9619257000740618,,,,,,,,,,test,train_y,red_square,top_left,2024-11-06_15h51.56.204,HideSeek_v1,2022.2.5,60.088317796462924,
1,2,9,2,7,0,-2,14,72,test_exp,train_1D_first_new,0,,,,,,,,,,,,,,,,,,,,,0,0,0,0,,,,,,,,,,,,,,,,,,,,,,,,,,,,,,,,,,,,,,,,,,,,,,,,,,,,51.81522390001919,52.89844250003807,stimuli/alien_stimuli/14.png,14,2,1,,,,test,train_y,red_square,top_left,2024-11-06_15h51.56.204,HideSeek_v1,2022.2.5,60.088317796462924,
2,4,6,7,2,3,-4,42,72,test_exp,untrained,0,,,,,,,,,,,,,,,,,,,,,0,1,1,1,0,0,0,0,,,,,,,,,,,,,,,,,,,,,,,,,,,,,,,stimuli/alien_stimuli/42.png,52.89844250003807,52.89844250003807,52.89844250003807,52.89844250003807,52.89844250003807,0,0,return,0.1788243999471888,0,0,0,0.16,0.08,return,0.08109979995060712,,,,,,,,,,test,train_y,red_square,top_left,2024-11-06_15h51.56.204,HideSeek_v1,2022.2.5,60.088317796462924,
2,4,6,7,2,3,-4,42,72,test_exp,untrained,0,,,,,,,,,,,,,,,,,,,,,0,1,1,1,,,,,,,,,,,,,,,,,,,,,,,,,,,,,,,,,,,,,,,,,,,,,,,,,,,,53.01463770004921,54.08567510009743,stimuli/alien_stimuli/14.png,14,2,2,,,,test,train_y,red_square,top_left,2024-11-06_15h51.56.204,HideSeek_v1,2022.2.5,60.088317796462924,
3,1,6,4,5,3,-1,45,72,test_exp,untrained,0,,,,,,,,,,,,,,,,,,,,,0,2,2,2,0,0,0,0,,,,,,,,,,,,,,,,,,,,,,,,,,,,,,,stimuli/alien_stimuli/45.png,54.08567510009743,54.08567510009743,54.08567510009743,54.08567510009743,54.08567510009743,0,0,return,0.24512760003563017,0,0,0,-0.08,0.08,return,0.15367759997025132,,,,,,,,,,test,train_y,red_square,top_left,2024-11-06_15h51.56.204,HideSeek_v1,2022.2.5,60.088317796462924,
3,1,6,4,5,3,-1,45,72,test_exp,untrained,0,,,,,,,,,,,,,,,,,,,,,0,2,2,2,,,,,,,,,,,,,,,,,,,,,,,,,,,,,,,,,,,,,,,,,,,,,,,,,,,,54.28136020002421,55.365165000082925,stimuli/alien_stimuli/14.png,14,2,3,,,,test,train_y,red_square,top_left,2024-11-06_15h51.56.204,HideSeek_v1,2022.2.5,60.088317796462924,
4,0,5,0,4,0,-1,15,72,test_exp,train_1D_first_repeat,0,,,,,,,,,,,,,,,,,,,,,0,3,3,3,0,0,0,0,,,,,,,,,,,,,,,,,,,,,,,,,,,,,,,stimuli/alien_stimuli/15.png,55.365165000082925,55.365165000082925,55.365165000082925,55.365165000082925,55.365165000082925,0,0,return,0.3124085000017658,0,0,0,-0.16,0,return,0.2114379999693483,,,,,,,,,,test,train_y,red_square,top_left,2024-11-06_15h51.56.204,HideSeek_v1,2022.2.5,60.088317796462924,
4,0,5,0,4,0,-1,15,72,test_exp,train_1D_first_repeat,0,,,,,,,,,,,,,,,,,,,,,0,3,3,3,,,,,,,,,,,,,,,,,,,,,,,,,,,,,,,,,,,,,,,,,,,,,,,,,,,,55.6149120000191,56.6979761000257,stimuli/alien_stimuli/14.png,14,2,4,,,,test,train_y,red_square,top_left,2024-11-06_15h51.56.204,HideSeek_v1,2022.2.5,60.088317796462924,
5,4,9,9,4,5,-5,61,72,test_exp,untrained,0,,,,,,,,,,,,,,,,,,,,,0,4,4,4,0,0,0,0,,,,,,,,,,,,,,,,,,,,,,,,,,,,,,,stimuli/alien_stimuli/61.png,56.6979761000257,56.6979761000257,56.6979761000257,56.6979761000257,56.6979761000257,0,0,return,0.31235579994972795,0,0,0,0.16,0.32,return,0.2146218999987468,,,,,,,,,,test,train_y,red_square,top_left,2024-11-06_15h51.56.204,HideSeek_v1,2022.2.5,60.088317796462924,
5,4,9,9,4,5,-5,61,72,test_exp,untrained,0,,,,,,,,,,,,,,,,,,,,,0,4,4,4,,,,,,,,,,,,,,,,,,,,,,,,,,,,,,,,,,,,,,,,,,,,,,,,,,,,56.94845860009082,58.030558600090444,stimuli/alien_stimuli/14.png,14,2,5,,,,test,train_y,red_square,top_left,2024-11-06_15h51.56.204,HideSeek_v1,2022.2.5,60.088317796462924,
6,0,7,5,4,5,-3,63,72,test_exp,untrained,0,,,,,,,,,,,,,,,,,,,,,0,5,5,5,0,0,0,0,,,,,,,,,,,,,,,,,,,,,,,,,,,,,,,stimuli/alien_stimuli/63.png,58.030558600090444,58.030558600090444,58.030558600090444,58.030558600090444,58.030558600090444,0,0,return,0.32905839988961816,0,0,0,-0.16,0.16,return,0.2303592999232933,,,,,,,,,,test,train_y,red_square,top_left,2024-11-06_15h51.56.204,HideSeek_v1,2022.2.5,60.088317796462924,
6,0,7,5,4,5,-3,63,72,test_exp,untrained,0,,,,,,,,,,,,,,,,,,,,,0,5,5,5,,,,,,,,,,,,,,,,,,,,,,,,,,,,,,,,,,,,,,,,,,,,,,,,,,,,58.29798460006714,59.381921900087036,stimuli/alien_stimuli/14.png,14,2,6,,,,test,train_y,red_square,top_left,2024-11-06_15h51.56.204,HideSeek_v1,2022.2.5,60.088317796462924,
7,4,5,6,0,2,-5,31,72,test_exp,untrained,0,,,,,,,,,,,,,,,,,,,,,0,6,6,6,0,0,0,0,,,,,,,,,,,,,,,,,,,,,,,,,,,,,,,stimuli/alien_stimuli/31.png,59.381921900087036,59.381921900087036,59.381921900087036,59.381921900087036,59.381921900087036,0,0,return,0.4449744001030922,0,0,0,0.16,0,return,0.34585889999289066,,,,,,,,,,test,train_y,red_square,top_left,2024-11-06_15h51.56.204,HideSeek_v1,2022.2.5,60.088317796462924,
7,4,5,6,0,2,-5,31,72,test_exp,untrained,0,,,,,,,,,,,,,,,,,,,,,0,6,6,6,,,,,,,,,,,,,,,,,,,,,,,,,,,,,,,,,,,,,,,,,,,,,,,,,,,,59.7648196000373,60.84859430009965,stimuli/alien_stimuli/14.png,14,2,7,,,,test,train_y,red_square,top_left,2024-11-06_15h51.56.204,HideSeek_v1,2022.2.5,60.088317796462924,
8,2,6,5,3,3,-3,43,72,test_exp,train_2D_repeat,0,,,,,,,,,,,,,,,,,,,,,0,7,7,7,0,0,0,0,,,,,,,,,,,,,,,,,,,,,,,,,,,,,,,stimuli/alien_stimuli/43.png,60.84859430009965,60.84859430009965,60.84859430009965,60.84859430009965,60.84859430009965,0,0,return,0.29597640002612025,0,0,0,0,0.08,return,0.1961556999012828,,,,,,,,,,test,train_y,red_square,top_left,2024-11-06_15h51.56.204,HideSeek_v1,2022.2.5,60.088317796462924,
8,2,6,5,3,3,-3,43,72,test_exp,train_2D_repeat,0,,,,,,,,,,,,,,,,,,,,,0,7,7,7,,,,,,,,,,,,,,,,,,,,,,,,,,,,,,,,,,,,,,,,,,,,,,,,,,,,61.081295900046825,62.165201600058936,stimuli/alien_stimuli/14.png,14,2,8,,,,test,train_y,red_square,top_left,2024-11-06_15h51.56.204,HideSeek_v1,2022.2.5,60.088317796462924,
9,4,8,8,3,4,-5,51,72,test_exp,untrained,0,,,,,,,,,,,,,,,,,,,,,0,8,8,8,0,0,0,0,,,,,,,,,,,,,,,,,,,,,,,,,,,,,,,stimuli/alien_stimuli/51.png,62.165201600058936,62.165201600058936,62.165201600058936,62.165201600058936,62.165201600058936,0,0,return,0.21246339997742325,0,0,0,0.16,0.24,return,0.10769750003237277,,,,,,,,,,test,train_y,red_square,top_left,2024-11-06_15h51.56.204,HideSeek_v1,2022.2.5,60.088317796462924,
9,4,8,8,3,4,-5,51,72,test_exp,untrained,0,,,,,,,,,,,,,,,,,,,,,0,8,8,8,,,,,,,,,,,,,,,,,,,,,,,,,,,,,,,,,,,,,,,,,,,,,,,,,,,,62.3146366000874,63.43194270005915,stimuli/alien_stimuli/14.png,14,2,9,,,,test,train_y,red_square,top_left,2024-11-06_15h51.56.204,HideSeek_v1,2022.2.5,60.088317796462924,
10,1,5,2,0,1,-5,21,72,test_exp,train_2D_repeat,0,,,,,,,,,,,,,,,,,,,,,0,9,9,9,0,0,0,0,,,,,,,,,,,,,,,,,,,,,,,,,,,,,,,stimuli/alien_stimuli/21.png,63.43194270005915,63.43194270005915,63.43194270005915,63.43194270005915,63.43194270005915,0,0,return,0.3289738999446854,0,0,0,-0.08,0,return,0.1931159000378102,,,,,,,,,,test,train_y,red_square,top_left,2024-11-06_15h51.56.204,HideSeek_v1,2022.2.5,60.088317796462924,
10,1,5,2,0,1,-5,21,72,test_exp,train_2D_repeat,0,,,,,,,,,,,,,,,,,,,,,0,9,9,9,,,,,,,,,,,,,,,,,,,,,,,,,,,,,,,,,,,,,,,,,,,,,,,,,,,,63.665131799993105,64.74893810006324,stimuli/alien_stimuli/14.png,14,2,10,,,,test,train_y,red_square,top_left,2024-11-06_15h51.56.204,HideSeek_v1,2022.2.5,60.088317796462924,
11,3,5,7,3,4,-2,54,72,test_exp,train_2D_repeat,0,,,,,,,,,,,,,,,,,,,,,0,10,10,10,0,0,0,0,,,,,,,,,,,,,,,,,,,,,,,,,,,,,,,stimuli/alien_stimuli/54.png,64.74893810006324,64.74893810006324,64.74893810006324,64.74893810006324,64.74893810006324,0,0,return,0.27964379999320954,0,0,0,0.08,0,return,0.17894909996539354,,,,,,,,,,test,train_y,red_square,top_left,2024-11-06_15h51.56.204,HideSeek_v1,2022.2.5,60.088317796462924,
11,3,5,7,3,4,-2,54,72,test_exp,train_2D_repeat,0,,,,,,,,,,,,,,,,,,,,,0,10,10,10,,,,,,,,,,,,,,,,,,,,,,,,,,,,,,,,,,,,,,,,,,,,,,,,,,,,64.96483549999539,66.04807830008212,stimuli/alien_stimuli/14.png,14,2,11,,,,test,train_y,red_square,top_left,2024-11-06_15h51.56.204,HideSeek_v1,2022.2.5,60.088317796462924,
12,2,8,3,8,1,0,26,72,test_exp,train_1D_sec_new,0,,,,,,,,,,,,,,,,,,,,,0,11,11,11,0,0,0,0,,,,,,,,,,,,,,,,,,,,,,,,,,,,,,,stimuli/alien_stimuli/26.png,66.04807830008212,66.04807830008212,66.04807830008212,66.04807830008212,66.04807830008212,0,0,return,0.24581530003342777,0,0,0,0,0.24,return,0.1473097000271082,,,,,,,,,,test,train_y,red_square,top_left,2024-11-06_15h51.56.204,HideSeek_v1,2022.2.5,60.088317796462924,
12,2,8,3,8,1,0,26,72,test_exp,train_1D_sec_new,0,,,,,,,,,,,,,,,,,,,,,0,11,11,11,,,,,,,,,,,,,,,,,,,,,,,,,,,,,,,,,,,,,,,,,,,,,,,,,,,,66.23135950008873,67.31446360005066,stimuli/alien_stimuli/14.png,14,2,12,,,,test,train_y,red_square,top_left,2024-11-06_15h51.56.204,HideSeek_v1,2022.2.5,60.088317796462924,
13,1,7,1,3,0,-4,12,72,test_exp,train_1D_first_new,0,,,,,,,,,,,,,,,,,,,,,0,12,12,12,0,0,0,0,,,,,,,,,,,,,,,,,,,,,,,,,,,,,,,stimuli/alien_stimuli/12.png,67.31446360005066,67.31446360005066,67.31446360005066,67.31446360005066,67.31446360005066,0,0,return,0.3616866000229493,0,0,0,-0.08,0.16,return,0.26068549999035895,,,,,,,,,,test,train_y,red_square,top_left,2024-11-06_15h51.56.204,HideSeek_v1,2022.2.5,60.088317796462924,
13,1,7,1,3,0,-4,12,72,test_exp,train_1D_first_new,0,,,,,,,,,,,,,,,,,,,,,0,12,12,12,,,,,,,,,,,,,,,,,,,,,,,,,,,,,,,,,,,,,,,,,,,,,,,,,,,,67.61483040009625,68.69799870008137,stimuli/alien_stimuli/14.png,14,2,13,,,,test,train_y,red_square,top_left,2024-11-06_15h51.56.204,HideSeek_v1,2022.2.5,60.088317796462924,
14,2,8,5,8,3,0,46,72,test_exp,untrained_1D_sec_leftout,0,,,,,,,,,,,,,,,,,,,,,0,13,13,13,0,0,0,0,,,,,,,,,,,,,,,,,,,,,,,,,,,,,,,stimuli/alien_stimuli/46.png,68.69799870008137,68.69799870008137,68.69799870008137,68.69799870008137,68.69799870008137,0,0,return,0.31259870005305856,0,0,0,0,0.24,return,0.21138459991198033,,,,,,,,,,test,train_y,red_square,top_left,2024-11-06_15h51.56.204,HideSeek_v1,2022.2.5,60.088317796462924,
14,2,8,5,8,3,0,46,72,test_exp,untrained_1D_sec_leftout,0,,,,,,,,,,,,,,,,,,,,,0,13,13,13,,,,,,,,,,,,,,,,,,,,,,,,,,,,,,,,,,,,,,,,,,,,,,,,,,,,68.9484237000579,70.04863950004801,stimuli/alien_stimuli/14.png,14,2,14,,,,test,train_y,red_square,top_left,2024-11-06_15h51.56.204,HideSeek_v1,2022.2.5,60.088317796462924,
15,2,9,2,9,0,0,16,72,test_exp,train_1D_sec_repeat,0,,,,,,,,,,,,,,,,,,,,,0,14,14,14,0,0,0,0,,,,,,,,,,,,,,,,,,,,,,,,,,,,,,,stimuli/alien_stimuli/16.png,70.04863950004801,70.04863950004801,70.04863950004801,70.04863950004801,70.04863950004801,0,0,return,0.41184830002021044,1,0,1,0,0.32,return,0.2862322001019493,,,,,,,,,,test,train_y,red_square,top_left,2024-11-06_15h51.56.204,HideSeek_v1,2022.2.5,60.088317796462924,
15,2,9,2,9,0,0,16,72,test_exp,train_1D_sec_repeat,0,,,,,,,,,,,,,,,,,,,,,0,14,14,14,,,,,,,,,,,,,,,,,,,,,,,,,,,,,,,,,,,,,,,,,,,,,,,,,,,,70.38132340006996,71.46506920002867,stimuli/alien_stimuli/14.png,14,2,15,,,,test,train_y,red_square,top_left,2024-11-06_15h51.56.204,HideSeek_v1,2022.2.5,60.088317796462924,
16,1,9,3,8,2,-1,35,72,test_exp,untrained,0,,,,,,,,,,,,,,,,,,,,,0,15,15,15,0,0,0,0,,,,,,,,,,,,,,,,,,,,,,,,,,,,,,,stimuli/alien_stimuli/35.png,71.46506920002867,71.46506920002867,71.46506920002867,71.46506920002867,71.46506920002867,0,0,return,0.46206089993938804,1,0,0,-0.08,0.32,return,0.3511439000722021,,,,,,,,,,test,train_y,red_square,top_left,2024-11-06_15h51.56.204,HideSeek_v1,2022.2.5,60.088317796462924,
16,1,9,3,8,2,-1,35,72,test_exp,untrained,0,,,,,,,,,,,,,,,,,,,,,0,15,15,15,,,,,,,,,,,,,,,,,,,,,,,,,,,,,,,,,,,,,,,,,,,,,,,,,,,,71.86450410005637,72.94819770008326,stimuli/alien_stimuli/14.png,14,2,16,,,,test,train_y,red_square,top_left,2024-11-06_15h51.56.204,HideSeek_v1,2022.2.5,60.088317796462924,
17,3,7,8,3,5,-4,62,72,test_exp,untrained,0,,,,,,,,,,,,,,,,,,,,,0,16,16,16,0,0,0,0,,,,,,,,,,,,,,,,,,,,,,,,,,,,,,,stimuli/alien_stimuli/62.png,72.94819770008326,72.94819770008326,72.94819770008326,72.94819770008326,72.94819770008326,0,0,return,0.32975980010814965,1,0,0,0.08,0.16,return,0.2178588000824675,,,,,,,,,,test,train_y,red_square,top_left,2024-11-06_15h51.56.204,HideSeek_v1,2022.2.5,60.088317796462924,
17,3,7,8,3,5,-4,62,72,test_exp,untrained,0,,,,,,,,,,,,,,,,,,,,,0,16,16,16,,,,,,,,,,,,,,,,,,,,,,,,,,,,,,,,,,,,,,,,,,,,,,,,,,,,73.21471160009969,74.3151098000817,stimuli/alien_stimuli/14.png,14,2,17,,,,test,train_y,red_square,top_left,2024-11-06_15h51.56.204,HideSeek_v1,2022.2.5,60.088317796462924,
18,3,9,7,5,4,-4,52,72,test_exp,untrained,1,,,,,,,,,,,,,,,,,,,,,0,17,17,17,0,0,0,0,,,,,,,,,,,,,,,,,,,,,,,,,,,,,,,stimuli/alien_stimuli/52.png,74.3151098000817,74.3151098000817,74.3151098000817,74.3151098000817,74.3151098000817,0,0,return,0.3451443000230938,1,0,0,0.08,0.32,return,0.2246762999566272,,,,,,,,,,test,train_y,red_square,top_left,2024-11-06_15h51.56.204,HideSeek_v1,2022.2.5,60.088317796462924,
8,2,6,5,3,3,-3,43,72,test_exp,train_2D_repeat,0,,,,,,,,,,,,,,,,,,,,,0,17,17,17,,,,,0,0,0,7,,,,,,,,,,,,,,,,,,,,,,,,,,,,,,,,,,,,,,,,,,,,74.58140610007104,75.59763299999759,,,,,75.59763299999759,space,1.666086700046435,test,train_y,red_square,top_left,2024-11-06_15h51.56.204,HideSeek_v1,2022.2.5,60.088317796462924,
24,0,5,2,3,2,-2,34,72,test_exp,untrained,0,,,,,,,,,,,,,,,,,,,,,0,17,17,17,,,,,0,1,1,23,,,,,,,,,,,,,,,,,,,,,,,,,,,,,,,,,,,,,,,,,,,,,,,,,,77.28163430001587,space,2.9883059000130743,test,train_y,red_square,top_left,2024-11-06_15h51.56.204,HideSeek_v1,2022.2.5,60.088317796462924,
2,4,6,7,2,3,-4,42,72,test_exp,untrained,0,,,,,,,,,,,,,,,,,,,,,0,17,17,17,,,,,0,2,2,1,,,,,,,,,,,,,,,,,,,,,,,,,,,,,,,,,,,,,,,,,,,,,,,,,,80.29765540000517,space,1.7603591999504715,test,train_y,red_square,top_left,2024-11-06_15h51.56.204,HideSeek_v1,2022.2.5,60.088317796462924,
28,4,7,7,2,3,-5,41,72,test_exp,untrained,0,,,,,,,,,,,,,,,,,,,,,0,17,17,17,,,,,0,3,3,27,,,,,,,,,,,,,,,,,,,,,,,,,,,,,,,,,,,,,,,,,,,,,,,,,,82.08110880001914,space,0.8636729000136256,test,train_y,red_square,top_left,2024-11-06_15h51.56.204,HideSeek_v1,2022.2.5,60.088317796462924,
63,4,9,8,5,4,-4,52,72,test_exp,untrained,0,,,,,,,,,,,,,,,,,,,,,0,17,17,17,,,,,0,4,4,62,,,,,,,,,,,,,,,,,,,,,,,,,,,,,,,,,,,,,,,,,,,,,,,,,,82.96473940007854,space,4.109703000052832,test,train_y,red_square,top_left,2024-11-06_15h51.56.204,HideSeek_v1,2022.2.5,60.088317796462924,
38,0,6,5,6,5,0,66,72,test_exp,train_1D_sec_new,0,,,,,,,,,,,,,,,,,,,,,0,17,17,17,,,,,0,5,5,37,,,,,,,,,,,,,,,,,,,,,,,,,,,,,,,,,,,,,,,,,,,,,,,,,,87.09778160008136,space,1.1322149999905378,test,train_y,red_square,top_left,2024-11-06_15h51.56.204,HideSeek_v1,2022.2.5,60.088317796462924,
49,3,6,8,2,5,-4,62,72,test_exp,untrained,0,,,,,,,,,,,,,,,,,,,,,0,17,17,17,,,,,0,6,6,48,,,,,,,,,,,,,,,,,,,,,,,,,,,,,,,,,,,,,,,,,,,,,,,,,,88.24785889999475,space,1.1348709999583662,test,train_y,red_square,top_left,2024-11-06_15h51.56.204,HideSeek_v1,2022.2.5,60.088317796462924,
21,3,5,4,4,1,-1,25,72,test_exp,untrained,0,,,,,,,,,,,,,,,,,,,,,0,17,17,17,,,,,0,7,7,20,,,,,,,,,,,,,,,,,,,,,,,,,,,,,,,,,,,,,,,,,,,,,,,,,,89.41431500006001,space,2.197653899900615,test,train_y,red_square,top_left,2024-11-06_15h51.56.204,HideSeek_v1,2022.2.5,60.088317796462924,
29,3,6,4,4,1,-2,24,72,test_exp,untrained,0,,,,,,,,,,,,,,,,,,,,,0,17,17,17,,,,,0,8,8,28,,,,,,,,,,,,,,,,,,,,,,,,,,,,,,,,,,,,,,,,,,,,,,,,,,91.6314242000226,space,0.3821546999970451,test,train_y,red_square,top_left,2024-11-06_15h51.56.204,HideSeek_v1,2022.2.5,60.088317796462924,
13,1,7,1,3,0,-4,12,72,test_exp,train_1D_first_new,0,,,,,,,,,,,,,,,,,,,,,0,17,17,17,,,,,0,9,9,12,,,,,,,,,,,,,,,,,,,,,,,,,,,,,,,,,,,,,,,,,,,,,,,,,,92.03120660001878,space,4.022483500069939,test,train_y,red_square,top_left,2024-11-06_15h51.56.204,HideSeek_v1,2022.2.5,60.088317796462924,
64,2,8,5,3,3,-5,41,72,test_exp,untrained,0,,,,,,,,,,,,,,,,,,,,,0,17,17,17,,,,,0,10,10,63,,,,,,,,,,,,,,,,,,,,,,,,,,,,,,,,,,,,,,,,,,,,,,,,,,96.081197099993,space,0.27738300000783056,test,train_y,red_square,top_left,2024-11-06_15h51.56.204,HideSeek_v1,2022.2.5,60.088317796462924,
22,1,5,3,1,2,-4,32,72,test_exp,train_2D_new,0,,,,,,,,,,,,,,,,,,,,,0,17,17,17,,,,,0,11,11,21,,,,,,,,,,,,,,,,,,,,,,,,,,,,,,,,,,,,,,,,,,,,,,,,,,96.3808514000848,space,0.2693550999974832,test,train_y,red_square,top_left,2024-11-06_15h51.56.204,HideSeek_v1,2022.2.5,60.088317796462924,
7,4,5,6,0,2,-5,31,72,test_exp,untrained,0,,,,,,,,,,,,,,,,,,,,,0,17,17,17,,,,,0,12,12,6,,,,,,,,,,,,,,,,,,,,,,,,,,,,,,,,,,,,,,,,,,,,,,,,,,96.68131150002591,space,0.21650369989220053,test,train_y,red_square,top_left,2024-11-06_15h51.56.204,HideSeek_v1,2022.2.5,60.088317796462924,
5,4,9,9,4,5,-5,61,72,test_exp,untrained,0,,,,,,,,,,,,,,,,,,,,,0,17,17,17,,,,,0,13,13,4,,,,,,,,,,,,,,,,,,,,,,,,,,,,,,,,,,,,,,,,,,,,,,,,,,96.91473190009128,space,0.17683809995651245,test,train_y,red_square,top_left,2024-11-06_15h51.56.204,HideSeek_v1,2022.2.5,60.088317796462924,
71,4,5,7,1,3,-4,42,72,test_exp,untrained,0,,,,,,,,,,,,,,,,,,,,,0,17,17,17,,,,,0,14,14,70,,,,,,,,,,,,,,,,,,,,,,,,,,,,,,,,,,,,,,,,,,,,,,,,,,97.11432350007817,space,0.15219469997100532,test,train_y,red_square,top_left,2024-11-06_15h51.56.204,HideSeek_v1,2022.2.5,60.088317796462924,
30,4,5,5,1,1,-4,22,72,test_exp,untrained,0,,,,,,,,,,,,,,,,,,,,,0,17,17,17,,,,,0,15,15,29,,,,,,,,,,,,,,,,,,,,,,,,,,,,,,,,,,,,,,,,,,,,,,,,,,97.29754890000913,space,1.831170400022529,test,train_y,red_square,top_left,2024-11-06_15h51.56.204,HideSeek_v1,2022.2.5,60.088317796462924,
62,0,6,1,1,1,-5,21,72,test_exp,train_2D_new,0,,,,,,,,,,,,,,,,,,,,,0,17,17,17,,,,,0,16,16,61,,,,,,,,,,,,,,,,,,,,,,,,,,,,,,,,,,,,,,,,,,,,,,,,,,99.14793520001695,space,0.23506890004500747,test,train_y,red_square,top_left,2024-11-06_15h51.56.204,HideSeek_v1,2022.2.5,60.088317796462924,
46,2,9,3,8,1,-1,25,72,test_exp,untrained,0,,,,,,,,,,,,,,,,,,,,,0,17,17,17,,,,,0,17,17,45,,,,,,,,,,,,,,,,,,,,,,,,,,,,,,,,,,,,,,,,,,,,,,,,,,99.41471040004399,space,0.1348664000397548,test,train_y,red_square,top_left,2024-11-06_15h51.56.204,HideSeek_v1,2022.2.5,60.088317796462924,
4,0,5,0,4,0,-1,15,72,test_exp,train_1D_first_repeat,0,,,,,,,,,,,,,,,,,,,,,0,17,17,17,,,,,0,18,18,3,,,,,,,,,,,,,,,,,,,,,,,,,,,,,,,,,,,,,,,,,,,,,,,,,,99.58107350009959,space,0.12555299990344793,test,train_y,red_square,top_left,2024-11-06_15h51.56.204,HideSeek_v1,2022.2.5,60.088317796462924,
,,,,,,,,,,,,,,,,,,,,,,,,,,,,,,,,,,,,,,,,,,,,,,,,,,,,,,,,,,,,,,,,,,,,,,,,,,,,,,,,,,,,,,,,,,,,,99.73127540003043,,,,,,,,,,,
