trialInstr,x_fixStart,y_fixStart,x_corrSteps,y_corrSteps,x_nrSteps,y_nrSteps,alienID,trialLength,version,trialTrain,praclen,testlen,trial_label,break_on_off,beforeExpLoop.thisRepN,beforeExpLoop.thisTrialN,beforeExpLoop.thisN,beforeExpLoop.thisIndex,mini_instr_trials.thisRepN,mini_instr_trials.thisTrialN,mini_instr_trials.thisN,mini_instr_trials.thisIndex,instrLoop.thisRepN,instrLoop.thisTrialN,instrLoop.thisN,instrLoop.thisIndex,repeat_prac.thisRepN,repeat_prac.thisTrialN,repeat_prac.thisN,repeat_prac.thisIndex,trainLoop.thisRepN,trainLoop.thisTrialN,trainLoop.thisN,trainLoop.thisIndex,moveLoop_train.thisRepN,moveLoop_train.thisTrialN,moveLoop_train.thisN,moveLoop_train.thisIndex,experiment.thisRepN,experiment.thisTrialN,experiment.thisN,experiment.thisIndex,moveLoop_test.thisRepN,moveLoop_test.thisTrialN,moveLoop_test.thisN,moveLoop_test.thisIndex,mini_instr2_trials.thisRepN,mini_instr2_trials.thisTrialN,mini_instr2_trials.thisN,mini_instr2_trials.thisIndex,start_all_time,url,slideStim,audioStim,slides.started,sounds.started,nextButton.numClicks,nextButton.timesOn,nextButton.timesOff,prev_but.numClicks,prev_but.timesOn,prev_but.timesOff,alienStim,instrFile,alienStim_instr,gridImage_instr.started,startPos_3.started,key_instr.started,alienImage_3.started,sounds_1.started,key_instr.keys,key_instr.rt,all_x,all_y,FBy_corrSteps,FBy_fixStart,FBx_corrSteps,FBx_fixStart,FBy_pathSize_check,FBx_pathSize_check,gridImage_9.started,alienImageFB_3.started,startPosFB_3.started,keyFB_3.started,pathLine_ydir_2.started,pathLine_xdir_2.started,alienFace_3.started,sounds_2.started,RTFB_instr,keyFB_3.keys,keyFB_3.rt,draw_alienStim,draw_alienID,test_x,nrepcount,perfthres,percthres,earlierperf,earlystop,nextPrac,fileidx,praclen,saveACC_train,pracFile,nextPrac_train,addNrep,fileidx_endr,repExp,showearly,gridImage_4.started,startPos.started,movePos.started,key_resp.started,alienImage.started,buttonPress_train,RTchoice_train,cumAcctrain,aCorr,saveACC_choice,corrAns,x_movePos_end,y_movePos_end,key_resp.keys,key_resp.rt,wLy_dir,wLx_dir,x_movePos,y_movePos,text_2.started,text_2.stopped,aft_x_corrPos,aft_y_corrPos,y_pathSize_check,x_pathSize_check,y_pathdirY,x_pathdirY,x_pathdirX,x_corrPos,y_corrPos,gridImage_6.started,alienImageFB_2.started,startPosFB_2.started,movePosFB_2.started,keyFB_2.started,pathLine_xdir.started,pathLine_ydir.started,alienFace.started,sounds_4.started,RT_FBtrain,keyFB_2.keys,keyFB_2.rt,saveACC_pre,ACC,within_saveACC_train,earlystop_wloop,cumAcctrain_check,gridImage_3.started,alienImage_test.started,startPos_test.started,movePos_test.started,key_resp_test.started,wLy_dir_test,wLx_dir_test,buttonPress_test,RTchoice_test,cumAcctest,corrAns_test,key_resp_test.keys,key_resp_test.rt,text_3.started,text_3.stopped,total_time,end_all_time,key_resp_3.keys,slides_2.started,sounds_3.started,nextButton_2.numClicks,nextButton_2.timesOn,nextButton_2.timesOff,prev_but_2.numClicks,prev_but_2.timesOn,prev_but_2.timesOff,bye.started,participant,train_first,00_coordinate,starting corner,date,expName,psychopyVersion,frameRate,
,,,,,,,,,,,,,,,0,0,0,0,0,0,0,0,,,,,,,,,,,,,,,,,,,,,,,,,,,,,start_all_time,testround,conditions/schedules/train_x_first/blue_star_00/top_right/instructions/Slide1.png,conditions/schedules/train_x_first/blue_star_00/top_right/instructions/Audio1.wav,776.2442387000192,776.1797618105077,1,[30.079163199989125],[30.079182699962985],0,,,,,,,,,,,,,,,,,,,,,,,,,,,,,,,,,,,,,,,,,,,,,,,,,,,,,,,,,,,,,,,,,,,,,,,,,,,,,,,,,,,,,,,,,,,,,,,,,,,,,,,,,,,,,,,,,,,,,,,,,,,,TJJYT8,train_x,blue_star,top_right,2024-12-16_16h12.27.030,HideSeek_v1,2022.2.5,59.9257759407959,
,,,,,,,,,,,,,,,0,0,0,0,1,0,1,0,,,,,,,,,,,,,,,,,,,,,,,,,,,,,,,conditions/schedules/train_x_first/blue_star_00/top_right/instructions/Slide2.png,conditions/schedules/train_x_first/blue_star_00/top_right/instructions/Audio2.wav,806.4459770999965,806.4370714100544,2,"[30.079163199989125, 18.454024499980733]","[30.079182699962985, 18.45403249998344]",0,,,,,,,,,,,,,,,,,,,,,,,,,,,,,,,,,,,,,,,,,,,,,,,,,,,,,,,,,,,,,,,,,,,,,,,,,,,,,,,,,,,,,,,,,,,,,,,,,,,,,,,,,,,,,,,,,,,,,,,,,,,,TJJYT8,train_x,blue_star,top_right,2024-12-16_16h12.27.030,HideSeek_v1,2022.2.5,59.9257759407959,
,,,,,,,,,,,,,,,0,0,0,0,2,0,2,0,,,,,,,,,,,,,,,,,,,,,,,,,,,,,,,conditions/schedules/train_x_first/blue_star_00/top_right/instructions/Slide3.png,conditions/schedules/train_x_first/blue_star_00/top_right/instructions/Audio3.wav,825.0596474999911,825.0527373000514,3,"[30.079163199989125, 18.454024499980733, 16.88822409999557]","[30.079182699962985, 18.45403249998344, 16.88823169999523]",0,,,,,,,,,,,,,,,,,,,,,,,,,,,,,,,,,,,,,,,,,,,,,,,,,,,,,,,,,,,,,,,,,,,,,,,,,,,,,,,,,,,,,,,,,,,,,,,,,,,,,,,,,,,,,,,,,,,,,,,,,,,,TJJYT8,train_x,blue_star,top_right,2024-12-16_16h12.27.030,HideSeek_v1,2022.2.5,59.9257759407959,
,,,,,,,,,,,,,,,0,0,0,0,3,0,3,0,,,,,,,,,,,,,,,,,,,,,,,,,,,,,,,conditions/schedules/train_x_first/blue_star_00/top_right/instructions/Slide4.png,conditions/schedules/train_x_first/blue_star_00/top_right/instructions/Audio4.wav,842.1280040999991,842.1165200100397,4,"[30.079163199989125, 18.454024499980733, 16.88822409999557, 19.60376000002725]","[30.079182699962985, 18.45403249998344, 16.88823169999523, 19.60376800002996]",0,,,,,,,,,,,,,,,,,,,,,,,,,,,,,,,,,,,,,,,,,,,,,,,,,,,,,,,,,,,,,,,,,,,,,,,,,,,,,,,,,,,,,,,,,,,,,,,,,,,,,,,,,,,,,,,,,,,,,,,,,,,,TJJYT8,train_x,blue_star,top_right,2024-12-16_16h12.27.030,HideSeek_v1,2022.2.5,59.9257759407959,
,,,,,,,,,,,,,,,0,0,0,0,4,0,4,0,,,,,,,,,,,,,,,,,,,,,,,,,,,,,,,conditions/schedules/train_x_first/blue_star_00/top_right/instructions/Slide5.png,conditions/schedules/train_x_first/blue_star_00/top_right/instructions/Audio5.wav,861.9102641000063,861.8999320100295,5,"[30.079163199989125, 18.454024499980733, 16.88822409999557, 19.60376000002725, 5.3425710999872535]","[30.079182699962985, 18.45403249998344, 16.88823169999523, 19.60376800002996, 5.342580399999861]",0,,,,,,,,,,,,,,,,,,,,,,,,,,,,,,,,,,,,,,,,,,,,,,,,,,,,,,,,,,,,,,,,,,,,,,,,,,,,,,,,,,,,,,,,,,,,,,,,,,,,,,,,,,,,,,,,,,,,,,,,,,,,TJJYT8,train_x,blue_star,top_right,2024-12-16_16h12.27.030,HideSeek_v1,2022.2.5,59.9257759407959,
,,,,,,,,,,,,,,,0,0,0,0,5,0,5,0,,,,,,,,,,,,,,,,,,,,,,,,,,,,,,,conditions/schedules/train_x_first/blue_star_00/top_right/instructions/Slide6.png,conditions/schedules/train_x_first/blue_star_00/top_right/instructions/Audio6.wav,867.3831883000094,867.37121868002,6,"[30.079163199989125, 18.454024499980733, 16.88822409999557, 19.60376000002725, 5.3425710999872535, 5.324127600004431]","[30.079182699962985, 18.45403249998344, 16.88823169999523, 19.60376800002996, 5.342580399999861, 5.324135600007139]",0,,,,,,,,,,,,,,,,,,,,,,,,,,,,,,,,,,,,,,,,,,,,,,,,,,,,,,,,,,,,,,,,,,,,,,,,,,,,,,,,,,,,,,,,,,,,,,,,,,,,,,,,,,,,,,,,,,,,,,,,,,,,TJJYT8,train_x,blue_star,top_right,2024-12-16_16h12.27.030,HideSeek_v1,2022.2.5,59.9257759407959,
,,,,,,,,,,,,,,,0,0,0,0,6,0,6,0,,,,,,,,,,,,,,,,,,,,,,,,,,,,,,,conditions/schedules/train_x_first/blue_star_00/top_right/instructions/Slide7.png,conditions/schedules/train_x_first/blue_star_00/top_right/instructions/Audio7.wav,872.8605842000106,872.8591176000191,7,"[30.079163199989125, 18.454024499980733, 16.88822409999557, 19.60376000002725, 5.3425710999872535, 5.324127600004431, 5.535035899956711]","[30.079182699962985, 18.45403249998344, 16.88823169999523, 19.60376800002996, 5.342580399999861, 5.324135600007139, 5.5350437999586575]",0,,,,,,,,,,,,,,,,,,,,,,,,,,,,,,,,,,,,,,,,,,,,,,,,,,,,,,,,,,,,,,,,,,,,,,,,,,,,,,,,,,,,,,,,,,,,,,,,,,,,,,,,,,,,,,,,,,,,,,,,,,,,TJJYT8,train_x,blue_star,top_right,2024-12-16_16h12.27.030,HideSeek_v1,2022.2.5,59.9257759407959,
,,,,,,,,,,,,,,,0,0,0,0,7,0,7,0,,,,,,,,,,,,,,,,,,,,,,,,,,,,,,,conditions/schedules/train_x_first/blue_star_00/top_right/instructions/Slide8.png,conditions/schedules/train_x_first/blue_star_00/top_right/instructions/Audio8.wav,878.5347637000377,878.5305080900552,8,"[30.079163199989125, 18.454024499980733, 16.88822409999557, 19.60376000002725, 5.3425710999872535, 5.324127600004431, 5.535035899956711, 12.003874799993355]","[30.079182699962985, 18.45403249998344, 16.88823169999523, 19.60376800002996, 5.342580399999861, 5.324135600007139, 5.5350437999586575, 12.003882399993017]",0,,,,,,,,,,,,,,,,,,,,,,,,,,,,,,,,,,,,,,,,,,,,,,,,,,,,,,,,,,,,,,,,,,,,,,,,,,,,,,,,,,,,,,,,,,,,,,,,,,,,,,,,,,,,,,,,,,,,,,,,,,,,TJJYT8,train_x,blue_star,top_right,2024-12-16_16h12.27.030,HideSeek_v1,2022.2.5,59.9257759407959,
,,,,,,,,,,,,,,,0,0,0,0,8,0,8,0,,,,,,,,,,,,,,,,,,,,,,,,,,,,,,,conditions/schedules/train_x_first/blue_star_00/top_right/instructions/Slide9.png,conditions/schedules/train_x_first/blue_star_00/top_right/instructions/Audio9.wav,890.7007150000427,890.6904963000561,9,"[30.079163199989125, 18.454024499980733, 16.88822409999557, 19.60376000002725, 5.3425710999872535, 5.324127600004431, 5.535035899956711, 12.003874799993355, 6.159431500011124]","[30.079182699962985, 18.45403249998344, 16.88823169999523, 19.60376800002996, 5.342580399999861, 5.324135600007139, 5.5350437999586575, 12.003882399993017, 6.159439100010786]",0,,,,,,,,,,,,,,,,,,,,,,,,,,,,,,,,,,,,,,,,,,,,,,,,,,,,,,,,,,,,,,,,,,,,,,,,,,,,,,,,,,,,,,,,,,,,,,,,,,,,,,,,,,,,,,,,,,,,,,,,,,,,TJJYT8,train_x,blue_star,top_right,2024-12-16_16h12.27.030,HideSeek_v1,2022.2.5,59.9257759407959,
,,,,,,,,,,,,,,,0,0,0,0,9,0,9,0,,,,,,,,,,,,,,,,,,,,,,,,,,,,,,,conditions/schedules/train_x_first/blue_star_00/top_right/instructions/Slide10.png,conditions/schedules/train_x_first/blue_star_00/top_right/instructions/Audio10.wav,896.9518241000478,896.9457059600275,10,"[30.079163199989125, 18.454024499980733, 16.88822409999557, 19.60376000002725, 5.3425710999872535, 5.324127600004431, 5.535035899956711, 12.003874799993355, 6.159431500011124, 7.247544799989555]","[30.079182699962985, 18.45403249998344, 16.88823169999523, 19.60376800002996, 5.342580399999861, 5.324135600007139, 5.5350437999586575, 12.003882399993017, 0.014132199983578175, 7.247551599983126]",0,,,,,,,,,,,,,,,,,,,,,,,,,,,,,,,,,,,,,,,,,,,,,,,,,,,,,,,,,,,,,,,,,,,,,,,,,,,,,,,,,,,,,,,,,,,,,,,,,,,,,,,,,,,,,,,,,,,,,,,,,,,,TJJYT8,train_x,blue_star,top_right,2024-12-16_16h12.27.030,HideSeek_v1,2022.2.5,59.9257759407959,
,,,,,,,,,,,,,,,0,0,0,0,10,0,10,0,,,,,,,,,,,,,,,,,,,,,,,,,,,,,,,conditions/schedules/train_x_first/blue_star_00/top_right/instructions/Slide11.png,conditions/schedules/train_x_first/blue_star_00/top_right/instructions/Audio11.wav,904.3234920999967,904.3185606800486,11,"[30.079163199989125, 18.454024499980733, 16.88822409999557, 19.60376000002725, 5.3425710999872535, 5.324127600004431, 5.535035899956711, 12.003874799993355, 6.159431500011124, 7.247544799989555, 10.15140590001829]","[30.079182699962985, 18.45403249998344, 16.88823169999523, 19.60376800002996, 5.342580399999861, 5.324135600007139, 5.5350437999586575, 12.003882399993017, 0.014132199983578175, 7.247551599983126, 10.151413700019475]",0,,,,,,,,,,,,,,,,,,,,,,,,,,,,,,,,,,,,,,,,,,,,,,,,,,,,,,,,,,,,,,,,,,,,,,,,,,,,,,,,,,,,,,,,,,,,,,,,,,,,,,,,,,,,,,,,,,,,,,,,,,,,TJJYT8,train_x,blue_star,top_right,2024-12-16_16h12.27.030,HideSeek_v1,2022.2.5,59.9257759407959,
,,,,,,,,,,,,,,,0,0,0,0,11,0,11,0,,,,,,,,,,,,,,,,,,,,,,,,,,,,,,,conditions/schedules/train_x_first/blue_star_00/top_right/instructions/Slide12.png,conditions/schedules/train_x_first/blue_star_00/top_right/instructions/Audio12.wav,914.6294495000038,914.6270891000167,12,"[30.079163199989125, 18.454024499980733, 16.88822409999557, 19.60376000002725, 5.3425710999872535, 5.324127600004431, 5.535035899956711, 12.003874799993355, 6.159431500011124, 7.247544799989555, 10.15140590001829, 12.622346399992239]","[30.079182699962985, 18.45403249998344, 16.88823169999523, 19.60376800002996, 5.342580399999861, 5.324135600007139, 5.5350437999586575, 12.003882399993017, 0.014132199983578175, 7.247551599983126, 10.151413700019475, 12.622354799997993]",0,,,,,,,,,,,,,,,,,,,,,,,,,,,,,,,,,,,,,,,,,,,,,,,,,,,,,,,,,,,,,,,,,,,,,,,,,,,,,,,,,,,,,,,,,,,,,,,,,,,,,,,,,,,,,,,,,,,,,,,,,,,,TJJYT8,train_x,blue_star,top_right,2024-12-16_16h12.27.030,HideSeek_v1,2022.2.5,59.9257759407959,
1,9,5,4,5,-5,0,11,2,instr_dim1_1,,,,,,0,0,0,0,,,,,0,0,0,0,,,,,,,,,,,,,,,,,,,,,,,,,,,,,,,,,,,,,stimuli/alien_stimuli/11.png,conditions/schedules/train_x_first/blue_star_00/top_right/inputInstr_1.xlsx,stimuli/alien_stimuli/11.png,927.4314826000482,927.4314826000482,927.4314826000482,927.4314826000482,927.420820710063,return,10.849416100012604,"[-0.16, -0.08, 0, 0.08, 0.16, 0.24, 0.32, 0.4, 0.48, 0.56]","[-0.4, -0.32, -0.24, -0.16, -0.08, 0, 0.08, 0.16, 0.24, 0.32]",5,5,4,9,0.0,0.4,938.4486336000264,938.4486336000264,938.4486336000264,938.4486336000264,938.4486336000264,938.4486336000264,938.4486336000264,938.4464479900315,9.642756499990355,return,9.477131700026803,stimuli/alien_stimuli/11.png,11,9,1,,,,,,,,,,,,,,,,,,,,,,,,,,,,,,,,,,,,,,,,,,,,,,,,,,,,,,,,,,,,,,,,,,,,,,,,,,,,,,,,,,,,,,,,,TJJYT8,train_x,blue_star,top_right,2024-12-16_16h12.27.030,HideSeek_v1,2022.2.5,59.9257759407959,
,,,,,,,,,,,30,,,,0,0,0,0,,,,,,,,,,,,,,,,,,,,,,,,,,,,,,,,,,,,,,,,,,,,,,,,,,,,,,,,,,,,,,,,,,,,,,,,,,,,,,21,0.7,0,0,99,1,30,0,conditions/schedules/train_x_first/blue_star_00/top_right/inputTrain_1.1.xlsx,99,1,1,1,0,,,,,,,,,,,,,,,,,,,,,,,,,,,,,,,,,,,,,,,,,,,,,,,,,,,,,,,,,,,,,,,,,,,,,,,,,,,TJJYT8,train_x,blue_star,top_right,2024-12-16_16h12.27.030,HideSeek_v1,2022.2.5,59.9257759407959,
,,,,,,,,,,,,,,,1,0,1,0,0,0,0,0,,,,,,,,,,,,,,,,,,,,,,,,,,,,,,,conditions/schedules/train_x_first/blue_star_00/top_right/instructions/Slide13.png,conditions/schedules/train_x_first/blue_star_00/top_right/instructions/Audio13.wav,948.2188660000102,948.2049612600706,13,"[30.079163199989125, 18.454024499980733, 16.88822409999557, 19.60376000002725, 5.3425710999872535, 5.324127600004431, 5.535035899956711, 12.003874799993355, 6.159431500011124, 7.247544799989555, 10.15140590001829, 12.622346399992239, 18.515860999992583]","[30.079182699962985, 18.45403249998344, 16.88823169999523, 19.60376800002996, 5.342580399999861, 5.324135600007139, 5.5350437999586575, 12.003882399993017, 0.014132199983578175, 7.247551599983126, 10.151413700019475, 12.622354799997993, 18.515869299997576]",0,,,,,,,,,,,,,,,,,,,,,,,,,,,,,,,,,,,,,,,,,,,,,,,,,,,,,,,,,,,,,,,,,,,,,,,,,,,,,,,,,,,,,,,,,,,,,,,,,,,,,,,,,,,,,,,,,,,,,,,,,,,,TJJYT8,train_x,blue_star,top_right,2024-12-16_16h12.27.030,HideSeek_v1,2022.2.5,59.9257759407959,
,,,,,,,,,,,,,,,1,0,1,0,1,0,1,0,,,,,,,,,,,,,,,,,,,,,,,,,,,,,,,conditions/schedules/train_x_first/blue_star_00/top_right/instructions/Slide14.png,conditions/schedules/train_x_first/blue_star_00/top_right/instructions/Audio14.wav,966.8769501000061,966.8703102900298,14,"[30.079163199989125, 18.454024499980733, 16.88822409999557, 19.60376000002725, 5.3425710999872535, 5.324127600004431, 5.535035899956711, 12.003874799993355, 6.159431500011124, 7.247544799989555, 10.15140590001829, 12.622346399992239, 18.515860999992583, 12.968909999995958]","[30.079182699962985, 18.45403249998344, 16.88823169999523, 19.60376800002996, 5.342580399999861, 5.324135600007139, 5.5350437999586575, 12.003882399993017, 0.014132199983578175, 7.247551599983126, 10.151413700019475, 12.622354799997993, 18.515869299997576, 12.968917699996382]",0,,,,,,,,,,,,,,,,,,,,,,,,,,,,,,,,,,,,,,,,,,,,,,,,,,,,,,,,,,,,,,,,,,,,,,,,,,,,,,,,,,,,,,,,,,,,,,,,,,,,,,,,,,,,,,,,,,,,,,,,,,,,TJJYT8,train_x,blue_star,top_right,2024-12-16_16h12.27.030,HideSeek_v1,2022.2.5,59.9257759407959,
2,8,7,8,7,0,0,61,2,instr_dim1_1,,,,,,1,0,1,0,,,,,0,0,0,0,,,,,,,,,,,,,,,,,,,,,,,,,,,,,,,,,,,,,stimuli/alien_stimuli/61.png,conditions/schedules/train_x_first/blue_star_00/top_right/inputInstr_1.xlsx,stimuli/alien_stimuli/61.png,979.997317100002,979.997317100002,979.997317100002,979.997317100002,979.9980256000417,return,6.651253300020471,"[-0.16, -0.08, 0, 0.08, 0.16, 0.24, 0.32, 0.4, 0.48, 0.56]","[-0.4, -0.32, -0.24, -0.16, -0.08, 0, 0.08, 0.16, 0.24, 0.32]",7,7,8,8,0.0,0.0,986.8156022000476,986.8156022000476,986.8156022000476,986.8156022000476,986.8156022000476,986.8156022000476,986.8156022000476,986.8034870900564,7.056767999951262,return,6.884226099995431,stimuli/alien_stimuli/61.png,61,8,2,,,,,,,,,,,,,,,,,,,,,,,,,,,,,,,,,,,,,,,,,,,,,,,,,,,,,,,,,,,,,,,,,,,,,,,,,,,,,,,,,,,,,,,,,TJJYT8,train_x,blue_star,top_right,2024-12-16_16h12.27.030,HideSeek_v1,2022.2.5,59.9257759407959,
,,,,,,,,,,,30,,,,1,0,1,0,,,,,,,,,,,,,,,,,,,,,,,,,,,,,,,,,,,,,,,,,,,,,,,,,,,,,,,,,,,,,,,,,,,,,,,,,,,,,,21,0.7,0,0,99,1,30,0,conditions/schedules/train_x_first/blue_star_00/top_right/inputTrain_1.1.xlsx,99,1,1,1,0,,,,,,,,,,,,,,,,,,,,,,,,,,,,,,,,,,,,,,,,,,,,,,,,,,,,,,,,,,,,,,,,,,,,,,,,,,,TJJYT8,train_x,blue_star,top_right,2024-12-16_16h12.27.030,HideSeek_v1,2022.2.5,59.9257759407959,
,,,,,,,,,,,,,,,2,0,2,0,0,0,0,0,,,,,,,,,,,,,,,,,,,,,,,,,,,,,,,conditions/schedules/train_x_first/blue_star_00/top_right/instructions/Slide15.png,conditions/schedules/train_x_first/blue_star_00/top_right/instructions/Audio15.wav,994.0154911000282,994.0095471800538,15,"[30.079163199989125, 18.454024499980733, 16.88822409999557, 19.60376000002725, 5.3425710999872535, 5.324127600004431, 5.535035899956711, 12.003874799993355, 6.159431500011124, 7.247544799989555, 10.15140590001829, 12.622346399992239, 18.515860999992583, 12.968909999995958, 31.134421599970665]","[30.079182699962985, 18.45403249998344, 16.88823169999523, 19.60376800002996, 5.342580399999861, 5.324135600007139, 5.5350437999586575, 12.003882399993017, 0.014132199983578175, 7.247551599983126, 10.151413700019475, 12.622354799997993, 18.515869299997576, 12.968917699996382, 31.134428899968043]",0,,,,,,,,,,,,,,,,,,,,,,,,,,,,,,,,,,,,,,,,,,,,,,,,,,,,,,,,,,,,,,,,,,,,,,,,,,,,,,,,,,,,,,,,,,,,,,,,,,,,,,,,,,,,,,,,,,,,,,,,,,,,TJJYT8,train_x,blue_star,top_right,2024-12-16_16h12.27.030,HideSeek_v1,2022.2.5,59.9257759407959,
,,,,,,,,,,,,,,,2,0,2,0,1,0,1,0,,,,,,,,,,,,,,,,,,,,,,,,,,,,,,,conditions/schedules/train_x_first/blue_star_00/top_right/instructions/Slide16.png,conditions/schedules/train_x_first/blue_star_00/top_right/instructions/Audio16.wav,1025.3056696000276,1025.3025718000135,16,"[30.079163199989125, 18.454024499980733, 16.88822409999557, 19.60376000002725, 5.3425710999872535, 5.324127600004431, 5.535035899956711, 12.003874799993355, 6.159431500011124, 7.247544799989555, 10.15140590001829, 12.622346399992239, 18.515860999992583, 12.968909999995958, 31.134421599970665, 21.595761599950492]","[30.079182699962985, 18.45403249998344, 16.88823169999523, 19.60376800002996, 5.342580399999861, 5.324135600007139, 5.5350437999586575, 12.003882399993017, 0.014132199983578175, 7.247551599983126, 10.151413700019475, 12.622354799997993, 18.515869299997576, 12.968917699996382, 31.134428899968043, 21.595769299950916]",0,,,,,,,,,,,,,,,,,,,,,,,,,,,,,,,,,,,,,,,,,,,,,,,,,,,,,,,,,,,,,,,,,,,,,,,,,,,,,,,,,,,,,,,,,,,,,,,,,,,,,,,,,,,,,,,,,,,,,,,,,,,,TJJYT8,train_x,blue_star,top_right,2024-12-16_16h12.27.030,HideSeek_v1,2022.2.5,59.9257759407959,
,7,6,4,6,-3,0,31,,train_dim1_1,1,30,,,,2,0,2,0,,,,,,,,,0,0,0,0,0,0,0,0,0,0,0,0,,,,,,,,,,,,,,,,,,,,,,,,,stimuli/alien_stimuli/31.png,,,,,,,,,,,,,,,,,,,,,,,,,,,,,,,,,,,,,,,30,,,,,,,,1047.053294100042,1047.053294100042,1047.053294100042,1047.053294100042,1047.053294100042,left,10.693368800042663,0,0,0,99,0.32,0.08,left,10.554379899986088,,,,,,,,,,,,,,,,,,,,,,,,,,,,,,,,,,,,,,,,,,,,,,,,,,,,,,,,,,,,TJJYT8,train_x,blue_star,top_right,2024-12-16_16h12.27.030,HideSeek_v1,2022.2.5,59.9257759407959,
,7,6,4,6,-3,0,31,,train_dim1_1,1,30,,,,2,0,2,0,,,,,,,,,0,0,0,0,0,0,0,0,1,0,1,0,,,,,,,,,,,,,,,,,,,,,,,,,,,,,,,,,,,,,,,,,,,,,,,,,,,,,,,,,,,,,,,,30,,,,,,,,1057.7189201000147,1057.7189201000147,1057.7189201000147,1057.7189201000147,1057.7189201000147,down,5.19660050002858,0,0,0,99,0.32,0.0,down,5.0894218000466935,,,,,,,,,,,,,,,,,,,,,,,,,,,,,,,,,,,,,,,,,,,,,,,,,,,,,,,,,,,,TJJYT8,train_x,blue_star,top_right,2024-12-16_16h12.27.030,HideSeek_v1,2022.2.5,59.9257759407959,
,7,6,4,6,-3,0,31,,train_dim1_1,1,30,,,,2,0,2,0,,,,,,,,,0,0,0,0,0,0,0,0,2,0,2,0,,,,,,,,,,,,,,,,,,,,,,,,,,,,,,,,,,,,,,,,,,,,,,,,,,,,,,,,,,,,,,,,30,,,,,,,,1062.9016445000307,1062.9016445000307,1062.9016445000307,1062.9016445000307,1062.9016445000307,left,16.70671779999975,0,0,0,99,0.24,0.0,left,16.613945099990815,,,,,,,,,,,,,,,,,,,,,,,,,,,,,,,,,,,,,,,,,,,,,,,,,,,,,,,,,,,,TJJYT8,train_x,blue_star,top_right,2024-12-16_16h12.27.030,HideSeek_v1,2022.2.5,59.9257759407959,
,7,6,4,6,-3,0,31,,train_dim1_1,1,30,,,,2,0,2,0,,,,,,,,,0,0,0,0,0,0,0,0,3,0,3,0,,,,,,,,,,,,,,,,,,,,,,,,,,,,,,,,,,,,,,,,,,,,,,,,,,,,,,,,,,,,,,,,30,,,,,,,,1079.6342842000304,1079.6342842000304,1079.6342842000304,1079.6342842000304,1079.6342842000304,left,2.411454999994021,0,0,0,99,0.15999999999999998,0.0,left,2.3101157000055537,,,,,,,,,,,,,,,,,,,,,,,,,,,,,,,,,,,,,,,,,,,,,,,,,,,,,,,,,,,,TJJYT8,train_x,blue_star,top_right,2024-12-16_16h12.27.030,HideSeek_v1,2022.2.5,59.9257759407959,
,7,6,4,6,-3,0,31,,train_dim1_1,1,30,,,,2,0,2,0,,,,,,,,,0,0,0,0,0,0,0,0,4,0,4,0,,,,,,,,,,,,,,,,,,,,,,,,,,,,,,,,,,,,,,,,,,,,,,,,,,,,,,,,,,,,,,,,30,,,,,,,,1082.0316833000397,1082.0316833000397,1082.0316833000397,1082.0316833000397,1082.0316833000397,return,1.9612092999741435,0,1,0,0,0.15999999999999998,0.0,return,1.8849522999953479,-1,-3,0.15999999999999998,0.0,,,,,,,,,,,,,,,,,,,,,,,,,,,,,,,,,,,,,,,,,,,,,,,,,,,,,,,,TJJYT8,train_x,blue_star,top_right,2024-12-16_16h12.27.030,HideSeek_v1,2022.2.5,59.9257759407959,
,7,9,2,9,-5,0,11,,train_dim1_1,2,30,,,,2,0,2,0,,,,,,,,,0,0,0,0,0,1,1,1,0,0,0,0,,,,,,,,,,,,,,,,,,,,,,,,,stimuli/alien_stimuli/11.png,,,,,,,,,,,,,,,,,,,,,,,,,,,,,stimuli/alien_stimuli/31.png,31,7,3,,,,,,,30,,,,,,,,1114.6362606000039,1114.6362606000039,1114.6362606000039,1114.6362606000039,1114.6362606000039,left,7.910653300001286,0,1,0,99,0.32,0.32,left,7.5047417000168934,,,,,1112.7581000000355,1114.6362606000039,0.16,0.08,0.0,0.24,0.08,0.16,0.28,0.16,0.08,1085.589708900021,1085.589708900021,1085.589708900021,1085.589708900021,1085.589708900021,1085.589708900021,1085.589708900021,1085.589708900021,1085.5857719900202,27.30803690000903,return,27.138483399990946,,,,,,,,,,,,,,,,,,,,,,,,,,,,,,,,,TJJYT8,train_x,blue_star,top_right,2024-12-16_16h12.27.030,HideSeek_v1,2022.2.5,59.9257759407959,
,7,9,2,9,-5,0,11,,train_dim1_1,2,30,,,,2,0,2,0,,,,,,,,,0,0,0,0,0,1,1,1,1,0,1,0,,,,,,,,,,,,,,,,,,,,,,,,,,,,,,,,,,,,,,,,,,,,,,,,,,,,,,,,,,,,,,,,30,,,,,,,,1122.2370937000378,1122.2370937000378,1122.2370937000378,1122.2370937000378,1122.2370937000378,left,1.9276183000183664,0,1,0,99,0.24,0.32,left,1.8467615999979898,,,,,,,,,,,,,,,,,,,,,,,,,,,,,,,,,,,,,,,,,,,,,,,,,,,,,,,,,,,,TJJYT8,train_x,blue_star,top_right,2024-12-16_16h12.27.030,HideSeek_v1,2022.2.5,59.9257759407959,
,7,9,2,9,-5,0,11,,train_dim1_1,2,30,,,,2,0,2,0,,,,,,,,,0,0,0,0,0,1,1,1,2,0,2,0,,,,,,,,,,,,,,,,,,,,,,,,,,,,,,,,,,,,,,,,,,,,,,,,,,,,,,,,,,,,,,,,30,,,,,,,,1124.1713423000183,1124.1713423000183,1124.1713423000183,1124.1713423000183,1124.1713423000183,left,2.061195400019642,0,1,0,99,0.15999999999999998,0.32,left,1.981325900007505,,,,,,,,,,,,,,,,,,,,,,,,,,,,,,,,,,,,,,,,,,,,,,,,,,,,,,,,,,,,TJJYT8,train_x,blue_star,top_right,2024-12-16_16h12.27.030,HideSeek_v1,2022.2.5,59.9257759407959,
,7,9,2,9,-5,0,11,,train_dim1_1,2,30,,,,2,0,2,0,,,,,,,,,0,0,0,0,0,1,1,1,3,0,3,0,,,,,,,,,,,,,,,,,,,,,,,,,,,,,,,,,,,,,,,,,,,,,,,,,,,,,,,,,,,,,,,,30,,,,,,,,1126.2405381000135,1126.2405381000135,1126.2405381000135,1126.2405381000135,1126.2405381000135,down,2.111238899989985,0,1,0,99,0.15999999999999998,0.24,down,2.023280799970962,,,,,,,,,,,,,,,,,,,,,,,,,,,,,,,,,,,,,,,,,,,,,,,,,,,,,,,,,,,,TJJYT8,train_x,blue_star,top_right,2024-12-16_16h12.27.030,HideSeek_v1,2022.2.5,59.9257759407959,
,7,9,2,9,-5,0,11,,train_dim1_1,2,30,,,,2,0,2,0,,,,,,,,,0,0,0,0,0,1,1,1,4,0,4,0,,,,,,,,,,,,,,,,,,,,,,,,,,,,,,,,,,,,,,,,,,,,,,,,,,,,,,,,,,,,,,,,30,,,,,,,,1128.3575109000085,1128.3575109000085,1128.3575109000085,1128.3575109000085,1128.3575109000085,return,1.4274130999692716,0,0,0,0,0.15999999999999998,0.24,return,1.3349949000403285,-2,-6,0.15999999999999998,0.24,,,,,,,,,,,,,,,,,,,,,,,,,,,,,,,,,,,,,,,,,,,,,,,,,,,,,,,,TJJYT8,train_x,blue_star,top_right,2024-12-16_16h12.27.030,HideSeek_v1,2022.2.5,59.9257759407959,
,9,9,5,9,-4,0,21,,train_dim1_1,3,30,,,,2,0,2,0,,,,,,,,,0,0,0,0,0,2,2,2,0,0,0,0,,,,,,,,,,,,,,,,,,,,,,,,,stimuli/alien_stimuli/21.png,,,,,,,,,,,,,,,,,,,,,,,,,,,,,stimuli/alien_stimuli/11.png,11,7,4,,,,,,,30,,,,,,,,1148.0804188000038,1148.0804188000038,1148.0804188000038,1148.0804188000038,1148.0804188000038,down,12.299189700046554,0,0,0,99,0.56,0.24,down,11.877741199976299,,,,,1146.1861289000371,1148.0804188000038,0,0.32,0.0,0.4,0.32,0,0.2,0,0.32,1131.427155100042,1131.427155100042,1131.427155100042,1131.427155100042,1131.427155100042,1131.427155100042,1131.427155100042,1131.427155100042,1131.406915010058,14.948074000014458,return,14.729732200037688,,,,,,,,,,,,,,,,,,,,,,,,,,,,,,,,,TJJYT8,train_x,blue_star,top_right,2024-12-16_16h12.27.030,HideSeek_v1,2022.2.5,59.9257759407959,
,9,9,5,9,-4,0,21,,train_dim1_1,3,30,,,,2,0,2,0,,,,,,,,,0,0,0,0,0,2,2,2,1,0,1,0,,,,,,,,,,,,,,,,,,,,,,,,,,,,,,,,,,,,,,,,,,,,,,,,,,,,,,,,,,,,,,,,30,,,,,,,,1160.0713198000449,1160.0713198000449,1160.0713198000449,1160.0713198000449,1160.0713198000449,down,0.9098144000163302,0,0,0,99,0.56,0.15999999999999998,down,0.80148880003253,,,,,,,,,,,,,,,,,,,,,,,,,,,,,,,,,,,,,,,,,,,,,,,,,,,,,,,,,,,,TJJYT8,train_x,blue_star,top_right,2024-12-16_16h12.27.030,HideSeek_v1,2022.2.5,59.9257759407959,
,9,9,5,9,-4,0,21,,train_dim1_1,3,30,,,,2,0,2,0,,,,,,,,,0,0,0,0,0,2,2,2,2,0,2,0,,,,,,,,,,,,,,,,,,,,,,,,,,,,,,,,,,,,,,,,,,,,,,,,,,,,,,,,,,,,,,,,30,,,,,,,,1160.9680542999995,1160.9680542999995,1160.9680542999995,1160.9680542999995,1160.9680542999995,down,0.24292380001861602,0,0,0,99,0.56,0.07999999999999997,down,0.16144759999588132,,,,,,,,,,,,,,,,,,,,,,,,,,,,,,,,,,,,,,,,,,,,,,,,,,,,,,,,,,,,TJJYT8,train_x,blue_star,top_right,2024-12-16_16h12.27.030,HideSeek_v1,2022.2.5,59.9257759407959,
,9,9,5,9,-4,0,21,,train_dim1_1,3,30,,,,2,0,2,0,,,,,,,,,0,0,0,0,0,2,2,2,3,0,3,0,,,,,,,,,,,,,,,,,,,,,,,,,,,,,,,,,,,,,,,,,,,,,,,,,,,,,,,,,,,,,,,,30,,,,,,,,1161.2180723000201,1161.2180723000201,1161.2180723000201,1161.2180723000201,1161.2180723000201,left,2.778537600010168,0,0,0,99,0.48000000000000004,0.07999999999999997,left,2.6889848999562673,,,,,,,,,,,,,,,,,,,,,,,,,,,,,,,,,,,,,,,,,,,,,,,,,,,,,,,,,,,,TJJYT8,train_x,blue_star,top_right,2024-12-16_16h12.27.030,HideSeek_v1,2022.2.5,59.9257759407959,
,9,9,5,9,-4,0,21,,train_dim1_1,3,30,,,,2,0,2,0,,,,,,,,,0,0,0,0,0,2,2,2,4,0,4,0,,,,,,,,,,,,,,,,,,,,,,,,,,,,,,,,,,,,,,,,,,,,,,,,,,,,,,,,,,,,,,,,30,,,,,,,,1164.0036929000053,1164.0036929000053,1164.0036929000053,1164.0036929000053,1164.0036929000053,left,1.1267694999696687,0,0,0,99,0.4,0.07999999999999997,left,1.0388173999963328,,,,,,,,,,,,,,,,,,,,,,,,,,,,,,,,,,,,,,,,,,,,,,,,,,,,,,,,,,,,TJJYT8,train_x,blue_star,top_right,2024-12-16_16h12.27.030,HideSeek_v1,2022.2.5,59.9257759407959,
,9,9,5,9,-4,0,21,,train_dim1_1,3,30,,,,2,0,2,0,,,,,,,,,0,0,0,0,0,2,2,2,5,0,5,0,,,,,,,,,,,,,,,,,,,,,,,,,,,,,,,,,,,,,,,,,,,,,,,,,,,,,,,,,,,,,,,,30,,,,,,,,1165.138409200008,1165.138409200008,1165.138409200008,1165.138409200008,1165.138409200008,left,0.7769159999443218,0,0,0,99,0.32,0.07999999999999997,left,0.6975200999877416,,,,,,,,,,,,,,,,,,,,,,,,,,,,,,,,,,,,,,,,,,,,,,,,,,,,,,,,,,,,TJJYT8,train_x,blue_star,top_right,2024-12-16_16h12.27.030,HideSeek_v1,2022.2.5,59.9257759407959,
,9,9,5,9,-4,0,21,,train_dim1_1,3,30,,,,2,0,2,0,,,,,,,,,0,0,0,0,0,2,2,2,6,0,6,0,,,,,,,,,,,,,,,,,,,,,,,,,,,,,,,,,,,,,,,,,,,,,,,,,,,,,,,,,,,,,,,,30,,,,,,,,1165.9229209999903,1165.9229209999903,1165.9229209999903,1165.9229209999903,1165.9229209999903,left,0.726763500017114,0,0,0,99,0.24,0.07999999999999997,left,0.6424148000078276,,,,,,,,,,,,,,,,,,,,,,,,,,,,,,,,,,,,,,,,,,,,,,,,,,,,,,,,,,,,TJJYT8,train_x,blue_star,top_right,2024-12-16_16h12.27.030,HideSeek_v1,2022.2.5,59.9257759407959,
,9,9,5,9,-4,0,21,,train_dim1_1,3,30,,,,2,0,2,0,,,,,,,,,0,0,0,0,0,2,2,2,7,0,7,0,,,,,,,,,,,,,,,,,,,,,,,,,,,,,,,,,,,,,,,,,,,,,,,,,,,,,,,,,,,,,,,,30,,,,,,,,1166.6563668000163,1166.6563668000163,1166.6563668000163,1166.6563668000163,1166.6563668000163,left,0.7432191999978386,0,0,0,99,0.15999999999999998,0.07999999999999997,left,0.6534971999935806,,,,,,,,,,,,,,,,,,,,,,,,,,,,,,,,,,,,,,,,,,,,,,,,,,,,,,,,,,,,TJJYT8,train_x,blue_star,top_right,2024-12-16_16h12.27.030,HideSeek_v1,2022.2.5,59.9257759407959,
,9,9,5,9,-4,0,21,,train_dim1_1,3,30,,,,2,0,2,0,,,,,,,,,0,0,0,0,0,2,2,2,8,0,8,0,,,,,,,,,,,,,,,,,,,,,,,,,,,,,,,,,,,,,,,,,,,,,,,,,,,,,,,,,,,,,,,,30,,,,,,,,1167.4068276000326,1167.4068276000326,1167.4068276000326,1167.4068276000326,1167.4068276000326,up,1.7284657999989577,0,0,0,99,0.15999999999999998,0.15999999999999998,up,1.6456367999780923,,,,,,,,,,,,,,,,,,,,,,,,,,,,,,,,,,,,,,,,,,,,,,,,,,,,,,,,,,,,TJJYT8,train_x,blue_star,top_right,2024-12-16_16h12.27.030,HideSeek_v1,2022.2.5,59.9257759407959,
,9,9,5,9,-4,0,21,,train_dim1_1,3,30,,,,2,0,2,0,,,,,,,,,0,0,0,0,0,2,2,2,9,0,9,0,,,,,,,,,,,,,,,,,,,,,,,,,,,,,,,,,,,,,,,,,,,,,,,,,,,,,,,,,,,,,,,,30,,,,,,,,1169.1478474000469,1169.1478474000469,1169.1478474000469,1169.1478474000469,1169.1478474000469,return,0.9552540999720804,0,0,0,0,0.15999999999999998,0.15999999999999998,return,0.870126000023447,-4,-11,0.15999999999999998,0.15999999999999998,,,,,,,,,,,,,,,,,,,,,,,,,,,,,,,,,,,,,,,,,,,,,,,,,,,,,,,,TJJYT8,train_x,blue_star,top_right,2024-12-16_16h12.27.030,HideSeek_v1,2022.2.5,59.9257759407959,
,7,8,6,8,-1,0,51,,train_dim1_1,4,30,,,,2,0,2,0,,,,,,,,,0,0,0,0,0,3,3,3,0,0,0,0,,,,,,,,,,,,,,,,,,,,,,,,,stimuli/alien_stimuli/51.png,,,,,,,,,,,,,,,,,,,,,,,,,,,,,stimuli/alien_stimuli/21.png,21,9,5,,,,,,,30,,,,,,,,1179.639568600047,1179.639568600047,1179.639568600047,1179.639568600047,1179.639568600047,left,7.776997199980542,0,0,0,99,0.32,0.24,left,7.657337100012228,,,,,1178.0457812999957,1179.639568600047,0.24,0.32,0.0,0.32,0.32,0.24,0.4,0.24,0.32,1171.693594100012,1171.693594100012,1171.693594100012,1171.693594100012,1171.693594100012,1171.693594100012,1171.693594100012,1171.693594100012,1171.6741791800248,6.490628700004891,return,6.32516539999051,,,,,,,,,,,,,,,,,,,,,,,,,,,,,,,,,TJJYT8,train_x,blue_star,top_right,2024-12-16_16h12.27.030,HideSeek_v1,2022.2.5,59.9257759407959,
,7,8,6,8,-1,0,51,,train_dim1_1,4,30,,,,2,0,2,0,,,,,,,,,0,0,0,0,0,3,3,3,1,0,1,0,,,,,,,,,,,,,,,,,,,,,,,,,,,,,,,,,,,,,,,,,,,,,,,,,,,,,,,,,,,,,,,,30,,,,,,,,1187.3909137000446,1187.3909137000446,1187.3909137000446,1187.3909137000446,1187.3909137000446,up,3.3283463999978267,0,0,0,99,0.32,0.32,up,3.233854499994777,,,,,,,,,,,,,,,,,,,,,,,,,,,,,,,,,,,,,,,,,,,,,,,,,,,,,,,,,,,,TJJYT8,train_x,blue_star,top_right,2024-12-16_16h12.27.030,HideSeek_v1,2022.2.5,59.9257759407959,
,7,8,6,8,-1,0,51,,train_dim1_1,4,30,,,,2,0,2,0,,,,,,,,,0,0,0,0,0,3,3,3,2,0,2,0,,,,,,,,,,,,,,,,,,,,,,,,,,,,,,,,,,,,,,,,,,,,,,,,,,,,,,,,,,,,,,,,30,,,,,,,,1190.7254851000034,1190.7254851000034,1190.7254851000034,1190.7254851000034,1190.7254851000034,left,1.8941727000055835,0,0,0,99,0.24,0.32,left,1.8114274999825284,,,,,,,,,,,,,,,,,,,,,,,,,,,,,,,,,,,,,,,,,,,,,,,,,,,,,,,,,,,,TJJYT8,train_x,blue_star,top_right,2024-12-16_16h12.27.030,HideSeek_v1,2022.2.5,59.9257759407959,
,7,8,6,8,-1,0,51,,train_dim1_1,4,30,,,,2,0,2,0,,,,,,,,,0,0,0,0,0,3,3,3,3,0,3,0,,,,,,,,,,,,,,,,,,,,,,,,,,,,,,,,,,,,,,,,,,,,,,,,,,,,,,,,,,,,,,,,30,,,,,,,,1192.6251697000116,1192.6251697000116,1192.6251697000116,1192.6251697000116,1192.6251697000116,left,1.5608499000081792,0,0,0,99,0.15999999999999998,0.32,left,1.4779304999974556,,,,,,,,,,,,,,,,,,,,,,,,,,,,,,,,,,,,,,,,,,,,,,,,,,,,,,,,,,,,TJJYT8,train_x,blue_star,top_right,2024-12-16_16h12.27.030,HideSeek_v1,2022.2.5,59.9257759407959,
,7,8,6,8,-1,0,51,,train_dim1_1,4,30,,,,2,0,2,0,,,,,,,,,0,0,0,0,0,3,3,3,4,0,4,0,,,,,,,,,,,,,,,,,,,,,,,,,,,,,,,,,,,,,,,,,,,,,,,,,,,,,,,,,,,,,,,,30,,,,,,,,1194.1937712000217,1194.1937712000217,1194.1937712000217,1194.1937712000217,1194.1937712000217,down,2.2445951999980025,0,0,0,99,0.15999999999999998,0.24,down,2.1655707000172697,,,,,,,,,,,,,,,,,,,,,,,,,,,,,,,,,,,,,,,,,,,,,,,,,,,,,,,,,,,,TJJYT8,train_x,blue_star,top_right,2024-12-16_16h12.27.030,HideSeek_v1,2022.2.5,59.9257759407959,
,7,8,6,8,-1,0,51,,train_dim1_1,4,30,,,,2,0,2,0,,,,,,,,,0,0,0,0,0,3,3,3,5,0,5,0,,,,,,,,,,,,,,,,,,,,,,,,,,,,,,,,,,,,,,,,,,,,,,,,,,,,,,,,,,,,,,,,30,,,,,,,,1196.4487495000358,1196.4487495000358,1196.4487495000358,1196.4487495000358,1196.4487495000358,down,1.3112103000166826,0,0,0,99,0.15999999999999998,0.15999999999999998,down,1.2155728000216186,,,,,,,,,,,,,,,,,,,,,,,,,,,,,,,,,,,,,,,,,,,,,,,,,,,,,,,,,,,,TJJYT8,train_x,blue_star,top_right,2024-12-16_16h12.27.030,HideSeek_v1,2022.2.5,59.9257759407959,
,7,8,6,8,-1,0,51,,train_dim1_1,4,30,,,,2,0,2,0,,,,,,,,,0,0,0,0,0,3,3,3,6,0,6,0,,,,,,,,,,,,,,,,,,,,,,,,,,,,,,,,,,,,,,,,,,,,,,,,,,,,,,,,,,,,,,,,30,,,,,,,,1197.7659467000049,1197.7659467000049,1197.7659467000049,1197.7659467000049,1197.7659467000049,return,1.3271209999802522,0,0,0,0,0.15999999999999998,0.15999999999999998,return,1.2445687999716029,-5,-14,0.15999999999999998,0.15999999999999998,,,,,,,,,,,,,,,,,,,,,,,,,,,,,,,,,,,,,,,,,,,,,,,,,,,,,,,,TJJYT8,train_x,blue_star,top_right,2024-12-16_16h12.27.030,HideSeek_v1,2022.2.5,59.9257759407959,
,5,7,5,7,0,0,61,,train_dim1_1,5,30,,,,2,0,2,0,,,,,,,,,0,0,0,0,0,4,4,4,0,0,0,0,,,,,,,,,,,,,,,,,,,,,,,,,stimuli/alien_stimuli/61.png,,,,,,,,,,,,,,,,,,,,,,,,,,,,,stimuli/alien_stimuli/51.png,51,7,6,,,,,,,30,,,,,,,,1207.3522363000084,1207.3522363000084,1207.3522363000084,1207.3522363000084,1207.3522363000084,return,10.029358699976001,1,0,0,1,0.24,0.16,return,9.942466999986209,-5,-14,0.24,0.16,1205.7859520000056,1207.3522363000084,0.32,0.24,0.0,0.08,0.24,0.32,0.36,0.32,0.24,1200.6801306999987,1200.6801306999987,1200.6801306999987,1200.6801306999987,1200.6801306999987,1200.6801306999987,1200.6801306999987,1200.6801306999987,1200.6647129800056,5.240272000024561,return,5.085399299976416,,,,,,,,,,,,,,,,,,,,,,,,,,,,,,,,,TJJYT8,train_x,blue_star,top_right,2024-12-16_16h12.27.030,HideSeek_v1,2022.2.5,59.9257759407959,
,5,5,1,5,-4,0,21,,train_dim1_1,6,30,,,,2,0,2,0,,,,,,,,,0,0,0,0,0,5,5,5,0,0,0,0,,,,,,,,,,,,,,,,,,,,,,,,,stimuli/alien_stimuli/21.png,,,,,,,,,,,,,,,,,,,,,,,,,,,,,stimuli/alien_stimuli/61.png,61,5,7,,,,,,,30,,,,,,,,1228.91530350002,1228.91530350002,1228.91530350002,1228.91530350002,1228.91530350002,return,7.743687900016084,1,0,0,0,0.24,0,return,7.646275200007949,-5,-14,0.24,0,1227.336783900042,1228.91530350002,0.24,0.16,0.0,0.0,0.16,0.24,0.24,0.24,0.16,1218.9903642000281,1218.9903642000281,1218.9903642000281,1218.9903642000281,1218.9903642000281,1218.9903642000281,1218.9903642000281,1218.9903642000281,1218.9797433000058,8.509225599991623,return,8.321579999988899,,,,,,,,,,,,,,,,,,,,,,,,,,,,,,,,,TJJYT8,train_x,blue_star,top_right,2024-12-16_16h12.27.030,HideSeek_v1,2022.2.5,59.9257759407959,
,8,5,8,5,0,0,61,,train_dim1_1,7,30,,,,2,0,2,0,,,,,,,,,0,0,0,0,0,6,6,6,0,0,0,0,,,,,,,,,,,,,,,,,,,,,,,,,stimuli/alien_stimuli/61.png,,,,,,,,,,,,,,,,,,,,,,,,,,,,,stimuli/alien_stimuli/21.png,21,5,8,,,,,,,30,,,,,,,,1244.184053200006,1244.184053200006,1244.184053200006,1244.184053200006,1244.184053200006,left,10.647591100016143,1,0,0,99,0.39999999999999997,0,left,10.554814200033434,,,,,1242.6161025000038,1244.184053200006,-0.08,0,0.0,0.32,0.0,-0.08,0.07999999999999999,-0.08,0,1238.24106510001,1238.24106510001,1238.24106510001,1238.24106510001,1238.24106510001,1238.24106510001,1238.24106510001,1238.24106510001,1238.2292405900196,4.522522299957927,return,4.346755800012033,,,,,,,,,,,,,,,,,,,,,,,,,,,,,,,,,TJJYT8,train_x,blue_star,top_right,2024-12-16_16h12.27.030,HideSeek_v1,2022.2.5,59.9257759407959,
,8,5,8,5,0,0,61,,train_dim1_1,7,30,,,,2,0,2,0,,,,,,,,,0,0,0,0,0,6,6,6,1,0,1,0,,,,,,,,,,,,,,,,,,,,,,,,,,,,,,,,,,,,,,,,,,,,,,,,,,,,,,,,,,,,,,,,30,,,,,,,,1254.8367867000052,1254.8367867000052,1254.8367867000052,1254.8367867000052,1254.8367867000052,return,2.4443565999972634,1,1,0,0,0.39999999999999997,0,return,2.3575432000216097,-5,-15,0.39999999999999997,0,,,,,,,,,,,,,,,,,,,,,,,,,,,,,,,,,,,,,,,,,,,,,,,,,,,,,,,,TJJYT8,train_x,blue_star,top_right,2024-12-16_16h12.27.030,HideSeek_v1,2022.2.5,59.9257759407959,
,5,9,2,9,-3,0,31,,train_dim1_1,8,30,,,,2,0,2,0,,,,,,,,,0,0,0,0,0,7,7,7,0,0,0,0,,,,,,,,,,,,,,,,,,,,,,,,,stimuli/alien_stimuli/31.png,,,,,,,,,,,,,,,,,,,,,,,,,,,,,stimuli/alien_stimuli/61.png,61,8,9,,,,,,,30,,,,,,,,1267.2892268000287,1267.2892268000287,1267.2892268000287,1267.2892268000287,1267.2892268000287,left,7.844340200012084,1,1,0,99,0.15999999999999998,0.32,left,7.742163199989591,,,,,1265.7187432000064,1267.2892268000287,0.48,0,0.0,0.0,0.0,0.48,0.48,0.48,0,1258.8631110000424,1258.8631110000424,1258.8631110000424,1258.8631110000424,1258.8631110000424,1258.8631110000424,1258.8631110000424,1258.8631110000424,1258.8462120800048,6.991648399969563,return,6.827921400021296,,,,,,,,,,,,,,,,,,,,,,,,,,,,,,,,,TJJYT8,train_x,blue_star,top_right,2024-12-16_16h12.27.030,HideSeek_v1,2022.2.5,59.9257759407959,
,5,9,2,9,-3,0,31,,train_dim1_1,8,30,,,,2,0,2,0,,,,,,,,,0,0,0,0,0,7,7,7,1,0,1,0,,,,,,,,,,,,,,,,,,,,,,,,,,,,,,,,,,,,,,,,,,,,,,,,,,,,,,,,,,,,,,,,30,,,,,,,,1275.1271389000467,1275.1271389000467,1275.1271389000467,1275.1271389000467,1275.1271389000467,return,1.376806599961128,1,0,0,0,0.15999999999999998,0.32,return,1.2859632999752648,-5,-16,0.15999999999999998,0.32,,,,,,,,,,,,,,,,,,,,,,,,,,,,,,,,,,,,,,,,,,,,,,,,,,,,,,,,TJJYT8,train_x,blue_star,top_right,2024-12-16_16h12.27.030,HideSeek_v1,2022.2.5,59.9257759407959,
,6,5,5,5,-1,0,51,,train_dim1_1,9,30,,,,2,0,2,0,,,,,,,,,0,0,0,0,0,8,8,8,0,0,0,0,,,,,,,,,,,,,,,,,,,,,,,,,stimuli/alien_stimuli/51.png,,,,,,,,,,,,,,,,,,,,,,,,,,,,,stimuli/alien_stimuli/31.png,31,5,10,,,,,,,30,,,,,,,,1283.0522242000443,1283.0522242000443,1283.0522242000443,1283.0522242000443,1283.0522242000443,left,4.741792400018312,1,0,0,99,0.24,0,left,4.639570600003935,,,,,1281.4819539000164,1283.0522242000443,0,0.32,0.0,0.24,0.32,0,0.12,0,0.32,1278.0884645000333,1278.0884645000333,1278.0884645000333,1278.0884645000333,1278.0884645000333,1278.0884645000333,1278.0884645000333,1278.0884645000333,1278.0789628800355,3.5223692000145093,return,3.3732172999880277,,,,,,,,,,,,,,,,,,,,,,,,,,,,,,,,,TJJYT8,train_x,blue_star,top_right,2024-12-16_16h12.27.030,HideSeek_v1,2022.2.5,59.9257759407959,
,6,5,5,5,-1,0,51,,train_dim1_1,9,30,,,,2,0,2,0,,,,,,,,,0,0,0,0,0,8,8,8,1,0,1,0,,,,,,,,,,,,,,,,,,,,,,,,,,,,,,,,,,,,,,,,,,,,,,,,,,,,,,,,,,,,,,,,30,,,,,,,,1287.7902752000373,1287.7902752000373,1287.7902752000373,1287.7902752000373,1287.7902752000373,left,1.7768121000262909,1,0,0,99,0.15999999999999998,0,left,1.695655599993188,,,,,,,,,,,,,,,,,,,,,,,,,,,,,,,,,,,,,,,,,,,,,,,,,,,,,,,,,,,,TJJYT8,train_x,blue_star,top_right,2024-12-16_16h12.27.030,HideSeek_v1,2022.2.5,59.9257759407959,
,6,5,5,5,-1,0,51,,train_dim1_1,9,30,,,,2,0,2,0,,,,,,,,,0,0,0,0,0,8,8,8,2,0,2,0,,,,,,,,,,,,,,,,,,,,,,,,,,,,,,,,,,,,,,,,,,,,,,,,,,,,,,,,,,,,,,,,30,,,,,,,,1289.5742245000438,1289.5742245000438,1289.5742245000438,1289.5742245000438,1289.5742245000438,return,2.878854100010358,1,1,0,0,0.15999999999999998,0,return,2.7974176999996416,-5,-18,0.15999999999999998,0,,,,,,,,,,,,,,,,,,,,,,,,,,,,,,,,,,,,,,,,,,,,,,,,,,,,,,,,TJJYT8,train_x,blue_star,top_right,2024-12-16_16h12.27.030,HideSeek_v1,2022.2.5,59.9257759407959,
,5,8,0,8,-5,0,11,,train_dim1_1,10,30,,,,2,0,2,0,,,,,,,,,0,0,0,0,0,9,9,9,0,0,0,0,,,,,,,,,,,,,,,,,,,,,,,,,stimuli/alien_stimuli/11.png,,,,,,,,,,,,,,,,,,,,,,,,,,,,,stimuli/alien_stimuli/51.png,51,6,11,,,,,,,30,,,,,,,,1301.4384582000202,1301.4384582000202,1301.4384582000202,1301.4384582000202,1301.4384582000202,down,5.276482999965083,1,1,0,99,0.24,0.15999999999999998,down,5.170078199997079,,,,,1299.8636642000056,1301.4384582000202,0.24,0,0.0,0.08,0.0,0.24,0.28,0.24,0,1294.0686648000265,1294.0686648000265,1294.0686648000265,1294.0686648000265,1294.0686648000265,1294.0686648000265,1294.0686648000265,1294.0686648000265,1294.058930900006,5.957325300027151,return,5.765998699993361,,,,,,,,,,,,,,,,,,,,,,,,,,,,,,,,,TJJYT8,train_x,blue_star,top_right,2024-12-16_16h12.27.030,HideSeek_v1,2022.2.5,59.9257759407959,
,5,8,0,8,-5,0,11,,train_dim1_1,10,30,,,,2,0,2,0,,,,,,,,,0,0,0,0,0,9,9,9,1,0,1,0,,,,,,,,,,,,,,,,,,,,,,,,,,,,,,,,,,,,,,,,,,,,,,,,,,,,,,,,,,,,,,,,30,,,,,,,,1306.707032300008,1306.707032300008,1306.707032300008,1306.707032300008,1306.707032300008,down,1.7273589000105858,1,1,0,99,0.24,0.07999999999999997,down,1.641949700016994,,,,,,,,,,,,,,,,,,,,,,,,,,,,,,,,,,,,,,,,,,,,,,,,,,,,,,,,,,,,TJJYT8,train_x,blue_star,top_right,2024-12-16_16h12.27.030,HideSeek_v1,2022.2.5,59.9257759407959,
,5,8,0,8,-5,0,11,,train_dim1_1,10,30,,,,2,0,2,0,,,,,,,,,0,0,0,0,0,9,9,9,2,0,2,0,,,,,,,,,,,,,,,,,,,,,,,,,,,,,,,,,,,,,,,,,,,,,,,,,,,,,,,,,,,,,,,,30,,,,,,,,1308.4418556000455,1308.4418556000455,1308.4418556000455,1308.4418556000455,1308.4418556000455,left,3.7126220000209287,1,1,0,99,0.15999999999999998,0.07999999999999997,left,3.6251814999850467,,,,,,,,,,,,,,,,,,,,,,,,,,,,,,,,,,,,,,,,,,,,,,,,,,,,,,,,,,,,TJJYT8,train_x,blue_star,top_right,2024-12-16_16h12.27.030,HideSeek_v1,2022.2.5,59.9257759407959,
,5,8,0,8,-5,0,11,,train_dim1_1,10,30,,,,2,0,2,0,,,,,,,,,0,0,0,0,0,9,9,9,3,0,3,0,,,,,,,,,,,,,,,,,,,,,,,,,,,,,,,,,,,,,,,,,,,,,,,,,,,,,,,,,,,,,,,,30,,,,,,,,1312.1654908999917,1312.1654908999917,1312.1654908999917,1312.1654908999917,1312.1654908999917,return,0.9933346000034362,1,0,0,0,0.15999999999999998,0.07999999999999997,return,0.8946015000110492,-7,-19,0.15999999999999998,0.07999999999999997,,,,,,,,,,,,,,,,,,,,,,,,,,,,,,,,,,,,,,,,,,,,,,,,,,,,,,,,TJJYT8,train_x,blue_star,top_right,2024-12-16_16h12.27.030,HideSeek_v1,2022.2.5,59.9257759407959,
,7,7,4,7,-3,0,31,,train_dim1_1,11,30,,,,2,0,2,0,,,,,,,,,0,0,0,0,0,10,10,10,0,0,0,0,,,,,,,,,,,,,,,,,,,,,,,,,stimuli/alien_stimuli/31.png,,,,,,,,,,,,,,,,,,,,,,,,,,,,,stimuli/alien_stimuli/11.png,11,5,12,,,,,,,30,,,,,,,,1322.8517225999967,1322.8517225999967,1322.8517225999967,1322.8517225999967,1322.8517225999967,left,4.892284600005951,1,0,0,99,0.32,0.16,left,4.800128799979575,,,,,1321.2816744000302,1322.8517225999967,-0.16,0.24,0.0,0.4,0.24,-0.16,0.039999999999999994,-0.16,0.24,1314.7457299000234,1314.7457299000234,1314.7457299000234,1314.7457299000234,1314.7457299000234,1314.7457299000234,1314.7457299000234,1314.7457299000234,1314.7261882800028,6.674748499994166,return,6.517809199984185,,,,,,,,,,,,,,,,,,,,,,,,,,,,,,,,,TJJYT8,train_x,blue_star,top_right,2024-12-16_16h12.27.030,HideSeek_v1,2022.2.5,59.9257759407959,
,7,7,4,7,-3,0,31,,train_dim1_1,11,30,,,,2,0,2,0,,,,,,,,,0,0,0,0,0,10,10,10,1,0,1,0,,,,,,,,,,,,,,,,,,,,,,,,,,,,,,,,,,,,,,,,,,,,,,,,,,,,,,,,,,,,,,,,30,,,,,,,,1327.7484977000277,1327.7484977000277,1327.7484977000277,1327.7484977000277,1327.7484977000277,left,0.7591035999939777,1,0,0,99,0.24,0.16,left,0.6677066999836825,,,,,,,,,,,,,,,,,,,,,,,,,,,,,,,,,,,,,,,,,,,,,,,,,,,,,,,,,,,,TJJYT8,train_x,blue_star,top_right,2024-12-16_16h12.27.030,HideSeek_v1,2022.2.5,59.9257759407959,
,7,7,4,7,-3,0,31,,train_dim1_1,11,30,,,,2,0,2,0,,,,,,,,,0,0,0,0,0,10,10,10,2,0,2,0,,,,,,,,,,,,,,,,,,,,,,,,,,,,,,,,,,,,,,,,,,,,,,,,,,,,,,,,,,,,,,,,30,,,,,,,,1328.5047422000207,1328.5047422000207,1328.5047422000207,1328.5047422000207,1328.5047422000207,left,0.9932676000171341,1,0,0,99,0.15999999999999998,0.16,left,0.9097579999943264,,,,,,,,,,,,,,,,,,,,,,,,,,,,,,,,,,,,,,,,,,,,,,,,,,,,,,,,,,,,TJJYT8,train_x,blue_star,top_right,2024-12-16_16h12.27.030,HideSeek_v1,2022.2.5,59.9257759407959,
,7,7,4,7,-3,0,31,,train_dim1_1,11,30,,,,2,0,2,0,,,,,,,,,0,0,0,0,0,10,10,10,3,0,3,0,,,,,,,,,,,,,,,,,,,,,,,,,,,,,,,,,,,,,,,,,,,,,,,,,,,,,,,,,,,,,,,,30,,,,,,,,1329.505324000027,1329.505324000027,1329.505324000027,1329.505324000027,1329.505324000027,return,1.8944634000072256,2,0,0,1,0.15999999999999998,0.16,return,1.8053270999807864,-7,-22,0.15999999999999998,0.16,,,,,,,,,,,,,,,,,,,,,,,,,,,,,,,,,,,,,,,,,,,,,,,,,,,,,,,,TJJYT8,train_x,blue_star,top_right,2024-12-16_16h12.27.030,HideSeek_v1,2022.2.5,59.9257759407959,
,5,5,1,5,-4,0,21,,train_dim1_1,12,30,,,,2,0,2,0,,,,,,,,,0,0,0,0,0,11,11,11,0,0,0,0,,,,,,,,,,,,,,,,,,,,,,,,,stimuli/alien_stimuli/21.png,,,,,,,,,,,,,,,,,,,,,,,,,,,,,stimuli/alien_stimuli/31.png,31,7,13,,,,,,,30,,,,,,,,1340.721166000003,1340.721166000003,1340.721166000003,1340.721166000003,1340.721166000003,left,2.5555773000232875,2,0,0,99,0.15999999999999998,0,left,2.4488046999904327,,,,,1339.1464919000282,1340.721166000003,0.16,0.16,0.0,0.24,0.16,0.16,0.28,0.16,0.16,1332.9824702999904,1332.9824702999904,1332.9824702999904,1332.9824702999904,1332.9824702999904,1332.9824702999904,1332.9824702999904,1332.9824702999904,1332.9745560800309,6.290731200017035,return,6.138546400004998,,,,,,,,,,,,,,,,,,,,,,,,,,,,,,,,,TJJYT8,train_x,blue_star,top_right,2024-12-16_16h12.27.030,HideSeek_v1,2022.2.5,59.9257759407959,
,5,5,1,5,-4,0,21,,train_dim1_1,12,30,,,,2,0,2,0,,,,,,,,,0,0,0,0,0,11,11,11,1,0,1,0,,,,,,,,,,,,,,,,,,,,,,,,,,,,,,,,,,,,,,,,,,,,,,,,,,,,,,,,,,,,,,,,30,,,,,,,,1343.288491400017,1343.288491400017,1343.288491400017,1343.288491400017,1343.288491400017,left,0.6259011999936774,2,0,0,99,0.07999999999999997,0,left,0.521296999999322,,,,,,,,,,,,,,,,,,,,,,,,,,,,,,,,,,,,,,,,,,,,,,,,,,,,,,,,,,,,TJJYT8,train_x,blue_star,top_right,2024-12-16_16h12.27.030,HideSeek_v1,2022.2.5,59.9257759407959,
,5,5,1,5,-4,0,21,,train_dim1_1,12,30,,,,2,0,2,0,,,,,,,,,0,0,0,0,0,11,11,11,2,0,2,0,,,,,,,,,,,,,,,,,,,,,,,,,,,,,,,,,,,,,,,,,,,,,,,,,,,,,,,,,,,,,,,,30,,,,,,,,1343.9051091000438,1343.9051091000438,1343.9051091000438,1343.9051091000438,1343.9051091000438,left,0.6424700999632478,2,0,0,99,-2.7755575615628914e-17,0,left,0.5554843999561854,,,,,,,,,,,,,,,,,,,,,,,,,,,,,,,,,,,,,,,,,,,,,,,,,,,,,,,,,,,,TJJYT8,train_x,blue_star,top_right,2024-12-16_16h12.27.030,HideSeek_v1,2022.2.5,59.9257759407959,
,5,5,1,5,-4,0,21,,train_dim1_1,12,30,,,,2,0,2,0,,,,,,,,,0,0,0,0,0,11,11,11,3,0,3,0,,,,,,,,,,,,,,,,,,,,,,,,,,,,,,,,,,,,,,,,,,,,,,,,,,,,,,,,,,,,,,,,30,,,,,,,,1344.557455000002,1344.557455000002,1344.557455000002,1344.557455000002,1344.557455000002,left,0.6734033999964595,2,0,0,99,-0.08000000000000003,0,left,0.5912917999667116,,,,,,,,,,,,,,,,,,,,,,,,,,,,,,,,,,,,,,,,,,,,,,,,,,,,,,,,,,,,TJJYT8,train_x,blue_star,top_right,2024-12-16_16h12.27.030,HideSeek_v1,2022.2.5,59.9257759407959,
,5,5,1,5,-4,0,21,,train_dim1_1,12,30,,,,2,0,2,0,,,,,,,,,0,0,0,0,0,11,11,11,4,0,4,0,,,,,,,,,,,,,,,,,,,,,,,,,,,,,,,,,,,,,,,,,,,,,,,,,,,,,,,,,,,,,,,,30,,,,,,,,1345.238319600001,1345.238319600001,1345.238319600001,1345.238319600001,1345.238319600001,left,0.6432868000119925,2,0,0,99,-0.16000000000000003,0,left,0.5634981999755837,,,,,,,,,,,,,,,,,,,,,,,,,,,,,,,,,,,,,,,,,,,,,,,,,,,,,,,,,,,,TJJYT8,train_x,blue_star,top_right,2024-12-16_16h12.27.030,HideSeek_v1,2022.2.5,59.9257759407959,
,5,5,1,5,-4,0,21,,train_dim1_1,12,30,,,,2,0,2,0,,,,,,,,,0,0,0,0,0,11,11,11,5,0,5,0,,,,,,,,,,,,,,,,,,,,,,,,,,,,,,,,,,,,,,,,,,,,,,,,,,,,,,,,,,,,,,,,30,,,,,,,,1345.8882395999972,1345.8882395999972,1345.8882395999972,1345.8882395999972,1345.8882395999972,up,1.29379860003246,2,0,0,99,-0.16000000000000003,0.08,up,1.2105889999656938,,,,,,,,,,,,,,,,,,,,,,,,,,,,,,,,,,,,,,,,,,,,,,,,,,,,,,,,,,,,TJJYT8,train_x,blue_star,top_right,2024-12-16_16h12.27.030,HideSeek_v1,2022.2.5,59.9257759407959,
,5,5,1,5,-4,0,21,,train_dim1_1,12,30,,,,2,0,2,0,,,,,,,,,0,0,0,0,0,11,11,11,6,0,6,0,,,,,,,,,,,,,,,,,,,,,,,,,,,,,,,,,,,,,,,,,,,,,,,,,,,,,,,,,,,,,,,,30,,,,,,,,1347.189338700031,1347.189338700031,1347.189338700031,1347.189338700031,1347.189338700031,return,1.2939808000228368,2,0,0,0,-0.16000000000000003,0.08,return,1.2051253999816254,-6,-27,-0.16000000000000003,0.08,,,,,,,,,,,,,,,,,,,,,,,,,,,,,,,,,,,,,,,,,,,,,,,,,,,,,,,,TJJYT8,train_x,blue_star,top_right,2024-12-16_16h12.27.030,HideSeek_v1,2022.2.5,59.9257759407959,
,5,9,4,9,-1,0,51,,train_dim1_1,13,30,,,,2,0,2,0,,,,,,,,,0,0,0,0,0,12,12,12,0,0,0,0,,,,,,,,,,,,,,,,,,,,,,,,,stimuli/alien_stimuli/51.png,,,,,,,,,,,,,,,,,,,,,,,,,,,,,stimuli/alien_stimuli/21.png,21,5,14,,,,,,,30,,,,,,,,1355.113638800045,1355.113638800045,1355.113638800045,1355.113638800045,1355.113638800045,return,5.909800300025381,2,1,0,0,0.24,0.32,return,5.810148199961986,-6,-27,0.24,0.32,1353.5416508000344,1355.113638800045,-0.08,0,0.0,0.32,0.0,-0.08,0.07999999999999999,-0.08,0,1350.0773441999918,1350.0773441999918,1350.0773441999918,1350.0773441999918,1350.0773441999918,1350.0773441999918,1350.0773441999918,1350.0773441999918,1350.0553405800254,3.6052197000244632,return,3.440946199989412,,,,,,,,,,,,,,,,,,,,,,,,,,,,,,,,,TJJYT8,train_x,blue_star,top_right,2024-12-16_16h12.27.030,HideSeek_v1,2022.2.5,59.9257759407959,
,9,8,4,8,-5,0,11,,train_dim1_1,14,30,,,,2,0,2,0,,,,,,,,,0,0,0,0,0,13,13,13,0,0,0,0,,,,,,,,,,,,,,,,,,,,,,,,,stimuli/alien_stimuli/11.png,,,,,,,,,,,,,,,,,,,,,,,,,,,,,stimuli/alien_stimuli/51.png,51,5,15,,,,,,,30,,,,,,,,1366.7326492000138,1366.7326492000138,1366.7326492000138,1366.7326492000138,1366.7326492000138,left,4.659051799972076,2,1,0,99,0.48000000000000004,0.24,left,4.542330199969001,,,,,1365.1513752000174,1366.7326492000138,0.16,0.32,0.0,0.08,0.32,0.16,0.2,0.16,0.32,1362.5945857000188,1362.5945857000188,1362.5945857000188,1362.5945857000188,1362.5945857000188,1362.5945857000188,1362.5945857000188,1362.5945857000188,1362.5828004800367,2.6873016000026837,return,2.528234099969268,,,,,,,,,,,,,,,,,,,,,,,,,,,,,,,,,TJJYT8,train_x,blue_star,top_right,2024-12-16_16h12.27.030,HideSeek_v1,2022.2.5,59.9257759407959,
,9,8,4,8,-5,0,11,,train_dim1_1,14,30,,,,2,0,2,0,,,,,,,,,0,0,0,0,0,13,13,13,1,0,1,0,,,,,,,,,,,,,,,,,,,,,,,,,,,,,,,,,,,,,,,,,,,,,,,,,,,,,,,,,,,,,,,,30,,,,,,,,1371.37756480003,1371.37756480003,1371.37756480003,1371.37756480003,1371.37756480003,left,0.5594151999684982,2,1,0,99,0.4,0.24,left,0.4782589999958873,,,,,,,,,,,,,,,,,,,,,,,,,,,,,,,,,,,,,,,,,,,,,,,,,,,,,,,,,,,,TJJYT8,train_x,blue_star,top_right,2024-12-16_16h12.27.030,HideSeek_v1,2022.2.5,59.9257759407959,
,9,8,4,8,-5,0,11,,train_dim1_1,14,30,,,,2,0,2,0,,,,,,,,,0,0,0,0,0,13,13,13,2,0,2,0,,,,,,,,,,,,,,,,,,,,,,,,,,,,,,,,,,,,,,,,,,,,,,,,,,,,,,,,,,,,,,,,30,,,,,,,,1371.944323600037,1371.944323600037,1371.944323600037,1371.944323600037,1371.944323600037,left,0.6431846000486985,2,1,0,99,0.32,0.24,left,0.5507672000094317,,,,,,,,,,,,,,,,,,,,,,,,,,,,,,,,,,,,,,,,,,,,,,,,,,,,,,,,,,,,TJJYT8,train_x,blue_star,top_right,2024-12-16_16h12.27.030,HideSeek_v1,2022.2.5,59.9257759407959,
,9,8,4,8,-5,0,11,,train_dim1_1,14,30,,,,2,0,2,0,,,,,,,,,0,0,0,0,0,13,13,13,3,0,3,0,,,,,,,,,,,,,,,,,,,,,,,,,,,,,,,,,,,,,,,,,,,,,,,,,,,,,,,,,,,,,,,,30,,,,,,,,1372.5931098000146,1372.5931098000146,1372.5931098000146,1372.5931098000146,1372.5931098000146,left,0.543426200048998,2,1,0,99,0.24,0.24,left,0.45465949998470023,,,,,,,,,,,,,,,,,,,,,,,,,,,,,,,,,,,,,,,,,,,,,,,,,,,,,,,,,,,,TJJYT8,train_x,blue_star,top_right,2024-12-16_16h12.27.030,HideSeek_v1,2022.2.5,59.9257759407959,
,9,8,4,8,-5,0,11,,train_dim1_1,14,30,,,,2,0,2,0,,,,,,,,,0,0,0,0,0,13,13,13,4,0,4,0,,,,,,,,,,,,,,,,,,,,,,,,,,,,,,,,,,,,,,,,,,,,,,,,,,,,,,,,,,,,,,,,30,,,,,,,,1373.1456614999915,1373.1456614999915,1373.1456614999915,1373.1456614999915,1373.1456614999915,left,0.6930864999885671,2,1,0,99,0.15999999999999998,0.24,left,0.6030064999940805,,,,,,,,,,,,,,,,,,,,,,,,,,,,,,,,,,,,,,,,,,,,,,,,,,,,,,,,,,,,TJJYT8,train_x,blue_star,top_right,2024-12-16_16h12.27.030,HideSeek_v1,2022.2.5,59.9257759407959,
,9,8,4,8,-5,0,11,,train_dim1_1,14,30,,,,2,0,2,0,,,,,,,,,0,0,0,0,0,13,13,13,5,0,5,0,,,,,,,,,,,,,,,,,,,,,,,,,,,,,,,,,,,,,,,,,,,,,,,,,,,,,,,,,,,,,,,,30,,,,,,,,1373.8489512000233,1373.8489512000233,1373.8489512000233,1373.8489512000233,1373.8489512000233,left,0.6767153000109829,2,1,0,99,0.07999999999999997,0.24,left,0.5914439000189304,,,,,,,,,,,,,,,,,,,,,,,,,,,,,,,,,,,,,,,,,,,,,,,,,,,,,,,,,,,,TJJYT8,train_x,blue_star,top_right,2024-12-16_16h12.27.030,HideSeek_v1,2022.2.5,59.9257759407959,
,9,8,4,8,-5,0,11,,train_dim1_1,14,30,,,,2,0,2,0,,,,,,,,,0,0,0,0,0,13,13,13,6,0,6,0,,,,,,,,,,,,,,,,,,,,,,,,,,,,,,,,,,,,,,,,,,,,,,,,,,,,,,,,,,,,,,,,30,,,,,,,,1374.5293333000154,1374.5293333000154,1374.5293333000154,1374.5293333000154,1374.5293333000154,left,0.6766691999509931,2,1,0,99,-2.7755575615628914e-17,0.24,left,0.5978448999812827,,,,,,,,,,,,,,,,,,,,,,,,,,,,,,,,,,,,,,,,,,,,,,,,,,,,,,,,,,,,TJJYT8,train_x,blue_star,top_right,2024-12-16_16h12.27.030,HideSeek_v1,2022.2.5,59.9257759407959,
,9,8,4,8,-5,0,11,,train_dim1_1,14,30,,,,2,0,2,0,,,,,,,,,0,0,0,0,0,13,13,13,7,0,7,0,,,,,,,,,,,,,,,,,,,,,,,,,,,,,,,,,,,,,,,,,,,,,,,,,,,,,,,,,,,,,,,,30,,,,,,,,1375.2127606000286,1375.2127606000286,1375.2127606000286,1375.2127606000286,1375.2127606000286,left,0.5601505999802612,2,1,0,99,-0.08000000000000003,0.24,left,0.4793251000228338,,,,,,,,,,,,,,,,,,,,,,,,,,,,,,,,,,,,,,,,,,,,,,,,,,,,,,,,,,,,TJJYT8,train_x,blue_star,top_right,2024-12-16_16h12.27.030,HideSeek_v1,2022.2.5,59.9257759407959,
,9,8,4,8,-5,0,11,,train_dim1_1,14,30,,,,2,0,2,0,,,,,,,,,0,0,0,0,0,13,13,13,8,0,8,0,,,,,,,,,,,,,,,,,,,,,,,,,,,,,,,,,,,,,,,,,,,,,,,,,,,,,,,,,,,,,,,,30,,,,,,,,1375.781112800003,1375.781112800003,1375.781112800003,1375.781112800003,1375.781112800003,left,0.49270860000979155,2,1,0,99,-0.16000000000000003,0.24,left,0.41044700000202283,,,,,,,,,,,,,,,,,,,,,,,,,,,,,,,,,,,,,,,,,,,,,,,,,,,,,,,,,,,,TJJYT8,train_x,blue_star,top_right,2024-12-16_16h12.27.030,HideSeek_v1,2022.2.5,59.9257759407959,
,9,8,4,8,-5,0,11,,train_dim1_1,14,30,,,,2,0,2,0,,,,,,,,,0,0,0,0,0,13,13,13,9,0,9,0,,,,,,,,,,,,,,,,,,,,,,,,,,,,,,,,,,,,,,,,,,,,,,,,,,,,,,,,,,,,,,,,30,,,,,,,,1376.2800755000208,1376.2800755000208,1376.2800755000208,1376.2800755000208,1376.2800755000208,return,1.4941645999788307,2,0,0,0,-0.16000000000000003,0.24,return,1.4001511000096798,-6,-36,-0.16000000000000003,0.24,,,,,,,,,,,,,,,,,,,,,,,,,,,,,,,,,,,,,,,,,,,,,,,,,,,,,,,,TJJYT8,train_x,blue_star,top_right,2024-12-16_16h12.27.030,HideSeek_v1,2022.2.5,59.9257759407959,
,9,7,9,7,0,0,61,,train_dim1_1,15,30,,,,2,0,2,0,,,,,,,,,0,0,0,0,0,14,14,14,0,0,0,0,,,,,,,,,,,,,,,,,,,,,,,,,stimuli/alien_stimuli/61.png,,,,,,,,,,,,,,,,,,,,,,,,,,,,,stimuli/alien_stimuli/11.png,11,9,16,,,,,,,30,,,,,,,,1385.934207800019,1385.934207800019,1385.934207800019,1385.934207800019,1385.934207800019,return,2.1734685999690555,3,0,0,1,0.56,0.16,return,2.0744438000256196,-6,-36,0.56,0.16,1384.3673957000137,1385.934207800019,0.16,0.24,0.0,0.4,0.24,0.16,0.36000000000000004,0.16,0.24,1379.3666438999935,1379.3666438999935,1379.3666438999935,1379.3666438999935,1379.3666438999935,1379.3666438999935,1379.3666438999935,1379.3666438999935,1379.3464471800487,5.139705599984154,return,4.974333599966485,,,,,,,,,,,,,,,,,,,,,,,,,,,,,,,,,TJJYT8,train_x,blue_star,top_right,2024-12-16_16h12.27.030,HideSeek_v1,2022.2.5,59.9257759407959,
,8,8,7,8,-1,0,51,,train_dim1_1,16,30,,,,2,0,2,0,,,,,,,,,0,0,0,0,0,15,15,15,0,0,0,0,,,,,,,,,,,,,,,,,,,,,,,,,stimuli/alien_stimuli/51.png,,,,,,,,,,,,,,,,,,,,,,,,,,,,,stimuli/alien_stimuli/61.png,61,9,17,,,,,,,30,,,,,,,,1394.5462344000116,1394.5462344000116,1394.5462344000116,1394.5462344000116,1394.5462344000116,left,2.889262000040617,3,0,0,99,0.39999999999999997,0.24,left,2.7968655999866314,,,,,1392.9744643000304,1394.5462344000116,0.56,0.16,0.0,0.0,0.16,0.56,0.56,0.56,0.16,1389.6852835000027,1389.6852835000027,1389.6852835000027,1389.6852835000027,1389.6852835000027,1389.6852835000027,1389.6852835000027,1389.6852835000027,1389.6717495800347,3.421431399998255,return,3.268674999999348,,,,,,,,,,,,,,,,,,,,,,,,,,,,,,,,,TJJYT8,train_x,blue_star,top_right,2024-12-16_16h12.27.030,HideSeek_v1,2022.2.5,59.9257759407959,
,8,8,7,8,-1,0,51,,train_dim1_1,16,30,,,,2,0,2,0,,,,,,,,,0,0,0,0,0,15,15,15,1,0,1,0,,,,,,,,,,,,,,,,,,,,,,,,,,,,,,,,,,,,,,,,,,,,,,,,,,,,,,,,,,,,,,,,30,,,,,,,,1397.4300667000352,1397.4300667000352,1397.4300667000352,1397.4300667000352,1397.4300667000352,return,0.7934968000045046,4,0,0,1,0.39999999999999997,0.24,return,0.7144135999842547,-6,-37,0.39999999999999997,0.24,,,,,,,,,,,,,,,,,,,,,,,,,,,,,,,,,,,,,,,,,,,,,,,,,,,,,,,,TJJYT8,train_x,blue_star,top_right,2024-12-16_16h12.27.030,HideSeek_v1,2022.2.5,59.9257759407959,
,7,9,3,9,-4,0,21,,train_dim1_1,17,30,,,,2,0,2,0,,,,,,,,,0,0,0,0,0,16,16,16,0,0,0,0,,,,,,,,,,,,,,,,,,,,,,,,,stimuli/alien_stimuli/21.png,,,,,,,,,,,,,,,,,,,,,,,,,,,,,stimuli/alien_stimuli/51.png,51,8,18,,,,,,,30,,,,,,,,1403.8162426000345,1403.8162426000345,1403.8162426000345,1403.8162426000345,1403.8162426000345,left,7.209304999967571,4,0,0,99,0.32,0.32,left,7.1045358999981545,,,,,1402.231944500003,1403.8162426000345,0.4,0.24,0.0,0.08,0.24,0.4,0.44,0.4,0.24,1399.7956046000472,1399.7956046000472,1399.7956046000472,1399.7956046000472,1399.7956046000472,1399.7956046000472,1399.7956046000472,1399.7956046000472,1399.7802419700079,2.5541995000094175,return,2.4149301000288688,,,,,,,,,,,,,,,,,,,,,,,,,,,,,,,,,TJJYT8,train_x,blue_star,top_right,2024-12-16_16h12.27.030,HideSeek_v1,2022.2.5,59.9257759407959,
,7,9,3,9,-4,0,21,,train_dim1_1,17,30,,,,2,0,2,0,,,,,,,,,0,0,0,0,0,16,16,16,1,0,1,0,,,,,,,,,,,,,,,,,,,,,,,,,,,,,,,,,,,,,,,,,,,,,,,,,,,,,,,,,,,,,,,,30,,,,,,,,1411.0106935999938,1411.0106935999938,1411.0106935999938,1411.0106935999938,1411.0106935999938,left,0.7599655999802053,4,0,0,99,0.24,0.32,left,0.6783151000272483,,,,,,,,,,,,,,,,,,,,,,,,,,,,,,,,,,,,,,,,,,,,,,,,,,,,,,,,,,,,TJJYT8,train_x,blue_star,top_right,2024-12-16_16h12.27.030,HideSeek_v1,2022.2.5,59.9257759407959,
,7,9,3,9,-4,0,21,,train_dim1_1,17,30,,,,2,0,2,0,,,,,,,,,0,0,0,0,0,16,16,16,2,0,2,0,,,,,,,,,,,,,,,,,,,,,,,,,,,,,,,,,,,,,,,,,,,,,,,,,,,,,,,,,,,,,,,,30,,,,,,,,1411.7782599999919,1411.7782599999919,1411.7782599999919,1411.7782599999919,1411.7782599999919,left,0.6096943999873474,4,0,0,99,0.15999999999999998,0.32,left,0.5215593999600969,,,,,,,,,,,,,,,,,,,,,,,,,,,,,,,,,,,,,,,,,,,,,,,,,,,,,,,,,,,,TJJYT8,train_x,blue_star,top_right,2024-12-16_16h12.27.030,HideSeek_v1,2022.2.5,59.9257759407959,
,7,9,3,9,-4,0,21,,train_dim1_1,17,30,,,,2,0,2,0,,,,,,,,,0,0,0,0,0,16,16,16,3,0,3,0,,,,,,,,,,,,,,,,,,,,,,,,,,,,,,,,,,,,,,,,,,,,,,,,,,,,,,,,,,,,,,,,30,,,,,,,,1412.3946585000376,1412.3946585000376,1412.3946585000376,1412.3946585000376,1412.3946585000376,left,1.5440320000052452,4,0,0,99,0.07999999999999997,0.32,left,1.4500740999937989,,,,,,,,,,,,,,,,,,,,,,,,,,,,,,,,,,,,,,,,,,,,,,,,,,,,,,,,,,,,TJJYT8,train_x,blue_star,top_right,2024-12-16_16h12.27.030,HideSeek_v1,2022.2.5,59.9257759407959,
,7,9,3,9,-4,0,21,,train_dim1_1,17,30,,,,2,0,2,0,,,,,,,,,0,0,0,0,0,16,16,16,4,0,4,0,,,,,,,,,,,,,,,,,,,,,,,,,,,,,,,,,,,,,,,,,,,,,,,,,,,,,,,,,,,,,,,,30,,,,,,,,1413.945925100008,1413.945925100008,1413.945925100008,1413.945925100008,1413.945925100008,left,0.5590591000509448,4,0,0,99,-2.7755575615628914e-17,0.32,left,0.4749075999716297,,,,,,,,,,,,,,,,,,,,,,,,,,,,,,,,,,,,,,,,,,,,,,,,,,,,,,,,,,,,TJJYT8,train_x,blue_star,top_right,2024-12-16_16h12.27.030,HideSeek_v1,2022.2.5,59.9257759407959,
,7,9,3,9,-4,0,21,,train_dim1_1,17,30,,,,2,0,2,0,,,,,,,,,0,0,0,0,0,16,16,16,5,0,5,0,,,,,,,,,,,,,,,,,,,,,,,,,,,,,,,,,,,,,,,,,,,,,,,,,,,,,,,,,,,,,,,,30,,,,,,,,1414.5131511000218,1414.5131511000218,1414.5131511000218,1414.5131511000218,1414.5131511000218,return,2.044374399993103,4,1,0,0,-2.7755575615628914e-17,0.32,return,1.9607399000087753,-6,-42,-2.7755575615628914e-17,0.32,,,,,,,,,,,,,,,,,,,,,,,,,,,,,,,,,,,,,,,,,,,,,,,,,,,,,,,,TJJYT8,train_x,blue_star,top_right,2024-12-16_16h12.27.030,HideSeek_v1,2022.2.5,59.9257759407959,
,7,6,7,6,0,0,61,,train_dim1_1,18,30,,,,2,0,2,0,,,,,,,,,0,0,0,0,0,17,17,17,0,0,0,0,,,,,,,,,,,,,,,,,,,,,,,,,stimuli/alien_stimuli/61.png,,,,,,,,,,,,,,,,,,,,,,,,,,,,,stimuli/alien_stimuli/21.png,21,7,19,,,,,,,30,,,,,,,,1423.0508156000287,1423.0508156000287,1423.0508156000287,1423.0508156000287,1423.0508156000287,return,2.4882220000145026,5,0,0,1,0.4,0.08,return,2.4015454999753274,-6,-42,0.4,0.08,1421.4813385000452,1423.0508156000287,0.08,0.32,0.0,0.32,0.32,0.08,0.24000000000000002,0.08,0.32,1418.1531777000055,1418.1531777000055,1418.1531777000055,1418.1531777000055,1418.1531777000055,1418.1531777000055,1418.1531777000055,1418.1531777000055,1418.1452760900254,3.4715921000461094,return,3.298097599996254,,,,,,,,,,,,,,,,,,,,,,,,,,,,,,,,,TJJYT8,train_x,blue_star,top_right,2024-12-16_16h12.27.030,HideSeek_v1,2022.2.5,59.9257759407959,
,5,8,2,8,-3,0,31,,train_dim1_1,19,30,,,,2,0,2,0,,,,,,,,,0,0,0,0,0,18,18,18,0,0,0,0,,,,,,,,,,,,,,,,,,,,,,,,,stimuli/alien_stimuli/31.png,,,,,,,,,,,,,,,,,,,,,,,,,,,,,stimuli/alien_stimuli/61.png,61,7,20,,,,,,,30,,,,,,,,1430.5512614000472,1430.5512614000472,1430.5512614000472,1430.5512614000472,1430.5512614000472,left,6.118405199958943,5,0,0,99,0.15999999999999998,0.24,left,6.005816799995955,,,,,1428.9546380999964,1430.5512614000472,0.4,0.08,0.0,0.0,0.08,0.4,0.4,0.4,0.08,1427.1164806000306,1427.1164806000306,1427.1164806000306,1427.1164806000306,1427.1164806000306,1427.1164806000306,1427.1164806000306,1427.1164806000306,1427.1028298800463,1.970507699996233,return,1.8208361999713816,,,,,,,,,,,,,,,,,,,,,,,,,,,,,,,,,TJJYT8,train_x,blue_star,top_right,2024-12-16_16h12.27.030,HideSeek_v1,2022.2.5,59.9257759407959,
,5,8,2,8,-3,0,31,,train_dim1_1,19,30,,,,2,0,2,0,,,,,,,,,0,0,0,0,0,18,18,18,1,0,1,0,,,,,,,,,,,,,,,,,,,,,,,,,,,,,,,,,,,,,,,,,,,,,,,,,,,,,,,,,,,,,,,,30,,,,,,,,1436.644671600021,1436.644671600021,1436.644671600021,1436.644671600021,1436.644671600021,left,0.826221399998758,5,0,0,99,0.07999999999999997,0.24,left,0.7456617000279948,,,,,,,,,,,,,,,,,,,,,,,,,,,,,,,,,,,,,,,,,,,,,,,,,,,,,,,,,,,,TJJYT8,train_x,blue_star,top_right,2024-12-16_16h12.27.030,HideSeek_v1,2022.2.5,59.9257759407959,
,5,8,2,8,-3,0,31,,train_dim1_1,19,30,,,,2,0,2,0,,,,,,,,,0,0,0,0,0,18,18,18,2,0,2,0,,,,,,,,,,,,,,,,,,,,,,,,,,,,,,,,,,,,,,,,,,,,,,,,,,,,,,,,,,,,,,,,30,,,,,,,,1437.477993700013,1437.477993700013,1437.477993700013,1437.477993700013,1437.477993700013,left,0.7432221999624744,5,0,0,99,-2.7755575615628914e-17,0.24,left,0.6590489000082016,,,,,,,,,,,,,,,,,,,,,,,,,,,,,,,,,,,,,,,,,,,,,,,,,,,,,,,,,,,,TJJYT8,train_x,blue_star,top_right,2024-12-16_16h12.27.030,HideSeek_v1,2022.2.5,59.9257759407959,
,5,8,2,8,-3,0,31,,train_dim1_1,19,30,,,,2,0,2,0,,,,,,,,,0,0,0,0,0,18,18,18,3,0,3,0,,,,,,,,,,,,,,,,,,,,,,,,,,,,,,,,,,,,,,,,,,,,,,,,,,,,,,,,,,,,,,,,30,,,,,,,,1438.227262200031,1438.227262200031,1438.227262200031,1438.227262200031,1438.227262200031,return,1.1938553000218235,6,0,0,1,-2.7755575615628914e-17,0.24,return,1.1185077999834903,-6,-45,-2.7755575615628914e-17,0.24,,,,,,,,,,,,,,,,,,,,,,,,,,,,,,,,,,,,,,,,,,,,,,,,,,,,,,,,TJJYT8,train_x,blue_star,top_right,2024-12-16_16h12.27.030,HideSeek_v1,2022.2.5,59.9257759407959,
,5,6,0,6,-5,0,11,,train_dim1_1,20,30,,,,2,0,2,0,,,,,,,,,0,0,0,0,0,19,19,19,0,0,0,0,,,,,,,,,,,,,,,,,,,,,,,,,stimuli/alien_stimuli/11.png,,,,,,,,,,,,,,,,,,,,,,,,,,,,,stimuli/alien_stimuli/31.png,31,5,21,,,,,,,30,,,,,,,,1445.8667325000279,1445.8667325000279,1445.8667325000279,1445.8667325000279,1445.8667325000279,left,2.8409281999920495,6,0,0,99,0.15999999999999998,0.08,left,2.710566999972798,,,,,1444.2673291999963,1445.8667325000279,0,0.24,0.0,0.24,0.24,0,0.12,0,0.24,1440.9999852000037,1440.9999852000037,1440.9999852000037,1440.9999852000037,1440.9999852000037,1440.9999852000037,1440.9999852000037,1440.9999852000037,1440.981016470038,3.3882118000183254,return,3.243084199959412,,,,,,,,,,,,,,,,,,,,,,,,,,,,,,,,,TJJYT8,train_x,blue_star,top_right,2024-12-16_16h12.27.030,HideSeek_v1,2022.2.5,59.9257759407959,
,5,6,0,6,-5,0,11,,train_dim1_1,20,30,,,,2,0,2,0,,,,,,,,,0,0,0,0,0,19,19,19,1,0,1,0,,,,,,,,,,,,,,,,,,,,,,,,,,,,,,,,,,,,,,,,,,,,,,,,,,,,,,,,,,,,,,,,30,,,,,,,,1448.680659900012,1448.680659900012,1448.680659900012,1448.680659900012,1448.680659900012,left,0.7266473000054248,6,0,0,99,0.07999999999999997,0.08,left,0.6307741000200622,,,,,,,,,,,,,,,,,,,,,,,,,,,,,,,,,,,,,,,,,,,,,,,,,,,,,,,,,,,,TJJYT8,train_x,blue_star,top_right,2024-12-16_16h12.27.030,HideSeek_v1,2022.2.5,59.9257759407959,
,5,6,0,6,-5,0,11,,train_dim1_1,20,30,,,,2,0,2,0,,,,,,,,,0,0,0,0,0,19,19,19,2,0,2,0,,,,,,,,,,,,,,,,,,,,,,,,,,,,,,,,,,,,,,,,,,,,,,,,,,,,,,,,,,,,,,,,30,,,,,,,,1449.4086499999976,1449.4086499999976,1449.4086499999976,1449.4086499999976,1449.4086499999976,left,0.643249700020533,6,0,0,99,-2.7755575615628914e-17,0.08,left,0.5621631999965757,,,,,,,,,,,,,,,,,,,,,,,,,,,,,,,,,,,,,,,,,,,,,,,,,,,,,,,,,,,,TJJYT8,train_x,blue_star,top_right,2024-12-16_16h12.27.030,HideSeek_v1,2022.2.5,59.9257759407959,
,5,6,0,6,-5,0,11,,train_dim1_1,20,30,,,,2,0,2,0,,,,,,,,,0,0,0,0,0,19,19,19,3,0,3,0,,,,,,,,,,,,,,,,,,,,,,,,,,,,,,,,,,,,,,,,,,,,,,,,,,,,,,,,,,,,,,,,30,,,,,,,,1450.0583891000133,1450.0583891000133,1450.0583891000133,1450.0583891000133,1450.0583891000133,left,0.6761760999797843,6,0,0,99,-0.08000000000000003,0.08,left,0.5935281999991275,,,,,,,,,,,,,,,,,,,,,,,,,,,,,,,,,,,,,,,,,,,,,,,,,,,,,,,,,,,,TJJYT8,train_x,blue_star,top_right,2024-12-16_16h12.27.030,HideSeek_v1,2022.2.5,59.9257759407959,
,5,6,0,6,-5,0,11,,train_dim1_1,20,30,,,,2,0,2,0,,,,,,,,,0,0,0,0,0,19,19,19,4,0,4,0,,,,,,,,,,,,,,,,,,,,,,,,,,,,,,,,,,,,,,,,,,,,,,,,,,,,,,,,,,,,,,,,30,,,,,,,,1450.7429984000046,1450.7429984000046,1450.7429984000046,1450.7429984000046,1450.7429984000046,left,0.7438363999826834,6,0,0,99,-0.16000000000000003,0.08,left,0.6560188000439666,,,,,,,,,,,,,,,,,,,,,,,,,,,,,,,,,,,,,,,,,,,,,,,,,,,,,,,,,,,,TJJYT8,train_x,blue_star,top_right,2024-12-16_16h12.27.030,HideSeek_v1,2022.2.5,59.9257759407959,
,5,6,0,6,-5,0,11,,train_dim1_1,20,30,,,,2,0,2,0,,,,,,,,,0,0,0,0,0,19,19,19,5,0,5,0,,,,,,,,,,,,,,,,,,,,,,,,,,,,,,,,,,,,,,,,,,,,,,,,,,,,,,,,,,,,,,,,30,,,,,,,,1451.4927184000262,1451.4927184000262,1451.4927184000262,1451.4927184000262,1451.4927184000262,return,1.0100563999731094,7,0,0,1,-0.16000000000000003,0.08,return,0.929428800009191,-6,-50,-0.16000000000000003,0.08,,,,,,,,,,,,,,,,,,,,,,,,,,,,,,,,,,,,,,,,,,,,,,,,,,,,,,,,TJJYT8,train_x,blue_star,top_right,2024-12-16_16h12.27.030,HideSeek_v1,2022.2.5,59.9257759407959,
,9,7,6,7,-3,0,31,,train_dim1_1,21,30,,,,2,0,2,0,,,,,,,,,0,0,0,0,0,20,20,20,0,0,0,0,,,,,,,,,,,,,,,,,,,,,,,,,stimuli/alien_stimuli/31.png,,,,,,,,,,,,,,,,,,,,,,,,,,,,,stimuli/alien_stimuli/11.png,11,5,22,,,,,,,30,,,,,,,,1458.9808324000333,1458.9808324000333,1458.9808324000333,1458.9808324000333,1458.9808324000333,left,3.674996900022961,7,0,0,99,0.48000000000000004,0.16,left,3.5840848999796435,,,,,1457.4113398999907,1458.9808324000333,-0.16,0.08,0.0,0.4,0.08,-0.16,0.039999999999999994,-0.16,0.08,1454.0941176000051,1454.0941176000051,1454.0941176000051,1454.0941176000051,1454.0941176000051,1454.0941176000051,1454.0941176000051,1454.0941176000051,1454.0753118800583,3.4548122999840416,return,3.299916799995117,,,,,,,,,,,,,,,,,,,,,,,,,,,,,,,,,TJJYT8,train_x,blue_star,top_right,2024-12-16_16h12.27.030,HideSeek_v1,2022.2.5,59.9257759407959,
,9,7,6,7,-3,0,31,,train_dim1_1,21,30,,,,2,0,2,0,,,,,,,,,0,0,0,0,0,20,20,20,1,0,1,0,,,,,,,,,,,,,,,,,,,,,,,,,,,,,,,,,,,,,,,,,,,,,,,,,,,,,,,,,,,,,,,,30,,,,,,,,1462.6483560000197,1462.6483560000197,1462.6483560000197,1462.6483560000197,1462.6483560000197,left,0.6764689999981783,7,0,0,99,0.4,0.16,left,0.5875214000116102,,,,,,,,,,,,,,,,,,,,,,,,,,,,,,,,,,,,,,,,,,,,,,,,,,,,,,,,,,,,TJJYT8,train_x,blue_star,top_right,2024-12-16_16h12.27.030,HideSeek_v1,2022.2.5,59.9257759407959,
,9,7,6,7,-3,0,31,,train_dim1_1,21,30,,,,2,0,2,0,,,,,,,,,0,0,0,0,0,20,20,20,2,0,2,0,,,,,,,,,,,,,,,,,,,,,,,,,,,,,,,,,,,,,,,,,,,,,,,,,,,,,,,,,,,,,,,,30,,,,,,,,1463.3337029000395,1463.3337029000395,1463.3337029000395,1463.3337029000395,1463.3337029000395,left,0.7929027999634854,7,0,0,99,0.32,0.16,left,0.7048283999902196,,,,,,,,,,,,,,,,,,,,,,,,,,,,,,,,,,,,,,,,,,,,,,,,,,,,,,,,,,,,TJJYT8,train_x,blue_star,top_right,2024-12-16_16h12.27.030,HideSeek_v1,2022.2.5,59.9257759407959,
,9,7,6,7,-3,0,31,,train_dim1_1,21,30,,,,2,0,2,0,,,,,,,,,0,0,0,0,0,20,20,20,3,0,3,0,,,,,,,,,,,,,,,,,,,,,,,,,,,,,,,,,,,,,,,,,,,,,,,,,,,,,,,,,,,,,,,,30,,,,,,,,1464.1331681000302,1464.1331681000302,1464.1331681000302,1464.1331681000302,1464.1331681000302,return,0.9436554999556392,8,0,0,1,0.32,0.16,return,0.8557758000097238,-6,-53,0.32,0.16,,,,,,,,,,,,,,,,,,,,,,,,,,,,,,,,,,,,,,,,,,,,,,,,,,,,,,,,TJJYT8,train_x,blue_star,top_right,2024-12-16_16h12.27.030,HideSeek_v1,2022.2.5,59.9257759407959,
,6,5,2,5,-4,0,21,,train_dim1_1,22,30,,,,2,0,2,0,,,,,,,,,0,0,0,0,0,21,21,21,0,0,0,0,,,,,,,,,,,,,,,,,,,,,,,,,stimuli/alien_stimuli/21.png,,,,,,,,,,,,,,,,,,,,,,,,,,,,,stimuli/alien_stimuli/31.png,31,9,23,,,,,,,30,,,,,,,,1469.8977129000123,1469.8977129000123,1469.8977129000123,1469.8977129000123,1469.8977129000123,left,2.2557806000113487,8,0,0,99,0.24,0,left,2.135785799997393,,,,,1468.3035850000451,1469.8977129000123,0.32,0.16,0.0,0.24,0.16,0.32,0.44000000000000006,0.32,0.16,1466.6666275000316,1466.6666275000316,1466.6666275000316,1466.6666275000316,1466.6666275000316,1466.6666275000316,1466.6666275000316,1466.6666275000316,1466.6522508800497,1.7703652999480255,return,1.6099530000356026,,,,,,,,,,,,,,,,,,,,,,,,,,,,,,,,,TJJYT8,train_x,blue_star,top_right,2024-12-16_16h12.27.030,HideSeek_v1,2022.2.5,59.9257759407959,
,6,5,2,5,-4,0,21,,train_dim1_1,22,30,,,,2,0,2,0,,,,,,,,,0,0,0,0,0,21,21,21,1,0,1,0,,,,,,,,,,,,,,,,,,,,,,,,,,,,,,,,,,,,,,,,,,,,,,,,,,,,,,,,,,,,,,,,30,,,,,,,,1472.1284202000243,1472.1284202000243,1472.1284202000243,1472.1284202000243,1472.1284202000243,left,0.6587430000072345,8,0,0,99,0.15999999999999998,0,left,0.5747722999658436,,,,,,,,,,,,,,,,,,,,,,,,,,,,,,,,,,,,,,,,,,,,,,,,,,,,,,,,,,,,TJJYT8,train_x,blue_star,top_right,2024-12-16_16h12.27.030,HideSeek_v1,2022.2.5,59.9257759407959,
,6,5,2,5,-4,0,21,,train_dim1_1,22,30,,,,2,0,2,0,,,,,,,,,0,0,0,0,0,21,21,21,2,0,2,0,,,,,,,,,,,,,,,,,,,,,,,,,,,,,,,,,,,,,,,,,,,,,,,,,,,,,,,,,,,,,,,,30,,,,,,,,1472.7940292000421,1472.7940292000421,1472.7940292000421,1472.7940292000421,1472.7940292000421,left,0.626465699984692,8,0,0,99,0.07999999999999997,0,left,0.5350499000051059,,,,,,,,,,,,,,,,,,,,,,,,,,,,,,,,,,,,,,,,,,,,,,,,,,,,,,,,,,,,TJJYT8,train_x,blue_star,top_right,2024-12-16_16h12.27.030,HideSeek_v1,2022.2.5,59.9257759407959,
,6,5,2,5,-4,0,21,,train_dim1_1,22,30,,,,2,0,2,0,,,,,,,,,0,0,0,0,0,21,21,21,3,0,3,0,,,,,,,,,,,,,,,,,,,,,,,,,,,,,,,,,,,,,,,,,,,,,,,,,,,,,,,,,,,,,,,,30,,,,,,,,1473.4274960000184,1473.4274960000184,1473.4274960000184,1473.4274960000184,1473.4274960000184,left,0.6101031000143848,8,0,0,99,-2.7755575615628914e-17,0,left,0.5208827999886125,,,,,,,,,,,,,,,,,,,,,,,,,,,,,,,,,,,,,,,,,,,,,,,,,,,,,,,,,,,,TJJYT8,train_x,blue_star,top_right,2024-12-16_16h12.27.030,HideSeek_v1,2022.2.5,59.9257759407959,
,6,5,2,5,-4,0,21,,train_dim1_1,22,30,,,,2,0,2,0,,,,,,,,,0,0,0,0,0,21,21,21,4,0,4,0,,,,,,,,,,,,,,,,,,,,,,,,,,,,,,,,,,,,,,,,,,,,,,,,,,,,,,,,,,,,,,,,30,,,,,,,,1474.0442889000406,1474.0442889000406,1474.0442889000406,1474.0442889000406,1474.0442889000406,left,0.6099994999822229,8,0,0,99,-0.08000000000000003,0,left,0.5223047999897972,,,,,,,,,,,,,,,,,,,,,,,,,,,,,,,,,,,,,,,,,,,,,,,,,,,,,,,,,,,,TJJYT8,train_x,blue_star,top_right,2024-12-16_16h12.27.030,HideSeek_v1,2022.2.5,59.9257759407959,
,6,5,2,5,-4,0,21,,train_dim1_1,22,30,,,,2,0,2,0,,,,,,,,,0,0,0,0,0,21,21,21,5,0,5,0,,,,,,,,,,,,,,,,,,,,,,,,,,,,,,,,,,,,,,,,,,,,,,,,,,,,,,,,,,,,,,,,30,,,,,,,,1474.6628522000392,1474.6628522000392,1474.6628522000392,1474.6628522000392,1474.6628522000392,return,0.7934530000202358,8,1,0,0,-0.08000000000000003,0,return,0.7058903999859467,-6,-58,-0.08000000000000003,0,,,,,,,,,,,,,,,,,,,,,,,,,,,,,,,,,,,,,,,,,,,,,,,,,,,,,,,,TJJYT8,train_x,blue_star,top_right,2024-12-16_16h12.27.030,HideSeek_v1,2022.2.5,59.9257759407959,
,7,6,7,6,0,0,61,,train_dim1_1,23,30,,,,2,0,2,0,,,,,,,,,0,0,0,0,0,22,22,22,0,0,0,0,,,,,,,,,,,,,,,,,,,,,,,,,stimuli/alien_stimuli/61.png,,,,,,,,,,,,,,,,,,,,,,,,,,,,,stimuli/alien_stimuli/21.png,21,6,24,,,,,,,30,,,,,,,,1482.7163078000303,1482.7163078000303,1482.7163078000303,1482.7163078000303,1482.7163078000303,return,1.6238424999755807,9,0,0,1,0.4,0.08,return,1.5209354999824427,-6,-58,0.4,0.08,1481.1480491000111,1482.7163078000303,0,0,0.0,0.32,0.0,0,0.16,0,0,1477.046748600027,1477.046748600027,1477.046748600027,1477.046748600027,1477.046748600027,1477.046748600027,1477.046748600027,1477.046748600027,1477.028386780026,4.238163700036239,return,4.075479099992663,,,,,,,,,,,,,,,,,,,,,,,,,,,,,,,,,TJJYT8,train_x,blue_star,top_right,2024-12-16_16h12.27.030,HideSeek_v1,2022.2.5,59.9257759407959,
,9,9,8,9,-1,0,51,,train_dim1_1,24,30,,,,2,0,2,0,,,,,,,,,0,0,0,0,0,23,23,23,0,0,0,0,,,,,,,,,,,,,,,,,,,,,,,,,stimuli/alien_stimuli/51.png,,,,,,,,,,,,,,,,,,,,,,,,,,,,,stimuli/alien_stimuli/61.png,61,7,25,,,,,,,30,,,,,,,,1488.9668687999947,1488.9668687999947,1488.9668687999947,1488.9668687999947,1488.9668687999947,left,2.8912118999869563,9,0,0,99,0.48000000000000004,0.32,left,2.7512819999828935,,,,,1487.352870200004,1488.9668687999947,0.4,0.08,0.0,0.0,0.08,0.4,0.4,0.4,0.08,1485.895418400003,1485.895418400003,1485.895418400003,1485.895418400003,1485.895418400003,1485.895418400003,1485.895418400003,1485.895418400003,1485.885085870023,1.5702250999747775,return,1.4271078000310808,,,,,,,,,,,,,,,,,,,,,,,,,,,,,,,,,TJJYT8,train_x,blue_star,top_right,2024-12-16_16h12.27.030,HideSeek_v1,2022.2.5,59.9257759407959,
,9,9,8,9,-1,0,51,,train_dim1_1,24,30,,,,2,0,2,0,,,,,,,,,0,0,0,0,0,23,23,23,1,0,1,0,,,,,,,,,,,,,,,,,,,,,,,,,,,,,,,,,,,,,,,,,,,,,,,,,,,,,,,,,,,,,,,,30,,,,,,,,1491.8094125000061,1491.8094125000061,1491.8094125000061,1491.8094125000061,1491.8094125000061,return,1.076904800022021,10,0,0,1,0.48000000000000004,0.32,return,0.987941499974113,-6,-59,0.48000000000000004,0.32,,,,,,,,,,,,,,,,,,,,,,,,,,,,,,,,,,,,,,,,,,,,,,,,,,,,,,,,TJJYT8,train_x,blue_star,top_right,2024-12-16_16h12.27.030,HideSeek_v1,2022.2.5,59.9257759407959,
,8,5,3,5,-5,0,11,,train_dim1_1,25,30,,,,2,0,2,0,,,,,,,,,0,0,0,0,0,24,24,24,0,0,0,0,,,,,,,,,,,,,,,,,,,,,,,,,stimuli/alien_stimuli/11.png,,,,,,,,,,,,,,,,,,,,,,,,,,,,,stimuli/alien_stimuli/51.png,51,9,26,,,,,,,30,,,,,,,,1498.0300929000368,1498.0300929000368,1498.0300929000368,1498.0300929000368,1498.0300929000368,left,2.9238550000009127,10,0,0,99,0.39999999999999997,0,left,2.801881699997466,,,,,1496.443900800019,1498.0300929000368,0.48,0.32,0.0,0.08,0.32,0.48,0.52,0.48,0.32,1494.4583614000003,1494.4583614000003,1494.4583614000003,1494.4583614000003,1494.4583614000003,1494.4583614000003,1494.4583614000003,1494.4583614000003,1494.4421382700443,2.1040868000127375,return,1.9572286999900825,,,,,,,,,,,,,,,,,,,,,,,,,,,,,,,,,TJJYT8,train_x,blue_star,top_right,2024-12-16_16h12.27.030,HideSeek_v1,2022.2.5,59.9257759407959,
,8,5,3,5,-5,0,11,,train_dim1_1,25,30,,,,2,0,2,0,,,,,,,,,0,0,0,0,0,24,24,24,1,0,1,0,,,,,,,,,,,,,,,,,,,,,,,,,,,,,,,,,,,,,,,,,,,,,,,,,,,,,,,,,,,,,,,,30,,,,,,,,1500.9345913000288,1500.9345913000288,1500.9345913000288,1500.9345913000288,1500.9345913000288,left,0.8770772999851033,10,0,0,99,0.31999999999999995,0,left,0.7858257000334561,,,,,,,,,,,,,,,,,,,,,,,,,,,,,,,,,,,,,,,,,,,,,,,,,,,,,,,,,,,,TJJYT8,train_x,blue_star,top_right,2024-12-16_16h12.27.030,HideSeek_v1,2022.2.5,59.9257759407959,
,8,5,3,5,-5,0,11,,train_dim1_1,25,30,,,,2,0,2,0,,,,,,,,,0,0,0,0,0,24,24,24,2,0,2,0,,,,,,,,,,,,,,,,,,,,,,,,,,,,,,,,,,,,,,,,,,,,,,,,,,,,,,,,,,,,,,,,30,,,,,,,,1501.8175772000104,1501.8175772000104,1501.8175772000104,1501.8175772000104,1501.8175772000104,left,0.8435223000124097,10,0,0,99,0.23999999999999994,0,left,0.7612706999643706,,,,,,,,,,,,,,,,,,,,,,,,,,,,,,,,,,,,,,,,,,,,,,,,,,,,,,,,,,,,TJJYT8,train_x,blue_star,top_right,2024-12-16_16h12.27.030,HideSeek_v1,2022.2.5,59.9257759407959,
,8,5,3,5,-5,0,11,,train_dim1_1,25,30,,,,2,0,2,0,,,,,,,,,0,0,0,0,0,24,24,24,3,0,3,0,,,,,,,,,,,,,,,,,,,,,,,,,,,,,,,,,,,,,,,,,,,,,,,,,,,,,,,,,,,,,,,,30,,,,,,,,1502.6683660999988,1502.6683660999988,1502.6683660999988,1502.6683660999988,1502.6683660999988,left,0.7766857999959029,10,0,0,99,0.15999999999999992,0,left,0.6947155999951065,,,,,,,,,,,,,,,,,,,,,,,,,,,,,,,,,,,,,,,,,,,,,,,,,,,,,,,,,,,,TJJYT8,train_x,blue_star,top_right,2024-12-16_16h12.27.030,HideSeek_v1,2022.2.5,59.9257759407959,
,8,5,3,5,-5,0,11,,train_dim1_1,25,30,,,,2,0,2,0,,,,,,,,,0,0,0,0,0,24,24,24,4,0,4,0,,,,,,,,,,,,,,,,,,,,,,,,,,,,,,,,,,,,,,,,,,,,,,,,,,,,,,,,,,,,,,,,30,,,,,,,,1503.4526006000233,1503.4526006000233,1503.4526006000233,1503.4526006000233,1503.4526006000233,return,0.9269682000158355,10,1,0,0,0.15999999999999992,0,return,0.8359851000132039,-6,-63,0.15999999999999992,0,,,,,,,,,,,,,,,,,,,,,,,,,,,,,,,,,,,,,,,,,,,,,,,,,,,,,,,,TJJYT8,train_x,blue_star,top_right,2024-12-16_16h12.27.030,HideSeek_v1,2022.2.5,59.9257759407959,
,6,6,6,6,0,0,61,,train_dim1_1,26,30,,,,2,0,2,0,,,,,,,,,0,0,0,0,0,25,25,25,0,0,0,0,,,,,,,,,,,,,,,,,,,,,,,,,stimuli/alien_stimuli/61.png,,,,,,,,,,,,,,,,,,,,,,,,,,,,,stimuli/alien_stimuli/11.png,11,8,27,,,,,,,30,,,,,,,,1511.7439291999908,1511.7439291999908,1511.7439291999908,1511.7439291999908,1511.7439291999908,return,1.3208938000025228,11,0,0,1,0.32,0.08,return,1.2006399999954738,-6,-63,0.32,0.08,1510.155150800012,1511.7439291999908,0.08,0,0.0,0.4,0.0,0.08,0.27999999999999997,0.08,0,1505.9713303000317,1505.9713303000317,1505.9713303000317,1505.9713303000317,1505.9713303000317,1505.9713303000317,1505.9713303000317,1505.9713303000317,1505.9516882800033,4.322699300013483,return,4.163437900017016,,,,,,,,,,,,,,,,,,,,,,,,,,,,,,,,,TJJYT8,train_x,blue_star,top_right,2024-12-16_16h12.27.030,HideSeek_v1,2022.2.5,59.9257759407959,
,5,6,2,6,-3,0,31,,train_dim1_1,27,30,,,,2,0,2,0,,,,,,,,,0,0,0,0,0,26,26,26,0,0,0,0,,,,,,,,,,,,,,,,,,,,,,,,,stimuli/alien_stimuli/31.png,,,,,,,,,,,,,,,,,,,,,,,,,,,,,stimuli/alien_stimuli/61.png,61,6,28,,,,,,,30,,,,,,,,1517.393540500023,1517.393540500023,1517.393540500023,1517.393540500023,1517.393540500023,left,2.2074002000153996,11,0,0,99,0.15999999999999998,0.08,left,2.098600199969951,,,,,1515.8099397000042,1517.393540500023,0.32,0.08,0.0,0.0,0.08,0.32,0.32,0.32,0.08,1514.6022635000409,1514.6022635000409,1514.6022635000409,1514.6022635000409,1514.6022635000409,1514.6022635000409,1514.6022635000409,1514.6022635000409,1514.5921924700147,1.3200226000044495,return,1.1900587999843992,,,,,,,,,,,,,,,,,,,,,,,,,,,,,,,,,TJJYT8,train_x,blue_star,top_right,2024-12-16_16h12.27.030,HideSeek_v1,2022.2.5,59.9257759407959,
,5,6,2,6,-3,0,31,,train_dim1_1,27,30,,,,2,0,2,0,,,,,,,,,0,0,0,0,0,26,26,26,1,0,1,0,,,,,,,,,,,,,,,,,,,,,,,,,,,,,,,,,,,,,,,,,,,,,,,,,,,,,,,,,,,,,,,,30,,,,,,,,1519.5845405000146,1519.5845405000146,1519.5845405000146,1519.5845405000146,1519.5845405000146,left,0.6383951000170782,11,0,0,99,0.07999999999999997,0.08,left,0.5572672000271268,,,,,,,,,,,,,,,,,,,,,,,,,,,,,,,,,,,,,,,,,,,,,,,,,,,,,,,,,,,,TJJYT8,train_x,blue_star,top_right,2024-12-16_16h12.27.030,HideSeek_v1,2022.2.5,59.9257759407959,
,5,6,2,6,-3,0,31,,train_dim1_1,27,30,,,,2,0,2,0,,,,,,,,,0,0,0,0,0,26,26,26,2,0,2,0,,,,,,,,,,,,,,,,,,,,,,,,,,,,,,,,,,,,,,,,,,,,,,,,,,,,,,,,,,,,,,,,30,,,,,,,,1520.2310839000274,1520.2310839000274,1520.2310839000274,1520.2310839000274,1520.2310839000274,left,0.5926621000398882,11,0,0,99,-2.7755575615628914e-17,0.08,left,0.5040776000241749,,,,,,,,,,,,,,,,,,,,,,,,,,,,,,,,,,,,,,,,,,,,,,,,,,,,,,,,,,,,TJJYT8,train_x,blue_star,top_right,2024-12-16_16h12.27.030,HideSeek_v1,2022.2.5,59.9257759407959,
,5,6,2,6,-3,0,31,,train_dim1_1,27,30,,,,2,0,2,0,,,,,,,,,0,0,0,0,0,26,26,26,3,0,3,0,,,,,,,,,,,,,,,,,,,,,,,,,,,,,,,,,,,,,,,,,,,,,,,,,,,,,,,,,,,,,,,,30,,,,,,,,1520.8290620000334,1520.8290620000334,1520.8290620000334,1520.8290620000334,1520.8290620000334,return,0.7771186000318266,12,0,0,1,-2.7755575615628914e-17,0.08,return,0.7031517999712378,-6,-66,-2.7755575615628914e-17,0.08,,,,,,,,,,,,,,,,,,,,,,,,,,,,,,,,,,,,,,,,,,,,,,,,,,,,,,,,TJJYT8,train_x,blue_star,top_right,2024-12-16_16h12.27.030,HideSeek_v1,2022.2.5,59.9257759407959,
,8,6,4,6,-4,0,21,,train_dim1_1,28,30,,,,2,0,2,0,,,,,,,,,0,0,0,0,0,27,27,27,0,0,0,0,,,,,,,,,,,,,,,,,,,,,,,,,stimuli/alien_stimuli/21.png,,,,,,,,,,,,,,,,,,,,,,,,,,,,,stimuli/alien_stimuli/31.png,31,5,29,,,,,,,30,,,,,,,,1526.5088266000384,1526.5088266000384,1526.5088266000384,1526.5088266000384,1526.5088266000384,left,2.5050066000549123,12,0,0,99,0.39999999999999997,0.08,left,2.3836867999634705,,,,,1524.917453800037,1526.5088266000384,0,0.08,0.0,0.24,0.08,0,0.12,0,0.08,1523.179990100034,1523.179990100034,1523.179990100034,1523.179990100034,1523.179990100034,1523.179990100034,1523.179990100034,1523.179990100034,1523.1661325700466,1.8537366000236943,return,1.7123494999832474,,,,,,,,,,,,,,,,,,,,,,,,,,,,,,,,,TJJYT8,train_x,blue_star,top_right,2024-12-16_16h12.27.030,HideSeek_v1,2022.2.5,59.9257759407959,
,8,6,4,6,-4,0,21,,train_dim1_1,28,30,,,,2,0,2,0,,,,,,,,,0,0,0,0,0,27,27,27,1,0,1,0,,,,,,,,,,,,,,,,,,,,,,,,,,,,,,,,,,,,,,,,,,,,,,,,,,,,,,,,,,,,,,,,30,,,,,,,,1528.9929139000014,1528.9929139000014,1528.9929139000014,1528.9929139000014,1528.9929139000014,left,0.9598975999979302,12,0,0,99,0.31999999999999995,0.08,left,0.8714244000148028,,,,,,,,,,,,,,,,,,,,,,,,,,,,,,,,,,,,,,,,,,,,,,,,,,,,,,,,,,,,TJJYT8,train_x,blue_star,top_right,2024-12-16_16h12.27.030,HideSeek_v1,2022.2.5,59.9257759407959,
,8,6,4,6,-4,0,21,,train_dim1_1,28,30,,,,2,0,2,0,,,,,,,,,0,0,0,0,0,27,27,27,2,0,2,0,,,,,,,,,,,,,,,,,,,,,,,,,,,,,,,,,,,,,,,,,,,,,,,,,,,,,,,,,,,,,,,,30,,,,,,,,1529.957540900039,1529.957540900039,1529.957540900039,1529.957540900039,1529.957540900039,left,1.2101750999572687,12,0,0,99,0.23999999999999994,0.08,left,1.1211469999980181,,,,,,,,,,,,,,,,,,,,,,,,,,,,,,,,,,,,,,,,,,,,,,,,,,,,,,,,,,,,TJJYT8,train_x,blue_star,top_right,2024-12-16_16h12.27.030,HideSeek_v1,2022.2.5,59.9257759407959,
,8,6,4,6,-4,0,21,,train_dim1_1,28,30,,,,2,0,2,0,,,,,,,,,0,0,0,0,0,27,27,27,3,0,3,0,,,,,,,,,,,,,,,,,,,,,,,,,,,,,,,,,,,,,,,,,,,,,,,,,,,,,,,,,,,,,,,,30,,,,,,,,1531.1779690000112,1531.1779690000112,1531.1779690000112,1531.1779690000112,1531.1779690000112,left,1.6750717999530025,12,0,0,99,0.15999999999999992,0.08,left,1.5948708999785595,,,,,,,,,,,,,,,,,,,,,,,,,,,,,,,,,,,,,,,,,,,,,,,,,,,,,,,,,,,,TJJYT8,train_x,blue_star,top_right,2024-12-16_16h12.27.030,HideSeek_v1,2022.2.5,59.9257759407959,
,8,6,4,6,-4,0,21,,train_dim1_1,28,30,,,,2,0,2,0,,,,,,,,,0,0,0,0,0,27,27,27,4,0,4,0,,,,,,,,,,,,,,,,,,,,,,,,,,,,,,,,,,,,,,,,,,,,,,,,,,,,,,,,,,,,,,,,30,,,,,,,,1532.8613307999913,1532.8613307999913,1532.8613307999913,1532.8613307999913,1532.8613307999913,left,0.6929782000370324,12,0,0,99,0.07999999999999992,0.08,left,0.6023182999924757,,,,,,,,,,,,,,,,,,,,,,,,,,,,,,,,,,,,,,,,,,,,,,,,,,,,,,,,,,,,TJJYT8,train_x,blue_star,top_right,2024-12-16_16h12.27.030,HideSeek_v1,2022.2.5,59.9257759407959,
,8,6,4,6,-4,0,21,,train_dim1_1,28,30,,,,2,0,2,0,,,,,,,,,0,0,0,0,0,27,27,27,5,0,5,0,,,,,,,,,,,,,,,,,,,,,,,,,,,,,,,,,,,,,,,,,,,,,,,,,,,,,,,,,,,,,,,,30,,,,,,,,1533.5615081000142,1533.5615081000142,1533.5615081000142,1533.5615081000142,1533.5615081000142,return,0.993880000023637,12,1,0,0,0.07999999999999992,0.08,return,0.9113029000000097,-6,-71,0.07999999999999992,0.08,,,,,,,,,,,,,,,,,,,,,,,,,,,,,,,,,,,,,,,,,,,,,,,,,,,,,,,,TJJYT8,train_x,blue_star,top_right,2024-12-16_16h12.27.030,HideSeek_v1,2022.2.5,59.9257759407959,
,9,5,8,5,-1,0,51,,train_dim1_1,29,30,,,,2,0,2,0,,,,,,,,,0,0,0,0,0,28,28,28,0,0,0,0,,,,,,,,,,,,,,,,,,,,,,,,,stimuli/alien_stimuli/51.png,,,,,,,,,,,,,,,,,,,,,,,,,,,,,stimuli/alien_stimuli/21.png,21,8,30,,,,,,,30,,,,,,,,1541.666980500042,1541.666980500042,1541.666980500042,1541.666980500042,1541.666980500042,left,2.1070683000143617,12,1,0,99,0.48000000000000004,0,left,2.00768690003315,,,,,1540.096947700018,1541.666980500042,0.16,0.08,0.0,0.32,0.08,0.16,0.32,0.16,0.08,1536.1341324000387,1536.1341324000387,1536.1341324000387,1536.1341324000387,1536.1341324000387,1536.1341324000387,1536.1341324000387,1536.1341324000387,1536.126901680045,4.088693500030786,return,3.940543200005777,,,,,,,,,,,,,,,,,,,,,,,,,,,,,,,,,TJJYT8,train_x,blue_star,top_right,2024-12-16_16h12.27.030,HideSeek_v1,2022.2.5,59.9257759407959,
,9,5,8,5,-1,0,51,,train_dim1_1,29,30,,,,2,0,2,0,,,,,,,,,0,0,0,0,0,28,28,28,1,0,1,0,,,,,,,,,,,,,,,,,,,,,,,,,,,,,,,,,,,,,,,,,,,,,,,,,,,,,,,,,,,,,,,,30,,,,,,,,1543.7694184000138,1543.7694184000138,1543.7694184000138,1543.7694184000138,1543.7694184000138,return,1.4601592000108212,13,0,0,1,0.48000000000000004,0,return,1.376901799987536,-6,-72,0.48000000000000004,0,,,,,,,,,,,,,,,,,,,,,,,,,,,,,,,,,,,,,,,,,,,,,,,,,,,,,,,,TJJYT8,train_x,blue_star,top_right,2024-12-16_16h12.27.030,HideSeek_v1,2022.2.5,59.9257759407959,
,7,7,2,7,-5,0,11,,train_dim1_1,30,30,,,,2,0,2,0,,,,,,,,,0,0,0,0,0,29,29,29,0,0,0,0,,,,,,,,,,,,,,,,,,,,,,,,,stimuli/alien_stimuli/11.png,,,,,,,,,,,,,,,,,,,,,,,,,,,,,stimuli/alien_stimuli/51.png,51,9,31,,,,,,,30,,,,,,,,1550.9456094999914,1550.9456094999914,1550.9456094999914,1550.9456094999914,1550.9456094999914,left,2.806547000014689,13,0,0,99,0.32,0.16,left,2.6840588999912143,,,,,1549.354172100022,1550.9456094999914,0.48,0,0.0,0.08,0.0,0.48,0.52,0.48,0,1546.8179219000158,1546.8179219000158,1546.8179219000158,1546.8179219000158,1546.8179219000158,1546.8179219000158,1546.8179219000158,1546.8179219000158,1546.8022316800432,2.671020200010389,return,2.5070803000126034,,,,,,,,,,,,,,,,,,,,,,,,,,,,,,,,,TJJYT8,train_x,blue_star,top_right,2024-12-16_16h12.27.030,HideSeek_v1,2022.2.5,59.9257759407959,
,7,7,2,7,-5,0,11,,train_dim1_1,30,30,,,,2,0,2,0,,,,,,,,,0,0,0,0,0,29,29,29,1,0,1,0,,,,,,,,,,,,,,,,,,,,,,,,,,,,,,,,,,,,,,,,,,,,,,,,,,,,,,,,,,,,,,,,30,,,,,,,,1553.729889500013,1553.729889500013,1553.729889500013,1553.729889500013,1553.729889500013,left,0.7262220000266097,13,0,0,99,0.24,0.16,left,0.6298498000251129,,,,,,,,,,,,,,,,,,,,,,,,,,,,,,,,,,,,,,,,,,,,,,,,,,,,,,,,,,,,TJJYT8,train_x,blue_star,top_right,2024-12-16_16h12.27.030,HideSeek_v1,2022.2.5,59.9257759407959,
,7,7,2,7,-5,0,11,,train_dim1_1,30,30,,,,2,0,2,0,,,,,,,,,0,0,0,0,0,29,29,29,2,0,2,0,,,,,,,,,,,,,,,,,,,,,,,,,,,,,,,,,,,,,,,,,,,,,,,,,,,,,,,,,,,,,,,,30,,,,,,,,1554.4609257000266,1554.4609257000266,1554.4609257000266,1554.4609257000266,1554.4609257000266,left,0.8268684999784455,13,0,0,99,0.15999999999999998,0.16,left,0.7482807000051253,,,,,,,,,,,,,,,,,,,,,,,,,,,,,,,,,,,,,,,,,,,,,,,,,,,,,,,,,,,,TJJYT8,train_x,blue_star,top_right,2024-12-16_16h12.27.030,HideSeek_v1,2022.2.5,59.9257759407959,
,7,7,2,7,-5,0,11,,train_dim1_1,30,30,,,,2,0,2,0,,,,,,,,,0,0,0,0,0,29,29,29,3,0,3,0,,,,,,,,,,,,,,,,,,,,,,,,,,,,,,,,,,,,,,,,,,,,,,,,,,,,,,,,,,,,,,,,30,,,,,,,,1555.295777500025,1555.295777500025,1555.295777500025,1555.295777500025,1555.295777500025,left,0.793392000021413,13,0,0,99,0.07999999999999997,0.16,left,0.7124989000149071,,,,,,,,,,,,,,,,,,,,,,,,,,,,,,,,,,,,,,,,,,,,,,,,,,,,,,,,,,,,TJJYT8,train_x,blue_star,top_right,2024-12-16_16h12.27.030,HideSeek_v1,2022.2.5,59.9257759407959,
,7,7,2,7,-5,0,11,,train_dim1_1,30,30,,,,2,0,2,0,,,,,,,,,0,0,0,0,0,29,29,29,4,0,4,0,,,,,,,,,,,,,,,,,,,,,,,,,,,,,,,,,,,,,,,,,,,,,,,,,,,,,,,,,,,,,,,,30,,,,,,,,1556.0959747000015,1556.0959747000015,1556.0959747000015,1556.0959747000015,1556.0959747000015,right,3.2620749000343494,13,0,0,99,0.15999999999999998,0.16,right,3.169898700027261,,,,,,,,,,,,,,,,,,,,,,,,,,,,,,,,,,,,,,,,,,,,,,,,,,,,,,,,,,,,TJJYT8,train_x,blue_star,top_right,2024-12-16_16h12.27.030,HideSeek_v1,2022.2.5,59.9257759407959,
,7,7,2,7,-5,0,11,,train_dim1_1,30,30,,,,2,0,2,0,,,,,,,,,0,0,0,0,0,29,29,29,5,0,5,0,,,,,,,,,,,,,,,,,,,,,,,,,,,,,,,,,,,,,,,,,,,,,,,,,,,,,,,,,,,,,,,,30,,,,,,,,1559.3661069000373,1559.3661069000373,1559.3661069000373,1559.3661069000373,1559.3661069000373,return,0.6100580999627709,13,0,0,0,0.15999999999999998,0.16,return,0.5166606000275351,-6,-75,0.15999999999999998,0.16,,,,,,,,,,,,,,,,,,,,,,,,,,,,,,,,,,,,,,,,,,,,,,,,,,,,,,,,TJJYT8,train_x,blue_star,top_right,2024-12-16_16h12.27.030,HideSeek_v1,2022.2.5,59.9257759407959,
,,,,,,,,,,,30,,,,2,0,2,0,,,,,,,,,,,,,,,,,,,,,,,,,,,,,,,,,,,,,,,,,,,,,,,,,,,,,,,,,,,,,,,,,,,,,,,,,,stimuli/alien_stimuli/11.png,11,7,32,21,0.7,0.5416666666666667,1,1,1,30,0,conditions/schedules/train_x_first/blue_star_00/top_right/inputTrain_2.1.xlsx,99,1,2,1,0,,,,,,,,,,,0,,,,,,,,,1566.068583400047,1567.7161611000192,0,0.16,0.0,0.4,0.16,0,0.2,0,0.16,1561.576848800003,1561.576848800003,1561.576848800003,1561.576848800003,1561.576848800003,1561.576848800003,1561.576848800003,1561.576848800003,1561.5642741900053,4.640249899995979,return,4.474901000037789,0,0.9,0,1,13,,,,,,,,,,,,,,,,,,,,,,,,,,,,TJJYT8,train_x,blue_star,top_right,2024-12-16_16h12.27.030,HideSeek_v1,2022.2.5,59.9257759407959,
,,,,,,,,,,,,,,,3,0,3,0,0,0,0,0,,,,,,,,,,,,,,,,,,,,,,,,,,,,,,,conditions/schedules/train_x_first/blue_star_00/top_right/instructions/Slide17.png,conditions/schedules/train_x_first/blue_star_00/top_right/instructions/Audio17.wav,1567.7161611000192,1567.7030147900339,17,"[30.079163199989125, 18.454024499980733, 16.88822409999557, 19.60376000002725, 5.3425710999872535, 5.324127600004431, 5.535035899956711, 12.003874799993355, 6.159431500011124, 7.247544799989555, 10.15140590001829, 12.622346399992239, 18.515860999992583, 12.968909999995958, 31.134421599970665, 21.595761599950492, 39.601577099994756]","[30.079182699962985, 18.45403249998344, 16.88823169999523, 19.60376800002996, 5.342580399999861, 5.324135600007139, 5.5350437999586575, 12.003882399993017, 0.014132199983578175, 7.247551599983126, 10.151413700019475, 12.622354799997993, 18.515869299997576, 12.968917699996382, 31.134428899968043, 21.595769299950916, 39.601589799975045]",0,,,,,,,,,,,,,,,,,,,,,,,,,,,,,,,,,,,,,,,,,,,,,,,,,,,,,,,,,,,,,,,,,,,,,,,,,,,,,,,,,,,,,,,,,,,,,,,,,,,,,,,,,,,,,,,,,,,,,,,,,,,,TJJYT8,train_x,blue_star,top_right,2024-12-16_16h12.27.030,HideSeek_v1,2022.2.5,59.9257759407959,
,,,,,,,,,,,,,,,3,0,3,0,1,0,1,0,,,,,,,,,,,,,,,,,,,,,,,,,,,,,,,conditions/schedules/train_x_first/blue_star_00/top_right/instructions/Slide18.png,conditions/schedules/train_x_first/blue_star_00/top_right/instructions/Audio18.wav,1607.413322700013,1607.403291360056,18,"[30.079163199989125, 18.454024499980733, 16.88822409999557, 19.60376000002725, 5.3425710999872535, 5.324127600004431, 5.535035899956711, 12.003874799993355, 6.159431500011124, 7.247544799989555, 10.15140590001829, 12.622346399992239, 18.515860999992583, 12.968909999995958, 31.134421599970665, 21.595761599950492, 39.601577099994756, 6.343167300045025]","[30.079182699962985, 18.45403249998344, 16.88823169999523, 19.60376800002996, 5.342580399999861, 5.324135600007139, 5.5350437999586575, 12.003882399993017, 0.014132199983578175, 7.247551599983126, 10.151413700019475, 12.622354799997993, 18.515869299997576, 12.968917699996382, 31.134428899968043, 21.595769299950916, 39.601589799975045, 6.343175200046971]",0,,,,,,,,,,,,,,,,,,,,,,,,,,,,,,,,,,,,,,,,,,,,,,,,,,,,,,,,,,,,,,,,,,,,,,,,,,,,,,,,,,,,,,,,,,,,,,,,,,,,,,,,,,,,,,,,,,,,,,,,,,,,TJJYT8,train_x,blue_star,top_right,2024-12-16_16h12.27.030,HideSeek_v1,2022.2.5,59.9257759407959,
,,,,,,,,,,,,,,,3,0,3,0,2,0,2,0,,,,,,,,,,,,,,,,,,,,,,,,,,,,,,,conditions/schedules/train_x_first/blue_star_00/top_right/instructions/Slide19.png,conditions/schedules/train_x_first/blue_star_00/top_right/instructions/Audio19.wav,1613.875027400034,1613.8754108800438,19,"[30.079163199989125, 18.454024499980733, 16.88822409999557, 19.60376000002725, 5.3425710999872535, 5.324127600004431, 5.535035899956711, 12.003874799993355, 6.159431500011124, 7.247544799989555, 10.15140590001829, 12.622346399992239, 18.515860999992583, 12.968909999995958, 31.134421599970665, 21.595761599950492, 39.601577099994756, 6.343167300045025, 10.439792799996212]","[30.079182699962985, 18.45403249998344, 16.88823169999523, 19.60376800002996, 5.342580399999861, 5.324135600007139, 5.5350437999586575, 12.003882399993017, 0.014132199983578175, 7.247551599983126, 10.151413700019475, 12.622354799997993, 18.515869299997576, 12.968917699996382, 31.134428899968043, 21.595769299950916, 39.601589799975045, 6.343175200046971, 10.439800899999682]",0,,,,,,,,,,,,,,,,,,,,,,,,,,,,,,,,,,,,,,,,,,,,,,,,,,,,,,,,,,,,,,,,,,,,,,,,,,,,,,,,,,,,,,,,,,,,,,,,,,,,,,,,,,,,,,,,,,,,,,,,,,,,TJJYT8,train_x,blue_star,top_right,2024-12-16_16h12.27.030,HideSeek_v1,2022.2.5,59.9257759407959,
,,,,,,,,,,,,,,,3,0,3,0,3,0,3,0,,,,,,,,,,,,,,,,,,,,,,,,,,,,,,,conditions/schedules/train_x_first/blue_star_00/top_right/instructions/Slide20.png,conditions/schedules/train_x_first/blue_star_00/top_right/instructions/Audio20.wav,1624.5019364000182,1624.5003917200142,20,"[30.079163199989125, 18.454024499980733, 16.88822409999557, 19.60376000002725, 5.3425710999872535, 5.324127600004431, 5.535035899956711, 12.003874799993355, 6.159431500011124, 7.247544799989555, 10.15140590001829, 12.622346399992239, 18.515860999992583, 12.968909999995958, 31.134421599970665, 21.595761599950492, 39.601577099994756, 6.343167300045025, 10.439792799996212, 14.308391600032337]","[30.079182699962985, 18.45403249998344, 16.88823169999523, 19.60376800002996, 5.342580399999861, 5.324135600007139, 5.5350437999586575, 12.003882399993017, 0.014132199983578175, 7.247551599983126, 10.151413700019475, 12.622354799997993, 18.515869299997576, 12.968917699996382, 31.134428899968043, 21.595769299950916, 39.601589799975045, 6.343175200046971, 10.439800899999682, 14.30840109998826]",0,,,,,,,,,,,,,,,,,,,,,,,,,,,,,,,,,,,,,,,,,,,,,,,,,,,,,,,,,,,,,,,,,,,,,,,,,,,,,,,,,,,,,,,,,,,,,,,,,,,,,,,,,,,,,,,,,,,,,,,,,,,,TJJYT8,train_x,blue_star,top_right,2024-12-16_16h12.27.030,HideSeek_v1,2022.2.5,59.9257759407959,
1,5,8,5,3,0,-5,66,2,instr_dim1_2,,,,,,3,0,3,0,,,,,0,0,0,0,,,,,,,,,,,,,,,,,,,,,,,,,,,,,,,,,,,,,stimuli/alien_stimuli/66.png,conditions/schedules/train_x_first/blue_star_00/top_right/inputInstr_2.xlsx,stimuli/alien_stimuli/66.png,1638.9612324000336,1638.9612324000336,1638.9612324000336,1638.9612324000336,1638.9624219000107,return,6.595978899975307,"[-0.16, -0.08, 0, 0.08, 0.16, 0.24, 0.32, 0.4, 0.48, 0.56]","[-0.4, -0.32, -0.24, -0.16, -0.08, 0, 0.08, 0.16, 0.24, 0.32]",3,8,5,5,0.4,0.0,1645.7157027000212,1645.7157027000212,1645.7157027000212,1645.7157027000212,1645.7157027000212,1645.7157027000212,1645.7157027000212,1645.717808290047,8.424751400016248,return,8.27068189997226,stimuli/alien_stimuli/66.png,66,5,1,,,,,,,,,,,,,,,,,,,,,,,,,,,,,,,,,,,,,,,,,,,,,,,,,,,,,,,,,,,,,,,,,,,,,,,,,,,,,,,,,,,,,,,,,TJJYT8,train_x,blue_star,top_right,2024-12-16_16h12.27.030,HideSeek_v1,2022.2.5,59.9257759407959,
,,,,,,,,,,,30,,,,3,0,3,0,,,,,,,,,,,,,,,,,,,,,,,,,,,,,,,,,,,,,,,,,,,,,,,,,,,,,,,,,,,,,,,,,,,,,,,,,,,,,,21,0.7,0.5416666666666667,1,99,2,30,0,conditions/schedules/train_x_first/blue_star_00/top_right/inputTrain_2.1.xlsx,99,1,2,1,0,,,,,,,,,,,,,,,,,,,,,,,,,,,,,,,,,,,,,,,,,,,,,,,,,,,,,,,,,,,,,,,,,,,,,,,,,,,TJJYT8,train_x,blue_star,top_right,2024-12-16_16h12.27.030,HideSeek_v1,2022.2.5,59.9257759407959,
,,,,,,,,,,,,,,,4,0,4,0,0,0,0,0,,,,,,,,,,,,,,,,,,,,,,,,,,,,,,,conditions/schedules/train_x_first/blue_star_00/top_right/instructions/Slide21.png,conditions/schedules/train_x_first/blue_star_00/top_right/instructions/Audio21.wav,1654.3274079000112,1654.3246111000772,21,"[30.079163199989125, 18.454024499980733, 16.88822409999557, 19.60376000002725, 5.3425710999872535, 5.324127600004431, 5.535035899956711, 12.003874799993355, 6.159431500011124, 7.247544799989555, 10.15140590001829, 12.622346399992239, 18.515860999992583, 12.968909999995958, 31.134421599970665, 21.595761599950492, 39.601577099994756, 6.343167300045025, 10.439792799996212, 14.308391600032337, 16.39468610001495]","[30.079182699962985, 18.45403249998344, 16.88823169999523, 19.60376800002996, 5.342580399999861, 5.324135600007139, 5.5350437999586575, 12.003882399993017, 0.014132199983578175, 7.247551599983126, 10.151413700019475, 12.622354799997993, 18.515869299997576, 12.968917699996382, 31.134428899968043, 21.595769299950916, 39.601589799975045, 6.343175200046971, 10.439800899999682, 14.30840109998826, 16.394693700014614]",0,,,,,,,,,,,,,,,,,,,,,,,,,,,,,,,,,,,,,,,,,,,,,,,,,,,,,,,,,,,,,,,,,,,,,,,,,,,,,,,,,,,,,,,,,,,,,,,,,,,,,,,,,,,,,,,,,,,,,,,,,,,,TJJYT8,train_x,blue_star,top_right,2024-12-16_16h12.27.030,HideSeek_v1,2022.2.5,59.9257759407959,
2,7,8,7,8,0,0,61,2,instr_dim1_2,,,,,,4,0,4,0,,,,,0,0,0,0,,,,,,,,,,,,,,,,,,,,,,,,,,,,,,,,,,,,,stimuli/alien_stimuli/61.png,conditions/schedules/train_x_first/blue_star_00/top_right/inputInstr_2.xlsx,stimuli/alien_stimuli/61.png,1670.8415671000257,1670.8415671000257,1670.8415671000257,1670.8415671000257,1670.8388448800195,return,5.902713600022253,"[-0.16, -0.08, 0, 0.08, 0.16, 0.24, 0.32, 0.4, 0.48, 0.56]","[-0.4, -0.32, -0.24, -0.16, -0.08, 0, 0.08, 0.16, 0.24, 0.32]",8,8,7,7,0.0,0.0,1676.9092385999975,1676.9092385999975,1676.9092385999975,1676.9092385999975,1676.9092385999975,1676.9092385999975,1676.9092385999975,1676.9106553900172,6.973711500002537,return,6.821787099994253,stimuli/alien_stimuli/61.png,61,7,2,,,,,,,,,,,,,,,,,,,,,,,,,,,,,,,,,,,,,,,,,,,,,,,,,,,,,,,,,,,,,,,,,,,,,,,,,,,,,,,,,,,,,,,,,TJJYT8,train_x,blue_star,top_right,2024-12-16_16h12.27.030,HideSeek_v1,2022.2.5,59.9257759407959,
,,,,,,,,,,,30,,,,4,0,4,0,,,,,,,,,,,,,,,,,,,,,,,,,,,,,,,,,,,,,,,,,,,,,,,,,,,,,,,,,,,,,,,,,,,,,,,,,,,,,,21,0.7,0.5416666666666667,1,99,2,30,0,conditions/schedules/train_x_first/blue_star_00/top_right/inputTrain_2.1.xlsx,99,1,2,1,0,,,,,,,,,,,,,,,,,,,,,,,,,,,,,,,,,,,,,,,,,,,,,,,,,,,,,,,,,,,,,,,,,,,,,,,,,,,TJJYT8,train_x,blue_star,top_right,2024-12-16_16h12.27.030,HideSeek_v1,2022.2.5,59.9257759407959,
,,,,,,,,,,,,,,,5,0,5,0,0,0,0,0,,,,,,,,,,,,,,,,,,,,,,,,,,,,,,,conditions/schedules/train_x_first/blue_star_00/top_right/instructions/Slide22.png,conditions/schedules/train_x_first/blue_star_00/top_right/instructions/Audio22.wav,1684.0172740000417,1684.0165266700556,22,"[30.079163199989125, 18.454024499980733, 16.88822409999557, 19.60376000002725, 5.3425710999872535, 5.324127600004431, 5.535035899956711, 12.003874799993355, 6.159431500011124, 7.247544799989555, 10.15140590001829, 12.622346399992239, 18.515860999992583, 12.968909999995958, 31.134421599970665, 21.595761599950492, 39.601577099994756, 6.343167300045025, 10.439792799996212, 14.308391600032337, 16.39468610001495, 43.16557610000018]","[30.079182699962985, 18.45403249998344, 16.88823169999523, 19.60376800002996, 5.342580399999861, 5.324135600007139, 5.5350437999586575, 12.003882399993017, 0.014132199983578175, 7.247551599983126, 10.151413700019475, 12.622354799997993, 18.515869299997576, 12.968917699996382, 31.134428899968043, 21.595769299950916, 39.601589799975045, 6.343175200046971, 10.439800899999682, 14.30840109998826, 16.394693700014614, 43.1655877000303]",0,,,,,,,,,,,,,,,,,,,,,,,,,,,,,,,,,,,,,,,,,,,,,,,,,,,,,,,,,,,,,,,,,,,,,,,,,,,,,,,,,,,,,,,,,,,,,,,,,,,,,,,,,,,,,,,,,,,,,,,,,,,,TJJYT8,train_x,blue_star,top_right,2024-12-16_16h12.27.030,HideSeek_v1,2022.2.5,59.9257759407959,
,5,5,5,1,0,-4,65,,train_dim1_2,1,30,,,,5,0,5,0,,,,,,,,,0,0,0,0,0,0,0,0,0,0,0,0,,,,,,,,,,,,,,,,,,,,,,,,,stimuli/alien_stimuli/65.png,,,,,,,,,,,,,,,,,,,,,,,,,,,,,,,,,,,,,,,30,,,,,,,,1727.3459955000435,1727.3459955000435,1727.3459955000435,1727.3459955000435,1727.3459955000435,down,4.687172199948691,0,0,0,99,0.24,-0.08,down,4.5429803999722935,,,,,,,,,,,,,,,,,,,,,,,,,,,,,,,,,,,,,,,,,,,,,,,,,,,,,,,,,,,,TJJYT8,train_x,blue_star,top_right,2024-12-16_16h12.27.030,HideSeek_v1,2022.2.5,59.9257759407959,
,5,5,5,1,0,-4,65,,train_dim1_2,1,30,,,,5,0,5,0,,,,,,,,,0,0,0,0,0,0,0,0,1,0,1,0,,,,,,,,,,,,,,,,,,,,,,,,,,,,,,,,,,,,,,,,,,,,,,,,,,,,,,,,,,,,,,,,30,,,,,,,,1731.9725999000366,1731.9725999000366,1731.9725999000366,1731.9725999000366,1731.9725999000366,down,0.9256946999812499,0,0,0,99,0.24,-0.16,down,0.8436988999601454,,,,,,,,,,,,,,,,,,,,,,,,,,,,,,,,,,,,,,,,,,,,,,,,,,,,,,,,,,,,TJJYT8,train_x,blue_star,top_right,2024-12-16_16h12.27.030,HideSeek_v1,2022.2.5,59.9257759407959,
,5,5,5,1,0,-4,65,,train_dim1_2,1,30,,,,5,0,5,0,,,,,,,,,0,0,0,0,0,0,0,0,2,0,2,0,,,,,,,,,,,,,,,,,,,,,,,,,,,,,,,,,,,,,,,,,,,,,,,,,,,,,,,,,,,,,,,,30,,,,,,,,1732.9049113999936,1732.9049113999936,1732.9049113999936,1732.9049113999936,1732.9049113999936,down,0.810224000015296,0,0,0,99,0.24,-0.24,down,0.723480999993626,,,,,,,,,,,,,,,,,,,,,,,,,,,,,,,,,,,,,,,,,,,,,,,,,,,,,,,,,,,,TJJYT8,train_x,blue_star,top_right,2024-12-16_16h12.27.030,HideSeek_v1,2022.2.5,59.9257759407959,
,5,5,5,1,0,-4,65,,train_dim1_2,1,30,,,,5,0,5,0,,,,,,,,,0,0,0,0,0,0,0,0,3,0,3,0,,,,,,,,,,,,,,,,,,,,,,,,,,,,,,,,,,,,,,,,,,,,,,,,,,,,,,,,,,,,,,,,30,,,,,,,,1733.7224456000258,1733.7224456000258,1733.7224456000258,1733.7224456000258,1733.7224456000258,down,0.7268610000028275,0,0,0,99,0.24,-0.32,down,0.646626700006891,,,,,,,,,,,,,,,,,,,,,,,,,,,,,,,,,,,,,,,,,,,,,,,,,,,,,,,,,,,,TJJYT8,train_x,blue_star,top_right,2024-12-16_16h12.27.030,HideSeek_v1,2022.2.5,59.9257759407959,
