trialInstr,x_fixStart,y_fixStart,x_corrSteps,y_corrSteps,x_nrSteps,y_nrSteps,alienID,trialLength,version,trialTrain,praclen,testlen,trial_label,break_on_off,beforeExpLoop.thisRepN,beforeExpLoop.thisTrialN,beforeExpLoop.thisN,beforeExpLoop.thisIndex,mini_instr_trials.thisRepN,mini_instr_trials.thisTrialN,mini_instr_trials.thisN,mini_instr_trials.thisIndex,instrLoop.thisRepN,instrLoop.thisTrialN,instrLoop.thisN,instrLoop.thisIndex,repeat_prac.thisRepN,repeat_prac.thisTrialN,repeat_prac.thisN,repeat_prac.thisIndex,trainLoop.thisRepN,trainLoop.thisTrialN,trainLoop.thisN,trainLoop.thisIndex,moveLoop_train.thisRepN,moveLoop_train.thisTrialN,moveLoop_train.thisN,moveLoop_train.thisIndex,experiment.thisRepN,experiment.thisTrialN,experiment.thisN,experiment.thisIndex,moveLoop_test.thisRepN,moveLoop_test.thisTrialN,moveLoop_test.thisN,moveLoop_test.thisIndex,mini_instr2_trials.thisRepN,mini_instr2_trials.thisTrialN,mini_instr2_trials.thisN,mini_instr2_trials.thisIndex,start_all_time,url,slideStim,audioStim,slides.started,sounds.started,nextButton.numClicks,nextButton.timesOn,nextButton.timesOff,prev_but.numClicks,prev_but.timesOn,prev_but.timesOff,alienStim,instrFile,alienStim_instr,gridImage_instr.started,startPos_3.started,key_instr.started,alienImage_3.started,sounds_1.started,key_instr.keys,key_instr.rt,all_x,all_y,FBy_corrSteps,FBy_fixStart,FBx_corrSteps,FBx_fixStart,FBy_pathSize_check,FBx_pathSize_check,gridImage_9.started,alienImageFB_3.started,startPosFB_3.started,keyFB_3.started,pathLine_ydir_2.started,pathLine_xdir_2.started,alienFace_3.started,sounds_2.started,RTFB_instr,keyFB_3.keys,keyFB_3.rt,draw_alienStim,draw_alienID,test_x,nrepcount,perfthres,percthres,earlierperf,earlystop,nextPrac,fileidx,praclen,saveACC_train,pracFile,nextPrac_train,addNrep,fileidx_endr,repExp,showearly,gridImage_4.started,startPos.started,movePos.started,key_resp.started,alienImage.started,buttonPress_train,RTchoice_train,cumAcctrain,aCorr,saveACC_choice,corrAns,x_movePos_end,y_movePos_end,key_resp.keys,key_resp.rt,wLy_dir,wLx_dir,x_movePos,y_movePos,text_2.started,text_2.stopped,aft_x_corrPos,aft_y_corrPos,y_pathSize_check,x_pathSize_check,y_pathdirY,x_pathdirY,x_pathdirX,x_corrPos,y_corrPos,gridImage_6.started,alienImageFB_2.started,startPosFB_2.started,movePosFB_2.started,keyFB_2.started,pathLine_xdir.started,pathLine_ydir.started,alienFace.started,sounds_4.started,RT_FBtrain,keyFB_2.keys,keyFB_2.rt,saveACC_pre,ACC,within_saveACC_train,earlystop_wloop,cumAcctrain_check,gridImage_3.started,alienImage_test.started,startPos_test.started,movePos_test.started,key_resp_test.started,wLy_dir_test,wLx_dir_test,buttonPress_test,RTchoice_test,cumAcctest,corrAns_test,key_resp_test.keys,key_resp_test.rt,text_3.started,text_3.stopped,total_time,end_all_time,key_resp_3.keys,slides_2.started,sounds_3.started,nextButton_2.numClicks,nextButton_2.timesOn,nextButton_2.timesOff,prev_but_2.numClicks,prev_but_2.timesOn,prev_but_2.timesOff,bye.started,participant,train_first,00_coordinate,starting corner,date,expName,psychopyVersion,frameRate,
,,,,,,,,,,,,,,,0,0,0,0,0,0,0,0,,,,,,,,,,,,,,,,,,,,,,,,,,,,,start_all_time,testround,conditions/schedules/train_x_first/blue_star_00/top_right/instructions/Slide1.png,conditions/schedules/train_x_first/blue_star_00/top_right/instructions/Audio1.wav,1727.3181523000821,1727.26144747769,1,[4.122872699983418],[4.122886399971321],0,,,,,,,,,,,,,,,,,,,,,,,,,,,,,,,,,,,,,,,,,,,,,,,,,,,,,,,,,,,,,,,,,,,,,,,,,,,,,,,,,,,,,,,,,,,,,,,,,,,,,,,,,,,,,,,,,,,,,,,,,,,,TLPMPX,train_x,blue_star,top_right,2025-08-14_15h33.58.124,HideSeek_v1,2022.2.5,59.94873185891239,
,,,,,,,,,,,,,,,0,0,0,0,1,0,1,0,,,,,,,,,,,,,,,,,,,,,,,,,,,,,,,conditions/schedules/train_x_first/blue_star_00/top_right/instructions/Slide2.png,conditions/schedules/train_x_first/blue_star_00/top_right/instructions/Audio2.wav,1731.4643855000613,1731.4592864500592,2,"[4.122872699983418, 18.84148079995066]","[0.047978000016883016, 18.841488000005484]",0,,,,,,,,,,,,,,,,,,,,,,,,,,,,,,,,,,,,,,,,,,,,,,,,,,,,,,,,,,,,,,,,,,,,,,,,,,,,,,,,,,,,,,,,,,,,,,,,,,,,,,,,,,,,,,,,,,,,,,,,,,,,TLPMPX,train_x,blue_star,top_right,2025-08-14_15h33.58.124,HideSeek_v1,2022.2.5,59.94873185891239,
,,,,,,,,,,,,,,,0,0,0,0,2,0,2,0,,,,,,,,,,,,,,,,,,,,,,,,,,,,,,,conditions/schedules/train_x_first/blue_star_00/top_right/instructions/Slide3.png,conditions/schedules/train_x_first/blue_star_00/top_right/instructions/Audio3.wav,1750.374152500066,1750.3748086499982,3,"[4.122872699983418, 18.84148079995066, 16.845458600088023]","[0.047978000016883016, 0.047473000013269484, 16.845464700018056]",0,,,,,,,,,,,,,,,,,,,,,,,,,,,,,,,,,,,,,,,,,,,,,,,,,,,,,,,,,,,,,,,,,,,,,,,,,,,,,,,,,,,,,,,,,,,,,,,,,,,,,,,,,,,,,,,,,,,,,,,,,,,,TLPMPX,train_x,blue_star,top_right,2025-08-14_15h33.58.124,HideSeek_v1,2022.2.5,59.94873185891239,
,,,,,,,,,,,,,,,0,0,0,0,3,0,3,0,,,,,,,,,,,,,,,,,,,,,,,,,,,,,,,conditions/schedules/train_x_first/blue_star_00/top_right/instructions/Slide4.png,conditions/schedules/train_x_first/blue_star_00/top_right/instructions/Audio4.wav,1767.3039407000178,1767.3059310799697,4,"[4.122872699983418, 18.84148079995066, 16.845458600088023, 19.499343500006944]","[0.047978000016883016, 0.047473000013269484, 0.0325462999753654, 19.499354199972004]",0,,,,,,,,,,,,,,,,,,,,,,,,,,,,,,,,,,,,,,,,,,,,,,,,,,,,,,,,,,,,,,,,,,,,,,,,,,,,,,,,,,,,,,,,,,,,,,,,,,,,,,,,,,,,,,,,,,,,,,,,,,,,TLPMPX,train_x,blue_star,top_right,2025-08-14_15h33.58.124,HideSeek_v1,2022.2.5,59.94873185891239,
,,,,,,,,,,,,,,,0,0,0,0,4,0,4,0,,,,,,,,,,,,,,,,,,,,,,,,,,,,,,,conditions/schedules/train_x_first/blue_star_00/top_right/instructions/Slide5.png,conditions/schedules/train_x_first/blue_star_00/top_right/instructions/Audio5.wav,1786.8711112000747,1786.8721236500423,5,"[4.122872699983418, 18.84148079995066, 16.845458600088023, 19.499343500006944, 4.385539899929427]","[0.047978000016883016, 0.047473000013269484, 0.0325462999753654, 0.06529929989483207, 4.385547599988058]",0,,,,,,,,,,,,,,,,,,,,,,,,,,,,,,,,,,,,,,,,,,,,,,,,,,,,,,,,,,,,,,,,,,,,,,,,,,,,,,,,,,,,,,,,,,,,,,,,,,,,,,,,,,,,,,,,,,,,,,,,,,,,TLPMPX,train_x,blue_star,top_right,2025-08-14_15h33.58.124,HideSeek_v1,2022.2.5,59.94873185891239,
,,,,,,,,,,,,,,,0,0,0,0,5,0,5,0,,,,,,,,,,,,,,,,,,,,,,,,,,,,,,,conditions/schedules/train_x_first/blue_star_00/top_right/instructions/Slide6.png,conditions/schedules/train_x_first/blue_star_00/top_right/instructions/Audio6.wav,1791.3070130000124,1791.3088648199803,6,"[4.122872699983418, 18.84148079995066, 16.845458600088023, 19.499343500006944, 4.385539899929427, 6.087698700022884]","[0.047978000016883016, 0.047473000013269484, 0.0325462999753654, 0.06529929989483207, 0.08268810005392879, 6.087705800076947]",0,,,,,,,,,,,,,,,,,,,,,,,,,,,,,,,,,,,,,,,,,,,,,,,,,,,,,,,,,,,,,,,,,,,,,,,,,,,,,,,,,,,,,,,,,,,,,,,,,,,,,,,,,,,,,,,,,,,,,,,,,,,,TLPMPX,train_x,blue_star,top_right,2025-08-14_15h33.58.124,HideSeek_v1,2022.2.5,59.94873185891239,
,,,,,,,,,,,,,,,0,0,0,0,6,0,6,0,,,,,,,,,,,,,,,,,,,,,,,,,,,,,,,conditions/schedules/train_x_first/blue_star_00/top_right/instructions/Slide7.png,conditions/schedules/train_x_first/blue_star_00/top_right/instructions/Audio7.wav,1797.4455925000366,1797.4472900199937,7,"[4.122872699983418, 18.84148079995066, 16.845458600088023, 19.499343500006944, 4.385539899929427, 6.087698700022884, 6.271840999950655]","[0.047978000016883016, 0.047473000013269484, 0.0325462999753654, 0.06529929989483207, 0.08268810005392879, 0.08346430002711713, 6.2718494000146165]",0,,,,,,,,,,,,,,,,,,,,,,,,,,,,,,,,,,,,,,,,,,,,,,,,,,,,,,,,,,,,,,,,,,,,,,,,,,,,,,,,,,,,,,,,,,,,,,,,,,,,,,,,,,,,,,,,,,,,,,,,,,,,TLPMPX,train_x,blue_star,top_right,2025-08-14_15h33.58.124,HideSeek_v1,2022.2.5,59.94873185891239,
,,,,,,,,,,,,,,,0,0,0,0,7,0,7,0,,,,,,,,,,,,,,,,,,,,,,,,,,,,,,,conditions/schedules/train_x_first/blue_star_00/top_right/instructions/Slide8.png,conditions/schedules/train_x_first/blue_star_00/top_right/instructions/Audio8.wav,1803.7714876000537,1803.7693280199776,8,"[4.122872699983418, 18.84148079995066, 16.845458600088023, 19.499343500006944, 4.385539899929427, 6.087698700022884, 6.271840999950655, 12.390179399983026]","[0.047978000016883016, 0.047473000013269484, 0.0325462999753654, 0.06529929989483207, 0.08268810005392879, 0.08346430002711713, 0.06573300005402416, 12.390190900070593]",0,,,,,,,,,,,,,,,,,,,,,,,,,,,,,,,,,,,,,,,,,,,,,,,,,,,,,,,,,,,,,,,,,,,,,,,,,,,,,,,,,,,,,,,,,,,,,,,,,,,,,,,,,,,,,,,,,,,,,,,,,,,,TLPMPX,train_x,blue_star,top_right,2025-08-14_15h33.58.124,HideSeek_v1,2022.2.5,59.94873185891239,
,,,,,,,,,,,,,,,0,0,0,0,8,0,8,0,,,,,,,,,,,,,,,,,,,,,,,,,,,,,,,conditions/schedules/train_x_first/blue_star_00/top_right/instructions/Slide9.png,conditions/schedules/train_x_first/blue_star_00/top_right/instructions/Audio9.wav,1816.2303545000032,1816.2294870499754,9,"[4.122872699983418, 18.84148079995066, 16.845458600088023, 19.499343500006944, 4.385539899929427, 6.087698700022884, 6.271840999950655, 12.390179399983026, 6.451670099981129]","[0.047978000016883016, 0.047473000013269484, 0.0325462999753654, 0.06529929989483207, 0.08268810005392879, 0.08346430002711713, 0.06573300005402416, 0.029995499993674457, 6.451677100034431]",0,,,,,,,,,,,,,,,,,,,,,,,,,,,,,,,,,,,,,,,,,,,,,,,,,,,,,,,,,,,,,,,,,,,,,,,,,,,,,,,,,,,,,,,,,,,,,,,,,,,,,,,,,,,,,,,,,,,,,,,,,,,,TLPMPX,train_x,blue_star,top_right,2025-08-14_15h33.58.124,HideSeek_v1,2022.2.5,59.94873185891239,
,,,,,,,,,,,,,,,0,0,0,0,9,0,9,0,,,,,,,,,,,,,,,,,,,,,,,,,,,,,,,conditions/schedules/train_x_first/blue_star_00/top_right/instructions/Slide10.png,conditions/schedules/train_x_first/blue_star_00/top_right/instructions/Audio10.wav,1822.7287288000807,1822.7182529900222,10,"[4.122872699983418, 18.84148079995066, 16.845458600088023, 19.499343500006944, 4.385539899929427, 6.087698700022884, 6.271840999950655, 12.390179399983026, 6.451670099981129, 7.543779700063169]","[0.047978000016883016, 0.047473000013269484, 0.0325462999753654, 0.06529929989483207, 0.08268810005392879, 0.08346430002711713, 0.06573300005402416, 0.029995499993674457, 0.05433049995917827, 7.543787300004624]",0,,,,,,,,,,,,,,,,,,,,,,,,,,,,,,,,,,,,,,,,,,,,,,,,,,,,,,,,,,,,,,,,,,,,,,,,,,,,,,,,,,,,,,,,,,,,,,,,,,,,,,,,,,,,,,,,,,,,,,,,,,,,TLPMPX,train_x,blue_star,top_right,2025-08-14_15h33.58.124,HideSeek_v1,2022.2.5,59.94873185891239,
,,,,,,,,,,,,,,,0,0,0,0,10,0,10,0,,,,,,,,,,,,,,,,,,,,,,,,,,,,,,,conditions/schedules/train_x_first/blue_star_00/top_right/instructions/Slide11.png,conditions/schedules/train_x_first/blue_star_00/top_right/instructions/Audio11.wav,1830.3264300000155,1830.3247276200448,11,"[4.122872699983418, 18.84148079995066, 16.845458600088023, 19.499343500006944, 4.385539899929427, 6.087698700022884, 6.271840999950655, 12.390179399983026, 6.451670099981129, 7.543779700063169, 10.721391699975356]","[0.047978000016883016, 0.047473000013269484, 0.0325462999753654, 0.06529929989483207, 0.08268810005392879, 0.08346430002711713, 0.06573300005402416, 0.029995499993674457, 0.05433049995917827, 0.04789619997609407, 10.721398599911481]",0,,,,,,,,,,,,,,,,,,,,,,,,,,,,,,,,,,,,,,,,,,,,,,,,,,,,,,,,,,,,,,,,,,,,,,,,,,,,,,,,,,,,,,,,,,,,,,,,,,,,,,,,,,,,,,,,,,,,,,,,,,,,TLPMPX,train_x,blue_star,top_right,2025-08-14_15h33.58.124,HideSeek_v1,2022.2.5,59.94873185891239,
,,,,,,,,,,,,,,,0,0,0,0,11,0,11,0,,,,,,,,,,,,,,,,,,,,,,,,,,,,,,,conditions/schedules/train_x_first/blue_star_00/top_right/instructions/Slide12.png,conditions/schedules/train_x_first/blue_star_00/top_right/instructions/Audio12.wav,1841.1158095999854,1841.1167818499962,12,"[4.122872699983418, 18.84148079995066, 16.845458600088023, 19.499343500006944, 4.385539899929427, 6.087698700022884, 6.271840999950655, 12.390179399983026, 6.451670099981129, 7.543779700063169, 10.721391699975356, 13.444567900034599]","[0.047978000016883016, 0.047473000013269484, 0.0325462999753654, 0.06529929989483207, 0.08268810005392879, 0.08346430002711713, 0.06573300005402416, 0.029995499993674457, 0.05433049995917827, 0.04789619997609407, 0.049222699948586524, 13.444575399975292]",0,,,,,,,,,,,,,,,,,,,,,,,,,,,,,,,,,,,,,,,,,,,,,,,,,,,,,,,,,,,,,,,,,,,,,,,,,,,,,,,,,,,,,,,,,,,,,,,,,,,,,,,,,,,,,,,,,,,,,,,,,,,,TLPMPX,train_x,blue_star,top_right,2025-08-14_15h33.58.124,HideSeek_v1,2022.2.5,59.94873185891239,
1,9,5,4,5,-5,0,11,2,instr_dim1_1,,,,,,0,0,0,0,,,,,0,0,0,0,,,,,,,,,,,,,,,,,,,,,,,,,,,,,,,,,,,,,stimuli/alien_stimuli/11.png,conditions/schedules/train_x_first/blue_star_00/top_right/inputInstr_1.xlsx,stimuli/alien_stimuli/11.png,1854.6643064999953,1854.6643064999953,1854.6643064999953,1854.6643064999953,1854.6614855099701,return,13.082317700027488,"[-0.16, -0.08, 0, 0.08, 0.16, 0.24, 0.32, 0.4, 0.48, 0.56]","[-0.4, -0.32, -0.24, -0.16, -0.08, 0, 0.08, 0.16, 0.24, 0.32]",5,5,4,9,0.0,0.4,1867.9123811000027,1867.9123811000027,1867.9123811000027,1867.9123811000027,1867.9123811000027,1867.9123811000027,1867.9123811000027,1867.9059542699717,7.823851500055753,return,7.654999999911524,stimuli/alien_stimuli/11.png,11,9,1,,,,,,,,,,,,,,,,,,,,,,,,,,,,,,,,,,,,,,,,,,,,,,,,,,,,,,,,,,,,,,,,,,,,,,,,,,,,,,,,,,,,,,,,,TLPMPX,train_x,blue_star,top_right,2025-08-14_15h33.58.124,HideSeek_v1,2022.2.5,59.94873185891239,
,,,,,,,,,,,30,,,,0,0,0,0,,,,,,,,,,,,,,,,,,,,,,,,,,,,,,,,,,,,,,,,,,,,,,,,,,,,,,,,,,,,,,,,,,,,,,,,,,,,,,21,0.7,0,0,99,1,30,0,conditions/schedules/train_x_first/blue_star_00/top_right/inputTrain_1.1.xlsx,99,1,1,1,0,,,,,,,,,,,,,,,,,,,,,,,,,,,,,,,,,,,,,,,,,,,,,,,,,,,,,,,,,,,,,,,,,,,,,,,,,,,TLPMPX,train_x,blue_star,top_right,2025-08-14_15h33.58.124,HideSeek_v1,2022.2.5,59.94873185891239,
,,,,,,,,,,,,,,,1,0,1,0,0,0,0,0,,,,,,,,,,,,,,,,,,,,,,,,,,,,,,,conditions/schedules/train_x_first/blue_star_00/top_right/instructions/Slide13.png,conditions/schedules/train_x_first/blue_star_00/top_right/instructions/Audio13.wav,1875.7495182000566,1875.7457378999097,13,"[4.122872699983418, 18.84148079995066, 16.845458600088023, 19.499343500006944, 4.385539899929427, 6.087698700022884, 6.271840999950655, 12.390179399983026, 6.451670099981129, 7.543779700063169, 10.721391699975356, 13.444567900034599, 18.008206199971028]","[0.047978000016883016, 0.047473000013269484, 0.0325462999753654, 0.06529929989483207, 0.08268810005392879, 0.08346430002711713, 0.06573300005402416, 0.029995499993674457, 0.05433049995917827, 0.04789619997609407, 0.049222699948586524, 13.444575399975292, 18.00821289990563]",0,,,,,,,,,,,,,,,,,,,,,,,,,,,,,,,,,,,,,,,,,,,,,,,,,,,,,,,,,,,,,,,,,,,,,,,,,,,,,,,,,,,,,,,,,,,,,,,,,,,,,,,,,,,,,,,,,,,,,,,,,,,,TLPMPX,train_x,blue_star,top_right,2025-08-14_15h33.58.124,HideSeek_v1,2022.2.5,59.94873185891239,
,,,,,,,,,,,,,,,1,0,1,0,1,0,1,0,,,,,,,,,,,,,,,,,,,,,,,,,,,,,,,conditions/schedules/train_x_first/blue_star_00/top_right/instructions/Slide14.png,conditions/schedules/train_x_first/blue_star_00/top_right/instructions/Audio14.wav,1893.8251671000617,1893.8274687499506,14,"[4.122872699983418, 18.84148079995066, 16.845458600088023, 19.499343500006944, 4.385539899929427, 6.087698700022884, 6.271840999950655, 12.390179399983026, 6.451670099981129, 7.543779700063169, 10.721391699975356, 13.444567900034599, 18.008206199971028, 13.194147599977441]","[0.047978000016883016, 0.047473000013269484, 0.0325462999753654, 0.06529929989483207, 0.08268810005392879, 0.08346430002711713, 0.06573300005402416, 0.029995499993674457, 0.05433049995917827, 0.04789619997609407, 0.049222699948586524, 13.444575399975292, 0.08362499997019768, 13.194154299912043]",0,,,,,,,,,,,,,,,,,,,,,,,,,,,,,,,,,,,,,,,,,,,,,,,,,,,,,,,,,,,,,,,,,,,,,,,,,,,,,,,,,,,,,,,,,,,,,,,,,,,,,,,,,,,,,,,,,,,,,,,,,,,,TLPMPX,train_x,blue_star,top_right,2025-08-14_15h33.58.124,HideSeek_v1,2022.2.5,59.94873185891239,
2,8,7,8,7,0,0,61,2,instr_dim1_1,,,,,,1,0,1,0,,,,,0,0,0,0,,,,,,,,,,,,,,,,,,,,,,,,,,,,,,,,,,,,,stimuli/alien_stimuli/61.png,conditions/schedules/train_x_first/blue_star_00/top_right/inputInstr_1.xlsx,stimuli/alien_stimuli/61.png,1907.122556300019,1907.122556300019,1907.122556300019,1907.122556300019,1907.1217024099547,return,6.97794240002986,"[-0.16, -0.08, 0, 0.08, 0.16, 0.24, 0.32, 0.4, 0.48, 0.56]","[-0.4, -0.32, -0.24, -0.16, -0.08, 0, 0.08, 0.16, 0.24, 0.32]",7,7,8,8,0.0,0.0,1914.2593454000307,1914.2593454000307,1914.2593454000307,1914.2593454000307,1914.2593454000307,1914.2593454000307,1914.2593454000307,1914.2443373399785,7.507228899979964,return,7.343987800064497,stimuli/alien_stimuli/61.png,61,8,2,,,,,,,,,,,,,,,,,,,,,,,,,,,,,,,,,,,,,,,,,,,,,,,,,,,,,,,,,,,,,,,,,,,,,,,,,,,,,,,,,,,,,,,,,TLPMPX,train_x,blue_star,top_right,2025-08-14_15h33.58.124,HideSeek_v1,2022.2.5,59.94873185891239,
,,,,,,,,,,,30,,,,1,0,1,0,,,,,,,,,,,,,,,,,,,,,,,,,,,,,,,,,,,,,,,,,,,,,,,,,,,,,,,,,,,,,,,,,,,,,,,,,,,,,,21,0.7,0,0,99,1,30,0,conditions/schedules/train_x_first/blue_star_00/top_right/inputTrain_1.1.xlsx,99,1,1,1,0,,,,,,,,,,,,,,,,,,,,,,,,,,,,,,,,,,,,,,,,,,,,,,,,,,,,,,,,,,,,,,,,,,,,,,,,,,,TLPMPX,train_x,blue_star,top_right,2025-08-14_15h33.58.124,HideSeek_v1,2022.2.5,59.94873185891239,
,,,,,,,,,,,,,,,2,0,2,0,0,0,0,0,,,,,,,,,,,,,,,,,,,,,,,,,,,,,,,conditions/schedules/train_x_first/blue_star_00/top_right/instructions/Slide15.png,conditions/schedules/train_x_first/blue_star_00/top_right/instructions/Audio15.wav,1921.793395900051,1921.7839628999354,15,"[4.122872699983418, 18.84148079995066, 16.845458600088023, 19.499343500006944, 4.385539899929427, 6.087698700022884, 6.271840999950655, 12.390179399983026, 6.451670099981129, 7.543779700063169, 10.721391699975356, 13.444567900034599, 18.008206199971028, 13.194147599977441, 33.56581410008948]","[0.047978000016883016, 0.047473000013269484, 0.0325462999753654, 0.06529929989483207, 0.08268810005392879, 0.08346430002711713, 0.06573300005402416, 0.029995499993674457, 0.05433049995917827, 0.04789619997609407, 0.049222699948586524, 13.444575399975292, 0.08362499997019768, 13.194154299912043, 33.56582170003094]",0,,,,,,,,,,,,,,,,,,,,,,,,,,,,,,,,,,,,,,,,,,,,,,,,,,,,,,,,,,,,,,,,,,,,,,,,,,,,,,,,,,,,,,,,,,,,,,,,,,,,,,,,,,,,,,,,,,,,,,,,,,,,TLPMPX,train_x,blue_star,top_right,2025-08-14_15h33.58.124,HideSeek_v1,2022.2.5,59.94873185891239,
,,,,,,,,,,,,,,,2,0,2,0,1,0,1,0,,,,,,,,,,,,,,,,,,,,,,,,,,,,,,,conditions/schedules/train_x_first/blue_star_00/top_right/instructions/Slide16.png,conditions/schedules/train_x_first/blue_star_00/top_right/instructions/Audio16.wav,1955.4304813999915,1955.4288793499582,16,"[4.122872699983418, 18.84148079995066, 16.845458600088023, 19.499343500006944, 4.385539899929427, 6.087698700022884, 6.271840999950655, 12.390179399983026, 6.451670099981129, 7.543779700063169, 10.721391699975356, 13.444567900034599, 18.008206199971028, 13.194147599977441, 33.56581410008948, 22.347594700055197]","[0.047978000016883016, 0.047473000013269484, 0.0325462999753654, 0.06529929989483207, 0.08268810005392879, 0.08346430002711713, 0.06573300005402416, 0.029995499993674457, 0.05433049995917827, 0.04789619997609407, 0.049222699948586524, 13.444575399975292, 0.08362499997019768, 13.194154299912043, 0.031105900066904724, 22.34760420001112]",0,,,,,,,,,,,,,,,,,,,,,,,,,,,,,,,,,,,,,,,,,,,,,,,,,,,,,,,,,,,,,,,,,,,,,,,,,,,,,,,,,,,,,,,,,,,,,,,,,,,,,,,,,,,,,,,,,,,,,,,,,,,,TLPMPX,train_x,blue_star,top_right,2025-08-14_15h33.58.124,HideSeek_v1,2022.2.5,59.94873185891239,
,7,6,4,6,-3,0,31,,train_dim1_1,1,30,,,,2,0,2,0,,,,,,,,,0,0,0,0,0,0,0,0,0,0,0,0,,,,,,,,,,,,,,,,,,,,,,,,,stimuli/alien_stimuli/31.png,,,,,,,,,,,,,,,,,,,,,,,,,,,,,,,,,,,,,,,30,,,,,,,,1977.8817695000907,1977.8817695000907,1977.8817695000907,1977.8817695000907,1977.8817695000907,left,15.285638800007291,0,0,0,99,0.32,0.08,left,15.185810899944045,,,,,,,,,,,,,,,,,,,,,,,,,,,,,,,,,,,,,,,,,,,,,,,,,,,,,,,,,,,,TLPMPX,train_x,blue_star,top_right,2025-08-14_15h33.58.124,HideSeek_v1,2022.2.5,59.94873185891239,
,7,6,4,6,-3,0,31,,train_dim1_1,1,30,,,,2,0,2,0,,,,,,,,,0,0,0,0,0,0,0,0,1,0,1,0,,,,,,,,,,,,,,,,,,,,,,,,,,,,,,,,,,,,,,,,,,,,,,,,,,,,,,,,,,,,,,,,30,,,,,,,,1993.1706948000938,1993.1706948000938,1993.1706948000938,1993.1706948000938,1993.1706948000938,left,3.6457132999785244,0,0,0,99,0.24,0.08,left,3.5441130999242887,,,,,,,,,,,,,,,,,,,,,,,,,,,,,,,,,,,,,,,,,,,,,,,,,,,,,,,,,,,,TLPMPX,train_x,blue_star,top_right,2025-08-14_15h33.58.124,HideSeek_v1,2022.2.5,59.94873185891239,
,7,6,4,6,-3,0,31,,train_dim1_1,1,30,,,,2,0,2,0,,,,,,,,,0,0,0,0,0,0,0,0,2,0,2,0,,,,,,,,,,,,,,,,,,,,,,,,,,,,,,,,,,,,,,,,,,,,,,,,,,,,,,,,,,,,,,,,30,,,,,,,,1996.8115348999854,1996.8115348999854,1996.8115348999854,1996.8115348999854,1996.8115348999854,left,4.396590800024569,0,0,0,99,0.15999999999999998,0.08,left,4.317135000019334,,,,,,,,,,,,,,,,,,,,,,,,,,,,,,,,,,,,,,,,,,,,,,,,,,,,,,,,,,,,TLPMPX,train_x,blue_star,top_right,2025-08-14_15h33.58.124,HideSeek_v1,2022.2.5,59.94873185891239,
,7,6,4,6,-3,0,31,,train_dim1_1,1,30,,,,2,0,2,0,,,,,,,,,0,0,0,0,0,0,0,0,3,0,3,0,,,,,,,,,,,,,,,,,,,,,,,,,,,,,,,,,,,,,,,,,,,,,,,,,,,,,,,,,,,,,,,,30,,,,,,,,2001.2161696000258,2001.2161696000258,2001.2161696000258,2001.2161696000258,2001.2161696000258,down,2.2940134999807924,0,0,0,99,0.15999999999999998,0.0,down,2.2183030999731272,,,,,,,,,,,,,,,,,,,,,,,,,,,,,,,,,,,,,,,,,,,,,,,,,,,,,,,,,,,,TLPMPX,train_x,blue_star,top_right,2025-08-14_15h33.58.124,HideSeek_v1,2022.2.5,59.94873185891239,
,7,6,4,6,-3,0,31,,train_dim1_1,1,30,,,,2,0,2,0,,,,,,,,,0,0,0,0,0,0,0,0,4,0,4,0,,,,,,,,,,,,,,,,,,,,,,,,,,,,,,,,,,,,,,,,,,,,,,,,,,,,,,,,,,,,,,,,30,,,,,,,,2003.516591200023,2003.516591200023,2003.516591200023,2003.516591200023,2003.516591200023,down,0.9772314999718219,0,0,0,99,0.15999999999999998,-0.08,down,0.8881923999870196,,,,,,,,,,,,,,,,,,,,,,,,,,,,,,,,,,,,,,,,,,,,,,,,,,,,,,,,,,,,TLPMPX,train_x,blue_star,top_right,2025-08-14_15h33.58.124,HideSeek_v1,2022.2.5,59.94873185891239,
,7,6,4,6,-3,0,31,,train_dim1_1,1,30,,,,2,0,2,0,,,,,,,,,0,0,0,0,0,0,0,0,5,0,5,0,,,,,,,,,,,,,,,,,,,,,,,,,,,,,,,,,,,,,,,,,,,,,,,,,,,,,,,,,,,,,,,,30,,,,,,,,2004.4998182000127,2004.4998182000127,2004.4998182000127,2004.4998182000127,2004.4998182000127,down,0.5935252000344917,0,0,0,99,0.15999999999999998,-0.16,down,0.5159105000784621,,,,,,,,,,,,,,,,,,,,,,,,,,,,,,,,,,,,,,,,,,,,,,,,,,,,,,,,,,,,TLPMPX,train_x,blue_star,top_right,2025-08-14_15h33.58.124,HideSeek_v1,2022.2.5,59.94873185891239,
,7,6,4,6,-3,0,31,,train_dim1_1,1,30,,,,2,0,2,0,,,,,,,,,0,0,0,0,0,0,0,0,6,0,6,0,,,,,,,,,,,,,,,,,,,,,,,,,,,,,,,,,,,,,,,,,,,,,,,,,,,,,,,,,,,,,,,,30,,,,,,,,2005.1002879000735,2005.1002879000735,2005.1002879000735,2005.1002879000735,2005.1002879000735,return,2.8284917999990284,0,0,0,0,0.15999999999999998,-0.16,return,2.74235159996897,-3,-3,0.15999999999999998,-0.16,,,,,,,,,,,,,,,,,,,,,,,,,,,,,,,,,,,,,,,,,,,,,,,,,,,,,,,,TLPMPX,train_x,blue_star,top_right,2025-08-14_15h33.58.124,HideSeek_v1,2022.2.5,59.94873185891239,
,7,9,2,9,-5,0,11,,train_dim1_1,2,30,,,,2,0,2,0,,,,,,,,,0,0,0,0,0,1,1,1,0,0,0,0,,,,,,,,,,,,,,,,,,,,,,,,,stimuli/alien_stimuli/11.png,,,,,,,,,,,,,,,,,,,,,,,,,,,,,stimuli/alien_stimuli/31.png,31,7,3,,,,,,,30,,,,,,,,2027.937964700046,2027.937964700046,2027.937964700046,2027.937964700046,2027.937964700046,down,4.392532300087623,0,0,0,99,0.4,0.24,down,4.288390300003812,,,,,2026.354203300085,2027.937964700046,0.16,0.08,0.0,0.24,0.08,0.16,0.28,0.16,0.08,2009.5118096000515,2009.5118096000515,2009.5118096000515,2009.5118096000515,2009.5118096000515,2009.5118096000515,2009.5118096000515,2009.5118096000515,2009.5067968399728,16.966679299948737,return,16.82668990001548,,,,,,,,,,,,,,,,,,,,,,,,,,,,,,,,,TLPMPX,train_x,blue_star,top_right,2025-08-14_15h33.58.124,HideSeek_v1,2022.2.5,59.94873185891239,
,7,9,2,9,-5,0,11,,train_dim1_1,2,30,,,,2,0,2,0,,,,,,,,,0,0,0,0,0,1,1,1,1,0,1,0,,,,,,,,,,,,,,,,,,,,,,,,,,,,,,,,,,,,,,,,,,,,,,,,,,,,,,,,,,,,,,,,30,,,,,,,,2032.3131719999947,2032.3131719999947,2032.3131719999947,2032.3131719999947,2032.3131719999947,down,2.9950605999911204,0,0,0,99,0.4,0.15999999999999998,down,2.9135414001066238,,,,,,,,,,,,,,,,,,,,,,,,,,,,,,,,,,,,,,,,,,,,,,,,,,,,,,,,,,,,TLPMPX,train_x,blue_star,top_right,2025-08-14_15h33.58.124,HideSeek_v1,2022.2.5,59.94873185891239,
,7,9,2,9,-5,0,11,,train_dim1_1,2,30,,,,2,0,2,0,,,,,,,,,0,0,0,0,0,1,1,1,2,0,2,0,,,,,,,,,,,,,,,,,,,,,,,,,,,,,,,,,,,,,,,,,,,,,,,,,,,,,,,,,,,,,,,,30,,,,,,,,2035.316030099988,2035.316030099988,2035.316030099988,2035.316030099988,2035.316030099988,down,2.710505900089629,0,0,0,99,0.4,0.07999999999999997,down,2.624240200035274,,,,,,,,,,,,,,,,,,,,,,,,,,,,,,,,,,,,,,,,,,,,,,,,,,,,,,,,,,,,TLPMPX,train_x,blue_star,top_right,2025-08-14_15h33.58.124,HideSeek_v1,2022.2.5,59.94873185891239,
,7,9,2,9,-5,0,11,,train_dim1_1,2,30,,,,2,0,2,0,,,,,,,,,0,0,0,0,0,1,1,1,3,0,3,0,,,,,,,,,,,,,,,,,,,,,,,,,,,,,,,,,,,,,,,,,,,,,,,,,,,,,,,,,,,,,,,,30,,,,,,,,2038.0325410000514,2038.0325410000514,2038.0325410000514,2038.0325410000514,2038.0325410000514,down,2.377795199980028,0,0,0,99,0.4,-2.7755575615628914e-17,down,2.295231799944304,,,,,,,,,,,,,,,,,,,,,,,,,,,,,,,,,,,,,,,,,,,,,,,,,,,,,,,,,,,,TLPMPX,train_x,blue_star,top_right,2025-08-14_15h33.58.124,HideSeek_v1,2022.2.5,59.94873185891239,
,7,9,2,9,-5,0,11,,train_dim1_1,2,30,,,,2,0,2,0,,,,,,,,,0,0,0,0,0,1,1,1,4,0,4,0,,,,,,,,,,,,,,,,,,,,,,,,,,,,,,,,,,,,,,,,,,,,,,,,,,,,,,,,,,,,,,,,30,,,,,,,,2040.4287618000526,2040.4287618000526,2040.4287618000526,2040.4287618000526,2040.4287618000526,down,2.5117025000508875,0,0,0,99,0.4,-0.08000000000000003,down,2.4128279000287876,,,,,,,,,,,,,,,,,,,,,,,,,,,,,,,,,,,,,,,,,,,,,,,,,,,,,,,,,,,,TLPMPX,train_x,blue_star,top_right,2025-08-14_15h33.58.124,HideSeek_v1,2022.2.5,59.94873185891239,
,7,9,2,9,-5,0,11,,train_dim1_1,2,30,,,,2,0,2,0,,,,,,,,,0,0,0,0,0,1,1,1,5,0,5,0,,,,,,,,,,,,,,,,,,,,,,,,,,,,,,,,,,,,,,,,,,,,,,,,,,,,,,,,,,,,,,,,30,,,,,,,,2042.9365151000675,2042.9365151000675,2042.9365151000675,2042.9365151000675,2042.9365151000675,left,5.346978200017475,0,0,0,99,0.32,-0.08000000000000003,left,5.2675543000223115,,,,,,,,,,,,,,,,,,,,,,,,,,,,,,,,,,,,,,,,,,,,,,,,,,,,,,,,,,,,TLPMPX,train_x,blue_star,top_right,2025-08-14_15h33.58.124,HideSeek_v1,2022.2.5,59.94873185891239,
,7,9,2,9,-5,0,11,,train_dim1_1,2,30,,,,2,0,2,0,,,,,,,,,0,0,0,0,0,1,1,1,6,0,6,0,,,,,,,,,,,,,,,,,,,,,,,,,,,,,,,,,,,,,,,,,,,,,,,,,,,,,,,,,,,,,,,,30,,,,,,,,2048.3108688000357,2048.3108688000357,2048.3108688000357,2048.3108688000357,2048.3108688000357,left,2.2785043999319896,0,0,0,99,0.24,-0.08000000000000003,left,2.1715886000311,,,,,,,,,,,,,,,,,,,,,,,,,,,,,,,,,,,,,,,,,,,,,,,,,,,,,,,,,,,,TLPMPX,train_x,blue_star,top_right,2025-08-14_15h33.58.124,HideSeek_v1,2022.2.5,59.94873185891239,
,7,9,2,9,-5,0,11,,train_dim1_1,2,30,,,,2,0,2,0,,,,,,,,,0,0,0,0,0,1,1,1,7,0,7,0,,,,,,,,,,,,,,,,,,,,,,,,,,,,,,,,,,,,,,,,,,,,,,,,,,,,,,,,,,,,,,,,30,,,,,,,,2050.5801352000562,2050.5801352000562,2050.5801352000562,2050.5801352000562,2050.5801352000562,right,4.709739900077693,0,0,0,99,0.32,-0.08000000000000003,right,4.629702999955043,,,,,,,,,,,,,,,,,,,,,,,,,,,,,,,,,,,,,,,,,,,,,,,,,,,,,,,,,,,,TLPMPX,train_x,blue_star,top_right,2025-08-14_15h33.58.124,HideSeek_v1,2022.2.5,59.94873185891239,
,7,9,2,9,-5,0,11,,train_dim1_1,2,30,,,,2,0,2,0,,,,,,,,,0,0,0,0,0,1,1,1,8,0,8,0,,,,,,,,,,,,,,,,,,,,,,,,,,,,,,,,,,,,,,,,,,,,,,,,,,,,,,,,,,,,,,,,30,,,,,,,,2055.2979330000235,2055.2979330000235,2055.2979330000235,2055.2979330000235,2055.2979330000235,right,1.2769147000508383,0,0,0,99,0.4,-0.08000000000000003,right,1.1868759000208229,,,,,,,,,,,,,,,,,,,,,,,,,,,,,,,,,,,,,,,,,,,,,,,,,,,,,,,,,,,,TLPMPX,train_x,blue_star,top_right,2025-08-14_15h33.58.124,HideSeek_v1,2022.2.5,59.94873185891239,
,7,9,2,9,-5,0,11,,train_dim1_1,2,30,,,,2,0,2,0,,,,,,,,,0,0,0,0,0,1,1,1,9,0,9,0,,,,,,,,,,,,,,,,,,,,,,,,,,,,,,,,,,,,,,,,,,,,,,,,,,,,,,,,,,,,,,,,30,,,,,,,,2056.579703300027,2056.579703300027,2056.579703300027,2056.579703300027,2056.579703300027,return,3.0956577999750152,0,0,0,0,0.4,-0.08000000000000003,return,3.0143475000513718,-8,-3,0.4,-0.08000000000000003,,,,,,,,,,,,,,,,,,,,,,,,,,,,,,,,,,,,,,,,,,,,,,,,,,,,,,,,TLPMPX,train_x,blue_star,top_right,2025-08-14_15h33.58.124,HideSeek_v1,2022.2.5,59.94873185891239,
,9,9,5,9,-4,0,21,,train_dim1_1,3,30,,,,2,0,2,0,,,,,,,,,0,0,0,0,0,2,2,2,0,0,0,0,,,,,,,,,,,,,,,,,,,,,,,,,stimuli/alien_stimuli/21.png,,,,,,,,,,,,,,,,,,,,,,,,,,,,,stimuli/alien_stimuli/11.png,11,7,4,,,,,,,30,,,,,,,,2075.927964100032,2075.927964100032,2075.927964100032,2075.927964100032,2075.927964100032,left,5.843052500043996,0,0,0,99,0.48000000000000004,0.32,left,5.743206599960104,,,,,2074.360548100085,2075.927964100032,0,0.32,0.0,0.4,0.32,0,0.2,0,0.32,2061.27200300002,2061.27200300002,2061.27200300002,2061.27200300002,2061.27200300002,2061.27200300002,2061.27200300002,2061.27200300002,2061.2498489400373,13.229579800041392,return,13.057056399993598,,,,,,,,,,,,,,,,,,,,,,,,,,,,,,,,,TLPMPX,train_x,blue_star,top_right,2025-08-14_15h33.58.124,HideSeek_v1,2022.2.5,59.94873185891239,
,9,9,5,9,-4,0,21,,train_dim1_1,3,30,,,,2,0,2,0,,,,,,,,,0,0,0,0,0,2,2,2,1,0,1,0,,,,,,,,,,,,,,,,,,,,,,,,,,,,,,,,,,,,,,,,,,,,,,,,,,,,,,,,,,,,,,,,30,,,,,,,,2081.769557600026,2081.769557600026,2081.769557600026,2081.769557600026,2081.769557600026,left,1.1099414998898283,0,0,0,99,0.4,0.32,left,1.0224196000490338,,,,,,,,,,,,,,,,,,,,,,,,,,,,,,,,,,,,,,,,,,,,,,,,,,,,,,,,,,,,TLPMPX,train_x,blue_star,top_right,2025-08-14_15h33.58.124,HideSeek_v1,2022.2.5,59.94873185891239,
,9,9,5,9,-4,0,21,,train_dim1_1,3,30,,,,2,0,2,0,,,,,,,,,0,0,0,0,0,2,2,2,2,0,2,0,,,,,,,,,,,,,,,,,,,,,,,,,,,,,,,,,,,,,,,,,,,,,,,,,,,,,,,,,,,,,,,,30,,,,,,,,2082.886321900063,2082.886321900063,2082.886321900063,2082.886321900063,2082.886321900063,left,0.9438148000044748,0,0,0,99,0.32,0.32,left,0.85298279998824,,,,,,,,,,,,,,,,,,,,,,,,,,,,,,,,,,,,,,,,,,,,,,,,,,,,,,,,,,,,TLPMPX,train_x,blue_star,top_right,2025-08-14_15h33.58.124,HideSeek_v1,2022.2.5,59.94873185891239,
,9,9,5,9,-4,0,21,,train_dim1_1,3,30,,,,2,0,2,0,,,,,,,,,0,0,0,0,0,2,2,2,3,0,3,0,,,,,,,,,,,,,,,,,,,,,,,,,,,,,,,,,,,,,,,,,,,,,,,,,,,,,,,,,,,,,,,,30,,,,,,,,2083.8373200000497,2083.8373200000497,2083.8373200000497,2083.8373200000497,2083.8373200000497,left,0.9268250000895932,0,0,0,99,0.24,0.32,left,0.8388393999775872,,,,,,,,,,,,,,,,,,,,,,,,,,,,,,,,,,,,,,,,,,,,,,,,,,,,,,,,,,,,TLPMPX,train_x,blue_star,top_right,2025-08-14_15h33.58.124,HideSeek_v1,2022.2.5,59.94873185891239,
,9,9,5,9,-4,0,21,,train_dim1_1,3,30,,,,2,0,2,0,,,,,,,,,0,0,0,0,0,2,2,2,4,0,4,0,,,,,,,,,,,,,,,,,,,,,,,,,,,,,,,,,,,,,,,,,,,,,,,,,,,,,,,,,,,,,,,,30,,,,,,,,2084.7714876000537,2084.7714876000537,2084.7714876000537,2084.7714876000537,2084.7714876000537,left,0.860245699994266,0,0,0,99,0.15999999999999998,0.32,left,0.7812073000241071,,,,,,,,,,,,,,,,,,,,,,,,,,,,,,,,,,,,,,,,,,,,,,,,,,,,,,,,,,,,TLPMPX,train_x,blue_star,top_right,2025-08-14_15h33.58.124,HideSeek_v1,2022.2.5,59.94873185891239,
,9,9,5,9,-4,0,21,,train_dim1_1,3,30,,,,2,0,2,0,,,,,,,,,0,0,0,0,0,2,2,2,5,0,5,0,,,,,,,,,,,,,,,,,,,,,,,,,,,,,,,,,,,,,,,,,,,,,,,,,,,,,,,,,,,,,,,,30,,,,,,,,2085.6385018000146,2085.6385018000146,2085.6385018000146,2085.6385018000146,2085.6385018000146,right,1.4108587000519037,0,0,0,99,0.24,0.32,right,1.3328708000481129,,,,,,,,,,,,,,,,,,,,,,,,,,,,,,,,,,,,,,,,,,,,,,,,,,,,,,,,,,,,TLPMPX,train_x,blue_star,top_right,2025-08-14_15h33.58.124,HideSeek_v1,2022.2.5,59.94873185891239,
,9,9,5,9,-4,0,21,,train_dim1_1,3,30,,,,2,0,2,0,,,,,,,,,0,0,0,0,0,2,2,2,6,0,6,0,,,,,,,,,,,,,,,,,,,,,,,,,,,,,,,,,,,,,,,,,,,,,,,,,,,,,,,,,,,,,,,,30,,,,,,,,2087.0571282000747,2087.0571282000747,2087.0571282000747,2087.0571282000747,2087.0571282000747,return,4.663371399976313,1,0,0,1,0.24,0.32,return,4.572950499947183,-8,-7,0.24,0.32,,,,,,,,,,,,,,,,,,,,,,,,,,,,,,,,,,,,,,,,,,,,,,,,,,,,,,,,TLPMPX,train_x,blue_star,top_right,2025-08-14_15h33.58.124,HideSeek_v1,2022.2.5,59.94873185891239,
,7,8,6,8,-1,0,51,,train_dim1_1,4,30,,,,2,0,2,0,,,,,,,,,0,0,0,0,0,3,3,3,0,0,0,0,,,,,,,,,,,,,,,,,,,,,,,,,stimuli/alien_stimuli/51.png,,,,,,,,,,,,,,,,,,,,,,,,,,,,,stimuli/alien_stimuli/21.png,21,9,5,,,,,,,30,,,,,,,,2112.90355180006,2112.90355180006,2112.90355180006,2112.90355180006,2112.90355180006,left,3.7756584000308067,1,0,0,99,0.32,0.24,left,3.6429415000602603,,,,,2111.3081283000065,2112.90355180006,0.24,0.32,0.0,0.32,0.32,0.24,0.4,0.24,0.32,2093.3223520000465,2093.3223520000465,2093.3223520000465,2093.3223520000465,2093.3223520000465,2093.3223520000465,2093.3223520000465,2093.3223520000465,2093.309870770015,18.133721599937417,return,17.962513100006618,,,,,,,,,,,,,,,,,,,,,,,,,,,,,,,,,TLPMPX,train_x,blue_star,top_right,2025-08-14_15h33.58.124,HideSeek_v1,2022.2.5,59.94873185891239,
,7,8,6,8,-1,0,51,,train_dim1_1,4,30,,,,2,0,2,0,,,,,,,,,0,0,0,0,0,3,3,3,1,0,1,0,,,,,,,,,,,,,,,,,,,,,,,,,,,,,,,,,,,,,,,,,,,,,,,,,,,,,,,,,,,,,,,,30,,,,,,,,2116.6690137000987,2116.6690137000987,2116.6690137000987,2116.6690137000987,2116.6690137000987,down,3.4461671999888495,1,0,0,99,0.32,0.15999999999999998,down,3.3633336001075804,,,,,,,,,,,,,,,,,,,,,,,,,,,,,,,,,,,,,,,,,,,,,,,,,,,,,,,,,,,,TLPMPX,train_x,blue_star,top_right,2025-08-14_15h33.58.124,HideSeek_v1,2022.2.5,59.94873185891239,
,7,8,6,8,-1,0,51,,train_dim1_1,4,30,,,,2,0,2,0,,,,,,,,,0,0,0,0,0,3,3,3,2,0,2,0,,,,,,,,,,,,,,,,,,,,,,,,,,,,,,,,,,,,,,,,,,,,,,,,,,,,,,,,,,,,,,,,30,,,,,,,,2120.117621500045,2120.117621500045,2120.117621500045,2120.117621500045,2120.117621500045,left,2.027886600000784,1,0,0,99,0.24,0.15999999999999998,left,1.9491177999880165,,,,,,,,,,,,,,,,,,,,,,,,,,,,,,,,,,,,,,,,,,,,,,,,,,,,,,,,,,,,TLPMPX,train_x,blue_star,top_right,2025-08-14_15h33.58.124,HideSeek_v1,2022.2.5,59.94873185891239,
,7,8,6,8,-1,0,51,,train_dim1_1,4,30,,,,2,0,2,0,,,,,,,,,0,0,0,0,0,3,3,3,3,0,3,0,,,,,,,,,,,,,,,,,,,,,,,,,,,,,,,,,,,,,,,,,,,,,,,,,,,,,,,,,,,,,,,,30,,,,,,,,2122.150139900041,2122.150139900041,2122.150139900041,2122.150139900041,2122.150139900041,down,2.4449105999665335,1,0,0,99,0.24,0.07999999999999997,down,2.3533391000237316,,,,,,,,,,,,,,,,,,,,,,,,,,,,,,,,,,,,,,,,,,,,,,,,,,,,,,,,,,,,TLPMPX,train_x,blue_star,top_right,2025-08-14_15h33.58.124,HideSeek_v1,2022.2.5,59.94873185891239,
,7,8,6,8,-1,0,51,,train_dim1_1,4,30,,,,2,0,2,0,,,,,,,,,0,0,0,0,0,3,3,3,4,0,4,0,,,,,,,,,,,,,,,,,,,,,,,,,,,,,,,,,,,,,,,,,,,,,,,,,,,,,,,,,,,,,,,,30,,,,,,,,2124.6025953000644,2124.6025953000644,2124.6025953000644,2124.6025953000644,2124.6025953000644,return,1.5774827999994159,1,0,0,0,0.24,0.07999999999999997,return,1.5005701000336558,-10,-9,0.24,0.07999999999999997,,,,,,,,,,,,,,,,,,,,,,,,,,,,,,,,,,,,,,,,,,,,,,,,,,,,,,,,TLPMPX,train_x,blue_star,top_right,2025-08-14_15h33.58.124,HideSeek_v1,2022.2.5,59.94873185891239,
,5,7,5,7,0,0,61,,train_dim1_1,5,30,,,,2,0,2,0,,,,,,,,,0,0,0,0,0,4,4,4,0,0,0,0,,,,,,,,,,,,,,,,,,,,,,,,,stimuli/alien_stimuli/61.png,,,,,,,,,,,,,,,,,,,,,,,,,,,,,stimuli/alien_stimuli/51.png,51,7,6,,,,,,,30,,,,,,,,2138.228655099985,2138.228655099985,2138.228655099985,2138.228655099985,2138.228655099985,right,5.459935800055973,1,0,0,99,0.32,0.16,right,5.373093200032599,,,,,2136.662293900037,2138.228655099985,0.32,0.24,0.0,0.08,0.24,0.32,0.36,0.32,0.24,2127.765579400002,2127.765579400002,2127.765579400002,2127.765579400002,2127.765579400002,2127.765579400002,2127.765579400002,2127.765579400002,2127.7550431400073,9.026625900063664,return,8.865902499994263,,,,,,,,,,,,,,,,,,,,,,,,,,,,,,,,,TLPMPX,train_x,blue_star,top_right,2025-08-14_15h33.58.124,HideSeek_v1,2022.2.5,59.94873185891239,
,5,7,5,7,0,0,61,,train_dim1_1,5,30,,,,2,0,2,0,,,,,,,,,0,0,0,0,0,4,4,4,1,0,1,0,,,,,,,,,,,,,,,,,,,,,,,,,,,,,,,,,,,,,,,,,,,,,,,,,,,,,,,,,,,,,,,,30,,,,,,,,2143.683139500092,2143.683139500092,2143.683139500092,2143.683139500092,2143.683139500092,right,4.913227300043218,1,0,0,99,0.4,0.16,right,4.836460900027305,,,,,,,,,,,,,,,,,,,,,,,,,,,,,,,,,,,,,,,,,,,,,,,,,,,,,,,,,,,,TLPMPX,train_x,blue_star,top_right,2025-08-14_15h33.58.124,HideSeek_v1,2022.2.5,59.94873185891239,
,5,7,5,7,0,0,61,,train_dim1_1,5,30,,,,2,0,2,0,,,,,,,,,0,0,0,0,0,4,4,4,2,0,2,0,,,,,,,,,,,,,,,,,,,,,,,,,,,,,,,,,,,,,,,,,,,,,,,,,,,,,,,,,,,,,,,,30,,,,,,,,2148.6044958999846,2148.6044958999846,2148.6044958999846,2148.6044958999846,2148.6044958999846,return,5.247259099967778,1,0,0,0,0.4,0.16,return,5.157042799983174,-10,-7,0.4,0.16,,,,,,,,,,,,,,,,,,,,,,,,,,,,,,,,,,,,,,,,,,,,,,,,,,,,,,,,TLPMPX,train_x,blue_star,top_right,2025-08-14_15h33.58.124,HideSeek_v1,2022.2.5,59.94873185891239,
,5,5,1,5,-4,0,21,,train_dim1_1,6,30,,,,2,0,2,0,,,,,,,,,0,0,0,0,0,5,5,5,0,0,0,0,,,,,,,,,,,,,,,,,,,,,,,,,stimuli/alien_stimuli/21.png,,,,,,,,,,,,,,,,,,,,,,,,,,,,,stimuli/alien_stimuli/61.png,61,5,7,,,,,,,30,,,,,,,,2166.5056241001002,2166.5056241001002,2166.5056241001002,2166.5056241001002,2166.5056241001002,up,4.108859800035134,1,0,0,99,0.24,0.08,up,4.010494900052436,,,,,2164.9358547000447,2166.5056241001002,0.24,0.16,0.0,0.0,0.16,0.24,0.24,0.24,0.16,2155.430598300067,2155.430598300067,2155.430598300067,2155.430598300067,2155.430598300067,2155.430598300067,2155.430598300067,2155.430598300067,2155.4113995100142,9.62702390004415,return,9.483515300089493,,,,,,,,,,,,,,,,,,,,,,,,,,,,,,,,,TLPMPX,train_x,blue_star,top_right,2025-08-14_15h33.58.124,HideSeek_v1,2022.2.5,59.94873185891239,
,5,5,1,5,-4,0,21,,train_dim1_1,6,30,,,,2,0,2,0,,,,,,,,,0,0,0,0,0,5,5,5,1,0,1,0,,,,,,,,,,,,,,,,,,,,,,,,,,,,,,,,,,,,,,,,,,,,,,,,,,,,,,,,,,,,,,,,30,,,,,,,,2170.6082573999884,2170.6082573999884,2170.6082573999884,2170.6082573999884,2170.6082573999884,up,1.9107443999964744,1,0,0,99,0.24,0.16,up,1.8300183999817818,,,,,,,,,,,,,,,,,,,,,,,,,,,,,,,,,,,,,,,,,,,,,,,,,,,,,,,,,,,,TLPMPX,train_x,blue_star,top_right,2025-08-14_15h33.58.124,HideSeek_v1,2022.2.5,59.94873185891239,
,5,5,1,5,-4,0,21,,train_dim1_1,6,30,,,,2,0,2,0,,,,,,,,,0,0,0,0,0,5,5,5,2,0,2,0,,,,,,,,,,,,,,,,,,,,,,,,,,,,,,,,,,,,,,,,,,,,,,,,,,,,,,,,,,,,,,,,30,,,,,,,,2172.5261262999848,2172.5261262999848,2172.5261262999848,2172.5261262999848,2172.5261262999848,up,1.3610366000793874,1,0,0,99,0.24,0.24,up,1.2702400999842212,,,,,,,,,,,,,,,,,,,,,,,,,,,,,,,,,,,,,,,,,,,,,,,,,,,,,,,,,,,,TLPMPX,train_x,blue_star,top_right,2025-08-14_15h33.58.124,HideSeek_v1,2022.2.5,59.94873185891239,
,5,5,1,5,-4,0,21,,train_dim1_1,6,30,,,,2,0,2,0,,,,,,,,,0,0,0,0,0,5,5,5,3,0,3,0,,,,,,,,,,,,,,,,,,,,,,,,,,,,,,,,,,,,,,,,,,,,,,,,,,,,,,,,,,,,,,,,30,,,,,,,,2173.899410400074,2173.899410400074,2173.899410400074,2173.899410400074,2173.899410400074,return,2.8590971999801695,1,0,0,0,0.24,0.24,return,2.778294999967329,-7,-7,0.24,0.24,,,,,,,,,,,,,,,,,,,,,,,,,,,,,,,,,,,,,,,,,,,,,,,,,,,,,,,,TLPMPX,train_x,blue_star,top_right,2025-08-14_15h33.58.124,HideSeek_v1,2022.2.5,59.94873185891239,
,8,5,8,5,0,0,61,,train_dim1_1,7,30,,,,2,0,2,0,,,,,,,,,0,0,0,0,0,6,6,6,0,0,0,0,,,,,,,,,,,,,,,,,,,,,,,,,stimuli/alien_stimuli/61.png,,,,,,,,,,,,,,,,,,,,,,,,,,,,,stimuli/alien_stimuli/21.png,21,5,8,,,,,,,30,,,,,,,,2183.7772289999994,2183.7772289999994,2183.7772289999994,2183.7772289999994,2183.7772289999994,return,13.814872100017965,2,0,0,1,0.48,0,return,13.727418499998748,-7,-7,0.48,0,2182.2164670000784,2183.7772289999994,-0.08,0,0.0,0.32,0.0,-0.08,0.07999999999999999,-0.08,0,2178.344201800064,2178.344201800064,2178.344201800064,2178.344201800064,2178.344201800064,2178.344201800064,2178.344201800064,2178.344201800064,2178.330243739975,4.00565629999619,return,3.851574999978766,,,,,,,,,,,,,,,,,,,,,,,,,,,,,,,,,TLPMPX,train_x,blue_star,top_right,2025-08-14_15h33.58.124,HideSeek_v1,2022.2.5,59.94873185891239,
,5,9,2,9,-3,0,31,,train_dim1_1,8,30,,,,2,0,2,0,,,,,,,,,0,0,0,0,0,7,7,7,0,0,0,0,,,,,,,,,,,,,,,,,,,,,,,,,stimuli/alien_stimuli/31.png,,,,,,,,,,,,,,,,,,,,,,,,,,,,,stimuli/alien_stimuli/61.png,61,8,9,,,,,,,30,,,,,,,,2204.275937300059,2204.275937300059,2204.275937300059,2204.275937300059,2204.275937300059,down,4.759590300032869,2,0,0,99,0.24,0.24,down,4.675250799977221,,,,,2202.717216500081,2204.275937300059,0.48,0,0.0,0.0,0.0,0.48,0.48,0.48,0,2199.1871769999852,2199.1871769999852,2199.1871769999852,2199.1871769999852,2199.1871769999852,2199.1871769999852,2199.1871769999852,2199.1871769999852,2199.1643842400285,3.67194789997302,return,3.5130741000175476,,,,,,,,,,,,,,,,,,,,,,,,,,,,,,,,,TLPMPX,train_x,blue_star,top_right,2025-08-14_15h33.58.124,HideSeek_v1,2022.2.5,59.94873185891239,
,5,9,2,9,-3,0,31,,train_dim1_1,8,30,,,,2,0,2,0,,,,,,,,,0,0,0,0,0,7,7,7,1,0,1,0,,,,,,,,,,,,,,,,,,,,,,,,,,,,,,,,,,,,,,,,,,,,,,,,,,,,,,,,,,,,,,,,30,,,,,,,,2209.0373281000648,2209.0373281000648,2209.0373281000648,2209.0373281000648,2209.0373281000648,down,3.678739900002256,2,0,0,99,0.24,0.15999999999999998,down,3.6043542000697926,,,,,,,,,,,,,,,,,,,,,,,,,,,,,,,,,,,,,,,,,,,,,,,,,,,,,,,,,,,,TLPMPX,train_x,blue_star,top_right,2025-08-14_15h33.58.124,HideSeek_v1,2022.2.5,59.94873185891239,
,5,9,2,9,-3,0,31,,train_dim1_1,8,30,,,,2,0,2,0,,,,,,,,,0,0,0,0,0,7,7,7,2,0,2,0,,,,,,,,,,,,,,,,,,,,,,,,,,,,,,,,,,,,,,,,,,,,,,,,,,,,,,,,,,,,,,,,30,,,,,,,,2212.7238903000252,2212.7238903000252,2212.7238903000252,2212.7238903000252,2212.7238903000252,down,1.1939363999990746,2,0,0,99,0.24,0.07999999999999997,down,1.1187202000292018,,,,,,,,,,,,,,,,,,,,,,,,,,,,,,,,,,,,,,,,,,,,,,,,,,,,,,,,,,,,TLPMPX,train_x,blue_star,top_right,2025-08-14_15h33.58.124,HideSeek_v1,2022.2.5,59.94873185891239,
,5,9,2,9,-3,0,31,,train_dim1_1,8,30,,,,2,0,2,0,,,,,,,,,0,0,0,0,0,7,7,7,3,0,3,0,,,,,,,,,,,,,,,,,,,,,,,,,,,,,,,,,,,,,,,,,,,,,,,,,,,,,,,,,,,,,,,,30,,,,,,,,2213.923898500041,2213.923898500041,2213.923898500041,2213.923898500041,2213.923898500041,return,2.2949774999869987,2,0,0,0,0.24,0.07999999999999997,return,2.2181676999898627,-10,-7,0.24,0.07999999999999997,,,,,,,,,,,,,,,,,,,,,,,,,,,,,,,,,,,,,,,,,,,,,,,,,,,,,,,,TLPMPX,train_x,blue_star,top_right,2025-08-14_15h33.58.124,HideSeek_v1,2022.2.5,59.94873185891239,
,6,5,5,5,-1,0,51,,train_dim1_1,9,30,,,,2,0,2,0,,,,,,,,,0,0,0,0,0,8,8,8,0,0,0,0,,,,,,,,,,,,,,,,,,,,,,,,,stimuli/alien_stimuli/51.png,,,,,,,,,,,,,,,,,,,,,,,,,,,,,stimuli/alien_stimuli/31.png,31,5,10,,,,,,,30,,,,,,,,2223.8623833000893,2223.8623833000893,2223.8623833000893,2223.8623833000893,2223.8623833000893,down,10.54628450004384,2,0,0,99,0.32,-0.08,down,10.460415399982594,,,,,2222.300275800051,2223.8623833000893,0,0.32,0.0,0.24,0.32,0,0.12,0,0.32,2217.8009178000502,2217.8009178000502,2217.8009178000502,2217.8009178000502,2217.8009178000502,2217.8009178000502,2217.8009178000502,2217.8009178000502,2217.7798030099602,4.623140799929388,return,4.481659300043248,,,,,,,,,,,,,,,,,,,,,,,,,,,,,,,,,TLPMPX,train_x,blue_star,top_right,2025-08-14_15h33.58.124,HideSeek_v1,2022.2.5,59.94873185891239,
,6,5,5,5,-1,0,51,,train_dim1_1,9,30,,,,2,0,2,0,,,,,,,,,0,0,0,0,0,8,8,8,1,0,1,0,,,,,,,,,,,,,,,,,,,,,,,,,,,,,,,,,,,,,,,,,,,,,,,,,,,,,,,,,,,,,,,,30,,,,,,,,2234.418355300091,2234.418355300091,2234.418355300091,2234.418355300091,2234.418355300091,return,3.796263900003396,2,0,0,0,0.32,-0.08,return,3.7089247999247164,-11,-7,0.32,-0.08,,,,,,,,,,,,,,,,,,,,,,,,,,,,,,,,,,,,,,,,,,,,,,,,,,,,,,,,TLPMPX,train_x,blue_star,top_right,2025-08-14_15h33.58.124,HideSeek_v1,2022.2.5,59.94873185891239,
,5,8,0,8,-5,0,11,,train_dim1_1,10,30,,,,2,0,2,0,,,,,,,,,0,0,0,0,0,9,9,9,0,0,0,0,,,,,,,,,,,,,,,,,,,,,,,,,stimuli/alien_stimuli/11.png,,,,,,,,,,,,,,,,,,,,,,,,,,,,,stimuli/alien_stimuli/51.png,51,6,11,,,,,,,30,,,,,,,,2245.1324020000175,2245.1324020000175,2245.1324020000175,2245.1324020000175,2245.1324020000175,down,13.431296500028111,2,0,0,99,0.24,0.15999999999999998,down,13.33925249997992,,,,,2243.568010100047,2245.1324020000175,0.24,0,0.0,0.08,0.0,0.24,0.28,0.24,0,2239.78979900002,2239.78979900002,2239.78979900002,2239.78979900002,2239.78979900002,2239.78979900002,2239.78979900002,2239.78979900002,2239.7812504400267,3.9060014999704435,return,3.7573701000073925,,,,,,,,,,,,,,,,,,,,,,,,,,,,,,,,,TLPMPX,train_x,blue_star,top_right,2025-08-14_15h33.58.124,HideSeek_v1,2022.2.5,59.94873185891239,
,5,8,0,8,-5,0,11,,train_dim1_1,10,30,,,,2,0,2,0,,,,,,,,,0,0,0,0,0,9,9,9,1,0,1,0,,,,,,,,,,,,,,,,,,,,,,,,,,,,,,,,,,,,,,,,,,,,,,,,,,,,,,,,,,,,,,,,30,,,,,,,,2258.5702052999986,2258.5702052999986,2258.5702052999986,2258.5702052999986,2258.5702052999986,down,3.5955824999837205,2,0,0,99,0.24,0.07999999999999997,down,3.5044476999901235,,,,,,,,,,,,,,,,,,,,,,,,,,,,,,,,,,,,,,,,,,,,,,,,,,,,,,,,,,,,TLPMPX,train_x,blue_star,top_right,2025-08-14_15h33.58.124,HideSeek_v1,2022.2.5,59.94873185891239,
,5,8,0,8,-5,0,11,,train_dim1_1,10,30,,,,2,0,2,0,,,,,,,,,0,0,0,0,0,9,9,9,2,0,2,0,,,,,,,,,,,,,,,,,,,,,,,,,,,,,,,,,,,,,,,,,,,,,,,,,,,,,,,,,,,,,,,,30,,,,,,,,2262.1683395000873,2262.1683395000873,2262.1683395000873,2262.1683395000873,2262.1683395000873,down,1.644141299999319,2,0,0,99,0.24,-2.7755575615628914e-17,down,1.5652255000313744,,,,,,,,,,,,,,,,,,,,,,,,,,,,,,,,,,,,,,,,,,,,,,,,,,,,,,,,,,,,TLPMPX,train_x,blue_star,top_right,2025-08-14_15h33.58.124,HideSeek_v1,2022.2.5,59.94873185891239,
,5,8,0,8,-5,0,11,,train_dim1_1,10,30,,,,2,0,2,0,,,,,,,,,0,0,0,0,0,9,9,9,3,0,3,0,,,,,,,,,,,,,,,,,,,,,,,,,,,,,,,,,,,,,,,,,,,,,,,,,,,,,,,,,,,,,,,,30,,,,,,,,2263.8198150000535,2263.8198150000535,2263.8198150000535,2263.8198150000535,2263.8198150000535,down,0.676923600025475,2,0,0,99,0.24,-0.08000000000000003,down,0.5882270999718457,,,,,,,,,,,,,,,,,,,,,,,,,,,,,,,,,,,,,,,,,,,,,,,,,,,,,,,,,,,,TLPMPX,train_x,blue_star,top_right,2025-08-14_15h33.58.124,HideSeek_v1,2022.2.5,59.94873185891239,
,5,8,0,8,-5,0,11,,train_dim1_1,10,30,,,,2,0,2,0,,,,,,,,,0,0,0,0,0,9,9,9,4,0,4,0,,,,,,,,,,,,,,,,,,,,,,,,,,,,,,,,,,,,,,,,,,,,,,,,,,,,,,,,,,,,,,,,30,,,,,,,,2264.5035767999943,2264.5035767999943,2264.5035767999943,2264.5035767999943,2264.5035767999943,return,5.814748400007375,2,0,0,0,0.24,-0.08000000000000003,return,5.732076100073755,-15,-7,0.24,-0.08000000000000003,,,,,,,,,,,,,,,,,,,,,,,,,,,,,,,,,,,,,,,,,,,,,,,,,,,,,,,,TLPMPX,train_x,blue_star,top_right,2025-08-14_15h33.58.124,HideSeek_v1,2022.2.5,59.94873185891239,
,7,7,4,7,-3,0,31,,train_dim1_1,11,30,,,,2,0,2,0,,,,,,,,,0,0,0,0,0,10,10,10,0,0,0,0,,,,,,,,,,,,,,,,,,,,,,,,,stimuli/alien_stimuli/31.png,,,,,,,,,,,,,,,,,,,,,,,,,,,,,stimuli/alien_stimuli/11.png,11,5,12,,,,,,,30,,,,,,,,2293.822965600062,2293.822965600062,2293.822965600062,2293.822965600062,2293.822965600062,up,17.584923599963076,2,0,0,99,0.4,0.24,up,17.4877316999482,,,,,2292.2581183,2293.822965600062,-0.16,0.24,0.0,0.4,0.24,-0.16,0.039999999999999994,-0.16,0.24,2271.907156500034,2271.907156500034,2271.907156500034,2271.907156500034,2271.907156500034,2271.907156500034,2271.907156500034,2271.907156500034,2271.8914942400065,20.4856504999334,return,20.31904799991753,,,,,,,,,,,,,,,,,,,,,,,,,,,,,,,,,TLPMPX,train_x,blue_star,top_right,2025-08-14_15h33.58.124,HideSeek_v1,2022.2.5,59.94873185891239,
,7,7,4,7,-3,0,31,,train_dim1_1,11,30,,,,2,0,2,0,,,,,,,,,0,0,0,0,0,10,10,10,1,0,1,0,,,,,,,,,,,,,,,,,,,,,,,,,,,,,,,,,,,,,,,,,,,,,,,,,,,,,,,,,,,,,,,,30,,,,,,,,2311.417652100092,2311.417652100092,2311.417652100092,2311.417652100092,2311.417652100092,up,0.5925434000091627,2,0,0,99,0.4,0.32,up,0.5078707999782637,,,,,,,,,,,,,,,,,,,,,,,,,,,,,,,,,,,,,,,,,,,,,,,,,,,,,,,,,,,,TLPMPX,train_x,blue_star,top_right,2025-08-14_15h33.58.124,HideSeek_v1,2022.2.5,59.94873185891239,
,7,7,4,7,-3,0,31,,train_dim1_1,11,30,,,,2,0,2,0,,,,,,,,,0,0,0,0,0,10,10,10,2,0,2,0,,,,,,,,,,,,,,,,,,,,,,,,,,,,,,,,,,,,,,,,,,,,,,,,,,,,,,,,,,,,,,,,30,,,,,,,,2312.0055891000666,2312.0055891000666,2312.0055891000666,2312.0055891000666,2312.0055891000666,up,0.49300800007767975,2,0,0,99,0.4,0.4,up,0.4159178000409156,,,,,,,,,,,,,,,,,,,,,,,,,,,,,,,,,,,,,,,,,,,,,,,,,,,,,,,,,,,,TLPMPX,train_x,blue_star,top_right,2025-08-14_15h33.58.124,HideSeek_v1,2022.2.5,59.94873185891239,
,7,7,4,7,-3,0,31,,train_dim1_1,11,30,,,,2,0,2,0,,,,,,,,,0,0,0,0,0,10,10,10,3,0,3,0,,,,,,,,,,,,,,,,,,,,,,,,,,,,,,,,,,,,,,,,,,,,,,,,,,,,,,,,,,,,,,,,30,,,,,,,,2312.504707699991,2312.504707699991,2312.504707699991,2312.504707699991,2312.504707699991,down,22.078046299982816,2,0,0,99,0.4,0.32,down,21.99398619995918,,,,,,,,,,,,,,,,,,,,,,,,,,,,,,,,,,,,,,,,,,,,,,,,,,,,,,,,,,,,TLPMPX,train_x,blue_star,top_right,2025-08-14_15h33.58.124,HideSeek_v1,2022.2.5,59.94873185891239,
,7,7,4,7,-3,0,31,,train_dim1_1,11,30,,,,2,0,2,0,,,,,,,,,0,0,0,0,0,10,10,10,4,0,4,0,,,,,,,,,,,,,,,,,,,,,,,,,,,,,,,,,,,,,,,,,,,,,,,,,,,,,,,,,,,,,,,,30,,,,,,,,2334.609407800017,2334.609407800017,2334.609407800017,2334.609407800017,2334.609407800017,down,1.6443499000743032,2,0,0,99,0.4,0.24,down,1.55114799994044,,,,,,,,,,,,,,,,,,,,,,,,,,,,,,,,,,,,,,,,,,,,,,,,,,,,,,,,,,,,TLPMPX,train_x,blue_star,top_right,2025-08-14_15h33.58.124,HideSeek_v1,2022.2.5,59.94873185891239,
,7,7,4,7,-3,0,31,,train_dim1_1,11,30,,,,2,0,2,0,,,,,,,,,0,0,0,0,0,10,10,10,5,0,5,0,,,,,,,,,,,,,,,,,,,,,,,,,,,,,,,,,,,,,,,,,,,,,,,,,,,,,,,,,,,,,,,,30,,,,,,,,2336.2420900000725,2336.2420900000725,2336.2420900000725,2336.2420900000725,2336.2420900000725,down,0.5432067000074312,2,0,0,99,0.4,0.15999999999999998,down,0.45731970004271716,,,,,,,,,,,,,,,,,,,,,,,,,,,,,,,,,,,,,,,,,,,,,,,,,,,,,,,,,,,,TLPMPX,train_x,blue_star,top_right,2025-08-14_15h33.58.124,HideSeek_v1,2022.2.5,59.94873185891239,
,7,7,4,7,-3,0,31,,train_dim1_1,11,30,,,,2,0,2,0,,,,,,,,,0,0,0,0,0,10,10,10,6,0,6,0,,,,,,,,,,,,,,,,,,,,,,,,,,,,,,,,,,,,,,,,,,,,,,,,,,,,,,,,,,,,,,,,30,,,,,,,,2336.7916447999887,2336.7916447999887,2336.7916447999887,2336.7916447999887,2336.7916447999887,left,4.08011640002951,2,0,0,99,0.32,0.15999999999999998,left,3.997914200066589,,,,,,,,,,,,,,,,,,,,,,,,,,,,,,,,,,,,,,,,,,,,,,,,,,,,,,,,,,,,TLPMPX,train_x,blue_star,top_right,2025-08-14_15h33.58.124,HideSeek_v1,2022.2.5,59.94873185891239,
,7,7,4,7,-3,0,31,,train_dim1_1,11,30,,,,2,0,2,0,,,,,,,,,0,0,0,0,0,10,10,10,7,0,7,0,,,,,,,,,,,,,,,,,,,,,,,,,,,,,,,,,,,,,,,,,,,,,,,,,,,,,,,,,,,,,,,,30,,,,,,,,2340.8881159999873,2340.8881159999873,2340.8881159999873,2340.8881159999873,2340.8881159999873,left,3.2286161000374705,2,0,0,99,0.24,0.15999999999999998,left,3.139048899989575,,,,,,,,,,,,,,,,,,,,,,,,,,,,,,,,,,,,,,,,,,,,,,,,,,,,,,,,,,,,TLPMPX,train_x,blue_star,top_right,2025-08-14_15h33.58.124,HideSeek_v1,2022.2.5,59.94873185891239,
,7,7,4,7,-3,0,31,,train_dim1_1,11,30,,,,2,0,2,0,,,,,,,,,0,0,0,0,0,10,10,10,8,0,8,0,,,,,,,,,,,,,,,,,,,,,,,,,,,,,,,,,,,,,,,,,,,,,,,,,,,,,,,,,,,,,,,,30,,,,,,,,2344.115908400039,2344.115908400039,2344.115908400039,2344.115908400039,2344.115908400039,return,2.2448537999298424,2,1,0,0,0.24,0.15999999999999998,return,2.158335000043735,-15,-9,0.24,0.15999999999999998,,,,,,,,,,,,,,,,,,,,,,,,,,,,,,,,,,,,,,,,,,,,,,,,,,,,,,,,TLPMPX,train_x,blue_star,top_right,2025-08-14_15h33.58.124,HideSeek_v1,2022.2.5,59.94873185891239,
,5,5,1,5,-4,0,21,,train_dim1_1,12,30,,,,2,0,2,0,,,,,,,,,0,0,0,0,0,11,11,11,0,0,0,0,,,,,,,,,,,,,,,,,,,,,,,,,stimuli/alien_stimuli/21.png,,,,,,,,,,,,,,,,,,,,,,,,,,,,,stimuli/alien_stimuli/31.png,31,7,13,,,,,,,30,,,,,,,,2364.501774000004,2364.501774000004,2364.501774000004,2364.501774000004,2364.501774000004,left,12.899639300070703,2,1,0,99,0.15999999999999998,0,left,12.807036600075662,,,,,2362.9336897000903,2364.501774000004,0.16,0.16,0.0,0.24,0.16,0.16,0.28,0.16,0.16,2347.9480980000226,2347.9480980000226,2347.9480980000226,2347.9480980000226,2347.9480980000226,2347.9480980000226,2347.9480980000226,2347.9480980000226,2347.937955740001,15.114720100071281,return,14.957151900045574,,,,,,,,,,,,,,,,,,,,,,,,,,,,,,,,,TLPMPX,train_x,blue_star,top_right,2025-08-14_15h33.58.124,HideSeek_v1,2022.2.5,59.94873185891239,
,5,5,1,5,-4,0,21,,train_dim1_1,12,30,,,,2,0,2,0,,,,,,,,,0,0,0,0,0,11,11,11,1,0,1,0,,,,,,,,,,,,,,,,,,,,,,,,,,,,,,,,,,,,,,,,,,,,,,,,,,,,,,,,,,,,,,,,30,,,,,,,,2377.4168650000356,2377.4168650000356,2377.4168650000356,2377.4168650000356,2377.4168650000356,left,4.546628399984911,2,1,0,99,0.07999999999999997,0,left,4.441235300037079,,,,,,,,,,,,,,,,,,,,,,,,,,,,,,,,,,,,,,,,,,,,,,,,,,,,,,,,,,,,TLPMPX,train_x,blue_star,top_right,2025-08-14_15h33.58.124,HideSeek_v1,2022.2.5,59.94873185891239,
,5,5,1,5,-4,0,21,,train_dim1_1,12,30,,,,2,0,2,0,,,,,,,,,0,0,0,0,0,11,11,11,2,0,2,0,,,,,,,,,,,,,,,,,,,,,,,,,,,,,,,,,,,,,,,,,,,,,,,,,,,,,,,,,,,,,,,,30,,,,,,,,2381.951329100062,2381.951329100062,2381.951329100062,2381.951329100062,2381.951329100062,left,4.046797599992715,2,1,0,99,-2.7755575615628914e-17,0,left,3.9631619000574574,,,,,,,,,,,,,,,,,,,,,,,,,,,,,,,,,,,,,,,,,,,,,,,,,,,,,,,,,,,,TLPMPX,train_x,blue_star,top_right,2025-08-14_15h33.58.124,HideSeek_v1,2022.2.5,59.94873185891239,
,5,5,1,5,-4,0,21,,train_dim1_1,12,30,,,,2,0,2,0,,,,,,,,,0,0,0,0,0,11,11,11,3,0,3,0,,,,,,,,,,,,,,,,,,,,,,,,,,,,,,,,,,,,,,,,,,,,,,,,,,,,,,,,,,,,,,,,30,,,,,,,,2386.0118709000526,2386.0118709000526,2386.0118709000526,2386.0118709000526,2386.0118709000526,return,1.9726204000180587,2,1,0,0,-2.7755575615628914e-17,0,return,1.8772081000497565,-15,-12,-2.7755575615628914e-17,0,,,,,,,,,,,,,,,,,,,,,,,,,,,,,,,,,,,,,,,,,,,,,,,,,,,,,,,,TLPMPX,train_x,blue_star,top_right,2025-08-14_15h33.58.124,HideSeek_v1,2022.2.5,59.94873185891239,
,5,9,4,9,-1,0,51,,train_dim1_1,13,30,,,,2,0,2,0,,,,,,,,,0,0,0,0,0,12,12,12,0,0,0,0,,,,,,,,,,,,,,,,,,,,,,,,,stimuli/alien_stimuli/51.png,,,,,,,,,,,,,,,,,,,,,,,,,,,,,stimuli/alien_stimuli/21.png,21,5,14,,,,,,,30,,,,,,,,2394.7876801000675,2394.7876801000675,2394.7876801000675,2394.7876801000675,2394.7876801000675,left,8.929115599952638,2,1,0,99,0.15999999999999998,0.32,left,8.835022800019942,,,,,2393.2254118000856,2394.7876801000675,-0.08,0,0.0,0.32,0.0,-0.08,0.07999999999999999,-0.08,0,2389.5668114,2389.5668114,2389.5668114,2389.5668114,2389.5668114,2389.5668114,2389.5668114,2389.5668114,2389.5560458400055,3.78860920004081,return,3.6407780000008643,,,,,,,,,,,,,,,,,,,,,,,,,,,,,,,,,TLPMPX,train_x,blue_star,top_right,2025-08-14_15h33.58.124,HideSeek_v1,2022.2.5,59.94873185891239,
,5,9,4,9,-1,0,51,,train_dim1_1,13,30,,,,2,0,2,0,,,,,,,,,0,0,0,0,0,12,12,12,1,0,1,0,,,,,,,,,,,,,,,,,,,,,,,,,,,,,,,,,,,,,,,,,,,,,,,,,,,,,,,,,,,,,,,,30,,,,,,,,2403.7195233000675,2403.7195233000675,2403.7195233000675,2403.7195233000675,2403.7195233000675,return,1.7100319999735802,3,0,0,1,0.15999999999999998,0.32,return,1.6261844000546262,-15,-13,0.15999999999999998,0.32,,,,,,,,,,,,,,,,,,,,,,,,,,,,,,,,,,,,,,,,,,,,,,,,,,,,,,,,TLPMPX,train_x,blue_star,top_right,2025-08-14_15h33.58.124,HideSeek_v1,2022.2.5,59.94873185891239,
,9,8,4,8,-5,0,11,,train_dim1_1,14,30,,,,2,0,2,0,,,,,,,,,0,0,0,0,0,13,13,13,0,0,0,0,,,,,,,,,,,,,,,,,,,,,,,,,stimuli/alien_stimuli/11.png,,,,,,,,,,,,,,,,,,,,,,,,,,,,,stimuli/alien_stimuli/51.png,51,5,15,,,,,,,30,,,,,,,,2412.754851500038,2412.754851500038,2412.754851500038,2412.754851500038,2412.754851500038,left,18.802590399980545,3,0,0,99,0.48000000000000004,0.24,left,18.708276899997145,,,,,2411.190638000029,2412.754851500038,0.16,0.32,0.0,0.08,0.32,0.16,0.2,0.16,0.32,2407.001574599999,2407.001574599999,2407.001574599999,2407.001574599999,2407.001574599999,2407.001574599999,2407.001574599999,2407.001574599999,2406.9870677099334,4.305871099932119,return,4.171083699911833,,,,,,,,,,,,,,,,,,,,,,,,,,,,,,,,,TLPMPX,train_x,blue_star,top_right,2025-08-14_15h33.58.124,HideSeek_v1,2022.2.5,59.94873185891239,
,9,8,4,8,-5,0,11,,train_dim1_1,14,30,,,,2,0,2,0,,,,,,,,,0,0,0,0,0,13,13,13,1,0,1,0,,,,,,,,,,,,,,,,,,,,,,,,,,,,,,,,,,,,,,,,,,,,,,,,,,,,,,,,,,,,,,,,30,,,,,,,,2431.567513099988,2431.567513099988,2431.567513099988,2431.567513099988,2431.567513099988,left,2.5776576000498608,3,0,0,99,0.4,0.24,left,2.492304699961096,,,,,,,,,,,,,,,,,,,,,,,,,,,,,,,,,,,,,,,,,,,,,,,,,,,,,,,,,,,,TLPMPX,train_x,blue_star,top_right,2025-08-14_15h33.58.124,HideSeek_v1,2022.2.5,59.94873185891239,
,9,8,4,8,-5,0,11,,train_dim1_1,14,30,,,,2,0,2,0,,,,,,,,,0,0,0,0,0,13,13,13,2,0,2,0,,,,,,,,,,,,,,,,,,,,,,,,,,,,,,,,,,,,,,,,,,,,,,,,,,,,,,,,,,,,,,,,30,,,,,,,,2434.1443567000097,2434.1443567000097,2434.1443567000097,2434.1443567000097,2434.1443567000097,left,23.145155900041573,3,0,0,99,0.32,0.24,left,23.064003700041212,,,,,,,,,,,,,,,,,,,,,,,,,,,,,,,,,,,,,,,,,,,,,,,,,,,,,,,,,,,,TLPMPX,train_x,blue_star,top_right,2025-08-14_15h33.58.124,HideSeek_v1,2022.2.5,59.94873185891239,
,9,8,4,8,-5,0,11,,train_dim1_1,14,30,,,,2,0,2,0,,,,,,,,,0,0,0,0,0,13,13,13,3,0,3,0,,,,,,,,,,,,,,,,,,,,,,,,,,,,,,,,,,,,,,,,,,,,,,,,,,,,,,,,,,,,,,,,30,,,,,,,,2457.312646500068,2457.312646500068,2457.312646500068,2457.312646500068,2457.312646500068,left,0.7098837000085041,3,0,0,99,0.24,0.24,left,0.616119800019078,,,,,,,,,,,,,,,,,,,,,,,,,,,,,,,,,,,,,,,,,,,,,,,,,,,,,,,,,,,,TLPMPX,train_x,blue_star,top_right,2025-08-14_15h33.58.124,HideSeek_v1,2022.2.5,59.94873185891239,
,9,8,4,8,-5,0,11,,train_dim1_1,14,30,,,,2,0,2,0,,,,,,,,,0,0,0,0,0,13,13,13,4,0,4,0,,,,,,,,,,,,,,,,,,,,,,,,,,,,,,,,,,,,,,,,,,,,,,,,,,,,,,,,,,,,,,,,30,,,,,,,,2458.014062600094,2458.014062600094,2458.014062600094,2458.014062600094,2458.014062600094,left,0.5436558000510558,3,0,0,99,0.15999999999999998,0.24,left,0.45837289991322905,,,,,,,,,,,,,,,,,,,,,,,,,,,,,,,,,,,,,,,,,,,,,,,,,,,,,,,,,,,,TLPMPX,train_x,blue_star,top_right,2025-08-14_15h33.58.124,HideSeek_v1,2022.2.5,59.94873185891239,
,9,8,4,8,-5,0,11,,train_dim1_1,14,30,,,,2,0,2,0,,,,,,,,,0,0,0,0,0,13,13,13,5,0,5,0,,,,,,,,,,,,,,,,,,,,,,,,,,,,,,,,,,,,,,,,,,,,,,,,,,,,,,,,,,,,,,,,30,,,,,,,,2458.5653213000624,2458.5653213000624,2458.5653213000624,2458.5653213000624,2458.5653213000624,return,1.4607092998921871,4,0,0,1,0.15999999999999998,0.24,return,1.3820150999817997,-15,-18,0.15999999999999998,0.24,,,,,,,,,,,,,,,,,,,,,,,,,,,,,,,,,,,,,,,,,,,,,,,,,,,,,,,,TLPMPX,train_x,blue_star,top_right,2025-08-14_15h33.58.124,HideSeek_v1,2022.2.5,59.94873185891239,
,9,7,9,7,0,0,61,,train_dim1_1,15,30,,,,2,0,2,0,,,,,,,,,0,0,0,0,0,14,14,14,0,0,0,0,,,,,,,,,,,,,,,,,,,,,,,,,stimuli/alien_stimuli/61.png,,,,,,,,,,,,,,,,,,,,,,,,,,,,,stimuli/alien_stimuli/11.png,11,9,16,,,,,,,30,,,,,,,,2467.0621815000195,2467.0621815000195,2467.0621815000195,2467.0621815000195,2467.0621815000195,return,7.894736599992029,5,0,0,1,0.56,0.16,return,7.8156125000678,-15,-18,0.56,0.16,2465.5023816000903,2467.0621815000195,0.16,0.24,0.0,0.4,0.24,0.16,0.36000000000000004,0.16,0.24,2461.6126708000666,2461.6126708000666,2461.6126708000666,2461.6126708000666,2461.6126708000666,2461.6126708000666,2461.6126708000666,2461.6126708000666,2461.598987939977,4.02218339999672,return,3.857341100112535,,,,,,,,,,,,,,,,,,,,,,,,,,,,,,,,,TLPMPX,train_x,blue_star,top_right,2025-08-14_15h33.58.124,HideSeek_v1,2022.2.5,59.94873185891239,
,8,8,7,8,-1,0,51,,train_dim1_1,16,30,,,,2,0,2,0,,,,,,,,,0,0,0,0,0,15,15,15,0,0,0,0,,,,,,,,,,,,,,,,,,,,,,,,,stimuli/alien_stimuli/51.png,,,,,,,,,,,,,,,,,,,,,,,,,,,,,stimuli/alien_stimuli/61.png,61,9,17,,,,,,,30,,,,,,,,2481.1470441001,2481.1470441001,2481.1470441001,2481.1470441001,2481.1470441001,left,4.5373493999941275,5,0,0,99,0.39999999999999997,0.24,left,4.444370099925436,,,,,2479.580817400012,2481.1470441001,0.56,0.16,0.0,0.0,0.16,0.56,0.56,0.56,0.16,2476.533845200087,2476.533845200087,2476.533845200087,2476.533845200087,2476.533845200087,2476.533845200087,2476.533845200087,2476.533845200087,2476.5114274099706,3.171591000049375,return,3.0172916000010446,,,,,,,,,,,,,,,,,,,,,,,,,,,,,,,,,TLPMPX,train_x,blue_star,top_right,2025-08-14_15h33.58.124,HideSeek_v1,2022.2.5,59.94873185891239,
,8,8,7,8,-1,0,51,,train_dim1_1,16,30,,,,2,0,2,0,,,,,,,,,0,0,0,0,0,15,15,15,1,0,1,0,,,,,,,,,,,,,,,,,,,,,,,,,,,,,,,,,,,,,,,,,,,,,,,,,,,,,,,,,,,,,,,,30,,,,,,,,2485.6886721000774,2485.6886721000774,2485.6886721000774,2485.6886721000774,2485.6886721000774,left,5.496793800033629,5,0,0,99,0.31999999999999995,0.24,left,5.418171599972993,,,,,,,,,,,,,,,,,,,,,,,,,,,,,,,,,,,,,,,,,,,,,,,,,,,,,,,,,,,,TLPMPX,train_x,blue_star,top_right,2025-08-14_15h33.58.124,HideSeek_v1,2022.2.5,59.94873185891239,
,8,8,7,8,-1,0,51,,train_dim1_1,16,30,,,,2,0,2,0,,,,,,,,,0,0,0,0,0,15,15,15,2,0,2,0,,,,,,,,,,,,,,,,,,,,,,,,,,,,,,,,,,,,,,,,,,,,,,,,,,,,,,,,,,,,,,,,30,,,,,,,,2491.19022530003,2491.19022530003,2491.19022530003,2491.19022530003,2491.19022530003,return,1.7611767000053078,5,1,0,0,0.31999999999999995,0.24,return,1.6737762000411749,-15,-20,0.31999999999999995,0.24,,,,,,,,,,,,,,,,,,,,,,,,,,,,,,,,,,,,,,,,,,,,,,,,,,,,,,,,TLPMPX,train_x,blue_star,top_right,2025-08-14_15h33.58.124,HideSeek_v1,2022.2.5,59.94873185891239,
,7,9,3,9,-4,0,21,,train_dim1_1,17,30,,,,2,0,2,0,,,,,,,,,0,0,0,0,0,16,16,16,0,0,0,0,,,,,,,,,,,,,,,,,,,,,,,,,stimuli/alien_stimuli/21.png,,,,,,,,,,,,,,,,,,,,,,,,,,,,,stimuli/alien_stimuli/51.png,51,8,18,,,,,,,30,,,,,,,,2501.0261633000337,2501.0261633000337,2501.0261633000337,2501.0261633000337,2501.0261633000337,down,6.994498499901965,5,1,0,99,0.4,0.24,down,6.896930199931376,,,,,2499.463855200098,2501.0261633000337,0.4,0.24,0.0,0.08,0.24,0.4,0.44,0.4,0.24,2494.5359419999877,2494.5359419999877,2494.5359419999877,2494.5359419999877,2494.5359419999877,2494.5359419999877,2494.5359419999877,2494.5359419999877,2494.5263397400036,5.056706000003032,return,4.897012499975972,,,,,,,,,,,,,,,,,,,,,,,,,,,,,,,,,TLPMPX,train_x,blue_star,top_right,2025-08-14_15h33.58.124,HideSeek_v1,2022.2.5,59.94873185891239,
,7,9,3,9,-4,0,21,,train_dim1_1,17,30,,,,2,0,2,0,,,,,,,,,0,0,0,0,0,16,16,16,1,0,1,0,,,,,,,,,,,,,,,,,,,,,,,,,,,,,,,,,,,,,,,,,,,,,,,,,,,,,,,,,,,,,,,,30,,,,,,,,2508.0232924000593,2508.0232924000593,2508.0232924000593,2508.0232924000593,2508.0232924000593,down,9.250366599997506,5,1,0,99,0.4,0.15999999999999998,down,9.166960600065067,,,,,,,,,,,,,,,,,,,,,,,,,,,,,,,,,,,,,,,,,,,,,,,,,,,,,,,,,,,,TLPMPX,train_x,blue_star,top_right,2025-08-14_15h33.58.124,HideSeek_v1,2022.2.5,59.94873185891239,
,7,9,3,9,-4,0,21,,train_dim1_1,17,30,,,,2,0,2,0,,,,,,,,,0,0,0,0,0,16,16,16,2,0,2,0,,,,,,,,,,,,,,,,,,,,,,,,,,,,,,,,,,,,,,,,,,,,,,,,,,,,,,,,,,,,,,,,30,,,,,,,,2517.279799700016,2517.279799700016,2517.279799700016,2517.279799700016,2517.279799700016,down,0.6600688999751583,5,1,0,99,0.4,0.07999999999999997,down,0.5744587000226602,,,,,,,,,,,,,,,,,,,,,,,,,,,,,,,,,,,,,,,,,,,,,,,,,,,,,,,,,,,,TLPMPX,train_x,blue_star,top_right,2025-08-14_15h33.58.124,HideSeek_v1,2022.2.5,59.94873185891239,
,7,9,3,9,-4,0,21,,train_dim1_1,17,30,,,,2,0,2,0,,,,,,,,,0,0,0,0,0,16,16,16,3,0,3,0,,,,,,,,,,,,,,,,,,,,,,,,,,,,,,,,,,,,,,,,,,,,,,,,,,,,,,,,,,,,,,,,30,,,,,,,,2517.946823999984,2517.946823999984,2517.946823999984,2517.946823999984,2517.946823999984,down,3.8293658999027684,5,1,0,99,0.4,-2.7755575615628914e-17,down,3.747764499974437,,,,,,,,,,,,,,,,,,,,,,,,,,,,,,,,,,,,,,,,,,,,,,,,,,,,,,,,,,,,TLPMPX,train_x,blue_star,top_right,2025-08-14_15h33.58.124,HideSeek_v1,2022.2.5,59.94873185891239,
,7,9,3,9,-4,0,21,,train_dim1_1,17,30,,,,2,0,2,0,,,,,,,,,0,0,0,0,0,16,16,16,4,0,4,0,,,,,,,,,,,,,,,,,,,,,,,,,,,,,,,,,,,,,,,,,,,,,,,,,,,,,,,,,,,,,,,,30,,,,,,,,2521.7849114000564,2521.7849114000564,2521.7849114000564,2521.7849114000564,2521.7849114000564,return,1.5270313000073656,5,0,0,0,0.4,-2.7755575615628914e-17,return,1.4362319000065327,-19,-20,0.4,-2.7755575615628914e-17,,,,,,,,,,,,,,,,,,,,,,,,,,,,,,,,,,,,,,,,,,,,,,,,,,,,,,,,TLPMPX,train_x,blue_star,top_right,2025-08-14_15h33.58.124,HideSeek_v1,2022.2.5,59.94873185891239,
,7,6,7,6,0,0,61,,train_dim1_1,18,30,,,,2,0,2,0,,,,,,,,,0,0,0,0,0,17,17,17,0,0,0,0,,,,,,,,,,,,,,,,,,,,,,,,,stimuli/alien_stimuli/61.png,,,,,,,,,,,,,,,,,,,,,,,,,,,,,stimuli/alien_stimuli/21.png,21,7,19,,,,,,,30,,,,,,,,2544.4847577000037,2544.4847577000037,2544.4847577000037,2544.4847577000037,2544.4847577000037,left,8.511306599946693,5,0,0,99,0.32,0.08,left,8.408067999989726,,,,,2542.916746700066,2544.4847577000037,0.08,0.32,0.0,0.32,0.32,0.08,0.24000000000000002,0.08,0.32,2524.9016425000736,2524.9016425000736,2524.9016425000736,2524.9016425000736,2524.9016425000736,2524.9016425000736,2524.9016425000736,2524.9016425000736,2524.884753440018,18.15086309995968,return,17.98987779999152,,,,,,,,,,,,,,,,,,,,,,,,,,,,,,,,,TLPMPX,train_x,blue_star,top_right,2025-08-14_15h33.58.124,HideSeek_v1,2022.2.5,59.94873185891239,
,7,6,7,6,0,0,61,,train_dim1_1,18,30,,,,2,0,2,0,,,,,,,,,0,0,0,0,0,17,17,17,1,0,1,0,,,,,,,,,,,,,,,,,,,,,,,,,,,,,,,,,,,,,,,,,,,,,,,,,,,,,,,,,,,,,,,,30,,,,,,,,2552.991037800093,2552.991037800093,2552.991037800093,2552.991037800093,2552.991037800093,return,2.1607788000255823,5,1,0,0,0.32,0.08,return,2.081288199988194,-19,-21,0.32,0.08,,,,,,,,,,,,,,,,,,,,,,,,,,,,,,,,,,,,,,,,,,,,,,,,,,,,,,,,TLPMPX,train_x,blue_star,top_right,2025-08-14_15h33.58.124,HideSeek_v1,2022.2.5,59.94873185891239,
,5,8,2,8,-3,0,31,,train_dim1_1,19,30,,,,2,0,2,0,,,,,,,,,0,0,0,0,0,18,18,18,0,0,0,0,,,,,,,,,,,,,,,,,,,,,,,,,stimuli/alien_stimuli/31.png,,,,,,,,,,,,,,,,,,,,,,,,,,,,,stimuli/alien_stimuli/61.png,61,7,20,,,,,,,30,,,,,,,,2562.245273500099,2562.245273500099,2562.245273500099,2562.245273500099,2562.245273500099,down,3.8919376999838278,5,1,0,99,0.24,0.15999999999999998,down,3.801597799989395,,,,,2560.6814496000297,2562.245273500099,0.4,0.08,0.0,0.0,0.08,0.4,0.4,0.4,0.08,2556.738348199986,2556.738348199986,2556.738348199986,2556.738348199986,2556.738348199986,2556.738348199986,2556.738348199986,2556.738348199986,2556.7281022399898,4.072453000000678,return,3.9203320000087842,,,,,,,,,,,,,,,,,,,,,,,,,,,,,,,,,TLPMPX,train_x,blue_star,top_right,2025-08-14_15h33.58.124,HideSeek_v1,2022.2.5,59.94873185891239,
,5,8,2,8,-3,0,31,,train_dim1_1,19,30,,,,2,0,2,0,,,,,,,,,0,0,0,0,0,18,18,18,1,0,1,0,,,,,,,,,,,,,,,,,,,,,,,,,,,,,,,,,,,,,,,,,,,,,,,,,,,,,,,,,,,,,,,,30,,,,,,,,2566.133409300004,2566.133409300004,2566.133409300004,2566.133409300004,2566.133409300004,down,9.30075339996256,5,1,0,99,0.24,0.07999999999999997,down,9.224496000097133,,,,,,,,,,,,,,,,,,,,,,,,,,,,,,,,,,,,,,,,,,,,,,,,,,,,,,,,,,,,TLPMPX,train_x,blue_star,top_right,2025-08-14_15h33.58.124,HideSeek_v1,2022.2.5,59.94873185891239,
,5,8,2,8,-3,0,31,,train_dim1_1,19,30,,,,2,0,2,0,,,,,,,,,0,0,0,0,0,18,18,18,2,0,2,0,,,,,,,,,,,,,,,,,,,,,,,,,,,,,,,,,,,,,,,,,,,,,,,,,,,,,,,,,,,,,,,,30,,,,,,,,2575.4466773000313,2575.4466773000313,2575.4466773000313,2575.4466773000313,2575.4466773000313,down,0.45983259996864945,5,1,0,99,0.24,-2.7755575615628914e-17,down,0.37235199997667223,,,,,,,,,,,,,,,,,,,,,,,,,,,,,,,,,,,,,,,,,,,,,,,,,,,,,,,,,,,,TLPMPX,train_x,blue_star,top_right,2025-08-14_15h33.58.124,HideSeek_v1,2022.2.5,59.94873185891239,
,5,8,2,8,-3,0,31,,train_dim1_1,19,30,,,,2,0,2,0,,,,,,,,,0,0,0,0,0,18,18,18,3,0,3,0,,,,,,,,,,,,,,,,,,,,,,,,,,,,,,,,,,,,,,,,,,,,,,,,,,,,,,,,,,,,,,,,30,,,,,,,,2575.9083418000955,2575.9083418000955,2575.9083418000955,2575.9083418000955,2575.9083418000955,return,1.2439361999277025,5,0,0,0,0.24,-2.7755575615628914e-17,return,1.163358599995263,-22,-21,0.24,-2.7755575615628914e-17,,,,,,,,,,,,,,,,,,,,,,,,,,,,,,,,,,,,,,,,,,,,,,,,,,,,,,,,TLPMPX,train_x,blue_star,top_right,2025-08-14_15h33.58.124,HideSeek_v1,2022.2.5,59.94873185891239,
,5,6,0,6,-5,0,11,,train_dim1_1,20,30,,,,2,0,2,0,,,,,,,,,0,0,0,0,0,19,19,19,0,0,0,0,,,,,,,,,,,,,,,,,,,,,,,,,stimuli/alien_stimuli/11.png,,,,,,,,,,,,,,,,,,,,,,,,,,,,,stimuli/alien_stimuli/31.png,31,5,21,,,,,,,30,,,,,,,,2591.307505200035,2591.307505200035,2591.307505200035,2591.307505200035,2591.307505200035,down,6.626893799984828,5,0,0,99,0.24,0.0,down,6.530767900054343,,,,,2589.738976499997,2591.307505200035,0,0.24,0.0,0.24,0.24,0,0.12,0,0.24,2578.7297517000698,2578.7297517000698,2578.7297517000698,2578.7297517000698,2578.7297517000698,2578.7297517000698,2578.7297517000698,2578.7297517000698,2578.713270609989,11.128190300078131,return,10.980883599957451,,,,,,,,,,,,,,,,,,,,,,,,,,,,,,,,,TLPMPX,train_x,blue_star,top_right,2025-08-14_15h33.58.124,HideSeek_v1,2022.2.5,59.94873185891239,
,5,6,0,6,-5,0,11,,train_dim1_1,20,30,,,,2,0,2,0,,,,,,,,,0,0,0,0,0,19,19,19,1,0,1,0,,,,,,,,,,,,,,,,,,,,,,,,,,,,,,,,,,,,,,,,,,,,,,,,,,,,,,,,,,,,,,,,30,,,,,,,,2597.931592600071,2597.931592600071,2597.931592600071,2597.931592600071,2597.931592600071,down,4.012191600049846,5,0,0,99,0.24,-0.08,down,3.927339799934998,,,,,,,,,,,,,,,,,,,,,,,,,,,,,,,,,,,,,,,,,,,,,,,,,,,,,,,,,,,,TLPMPX,train_x,blue_star,top_right,2025-08-14_15h33.58.124,HideSeek_v1,2022.2.5,59.94873185891239,
,5,6,0,6,-5,0,11,,train_dim1_1,20,30,,,,2,0,2,0,,,,,,,,,0,0,0,0,0,19,19,19,2,0,2,0,,,,,,,,,,,,,,,,,,,,,,,,,,,,,,,,,,,,,,,,,,,,,,,,,,,,,,,,,,,,,,,,30,,,,,,,,2601.9499777000165,2601.9499777000165,2601.9499777000165,2601.9499777000165,2601.9499777000165,down,0.5936685999622568,5,0,0,99,0.24,-0.16,down,0.5115474000340328,,,,,,,,,,,,,,,,,,,,,,,,,,,,,,,,,,,,,,,,,,,,,,,,,,,,,,,,,,,,TLPMPX,train_x,blue_star,top_right,2025-08-14_15h33.58.124,HideSeek_v1,2022.2.5,59.94873185891239,
,5,6,0,6,-5,0,11,,train_dim1_1,20,30,,,,2,0,2,0,,,,,,,,,0,0,0,0,0,19,19,19,3,0,3,0,,,,,,,,,,,,,,,,,,,,,,,,,,,,,,,,,,,,,,,,,,,,,,,,,,,,,,,,,,,,,,,,30,,,,,,,,2602.5502757000504,2602.5502757000504,2602.5502757000504,2602.5502757000504,2602.5502757000504,down,2.8452535000396892,5,0,0,99,0.24,-0.24,down,2.7632281000260264,,,,,,,,,,,,,,,,,,,,,,,,,,,,,,,,,,,,,,,,,,,,,,,,,,,,,,,,,,,,TLPMPX,train_x,blue_star,top_right,2025-08-14_15h33.58.124,HideSeek_v1,2022.2.5,59.94873185891239,
,5,6,0,6,-5,0,11,,train_dim1_1,20,30,,,,2,0,2,0,,,,,,,,,0,0,0,0,0,19,19,19,4,0,4,0,,,,,,,,,,,,,,,,,,,,,,,,,,,,,,,,,,,,,,,,,,,,,,,,,,,,,,,,,,,,,,,,30,,,,,,,,2605.403390599997,2605.403390599997,2605.403390599997,2605.403390599997,2605.403390599997,down,0.643404999980703,5,0,0,99,0.24,-0.32,down,0.5512301999842748,,,,,,,,,,,,,,,,,,,,,,,,,,,,,,,,,,,,,,,,,,,,,,,,,,,,,,,,,,,,TLPMPX,train_x,blue_star,top_right,2025-08-14_15h33.58.124,HideSeek_v1,2022.2.5,59.94873185891239,
,5,6,0,6,-5,0,11,,train_dim1_1,20,30,,,,2,0,2,0,,,,,,,,,0,0,0,0,0,19,19,19,5,0,5,0,,,,,,,,,,,,,,,,,,,,,,,,,,,,,,,,,,,,,,,,,,,,,,,,,,,,,,,,,,,,,,,,30,,,,,,,,2606.054419000051,2606.054419000051,2606.054419000051,2606.054419000051,2606.054419000051,return,0.8603658999782056,5,0,0,0,0.24,-0.32,return,0.781455299933441,-27,-21,0.24,-0.32,,,,,,,,,,,,,,,,,,,,,,,,,,,,,,,,,,,,,,,,,,,,,,,,,,,,,,,,TLPMPX,train_x,blue_star,top_right,2025-08-14_15h33.58.124,HideSeek_v1,2022.2.5,59.94873185891239,
,9,7,6,7,-3,0,31,,train_dim1_1,21,30,,,,2,0,2,0,,,,,,,,,0,0,0,0,0,20,20,20,0,0,0,0,,,,,,,,,,,,,,,,,,,,,,,,,stimuli/alien_stimuli/31.png,,,,,,,,,,,,,,,,,,,,,,,,,,,,,stimuli/alien_stimuli/11.png,11,5,22,,,,,,,30,,,,,,,,2613.5682791,2613.5682791,2613.5682791,2613.5682791,2613.5682791,left,6.122084500035271,5,0,0,99,0.48000000000000004,0.16,left,6.0242960000177845,,,,,2611.990626899991,2613.5682791,-0.16,0.08,0.0,0.4,0.08,-0.16,0.039999999999999994,-0.16,0.08,2608.4994229000295,2608.4994229000295,2608.4994229000295,2608.4994229000295,2608.4994229000295,2608.4994229000295,2608.4994229000295,2608.4994229000295,2608.4878081399715,3.6220097999321297,return,3.464744500000961,,,,,,,,,,,,,,,,,,,,,,,,,,,,,,,,,TLPMPX,train_x,blue_star,top_right,2025-08-14_15h33.58.124,HideSeek_v1,2022.2.5,59.94873185891239,
,9,7,6,7,-3,0,31,,train_dim1_1,21,30,,,,2,0,2,0,,,,,,,,,0,0,0,0,0,20,20,20,1,0,1,0,,,,,,,,,,,,,,,,,,,,,,,,,,,,,,,,,,,,,,,,,,,,,,,,,,,,,,,,,,,,,,,,30,,,,,,,,2619.679944200092,2619.679944200092,2619.679944200092,2619.679944200092,2619.679944200092,left,4.262748699984513,5,0,0,99,0.4,0.16,left,4.187174399965443,,,,,,,,,,,,,,,,,,,,,,,,,,,,,,,,,,,,,,,,,,,,,,,,,,,,,,,,,,,,TLPMPX,train_x,blue_star,top_right,2025-08-14_15h33.58.124,HideSeek_v1,2022.2.5,59.94873185891239,
,9,7,6,7,-3,0,31,,train_dim1_1,21,30,,,,2,0,2,0,,,,,,,,,0,0,0,0,0,20,20,20,2,0,2,0,,,,,,,,,,,,,,,,,,,,,,,,,,,,,,,,,,,,,,,,,,,,,,,,,,,,,,,,,,,,,,,,30,,,,,,,,2623.9524065000005,2623.9524065000005,2623.9524065000005,2623.9524065000005,2623.9524065000005,return,2.1781563999829814,5,1,0,0,0.4,0.16,return,2.0850246999179944,-27,-23,0.4,0.16,,,,,,,,,,,,,,,,,,,,,,,,,,,,,,,,,,,,,,,,,,,,,,,,,,,,,,,,TLPMPX,train_x,blue_star,top_right,2025-08-14_15h33.58.124,HideSeek_v1,2022.2.5,59.94873185891239,
,6,5,2,5,-4,0,21,,train_dim1_1,22,30,,,,2,0,2,0,,,,,,,,,0,0,0,0,0,21,21,21,0,0,0,0,,,,,,,,,,,,,,,,,,,,,,,,,stimuli/alien_stimuli/21.png,,,,,,,,,,,,,,,,,,,,,,,,,,,,,stimuli/alien_stimuli/31.png,31,9,23,,,,,,,30,,,,,,,,2635.206619500066,2635.206619500066,2635.206619500066,2635.206619500066,2635.206619500066,up,30.428625000058673,5,1,0,99,0.32,0.08,up,30.34434410009999,,,,,2633.6424302000087,2635.206619500066,0.32,0.16,0.0,0.24,0.16,0.32,0.44000000000000006,0.32,0.16,2627.7113838000223,2627.7113838000223,2627.7113838000223,2627.7113838000223,2627.7113838000223,2627.7113838000223,2627.7113838000223,2627.7113838000223,2627.7038438400255,6.057562500005588,return,5.901244500069879,,,,,,,,,,,,,,,,,,,,,,,,,,,,,,,,,TLPMPX,train_x,blue_star,top_right,2025-08-14_15h33.58.124,HideSeek_v1,2022.2.5,59.94873185891239,
,6,5,2,5,-4,0,21,,train_dim1_1,22,30,,,,2,0,2,0,,,,,,,,,0,0,0,0,0,21,21,21,1,0,1,0,,,,,,,,,,,,,,,,,,,,,,,,,,,,,,,,,,,,,,,,,,,,,,,,,,,,,,,,,,,,,,,,30,,,,,,,,2665.6446847000625,2665.6446847000625,2665.6446847000625,2665.6446847000625,2665.6446847000625,up,3.8783333000028506,5,1,0,99,0.32,0.16,up,3.780965600046329,,,,,,,,,,,,,,,,,,,,,,,,,,,,,,,,,,,,,,,,,,,,,,,,,,,,,,,,,,,,TLPMPX,train_x,blue_star,top_right,2025-08-14_15h33.58.124,HideSeek_v1,2022.2.5,59.94873185891239,
,6,5,2,5,-4,0,21,,train_dim1_1,22,30,,,,2,0,2,0,,,,,,,,,0,0,0,0,0,21,21,21,2,0,2,0,,,,,,,,,,,,,,,,,,,,,,,,,,,,,,,,,,,,,,,,,,,,,,,,,,,,,,,,,,,,,,,,30,,,,,,,,2669.524762200075,2669.524762200075,2669.524762200075,2669.524762200075,2669.524762200075,up,3.2785118999890983,5,1,0,99,0.32,0.24,up,3.194918500026688,,,,,,,,,,,,,,,,,,,,,,,,,,,,,,,,,,,,,,,,,,,,,,,,,,,,,,,,,,,,TLPMPX,train_x,blue_star,top_right,2025-08-14_15h33.58.124,HideSeek_v1,2022.2.5,59.94873185891239,
,6,5,2,5,-4,0,21,,train_dim1_1,22,30,,,,2,0,2,0,,,,,,,,,0,0,0,0,0,21,21,21,3,0,3,0,,,,,,,,,,,,,,,,,,,,,,,,,,,,,,,,,,,,,,,,,,,,,,,,,,,,,,,,,,,,,,,,30,,,,,,,,2672.8089121000376,2672.8089121000376,2672.8089121000376,2672.8089121000376,2672.8089121000376,down,3.8960504001006484,5,1,0,99,0.32,0.15999999999999998,down,3.8032758999615908,,,,,,,,,,,,,,,,,,,,,,,,,,,,,,,,,,,,,,,,,,,,,,,,,,,,,,,,,,,,TLPMPX,train_x,blue_star,top_right,2025-08-14_15h33.58.124,HideSeek_v1,2022.2.5,59.94873185891239,
,6,5,2,5,-4,0,21,,train_dim1_1,22,30,,,,2,0,2,0,,,,,,,,,0,0,0,0,0,21,21,21,4,0,4,0,,,,,,,,,,,,,,,,,,,,,,,,,,,,,,,,,,,,,,,,,,,,,,,,,,,,,,,,,,,,,,,,30,,,,,,,,2676.7115346000064,2676.7115346000064,2676.7115346000064,2676.7115346000064,2676.7115346000064,return,0.9437791000818834,5,0,0,0,0.32,0.15999999999999998,return,0.8556553000817075,-25,-23,0.32,0.15999999999999998,,,,,,,,,,,,,,,,,,,,,,,,,,,,,,,,,,,,,,,,,,,,,,,,,,,,,,,,TLPMPX,train_x,blue_star,top_right,2025-08-14_15h33.58.124,HideSeek_v1,2022.2.5,59.94873185891239,
,7,6,7,6,0,0,61,,train_dim1_1,23,30,,,,2,0,2,0,,,,,,,,,0,0,0,0,0,22,22,22,0,0,0,0,,,,,,,,,,,,,,,,,,,,,,,,,stimuli/alien_stimuli/61.png,,,,,,,,,,,,,,,,,,,,,,,,,,,,,stimuli/alien_stimuli/21.png,21,6,24,,,,,,,30,,,,,,,,2693.5512505000224,2693.5512505000224,2693.5512505000224,2693.5512505000224,2693.5512505000224,return,8.74530519999098,6,0,0,1,0.4,0.08,return,8.655478299944662,-25,-23,0.4,0.08,2691.9905283000553,2693.5512505000224,0,0,0.0,0.32,0.0,0,0.16,0,0,2679.243267000071,2679.243267000071,2679.243267000071,2679.243267000071,2679.243267000071,2679.243267000071,2679.243267000071,2679.243267000071,2679.2300014400157,12.879449300002307,return,12.723118699970655,,,,,,,,,,,,,,,,,,,,,,,,,,,,,,,,,TLPMPX,train_x,blue_star,top_right,2025-08-14_15h33.58.124,HideSeek_v1,2022.2.5,59.94873185891239,
,9,9,8,9,-1,0,51,,train_dim1_1,24,30,,,,2,0,2,0,,,,,,,,,0,0,0,0,0,23,23,23,0,0,0,0,,,,,,,,,,,,,,,,,,,,,,,,,stimuli/alien_stimuli/51.png,,,,,,,,,,,,,,,,,,,,,,,,,,,,,stimuli/alien_stimuli/61.png,61,7,25,,,,,,,30,,,,,,,,2709.6325032000896,2709.6325032000896,2709.6325032000896,2709.6325032000896,2709.6325032000896,return,6.542550200014375,6,1,0,0,0.56,0.32,return,6.45026059995871,-25,-23,0.56,0.32,2708.070612700074,2709.6325032000896,0.4,0.08,0.0,0.0,0.08,0.4,0.4,0.4,0.08,2703.8905362000223,2703.8905362000223,2703.8905362000223,2703.8905362000223,2703.8905362000223,2703.8905362000223,2703.8905362000223,2703.8905362000223,2703.867276840005,4.322410900029354,return,4.155436100088991,,,,,,,,,,,,,,,,,,,,,,,,,,,,,,,,,TLPMPX,train_x,blue_star,top_right,2025-08-14_15h33.58.124,HideSeek_v1,2022.2.5,59.94873185891239,
,8,5,3,5,-5,0,11,,train_dim1_1,25,30,,,,2,0,2,0,,,,,,,,,0,0,0,0,0,24,24,24,0,0,0,0,,,,,,,,,,,,,,,,,,,,,,,,,stimuli/alien_stimuli/11.png,,,,,,,,,,,,,,,,,,,,,,,,,,,,,stimuli/alien_stimuli/51.png,51,9,26,,,,,,,30,,,,,,,,2727.4989226000616,2727.4989226000616,2727.4989226000616,2727.4989226000616,2727.4989226000616,up,12.215412899968214,6,1,0,99,0.48,0.08,up,12.124995599966496,,,,,2725.935309700086,2727.4989226000616,0.48,0.32,0.0,0.08,0.32,0.48,0.52,0.48,0.32,2717.755904200021,2717.755904200021,2717.755904200021,2717.755904200021,2717.755904200021,2717.755904200021,2717.755904200021,2717.755904200021,2717.7453823400197,8.30871210002806,return,8.154096400015987,,,,,,,,,,,,,,,,,,,,,,,,,,,,,,,,,TLPMPX,train_x,blue_star,top_right,2025-08-14_15h33.58.124,HideSeek_v1,2022.2.5,59.94873185891239,
,8,5,3,5,-5,0,11,,train_dim1_1,25,30,,,,2,0,2,0,,,,,,,,,0,0,0,0,0,24,24,24,1,0,1,0,,,,,,,,,,,,,,,,,,,,,,,,,,,,,,,,,,,,,,,,,,,,,,,,,,,,,,,,,,,,,,,,30,,,,,,,,2739.7223493000492,2739.7223493000492,2739.7223493000492,2739.7223493000492,2739.7223493000492,up,0.6258924000430852,6,1,0,99,0.48,0.16,up,0.5331214000470936,,,,,,,,,,,,,,,,,,,,,,,,,,,,,,,,,,,,,,,,,,,,,,,,,,,,,,,,,,,,TLPMPX,train_x,blue_star,top_right,2025-08-14_15h33.58.124,HideSeek_v1,2022.2.5,59.94873185891239,
,8,5,3,5,-5,0,11,,train_dim1_1,25,30,,,,2,0,2,0,,,,,,,,,0,0,0,0,0,24,24,24,2,0,2,0,,,,,,,,,,,,,,,,,,,,,,,,,,,,,,,,,,,,,,,,,,,,,,,,,,,,,,,,,,,,,,,,30,,,,,,,,2740.348741600057,2740.348741600057,2740.348741600057,2740.348741600057,2740.348741600057,up,0.7436248000012711,6,1,0,99,0.48,0.24,up,0.6665466000558808,,,,,,,,,,,,,,,,,,,,,,,,,,,,,,,,,,,,,,,,,,,,,,,,,,,,,,,,,,,,TLPMPX,train_x,blue_star,top_right,2025-08-14_15h33.58.124,HideSeek_v1,2022.2.5,59.94873185891239,
,8,5,3,5,-5,0,11,,train_dim1_1,25,30,,,,2,0,2,0,,,,,,,,,0,0,0,0,0,24,24,24,3,0,3,0,,,,,,,,,,,,,,,,,,,,,,,,,,,,,,,,,,,,,,,,,,,,,,,,,,,,,,,,,,,,,,,,30,,,,,,,,2741.0991628000047,2741.0991628000047,2741.0991628000047,2741.0991628000047,2741.0991628000047,up,0.676874199998565,6,1,0,99,0.48,0.32,up,0.5900124000618234,,,,,,,,,,,,,,,,,,,,,,,,,,,,,,,,,,,,,,,,,,,,,,,,,,,,,,,,,,,,TLPMPX,train_x,blue_star,top_right,2025-08-14_15h33.58.124,HideSeek_v1,2022.2.5,59.94873185891239,
,8,5,3,5,-5,0,11,,train_dim1_1,25,30,,,,2,0,2,0,,,,,,,,,0,0,0,0,0,24,24,24,4,0,4,0,,,,,,,,,,,,,,,,,,,,,,,,,,,,,,,,,,,,,,,,,,,,,,,,,,,,,,,,,,,,,,,,30,,,,,,,,2741.782442800002,2741.782442800002,2741.782442800002,2741.782442800002,2741.782442800002,return,0.910329999984242,6,0,0,0,0.48,0.32,return,0.8215549999149516,-21,-23,0.48,0.32,,,,,,,,,,,,,,,,,,,,,,,,,,,,,,,,,,,,,,,,,,,,,,,,,,,,,,,,TLPMPX,train_x,blue_star,top_right,2025-08-14_15h33.58.124,HideSeek_v1,2022.2.5,59.94873185891239,
,6,6,6,6,0,0,61,,train_dim1_1,26,30,,,,2,0,2,0,,,,,,,,,0,0,0,0,0,25,25,25,0,0,0,0,,,,,,,,,,,,,,,,,,,,,,,,,stimuli/alien_stimuli/61.png,,,,,,,,,,,,,,,,,,,,,,,,,,,,,stimuli/alien_stimuli/11.png,11,8,27,,,,,,,30,,,,,,,,2760.511222800007,2760.511222800007,2760.511222800007,2760.511222800007,2760.511222800007,return,4.92470900004264,7,0,0,1,0.32,0.08,return,4.83266120008193,-21,-23,0.32,0.08,2758.9460909999907,2760.511222800007,0.08,0,0.0,0.4,0.0,0.08,0.27999999999999997,0.08,0,2744.2858354999917,2744.2858354999917,2744.2858354999917,2744.2858354999917,2744.2858354999917,2744.2858354999917,2744.2858354999917,2744.2858354999917,2744.2673280399526,14.797806399990804,return,14.633163599995896,,,,,,,,,,,,,,,,,,,,,,,,,,,,,,,,,TLPMPX,train_x,blue_star,top_right,2025-08-14_15h33.58.124,HideSeek_v1,2022.2.5,59.94873185891239,
,5,6,2,6,-3,0,31,,train_dim1_1,27,30,,,,2,0,2,0,,,,,,,,,0,0,0,0,0,26,26,26,0,0,0,0,,,,,,,,,,,,,,,,,,,,,,,,,stimuli/alien_stimuli/31.png,,,,,,,,,,,,,,,,,,,,,,,,,,,,,stimuli/alien_stimuli/61.png,61,6,28,,,,,,,30,,,,,,,,2771.5824006000767,2771.5824006000767,2771.5824006000767,2771.5824006000767,2771.5824006000767,up,6.242138200090267,7,0,0,99,0.24,0.16,up,6.152674500015564,,,,,2770.021970300004,2771.5824006000767,0.32,0.08,0.0,0.0,0.08,0.32,0.32,0.32,0.08,2767.0020909000887,2767.0020909000887,2767.0020909000887,2767.0020909000887,2767.0020909000887,2767.0020909000887,2767.0020909000887,2767.0020909000887,2766.9862446099523,3.138112200074829,return,3.0020838000345975,,,,,,,,,,,,,,,,,,,,,,,,,,,,,,,,,TLPMPX,train_x,blue_star,top_right,2025-08-14_15h33.58.124,HideSeek_v1,2022.2.5,59.94873185891239,
,5,6,2,6,-3,0,31,,train_dim1_1,27,30,,,,2,0,2,0,,,,,,,,,0,0,0,0,0,26,26,26,1,0,1,0,,,,,,,,,,,,,,,,,,,,,,,,,,,,,,,,,,,,,,,,,,,,,,,,,,,,,,,,,,,,,,,,30,,,,,,,,2777.8270131000318,2777.8270131000318,2777.8270131000318,2777.8270131000318,2777.8270131000318,up,0.5931597999297082,7,0,0,99,0.24,0.24,up,0.514008600031957,,,,,,,,,,,,,,,,,,,,,,,,,,,,,,,,,,,,,,,,,,,,,,,,,,,,,,,,,,,,TLPMPX,train_x,blue_star,top_right,2025-08-14_15h33.58.124,HideSeek_v1,2022.2.5,59.94873185891239,
,5,6,2,6,-3,0,31,,train_dim1_1,27,30,,,,2,0,2,0,,,,,,,,,0,0,0,0,0,26,26,26,2,0,2,0,,,,,,,,,,,,,,,,,,,,,,,,,,,,,,,,,,,,,,,,,,,,,,,,,,,,,,,,,,,,,,,,30,,,,,,,,2778.4273913000943,2778.4273913000943,2778.4273913000943,2778.4273913000943,2778.4273913000943,return,4.930170300067402,7,0,0,0,0.24,0.24,return,4.851035899948329,-19,-23,0.24,0.24,,,,,,,,,,,,,,,,,,,,,,,,,,,,,,,,,,,,,,,,,,,,,,,,,,,,,,,,TLPMPX,train_x,blue_star,top_right,2025-08-14_15h33.58.124,HideSeek_v1,2022.2.5,59.94873185891239,
,8,6,4,6,-4,0,21,,train_dim1_1,28,30,,,,2,0,2,0,,,,,,,,,0,0,0,0,0,27,27,27,0,0,0,0,,,,,,,,,,,,,,,,,,,,,,,,,stimuli/alien_stimuli/21.png,,,,,,,,,,,,,,,,,,,,,,,,,,,,,stimuli/alien_stimuli/31.png,31,5,29,,,,,,,30,,,,,,,,2798.0795942000113,2798.0795942000113,2798.0795942000113,2798.0795942000113,2798.0795942000113,up,8.644487499957904,7,0,0,99,0.48,0.16,up,8.55273760005366,,,,,2796.510670699994,2798.0795942000113,0,0.08,0.0,0.24,0.08,0,0.12,0,0.08,2784.9415402000304,2784.9415402000304,2784.9415402000304,2784.9415402000304,2784.9415402000304,2784.9415402000304,2784.9415402000304,2784.9415402000304,2784.917712510005,11.695266900002025,return,11.540933300042525,,,,,,,,,,,,,,,,,,,,,,,,,,,,,,,,,TLPMPX,train_x,blue_star,top_right,2025-08-14_15h33.58.124,HideSeek_v1,2022.2.5,59.94873185891239,
,8,6,4,6,-4,0,21,,train_dim1_1,28,30,,,,2,0,2,0,,,,,,,,,0,0,0,0,0,27,27,27,1,0,1,0,,,,,,,,,,,,,,,,,,,,,,,,,,,,,,,,,,,,,,,,,,,,,,,,,,,,,,,,,,,,,,,,30,,,,,,,,2806.7212223000824,2806.7212223000824,2806.7212223000824,2806.7212223000824,2806.7212223000824,up,0.6925896999891847,7,0,0,99,0.48,0.24,up,0.6135931999888271,,,,,,,,,,,,,,,,,,,,,,,,,,,,,,,,,,,,,,,,,,,,,,,,,,,,,,,,,,,,TLPMPX,train_x,blue_star,top_right,2025-08-14_15h33.58.124,HideSeek_v1,2022.2.5,59.94873185891239,
,8,6,4,6,-4,0,21,,train_dim1_1,28,30,,,,2,0,2,0,,,,,,,,,0,0,0,0,0,27,27,27,2,0,2,0,,,,,,,,,,,,,,,,,,,,,,,,,,,,,,,,,,,,,,,,,,,,,,,,,,,,,,,,,,,,,,,,30,,,,,,,,2807.421651700046,2807.421651700046,2807.421651700046,2807.421651700046,2807.421651700046,up,0.5268494000192732,7,0,0,99,0.48,0.32,up,0.43983859999570996,,,,,,,,,,,,,,,,,,,,,,,,,,,,,,,,,,,,,,,,,,,,,,,,,,,,,,,,,,,,TLPMPX,train_x,blue_star,top_right,2025-08-14_15h33.58.124,HideSeek_v1,2022.2.5,59.94873185891239,
,8,6,4,6,-4,0,21,,train_dim1_1,28,30,,,,2,0,2,0,,,,,,,,,0,0,0,0,0,27,27,27,3,0,3,0,,,,,,,,,,,,,,,,,,,,,,,,,,,,,,,,,,,,,,,,,,,,,,,,,,,,,,,,,,,,,,,,30,,,,,,,,2807.955242300057,2807.955242300057,2807.955242300057,2807.955242300057,2807.955242300057,return,0.9435967999743298,7,0,0,0,0.48,0.32,return,0.8639150999952108,-16,-23,0.48,0.32,,,,,,,,,,,,,,,,,,,,,,,,,,,,,,,,,,,,,,,,,,,,,,,,,,,,,,,,TLPMPX,train_x,blue_star,top_right,2025-08-14_15h33.58.124,HideSeek_v1,2022.2.5,59.94873185891239,
,9,5,8,5,-1,0,51,,train_dim1_1,29,30,,,,2,0,2,0,,,,,,,,,0,0,0,0,0,28,28,28,0,0,0,0,,,,,,,,,,,,,,,,,,,,,,,,,stimuli/alien_stimuli/51.png,,,,,,,,,,,,,,,,,,,,,,,,,,,,,stimuli/alien_stimuli/21.png,21,8,30,,,,,,,30,,,,,,,,2829.5459323000396,2829.5459323000396,2829.5459323000396,2829.5459323000396,2829.5459323000396,left,8.67725770000834,7,0,0,99,0.48000000000000004,0,left,8.570213400060311,,,,,2827.9700056000147,2829.5459323000396,0.16,0.08,0.0,0.32,0.08,0.16,0.32,0.16,0.08,2810.487042200053,2810.487042200053,2810.487042200053,2810.487042200053,2810.487042200053,2810.487042200053,2810.487042200053,2810.487042200053,2810.472080540005,17.61687589995563,return,17.46478370006662,,,,,,,,,,,,,,,,,,,,,,,,,,,,,,,,,TLPMPX,train_x,blue_star,top_right,2025-08-14_15h33.58.124,HideSeek_v1,2022.2.5,59.94873185891239,
,9,5,8,5,-1,0,51,,train_dim1_1,29,30,,,,2,0,2,0,,,,,,,,,0,0,0,0,0,28,28,28,1,0,1,0,,,,,,,,,,,,,,,,,,,,,,,,,,,,,,,,,,,,,,,,,,,,,,,,,,,,,,,,,,,,,,,,30,,,,,,,,2838.2124841000186,2838.2124841000186,2838.2124841000186,2838.2124841000186,2838.2124841000186,return,1.1601911999750882,8,0,0,1,0.48000000000000004,0,return,1.0801665000617504,-16,-24,0.48000000000000004,0,,,,,,,,,,,,,,,,,,,,,,,,,,,,,,,,,,,,,,,,,,,,,,,,,,,,,,,,TLPMPX,train_x,blue_star,top_right,2025-08-14_15h33.58.124,HideSeek_v1,2022.2.5,59.94873185891239,
,7,7,2,7,-5,0,11,,train_dim1_1,30,30,,,,2,0,2,0,,,,,,,,,0,0,0,0,0,29,29,29,0,0,0,0,,,,,,,,,,,,,,,,,,,,,,,,,stimuli/alien_stimuli/11.png,,,,,,,,,,,,,,,,,,,,,,,,,,,,,stimuli/alien_stimuli/51.png,51,9,31,,,,,,,30,,,,,,,,2848.3318826000905,2848.3318826000905,2848.3318826000905,2848.3318826000905,2848.3318826000905,left,7.612113600014709,8,0,0,99,0.32,0.16,left,7.5234121000394225,,,,,2846.7689966000617,2848.3318826000905,0.48,0,0.0,0.08,0.0,0.48,0.52,0.48,0,2840.9523453,2840.9523453,2840.9523453,2840.9523453,2840.9523453,2840.9523453,2840.9523453,2840.9523453,2840.9308395099597,5.940761300036684,return,5.785279199946672,,,,,,,,,,,,,,,,,,,,,,,,,,,,,,,,,TLPMPX,train_x,blue_star,top_right,2025-08-14_15h33.58.124,HideSeek_v1,2022.2.5,59.94873185891239,
,7,7,2,7,-5,0,11,,train_dim1_1,30,30,,,,2,0,2,0,,,,,,,,,0,0,0,0,0,29,29,29,1,0,1,0,,,,,,,,,,,,,,,,,,,,,,,,,,,,,,,,,,,,,,,,,,,,,,,,,,,,,,,,,,,,,,,,30,,,,,,,,2855.9456008001,2855.9456008001,2855.9456008001,2855.9456008001,2855.9456008001,left,0.8762817999813706,8,0,0,99,0.24,0.16,left,0.793916399939917,,,,,,,,,,,,,,,,,,,,,,,,,,,,,,,,,,,,,,,,,,,,,,,,,,,,,,,,,,,,TLPMPX,train_x,blue_star,top_right,2025-08-14_15h33.58.124,HideSeek_v1,2022.2.5,59.94873185891239,
,7,7,2,7,-5,0,11,,train_dim1_1,30,30,,,,2,0,2,0,,,,,,,,,0,0,0,0,0,29,29,29,2,0,2,0,,,,,,,,,,,,,,,,,,,,,,,,,,,,,,,,,,,,,,,,,,,,,,,,,,,,,,,,,,,,,,,,30,,,,,,,,2856.828000300098,2856.828000300098,2856.828000300098,2856.828000300098,2856.828000300098,left,0.5932964000385255,8,0,0,99,0.15999999999999998,0.16,left,0.507450700039044,,,,,,,,,,,,,,,,,,,,,,,,,,,,,,,,,,,,,,,,,,,,,,,,,,,,,,,,,,,,TLPMPX,train_x,blue_star,top_right,2025-08-14_15h33.58.124,HideSeek_v1,2022.2.5,59.94873185891239,
,7,7,2,7,-5,0,11,,train_dim1_1,30,30,,,,2,0,2,0,,,,,,,,,0,0,0,0,0,29,29,29,3,0,3,0,,,,,,,,,,,,,,,,,,,,,,,,,,,,,,,,,,,,,,,,,,,,,,,,,,,,,,,,,,,,,,,,30,,,,,,,,2857.4294270999962,2857.4294270999962,2857.4294270999962,2857.4294270999962,2857.4294270999962,left,0.8102137999376282,8,0,0,99,0.07999999999999997,0.16,left,0.7300062999129295,,,,,,,,,,,,,,,,,,,,,,,,,,,,,,,,,,,,,,,,,,,,,,,,,,,,,,,,,,,,TLPMPX,train_x,blue_star,top_right,2025-08-14_15h33.58.124,HideSeek_v1,2022.2.5,59.94873185891239,
,7,7,2,7,-5,0,11,,train_dim1_1,30,30,,,,2,0,2,0,,,,,,,,,0,0,0,0,0,29,29,29,4,0,4,0,,,,,,,,,,,,,,,,,,,,,,,,,,,,,,,,,,,,,,,,,,,,,,,,,,,,,,,,,,,,,,,,30,,,,,,,,2858.2459305000957,2858.2459305000957,2858.2459305000957,2858.2459305000957,2858.2459305000957,left,0.7270035999827087,8,0,0,99,-2.7755575615628914e-17,0.16,left,0.648556699976325,,,,,,,,,,,,,,,,,,,,,,,,,,,,,,,,,,,,,,,,,,,,,,,,,,,,,,,,,,,,TLPMPX,train_x,blue_star,top_right,2025-08-14_15h33.58.124,HideSeek_v1,2022.2.5,59.94873185891239,
,7,7,2,7,-5,0,11,,train_dim1_1,30,30,,,,2,0,2,0,,,,,,,,,0,0,0,0,0,29,29,29,5,0,5,0,,,,,,,,,,,,,,,,,,,,,,,,,,,,,,,,,,,,,,,,,,,,,,,,,,,,,,,,,,,,,,,,30,,,,,,,,2858.9828930000076,2858.9828930000076,2858.9828930000076,2858.9828930000076,2858.9828930000076,return,3.3956804999615997,9,0,0,1,-2.7755575615628914e-17,0.16,return,3.311574700055644,-16,-29,-2.7755575615628914e-17,0.16,,,,,,,,,,,,,,,,,,,,,,,,,,,,,,,,,,,,,,,,,,,,,,,,,,,,,,,,TLPMPX,train_x,blue_star,top_right,2025-08-14_15h33.58.124,HideSeek_v1,2022.2.5,59.94873185891239,
,,,,,,,,,,,30,,,,2,0,2,0,,,,,,,,,,,,,,,,,,,,,,,,,,,,,,,,,,,,,,,,,,,,,,,,,,,,,,,,,,,,,,,,,,,,,,,,,,stimuli/alien_stimuli/11.png,11,7,32,21,0.7,0.375,1,1,1,30,0,conditions/schedules/train_x_first/blue_star_00/top_right/inputTrain_2.1.xlsx,99,1,2,1,0,,,,,,,,,,,1,,,,,,,,,2871.039098600042,2872.5830215000315,0,0.16,0.0,0.4,0.16,0,0.2,0,0.16,2863.9716463000514,2863.9716463000514,2863.9716463000514,2863.9716463000514,2863.9716463000514,2863.9716463000514,2863.9716463000514,2863.9716463000514,2863.949926840002,7.208334299968556,return,7.04145429993514,0,0.9,0,1,9,,,,,,,,,,,,,,,,,,,,,,,,,,,,TLPMPX,train_x,blue_star,top_right,2025-08-14_15h33.58.124,HideSeek_v1,2022.2.5,59.94873185891239,
,,,,,,,,,,,,,,,3,0,3,0,0,0,0,0,,,,,,,,,,,,,,,,,,,,,,,,,,,,,,,conditions/schedules/train_x_first/blue_star_00/top_right/instructions/Slide17.png,conditions/schedules/train_x_first/blue_star_00/top_right/instructions/Audio17.wav,2872.5830215000315,2872.573794290051,17,"[4.122872699983418, 18.84148079995066, 16.845458600088023, 19.499343500006944, 4.385539899929427, 6.087698700022884, 6.271840999950655, 12.390179399983026, 6.451670099981129, 7.543779700063169, 10.721391699975356, 13.444567900034599, 18.008206199971028, 13.194147599977441, 33.56581410008948, 22.347594700055197, 42.57385149993934]","[0.047978000016883016, 0.047473000013269484, 0.0325462999753654, 0.06529929989483207, 0.08268810005392879, 0.08346430002711713, 0.06573300005402416, 0.029995499993674457, 0.05433049995917827, 0.04789619997609407, 0.049222699948586524, 13.444575399975292, 0.08362499997019768, 13.194154299912043, 0.031105900066904724, 22.34760420001112, 42.573861700017005]",0,,,,,,,,,,,,,,,,,,,,,,,,,,,,,,,,,,,,,,,,,,,,,,,,,,,,,,,,,,,,,,,,,,,,,,,,,,,,,,,,,,,,,,,,,,,,,,,,,,,,,,,,,,,,,,,,,,,,,,,,,,,,TLPMPX,train_x,blue_star,top_right,2025-08-14_15h33.58.124,HideSeek_v1,2022.2.5,59.94873185891239,
,,,,,,,,,,,,,,,3,0,3,0,1,0,1,0,,,,,,,,,,,,,,,,,,,,,,,,,,,,,,,conditions/schedules/train_x_first/blue_star_00/top_right/instructions/Slide18.png,conditions/schedules/train_x_first/blue_star_00/top_right/instructions/Audio18.wav,2915.2143271000823,2915.2097302199577,18,"[4.122872699983418, 18.84148079995066, 16.845458600088023, 19.499343500006944, 4.385539899929427, 6.087698700022884, 6.271840999950655, 12.390179399983026, 6.451670099981129, 7.543779700063169, 10.721391699975356, 13.444567900034599, 18.008206199971028, 13.194147599977441, 33.56581410008948, 22.347594700055197, 42.57385149993934, 7.415407199994661]","[0.047978000016883016, 0.047473000013269484, 0.0325462999753654, 0.06529929989483207, 0.08268810005392879, 0.08346430002711713, 0.06573300005402416, 0.029995499993674457, 0.05433049995917827, 0.04789619997609407, 0.049222699948586524, 13.444575399975292, 0.08362499997019768, 13.194154299912043, 0.031105900066904724, 22.34760420001112, 0.030966800055466592, 7.415413500042632]",0,,,,,,,,,,,,,,,,,,,,,,,,,,,,,,,,,,,,,,,,,,,,,,,,,,,,,,,,,,,,,,,,,,,,,,,,,,,,,,,,,,,,,,,,,,,,,,,,,,,,,,,,,,,,,,,,,,,,,,,,,,,,TLPMPX,train_x,blue_star,top_right,2025-08-14_15h33.58.124,HideSeek_v1,2022.2.5,59.94873185891239,
,,,,,,,,,,,,,,,3,0,3,0,2,0,2,0,,,,,,,,,,,,,,,,,,,,,,,,,,,,,,,conditions/schedules/train_x_first/blue_star_00/top_right/instructions/Slide19.png,conditions/schedules/train_x_first/blue_star_00/top_right/instructions/Audio19.wav,2922.6683343000477,2922.6657363900217,19,"[4.122872699983418, 18.84148079995066, 16.845458600088023, 19.499343500006944, 4.385539899929427, 6.087698700022884, 6.271840999950655, 12.390179399983026, 6.451670099981129, 7.543779700063169, 10.721391699975356, 13.444567900034599, 18.008206199971028, 13.194147599977441, 33.56581410008948, 22.347594700055197, 42.57385149993934, 7.415407199994661, 10.903822899912484]","[0.047978000016883016, 0.047473000013269484, 0.0325462999753654, 0.06529929989483207, 0.08268810005392879, 0.08346430002711713, 0.06573300005402416, 0.029995499993674457, 0.05433049995917827, 0.04789619997609407, 0.049222699948586524, 13.444575399975292, 0.08362499997019768, 13.194154299912043, 0.031105900066904724, 22.34760420001112, 0.030966800055466592, 0.030944099999032915, 10.90382949996274]",0,,,,,,,,,,,,,,,,,,,,,,,,,,,,,,,,,,,,,,,,,,,,,,,,,,,,,,,,,,,,,,,,,,,,,,,,,,,,,,,,,,,,,,,,,,,,,,,,,,,,,,,,,,,,,,,,,,,,,,,,,,,,TLPMPX,train_x,blue_star,top_right,2025-08-14_15h33.58.124,HideSeek_v1,2022.2.5,59.94873185891239,
,,,,,,,,,,,,,,,3,0,3,0,3,0,3,0,,,,,,,,,,,,,,,,,,,,,,,,,,,,,,,conditions/schedules/train_x_first/blue_star_00/top_right/instructions/Slide20.png,conditions/schedules/train_x_first/blue_star_00/top_right/instructions/Audio20.wav,2933.641673700069,2933.641501849983,20,"[4.122872699983418, 18.84148079995066, 16.845458600088023, 19.499343500006944, 4.385539899929427, 6.087698700022884, 6.271840999950655, 12.390179399983026, 6.451670099981129, 7.543779700063169, 10.721391699975356, 13.444567900034599, 18.008206199971028, 13.194147599977441, 33.56581410008948, 22.347594700055197, 42.57385149993934, 7.415407199994661, 10.903822899912484, 15.02628150000237]","[0.047978000016883016, 0.047473000013269484, 0.0325462999753654, 0.06529929989483207, 0.08268810005392879, 0.08346430002711713, 0.06573300005402416, 0.029995499993674457, 0.05433049995917827, 0.04789619997609407, 0.049222699948586524, 13.444575399975292, 0.08362499997019768, 13.194154299912043, 0.031105900066904724, 22.34760420001112, 0.030966800055466592, 0.030944099999032915, 0.064609199995175, 15.026289099943824]",0,,,,,,,,,,,,,,,,,,,,,,,,,,,,,,,,,,,,,,,,,,,,,,,,,,,,,,,,,,,,,,,,,,,,,,,,,,,,,,,,,,,,,,,,,,,,,,,,,,,,,,,,,,,,,,,,,,,,,,,,,,,,TLPMPX,train_x,blue_star,top_right,2025-08-14_15h33.58.124,HideSeek_v1,2022.2.5,59.94873185891239,
1,5,8,5,3,0,-5,66,2,instr_dim1_2,,,,,,3,0,3,0,,,,,0,0,0,0,,,,,,,,,,,,,,,,,,,,,,,,,,,,,,,,,,,,,stimuli/alien_stimuli/66.png,conditions/schedules/train_x_first/blue_star_00/top_right/inputInstr_2.xlsx,stimuli/alien_stimuli/66.png,2948.7617417,2948.7617417,2948.7617417,2948.7617417,2948.7538475800075,return,14.221870600013062,"[-0.16, -0.08, 0, 0.08, 0.16, 0.24, 0.32, 0.4, 0.48, 0.56]","[-0.4, -0.32, -0.24, -0.16, -0.08, 0, 0.08, 0.16, 0.24, 0.32]",3,8,5,5,0.4,0.0,2963.1528718000045,2963.1528718000045,2963.1528718000045,2963.1528718000045,2963.1528718000045,2963.1528718000045,2963.1528718000045,2963.1494906699986,9.525465100072324,return,9.369770199991763,stimuli/alien_stimuli/66.png,66,5,1,,,,,,,,,,,,,,,,,,,,,,,,,,,,,,,,,,,,,,,,,,,,,,,,,,,,,,,,,,,,,,,,,,,,,,,,,,,,,,,,,,,,,,,,,TLPMPX,train_x,blue_star,top_right,2025-08-14_15h33.58.124,HideSeek_v1,2022.2.5,59.94873185891239,
,,,,,,,,,,,30,,,,3,0,3,0,,,,,,,,,,,,,,,,,,,,,,,,,,,,,,,,,,,,,,,,,,,,,,,,,,,,,,,,,,,,,,,,,,,,,,,,,,,,,,21,0.7,0.375,1,99,2,30,0,conditions/schedules/train_x_first/blue_star_00/top_right/inputTrain_2.1.xlsx,99,1,2,1,0,,,,,,,,,,,,,,,,,,,,,,,,,,,,,,,,,,,,,,,,,,,,,,,,,,,,,,,,,,,,,,,,,,,,,,,,,,,TLPMPX,train_x,blue_star,top_right,2025-08-14_15h33.58.124,HideSeek_v1,2022.2.5,59.94873185891239,
,,,,,,,,,,,,,,,4,0,4,0,0,0,0,0,,,,,,,,,,,,,,,,,,,,,,,,,,,,,,,conditions/schedules/train_x_first/blue_star_00/top_right/instructions/Slide21.png,conditions/schedules/train_x_first/blue_star_00/top_right/instructions/Audio21.wav,2972.6940205000574,2972.6904035999905,21,"[4.122872699983418, 18.84148079995066, 16.845458600088023, 19.499343500006944, 4.385539899929427, 6.087698700022884, 6.271840999950655, 12.390179399983026, 6.451670099981129, 7.543779700063169, 10.721391699975356, 13.444567900034599, 18.008206199971028, 13.194147599977441, 33.56581410008948, 22.347594700055197, 42.57385149993934, 7.415407199994661, 10.903822899912484, 15.02628150000237, 16.891363400034606]","[0.047978000016883016, 0.047473000013269484, 0.0325462999753654, 0.06529929989483207, 0.08268810005392879, 0.08346430002711713, 0.06573300005402416, 0.029995499993674457, 0.05433049995917827, 0.04789619997609407, 0.049222699948586524, 13.444575399975292, 0.08362499997019768, 13.194154299912043, 0.031105900066904724, 22.34760420001112, 0.030966800055466592, 0.030944099999032915, 0.064609199995175, 15.026289099943824, 16.89137009996921]",0,,,,,,,,,,,,,,,,,,,,,,,,,,,,,,,,,,,,,,,,,,,,,,,,,,,,,,,,,,,,,,,,,,,,,,,,,,,,,,,,,,,,,,,,,,,,,,,,,,,,,,,,,,,,,,,,,,,,,,,,,,,,TLPMPX,train_x,blue_star,top_right,2025-08-14_15h33.58.124,HideSeek_v1,2022.2.5,59.94873185891239,
2,7,8,7,8,0,0,61,2,instr_dim1_2,,,,,,4,0,4,0,,,,,0,0,0,0,,,,,,,,,,,,,,,,,,,,,,,,,,,,,,,,,,,,,stimuli/alien_stimuli/61.png,conditions/schedules/train_x_first/blue_star_00/top_right/inputInstr_2.xlsx,stimuli/alien_stimuli/61.png,2989.6848174000625,2989.6848174000625,2989.6848174000625,2989.6848174000625,2989.6881953099746,return,6.678020599996671,"[-0.16, -0.08, 0, 0.08, 0.16, 0.24, 0.32, 0.4, 0.48, 0.56]","[-0.4, -0.32, -0.24, -0.16, -0.08, 0, 0.08, 0.16, 0.24, 0.32]",8,8,7,7,0.0,0.0,2996.514617900015,2996.514617900015,2996.514617900015,2996.514617900015,2996.514617900015,2996.514617900015,2996.514617900015,2996.5101663400187,7.257293700007722,return,7.116466199979186,stimuli/alien_stimuli/61.png,61,7,2,,,,,,,,,,,,,,,,,,,,,,,,,,,,,,,,,,,,,,,,,,,,,,,,,,,,,,,,,,,,,,,,,,,,,,,,,,,,,,,,,,,,,,,,,TLPMPX,train_x,blue_star,top_right,2025-08-14_15h33.58.124,HideSeek_v1,2022.2.5,59.94873185891239,
,,,,,,,,,,,30,,,,4,0,4,0,,,,,,,,,,,,,,,,,,,,,,,,,,,,,,,,,,,,,,,,,,,,,,,,,,,,,,,,,,,,,,,,,,,,,,,,,,,,,,21,0.7,0.375,1,99,2,30,0,conditions/schedules/train_x_first/blue_star_00/top_right/inputTrain_2.1.xlsx,99,1,2,1,0,,,,,,,,,,,,,,,,,,,,,,,,,,,,,,,,,,,,,,,,,,,,,,,,,,,,,,,,,,,,,,,,,,,,,,,,,,,TLPMPX,train_x,blue_star,top_right,2025-08-14_15h33.58.124,HideSeek_v1,2022.2.5,59.94873185891239,
,,,,,,,,,,,,,,,5,0,5,0,0,0,0,0,,,,,,,,,,,,,,,,,,,,,,,,,,,,,,,conditions/schedules/train_x_first/blue_star_00/top_right/instructions/Slide22.png,conditions/schedules/train_x_first/blue_star_00/top_right/instructions/Audio22.wav,3003.826219700044,3003.816244229977,22,"[4.122872699983418, 18.84148079995066, 16.845458600088023, 19.499343500006944, 4.385539899929427, 6.087698700022884, 6.271840999950655, 12.390179399983026, 6.451670099981129, 7.543779700063169, 10.721391699975356, 13.444567900034599, 18.008206199971028, 13.194147599977441, 33.56581410008948, 22.347594700055197, 42.57385149993934, 7.415407199994661, 10.903822899912484, 15.02628150000237, 16.891363400034606, 43.29012519994285]","[0.047978000016883016, 0.047473000013269484, 0.0325462999753654, 0.06529929989483207, 0.08268810005392879, 0.08346430002711713, 0.06573300005402416, 0.029995499993674457, 0.05433049995917827, 0.04789619997609407, 0.049222699948586524, 13.444575399975292, 0.08362499997019768, 13.194154299912043, 0.031105900066904724, 22.34760420001112, 0.030966800055466592, 0.030944099999032915, 0.064609199995175, 15.026289099943824, 16.89137009996921, 43.2901325999992]",0,,,,,,,,,,,,,,,,,,,,,,,,,,,,,,,,,,,,,,,,,,,,,,,,,,,,,,,,,,,,,,,,,,,,,,,,,,,,,,,,,,,,,,,,,,,,,,,,,,,,,,,,,,,,,,,,,,,,,,,,,,,,TLPMPX,train_x,blue_star,top_right,2025-08-14_15h33.58.124,HideSeek_v1,2022.2.5,59.94873185891239,
,5,5,5,1,0,-4,65,,train_dim1_2,1,30,,,,5,0,5,0,,,,,,,,,0,0,0,0,0,0,0,0,0,0,0,0,,,,,,,,,,,,,,,,,,,,,,,,,stimuli/alien_stimuli/65.png,,,,,,,,,,,,,,,,,,,,,,,,,,,,,,,,,,,,,,,30,,,,,,,,3047.2260016000364,3047.2260016000364,3047.2260016000364,3047.2260016000364,3047.2260016000364,left,10.74894000007771,0,0,0,99,0.15999999999999998,0,left,10.64846239995677,,,,,,,,,,,,,,,,,,,,,,,,,,,,,,,,,,,,,,,,,,,,,,,,,,,,,,,,,,,,TLPMPX,train_x,blue_star,top_right,2025-08-14_15h33.58.124,HideSeek_v1,2022.2.5,59.94873185891239,
,5,5,5,1,0,-4,65,,train_dim1_2,1,30,,,,5,0,5,0,,,,,,,,,0,0,0,0,0,0,0,0,1,0,1,0,,,,,,,,,,,,,,,,,,,,,,,,,,,,,,,,,,,,,,,,,,,,,,,,,,,,,,,,,,,,,,,,30,,,,,,,,3057.974086800008,3057.974086800008,3057.974086800008,3057.974086800008,3057.974086800008,right,5.697340599959716,0,0,0,99,0.24,0,right,5.593568700016476,,,,,,,,,,,,,,,,,,,,,,,,,,,,,,,,,,,,,,,,,,,,,,,,,,,,,,,,,,,,TLPMPX,train_x,blue_star,top_right,2025-08-14_15h33.58.124,HideSeek_v1,2022.2.5,59.94873185891239,
,5,5,5,1,0,-4,65,,train_dim1_2,1,30,,,,5,0,5,0,,,,,,,,,0,0,0,0,0,0,0,0,2,0,2,0,,,,,,,,,,,,,,,,,,,,,,,,,,,,,,,,,,,,,,,,,,,,,,,,,,,,,,,,,,,,,,,,30,,,,,,,,3063.6628675000975,3063.6628675000975,3063.6628675000975,3063.6628675000975,3063.6628675000975,return,2.611829899949953,0,0,0,0,0.24,0,return,2.5382279000477865,-16,-29,0.24,0,,,,,,,,,,,,,,,,,,,,,,,,,,,,,,,,,,,,,,,,,,,,,,,,,,,,,,,,TLPMPX,train_x,blue_star,top_right,2025-08-14_15h33.58.124,HideSeek_v1,2022.2.5,59.94873185891239,
