trialInstr,x_fixStart,y_fixStart,x_corrSteps,y_corrSteps,x_nrSteps,y_nrSteps,alienID,trialLength,version,trialTrain,praclen,testlen,trial_label,break_on_off,beforeExpLoop.thisRepN,beforeExpLoop.thisTrialN,beforeExpLoop.thisN,beforeExpLoop.thisIndex,mini_instr_trials.thisRepN,mini_instr_trials.thisTrialN,mini_instr_trials.thisN,mini_instr_trials.thisIndex,instrLoop.thisRepN,instrLoop.thisTrialN,instrLoop.thisN,instrLoop.thisIndex,repeat_prac.thisRepN,repeat_prac.thisTrialN,repeat_prac.thisN,repeat_prac.thisIndex,trainLoop.thisRepN,trainLoop.thisTrialN,trainLoop.thisN,trainLoop.thisIndex,moveLoop_train.thisRepN,moveLoop_train.thisTrialN,moveLoop_train.thisN,moveLoop_train.thisIndex,experiment.thisRepN,experiment.thisTrialN,experiment.thisN,experiment.thisIndex,moveLoop_test.thisRepN,moveLoop_test.thisTrialN,moveLoop_test.thisN,moveLoop_test.thisIndex,mini_instr2_trials.thisRepN,mini_instr2_trials.thisTrialN,mini_instr2_trials.thisN,mini_instr2_trials.thisIndex,start_all_time,url,slideStim,audioStim,slides.started,sounds.started,nextButton.numClicks,nextButton.timesOn,nextButton.timesOff,prev_but.numClicks,prev_but.timesOn,prev_but.timesOff,alienStim,instrFile,alienStim_instr,gridImage_instr.started,startPos_3.started,key_instr.started,alienImage_3.started,sounds_1.started,key_instr.keys,key_instr.rt,all_x,all_y,FBy_corrSteps,FBy_fixStart,FBx_corrSteps,FBx_fixStart,FBy_pathSize_check,FBx_pathSize_check,gridImage_9.started,alienImageFB_3.started,startPosFB_3.started,keyFB_3.started,pathLine_ydir_2.started,pathLine_xdir_2.started,alienFace_3.started,sounds_2.started,RTFB_instr,keyFB_3.keys,keyFB_3.rt,draw_alienStim,draw_alienID,test_x,nrepcount,perfthres,percthres,earlierperf,earlystop,nextPrac,fileidx,praclen,saveACC_train,pracFile,nextPrac_train,addNrep,fileidx_endr,repExp,showearly,gridImage_4.started,startPos.started,movePos.started,key_resp.started,alienImage.started,buttonPress_train,RTchoice_train,cumAcctrain,aCorr,saveACC_choice,corrAns,x_movePos_end,y_movePos_end,key_resp.keys,key_resp.rt,wLy_dir,wLx_dir,x_movePos,y_movePos,text_2.started,text_2.stopped,aft_x_corrPos,aft_y_corrPos,y_pathSize_check,x_pathSize_check,y_pathdirY,x_pathdirY,x_pathdirX,x_corrPos,y_corrPos,gridImage_6.started,alienImageFB_2.started,startPosFB_2.started,movePosFB_2.started,keyFB_2.started,pathLine_xdir.started,pathLine_ydir.started,alienFace.started,sounds_4.started,RT_FBtrain,keyFB_2.keys,keyFB_2.rt,saveACC_pre,ACC,within_saveACC_train,earlystop_wloop,cumAcctrain_check,gridImage_3.started,alienImage_test.started,startPos_test.started,movePos_test.started,key_resp_test.started,wLy_dir_test,wLx_dir_test,buttonPress_test,RTchoice_test,cumAcctest,corrAns_test,key_resp_test.keys,key_resp_test.rt,text_3.started,text_3.stopped,total_time,end_all_time,key_resp_3.keys,slides_2.started,sounds_3.started,nextButton_2.numClicks,nextButton_2.timesOn,nextButton_2.timesOff,prev_but_2.numClicks,prev_but_2.timesOn,prev_but_2.timesOff,bye.started,participant,train_first,00_coordinate,starting corner,date,expName,psychopyVersion,frameRate,
,,,,,,,,,,,,,,,0,0,0,0,0,0,0,0,,,,,,,,,,,,,,,,,,,,,,,,,,,,,start_all_time,testround,conditions/schedules/train_x_first/blue_star_00/top_right/instructions/Slide1.png,conditions/schedules/train_x_first/blue_star_00/top_right/instructions/Audio1.wav,879.7554064998403,879.6930666981731,1,[4.330714700045064],[4.330723999999464],0,,,,,,,,,,,,,,,,,,,,,,,,,,,,,,,,,,,,,,,,,,,,,,,,,,,,,,,,,,,,,,,,,,,,,,,,,,,,,,,,,,,,,,,,,,,,,,,,,,,,,,,,,,,,,,,,,,,,,,,,,,,,TZPARL,train_x,blue_star,top_right,2025-05-28_15h04.37.191,HideSeek_v1,2022.2.5,59.869341102956334,
,,,,,,,,,,,,,,,0,0,0,0,1,0,1,0,,,,,,,,,,,,,,,,,,,,,,,,,,,,,,,conditions/schedules/train_x_first/blue_star_00/top_right/instructions/Slide2.png,conditions/schedules/train_x_first/blue_star_00/top_right/instructions/Audio2.wav,884.1037300999742,884.101896199747,2,"[4.330714700045064, 18.194250599946827]","[4.330723999999464, 18.194257900118828]",0,,,,,,,,,,,,,,,,,,,,,,,,,,,,,,,,,,,,,,,,,,,,,,,,,,,,,,,,,,,,,,,,,,,,,,,,,,,,,,,,,,,,,,,,,,,,,,,,,,,,,,,,,,,,,,,,,,,,,,,,,,,,TZPARL,train_x,blue_star,top_right,2025-05-28_15h04.37.191,HideSeek_v1,2022.2.5,59.869341102956334,
,,,,,,,,,,,,,,,0,0,0,0,2,0,2,0,,,,,,,,,,,,,,,,,,,,,,,,,,,,,,,conditions/schedules/train_x_first/blue_star_00/top_right/instructions/Slide3.png,conditions/schedules/train_x_first/blue_star_00/top_right/instructions/Audio3.wav,902.3714937998448,902.3665511998115,3,"[4.330714700045064, 18.194250599946827, 16.556821199832484]","[4.330723999999464, 0.00022259983234107494, 16.55683459993452]",0,,,,,,,,,,,,,,,,,,,,,,,,,,,,,,,,,,,,,,,,,,,,,,,,,,,,,,,,,,,,,,,,,,,,,,,,,,,,,,,,,,,,,,,,,,,,,,,,,,,,,,,,,,,,,,,,,,,,,,,,,,,,TZPARL,train_x,blue_star,top_right,2025-05-28_15h04.37.191,HideSeek_v1,2022.2.5,59.869341102956334,
,,,,,,,,,,,,,,,0,0,0,0,3,0,3,0,,,,,,,,,,,,,,,,,,,,,,,,,,,,,,,conditions/schedules/train_x_first/blue_star_00/top_right/instructions/Slide4.png,conditions/schedules/train_x_first/blue_star_00/top_right/instructions/Audio4.wav,919.0028030998074,918.9969465999166,4,"[4.330714700045064, 18.194250599946827, 16.556821199832484, 19.30833389982581]","[4.330723999999464, 0.00022259983234107494, 0.014467299915850163, 19.30834069987759]",0,,,,,,,,,,,,,,,,,,,,,,,,,,,,,,,,,,,,,,,,,,,,,,,,,,,,,,,,,,,,,,,,,,,,,,,,,,,,,,,,,,,,,,,,,,,,,,,,,,,,,,,,,,,,,,,,,,,,,,,,,,,,TZPARL,train_x,blue_star,top_right,2025-05-28_15h04.37.191,HideSeek_v1,2022.2.5,59.869341102956334,
,,,,,,,,,,,,,,,0,0,0,0,4,0,4,0,,,,,,,,,,,,,,,,,,,,,,,,,,,,,,,conditions/schedules/train_x_first/blue_star_00/top_right/instructions/Slide5.png,conditions/schedules/train_x_first/blue_star_00/top_right/instructions/Audio5.wav,938.3653192999773,938.3630205999128,5,"[4.330714700045064, 18.194250599946827, 16.556821199832484, 19.30833389982581, 4.498993299901485]","[4.330723999999464, 0.00022259983234107494, 0.014467299915850163, 0.03052069991827011, 4.499002299970016]",0,,,,,,,,,,,,,,,,,,,,,,,,,,,,,,,,,,,,,,,,,,,,,,,,,,,,,,,,,,,,,,,,,,,,,,,,,,,,,,,,,,,,,,,,,,,,,,,,,,,,,,,,,,,,,,,,,,,,,,,,,,,,TZPARL,train_x,blue_star,top_right,2025-05-28_15h04.37.191,HideSeek_v1,2022.2.5,59.869341102956334,
,,,,,,,,,,,,,,,0,0,0,0,5,0,5,0,,,,,,,,,,,,,,,,,,,,,,,,,,,,,,,conditions/schedules/train_x_first/blue_star_00/top_right/instructions/Slide6.png,conditions/schedules/train_x_first/blue_star_00/top_right/instructions/Audio6.wav,942.9154806998558,942.9169322998263,6,"[4.330714700045064, 18.194250599946827, 16.556821199832484, 19.30833389982581, 4.498993299901485, 4.669559200061485]","[4.330723999999464, 0.00022259983234107494, 0.014467299915850163, 0.03052069991827011, 0.014237500028684735, 4.669565600110218]",0,,,,,,,,,,,,,,,,,,,,,,,,,,,,,,,,,,,,,,,,,,,,,,,,,,,,,,,,,,,,,,,,,,,,,,,,,,,,,,,,,,,,,,,,,,,,,,,,,,,,,,,,,,,,,,,,,,,,,,,,,,,,TZPARL,train_x,blue_star,top_right,2025-05-28_15h04.37.191,HideSeek_v1,2022.2.5,59.869341102956334,
,,,,,,,,,,,,,,,0,0,0,0,6,0,6,0,,,,,,,,,,,,,,,,,,,,,,,,,,,,,,,conditions/schedules/train_x_first/blue_star_00/top_right/instructions/Slide7.png,conditions/schedules/train_x_first/blue_star_00/top_right/instructions/Audio7.wav,947.6357716999482,947.6373721997719,7,"[4.330714700045064, 18.194250599946827, 16.556821199832484, 19.30833389982581, 4.498993299901485, 4.669559200061485, 5.603828199906275]","[4.330723999999464, 0.00022259983234107494, 0.014467299915850163, 0.03052069991827011, 0.014237500028684735, 0.048967399867251515, 5.603834699839354]",0,,,,,,,,,,,,,,,,,,,,,,,,,,,,,,,,,,,,,,,,,,,,,,,,,,,,,,,,,,,,,,,,,,,,,,,,,,,,,,,,,,,,,,,,,,,,,,,,,,,,,,,,,,,,,,,,,,,,,,,,,,,,TZPARL,train_x,blue_star,top_right,2025-05-28_15h04.37.191,HideSeek_v1,2022.2.5,59.869341102956334,
,,,,,,,,,,,,,,,0,0,0,0,7,0,7,0,,,,,,,,,,,,,,,,,,,,,,,,,,,,,,,conditions/schedules/train_x_first/blue_star_00/top_right/instructions/Slide8.png,conditions/schedules/train_x_first/blue_star_00/top_right/instructions/Audio8.wav,953.2988595999777,953.291995199956,8,"[4.330714700045064, 18.194250599946827, 16.556821199832484, 19.30833389982581, 4.498993299901485, 4.669559200061485, 5.603828199906275, 11.71708850003779]","[4.330723999999464, 0.00022259983234107494, 0.014467299915850163, 0.03052069991827011, 0.014237500028684735, 0.048967399867251515, 0.00022990000434219837, 11.717095700092614]",0,,,,,,,,,,,,,,,,,,,,,,,,,,,,,,,,,,,,,,,,,,,,,,,,,,,,,,,,,,,,,,,,,,,,,,,,,,,,,,,,,,,,,,,,,,,,,,,,,,,,,,,,,,,,,,,,,,,,,,,,,,,,TZPARL,train_x,blue_star,top_right,2025-05-28_15h04.37.191,HideSeek_v1,2022.2.5,59.869341102956334,
,,,,,,,,,,,,,,,0,0,0,0,8,0,8,0,,,,,,,,,,,,,,,,,,,,,,,,,,,,,,,conditions/schedules/train_x_first/blue_star_00/top_right/instructions/Slide9.png,conditions/schedules/train_x_first/blue_star_00/top_right/instructions/Audio9.wav,965.0880550998263,965.085285399924,9,"[4.330714700045064, 18.194250599946827, 16.556821199832484, 19.30833389982581, 4.498993299901485, 4.669559200061485, 5.603828199906275, 11.71708850003779, 6.066803599940613]","[4.330723999999464, 0.00022259983234107494, 0.014467299915850163, 0.03052069991827011, 0.014237500028684735, 0.048967399867251515, 0.00022990000434219837, 0.00020070001482963562, 6.0668106998782605]",0,,,,,,,,,,,,,,,,,,,,,,,,,,,,,,,,,,,,,,,,,,,,,,,,,,,,,,,,,,,,,,,,,,,,,,,,,,,,,,,,,,,,,,,,,,,,,,,,,,,,,,,,,,,,,,,,,,,,,,,,,,,,TZPARL,train_x,blue_star,top_right,2025-05-28_15h04.37.191,HideSeek_v1,2022.2.5,59.869341102956334,
,,,,,,,,,,,,,,,0,0,0,0,9,0,9,0,,,,,,,,,,,,,,,,,,,,,,,,,,,,,,,conditions/schedules/train_x_first/blue_star_00/top_right/instructions/Slide10.png,conditions/schedules/train_x_first/blue_star_00/top_right/instructions/Audio10.wav,971.1930924998596,971.1902491998161,10,"[4.330714700045064, 18.194250599946827, 16.556821199832484, 19.30833389982581, 4.498993299901485, 4.669559200061485, 5.603828199906275, 11.71708850003779, 6.066803599940613, 7.701264299917966]","[4.330723999999464, 0.00022259983234107494, 0.014467299915850163, 0.03052069991827011, 0.014237500028684735, 0.048967399867251515, 0.00022990000434219837, 0.00020070001482963562, 0.04753710003569722, 7.701271299971268]",0,,,,,,,,,,,,,,,,,,,,,,,,,,,,,,,,,,,,,,,,,,,,,,,,,,,,,,,,,,,,,,,,,,,,,,,,,,,,,,,,,,,,,,,,,,,,,,,,,,,,,,,,,,,,,,,,,,,,,,,,,,,,TZPARL,train_x,blue_star,top_right,2025-05-28_15h04.37.191,HideSeek_v1,2022.2.5,59.869341102956334,
,,,,,,,,,,,,,,,0,0,0,0,10,0,10,0,,,,,,,,,,,,,,,,,,,,,,,,,,,,,,,conditions/schedules/train_x_first/blue_star_00/top_right/instructions/Slide11.png,conditions/schedules/train_x_first/blue_star_00/top_right/instructions/Audio11.wav,978.9648918998428,978.9633349998621,11,"[4.330714700045064, 18.194250599946827, 16.556821199832484, 19.30833389982581, 4.498993299901485, 4.669559200061485, 5.603828199906275, 11.71708850003779, 6.066803599940613, 7.701264299917966, 9.771471600048244]","[4.330723999999464, 0.00022259983234107494, 0.014467299915850163, 0.03052069991827011, 0.014237500028684735, 0.048967399867251515, 0.00022990000434219837, 0.00020070001482963562, 0.04753710003569722, 0.00021430011838674545, 9.771478299982846]",0,,,,,,,,,,,,,,,,,,,,,,,,,,,,,,,,,,,,,,,,,,,,,,,,,,,,,,,,,,,,,,,,,,,,,,,,,,,,,,,,,,,,,,,,,,,,,,,,,,,,,,,,,,,,,,,,,,,,,,,,,,,,TZPARL,train_x,blue_star,top_right,2025-05-28_15h04.37.191,HideSeek_v1,2022.2.5,59.869341102956334,
,,,,,,,,,,,,,,,0,0,0,0,11,0,11,0,,,,,,,,,,,,,,,,,,,,,,,,,,,,,,,conditions/schedules/train_x_first/blue_star_00/top_right/instructions/Slide12.png,conditions/schedules/train_x_first/blue_star_00/top_right/instructions/Audio12.wav,988.7945642999839,988.7882495998405,12,"[4.330714700045064, 18.194250599946827, 16.556821199832484, 19.30833389982581, 4.498993299901485, 4.669559200061485, 5.603828199906275, 11.71708850003779, 6.066803599940613, 7.701264299917966, 9.771471600048244, 12.551795599982142]","[4.330723999999464, 0.00022259983234107494, 0.014467299915850163, 0.03052069991827011, 0.014237500028684735, 0.048967399867251515, 0.00022990000434219837, 0.00020070001482963562, 0.04753710003569722, 0.00021430011838674545, 0.030704899923875928, 12.551802400033921]",0,,,,,,,,,,,,,,,,,,,,,,,,,,,,,,,,,,,,,,,,,,,,,,,,,,,,,,,,,,,,,,,,,,,,,,,,,,,,,,,,,,,,,,,,,,,,,,,,,,,,,,,,,,,,,,,,,,,,,,,,,,,,TZPARL,train_x,blue_star,top_right,2025-05-28_15h04.37.191,HideSeek_v1,2022.2.5,59.869341102956334,
1,9,5,4,5,-5,0,11,2,instr_dim1_1,,,,,,0,0,0,0,,,,,0,0,0,0,,,,,,,,,,,,,,,,,,,,,,,,,,,,,,,,,,,,,stimuli/alien_stimuli/11.png,conditions/schedules/train_x_first/blue_star_00/top_right/inputInstr_1.xlsx,stimuli/alien_stimuli/11.png,1001.4528234999161,1001.4528234999161,1001.4528234999161,1001.4528234999161,1001.4488211997552,return,8.688439900055528,"[-0.16, -0.08, 0, 0.08, 0.16, 0.24, 0.32, 0.4, 0.48, 0.56]","[-0.4, -0.32, -0.24, -0.16, -0.08, 0, 0.08, 0.16, 0.24, 0.32]",5,5,4,9,0.0,0.4,1010.3114263999742,1010.3114263999742,1010.3114263999742,1010.3114263999742,1010.3114263999742,1010.3114263999742,1010.3114263999742,1010.3058799998602,9.141785599989817,return,8.974711900111288,stimuli/alien_stimuli/11.png,11,9,1,,,,,,,,,,,,,,,,,,,,,,,,,,,,,,,,,,,,,,,,,,,,,,,,,,,,,,,,,,,,,,,,,,,,,,,,,,,,,,,,,,,,,,,,,TZPARL,train_x,blue_star,top_right,2025-05-28_15h04.37.191,HideSeek_v1,2022.2.5,59.869341102956334,
,,,,,,,,,,,30,,,,0,0,0,0,,,,,,,,,,,,,,,,,,,,,,,,,,,,,,,,,,,,,,,,,,,,,,,,,,,,,,,,,,,,,,,,,,,,,,,,,,,,,,21,0.7,0,0,99,1,30,0,conditions/schedules/train_x_first/blue_star_00/top_right/inputTrain_1.1.xlsx,99,1,1,1,0,,,,,,,,,,,,,,,,,,,,,,,,,,,,,,,,,,,,,,,,,,,,,,,,,,,,,,,,,,,,,,,,,,,,,,,,,,,TZPARL,train_x,blue_star,top_right,2025-05-28_15h04.37.191,HideSeek_v1,2022.2.5,59.869341102956334,
,,,,,,,,,,,,,,,1,0,1,0,0,0,0,0,,,,,,,,,,,,,,,,,,,,,,,,,,,,,,,conditions/schedules/train_x_first/blue_star_00/top_right/instructions/Slide13.png,conditions/schedules/train_x_first/blue_star_00/top_right/instructions/Audio13.wav,1019.4452184999827,1019.4468214998254,13,"[4.330714700045064, 18.194250599946827, 16.556821199832484, 19.30833389982581, 4.498993299901485, 4.669559200061485, 5.603828199906275, 11.71708850003779, 6.066803599940613, 7.701264299917966, 9.771471600048244, 12.551795599982142, 17.897330899955705]","[4.330723999999464, 0.00022259983234107494, 0.014467299915850163, 0.03052069991827011, 0.014237500028684735, 0.048967399867251515, 0.00022990000434219837, 0.00020070001482963562, 0.04753710003569722, 0.00021430011838674545, 0.030704899923875928, 12.551802400033921, 17.89733750000596]",0,,,,,,,,,,,,,,,,,,,,,,,,,,,,,,,,,,,,,,,,,,,,,,,,,,,,,,,,,,,,,,,,,,,,,,,,,,,,,,,,,,,,,,,,,,,,,,,,,,,,,,,,,,,,,,,,,,,,,,,,,,,,TZPARL,train_x,blue_star,top_right,2025-05-28_15h04.37.191,HideSeek_v1,2022.2.5,59.869341102956334,
,,,,,,,,,,,,,,,1,0,1,0,1,0,1,0,,,,,,,,,,,,,,,,,,,,,,,,,,,,,,,conditions/schedules/train_x_first/blue_star_00/top_right/instructions/Slide14.png,conditions/schedules/train_x_first/blue_star_00/top_right/instructions/Audio14.wav,1037.413196099922,1037.4120373999467,14,"[4.330714700045064, 18.194250599946827, 16.556821199832484, 19.30833389982581, 4.498993299901485, 4.669559200061485, 5.603828199906275, 11.71708850003779, 6.066803599940613, 7.701264299917966, 9.771471600048244, 12.551795599982142, 17.897330899955705, 12.957086000125855]","[4.330723999999464, 0.00022259983234107494, 0.014467299915850163, 0.03052069991827011, 0.014237500028684735, 0.048967399867251515, 0.00022990000434219837, 0.00020070001482963562, 0.04753710003569722, 0.00021430011838674545, 0.030704899923875928, 12.551802400033921, 0.030448400182649493, 12.957093300065026]",0,,,,,,,,,,,,,,,,,,,,,,,,,,,,,,,,,,,,,,,,,,,,,,,,,,,,,,,,,,,,,,,,,,,,,,,,,,,,,,,,,,,,,,,,,,,,,,,,,,,,,,,,,,,,,,,,,,,,,,,,,,,,TZPARL,train_x,blue_star,top_right,2025-05-28_15h04.37.191,HideSeek_v1,2022.2.5,59.869341102956334,
2,8,7,8,7,0,0,61,2,instr_dim1_1,,,,,,1,0,1,0,,,,,0,0,0,0,,,,,,,,,,,,,,,,,,,,,,,,,,,,,,,,,,,,,stimuli/alien_stimuli/61.png,conditions/schedules/train_x_first/blue_star_00/top_right/inputInstr_1.xlsx,stimuli/alien_stimuli/61.png,1050.4712181999348,1050.4712181999348,1050.4712181999348,1050.4712181999348,1050.4560647999401,return,6.378678700188175,"[-0.16, -0.08, 0, 0.08, 0.16, 0.24, 0.32, 0.4, 0.48, 0.56]","[-0.4, -0.32, -0.24, -0.16, -0.08, 0, 0.08, 0.16, 0.24, 0.32]",7,7,8,8,0.0,0.0,1057.0204144997988,1057.0204144997988,1057.0204144997988,1057.0204144997988,1057.0204144997988,1057.0204144997988,1057.0204144997988,1057.0113259998382,11.894091200083494,return,11.72673869994469,stimuli/alien_stimuli/61.png,61,8,2,,,,,,,,,,,,,,,,,,,,,,,,,,,,,,,,,,,,,,,,,,,,,,,,,,,,,,,,,,,,,,,,,,,,,,,,,,,,,,,,,,,,,,,,,TZPARL,train_x,blue_star,top_right,2025-05-28_15h04.37.191,HideSeek_v1,2022.2.5,59.869341102956334,
,,,,,,,,,,,30,,,,1,0,1,0,,,,,,,,,,,,,,,,,,,,,,,,,,,,,,,,,,,,,,,,,,,,,,,,,,,,,,,,,,,,,,,,,,,,,,,,,,,,,,21,0.7,0,0,99,1,30,0,conditions/schedules/train_x_first/blue_star_00/top_right/inputTrain_1.1.xlsx,99,1,1,1,0,,,,,,,,,,,,,,,,,,,,,,,,,,,,,,,,,,,,,,,,,,,,,,,,,,,,,,,,,,,,,,,,,,,,,,,,,,,TZPARL,train_x,blue_star,top_right,2025-05-28_15h04.37.191,HideSeek_v1,2022.2.5,59.869341102956334,
,,,,,,,,,,,,,,,2,0,2,0,0,0,0,0,,,,,,,,,,,,,,,,,,,,,,,,,,,,,,,conditions/schedules/train_x_first/blue_star_00/top_right/instructions/Slide15.png,conditions/schedules/train_x_first/blue_star_00/top_right/instructions/Audio15.wav,1068.9187807999551,1068.9211667997297,15,"[4.330714700045064, 18.194250599946827, 16.556821199832484, 19.30833389982581, 4.498993299901485, 4.669559200061485, 5.603828199906275, 11.71708850003779, 6.066803599940613, 7.701264299917966, 9.771471600048244, 12.551795599982142, 17.897330899955705, 12.957086000125855, 31.009687599958852]","[4.330723999999464, 0.00022259983234107494, 0.014467299915850163, 0.03052069991827011, 0.014237500028684735, 0.048967399867251515, 0.00022990000434219837, 0.00020070001482963562, 0.04753710003569722, 0.00021430011838674545, 0.030704899923875928, 12.551802400033921, 0.030448400182649493, 12.957093300065026, 31.0096950000152]",0,,,,,,,,,,,,,,,,,,,,,,,,,,,,,,,,,,,,,,,,,,,,,,,,,,,,,,,,,,,,,,,,,,,,,,,,,,,,,,,,,,,,,,,,,,,,,,,,,,,,,,,,,,,,,,,,,,,,,,,,,,,,TZPARL,train_x,blue_star,top_right,2025-05-28_15h04.37.191,HideSeek_v1,2022.2.5,59.869341102956334,
,,,,,,,,,,,,,,,2,0,2,0,1,0,1,0,,,,,,,,,,,,,,,,,,,,,,,,,,,,,,,conditions/schedules/train_x_first/blue_star_00/top_right/instructions/Slide16.png,conditions/schedules/train_x_first/blue_star_00/top_right/instructions/Audio16.wav,1100.0013921998907,1099.9972099998267,16,"[4.330714700045064, 18.194250599946827, 16.556821199832484, 19.30833389982581, 4.498993299901485, 4.669559200061485, 5.603828199906275, 11.71708850003779, 6.066803599940613, 7.701264299917966, 9.771471600048244, 12.551795599982142, 17.897330899955705, 12.957086000125855, 31.009687599958852, 22.11233020015061]","[4.330723999999464, 0.00022259983234107494, 0.014467299915850163, 0.03052069991827011, 0.014237500028684735, 0.048967399867251515, 0.00022990000434219837, 0.00020070001482963562, 0.04753710003569722, 0.00021430011838674545, 0.030704899923875928, 12.551802400033921, 0.030448400182649493, 12.957093300065026, 31.0096950000152, 22.112337700091302]",0,,,,,,,,,,,,,,,,,,,,,,,,,,,,,,,,,,,,,,,,,,,,,,,,,,,,,,,,,,,,,,,,,,,,,,,,,,,,,,,,,,,,,,,,,,,,,,,,,,,,,,,,,,,,,,,,,,,,,,,,,,,,TZPARL,train_x,blue_star,top_right,2025-05-28_15h04.37.191,HideSeek_v1,2022.2.5,59.869341102956334,
,7,6,4,6,-3,0,31,,train_dim1_1,1,30,,,,2,0,2,0,,,,,,,,,0,0,0,0,0,0,0,0,0,0,0,0,,,,,,,,,,,,,,,,,,,,,,,,,stimuli/alien_stimuli/31.png,,,,,,,,,,,,,,,,,,,,,,,,,,,,,,,,,,,,,,,30,,,,,,,,1122.2151028998196,1122.2151028998196,1122.2151028998196,1122.2151028998196,1122.2151028998196,left,2.9950204000342637,0,0,0,99,0.32,0.08,left,2.888317900011316,,,,,,,,,,,,,,,,,,,,,,,,,,,,,,,,,,,,,,,,,,,,,,,,,,,,,,,,,,,,TZPARL,train_x,blue_star,top_right,2025-05-28_15h04.37.191,HideSeek_v1,2022.2.5,59.869341102956334,
,7,6,4,6,-3,0,31,,train_dim1_1,1,30,,,,2,0,2,0,,,,,,,,,0,0,0,0,0,0,0,0,1,0,1,0,,,,,,,,,,,,,,,,,,,,,,,,,,,,,,,,,,,,,,,,,,,,,,,,,,,,,,,,,,,,,,,,30,,,,,,,,1125.203039799817,1125.203039799817,1125.203039799817,1125.203039799817,1125.203039799817,left,1.3744417999405414,0,0,0,99,0.24,0.08,left,1.287027999991551,,,,,,,,,,,,,,,,,,,,,,,,,,,,,,,,,,,,,,,,,,,,,,,,,,,,,,,,,,,,TZPARL,train_x,blue_star,top_right,2025-05-28_15h04.37.191,HideSeek_v1,2022.2.5,59.869341102956334,
,7,6,4,6,-3,0,31,,train_dim1_1,1,30,,,,2,0,2,0,,,,,,,,,0,0,0,0,0,0,0,0,2,0,2,0,,,,,,,,,,,,,,,,,,,,,,,,,,,,,,,,,,,,,,,,,,,,,,,,,,,,,,,,,,,,,,,,30,,,,,,,,1126.584199699806,1126.584199699806,1126.584199699806,1126.584199699806,1126.584199699806,left,1.376791900023818,0,0,0,99,0.15999999999999998,0.08,left,1.3024067000951618,,,,,,,,,,,,,,,,,,,,,,,,,,,,,,,,,,,,,,,,,,,,,,,,,,,,,,,,,,,,TZPARL,train_x,blue_star,top_right,2025-05-28_15h04.37.191,HideSeek_v1,2022.2.5,59.869341102956334,
,7,6,4,6,-3,0,31,,train_dim1_1,1,30,,,,2,0,2,0,,,,,,,,,0,0,0,0,0,0,0,0,3,0,3,0,,,,,,,,,,,,,,,,,,,,,,,,,,,,,,,,,,,,,,,,,,,,,,,,,,,,,,,,,,,,,,,,30,,,,,,,,1127.9836356998421,1127.9836356998421,1127.9836356998421,1127.9836356998421,1127.9836356998421,left,1.4938631998375058,0,0,0,99,0.07999999999999997,0.08,left,1.4022351999301463,,,,,,,,,,,,,,,,,,,,,,,,,,,,,,,,,,,,,,,,,,,,,,,,,,,,,,,,,,,,TZPARL,train_x,blue_star,top_right,2025-05-28_15h04.37.191,HideSeek_v1,2022.2.5,59.869341102956334,
,7,6,4,6,-3,0,31,,train_dim1_1,1,30,,,,2,0,2,0,,,,,,,,,0,0,0,0,0,0,0,0,4,0,4,0,,,,,,,,,,,,,,,,,,,,,,,,,,,,,,,,,,,,,,,,,,,,,,,,,,,,,,,,,,,,,,,,30,,,,,,,,1129.468601499917,1129.468601499917,1129.468601499917,1129.468601499917,1129.468601499917,down,1.744767699856311,0,0,0,99,0.07999999999999997,0.0,down,1.65784200001508,,,,,,,,,,,,,,,,,,,,,,,,,,,,,,,,,,,,,,,,,,,,,,,,,,,,,,,,,,,,TZPARL,train_x,blue_star,top_right,2025-05-28_15h04.37.191,HideSeek_v1,2022.2.5,59.869341102956334,
,7,6,4,6,-3,0,31,,train_dim1_1,1,30,,,,2,0,2,0,,,,,,,,,0,0,0,0,0,0,0,0,5,0,5,0,,,,,,,,,,,,,,,,,,,,,,,,,,,,,,,,,,,,,,,,,,,,,,,,,,,,,,,,,,,,,,,,30,,,,,,,,1131.2206150998827,1131.2206150998827,1131.2206150998827,1131.2206150998827,1131.2206150998827,up,4.563929900061339,0,0,0,99,0.07999999999999997,0.08,up,4.476225900230929,,,,,,,,,,,,,,,,,,,,,,,,,,,,,,,,,,,,,,,,,,,,,,,,,,,,,,,,,,,,TZPARL,train_x,blue_star,top_right,2025-05-28_15h04.37.191,HideSeek_v1,2022.2.5,59.869341102956334,
,7,6,4,6,-3,0,31,,train_dim1_1,1,30,,,,2,0,2,0,,,,,,,,,0,0,0,0,0,0,0,0,6,0,6,0,,,,,,,,,,,,,,,,,,,,,,,,,,,,,,,,,,,,,,,,,,,,,,,,,,,,,,,,,,,,,,,,30,,,,,,,,1135.7916331999004,1135.7916331999004,1135.7916331999004,1135.7916331999004,1135.7916331999004,down,14.838348800083622,0,0,0,99,0.07999999999999997,0.0,down,14.7640375001356,,,,,,,,,,,,,,,,,,,,,,,,,,,,,,,,,,,,,,,,,,,,,,,,,,,,,,,,,,,,TZPARL,train_x,blue_star,top_right,2025-05-28_15h04.37.191,HideSeek_v1,2022.2.5,59.869341102956334,
,7,6,4,6,-3,0,31,,train_dim1_1,1,30,,,,2,0,2,0,,,,,,,,,0,0,0,0,0,0,0,0,7,0,7,0,,,,,,,,,,,,,,,,,,,,,,,,,,,,,,,,,,,,,,,,,,,,,,,,,,,,,,,,,,,,,,,,30,,,,,,,,1150.6515689999796,1150.6515689999796,1150.6515689999796,1150.6515689999796,1150.6515689999796,down,0.4926316000055522,0,0,0,99,0.07999999999999997,-0.08,down,0.3969629998318851,,,,,,,,,,,,,,,,,,,,,,,,,,,,,,,,,,,,,,,,,,,,,,,,,,,,,,,,,,,,TZPARL,train_x,blue_star,top_right,2025-05-28_15h04.37.191,HideSeek_v1,2022.2.5,59.869341102956334,
,7,6,4,6,-3,0,31,,train_dim1_1,1,30,,,,2,0,2,0,,,,,,,,,0,0,0,0,0,0,0,0,8,0,8,0,,,,,,,,,,,,,,,,,,,,,,,,,,,,,,,,,,,,,,,,,,,,,,,,,,,,,,,,,,,,,,,,30,,,,,,,,1151.1408403997775,1151.1408403997775,1151.1408403997775,1151.1408403997775,1151.1408403997775,return,1.2608992999885231,0,0,0,0,0.07999999999999997,-0.08,return,1.1722339999396354,-2,-4,0.07999999999999997,-0.08,,,,,,,,,,,,,,,,,,,,,,,,,,,,,,,,,,,,,,,,,,,,,,,,,,,,,,,,TZPARL,train_x,blue_star,top_right,2025-05-28_15h04.37.191,HideSeek_v1,2022.2.5,59.869341102956334,
,7,9,2,9,-5,0,11,,train_dim1_1,2,30,,,,2,0,2,0,,,,,,,,,0,0,0,0,0,1,1,1,0,0,0,0,,,,,,,,,,,,,,,,,,,,,,,,,stimuli/alien_stimuli/11.png,,,,,,,,,,,,,,,,,,,,,,,,,,,,,stimuli/alien_stimuli/31.png,31,7,3,,,,,,,30,,,,,,,,1172.3556981999427,1172.3556981999427,1172.3556981999427,1172.3556981999427,1172.3556981999427,down,2.8874578999821097,0,0,0,99,0.4,0.24,down,2.7866370999254286,,,,,1170.772446999792,1172.3556981999427,0.16,0.08,0.0,0.24,0.08,0.16,0.28,0.16,0.08,1153.9771262998693,1153.9771262998693,1153.9771262998693,1153.9771262998693,1153.9771262998693,1153.9771262998693,1153.9771262998693,1153.9771262998693,1153.9584620999403,16.91679760022089,return,16.77451469982043,,,,,,,,,,,,,,,,,,,,,,,,,,,,,,,,,TZPARL,train_x,blue_star,top_right,2025-05-28_15h04.37.191,HideSeek_v1,2022.2.5,59.869341102956334,
,7,9,2,9,-5,0,11,,train_dim1_1,2,30,,,,2,0,2,0,,,,,,,,,0,0,0,0,0,1,1,1,1,0,1,0,,,,,,,,,,,,,,,,,,,,,,,,,,,,,,,,,,,,,,,,,,,,,,,,,,,,,,,,,,,,,,,,30,,,,,,,,1175.2289949997794,1175.2289949997794,1175.2289949997794,1175.2289949997794,1175.2289949997794,down,1.0103143998421729,0,0,0,99,0.4,0.15999999999999998,down,0.9282317999750376,,,,,,,,,,,,,,,,,,,,,,,,,,,,,,,,,,,,,,,,,,,,,,,,,,,,,,,,,,,,TZPARL,train_x,blue_star,top_right,2025-05-28_15h04.37.191,HideSeek_v1,2022.2.5,59.869341102956334,
,7,9,2,9,-5,0,11,,train_dim1_1,2,30,,,,2,0,2,0,,,,,,,,,0,0,0,0,0,1,1,1,2,0,2,0,,,,,,,,,,,,,,,,,,,,,,,,,,,,,,,,,,,,,,,,,,,,,,,,,,,,,,,,,,,,,,,,30,,,,,,,,1176.2460691998713,1176.2460691998713,1176.2460691998713,1176.2460691998713,1176.2460691998713,return,1.1440874000545591,0,0,0,0,0.4,0.15999999999999998,return,1.0615625998470932,-4,-4,0.4,0.15999999999999998,,,,,,,,,,,,,,,,,,,,,,,,,,,,,,,,,,,,,,,,,,,,,,,,,,,,,,,,TZPARL,train_x,blue_star,top_right,2025-05-28_15h04.37.191,HideSeek_v1,2022.2.5,59.869341102956334,
,9,9,5,9,-4,0,21,,train_dim1_1,3,30,,,,2,0,2,0,,,,,,,,,0,0,0,0,0,2,2,2,0,0,0,0,,,,,,,,,,,,,,,,,,,,,,,,,stimuli/alien_stimuli/21.png,,,,,,,,,,,,,,,,,,,,,,,,,,,,,stimuli/alien_stimuli/11.png,11,7,4,,,,,,,30,,,,,,,,1183.2220570999198,1183.2220570999198,1183.2220570999198,1183.2220570999198,1183.2220570999198,return,1.936308200005442,0,0,0,0,0.56,0.32,return,1.8444168001879007,-4,-4,0.56,0.32,1181.6476562998723,1183.2220570999198,0,0.32,0.0,0.4,0.32,0,0.2,0,0.32,1178.9897511999588,1178.9897511999588,1178.9897511999588,1178.9897511999588,1178.9897511999588,1178.9897511999588,1178.9897511999588,1178.9897511999588,1178.9793067998019,2.80440040002577,return,2.6396701000630856,,,,,,,,,,,,,,,,,,,,,,,,,,,,,,,,,TZPARL,train_x,blue_star,top_right,2025-05-28_15h04.37.191,HideSeek_v1,2022.2.5,59.869341102956334,
,7,8,6,8,-1,0,51,,train_dim1_1,4,30,,,,2,0,2,0,,,,,,,,,0,0,0,0,0,3,3,3,0,0,0,0,,,,,,,,,,,,,,,,,,,,,,,,,stimuli/alien_stimuli/51.png,,,,,,,,,,,,,,,,,,,,,,,,,,,,,stimuli/alien_stimuli/21.png,21,9,5,,,,,,,30,,,,,,,,1190.6159848999232,1190.6159848999232,1190.6159848999232,1190.6159848999232,1190.6159848999232,down,1.2045989001635462,0,0,0,99,0.4,0.15999999999999998,down,1.0986685000825673,,,,,1189.0375920999795,1190.6159848999232,0.24,0.32,0.0,0.32,0.32,0.24,0.4,0.24,0.32,1186.7193637997843,1186.7193637997843,1186.7193637997843,1186.7193637997843,1186.7193637997843,1186.7193637997843,1186.7193637997843,1186.7193637997843,1186.7022649999008,2.4375775000080466,return,2.3006261000409722,,,,,,,,,,,,,,,,,,,,,,,,,,,,,,,,,TZPARL,train_x,blue_star,top_right,2025-05-28_15h04.37.191,HideSeek_v1,2022.2.5,59.869341102956334,
,7,8,6,8,-1,0,51,,train_dim1_1,4,30,,,,2,0,2,0,,,,,,,,,0,0,0,0,0,3,3,3,1,0,1,0,,,,,,,,,,,,,,,,,,,,,,,,,,,,,,,,,,,,,,,,,,,,,,,,,,,,,,,,,,,,,,,,30,,,,,,,,1191.8071641998831,1191.8071641998831,1191.8071641998831,1191.8071641998831,1191.8071641998831,down,0.6099569997750223,0,0,0,99,0.4,0.07999999999999997,down,0.5191227002069354,,,,,,,,,,,,,,,,,,,,,,,,,,,,,,,,,,,,,,,,,,,,,,,,,,,,,,,,,,,,TZPARL,train_x,blue_star,top_right,2025-05-28_15h04.37.191,HideSeek_v1,2022.2.5,59.869341102956334,
,7,8,6,8,-1,0,51,,train_dim1_1,4,30,,,,2,0,2,0,,,,,,,,,0,0,0,0,0,3,3,3,2,0,2,0,,,,,,,,,,,,,,,,,,,,,,,,,,,,,,,,,,,,,,,,,,,,,,,,,,,,,,,,,,,,,,,,30,,,,,,,,1192.428849299904,1192.428849299904,1192.428849299904,1192.428849299904,1192.428849299904,down,0.5931241998914629,0,0,0,99,0.4,-2.7755575615628914e-17,down,0.5031554999295622,,,,,,,,,,,,,,,,,,,,,,,,,,,,,,,,,,,,,,,,,,,,,,,,,,,,,,,,,,,,TZPARL,train_x,blue_star,top_right,2025-05-28_15h04.37.191,HideSeek_v1,2022.2.5,59.869341102956334,
,7,8,6,8,-1,0,51,,train_dim1_1,4,30,,,,2,0,2,0,,,,,,,,,0,0,0,0,0,3,3,3,3,0,3,0,,,,,,,,,,,,,,,,,,,,,,,,,,,,,,,,,,,,,,,,,,,,,,,,,,,,,,,,,,,,,,,,30,,,,,,,,1193.0263032999355,1193.0263032999355,1193.0263032999355,1193.0263032999355,1193.0263032999355,return,1.8597860999871045,0,0,0,0,0.4,-2.7755575615628914e-17,return,1.7737654999364167,-7,-4,0.4,-2.7755575615628914e-17,,,,,,,,,,,,,,,,,,,,,,,,,,,,,,,,,,,,,,,,,,,,,,,,,,,,,,,,TZPARL,train_x,blue_star,top_right,2025-05-28_15h04.37.191,HideSeek_v1,2022.2.5,59.869341102956334,
,5,7,5,7,0,0,61,,train_dim1_1,5,30,,,,2,0,2,0,,,,,,,,,0,0,0,0,0,4,4,4,0,0,0,0,,,,,,,,,,,,,,,,,,,,,,,,,stimuli/alien_stimuli/61.png,,,,,,,,,,,,,,,,,,,,,,,,,,,,,stimuli/alien_stimuli/51.png,51,7,6,,,,,,,30,,,,,,,,1201.3426353998948,1201.3426353998948,1201.3426353998948,1201.3426353998948,1201.3426353998948,left,1.9886326999403536,0,0,0,99,0.15999999999999998,0.16,left,1.894208800047636,,,,,1199.7798054998275,1201.3426353998948,0.32,0.24,0.0,0.08,0.24,0.32,0.36,0.32,0.24,1196.4537457998376,1196.4537457998376,1196.4537457998376,1196.4537457998376,1196.4537457998376,1196.4537457998376,1196.4537457998376,1196.4537457998376,1196.443669799878,3.438522200100124,return,3.2947098000440747,,,,,,,,,,,,,,,,,,,,,,,,,,,,,,,,,TZPARL,train_x,blue_star,top_right,2025-05-28_15h04.37.191,HideSeek_v1,2022.2.5,59.869341102956334,
,5,7,5,7,0,0,61,,train_dim1_1,5,30,,,,2,0,2,0,,,,,,,,,0,0,0,0,0,4,4,4,1,0,1,0,,,,,,,,,,,,,,,,,,,,,,,,,,,,,,,,,,,,,,,,,,,,,,,,,,,,,,,,,,,,,,,,30,,,,,,,,1203.33182569989,1203.33182569989,1203.33182569989,1203.33182569989,1203.33182569989,left,0.42539969994686544,0,0,0,99,0.07999999999999997,0.16,left,0.3520397001411766,,,,,,,,,,,,,,,,,,,,,,,,,,,,,,,,,,,,,,,,,,,,,,,,,,,,,,,,,,,,TZPARL,train_x,blue_star,top_right,2025-05-28_15h04.37.191,HideSeek_v1,2022.2.5,59.869341102956334,
,5,7,5,7,0,0,61,,train_dim1_1,5,30,,,,2,0,2,0,,,,,,,,,0,0,0,0,0,4,4,4,2,0,2,0,,,,,,,,,,,,,,,,,,,,,,,,,,,,,,,,,,,,,,,,,,,,,,,,,,,,,,,,,,,,,,,,30,,,,,,,,1203.7650452998932,1203.7650452998932,1203.7650452998932,1203.7650452998932,1203.7650452998932,left,0.4766001000534743,0,0,0,99,-2.7755575615628914e-17,0.16,left,0.4010918999556452,,,,,,,,,,,,,,,,,,,,,,,,,,,,,,,,,,,,,,,,,,,,,,,,,,,,,,,,,,,,TZPARL,train_x,blue_star,top_right,2025-05-28_15h04.37.191,HideSeek_v1,2022.2.5,59.869341102956334,
,5,7,5,7,0,0,61,,train_dim1_1,5,30,,,,2,0,2,0,,,,,,,,,0,0,0,0,0,4,4,4,3,0,3,0,,,,,,,,,,,,,,,,,,,,,,,,,,,,,,,,,,,,,,,,,,,,,,,,,,,,,,,,,,,,,,,,30,,,,,,,,1204.246788599994,1204.246788599994,1204.246788599994,1204.246788599994,1204.246788599994,return,0.6101295000407845,0,0,0,0,-2.7755575615628914e-17,0.16,return,0.5263847999740392,-7,-7,-2.7755575615628914e-17,0.16,,,,,,,,,,,,,,,,,,,,,,,,,,,,,,,,,,,,,,,,,,,,,,,,,,,,,,,,TZPARL,train_x,blue_star,top_right,2025-05-28_15h04.37.191,HideSeek_v1,2022.2.5,59.869341102956334,
,5,5,1,5,-4,0,21,,train_dim1_1,6,30,,,,2,0,2,0,,,,,,,,,0,0,0,0,0,5,5,5,0,0,0,0,,,,,,,,,,,,,,,,,,,,,,,,,stimuli/alien_stimuli/21.png,,,,,,,,,,,,,,,,,,,,,,,,,,,,,stimuli/alien_stimuli/61.png,61,5,7,,,,,,,30,,,,,,,,1210.7220257997978,1210.7220257997978,1210.7220257997978,1210.7220257997978,1210.7220257997978,down,2.2042086001019925,0,0,0,99,0.24,-0.08,down,2.11021970002912,,,,,1209.1543872999027,1210.7220257997978,0.24,0.16,0.0,0.0,0.16,0.24,0.24,0.24,0.16,1206.4233632998075,1206.4233632998075,1206.4233632998075,1206.4233632998075,1206.4233632998075,1206.4233632998075,1206.4233632998075,1206.4233632998075,1206.4017906998283,2.8383269000332803,return,2.7127272998914123,,,,,,,,,,,,,,,,,,,,,,,,,,,,,,,,,TZPARL,train_x,blue_star,top_right,2025-05-28_15h04.37.191,HideSeek_v1,2022.2.5,59.869341102956334,
,5,5,1,5,-4,0,21,,train_dim1_1,6,30,,,,2,0,2,0,,,,,,,,,0,0,0,0,0,5,5,5,1,0,1,0,,,,,,,,,,,,,,,,,,,,,,,,,,,,,,,,,,,,,,,,,,,,,,,,,,,,,,,,,,,,,,,,30,,,,,,,,1212.9256515000015,1212.9256515000015,1212.9256515000015,1212.9256515000015,1212.9256515000015,down,2.0444275001063943,0,0,0,99,0.24,-0.16,down,1.9602457999717444,,,,,,,,,,,,,,,,,,,,,,,,,,,,,,,,,,,,,,,,,,,,,,,,,,,,,,,,,,,,TZPARL,train_x,blue_star,top_right,2025-05-28_15h04.37.191,HideSeek_v1,2022.2.5,59.869341102956334,
,5,5,1,5,-4,0,21,,train_dim1_1,6,30,,,,2,0,2,0,,,,,,,,,0,0,0,0,0,5,5,5,2,0,2,0,,,,,,,,,,,,,,,,,,,,,,,,,,,,,,,,,,,,,,,,,,,,,,,,,,,,,,,,,,,,,,,,30,,,,,,,,1214.9764067998622,1214.9764067998622,1214.9764067998622,1214.9764067998622,1214.9764067998622,down,0.5938617000356317,0,0,0,99,0.24,-0.24,down,0.5019606000278145,,,,,,,,,,,,,,,,,,,,,,,,,,,,,,,,,,,,,,,,,,,,,,,,,,,,,,,,,,,,TZPARL,train_x,blue_star,top_right,2025-05-28_15h04.37.191,HideSeek_v1,2022.2.5,59.869341102956334,
,5,5,1,5,-4,0,21,,train_dim1_1,6,30,,,,2,0,2,0,,,,,,,,,0,0,0,0,0,5,5,5,3,0,3,0,,,,,,,,,,,,,,,,,,,,,,,,,,,,,,,,,,,,,,,,,,,,,,,,,,,,,,,,,,,,,,,,30,,,,,,,,1215.5784242998343,1215.5784242998343,1215.5784242998343,1215.5784242998343,1215.5784242998343,return,1.1604613999370486,0,0,0,0,0.24,-0.24,return,1.083072000183165,-10,-7,0.24,-0.24,,,,,,,,,,,,,,,,,,,,,,,,,,,,,,,,,,,,,,,,,,,,,,,,,,,,,,,,TZPARL,train_x,blue_star,top_right,2025-05-28_15h04.37.191,HideSeek_v1,2022.2.5,59.869341102956334,
,8,5,8,5,0,0,61,,train_dim1_1,7,30,,,,2,0,2,0,,,,,,,,,0,0,0,0,0,6,6,6,0,0,0,0,,,,,,,,,,,,,,,,,,,,,,,,,stimuli/alien_stimuli/61.png,,,,,,,,,,,,,,,,,,,,,,,,,,,,,stimuli/alien_stimuli/21.png,21,5,8,,,,,,,30,,,,,,,,1222.064226699993,1222.064226699993,1222.064226699993,1222.064226699993,1222.064226699993,return,1.754004699876532,1,0,0,1,0.48,0,return,1.6400820999406278,-10,-7,0.48,0,1220.4684978998266,1218.3259155999403,-0.08,0,0.0,0.32,0.0,-0.08,0.07999999999999999,-0.08,0,1218.3259155999403,1218.3259155999403,1218.3259155999403,1218.3259155999403,1218.3259155999403,1218.3259155999403,1218.3259155999403,1218.3259155999403,1218.3119989998638,2.276065999874845,return,2.123333199881017,,,,,,,,,,,,,,,,,,,,,,,,,,,,,,,,,TZPARL,train_x,blue_star,top_right,2025-05-28_15h04.37.191,HideSeek_v1,2022.2.5,59.869341102956334,
,5,9,2,9,-3,0,31,,train_dim1_1,8,30,,,,2,0,2,0,,,,,,,,,0,0,0,0,0,7,7,7,0,0,0,0,,,,,,,,,,,,,,,,,,,,,,,,,stimuli/alien_stimuli/31.png,,,,,,,,,,,,,,,,,,,,,,,,,,,,,stimuli/alien_stimuli/61.png,61,8,9,,,,,,,30,,,,,,,,1235.856805499876,1235.856805499876,1235.856805499876,1235.856805499876,1235.856805499876,down,1.3727906998246908,1,0,0,99,0.24,0.24,down,1.2729636000003666,,,,,1234.2917839998845,1235.856805499876,0.48,0,0.0,0.0,0.0,0.48,0.48,0.48,0,1225.3805085998029,1225.3805085998029,1225.3805085998029,1225.3805085998029,1225.3805085998029,1225.3805085998029,1225.3805085998029,1225.3805085998029,1225.3679389997385,9.042787400074303,return,8.888344299979508,,,,,,,,,,,,,,,,,,,,,,,,,,,,,,,,,TZPARL,train_x,blue_star,top_right,2025-05-28_15h04.37.191,HideSeek_v1,2022.2.5,59.869341102956334,
,5,9,2,9,-3,0,31,,train_dim1_1,8,30,,,,2,0,2,0,,,,,,,,,0,0,0,0,0,7,7,7,1,0,1,0,,,,,,,,,,,,,,,,,,,,,,,,,,,,,,,,,,,,,,,,,,,,,,,,,,,,,,,,,,,,,,,,30,,,,,,,,1237.2262992998585,1237.2262992998585,1237.2262992998585,1237.2262992998585,1237.2262992998585,down,0.39232510002329946,1,0,0,99,0.24,0.15999999999999998,down,0.3168951999396086,,,,,,,,,,,,,,,,,,,,,,,,,,,,,,,,,,,,,,,,,,,,,,,,,,,,,,,,,,,,TZPARL,train_x,blue_star,top_right,2025-05-28_15h04.37.191,HideSeek_v1,2022.2.5,59.869341102956334,
,5,9,2,9,-3,0,31,,train_dim1_1,8,30,,,,2,0,2,0,,,,,,,,,0,0,0,0,0,7,7,7,2,0,2,0,,,,,,,,,,,,,,,,,,,,,,,,,,,,,,,,,,,,,,,,,,,,,,,,,,,,,,,,,,,,,,,,30,,,,,,,,1237.624654499814,1237.624654499814,1237.624654499814,1237.624654499814,1237.624654499814,down,0.3769739998970181,1,0,0,99,0.24,0.07999999999999997,down,0.2964079000521451,,,,,,,,,,,,,,,,,,,,,,,,,,,,,,,,,,,,,,,,,,,,,,,,,,,,,,,,,,,,TZPARL,train_x,blue_star,top_right,2025-05-28_15h04.37.191,HideSeek_v1,2022.2.5,59.869341102956334,
,5,9,2,9,-3,0,31,,train_dim1_1,8,30,,,,2,0,2,0,,,,,,,,,0,0,0,0,0,7,7,7,3,0,3,0,,,,,,,,,,,,,,,,,,,,,,,,,,,,,,,,,,,,,,,,,,,,,,,,,,,,,,,,,,,,,,,,30,,,,,,,,1238.0121396998875,1238.0121396998875,1238.0121396998875,1238.0121396998875,1238.0121396998875,return,0.3768207000102848,1,0,0,0,0.24,0.07999999999999997,return,0.2893985998816788,-13,-7,0.24,0.07999999999999997,,,,,,,,,,,,,,,,,,,,,,,,,,,,,,,,,,,,,,,,,,,,,,,,,,,,,,,,TZPARL,train_x,blue_star,top_right,2025-05-28_15h04.37.191,HideSeek_v1,2022.2.5,59.869341102956334,
,6,5,5,5,-1,0,51,,train_dim1_1,9,30,,,,2,0,2,0,,,,,,,,,0,0,0,0,0,8,8,8,0,0,0,0,,,,,,,,,,,,,,,,,,,,,,,,,stimuli/alien_stimuli/51.png,,,,,,,,,,,,,,,,,,,,,,,,,,,,,stimuli/alien_stimuli/31.png,31,5,10,,,,,,,30,,,,,,,,1244.7336420998909,1244.7336420998909,1244.7336420998909,1244.7336420998909,1244.7336420998909,return,3.2542010999750346,1,1,0,0,0.32,0,return,3.1591465999372303,-13,-7,0.32,0,1243.1660523999017,1244.7336420998909,0,0.32,0.0,0.24,0.32,0,0.12,0,0.32,1239.9667043997906,1239.9667043997906,1239.9667043997906,1239.9667043997906,1239.9667043997906,1239.9667043997906,1239.9667043997906,1239.9667043997906,1239.946705599944,3.321504400111735,return,3.17360209999606,,,,,,,,,,,,,,,,,,,,,,,,,,,,,,,,,TZPARL,train_x,blue_star,top_right,2025-05-28_15h04.37.191,HideSeek_v1,2022.2.5,59.869341102956334,
,5,8,0,8,-5,0,11,,train_dim1_1,10,30,,,,2,0,2,0,,,,,,,,,0,0,0,0,0,9,9,9,0,0,0,0,,,,,,,,,,,,,,,,,,,,,,,,,stimuli/alien_stimuli/11.png,,,,,,,,,,,,,,,,,,,,,,,,,,,,,stimuli/alien_stimuli/51.png,51,6,11,,,,,,,30,,,,,,,,1254.4977933999617,1254.4977933999617,1254.4977933999617,1254.4977933999617,1254.4977933999617,left,9.137586500030011,1,1,0,99,0.15999999999999998,0.24,left,9.043592799920589,,,,,1252.924256999977,1254.4977933999617,0.24,0,0.0,0.08,0.0,0.24,0.28,0.24,0,1249.5542379999533,1249.5542379999533,1249.5542379999533,1249.5542379999533,1249.5542379999533,1249.5542379999533,1249.5542379999533,1249.5542379999533,1249.5377488999393,3.488712300080806,return,3.350182499969378,,,,,,,,,,,,,,,,,,,,,,,,,,,,,,,,,TZPARL,train_x,blue_star,top_right,2025-05-28_15h04.37.191,HideSeek_v1,2022.2.5,59.869341102956334,
,5,8,0,8,-5,0,11,,train_dim1_1,10,30,,,,2,0,2,0,,,,,,,,,0,0,0,0,0,9,9,9,1,0,1,0,,,,,,,,,,,,,,,,,,,,,,,,,,,,,,,,,,,,,,,,,,,,,,,,,,,,,,,,,,,,,,,,30,,,,,,,,1263.638639499899,1263.638639499899,1263.638639499899,1263.638639499899,1263.638639499899,left,0.6921710998285562,1,1,0,99,0.07999999999999997,0.24,left,0.6123965000733733,,,,,,,,,,,,,,,,,,,,,,,,,,,,,,,,,,,,,,,,,,,,,,,,,,,,,,,,,,,,TZPARL,train_x,blue_star,top_right,2025-05-28_15h04.37.191,HideSeek_v1,2022.2.5,59.869341102956334,
,5,8,0,8,-5,0,11,,train_dim1_1,10,30,,,,2,0,2,0,,,,,,,,,0,0,0,0,0,9,9,9,2,0,2,0,,,,,,,,,,,,,,,,,,,,,,,,,,,,,,,,,,,,,,,,,,,,,,,,,,,,,,,,,,,,,,,,30,,,,,,,,1264.3351394999772,1264.3351394999772,1264.3351394999772,1264.3351394999772,1264.3351394999772,left,0.5600863001309335,1,1,0,99,-2.7755575615628914e-17,0.24,left,0.467422200134024,,,,,,,,,,,,,,,,,,,,,,,,,,,,,,,,,,,,,,,,,,,,,,,,,,,,,,,,,,,,TZPARL,train_x,blue_star,top_right,2025-05-28_15h04.37.191,HideSeek_v1,2022.2.5,59.869341102956334,
,5,8,0,8,-5,0,11,,train_dim1_1,10,30,,,,2,0,2,0,,,,,,,,,0,0,0,0,0,9,9,9,3,0,3,0,,,,,,,,,,,,,,,,,,,,,,,,,,,,,,,,,,,,,,,,,,,,,,,,,,,,,,,,,,,,,,,,30,,,,,,,,1264.9047910999507,1264.9047910999507,1264.9047910999507,1264.9047910999507,1264.9047910999507,return,0.49375950009562075,1,0,0,0,-2.7755575615628914e-17,0.24,return,0.4114632001146674,-13,-10,-2.7755575615628914e-17,0.24,,,,,,,,,,,,,,,,,,,,,,,,,,,,,,,,,,,,,,,,,,,,,,,,,,,,,,,,TZPARL,train_x,blue_star,top_right,2025-05-28_15h04.37.191,HideSeek_v1,2022.2.5,59.869341102956334,
,7,7,4,7,-3,0,31,,train_dim1_1,11,30,,,,2,0,2,0,,,,,,,,,0,0,0,0,0,10,10,10,0,0,0,0,,,,,,,,,,,,,,,,,,,,,,,,,stimuli/alien_stimuli/31.png,,,,,,,,,,,,,,,,,,,,,,,,,,,,,stimuli/alien_stimuli/11.png,11,5,12,,,,,,,30,,,,,,,,1272.5844776998274,1272.5844776998274,1272.5844776998274,1272.5844776998274,1272.5844776998274,return,0.9210404998157173,1,0,0,0,0.4,0.16,return,0.8394168000668287,-13,-10,0.4,0.16,1271.0222948999144,1272.5844776998274,-0.16,0.24,0.0,0.4,0.24,-0.16,0.039999999999999994,-0.16,0.24,1266.9896043997724,1266.9896043997724,1266.9896043997724,1266.9896043997724,1266.9896043997724,1266.9896043997724,1266.9896043997724,1266.9896043997724,1266.9688885998446,4.1721434998326,return,4.009513200027868,,,,,,,,,,,,,,,,,,,,,,,,,,,,,,,,,TZPARL,train_x,blue_star,top_right,2025-05-28_15h04.37.191,HideSeek_v1,2022.2.5,59.869341102956334,
,5,5,1,5,-4,0,21,,train_dim1_1,12,30,,,,2,0,2,0,,,,,,,,,0,0,0,0,0,11,11,11,0,0,0,0,,,,,,,,,,,,,,,,,,,,,,,,,stimuli/alien_stimuli/21.png,,,,,,,,,,,,,,,,,,,,,,,,,,,,,stimuli/alien_stimuli/31.png,31,7,13,,,,,,,30,,,,,,,,1278.2332454998977,1278.2332454998977,1278.2332454998977,1278.2332454998977,1278.2332454998977,up,1.8197151999920607,1,0,0,99,0.24,0.08,up,1.6811179001815617,,,,,1276.6269633998163,1278.2332454998977,0.16,0.16,0.0,0.24,0.16,0.16,0.28,0.16,0.16,1275.0714004999027,1275.0714004999027,1275.0714004999027,1275.0714004999027,1275.0714004999027,1275.0714004999027,1275.0714004999027,1275.0714004999027,1275.058870599768,1.6702662999741733,return,1.5339770999271423,,,,,,,,,,,,,,,,,,,,,,,,,,,,,,,,,TZPARL,train_x,blue_star,top_right,2025-05-28_15h04.37.191,HideSeek_v1,2022.2.5,59.869341102956334,
,5,5,1,5,-4,0,21,,train_dim1_1,12,30,,,,2,0,2,0,,,,,,,,,0,0,0,0,0,11,11,11,1,0,1,0,,,,,,,,,,,,,,,,,,,,,,,,,,,,,,,,,,,,,,,,,,,,,,,,,,,,,,,,,,,,,,,,30,,,,,,,,1280.015044099884,1280.015044099884,1280.015044099884,1280.015044099884,1280.015044099884,up,0.35963349998928607,1,0,0,99,0.24,0.16,up,0.27283550007268786,,,,,,,,,,,,,,,,,,,,,,,,,,,,,,,,,,,,,,,,,,,,,,,,,,,,,,,,,,,,TZPARL,train_x,blue_star,top_right,2025-05-28_15h04.37.191,HideSeek_v1,2022.2.5,59.869341102956334,
,5,5,1,5,-4,0,21,,train_dim1_1,12,30,,,,2,0,2,0,,,,,,,,,0,0,0,0,0,11,11,11,2,0,2,0,,,,,,,,,,,,,,,,,,,,,,,,,,,,,,,,,,,,,,,,,,,,,,,,,,,,,,,,,,,,,,,,30,,,,,,,,1280.381609799806,1280.381609799806,1280.381609799806,1280.381609799806,1280.381609799806,up,0.34359539998695254,1,0,0,99,0.24,0.24,up,0.2613971000537276,,,,,,,,,,,,,,,,,,,,,,,,,,,,,,,,,,,,,,,,,,,,,,,,,,,,,,,,,,,,TZPARL,train_x,blue_star,top_right,2025-05-28_15h04.37.191,HideSeek_v1,2022.2.5,59.869341102956334,
,5,5,1,5,-4,0,21,,train_dim1_1,12,30,,,,2,0,2,0,,,,,,,,,0,0,0,0,0,11,11,11,3,0,3,0,,,,,,,,,,,,,,,,,,,,,,,,,,,,,,,,,,,,,,,,,,,,,,,,,,,,,,,,,,,,,,,,30,,,,,,,,1280.7333653999958,1280.7333653999958,1280.7333653999958,1280.7333653999958,1280.7333653999958,return,0.5933663998730481,1,0,0,0,0.24,0.24,return,0.5092370000202209,-10,-10,0.24,0.24,,,,,,,,,,,,,,,,,,,,,,,,,,,,,,,,,,,,,,,,,,,,,,,,,,,,,,,,TZPARL,train_x,blue_star,top_right,2025-05-28_15h04.37.191,HideSeek_v1,2022.2.5,59.869341102956334,
,5,9,4,9,-1,0,51,,train_dim1_1,13,30,,,,2,0,2,0,,,,,,,,,0,0,0,0,0,12,12,12,0,0,0,0,,,,,,,,,,,,,,,,,,,,,,,,,stimuli/alien_stimuli/51.png,,,,,,,,,,,,,,,,,,,,,,,,,,,,,stimuli/alien_stimuli/21.png,21,5,14,,,,,,,30,,,,,,,,1287.0876800999977,1287.0876800999977,1287.0876800999977,1287.0876800999977,1287.0876800999977,return,1.852312200004235,1,1,0,0,0.24,0.32,return,1.7657118998467922,-10,-10,0.24,0.32,1285.5178633998148,1287.0876800999977,-0.08,0,0.0,0.32,0.0,-0.08,0.07999999999999999,-0.08,0,1282.9080910999328,1282.9080910999328,1282.9080910999328,1282.9080910999328,1282.9080910999328,1282.9080910999328,1282.9080910999328,1282.9080910999328,1282.8993442998733,2.736931199906394,return,2.5843511999119073,,,,,,,,,,,,,,,,,,,,,,,,,,,,,,,,,TZPARL,train_x,blue_star,top_right,2025-05-28_15h04.37.191,HideSeek_v1,2022.2.5,59.869341102956334,
,9,8,4,8,-5,0,11,,train_dim1_1,14,30,,,,2,0,2,0,,,,,,,,,0,0,0,0,0,13,13,13,0,0,0,0,,,,,,,,,,,,,,,,,,,,,,,,,stimuli/alien_stimuli/11.png,,,,,,,,,,,,,,,,,,,,,,,,,,,,,stimuli/alien_stimuli/51.png,51,5,15,,,,,,,30,,,,,,,,1293.8531669999938,1293.8531669999938,1293.8531669999938,1293.8531669999938,1293.8531669999938,left,2.1206009997986257,1,1,0,99,0.48000000000000004,0.24,left,2.022797399898991,,,,,1292.2733046999201,1293.8531669999938,0.16,0.32,0.0,0.08,0.32,0.16,0.2,0.16,0.32,1290.4982230998576,1290.4982230998576,1290.4982230998576,1290.4982230998576,1290.4982230998576,1290.4982230998576,1290.4982230998576,1290.4982230998576,1290.4882326998513,1.886964299948886,return,1.7486868998967111,,,,,,,,,,,,,,,,,,,,,,,,,,,,,,,,,TZPARL,train_x,blue_star,top_right,2025-05-28_15h04.37.191,HideSeek_v1,2022.2.5,59.869341102956334,
,9,8,4,8,-5,0,11,,train_dim1_1,14,30,,,,2,0,2,0,,,,,,,,,0,0,0,0,0,13,13,13,1,0,1,0,,,,,,,,,,,,,,,,,,,,,,,,,,,,,,,,,,,,,,,,,,,,,,,,,,,,,,,,,,,,,,,,30,,,,,,,,1295.963885499863,1295.963885499863,1295.963885499863,1295.963885499863,1295.963885499863,left,0.37573189986869693,1,1,0,99,0.4,0.24,left,0.2919125999324024,,,,,,,,,,,,,,,,,,,,,,,,,,,,,,,,,,,,,,,,,,,,,,,,,,,,,,,,,,,,TZPARL,train_x,blue_star,top_right,2025-05-28_15h04.37.191,HideSeek_v1,2022.2.5,59.869341102956334,
,9,8,4,8,-5,0,11,,train_dim1_1,14,30,,,,2,0,2,0,,,,,,,,,0,0,0,0,0,13,13,13,2,0,2,0,,,,,,,,,,,,,,,,,,,,,,,,,,,,,,,,,,,,,,,,,,,,,,,,,,,,,,,,,,,,,,,,30,,,,,,,,1296.345891899895,1296.345891899895,1296.345891899895,1296.345891899895,1296.345891899895,left,0.39360559987835586,1,1,0,99,0.32,0.24,left,0.2996712001040578,,,,,,,,,,,,,,,,,,,,,,,,,,,,,,,,,,,,,,,,,,,,,,,,,,,,,,,,,,,,TZPARL,train_x,blue_star,top_right,2025-05-28_15h04.37.191,HideSeek_v1,2022.2.5,59.869341102956334,
,9,8,4,8,-5,0,11,,train_dim1_1,14,30,,,,2,0,2,0,,,,,,,,,0,0,0,0,0,13,13,13,3,0,3,0,,,,,,,,,,,,,,,,,,,,,,,,,,,,,,,,,,,,,,,,,,,,,,,,,,,,,,,,,,,,,,,,30,,,,,,,,1296.748080499936,1296.748080499936,1296.748080499936,1296.748080499936,1296.748080499936,return,0.4748140999581665,1,0,0,0,0.32,0.24,return,0.3944191001355648,-10,-13,0.32,0.24,,,,,,,,,,,,,,,,,,,,,,,,,,,,,,,,,,,,,,,,,,,,,,,,,,,,,,,,TZPARL,train_x,blue_star,top_right,2025-05-28_15h04.37.191,HideSeek_v1,2022.2.5,59.869341102956334,
,9,7,9,7,0,0,61,,train_dim1_1,15,30,,,,2,0,2,0,,,,,,,,,0,0,0,0,0,14,14,14,0,0,0,0,,,,,,,,,,,,,,,,,,,,,,,,,stimuli/alien_stimuli/61.png,,,,,,,,,,,,,,,,,,,,,,,,,,,,,stimuli/alien_stimuli/11.png,11,9,16,,,,,,,30,,,,,,,,1301.77220079978,1301.77220079978,1301.77220079978,1301.77220079978,1301.77220079978,return,1.8741289998870343,2,0,0,1,0.56,0.16,return,1.76359699992463,-10,-13,0.56,0.16,1300.1965128998272,1301.77220079978,0.16,0.24,0.0,0.4,0.24,0.16,0.36000000000000004,0.16,0.24,1298.7955660999287,1298.7955660999287,1298.7955660999287,1298.7955660999287,1298.7955660999287,1298.7955660999287,1298.7955660999287,1298.7955660999287,1298.7784252999581,1.5200551999732852,return,1.3802755998913199,,,,,,,,,,,,,,,,,,,,,,,,,,,,,,,,,TZPARL,train_x,blue_star,top_right,2025-05-28_15h04.37.191,HideSeek_v1,2022.2.5,59.869341102956334,
,8,8,7,8,-1,0,51,,train_dim1_1,16,30,,,,2,0,2,0,,,,,,,,,0,0,0,0,0,15,15,15,0,0,0,0,,,,,,,,,,,,,,,,,,,,,,,,,stimuli/alien_stimuli/51.png,,,,,,,,,,,,,,,,,,,,,,,,,,,,,stimuli/alien_stimuli/61.png,61,9,17,,,,,,,30,,,,,,,,1309.0101059000008,1309.0101059000008,1309.0101059000008,1309.0101059000008,1309.0101059000008,left,6.0238490998744965,2,0,0,99,0.39999999999999997,0.24,left,5.922098499955609,,,,,1307.4357666999567,1309.0101059000008,0.56,0.16,0.0,0.0,0.16,0.56,0.56,0.56,0.16,1305.1945949997753,1305.1945949997753,1305.1945949997753,1305.1945949997753,1305.1945949997753,1305.1945949997753,1305.1945949997753,1305.1945949997753,1305.1839204997987,2.354039200115949,return,2.2106194999068975,,,,,,,,,,,,,,,,,,,,,,,,,,,,,,,,,TZPARL,train_x,blue_star,top_right,2025-05-28_15h04.37.191,HideSeek_v1,2022.2.5,59.869341102956334,
,8,8,7,8,-1,0,51,,train_dim1_1,16,30,,,,2,0,2,0,,,,,,,,,0,0,0,0,0,15,15,15,1,0,1,0,,,,,,,,,,,,,,,,,,,,,,,,,,,,,,,,,,,,,,,,,,,,,,,,,,,,,,,,,,,,,,,,30,,,,,,,,1315.0322116999887,1315.0322116999887,1315.0322116999887,1315.0322116999887,1315.0322116999887,left,0.4408984000328928,2,0,0,99,0.31999999999999995,0.24,left,0.35602289997041225,,,,,,,,,,,,,,,,,,,,,,,,,,,,,,,,,,,,,,,,,,,,,,,,,,,,,,,,,,,,TZPARL,train_x,blue_star,top_right,2025-05-28_15h04.37.191,HideSeek_v1,2022.2.5,59.869341102956334,
,8,8,7,8,-1,0,51,,train_dim1_1,16,30,,,,2,0,2,0,,,,,,,,,0,0,0,0,0,15,15,15,2,0,2,0,,,,,,,,,,,,,,,,,,,,,,,,,,,,,,,,,,,,,,,,,,,,,,,,,,,,,,,,,,,,,,,,30,,,,,,,,1315.478078099899,1315.478078099899,1315.478078099899,1315.478078099899,1315.478078099899,left,1.4436369000468403,2,0,0,99,0.23999999999999994,0.24,left,1.3653722000308335,,,,,,,,,,,,,,,,,,,,,,,,,,,,,,,,,,,,,,,,,,,,,,,,,,,,,,,,,,,,TZPARL,train_x,blue_star,top_right,2025-05-28_15h04.37.191,HideSeek_v1,2022.2.5,59.869341102956334,
,8,8,7,8,-1,0,51,,train_dim1_1,16,30,,,,2,0,2,0,,,,,,,,,0,0,0,0,0,15,15,15,3,0,3,0,,,,,,,,,,,,,,,,,,,,,,,,,,,,,,,,,,,,,,,,,,,,,,,,,,,,,,,,,,,,,,,,30,,,,,,,,1316.926915799966,1316.926915799966,1316.926915799966,1316.926915799966,1316.926915799966,left,0.5934957000426948,2,0,0,99,0.15999999999999992,0.24,left,0.5089902000036091,,,,,,,,,,,,,,,,,,,,,,,,,,,,,,,,,,,,,,,,,,,,,,,,,,,,,,,,,,,,TZPARL,train_x,blue_star,top_right,2025-05-28_15h04.37.191,HideSeek_v1,2022.2.5,59.869341102956334,
,8,8,7,8,-1,0,51,,train_dim1_1,16,30,,,,2,0,2,0,,,,,,,,,0,0,0,0,0,15,15,15,4,0,4,0,,,,,,,,,,,,,,,,,,,,,,,,,,,,,,,,,,,,,,,,,,,,,,,,,,,,,,,,,,,,,,,,30,,,,,,,,1317.5273257999215,1317.5273257999215,1317.5273257999215,1317.5273257999215,1317.5273257999215,return,0.3265064998995513,2,0,0,0,0.15999999999999992,0.24,return,0.23907110001891851,-10,-17,0.15999999999999992,0.24,,,,,,,,,,,,,,,,,,,,,,,,,,,,,,,,,,,,,,,,,,,,,,,,,,,,,,,,TZPARL,train_x,blue_star,top_right,2025-05-28_15h04.37.191,HideSeek_v1,2022.2.5,59.869341102956334,
,7,9,3,9,-4,0,21,,train_dim1_1,17,30,,,,2,0,2,0,,,,,,,,,0,0,0,0,0,16,16,16,0,0,0,0,,,,,,,,,,,,,,,,,,,,,,,,,stimuli/alien_stimuli/21.png,,,,,,,,,,,,,,,,,,,,,,,,,,,,,stimuli/alien_stimuli/51.png,51,8,18,,,,,,,30,,,,,,,,1323.8803678997792,1323.8803678997792,1323.8803678997792,1323.8803678997792,1323.8803678997792,left,2.45770789985545,2,0,0,99,0.32,0.32,left,2.3629715000279248,,,,,1322.3148093998898,1323.8803678997792,0.4,0.24,0.0,0.08,0.24,0.4,0.44,0.4,0.24,1319.433205299778,1319.433205299778,1319.433205299778,1319.433205299778,1319.433205299778,1319.433205299778,1319.433205299778,1319.433205299778,1319.4122587998163,3.0047279000282288,return,2.860272499965504,,,,,,,,,,,,,,,,,,,,,,,,,,,,,,,,,TZPARL,train_x,blue_star,top_right,2025-05-28_15h04.37.191,HideSeek_v1,2022.2.5,59.869341102956334,
,7,9,3,9,-4,0,21,,train_dim1_1,17,30,,,,2,0,2,0,,,,,,,,,0,0,0,0,0,16,16,16,1,0,1,0,,,,,,,,,,,,,,,,,,,,,,,,,,,,,,,,,,,,,,,,,,,,,,,,,,,,,,,,,,,,,,,,30,,,,,,,,1326.3396678999998,1326.3396678999998,1326.3396678999998,1326.3396678999998,1326.3396678999998,left,0.49291469994932413,2,0,0,99,0.24,0.32,left,0.40233299997635186,,,,,,,,,,,,,,,,,,,,,,,,,,,,,,,,,,,,,,,,,,,,,,,,,,,,,,,,,,,,TZPARL,train_x,blue_star,top_right,2025-05-28_15h04.37.191,HideSeek_v1,2022.2.5,59.869341102956334,
,7,9,3,9,-4,0,21,,train_dim1_1,17,30,,,,2,0,2,0,,,,,,,,,0,0,0,0,0,16,16,16,2,0,2,0,,,,,,,,,,,,,,,,,,,,,,,,,,,,,,,,,,,,,,,,,,,,,,,,,,,,,,,,,,,,,,,,30,,,,,,,,1326.8362401998602,1326.8362401998602,1326.8362401998602,1326.8362401998602,1326.8362401998602,left,0.47709110006690025,2,0,0,99,0.15999999999999998,0.32,left,0.3988816998898983,,,,,,,,,,,,,,,,,,,,,,,,,,,,,,,,,,,,,,,,,,,,,,,,,,,,,,,,,,,,TZPARL,train_x,blue_star,top_right,2025-05-28_15h04.37.191,HideSeek_v1,2022.2.5,59.869341102956334,
,7,9,3,9,-4,0,21,,train_dim1_1,17,30,,,,2,0,2,0,,,,,,,,,0,0,0,0,0,16,16,16,3,0,3,0,,,,,,,,,,,,,,,,,,,,,,,,,,,,,,,,,,,,,,,,,,,,,,,,,,,,,,,,,,,,,,,,30,,,,,,,,1327.3232975997962,1327.3232975997962,1327.3232975997962,1327.3232975997962,1327.3232975997962,left,0.443762400187552,2,0,0,99,0.07999999999999997,0.32,left,0.35360060003586113,,,,,,,,,,,,,,,,,,,,,,,,,,,,,,,,,,,,,,,,,,,,,,,,,,,,,,,,,,,,TZPARL,train_x,blue_star,top_right,2025-05-28_15h04.37.191,HideSeek_v1,2022.2.5,59.869341102956334,
,7,9,3,9,-4,0,21,,train_dim1_1,17,30,,,,2,0,2,0,,,,,,,,,0,0,0,0,0,16,16,16,4,0,4,0,,,,,,,,,,,,,,,,,,,,,,,,,,,,,,,,,,,,,,,,,,,,,,,,,,,,,,,,,,,,,,,,30,,,,,,,,1327.7711511999369,1327.7711511999369,1327.7711511999369,1327.7711511999369,1327.7711511999369,left,0.3930629000533372,2,0,0,99,-2.7755575615628914e-17,0.32,left,0.3096986000891775,,,,,,,,,,,,,,,,,,,,,,,,,,,,,,,,,,,,,,,,,,,,,,,,,,,,,,,,,,,,TZPARL,train_x,blue_star,top_right,2025-05-28_15h04.37.191,HideSeek_v1,2022.2.5,59.869341102956334,
,7,9,3,9,-4,0,21,,train_dim1_1,17,30,,,,2,0,2,0,,,,,,,,,0,0,0,0,0,16,16,16,5,0,5,0,,,,,,,,,,,,,,,,,,,,,,,,,,,,,,,,,,,,,,,,,,,,,,,,,,,,,,,,,,,,,,,,30,,,,,,,,1328.1727381998207,1328.1727381998207,1328.1727381998207,1328.1727381998207,1328.1727381998207,left,0.3599528002087027,2,0,0,99,-0.08000000000000003,0.32,left,0.27890080003999174,,,,,,,,,,,,,,,,,,,,,,,,,,,,,,,,,,,,,,,,,,,,,,,,,,,,,,,,,,,,TZPARL,train_x,blue_star,top_right,2025-05-28_15h04.37.191,HideSeek_v1,2022.2.5,59.869341102956334,
,7,9,3,9,-4,0,21,,train_dim1_1,17,30,,,,2,0,2,0,,,,,,,,,0,0,0,0,0,16,16,16,6,0,6,0,,,,,,,,,,,,,,,,,,,,,,,,,,,,,,,,,,,,,,,,,,,,,,,,,,,,,,,,,,,,,,,,30,,,,,,,,1328.5437958999537,1328.5437958999537,1328.5437958999537,1328.5437958999537,1328.5437958999537,return,0.9606467999983579,2,0,0,0,-0.08000000000000003,0.32,return,0.873117099981755,-10,-23,-0.08000000000000003,0.32,,,,,,,,,,,,,,,,,,,,,,,,,,,,,,,,,,,,,,,,,,,,,,,,,,,,,,,,TZPARL,train_x,blue_star,top_right,2025-05-28_15h04.37.191,HideSeek_v1,2022.2.5,59.869341102956334,
,7,6,7,6,0,0,61,,train_dim1_1,18,30,,,,2,0,2,0,,,,,,,,,0,0,0,0,0,17,17,17,0,0,0,0,,,,,,,,,,,,,,,,,,,,,,,,,stimuli/alien_stimuli/61.png,,,,,,,,,,,,,,,,,,,,,,,,,,,,,stimuli/alien_stimuli/21.png,21,7,19,,,,,,,30,,,,,,,,1335.407355299918,1335.407355299918,1335.407355299918,1335.407355299918,1335.407355299918,return,1.4347384001594037,3,0,0,1,0.4,0.08,return,1.3505398998968303,-10,-23,0.4,0.08,1333.8411068997812,1335.407355299918,0.08,0.32,0.0,0.32,0.32,0.08,0.24000000000000002,0.08,0.32,1331.0884059998207,1331.0884059998207,1331.0884059998207,1331.0884059998207,1331.0884059998207,1331.0884059998207,1331.0884059998207,1331.0884059998207,1331.0720646997913,2.887687599984929,return,2.7334571999963373,,,,,,,,,,,,,,,,,,,,,,,,,,,,,,,,,TZPARL,train_x,blue_star,top_right,2025-05-28_15h04.37.191,HideSeek_v1,2022.2.5,59.869341102956334,
,5,8,2,8,-3,0,31,,train_dim1_1,19,30,,,,2,0,2,0,,,,,,,,,0,0,0,0,0,18,18,18,0,0,0,0,,,,,,,,,,,,,,,,,,,,,,,,,stimuli/alien_stimuli/31.png,,,,,,,,,,,,,,,,,,,,,,,,,,,,,stimuli/alien_stimuli/61.png,61,7,20,,,,,,,30,,,,,,,,1341.223680099938,1341.223680099938,1341.223680099938,1341.223680099938,1341.223680099938,left,2.5891930998768657,3,0,0,99,0.15999999999999998,0.24,left,2.4977017999626696,,,,,1339.6627058999147,1341.223680099938,0.4,0.08,0.0,0.0,0.08,0.4,0.4,0.4,0.08,1338.404175199801,1338.404175199801,1338.404175199801,1338.404175199801,1338.404175199801,1338.404175199801,1338.404175199801,1338.404175199801,1338.3947910998713,1.369943399913609,return,1.242147000040859,,,,,,,,,,,,,,,,,,,,,,,,,,,,,,,,,TZPARL,train_x,blue_star,top_right,2025-05-28_15h04.37.191,HideSeek_v1,2022.2.5,59.869341102956334,
,5,8,2,8,-3,0,31,,train_dim1_1,19,30,,,,2,0,2,0,,,,,,,,,0,0,0,0,0,18,18,18,1,0,1,0,,,,,,,,,,,,,,,,,,,,,,,,,,,,,,,,,,,,,,,,,,,,,,,,,,,,,,,,,,,,,,,,30,,,,,,,,1343.8193127999548,1343.8193127999548,1343.8193127999548,1343.8193127999548,1343.8193127999548,left,0.9264414999634027,3,0,0,99,0.07999999999999997,0.24,left,0.8324896001722664,,,,,,,,,,,,,,,,,,,,,,,,,,,,,,,,,,,,,,,,,,,,,,,,,,,,,,,,,,,,TZPARL,train_x,blue_star,top_right,2025-05-28_15h04.37.191,HideSeek_v1,2022.2.5,59.869341102956334,
,5,8,2,8,-3,0,31,,train_dim1_1,19,30,,,,2,0,2,0,,,,,,,,,0,0,0,0,0,18,18,18,2,0,2,0,,,,,,,,,,,,,,,,,,,,,,,,,,,,,,,,,,,,,,,,,,,,,,,,,,,,,,,,,,,,,,,,30,,,,,,,,1344.7495809998363,1344.7495809998363,1344.7495809998363,1344.7495809998363,1344.7495809998363,left,0.3432316998951137,3,0,0,99,-2.7755575615628914e-17,0.24,left,0.25793569977395236,,,,,,,,,,,,,,,,,,,,,,,,,,,,,,,,,,,,,,,,,,,,,,,,,,,,,,,,,,,,TZPARL,train_x,blue_star,top_right,2025-05-28_15h04.37.191,HideSeek_v1,2022.2.5,59.869341102956334,
,5,8,2,8,-3,0,31,,train_dim1_1,19,30,,,,2,0,2,0,,,,,,,,,0,0,0,0,0,18,18,18,3,0,3,0,,,,,,,,,,,,,,,,,,,,,,,,,,,,,,,,,,,,,,,,,,,,,,,,,,,,,,,,,,,,,,,,30,,,,,,,,1345.0982503998093,1345.0982503998093,1345.0982503998093,1345.0982503998093,1345.0982503998093,left,0.22630190011113882,3,0,0,99,-0.08000000000000003,0.24,left,0.1500057999510318,,,,,,,,,,,,,,,,,,,,,,,,,,,,,,,,,,,,,,,,,,,,,,,,,,,,,,,,,,,,TZPARL,train_x,blue_star,top_right,2025-05-28_15h04.37.191,HideSeek_v1,2022.2.5,59.869341102956334,
,5,8,2,8,-3,0,31,,train_dim1_1,19,30,,,,2,0,2,0,,,,,,,,,0,0,0,0,0,18,18,18,4,0,4,0,,,,,,,,,,,,,,,,,,,,,,,,,,,,,,,,,,,,,,,,,,,,,,,,,,,,,,,,,,,,,,,,30,,,,,,,,1345.3339839999098,1345.3339839999098,1345.3339839999098,1345.3339839999098,1345.3339839999098,return,0.9439022999722511,3,1,0,0,-0.08000000000000003,0.24,return,0.8596908999606967,-10,-27,-0.08000000000000003,0.24,,,,,,,,,,,,,,,,,,,,,,,,,,,,,,,,,,,,,,,,,,,,,,,,,,,,,,,,TZPARL,train_x,blue_star,top_right,2025-05-28_15h04.37.191,HideSeek_v1,2022.2.5,59.869341102956334,
,5,6,0,6,-5,0,11,,train_dim1_1,20,30,,,,2,0,2,0,,,,,,,,,0,0,0,0,0,19,19,19,0,0,0,0,,,,,,,,,,,,,,,,,,,,,,,,,stimuli/alien_stimuli/11.png,,,,,,,,,,,,,,,,,,,,,,,,,,,,,stimuli/alien_stimuli/31.png,31,5,21,,,,,,,30,,,,,,,,1356.4924310999922,1356.4924310999922,1356.4924310999922,1356.4924310999922,1356.4924310999922,left,3.3048115998972207,3,1,0,99,0.15999999999999998,0.08,left,3.220081700012088,,,,,1354.9252555998974,1356.4924310999922,0,0.24,0.0,0.24,0.24,0,0.12,0,0.24,1347.844186599832,1347.844186599832,1347.844186599832,1347.844186599832,1347.844186599832,1347.844186599832,1347.844186599832,1347.844186599832,1347.8360587998059,7.19118219986558,return,7.048953899880871,,,,,,,,,,,,,,,,,,,,,,,,,,,,,,,,,TZPARL,train_x,blue_star,top_right,2025-05-28_15h04.37.191,HideSeek_v1,2022.2.5,59.869341102956334,
,5,6,0,6,-5,0,11,,train_dim1_1,20,30,,,,2,0,2,0,,,,,,,,,0,0,0,0,0,19,19,19,1,0,1,0,,,,,,,,,,,,,,,,,,,,,,,,,,,,,,,,,,,,,,,,,,,,,,,,,,,,,,,,,,,,,,,,30,,,,,,,,1359.7994018997997,1359.7994018997997,1359.7994018997997,1359.7994018997997,1359.7994018997997,left,0.6098805000074208,3,1,0,99,0.07999999999999997,0.08,left,0.5150435999967158,,,,,,,,,,,,,,,,,,,,,,,,,,,,,,,,,,,,,,,,,,,,,,,,,,,,,,,,,,,,TZPARL,train_x,blue_star,top_right,2025-05-28_15h04.37.191,HideSeek_v1,2022.2.5,59.869341102956334,
,5,6,0,6,-5,0,11,,train_dim1_1,20,30,,,,2,0,2,0,,,,,,,,,0,0,0,0,0,19,19,19,2,0,2,0,,,,,,,,,,,,,,,,,,,,,,,,,,,,,,,,,,,,,,,,,,,,,,,,,,,,,,,,,,,,,,,,30,,,,,,,,1360.414165499853,1360.414165499853,1360.414165499853,1360.414165499853,1360.414165499853,left,0.4770227998960763,3,1,0,99,-2.7755575615628914e-17,0.08,left,0.38449779991060495,,,,,,,,,,,,,,,,,,,,,,,,,,,,,,,,,,,,,,,,,,,,,,,,,,,,,,,,,,,,TZPARL,train_x,blue_star,top_right,2025-05-28_15h04.37.191,HideSeek_v1,2022.2.5,59.869341102956334,
,5,6,0,6,-5,0,11,,train_dim1_1,20,30,,,,2,0,2,0,,,,,,,,,0,0,0,0,0,19,19,19,3,0,3,0,,,,,,,,,,,,,,,,,,,,,,,,,,,,,,,,,,,,,,,,,,,,,,,,,,,,,,,,,,,,,,,,30,,,,,,,,1360.8973375998903,1360.8973375998903,1360.8973375998903,1360.8973375998903,1360.8973375998903,left,0.5601666001603007,3,1,0,99,-0.08000000000000003,0.08,left,0.4732810999266803,,,,,,,,,,,,,,,,,,,,,,,,,,,,,,,,,,,,,,,,,,,,,,,,,,,,,,,,,,,,TZPARL,train_x,blue_star,top_right,2025-05-28_15h04.37.191,HideSeek_v1,2022.2.5,59.869341102956334,
,5,6,0,6,-5,0,11,,train_dim1_1,20,30,,,,2,0,2,0,,,,,,,,,0,0,0,0,0,19,19,19,4,0,4,0,,,,,,,,,,,,,,,,,,,,,,,,,,,,,,,,,,,,,,,,,,,,,,,,,,,,,,,,,,,,,,,,30,,,,,,,,1361.4647947999183,1361.4647947999183,1361.4647947999183,1361.4647947999183,1361.4647947999183,left,1.094014700036496,3,1,0,99,-0.16000000000000003,0.08,left,1.0021723001264036,,,,,,,,,,,,,,,,,,,,,,,,,,,,,,,,,,,,,,,,,,,,,,,,,,,,,,,,,,,,TZPARL,train_x,blue_star,top_right,2025-05-28_15h04.37.191,HideSeek_v1,2022.2.5,59.869341102956334,
,5,6,0,6,-5,0,11,,train_dim1_1,20,30,,,,2,0,2,0,,,,,,,,,0,0,0,0,0,19,19,19,5,0,5,0,,,,,,,,,,,,,,,,,,,,,,,,,,,,,,,,,,,,,,,,,,,,,,,,,,,,,,,,,,,,,,,,30,,,,,,,,1362.5653104998637,1362.5653104998637,1362.5653104998637,1362.5653104998637,1362.5653104998637,return,0.9105161998886615,4,0,0,1,-0.16000000000000003,0.08,return,0.8321268998552114,-10,-32,-0.16000000000000003,0.08,,,,,,,,,,,,,,,,,,,,,,,,,,,,,,,,,,,,,,,,,,,,,,,,,,,,,,,,TZPARL,train_x,blue_star,top_right,2025-05-28_15h04.37.191,HideSeek_v1,2022.2.5,59.869341102956334,
,9,7,6,7,-3,0,31,,train_dim1_1,21,30,,,,2,0,2,0,,,,,,,,,0,0,0,0,0,20,20,20,0,0,0,0,,,,,,,,,,,,,,,,,,,,,,,,,stimuli/alien_stimuli/31.png,,,,,,,,,,,,,,,,,,,,,,,,,,,,,stimuli/alien_stimuli/11.png,11,5,22,,,,,,,30,,,,,,,,1372.1993068999145,1372.1993068999145,1372.1993068999145,1372.1993068999145,1372.1993068999145,left,2.371888699941337,4,0,0,99,0.48000000000000004,0.16,left,2.279094200115651,,,,,1370.638339499943,1372.1993068999145,-0.16,0.08,0.0,0.4,0.08,-0.16,0.039999999999999994,-0.16,0.08,1365.0628601999488,1365.0628601999488,1365.0628601999488,1365.0628601999488,1365.0628601999488,1365.0628601999488,1365.0628601999488,1365.0628601999488,1365.0501941998489,5.706773600075394,return,5.548283100128174,,,,,,,,,,,,,,,,,,,,,,,,,,,,,,,,,TZPARL,train_x,blue_star,top_right,2025-05-28_15h04.37.191,HideSeek_v1,2022.2.5,59.869341102956334,
,9,7,6,7,-3,0,31,,train_dim1_1,21,30,,,,2,0,2,0,,,,,,,,,0,0,0,0,0,20,20,20,1,0,1,0,,,,,,,,,,,,,,,,,,,,,,,,,,,,,,,,,,,,,,,,,,,,,,,,,,,,,,,,,,,,,,,,30,,,,,,,,1374.572768899845,1374.572768899845,1374.572768899845,1374.572768899845,1374.572768899845,left,0.45973340002819896,4,0,0,99,0.4,0.16,left,0.3842333999928087,,,,,,,,,,,,,,,,,,,,,,,,,,,,,,,,,,,,,,,,,,,,,,,,,,,,,,,,,,,,TZPARL,train_x,blue_star,top_right,2025-05-28_15h04.37.191,HideSeek_v1,2022.2.5,59.869341102956334,
,9,7,6,7,-3,0,31,,train_dim1_1,21,30,,,,2,0,2,0,,,,,,,,,0,0,0,0,0,20,20,20,2,0,2,0,,,,,,,,,,,,,,,,,,,,,,,,,,,,,,,,,,,,,,,,,,,,,,,,,,,,,,,,,,,,,,,,30,,,,,,,,1375.0394717999734,1375.0394717999734,1375.0394717999734,1375.0394717999734,1375.0394717999734,left,0.3601389001123607,4,0,0,99,0.32,0.16,left,0.2736141998320818,,,,,,,,,,,,,,,,,,,,,,,,,,,,,,,,,,,,,,,,,,,,,,,,,,,,,,,,,,,,TZPARL,train_x,blue_star,top_right,2025-05-28_15h04.37.191,HideSeek_v1,2022.2.5,59.869341102956334,
,9,7,6,7,-3,0,31,,train_dim1_1,21,30,,,,2,0,2,0,,,,,,,,,0,0,0,0,0,20,20,20,3,0,3,0,,,,,,,,,,,,,,,,,,,,,,,,,,,,,,,,,,,,,,,,,,,,,,,,,,,,,,,,,,,,,,,,30,,,,,,,,1375.4079512997996,1375.4079512997996,1375.4079512997996,1375.4079512997996,1375.4079512997996,left,0.3102946998551488,4,0,0,99,0.24,0.16,left,0.2205197000876069,,,,,,,,,,,,,,,,,,,,,,,,,,,,,,,,,,,,,,,,,,,,,,,,,,,,,,,,,,,,TZPARL,train_x,blue_star,top_right,2025-05-28_15h04.37.191,HideSeek_v1,2022.2.5,59.869341102956334,
,9,7,6,7,-3,0,31,,train_dim1_1,21,30,,,,2,0,2,0,,,,,,,,,0,0,0,0,0,20,20,20,4,0,4,0,,,,,,,,,,,,,,,,,,,,,,,,,,,,,,,,,,,,,,,,,,,,,,,,,,,,,,,,,,,,,,,,30,,,,,,,,1375.7231259997934,1375.7231259997934,1375.7231259997934,1375.7231259997934,1375.7231259997934,left,0.2595379000995308,4,0,0,99,0.15999999999999998,0.16,left,0.18466670019552112,,,,,,,,,,,,,,,,,,,,,,,,,,,,,,,,,,,,,,,,,,,,,,,,,,,,,,,,,,,,TZPARL,train_x,blue_star,top_right,2025-05-28_15h04.37.191,HideSeek_v1,2022.2.5,59.869341102956334,
,9,7,6,7,-3,0,31,,train_dim1_1,21,30,,,,2,0,2,0,,,,,,,,,0,0,0,0,0,20,20,20,5,0,5,0,,,,,,,,,,,,,,,,,,,,,,,,,,,,,,,,,,,,,,,,,,,,,,,,,,,,,,,,,,,,,,,,30,,,,,,,,1375.9906306997873,1375.9906306997873,1375.9906306997873,1375.9906306997873,1375.9906306997873,left,0.2431408001575619,4,0,0,99,0.07999999999999997,0.16,left,0.15681560011580586,,,,,,,,,,,,,,,,,,,,,,,,,,,,,,,,,,,,,,,,,,,,,,,,,,,,,,,,,,,,TZPARL,train_x,blue_star,top_right,2025-05-28_15h04.37.191,HideSeek_v1,2022.2.5,59.869341102956334,
,9,7,6,7,-3,0,31,,train_dim1_1,21,30,,,,2,0,2,0,,,,,,,,,0,0,0,0,0,20,20,20,6,0,6,0,,,,,,,,,,,,,,,,,,,,,,,,,,,,,,,,,,,,,,,,,,,,,,,,,,,,,,,,,,,,,,,,30,,,,,,,,1376.2508559999987,1376.2508559999987,1376.2508559999987,1376.2508559999987,1376.2508559999987,left,0.20997629989869893,4,0,0,99,-2.7755575615628914e-17,0.16,left,0.1212210999801755,,,,,,,,,,,,,,,,,,,,,,,,,,,,,,,,,,,,,,,,,,,,,,,,,,,,,,,,,,,,TZPARL,train_x,blue_star,top_right,2025-05-28_15h04.37.191,HideSeek_v1,2022.2.5,59.869341102956334,
,9,7,6,7,-3,0,31,,train_dim1_1,21,30,,,,2,0,2,0,,,,,,,,,0,0,0,0,0,20,20,20,7,0,7,0,,,,,,,,,,,,,,,,,,,,,,,,,,,,,,,,,,,,,,,,,,,,,,,,,,,,,,,,,,,,,,,,30,,,,,,,,1376.4569291998632,1376.4569291998632,1376.4569291998632,1376.4569291998632,1376.4569291998632,return,1.0605921999085695,4,0,0,0,-2.7755575615628914e-17,0.16,return,0.9722572001628578,-10,-39,-2.7755575615628914e-17,0.16,,,,,,,,,,,,,,,,,,,,,,,,,,,,,,,,,,,,,,,,,,,,,,,,,,,,,,,,TZPARL,train_x,blue_star,top_right,2025-05-28_15h04.37.191,HideSeek_v1,2022.2.5,59.869341102956334,
,6,5,2,5,-4,0,21,,train_dim1_1,22,30,,,,2,0,2,0,,,,,,,,,0,0,0,0,0,21,21,21,0,0,0,0,,,,,,,,,,,,,,,,,,,,,,,,,stimuli/alien_stimuli/21.png,,,,,,,,,,,,,,,,,,,,,,,,,,,,,stimuli/alien_stimuli/31.png,31,9,23,,,,,,,30,,,,,,,,1384.3660873000044,1384.3660873000044,1384.3660873000044,1384.3660873000044,1384.3660873000044,left,1.96990150003694,4,0,0,99,0.24,0,left,1.8801477001979947,,,,,1382.7984062999021,1384.3660873000044,0.32,0.16,0.0,0.24,0.16,0.32,0.44000000000000006,0.32,0.16,1379.0987222997937,1379.0987222997937,1379.0987222997937,1379.0987222997937,1379.0987222997937,1379.0987222997937,1379.0987222997937,1379.0987222997937,1379.0785178997785,3.8217178999911994,return,3.671291399979964,,,,,,,,,,,,,,,,,,,,,,,,,,,,,,,,,TZPARL,train_x,blue_star,top_right,2025-05-28_15h04.37.191,HideSeek_v1,2022.2.5,59.869341102956334,
,6,5,2,5,-4,0,21,,train_dim1_1,22,30,,,,2,0,2,0,,,,,,,,,0,0,0,0,0,21,21,21,1,0,1,0,,,,,,,,,,,,,,,,,,,,,,,,,,,,,,,,,,,,,,,,,,,,,,,,,,,,,,,,,,,,,,,,30,,,,,,,,1386.3352728998289,1386.3352728998289,1386.3352728998289,1386.3352728998289,1386.3352728998289,left,0.44348479993641376,4,0,0,99,0.15999999999999998,0,left,0.35438380017876625,,,,,,,,,,,,,,,,,,,,,,,,,,,,,,,,,,,,,,,,,,,,,,,,,,,,,,,,,,,,TZPARL,train_x,blue_star,top_right,2025-05-28_15h04.37.191,HideSeek_v1,2022.2.5,59.869341102956334,
,6,5,2,5,-4,0,21,,train_dim1_1,22,30,,,,2,0,2,0,,,,,,,,,0,0,0,0,0,21,21,21,2,0,2,0,,,,,,,,,,,,,,,,,,,,,,,,,,,,,,,,,,,,,,,,,,,,,,,,,,,,,,,,,,,,,,,,30,,,,,,,,1386.7872233998496,1386.7872233998496,1386.7872233998496,1386.7872233998496,1386.7872233998496,left,0.8765473000239581,4,0,0,99,0.07999999999999997,0,left,0.7930375998839736,,,,,,,,,,,,,,,,,,,,,,,,,,,,,,,,,,,,,,,,,,,,,,,,,,,,,,,,,,,,TZPARL,train_x,blue_star,top_right,2025-05-28_15h04.37.191,HideSeek_v1,2022.2.5,59.869341102956334,
,6,5,2,5,-4,0,21,,train_dim1_1,22,30,,,,2,0,2,0,,,,,,,,,0,0,0,0,0,21,21,21,3,0,3,0,,,,,,,,,,,,,,,,,,,,,,,,,,,,,,,,,,,,,,,,,,,,,,,,,,,,,,,,,,,,,,,,30,,,,,,,,1387.6693649999797,1387.6693649999797,1387.6693649999797,1387.6693649999797,1387.6693649999797,left,0.6434944998472929,4,0,0,99,-2.7755575615628914e-17,0,left,0.5537912000436336,,,,,,,,,,,,,,,,,,,,,,,,,,,,,,,,,,,,,,,,,,,,,,,,,,,,,,,,,,,,TZPARL,train_x,blue_star,top_right,2025-05-28_15h04.37.191,HideSeek_v1,2022.2.5,59.869341102956334,
,6,5,2,5,-4,0,21,,train_dim1_1,22,30,,,,2,0,2,0,,,,,,,,,0,0,0,0,0,21,21,21,4,0,4,0,,,,,,,,,,,,,,,,,,,,,,,,,,,,,,,,,,,,,,,,,,,,,,,,,,,,,,,,,,,,,,,,30,,,,,,,,1388.3234473997727,1388.3234473997727,1388.3234473997727,1388.3234473997727,1388.3234473997727,left,0.426659099990502,4,0,0,99,-0.08000000000000003,0,left,0.3353353999555111,,,,,,,,,,,,,,,,,,,,,,,,,,,,,,,,,,,,,,,,,,,,,,,,,,,,,,,,,,,,TZPARL,train_x,blue_star,top_right,2025-05-28_15h04.37.191,HideSeek_v1,2022.2.5,59.869341102956334,
,6,5,2,5,-4,0,21,,train_dim1_1,22,30,,,,2,0,2,0,,,,,,,,,0,0,0,0,0,21,21,21,5,0,5,0,,,,,,,,,,,,,,,,,,,,,,,,,,,,,,,,,,,,,,,,,,,,,,,,,,,,,,,,,,,,,,,,30,,,,,,,,1388.7539852999616,1388.7539852999616,1388.7539852999616,1388.7539852999616,1388.7539852999616,return,0.9939705999568105,4,1,0,0,-0.08000000000000003,0,return,0.9170699000824243,-10,-44,-0.08000000000000003,0,,,,,,,,,,,,,,,,,,,,,,,,,,,,,,,,,,,,,,,,,,,,,,,,,,,,,,,,TZPARL,train_x,blue_star,top_right,2025-05-28_15h04.37.191,HideSeek_v1,2022.2.5,59.869341102956334,
,7,6,7,6,0,0,61,,train_dim1_1,23,30,,,,2,0,2,0,,,,,,,,,0,0,0,0,0,22,22,22,0,0,0,0,,,,,,,,,,,,,,,,,,,,,,,,,stimuli/alien_stimuli/61.png,,,,,,,,,,,,,,,,,,,,,,,,,,,,,stimuli/alien_stimuli/21.png,21,6,24,,,,,,,30,,,,,,,,1395.1229956999887,1395.1229956999887,1395.1229956999887,1395.1229956999887,1395.1229956999887,return,1.4699248000979424,5,0,0,1,0.4,0.08,return,1.358401799807325,-10,-44,0.4,0.08,1393.5405113999732,1395.1229956999887,0,0,0.0,0.32,0.0,0,0.16,0,0,1391.3388893997762,1391.3388893997762,1391.3388893997762,1391.3388893997762,1391.3388893997762,1391.3388893997762,1391.3388893997762,1391.3388893997762,1391.322124899784,2.3371085999533534,return,2.171170299872756,,,,,,,,,,,,,,,,,,,,,,,,,,,,,,,,,TZPARL,train_x,blue_star,top_right,2025-05-28_15h04.37.191,HideSeek_v1,2022.2.5,59.869341102956334,
,9,9,8,9,-1,0,51,,train_dim1_1,24,30,,,,2,0,2,0,,,,,,,,,0,0,0,0,0,23,23,23,0,0,0,0,,,,,,,,,,,,,,,,,,,,,,,,,stimuli/alien_stimuli/51.png,,,,,,,,,,,,,,,,,,,,,,,,,,,,,stimuli/alien_stimuli/61.png,61,7,25,,,,,,,30,,,,,,,,1400.9785050998908,1400.9785050998908,1400.9785050998908,1400.9785050998908,1400.9785050998908,left,2.8550345001276582,5,0,0,99,0.48000000000000004,0.32,left,2.759917499963194,,,,,1399.4119363999926,1400.9785050998908,0.4,0.08,0.0,0.0,0.08,0.4,0.4,0.4,0.08,1398.1365531999618,1398.1365531999618,1398.1365531999618,1398.1365531999618,1398.1365531999618,1398.1365531999618,1398.1365531999618,1398.1365531999618,1398.1276956998508,1.3866787999868393,return,1.243920300155878,,,,,,,,,,,,,,,,,,,,,,,,,,,,,,,,,TZPARL,train_x,blue_star,top_right,2025-05-28_15h04.37.191,HideSeek_v1,2022.2.5,59.869341102956334,
,9,9,8,9,-1,0,51,,train_dim1_1,24,30,,,,2,0,2,0,,,,,,,,,0,0,0,0,0,23,23,23,1,0,1,0,,,,,,,,,,,,,,,,,,,,,,,,,,,,,,,,,,,,,,,,,,,,,,,,,,,,,,,,,,,,,,,,30,,,,,,,,1403.8396921998356,1403.8396921998356,1403.8396921998356,1403.8396921998356,1403.8396921998356,left,0.19216510001569986,5,0,0,99,0.4,0.32,left,0.09802119992673397,,,,,,,,,,,,,,,,,,,,,,,,,,,,,,,,,,,,,,,,,,,,,,,,,,,,,,,,,,,,TZPARL,train_x,blue_star,top_right,2025-05-28_15h04.37.191,HideSeek_v1,2022.2.5,59.869341102956334,
,9,9,8,9,-1,0,51,,train_dim1_1,24,30,,,,2,0,2,0,,,,,,,,,0,0,0,0,0,23,23,23,2,0,2,0,,,,,,,,,,,,,,,,,,,,,,,,,,,,,,,,,,,,,,,,,,,,,,,,,,,,,,,,,,,,,,,,30,,,,,,,,1404.038482699776,1404.038482699776,1404.038482699776,1404.038482699776,1404.038482699776,left,0.1587354999501258,5,0,0,99,0.32,0.32,left,0.06712180003523827,,,,,,,,,,,,,,,,,,,,,,,,,,,,,,,,,,,,,,,,,,,,,,,,,,,,,,,,,,,,TZPARL,train_x,blue_star,top_right,2025-05-28_15h04.37.191,HideSeek_v1,2022.2.5,59.869341102956334,
,9,9,8,9,-1,0,51,,train_dim1_1,24,30,,,,2,0,2,0,,,,,,,,,0,0,0,0,0,23,23,23,3,0,3,0,,,,,,,,,,,,,,,,,,,,,,,,,,,,,,,,,,,,,,,,,,,,,,,,,,,,,,,,,,,,,,,,30,,,,,,,,1404.2046729999129,1404.2046729999129,1404.2046729999129,1404.2046729999129,1404.2046729999129,left,0.17644080007448792,5,0,0,99,0.24,0.32,left,0.07976539991796017,,,,,,,,,,,,,,,,,,,,,,,,,,,,,,,,,,,,,,,,,,,,,,,,,,,,,,,,,,,,TZPARL,train_x,blue_star,top_right,2025-05-28_15h04.37.191,HideSeek_v1,2022.2.5,59.869341102956334,
,9,9,8,9,-1,0,51,,train_dim1_1,24,30,,,,2,0,2,0,,,,,,,,,0,0,0,0,0,23,23,23,4,0,4,0,,,,,,,,,,,,,,,,,,,,,,,,,,,,,,,,,,,,,,,,,,,,,,,,,,,,,,,,,,,,,,,,30,,,,,,,,1404.3865412999876,1404.3865412999876,1404.3865412999876,1404.3865412999876,1404.3865412999876,left,0.15990079985931516,5,0,0,99,0.15999999999999998,0.32,left,0.06479229987598956,,,,,,,,,,,,,,,,,,,,,,,,,,,,,,,,,,,,,,,,,,,,,,,,,,,,,,,,,,,,TZPARL,train_x,blue_star,top_right,2025-05-28_15h04.37.191,HideSeek_v1,2022.2.5,59.869341102956334,
,9,9,8,9,-1,0,51,,train_dim1_1,24,30,,,,2,0,2,0,,,,,,,,,0,0,0,0,0,23,23,23,5,0,5,0,,,,,,,,,,,,,,,,,,,,,,,,,,,,,,,,,,,,,,,,,,,,,,,,,,,,,,,,,,,,,,,,30,,,,,,,,1404.5542528999504,1404.5542528999504,1404.5542528999504,1404.5542528999504,1404.5542528999504,left,0.49325270019471645,5,0,0,99,0.07999999999999997,0.32,left,0.39941459987312555,,,,,,,,,,,,,,,,,,,,,,,,,,,,,,,,,,,,,,,,,,,,,,,,,,,,,,,,,,,,TZPARL,train_x,blue_star,top_right,2025-05-28_15h04.37.191,HideSeek_v1,2022.2.5,59.869341102956334,
,9,9,8,9,-1,0,51,,train_dim1_1,24,30,,,,2,0,2,0,,,,,,,,,0,0,0,0,0,23,23,23,6,0,6,0,,,,,,,,,,,,,,,,,,,,,,,,,,,,,,,,,,,,,,,,,,,,,,,,,,,,,,,,,,,,,,,,30,,,,,,,,1405.050048999954,1405.050048999954,1405.050048999954,1405.050048999954,1405.050048999954,left,0.39349799999035895,5,0,0,99,-2.7755575615628914e-17,0.32,left,0.3084531999193132,,,,,,,,,,,,,,,,,,,,,,,,,,,,,,,,,,,,,,,,,,,,,,,,,,,,,,,,,,,,TZPARL,train_x,blue_star,top_right,2025-05-28_15h04.37.191,HideSeek_v1,2022.2.5,59.869341102956334,
,9,9,8,9,-1,0,51,,train_dim1_1,24,30,,,,2,0,2,0,,,,,,,,,0,0,0,0,0,23,23,23,7,0,7,0,,,,,,,,,,,,,,,,,,,,,,,,,,,,,,,,,,,,,,,,,,,,,,,,,,,,,,,,,,,,,,,,30,,,,,,,,1405.4529656998347,1405.4529656998347,1405.4529656998347,1405.4529656998347,1405.4529656998347,left,0.39334660000167787,5,0,0,99,-0.08000000000000003,0.32,left,0.30352770001627505,,,,,,,,,,,,,,,,,,,,,,,,,,,,,,,,,,,,,,,,,,,,,,,,,,,,,,,,,,,,TZPARL,train_x,blue_star,top_right,2025-05-28_15h04.37.191,HideSeek_v1,2022.2.5,59.869341102956334,
,9,9,8,9,-1,0,51,,train_dim1_1,24,30,,,,2,0,2,0,,,,,,,,,0,0,0,0,0,23,23,23,8,0,8,0,,,,,,,,,,,,,,,,,,,,,,,,,,,,,,,,,,,,,,,,,,,,,,,,,,,,,,,,,,,,,,,,30,,,,,,,,1405.849340699846,1405.849340699846,1405.849340699846,1405.849340699846,1405.849340699846,return,1.2108021001331508,5,0,0,0,-0.08000000000000003,0.32,return,1.1292286000680178,-10,-52,-0.08000000000000003,0.32,,,,,,,,,,,,,,,,,,,,,,,,,,,,,,,,,,,,,,,,,,,,,,,,,,,,,,,,TZPARL,train_x,blue_star,top_right,2025-05-28_15h04.37.191,HideSeek_v1,2022.2.5,59.869341102956334,
,8,5,3,5,-5,0,11,,train_dim1_1,25,30,,,,2,0,2,0,,,,,,,,,0,0,0,0,0,24,24,24,0,0,0,0,,,,,,,,,,,,,,,,,,,,,,,,,stimuli/alien_stimuli/11.png,,,,,,,,,,,,,,,,,,,,,,,,,,,,,stimuli/alien_stimuli/51.png,51,9,26,,,,,,,30,,,,,,,,1412.566189999925,1412.566189999925,1412.566189999925,1412.566189999925,1412.566189999925,left,1.6703077999409288,5,0,0,99,0.39999999999999997,0,left,1.5666511000599712,,,,,1410.98834479996,1412.566189999925,0.48,0.32,0.0,0.08,0.32,0.48,0.52,0.48,0.32,1408.63468379993,1408.63468379993,1408.63468379993,1408.63468379993,1408.63468379993,1408.63468379993,1408.63468379993,1408.63468379993,1408.6196925997965,2.4709348001051694,return,2.3315726998262107,,,,,,,,,,,,,,,,,,,,,,,,,,,,,,,,,TZPARL,train_x,blue_star,top_right,2025-05-28_15h04.37.191,HideSeek_v1,2022.2.5,59.869341102956334,
,8,5,3,5,-5,0,11,,train_dim1_1,25,30,,,,2,0,2,0,,,,,,,,,0,0,0,0,0,24,24,24,1,0,1,0,,,,,,,,,,,,,,,,,,,,,,,,,,,,,,,,,,,,,,,,,,,,,,,,,,,,,,,,,,,,,,,,30,,,,,,,,1414.2285642998759,1414.2285642998759,1414.2285642998759,1414.2285642998759,1414.2285642998759,left,0.426085899816826,5,0,0,99,0.31999999999999995,0,left,0.3312001000158489,,,,,,,,,,,,,,,,,,,,,,,,,,,,,,,,,,,,,,,,,,,,,,,,,,,,,,,,,,,,TZPARL,train_x,blue_star,top_right,2025-05-28_15h04.37.191,HideSeek_v1,2022.2.5,59.869341102956334,
,8,5,3,5,-5,0,11,,train_dim1_1,25,30,,,,2,0,2,0,,,,,,,,,0,0,0,0,0,24,24,24,2,0,2,0,,,,,,,,,,,,,,,,,,,,,,,,,,,,,,,,,,,,,,,,,,,,,,,,,,,,,,,,,,,,,,,,30,,,,,,,,1414.6686075998005,1414.6686075998005,1414.6686075998005,1414.6686075998005,1414.6686075998005,left,0.4603168999310583,5,0,0,99,0.23999999999999994,0,left,0.36115980008617043,,,,,,,,,,,,,,,,,,,,,,,,,,,,,,,,,,,,,,,,,,,,,,,,,,,,,,,,,,,,TZPARL,train_x,blue_star,top_right,2025-05-28_15h04.37.191,HideSeek_v1,2022.2.5,59.869341102956334,
,8,5,3,5,-5,0,11,,train_dim1_1,25,30,,,,2,0,2,0,,,,,,,,,0,0,0,0,0,24,24,24,3,0,3,0,,,,,,,,,,,,,,,,,,,,,,,,,,,,,,,,,,,,,,,,,,,,,,,,,,,,,,,,,,,,,,,,30,,,,,,,,1415.1264134999365,1415.1264134999365,1415.1264134999365,1415.1264134999365,1415.1264134999365,return,0.6431810001377016,5,0,0,0,0.23999999999999994,0,return,0.5573891000822186,-10,-55,0.23999999999999994,0,,,,,,,,,,,,,,,,,,,,,,,,,,,,,,,,,,,,,,,,,,,,,,,,,,,,,,,,TZPARL,train_x,blue_star,top_right,2025-05-28_15h04.37.191,HideSeek_v1,2022.2.5,59.869341102956334,
,6,6,6,6,0,0,61,,train_dim1_1,26,30,,,,2,0,2,0,,,,,,,,,0,0,0,0,0,25,25,25,0,0,0,0,,,,,,,,,,,,,,,,,,,,,,,,,stimuli/alien_stimuli/61.png,,,,,,,,,,,,,,,,,,,,,,,,,,,,,stimuli/alien_stimuli/11.png,11,8,27,,,,,,,30,,,,,,,,1421.8410672999453,1421.8410672999453,1421.8410672999453,1421.8410672999453,1421.8410672999453,return,1.6536107999272645,6,0,0,1,0.32,0.08,return,1.5650898998137563,-10,-55,0.32,0.08,1420.2797538999002,1421.8410672999453,0.08,0,0.0,0.4,0.0,0.08,0.27999999999999997,0.08,0,1417.3359369998798,1417.3359369998798,1417.3359369998798,1417.3359369998798,1417.3359369998798,1417.3359369998798,1417.3359369998798,1417.3359369998798,1417.3268351998877,3.054655999876559,return,2.926536099985242,,,,,,,,,,,,,,,,,,,,,,,,,,,,,,,,,TZPARL,train_x,blue_star,top_right,2025-05-28_15h04.37.191,HideSeek_v1,2022.2.5,59.869341102956334,
,5,6,2,6,-3,0,31,,train_dim1_1,27,30,,,,2,0,2,0,,,,,,,,,0,0,0,0,0,26,26,26,0,0,0,0,,,,,,,,,,,,,,,,,,,,,,,,,stimuli/alien_stimuli/31.png,,,,,,,,,,,,,,,,,,,,,,,,,,,,,stimuli/alien_stimuli/61.png,61,6,28,,,,,,,30,,,,,,,,1427.6950041998643,1427.6950041998643,1427.6950041998643,1427.6950041998643,1427.6950041998643,left,2.587398200063035,6,0,0,99,0.15999999999999998,0.08,left,2.4885521999094635,,,,,1426.1175272997934,1427.6950041998643,0.32,0.08,0.0,0.0,0.08,0.32,0.32,0.32,0.08,1425.0789033998735,1425.0789033998735,1425.0789033998735,1425.0789033998735,1425.0789033998735,1425.0789033998735,1425.0789033998735,1425.0789033998735,1425.0668207997921,1.1693287000525743,return,1.0083490000106394,,,,,,,,,,,,,,,,,,,,,,,,,,,,,,,,,TZPARL,train_x,blue_star,top_right,2025-05-28_15h04.37.191,HideSeek_v1,2022.2.5,59.869341102956334,
,5,6,2,6,-3,0,31,,train_dim1_1,27,30,,,,2,0,2,0,,,,,,,,,0,0,0,0,0,26,26,26,1,0,1,0,,,,,,,,,,,,,,,,,,,,,,,,,,,,,,,,,,,,,,,,,,,,,,,,,,,,,,,,,,,,,,,,30,,,,,,,,1430.272451599827,1430.272451599827,1430.272451599827,1430.272451599827,1430.272451599827,left,0.8591601001098752,6,0,0,99,0.07999999999999997,0.08,left,0.7685488001443446,,,,,,,,,,,,,,,,,,,,,,,,,,,,,,,,,,,,,,,,,,,,,,,,,,,,,,,,,,,,TZPARL,train_x,blue_star,top_right,2025-05-28_15h04.37.191,HideSeek_v1,2022.2.5,59.869341102956334,
,5,6,2,6,-3,0,31,,train_dim1_1,27,30,,,,2,0,2,0,,,,,,,,,0,0,0,0,0,26,26,26,2,0,2,0,,,,,,,,,,,,,,,,,,,,,,,,,,,,,,,,,,,,,,,,,,,,,,,,,,,,,,,,,,,,,,,,30,,,,,,,,1431.1369605998043,1431.1369605998043,1431.1369605998043,1431.1369605998043,1431.1369605998043,left,0.609136899933219,6,0,0,99,-2.7755575615628914e-17,0.08,left,0.534098899923265,,,,,,,,,,,,,,,,,,,,,,,,,,,,,,,,,,,,,,,,,,,,,,,,,,,,,,,,,,,,TZPARL,train_x,blue_star,top_right,2025-05-28_15h04.37.191,HideSeek_v1,2022.2.5,59.869341102956334,
,5,6,2,6,-3,0,31,,train_dim1_1,27,30,,,,2,0,2,0,,,,,,,,,0,0,0,0,0,26,26,26,3,0,3,0,,,,,,,,,,,,,,,,,,,,,,,,,,,,,,,,,,,,,,,,,,,,,,,,,,,,,,,,,,,,,,,,30,,,,,,,,1431.7536508999765,1431.7536508999765,1431.7536508999765,1431.7536508999765,1431.7536508999765,return,0.7104282998479903,7,0,0,1,-2.7755575615628914e-17,0.08,return,0.6244910000823438,-10,-58,-2.7755575615628914e-17,0.08,,,,,,,,,,,,,,,,,,,,,,,,,,,,,,,,,,,,,,,,,,,,,,,,,,,,,,,,TZPARL,train_x,blue_star,top_right,2025-05-28_15h04.37.191,HideSeek_v1,2022.2.5,59.869341102956334,
,8,6,4,6,-4,0,21,,train_dim1_1,28,30,,,,2,0,2,0,,,,,,,,,0,0,0,0,0,27,27,27,0,0,0,0,,,,,,,,,,,,,,,,,,,,,,,,,stimuli/alien_stimuli/21.png,,,,,,,,,,,,,,,,,,,,,,,,,,,,,stimuli/alien_stimuli/31.png,31,5,29,,,,,,,30,,,,,,,,1437.0577309997752,1437.0577309997752,1437.0577309997752,1437.0577309997752,1437.0577309997752,left,1.4538000000175089,7,0,0,99,0.39999999999999997,0.08,left,1.3447977001778781,,,,,1435.4754978998099,1437.0577309997752,0,0.08,0.0,0.24,0.08,0,0.12,0,0.08,1434.0339776999317,1434.0339776999317,1434.0339776999317,1434.0339776999317,1434.0339776999317,1434.0339776999317,1434.0339776999317,1434.0339776999317,1434.0242085998643,1.553227199940011,return,1.4211650998331606,,,,,,,,,,,,,,,,,,,,,,,,,,,,,,,,,TZPARL,train_x,blue_star,top_right,2025-05-28_15h04.37.191,HideSeek_v1,2022.2.5,59.869341102956334,
,8,6,4,6,-4,0,21,,train_dim1_1,28,30,,,,2,0,2,0,,,,,,,,,0,0,0,0,0,27,27,27,1,0,1,0,,,,,,,,,,,,,,,,,,,,,,,,,,,,,,,,,,,,,,,,,,,,,,,,,,,,,,,,,,,,,,,,30,,,,,,,,1438.4985126999673,1438.4985126999673,1438.4985126999673,1438.4985126999673,1438.4985126999673,left,0.8583154000807554,7,0,0,99,0.31999999999999995,0.08,left,0.7662683001253754,,,,,,,,,,,,,,,,,,,,,,,,,,,,,,,,,,,,,,,,,,,,,,,,,,,,,,,,,,,,TZPARL,train_x,blue_star,top_right,2025-05-28_15h04.37.191,HideSeek_v1,2022.2.5,59.869341102956334,
,8,6,4,6,-4,0,21,,train_dim1_1,28,30,,,,2,0,2,0,,,,,,,,,0,0,0,0,0,27,27,27,2,0,2,0,,,,,,,,,,,,,,,,,,,,,,,,,,,,,,,,,,,,,,,,,,,,,,,,,,,,,,,,,,,,,,,,30,,,,,,,,1439.3636971998494,1439.3636971998494,1439.3636971998494,1439.3636971998494,1439.3636971998494,left,0.9261574000120163,7,0,0,99,0.23999999999999994,0.08,left,0.8341492000035942,,,,,,,,,,,,,,,,,,,,,,,,,,,,,,,,,,,,,,,,,,,,,,,,,,,,,,,,,,,,TZPARL,train_x,blue_star,top_right,2025-05-28_15h04.37.191,HideSeek_v1,2022.2.5,59.869341102956334,
,8,6,4,6,-4,0,21,,train_dim1_1,28,30,,,,2,0,2,0,,,,,,,,,0,0,0,0,0,27,27,27,3,0,3,0,,,,,,,,,,,,,,,,,,,,,,,,,,,,,,,,,,,,,,,,,,,,,,,,,,,,,,,,,,,,,,,,30,,,,,,,,1440.2977965997998,1440.2977965997998,1440.2977965997998,1440.2977965997998,1440.2977965997998,left,0.7935605999082327,7,0,0,99,0.15999999999999992,0.08,left,0.7109075000043958,,,,,,,,,,,,,,,,,,,,,,,,,,,,,,,,,,,,,,,,,,,,,,,,,,,,,,,,,,,,TZPARL,train_x,blue_star,top_right,2025-05-28_15h04.37.191,HideSeek_v1,2022.2.5,59.869341102956334,
,8,6,4,6,-4,0,21,,train_dim1_1,28,30,,,,2,0,2,0,,,,,,,,,0,0,0,0,0,27,27,27,4,0,4,0,,,,,,,,,,,,,,,,,,,,,,,,,,,,,,,,,,,,,,,,,,,,,,,,,,,,,,,,,,,,,,,,30,,,,,,,,1441.0988397998735,1441.0988397998735,1441.0988397998735,1441.0988397998735,1441.0988397998735,left,0.8772358000278473,7,0,0,99,0.07999999999999992,0.08,left,0.7940783998928964,,,,,,,,,,,,,,,,,,,,,,,,,,,,,,,,,,,,,,,,,,,,,,,,,,,,,,,,,,,,TZPARL,train_x,blue_star,top_right,2025-05-28_15h04.37.191,HideSeek_v1,2022.2.5,59.869341102956334,
,8,6,4,6,-4,0,21,,train_dim1_1,28,30,,,,2,0,2,0,,,,,,,,,0,0,0,0,0,27,27,27,5,0,5,0,,,,,,,,,,,,,,,,,,,,,,,,,,,,,,,,,,,,,,,,,,,,,,,,,,,,,,,,,,,,,,,,30,,,,,,,,1441.982028099941,1441.982028099941,1441.982028099941,1441.982028099941,1441.982028099941,return,0.6935078999958932,7,1,0,0,0.07999999999999992,0.08,return,0.6010992000810802,-10,-63,0.07999999999999992,0.08,,,,,,,,,,,,,,,,,,,,,,,,,,,,,,,,,,,,,,,,,,,,,,,,,,,,,,,,TZPARL,train_x,blue_star,top_right,2025-05-28_15h04.37.191,HideSeek_v1,2022.2.5,59.869341102956334,
,9,5,8,5,-1,0,51,,train_dim1_1,29,30,,,,2,0,2,0,,,,,,,,,0,0,0,0,0,28,28,28,0,0,0,0,,,,,,,,,,,,,,,,,,,,,,,,,stimuli/alien_stimuli/51.png,,,,,,,,,,,,,,,,,,,,,,,,,,,,,stimuli/alien_stimuli/21.png,21,8,30,,,,,,,30,,,,,,,,1448.766382599948,1448.766382599948,1448.766382599948,1448.766382599948,1448.766382599948,left,4.022811099886894,7,1,0,99,0.48000000000000004,0,left,3.9255729999858886,,,,,1447.201728399843,1448.766382599948,0.16,0.08,0.0,0.32,0.08,0.16,0.32,0.16,0.08,1444.2576076998375,1444.2576076998375,1444.2576076998375,1444.2576076998375,1444.2576076998375,1444.2576076998375,1444.2576076998375,1444.2576076998375,1444.249144799728,3.0712570999749005,return,2.915837600128725,,,,,,,,,,,,,,,,,,,,,,,,,,,,,,,,,TZPARL,train_x,blue_star,top_right,2025-05-28_15h04.37.191,HideSeek_v1,2022.2.5,59.869341102956334,
,9,5,8,5,-1,0,51,,train_dim1_1,29,30,,,,2,0,2,0,,,,,,,,,0,0,0,0,0,28,28,28,1,0,1,0,,,,,,,,,,,,,,,,,,,,,,,,,,,,,,,,,,,,,,,,,,,,,,,,,,,,,,,,,,,,,,,,30,,,,,,,,1452.804187099915,1452.804187099915,1452.804187099915,1452.804187099915,1452.804187099915,left,0.27659470005892217,7,1,0,99,0.4,0,left,0.18314979993738234,,,,,,,,,,,,,,,,,,,,,,,,,,,,,,,,,,,,,,,,,,,,,,,,,,,,,,,,,,,,TZPARL,train_x,blue_star,top_right,2025-05-28_15h04.37.191,HideSeek_v1,2022.2.5,59.869341102956334,
,9,5,8,5,-1,0,51,,train_dim1_1,29,30,,,,2,0,2,0,,,,,,,,,0,0,0,0,0,28,28,28,2,0,2,0,,,,,,,,,,,,,,,,,,,,,,,,,,,,,,,,,,,,,,,,,,,,,,,,,,,,,,,,,,,,,,,,30,,,,,,,,1453.0749776999,1453.0749776999,1453.0749776999,1453.0749776999,1453.0749776999,left,0.3097373000346124,7,1,0,99,0.32,0,left,0.23170350003056228,,,,,,,,,,,,,,,,,,,,,,,,,,,,,,,,,,,,,,,,,,,,,,,,,,,,,,,,,,,,TZPARL,train_x,blue_star,top_right,2025-05-28_15h04.37.191,HideSeek_v1,2022.2.5,59.869341102956334,
,9,5,8,5,-1,0,51,,train_dim1_1,29,30,,,,2,0,2,0,,,,,,,,,0,0,0,0,0,28,28,28,3,0,3,0,,,,,,,,,,,,,,,,,,,,,,,,,,,,,,,,,,,,,,,,,,,,,,,,,,,,,,,,,,,,,,,,30,,,,,,,,1453.4031509999186,1453.4031509999186,1453.4031509999186,1453.4031509999186,1453.4031509999186,left,0.24026109999977052,7,1,0,99,0.24,0,left,0.14915399998426437,,,,,,,,,,,,,,,,,,,,,,,,,,,,,,,,,,,,,,,,,,,,,,,,,,,,,,,,,,,,TZPARL,train_x,blue_star,top_right,2025-05-28_15h04.37.191,HideSeek_v1,2022.2.5,59.869341102956334,
,9,5,8,5,-1,0,51,,train_dim1_1,29,30,,,,2,0,2,0,,,,,,,,,0,0,0,0,0,28,28,28,4,0,4,0,,,,,,,,,,,,,,,,,,,,,,,,,,,,,,,,,,,,,,,,,,,,,,,,,,,,,,,,,,,,,,,,30,,,,,,,,1453.64054939989,1453.64054939989,1453.64054939989,1453.64054939989,1453.64054939989,left,0.2602345999330282,7,1,0,99,0.15999999999999998,0,left,0.17104950011707842,,,,,,,,,,,,,,,,,,,,,,,,,,,,,,,,,,,,,,,,,,,,,,,,,,,,,,,,,,,,TZPARL,train_x,blue_star,top_right,2025-05-28_15h04.37.191,HideSeek_v1,2022.2.5,59.869341102956334,
,9,5,8,5,-1,0,51,,train_dim1_1,29,30,,,,2,0,2,0,,,,,,,,,0,0,0,0,0,28,28,28,5,0,5,0,,,,,,,,,,,,,,,,,,,,,,,,,,,,,,,,,,,,,,,,,,,,,,,,,,,,,,,,,,,,,,,,30,,,,,,,,1453.9081516999286,1453.9081516999286,1453.9081516999286,1453.9081516999286,1453.9081516999286,left,0.2100432999432087,7,1,0,99,0.07999999999999997,0,left,0.12273719999939203,,,,,,,,,,,,,,,,,,,,,,,,,,,,,,,,,,,,,,,,,,,,,,,,,,,,,,,,,,,,TZPARL,train_x,blue_star,top_right,2025-05-28_15h04.37.191,HideSeek_v1,2022.2.5,59.869341102956334,
,9,5,8,5,-1,0,51,,train_dim1_1,29,30,,,,2,0,2,0,,,,,,,,,0,0,0,0,0,28,28,28,6,0,6,0,,,,,,,,,,,,,,,,,,,,,,,,,,,,,,,,,,,,,,,,,,,,,,,,,,,,,,,,,,,,,,,,30,,,,,,,,1454.1304794999305,1454.1304794999305,1454.1304794999305,1454.1304794999305,1454.1304794999305,left,0.22644759994000196,7,1,0,99,-2.7755575615628914e-17,0,left,0.132870800094679,,,,,,,,,,,,,,,,,,,,,,,,,,,,,,,,,,,,,,,,,,,,,,,,,,,,,,,,,,,,TZPARL,train_x,blue_star,top_right,2025-05-28_15h04.37.191,HideSeek_v1,2022.2.5,59.869341102956334,
,9,5,8,5,-1,0,51,,train_dim1_1,29,30,,,,2,0,2,0,,,,,,,,,0,0,0,0,0,28,28,28,7,0,7,0,,,,,,,,,,,,,,,,,,,,,,,,,,,,,,,,,,,,,,,,,,,,,,,,,,,,,,,,,,,,,,,,30,,,,,,,,1454.3618483999744,1454.3618483999744,1454.3618483999744,1454.3618483999744,1454.3618483999744,left,0.17644140007905662,7,1,0,99,-0.08000000000000003,0,left,0.0852862000465393,,,,,,,,,,,,,,,,,,,,,,,,,,,,,,,,,,,,,,,,,,,,,,,,,,,,,,,,,,,,TZPARL,train_x,blue_star,top_right,2025-05-28_15h04.37.191,HideSeek_v1,2022.2.5,59.869341102956334,
,9,5,8,5,-1,0,51,,train_dim1_1,29,30,,,,2,0,2,0,,,,,,,,,0,0,0,0,0,28,28,28,8,0,8,0,,,,,,,,,,,,,,,,,,,,,,,,,,,,,,,,,,,,,,,,,,,,,,,,,,,,,,,,,,,,,,,,30,,,,,,,,1454.5403358999174,1454.5403358999174,1454.5403358999174,1454.5403358999174,1454.5403358999174,left,0.4599428998772055,7,1,0,99,-0.16000000000000003,0,left,0.38031270005740225,,,,,,,,,,,,,,,,,,,,,,,,,,,,,,,,,,,,,,,,,,,,,,,,,,,,,,,,,,,,TZPARL,train_x,blue_star,top_right,2025-05-28_15h04.37.191,HideSeek_v1,2022.2.5,59.869341102956334,
,9,5,8,5,-1,0,51,,train_dim1_1,29,30,,,,2,0,2,0,,,,,,,,,0,0,0,0,0,28,28,28,9,0,9,0,,,,,,,,,,,,,,,,,,,,,,,,,,,,,,,,,,,,,,,,,,,,,,,,,,,,,,,,,,,,,,,,30,,,,,,,,1455.00738309999,1455.00738309999,1455.00738309999,1455.00738309999,1455.00738309999,return,0.8105083999689668,7,0,0,0,-0.16000000000000003,0,return,0.7262496999464929,-10,-72,-0.16000000000000003,0,,,,,,,,,,,,,,,,,,,,,,,,,,,,,,,,,,,,,,,,,,,,,,,,,,,,,,,,TZPARL,train_x,blue_star,top_right,2025-05-28_15h04.37.191,HideSeek_v1,2022.2.5,59.869341102956334,
,7,7,2,7,-5,0,11,,train_dim1_1,30,30,,,,2,0,2,0,,,,,,,,,0,0,0,0,0,29,29,29,0,0,0,0,,,,,,,,,,,,,,,,,,,,,,,,,stimuli/alien_stimuli/11.png,,,,,,,,,,,,,,,,,,,,,,,,,,,,,stimuli/alien_stimuli/51.png,51,9,31,,,,,,,30,,,,,,,,1461.491872599814,1461.491872599814,1461.491872599814,1461.491872599814,1461.491872599814,left,2.2582495999522507,7,0,0,99,0.32,0.16,left,2.148130999878049,,,,,1459.912288099993,1461.491872599814,0.48,0,0.0,0.08,0.0,0.48,0.52,0.48,0,1457.396139399847,1457.396139399847,1457.396139399847,1457.396139399847,1457.396139399847,1457.396139399847,1457.396139399847,1457.396139399847,1457.3768970998235,2.6377394997980446,return,2.496072799898684,,,,,,,,,,,,,,,,,,,,,,,,,,,,,,,,,TZPARL,train_x,blue_star,top_right,2025-05-28_15h04.37.191,HideSeek_v1,2022.2.5,59.869341102956334,
,7,7,2,7,-5,0,11,,train_dim1_1,30,30,,,,2,0,2,0,,,,,,,,,0,0,0,0,0,29,29,29,1,0,1,0,,,,,,,,,,,,,,,,,,,,,,,,,,,,,,,,,,,,,,,,,,,,,,,,,,,,,,,,,,,,,,,,30,,,,,,,,1463.733898999868,1463.733898999868,1463.733898999868,1463.733898999868,1463.733898999868,left,0.559388300171122,7,0,0,99,0.24,0.16,left,0.4737629999872297,,,,,,,,,,,,,,,,,,,,,,,,,,,,,,,,,,,,,,,,,,,,,,,,,,,,,,,,,,,,TZPARL,train_x,blue_star,top_right,2025-05-28_15h04.37.191,HideSeek_v1,2022.2.5,59.869341102956334,
,7,7,2,7,-5,0,11,,train_dim1_1,30,30,,,,2,0,2,0,,,,,,,,,0,0,0,0,0,29,29,29,2,0,2,0,,,,,,,,,,,,,,,,,,,,,,,,,,,,,,,,,,,,,,,,,,,,,,,,,,,,,,,,,,,,,,,,30,,,,,,,,1464.303183999844,1464.303183999844,1464.303183999844,1464.303183999844,1464.303183999844,left,0.6599895001854748,7,0,0,99,0.15999999999999998,0.16,left,0.5786250999663025,,,,,,,,,,,,,,,,,,,,,,,,,,,,,,,,,,,,,,,,,,,,,,,,,,,,,,,,,,,,TZPARL,train_x,blue_star,top_right,2025-05-28_15h04.37.191,HideSeek_v1,2022.2.5,59.869341102956334,
,7,7,2,7,-5,0,11,,train_dim1_1,30,30,,,,2,0,2,0,,,,,,,,,0,0,0,0,0,29,29,29,3,0,3,0,,,,,,,,,,,,,,,,,,,,,,,,,,,,,,,,,,,,,,,,,,,,,,,,,,,,,,,,,,,,,,,,30,,,,,,,,1464.9670397997834,1464.9670397997834,1464.9670397997834,1464.9670397997834,1464.9670397997834,left,0.5937657000031322,7,0,0,99,0.07999999999999997,0.16,left,0.5163919997867197,,,,,,,,,,,,,,,,,,,,,,,,,,,,,,,,,,,,,,,,,,,,,,,,,,,,,,,,,,,,TZPARL,train_x,blue_star,top_right,2025-05-28_15h04.37.191,HideSeek_v1,2022.2.5,59.869341102956334,
,7,7,2,7,-5,0,11,,train_dim1_1,30,30,,,,2,0,2,0,,,,,,,,,0,0,0,0,0,29,29,29,4,0,4,0,,,,,,,,,,,,,,,,,,,,,,,,,,,,,,,,,,,,,,,,,,,,,,,,,,,,,,,,,,,,,,,,30,,,,,,,,1465.5677564998623,1465.5677564998623,1465.5677564998623,1465.5677564998623,1465.5677564998623,left,0.5599716000724584,7,0,0,99,-2.7755575615628914e-17,0.16,left,0.4786816998384893,,,,,,,,,,,,,,,,,,,,,,,,,,,,,,,,,,,,,,,,,,,,,,,,,,,,,,,,,,,,TZPARL,train_x,blue_star,top_right,2025-05-28_15h04.37.191,HideSeek_v1,2022.2.5,59.869341102956334,
,7,7,2,7,-5,0,11,,train_dim1_1,30,30,,,,2,0,2,0,,,,,,,,,0,0,0,0,0,29,29,29,5,0,5,0,,,,,,,,,,,,,,,,,,,,,,,,,,,,,,,,,,,,,,,,,,,,,,,,,,,,,,,,,,,,,,,,30,,,,,,,,1466.136467000004,1466.136467000004,1466.136467000004,1466.136467000004,1466.136467000004,right,1.1105456000659615,7,0,0,99,0.07999999999999997,0.16,right,1.0301299002021551,,,,,,,,,,,,,,,,,,,,,,,,,,,,,,,,,,,,,,,,,,,,,,,,,,,,,,,,,,,,TZPARL,train_x,blue_star,top_right,2025-05-28_15h04.37.191,HideSeek_v1,2022.2.5,59.869341102956334,
,7,7,2,7,-5,0,11,,train_dim1_1,30,30,,,,2,0,2,0,,,,,,,,,0,0,0,0,0,29,29,29,6,0,6,0,,,,,,,,,,,,,,,,,,,,,,,,,,,,,,,,,,,,,,,,,,,,,,,,,,,,,,,,,,,,,,,,30,,,,,,,,1467.2519530998543,1467.2519530998543,1467.2519530998543,1467.2519530998543,1467.2519530998543,right,0.9107069000601768,7,0,0,99,0.15999999999999998,0.16,right,0.8279016998130828,,,,,,,,,,,,,,,,,,,,,,,,,,,,,,,,,,,,,,,,,,,,,,,,,,,,,,,,,,,,TZPARL,train_x,blue_star,top_right,2025-05-28_15h04.37.191,HideSeek_v1,2022.2.5,59.869341102956334,
,7,7,2,7,-5,0,11,,train_dim1_1,30,30,,,,2,0,2,0,,,,,,,,,0,0,0,0,0,29,29,29,7,0,7,0,,,,,,,,,,,,,,,,,,,,,,,,,,,,,,,,,,,,,,,,,,,,,,,,,,,,,,,,,,,,,,,,30,,,,,,,,1468.174474600004,1468.174474600004,1468.174474600004,1468.174474600004,1468.174474600004,right,0.2595706998836249,7,0,0,99,0.24,0.16,right,0.17009919998236,,,,,,,,,,,,,,,,,,,,,,,,,,,,,,,,,,,,,,,,,,,,,,,,,,,,,,,,,,,,TZPARL,train_x,blue_star,top_right,2025-05-28_15h04.37.191,HideSeek_v1,2022.2.5,59.869341102956334,
,7,7,2,7,-5,0,11,,train_dim1_1,30,30,,,,2,0,2,0,,,,,,,,,0,0,0,0,0,29,29,29,8,0,8,0,,,,,,,,,,,,,,,,,,,,,,,,,,,,,,,,,,,,,,,,,,,,,,,,,,,,,,,,,,,,,,,,30,,,,,,,,1468.442793399794,1468.442793399794,1468.442793399794,1468.442793399794,1468.442793399794,right,0.22627630014903843,7,0,0,99,0.32,0.16,right,0.1435891999863088,,,,,,,,,,,,,,,,,,,,,,,,,,,,,,,,,,,,,,,,,,,,,,,,,,,,,,,,,,,,TZPARL,train_x,blue_star,top_right,2025-05-28_15h04.37.191,HideSeek_v1,2022.2.5,59.869341102956334,
,7,7,2,7,-5,0,11,,train_dim1_1,30,30,,,,2,0,2,0,,,,,,,,,0,0,0,0,0,29,29,29,9,0,9,0,,,,,,,,,,,,,,,,,,,,,,,,,,,,,,,,,,,,,,,,,,,,,,,,,,,,,,,,,,,,,,,,30,,,,,,,,1468.6718563998584,1468.6718563998584,1468.6718563998584,1468.6718563998584,1468.6718563998584,right,0.4931918999645859,7,0,0,99,0.4,0.16,right,0.4144323000218719,,,,,,,,,,,,,,,,,,,,,,,,,,,,,,,,,,,,,,,,,,,,,,,,,,,,,,,,,,,,TZPARL,train_x,blue_star,top_right,2025-05-28_15h04.37.191,HideSeek_v1,2022.2.5,59.869341102956334,
,7,7,2,7,-5,0,11,,train_dim1_1,30,30,,,,2,0,2,0,,,,,,,,,0,0,0,0,0,29,29,29,10,0,10,0,,,,,,,,,,,,,,,,,,,,,,,,,,,,,,,,,,,,,,,,,,,,,,,,,,,,,,,,,,,,,,,,30,,,,,,,,1469.1790243999567,1469.1790243999567,1469.1790243999567,1469.1790243999567,1469.1790243999567,left,0.7355072000063956,7,0,0,99,0.32,0.16,left,0.6476413998752832,,,,,,,,,,,,,,,,,,,,,,,,,,,,,,,,,,,,,,,,,,,,,,,,,,,,,,,,,,,,TZPARL,train_x,blue_star,top_right,2025-05-28_15h04.37.191,HideSeek_v1,2022.2.5,59.869341102956334,
,7,7,2,7,-5,0,11,,train_dim1_1,30,30,,,,2,0,2,0,,,,,,,,,0,0,0,0,0,29,29,29,11,0,11,0,,,,,,,,,,,,,,,,,,,,,,,,,,,,,,,,,,,,,,,,,,,,,,,,,,,,,,,,,,,,,,,,30,,,,,,,,1469.9214701999445,1469.9214701999445,1469.9214701999445,1469.9214701999445,1469.9214701999445,left,0.6769898000638932,7,0,0,99,0.24,0.16,left,0.5959122001659125,,,,,,,,,,,,,,,,,,,,,,,,,,,,,,,,,,,,,,,,,,,,,,,,,,,,,,,,,,,,TZPARL,train_x,blue_star,top_right,2025-05-28_15h04.37.191,HideSeek_v1,2022.2.5,59.869341102956334,
,7,7,2,7,-5,0,11,,train_dim1_1,30,30,,,,2,0,2,0,,,,,,,,,0,0,0,0,0,29,29,29,12,0,12,0,,,,,,,,,,,,,,,,,,,,,,,,,,,,,,,,,,,,,,,,,,,,,,,,,,,,,,,,,,,,,,,,30,,,,,,,,1470.6050054999068,1470.6050054999068,1470.6050054999068,1470.6050054999068,1470.6050054999068,left,0.40997659997083247,7,0,0,99,0.15999999999999998,0.16,left,0.32886200002394617,,,,,,,,,,,,,,,,,,,,,,,,,,,,,,,,,,,,,,,,,,,,,,,,,,,,,,,,,,,,TZPARL,train_x,blue_star,top_right,2025-05-28_15h04.37.191,HideSeek_v1,2022.2.5,59.869341102956334,
,7,7,2,7,-5,0,11,,train_dim1_1,30,30,,,,2,0,2,0,,,,,,,,,0,0,0,0,0,29,29,29,13,0,13,0,,,,,,,,,,,,,,,,,,,,,,,,,,,,,,,,,,,,,,,,,,,,,,,,,,,,,,,,,,,,,,,,30,,,,,,,,1471.023359599989,1471.023359599989,1471.023359599989,1471.023359599989,1471.023359599989,return,0.3268653000704944,7,0,0,0,0.15999999999999998,0.16,return,0.24926419998519123,-10,-75,0.15999999999999998,0.16,,,,,,,,,,,,,,,,,,,,,,,,,,,,,,,,,,,,,,,,,,,,,,,,,,,,,,,,TZPARL,train_x,blue_star,top_right,2025-05-28_15h04.37.191,HideSeek_v1,2022.2.5,59.869341102956334,
,,,,,,,,,,,30,,,,2,0,2,0,,,,,,,,,,,,,,,,,,,,,,,,,,,,,,,,,,,,,,,,,,,,,,,,,,,,,,,,,,,,,,,,,,,,,,,,,,stimuli/alien_stimuli/11.png,11,7,32,21,0.7,0.2916666666666667,1,1,1,30,0,conditions/schedules/train_x_first/blue_star_00/top_right/inputTrain_2.1.xlsx,99,1,2,1,0,,,,,,,,,,,0,,,,,,,,,1480.4458728998434,1481.990962299984,0,0.16,0.0,0.4,0.16,0,0.2,0,0.16,1472.9283188998234,1472.9283188998234,1472.9283188998234,1472.9283188998234,1472.9283188998234,1472.9283188998234,1472.9283188998234,1472.9283188998234,1472.9228694997262,7.6417231999803334,return,7.491763100028038,0,0.9,0,1,7,,,,,,,,,,,,,,,,,,,,,,,,,,,,TZPARL,train_x,blue_star,top_right,2025-05-28_15h04.37.191,HideSeek_v1,2022.2.5,59.869341102956334,
,,,,,,,,,,,,,,,3,0,3,0,0,0,0,0,,,,,,,,,,,,,,,,,,,,,,,,,,,,,,,conditions/schedules/train_x_first/blue_star_00/top_right/instructions/Slide17.png,conditions/schedules/train_x_first/blue_star_00/top_right/instructions/Audio17.wav,1481.990962299984,1481.9807178998133,17,"[4.330714700045064, 18.194250599946827, 16.556821199832484, 19.30833389982581, 4.498993299901485, 4.669559200061485, 5.603828199906275, 11.71708850003779, 6.066803599940613, 7.701264299917966, 9.771471600048244, 12.551795599982142, 17.897330899955705, 12.957086000125855, 31.009687599958852, 22.11233020015061, 32.06293649994768]","[4.330723999999464, 0.00022259983234107494, 0.014467299915850163, 0.03052069991827011, 0.014237500028684735, 0.048967399867251515, 0.00022990000434219837, 0.00020070001482963562, 0.04753710003569722, 0.00021430011838674545, 0.030704899923875928, 12.551802400033921, 0.030448400182649493, 12.957093300065026, 31.0096950000152, 22.112337700091302, 32.062943700002506]",0,,,,,,,,,,,,,,,,,,,,,,,,,,,,,,,,,,,,,,,,,,,,,,,,,,,,,,,,,,,,,,,,,,,,,,,,,,,,,,,,,,,,,,,,,,,,,,,,,,,,,,,,,,,,,,,,,,,,,,,,,,,,TZPARL,train_x,blue_star,top_right,2025-05-28_15h04.37.191,HideSeek_v1,2022.2.5,59.869341102956334,
,,,,,,,,,,,,,,,3,0,3,0,1,0,1,0,,,,,,,,,,,,,,,,,,,,,,,,,,,,,,,conditions/schedules/train_x_first/blue_star_00/top_right/instructions/Slide18.png,conditions/schedules/train_x_first/blue_star_00/top_right/instructions/Audio18.wav,1514.1143555999734,1514.1072247997856,18,"[4.330714700045064, 18.194250599946827, 16.556821199832484, 19.30833389982581, 4.498993299901485, 4.669559200061485, 5.603828199906275, 11.71708850003779, 6.066803599940613, 7.701264299917966, 9.771471600048244, 12.551795599982142, 17.897330899955705, 12.957086000125855, 31.009687599958852, 22.11233020015061, 32.06293649994768, 6.6297810999676585]","[4.330723999999464, 0.00022259983234107494, 0.014467299915850163, 0.03052069991827011, 0.014237500028684735, 0.048967399867251515, 0.00022990000434219837, 0.00020070001482963562, 0.04753710003569722, 0.00021430011838674545, 0.030704899923875928, 12.551802400033921, 0.030448400182649493, 12.957093300065026, 31.0096950000152, 22.112337700091302, 32.062943700002506, 6.629787700017914]",0,,,,,,,,,,,,,,,,,,,,,,,,,,,,,,,,,,,,,,,,,,,,,,,,,,,,,,,,,,,,,,,,,,,,,,,,,,,,,,,,,,,,,,,,,,,,,,,,,,,,,,,,,,,,,,,,,,,,,,,,,,,,TZPARL,train_x,blue_star,top_right,2025-05-28_15h04.37.191,HideSeek_v1,2022.2.5,59.869341102956334,
,,,,,,,,,,,,,,,3,0,3,0,2,0,2,0,,,,,,,,,,,,,,,,,,,,,,,,,,,,,,,conditions/schedules/train_x_first/blue_star_00/top_right/instructions/Slide19.png,conditions/schedules/train_x_first/blue_star_00/top_right/instructions/Audio19.wav,1520.781766799977,1520.7794391997857,19,"[4.330714700045064, 18.194250599946827, 16.556821199832484, 19.30833389982581, 4.498993299901485, 4.669559200061485, 5.603828199906275, 11.71708850003779, 6.066803599940613, 7.701264299917966, 9.771471600048244, 12.551795599982142, 17.897330899955705, 12.957086000125855, 31.009687599958852, 22.11233020015061, 32.06293649994768, 6.6297810999676585, 10.520527299959213]","[4.330723999999464, 0.00022259983234107494, 0.014467299915850163, 0.03052069991827011, 0.014237500028684735, 0.048967399867251515, 0.00022990000434219837, 0.00020070001482963562, 0.04753710003569722, 0.00021430011838674545, 0.030704899923875928, 12.551802400033921, 0.030448400182649493, 12.957093300065026, 31.0096950000152, 22.112337700091302, 32.062943700002506, 0.03042500000447035, 10.520534300012514]",0,,,,,,,,,,,,,,,,,,,,,,,,,,,,,,,,,,,,,,,,,,,,,,,,,,,,,,,,,,,,,,,,,,,,,,,,,,,,,,,,,,,,,,,,,,,,,,,,,,,,,,,,,,,,,,,,,,,,,,,,,,,,TZPARL,train_x,blue_star,top_right,2025-05-28_15h04.37.191,HideSeek_v1,2022.2.5,59.869341102956334,
,,,,,,,,,,,,,,,3,0,3,0,3,0,3,0,,,,,,,,,,,,,,,,,,,,,,,,,,,,,,,conditions/schedules/train_x_first/blue_star_00/top_right/instructions/Slide20.png,conditions/schedules/train_x_first/blue_star_00/top_right/instructions/Audio20.wav,1531.376579699805,1531.3715540998382,20,"[4.330714700045064, 18.194250599946827, 16.556821199832484, 19.30833389982581, 4.498993299901485, 4.669559200061485, 5.603828199906275, 11.71708850003779, 6.066803599940613, 7.701264299917966, 9.771471600048244, 12.551795599982142, 17.897330899955705, 12.957086000125855, 31.009687599958852, 22.11233020015061, 32.06293649994768, 6.6297810999676585, 10.520527299959213, 13.987749699968845]","[4.330723999999464, 0.00022259983234107494, 0.014467299915850163, 0.03052069991827011, 0.014237500028684735, 0.048967399867251515, 0.00022990000434219837, 0.00020070001482963562, 0.04753710003569722, 0.00021430011838674545, 0.030704899923875928, 12.551802400033921, 0.030448400182649493, 12.957093300065026, 31.0096950000152, 22.112337700091302, 32.062943700002506, 0.03042500000447035, 10.520534300012514, 13.987756000133231]",0,,,,,,,,,,,,,,,,,,,,,,,,,,,,,,,,,,,,,,,,,,,,,,,,,,,,,,,,,,,,,,,,,,,,,,,,,,,,,,,,,,,,,,,,,,,,,,,,,,,,,,,,,,,,,,,,,,,,,,,,,,,,TZPARL,train_x,blue_star,top_right,2025-05-28_15h04.37.191,HideSeek_v1,2022.2.5,59.869341102956334,
