trialInstr,x_fixStart,y_fixStart,x_corrSteps,y_corrSteps,x_nrSteps,y_nrSteps,alienID,trialLength,version,trialTrain,praclen,testlen,trial_label,break_on_off,beforeExpLoop.thisRepN,beforeExpLoop.thisTrialN,beforeExpLoop.thisN,beforeExpLoop.thisIndex,mini_instr_trials.thisRepN,mini_instr_trials.thisTrialN,mini_instr_trials.thisN,mini_instr_trials.thisIndex,instrLoop.thisRepN,instrLoop.thisTrialN,instrLoop.thisN,instrLoop.thisIndex,repeat_prac.thisRepN,repeat_prac.thisTrialN,repeat_prac.thisN,repeat_prac.thisIndex,trainLoop.thisRepN,trainLoop.thisTrialN,trainLoop.thisN,trainLoop.thisIndex,moveLoop_train.thisRepN,moveLoop_train.thisTrialN,moveLoop_train.thisN,moveLoop_train.thisIndex,experiment.thisRepN,experiment.thisTrialN,experiment.thisN,experiment.thisIndex,moveLoop_test.thisRepN,moveLoop_test.thisTrialN,moveLoop_test.thisN,moveLoop_test.thisIndex,mini_instr2_trials.thisRepN,mini_instr2_trials.thisTrialN,mini_instr2_trials.thisN,mini_instr2_trials.thisIndex,start_all_time,url,slideStim,audioStim,slides.started,sounds.started,nextButton.numClicks,nextButton.timesOn,nextButton.timesOff,prev_but.numClicks,prev_but.timesOn,prev_but.timesOff,alienStim,instrFile,alienStim_instr,gridImage_instr.started,startPos_3.started,key_instr.started,alienImage_3.started,sounds_1.started,key_instr.keys,key_instr.rt,all_x,all_y,FBy_corrSteps,FBy_fixStart,FBx_corrSteps,FBx_fixStart,FBy_pathSize_check,FBx_pathSize_check,gridImage_9.started,alienImageFB_3.started,startPosFB_3.started,keyFB_3.started,pathLine_ydir_2.started,pathLine_xdir_2.started,alienFace_3.started,sounds_2.started,RTFB_instr,keyFB_3.keys,keyFB_3.rt,draw_alienStim,draw_alienID,test_x,nrepcount,perfthres,percthres,earlierperf,earlystop,nextPrac,fileidx,praclen,saveACC_train,pracFile,nextPrac_train,addNrep,fileidx_endr,repExp,showearly,gridImage_4.started,startPos.started,movePos.started,key_resp.started,alienImage.started,buttonPress_train,RTchoice_train,cumAcctrain,aCorr,saveACC_choice,corrAns,x_movePos_end,y_movePos_end,key_resp.keys,key_resp.rt,wLy_dir,wLx_dir,x_movePos,y_movePos,text_2.started,text_2.stopped,aft_x_corrPos,aft_y_corrPos,y_pathSize_check,x_pathSize_check,y_pathdirY,x_pathdirY,x_pathdirX,x_corrPos,y_corrPos,gridImage_6.started,alienImageFB_2.started,startPosFB_2.started,movePosFB_2.started,keyFB_2.started,pathLine_xdir.started,pathLine_ydir.started,alienFace.started,sounds_4.started,RT_FBtrain,keyFB_2.keys,keyFB_2.rt,saveACC_pre,ACC,within_saveACC_train,earlystop_wloop,cumAcctrain_check,gridImage_3.started,alienImage_test.started,startPos_test.started,movePos_test.started,key_resp_test.started,wLy_dir_test,wLx_dir_test,buttonPress_test,RTchoice_test,cumAcctest,corrAns_test,key_resp_test.keys,key_resp_test.rt,text_3.started,text_3.stopped,total_time,end_all_time,key_resp_3.keys,slides_2.started,sounds_3.started,nextButton_2.numClicks,nextButton_2.timesOn,nextButton_2.timesOff,prev_but_2.numClicks,prev_but_2.timesOn,prev_but_2.timesOff,bye.started,participant,train_first,00_coordinate,starting corner,date,expName,psychopyVersion,frameRate,
,,,,,,,,,,,,,,,0,0,0,0,0,0,0,0,,,,,,,,,,,,,,,,,,,,,,,,,,,,,start_all_time,testround,conditions/schedules/train_y_first/red_square_00/top_left/instructions/Slide1.png,conditions/schedules/train_y_first/red_square_00/top_left/instructions/Audio1.wav,5660.029456299992,5659.97972958082,1,[2.921385100024054],[2.921395000012126],0,,,,,,,,,,,,,,,,,,,,,,,,,,,,,,,,,,,,,,,,,,,,,,,,,,,,,,,,,,,,,,,,,,,,,,,,,,,,,,,,,,,,,,,,,,,,,,,,,,,,,,,,,,,,,,,,,,,,,,,,,,,,U80XZ2,train_y,red_square,top_left,2025-05-09_16h13.22.024,HideSeek_v1,2022.2.5,59.94093420027769,
,,,,,,,,,,,,,,,0,0,0,0,1,0,1,0,,,,,,,,,,,,,,,,,,,,,,,,,,,,,,,conditions/schedules/train_y_first/red_square_00/top_left/instructions/Slide2.png,conditions/schedules/train_y_first/red_square_00/top_left/instructions/Audio2.wav,5662.970740799996,5662.969721500005,2,"[2.921385100024054, 19.912916800007224]","[0.0310514000011608, 19.91292390000308]",0,,,,,,,,,,,,,,,,,,,,,,,,,,,,,,,,,,,,,,,,,,,,,,,,,,,,,,,,,,,,,,,,,,,,,,,,,,,,,,,,,,,,,,,,,,,,,,,,,,,,,,,,,,,,,,,,,,,,,,,,,,,,U80XZ2,train_y,red_square,top_left,2025-05-09_16h13.22.024,HideSeek_v1,2022.2.5,59.94093420027769,
,,,,,,,,,,,,,,,0,0,0,0,2,0,2,0,,,,,,,,,,,,,,,,,,,,,,,,,,,,,,,conditions/schedules/train_y_first/red_square_00/top_left/instructions/Slide3.png,conditions/schedules/train_y_first/red_square_00/top_left/instructions/Audio3.wav,5682.961745799985,5682.952561999991,3,"[2.921385100024054, 19.912916800007224, 16.535928999976022]","[0.0310514000011608, 0.013995999994222075, 16.53593639997416]",0,,,,,,,,,,,,,,,,,,,,,,,,,,,,,,,,,,,,,,,,,,,,,,,,,,,,,,,,,,,,,,,,,,,,,,,,,,,,,,,,,,,,,,,,,,,,,,,,,,,,,,,,,,,,,,,,,,,,,,,,,,,,U80XZ2,train_y,red_square,top_left,2025-05-09_16h13.22.024,HideSeek_v1,2022.2.5,59.94093420027769,
,,,,,,,,,,,,,,,0,0,0,0,3,0,3,0,,,,,,,,,,,,,,,,,,,,,,,,,,,,,,,conditions/schedules/train_y_first/red_square_00/top_left/instructions/Slide4.png,conditions/schedules/train_y_first/red_square_00/top_left/instructions/Audio4.wav,5699.581739199988,5699.583311140019,4,"[2.921385100024054, 19.912916800007224, 16.535928999976022, 19.748922099999618]","[0.0310514000011608, 0.013995999994222075, 0.03249899999354966, 19.748928499990143]",0,,,,,,,,,,,,,,,,,,,,,,,,,,,,,,,,,,,,,,,,,,,,,,,,,,,,,,,,,,,,,,,,,,,,,,,,,,,,,,,,,,,,,,,,,,,,,,,,,,,,,,,,,,,,,,,,,,,,,,,,,,,,U80XZ2,train_y,red_square,top_left,2025-05-09_16h13.22.024,HideSeek_v1,2022.2.5,59.94093420027769,
,,,,,,,,,,,,,,,0,0,0,0,4,0,4,0,,,,,,,,,,,,,,,,,,,,,,,,,,,,,,,conditions/schedules/train_y_first/red_square_00/top_left/instructions/Slide5.png,conditions/schedules/train_y_first/red_square_00/top_left/instructions/Audio5.wav,5719.401208700001,5719.399593000009,5,"[2.921385100024054, 19.912916800007224, 16.535928999976022, 19.748922099999618, 4.649418400018476]","[0.0310514000011608, 0.013995999994222075, 0.03249899999354966, 19.748928499990143, 4.649425500014331]",0,,,,,,,,,,,,,,,,,,,,,,,,,,,,,,,,,,,,,,,,,,,,,,,,,,,,,,,,,,,,,,,,,,,,,,,,,,,,,,,,,,,,,,,,,,,,,,,,,,,,,,,,,,,,,,,,,,,,,,,,,,,,U80XZ2,train_y,red_square,top_left,2025-05-09_16h13.22.024,HideSeek_v1,2022.2.5,59.94093420027769,
,,,,,,,,,,,,,,,0,0,0,0,5,0,5,0,,,,,,,,,,,,,,,,,,,,,,,,,,,,,,,conditions/schedules/train_y_first/red_square_00/top_left/instructions/Slide6.png,conditions/schedules/train_y_first/red_square_00/top_left/instructions/Audio6.wav,5724.1020583999925,5724.103562660014,6,"[2.921385100024054, 19.912916800007224, 16.535928999976022, 19.748922099999618, 4.649418400018476, 4.936159200005932]","[0.0310514000011608, 0.013995999994222075, 0.03249899999354966, 19.748928499990143, 0.013979500014102086, 4.936165699997218]",0,,,,,,,,,,,,,,,,,,,,,,,,,,,,,,,,,,,,,,,,,,,,,,,,,,,,,,,,,,,,,,,,,,,,,,,,,,,,,,,,,,,,,,,,,,,,,,,,,,,,,,,,,,,,,,,,,,,,,,,,,,,,U80XZ2,train_y,red_square,top_left,2025-05-09_16h13.22.024,HideSeek_v1,2022.2.5,59.94093420027769,
,,,,,,,,,,,,,,,0,0,0,0,6,0,6,0,,,,,,,,,,,,,,,,,,,,,,,,,,,,,,,conditions/schedules/train_y_first/red_square_00/top_left/instructions/Slide7.png,conditions/schedules/train_y_first/red_square_00/top_left/instructions/Audio7.wav,5729.09000169998,5729.0907124600135,7,"[2.921385100024054, 19.912916800007224, 16.535928999976022, 19.748922099999618, 4.649418400018476, 4.936159200005932, 5.319287999998778]","[0.0310514000011608, 0.013995999994222075, 0.03249899999354966, 19.748928499990143, 0.013979500014102086, 0.06507080001756549, 5.319295499997679]",0,,,,,,,,,,,,,,,,,,,,,,,,,,,,,,,,,,,,,,,,,,,,,,,,,,,,,,,,,,,,,,,,,,,,,,,,,,,,,,,,,,,,,,,,,,,,,,,,,,,,,,,,,,,,,,,,,,,,,,,,,,,,U80XZ2,train_y,red_square,top_left,2025-05-09_16h13.22.024,HideSeek_v1,2022.2.5,59.94093420027769,
,,,,,,,,,,,,,,,0,0,0,0,7,0,7,0,,,,,,,,,,,,,,,,,,,,,,,,,,,,,,,conditions/schedules/train_y_first/red_square_00/top_left/instructions/Slide8.png,conditions/schedules/train_y_first/red_square_00/top_left/instructions/Audio8.wav,5734.475534900004,5734.461991159996,8,"[2.921385100024054, 19.912916800007224, 16.535928999976022, 19.748922099999618, 4.649418400018476, 4.936159200005932, 5.319287999998778, 11.527371500007575]","[0.0310514000011608, 0.013995999994222075, 0.03249899999354966, 19.748928499990143, 0.013979500014102086, 0.06507080001756549, 0.06753279999247752, 11.527379999984987]",0,,,,,,,,,,,,,,,,,,,,,,,,,,,,,,,,,,,,,,,,,,,,,,,,,,,,,,,,,,,,,,,,,,,,,,,,,,,,,,,,,,,,,,,,,,,,,,,,,,,,,,,,,,,,,,,,,,,,,,,,,,,,U80XZ2,train_y,red_square,top_left,2025-05-09_16h13.22.024,HideSeek_v1,2022.2.5,59.94093420027769,
,,,,,,,,,,,,,,,0,0,0,0,8,0,8,0,,,,,,,,,,,,,,,,,,,,,,,,,,,,,,,conditions/schedules/train_y_first/red_square_00/top_left/instructions/Slide9.png,conditions/schedules/train_y_first/red_square_00/top_left/instructions/Audio9.wav,5746.074154300004,5746.071848599997,9,"[2.921385100024054, 19.912916800007224, 16.535928999976022, 19.748922099999618, 4.649418400018476, 4.936159200005932, 5.319287999998778, 11.527371500007575, 5.866737300006207]","[0.0310514000011608, 0.013995999994222075, 0.03249899999354966, 19.748928499990143, 0.013979500014102086, 0.06507080001756549, 0.06753279999247752, 0.030255600024247542, 5.866744200000539]",0,,,,,,,,,,,,,,,,,,,,,,,,,,,,,,,,,,,,,,,,,,,,,,,,,,,,,,,,,,,,,,,,,,,,,,,,,,,,,,,,,,,,,,,,,,,,,,,,,,,,,,,,,,,,,,,,,,,,,,,,,,,,U80XZ2,train_y,red_square,top_left,2025-05-09_16h13.22.024,HideSeek_v1,2022.2.5,59.94093420027769,
,,,,,,,,,,,,,,,0,0,0,0,9,0,9,0,,,,,,,,,,,,,,,,,,,,,,,,,,,,,,,conditions/schedules/train_y_first/red_square_00/top_left/instructions/Slide10.png,conditions/schedules/train_y_first/red_square_00/top_left/instructions/Audio10.wav,5751.98864559998,5751.97663362,10,"[2.921385100024054, 19.912916800007224, 16.535928999976022, 19.748922099999618, 4.649418400018476, 4.936159200005932, 5.319287999998778, 11.527371500007575, 5.866737300006207, 6.95830629998818]","[0.0310514000011608, 0.013995999994222075, 0.03249899999354966, 19.748928499990143, 0.013979500014102086, 0.06507080001756549, 0.06753279999247752, 0.030255600024247542, 0.0520556999836117, 6.958313199982513]",0,,,,,,,,,,,,,,,,,,,,,,,,,,,,,,,,,,,,,,,,,,,,,,,,,,,,,,,,,,,,,,,,,,,,,,,,,,,,,,,,,,,,,,,,,,,,,,,,,,,,,,,,,,,,,,,,,,,,,,,,,,,,U80XZ2,train_y,red_square,top_left,2025-05-09_16h13.22.024,HideSeek_v1,2022.2.5,59.94093420027769,
,,,,,,,,,,,,,,,0,0,0,0,10,0,10,0,,,,,,,,,,,,,,,,,,,,,,,,,,,,,,,conditions/schedules/train_y_first/red_square_00/top_left/instructions/Slide11.png,conditions/schedules/train_y_first/red_square_00/top_left/instructions/Audio11.wav,5759.006728899985,5758.999440559995,11,"[2.921385100024054, 19.912916800007224, 16.535928999976022, 19.748922099999618, 4.649418400018476, 4.936159200005932, 5.319287999998778, 11.527371500007575, 5.866737300006207, 6.95830629998818, 10.01458790001925]","[0.0310514000011608, 0.013995999994222075, 0.03249899999354966, 19.748928499990143, 0.013979500014102086, 0.06507080001756549, 0.06753279999247752, 0.030255600024247542, 0.0520556999836117, 0.05662370001664385, 10.014594300009776]",0,,,,,,,,,,,,,,,,,,,,,,,,,,,,,,,,,,,,,,,,,,,,,,,,,,,,,,,,,,,,,,,,,,,,,,,,,,,,,,,,,,,,,,,,,,,,,,,,,,,,,,,,,,,,,,,,,,,,,,,,,,,,U80XZ2,train_y,red_square,top_left,2025-05-09_16h13.22.024,HideSeek_v1,2022.2.5,59.94093420027769,
,,,,,,,,,,,,,,,0,0,0,0,11,0,11,0,,,,,,,,,,,,,,,,,,,,,,,,,,,,,,,conditions/schedules/train_y_first/red_square_00/top_left/instructions/Slide12.png,conditions/schedules/train_y_first/red_square_00/top_left/instructions/Audio12.wav,5769.076065799978,5769.074107560003,12,"[2.921385100024054, 19.912916800007224, 16.535928999976022, 19.748922099999618, 4.649418400018476, 4.936159200005932, 5.319287999998778, 11.527371500007575, 5.866737300006207, 6.95830629998818, 10.01458790001925, 14.040368199988734]","[0.0310514000011608, 0.013995999994222075, 0.03249899999354966, 19.748928499990143, 0.013979500014102086, 0.06507080001756549, 0.06753279999247752, 0.030255600024247542, 0.0520556999836117, 0.05662370001664385, 0.07861709999269806, 14.040374299976975]",0,,,,,,,,,,,,,,,,,,,,,,,,,,,,,,,,,,,,,,,,,,,,,,,,,,,,,,,,,,,,,,,,,,,,,,,,,,,,,,,,,,,,,,,,,,,,,,,,,,,,,,,,,,,,,,,,,,,,,,,,,,,,U80XZ2,train_y,red_square,top_left,2025-05-09_16h13.22.024,HideSeek_v1,2022.2.5,59.94093420027769,
1,2,8,2,3,0,-5,11,2,instr_dim1_1,,,,,,0,0,0,0,,,,,0,0,0,0,,,,,,,,,,,,,,,,,,,,,,,,,,,,,,,,,,,,,stimuli/alien_stimuli/11.png,conditions/schedules/train_y_first/red_square_00/top_left/inputInstr_1.xlsx,stimuli/alien_stimuli/11.png,5783.222859699978,5783.222859699978,5783.222859699978,5783.222859699978,5783.219234280008,return,11.024290800007293,"[-0.16, -0.08, 0, 0.08, 0.16, 0.24, 0.32, 0.4, 0.48, 0.56]","[-0.4, -0.32, -0.24, -0.16, -0.08, 0, 0.08, 0.16, 0.24, 0.32]",3,8,2,2,0.4,0.0,5794.425700199994,5794.425700199994,5794.425700199994,5794.425700199994,5794.425700199994,5794.425700199994,5794.425700199994,5794.411511360021,9.209014499996556,return,9.04030439996859,stimuli/alien_stimuli/11.png,11,2,1,,,,,,,,,,,,,,,,,,,,,,,,,,,,,,,,,,,,,,,,,,,,,,,,,,,,,,,,,,,,,,,,,,,,,,,,,,,,,,,,,,,,,,,,,U80XZ2,train_y,red_square,top_left,2025-05-09_16h13.22.024,HideSeek_v1,2022.2.5,59.94093420027769,
,,,,,,,,,,,30,,,,0,0,0,0,,,,,,,,,,,,,,,,,,,,,,,,,,,,,,,,,,,,,,,,,,,,,,,,,,,,,,,,,,,,,,,,,,,,,,,,,,,,,,21,0.7,0,0,99,1,30,0,conditions/schedules/train_y_first/red_square_00/top_left/inputTrain_1.1.xlsx,99,1,1,1,0,,,,,,,,,,,,,,,,,,,,,,,,,,,,,,,,,,,,,,,,,,,,,,,,,,,,,,,,,,,,,,,,,,,,,,,,,,,U80XZ2,train_y,red_square,top_left,2025-05-09_16h13.22.024,HideSeek_v1,2022.2.5,59.94093420027769,
,,,,,,,,,,,,,,,1,0,1,0,0,0,0,0,,,,,,,,,,,,,,,,,,,,,,,,,,,,,,,conditions/schedules/train_y_first/red_square_00/top_left/instructions/Slide13.png,conditions/schedules/train_y_first/red_square_00/top_left/instructions/Audio13.wav,5803.638441899995,5803.636083300022,13,"[2.921385100024054, 19.912916800007224, 16.535928999976022, 19.748922099999618, 4.649418400018476, 4.936159200005932, 5.319287999998778, 11.527371500007575, 5.866737300006207, 6.95830629998818, 10.01458790001925, 14.040368199988734, 16.70818300000974]","[0.0310514000011608, 0.013995999994222075, 0.03249899999354966, 19.748928499990143, 0.013979500014102086, 0.06507080001756549, 0.06753279999247752, 0.030255600024247542, 0.0520556999836117, 0.05662370001664385, 0.07861709999269806, 14.040374299976975, 16.708189400000265]",0,,,,,,,,,,,,,,,,,,,,,,,,,,,,,,,,,,,,,,,,,,,,,,,,,,,,,,,,,,,,,,,,,,,,,,,,,,,,,,,,,,,,,,,,,,,,,,,,,,,,,,,,,,,,,,,,,,,,,,,,,,,,U80XZ2,train_y,red_square,top_left,2025-05-09_16h13.22.024,HideSeek_v1,2022.2.5,59.94093420027769,
,,,,,,,,,,,,,,,1,0,1,0,1,0,1,0,,,,,,,,,,,,,,,,,,,,,,,,,,,,,,,conditions/schedules/train_y_first/red_square_00/top_left/instructions/Slide14.png,conditions/schedules/train_y_first/red_square_00/top_left/instructions/Audio14.wav,5820.415999899997,5820.41643350001,14,"[2.921385100024054, 19.912916800007224, 16.535928999976022, 19.748922099999618, 4.649418400018476, 4.936159200005932, 5.319287999998778, 11.527371500007575, 5.866737300006207, 6.95830629998818, 10.01458790001925, 14.040368199988734, 16.70818300000974, 17.045879100012826]","[0.0310514000011608, 0.013995999994222075, 0.03249899999354966, 19.748928499990143, 0.013979500014102086, 0.06507080001756549, 0.06753279999247752, 0.030255600024247542, 0.0520556999836117, 0.05662370001664385, 0.07861709999269806, 14.040374299976975, 0.014035400003194809, 17.04588540000259]",0,,,,,,,,,,,,,,,,,,,,,,,,,,,,,,,,,,,,,,,,,,,,,,,,,,,,,,,,,,,,,,,,,,,,,,,,,,,,,,,,,,,,,,,,,,,,,,,,,,,,,,,,,,,,,,,,,,,,,,,,,,,,U80XZ2,train_y,red_square,top_left,2025-05-09_16h13.22.024,HideSeek_v1,2022.2.5,59.94093420027769,
2,0,8,0,8,0,0,16,2,instr_dim1_1,,,,,,1,0,1,0,,,,,0,0,0,0,,,,,,,,,,,,,,,,,,,,,,,,,,,,,,,,,,,,,stimuli/alien_stimuli/16.png,conditions/schedules/train_y_first/red_square_00/top_left/inputInstr_1.xlsx,stimuli/alien_stimuli/16.png,5837.5659785000025,5837.5659785000025,5837.5659785000025,5837.5659785000025,5837.564511679997,return,6.635055199993076,"[-0.16, -0.08, 0, 0.08, 0.16, 0.24, 0.32, 0.4, 0.48, 0.56]","[-0.4, -0.32, -0.24, -0.16, -0.08, 0, 0.08, 0.16, 0.24, 0.32]",8,8,0,0,0.0,0.0,5844.349199999997,5844.349199999997,5844.349199999997,5844.349199999997,5844.349199999997,5844.349199999997,5844.349199999997,5844.33635262,8.87484730000142,return,8.717341699986719,stimuli/alien_stimuli/16.png,16,0,2,,,,,,,,,,,,,,,,,,,,,,,,,,,,,,,,,,,,,,,,,,,,,,,,,,,,,,,,,,,,,,,,,,,,,,,,,,,,,,,,,,,,,,,,,U80XZ2,train_y,red_square,top_left,2025-05-09_16h13.22.024,HideSeek_v1,2022.2.5,59.94093420027769,
,,,,,,,,,,,30,,,,1,0,1,0,,,,,,,,,,,,,,,,,,,,,,,,,,,,,,,,,,,,,,,,,,,,,,,,,,,,,,,,,,,,,,,,,,,,,,,,,,,,,,21,0.7,0,0,99,1,30,0,conditions/schedules/train_y_first/red_square_00/top_left/inputTrain_1.1.xlsx,99,1,1,1,0,,,,,,,,,,,,,,,,,,,,,,,,,,,,,,,,,,,,,,,,,,,,,,,,,,,,,,,,,,,,,,,,,,,,,,,,,,,U80XZ2,train_y,red_square,top_left,2025-05-09_16h13.22.024,HideSeek_v1,2022.2.5,59.94093420027769,
,,,,,,,,,,,,,,,2,0,2,0,0,0,0,0,,,,,,,,,,,,,,,,,,,,,,,,,,,,,,,conditions/schedules/train_y_first/red_square_00/top_left/instructions/Slide15.png,conditions/schedules/train_y_first/red_square_00/top_left/instructions/Audio15.wav,5853.271281900001,5853.260400740028,15,"[2.921385100024054, 19.912916800007224, 16.535928999976022, 19.748922099999618, 4.649418400018476, 4.936159200005932, 5.319287999998778, 11.527371500007575, 5.866737300006207, 6.95830629998818, 10.01458790001925, 14.040368199988734, 16.70818300000974, 17.045879100012826, 43.58941389998654]","[0.0310514000011608, 0.013995999994222075, 0.03249899999354966, 19.748928499990143, 0.013979500014102086, 0.06507080001756549, 0.06753279999247752, 0.030255600024247542, 0.0520556999836117, 0.05662370001664385, 0.07861709999269806, 14.040374299976975, 0.014035400003194809, 17.04588540000259, 43.58942049997859]",0,,,,,,,,,,,,,,,,,,,,,,,,,,,,,,,,,,,,,,,,,,,,,,,,,,,,,,,,,,,,,,,,,,,,,,,,,,,,,,,,,,,,,,,,,,,,,,,,,,,,,,,,,,,,,,,,,,,,,,,,,,,,U80XZ2,train_y,red_square,top_left,2025-05-09_16h13.22.024,HideSeek_v1,2022.2.5,59.94093420027769,
,,,,,,,,,,,,,,,2,0,2,0,1,0,1,0,,,,,,,,,,,,,,,,,,,,,,,,,,,,,,,conditions/schedules/train_y_first/red_square_00/top_left/instructions/Slide16.png,conditions/schedules/train_y_first/red_square_00/top_left/instructions/Audio16.wav,5896.938057799998,5896.929965599993,16,"[2.921385100024054, 19.912916800007224, 16.535928999976022, 19.748922099999618, 4.649418400018476, 4.936159200005932, 5.319287999998778, 11.527371500007575, 5.866737300006207, 6.95830629998818, 10.01458790001925, 14.040368199988734, 16.70818300000974, 17.045879100012826, 43.58941389998654, 25.87890869998955]","[0.0310514000011608, 0.013995999994222075, 0.03249899999354966, 19.748928499990143, 0.013979500014102086, 0.06507080001756549, 0.06753279999247752, 0.030255600024247542, 0.0520556999836117, 0.05662370001664385, 0.07861709999269806, 14.040374299976975, 0.014035400003194809, 17.04588540000259, 0.013920299999881536, 25.87891599998693]",0,,,,,,,,,,,,,,,,,,,,,,,,,,,,,,,,,,,,,,,,,,,,,,,,,,,,,,,,,,,,,,,,,,,,,,,,,,,,,,,,,,,,,,,,,,,,,,,,,,,,,,,,,,,,,,,,,,,,,,,,,,,,U80XZ2,train_y,red_square,top_left,2025-05-09_16h13.22.024,HideSeek_v1,2022.2.5,59.94093420027769,
,0,5,0,4,0,-1,15,,train_dim1_1,1,30,,,,2,0,2,0,,,,,,,,,0,0,0,0,0,0,0,0,0,0,0,0,,,,,,,,,,,,,,,,,,,,,,,,,stimuli/alien_stimuli/15.png,,,,,,,,,,,,,,,,,,,,,,,,,,,,,,,,,,,,,,,30,,,,,,,,5922.928520199988,5922.928520199988,5922.928520199988,5922.928520199988,5922.928520199988,right,6.011262100015301,0,0,0,99,-0.08,0,right,5.899013999995077,,,,,,,,,,,,,,,,,,,,,,,,,,,,,,,,,,,,,,,,,,,,,,,,,,,,,,,,,,,,U80XZ2,train_y,red_square,top_left,2025-05-09_16h13.22.024,HideSeek_v1,2022.2.5,59.94093420027769,
,0,5,0,4,0,-1,15,,train_dim1_1,1,30,,,,2,0,2,0,,,,,,,,,0,0,0,0,0,0,0,0,1,0,1,0,,,,,,,,,,,,,,,,,,,,,,,,,,,,,,,,,,,,,,,,,,,,,,,,,,,,,,,,,,,,,,,,30,,,,,,,,5928.9255634,5928.9255634,5928.9255634,5928.9255634,5928.9255634,right,4.496270599978743,0,0,0,99,0.0,0,right,4.409037000004901,,,,,,,,,,,,,,,,,,,,,,,,,,,,,,,,,,,,,,,,,,,,,,,,,,,,,,,,,,,,U80XZ2,train_y,red_square,top_left,2025-05-09_16h13.22.024,HideSeek_v1,2022.2.5,59.94093420027769,
,0,5,0,4,0,-1,15,,train_dim1_1,1,30,,,,2,0,2,0,,,,,,,,,0,0,0,0,0,0,0,0,2,0,2,0,,,,,,,,,,,,,,,,,,,,,,,,,,,,,,,,,,,,,,,,,,,,,,,,,,,,,,,,,,,,,,,,30,,,,,,,,5933.428457200003,5933.428457200003,5933.428457200003,5933.428457200003,5933.428457200003,down,2.344773200020427,0,0,0,99,0.0,-0.08,down,2.262767000007443,,,,,,,,,,,,,,,,,,,,,,,,,,,,,,,,,,,,,,,,,,,,,,,,,,,,,,,,,,,,U80XZ2,train_y,red_square,top_left,2025-05-09_16h13.22.024,HideSeek_v1,2022.2.5,59.94093420027769,
,0,5,0,4,0,-1,15,,train_dim1_1,1,30,,,,2,0,2,0,,,,,,,,,0,0,0,0,0,0,0,0,3,0,3,0,,,,,,,,,,,,,,,,,,,,,,,,,,,,,,,,,,,,,,,,,,,,,,,,,,,,,,,,,,,,,,,,30,,,,,,,,5935.778441599978,5935.778441599978,5935.778441599978,5935.778441599978,5935.778441599978,left,1.478032599989092,0,0,0,99,-0.08,-0.08,left,1.3894720999815036,,,,,,,,,,,,,,,,,,,,,,,,,,,,,,,,,,,,,,,,,,,,,,,,,,,,,,,,,,,,U80XZ2,train_y,red_square,top_left,2025-05-09_16h13.22.024,HideSeek_v1,2022.2.5,59.94093420027769,
,0,5,0,4,0,-1,15,,train_dim1_1,1,30,,,,2,0,2,0,,,,,,,,,0,0,0,0,0,0,0,0,4,0,4,0,,,,,,,,,,,,,,,,,,,,,,,,,,,,,,,,,,,,,,,,,,,,,,,,,,,,,,,,,,,,,,,,30,,,,,,,,5937.263846699992,5937.263846699992,5937.263846699992,5937.263846699992,5937.263846699992,left,1.327188399998704,0,0,0,99,-0.16,-0.08,left,1.239715299976524,,,,,,,,,,,,,,,,,,,,,,,,,,,,,,,,,,,,,,,,,,,,,,,,,,,,,,,,,,,,U80XZ2,train_y,red_square,top_left,2025-05-09_16h13.22.024,HideSeek_v1,2022.2.5,59.94093420027769,
,0,5,0,4,0,-1,15,,train_dim1_1,1,30,,,,2,0,2,0,,,,,,,,,0,0,0,0,0,0,0,0,5,0,5,0,,,,,,,,,,,,,,,,,,,,,,,,,,,,,,,,,,,,,,,,,,,,,,,,,,,,,,,,,,,,,,,,30,,,,,,,,5938.598745299998,5938.598745299998,5938.598745299998,5938.598745299998,5938.598745299998,up,0.6101321999740321,0,0,0,99,-0.16,0.0,up,0.5273733999929391,,,,,,,,,,,,,,,,,,,,,,,,,,,,,,,,,,,,,,,,,,,,,,,,,,,,,,,,,,,,U80XZ2,train_y,red_square,top_left,2025-05-09_16h13.22.024,HideSeek_v1,2022.2.5,59.94093420027769,
,0,5,0,4,0,-1,15,,train_dim1_1,1,30,,,,2,0,2,0,,,,,,,,,0,0,0,0,0,0,0,0,6,0,6,0,,,,,,,,,,,,,,,,,,,,,,,,,,,,,,,,,,,,,,,,,,,,,,,,,,,,,,,,,,,,,,,,30,,,,,,,,5939.215257599979,5939.215257599979,5939.215257599979,5939.215257599979,5939.215257599979,return,0.7436847000208218,0,1,0,0,-0.16,0.0,return,0.6518436999758705,0,0,-0.16,0.0,,,,,,,,,,,,,,,,,,,,,,,,,,,,,,,,,,,,,,,,,,,,,,,,,,,,,,,,U80XZ2,train_y,red_square,top_left,2025-05-09_16h13.22.024,HideSeek_v1,2022.2.5,59.94093420027769,
,3,7,3,7,0,0,16,,train_dim1_1,2,30,,,,2,0,2,0,,,,,,,,,0,0,0,0,0,1,1,1,0,0,0,0,,,,,,,,,,,,,,,,,,,,,,,,,stimuli/alien_stimuli/16.png,,,,,,,,,,,,,,,,,,,,,,,,,,,,,stimuli/alien_stimuli/15.png,15,0,3,,,,,,,30,,,,,,,,5970.399845699983,5970.399845699983,5970.399845699983,5970.399845699983,5970.399845699983,down,4.656928999989759,0,1,0,99,0.08,0.08,down,4.55898870000965,,,,,5968.82313449998,5970.399845699983,-0.16,-0.08,0.08,0.0,-0.04,-0.16,-0.16,-0.16,-0.08,5941.538729899999,5941.538729899999,5941.538729899999,5941.538729899999,5941.538729899999,5941.538729899999,5941.538729899999,5941.538729899999,5941.533481520007,27.408425999979954,return,27.26503720000619,,,,,,,,,,,,,,,,,,,,,,,,,,,,,,,,,U80XZ2,train_y,red_square,top_left,2025-05-09_16h13.22.024,HideSeek_v1,2022.2.5,59.94093420027769,
,3,7,3,7,0,0,16,,train_dim1_1,2,30,,,,2,0,2,0,,,,,,,,,0,0,0,0,0,1,1,1,1,0,1,0,,,,,,,,,,,,,,,,,,,,,,,,,,,,,,,,,,,,,,,,,,,,,,,,,,,,,,,,,,,,,,,,30,,,,,,,,5975.0461676999985,5975.0461676999985,5975.0461676999985,5975.0461676999985,5975.0461676999985,right,0.7433031999971718,0,1,0,99,0.16,0.08,right,0.6581093999848235,,,,,,,,,,,,,,,,,,,,,,,,,,,,,,,,,,,,,,,,,,,,,,,,,,,,,,,,,,,,U80XZ2,train_y,red_square,top_left,2025-05-09_16h13.22.024,HideSeek_v1,2022.2.5,59.94093420027769,
,3,7,3,7,0,0,16,,train_dim1_1,2,30,,,,2,0,2,0,,,,,,,,,0,0,0,0,0,1,1,1,2,0,2,0,,,,,,,,,,,,,,,,,,,,,,,,,,,,,,,,,,,,,,,,,,,,,,,,,,,,,,,,,,,,,,,,30,,,,,,,,5975.795924399979,5975.795924399979,5975.795924399979,5975.795924399979,5975.795924399979,return,0.7935349999752361,0,0,0,0,0.16,0.08,return,0.7042841000074986,-1,1,0.16,0.08,,,,,,,,,,,,,,,,,,,,,,,,,,,,,,,,,,,,,,,,,,,,,,,,,,,,,,,,U80XZ2,train_y,red_square,top_left,2025-05-09_16h13.22.024,HideSeek_v1,2022.2.5,59.94093420027769,
,2,8,2,5,0,-3,13,,train_dim1_1,3,30,,,,2,0,2,0,,,,,,,,,0,0,0,0,0,2,2,2,0,0,0,0,,,,,,,,,,,,,,,,,,,,,,,,,stimuli/alien_stimuli/13.png,,,,,,,,,,,,,,,,,,,,,,,,,,,,,stimuli/alien_stimuli/16.png,16,3,4,,,,,,,30,,,,,,,,5996.335428399994,5996.335428399994,5996.335428399994,5996.335428399994,5996.335428399994,right,4.225922200013883,0,0,0,99,0.08,0.24,right,4.115187399991555,,,,,5994.761130899977,5996.335428399994,0.08,0.16,0.0,0.0,0.16,0.08,0.08,0.08,0.16,5978.1638563000015,5978.1638563000015,5978.1638563000015,5978.1638563000015,5978.1638563000015,5978.1638563000015,5978.1638563000015,5978.1638563000015,5978.163971320016,16.71587559999898,return,16.571053399995435,,,,,,,,,,,,,,,,,,,,,,,,,,,,,,,,,U80XZ2,train_y,red_square,top_left,2025-05-09_16h13.22.024,HideSeek_v1,2022.2.5,59.94093420027769,
,2,8,2,5,0,-3,13,,train_dim1_1,3,30,,,,2,0,2,0,,,,,,,,,0,0,0,0,0,2,2,2,1,0,1,0,,,,,,,,,,,,,,,,,,,,,,,,,,,,,,,,,,,,,,,,,,,,,,,,,,,,,,,,,,,,,,,,30,,,,,,,,6000.549930599984,6000.549930599984,6000.549930599984,6000.549930599984,6000.549930599984,right,0.6262875999964308,0,0,0,99,0.16,0.24,right,0.5381579000095371,,,,,,,,,,,,,,,,,,,,,,,,,,,,,,,,,,,,,,,,,,,,,,,,,,,,,,,,,,,,U80XZ2,train_y,red_square,top_left,2025-05-09_16h13.22.024,HideSeek_v1,2022.2.5,59.94093420027769,
,2,8,2,5,0,-3,13,,train_dim1_1,3,30,,,,2,0,2,0,,,,,,,,,0,0,0,0,0,2,2,2,2,0,2,0,,,,,,,,,,,,,,,,,,,,,,,,,,,,,,,,,,,,,,,,,,,,,,,,,,,,,,,,,,,,,,,,30,,,,,,,,6001.183508999995,6001.183508999995,6001.183508999995,6001.183508999995,6001.183508999995,right,0.5103357000043616,0,0,0,99,0.24,0.24,right,0.42941630000132136,,,,,,,,,,,,,,,,,,,,,,,,,,,,,,,,,,,,,,,,,,,,,,,,,,,,,,,,,,,,U80XZ2,train_y,red_square,top_left,2025-05-09_16h13.22.024,HideSeek_v1,2022.2.5,59.94093420027769,
,2,8,2,5,0,-3,13,,train_dim1_1,3,30,,,,2,0,2,0,,,,,,,,,0,0,0,0,0,2,2,2,3,0,3,0,,,,,,,,,,,,,,,,,,,,,,,,,,,,,,,,,,,,,,,,,,,,,,,,,,,,,,,,,,,,,,,,30,,,,,,,,6001.699805599987,6001.699805599987,6001.699805599987,6001.699805599987,6001.699805599987,return,0.6267152999935206,0,0,0,0,0.24,0.24,return,0.5385552999796346,-1,4,0.24,0.24,,,,,,,,,,,,,,,,,,,,,,,,,,,,,,,,,,,,,,,,,,,,,,,,,,,,,,,,U80XZ2,train_y,red_square,top_left,2025-05-09_16h13.22.024,HideSeek_v1,2022.2.5,59.94093420027769,
,0,6,0,2,0,-4,12,,train_dim1_1,4,30,,,,2,0,2,0,,,,,,,,,0,0,0,0,0,3,3,3,0,0,0,0,,,,,,,,,,,,,,,,,,,,,,,,,stimuli/alien_stimuli/12.png,,,,,,,,,,,,,,,,,,,,,,,,,,,,,stimuli/alien_stimuli/13.png,13,2,5,,,,,,,30,,,,,,,,6008.513413399982,6008.513413399982,6008.513413399982,6008.513413399982,6008.513413399982,down,4.9582496999937575,0,0,0,99,-0.16,0.0,down,4.8651551000075415,,,,,6006.95461809999,6008.513413399982,0,0,0.24,0.0,0.12,0,0.0,0,0,6003.901765099989,6003.901765099989,6003.901765099989,6003.901765099989,6003.901765099989,6003.901765099989,6003.901765099989,6003.901765099989,6003.901856020023,3.1717525999993086,return,3.0228571000043303,,,,,,,,,,,,,,,,,,,,,,,,,,,,,,,,,U80XZ2,train_y,red_square,top_left,2025-05-09_16h13.22.024,HideSeek_v1,2022.2.5,59.94093420027769,
,0,6,0,2,0,-4,12,,train_dim1_1,4,30,,,,2,0,2,0,,,,,,,,,0,0,0,0,0,3,3,3,1,0,1,0,,,,,,,,,,,,,,,,,,,,,,,,,,,,,,,,,,,,,,,,,,,,,,,,,,,,,,,,,,,,,,,,30,,,,,,,,6013.478586499987,6013.478586499987,6013.478586499987,6013.478586499987,6013.478586499987,down,0.4766284999786876,0,0,0,99,-0.16,-0.08,down,0.3983853999816347,,,,,,,,,,,,,,,,,,,,,,,,,,,,,,,,,,,,,,,,,,,,,,,,,,,,,,,,,,,,U80XZ2,train_y,red_square,top_left,2025-05-09_16h13.22.024,HideSeek_v1,2022.2.5,59.94093420027769,
,0,6,0,2,0,-4,12,,train_dim1_1,4,30,,,,2,0,2,0,,,,,,,,,0,0,0,0,0,3,3,3,2,0,2,0,,,,,,,,,,,,,,,,,,,,,,,,,,,,,,,,,,,,,,,,,,,,,,,,,,,,,,,,,,,,,,,,30,,,,,,,,6013.961756899982,6013.961756899982,6013.961756899982,6013.961756899982,6013.961756899982,down,0.5932295999955386,0,0,0,99,-0.16,-0.16,down,0.502306000009412,,,,,,,,,,,,,,,,,,,,,,,,,,,,,,,,,,,,,,,,,,,,,,,,,,,,,,,,,,,,U80XZ2,train_y,red_square,top_left,2025-05-09_16h13.22.024,HideSeek_v1,2022.2.5,59.94093420027769,
,0,6,0,2,0,-4,12,,train_dim1_1,4,30,,,,2,0,2,0,,,,,,,,,0,0,0,0,0,3,3,3,3,0,3,0,,,,,,,,,,,,,,,,,,,,,,,,,,,,,,,,,,,,,,,,,,,,,,,,,,,,,,,,,,,,,,,,30,,,,,,,,6014.561262000003,6014.561262000003,6014.561262000003,6014.561262000003,6014.561262000003,return,0.743630300014047,0,1,0,0,-0.16,-0.16,return,0.6645046999910846,-4,4,-0.16,-0.16,,,,,,,,,,,,,,,,,,,,,,,,,,,,,,,,,,,,,,,,,,,,,,,,,,,,,,,,U80XZ2,train_y,red_square,top_left,2025-05-09_16h13.22.024,HideSeek_v1,2022.2.5,59.94093420027769,
,3,8,3,3,0,-5,11,,train_dim1_1,5,30,,,,2,0,2,0,,,,,,,,,0,0,0,0,0,4,4,4,0,0,0,0,,,,,,,,,,,,,,,,,,,,,,,,,stimuli/alien_stimuli/11.png,,,,,,,,,,,,,,,,,,,,,,,,,,,,,stimuli/alien_stimuli/12.png,12,0,6,,,,,,,30,,,,,,,,6021.740050799999,6021.740050799999,6021.740050799999,6021.740050799999,6021.740050799999,down,2.322899699996924,0,1,0,99,0.08,0.15999999999999998,down,2.2379861999943387,,,,,6020.1822076999815,6021.740050799999,-0.16,-0.24,0.32,0.0,-0.07999999999999999,-0.16,-0.16,-0.16,-0.24,6016.8752861999965,6016.8752861999965,6016.8752861999965,6016.8752861999965,6016.8752861999965,6016.8752861999965,6016.8752861999965,6016.8752861999965,6016.8627127799955,3.421557399997255,return,3.2878942000097595,,,,,,,,,,,,,,,,,,,,,,,,,,,,,,,,,U80XZ2,train_y,red_square,top_left,2025-05-09_16h13.22.024,HideSeek_v1,2022.2.5,59.94093420027769,
,3,8,3,3,0,-5,11,,train_dim1_1,5,30,,,,2,0,2,0,,,,,,,,,0,0,0,0,0,4,4,4,1,0,1,0,,,,,,,,,,,,,,,,,,,,,,,,,,,,,,,,,,,,,,,,,,,,,,,,,,,,,,,,,,,,,,,,30,,,,,,,,6024.069185999979,6024.069185999979,6024.069185999979,6024.069185999979,6024.069185999979,down,0.5427370999823324,0,1,0,99,0.08,0.07999999999999997,down,0.4565717999939807,,,,,,,,,,,,,,,,,,,,,,,,,,,,,,,,,,,,,,,,,,,,,,,,,,,,,,,,,,,,U80XZ2,train_y,red_square,top_left,2025-05-09_16h13.22.024,HideSeek_v1,2022.2.5,59.94093420027769,
,3,8,3,3,0,-5,11,,train_dim1_1,5,30,,,,2,0,2,0,,,,,,,,,0,0,0,0,0,4,4,4,2,0,2,0,,,,,,,,,,,,,,,,,,,,,,,,,,,,,,,,,,,,,,,,,,,,,,,,,,,,,,,,,,,,,,,,30,,,,,,,,6024.619200899993,6024.619200899993,6024.619200899993,6024.619200899993,6024.619200899993,down,0.49357249998138286,0,1,0,99,0.08,-2.7755575615628914e-17,down,0.4132701999915298,,,,,,,,,,,,,,,,,,,,,,,,,,,,,,,,,,,,,,,,,,,,,,,,,,,,,,,,,,,,U80XZ2,train_y,red_square,top_left,2025-05-09_16h13.22.024,HideSeek_v1,2022.2.5,59.94093420027769,
,3,8,3,3,0,-5,11,,train_dim1_1,5,30,,,,2,0,2,0,,,,,,,,,0,0,0,0,0,4,4,4,3,0,3,0,,,,,,,,,,,,,,,,,,,,,,,,,,,,,,,,,,,,,,,,,,,,,,,,,,,,,,,,,,,,,,,,30,,,,,,,,6025.119457699999,6025.119457699999,6025.119457699999,6025.119457699999,6025.119457699999,return,0.4101946000009775,0,0,0,0,0.08,-2.7755575615628914e-17,return,0.3346741999848746,-7,4,0.08,-2.7755575615628914e-17,,,,,,,,,,,,,,,,,,,,,,,,,,,,,,,,,,,,,,,,,,,,,,,,,,,,,,,,U80XZ2,train_y,red_square,top_left,2025-05-09_16h13.22.024,HideSeek_v1,2022.2.5,59.94093420027769,
,1,9,1,5,0,-4,12,,train_dim1_1,6,30,,,,2,0,2,0,,,,,,,,,0,0,0,0,0,5,5,5,0,0,0,0,,,,,,,,,,,,,,,,,,,,,,,,,stimuli/alien_stimuli/12.png,,,,,,,,,,,,,,,,,,,,,,,,,,,,,stimuli/alien_stimuli/11.png,11,3,7,,,,,,,30,,,,,,,,6032.114501000004,6032.114501000004,6032.114501000004,6032.114501000004,6032.114501000004,down,3.0905067000130657,0,0,0,99,-0.08,0.24,down,3.0062533000018448,,,,,6030.5574758999865,6032.114501000004,0.08,-0.16,0.4,0.0,0.039999999999999994,0.08,0.08,0.08,-0.16,6027.082168699999,6027.082168699999,6027.082168699999,6027.082168699999,6027.082168699999,6027.082168699999,6027.082168699999,6027.082168699999,6027.071140440012,3.5718196000088938,return,3.4570551000069827,,,,,,,,,,,,,,,,,,,,,,,,,,,,,,,,,U80XZ2,train_y,red_square,top_left,2025-05-09_16h13.22.024,HideSeek_v1,2022.2.5,59.94093420027769,
,1,9,1,5,0,-4,12,,train_dim1_1,6,30,,,,2,0,2,0,,,,,,,,,0,0,0,0,0,5,5,5,1,0,1,0,,,,,,,,,,,,,,,,,,,,,,,,,,,,,,,,,,,,,,,,,,,,,,,,,,,,,,,,,,,,,,,,30,,,,,,,,6035.212196299981,6035.212196299981,6035.212196299981,6035.212196299981,6035.212196299981,down,0.5596272999828216,0,0,0,99,-0.08,0.15999999999999998,down,0.47293940000236034,,,,,,,,,,,,,,,,,,,,,,,,,,,,,,,,,,,,,,,,,,,,,,,,,,,,,,,,,,,,U80XZ2,train_y,red_square,top_left,2025-05-09_16h13.22.024,HideSeek_v1,2022.2.5,59.94093420027769,
,1,9,1,5,0,-4,12,,train_dim1_1,6,30,,,,2,0,2,0,,,,,,,,,0,0,0,0,0,5,5,5,2,0,2,0,,,,,,,,,,,,,,,,,,,,,,,,,,,,,,,,,,,,,,,,,,,,,,,,,,,,,,,,,,,,,,,,30,,,,,,,,6035.78047279999,6035.78047279999,6035.78047279999,6035.78047279999,6035.78047279999,down,1.0752539999957662,0,0,0,99,-0.08,0.07999999999999997,down,0.9913430000015069,,,,,,,,,,,,,,,,,,,,,,,,,,,,,,,,,,,,,,,,,,,,,,,,,,,,,,,,,,,,U80XZ2,train_y,red_square,top_left,2025-05-09_16h13.22.024,HideSeek_v1,2022.2.5,59.94093420027769,
,1,9,1,5,0,-4,12,,train_dim1_1,6,30,,,,2,0,2,0,,,,,,,,,0,0,0,0,0,5,5,5,3,0,3,0,,,,,,,,,,,,,,,,,,,,,,,,,,,,,,,,,,,,,,,,,,,,,,,,,,,,,,,,,,,,,,,,30,,,,,,,,6036.863954599976,6036.863954599976,6036.863954599976,6036.863954599976,6036.863954599976,down,0.9602329999906942,0,0,0,99,-0.08,-2.7755575615628914e-17,down,0.8804098999826238,,,,,,,,,,,,,,,,,,,,,,,,,,,,,,,,,,,,,,,,,,,,,,,,,,,,,,,,,,,,U80XZ2,train_y,red_square,top_left,2025-05-09_16h13.22.024,HideSeek_v1,2022.2.5,59.94093420027769,
,1,9,1,5,0,-4,12,,train_dim1_1,6,30,,,,2,0,2,0,,,,,,,,,0,0,0,0,0,5,5,5,4,0,4,0,,,,,,,,,,,,,,,,,,,,,,,,,,,,,,,,,,,,,,,,,,,,,,,,,,,,,,,,,,,,,,,,30,,,,,,,,6037.829940800002,6037.829940800002,6037.829940800002,6037.829940800002,6037.829940800002,return,0.5600372000189964,1,0,0,1,-0.08,-2.7755575615628914e-17,return,0.47319220000645146,-11,4,-0.08,-2.7755575615628914e-17,,,,,,,,,,,,,,,,,,,,,,,,,,,,,,,,,,,,,,,,,,,,,,,,,,,,,,,,U80XZ2,train_y,red_square,top_left,2025-05-09_16h13.22.024,HideSeek_v1,2022.2.5,59.94093420027769,
,1,8,1,5,0,-3,13,,train_dim1_1,7,30,,,,2,0,2,0,,,,,,,,,0,0,0,0,0,6,6,6,0,0,0,0,,,,,,,,,,,,,,,,,,,,,,,,,stimuli/alien_stimuli/13.png,,,,,,,,,,,,,,,,,,,,,,,,,,,,,stimuli/alien_stimuli/12.png,12,1,8,,,,,,,30,,,,,,,,6046.326227599988,6046.326227599988,6046.326227599988,6046.326227599988,6046.326227599988,down,2.2229645999905188,1,0,0,99,-0.08,0.15999999999999998,down,2.1456214000063483,,,,,6044.769294500002,6046.326227599988,-0.08,0,0.32,0.0,0.16,-0.08,-0.08,-0.08,0,6039.965858899988,6039.965858899988,6039.965858899988,6039.965858899988,6039.965858899988,6039.965858899988,6039.965858899988,6039.965858899988,6039.965208520024,4.923099799983902,return,4.771318099985365,,,,,,,,,,,,,,,,,,,,,,,,,,,,,,,,,U80XZ2,train_y,red_square,top_left,2025-05-09_16h13.22.024,HideSeek_v1,2022.2.5,59.94093420027769,
,1,8,1,5,0,-3,13,,train_dim1_1,7,30,,,,2,0,2,0,,,,,,,,,0,0,0,0,0,6,6,6,1,0,1,0,,,,,,,,,,,,,,,,,,,,,,,,,,,,,,,,,,,,,,,,,,,,,,,,,,,,,,,,,,,,,,,,30,,,,,,,,6048.555580099986,6048.555580099986,6048.555580099986,6048.555580099986,6048.555580099986,down,0.5431667999946512,1,0,0,99,-0.08,0.07999999999999997,down,0.45879759997478686,,,,,,,,,,,,,,,,,,,,,,,,,,,,,,,,,,,,,,,,,,,,,,,,,,,,,,,,,,,,U80XZ2,train_y,red_square,top_left,2025-05-09_16h13.22.024,HideSeek_v1,2022.2.5,59.94093420027769,
,1,8,1,5,0,-3,13,,train_dim1_1,7,30,,,,2,0,2,0,,,,,,,,,0,0,0,0,0,6,6,6,2,0,2,0,,,,,,,,,,,,,,,,,,,,,,,,,,,,,,,,,,,,,,,,,,,,,,,,,,,,,,,,,,,,,,,,30,,,,,,,,6049.1055312999815,6049.1055312999815,6049.1055312999815,6049.1055312999815,6049.1055312999815,down,0.5767049000132829,1,0,0,99,-0.08,-2.7755575615628914e-17,down,0.4880798000085633,,,,,,,,,,,,,,,,,,,,,,,,,,,,,,,,,,,,,,,,,,,,,,,,,,,,,,,,,,,,U80XZ2,train_y,red_square,top_left,2025-05-09_16h13.22.024,HideSeek_v1,2022.2.5,59.94093420027769,
,1,8,1,5,0,-3,13,,train_dim1_1,7,30,,,,2,0,2,0,,,,,,,,,0,0,0,0,0,6,6,6,3,0,3,0,,,,,,,,,,,,,,,,,,,,,,,,,,,,,,,,,,,,,,,,,,,,,,,,,,,,,,,,,,,,,,,,30,,,,,,,,6049.689519799984,6049.689519799984,6049.689519799984,6049.689519799984,6049.689519799984,return,0.4437518999911845,2,0,0,1,-0.08,-2.7755575615628914e-17,return,0.3576777999987826,-14,4,-0.08,-2.7755575615628914e-17,,,,,,,,,,,,,,,,,,,,,,,,,,,,,,,,,,,,,,,,,,,,,,,,,,,,,,,,U80XZ2,train_y,red_square,top_left,2025-05-09_16h13.22.024,HideSeek_v1,2022.2.5,59.94093420027769,
,4,7,4,2,0,-5,11,,train_dim1_1,8,30,,,,2,0,2,0,,,,,,,,,0,0,0,0,0,7,7,7,0,0,0,0,,,,,,,,,,,,,,,,,,,,,,,,,stimuli/alien_stimuli/11.png,,,,,,,,,,,,,,,,,,,,,,,,,,,,,stimuli/alien_stimuli/13.png,13,1,9,,,,,,,30,,,,,,,,6056.752971299982,6056.752971299982,6056.752971299982,6056.752971299982,6056.752971299982,down,3.206153200007975,2,0,0,99,0.16,0.08,down,3.1282098999945447,,,,,6055.194852699991,6056.752971299982,-0.08,0,0.24,0.0,0.12,-0.08,-0.08,-0.08,0,6051.707904799987,6051.707904799987,6051.707904799987,6051.707904799987,6051.707904799987,6051.707904799987,6051.707904799987,6051.707904799987,6051.70805672002,3.605132299999241,return,3.461779300007038,,,,,,,,,,,,,,,,,,,,,,,,,,,,,,,,,U80XZ2,train_y,red_square,top_left,2025-05-09_16h13.22.024,HideSeek_v1,2022.2.5,59.94093420027769,
,4,7,4,2,0,-5,11,,train_dim1_1,8,30,,,,2,0,2,0,,,,,,,,,0,0,0,0,0,7,7,7,1,0,1,0,,,,,,,,,,,,,,,,,,,,,,,,,,,,,,,,,,,,,,,,,,,,,,,,,,,,,,,,,,,,,,,,30,,,,,,,,6059.966153599991,6059.966153599991,6059.966153599991,6059.966153599991,6059.966153599991,down,0.49329640000360087,2,0,0,99,0.16,0.0,down,0.40386279998347163,,,,,,,,,,,,,,,,,,,,,,,,,,,,,,,,,,,,,,,,,,,,,,,,,,,,,,,,,,,,U80XZ2,train_y,red_square,top_left,2025-05-09_16h13.22.024,HideSeek_v1,2022.2.5,59.94093420027769,
,4,7,4,2,0,-5,11,,train_dim1_1,8,30,,,,2,0,2,0,,,,,,,,,0,0,0,0,0,7,7,7,2,0,2,0,,,,,,,,,,,,,,,,,,,,,,,,,,,,,,,,,,,,,,,,,,,,,,,,,,,,,,,,,,,,,,,,30,,,,,,,,6060.466792899999,6060.466792899999,6060.466792899999,6060.466792899999,6060.466792899999,down,0.6763540000247303,2,0,0,99,0.16,-0.08,down,0.5914413999998942,,,,,,,,,,,,,,,,,,,,,,,,,,,,,,,,,,,,,,,,,,,,,,,,,,,,,,,,,,,,U80XZ2,train_y,red_square,top_left,2025-05-09_16h13.22.024,HideSeek_v1,2022.2.5,59.94093420027769,
,4,7,4,2,0,-5,11,,train_dim1_1,8,30,,,,2,0,2,0,,,,,,,,,0,0,0,0,0,7,7,7,3,0,3,0,,,,,,,,,,,,,,,,,,,,,,,,,,,,,,,,,,,,,,,,,,,,,,,,,,,,,,,,,,,,,,,,30,,,,,,,,6061.149239999999,6061.149239999999,6061.149239999999,6061.149239999999,6061.149239999999,down,0.5603842999844346,2,0,0,99,0.16,-0.16,down,0.48430839998763986,,,,,,,,,,,,,,,,,,,,,,,,,,,,,,,,,,,,,,,,,,,,,,,,,,,,,,,,,,,,U80XZ2,train_y,red_square,top_left,2025-05-09_16h13.22.024,HideSeek_v1,2022.2.5,59.94093420027769,
,4,7,4,2,0,-5,11,,train_dim1_1,8,30,,,,2,0,2,0,,,,,,,,,0,0,0,0,0,7,7,7,4,0,4,0,,,,,,,,,,,,,,,,,,,,,,,,,,,,,,,,,,,,,,,,,,,,,,,,,,,,,,,,,,,,,,,,30,,,,,,,,6061.717338099988,6061.717338099988,6061.717338099988,6061.717338099988,6061.717338099988,down,0.45985970000037923,2,0,0,99,0.16,-0.24,down,0.3769562999950722,,,,,,,,,,,,,,,,,,,,,,,,,,,,,,,,,,,,,,,,,,,,,,,,,,,,,,,,,,,,U80XZ2,train_y,red_square,top_left,2025-05-09_16h13.22.024,HideSeek_v1,2022.2.5,59.94093420027769,
,4,7,4,2,0,-5,11,,train_dim1_1,8,30,,,,2,0,2,0,,,,,,,,,0,0,0,0,0,7,7,7,5,0,5,0,,,,,,,,,,,,,,,,,,,,,,,,,,,,,,,,,,,,,,,,,,,,,,,,,,,,,,,,,,,,,,,,30,,,,,,,,6062.184213,6062.184213,6062.184213,6062.184213,6062.184213,return,0.44327429999248125,3,0,0,1,0.16,-0.24,return,0.3667857999971602,-19,4,0.16,-0.24,,,,,,,,,,,,,,,,,,,,,,,,,,,,,,,,,,,,,,,,,,,,,,,,,,,,,,,,U80XZ2,train_y,red_square,top_left,2025-05-09_16h13.22.024,HideSeek_v1,2022.2.5,59.94093420027769,
,4,8,4,7,0,-1,15,,train_dim1_1,9,30,,,,2,0,2,0,,,,,,,,,0,0,0,0,0,8,8,8,0,0,0,0,,,,,,,,,,,,,,,,,,,,,,,,,stimuli/alien_stimuli/15.png,,,,,,,,,,,,,,,,,,,,,,,,,,,,,stimuli/alien_stimuli/11.png,11,4,10,,,,,,,30,,,,,,,,6068.061302799993,6068.061302799993,6068.061302799993,6068.061302799993,6068.061302799993,down,3.9586615999869537,3,0,0,99,0.16,0.15999999999999998,down,3.8759482000023127,,,,,6066.503866799991,6068.061302799993,0.16,-0.24,0.4,0.0,-0.039999999999999994,0.16,0.16,0.16,-0.24,6064.200939999981,6064.200939999981,6064.200939999981,6064.200939999981,6064.200939999981,6064.200939999981,6064.200939999981,6064.200939999981,6064.201848520012,2.4207181000092532,return,2.27187589998357,,,,,,,,,,,,,,,,,,,,,,,,,,,,,,,,,U80XZ2,train_y,red_square,top_left,2025-05-09_16h13.22.024,HideSeek_v1,2022.2.5,59.94093420027769,
,4,8,4,7,0,-1,15,,train_dim1_1,9,30,,,,2,0,2,0,,,,,,,,,0,0,0,0,0,8,8,8,1,0,1,0,,,,,,,,,,,,,,,,,,,,,,,,,,,,,,,,,,,,,,,,,,,,,,,,,,,,,,,,,,,,,,,,30,,,,,,,,6072.027016999986,6072.027016999986,6072.027016999986,6072.027016999986,6072.027016999986,return,0.7597370999865234,4,0,0,1,0.16,0.15999999999999998,return,0.6754896999918856,-20,4,0.16,0.15999999999999998,,,,,,,,,,,,,,,,,,,,,,,,,,,,,,,,,,,,,,,,,,,,,,,,,,,,,,,,U80XZ2,train_y,red_square,top_left,2025-05-09_16h13.22.024,HideSeek_v1,2022.2.5,59.94093420027769,
,2,7,2,7,0,0,16,,train_dim1_1,10,30,,,,2,0,2,0,,,,,,,,,0,0,0,0,0,9,9,9,0,0,0,0,,,,,,,,,,,,,,,,,,,,,,,,,stimuli/alien_stimuli/16.png,,,,,,,,,,,,,,,,,,,,,,,,,,,,,stimuli/alien_stimuli/15.png,15,4,11,,,,,,,30,,,,,,,,6077.950954899978,6077.950954899978,6077.950954899978,6077.950954899978,6077.950954899978,return,3.1579792000120506,5,0,0,1,0,0.16,return,3.066992300009588,-20,4,0,0.16,6076.395346399979,6077.950954899978,0.16,0.16,0.08,0.0,0.2,0.16,0.16,0.16,0.16,6074.3412632999825,6074.3412632999825,6074.3412632999825,6074.3412632999825,6074.3412632999825,6074.3412632999825,6074.3412632999825,6074.3412632999825,6074.327016539994,2.1537693999998737,return,2.0310232999909203,,,,,,,,,,,,,,,,,,,,,,,,,,,,,,,,,U80XZ2,train_y,red_square,top_left,2025-05-09_16h13.22.024,HideSeek_v1,2022.2.5,59.94093420027769,
,4,6,4,5,0,-1,15,,train_dim1_1,11,30,,,,2,0,2,0,,,,,,,,,0,0,0,0,0,10,10,10,0,0,0,0,,,,,,,,,,,,,,,,,,,,,,,,,stimuli/alien_stimuli/15.png,,,,,,,,,,,,,,,,,,,,,,,,,,,,,stimuli/alien_stimuli/16.png,16,2,12,,,,,,,30,,,,,,,,6086.227573799988,6086.227573799988,6086.227573799988,6086.227573799988,6086.227573799988,down,4.423351300007198,5,0,0,99,0.16,0.0,down,4.331353100016713,,,,,6084.669026299991,6086.227573799988,0,0.16,0.0,0.0,0.16,0,0.0,0,0.16,6082.665319199994,6082.665319199994,6082.665319199994,6082.665319199994,6082.665319199994,6082.665319199994,6082.665319199994,6082.665319199994,6082.6507141400125,2.1039455000136513,return,1.9823983999958728,,,,,,,,,,,,,,,,,,,,,,,,,,,,,,,,,U80XZ2,train_y,red_square,top_left,2025-05-09_16h13.22.024,HideSeek_v1,2022.2.5,59.94093420027769,
,4,6,4,5,0,-1,15,,train_dim1_1,11,30,,,,2,0,2,0,,,,,,,,,0,0,0,0,0,10,10,10,1,0,1,0,,,,,,,,,,,,,,,,,,,,,,,,,,,,,,,,,,,,,,,,,,,,,,,,,,,,,,,,,,,,,,,,30,,,,,,,,6090.658489399997,6090.658489399997,6090.658489399997,6090.658489399997,6090.658489399997,down,1.360363599989796,5,0,0,99,0.16,-0.08,down,1.2789593000197783,,,,,,,,,,,,,,,,,,,,,,,,,,,,,,,,,,,,,,,,,,,,,,,,,,,,,,,,,,,,U80XZ2,train_y,red_square,top_left,2025-05-09_16h13.22.024,HideSeek_v1,2022.2.5,59.94093420027769,
,4,6,4,5,0,-1,15,,train_dim1_1,11,30,,,,2,0,2,0,,,,,,,,,0,0,0,0,0,10,10,10,2,0,2,0,,,,,,,,,,,,,,,,,,,,,,,,,,,,,,,,,,,,,,,,,,,,,,,,,,,,,,,,,,,,,,,,30,,,,,,,,6092.025487899984,6092.025487899984,6092.025487899984,6092.025487899984,6092.025487899984,return,0.4938139000150841,5,1,0,0,0.16,-0.08,return,0.40257979999296367,-22,4,0.16,-0.08,,,,,,,,,,,,,,,,,,,,,,,,,,,,,,,,,,,,,,,,,,,,,,,,,,,,,,,,U80XZ2,train_y,red_square,top_left,2025-05-09_16h13.22.024,HideSeek_v1,2022.2.5,59.94093420027769,
,0,5,0,0,0,-5,11,,train_dim1_1,12,30,,,,2,0,2,0,,,,,,,,,0,0,0,0,0,11,11,11,0,0,0,0,,,,,,,,,,,,,,,,,,,,,,,,,stimuli/alien_stimuli/11.png,,,,,,,,,,,,,,,,,,,,,,,,,,,,,stimuli/alien_stimuli/15.png,15,4,13,,,,,,,30,,,,,,,,6098.320940099977,6098.320940099977,6098.320940099977,6098.320940099977,6098.320940099977,down,2.1392875000019558,5,1,0,99,-0.16,-0.08,down,2.056516200012993,,,,,6096.762557399983,6098.320940099977,0.16,0,0.08,0.0,0.04,0.16,0.16,0.16,0,6094.0956198999775,6094.0956198999775,6094.0956198999775,6094.0956198999775,6094.0956198999775,6094.0956198999775,6094.0956198999775,6094.0956198999775,6094.0933157200225,2.7878468000271823,return,2.648420299985446,,,,,,,,,,,,,,,,,,,,,,,,,,,,,,,,,U80XZ2,train_y,red_square,top_left,2025-05-09_16h13.22.024,HideSeek_v1,2022.2.5,59.94093420027769,
,0,5,0,0,0,-5,11,,train_dim1_1,12,30,,,,2,0,2,0,,,,,,,,,0,0,0,0,0,11,11,11,1,0,1,0,,,,,,,,,,,,,,,,,,,,,,,,,,,,,,,,,,,,,,,,,,,,,,,,,,,,,,,,,,,,,,,,30,,,,,,,,6100.465723899979,6100.465723899979,6100.465723899979,6100.465723899979,6100.465723899979,down,0.49309509998420253,5,1,0,99,-0.16,-0.16,down,0.41438130001188256,,,,,,,,,,,,,,,,,,,,,,,,,,,,,,,,,,,,,,,,,,,,,,,,,,,,,,,,,,,,U80XZ2,train_y,red_square,top_left,2025-05-09_16h13.22.024,HideSeek_v1,2022.2.5,59.94093420027769,
,0,5,0,0,0,-5,11,,train_dim1_1,12,30,,,,2,0,2,0,,,,,,,,,0,0,0,0,0,11,11,11,2,0,2,0,,,,,,,,,,,,,,,,,,,,,,,,,,,,,,,,,,,,,,,,,,,,,,,,,,,,,,,,,,,,,,,,30,,,,,,,,6100.966622499982,6100.966622499982,6100.966622499982,6100.966622499982,6100.966622499982,down,0.4600274999975227,5,1,0,99,-0.16,-0.24,down,0.38407980001647957,,,,,,,,,,,,,,,,,,,,,,,,,,,,,,,,,,,,,,,,,,,,,,,,,,,,,,,,,,,,U80XZ2,train_y,red_square,top_left,2025-05-09_16h13.22.024,HideSeek_v1,2022.2.5,59.94093420027769,
,0,5,0,0,0,-5,11,,train_dim1_1,12,30,,,,2,0,2,0,,,,,,,,,0,0,0,0,0,11,11,11,3,0,3,0,,,,,,,,,,,,,,,,,,,,,,,,,,,,,,,,,,,,,,,,,,,,,,,,,,,,,,,,,,,,,,,,30,,,,,,,,6101.434153799986,6101.434153799986,6101.434153799986,6101.434153799986,6101.434153799986,down,0.6099660999898333,5,1,0,99,-0.16,-0.32,down,0.5324843999987934,,,,,,,,,,,,,,,,,,,,,,,,,,,,,,,,,,,,,,,,,,,,,,,,,,,,,,,,,,,,U80XZ2,train_y,red_square,top_left,2025-05-09_16h13.22.024,HideSeek_v1,2022.2.5,59.94093420027769,
,0,5,0,0,0,-5,11,,train_dim1_1,12,30,,,,2,0,2,0,,,,,,,,,0,0,0,0,0,11,11,11,4,0,4,0,,,,,,,,,,,,,,,,,,,,,,,,,,,,,,,,,,,,,,,,,,,,,,,,,,,,,,,,,,,,,,,,30,,,,,,,,6102.049902600003,6102.049902600003,6102.049902600003,6102.049902600003,6102.049902600003,return,0.6103568999969866,5,1,0,0,-0.16,-0.32,return,0.5208494999969844,-26,4,-0.16,-0.32,,,,,,,,,,,,,,,,,,,,,,,,,,,,,,,,,,,,,,,,,,,,,,,,,,,,,,,,U80XZ2,train_y,red_square,top_left,2025-05-09_16h13.22.024,HideSeek_v1,2022.2.5,59.94093420027769,
,4,8,4,4,0,-4,12,,train_dim1_1,13,30,,,,2,0,2,0,,,,,,,,,0,0,0,0,0,12,12,12,0,0,0,0,,,,,,,,,,,,,,,,,,,,,,,,,stimuli/alien_stimuli/12.png,,,,,,,,,,,,,,,,,,,,,,,,,,,,,stimuli/alien_stimuli/11.png,11,0,14,,,,,,,30,,,,,,,,6109.113059199997,6109.113059199997,6109.113059199997,6109.113059199997,6109.113059199997,down,1.922091000014916,5,1,0,99,0.16,0.15999999999999998,down,1.830996899981983,,,,,6107.554658699984,6109.113059199997,-0.16,-0.4,0.4,0.0,-0.2,-0.16,-0.16,-0.16,-0.4,6104.215372699982,6104.215372699982,6104.215372699982,6104.215372699982,6104.215372699982,6104.215372699982,6104.215372699982,6104.215372699982,6104.201802839996,3.4383149999775924,return,3.315356500010239,,,,,,,,,,,,,,,,,,,,,,,,,,,,,,,,,U80XZ2,train_y,red_square,top_left,2025-05-09_16h13.22.024,HideSeek_v1,2022.2.5,59.94093420027769,
,4,8,4,4,0,-4,12,,train_dim1_1,13,30,,,,2,0,2,0,,,,,,,,,0,0,0,0,0,12,12,12,1,0,1,0,,,,,,,,,,,,,,,,,,,,,,,,,,,,,,,,,,,,,,,,,,,,,,,,,,,,,,,,,,,,,,,,30,,,,,,,,6111.042843599978,6111.042843599978,6111.042843599978,6111.042843599978,6111.042843599978,down,0.42644599999766797,5,1,0,99,0.16,0.07999999999999997,down,0.3404679000086617,,,,,,,,,,,,,,,,,,,,,,,,,,,,,,,,,,,,,,,,,,,,,,,,,,,,,,,,,,,,U80XZ2,train_y,red_square,top_left,2025-05-09_16h13.22.024,HideSeek_v1,2022.2.5,59.94093420027769,
,4,8,4,4,0,-4,12,,train_dim1_1,13,30,,,,2,0,2,0,,,,,,,,,0,0,0,0,0,12,12,12,2,0,2,0,,,,,,,,,,,,,,,,,,,,,,,,,,,,,,,,,,,,,,,,,,,,,,,,,,,,,,,,,,,,,,,,30,,,,,,,,6111.474768199987,6111.474768199987,6111.474768199987,6111.474768199987,6111.474768199987,down,0.4433225999819115,5,1,0,99,0.16,-2.7755575615628914e-17,down,0.35723919997690246,,,,,,,,,,,,,,,,,,,,,,,,,,,,,,,,,,,,,,,,,,,,,,,,,,,,,,,,,,,,U80XZ2,train_y,red_square,top_left,2025-05-09_16h13.22.024,HideSeek_v1,2022.2.5,59.94093420027769,
,4,8,4,4,0,-4,12,,train_dim1_1,13,30,,,,2,0,2,0,,,,,,,,,0,0,0,0,0,12,12,12,3,0,3,0,,,,,,,,,,,,,,,,,,,,,,,,,,,,,,,,,,,,,,,,,,,,,,,,,,,,,,,,,,,,,,,,30,,,,,,,,6111.925309099985,6111.925309099985,6111.925309099985,6111.925309099985,6111.925309099985,down,0.36062959997798316,5,1,0,99,0.16,-0.08000000000000003,down,0.28303130000131205,,,,,,,,,,,,,,,,,,,,,,,,,,,,,,,,,,,,,,,,,,,,,,,,,,,,,,,,,,,,U80XZ2,train_y,red_square,top_left,2025-05-09_16h13.22.024,HideSeek_v1,2022.2.5,59.94093420027769,
,4,8,4,4,0,-4,12,,train_dim1_1,13,30,,,,2,0,2,0,,,,,,,,,0,0,0,0,0,12,12,12,4,0,4,0,,,,,,,,,,,,,,,,,,,,,,,,,,,,,,,,,,,,,,,,,,,,,,,,,,,,,,,,,,,,,,,,30,,,,,,,,6112.2921279,6112.2921279,6112.2921279,6112.2921279,6112.2921279,return,0.6432096999778878,6,0,0,1,0.16,-0.08000000000000003,return,0.5587570999923628,-30,4,0.16,-0.08000000000000003,,,,,,,,,,,,,,,,,,,,,,,,,,,,,,,,,,,,,,,,,,,,,,,,,,,,,,,,U80XZ2,train_y,red_square,top_left,2025-05-09_16h13.22.024,HideSeek_v1,2022.2.5,59.94093420027769,
,2,7,2,7,0,0,16,,train_dim1_1,14,30,,,,2,0,2,0,,,,,,,,,0,0,0,0,0,13,13,13,0,0,0,0,,,,,,,,,,,,,,,,,,,,,,,,,stimuli/alien_stimuli/16.png,,,,,,,,,,,,,,,,,,,,,,,,,,,,,stimuli/alien_stimuli/12.png,12,4,15,,,,,,,30,,,,,,,,6118.1692492,6118.1692492,6118.1692492,6118.1692492,6118.1692492,return,2.8234685999923386,7,0,0,1,0,0.16,return,2.7401855000061914,-30,4,0,0.16,6116.612146699976,6118.1692492,0.16,-0.08,0.32,0.0,0.07999999999999999,0.16,0.16,0.16,-0.08,6114.510720599996,6114.510720599996,6114.510720599996,6114.510720599996,6114.510720599996,6114.510720599996,6114.510720599996,6114.510720599996,6114.510263520019,2.2207296999986283,return,2.0800929999968503,,,,,,,,,,,,,,,,,,,,,,,,,,,,,,,,,U80XZ2,train_y,red_square,top_left,2025-05-09_16h13.22.024,HideSeek_v1,2022.2.5,59.94093420027769,
,1,9,1,6,0,-3,13,,train_dim1_1,15,30,,,,2,0,2,0,,,,,,,,,0,0,0,0,0,14,14,14,0,0,0,0,,,,,,,,,,,,,,,,,,,,,,,,,stimuli/alien_stimuli/13.png,,,,,,,,,,,,,,,,,,,,,,,,,,,,,stimuli/alien_stimuli/16.png,16,2,16,,,,,,,30,,,,,,,,6126.126241599995,6126.126241599995,6126.126241599995,6126.126241599995,6126.126241599995,down,3.239137299999129,7,0,0,99,-0.08,0.24,down,3.1637952999735717,,,,,6124.568691699998,6126.126241599995,0,0.16,0.0,0.0,0.16,0,0.0,0,0.16,6122.549367999978,6122.549367999978,6122.549367999978,6122.549367999978,6122.549367999978,6122.549367999978,6122.549367999978,6122.549367999978,6122.550278179999,2.1209934999933466,return,1.993610000004992,,,,,,,,,,,,,,,,,,,,,,,,,,,,,,,,,U80XZ2,train_y,red_square,top_left,2025-05-09_16h13.22.024,HideSeek_v1,2022.2.5,59.94093420027769,
,1,9,1,6,0,-3,13,,train_dim1_1,15,30,,,,2,0,2,0,,,,,,,,,0,0,0,0,0,14,14,14,1,0,1,0,,,,,,,,,,,,,,,,,,,,,,,,,,,,,,,,,,,,,,,,,,,,,,,,,,,,,,,,,,,,,,,,30,,,,,,,,6129.373264499998,6129.373264499998,6129.373264499998,6129.373264499998,6129.373264499998,down,0.6766381000052206,7,0,0,99,-0.08,0.15999999999999998,down,0.5852316000091378,,,,,,,,,,,,,,,,,,,,,,,,,,,,,,,,,,,,,,,,,,,,,,,,,,,,,,,,,,,,U80XZ2,train_y,red_square,top_left,2025-05-09_16h13.22.024,HideSeek_v1,2022.2.5,59.94093420027769,
,1,9,1,6,0,-3,13,,train_dim1_1,15,30,,,,2,0,2,0,,,,,,,,,0,0,0,0,0,14,14,14,2,0,2,0,,,,,,,,,,,,,,,,,,,,,,,,,,,,,,,,,,,,,,,,,,,,,,,,,,,,,,,,,,,,,,,,30,,,,,,,,6130.0569900999835,6130.0569900999835,6130.0569900999835,6130.0569900999835,6130.0569900999835,down,0.42616889998316765,7,0,0,99,-0.08,0.07999999999999997,down,0.3436441000085324,,,,,,,,,,,,,,,,,,,,,,,,,,,,,,,,,,,,,,,,,,,,,,,,,,,,,,,,,,,,U80XZ2,train_y,red_square,top_left,2025-05-09_16h13.22.024,HideSeek_v1,2022.2.5,59.94093420027769,
,1,9,1,6,0,-3,13,,train_dim1_1,15,30,,,,2,0,2,0,,,,,,,,,0,0,0,0,0,14,14,14,3,0,3,0,,,,,,,,,,,,,,,,,,,,,,,,,,,,,,,,,,,,,,,,,,,,,,,,,,,,,,,,,,,,,,,,30,,,,,,,,6130.489816299989,6130.489816299989,6130.489816299989,6130.489816299989,6130.489816299989,return,0.6603598999790847,8,0,0,1,-0.08,0.07999999999999997,return,0.5851644000213128,-33,4,-0.08,0.07999999999999997,,,,,,,,,,,,,,,,,,,,,,,,,,,,,,,,,,,,,,,,,,,,,,,,,,,,,,,,U80XZ2,train_y,red_square,top_left,2025-05-09_16h13.22.024,HideSeek_v1,2022.2.5,59.94093420027769,
,4,5,4,4,0,-1,15,,train_dim1_1,16,30,,,,2,0,2,0,,,,,,,,,0,0,0,0,0,15,15,15,0,0,0,0,,,,,,,,,,,,,,,,,,,,,,,,,stimuli/alien_stimuli/15.png,,,,,,,,,,,,,,,,,,,,,,,,,,,,,stimuli/alien_stimuli/13.png,13,1,17,,,,,,,30,,,,,,,,6136.249937899993,6136.249937899993,6136.249937899993,6136.249937899993,6136.249937899993,down,4.7262389000097755,8,0,0,99,0.16,-0.08,down,4.633621499990113,,,,,6134.693770499987,6136.249937899993,-0.08,0.08,0.24,0.0,0.2,-0.08,-0.08,-0.08,0.08,6132.724217399984,6132.724217399984,6132.724217399984,6132.724217399984,6132.724217399984,6132.724217399984,6132.724217399984,6132.724217399984,6132.725333819998,2.0872396000195295,return,1.9519085999927483,,,,,,,,,,,,,,,,,,,,,,,,,,,,,,,,,U80XZ2,train_y,red_square,top_left,2025-05-09_16h13.22.024,HideSeek_v1,2022.2.5,59.94093420027769,
,4,5,4,4,0,-1,15,,train_dim1_1,16,30,,,,2,0,2,0,,,,,,,,,0,0,0,0,0,15,15,15,1,0,1,0,,,,,,,,,,,,,,,,,,,,,,,,,,,,,,,,,,,,,,,,,,,,,,,,,,,,,,,,,,,,,,,,30,,,,,,,,6140.985244599986,6140.985244599986,6140.985244599986,6140.985244599986,6140.985244599986,return,1.059998299984727,9,0,0,1,0.16,-0.08,return,0.970159499993315,-34,4,0.16,-0.08,,,,,,,,,,,,,,,,,,,,,,,,,,,,,,,,,,,,,,,,,,,,,,,,,,,,,,,,U80XZ2,train_y,red_square,top_left,2025-05-09_16h13.22.024,HideSeek_v1,2022.2.5,59.94093420027769,
,3,8,3,5,0,-3,13,,train_dim1_1,17,30,,,,2,0,2,0,,,,,,,,,0,0,0,0,0,16,16,16,0,0,0,0,,,,,,,,,,,,,,,,,,,,,,,,,stimuli/alien_stimuli/13.png,,,,,,,,,,,,,,,,,,,,,,,,,,,,,stimuli/alien_stimuli/15.png,15,4,18,,,,,,,30,,,,,,,,6146.692162699997,6146.692162699997,6146.692162699997,6146.692162699997,6146.692162699997,down,1.5891758000070695,9,0,0,99,0.08,0.15999999999999998,down,1.5125935999967624,,,,,6145.135797099996,6146.692162699997,0.16,-0.08,0.08,0.0,-0.04,0.16,0.16,0.16,-0.08,6143.613628499996,6143.613628499996,6143.613628499996,6143.613628499996,6143.613628499996,6143.613628499996,6143.613628499996,6143.613628499996,6143.600940879998,1.6369194999861065,return,1.490149699995527,,,,,,,,,,,,,,,,,,,,,,,,,,,,,,,,,U80XZ2,train_y,red_square,top_left,2025-05-09_16h13.22.024,HideSeek_v1,2022.2.5,59.94093420027769,
,3,8,3,5,0,-3,13,,train_dim1_1,17,30,,,,2,0,2,0,,,,,,,,,0,0,0,0,0,16,16,16,1,0,1,0,,,,,,,,,,,,,,,,,,,,,,,,,,,,,,,,,,,,,,,,,,,,,,,,,,,,,,,,,,,,,,,,30,,,,,,,,6148.289347299986,6148.289347299986,6148.289347299986,6148.289347299986,6148.289347299986,down,0.4428555000049528,9,0,0,99,0.08,0.07999999999999997,down,0.36178609999478795,,,,,,,,,,,,,,,,,,,,,,,,,,,,,,,,,,,,,,,,,,,,,,,,,,,,,,,,,,,,U80XZ2,train_y,red_square,top_left,2025-05-09_16h13.22.024,HideSeek_v1,2022.2.5,59.94093420027769,
,3,8,3,5,0,-3,13,,train_dim1_1,17,30,,,,2,0,2,0,,,,,,,,,0,0,0,0,0,16,16,16,2,0,2,0,,,,,,,,,,,,,,,,,,,,,,,,,,,,,,,,,,,,,,,,,,,,,,,,,,,,,,,,,,,,,,,,30,,,,,,,,6148.7387861000025,6148.7387861000025,6148.7387861000025,6148.7387861000025,6148.7387861000025,down,0.343562900001416,9,0,0,99,0.08,-2.7755575615628914e-17,down,0.2675011999963317,,,,,,,,,,,,,,,,,,,,,,,,,,,,,,,,,,,,,,,,,,,,,,,,,,,,,,,,,,,,U80XZ2,train_y,red_square,top_left,2025-05-09_16h13.22.024,HideSeek_v1,2022.2.5,59.94093420027769,
,3,8,3,5,0,-3,13,,train_dim1_1,17,30,,,,2,0,2,0,,,,,,,,,0,0,0,0,0,16,16,16,3,0,3,0,,,,,,,,,,,,,,,,,,,,,,,,,,,,,,,,,,,,,,,,,,,,,,,,,,,,,,,,,,,,,,,,30,,,,,,,,6149.089184799988,6149.089184799988,6149.089184799988,6149.089184799988,6149.089184799988,return,0.4769770000129938,10,0,0,1,0.08,-2.7755575615628914e-17,return,0.3886945999984164,-37,4,0.08,-2.7755575615628914e-17,,,,,,,,,,,,,,,,,,,,,,,,,,,,,,,,,,,,,,,,,,,,,,,,,,,,,,,,U80XZ2,train_y,red_square,top_left,2025-05-09_16h13.22.024,HideSeek_v1,2022.2.5,59.94093420027769,
,2,6,2,1,0,-5,11,,train_dim1_1,18,30,,,,2,0,2,0,,,,,,,,,0,0,0,0,0,17,17,17,0,0,0,0,,,,,,,,,,,,,,,,,,,,,,,,,stimuli/alien_stimuli/11.png,,,,,,,,,,,,,,,,,,,,,,,,,,,,,stimuli/alien_stimuli/13.png,13,3,19,,,,,,,30,,,,,,,,6154.098063599988,6154.098063599988,6154.098063599988,6154.098063599988,6154.098063599988,down,1.506546899996465,10,0,0,99,0,0.0,down,1.4164212999748997,,,,,6152.541991199978,6154.098063599988,0.08,0,0.24,0.0,0.12,0.08,0.08,0.08,0,6151.118037599983,6151.118037599983,6151.118037599983,6151.118037599983,6151.118037599983,6151.118037599983,6151.118037599983,6151.118037599983,6151.107219040021,1.5202176000166219,return,1.401594599999953,,,,,,,,,,,,,,,,,,,,,,,,,,,,,,,,,U80XZ2,train_y,red_square,top_left,2025-05-09_16h13.22.024,HideSeek_v1,2022.2.5,59.94093420027769,
,2,6,2,1,0,-5,11,,train_dim1_1,18,30,,,,2,0,2,0,,,,,,,,,0,0,0,0,0,17,17,17,1,0,1,0,,,,,,,,,,,,,,,,,,,,,,,,,,,,,,,,,,,,,,,,,,,,,,,,,,,,,,,,,,,,,,,,30,,,,,,,,6155.611189899995,6155.611189899995,6155.611189899995,6155.611189899995,6155.611189899995,down,0.3263192000158597,10,0,0,99,0,-0.08,down,0.24985259998356923,,,,,,,,,,,,,,,,,,,,,,,,,,,,,,,,,,,,,,,,,,,,,,,,,,,,,,,,,,,,U80XZ2,train_y,red_square,top_left,2025-05-09_16h13.22.024,HideSeek_v1,2022.2.5,59.94093420027769,
,2,6,2,1,0,-5,11,,train_dim1_1,18,30,,,,2,0,2,0,,,,,,,,,0,0,0,0,0,17,17,17,2,0,2,0,,,,,,,,,,,,,,,,,,,,,,,,,,,,,,,,,,,,,,,,,,,,,,,,,,,,,,,,,,,,,,,,30,,,,,,,,6155.944838800002,6155.944838800002,6155.944838800002,6155.944838800002,6155.944838800002,down,0.44359919999260455,10,0,0,99,0,-0.16,down,0.3666275999858044,,,,,,,,,,,,,,,,,,,,,,,,,,,,,,,,,,,,,,,,,,,,,,,,,,,,,,,,,,,,U80XZ2,train_y,red_square,top_left,2025-05-09_16h13.22.024,HideSeek_v1,2022.2.5,59.94093420027769,
,2,6,2,1,0,-5,11,,train_dim1_1,18,30,,,,2,0,2,0,,,,,,,,,0,0,0,0,0,17,17,17,3,0,3,0,,,,,,,,,,,,,,,,,,,,,,,,,,,,,,,,,,,,,,,,,,,,,,,,,,,,,,,,,,,,,,,,30,,,,,,,,6156.395755799982,6156.395755799982,6156.395755799982,6156.395755799982,6156.395755799982,down,0.5597833999781869,10,0,0,99,0,-0.24,down,0.4695587999885902,,,,,,,,,,,,,,,,,,,,,,,,,,,,,,,,,,,,,,,,,,,,,,,,,,,,,,,,,,,,U80XZ2,train_y,red_square,top_left,2025-05-09_16h13.22.024,HideSeek_v1,2022.2.5,59.94093420027769,
,2,6,2,1,0,-5,11,,train_dim1_1,18,30,,,,2,0,2,0,,,,,,,,,0,0,0,0,0,17,17,17,4,0,4,0,,,,,,,,,,,,,,,,,,,,,,,,,,,,,,,,,,,,,,,,,,,,,,,,,,,,,,,,,,,,,,,,30,,,,,,,,6156.962056199991,6156.962056199991,6156.962056199991,6156.962056199991,6156.962056199991,down,1.1775583999988157,10,0,0,99,0,-0.32,down,1.0973608999920543,,,,,,,,,,,,,,,,,,,,,,,,,,,,,,,,,,,,,,,,,,,,,,,,,,,,,,,,,,,,U80XZ2,train_y,red_square,top_left,2025-05-09_16h13.22.024,HideSeek_v1,2022.2.5,59.94093420027769,
,2,6,2,1,0,-5,11,,train_dim1_1,18,30,,,,2,0,2,0,,,,,,,,,0,0,0,0,0,17,17,17,5,0,5,0,,,,,,,,,,,,,,,,,,,,,,,,,,,,,,,,,,,,,,,,,,,,,,,,,,,,,,,,,,,,,,,,30,,,,,,,,6158.146917899983,6158.146917899983,6158.146917899983,6158.146917899983,6158.146917899983,return,0.4266273000102956,11,0,0,1,0,-0.32,return,0.3454741999739781,-42,4,0,-0.32,,,,,,,,,,,,,,,,,,,,,,,,,,,,,,,,,,,,,,,,,,,,,,,,,,,,,,,,U80XZ2,train_y,red_square,top_left,2025-05-09_16h13.22.024,HideSeek_v1,2022.2.5,59.94093420027769,
,0,9,0,5,0,-4,12,,train_dim1_1,19,30,,,,2,0,2,0,,,,,,,,,0,0,0,0,0,18,18,18,0,0,0,0,,,,,,,,,,,,,,,,,,,,,,,,,stimuli/alien_stimuli/12.png,,,,,,,,,,,,,,,,,,,,,,,,,,,,,stimuli/alien_stimuli/11.png,11,2,20,,,,,,,30,,,,,,,,6163.740741099988,6163.740741099988,6163.740741099988,6163.740741099988,6163.740741099988,down,1.4723889000015333,11,0,0,99,-0.16,0.24,down,1.3903485999908298,,,,,6162.183151099976,6163.740741099988,0,-0.32,0.4,0.0,-0.12,0,0.0,0,-0.32,6160.148003499984,6160.148003499984,6160.148003499984,6160.148003499984,6160.148003499984,6160.148003499984,6160.148003499984,6160.148003499984,6160.148053519998,2.1542678000114392,return,2.0126745000015944,,,,,,,,,,,,,,,,,,,,,,,,,,,,,,,,,U80XZ2,train_y,red_square,top_left,2025-05-09_16h13.22.024,HideSeek_v1,2022.2.5,59.94093420027769,
,0,9,0,5,0,-4,12,,train_dim1_1,19,30,,,,2,0,2,0,,,,,,,,,0,0,0,0,0,18,18,18,1,0,1,0,,,,,,,,,,,,,,,,,,,,,,,,,,,,,,,,,,,,,,,,,,,,,,,,,,,,,,,,,,,,,,,,30,,,,,,,,6165.219854399998,6165.219854399998,6165.219854399998,6165.219854399998,6165.219854399998,down,0.5761085999838542,11,0,0,99,-0.16,0.15999999999999998,down,0.4941386000136845,,,,,,,,,,,,,,,,,,,,,,,,,,,,,,,,,,,,,,,,,,,,,,,,,,,,,,,,,,,,U80XZ2,train_y,red_square,top_left,2025-05-09_16h13.22.024,HideSeek_v1,2022.2.5,59.94093420027769,
,0,9,0,5,0,-4,12,,train_dim1_1,19,30,,,,2,0,2,0,,,,,,,,,0,0,0,0,0,18,18,18,2,0,2,0,,,,,,,,,,,,,,,,,,,,,,,,,,,,,,,,,,,,,,,,,,,,,,,,,,,,,,,,,,,,,,,,30,,,,,,,,6165.803208800004,6165.803208800004,6165.803208800004,6165.803208800004,6165.803208800004,down,0.526740700006485,11,0,0,99,-0.16,0.07999999999999997,down,0.43996530000003986,,,,,,,,,,,,,,,,,,,,,,,,,,,,,,,,,,,,,,,,,,,,,,,,,,,,,,,,,,,,U80XZ2,train_y,red_square,top_left,2025-05-09_16h13.22.024,HideSeek_v1,2022.2.5,59.94093420027769,
,0,9,0,5,0,-4,12,,train_dim1_1,19,30,,,,2,0,2,0,,,,,,,,,0,0,0,0,0,18,18,18,3,0,3,0,,,,,,,,,,,,,,,,,,,,,,,,,,,,,,,,,,,,,,,,,,,,,,,,,,,,,,,,,,,,,,,,30,,,,,,,,6166.337832399993,6166.337832399993,6166.337832399993,6166.337832399993,6166.337832399993,down,0.39307319998624735,11,0,0,99,-0.16,-2.7755575615628914e-17,down,0.3152920999855269,,,,,,,,,,,,,,,,,,,,,,,,,,,,,,,,,,,,,,,,,,,,,,,,,,,,,,,,,,,,U80XZ2,train_y,red_square,top_left,2025-05-09_16h13.22.024,HideSeek_v1,2022.2.5,59.94093420027769,
,0,9,0,5,0,-4,12,,train_dim1_1,19,30,,,,2,0,2,0,,,,,,,,,0,0,0,0,0,18,18,18,4,0,4,0,,,,,,,,,,,,,,,,,,,,,,,,,,,,,,,,,,,,,,,,,,,,,,,,,,,,,,,,,,,,,,,,30,,,,,,,,6166.736588500004,6166.736588500004,6166.736588500004,6166.736588500004,6166.736588500004,return,0.4266664999886416,12,0,0,1,-0.16,-2.7755575615628914e-17,return,0.34332610000274144,-46,4,-0.16,-2.7755575615628914e-17,,,,,,,,,,,,,,,,,,,,,,,,,,,,,,,,,,,,,,,,,,,,,,,,,,,,,,,,U80XZ2,train_y,red_square,top_left,2025-05-09_16h13.22.024,HideSeek_v1,2022.2.5,59.94093420027769,
,2,5,2,5,0,0,16,,train_dim1_1,20,30,,,,2,0,2,0,,,,,,,,,0,0,0,0,0,19,19,19,0,0,0,0,,,,,,,,,,,,,,,,,,,,,,,,,stimuli/alien_stimuli/16.png,,,,,,,,,,,,,,,,,,,,,,,,,,,,,stimuli/alien_stimuli/12.png,12,0,21,,,,,,,30,,,,,,,,6171.445033900003,6171.445033900003,6171.445033900003,6171.445033900003,6171.445033900003,return,1.7907014999946114,13,0,0,1,0,0,return,1.7098053999943659,-46,4,0,0,6169.889741499996,6171.445033900003,-0.16,0,0.32,0.0,0.16,-0.16,-0.16,-0.16,0,6168.717512999981,6168.717512999981,6168.717512999981,6168.717512999981,6168.717512999981,6168.717512999981,6168.717512999981,6168.717512999981,6168.705207140016,1.269925600005081,return,1.1500093000067864,,,,,,,,,,,,,,,,,,,,,,,,,,,,,,,,,U80XZ2,train_y,red_square,top_left,2025-05-09_16h13.22.024,HideSeek_v1,2022.2.5,59.94093420027769,
,2,9,2,8,0,-1,15,,train_dim1_1,21,30,,,,2,0,2,0,,,,,,,,,0,0,0,0,0,20,20,20,0,0,0,0,,,,,,,,,,,,,,,,,,,,,,,,,stimuli/alien_stimuli/15.png,,,,,,,,,,,,,,,,,,,,,,,,,,,,,stimuli/alien_stimuli/16.png,16,2,22,,,,,,,30,,,,,,,,6178.500911499985,6178.500911499985,6178.500911499985,6178.500911499985,6178.500911499985,down,1.6905867999885231,13,0,0,99,0,0.24,down,1.613360899995314,,,,,6176.945505299984,6178.500911499985,0,0,0.0,0.0,0.0,0,0.0,0,0,6174.792511399981,6174.792511399981,6174.792511399981,6174.792511399981,6174.792511399981,6174.792511399981,6174.792511399981,6174.792511399981,6174.793558379995,2.2541733999969438,return,2.1317715999903157,,,,,,,,,,,,,,,,,,,,,,,,,,,,,,,,,U80XZ2,train_y,red_square,top_left,2025-05-09_16h13.22.024,HideSeek_v1,2022.2.5,59.94093420027769,
,2,9,2,8,0,-1,15,,train_dim1_1,21,30,,,,2,0,2,0,,,,,,,,,0,0,0,0,0,20,20,20,1,0,1,0,,,,,,,,,,,,,,,,,,,,,,,,,,,,,,,,,,,,,,,,,,,,,,,,,,,,,,,,,,,,,,,,30,,,,,,,,6180.198964999989,6180.198964999989,6180.198964999989,6180.198964999989,6180.198964999989,return,0.6431596000038553,14,0,0,1,0,0.24,return,0.5508555000124034,-47,4,0,0.24,,,,,,,,,,,,,,,,,,,,,,,,,,,,,,,,,,,,,,,,,,,,,,,,,,,,,,,,U80XZ2,train_y,red_square,top_left,2025-05-09_16h13.22.024,HideSeek_v1,2022.2.5,59.94093420027769,
,0,7,0,4,0,-3,13,,train_dim1_1,22,30,,,,2,0,2,0,,,,,,,,,0,0,0,0,0,21,21,21,0,0,0,0,,,,,,,,,,,,,,,,,,,,,,,,,stimuli/alien_stimuli/13.png,,,,,,,,,,,,,,,,,,,,,,,,,,,,,stimuli/alien_stimuli/15.png,15,2,23,,,,,,,30,,,,,,,,6185.0753746999835,6185.0753746999835,6185.0753746999835,6185.0753746999835,6185.0753746999835,down,1.5043029000225943,14,0,0,99,-0.16,0.08,down,1.4239443999831565,,,,,6183.517421199998,6185.0753746999835,0,0.24,0.08,0.0,0.28,0,0.0,0,0.24,6182.399066399987,6182.399066399987,6182.399066399987,6182.399066399987,6182.399066399987,6182.399066399987,6182.399066399987,6182.399066399987,6182.3996676800125,1.2200300999975298,return,1.0868184999853838,,,,,,,,,,,,,,,,,,,,,,,,,,,,,,,,,U80XZ2,train_y,red_square,top_left,2025-05-09_16h13.22.024,HideSeek_v1,2022.2.5,59.94093420027769,
,0,7,0,4,0,-3,13,,train_dim1_1,22,30,,,,2,0,2,0,,,,,,,,,0,0,0,0,0,21,21,21,1,0,1,0,,,,,,,,,,,,,,,,,,,,,,,,,,,,,,,,,,,,,,,,,,,,,,,,,,,,,,,,,,,,,,,,30,,,,,,,,6186.586953299993,6186.586953299993,6186.586953299993,6186.586953299993,6186.586953299993,down,0.3429003999917768,14,0,0,99,-0.16,0.0,down,0.2569828999985475,,,,,,,,,,,,,,,,,,,,,,,,,,,,,,,,,,,,,,,,,,,,,,,,,,,,,,,,,,,,U80XZ2,train_y,red_square,top_left,2025-05-09_16h13.22.024,HideSeek_v1,2022.2.5,59.94093420027769,
,0,7,0,4,0,-3,13,,train_dim1_1,22,30,,,,2,0,2,0,,,,,,,,,0,0,0,0,0,21,21,21,2,0,2,0,,,,,,,,,,,,,,,,,,,,,,,,,,,,,,,,,,,,,,,,,,,,,,,,,,,,,,,,,,,,,,,,30,,,,,,,,6186.937131899991,6186.937131899991,6186.937131899991,6186.937131899991,6186.937131899991,down,0.42651479999767616,14,0,0,99,-0.16,-0.08,down,0.35114689997863024,,,,,,,,,,,,,,,,,,,,,,,,,,,,,,,,,,,,,,,,,,,,,,,,,,,,,,,,,,,,U80XZ2,train_y,red_square,top_left,2025-05-09_16h13.22.024,HideSeek_v1,2022.2.5,59.94093420027769,
,0,7,0,4,0,-3,13,,train_dim1_1,22,30,,,,2,0,2,0,,,,,,,,,0,0,0,0,0,21,21,21,3,0,3,0,,,,,,,,,,,,,,,,,,,,,,,,,,,,,,,,,,,,,,,,,,,,,,,,,,,,,,,,,,,,,,,,30,,,,,,,,6187.370564299985,6187.370564299985,6187.370564299985,6187.370564299985,6187.370564299985,return,0.44330370001262054,15,0,0,1,-0.16,-0.08,return,0.3669366000103764,-50,4,-0.16,-0.08,,,,,,,,,,,,,,,,,,,,,,,,,,,,,,,,,,,,,,,,,,,,,,,,,,,,,,,,U80XZ2,train_y,red_square,top_left,2025-05-09_16h13.22.024,HideSeek_v1,2022.2.5,59.94093420027769,
,0,8,0,3,0,-5,11,,train_dim1_1,23,30,,,,2,0,2,0,,,,,,,,,0,0,0,0,0,22,22,22,0,0,0,0,,,,,,,,,,,,,,,,,,,,,,,,,stimuli/alien_stimuli/11.png,,,,,,,,,,,,,,,,,,,,,,,,,,,,,stimuli/alien_stimuli/13.png,13,0,24,,,,,,,30,,,,,,,,6192.532174599997,6192.532174599997,6192.532174599997,6192.532174599997,6192.532174599997,down,1.6708783000067342,15,0,0,99,-0.16,0.15999999999999998,down,1.5832998999976553,,,,,6190.973635100003,6192.532174599997,-0.16,-0.08,0.24,0.0,0.04,-0.16,-0.16,-0.16,-0.08,6189.39380749999,6189.39380749999,6189.39380749999,6189.39380749999,6189.39380749999,6189.39380749999,6189.39380749999,6189.39380749999,6189.389247120026,1.7031226999824867,return,1.553664300008677,,,,,,,,,,,,,,,,,,,,,,,,,,,,,,,,,U80XZ2,train_y,red_square,top_left,2025-05-09_16h13.22.024,HideSeek_v1,2022.2.5,59.94093420027769,
,0,8,0,3,0,-5,11,,train_dim1_1,23,30,,,,2,0,2,0,,,,,,,,,0,0,0,0,0,22,22,22,1,0,1,0,,,,,,,,,,,,,,,,,,,,,,,,,,,,,,,,,,,,,,,,,,,,,,,,,,,,,,,,,,,,,,,,30,,,,,,,,6194.210251899989,6194.210251899989,6194.210251899989,6194.210251899989,6194.210251899989,down,0.4265069999964908,15,0,0,99,-0.16,0.07999999999999997,down,0.34967739999410696,,,,,,,,,,,,,,,,,,,,,,,,,,,,,,,,,,,,,,,,,,,,,,,,,,,,,,,,,,,,U80XZ2,train_y,red_square,top_left,2025-05-09_16h13.22.024,HideSeek_v1,2022.2.5,59.94093420027769,
,0,8,0,3,0,-5,11,,train_dim1_1,23,30,,,,2,0,2,0,,,,,,,,,0,0,0,0,0,22,22,22,2,0,2,0,,,,,,,,,,,,,,,,,,,,,,,,,,,,,,,,,,,,,,,,,,,,,,,,,,,,,,,,,,,,,,,,30,,,,,,,,6194.6439115999965,6194.6439115999965,6194.6439115999965,6194.6439115999965,6194.6439115999965,down,0.40998969998327084,15,0,0,99,-0.16,-2.7755575615628914e-17,down,0.3210341999947559,,,,,,,,,,,,,,,,,,,,,,,,,,,,,,,,,,,,,,,,,,,,,,,,,,,,,,,,,,,,U80XZ2,train_y,red_square,top_left,2025-05-09_16h13.22.024,HideSeek_v1,2022.2.5,59.94093420027769,
,0,8,0,3,0,-5,11,,train_dim1_1,23,30,,,,2,0,2,0,,,,,,,,,0,0,0,0,0,22,22,22,3,0,3,0,,,,,,,,,,,,,,,,,,,,,,,,,,,,,,,,,,,,,,,,,,,,,,,,,,,,,,,,,,,,,,,,30,,,,,,,,6195.060473699996,6195.060473699996,6195.060473699996,6195.060473699996,6195.060473699996,down,0.44353469999623485,15,0,0,99,-0.16,-0.08000000000000003,down,0.3528092999767978,,,,,,,,,,,,,,,,,,,,,,,,,,,,,,,,,,,,,,,,,,,,,,,,,,,,,,,,,,,,U80XZ2,train_y,red_square,top_left,2025-05-09_16h13.22.024,HideSeek_v1,2022.2.5,59.94093420027769,
,0,8,0,3,0,-5,11,,train_dim1_1,23,30,,,,2,0,2,0,,,,,,,,,0,0,0,0,0,22,22,22,4,0,4,0,,,,,,,,,,,,,,,,,,,,,,,,,,,,,,,,,,,,,,,,,,,,,,,,,,,,,,,,,,,,,,,,30,,,,,,,,6195.511263299995,6195.511263299995,6195.511263299995,6195.511263299995,6195.511263299995,down,0.8771209999977145,15,0,0,99,-0.16,-0.16000000000000003,down,0.7996765999996569,,,,,,,,,,,,,,,,,,,,,,,,,,,,,,,,,,,,,,,,,,,,,,,,,,,,,,,,,,,,U80XZ2,train_y,red_square,top_left,2025-05-09_16h13.22.024,HideSeek_v1,2022.2.5,59.94093420027769,
,0,8,0,3,0,-5,11,,train_dim1_1,23,30,,,,2,0,2,0,,,,,,,,,0,0,0,0,0,22,22,22,5,0,5,0,,,,,,,,,,,,,,,,,,,,,,,,,,,,,,,,,,,,,,,,,,,,,,,,,,,,,,,,,,,,,,,,30,,,,,,,,6196.395129099983,6196.395129099983,6196.395129099983,6196.395129099983,6196.395129099983,return,1.3941072000015993,16,0,0,1,-0.16,-0.16000000000000003,return,1.3129215999797452,-55,4,-0.16,-0.16000000000000003,,,,,,,,,,,,,,,,,,,,,,,,,,,,,,,,,,,,,,,,,,,,,,,,,,,,,,,,U80XZ2,train_y,red_square,top_left,2025-05-09_16h13.22.024,HideSeek_v1,2022.2.5,59.94093420027769,
,3,7,3,7,0,0,16,,train_dim1_1,24,30,,,,2,0,2,0,,,,,,,,,0,0,0,0,0,23,23,23,0,0,0,0,,,,,,,,,,,,,,,,,,,,,,,,,stimuli/alien_stimuli/16.png,,,,,,,,,,,,,,,,,,,,,,,,,,,,,stimuli/alien_stimuli/11.png,11,0,25,,,,,,,30,,,,,,,,6202.627312099998,6202.627312099998,6202.627312099998,6202.627312099998,6202.627312099998,return,1.9184013000049163,17,0,0,1,0.08,0.16,return,1.8315286999859381,-55,4,0.08,0.16,6201.065462799976,6202.627312099998,-0.16,-0.16,0.4,0.0,0.039999999999999994,-0.16,-0.16,-0.16,-0.16,6199.347090800002,6199.347090800002,6199.347090800002,6199.347090800002,6199.347090800002,6199.347090800002,6199.347090800002,6199.347090800002,6199.347277780016,1.8201531000086106,return,1.7009695999731775,,,,,,,,,,,,,,,,,,,,,,,,,,,,,,,,,U80XZ2,train_y,red_square,top_left,2025-05-09_16h13.22.024,HideSeek_v1,2022.2.5,59.94093420027769,
,3,8,3,4,0,-4,12,,train_dim1_1,25,30,,,,2,0,2,0,,,,,,,,,0,0,0,0,0,24,24,24,0,0,0,0,,,,,,,,,,,,,,,,,,,,,,,,,stimuli/alien_stimuli/12.png,,,,,,,,,,,,,,,,,,,,,,,,,,,,,stimuli/alien_stimuli/16.png,16,3,26,,,,,,,30,,,,,,,,6209.445360299986,6209.445360299986,6209.445360299986,6209.445360299986,6209.445360299986,down,1.8222244000062346,17,0,0,99,0.08,0.15999999999999998,down,1.736553199996706,,,,,6207.887862100004,6209.445360299986,0.08,0.16,0.0,0.0,0.16,0.08,0.08,0.08,0.16,6206.101064599992,6206.101064599992,6206.101064599992,6206.101064599992,6206.101064599992,6206.101064599992,6206.101064599992,6206.101064599992,6206.102936880005,1.8867791999946348,return,1.7586644999973942,,,,,,,,,,,,,,,,,,,,,,,,,,,,,,,,,U80XZ2,train_y,red_square,top_left,2025-05-09_16h13.22.024,HideSeek_v1,2022.2.5,59.94093420027769,
,3,8,3,4,0,-4,12,,train_dim1_1,25,30,,,,2,0,2,0,,,,,,,,,0,0,0,0,0,24,24,24,1,0,1,0,,,,,,,,,,,,,,,,,,,,,,,,,,,,,,,,,,,,,,,,,,,,,,,,,,,,,,,,,,,,,,,,30,,,,,,,,6211.275097099977,6211.275097099977,6211.275097099977,6211.275097099977,6211.275097099977,down,0.910092199977953,17,0,0,99,0.08,0.07999999999999997,down,0.8288454000139609,,,,,,,,,,,,,,,,,,,,,,,,,,,,,,,,,,,,,,,,,,,,,,,,,,,,,,,,,,,,U80XZ2,train_y,red_square,top_left,2025-05-09_16h13.22.024,HideSeek_v1,2022.2.5,59.94093420027769,
,3,8,3,4,0,-4,12,,train_dim1_1,25,30,,,,2,0,2,0,,,,,,,,,0,0,0,0,0,24,24,24,2,0,2,0,,,,,,,,,,,,,,,,,,,,,,,,,,,,,,,,,,,,,,,,,,,,,,,,,,,,,,,,,,,,,,,,30,,,,,,,,6212.191513899976,6212.191513899976,6212.191513899976,6212.191513899976,6212.191513899976,down,0.5269035000237636,17,0,0,99,0.08,-2.7755575615628914e-17,down,0.44398240000009537,,,,,,,,,,,,,,,,,,,,,,,,,,,,,,,,,,,,,,,,,,,,,,,,,,,,,,,,,,,,U80XZ2,train_y,red_square,top_left,2025-05-09_16h13.22.024,HideSeek_v1,2022.2.5,59.94093420027769,
,3,8,3,4,0,-4,12,,train_dim1_1,25,30,,,,2,0,2,0,,,,,,,,,0,0,0,0,0,24,24,24,3,0,3,0,,,,,,,,,,,,,,,,,,,,,,,,,,,,,,,,,,,,,,,,,,,,,,,,,,,,,,,,,,,,,,,,30,,,,,,,,6212.7259351999965,6212.7259351999965,6212.7259351999965,6212.7259351999965,6212.7259351999965,down,0.9936375000106636,17,0,0,99,0.08,-0.08000000000000003,down,0.9080601999885403,,,,,,,,,,,,,,,,,,,,,,,,,,,,,,,,,,,,,,,,,,,,,,,,,,,,,,,,,,,,U80XZ2,train_y,red_square,top_left,2025-05-09_16h13.22.024,HideSeek_v1,2022.2.5,59.94093420027769,
,3,8,3,4,0,-4,12,,train_dim1_1,25,30,,,,2,0,2,0,,,,,,,,,0,0,0,0,0,24,24,24,4,0,4,0,,,,,,,,,,,,,,,,,,,,,,,,,,,,,,,,,,,,,,,,,,,,,,,,,,,,,,,,,,,,,,,,30,,,,,,,,6213.726173299976,6213.726173299976,6213.726173299976,6213.726173299976,6213.726173299976,return,0.6603530999855138,18,0,0,1,0.08,-0.08000000000000003,return,0.5768830000015441,-59,4,0.08,-0.08000000000000003,,,,,,,,,,,,,,,,,,,,,,,,,,,,,,,,,,,,,,,,,,,,,,,,,,,,,,,,U80XZ2,train_y,red_square,top_left,2025-05-09_16h13.22.024,HideSeek_v1,2022.2.5,59.94093420027769,
,4,9,4,6,0,-3,13,,train_dim1_1,26,30,,,,2,0,2,0,,,,,,,,,0,0,0,0,0,25,25,25,0,0,0,0,,,,,,,,,,,,,,,,,,,,,,,,,stimuli/alien_stimuli/13.png,,,,,,,,,,,,,,,,,,,,,,,,,,,,,stimuli/alien_stimuli/12.png,12,3,27,,,,,,,30,,,,,,,,6218.984167599992,6218.984167599992,6218.984167599992,6218.984167599992,6218.984167599992,down,1.206798200000776,18,0,0,99,0.16,0.24,down,1.1156686999893282,,,,,6217.428879899991,6218.984167599992,0.08,-0.08,0.32,0.0,0.07999999999999999,0.08,0.08,0.08,-0.08,6215.943127799983,6215.943127799983,6215.943127799983,6215.943127799983,6215.943127799983,6215.943127799983,6215.943127799983,6215.943127799983,6215.944334979995,1.5866817999922205,return,1.4587699999974575,,,,,,,,,,,,,,,,,,,,,,,,,,,,,,,,,U80XZ2,train_y,red_square,top_left,2025-05-09_16h13.22.024,HideSeek_v1,2022.2.5,59.94093420027769,
,4,9,4,6,0,-3,13,,train_dim1_1,26,30,,,,2,0,2,0,,,,,,,,,0,0,0,0,0,25,25,25,1,0,1,0,,,,,,,,,,,,,,,,,,,,,,,,,,,,,,,,,,,,,,,,,,,,,,,,,,,,,,,,,,,,,,,,30,,,,,,,,6220.198675899999,6220.198675899999,6220.198675899999,6220.198675899999,6220.198675899999,down,0.4096480000007432,18,0,0,99,0.16,0.15999999999999998,down,0.31897490000119433,,,,,,,,,,,,,,,,,,,,,,,,,,,,,,,,,,,,,,,,,,,,,,,,,,,,,,,,,,,,U80XZ2,train_y,red_square,top_left,2025-05-09_16h13.22.024,HideSeek_v1,2022.2.5,59.94093420027769,
,4,9,4,6,0,-3,13,,train_dim1_1,26,30,,,,2,0,2,0,,,,,,,,,0,0,0,0,0,25,25,25,2,0,2,0,,,,,,,,,,,,,,,,,,,,,,,,,,,,,,,,,,,,,,,,,,,,,,,,,,,,,,,,,,,,,,,,30,,,,,,,,6220.6143249000015,6220.6143249000015,6220.6143249000015,6220.6143249000015,6220.6143249000015,down,0.3766188999870792,18,0,0,99,0.16,0.07999999999999997,down,0.29006880000815727,,,,,,,,,,,,,,,,,,,,,,,,,,,,,,,,,,,,,,,,,,,,,,,,,,,,,,,,,,,,U80XZ2,train_y,red_square,top_left,2025-05-09_16h13.22.024,HideSeek_v1,2022.2.5,59.94093420027769,
,4,9,4,6,0,-3,13,,train_dim1_1,26,30,,,,2,0,2,0,,,,,,,,,0,0,0,0,0,25,25,25,3,0,3,0,,,,,,,,,,,,,,,,,,,,,,,,,,,,,,,,,,,,,,,,,,,,,,,,,,,,,,,,,,,,,,,,30,,,,,,,,6220.999549300002,6220.999549300002,6220.999549300002,6220.999549300002,6220.999549300002,return,0.54346909999731,19,0,0,1,0.16,0.07999999999999997,return,0.45112159999553114,-62,4,0.16,0.07999999999999997,,,,,,,,,,,,,,,,,,,,,,,,,,,,,,,,,,,,,,,,,,,,,,,,,,,,,,,,U80XZ2,train_y,red_square,top_left,2025-05-09_16h13.22.024,HideSeek_v1,2022.2.5,59.94093420027769,
,3,9,3,9,0,0,16,,train_dim1_1,27,30,,,,2,0,2,0,,,,,,,,,0,0,0,0,0,26,26,26,0,0,0,0,,,,,,,,,,,,,,,,,,,,,,,,,stimuli/alien_stimuli/16.png,,,,,,,,,,,,,,,,,,,,,,,,,,,,,stimuli/alien_stimuli/13.png,13,4,28,,,,,,,30,,,,,,,,6226.625000699976,6226.625000699976,6226.625000699976,6226.625000699976,6226.625000699976,return,2.289033000008203,20,0,0,1,0.08,0.32,return,2.208286000008229,-62,4,0.08,0.32,6225.068567599985,6226.625000699976,0.16,0.08,0.24,0.0,0.2,0.16,0.16,0.16,0.08,6223.09686759999,6223.09686759999,6223.09686759999,6223.09686759999,6223.09686759999,6223.09686759999,6223.09686759999,6223.09686759999,6223.083560739999,2.070804799994221,return,1.951857200008817,,,,,,,,,,,,,,,,,,,,,,,,,,,,,,,,,U80XZ2,train_y,red_square,top_left,2025-05-09_16h13.22.024,HideSeek_v1,2022.2.5,59.94093420027769,
,4,6,4,1,0,-5,11,,train_dim1_1,28,30,,,,2,0,2,0,,,,,,,,,0,0,0,0,0,27,27,27,0,0,0,0,,,,,,,,,,,,,,,,,,,,,,,,,stimuli/alien_stimuli/11.png,,,,,,,,,,,,,,,,,,,,,,,,,,,,,stimuli/alien_stimuli/16.png,16,3,29,,,,,,,30,,,,,,,,6233.267731799977,6233.267731799977,6233.267731799977,6233.267731799977,6233.267731799977,down,1.2691782000183593,20,0,0,99,0.16,0.0,down,1.1853586999932304,,,,,6231.707476399984,6233.267731799977,0.08,0.32,0.0,0.0,0.32,0.08,0.08,0.08,0.32,6230.4710471,6230.4710471,6230.4710471,6230.4710471,6230.4710471,6230.4710471,6230.4710471,6230.4710471,6230.473050180019,1.3366765000100713,return,1.2160222999809776,,,,,,,,,,,,,,,,,,,,,,,,,,,,,,,,,U80XZ2,train_y,red_square,top_left,2025-05-09_16h13.22.024,HideSeek_v1,2022.2.5,59.94093420027769,
,4,6,4,1,0,-5,11,,train_dim1_1,28,30,,,,2,0,2,0,,,,,,,,,0,0,0,0,0,27,27,27,1,0,1,0,,,,,,,,,,,,,,,,,,,,,,,,,,,,,,,,,,,,,,,,,,,,,,,,,,,,,,,,,,,,,,,,30,,,,,,,,6234.545013199997,6234.545013199997,6234.545013199997,6234.545013199997,6234.545013199997,down,0.4261447000026237,20,0,0,99,0.16,-0.08,down,0.3387214000103995,,,,,,,,,,,,,,,,,,,,,,,,,,,,,,,,,,,,,,,,,,,,,,,,,,,,,,,,,,,,U80XZ2,train_y,red_square,top_left,2025-05-09_16h13.22.024,HideSeek_v1,2022.2.5,59.94093420027769,
,4,6,4,1,0,-5,11,,train_dim1_1,28,30,,,,2,0,2,0,,,,,,,,,0,0,0,0,0,27,27,27,2,0,2,0,,,,,,,,,,,,,,,,,,,,,,,,,,,,,,,,,,,,,,,,,,,,,,,,,,,,,,,,,,,,,,,,30,,,,,,,,6234.978144399996,6234.978144399996,6234.978144399996,6234.978144399996,6234.978144399996,down,0.4929790000023786,20,0,0,99,0.16,-0.16,down,0.4072639999794774,,,,,,,,,,,,,,,,,,,,,,,,,,,,,,,,,,,,,,,,,,,,,,,,,,,,,,,,,,,,U80XZ2,train_y,red_square,top_left,2025-05-09_16h13.22.024,HideSeek_v1,2022.2.5,59.94093420027769,
,4,6,4,1,0,-5,11,,train_dim1_1,28,30,,,,2,0,2,0,,,,,,,,,0,0,0,0,0,27,27,27,3,0,3,0,,,,,,,,,,,,,,,,,,,,,,,,,,,,,,,,,,,,,,,,,,,,,,,,,,,,,,,,,,,,,,,,30,,,,,,,,6235.478254299989,6235.478254299989,6235.478254299989,6235.478254299989,6235.478254299989,down,0.5101037000131328,20,0,0,99,0.16,-0.24,down,0.41736520000267774,,,,,,,,,,,,,,,,,,,,,,,,,,,,,,,,,,,,,,,,,,,,,,,,,,,,,,,,,,,,U80XZ2,train_y,red_square,top_left,2025-05-09_16h13.22.024,HideSeek_v1,2022.2.5,59.94093420027769,
,4,6,4,1,0,-5,11,,train_dim1_1,28,30,,,,2,0,2,0,,,,,,,,,0,0,0,0,0,27,27,27,4,0,4,0,,,,,,,,,,,,,,,,,,,,,,,,,,,,,,,,,,,,,,,,,,,,,,,,,,,,,,,,,,,,,,,,30,,,,,,,,6235.995179599995,6235.995179599995,6235.995179599995,6235.995179599995,6235.995179599995,down,1.444198100012727,20,0,0,99,0.16,-0.32,down,1.3667382999847177,,,,,,,,,,,,,,,,,,,,,,,,,,,,,,,,,,,,,,,,,,,,,,,,,,,,,,,,,,,,U80XZ2,train_y,red_square,top_left,2025-05-09_16h13.22.024,HideSeek_v1,2022.2.5,59.94093420027769,
,4,6,4,1,0,-5,11,,train_dim1_1,28,30,,,,2,0,2,0,,,,,,,,,0,0,0,0,0,27,27,27,5,0,5,0,,,,,,,,,,,,,,,,,,,,,,,,,,,,,,,,,,,,,,,,,,,,,,,,,,,,,,,,,,,,,,,,30,,,,,,,,6237.446126299998,6237.446126299998,6237.446126299998,6237.446126299998,6237.446126299998,return,1.1271381999831647,21,0,0,1,0.16,-0.32,return,1.0456677999754902,-67,4,0.16,-0.32,,,,,,,,,,,,,,,,,,,,,,,,,,,,,,,,,,,,,,,,,,,,,,,,,,,,,,,,U80XZ2,train_y,red_square,top_left,2025-05-09_16h13.22.024,HideSeek_v1,2022.2.5,59.94093420027769,
,2,7,2,3,0,-4,12,,train_dim1_1,29,30,,,,2,0,2,0,,,,,,,,,0,0,0,0,0,28,28,28,0,0,0,0,,,,,,,,,,,,,,,,,,,,,,,,,stimuli/alien_stimuli/12.png,,,,,,,,,,,,,,,,,,,,,,,,,,,,,stimuli/alien_stimuli/11.png,11,4,30,,,,,,,30,,,,,,,,6243.407981700002,6243.407981700002,6243.407981700002,6243.407981700002,6243.407981700002,down,1.3877074999909382,21,0,0,99,0,0.08,down,1.3064914999704342,,,,,6241.849151200004,6243.407981700002,0.16,-0.32,0.4,0.0,-0.12,0.16,0.16,0.16,-0.32,6240.130291999987,6240.130291999987,6240.130291999987,6240.130291999987,6240.130291999987,6240.130291999987,6240.130291999987,6240.130291999987,6240.131076780013,1.8203597000101581,return,1.6973353000066709,,,,,,,,,,,,,,,,,,,,,,,,,,,,,,,,,U80XZ2,train_y,red_square,top_left,2025-05-09_16h13.22.024,HideSeek_v1,2022.2.5,59.94093420027769,
,2,7,2,3,0,-4,12,,train_dim1_1,29,30,,,,2,0,2,0,,,,,,,,,0,0,0,0,0,28,28,28,1,0,1,0,,,,,,,,,,,,,,,,,,,,,,,,,,,,,,,,,,,,,,,,,,,,,,,,,,,,,,,,,,,,,,,,30,,,,,,,,6244.8036920999875,6244.8036920999875,6244.8036920999875,6244.8036920999875,6244.8036920999875,down,0.5596919999807142,21,0,0,99,0,0.0,down,0.47029009999823757,,,,,,,,,,,,,,,,,,,,,,,,,,,,,,,,,,,,,,,,,,,,,,,,,,,,,,,,,,,,U80XZ2,train_y,red_square,top_left,2025-05-09_16h13.22.024,HideSeek_v1,2022.2.5,59.94093420027769,
,2,7,2,3,0,-4,12,,train_dim1_1,29,30,,,,2,0,2,0,,,,,,,,,0,0,0,0,0,28,28,28,2,0,2,0,,,,,,,,,,,,,,,,,,,,,,,,,,,,,,,,,,,,,,,,,,,,,,,,,,,,,,,,,,,,,,,,30,,,,,,,,6245.370008999977,6245.370008999977,6245.370008999977,6245.370008999977,6245.370008999977,down,0.6770967000047676,21,0,0,99,0,-0.08,down,0.5897465000161901,,,,,,,,,,,,,,,,,,,,,,,,,,,,,,,,,,,,,,,,,,,,,,,,,,,,,,,,,,,,U80XZ2,train_y,red_square,top_left,2025-05-09_16h13.22.024,HideSeek_v1,2022.2.5,59.94093420027769,
,2,7,2,3,0,-4,12,,train_dim1_1,29,30,,,,2,0,2,0,,,,,,,,,0,0,0,0,0,28,28,28,3,0,3,0,,,,,,,,,,,,,,,,,,,,,,,,,,,,,,,,,,,,,,,,,,,,,,,,,,,,,,,,,,,,,,,,30,,,,,,,,6246.053024099994,6246.053024099994,6246.053024099994,6246.053024099994,6246.053024099994,down,0.7935624000092503,21,0,0,99,0,-0.16,down,0.7112491999869235,,,,,,,,,,,,,,,,,,,,,,,,,,,,,,,,,,,,,,,,,,,,,,,,,,,,,,,,,,,,U80XZ2,train_y,red_square,top_left,2025-05-09_16h13.22.024,HideSeek_v1,2022.2.5,59.94093420027769,
,2,7,2,3,0,-4,12,,train_dim1_1,29,30,,,,2,0,2,0,,,,,,,,,0,0,0,0,0,28,28,28,4,0,4,0,,,,,,,,,,,,,,,,,,,,,,,,,,,,,,,,,,,,,,,,,,,,,,,,,,,,,,,,,,,,,,,,30,,,,,,,,6246.853934099985,6246.853934099985,6246.853934099985,6246.853934099985,6246.853934099985,return,2.9620832999935374,22,0,0,1,0,-0.16,return,2.8730770999973174,-71,4,0,-0.16,,,,,,,,,,,,,,,,,,,,,,,,,,,,,,,,,,,,,,,,,,,,,,,,,,,,,,,,U80XZ2,train_y,red_square,top_left,2025-05-09_16h13.22.024,HideSeek_v1,2022.2.5,59.94093420027769,
,0,6,0,5,0,-1,15,,train_dim1_1,30,30,,,,2,0,2,0,,,,,,,,,0,0,0,0,0,29,29,29,0,0,0,0,,,,,,,,,,,,,,,,,,,,,,,,,stimuli/alien_stimuli/15.png,,,,,,,,,,,,,,,,,,,,,,,,,,,,,stimuli/alien_stimuli/12.png,12,2,31,,,,,,,30,,,,,,,,6254.3675834999885,6254.3675834999885,6254.3675834999885,6254.3675834999885,6254.3675834999885,down,2.3034327999921516,22,0,0,99,-0.16,0.0,down,2.219149699987611,,,,,6252.808203099994,6254.3675834999885,0,-0.16,0.32,0.0,0.0,0,0.0,0,-0.16,6251.392689599976,6251.392689599976,6251.392689599976,6251.392689599976,6251.392689599976,6251.392689599976,6251.392689599976,6251.392689599976,6251.390378020023,1.5367322000092827,return,1.3914192999945953,,,,,,,,,,,,,,,,,,,,,,,,,,,,,,,,,U80XZ2,train_y,red_square,top_left,2025-05-09_16h13.22.024,HideSeek_v1,2022.2.5,59.94093420027769,
,0,6,0,5,0,-1,15,,train_dim1_1,30,30,,,,2,0,2,0,,,,,,,,,0,0,0,0,0,29,29,29,1,0,1,0,,,,,,,,,,,,,,,,,,,,,,,,,,,,,,,,,,,,,,,,,,,,,,,,,,,,,,,,,,,,,,,,30,,,,,,,,6256.6790095999895,6256.6790095999895,6256.6790095999895,6256.6790095999895,6256.6790095999895,return,0.6935633000102825,23,0,0,1,-0.16,0.0,return,0.6120382999943104,-72,4,-0.16,0.0,,,,,,,,,,,,,,,,,,,,,,,,,,,,,,,,,,,,,,,,,,,,,,,,,,,,,,,,U80XZ2,train_y,red_square,top_left,2025-05-09_16h13.22.024,HideSeek_v1,2022.2.5,59.94093420027769,
,,,,,,,,,,,30,,,,2,0,2,0,,,,,,,,,,,,,,,,,,,,,,,,,,,,,,,,,,,,,,,,,,,,,,,,,,,,,,,,,,,,,,,,,,,,,,,,,,stimuli/alien_stimuli/15.png,15,0,32,21,0.7,0.9583333333333335,1,1,1,30,0,conditions/schedules/train_y_first/red_square_00/top_left/inputTrain_2.1.xlsx,99,1,2,1,0,,,,,,,,,,,1,,,,,,,,,6260.281201299978,6261.8407878,-0.16,0,0.08,0.0,0.04,-0.16,-0.16,-0.16,0,6258.929422599991,6258.929422599991,6258.929422599991,6258.929422599991,6258.929422599991,6258.929422599991,6258.929422599991,6258.929422599991,6258.929925080021,1.4534828999894671,return,1.3343382000166457,0,0.9,0,1,23,,,,,,,,,,,,,,,,,,,,,,,,,,,,U80XZ2,train_y,red_square,top_left,2025-05-09_16h13.22.024,HideSeek_v1,2022.2.5,59.94093420027769,
,,,,,,,,,,,,,,,3,0,3,0,0,0,0,0,,,,,,,,,,,,,,,,,,,,,,,,,,,,,,,conditions/schedules/train_y_first/red_square_00/top_left/instructions/Slide17.png,conditions/schedules/train_y_first/red_square_00/top_left/instructions/Audio17.wav,6261.8407878,6261.8325915599935,17,"[2.921385100024054, 19.912916800007224, 16.535928999976022, 19.748922099999618, 4.649418400018476, 4.936159200005932, 5.319287999998778, 11.527371500007575, 5.866737300006207, 6.95830629998818, 10.01458790001925, 14.040368199988734, 16.70818300000974, 17.045879100012826, 43.58941389998654, 25.87890869998955, 42.858719499985455]","[0.0310514000011608, 0.013995999994222075, 0.03249899999354966, 19.748928499990143, 0.013979500014102086, 0.06507080001756549, 0.06753279999247752, 0.030255600024247542, 0.0520556999836117, 0.05662370001664385, 0.07861709999269806, 14.040374299976975, 0.014035400003194809, 17.04588540000259, 0.013920299999881536, 25.87891599998693, 42.85873020000872]",0,,,,,,,,,,,,,,,,,,,,,,,,,,,,,,,,,,,,,,,,,,,,,,,,,,,,,,,,,,,,,,,,,,,,,,,,,,,,,,,,,,,,,,,,,,,,,,,,,,,,,,,,,,,,,,,,,,,,,,,,,,,,U80XZ2,train_y,red_square,top_left,2025-05-09_16h13.22.024,HideSeek_v1,2022.2.5,59.94093420027769,
,,,,,,,,,,,,,,,3,0,3,0,1,0,1,0,,,,,,,,,,,,,,,,,,,,,,,,,,,,,,,conditions/schedules/train_y_first/red_square_00/top_left/instructions/Slide18.png,conditions/schedules/train_y_first/red_square_00/top_left/instructions/Audio18.wav,6304.766914799984,6304.768188499991,18,"[2.921385100024054, 19.912916800007224, 16.535928999976022, 19.748922099999618, 4.649418400018476, 4.936159200005932, 5.319287999998778, 11.527371500007575, 5.866737300006207, 6.95830629998818, 10.01458790001925, 14.040368199988734, 16.70818300000974, 17.045879100012826, 43.58941389998654, 25.87890869998955, 42.858719499985455, 6.454515800025547]","[0.0310514000011608, 0.013995999994222075, 0.03249899999354966, 19.748928499990143, 0.013979500014102086, 0.06507080001756549, 0.06753279999247752, 0.030255600024247542, 0.0520556999836117, 0.05662370001664385, 0.07861709999269806, 14.040374299976975, 0.014035400003194809, 17.04588540000259, 0.013920299999881536, 25.87891599998693, 0.01429310001549311, 6.454522500018356]",0,,,,,,,,,,,,,,,,,,,,,,,,,,,,,,,,,,,,,,,,,,,,,,,,,,,,,,,,,,,,,,,,,,,,,,,,,,,,,,,,,,,,,,,,,,,,,,,,,,,,,,,,,,,,,,,,,,,,,,,,,,,,U80XZ2,train_y,red_square,top_left,2025-05-09_16h13.22.024,HideSeek_v1,2022.2.5,59.94093420027769,
,,,,,,,,,,,,,,,3,0,3,0,2,0,2,0,,,,,,,,,,,,,,,,,,,,,,,,,,,,,,,conditions/schedules/train_y_first/red_square_00/top_left/instructions/Slide19.png,conditions/schedules/train_y_first/red_square_00/top_left/instructions/Audio19.wav,6311.276116299996,6311.273618060012,19,"[2.921385100024054, 19.912916800007224, 16.535928999976022, 19.748922099999618, 4.649418400018476, 4.936159200005932, 5.319287999998778, 11.527371500007575, 5.866737300006207, 6.95830629998818, 10.01458790001925, 14.040368199988734, 16.70818300000974, 17.045879100012826, 43.58941389998654, 25.87890869998955, 42.858719499985455, 6.454515800025547, 9.853647599986289]","[0.0310514000011608, 0.013995999994222075, 0.03249899999354966, 19.748928499990143, 0.013979500014102086, 0.06507080001756549, 0.06753279999247752, 0.030255600024247542, 0.0520556999836117, 0.05662370001664385, 0.07861709999269806, 14.040374299976975, 0.014035400003194809, 17.04588540000259, 0.013920299999881536, 25.87891599998693, 0.01429310001549311, 0.047091999993426725, 9.853653700003633]",0,,,,,,,,,,,,,,,,,,,,,,,,,,,,,,,,,,,,,,,,,,,,,,,,,,,,,,,,,,,,,,,,,,,,,,,,,,,,,,,,,,,,,,,,,,,,,,,,,,,,,,,,,,,,,,,,,,,,,,,,,,,,U80XZ2,train_y,red_square,top_left,2025-05-09_16h13.22.024,HideSeek_v1,2022.2.5,59.94093420027769,
,,,,,,,,,,,,,,,3,0,3,0,3,0,3,0,,,,,,,,,,,,,,,,,,,,,,,,,,,,,,,conditions/schedules/train_y_first/red_square_00/top_left/instructions/Slide20.png,conditions/schedules/train_y_first/red_square_00/top_left/instructions/Audio20.wav,6321.1850070999935,6321.181952259992,20,"[2.921385100024054, 19.912916800007224, 16.535928999976022, 19.748922099999618, 4.649418400018476, 4.936159200005932, 5.319287999998778, 11.527371500007575, 5.866737300006207, 6.95830629998818, 10.01458790001925, 14.040368199988734, 16.70818300000974, 17.045879100012826, 43.58941389998654, 25.87890869998955, 42.858719499985455, 6.454515800025547, 9.853647599986289, 12.82147170000826]","[0.0310514000011608, 0.013995999994222075, 0.03249899999354966, 19.748928499990143, 0.013979500014102086, 0.06507080001756549, 0.06753279999247752, 0.030255600024247542, 0.0520556999836117, 0.05662370001664385, 0.07861709999269806, 14.040374299976975, 0.014035400003194809, 17.04588540000259, 0.013920299999881536, 25.87891599998693, 0.01429310001549311, 0.047091999993426725, 0.04624429999967106, 12.821478300000308]",0,,,,,,,,,,,,,,,,,,,,,,,,,,,,,,,,,,,,,,,,,,,,,,,,,,,,,,,,,,,,,,,,,,,,,,,,,,,,,,,,,,,,,,,,,,,,,,,,,,,,,,,,,,,,,,,,,,,,,,,,,,,,U80XZ2,train_y,red_square,top_left,2025-05-09_16h13.22.024,HideSeek_v1,2022.2.5,59.94093420027769,
1,3,7,8,7,5,0,66,2,instr_dim1_2,,,,,,3,0,3,0,,,,,0,0,0,0,,,,,,,,,,,,,,,,,,,,,,,,,,,,,,,,,,,,,stimuli/alien_stimuli/66.png,conditions/schedules/train_y_first/red_square_00/top_left/inputInstr_2.xlsx,stimuli/alien_stimuli/66.png,6334.109291999979,6334.109291999979,6334.109291999979,6334.109291999979,6334.10912568001,return,11.944544099998893,"[-0.16, -0.08, 0, 0.08, 0.16, 0.24, 0.32, 0.4, 0.48, 0.56]","[-0.4, -0.32, -0.24, -0.16, -0.08, 0, 0.08, 0.16, 0.24, 0.32]",7,7,8,3,0.0,0.4,6346.230000899988,6346.230000899988,6346.230000899988,6346.230000899988,6346.230000899988,6346.230000899988,6346.230000899988,6346.21882706001,7.55713819997618,return,7.380948500009254,stimuli/alien_stimuli/66.png,66,3,1,,,,,,,,,,,,,,,,,,,,,,,,,,,,,,,,,,,,,,,,,,,,,,,,,,,,,,,,,,,,,,,,,,,,,,,,,,,,,,,,,,,,,,,,,U80XZ2,train_y,red_square,top_left,2025-05-09_16h13.22.024,HideSeek_v1,2022.2.5,59.94093420027769,
,,,,,,,,,,,30,,,,3,0,3,0,,,,,,,,,,,,,,,,,,,,,,,,,,,,,,,,,,,,,,,,,,,,,,,,,,,,,,,,,,,,,,,,,,,,,,,,,,,,,,21,0.7,0.9583333333333335,1,99,2,30,0,conditions/schedules/train_y_first/red_square_00/top_left/inputTrain_2.1.xlsx,99,1,2,1,0,,,,,,,,,,,,,,,,,,,,,,,,,,,,,,,,,,,,,,,,,,,,,,,,,,,,,,,,,,,,,,,,,,,,,,,,,,,U80XZ2,train_y,red_square,top_left,2025-05-09_16h13.22.024,HideSeek_v1,2022.2.5,59.94093420027769,
,,,,,,,,,,,,,,,4,0,4,0,0,0,0,0,,,,,,,,,,,,,,,,,,,,,,,,,,,,,,,conditions/schedules/train_y_first/red_square_00/top_left/instructions/Slide21.png,conditions/schedules/train_y_first/red_square_00/top_left/instructions/Audio21.wav,6353.798973199999,6353.791789400013,21,"[2.921385100024054, 19.912916800007224, 16.535928999976022, 19.748922099999618, 4.649418400018476, 4.936159200005932, 5.319287999998778, 11.527371500007575, 5.866737300006207, 6.95830629998818, 10.01458790001925, 14.040368199988734, 16.70818300000974, 17.045879100012826, 43.58941389998654, 25.87890869998955, 42.858719499985455, 6.454515800025547, 9.853647599986289, 12.82147170000826, 13.13462499997695]","[0.0310514000011608, 0.013995999994222075, 0.03249899999354966, 19.748928499990143, 0.013979500014102086, 0.06507080001756549, 0.06753279999247752, 0.030255600024247542, 0.0520556999836117, 0.05662370001664385, 0.07861709999269806, 14.040374299976975, 0.014035400003194809, 17.04588540000259, 0.013920299999881536, 25.87891599998693, 0.01429310001549311, 0.047091999993426725, 0.04624429999967106, 12.821478300000308, 13.134632599976612]",0,,,,,,,,,,,,,,,,,,,,,,,,,,,,,,,,,,,,,,,,,,,,,,,,,,,,,,,,,,,,,,,,,,,,,,,,,,,,,,,,,,,,,,,,,,,,,,,,,,,,,,,,,,,,,,,,,,,,,,,,,,,,U80XZ2,train_y,red_square,top_left,2025-05-09_16h13.22.024,HideSeek_v1,2022.2.5,59.94093420027769,
2,4,5,4,5,0,0,16,2,instr_dim1_2,,,,,,4,0,4,0,,,,,0,0,0,0,,,,,,,,,,,,,,,,,,,,,,,,,,,,,,,,,,,,,stimuli/alien_stimuli/16.png,conditions/schedules/train_y_first/red_square_00/top_left/inputInstr_2.xlsx,stimuli/alien_stimuli/16.png,6367.037458299979,6367.037458299979,6367.037458299979,6367.037458299979,6367.036179180006,return,2.8795945000019856,"[-0.16, -0.08, 0, 0.08, 0.16, 0.24, 0.32, 0.4, 0.48, 0.56]","[-0.4, -0.32, -0.24, -0.16, -0.08, 0, 0.08, 0.16, 0.24, 0.32]",5,5,4,4,0.0,0.0,6370.077395899978,6370.077395899978,6370.077395899978,6370.077395899978,6370.077395899978,6370.077395899978,6370.077395899978,6370.055452620017,7.723868700006278,return,7.55870959997992,stimuli/alien_stimuli/16.png,16,4,2,,,,,,,,,,,,,,,,,,,,,,,,,,,,,,,,,,,,,,,,,,,,,,,,,,,,,,,,,,,,,,,,,,,,,,,,,,,,,,,,,,,,,,,,,U80XZ2,train_y,red_square,top_left,2025-05-09_16h13.22.024,HideSeek_v1,2022.2.5,59.94093420027769,
,,,,,,,,,,,30,,,,4,0,4,0,,,,,,,,,,,,,,,,,,,,,,,,,,,,,,,,,,,,,,,,,,,,,,,,,,,,,,,,,,,,,,,,,,,,,,,,,,,,,,21,0.7,0.9583333333333335,1,99,2,30,0,conditions/schedules/train_y_first/red_square_00/top_left/inputTrain_2.1.xlsx,99,1,2,1,0,,,,,,,,,,,,,,,,,,,,,,,,,,,,,,,,,,,,,,,,,,,,,,,,,,,,,,,,,,,,,,,,,,,,,,,,,,,U80XZ2,train_y,red_square,top_left,2025-05-09_16h13.22.024,HideSeek_v1,2022.2.5,59.94093420027769,
,,,,,,,,,,,,,,,5,0,5,0,0,0,0,0,,,,,,,,,,,,,,,,,,,,,,,,,,,,,,,conditions/schedules/train_y_first/red_square_00/top_left/instructions/Slide22.png,conditions/schedules/train_y_first/red_square_00/top_left/instructions/Audio22.wav,6377.823215399985,6377.811875700019,22,"[2.921385100024054, 19.912916800007224, 16.535928999976022, 19.748922099999618, 4.649418400018476, 4.936159200005932, 5.319287999998778, 11.527371500007575, 5.866737300006207, 6.95830629998818, 10.01458790001925, 14.040368199988734, 16.70818300000974, 17.045879100012826, 43.58941389998654, 25.87890869998955, 42.858719499985455, 6.454515800025547, 9.853647599986289, 12.82147170000826, 13.13462499997695, 30.394767599995248]","[0.0310514000011608, 0.013995999994222075, 0.03249899999354966, 19.748928499990143, 0.013979500014102086, 0.06507080001756549, 0.06753279999247752, 0.030255600024247542, 0.0520556999836117, 0.05662370001664385, 0.07861709999269806, 14.040374299976975, 0.014035400003194809, 17.04588540000259, 0.013920299999881536, 25.87891599998693, 0.01429310001549311, 0.047091999993426725, 0.04624429999967106, 12.821478300000308, 13.134632599976612, 30.39477449998958]",0,,,,,,,,,,,,,,,,,,,,,,,,,,,,,,,,,,,,,,,,,,,,,,,,,,,,,,,,,,,,,,,,,,,,,,,,,,,,,,,,,,,,,,,,,,,,,,,,,,,,,,,,,,,,,,,,,,,,,,,,,,,,U80XZ2,train_y,red_square,top_left,2025-05-09_16h13.22.024,HideSeek_v1,2022.2.5,59.94093420027769,
,2,6,5,6,3,0,46,,train_dim1_2,1,30,,,,5,0,5,0,,,,,,,,,0,0,0,0,0,0,0,0,0,0,0,0,,,,,,,,,,,,,,,,,,,,,,,,,stimuli/alien_stimuli/46.png,,,,,,,,,,,,,,,,,,,,,,,,,,,,,,,,,,,,,,,30,,,,,,,,6408.3253656000015,6408.3253656000015,6408.3253656000015,6408.3253656000015,6408.3253656000015,up,6.728820599993924,0,0,0,99,0,0.16,up,6.622663999994984,,,,,,,,,,,,,,,,,,,,,,,,,,,,,,,,,,,,,,,,,,,,,,,,,,,,,,,,,,,,U80XZ2,train_y,red_square,top_left,2025-05-09_16h13.22.024,HideSeek_v1,2022.2.5,59.94093420027769,
,2,6,5,6,3,0,46,,train_dim1_2,1,30,,,,5,0,5,0,,,,,,,,,0,0,0,0,0,0,0,0,1,0,1,0,,,,,,,,,,,,,,,,,,,,,,,,,,,,,,,,,,,,,,,,,,,,,,,,,,,,,,,,,,,,,,,,30,,,,,,,,6415.039943099982,6415.039943099982,6415.039943099982,6415.039943099982,6415.039943099982,up,0.7930247000185773,0,0,0,99,0,0.24,up,0.7169080999738071,,,,,,,,,,,,,,,,,,,,,,,,,,,,,,,,,,,,,,,,,,,,,,,,,,,,,,,,,,,,U80XZ2,train_y,red_square,top_left,2025-05-09_16h13.22.024,HideSeek_v1,2022.2.5,59.94093420027769,
,2,6,5,6,3,0,46,,train_dim1_2,1,30,,,,5,0,5,0,,,,,,,,,0,0,0,0,0,0,0,0,2,0,2,0,,,,,,,,,,,,,,,,,,,,,,,,,,,,,,,,,,,,,,,,,,,,,,,,,,,,,,,,,,,,,,,,30,,,,,,,,6415.839743599994,6415.839743599994,6415.839743599994,6415.839743599994,6415.839743599994,up,1.9110799999907613,0,0,0,99,0,0.32,up,1.8257568999833893,,,,,,,,,,,,,,,,,,,,,,,,,,,,,,,,,,,,,,,,,,,,,,,,,,,,,,,,,,,,U80XZ2,train_y,red_square,top_left,2025-05-09_16h13.22.024,HideSeek_v1,2022.2.5,59.94093420027769,
,2,6,5,6,3,0,46,,train_dim1_2,1,30,,,,5,0,5,0,,,,,,,,,0,0,0,0,0,0,0,0,3,0,3,0,,,,,,,,,,,,,,,,,,,,,,,,,,,,,,,,,,,,,,,,,,,,,,,,,,,,,,,,,,,,,,,,30,,,,,,,,6417.759195199993,6417.759195199993,6417.759195199993,6417.759195199993,6417.759195199993,return,0.7099806999904104,0,0,0,0,0,0.32,return,0.6244184999959543,-69,4,0,0.32,,,,,,,,,,,,,,,,,,,,,,,,,,,,,,,,,,,,,,,,,,,,,,,,,,,,,,,,U80XZ2,train_y,red_square,top_left,2025-05-09_16h13.22.024,HideSeek_v1,2022.2.5,59.94093420027769,
,2,9,2,9,0,0,16,,train_dim1_2,2,30,,,,5,0,5,0,,,,,,,,,0,0,0,0,0,1,1,1,0,0,0,0,,,,,,,,,,,,,,,,,,,,,,,,,stimuli/alien_stimuli/16.png,,,,,,,,,,,,,,,,,,,,,,,,,,,,,stimuli/alien_stimuli/46.png,46,2,3,,,,,,,30,,,,,,,,6424.043885299994,6424.043885299994,6424.043885299994,6424.043885299994,6424.043885299994,return,2.0074924000073224,1,0,0,1,0,0.32,return,1.8949705999984872,-69,4,0,0.32,6422.4655318000005,6424.043885299994,0.24,0.08,0.0,0.24,0.08,0.24,0.12,0.24,0.08,6420.047217799991,6420.047217799991,6420.047217799991,6420.047217799991,6420.047217799991,6420.047217799991,6420.047217799991,6420.047217799991,6420.029993180022,2.537958000000799,return,2.3955815999943297,,,,,,,,,,,,,,,,,,,,,,,,,,,,,,,,,U80XZ2,train_y,red_square,top_left,2025-05-09_16h13.22.024,HideSeek_v1,2022.2.5,59.94093420027769,
,4,9,5,9,1,0,26,,train_dim1_2,3,30,,,,5,0,5,0,,,,,,,,,0,0,0,0,0,2,2,2,0,0,0,0,,,,,,,,,,,,,,,,,,,,,,,,,stimuli/alien_stimuli/26.png,,,,,,,,,,,,,,,,,,,,,,,,,,,,,stimuli/alien_stimuli/16.png,16,2,4,,,,,,,30,,,,,,,,6430.921536299982,6430.921536299982,6430.921536299982,6430.921536299982,6430.921536299982,right,4.557980400015367,1,0,0,99,0.24,0.32,right,4.451374500000384,,,,,6429.3379333999765,6430.921536299982,0,0.32,0.0,0.0,0.32,0,0.0,0,0.32,6427.6153723000025,6427.6153723000025,6427.6153723000025,6427.6153723000025,6427.6153723000025,6427.6153723000025,6427.6153723000025,6427.6153723000025,6427.603070420027,1.8536574999743607,return,1.6933293999754824,,,,,,,,,,,,,,,,,,,,,,,,,,,,,,,,,U80XZ2,train_y,red_square,top_left,2025-05-09_16h13.22.024,HideSeek_v1,2022.2.5,59.94093420027769,
,4,9,5,9,1,0,26,,train_dim1_2,3,30,,,,5,0,5,0,,,,,,,,,0,0,0,0,0,2,2,2,1,0,1,0,,,,,,,,,,,,,,,,,,,,,,,,,,,,,,,,,,,,,,,,,,,,,,,,,,,,,,,,,,,,,,,,30,,,,,,,,6435.4617566999805,6435.4617566999805,6435.4617566999805,6435.4617566999805,6435.4617566999805,left,2.343909999995958,1,0,0,99,0.15999999999999998,0.32,left,2.2621026000124402,,,,,,,,,,,,,,,,,,,,,,,,,,,,,,,,,,,,,,,,,,,,,,,,,,,,,,,,,,,,U80XZ2,train_y,red_square,top_left,2025-05-09_16h13.22.024,HideSeek_v1,2022.2.5,59.94093420027769,
,4,9,5,9,1,0,26,,train_dim1_2,3,30,,,,5,0,5,0,,,,,,,,,0,0,0,0,0,2,2,2,2,0,2,0,,,,,,,,,,,,,,,,,,,,,,,,,,,,,,,,,,,,,,,,,,,,,,,,,,,,,,,,,,,,,,,,30,,,,,,,,6437.814882299979,6437.814882299979,6437.814882299979,6437.814882299979,6437.814882299979,left,0.12648500001523644,1,0,0,99,0.07999999999999997,0.32,left,0.04766290000407025,,,,,,,,,,,,,,,,,,,,,,,,,,,,,,,,,,,,,,,,,,,,,,,,,,,,,,,,,,,,U80XZ2,train_y,red_square,top_left,2025-05-09_16h13.22.024,HideSeek_v1,2022.2.5,59.94093420027769,
,4,9,5,9,1,0,26,,train_dim1_2,3,30,,,,5,0,5,0,,,,,,,,,0,0,0,0,0,2,2,2,3,0,3,0,,,,,,,,,,,,,,,,,,,,,,,,,,,,,,,,,,,,,,,,,,,,,,,,,,,,,,,,,,,,,,,,30,,,,,,,,6437.945766799996,6437.945766799996,6437.945766799996,6437.945766799996,6437.945766799996,right,1.1106811999925412,1,0,0,99,0.15999999999999998,0.32,right,1.0178642999962904,,,,,,,,,,,,,,,,,,,,,,,,,,,,,,,,,,,,,,,,,,,,,,,,,,,,,,,,,,,,U80XZ2,train_y,red_square,top_left,2025-05-09_16h13.22.024,HideSeek_v1,2022.2.5,59.94093420027769,
,4,9,5,9,1,0,26,,train_dim1_2,3,30,,,,5,0,5,0,,,,,,,,,0,0,0,0,0,2,2,2,4,0,4,0,,,,,,,,,,,,,,,,,,,,,,,,,,,,,,,,,,,,,,,,,,,,,,,,,,,,,,,,,,,,,,,,30,,,,,,,,6439.063560199982,6439.063560199982,6439.063560199982,6439.063560199982,6439.063560199982,return,0.47667340000043623,1,1,0,0,0.15999999999999998,0.32,return,0.4001931000093464,-69,4,0.15999999999999998,0.32,,,,,,,,,,,,,,,,,,,,,,,,,,,,,,,,,,,,,,,,,,,,,,,,,,,,,,,,U80XZ2,train_y,red_square,top_left,2025-05-09_16h13.22.024,HideSeek_v1,2022.2.5,59.94093420027769,
,2,8,6,8,4,0,56,,train_dim1_2,4,30,,,,5,0,5,0,,,,,,,,,0,0,0,0,0,3,3,3,0,0,0,0,,,,,,,,,,,,,,,,,,,,,,,,,stimuli/alien_stimuli/56.png,,,,,,,,,,,,,,,,,,,,,,,,,,,,,stimuli/alien_stimuli/26.png,26,4,5,,,,,,,30,,,,,,,,6444.811073099991,6444.811073099991,6444.811073099991,6444.811073099991,6444.811073099991,right,3.1236554000061005,1,1,0,99,0.08,0.24,right,3.025430800014874,,,,,6443.232896799978,6444.811073099991,0.24,0.32,0.0,0.08,0.32,0.24,0.2,0.24,0.32,6441.123493099993,6441.123493099993,6441.123493099993,6441.123493099993,6441.123493099993,6441.123493099993,6441.123493099993,6441.123493099993,6441.114264820021,2.2376854000031017,return,2.092698799999198,,,,,,,,,,,,,,,,,,,,,,,,,,,,,,,,,U80XZ2,train_y,red_square,top_left,2025-05-09_16h13.22.024,HideSeek_v1,2022.2.5,59.94093420027769,
