trialInstr,x_fixStart,y_fixStart,x_corrSteps,y_corrSteps,x_nrSteps,y_nrSteps,alienID,trialLength,version,trialTrain,praclen,testlen,trial_label,break_on_off,beforeExpLoop.thisRepN,beforeExpLoop.thisTrialN,beforeExpLoop.thisN,beforeExpLoop.thisIndex,mini_instr_trials.thisRepN,mini_instr_trials.thisTrialN,mini_instr_trials.thisN,mini_instr_trials.thisIndex,instrLoop.thisRepN,instrLoop.thisTrialN,instrLoop.thisN,instrLoop.thisIndex,repeat_prac.thisRepN,repeat_prac.thisTrialN,repeat_prac.thisN,repeat_prac.thisIndex,trainLoop.thisRepN,trainLoop.thisTrialN,trainLoop.thisN,trainLoop.thisIndex,moveLoop_train.thisRepN,moveLoop_train.thisTrialN,moveLoop_train.thisN,moveLoop_train.thisIndex,experiment.thisRepN,experiment.thisTrialN,experiment.thisN,experiment.thisIndex,moveLoop_test.thisRepN,moveLoop_test.thisTrialN,moveLoop_test.thisN,moveLoop_test.thisIndex,mini_instr2_trials.thisRepN,mini_instr2_trials.thisTrialN,mini_instr2_trials.thisN,mini_instr2_trials.thisIndex,start_all_time,url,slideStim,audioStim,slides.started,sounds.started,nextButton.numClicks,nextButton.timesOn,nextButton.timesOff,prev_but.numClicks,prev_but.timesOn,prev_but.timesOff,alienStim,instrFile,alienStim_instr,gridImage_instr.started,startPos_3.started,key_instr.started,alienImage_3.started,sounds_1.started,key_instr.keys,key_instr.rt,all_x,all_y,FBy_corrSteps,FBy_fixStart,FBx_corrSteps,FBx_fixStart,FBy_pathSize_check,FBx_pathSize_check,gridImage_9.started,alienImageFB_3.started,startPosFB_3.started,keyFB_3.started,pathLine_ydir_2.started,pathLine_xdir_2.started,alienFace_3.started,sounds_2.started,RTFB_instr,keyFB_3.keys,keyFB_3.rt,draw_alienStim,draw_alienID,test_x,nrepcount,perfthres,percthres,earlierperf,earlystop,nextPrac,fileidx,praclen,saveACC_train,pracFile,nextPrac_train,addNrep,fileidx_endr,repExp,showearly,gridImage_4.started,startPos.started,movePos.started,key_resp.started,alienImage.started,buttonPress_train,RTchoice_train,cumAcctrain,aCorr,saveACC_choice,corrAns,x_movePos_end,y_movePos_end,key_resp.keys,key_resp.rt,wLy_dir,wLx_dir,x_movePos,y_movePos,text_2.started,text_2.stopped,aft_x_corrPos,aft_y_corrPos,y_pathSize_check,x_pathSize_check,y_pathdirY,x_pathdirY,x_pathdirX,x_corrPos,y_corrPos,gridImage_6.started,alienImageFB_2.started,startPosFB_2.started,movePosFB_2.started,keyFB_2.started,pathLine_xdir.started,pathLine_ydir.started,alienFace.started,sounds_4.started,RT_FBtrain,keyFB_2.keys,keyFB_2.rt,saveACC_pre,ACC,within_saveACC_train,earlystop_wloop,cumAcctrain_check,gridImage_3.started,alienImage_test.started,startPos_test.started,movePos_test.started,key_resp_test.started,wLy_dir_test,wLx_dir_test,buttonPress_test,RTchoice_test,cumAcctest,corrAns_test,key_resp_test.keys,key_resp_test.rt,text_3.started,text_3.stopped,total_time,end_all_time,key_resp_3.keys,slides_2.started,sounds_3.started,nextButton_2.numClicks,nextButton_2.timesOn,nextButton_2.timesOff,prev_but_2.numClicks,prev_but_2.timesOn,prev_but_2.timesOff,bye.started,participant,train_first,00_coordinate,starting corner,date,expName,psychopyVersion,frameRate,
,,,,,,,,,,,,,,,0,0,0,0,0,0,0,0,,,,,,,,,,,,,,,,,,,,,,,,,,,,,start_all_time,testround,conditions/schedules/train_y_first/blue_star_00/bottom_left/instructions/Slide1.png,conditions/schedules/train_y_first/blue_star_00/bottom_left/instructions/Audio1.wav,47.98115060000055,47.9231715999842,1,[4.003705599998284],[4.003713399999469],0,,,,,,,,,,,,,,,,,,,,,,,,,,,,,,,,,,,,,,,,,,,,,,,,,,,,,,,,,,,,,,,,,,,,,,,,,,,,,,,,,,,,,,,,,,,,,,,,,,,,,,,,,,,,,,,,,,,,,,,,,,,,UEZJQ4,train_y,blue_star,bottom_left,2025-07-09_16h19.08.643,HideSeek_v1,2022.2.5,59.946647484214516,
,,,,,,,,,,,,,,,0,0,0,0,1,0,1,0,,,,,,,,,,,,,,,,,,,,,,,,,,,,,,,conditions/schedules/train_y_first/blue_star_00/bottom_left/instructions/Slide2.png,conditions/schedules/train_y_first/blue_star_00/bottom_left/instructions/Audio2.wav,52.004449199999726,51.99204589999936,2,"[4.003705599998284, 18.036782799999855]","[0.00021940000078757294, 18.036797200000365]",0,,,,,,,,,,,,,,,,,,,,,,,,,,,,,,,,,,,,,,,,,,,,,,,,,,,,,,,,,,,,,,,,,,,,,,,,,,,,,,,,,,,,,,,,,,,,,,,,,,,,,,,,,,,,,,,,,,,,,,,,,,,,UEZJQ4,train_y,blue_star,bottom_left,2025-07-09_16h19.08.643,HideSeek_v1,2022.2.5,59.946647484214516,
,,,,,,,,,,,,,,,0,0,0,0,2,0,2,0,,,,,,,,,,,,,,,,,,,,,,,,,,,,,,,conditions/schedules/train_y_first/blue_star_00/bottom_left/instructions/Slide3.png,conditions/schedules/train_y_first/blue_star_00/bottom_left/instructions/Audio3.wav,70.12890730000072,70.12656139999963,3,"[4.003705599998284, 18.036782799999855, 17.17366360000051]","[0.00021940000078757294, 0.00026020000041171443, 17.17367319999903]",0,,,,,,,,,,,,,,,,,,,,,,,,,,,,,,,,,,,,,,,,,,,,,,,,,,,,,,,,,,,,,,,,,,,,,,,,,,,,,,,,,,,,,,,,,,,,,,,,,,,,,,,,,,,,,,,,,,,,,,,,,,,,UEZJQ4,train_y,blue_star,bottom_left,2025-07-09_16h19.08.643,HideSeek_v1,2022.2.5,59.946647484214516,
,,,,,,,,,,,,,,,0,0,0,0,3,0,3,0,,,,,,,,,,,,,,,,,,,,,,,,,,,,,,,conditions/schedules/train_y_first/blue_star_00/bottom_left/instructions/Slide4.png,conditions/schedules/train_y_first/blue_star_00/bottom_left/instructions/Audio4.wav,87.38294160000078,87.37125639999977,4,"[4.003705599998284, 18.036782799999855, 17.17366360000051, 21.387176300000647]","[0.00021940000078757294, 0.00026020000041171443, 0.014384899999640766, 21.387183200000436]",0,,,,,,,,,,,,,,,,,,,,,,,,,,,,,,,,,,,,,,,,,,,,,,,,,,,,,,,,,,,,,,,,,,,,,,,,,,,,,,,,,,,,,,,,,,,,,,,,,,,,,,,,,,,,,,,,,,,,,,,,,,,,UEZJQ4,train_y,blue_star,bottom_left,2025-07-09_16h19.08.643,HideSeek_v1,2022.2.5,59.946647484214516,
,,,,,,,,,,,,,,,0,0,0,0,4,0,4,0,,,,,,,,,,,,,,,,,,,,,,,,,,,,,,,conditions/schedules/train_y_first/blue_star_00/bottom_left/instructions/Slide5.png,conditions/schedules/train_y_first/blue_star_00/bottom_left/instructions/Audio5.wav,108.8332989999999,108.82246179999929,5,"[4.003705599998284, 18.036782799999855, 17.17366360000051, 21.387176300000647, 5.641263900000922]","[0.00021940000078757294, 0.00026020000041171443, 0.014384899999640766, 0.08669430000009015, 5.641271300000881]",0,,,,,,,,,,,,,,,,,,,,,,,,,,,,,,,,,,,,,,,,,,,,,,,,,,,,,,,,,,,,,,,,,,,,,,,,,,,,,,,,,,,,,,,,,,,,,,,,,,,,,,,,,,,,,,,,,,,,,,,,,,,,UEZJQ4,train_y,blue_star,bottom_left,2025-07-09_16h19.08.643,HideSeek_v1,2022.2.5,59.946647484214516,
,,,,,,,,,,,,,,,0,0,0,0,5,0,5,0,,,,,,,,,,,,,,,,,,,,,,,,,,,,,,,conditions/schedules/train_y_first/blue_star_00/bottom_left/instructions/Slide6.png,conditions/schedules/train_y_first/blue_star_00/bottom_left/instructions/Audio6.wav,114.52447550000034,114.52724539999944,6,"[4.003705599998284, 18.036782799999855, 17.17366360000051, 21.387176300000647, 5.641263900000922, 5.3545009999998]","[0.00021940000078757294, 0.00026020000041171443, 0.014384899999640766, 0.08669430000009015, 0.050123499999244814, 5.354507599999124]",0,,,,,,,,,,,,,,,,,,,,,,,,,,,,,,,,,,,,,,,,,,,,,,,,,,,,,,,,,,,,,,,,,,,,,,,,,,,,,,,,,,,,,,,,,,,,,,,,,,,,,,,,,,,,,,,,,,,,,,,,,,,,UEZJQ4,train_y,blue_star,bottom_left,2025-07-09_16h19.08.643,HideSeek_v1,2022.2.5,59.946647484214516,
,,,,,,,,,,,,,,,0,0,0,0,6,0,6,0,,,,,,,,,,,,,,,,,,,,,,,,,,,,,,,conditions/schedules/train_y_first/blue_star_00/bottom_left/instructions/Slide7.png,conditions/schedules/train_y_first/blue_star_00/bottom_left/instructions/Audio7.wav,119.93205099999977,119.93172929999928,7,"[4.003705599998284, 18.036782799999855, 17.17366360000051, 21.387176300000647, 5.641263900000922, 5.3545009999998, 5.200981800000591]","[0.00021940000078757294, 0.00026020000041171443, 0.014384899999640766, 0.08669430000009015, 0.050123499999244814, 0.046769500000664266, 5.200988600001438]",0,,,,,,,,,,,,,,,,,,,,,,,,,,,,,,,,,,,,,,,,,,,,,,,,,,,,,,,,,,,,,,,,,,,,,,,,,,,,,,,,,,,,,,,,,,,,,,,,,,,,,,,,,,,,,,,,,,,,,,,,,,,,UEZJQ4,train_y,blue_star,bottom_left,2025-07-09_16h19.08.643,HideSeek_v1,2022.2.5,59.946647484214516,
,,,,,,,,,,,,,,,0,0,0,0,7,0,7,0,,,,,,,,,,,,,,,,,,,,,,,,,,,,,,,conditions/schedules/train_y_first/blue_star_00/bottom_left/instructions/Slide8.png,conditions/schedules/train_y_first/blue_star_00/bottom_left/instructions/Audio8.wav,125.1861712000009,125.18586609999947,8,"[4.003705599998284, 18.036782799999855, 17.17366360000051, 21.387176300000647, 5.641263900000922, 5.3545009999998, 5.200981800000591, 11.256761000000552]","[0.00021940000078757294, 0.00026020000041171443, 0.014384899999640766, 0.08669430000009015, 0.050123499999244814, 0.046769500000664266, 0.0817005999997491, 11.25676779999958]",0,,,,,,,,,,,,,,,,,,,,,,,,,,,,,,,,,,,,,,,,,,,,,,,,,,,,,,,,,,,,,,,,,,,,,,,,,,,,,,,,,,,,,,,,,,,,,,,,,,,,,,,,,,,,,,,,,,,,,,,,,,,,UEZJQ4,train_y,blue_star,bottom_left,2025-07-09_16h19.08.643,HideSeek_v1,2022.2.5,59.946647484214516,
,,,,,,,,,,,,,,,0,0,0,0,8,0,8,0,,,,,,,,,,,,,,,,,,,,,,,,,,,,,,,conditions/schedules/train_y_first/blue_star_00/bottom_left/instructions/Slide9.png,conditions/schedules/train_y_first/blue_star_00/bottom_left/instructions/Audio9.wav,136.50883299999987,136.49542180000097,9,"[4.003705599998284, 18.036782799999855, 17.17366360000051, 21.387176300000647, 5.641263900000922, 5.3545009999998, 5.200981800000591, 11.256761000000552, 5.689007599999968]","[0.00021940000078757294, 0.00026020000041171443, 0.014384899999640766, 0.08669430000009015, 0.050123499999244814, 0.046769500000664266, 0.0817005999997491, 0.05112350000126753, 5.689014200001111]",0,,,,,,,,,,,,,,,,,,,,,,,,,,,,,,,,,,,,,,,,,,,,,,,,,,,,,,,,,,,,,,,,,,,,,,,,,,,,,,,,,,,,,,,,,,,,,,,,,,,,,,,,,,,,,,,,,,,,,,,,,,,,UEZJQ4,train_y,blue_star,bottom_left,2025-07-09_16h19.08.643,HideSeek_v1,2022.2.5,59.946647484214516,
,,,,,,,,,,,,,,,0,0,0,0,9,0,9,0,,,,,,,,,,,,,,,,,,,,,,,,,,,,,,,conditions/schedules/train_y_first/blue_star_00/bottom_left/instructions/Slide10.png,conditions/schedules/train_y_first/blue_star_00/bottom_left/instructions/Audio10.wav,142.23538709999957,142.23352119999944,10,"[4.003705599998284, 18.036782799999855, 17.17366360000051, 21.387176300000647, 5.641263900000922, 5.3545009999998, 5.200981800000591, 11.256761000000552, 5.689007599999968, 6.868319799999881]","[0.00021940000078757294, 0.00026020000041171443, 0.014384899999640766, 0.08669430000009015, 0.050123499999244814, 0.046769500000664266, 0.0817005999997491, 0.05112350000126753, 0.07960929999899236, 6.868325899999036]",0,,,,,,,,,,,,,,,,,,,,,,,,,,,,,,,,,,,,,,,,,,,,,,,,,,,,,,,,,,,,,,,,,,,,,,,,,,,,,,,,,,,,,,,,,,,,,,,,,,,,,,,,,,,,,,,,,,,,,,,,,,,,UEZJQ4,train_y,blue_star,bottom_left,2025-07-09_16h19.08.643,HideSeek_v1,2022.2.5,59.946647484214516,
,,,,,,,,,,,,,,,0,0,0,0,10,0,10,0,,,,,,,,,,,,,,,,,,,,,,,,,,,,,,,conditions/schedules/train_y_first/blue_star_00/bottom_left/instructions/Slide11.png,conditions/schedules/train_y_first/blue_star_00/bottom_left/instructions/Audio11.wav,149.1411705999999,149.13934970000045,11,"[4.003705599998284, 18.036782799999855, 17.17366360000051, 21.387176300000647, 5.641263900000922, 5.3545009999998, 5.200981800000591, 11.256761000000552, 5.689007599999968, 6.868319799999881, 9.986888399998861]","[0.00021940000078757294, 0.00026020000041171443, 0.014384899999640766, 0.08669430000009015, 0.050123499999244814, 0.046769500000664266, 0.0817005999997491, 0.05112350000126753, 0.07960929999899236, 0.09525529999882565, 9.986895399999412]",0,,,,,,,,,,,,,,,,,,,,,,,,,,,,,,,,,,,,,,,,,,,,,,,,,,,,,,,,,,,,,,,,,,,,,,,,,,,,,,,,,,,,,,,,,,,,,,,,,,,,,,,,,,,,,,,,,,,,,,,,,,,,UEZJQ4,train_y,blue_star,bottom_left,2025-07-09_16h19.08.643,HideSeek_v1,2022.2.5,59.946647484214516,
,,,,,,,,,,,,,,,0,0,0,0,11,0,11,0,,,,,,,,,,,,,,,,,,,,,,,,,,,,,,,conditions/schedules/train_y_first/blue_star_00/bottom_left/instructions/Slide12.png,conditions/schedules/train_y_first/blue_star_00/bottom_left/instructions/Audio12.wav,159.18066780000117,159.18098910000006,12,"[4.003705599998284, 18.036782799999855, 17.17366360000051, 21.387176300000647, 5.641263900000922, 5.3545009999998, 5.200981800000591, 11.256761000000552, 5.689007599999968, 6.868319799999881, 9.986888399998861, 13.60924840000007]","[0.00021940000078757294, 0.00026020000041171443, 0.014384899999640766, 0.08669430000009015, 0.050123499999244814, 0.046769500000664266, 0.0817005999997491, 0.05112350000126753, 0.07960929999899236, 0.09525529999882565, 0.06458790000033332, 13.609254999999393]",0,,,,,,,,,,,,,,,,,,,,,,,,,,,,,,,,,,,,,,,,,,,,,,,,,,,,,,,,,,,,,,,,,,,,,,,,,,,,,,,,,,,,,,,,,,,,,,,,,,,,,,,,,,,,,,,,,,,,,,,,,,,,UEZJQ4,train_y,blue_star,bottom_left,2025-07-09_16h19.08.643,HideSeek_v1,2022.2.5,59.946647484214516,
1,0,3,0,8,0,5,66,2,instr_dim1_1,,,,,,0,0,0,0,,,,,0,0,0,0,,,,,,,,,,,,,,,,,,,,,,,,,,,,,,,,,,,,,stimuli/alien_stimuli/66.png,conditions/schedules/train_y_first/blue_star_00/bottom_left/inputInstr_1.xlsx,stimuli/alien_stimuli/66.png,172.88621869999952,172.88621869999952,172.88621869999952,172.88621869999952,172.8757247000005,return,11.123518899999908,"[-0.16, -0.08, 0, 0.08, 0.16, 0.24, 0.32, 0.4, 0.48, 0.56]","[-0.4, -0.32, -0.24, -0.16, -0.08, 0, 0.08, 0.16, 0.24, 0.32]",8,3,0,0,0.4,0.0,184.16270600000098,184.16270600000098,184.16270600000098,184.16270600000098,184.16270600000098,184.16270600000098,184.16270600000098,184.15178139999952,9.64225240000087,return,9.48629020000044,stimuli/alien_stimuli/66.png,66,0,1,,,,,,,,,,,,,,,,,,,,,,,,,,,,,,,,,,,,,,,,,,,,,,,,,,,,,,,,,,,,,,,,,,,,,,,,,,,,,,,,,,,,,,,,,UEZJQ4,train_y,blue_star,bottom_left,2025-07-09_16h19.08.643,HideSeek_v1,2022.2.5,59.946647484214516,
,,,,,,,,,,,30,,,,0,0,0,0,,,,,,,,,,,,,,,,,,,,,,,,,,,,,,,,,,,,,,,,,,,,,,,,,,,,,,,,,,,,,,,,,,,,,,,,,,,,,,21,0.7,0,0,99,1,30,0,conditions/schedules/train_y_first/blue_star_00/bottom_left/inputTrain_1.1.xlsx,99,1,1,1,0,,,,,,,,,,,,,,,,,,,,,,,,,,,,,,,,,,,,,,,,,,,,,,,,,,,,,,,,,,,,,,,,,,,,,,,,,,,UEZJQ4,train_y,blue_star,bottom_left,2025-07-09_16h19.08.643,HideSeek_v1,2022.2.5,59.946647484214516,
,,,,,,,,,,,,,,,1,0,1,0,0,0,0,0,,,,,,,,,,,,,,,,,,,,,,,,,,,,,,,conditions/schedules/train_y_first/blue_star_00/bottom_left/instructions/Slide13.png,conditions/schedules/train_y_first/blue_star_00/bottom_left/instructions/Audio13.wav,193.8133157000011,193.8097458,13,"[4.003705599998284, 18.036782799999855, 17.17366360000051, 21.387176300000647, 5.641263900000922, 5.3545009999998, 5.200981800000591, 11.256761000000552, 5.689007599999968, 6.868319799999881, 9.986888399998861, 13.60924840000007, 18.36162669999976]","[0.00021940000078757294, 0.00026020000041171443, 0.014384899999640766, 0.08669430000009015, 0.050123499999244814, 0.046769500000664266, 0.0817005999997491, 0.05112350000126753, 0.07960929999899236, 0.09525529999882565, 0.06458790000033332, 13.609254999999393, 18.361633799999254]",0,,,,,,,,,,,,,,,,,,,,,,,,,,,,,,,,,,,,,,,,,,,,,,,,,,,,,,,,,,,,,,,,,,,,,,,,,,,,,,,,,,,,,,,,,,,,,,,,,,,,,,,,,,,,,,,,,,,,,,,,,,,,UEZJQ4,train_y,blue_star,bottom_left,2025-07-09_16h19.08.643,HideSeek_v1,2022.2.5,59.946647484214516,
,,,,,,,,,,,,,,,1,0,1,0,1,0,1,0,,,,,,,,,,,,,,,,,,,,,,,,,,,,,,,conditions/schedules/train_y_first/blue_star_00/bottom_left/instructions/Slide14.png,conditions/schedules/train_y_first/blue_star_00/bottom_left/instructions/Audio14.wav,212.2408472999996,212.24167780000062,14,"[4.003705599998284, 18.036782799999855, 17.17366360000051, 21.387176300000647, 5.641263900000922, 5.3545009999998, 5.200981800000591, 11.256761000000552, 5.689007599999968, 6.868319799999881, 9.986888399998861, 13.60924840000007, 18.36162669999976, 16.27951309999844]","[0.00021940000078757294, 0.00026020000041171443, 0.014384899999640766, 0.08669430000009015, 0.050123499999244814, 0.046769500000664266, 0.0817005999997491, 0.05112350000126753, 0.07960929999899236, 0.09525529999882565, 0.06458790000033332, 13.609254999999393, 18.361633799999254, 16.279521999998906]",0,,,,,,,,,,,,,,,,,,,,,,,,,,,,,,,,,,,,,,,,,,,,,,,,,,,,,,,,,,,,,,,,,,,,,,,,,,,,,,,,,,,,,,,,,,,,,,,,,,,,,,,,,,,,,,,,,,,,,,,,,,,,UEZJQ4,train_y,blue_star,bottom_left,2025-07-09_16h19.08.643,HideSeek_v1,2022.2.5,59.946647484214516,
2,2,3,2,3,0,0,61,2,instr_dim1_1,,,,,,1,0,1,0,,,,,0,0,0,0,,,,,,,,,,,,,,,,,,,,,,,,,,,,,,,,,,,,,stimuli/alien_stimuli/61.png,conditions/schedules/train_y_first/blue_star_00/bottom_left/inputInstr_1.xlsx,stimuli/alien_stimuli/61.png,228.61264870000014,228.61264870000014,228.61264870000014,228.61264870000014,228.60551140000024,return,8.043220500001553,"[-0.16, -0.08, 0, 0.08, 0.16, 0.24, 0.32, 0.4, 0.48, 0.56]","[-0.4, -0.32, -0.24, -0.16, -0.08, 0, 0.08, 0.16, 0.24, 0.32]",3,3,2,2,0.0,0.0,236.81634810000105,236.81634810000105,236.81634810000105,236.81634810000105,236.81634810000105,236.81634810000105,236.81634810000105,236.8120203999995,8.791893300000083,return,8.62534130000131,stimuli/alien_stimuli/61.png,61,2,2,,,,,,,,,,,,,,,,,,,,,,,,,,,,,,,,,,,,,,,,,,,,,,,,,,,,,,,,,,,,,,,,,,,,,,,,,,,,,,,,,,,,,,,,,UEZJQ4,train_y,blue_star,bottom_left,2025-07-09_16h19.08.643,HideSeek_v1,2022.2.5,59.946647484214516,
,,,,,,,,,,,30,,,,1,0,1,0,,,,,,,,,,,,,,,,,,,,,,,,,,,,,,,,,,,,,,,,,,,,,,,,,,,,,,,,,,,,,,,,,,,,,,,,,,,,,,21,0.7,0,0,99,1,30,0,conditions/schedules/train_y_first/blue_star_00/bottom_left/inputTrain_1.1.xlsx,99,1,1,1,0,,,,,,,,,,,,,,,,,,,,,,,,,,,,,,,,,,,,,,,,,,,,,,,,,,,,,,,,,,,,,,,,,,,,,,,,,,,UEZJQ4,train_y,blue_star,bottom_left,2025-07-09_16h19.08.643,HideSeek_v1,2022.2.5,59.946647484214516,
,,,,,,,,,,,,,,,2,0,2,0,0,0,0,0,,,,,,,,,,,,,,,,,,,,,,,,,,,,,,,conditions/schedules/train_y_first/blue_star_00/bottom_left/instructions/Slide15.png,conditions/schedules/train_y_first/blue_star_00/bottom_left/instructions/Audio15.wav,245.60727640000005,245.60301449999932,15,"[4.003705599998284, 18.036782799999855, 17.17366360000051, 21.387176300000647, 5.641263900000922, 5.3545009999998, 5.200981800000591, 11.256761000000552, 5.689007599999968, 6.868319799999881, 9.986888399998861, 13.60924840000007, 18.36162669999976, 16.27951309999844, 42.81210310000097]","[0.00021940000078757294, 0.00026020000041171443, 0.014384899999640766, 0.08669430000009015, 0.050123499999244814, 0.046769500000664266, 0.0817005999997491, 0.05112350000126753, 0.07960929999899236, 0.09525529999882565, 0.06458790000033332, 13.609254999999393, 18.361633799999254, 16.279521999998906, 42.81211110000004]",0,,,,,,,,,,,,,,,,,,,,,,,,,,,,,,,,,,,,,,,,,,,,,,,,,,,,,,,,,,,,,,,,,,,,,,,,,,,,,,,,,,,,,,,,,,,,,,,,,,,,,,,,,,,,,,,,,,,,,,,,,,,,UEZJQ4,train_y,blue_star,bottom_left,2025-07-09_16h19.08.643,HideSeek_v1,2022.2.5,59.946647484214516,
,,,,,,,,,,,,,,,2,0,2,0,1,0,1,0,,,,,,,,,,,,,,,,,,,,,,,,,,,,,,,conditions/schedules/train_y_first/blue_star_00/bottom_left/instructions/Slide16.png,conditions/schedules/train_y_first/blue_star_00/bottom_left/instructions/Audio16.wav,288.49083190000056,288.48868330000005,16,"[4.003705599998284, 18.036782799999855, 17.17366360000051, 21.387176300000647, 5.641263900000922, 5.3545009999998, 5.200981800000591, 11.256761000000552, 5.689007599999968, 6.868319799999881, 9.986888399998861, 13.60924840000007, 18.36162669999976, 16.27951309999844, 42.81210310000097, 21.380127300000822]","[0.00021940000078757294, 0.00026020000041171443, 0.014384899999640766, 0.08669430000009015, 0.050123499999244814, 0.046769500000664266, 0.0817005999997491, 0.05112350000126753, 0.07960929999899236, 0.09525529999882565, 0.06458790000033332, 13.609254999999393, 18.361633799999254, 16.279521999998906, 42.81211110000004, 21.380133800001204]",0,,,,,,,,,,,,,,,,,,,,,,,,,,,,,,,,,,,,,,,,,,,,,,,,,,,,,,,,,,,,,,,,,,,,,,,,,,,,,,,,,,,,,,,,,,,,,,,,,,,,,,,,,,,,,,,,,,,,,,,,,,,,UEZJQ4,train_y,blue_star,bottom_left,2025-07-09_16h19.08.643,HideSeek_v1,2022.2.5,59.946647484214516,
,0,0,0,4,0,4,65,,train_dim1_1,1,30,,,,2,0,2,0,,,,,,,,,0,0,0,0,0,0,0,0,0,0,0,0,,,,,,,,,,,,,,,,,,,,,,,,,stimuli/alien_stimuli/65.png,,,,,,,,,,,,,,,,,,,,,,,,,,,,,,,,,,,,,,,30,,,,,,,,309.9709966999999,309.9709966999999,309.9709966999999,309.9709966999999,309.9709966999999,up,9.735453100000086,0,0,0,99,-0.16,-0.32,up,9.641603900001428,,,,,,,,,,,,,,,,,,,,,,,,,,,,,,,,,,,,,,,,,,,,,,,,,,,,,,,,,,,,UEZJQ4,train_y,blue_star,bottom_left,2025-07-09_16h19.08.643,HideSeek_v1,2022.2.5,59.946647484214516,
,0,0,0,4,0,4,65,,train_dim1_1,1,30,,,,2,0,2,0,,,,,,,,,0,0,0,0,0,0,0,0,1,0,1,0,,,,,,,,,,,,,,,,,,,,,,,,,,,,,,,,,,,,,,,,,,,,,,,,,,,,,,,,,,,,,,,,30,,,,,,,,319.6945102000009,319.6945102000009,319.6945102000009,319.6945102000009,319.6945102000009,up,2.511997400000837,0,0,0,99,-0.16,-0.24,up,2.4373941000012564,,,,,,,,,,,,,,,,,,,,,,,,,,,,,,,,,,,,,,,,,,,,,,,,,,,,,,,,,,,,UEZJQ4,train_y,blue_star,bottom_left,2025-07-09_16h19.08.643,HideSeek_v1,2022.2.5,59.946647484214516,
,0,0,0,4,0,4,65,,train_dim1_1,1,30,,,,2,0,2,0,,,,,,,,,0,0,0,0,0,0,0,0,2,0,2,0,,,,,,,,,,,,,,,,,,,,,,,,,,,,,,,,,,,,,,,,,,,,,,,,,,,,,,,,,,,,,,,,30,,,,,,,,322.2119737000012,322.2119737000012,322.2119737000012,322.2119737000012,322.2119737000012,up,1.3935481999997137,0,0,0,99,-0.16,-0.15999999999999998,up,1.310030500000721,,,,,,,,,,,,,,,,,,,,,,,,,,,,,,,,,,,,,,,,,,,,,,,,,,,,,,,,,,,,UEZJQ4,train_y,blue_star,bottom_left,2025-07-09_16h19.08.643,HideSeek_v1,2022.2.5,59.946647484214516,
,0,0,0,4,0,4,65,,train_dim1_1,1,30,,,,2,0,2,0,,,,,,,,,0,0,0,0,0,0,0,0,3,0,3,0,,,,,,,,,,,,,,,,,,,,,,,,,,,,,,,,,,,,,,,,,,,,,,,,,,,,,,,,,,,,,,,,30,,,,,,,,323.61336310000115,323.61336310000115,323.61336310000115,323.61336310000115,323.61336310000115,up,0.9936710000001767,0,0,0,99,-0.16,-0.07999999999999997,up,0.9120849000009912,,,,,,,,,,,,,,,,,,,,,,,,,,,,,,,,,,,,,,,,,,,,,,,,,,,,,,,,,,,,UEZJQ4,train_y,blue_star,bottom_left,2025-07-09_16h19.08.643,HideSeek_v1,2022.2.5,59.946647484214516,
,0,0,0,4,0,4,65,,train_dim1_1,1,30,,,,2,0,2,0,,,,,,,,,0,0,0,0,0,0,0,0,4,0,4,0,,,,,,,,,,,,,,,,,,,,,,,,,,,,,,,,,,,,,,,,,,,,,,,,,,,,,,,,,,,,,,,,30,,,,,,,,324.6174406000009,324.6174406000009,324.6174406000009,324.6174406000009,324.6174406000009,up,0.1573103999999148,0,0,0,99,-0.16,2.7755575615628914e-17,up,0.07458450000194716,,,,,,,,,,,,,,,,,,,,,,,,,,,,,,,,,,,,,,,,,,,,,,,,,,,,,,,,,,,,UEZJQ4,train_y,blue_star,bottom_left,2025-07-09_16h19.08.643,HideSeek_v1,2022.2.5,59.946647484214516,
,0,0,0,4,0,4,65,,train_dim1_1,1,30,,,,2,0,2,0,,,,,,,,,0,0,0,0,0,0,0,0,5,0,5,0,,,,,,,,,,,,,,,,,,,,,,,,,,,,,,,,,,,,,,,,,,,,,,,,,,,,,,,,,,,,,,,,30,,,,,,,,324.7810000999998,324.7810000999998,324.7810000999998,324.7810000999998,324.7810000999998,up,7.39881719999903,0,0,0,99,-0.16,0.08000000000000003,up,7.314162300001044,,,,,,,,,,,,,,,,,,,,,,,,,,,,,,,,,,,,,,,,,,,,,,,,,,,,,,,,,,,,UEZJQ4,train_y,blue_star,bottom_left,2025-07-09_16h19.08.643,HideSeek_v1,2022.2.5,59.946647484214516,
,0,0,0,4,0,4,65,,train_dim1_1,1,30,,,,2,0,2,0,,,,,,,,,0,0,0,0,0,0,0,0,6,0,6,0,,,,,,,,,,,,,,,,,,,,,,,,,,,,,,,,,,,,,,,,,,,,,,,,,,,,,,,,,,,,,,,,30,,,,,,,,332.2077227000009,332.2077227000009,332.2077227000009,332.2077227000009,332.2077227000009,up,0.5765751999988424,0,0,0,99,-0.16,0.16000000000000003,up,0.47662010000021837,,,,,,,,,,,,,,,,,,,,,,,,,,,,,,,,,,,,,,,,,,,,,,,,,,,,,,,,,,,,UEZJQ4,train_y,blue_star,bottom_left,2025-07-09_16h19.08.643,HideSeek_v1,2022.2.5,59.946647484214516,
,0,0,0,4,0,4,65,,train_dim1_1,1,30,,,,2,0,2,0,,,,,,,,,0,0,0,0,0,0,0,0,7,0,7,0,,,,,,,,,,,,,,,,,,,,,,,,,,,,,,,,,,,,,,,,,,,,,,,,,,,,,,,,,,,,,,,,30,,,,,,,,332.77044410000053,332.77044410000053,332.77044410000053,332.77044410000053,332.77044410000053,return,3.196123700001408,0,0,0,0,-0.16,0.16000000000000003,return,3.115313700000115,7,0,-0.16,0.16000000000000003,,,,,,,,,,,,,,,,,,,,,,,,,,,,,,,,,,,,,,,,,,,,,,,,,,,,,,,,UEZJQ4,train_y,blue_star,bottom_left,2025-07-09_16h19.08.643,HideSeek_v1,2022.2.5,59.946647484214516,
,3,2,3,7,0,5,66,,train_dim1_1,2,30,,,,2,0,2,0,,,,,,,,,0,0,0,0,0,1,1,1,0,0,0,0,,,,,,,,,,,,,,,,,,,,,,,,,stimuli/alien_stimuli/66.png,,,,,,,,,,,,,,,,,,,,,,,,,,,,,stimuli/alien_stimuli/65.png,65,0,3,,,,,,,30,,,,,,,,365.93398720000005,365.93398720000005,365.93398720000005,365.93398720000005,365.93398720000005,up,4.960438500000237,0,0,0,99,0.08,-0.15999999999999998,up,4.861546599999201,,,,,364.3683137000007,365.93398720000005,-0.16,-0.08,0.32,0.0,-0.24000000000000002,-0.16,-0.16,-0.16,-0.08,337.5575200000003,337.5575200000003,337.5575200000003,337.5575200000003,337.5575200000003,337.5575200000003,337.5575200000003,337.5575200000003,337.5459819000003,26.941153800000393,return,26.779254799999762,,,,,,,,,,,,,,,,,,,,,,,,,,,,,,,,,UEZJQ4,train_y,blue_star,bottom_left,2025-07-09_16h19.08.643,HideSeek_v1,2022.2.5,59.946647484214516,
,3,2,3,7,0,5,66,,train_dim1_1,2,30,,,,2,0,2,0,,,,,,,,,0,0,0,0,0,1,1,1,1,0,1,0,,,,,,,,,,,,,,,,,,,,,,,,,,,,,,,,,,,,,,,,,,,,,,,,,,,,,,,,,,,,,,,,30,,,,,,,,370.8898721000005,370.8898721000005,370.8898721000005,370.8898721000005,370.8898721000005,up,0.4750177999994776,0,0,0,99,0.08,-0.07999999999999997,up,0.38843010000164213,,,,,,,,,,,,,,,,,,,,,,,,,,,,,,,,,,,,,,,,,,,,,,,,,,,,,,,,,,,,UEZJQ4,train_y,blue_star,bottom_left,2025-07-09_16h19.08.643,HideSeek_v1,2022.2.5,59.946647484214516,
,3,2,3,7,0,5,66,,train_dim1_1,2,30,,,,2,0,2,0,,,,,,,,,0,0,0,0,0,1,1,1,2,0,2,0,,,,,,,,,,,,,,,,,,,,,,,,,,,,,,,,,,,,,,,,,,,,,,,,,,,,,,,,,,,,,,,,30,,,,,,,,371.3700021000004,371.3700021000004,371.3700021000004,371.3700021000004,371.3700021000004,up,0.7933129000011832,0,0,0,99,0.08,2.7755575615628914e-17,up,0.7076882000001206,,,,,,,,,,,,,,,,,,,,,,,,,,,,,,,,,,,,,,,,,,,,,,,,,,,,,,,,,,,,UEZJQ4,train_y,blue_star,bottom_left,2025-07-09_16h19.08.643,HideSeek_v1,2022.2.5,59.946647484214516,
,3,2,3,7,0,5,66,,train_dim1_1,2,30,,,,2,0,2,0,,,,,,,,,0,0,0,0,0,1,1,1,3,0,3,0,,,,,,,,,,,,,,,,,,,,,,,,,,,,,,,,,,,,,,,,,,,,,,,,,,,,,,,,,,,,,,,,30,,,,,,,,372.17073119999986,372.17073119999986,372.17073119999986,372.17073119999986,372.17073119999986,return,1.6278853000003437,0,0,0,0,0.08,2.7755575615628914e-17,return,1.5457673000018985,10,0,0.08,2.7755575615628914e-17,,,,,,,,,,,,,,,,,,,,,,,,,,,,,,,,,,,,,,,,,,,,,,,,,,,,,,,,UEZJQ4,train_y,blue_star,bottom_left,2025-07-09_16h19.08.643,HideSeek_v1,2022.2.5,59.946647484214516,
,2,3,2,6,0,3,64,,train_dim1_1,3,30,,,,2,0,2,0,,,,,,,,,0,0,0,0,0,2,2,2,0,0,0,0,,,,,,,,,,,,,,,,,,,,,,,,,stimuli/alien_stimuli/64.png,,,,,,,,,,,,,,,,,,,,,,,,,,,,,stimuli/alien_stimuli/66.png,66,3,4,,,,,,,30,,,,,,,,380.9840621000003,380.9840621000003,380.9840621000003,380.9840621000003,380.9840621000003,down,10.74726659999942,0,0,0,99,0,-0.24,down,10.66240260000086,,,,,379.43082460000005,380.9840621000003,0.08,0.16,0.4,0.0,-0.039999999999999994,0.08,0.08,0.08,0.16,375.3673084000002,375.3673084000002,375.3673084000002,375.3673084000002,375.3673084000002,375.3673084000002,375.3673084000002,375.3673084000002,375.36096570000007,4.172334099999716,return,4.038272499999948,,,,,,,,,,,,,,,,,,,,,,,,,,,,,,,,,UEZJQ4,train_y,blue_star,bottom_left,2025-07-09_16h19.08.643,HideSeek_v1,2022.2.5,59.946647484214516,
,2,3,2,6,0,3,64,,train_dim1_1,3,30,,,,2,0,2,0,,,,,,,,,0,0,0,0,0,2,2,2,1,0,1,0,,,,,,,,,,,,,,,,,,,,,,,,,,,,,,,,,,,,,,,,,,,,,,,,,,,,,,,,,,,,,,,,30,,,,,,,,391.7504547000008,391.7504547000008,391.7504547000008,391.7504547000008,391.7504547000008,return,4.129225900000165,0,0,0,0,0,-0.24,return,4.034491800000978,9,0,0,-0.24,,,,,,,,,,,,,,,,,,,,,,,,,,,,,,,,,,,,,,,,,,,,,,,,,,,,,,,,UEZJQ4,train_y,blue_star,bottom_left,2025-07-09_16h19.08.643,HideSeek_v1,2022.2.5,59.946647484214516,
,0,1,0,2,0,1,62,,train_dim1_1,4,30,,,,2,0,2,0,,,,,,,,,0,0,0,0,0,3,3,3,0,0,0,0,,,,,,,,,,,,,,,,,,,,,,,,,stimuli/alien_stimuli/62.png,,,,,,,,,,,,,,,,,,,,,,,,,,,,,stimuli/alien_stimuli/64.png,64,2,5,,,,,,,30,,,,,,,,402.569330100001,402.569330100001,402.569330100001,402.569330100001,402.569330100001,return,6.2771830999990925,0,1,0,0,-0.16,-0.32,return,6.19863389999955,9,0,-0.16,-0.32,401.0155857999998,402.569330100001,0,0.08,0.24,0.0,-0.04,0,0.0,0,0.08,397.43822050000017,397.43822050000017,397.43822050000017,397.43822050000017,397.43822050000017,397.43822050000017,397.43822050000017,397.43822050000017,397.4299123000004,3.6874221000016405,return,3.556554500000857,,,,,,,,,,,,,,,,,,,,,,,,,,,,,,,,,UEZJQ4,train_y,blue_star,bottom_left,2025-07-09_16h19.08.643,HideSeek_v1,2022.2.5,59.946647484214516,
,3,3,3,3,0,0,61,,train_dim1_1,5,30,,,,2,0,2,0,,,,,,,,,0,0,0,0,0,4,4,4,0,0,0,0,,,,,,,,,,,,,,,,,,,,,,,,,stimuli/alien_stimuli/61.png,,,,,,,,,,,,,,,,,,,,,,,,,,,,,stimuli/alien_stimuli/62.png,62,0,6,,,,,,,30,,,,,,,,424.5052409,424.5052409,424.5052409,424.5052409,424.5052409,up,6.244032399999924,0,1,0,99,0.08,-0.08,up,6.141620300000795,,,,,422.93354510000063,424.5052409,-0.16,-0.24,0.08,0.0,-0.28,-0.16,-0.16,-0.16,-0.24,410.41339770000013,410.41339770000013,410.41339770000013,410.41339770000013,410.41339770000013,410.41339770000013,410.41339770000013,410.41339770000013,410.4064870999995,12.629734000000099,return,12.489734200000385,,,,,,,,,,,,,,,,,,,,,,,,,,,,,,,,,UEZJQ4,train_y,blue_star,bottom_left,2025-07-09_16h19.08.643,HideSeek_v1,2022.2.5,59.946647484214516,
,3,3,3,3,0,0,61,,train_dim1_1,5,30,,,,2,0,2,0,,,,,,,,,0,0,0,0,0,4,4,4,1,0,1,0,,,,,,,,,,,,,,,,,,,,,,,,,,,,,,,,,,,,,,,,,,,,,,,,,,,,,,,,,,,,,,,,30,,,,,,,,430.7374555999995,430.7374555999995,430.7374555999995,430.7374555999995,430.7374555999995,up,0.6931485999994038,0,1,0,99,0.08,0.0,up,0.6152516000020114,,,,,,,,,,,,,,,,,,,,,,,,,,,,,,,,,,,,,,,,,,,,,,,,,,,,,,,,,,,,UEZJQ4,train_y,blue_star,bottom_left,2025-07-09_16h19.08.643,HideSeek_v1,2022.2.5,59.946647484214516,
,3,3,3,3,0,0,61,,train_dim1_1,5,30,,,,2,0,2,0,,,,,,,,,0,0,0,0,0,4,4,4,2,0,2,0,,,,,,,,,,,,,,,,,,,,,,,,,,,,,,,,,,,,,,,,,,,,,,,,,,,,,,,,,,,,,,,,30,,,,,,,,431.4372338000012,431.4372338000012,431.4372338000012,431.4372338000012,431.4372338000012,return,0.810462199999165,0,0,0,0,0.08,0.0,return,0.7375633999999991,11,0,0.08,0.0,,,,,,,,,,,,,,,,,,,,,,,,,,,,,,,,,,,,,,,,,,,,,,,,,,,,,,,,UEZJQ4,train_y,blue_star,bottom_left,2025-07-09_16h19.08.643,HideSeek_v1,2022.2.5,59.946647484214516,
,1,4,1,5,0,1,62,,train_dim1_1,6,30,,,,2,0,2,0,,,,,,,,,0,0,0,0,0,5,5,5,0,0,0,0,,,,,,,,,,,,,,,,,,,,,,,,,stimuli/alien_stimuli/62.png,,,,,,,,,,,,,,,,,,,,,,,,,,,,,stimuli/alien_stimuli/61.png,61,3,7,,,,,,,30,,,,,,,,440.8833391999997,440.8833391999997,440.8833391999997,440.8833391999997,440.8833391999997,down,4.325510199998462,0,0,0,99,-0.08,-0.16,down,4.237199600000167,,,,,439.33076150000124,440.8833391999997,0.08,-0.16,0.0,0.0,-0.16,0.08,0.08,0.08,-0.16,433.8191526999999,433.8191526999999,433.8191526999999,433.8191526999999,433.8191526999999,433.8191526999999,433.8191526999999,433.8191526999999,433.80931819999967,5.623682999999801,return,5.490348899998935,,,,,,,,,,,,,,,,,,,,,,,,,,,,,,,,,UEZJQ4,train_y,blue_star,bottom_left,2025-07-09_16h19.08.643,HideSeek_v1,2022.2.5,59.946647484214516,
,1,4,1,5,0,1,62,,train_dim1_1,6,30,,,,2,0,2,0,,,,,,,,,0,0,0,0,0,5,5,5,1,0,1,0,,,,,,,,,,,,,,,,,,,,,,,,,,,,,,,,,,,,,,,,,,,,,,,,,,,,,,,,,,,,,,,,30,,,,,,,,445.21570150000116,445.21570150000116,445.21570150000116,445.21570150000116,445.21570150000116,down,0.3767117000006692,0,0,0,99,-0.08,-0.24,down,0.3013299000012921,,,,,,,,,,,,,,,,,,,,,,,,,,,,,,,,,,,,,,,,,,,,,,,,,,,,,,,,,,,,UEZJQ4,train_y,blue_star,bottom_left,2025-07-09_16h19.08.643,HideSeek_v1,2022.2.5,59.946647484214516,
,1,4,1,5,0,1,62,,train_dim1_1,6,30,,,,2,0,2,0,,,,,,,,,0,0,0,0,0,5,5,5,2,0,2,0,,,,,,,,,,,,,,,,,,,,,,,,,,,,,,,,,,,,,,,,,,,,,,,,,,,,,,,,,,,,,,,,30,,,,,,,,445.5993501000012,445.5993501000012,445.5993501000012,445.5993501000012,445.5993501000012,return,3.2623599999988073,0,0,0,0,-0.08,-0.24,return,3.181906500001787,9,0,-0.08,-0.24,,,,,,,,,,,,,,,,,,,,,,,,,,,,,,,,,,,,,,,,,,,,,,,,,,,,,,,,UEZJQ4,train_y,blue_star,bottom_left,2025-07-09_16h19.08.643,HideSeek_v1,2022.2.5,59.946647484214516,
,1,3,1,6,0,3,64,,train_dim1_1,7,30,,,,2,0,2,0,,,,,,,,,0,0,0,0,0,6,6,6,0,0,0,0,,,,,,,,,,,,,,,,,,,,,,,,,stimuli/alien_stimuli/64.png,,,,,,,,,,,,,,,,,,,,,,,,,,,,,stimuli/alien_stimuli/62.png,62,1,8,,,,,,,30,,,,,,,,453.6089171000003,453.6089171000003,453.6089171000003,453.6089171000003,453.6089171000003,right,2.658430199999202,0,0,0,99,0.0,-0.16,right,2.5803740000010293,,,,,452.05796700000064,453.6089171000003,-0.08,0,0.08,0.0,-0.04,-0.08,-0.08,-0.08,0,450.42604200000096,450.42604200000096,450.42604200000096,450.42604200000096,450.42604200000096,450.42604200000096,450.42604200000096,450.42604200000096,450.42332659999954,1.7374147000009543,return,1.616388400001597,,,,,,,,,,,,,,,,,,,,,,,,,,,,,,,,,UEZJQ4,train_y,blue_star,bottom_left,2025-07-09_16h19.08.643,HideSeek_v1,2022.2.5,59.946647484214516,
,1,3,1,6,0,3,64,,train_dim1_1,7,30,,,,2,0,2,0,,,,,,,,,0,0,0,0,0,6,6,6,1,0,1,0,,,,,,,,,,,,,,,,,,,,,,,,,,,,,,,,,,,,,,,,,,,,,,,,,,,,,,,,,,,,,,,,30,,,,,,,,456.2736741000008,456.2736741000008,456.2736741000008,456.2736741000008,456.2736741000008,up,0.7097768000003271,0,0,0,99,0.0,-0.08,up,0.6266034999989643,,,,,,,,,,,,,,,,,,,,,,,,,,,,,,,,,,,,,,,,,,,,,,,,,,,,,,,,,,,,UEZJQ4,train_y,blue_star,bottom_left,2025-07-09_16h19.08.643,HideSeek_v1,2022.2.5,59.946647484214516,
,1,3,1,6,0,3,64,,train_dim1_1,7,30,,,,2,0,2,0,,,,,,,,,0,0,0,0,0,6,6,6,2,0,2,0,,,,,,,,,,,,,,,,,,,,,,,,,,,,,,,,,,,,,,,,,,,,,,,,,,,,,,,,,,,,,,,,30,,,,,,,,456.99062890000096,456.99062890000096,456.99062890000096,456.99062890000096,456.99062890000096,up,1.5611301999997522,0,0,0,99,0.0,0.0,up,1.4840972000001784,,,,,,,,,,,,,,,,,,,,,,,,,,,,,,,,,,,,,,,,,,,,,,,,,,,,,,,,,,,,UEZJQ4,train_y,blue_star,bottom_left,2025-07-09_16h19.08.643,HideSeek_v1,2022.2.5,59.946647484214516,
,1,3,1,6,0,3,64,,train_dim1_1,7,30,,,,2,0,2,0,,,,,,,,,0,0,0,0,0,6,6,6,3,0,3,0,,,,,,,,,,,,,,,,,,,,,,,,,,,,,,,,,,,,,,,,,,,,,,,,,,,,,,,,,,,,,,,,30,,,,,,,,458.55852419999974,458.55852419999974,458.55852419999974,458.55852419999974,458.55852419999974,up,0.34370769999986805,0,0,0,99,0.0,0.08,up,0.26370309999947494,,,,,,,,,,,,,,,,,,,,,,,,,,,,,,,,,,,,,,,,,,,,,,,,,,,,,,,,,,,,UEZJQ4,train_y,blue_star,bottom_left,2025-07-09_16h19.08.643,HideSeek_v1,2022.2.5,59.946647484214516,
,1,3,1,6,0,3,64,,train_dim1_1,7,30,,,,2,0,2,0,,,,,,,,,0,0,0,0,0,6,6,6,4,0,4,0,,,,,,,,,,,,,,,,,,,,,,,,,,,,,,,,,,,,,,,,,,,,,,,,,,,,,,,,,,,,,,,,30,,,,,,,,458.91016710000076,458.91016710000076,458.91016710000076,458.91016710000076,458.91016710000076,return,1.377203300000474,0,1,0,0,0.0,0.08,return,1.301468499999828,12,1,0.0,0.08,,,,,,,,,,,,,,,,,,,,,,,,,,,,,,,,,,,,,,,,,,,,,,,,,,,,,,,,UEZJQ4,train_y,blue_star,bottom_left,2025-07-09_16h19.08.643,HideSeek_v1,2022.2.5,59.946647484214516,
,4,2,4,2,0,0,61,,train_dim1_1,8,30,,,,2,0,2,0,,,,,,,,,0,0,0,0,0,7,7,7,0,0,0,0,,,,,,,,,,,,,,,,,,,,,,,,,stimuli/alien_stimuli/61.png,,,,,,,,,,,,,,,,,,,,,,,,,,,,,stimuli/alien_stimuli/64.png,64,1,9,,,,,,,30,,,,,,,,466.2551332000003,466.2551332000003,466.2551332000003,466.2551332000003,466.2551332000003,up,1.3058586000006471,0,1,0,99,0.16,-0.15999999999999998,up,1.2169631000015215,,,,,464.70189890000074,466.2551332000003,-0.08,0.08,0.24,0.0,-0.04,-0.08,-0.08,-0.08,0.08,461.85751960000016,461.85751960000016,461.85751960000016,461.85751960000016,461.85751960000016,461.85751960000016,461.85751960000016,461.85751960000016,461.84938609999915,2.954799200000707,return,2.826564499999222,,,,,,,,,,,,,,,,,,,,,,,,,,,,,,,,,UEZJQ4,train_y,blue_star,bottom_left,2025-07-09_16h19.08.643,HideSeek_v1,2022.2.5,59.946647484214516,
,4,2,4,2,0,0,61,,train_dim1_1,8,30,,,,2,0,2,0,,,,,,,,,0,0,0,0,0,7,7,7,1,0,1,0,,,,,,,,,,,,,,,,,,,,,,,,,,,,,,,,,,,,,,,,,,,,,,,,,,,,,,,,,,,,,,,,30,,,,,,,,467.5673031999995,467.5673031999995,467.5673031999995,467.5673031999995,467.5673031999995,up,0.7102314999992814,0,1,0,99,0.16,-0.07999999999999997,up,0.6259233000000677,,,,,,,,,,,,,,,,,,,,,,,,,,,,,,,,,,,,,,,,,,,,,,,,,,,,,,,,,,,,UEZJQ4,train_y,blue_star,bottom_left,2025-07-09_16h19.08.643,HideSeek_v1,2022.2.5,59.946647484214516,
,4,2,4,2,0,0,61,,train_dim1_1,8,30,,,,2,0,2,0,,,,,,,,,0,0,0,0,0,7,7,7,2,0,2,0,,,,,,,,,,,,,,,,,,,,,,,,,,,,,,,,,,,,,,,,,,,,,,,,,,,,,,,,,,,,,,,,30,,,,,,,,468.28448180000123,468.28448180000123,468.28448180000123,468.28448180000123,468.28448180000123,up,2.0109161000000313,0,1,0,99,0.16,2.7755575615628914e-17,up,1.9368106000001717,,,,,,,,,,,,,,,,,,,,,,,,,,,,,,,,,,,,,,,,,,,,,,,,,,,,,,,,,,,,UEZJQ4,train_y,blue_star,bottom_left,2025-07-09_16h19.08.643,HideSeek_v1,2022.2.5,59.946647484214516,
,4,2,4,2,0,0,61,,train_dim1_1,8,30,,,,2,0,2,0,,,,,,,,,0,0,0,0,0,7,7,7,3,0,3,0,,,,,,,,,,,,,,,,,,,,,,,,,,,,,,,,,,,,,,,,,,,,,,,,,,,,,,,,,,,,,,,,30,,,,,,,,470.3017517999997,470.3017517999997,470.3017517999997,470.3017517999997,470.3017517999997,return,1.844940000000861,0,0,0,0,0.16,2.7755575615628914e-17,return,1.773149700000431,15,1,0.16,2.7755575615628914e-17,,,,,,,,,,,,,,,,,,,,,,,,,,,,,,,,,,,,,,,,,,,,,,,,,,,,,,,,UEZJQ4,train_y,blue_star,bottom_left,2025-07-09_16h19.08.643,HideSeek_v1,2022.2.5,59.946647484214516,
,4,3,4,7,0,4,65,,train_dim1_1,9,30,,,,2,0,2,0,,,,,,,,,0,0,0,0,0,8,8,8,0,0,0,0,,,,,,,,,,,,,,,,,,,,,,,,,stimuli/alien_stimuli/65.png,,,,,,,,,,,,,,,,,,,,,,,,,,,,,stimuli/alien_stimuli/61.png,61,4,10,,,,,,,30,,,,,,,,476.7316798000011,476.7316798000011,476.7316798000011,476.7316798000011,476.7316798000011,up,1.5215361999999004,0,0,0,99,0.16,-0.08,up,1.4445935000003374,,,,,475.17738980000104,476.7316798000011,0.16,-0.24,0.0,0.0,-0.24,0.16,0.16,0.16,-0.24,473.71491480000077,473.71491480000077,473.71491480000077,473.71491480000077,473.71491480000077,473.71491480000077,473.71491480000077,473.71491480000077,473.70924760000014,1.5702465000013035,return,1.43035940000118,,,,,,,,,,,,,,,,,,,,,,,,,,,,,,,,,UEZJQ4,train_y,blue_star,bottom_left,2025-07-09_16h19.08.643,HideSeek_v1,2022.2.5,59.946647484214516,
,4,3,4,7,0,4,65,,train_dim1_1,9,30,,,,2,0,2,0,,,,,,,,,0,0,0,0,0,8,8,8,1,0,1,0,,,,,,,,,,,,,,,,,,,,,,,,,,,,,,,,,,,,,,,,,,,,,,,,,,,,,,,,,,,,,,,,30,,,,,,,,478.2596549000009,478.2596549000009,478.2596549000009,478.2596549000009,478.2596549000009,up,1.927489699999569,0,0,0,99,0.16,0.0,up,1.8552753999993001,,,,,,,,,,,,,,,,,,,,,,,,,,,,,,,,,,,,,,,,,,,,,,,,,,,,,,,,,,,,UEZJQ4,train_y,blue_star,bottom_left,2025-07-09_16h19.08.643,HideSeek_v1,2022.2.5,59.946647484214516,
,4,3,4,7,0,4,65,,train_dim1_1,9,30,,,,2,0,2,0,,,,,,,,,0,0,0,0,0,8,8,8,2,0,2,0,,,,,,,,,,,,,,,,,,,,,,,,,,,,,,,,,,,,,,,,,,,,,,,,,,,,,,,,,,,,,,,,30,,,,,,,,480.19338400000015,480.19338400000015,480.19338400000015,480.19338400000015,480.19338400000015,return,0.40979499999957625,0,0,0,0,0.16,0.0,return,0.3229709000006551,17,1,0.16,0.0,,,,,,,,,,,,,,,,,,,,,,,,,,,,,,,,,,,,,,,,,,,,,,,,,,,,,,,,UEZJQ4,train_y,blue_star,bottom_left,2025-07-09_16h19.08.643,HideSeek_v1,2022.2.5,59.946647484214516,
,2,2,2,7,0,5,66,,train_dim1_1,10,30,,,,2,0,2,0,,,,,,,,,0,0,0,0,0,9,9,9,0,0,0,0,,,,,,,,,,,,,,,,,,,,,,,,,stimuli/alien_stimuli/66.png,,,,,,,,,,,,,,,,,,,,,,,,,,,,,stimuli/alien_stimuli/65.png,65,4,11,,,,,,,30,,,,,,,,485.40463810000074,485.40463810000074,485.40463810000074,485.40463810000074,485.40463810000074,up,0.9875889000013558,0,0,0,99,0,-0.15999999999999998,up,0.9046430000016699,,,,,483.8510447999997,485.40463810000074,0.16,0.16,0.32,0.0,0.0,0.16,0.16,0.16,0.16,482.15474750000067,482.15474750000067,482.15474750000067,482.15474750000067,482.15474750000067,482.15474750000067,482.15474750000067,482.15474750000067,482.1494615000003,1.7873832999994193,return,1.675881400000435,,,,,,,,,,,,,,,,,,,,,,,,,,,,,,,,,UEZJQ4,train_y,blue_star,bottom_left,2025-07-09_16h19.08.643,HideSeek_v1,2022.2.5,59.946647484214516,
,2,2,2,7,0,5,66,,train_dim1_1,10,30,,,,2,0,2,0,,,,,,,,,0,0,0,0,0,9,9,9,1,0,1,0,,,,,,,,,,,,,,,,,,,,,,,,,,,,,,,,,,,,,,,,,,,,,,,,,,,,,,,,,,,,,,,,30,,,,,,,,486.4000594000008,486.4000594000008,486.4000594000008,486.4000594000008,486.4000594000008,up,0.80961219999881,0,0,0,99,0,-0.07999999999999997,up,0.7228020000002289,,,,,,,,,,,,,,,,,,,,,,,,,,,,,,,,,,,,,,,,,,,,,,,,,,,,,,,,,,,,UEZJQ4,train_y,blue_star,bottom_left,2025-07-09_16h19.08.643,HideSeek_v1,2022.2.5,59.946647484214516,
,2,2,2,7,0,5,66,,train_dim1_1,10,30,,,,2,0,2,0,,,,,,,,,0,0,0,0,0,9,9,9,2,0,2,0,,,,,,,,,,,,,,,,,,,,,,,,,,,,,,,,,,,,,,,,,,,,,,,,,,,,,,,,,,,,,,,,30,,,,,,,,487.2158311000003,487.2158311000003,487.2158311000003,487.2158311000003,487.2158311000003,up,0.47720659999868076,0,0,0,99,0,2.7755575615628914e-17,up,0.4006510999988677,,,,,,,,,,,,,,,,,,,,,,,,,,,,,,,,,,,,,,,,,,,,,,,,,,,,,,,,,,,,UEZJQ4,train_y,blue_star,bottom_left,2025-07-09_16h19.08.643,HideSeek_v1,2022.2.5,59.946647484214516,
,2,2,2,7,0,5,66,,train_dim1_1,10,30,,,,2,0,2,0,,,,,,,,,0,0,0,0,0,9,9,9,3,0,3,0,,,,,,,,,,,,,,,,,,,,,,,,,,,,,,,,,,,,,,,,,,,,,,,,,,,,,,,,,,,,,,,,30,,,,,,,,487.7004459,487.7004459,487.7004459,487.7004459,487.7004459,down,2.5448228000004747,0,0,0,99,0,-0.07999999999999997,down,2.4638887000000977,,,,,,,,,,,,,,,,,,,,,,,,,,,,,,,,,,,,,,,,,,,,,,,,,,,,,,,,,,,,UEZJQ4,train_y,blue_star,bottom_left,2025-07-09_16h19.08.643,HideSeek_v1,2022.2.5,59.946647484214516,
,2,2,2,7,0,5,66,,train_dim1_1,10,30,,,,2,0,2,0,,,,,,,,,0,0,0,0,0,9,9,9,4,0,4,0,,,,,,,,,,,,,,,,,,,,,,,,,,,,,,,,,,,,,,,,,,,,,,,,,,,,,,,,,,,,,,,,30,,,,,,,,490.25187820000065,490.25187820000065,490.25187820000065,490.25187820000065,490.25187820000065,return,1.2440776999992522,0,0,0,0,0,-0.07999999999999997,return,1.1573361999999179,19,1,0,-0.07999999999999997,,,,,,,,,,,,,,,,,,,,,,,,,,,,,,,,,,,,,,,,,,,,,,,,,,,,,,,,UEZJQ4,train_y,blue_star,bottom_left,2025-07-09_16h19.08.643,HideSeek_v1,2022.2.5,59.946647484214516,
,4,1,4,5,0,4,65,,train_dim1_1,11,30,,,,2,0,2,0,,,,,,,,,0,0,0,0,0,10,10,10,0,0,0,0,,,,,,,,,,,,,,,,,,,,,,,,,stimuli/alien_stimuli/65.png,,,,,,,,,,,,,,,,,,,,,,,,,,,,,stimuli/alien_stimuli/66.png,66,2,12,,,,,,,30,,,,,,,,495.74539469999945,495.74539469999945,495.74539469999945,495.74539469999945,495.74539469999945,up,1.7894112000012683,0,0,0,99,0.16,-0.24,up,1.7123253000008845,,,,,494.1931949000009,495.74539469999945,0,0.16,0.4,0.0,-0.039999999999999994,0,0.0,0,0.16,493.06539800000064,493.06539800000064,493.06539800000064,493.06539800000064,493.06539800000064,493.06539800000064,493.06539800000064,493.06539800000064,493.05872169999964,1.236894299998312,return,1.1034882999992988,,,,,,,,,,,,,,,,,,,,,,,,,,,,,,,,,UEZJQ4,train_y,blue_star,bottom_left,2025-07-09_16h19.08.643,HideSeek_v1,2022.2.5,59.946647484214516,
,4,1,4,5,0,4,65,,train_dim1_1,11,30,,,,2,0,2,0,,,,,,,,,0,0,0,0,0,10,10,10,1,0,1,0,,,,,,,,,,,,,,,,,,,,,,,,,,,,,,,,,,,,,,,,,,,,,,,,,,,,,,,,,,,,,,,,30,,,,,,,,497.54184449999957,497.54184449999957,497.54184449999957,497.54184449999957,497.54184449999957,up,0.4597609000011289,0,0,0,99,0.16,-0.15999999999999998,up,0.38030320000143547,,,,,,,,,,,,,,,,,,,,,,,,,,,,,,,,,,,,,,,,,,,,,,,,,,,,,,,,,,,,UEZJQ4,train_y,blue_star,bottom_left,2025-07-09_16h19.08.643,HideSeek_v1,2022.2.5,59.946647484214516,
,4,1,4,5,0,4,65,,train_dim1_1,11,30,,,,2,0,2,0,,,,,,,,,0,0,0,0,0,10,10,10,2,0,2,0,,,,,,,,,,,,,,,,,,,,,,,,,,,,,,,,,,,,,,,,,,,,,,,,,,,,,,,,,,,,,,,,30,,,,,,,,498.0082946000002,498.0082946000002,498.0082946000002,498.0082946000002,498.0082946000002,up,0.5929118000003655,0,0,0,99,0.16,-0.07999999999999997,up,0.5158222000009118,,,,,,,,,,,,,,,,,,,,,,,,,,,,,,,,,,,,,,,,,,,,,,,,,,,,,,,,,,,,UEZJQ4,train_y,blue_star,bottom_left,2025-07-09_16h19.08.643,HideSeek_v1,2022.2.5,59.946647484214516,
,4,1,4,5,0,4,65,,train_dim1_1,11,30,,,,2,0,2,0,,,,,,,,,0,0,0,0,0,10,10,10,3,0,3,0,,,,,,,,,,,,,,,,,,,,,,,,,,,,,,,,,,,,,,,,,,,,,,,,,,,,,,,,,,,,,,,,30,,,,,,,,498.60982669999976,498.60982669999976,498.60982669999976,498.60982669999976,498.60982669999976,up,0.47651310000037483,0,0,0,99,0.16,2.7755575615628914e-17,up,0.39196329999867885,,,,,,,,,,,,,,,,,,,,,,,,,,,,,,,,,,,,,,,,,,,,,,,,,,,,,,,,,,,,UEZJQ4,train_y,blue_star,bottom_left,2025-07-09_16h19.08.643,HideSeek_v1,2022.2.5,59.946647484214516,
,4,1,4,5,0,4,65,,train_dim1_1,11,30,,,,2,0,2,0,,,,,,,,,0,0,0,0,0,10,10,10,4,0,4,0,,,,,,,,,,,,,,,,,,,,,,,,,,,,,,,,,,,,,,,,,,,,,,,,,,,,,,,,,,,,,,,,30,,,,,,,,499.0927793999999,499.0927793999999,499.0927793999999,499.0927793999999,499.0927793999999,up,0.5104102999994211,0,0,0,99,0.16,0.08000000000000003,up,0.42947559999993246,,,,,,,,,,,,,,,,,,,,,,,,,,,,,,,,,,,,,,,,,,,,,,,,,,,,,,,,,,,,UEZJQ4,train_y,blue_star,bottom_left,2025-07-09_16h19.08.643,HideSeek_v1,2022.2.5,59.946647484214516,
,4,1,4,5,0,4,65,,train_dim1_1,11,30,,,,2,0,2,0,,,,,,,,,0,0,0,0,0,10,10,10,5,0,5,0,,,,,,,,,,,,,,,,,,,,,,,,,,,,,,,,,,,,,,,,,,,,,,,,,,,,,,,,,,,,,,,,30,,,,,,,,499.6112713000002,499.6112713000002,499.6112713000002,499.6112713000002,499.6112713000002,up,0.5100688000002265,0,0,0,99,0.16,0.16000000000000003,up,0.42756070000177715,,,,,,,,,,,,,,,,,,,,,,,,,,,,,,,,,,,,,,,,,,,,,,,,,,,,,,,,,,,,UEZJQ4,train_y,blue_star,bottom_left,2025-07-09_16h19.08.643,HideSeek_v1,2022.2.5,59.946647484214516,
,4,1,4,5,0,4,65,,train_dim1_1,11,30,,,,2,0,2,0,,,,,,,,,0,0,0,0,0,10,10,10,6,0,6,0,,,,,,,,,,,,,,,,,,,,,,,,,,,,,,,,,,,,,,,,,,,,,,,,,,,,,,,,,,,,,,,,30,,,,,,,,500.1282632000002,500.1282632000002,500.1282632000002,500.1282632000002,500.1282632000002,up,0.4427629000001616,0,0,0,99,0.16,0.24000000000000005,up,0.36653060000026016,,,,,,,,,,,,,,,,,,,,,,,,,,,,,,,,,,,,,,,,,,,,,,,,,,,,,,,,,,,,UEZJQ4,train_y,blue_star,bottom_left,2025-07-09_16h19.08.643,HideSeek_v1,2022.2.5,59.946647484214516,
,4,1,4,5,0,4,65,,train_dim1_1,11,30,,,,2,0,2,0,,,,,,,,,0,0,0,0,0,10,10,10,7,0,7,0,,,,,,,,,,,,,,,,,,,,,,,,,,,,,,,,,,,,,,,,,,,,,,,,,,,,,,,,,,,,,,,,30,,,,,,,,500.5781655999999,500.5781655999999,500.5781655999999,500.5781655999999,500.5781655999999,down,1.3608195999986492,0,0,0,99,0.16,0.16000000000000003,down,1.2863286000010703,,,,,,,,,,,,,,,,,,,,,,,,,,,,,,,,,,,,,,,,,,,,,,,,,,,,,,,,,,,,UEZJQ4,train_y,blue_star,bottom_left,2025-07-09_16h19.08.643,HideSeek_v1,2022.2.5,59.946647484214516,
,4,1,4,5,0,4,65,,train_dim1_1,11,30,,,,2,0,2,0,,,,,,,,,0,0,0,0,0,10,10,10,8,0,8,0,,,,,,,,,,,,,,,,,,,,,,,,,,,,,,,,,,,,,,,,,,,,,,,,,,,,,,,,,,,,,,,,30,,,,,,,,501.94616490000044,501.94616490000044,501.94616490000044,501.94616490000044,501.94616490000044,return,0.4100599000012153,0,0,0,0,0.16,0.16000000000000003,return,0.32158069999968575,25,1,0.16,0.16000000000000003,,,,,,,,,,,,,,,,,,,,,,,,,,,,,,,,,,,,,,,,,,,,,,,,,,,,,,,,UEZJQ4,train_y,blue_star,bottom_left,2025-07-09_16h19.08.643,HideSeek_v1,2022.2.5,59.946647484214516,
,0,0,0,0,0,0,61,,train_dim1_1,12,30,,,,2,0,2,0,,,,,,,,,0,0,0,0,0,11,11,11,0,0,0,0,,,,,,,,,,,,,,,,,,,,,,,,,stimuli/alien_stimuli/61.png,,,,,,,,,,,,,,,,,,,,,,,,,,,,,stimuli/alien_stimuli/65.png,65,4,13,,,,,,,30,,,,,,,,511.25808099999995,511.25808099999995,511.25808099999995,511.25808099999995,511.25808099999995,return,3.375390100000004,1,0,0,1,-0.16,-0.4,return,3.292987200000425,25,1,-0.16,-0.4,509.7060290999998,511.25808099999995,0.16,0,0.32,0.0,-0.16,0.16,0.16,0.16,0,503.9303970000001,503.9303970000001,503.9303970000001,503.9303970000001,503.9303970000001,503.9303970000001,503.9303970000001,503.9303970000001,503.9178145999998,5.890575700001136,return,5.757093500000337,,,,,,,,,,,,,,,,,,,,,,,,,,,,,,,,,UEZJQ4,train_y,blue_star,bottom_left,2025-07-09_16h19.08.643,HideSeek_v1,2022.2.5,59.946647484214516,
,4,3,4,4,0,1,62,,train_dim1_1,13,30,,,,2,0,2,0,,,,,,,,,0,0,0,0,0,12,12,12,0,0,0,0,,,,,,,,,,,,,,,,,,,,,,,,,stimuli/alien_stimuli/62.png,,,,,,,,,,,,,,,,,,,,,,,,,,,,,stimuli/alien_stimuli/61.png,61,0,14,,,,,,,30,,,,,,,,520.6498007000009,520.6498007000009,520.6498007000009,520.6498007000009,520.6498007000009,up,2.140426399999342,1,0,0,99,0.16,-0.08,up,2.0571510000008857,,,,,519.0969617999999,520.6498007000009,-0.16,-0.4,0.0,0.0,-0.4,-0.16,-0.16,-0.16,-0.4,516.2017479000006,516.2017479000006,516.2017479000006,516.2017479000006,516.2017479000006,516.2017479000006,516.2017479000006,516.2017479000006,516.1943686,3.004865199998676,return,2.8709386000009545,,,,,,,,,,,,,,,,,,,,,,,,,,,,,,,,,UEZJQ4,train_y,blue_star,bottom_left,2025-07-09_16h19.08.643,HideSeek_v1,2022.2.5,59.946647484214516,
,4,3,4,4,0,1,62,,train_dim1_1,13,30,,,,2,0,2,0,,,,,,,,,0,0,0,0,0,12,12,12,1,0,1,0,,,,,,,,,,,,,,,,,,,,,,,,,,,,,,,,,,,,,,,,,,,,,,,,,,,,,,,,,,,,,,,,30,,,,,,,,522.7966014000012,522.7966014000012,522.7966014000012,522.7966014000012,522.7966014000012,return,0.7430101000009017,2,0,0,1,0.16,-0.08,return,0.6679759000016929,26,1,0.16,-0.08,,,,,,,,,,,,,,,,,,,,,,,,,,,,,,,,,,,,,,,,,,,,,,,,,,,,,,,,UEZJQ4,train_y,blue_star,bottom_left,2025-07-09_16h19.08.643,HideSeek_v1,2022.2.5,59.946647484214516,
,2,2,2,7,0,5,66,,train_dim1_1,14,30,,,,2,0,2,0,,,,,,,,,0,0,0,0,0,13,13,13,0,0,0,0,,,,,,,,,,,,,,,,,,,,,,,,,stimuli/alien_stimuli/66.png,,,,,,,,,,,,,,,,,,,,,,,,,,,,,stimuli/alien_stimuli/62.png,62,4,15,,,,,,,30,,,,,,,,529.1902448000001,529.1902448000001,529.1902448000001,529.1902448000001,529.1902448000001,up,2.5566112999986217,2,0,0,99,0,-0.15999999999999998,up,2.47467080000024,,,,,527.6376165000001,529.1902448000001,0.16,-0.08,0.08,0.0,-0.12,0.16,0.16,0.16,-0.08,525.0901484999995,525.0901484999995,525.0901484999995,525.0901484999995,525.0901484999995,525.0901484999995,525.0901484999995,525.0901484999995,525.0855444000001,2.637729500000205,return,2.5265180000005785,,,,,,,,,,,,,,,,,,,,,,,,,,,,,,,,,UEZJQ4,train_y,blue_star,bottom_left,2025-07-09_16h19.08.643,HideSeek_v1,2022.2.5,59.946647484214516,
,2,2,2,7,0,5,66,,train_dim1_1,14,30,,,,2,0,2,0,,,,,,,,,0,0,0,0,0,13,13,13,1,0,1,0,,,,,,,,,,,,,,,,,,,,,,,,,,,,,,,,,,,,,,,,,,,,,,,,,,,,,,,,,,,,,,,,30,,,,,,,,531.7534778999998,531.7534778999998,531.7534778999998,531.7534778999998,531.7534778999998,up,0.8763149000005797,2,0,0,99,0,-0.07999999999999997,up,0.7927251000000979,,,,,,,,,,,,,,,,,,,,,,,,,,,,,,,,,,,,,,,,,,,,,,,,,,,,,,,,,,,,UEZJQ4,train_y,blue_star,bottom_left,2025-07-09_16h19.08.643,HideSeek_v1,2022.2.5,59.946647484214516,
,2,2,2,7,0,5,66,,train_dim1_1,14,30,,,,2,0,2,0,,,,,,,,,0,0,0,0,0,13,13,13,2,0,2,0,,,,,,,,,,,,,,,,,,,,,,,,,,,,,,,,,,,,,,,,,,,,,,,,,,,,,,,,,,,,,,,,30,,,,,,,,532.6374484000007,532.6374484000007,532.6374484000007,532.6374484000007,532.6374484000007,return,1.444269699999495,2,0,0,0,0,-0.07999999999999997,return,1.3595964000014646,28,1,0,-0.07999999999999997,,,,,,,,,,,,,,,,,,,,,,,,,,,,,,,,,,,,,,,,,,,,,,,,,,,,,,,,UEZJQ4,train_y,blue_star,bottom_left,2025-07-09_16h19.08.643,HideSeek_v1,2022.2.5,59.946647484214516,
,1,4,1,7,0,3,64,,train_dim1_1,15,30,,,,2,0,2,0,,,,,,,,,0,0,0,0,0,14,14,14,0,0,0,0,,,,,,,,,,,,,,,,,,,,,,,,,stimuli/alien_stimuli/64.png,,,,,,,,,,,,,,,,,,,,,,,,,,,,,stimuli/alien_stimuli/66.png,66,2,16,,,,,,,30,,,,,,,,538.5984841999998,538.5984841999998,538.5984841999998,538.5984841999998,538.5984841999998,down,1.8385858000001463,2,0,0,99,-0.08,-0.16,down,1.7514921999991202,,,,,537.045485300001,538.5984841999998,0,0.16,0.4,0.0,-0.039999999999999994,0,0.0,0,0.16,535.6508732000002,535.6508732000002,535.6508732000002,535.6508732000002,535.6508732000002,535.6508732000002,535.6508732000002,535.6508732000002,535.6444123999995,1.5035138999992341,return,1.3769765000015468,,,,,,,,,,,,,,,,,,,,,,,,,,,,,,,,,UEZJQ4,train_y,blue_star,bottom_left,2025-07-09_16h19.08.643,HideSeek_v1,2022.2.5,59.946647484214516,
,1,4,1,7,0,3,64,,train_dim1_1,15,30,,,,2,0,2,0,,,,,,,,,0,0,0,0,0,14,14,14,1,0,1,0,,,,,,,,,,,,,,,,,,,,,,,,,,,,,,,,,,,,,,,,,,,,,,,,,,,,,,,,,,,,,,,,30,,,,,,,,540.4435193999998,540.4435193999998,540.4435193999998,540.4435193999998,540.4435193999998,down,1.3773791000003257,2,0,0,99,-0.08,-0.24,down,1.2925692000007984,,,,,,,,,,,,,,,,,,,,,,,,,,,,,,,,,,,,,,,,,,,,,,,,,,,,,,,,,,,,UEZJQ4,train_y,blue_star,bottom_left,2025-07-09_16h19.08.643,HideSeek_v1,2022.2.5,59.946647484214516,
,1,4,1,7,0,3,64,,train_dim1_1,15,30,,,,2,0,2,0,,,,,,,,,0,0,0,0,0,14,14,14,2,0,2,0,,,,,,,,,,,,,,,,,,,,,,,,,,,,,,,,,,,,,,,,,,,,,,,,,,,,,,,,,,,,,,,,30,,,,,,,,541.8280849000002,541.8280849000002,541.8280849000002,541.8280849000002,541.8280849000002,return,0.5600350000004255,2,0,0,0,-0.08,-0.24,return,0.48844439999993483,26,1,-0.08,-0.24,,,,,,,,,,,,,,,,,,,,,,,,,,,,,,,,,,,,,,,,,,,,,,,,,,,,,,,,UEZJQ4,train_y,blue_star,bottom_left,2025-07-09_16h19.08.643,HideSeek_v1,2022.2.5,59.946647484214516,
,4,0,4,4,0,4,65,,train_dim1_1,16,30,,,,2,0,2,0,,,,,,,,,0,0,0,0,0,15,15,15,0,0,0,0,,,,,,,,,,,,,,,,,,,,,,,,,stimuli/alien_stimuli/65.png,,,,,,,,,,,,,,,,,,,,,,,,,,,,,stimuli/alien_stimuli/64.png,64,1,17,,,,,,,30,,,,,,,,546.9367462999999,546.9367462999999,546.9367462999999,546.9367462999999,546.9367462999999,up,0.6399836000000505,2,0,0,99,0.16,-0.32,up,0.5549700000010489,,,,,545.3856049000005,546.9367462999999,-0.08,0.16,0.24,0.0,0.04,-0.08,-0.08,-0.08,0.16,543.941346900001,543.941346900001,543.941346900001,543.941346900001,543.941346900001,543.941346900001,543.941346900001,543.941346900001,543.9343505999998,1.5368925999991916,return,1.4119288000019878,,,,,,,,,,,,,,,,,,,,,,,,,,,,,,,,,UEZJQ4,train_y,blue_star,bottom_left,2025-07-09_16h19.08.643,HideSeek_v1,2022.2.5,59.946647484214516,
,4,0,4,4,0,4,65,,train_dim1_1,16,30,,,,2,0,2,0,,,,,,,,,0,0,0,0,0,15,15,15,1,0,1,0,,,,,,,,,,,,,,,,,,,,,,,,,,,,,,,,,,,,,,,,,,,,,,,,,,,,,,,,,,,,,,,,30,,,,,,,,547.584761600001,547.584761600001,547.584761600001,547.584761600001,547.584761600001,up,0.6427836000002571,2,0,0,99,0.16,-0.24,up,0.5671994000003906,,,,,,,,,,,,,,,,,,,,,,,,,,,,,,,,,,,,,,,,,,,,,,,,,,,,,,,,,,,,UEZJQ4,train_y,blue_star,bottom_left,2025-07-09_16h19.08.643,HideSeek_v1,2022.2.5,59.946647484214516,
,4,0,4,4,0,4,65,,train_dim1_1,16,30,,,,2,0,2,0,,,,,,,,,0,0,0,0,0,15,15,15,2,0,2,0,,,,,,,,,,,,,,,,,,,,,,,,,,,,,,,,,,,,,,,,,,,,,,,,,,,,,,,,,,,,,,,,30,,,,,,,,548.2330280999995,548.2330280999995,548.2330280999995,548.2330280999995,548.2330280999995,return,1.0772589999996853,2,0,0,0,0.16,-0.24,return,1.0008080000006885,28,1,0.16,-0.24,,,,,,,,,,,,,,,,,,,,,,,,,,,,,,,,,,,,,,,,,,,,,,,,,,,,,,,,UEZJQ4,train_y,blue_star,bottom_left,2025-07-09_16h19.08.643,HideSeek_v1,2022.2.5,59.946647484214516,
,3,3,3,6,0,3,64,,train_dim1_1,17,30,,,,2,0,2,0,,,,,,,,,0,0,0,0,0,16,16,16,0,0,0,0,,,,,,,,,,,,,,,,,,,,,,,,,stimuli/alien_stimuli/64.png,,,,,,,,,,,,,,,,,,,,,,,,,,,,,stimuli/alien_stimuli/65.png,65,4,18,,,,,,,30,,,,,,,,553.2611792000007,553.2611792000007,553.2611792000007,553.2611792000007,553.2611792000007,up,0.553134299998419,2,0,0,99,0.08,-0.08,up,0.47390509999968344,,,,,551.7074289000011,553.2611792000007,0.16,-0.08,0.32,0.0,-0.24000000000000002,0.16,0.16,0.16,-0.08,550.8615748000011,550.8615748000011,550.8615748000011,550.8615748000011,550.8615748000011,550.8615748000011,550.8615748000011,550.8615748000011,550.856602000001,0.9362603000008676,return,0.8153196000002936,,,,,,,,,,,,,,,,,,,,,,,,,,,,,,,,,UEZJQ4,train_y,blue_star,bottom_left,2025-07-09_16h19.08.643,HideSeek_v1,2022.2.5,59.946647484214516,
,3,3,3,6,0,3,64,,train_dim1_1,17,30,,,,2,0,2,0,,,,,,,,,0,0,0,0,0,16,16,16,1,0,1,0,,,,,,,,,,,,,,,,,,,,,,,,,,,,,,,,,,,,,,,,,,,,,,,,,,,,,,,,,,,,,,,,30,,,,,,,,553.8213225,553.8213225,553.8213225,553.8213225,553.8213225,up,0.3429892000003747,2,0,0,99,0.08,0.0,up,0.26384610000059183,,,,,,,,,,,,,,,,,,,,,,,,,,,,,,,,,,,,,,,,,,,,,,,,,,,,,,,,,,,,UEZJQ4,train_y,blue_star,bottom_left,2025-07-09_16h19.08.643,HideSeek_v1,2022.2.5,59.946647484214516,
,3,3,3,6,0,3,64,,train_dim1_1,17,30,,,,2,0,2,0,,,,,,,,,0,0,0,0,0,16,16,16,2,0,2,0,,,,,,,,,,,,,,,,,,,,,,,,,,,,,,,,,,,,,,,,,,,,,,,,,,,,,,,,,,,,,,,,30,,,,,,,,554.1712339999995,554.1712339999995,554.1712339999995,554.1712339999995,554.1712339999995,up,0.41029060000073514,2,0,0,99,0.08,0.08,up,0.33302370000092196,,,,,,,,,,,,,,,,,,,,,,,,,,,,,,,,,,,,,,,,,,,,,,,,,,,,,,,,,,,,UEZJQ4,train_y,blue_star,bottom_left,2025-07-09_16h19.08.643,HideSeek_v1,2022.2.5,59.946647484214516,
,3,3,3,6,0,3,64,,train_dim1_1,17,30,,,,2,0,2,0,,,,,,,,,0,0,0,0,0,16,16,16,3,0,3,0,,,,,,,,,,,,,,,,,,,,,,,,,,,,,,,,,,,,,,,,,,,,,,,,,,,,,,,,,,,,,,,,30,,,,,,,,554.5885759000012,554.5885759000012,554.5885759000012,554.5885759000012,554.5885759000012,return,1.6274402999988524,3,0,0,1,0.08,0.08,return,1.5509531000006973,31,1,0.08,0.08,,,,,,,,,,,,,,,,,,,,,,,,,,,,,,,,,,,,,,,,,,,,,,,,,,,,,,,,UEZJQ4,train_y,blue_star,bottom_left,2025-07-09_16h19.08.643,HideSeek_v1,2022.2.5,59.946647484214516,
,2,1,2,1,0,0,61,,train_dim1_1,18,30,,,,2,0,2,0,,,,,,,,,0,0,0,0,0,17,17,17,0,0,0,0,,,,,,,,,,,,,,,,,,,,,,,,,stimuli/alien_stimuli/61.png,,,,,,,,,,,,,,,,,,,,,,,,,,,,,stimuli/alien_stimuli/64.png,64,3,19,,,,,,,30,,,,,,,,561.1326153999998,561.1326153999998,561.1326153999998,561.1326153999998,561.1326153999998,up,0.6554966999992757,3,0,0,99,0,-0.24,up,0.5723096000001533,,,,,559.5808354000001,561.1326153999998,0.08,0.08,0.24,0.0,-0.04,0.08,0.08,0.08,0.08,557.7669907,557.7669907,557.7669907,557.7669907,557.7669907,557.7669907,557.7669907,557.7669907,557.7625476999995,1.9040083999989292,return,1.796769000000495,,,,,,,,,,,,,,,,,,,,,,,,,,,,,,,,,UEZJQ4,train_y,blue_star,bottom_left,2025-07-09_16h19.08.643,HideSeek_v1,2022.2.5,59.946647484214516,
,2,1,2,1,0,0,61,,train_dim1_1,18,30,,,,2,0,2,0,,,,,,,,,0,0,0,0,0,17,17,17,1,0,1,0,,,,,,,,,,,,,,,,,,,,,,,,,,,,,,,,,,,,,,,,,,,,,,,,,,,,,,,,,,,,,,,,30,,,,,,,,561.7955225000005,561.7955225000005,561.7955225000005,561.7955225000005,561.7955225000005,down,1.1937514000001102,3,0,0,99,0,-0.32,down,1.1197836999999708,,,,,,,,,,,,,,,,,,,,,,,,,,,,,,,,,,,,,,,,,,,,,,,,,,,,,,,,,,,,UEZJQ4,train_y,blue_star,bottom_left,2025-07-09_16h19.08.643,HideSeek_v1,2022.2.5,59.946647484214516,
,2,1,2,1,0,0,61,,train_dim1_1,18,30,,,,2,0,2,0,,,,,,,,,0,0,0,0,0,17,17,17,2,0,2,0,,,,,,,,,,,,,,,,,,,,,,,,,,,,,,,,,,,,,,,,,,,,,,,,,,,,,,,,,,,,,,,,30,,,,,,,,562.9963005000009,562.9963005000009,562.9963005000009,562.9963005000009,562.9963005000009,return,0.5600356999984797,4,0,0,1,0,-0.32,return,0.48374690000127885,31,1,0,-0.32,,,,,,,,,,,,,,,,,,,,,,,,,,,,,,,,,,,,,,,,,,,,,,,,,,,,,,,,UEZJQ4,train_y,blue_star,bottom_left,2025-07-09_16h19.08.643,HideSeek_v1,2022.2.5,59.946647484214516,
,0,4,0,5,0,1,62,,train_dim1_1,19,30,,,,2,0,2,0,,,,,,,,,0,0,0,0,0,18,18,18,0,0,0,0,,,,,,,,,,,,,,,,,,,,,,,,,stimuli/alien_stimuli/62.png,,,,,,,,,,,,,,,,,,,,,,,,,,,,,stimuli/alien_stimuli/61.png,61,2,20,,,,,,,30,,,,,,,,568.1735213000011,568.1735213000011,568.1735213000011,568.1735213000011,568.1735213000011,up,2.8724216999999044,4,0,0,99,-0.16,0.0,up,2.7911564000005455,,,,,566.6196120000004,568.1735213000011,0,-0.32,0.0,0.0,-0.32,0,0.0,0,-0.32,565.1103834999994,565.1103834999994,565.1103834999994,565.1103834999994,565.1103834999994,565.1103834999994,565.1103834999994,565.1103834999994,565.1016499000009,1.603699700001016,return,1.4880268000015349,,,,,,,,,,,,,,,,,,,,,,,,,,,,,,,,,UEZJQ4,train_y,blue_star,bottom_left,2025-07-09_16h19.08.643,HideSeek_v1,2022.2.5,59.946647484214516,
,0,4,0,5,0,1,62,,train_dim1_1,19,30,,,,2,0,2,0,,,,,,,,,0,0,0,0,0,18,18,18,1,0,1,0,,,,,,,,,,,,,,,,,,,,,,,,,,,,,,,,,,,,,,,,,,,,,,,,,,,,,,,,,,,,,,,,30,,,,,,,,571.0532041000006,571.0532041000006,571.0532041000006,571.0532041000006,571.0532041000006,up,0.5432364999996935,4,0,0,99,-0.16,0.08,up,0.4623142000000371,,,,,,,,,,,,,,,,,,,,,,,,,,,,,,,,,,,,,,,,,,,,,,,,,,,,,,,,,,,,UEZJQ4,train_y,blue_star,bottom_left,2025-07-09_16h19.08.643,HideSeek_v1,2022.2.5,59.946647484214516,
,0,4,0,5,0,1,62,,train_dim1_1,19,30,,,,2,0,2,0,,,,,,,,,0,0,0,0,0,18,18,18,2,0,2,0,,,,,,,,,,,,,,,,,,,,,,,,,,,,,,,,,,,,,,,,,,,,,,,,,,,,,,,,,,,,,,,,30,,,,,,,,571.603437400001,571.603437400001,571.603437400001,571.603437400001,571.603437400001,return,1.2275374000000738,4,1,0,0,-0.16,0.08,return,1.1506282999998803,33,1,-0.16,0.08,,,,,,,,,,,,,,,,,,,,,,,,,,,,,,,,,,,,,,,,,,,,,,,,,,,,,,,,UEZJQ4,train_y,blue_star,bottom_left,2025-07-09_16h19.08.643,HideSeek_v1,2022.2.5,59.946647484214516,
,2,0,2,5,0,5,66,,train_dim1_1,20,30,,,,2,0,2,0,,,,,,,,,0,0,0,0,0,19,19,19,0,0,0,0,,,,,,,,,,,,,,,,,,,,,,,,,stimuli/alien_stimuli/66.png,,,,,,,,,,,,,,,,,,,,,,,,,,,,,stimuli/alien_stimuli/62.png,62,0,21,,,,,,,30,,,,,,,,577.9632330000004,577.9632330000004,577.9632330000004,577.9632330000004,577.9632330000004,up,1.2890005000008387,4,1,0,99,0,-0.32,up,1.203006900001128,,,,,576.4114000999998,577.9632330000004,-0.16,0,0.08,0.0,-0.04,-0.16,-0.16,-0.16,0,574.3847664000004,574.3847664000004,574.3847664000004,574.3847664000004,574.3847664000004,574.3847664000004,574.3847664000004,574.3847664000004,574.3763080000001,2.120687300001009,return,2.002007400000366,,,,,,,,,,,,,,,,,,,,,,,,,,,,,,,,,UEZJQ4,train_y,blue_star,bottom_left,2025-07-09_16h19.08.643,HideSeek_v1,2022.2.5,59.946647484214516,
,2,0,2,5,0,5,66,,train_dim1_1,20,30,,,,2,0,2,0,,,,,,,,,0,0,0,0,0,19,19,19,1,0,1,0,,,,,,,,,,,,,,,,,,,,,,,,,,,,,,,,,,,,,,,,,,,,,,,,,,,,,,,,,,,,,,,,30,,,,,,,,579.2598020000005,579.2598020000005,579.2598020000005,579.2598020000005,579.2598020000005,up,0.47640900000078545,4,1,0,99,0,-0.24,up,0.39617010000074515,,,,,,,,,,,,,,,,,,,,,,,,,,,,,,,,,,,,,,,,,,,,,,,,,,,,,,,,,,,,UEZJQ4,train_y,blue_star,bottom_left,2025-07-09_16h19.08.643,HideSeek_v1,2022.2.5,59.946647484214516,
,2,0,2,5,0,5,66,,train_dim1_1,20,30,,,,2,0,2,0,,,,,,,,,0,0,0,0,0,19,19,19,2,0,2,0,,,,,,,,,,,,,,,,,,,,,,,,,,,,,,,,,,,,,,,,,,,,,,,,,,,,,,,,,,,,,,,,30,,,,,,,,579.7436541999996,579.7436541999996,579.7436541999996,579.7436541999996,579.7436541999996,up,0.5600843999982317,4,1,0,99,0,-0.15999999999999998,up,0.47250499999972817,,,,,,,,,,,,,,,,,,,,,,,,,,,,,,,,,,,,,,,,,,,,,,,,,,,,,,,,,,,,UEZJQ4,train_y,blue_star,bottom_left,2025-07-09_16h19.08.643,HideSeek_v1,2022.2.5,59.946647484214516,
,2,0,2,5,0,5,66,,train_dim1_1,20,30,,,,2,0,2,0,,,,,,,,,0,0,0,0,0,19,19,19,3,0,3,0,,,,,,,,,,,,,,,,,,,,,,,,,,,,,,,,,,,,,,,,,,,,,,,,,,,,,,,,,,,,,,,,30,,,,,,,,580.310355900001,580.310355900001,580.310355900001,580.310355900001,580.310355900001,up,0.826754699999583,4,1,0,99,0,-0.07999999999999997,up,0.7402386000012484,,,,,,,,,,,,,,,,,,,,,,,,,,,,,,,,,,,,,,,,,,,,,,,,,,,,,,,,,,,,UEZJQ4,train_y,blue_star,bottom_left,2025-07-09_16h19.08.643,HideSeek_v1,2022.2.5,59.946647484214516,
,2,0,2,5,0,5,66,,train_dim1_1,20,30,,,,2,0,2,0,,,,,,,,,0,0,0,0,0,19,19,19,4,0,4,0,,,,,,,,,,,,,,,,,,,,,,,,,,,,,,,,,,,,,,,,,,,,,,,,,,,,,,,,,,,,,,,,30,,,,,,,,581.1454838000009,581.1454838000009,581.1454838000009,581.1454838000009,581.1454838000009,return,0.3266020999999455,4,1,0,0,0,-0.07999999999999997,return,0.24719960000038554,37,1,0,-0.07999999999999997,,,,,,,,,,,,,,,,,,,,,,,,,,,,,,,,,,,,,,,,,,,,,,,,,,,,,,,,UEZJQ4,train_y,blue_star,bottom_left,2025-07-09_16h19.08.643,HideSeek_v1,2022.2.5,59.946647484214516,
,2,4,2,8,0,4,65,,train_dim1_1,21,30,,,,2,0,2,0,,,,,,,,,0,0,0,0,0,20,20,20,0,0,0,0,,,,,,,,,,,,,,,,,,,,,,,,,stimuli/alien_stimuli/65.png,,,,,,,,,,,,,,,,,,,,,,,,,,,,,stimuli/alien_stimuli/66.png,66,2,22,,,,,,,30,,,,,,,,585.954000400001,585.954000400001,585.954000400001,585.954000400001,585.954000400001,up,1.6719774000011967,4,1,0,99,0,0.0,up,1.5927604000007705,,,,,584.4014984000005,585.954000400001,0,0,0.4,0.0,-0.2,0,0.0,0,0,583.021504100001,583.021504100001,583.021504100001,583.021504100001,583.021504100001,583.021504100001,583.021504100001,583.021504100001,583.0171715000008,1.469535399999586,return,1.3567401000018435,,,,,,,,,,,,,,,,,,,,,,,,,,,,,,,,,UEZJQ4,train_y,blue_star,bottom_left,2025-07-09_16h19.08.643,HideSeek_v1,2022.2.5,59.946647484214516,
,2,4,2,8,0,4,65,,train_dim1_1,21,30,,,,2,0,2,0,,,,,,,,,0,0,0,0,0,20,20,20,1,0,1,0,,,,,,,,,,,,,,,,,,,,,,,,,,,,,,,,,,,,,,,,,,,,,,,,,,,,,,,,,,,,,,,,30,,,,,,,,587.6338637999997,587.6338637999997,587.6338637999997,587.6338637999997,587.6338637999997,up,0.8766304000000673,4,1,0,99,0,0.08,up,0.7972492999997485,,,,,,,,,,,,,,,,,,,,,,,,,,,,,,,,,,,,,,,,,,,,,,,,,,,,,,,,,,,,UEZJQ4,train_y,blue_star,bottom_left,2025-07-09_16h19.08.643,HideSeek_v1,2022.2.5,59.946647484214516,
,2,4,2,8,0,4,65,,train_dim1_1,21,30,,,,2,0,2,0,,,,,,,,,0,0,0,0,0,20,20,20,2,0,2,0,,,,,,,,,,,,,,,,,,,,,,,,,,,,,,,,,,,,,,,,,,,,,,,,,,,,,,,,,,,,,,,,30,,,,,,,,588.5165753000001,588.5165753000001,588.5165753000001,588.5165753000001,588.5165753000001,up,0.4104150999992271,4,1,0,99,0,0.16,up,0.3254326000005676,,,,,,,,,,,,,,,,,,,,,,,,,,,,,,,,,,,,,,,,,,,,,,,,,,,,,,,,,,,,UEZJQ4,train_y,blue_star,bottom_left,2025-07-09_16h19.08.643,HideSeek_v1,2022.2.5,59.946647484214516,
,2,4,2,8,0,4,65,,train_dim1_1,21,30,,,,2,0,2,0,,,,,,,,,0,0,0,0,0,20,20,20,3,0,3,0,,,,,,,,,,,,,,,,,,,,,,,,,,,,,,,,,,,,,,,,,,,,,,,,,,,,,,,,,,,,,,,,30,,,,,,,,588.9338380999998,588.9338380999998,588.9338380999998,588.9338380999998,588.9338380999998,up,1.2438012000002345,4,1,0,99,0,0.24,up,1.1664787999998225,,,,,,,,,,,,,,,,,,,,,,,,,,,,,,,,,,,,,,,,,,,,,,,,,,,,,,,,,,,,UEZJQ4,train_y,blue_star,bottom_left,2025-07-09_16h19.08.643,HideSeek_v1,2022.2.5,59.946647484214516,
,2,4,2,8,0,4,65,,train_dim1_1,21,30,,,,2,0,2,0,,,,,,,,,0,0,0,0,0,20,20,20,4,0,4,0,,,,,,,,,,,,,,,,,,,,,,,,,,,,,,,,,,,,,,,,,,,,,,,,,,,,,,,,,,,,,,,,30,,,,,,,,590.1845326000002,590.1845326000002,590.1845326000002,590.1845326000002,590.1845326000002,return,1.2776279999998224,5,0,0,1,0,0.24,return,1.1949002999990626,41,1,0,0.24,,,,,,,,,,,,,,,,,,,,,,,,,,,,,,,,,,,,,,,,,,,,,,,,,,,,,,,,UEZJQ4,train_y,blue_star,bottom_left,2025-07-09_16h19.08.643,HideSeek_v1,2022.2.5,59.946647484214516,
,0,2,0,5,0,3,64,,train_dim1_1,22,30,,,,2,0,2,0,,,,,,,,,0,0,0,0,0,21,21,21,0,0,0,0,,,,,,,,,,,,,,,,,,,,,,,,,stimuli/alien_stimuli/64.png,,,,,,,,,,,,,,,,,,,,,,,,,,,,,stimuli/alien_stimuli/65.png,65,2,23,,,,,,,30,,,,,,,,596.2451355000012,596.2451355000012,596.2451355000012,596.2451355000012,596.2451355000012,up,1.7227039999997942,5,0,0,99,-0.16,-0.15999999999999998,up,1.6511034000013751,,,,,594.6933805000008,596.2451355000012,0,0.24,0.32,0.0,0.07999999999999999,0,0.0,0,0.24,593.0134357999996,593.0134357999996,593.0134357999996,593.0134357999996,593.0134357999996,593.0134357999996,593.0134357999996,593.0134357999996,593.0085152000004,1.7705461000005016,return,1.6594351000003371,,,,,,,,,,,,,,,,,,,,,,,,,,,,,,,,,UEZJQ4,train_y,blue_star,bottom_left,2025-07-09_16h19.08.643,HideSeek_v1,2022.2.5,59.946647484214516,
,0,2,0,5,0,3,64,,train_dim1_1,22,30,,,,2,0,2,0,,,,,,,,,0,0,0,0,0,21,21,21,1,0,1,0,,,,,,,,,,,,,,,,,,,,,,,,,,,,,,,,,,,,,,,,,,,,,,,,,,,,,,,,,,,,,,,,30,,,,,,,,597.9752390000012,597.9752390000012,597.9752390000012,597.9752390000012,597.9752390000012,up,0.560040399999707,5,0,0,99,-0.16,-0.07999999999999997,up,0.47564910000073723,,,,,,,,,,,,,,,,,,,,,,,,,,,,,,,,,,,,,,,,,,,,,,,,,,,,,,,,,,,,UEZJQ4,train_y,blue_star,bottom_left,2025-07-09_16h19.08.643,HideSeek_v1,2022.2.5,59.946647484214516,
,0,2,0,5,0,3,64,,train_dim1_1,22,30,,,,2,0,2,0,,,,,,,,,0,0,0,0,0,21,21,21,2,0,2,0,,,,,,,,,,,,,,,,,,,,,,,,,,,,,,,,,,,,,,,,,,,,,,,,,,,,,,,,,,,,,,,,30,,,,,,,,598.5417194000001,598.5417194000001,598.5417194000001,598.5417194000001,598.5417194000001,return,0.6604611000002478,5,1,0,0,-0.16,-0.07999999999999997,return,0.5892655000006926,43,1,-0.16,-0.07999999999999997,,,,,,,,,,,,,,,,,,,,,,,,,,,,,,,,,,,,,,,,,,,,,,,,,,,,,,,,UEZJQ4,train_y,blue_star,bottom_left,2025-07-09_16h19.08.643,HideSeek_v1,2022.2.5,59.946647484214516,
,0,3,0,3,0,0,61,,train_dim1_1,23,30,,,,2,0,2,0,,,,,,,,,0,0,0,0,0,22,22,22,0,0,0,0,,,,,,,,,,,,,,,,,,,,,,,,,stimuli/alien_stimuli/61.png,,,,,,,,,,,,,,,,,,,,,,,,,,,,,stimuli/alien_stimuli/64.png,64,0,24,,,,,,,30,,,,,,,,603.3344505000005,603.3344505000005,603.3344505000005,603.3344505000005,603.3344505000005,return,1.3893306999998458,6,0,0,1,-0.16,-0.16,return,1.3058108000004722,43,1,-0.16,-0.16,601.7824901000004,603.3344505000005,-0.16,0,0.24,0.0,-0.12,-0.16,-0.16,-0.16,0,600.7534775000004,600.7534775000004,600.7534775000004,600.7534775000004,600.7534775000004,600.7534775000004,600.7534775000004,600.7534775000004,600.7483550999998,1.1201607000002696,return,1.0134384000011778,,,,,,,,,,,,,,,,,,,,,,,,,,,,,,,,,UEZJQ4,train_y,blue_star,bottom_left,2025-07-09_16h19.08.643,HideSeek_v1,2022.2.5,59.946647484214516,
,3,2,3,7,0,5,66,,train_dim1_1,24,30,,,,2,0,2,0,,,,,,,,,0,0,0,0,0,23,23,23,0,0,0,0,,,,,,,,,,,,,,,,,,,,,,,,,stimuli/alien_stimuli/66.png,,,,,,,,,,,,,,,,,,,,,,,,,,,,,stimuli/alien_stimuli/61.png,61,0,25,,,,,,,30,,,,,,,,610.4912916000012,610.4912916000012,610.4912916000012,610.4912916000012,610.4912916000012,up,0.922235100000762,6,0,0,99,0.08,-0.15999999999999998,up,0.8370869000009407,,,,,608.9381966000001,610.4912916000012,-0.16,-0.16,0.0,0.0,-0.16,-0.16,-0.16,-0.16,-0.16,606.2957521999997,606.2957521999997,606.2957521999997,606.2957521999997,606.2957521999997,606.2957521999997,606.2957521999997,606.2957521999997,606.2861691999992,2.7547395000001416,return,2.621497800000725,,,,,,,,,,,,,,,,,,,,,,,,,,,,,,,,,UEZJQ4,train_y,blue_star,bottom_left,2025-07-09_16h19.08.643,HideSeek_v1,2022.2.5,59.946647484214516,
,3,2,3,7,0,5,66,,train_dim1_1,24,30,,,,2,0,2,0,,,,,,,,,0,0,0,0,0,23,23,23,1,0,1,0,,,,,,,,,,,,,,,,,,,,,,,,,,,,,,,,,,,,,,,,,,,,,,,,,,,,,,,,,,,,,,,,30,,,,,,,,611.4199329000003,611.4199329000003,611.4199329000003,611.4199329000003,611.4199329000003,up,0.47649420000016107,6,0,0,99,0.08,-0.07999999999999997,up,0.38955000000169093,,,,,,,,,,,,,,,,,,,,,,,,,,,,,,,,,,,,,,,,,,,,,,,,,,,,,,,,,,,,UEZJQ4,train_y,blue_star,bottom_left,2025-07-09_16h19.08.643,HideSeek_v1,2022.2.5,59.946647484214516,
,3,2,3,7,0,5,66,,train_dim1_1,24,30,,,,2,0,2,0,,,,,,,,,0,0,0,0,0,23,23,23,2,0,2,0,,,,,,,,,,,,,,,,,,,,,,,,,,,,,,,,,,,,,,,,,,,,,,,,,,,,,,,,,,,,,,,,30,,,,,,,,611.9030776,611.9030776,611.9030776,611.9030776,611.9030776,return,0.4602536999991571,6,0,0,0,0.08,-0.07999999999999997,return,0.37506300000131887,45,1,0.08,-0.07999999999999997,,,,,,,,,,,,,,,,,,,,,,,,,,,,,,,,,,,,,,,,,,,,,,,,,,,,,,,,UEZJQ4,train_y,blue_star,bottom_left,2025-07-09_16h19.08.643,HideSeek_v1,2022.2.5,59.946647484214516,
,3,3,3,4,0,1,62,,train_dim1_1,25,30,,,,2,0,2,0,,,,,,,,,0,0,0,0,0,24,24,24,0,0,0,0,,,,,,,,,,,,,,,,,,,,,,,,,stimuli/alien_stimuli/62.png,,,,,,,,,,,,,,,,,,,,,,,,,,,,,stimuli/alien_stimuli/66.png,66,3,26,,,,,,,30,,,,,,,,616.6395697000007,616.6395697000007,616.6395697000007,616.6395697000007,616.6395697000007,up,1.8310696000007738,6,0,0,99,0.08,-0.08,up,1.747270000001663,,,,,615.0763934999995,616.6395697000007,0.08,0.16,0.4,0.0,-0.039999999999999994,0.08,0.08,0.08,0.16,613.9161758000009,613.9161758000009,613.9161758000009,613.9161758000009,613.9161758000009,613.9161758000009,613.9161758000009,613.9161758000009,613.9094003000002,1.2527041000012105,return,1.1322474000007787,,,,,,,,,,,,,,,,,,,,,,,,,,,,,,,,,UEZJQ4,train_y,blue_star,bottom_left,2025-07-09_16h19.08.643,HideSeek_v1,2022.2.5,59.946647484214516,
,3,3,3,4,0,1,62,,train_dim1_1,25,30,,,,2,0,2,0,,,,,,,,,0,0,0,0,0,24,24,24,1,0,1,0,,,,,,,,,,,,,,,,,,,,,,,,,,,,,,,,,,,,,,,,,,,,,,,,,,,,,,,,,,,,,,,,30,,,,,,,,618.4767344000011,618.4767344000011,618.4767344000011,618.4767344000011,618.4767344000011,return,0.40858140000091225,7,0,0,1,0.08,-0.08,return,0.332100999999966,46,1,0.08,-0.08,,,,,,,,,,,,,,,,,,,,,,,,,,,,,,,,,,,,,,,,,,,,,,,,,,,,,,,,UEZJQ4,train_y,blue_star,bottom_left,2025-07-09_16h19.08.643,HideSeek_v1,2022.2.5,59.946647484214516,
,4,4,4,7,0,3,64,,train_dim1_1,26,30,,,,2,0,2,0,,,,,,,,,0,0,0,0,0,25,25,25,0,0,0,0,,,,,,,,,,,,,,,,,,,,,,,,,stimuli/alien_stimuli/64.png,,,,,,,,,,,,,,,,,,,,,,,,,,,,,stimuli/alien_stimuli/62.png,62,3,27,,,,,,,30,,,,,,,,623.3004822000003,623.3004822000003,623.3004822000003,623.3004822000003,623.3004822000003,up,1.056144199999835,7,0,0,99,0.16,0.0,up,0.9843105999989348,,,,,621.7489781000004,623.3004822000003,0.08,-0.08,0.08,0.0,-0.12,0.08,0.08,0.08,-0.08,620.4384650000011,620.4384650000011,620.4384650000011,620.4384650000011,620.4384650000011,620.4384650000011,620.4384650000011,620.4384650000011,620.4314334999992,1.4036654000010458,return,1.2914135000009992,,,,,,,,,,,,,,,,,,,,,,,,,,,,,,,,,UEZJQ4,train_y,blue_star,bottom_left,2025-07-09_16h19.08.643,HideSeek_v1,2022.2.5,59.946647484214516,
,4,4,4,7,0,3,64,,train_dim1_1,26,30,,,,2,0,2,0,,,,,,,,,0,0,0,0,0,25,25,25,1,0,1,0,,,,,,,,,,,,,,,,,,,,,,,,,,,,,,,,,,,,,,,,,,,,,,,,,,,,,,,,,,,,,,,,30,,,,,,,,624.3645224000011,624.3645224000011,624.3645224000011,624.3645224000011,624.3645224000011,up,0.3925300999999308,7,0,0,99,0.16,0.08,up,0.3113591000001179,,,,,,,,,,,,,,,,,,,,,,,,,,,,,,,,,,,,,,,,,,,,,,,,,,,,,,,,,,,,UEZJQ4,train_y,blue_star,bottom_left,2025-07-09_16h19.08.643,HideSeek_v1,2022.2.5,59.946647484214516,
,4,4,4,7,0,3,64,,train_dim1_1,26,30,,,,2,0,2,0,,,,,,,,,0,0,0,0,0,25,25,25,2,0,2,0,,,,,,,,,,,,,,,,,,,,,,,,,,,,,,,,,,,,,,,,,,,,,,,,,,,,,,,,,,,,,,,,30,,,,,,,,624.7651106000012,624.7651106000012,624.7651106000012,624.7651106000012,624.7651106000012,return,0.40915060000043013,7,1,0,0,0.16,0.08,return,0.32187750000048254,48,1,0.16,0.08,,,,,,,,,,,,,,,,,,,,,,,,,,,,,,,,,,,,,,,,,,,,,,,,,,,,,,,,UEZJQ4,train_y,blue_star,bottom_left,2025-07-09_16h19.08.643,HideSeek_v1,2022.2.5,59.946647484214516,
,3,4,3,9,0,5,66,,train_dim1_1,27,30,,,,2,0,2,0,,,,,,,,,0,0,0,0,0,26,26,26,0,0,0,0,,,,,,,,,,,,,,,,,,,,,,,,,stimuli/alien_stimuli/66.png,,,,,,,,,,,,,,,,,,,,,,,,,,,,,stimuli/alien_stimuli/64.png,64,4,28,,,,,,,30,,,,,,,,629.3089149000007,629.3089149000007,629.3089149000007,629.3089149000007,629.3089149000007,up,0.6529158000012103,7,1,0,99,0.08,0.0,up,0.5787242999995215,,,,,627.7541932000004,629.3089149000007,0.16,0.16,0.24,0.0,0.04,0.16,0.16,0.16,0.16,626.7289410000012,626.7289410000012,626.7289410000012,626.7289410000012,626.7289410000012,626.7289410000012,626.7289410000012,626.7289410000012,626.7198708999997,1.1196626000000833,return,1.008362800001123,,,,,,,,,,,,,,,,,,,,,,,,,,,,,,,,,UEZJQ4,train_y,blue_star,bottom_left,2025-07-09_16h19.08.643,HideSeek_v1,2022.2.5,59.946647484214516,
,3,4,3,9,0,5,66,,train_dim1_1,27,30,,,,2,0,2,0,,,,,,,,,0,0,0,0,0,26,26,26,1,0,1,0,,,,,,,,,,,,,,,,,,,,,,,,,,,,,,,,,,,,,,,,,,,,,,,,,,,,,,,,,,,,,,,,30,,,,,,,,629.9685549000005,629.9685549000005,629.9685549000005,629.9685549000005,629.9685549000005,up,0.5431217000004835,7,1,0,99,0.08,0.08,up,0.46655619999910414,,,,,,,,,,,,,,,,,,,,,,,,,,,,,,,,,,,,,,,,,,,,,,,,,,,,,,,,,,,,UEZJQ4,train_y,blue_star,bottom_left,2025-07-09_16h19.08.643,HideSeek_v1,2022.2.5,59.946647484214516,
,3,4,3,9,0,5,66,,train_dim1_1,27,30,,,,2,0,2,0,,,,,,,,,0,0,0,0,0,26,26,26,2,0,2,0,,,,,,,,,,,,,,,,,,,,,,,,,,,,,,,,,,,,,,,,,,,,,,,,,,,,,,,,,,,,,,,,30,,,,,,,,630.5191243999998,630.5191243999998,630.5191243999998,630.5191243999998,630.5191243999998,up,0.3765274999987014,7,1,0,99,0.08,0.16,up,0.2916371999999683,,,,,,,,,,,,,,,,,,,,,,,,,,,,,,,,,,,,,,,,,,,,,,,,,,,,,,,,,,,,UEZJQ4,train_y,blue_star,bottom_left,2025-07-09_16h19.08.643,HideSeek_v1,2022.2.5,59.946647484214516,
,3,4,3,9,0,5,66,,train_dim1_1,27,30,,,,2,0,2,0,,,,,,,,,0,0,0,0,0,26,26,26,3,0,3,0,,,,,,,,,,,,,,,,,,,,,,,,,,,,,,,,,,,,,,,,,,,,,,,,,,,,,,,,,,,,,,,,30,,,,,,,,630.9019550000012,630.9019550000012,630.9019550000012,630.9019550000012,630.9019550000012,return,0.3102435000000696,7,0,0,0,0.08,0.16,return,0.22721679999995104,51,1,0.08,0.16,,,,,,,,,,,,,,,,,,,,,,,,,,,,,,,,,,,,,,,,,,,,,,,,,,,,,,,,UEZJQ4,train_y,blue_star,bottom_left,2025-07-09_16h19.08.643,HideSeek_v1,2022.2.5,59.946647484214516,
,4,1,4,1,0,0,61,,train_dim1_1,28,30,,,,2,0,2,0,,,,,,,,,0,0,0,0,0,27,27,27,0,0,0,0,,,,,,,,,,,,,,,,,,,,,,,,,stimuli/alien_stimuli/61.png,,,,,,,,,,,,,,,,,,,,,,,,,,,,,stimuli/alien_stimuli/66.png,66,3,29,,,,,,,30,,,,,,,,635.2264341000009,635.2264341000009,635.2264341000009,635.2264341000009,635.2264341000009,up,0.8240655000008701,7,0,0,99,0.16,-0.24,up,0.7403548999991472,,,,,633.6755276000004,635.2264341000009,0.08,0.32,0.4,0.0,0.12,0.08,0.08,0.08,0.32,632.7657820000004,632.7657820000004,632.7657820000004,632.7657820000004,632.7657820000004,632.7657820000004,632.7657820000004,632.7657820000004,632.7583657999996,1.0027981999992335,return,0.8835076000013942,,,,,,,,,,,,,,,,,,,,,,,,,,,,,,,,,UEZJQ4,train_y,blue_star,bottom_left,2025-07-09_16h19.08.643,HideSeek_v1,2022.2.5,59.946647484214516,
,4,1,4,1,0,0,61,,train_dim1_1,28,30,,,,2,0,2,0,,,,,,,,,0,0,0,0,0,27,27,27,1,0,1,0,,,,,,,,,,,,,,,,,,,,,,,,,,,,,,,,,,,,,,,,,,,,,,,,,,,,,,,,,,,,,,,,30,,,,,,,,636.0576242000006,636.0576242000006,636.0576242000006,636.0576242000006,636.0576242000006,down,1.660605499999292,7,0,0,99,0.16,-0.32,down,1.5725215000002208,,,,,,,,,,,,,,,,,,,,,,,,,,,,,,,,,,,,,,,,,,,,,,,,,,,,,,,,,,,,UEZJQ4,train_y,blue_star,bottom_left,2025-07-09_16h19.08.643,HideSeek_v1,2022.2.5,59.946647484214516,
,4,1,4,1,0,0,61,,train_dim1_1,28,30,,,,2,0,2,0,,,,,,,,,0,0,0,0,0,27,27,27,2,0,2,0,,,,,,,,,,,,,,,,,,,,,,,,,,,,,,,,,,,,,,,,,,,,,,,,,,,,,,,,,,,,,,,,30,,,,,,,,637.7251885999995,637.7251885999995,637.7251885999995,637.7251885999995,637.7251885999995,return,0.5266960000008112,8,0,0,1,0.16,-0.32,return,0.4540118999993865,51,1,0.16,-0.32,,,,,,,,,,,,,,,,,,,,,,,,,,,,,,,,,,,,,,,,,,,,,,,,,,,,,,,,UEZJQ4,train_y,blue_star,bottom_left,2025-07-09_16h19.08.643,HideSeek_v1,2022.2.5,59.946647484214516,
,2,2,2,3,0,1,62,,train_dim1_1,29,30,,,,2,0,2,0,,,,,,,,,0,0,0,0,0,28,28,28,0,0,0,0,,,,,,,,,,,,,,,,,,,,,,,,,stimuli/alien_stimuli/62.png,,,,,,,,,,,,,,,,,,,,,,,,,,,,,stimuli/alien_stimuli/61.png,61,4,30,,,,,,,30,,,,,,,,643.1664394,643.1664394,643.1664394,643.1664394,643.1664394,up,0.7570392999987234,8,0,0,99,0,-0.15999999999999998,up,0.6768599000006361,,,,,641.6157822000005,643.1664394,0.16,-0.32,0.0,0.0,-0.32,0.16,0.16,0.16,-0.32,639.8032284000001,639.8032284000001,639.8032284000001,639.8032284000001,639.8032284000001,639.8032284000001,639.8032284000001,639.8032284000001,639.7975271000007,1.9038417000010668,return,1.7930456000012782,,,,,,,,,,,,,,,,,,,,,,,,,,,,,,,,,UEZJQ4,train_y,blue_star,bottom_left,2025-07-09_16h19.08.643,HideSeek_v1,2022.2.5,59.946647484214516,
,2,2,2,3,0,1,62,,train_dim1_1,29,30,,,,2,0,2,0,,,,,,,,,0,0,0,0,0,28,28,28,1,0,1,0,,,,,,,,,,,,,,,,,,,,,,,,,,,,,,,,,,,,,,,,,,,,,,,,,,,,,,,,,,,,,,,,30,,,,,,,,643.9309420000009,643.9309420000009,643.9309420000009,643.9309420000009,643.9309420000009,return,1.243522299999313,9,0,0,1,0,-0.15999999999999998,return,1.1593842000002041,52,1,0,-0.15999999999999998,,,,,,,,,,,,,,,,,,,,,,,,,,,,,,,,,,,,,,,,,,,,,,,,,,,,,,,,UEZJQ4,train_y,blue_star,bottom_left,2025-07-09_16h19.08.643,HideSeek_v1,2022.2.5,59.946647484214516,
,0,1,0,5,0,4,65,,train_dim1_1,30,30,,,,2,0,2,0,,,,,,,,,0,0,0,0,0,29,29,29,0,0,0,0,,,,,,,,,,,,,,,,,,,,,,,,,stimuli/alien_stimuli/65.png,,,,,,,,,,,,,,,,,,,,,,,,,,,,,stimuli/alien_stimuli/62.png,62,2,31,,,,,,,30,,,,,,,,649.3060193000001,649.3060193000001,649.3060193000001,649.3060193000001,649.3060193000001,up,1.4893074999999953,9,0,0,99,-0.16,-0.24,up,1.4098486000002595,,,,,647.7541865000003,649.3060193000001,0,-0.16,0.08,0.0,-0.2,0,0.0,0,-0.16,646.7268216000011,646.7268216000011,646.7268216000011,646.7268216000011,646.7268216000011,646.7268216000011,646.7268216000011,646.7268216000011,646.7199886999999,1.1198217000001023,return,1.002692100000786,,,,,,,,,,,,,,,,,,,,,,,,,,,,,,,,,UEZJQ4,train_y,blue_star,bottom_left,2025-07-09_16h19.08.643,HideSeek_v1,2022.2.5,59.946647484214516,
,0,1,0,5,0,4,65,,train_dim1_1,30,30,,,,2,0,2,0,,,,,,,,,0,0,0,0,0,29,29,29,1,0,1,0,,,,,,,,,,,,,,,,,,,,,,,,,,,,,,,,,,,,,,,,,,,,,,,,,,,,,,,,,,,,,,,,30,,,,,,,,650.8028826000009,650.8028826000009,650.8028826000009,650.8028826000009,650.8028826000009,up,0.3429889999988518,9,0,0,99,-0.16,-0.15999999999999998,up,0.26250079999954323,,,,,,,,,,,,,,,,,,,,,,,,,,,,,,,,,,,,,,,,,,,,,,,,,,,,,,,,,,,,UEZJQ4,train_y,blue_star,bottom_left,2025-07-09_16h19.08.643,HideSeek_v1,2022.2.5,59.946647484214516,
,0,1,0,5,0,4,65,,train_dim1_1,30,30,,,,2,0,2,0,,,,,,,,,0,0,0,0,0,29,29,29,2,0,2,0,,,,,,,,,,,,,,,,,,,,,,,,,,,,,,,,,,,,,,,,,,,,,,,,,,,,,,,,,,,,,,,,30,,,,,,,,651.1525770000007,651.1525770000007,651.1525770000007,651.1525770000007,651.1525770000007,return,0.7605036000004475,9,0,0,0,-0.16,-0.15999999999999998,return,0.6772039000006771,54,1,-0.16,-0.15999999999999998,,,,,,,,,,,,,,,,,,,,,,,,,,,,,,,,,,,,,,,,,,,,,,,,,,,,,,,,UEZJQ4,train_y,blue_star,bottom_left,2025-07-09_16h19.08.643,HideSeek_v1,2022.2.5,59.946647484214516,
,,,,,,,,,,,30,,,,2,0,2,0,,,,,,,,,,,,,,,,,,,,,,,,,,,,,,,,,,,,,,,,,,,,,,,,,,,,,,,,,,,,,,,,,,,,,,,,,,stimuli/alien_stimuli/65.png,65,0,32,21,0.7,0.375,1,1,1,30,0,conditions/schedules/train_y_first/blue_star_00/bottom_left/inputTrain_2.1.xlsx,99,1,2,1,0,,,,,,,,,,,0,,,,,,,,,654.6264835000002,656.1879896999999,-0.16,0,0.32,0.0,-0.16,-0.16,-0.16,-0.16,0,653.4615305000007,653.4615305000007,653.4615305000007,653.4615305000007,653.4615305000007,653.4615305000007,653.4615305000007,653.4615305000007,653.4588034000001,1.2532694000001356,return,1.1478422000018327,0,0.9,0,1,9,,,,,,,,,,,,,,,,,,,,,,,,,,,,UEZJQ4,train_y,blue_star,bottom_left,2025-07-09_16h19.08.643,HideSeek_v1,2022.2.5,59.946647484214516,
,,,,,,,,,,,,,,,3,0,3,0,0,0,0,0,,,,,,,,,,,,,,,,,,,,,,,,,,,,,,,conditions/schedules/train_y_first/blue_star_00/bottom_left/instructions/Slide17.png,conditions/schedules/train_y_first/blue_star_00/bottom_left/instructions/Audio17.wav,656.1879896999999,656.1779359000001,17,"[4.003705599998284, 18.036782799999855, 17.17366360000051, 21.387176300000647, 5.641263900000922, 5.3545009999998, 5.200981800000591, 11.256761000000552, 5.689007599999968, 6.868319799999881, 9.986888399998861, 13.60924840000007, 18.36162669999976, 16.27951309999844, 42.81210310000097, 21.380127300000822, 73.14843389999987]","[0.00021940000078757294, 0.00026020000041171443, 0.014384899999640766, 0.08669430000009015, 0.050123499999244814, 0.046769500000664266, 0.0817005999997491, 0.05112350000126753, 0.07960929999899236, 0.09525529999882565, 0.06458790000033332, 13.609254999999393, 18.361633799999254, 16.279521999998906, 42.81211110000004, 21.380133800001204, 73.14844149999954]",0,,,,,,,,,,,,,,,,,,,,,,,,,,,,,,,,,,,,,,,,,,,,,,,,,,,,,,,,,,,,,,,,,,,,,,,,,,,,,,,,,,,,,,,,,,,,,,,,,,,,,,,,,,,,,,,,,,,,,,,,,,,,UEZJQ4,train_y,blue_star,bottom_left,2025-07-09_16h19.08.643,HideSeek_v1,2022.2.5,59.946647484214516,
,,,,,,,,,,,,,,,3,0,3,0,1,0,1,0,,,,,,,,,,,,,,,,,,,,,,,,,,,,,,,conditions/schedules/train_y_first/blue_star_00/bottom_left/instructions/Slide18.png,conditions/schedules/train_y_first/blue_star_00/bottom_left/instructions/Audio18.wav,729.4075661999996,729.4057498000002,18,"[4.003705599998284, 18.036782799999855, 17.17366360000051, 21.387176300000647, 5.641263900000922, 5.3545009999998, 5.200981800000591, 11.256761000000552, 5.689007599999968, 6.868319799999881, 9.986888399998861, 13.60924840000007, 18.36162669999976, 16.27951309999844, 42.81210310000097, 21.380127300000822, 73.14843389999987, 5.950812799999767]","[0.00021940000078757294, 0.00026020000041171443, 0.014384899999640766, 0.08669430000009015, 0.050123499999244814, 0.046769500000664266, 0.0817005999997491, 0.05112350000126753, 0.07960929999899236, 0.09525529999882565, 0.06458790000033332, 13.609254999999393, 18.361633799999254, 16.279521999998906, 42.81211110000004, 21.380133800001204, 0.00022510000053443946, 5.950820599999133]",0,,,,,,,,,,,,,,,,,,,,,,,,,,,,,,,,,,,,,,,,,,,,,,,,,,,,,,,,,,,,,,,,,,,,,,,,,,,,,,,,,,,,,,,,,,,,,,,,,,,,,,,,,,,,,,,,,,,,,,,,,,,,UEZJQ4,train_y,blue_star,bottom_left,2025-07-09_16h19.08.643,HideSeek_v1,2022.2.5,59.946647484214516,
,,,,,,,,,,,,,,,3,0,3,0,2,0,2,0,,,,,,,,,,,,,,,,,,,,,,,,,,,,,,,conditions/schedules/train_y_first/blue_star_00/bottom_left/instructions/Slide19.png,conditions/schedules/train_y_first/blue_star_00/bottom_left/instructions/Audio19.wav,735.4123047000012,735.410521300001,19,"[4.003705599998284, 18.036782799999855, 17.17366360000051, 21.387176300000647, 5.641263900000922, 5.3545009999998, 5.200981800000591, 11.256761000000552, 5.689007599999968, 6.868319799999881, 9.986888399998861, 13.60924840000007, 18.36162669999976, 16.27951309999844, 42.81210310000097, 21.380127300000822, 73.14843389999987, 5.950812799999767, 12.072007299999314]","[0.00021940000078757294, 0.00026020000041171443, 0.014384899999640766, 0.08669430000009015, 0.050123499999244814, 0.046769500000664266, 0.0817005999997491, 0.05112350000126753, 0.07960929999899236, 0.09525529999882565, 0.06458790000033332, 13.609254999999393, 18.361633799999254, 16.279521999998906, 42.81211110000004, 21.380133800001204, 0.00022510000053443946, 0.013681800000995281, 12.072014400000626]",0,,,,,,,,,,,,,,,,,,,,,,,,,,,,,,,,,,,,,,,,,,,,,,,,,,,,,,,,,,,,,,,,,,,,,,,,,,,,,,,,,,,,,,,,,,,,,,,,,,,,,,,,,,,,,,,,,,,,,,,,,,,,UEZJQ4,train_y,blue_star,bottom_left,2025-07-09_16h19.08.643,HideSeek_v1,2022.2.5,59.946647484214516,
,,,,,,,,,,,,,,,3,0,3,0,3,0,3,0,,,,,,,,,,,,,,,,,,,,,,,,,,,,,,,conditions/schedules/train_y_first/blue_star_00/bottom_left/instructions/Slide20.png,conditions/schedules/train_y_first/blue_star_00/bottom_left/instructions/Audio20.wav,747.5577076999998,747.5538307999996,20,"[4.003705599998284, 18.036782799999855, 17.17366360000051, 21.387176300000647, 5.641263900000922, 5.3545009999998, 5.200981800000591, 11.256761000000552, 5.689007599999968, 6.868319799999881, 9.986888399998861, 13.60924840000007, 18.36162669999976, 16.27951309999844, 42.81210310000097, 21.380127300000822, 73.14843389999987, 5.950812799999767, 12.072007299999314, 13.204942200000005]","[0.00021940000078757294, 0.00026020000041171443, 0.014384899999640766, 0.08669430000009015, 0.050123499999244814, 0.046769500000664266, 0.0817005999997491, 0.05112350000126753, 0.07960929999899236, 0.09525529999882565, 0.06458790000033332, 13.609254999999393, 18.361633799999254, 16.279521999998906, 42.81211110000004, 21.380133800001204, 0.00022510000053443946, 0.013681800000995281, 12.072014400000626, 13.204948599999625]",0,,,,,,,,,,,,,,,,,,,,,,,,,,,,,,,,,,,,,,,,,,,,,,,,,,,,,,,,,,,,,,,,,,,,,,,,,,,,,,,,,,,,,,,,,,,,,,,,,,,,,,,,,,,,,,,,,,,,,,,,,,,,UEZJQ4,train_y,blue_star,bottom_left,2025-07-09_16h19.08.643,HideSeek_v1,2022.2.5,59.946647484214516,
1,4,0,9,0,5,0,11,2,instr_dim1_2,,,,,,3,0,3,0,,,,,0,0,0,0,,,,,,,,,,,,,,,,,,,,,,,,,,,,,,,,,,,,,stimuli/alien_stimuli/11.png,conditions/schedules/train_y_first/blue_star_00/bottom_left/inputInstr_2.xlsx,stimuli/alien_stimuli/11.png,760.8664876000003,760.8664876000003,760.8664876000003,760.8664876000003,760.8650696999998,return,8.327464700001656,"[-0.16, -0.08, 0, 0.08, 0.16, 0.24, 0.32, 0.4, 0.48, 0.56]","[-0.4, -0.32, -0.24, -0.16, -0.08, 0, 0.08, 0.16, 0.24, 0.32]",0,0,9,4,0.0,0.4,769.3622918000001,769.3622918000001,769.3622918000001,769.3622918000001,769.3622918000001,769.3622918000001,769.3622918000001,769.3550476000008,7.990904899999805,return,7.825682999999117,stimuli/alien_stimuli/11.png,11,4,1,,,,,,,,,,,,,,,,,,,,,,,,,,,,,,,,,,,,,,,,,,,,,,,,,,,,,,,,,,,,,,,,,,,,,,,,,,,,,,,,,,,,,,,,,UEZJQ4,train_y,blue_star,bottom_left,2025-07-09_16h19.08.643,HideSeek_v1,2022.2.5,59.946647484214516,
,,,,,,,,,,,30,,,,3,0,3,0,,,,,,,,,,,,,,,,,,,,,,,,,,,,,,,,,,,,,,,,,,,,,,,,,,,,,,,,,,,,,,,,,,,,,,,,,,,,,,21,0.7,0.375,1,99,2,30,0,conditions/schedules/train_y_first/blue_star_00/bottom_left/inputTrain_2.1.xlsx,99,1,2,1,0,,,,,,,,,,,,,,,,,,,,,,,,,,,,,,,,,,,,,,,,,,,,,,,,,,,,,,,,,,,,,,,,,,,,,,,,,,,UEZJQ4,train_y,blue_star,bottom_left,2025-07-09_16h19.08.643,HideSeek_v1,2022.2.5,59.946647484214516,
,,,,,,,,,,,,,,,4,0,4,0,0,0,0,0,,,,,,,,,,,,,,,,,,,,,,,,,,,,,,,conditions/schedules/train_y_first/blue_star_00/bottom_left/instructions/Slide21.png,conditions/schedules/train_y_first/blue_star_00/bottom_left/instructions/Audio21.wav,777.3422234999998,777.3450894999995,21,"[4.003705599998284, 18.036782799999855, 17.17366360000051, 21.387176300000647, 5.641263900000922, 5.3545009999998, 5.200981800000591, 11.256761000000552, 5.689007599999968, 6.868319799999881, 9.986888399998861, 13.60924840000007, 18.36162669999976, 16.27951309999844, 42.81210310000097, 21.380127300000822, 73.14843389999987, 5.950812799999767, 12.072007299999314, 13.204942200000005, 12.810702200000378]","[0.00021940000078757294, 0.00026020000041171443, 0.014384899999640766, 0.08669430000009015, 0.050123499999244814, 0.046769500000664266, 0.0817005999997491, 0.05112350000126753, 0.07960929999899236, 0.09525529999882565, 0.06458790000033332, 13.609254999999393, 18.361633799999254, 16.279521999998906, 42.81211110000004, 21.380133800001204, 0.00022510000053443946, 0.013681800000995281, 12.072014400000626, 13.204948599999625, 12.810709500001394]",0,,,,,,,,,,,,,,,,,,,,,,,,,,,,,,,,,,,,,,,,,,,,,,,,,,,,,,,,,,,,,,,,,,,,,,,,,,,,,,,,,,,,,,,,,,,,,,,,,,,,,,,,,,,,,,,,,,,,,,,,,,,,UEZJQ4,train_y,blue_star,bottom_left,2025-07-09_16h19.08.643,HideSeek_v1,2022.2.5,59.946647484214516,
2,3,2,3,2,0,0,61,2,instr_dim1_2,,,,,,4,0,4,0,,,,,0,0,0,0,,,,,,,,,,,,,,,,,,,,,,,,,,,,,,,,,,,,,stimuli/alien_stimuli/61.png,conditions/schedules/train_y_first/blue_star_00/bottom_left/inputInstr_2.xlsx,stimuli/alien_stimuli/61.png,790.2568967999996,790.2568967999996,790.2568967999996,790.2568967999996,790.2561167999997,return,7.15281320000031,"[-0.16, -0.08, 0, 0.08, 0.16, 0.24, 0.32, 0.4, 0.48, 0.56]","[-0.4, -0.32, -0.24, -0.16, -0.08, 0, 0.08, 0.16, 0.24, 0.32]",2,2,3,3,0.0,0.0,797.5621534000002,797.5621534000002,797.5621534000002,797.5621534000002,797.5621534000002,797.5621534000002,797.5621534000002,797.5455933999998,5.655631700001322,return,5.501236500000232,stimuli/alien_stimuli/61.png,61,3,2,,,,,,,,,,,,,,,,,,,,,,,,,,,,,,,,,,,,,,,,,,,,,,,,,,,,,,,,,,,,,,,,,,,,,,,,,,,,,,,,,,,,,,,,,UEZJQ4,train_y,blue_star,bottom_left,2025-07-09_16h19.08.643,HideSeek_v1,2022.2.5,59.946647484214516,
,,,,,,,,,,,30,,,,4,0,4,0,,,,,,,,,,,,,,,,,,,,,,,,,,,,,,,,,,,,,,,,,,,,,,,,,,,,,,,,,,,,,,,,,,,,,,,,,,,,,,21,0.7,0.375,1,99,2,30,0,conditions/schedules/train_y_first/blue_star_00/bottom_left/inputTrain_2.1.xlsx,99,1,2,1,0,,,,,,,,,,,,,,,,,,,,,,,,,,,,,,,,,,,,,,,,,,,,,,,,,,,,,,,,,,,,,,,,,,,,,,,,,,,UEZJQ4,train_y,blue_star,bottom_left,2025-07-09_16h19.08.643,HideSeek_v1,2022.2.5,59.946647484214516,
,,,,,,,,,,,,,,,5,0,5,0,0,0,0,0,,,,,,,,,,,,,,,,,,,,,,,,,,,,,,,conditions/schedules/train_y_first/blue_star_00/bottom_left/instructions/Slide22.png,conditions/schedules/train_y_first/blue_star_00/bottom_left/instructions/Audio22.wav,803.2176204000007,803.2171454999997,22,"[4.003705599998284, 18.036782799999855, 17.17366360000051, 21.387176300000647, 5.641263900000922, 5.3545009999998, 5.200981800000591, 11.256761000000552, 5.689007599999968, 6.868319799999881, 9.986888399998861, 13.60924840000007, 18.36162669999976, 16.27951309999844, 42.81210310000097, 21.380127300000822, 73.14843389999987, 5.950812799999767, 12.072007299999314, 13.204942200000005, 12.810702200000378, 30.021826799998962]","[0.00021940000078757294, 0.00026020000041171443, 0.014384899999640766, 0.08669430000009015, 0.050123499999244814, 0.046769500000664266, 0.0817005999997491, 0.05112350000126753, 0.07960929999899236, 0.09525529999882565, 0.06458790000033332, 13.609254999999393, 18.361633799999254, 16.279521999998906, 42.81211110000004, 21.380133800001204, 0.00022510000053443946, 0.013681800000995281, 12.072014400000626, 13.204948599999625, 12.810709500001394, 30.021834099999978]",0,,,,,,,,,,,,,,,,,,,,,,,,,,,,,,,,,,,,,,,,,,,,,,,,,,,,,,,,,,,,,,,,,,,,,,,,,,,,,,,,,,,,,,,,,,,,,,,,,,,,,,,,,,,,,,,,,,,,,,,,,,,,UEZJQ4,train_y,blue_star,bottom_left,2025-07-09_16h19.08.643,HideSeek_v1,2022.2.5,59.946647484214516,
,2,1,5,1,3,0,31,,train_dim1_2,1,30,,,,5,0,5,0,,,,,,,,,0,0,0,0,0,0,0,0,0,0,0,0,,,,,,,,,,,,,,,,,,,,,,,,,stimuli/alien_stimuli/31.png,,,,,,,,,,,,,,,,,,,,,,,,,,,,,,,,,,,,,,,30,,,,,,,,833.3514511000012,833.3514511000012,833.3514511000012,833.3514511000012,833.3514511000012,right,6.699700900000607,0,0,0,99,0.08,-0.32,right,6.596119300000282,,,,,,,,,,,,,,,,,,,,,,,,,,,,,,,,,,,,,,,,,,,,,,,,,,,,,,,,,,,,UEZJQ4,train_y,blue_star,bottom_left,2025-07-09_16h19.08.643,HideSeek_v1,2022.2.5,59.946647484214516,
,2,1,5,1,3,0,31,,train_dim1_2,1,30,,,,5,0,5,0,,,,,,,,,0,0,0,0,0,0,0,0,1,0,1,0,,,,,,,,,,,,,,,,,,,,,,,,,,,,,,,,,,,,,,,,,,,,,,,,,,,,,,,,,,,,,,,,30,,,,,,,,840.0283017000002,840.0283017000002,840.0283017000002,840.0283017000002,840.0283017000002,right,0.7932221000010031,0,0,0,99,0.16,-0.32,right,0.7157229000004008,,,,,,,,,,,,,,,,,,,,,,,,,,,,,,,,,,,,,,,,,,,,,,,,,,,,,,,,,,,,UEZJQ4,train_y,blue_star,bottom_left,2025-07-09_16h19.08.643,HideSeek_v1,2022.2.5,59.946647484214516,
,2,1,5,1,3,0,31,,train_dim1_2,1,30,,,,5,0,5,0,,,,,,,,,0,0,0,0,0,0,0,0,2,0,2,0,,,,,,,,,,,,,,,,,,,,,,,,,,,,,,,,,,,,,,,,,,,,,,,,,,,,,,,,,,,,,,,,30,,,,,,,,840.8277968000002,840.8277968000002,840.8277968000002,840.8277968000002,840.8277968000002,right,0.5770394999999553,0,0,0,99,0.24,-0.32,right,0.4966227999993862,,,,,,,,,,,,,,,,,,,,,,,,,,,,,,,,,,,,,,,,,,,,,,,,,,,,,,,,,,,,UEZJQ4,train_y,blue_star,bottom_left,2025-07-09_16h19.08.643,HideSeek_v1,2022.2.5,59.946647484214516,
,2,1,5,1,3,0,31,,train_dim1_2,1,30,,,,5,0,5,0,,,,,,,,,0,0,0,0,0,0,0,0,3,0,3,0,,,,,,,,,,,,,,,,,,,,,,,,,,,,,,,,,,,,,,,,,,,,,,,,,,,,,,,,,,,,,,,,30,,,,,,,,841.4117894999999,841.4117894999999,841.4117894999999,841.4117894999999,841.4117894999999,right,2.0112664999996923,0,0,0,99,0.32,-0.32,right,1.9228672000008373,,,,,,,,,,,,,,,,,,,,,,,,,,,,,,,,,,,,,,,,,,,,,,,,,,,,,,,,,,,,UEZJQ4,train_y,blue_star,bottom_left,2025-07-09_16h19.08.643,HideSeek_v1,2022.2.5,59.946647484214516,
,2,1,5,1,3,0,31,,train_dim1_2,1,30,,,,5,0,5,0,,,,,,,,,0,0,0,0,0,0,0,0,4,0,4,0,,,,,,,,,,,,,,,,,,,,,,,,,,,,,,,,,,,,,,,,,,,,,,,,,,,,,,,,,,,,,,,,30,,,,,,,,843.4295056999999,843.4295056999999,843.4295056999999,843.4295056999999,843.4295056999999,return,1.5109724000012648,0,1,0,0,0.32,-0.32,return,1.4383044000005611,54,5,0.32,-0.32,,,,,,,,,,,,,,,,,,,,,,,,,,,,,,,,,,,,,,,,,,,,,,,,,,,,,,,,UEZJQ4,train_y,blue_star,bottom_left,2025-07-09_16h19.08.643,HideSeek_v1,2022.2.5,59.946647484214516,
,2,4,7,4,5,0,11,,train_dim1_2,2,30,,,,5,0,5,0,,,,,,,,,0,0,0,0,0,1,1,1,0,0,0,0,,,,,,,,,,,,,,,,,,,,,,,,,stimuli/alien_stimuli/11.png,,,,,,,,,,,,,,,,,,,,,,,,,,,,,stimuli/alien_stimuli/31.png,31,2,3,,,,,,,30,,,,,,,,850.0317524000002,850.0317524000002,850.0317524000002,850.0317524000002,850.0317524000002,right,1.2570609000013064,0,1,0,99,0.08,-0.08,right,1.1579670999999507,,,,,848.4546733999996,850.0317524000002,0.24,-0.32,0.0,0.24,-0.32,0.24,0.12,0.24,-0.32,846.5223631999997,846.5223631999997,846.5223631999997,846.5223631999997,846.5223631999997,846.5223631999997,846.5223631999997,846.5223631999997,846.5026739999998,2.053927400000248,return,1.9041488000002573,,,,,,,,,,,,,,,,,,,,,,,,,,,,,,,,,UEZJQ4,train_y,blue_star,bottom_left,2025-07-09_16h19.08.643,HideSeek_v1,2022.2.5,59.946647484214516,
,2,4,7,4,5,0,11,,train_dim1_2,2,30,,,,5,0,5,0,,,,,,,,,0,0,0,0,0,1,1,1,1,0,1,0,,,,,,,,,,,,,,,,,,,,,,,,,,,,,,,,,,,,,,,,,,,,,,,,,,,,,,,,,,,,,,,,30,,,,,,,,851.2740969000006,851.2740969000006,851.2740969000006,851.2740969000006,851.2740969000006,right,1.4267808000004152,0,1,0,99,0.16,-0.08,right,1.3417972000006557,,,,,,,,,,,,,,,,,,,,,,,,,,,,,,,,,,,,,,,,,,,,,,,,,,,,,,,,,,,,UEZJQ4,train_y,blue_star,bottom_left,2025-07-09_16h19.08.643,HideSeek_v1,2022.2.5,59.946647484214516,
,2,4,7,4,5,0,11,,train_dim1_2,2,30,,,,5,0,5,0,,,,,,,,,0,0,0,0,0,1,1,1,2,0,2,0,,,,,,,,,,,,,,,,,,,,,,,,,,,,,,,,,,,,,,,,,,,,,,,,,,,,,,,,,,,,,,,,30,,,,,,,,852.7091856999996,852.7091856999996,852.7091856999996,852.7091856999996,852.7091856999996,right,0.27696349999860104,0,1,0,99,0.24,-0.08,right,0.1980519999997341,,,,,,,,,,,,,,,,,,,,,,,,,,,,,,,,,,,,,,,,,,,,,,,,,,,,,,,,,,,,UEZJQ4,train_y,blue_star,bottom_left,2025-07-09_16h19.08.643,HideSeek_v1,2022.2.5,59.946647484214516,
,2,4,7,4,5,0,11,,train_dim1_2,2,30,,,,5,0,5,0,,,,,,,,,0,0,0,0,0,1,1,1,3,0,3,0,,,,,,,,,,,,,,,,,,,,,,,,,,,,,,,,,,,,,,,,,,,,,,,,,,,,,,,,,,,,,,,,30,,,,,,,,852.9924209000001,852.9924209000001,852.9924209000001,852.9924209000001,852.9924209000001,right,0.2433686000003945,0,1,0,99,0.32,-0.08,right,0.15473670000028505,,,,,,,,,,,,,,,,,,,,,,,,,,,,,,,,,,,,,,,,,,,,,,,,,,,,,,,,,,,,UEZJQ4,train_y,blue_star,bottom_left,2025-07-09_16h19.08.643,HideSeek_v1,2022.2.5,59.946647484214516,
,2,4,7,4,5,0,11,,train_dim1_2,2,30,,,,5,0,5,0,,,,,,,,,0,0,0,0,0,1,1,1,4,0,4,0,,,,,,,,,,,,,,,,,,,,,,,,,,,,,,,,,,,,,,,,,,,,,,,,,,,,,,,,,,,,,,,,30,,,,,,,,853.2420872000002,853.2420872000002,853.2420872000002,853.2420872000002,853.2420872000002,right,0.6436452000016288,0,1,0,99,0.4,-0.08,right,0.5594482000014978,,,,,,,,,,,,,,,,,,,,,,,,,,,,,,,,,,,,,,,,,,,,,,,,,,,,,,,,,,,,UEZJQ4,train_y,blue_star,bottom_left,2025-07-09_16h19.08.643,HideSeek_v1,2022.2.5,59.946647484214516,
,2,4,7,4,5,0,11,,train_dim1_2,2,30,,,,5,0,5,0,,,,,,,,,0,0,0,0,0,1,1,1,5,0,5,0,,,,,,,,,,,,,,,,,,,,,,,,,,,,,,,,,,,,,,,,,,,,,,,,,,,,,,,,,,,,,,,,30,,,,,,,,853.8923709999999,853.8923709999999,853.8923709999999,853.8923709999999,853.8923709999999,right,0.32658449999871664,0,1,0,99,0.48000000000000004,-0.08,right,0.23751820000143198,,,,,,,,,,,,,,,,,,,,,,,,,,,,,,,,,,,,,,,,,,,,,,,,,,,,,,,,,,,,UEZJQ4,train_y,blue_star,bottom_left,2025-07-09_16h19.08.643,HideSeek_v1,2022.2.5,59.946647484214516,
,2,4,7,4,5,0,11,,train_dim1_2,2,30,,,,5,0,5,0,,,,,,,,,0,0,0,0,0,1,1,1,6,0,6,0,,,,,,,,,,,,,,,,,,,,,,,,,,,,,,,,,,,,,,,,,,,,,,,,,,,,,,,,,,,,,,,,30,,,,,,,,854.2270843000006,854.2270843000006,854.2270843000006,854.2270843000006,854.2270843000006,right,0.3261577000012039,0,1,0,99,0.56,-0.08,right,0.24053030000141007,,,,,,,,,,,,,,,,,,,,,,,,,,,,,,,,,,,,,,,,,,,,,,,,,,,,,,,,,,,,UEZJQ4,train_y,blue_star,bottom_left,2025-07-09_16h19.08.643,HideSeek_v1,2022.2.5,59.946647484214516,
,2,4,7,4,5,0,11,,train_dim1_2,2,30,,,,5,0,5,0,,,,,,,,,0,0,0,0,0,1,1,1,7,0,7,0,,,,,,,,,,,,,,,,,,,,,,,,,,,,,,,,,,,,,,,,,,,,,,,,,,,,,,,,,,,,,,,,30,,,,,,,,854.5606681000008,854.5606681000008,854.5606681000008,854.5606681000008,854.5606681000008,return,0.893730300000243,0,0,0,0,0.56,-0.08,return,0.804234200000792,54,12,0.56,-0.08,,,,,,,,,,,,,,,,,,,,,,,,,,,,,,,,,,,,,,,,,,,,,,,,,,,,,,,,UEZJQ4,train_y,blue_star,bottom_left,2025-07-09_16h19.08.643,HideSeek_v1,2022.2.5,59.946647484214516,
,4,4,8,4,4,0,21,,train_dim1_2,3,30,,,,5,0,5,0,,,,,,,,,0,0,0,0,0,2,2,2,0,0,0,0,,,,,,,,,,,,,,,,,,,,,,,,,stimuli/alien_stimuli/21.png,,,,,,,,,,,,,,,,,,,,,,,,,,,,,stimuli/alien_stimuli/11.png,11,2,4,,,,,,,30,,,,,,,,859.7210164999997,859.7210164999997,859.7210164999997,859.7210164999997,859.7210164999997,right,1.6079491000000417,0,0,0,99,0.24,-0.08,right,1.5064737000011519,,,,,858.145576500001,859.7210164999997,0.4,-0.08,0.0,0.4,-0.08,0.4,0.2,0.4,-0.08,857.0207530000007,857.0207530000007,857.0207530000007,857.0207530000007,857.0207530000007,857.0207530000007,857.0207530000007,857.0207530000007,857.0114393000008,1.2362532999995892,return,1.1020395000014105,,,,,,,,,,,,,,,,,,,,,,,,,,,,,,,,,UEZJQ4,train_y,blue_star,bottom_left,2025-07-09_16h19.08.643,HideSeek_v1,2022.2.5,59.946647484214516,
,4,4,8,4,4,0,21,,train_dim1_2,3,30,,,,5,0,5,0,,,,,,,,,0,0,0,0,0,2,2,2,1,0,1,0,,,,,,,,,,,,,,,,,,,,,,,,,,,,,,,,,,,,,,,,,,,,,,,,,,,,,,,,,,,,,,,,30,,,,,,,,861.3219167000007,861.3219167000007,861.3219167000007,861.3219167000007,861.3219167000007,right,0.30517150000014226,0,0,0,99,0.32,-0.08,right,0.21990759999971488,,,,,,,,,,,,,,,,,,,,,,,,,,,,,,,,,,,,,,,,,,,,,,,,,,,,,,,,,,,,UEZJQ4,train_y,blue_star,bottom_left,2025-07-09_16h19.08.643,HideSeek_v1,2022.2.5,59.946647484214516,
,4,4,8,4,4,0,21,,train_dim1_2,3,30,,,,5,0,5,0,,,,,,,,,0,0,0,0,0,2,2,2,2,0,2,0,,,,,,,,,,,,,,,,,,,,,,,,,,,,,,,,,,,,,,,,,,,,,,,,,,,,,,,,,,,,,,,,30,,,,,,,,861.6326011000001,861.6326011000001,861.6326011000001,861.6326011000001,861.6326011000001,right,0.2935596000006626,0,0,0,99,0.4,-0.08,right,0.21160300000155985,,,,,,,,,,,,,,,,,,,,,,,,,,,,,,,,,,,,,,,,,,,,,,,,,,,,,,,,,,,,UEZJQ4,train_y,blue_star,bottom_left,2025-07-09_16h19.08.643,HideSeek_v1,2022.2.5,59.946647484214516,
,4,4,8,4,4,0,21,,train_dim1_2,3,30,,,,5,0,5,0,,,,,,,,,0,0,0,0,0,2,2,2,3,0,3,0,,,,,,,,,,,,,,,,,,,,,,,,,,,,,,,,,,,,,,,,,,,,,,,,,,,,,,,,,,,,,,,,30,,,,,,,,861.9323994999995,861.9323994999995,861.9323994999995,861.9323994999995,861.9323994999995,return,0.7265494000002946,0,1,0,0,0.4,-0.08,return,0.6497467000008328,54,15,0.4,-0.08,,,,,,,,,,,,,,,,,,,,,,,,,,,,,,,,,,,,,,,,,,,,,,,,,,,,,,,,UEZJQ4,train_y,blue_star,bottom_left,2025-07-09_16h19.08.643,HideSeek_v1,2022.2.5,59.946647484214516,
,2,3,3,3,1,0,51,,train_dim1_2,4,30,,,,5,0,5,0,,,,,,,,,0,0,0,0,0,3,3,3,0,0,0,0,,,,,,,,,,,,,,,,,,,,,,,,,stimuli/alien_stimuli/51.png,,,,,,,,,,,,,,,,,,,,,,,,,,,,,stimuli/alien_stimuli/21.png,21,4,5,,,,,,,30,,,,,,,,866.9661372999999,866.9661372999999,866.9661372999999,866.9661372999999,866.9661372999999,right,2.489326799999617,0,1,0,99,0.08,-0.16,right,2.395601300000635,,,,,865.4018764000011,866.9661372999999,0.48,-0.08,0.0,0.32,-0.08,0.48,0.32,0.48,-0.08,864.2296325000007,864.2296325000007,864.2296325000007,864.2296325000007,864.2296325000007,864.2296325000007,864.2296325000007,864.2296325000007,864.2174087999997,1.2866419999991194,return,1.1440164000014192,,,,,,,,,,,,,,,,,,,,,,,,,,,,,,,,,UEZJQ4,train_y,blue_star,bottom_left,2025-07-09_16h19.08.643,HideSeek_v1,2022.2.5,59.946647484214516,
,2,3,3,3,1,0,51,,train_dim1_2,4,30,,,,5,0,5,0,,,,,,,,,0,0,0,0,0,3,3,3,1,0,1,0,,,,,,,,,,,,,,,,,,,,,,,,,,,,,,,,,,,,,,,,,,,,,,,,,,,,,,,,,,,,,,,,30,,,,,,,,869.4545065000002,869.4545065000002,869.4545065000002,869.4545065000002,869.4545065000002,return,0.6765424000004714,1,0,0,1,0.08,-0.16,return,0.5979084000009607,54,16,0.08,-0.16,,,,,,,,,,,,,,,,,,,,,,,,,,,,,,,,,,,,,,,,,,,,,,,,,,,,,,,,UEZJQ4,train_y,blue_star,bottom_left,2025-07-09_16h19.08.643,HideSeek_v1,2022.2.5,59.946647484214516,
