trialInstr,x_fixStart,y_fixStart,x_corrSteps,y_corrSteps,x_nrSteps,y_nrSteps,alienID,trialLength,version,trialTrain,praclen,testlen,trial_label,break_on_off,beforeExpLoop.thisRepN,beforeExpLoop.thisTrialN,beforeExpLoop.thisN,beforeExpLoop.thisIndex,mini_instr_trials.thisRepN,mini_instr_trials.thisTrialN,mini_instr_trials.thisN,mini_instr_trials.thisIndex,instrLoop.thisRepN,instrLoop.thisTrialN,instrLoop.thisN,instrLoop.thisIndex,repeat_prac.thisRepN,repeat_prac.thisTrialN,repeat_prac.thisN,repeat_prac.thisIndex,trainLoop.thisRepN,trainLoop.thisTrialN,trainLoop.thisN,trainLoop.thisIndex,moveLoop_train.thisRepN,moveLoop_train.thisTrialN,moveLoop_train.thisN,moveLoop_train.thisIndex,experiment.thisRepN,experiment.thisTrialN,experiment.thisN,experiment.thisIndex,moveLoop_test.thisRepN,moveLoop_test.thisTrialN,moveLoop_test.thisN,moveLoop_test.thisIndex,mini_instr2_trials.thisRepN,mini_instr2_trials.thisTrialN,mini_instr2_trials.thisN,mini_instr2_trials.thisIndex,start_all_time,url,slideStim,audioStim,slides.started,sounds.started,nextButton.numClicks,nextButton.timesOn,nextButton.timesOff,prev_but.numClicks,prev_but.timesOn,prev_but.timesOff,alienStim,instrFile,alienStim_instr,gridImage_instr.started,startPos_3.started,key_instr.started,alienImage_3.started,sounds_1.started,key_instr.keys,key_instr.rt,all_x,all_y,FBy_corrSteps,FBy_fixStart,FBx_corrSteps,FBx_fixStart,FBy_pathSize_check,FBx_pathSize_check,gridImage_9.started,alienImageFB_3.started,startPosFB_3.started,keyFB_3.started,pathLine_ydir_2.started,pathLine_xdir_2.started,alienFace_3.started,sounds_2.started,RTFB_instr,keyFB_3.keys,keyFB_3.rt,draw_alienStim,draw_alienID,test_x,nrepcount,perfthres,percthres,earlierperf,earlystop,nextPrac,fileidx,praclen,saveACC_train,pracFile,nextPrac_train,addNrep,fileidx_endr,repExp,showearly,gridImage_4.started,startPos.started,movePos.started,key_resp.started,alienImage.started,buttonPress_train,RTchoice_train,cumAcctrain,aCorr,saveACC_choice,corrAns,x_movePos_end,y_movePos_end,key_resp.keys,key_resp.rt,wLy_dir,wLx_dir,x_movePos,y_movePos,text_2.started,text_2.stopped,aft_x_corrPos,aft_y_corrPos,y_pathSize_check,x_pathSize_check,y_pathdirY,x_pathdirY,x_pathdirX,x_corrPos,y_corrPos,gridImage_6.started,alienImageFB_2.started,startPosFB_2.started,movePosFB_2.started,keyFB_2.started,pathLine_xdir.started,pathLine_ydir.started,alienFace.started,sounds_4.started,RT_FBtrain,keyFB_2.keys,keyFB_2.rt,saveACC_pre,ACC,within_saveACC_train,earlystop_wloop,cumAcctrain_check,gridImage_3.started,alienImage_test.started,startPos_test.started,movePos_test.started,key_resp_test.started,wLy_dir_test,wLx_dir_test,buttonPress_test,RTchoice_test,cumAcctest,corrAns_test,key_resp_test.keys,key_resp_test.rt,text_3.started,text_3.stopped,total_time,end_all_time,key_resp_3.keys,slides_2.started,sounds_3.started,nextButton_2.numClicks,nextButton_2.timesOn,nextButton_2.timesOff,prev_but_2.numClicks,prev_but_2.timesOn,prev_but_2.timesOff,bye.started,participant,train_first,00_coordinate,starting corner,date,expName,psychopyVersion,frameRate,
,,,,,,,,,,,,,,,0,0,0,0,0,0,0,0,,,,,,,,,,,,,,,,,,,,,,,,,,,,,start_all_time,testround,conditions/schedules/train_x_first/blue_star_00/bottom_left/instructions/Slide1.png,conditions/schedules/train_x_first/blue_star_00/bottom_left/instructions/Audio1.wav,57.052511100017,56.984438460506496,1,[4.162787300010677],[4.162794300005771],0,,,,,,,,,,,,,,,,,,,,,,,,,,,,,,,,,,,,,,,,,,,,,,,,,,,,,,,,,,,,,,,,,,,,,,,,,,,,,,,,,,,,,,,,,,,,,,,,,,,,,,,,,,,,,,,,,,,,,,,,,,,,UH55MW,train_x,blue_star,bottom_left,2024-12-16_17h32.21.613,HideSeek_v1,2022.2.5,59.980554288900876,
,,,,,,,,,,,,,,,0,0,0,0,1,0,1,0,,,,,,,,,,,,,,,,,,,,,,,,,,,,,,,conditions/schedules/train_x_first/blue_star_00/bottom_left/instructions/Slide2.png,conditions/schedules/train_x_first/blue_star_00/bottom_left/instructions/Audio2.wav,61.311364600027446,61.3047897000215,2,"[4.162787300010677, 18.273090600036085]","[4.162794300005771, 18.27309700002661]",0,,,,,,,,,,,,,,,,,,,,,,,,,,,,,,,,,,,,,,,,,,,,,,,,,,,,,,,,,,,,,,,,,,,,,,,,,,,,,,,,,,,,,,,,,,,,,,,,,,,,,,,,,,,,,,,,,,,,,,,,,,,,UH55MW,train_x,blue_star,bottom_left,2024-12-16_17h32.21.613,HideSeek_v1,2022.2.5,59.980554288900876,
,,,,,,,,,,,,,,,0,0,0,0,2,0,2,0,,,,,,,,,,,,,,,,,,,,,,,,,,,,,,,conditions/schedules/train_x_first/blue_star_00/bottom_left/instructions/Slide3.png,conditions/schedules/train_x_first/blue_star_00/bottom_left/instructions/Audio3.wav,79.73023690003902,79.71984464004636,3,"[4.162787300010677, 18.273090600036085, 16.985286599956453]","[4.162794300005771, 18.27309700002661, 16.985293599951547]",0,,,,,,,,,,,,,,,,,,,,,,,,,,,,,,,,,,,,,,,,,,,,,,,,,,,,,,,,,,,,,,,,,,,,,,,,,,,,,,,,,,,,,,,,,,,,,,,,,,,,,,,,,,,,,,,,,,,,,,,,,,,,UH55MW,train_x,blue_star,bottom_left,2024-12-16_17h32.21.613,HideSeek_v1,2022.2.5,59.980554288900876,
,,,,,,,,,,,,,,,0,0,0,0,3,0,3,0,,,,,,,,,,,,,,,,,,,,,,,,,,,,,,,conditions/schedules/train_x_first/blue_star_00/bottom_left/instructions/Slide4.png,conditions/schedules/train_x_first/blue_star_00/bottom_left/instructions/Audio4.wav,96.92637330002617,96.91782798004569,4,"[4.162787300010677, 18.273090600036085, 16.985286599956453, 19.705787499959115]","[4.162794300005771, 18.27309700002661, 16.985293599951547, 19.705794199951924]",0,,,,,,,,,,,,,,,,,,,,,,,,,,,,,,,,,,,,,,,,,,,,,,,,,,,,,,,,,,,,,,,,,,,,,,,,,,,,,,,,,,,,,,,,,,,,,,,,,,,,,,,,,,,,,,,,,,,,,,,,,,,,UH55MW,train_x,blue_star,bottom_left,2024-12-16_17h32.21.613,HideSeek_v1,2022.2.5,59.980554288900876,
,,,,,,,,,,,,,,,0,0,0,0,4,0,4,0,,,,,,,,,,,,,,,,,,,,,,,,,,,,,,,conditions/schedules/train_x_first/blue_star_00/bottom_left/instructions/Slide5.png,conditions/schedules/train_x_first/blue_star_00/bottom_left/instructions/Audio5.wav,116.76626660005422,116.76733434007038,5,"[4.162787300010677, 18.273090600036085, 16.985286599956453, 19.705787499959115, 4.836871500010602]","[4.162794300005771, 18.27309700002661, 16.985293599951547, 19.705794199951924, 4.836878500005696]",0,,,,,,,,,,,,,,,,,,,,,,,,,,,,,,,,,,,,,,,,,,,,,,,,,,,,,,,,,,,,,,,,,,,,,,,,,,,,,,,,,,,,,,,,,,,,,,,,,,,,,,,,,,,,,,,,,,,,,,,,,,,,UH55MW,train_x,blue_star,bottom_left,2024-12-16_17h32.21.613,HideSeek_v1,2022.2.5,59.980554288900876,
,,,,,,,,,,,,,,,0,0,0,0,5,0,5,0,,,,,,,,,,,,,,,,,,,,,,,,,,,,,,,conditions/schedules/train_x_first/blue_star_00/bottom_left/instructions/Slide6.png,conditions/schedules/train_x_first/blue_star_00/bottom_left/instructions/Audio6.wav,121.80510710005183,121.80538998006377,6,"[4.162787300010677, 18.273090600036085, 16.985286599956453, 19.705787499959115, 4.836871500010602, 5.002451199979987]","[4.162794300005771, 18.27309700002661, 16.985293599951547, 19.705794199951924, 4.836878500005696, 5.002457999973558]",0,,,,,,,,,,,,,,,,,,,,,,,,,,,,,,,,,,,,,,,,,,,,,,,,,,,,,,,,,,,,,,,,,,,,,,,,,,,,,,,,,,,,,,,,,,,,,,,,,,,,,,,,,,,,,,,,,,,,,,,,,,,,UH55MW,train_x,blue_star,bottom_left,2024-12-16_17h32.21.613,HideSeek_v1,2022.2.5,59.980554288900876,
,,,,,,,,,,,,,,,0,0,0,0,6,0,6,0,,,,,,,,,,,,,,,,,,,,,,,,,,,,,,,conditions/schedules/train_x_first/blue_star_00/bottom_left/instructions/Slide7.png,conditions/schedules/train_x_first/blue_star_00/bottom_left/instructions/Audio7.wav,126.9832542000222,126.97582326004049,7,"[4.162787300010677, 18.273090600036085, 16.985286599956453, 19.705787499959115, 4.836871500010602, 5.002451199979987, 5.545152299979236]","[4.162794300005771, 18.27309700002661, 16.985293599951547, 19.705794199951924, 4.836878500005696, 5.002457999973558, 5.545158999972045]",0,,,,,,,,,,,,,,,,,,,,,,,,,,,,,,,,,,,,,,,,,,,,,,,,,,,,,,,,,,,,,,,,,,,,,,,,,,,,,,,,,,,,,,,,,,,,,,,,,,,,,,,,,,,,,,,,,,,,,,,,,,,,UH55MW,train_x,blue_star,bottom_left,2024-12-16_17h32.21.613,HideSeek_v1,2022.2.5,59.980554288900876,
,,,,,,,,,,,,,,,0,0,0,0,7,0,7,0,,,,,,,,,,,,,,,,,,,,,,,,,,,,,,,conditions/schedules/train_x_first/blue_star_00/bottom_left/instructions/Slide8.png,conditions/schedules/train_x_first/blue_star_00/bottom_left/instructions/Audio8.wav,132.65805970004294,132.6472729800502,8,"[4.162787300010677, 18.273090600036085, 16.985286599956453, 19.705787499959115, 4.836871500010602, 5.002451199979987, 5.545152299979236, 11.763967800012324]","[4.162794300005771, 18.27309700002661, 16.985293599951547, 19.705794199951924, 4.836878500005696, 5.002457999973558, 0.00021159998141229153, 11.76397430000361]",0,,,,,,,,,,,,,,,,,,,,,,,,,,,,,,,,,,,,,,,,,,,,,,,,,,,,,,,,,,,,,,,,,,,,,,,,,,,,,,,,,,,,,,,,,,,,,,,,,,,,,,,,,,,,,,,,,,,,,,,,,,,,UH55MW,train_x,blue_star,bottom_left,2024-12-16_17h32.21.613,HideSeek_v1,2022.2.5,59.980554288900876,
,,,,,,,,,,,,,,,0,0,0,0,8,0,8,0,,,,,,,,,,,,,,,,,,,,,,,,,,,,,,,conditions/schedules/train_x_first/blue_star_00/bottom_left/instructions/Slide9.png,conditions/schedules/train_x_first/blue_star_00/bottom_left/instructions/Audio9.wav,144.6259441000293,144.62386568004732,9,"[4.162787300010677, 18.273090600036085, 16.985286599956453, 19.705787499959115, 4.836871500010602, 5.002451199979987, 5.545152299979236, 11.763967800012324, 6.134689400030766]","[4.162794300005771, 18.27309700002661, 16.985293599951547, 19.705794199951924, 4.836878500005696, 5.002457999973558, 0.00021159998141229153, 11.76397430000361, 6.134696200024337]",0,,,,,,,,,,,,,,,,,,,,,,,,,,,,,,,,,,,,,,,,,,,,,,,,,,,,,,,,,,,,,,,,,,,,,,,,,,,,,,,,,,,,,,,,,,,,,,,,,,,,,,,,,,,,,,,,,,,,,,,,,,,,UH55MW,train_x,blue_star,bottom_left,2024-12-16_17h32.21.613,HideSeek_v1,2022.2.5,59.980554288900876,
,,,,,,,,,,,,,,,0,0,0,0,9,0,9,0,,,,,,,,,,,,,,,,,,,,,,,,,,,,,,,conditions/schedules/train_x_first/blue_star_00/bottom_left/instructions/Slide10.png,conditions/schedules/train_x_first/blue_star_00/bottom_left/instructions/Audio10.wav,150.86525030003395,150.86257952005838,10,"[4.162787300010677, 18.273090600036085, 16.985286599956453, 19.705787499959115, 4.836871500010602, 5.002451199979987, 5.545152299979236, 11.763967800012324, 6.134689400030766, 7.451260000001639]","[4.162794300005771, 18.27309700002661, 16.985293599951547, 19.705794199951924, 4.836878500005696, 5.002457999973558, 0.00021159998141229153, 11.76397430000361, 0.030607499997131526, 7.451267399999779]",0,,,,,,,,,,,,,,,,,,,,,,,,,,,,,,,,,,,,,,,,,,,,,,,,,,,,,,,,,,,,,,,,,,,,,,,,,,,,,,,,,,,,,,,,,,,,,,,,,,,,,,,,,,,,,,,,,,,,,,,,,,,,UH55MW,train_x,blue_star,bottom_left,2024-12-16_17h32.21.613,HideSeek_v1,2022.2.5,59.980554288900876,
,,,,,,,,,,,,,,,0,0,0,0,10,0,10,0,,,,,,,,,,,,,,,,,,,,,,,,,,,,,,,conditions/schedules/train_x_first/blue_star_00/bottom_left/instructions/Slide11.png,conditions/schedules/train_x_first/blue_star_00/bottom_left/instructions/Audio11.wav,158.45317980000982,158.45160164001865,11,"[4.162787300010677, 18.273090600036085, 16.985286599956453, 19.705787499959115, 4.836871500010602, 5.002451199979987, 5.545152299979236, 11.763967800012324, 6.134689400030766, 7.451260000001639, 10.355142300017178]","[4.162794300005771, 18.27309700002661, 16.985293599951547, 19.705794199951924, 4.836878500005696, 5.002457999973558, 0.00021159998141229153, 11.76397430000361, 0.030607499997131526, 7.451267399999779, 10.355148700007703]",0,,,,,,,,,,,,,,,,,,,,,,,,,,,,,,,,,,,,,,,,,,,,,,,,,,,,,,,,,,,,,,,,,,,,,,,,,,,,,,,,,,,,,,,,,,,,,,,,,,,,,,,,,,,,,,,,,,,,,,,,,,,,UH55MW,train_x,blue_star,bottom_left,2024-12-16_17h32.21.613,HideSeek_v1,2022.2.5,59.980554288900876,
,,,,,,,,,,,,,,,0,0,0,0,11,0,11,0,,,,,,,,,,,,,,,,,,,,,,,,,,,,,,,conditions/schedules/train_x_first/blue_star_00/bottom_left/instructions/Slide12.png,conditions/schedules/train_x_first/blue_star_00/bottom_left/instructions/Audio12.wav,168.988178300031,168.97736336006784,12,"[4.162787300010677, 18.273090600036085, 16.985286599956453, 19.705787499959115, 4.836871500010602, 5.002451199979987, 5.545152299979236, 11.763967800012324, 6.134689400030766, 7.451260000001639, 10.355142300017178, 12.547176200023387]","[4.162794300005771, 18.27309700002661, 16.985293599951547, 19.705794199951924, 4.836878500005696, 5.002457999973558, 0.00021159998141229153, 11.76397430000361, 0.030607499997131526, 7.451267399999779, 10.355148700007703, 12.547183400020003]",0,,,,,,,,,,,,,,,,,,,,,,,,,,,,,,,,,,,,,,,,,,,,,,,,,,,,,,,,,,,,,,,,,,,,,,,,,,,,,,,,,,,,,,,,,,,,,,,,,,,,,,,,,,,,,,,,,,,,,,,,,,,,UH55MW,train_x,blue_star,bottom_left,2024-12-16_17h32.21.613,HideSeek_v1,2022.2.5,59.980554288900876,
1,4,0,9,0,5,0,11,2,instr_dim1_1,,,,,,0,0,0,0,,,,,0,0,0,0,,,,,,,,,,,,,,,,,,,,,,,,,,,,,,,,,,,,,stimuli/alien_stimuli/11.png,conditions/schedules/train_x_first/blue_star_00/bottom_left/inputInstr_1.xlsx,stimuli/alien_stimuli/11.png,181.68698450003285,181.68698450003285,181.68698450003285,181.68698450003285,181.68780370004242,return,10.060916899994481,"[-0.16, -0.08, 0, 0.08, 0.16, 0.24, 0.32, 0.4, 0.48, 0.56]","[-0.4, -0.32, -0.24, -0.16, -0.08, 0, 0.08, 0.16, 0.24, 0.32]",0,0,9,4,0.0,0.4,191.92395780002698,191.92395780002698,191.92395780002698,191.92395780002698,191.92395780002698,191.92395780002698,191.92395780002698,191.91290584001692,20.267783100018278,return,20.105326600023545,stimuli/alien_stimuli/11.png,11,4,1,,,,,,,,,,,,,,,,,,,,,,,,,,,,,,,,,,,,,,,,,,,,,,,,,,,,,,,,,,,,,,,,,,,,,,,,,,,,,,,,,,,,,,,,,UH55MW,train_x,blue_star,bottom_left,2024-12-16_17h32.21.613,HideSeek_v1,2022.2.5,59.980554288900876,
,,,,,,,,,,,30,,,,0,0,0,0,,,,,,,,,,,,,,,,,,,,,,,,,,,,,,,,,,,,,,,,,,,,,,,,,,,,,,,,,,,,,,,,,,,,,,,,,,,,,,21,0.7,0,0,99,1,30,0,conditions/schedules/train_x_first/blue_star_00/bottom_left/inputTrain_1.1.xlsx,99,1,1,1,0,,,,,,,,,,,,,,,,,,,,,,,,,,,,,,,,,,,,,,,,,,,,,,,,,,,,,,,,,,,,,,,,,,,,,,,,,,,UH55MW,train_x,blue_star,bottom_left,2024-12-16_17h32.21.613,HideSeek_v1,2022.2.5,59.980554288900876,
,,,,,,,,,,,,,,,1,0,1,0,0,0,0,0,,,,,,,,,,,,,,,,,,,,,,,,,,,,,,,conditions/schedules/train_x_first/blue_star_00/bottom_left/instructions/Slide13.png,conditions/schedules/train_x_first/blue_star_00/bottom_left/instructions/Audio13.wav,212.28868720005266,212.27977050002664,13,"[4.162787300010677, 18.273090600036085, 16.985286599956453, 19.705787499959115, 4.836871500010602, 5.002451199979987, 5.545152299979236, 11.763967800012324, 6.134689400030766, 7.451260000001639, 10.355142300017178, 12.547176200023387, 20.37279310001759]","[4.162794300005771, 18.27309700002661, 16.985293599951547, 19.705794199951924, 4.836878500005696, 5.002457999973558, 0.00021159998141229153, 11.76397430000361, 0.030607499997131526, 7.451267399999779, 10.355148700007703, 12.547183400020003, 20.372800900018774]",0,,,,,,,,,,,,,,,,,,,,,,,,,,,,,,,,,,,,,,,,,,,,,,,,,,,,,,,,,,,,,,,,,,,,,,,,,,,,,,,,,,,,,,,,,,,,,,,,,,,,,,,,,,,,,,,,,,,,,,,,,,,,UH55MW,train_x,blue_star,bottom_left,2024-12-16_17h32.21.613,HideSeek_v1,2022.2.5,59.980554288900876,
,,,,,,,,,,,,,,,1,0,1,0,1,0,1,0,,,,,,,,,,,,,,,,,,,,,,,,,,,,,,,conditions/schedules/train_x_first/blue_star_00/bottom_left/instructions/Slide14.png,conditions/schedules/train_x_first/blue_star_00/bottom_left/instructions/Audio14.wav,232.7956256000325,232.79713794005804,14,"[4.162787300010677, 18.273090600036085, 16.985286599956453, 19.705787499959115, 4.836871500010602, 5.002451199979987, 5.545152299979236, 11.763967800012324, 6.134689400030766, 7.451260000001639, 10.355142300017178, 12.547176200023387, 20.37279310001759, 13.343900199979544]","[4.162794300005771, 18.27309700002661, 16.985293599951547, 19.705794199951924, 4.836878500005696, 5.002457999973558, 0.00021159998141229153, 11.76397430000361, 0.030607499997131526, 7.451267399999779, 10.355148700007703, 12.547183400020003, 20.372800900018774, 13.3439068000298]",0,,,,,,,,,,,,,,,,,,,,,,,,,,,,,,,,,,,,,,,,,,,,,,,,,,,,,,,,,,,,,,,,,,,,,,,,,,,,,,,,,,,,,,,,,,,,,,,,,,,,,,,,,,,,,,,,,,,,,,,,,,,,UH55MW,train_x,blue_star,bottom_left,2024-12-16_17h32.21.613,HideSeek_v1,2022.2.5,59.980554288900876,
2,3,2,3,2,0,0,61,2,instr_dim1_1,,,,,,1,0,1,0,,,,,0,0,0,0,,,,,,,,,,,,,,,,,,,,,,,,,,,,,,,,,,,,,stimuli/alien_stimuli/61.png,conditions/schedules/train_x_first/blue_star_00/bottom_left/inputInstr_1.xlsx,stimuli/alien_stimuli/61.png,246.26429160003318,246.26429160003318,246.26429160003318,246.26429160003318,246.2583891800372,return,7.04886500001885,"[-0.16, -0.08, 0, 0.08, 0.16, 0.24, 0.32, 0.4, 0.48, 0.56]","[-0.4, -0.32, -0.24, -0.16, -0.08, 0, 0.08, 0.16, 0.24, 0.32]",2,2,3,3,0.0,0.0,253.4793632000219,253.4793632000219,253.4793632000219,253.4793632000219,253.4793632000219,253.4793632000219,253.4793632000219,253.4640237400192,7.623709500010591,return,7.448419800028205,stimuli/alien_stimuli/61.png,61,3,2,,,,,,,,,,,,,,,,,,,,,,,,,,,,,,,,,,,,,,,,,,,,,,,,,,,,,,,,,,,,,,,,,,,,,,,,,,,,,,,,,,,,,,,,,UH55MW,train_x,blue_star,bottom_left,2024-12-16_17h32.21.613,HideSeek_v1,2022.2.5,59.980554288900876,
,,,,,,,,,,,30,,,,1,0,1,0,,,,,,,,,,,,,,,,,,,,,,,,,,,,,,,,,,,,,,,,,,,,,,,,,,,,,,,,,,,,,,,,,,,,,,,,,,,,,,21,0.7,0,0,99,1,30,0,conditions/schedules/train_x_first/blue_star_00/bottom_left/inputTrain_1.1.xlsx,99,1,1,1,0,,,,,,,,,,,,,,,,,,,,,,,,,,,,,,,,,,,,,,,,,,,,,,,,,,,,,,,,,,,,,,,,,,,,,,,,,,,UH55MW,train_x,blue_star,bottom_left,2024-12-16_17h32.21.613,HideSeek_v1,2022.2.5,59.980554288900876,
,,,,,,,,,,,,,,,2,0,2,0,0,0,0,0,,,,,,,,,,,,,,,,,,,,,,,,,,,,,,,conditions/schedules/train_x_first/blue_star_00/bottom_left/instructions/Slide15.png,conditions/schedules/train_x_first/blue_star_00/bottom_left/instructions/Audio15.wav,261.2174794000457,261.20367646003143,15,"[4.162787300010677, 18.273090600036085, 16.985286599956453, 19.705787499959115, 4.836871500010602, 5.002451199979987, 5.545152299979236, 11.763967800012324, 6.134689400030766, 7.451260000001639, 10.355142300017178, 12.547176200023387, 20.37279310001759, 13.343900199979544, 30.19334830000298]","[4.162794300005771, 18.27309700002661, 16.985293599951547, 19.705794199951924, 4.836878500005696, 5.002457999973558, 0.00021159998141229153, 11.76397430000361, 0.030607499997131526, 7.451267399999779, 10.355148700007703, 12.547183400020003, 20.372800900018774, 13.3439068000298, 30.193356000003405]",0,,,,,,,,,,,,,,,,,,,,,,,,,,,,,,,,,,,,,,,,,,,,,,,,,,,,,,,,,,,,,,,,,,,,,,,,,,,,,,,,,,,,,,,,,,,,,,,,,,,,,,,,,,,,,,,,,,,,,,,,,,,,UH55MW,train_x,blue_star,bottom_left,2024-12-16_17h32.21.613,HideSeek_v1,2022.2.5,59.980554288900876,
,,,,,,,,,,,,,,,2,0,2,0,1,0,1,0,,,,,,,,,,,,,,,,,,,,,,,,,,,,,,,conditions/schedules/train_x_first/blue_star_00/bottom_left/instructions/Slide16.png,conditions/schedules/train_x_first/blue_star_00/bottom_left/instructions/Audio16.wav,291.58971480000764,291.57998556004605,16,"[4.162787300010677, 18.273090600036085, 16.985286599956453, 19.705787499959115, 4.836871500010602, 5.002451199979987, 5.545152299979236, 11.763967800012324, 6.134689400030766, 7.451260000001639, 10.355142300017178, 12.547176200023387, 20.37279310001759, 13.343900199979544, 30.19334830000298, 22.22216160001699]","[4.162794300005771, 18.27309700002661, 16.985293599951547, 19.705794199951924, 4.836878500005696, 5.002457999973558, 0.00021159998141229153, 11.76397430000361, 0.030607499997131526, 7.451267399999779, 10.355148700007703, 12.547183400020003, 20.372800900018774, 13.3439068000298, 30.193356000003405, 22.222168200009037]",0,,,,,,,,,,,,,,,,,,,,,,,,,,,,,,,,,,,,,,,,,,,,,,,,,,,,,,,,,,,,,,,,,,,,,,,,,,,,,,,,,,,,,,,,,,,,,,,,,,,,,,,,,,,,,,,,,,,,,,,,,,,,UH55MW,train_x,blue_star,bottom_left,2024-12-16_17h32.21.613,HideSeek_v1,2022.2.5,59.980554288900876,
,2,1,5,1,3,0,31,,train_dim1_1,1,30,,,,2,0,2,0,,,,,,,,,0,0,0,0,0,0,0,0,0,0,0,0,,,,,,,,,,,,,,,,,,,,,,,,,stimuli/alien_stimuli/31.png,,,,,,,,,,,,,,,,,,,,,,,,,,,,,,,,,,,,,,,30,,,,,,,,313.94645050005056,313.94645050005056,313.94645050005056,313.94645050005056,313.94645050005056,right,26.456302599981427,0,0,0,99,0.08,-0.32,right,26.33072969998466,,,,,,,,,,,,,,,,,,,,,,,,,,,,,,,,,,,,,,,,,,,,,,,,,,,,,,,,,,,,UH55MW,train_x,blue_star,bottom_left,2024-12-16_17h32.21.613,HideSeek_v1,2022.2.5,59.980554288900876,
,2,1,5,1,3,0,31,,train_dim1_1,1,30,,,,2,0,2,0,,,,,,,,,0,0,0,0,0,0,0,0,1,0,1,0,,,,,,,,,,,,,,,,,,,,,,,,,,,,,,,,,,,,,,,,,,,,,,,,,,,,,,,,,,,,,,,,30,,,,,,,,340.4024328000378,340.4024328000378,340.4024328000378,340.4024328000378,340.4024328000378,right,0.9598486999748275,0,0,0,99,0.16,-0.32,right,0.8474113999982364,,,,,,,,,,,,,,,,,,,,,,,,,,,,,,,,,,,,,,,,,,,,,,,,,,,,,,,,,,,,UH55MW,train_x,blue_star,bottom_left,2024-12-16_17h32.21.613,HideSeek_v1,2022.2.5,59.980554288900876,
,2,1,5,1,3,0,31,,train_dim1_1,1,30,,,,2,0,2,0,,,,,,,,,0,0,0,0,0,0,0,0,2,0,2,0,,,,,,,,,,,,,,,,,,,,,,,,,,,,,,,,,,,,,,,,,,,,,,,,,,,,,,,,,,,,,,,,30,,,,,,,,341.3373147000093,341.3373147000093,341.3373147000093,341.3373147000093,341.3373147000093,right,2.9617765999864787,0,0,0,99,0.24,-0.32,right,2.885343300004024,,,,,,,,,,,,,,,,,,,,,,,,,,,,,,,,,,,,,,,,,,,,,,,,,,,,,,,,,,,,UH55MW,train_x,blue_star,bottom_left,2024-12-16_17h32.21.613,HideSeek_v1,2022.2.5,59.980554288900876,
,2,1,5,1,3,0,31,,train_dim1_1,1,30,,,,2,0,2,0,,,,,,,,,0,0,0,0,0,0,0,0,3,0,3,0,,,,,,,,,,,,,,,,,,,,,,,,,,,,,,,,,,,,,,,,,,,,,,,,,,,,,,,,,,,,,,,,30,,,,,,,,344.3065671000513,344.3065671000513,344.3065671000513,344.3065671000513,344.3065671000513,return,1.1600812000106089,1,0,0,1,0.24,-0.32,return,1.0691108999890275,0,3,0.24,-0.32,,,,,,,,,,,,,,,,,,,,,,,,,,,,,,,,,,,,,,,,,,,,,,,,,,,,,,,,UH55MW,train_x,blue_star,bottom_left,2024-12-16_17h32.21.613,HideSeek_v1,2022.2.5,59.980554288900876,
,2,4,7,4,5,0,11,,train_dim1_1,2,30,,,,2,0,2,0,,,,,,,,,0,0,0,0,0,1,1,1,0,0,0,0,,,,,,,,,,,,,,,,,,,,,,,,,stimuli/alien_stimuli/11.png,,,,,,,,,,,,,,,,,,,,,,,,,,,,,stimuli/alien_stimuli/31.png,31,2,3,,,,,,,30,,,,,,,,358.8100142000476,358.8100142000476,358.8100142000476,358.8100142000476,358.8100142000476,right,22.889519200020004,1,0,0,99,0.08,-0.08,right,22.506163500016555,,,,,356.95029830001295,358.8100142000476,0.24,-0.32,0.0,0.24,-0.32,0.24,0.12,0.24,-0.32,347.0736410000245,347.0736410000245,347.0736410000245,347.0736410000245,347.0736410000245,347.0736410000245,347.0736410000245,347.0736410000245,347.0586729400558,10.027206900005694,return,9.852432899991982,,,,,,,,,,,,,,,,,,,,,,,,,,,,,,,,,UH55MW,train_x,blue_star,bottom_left,2024-12-16_17h32.21.613,HideSeek_v1,2022.2.5,59.980554288900876,
,2,4,7,4,5,0,11,,train_dim1_1,2,30,,,,2,0,2,0,,,,,,,,,0,0,0,0,0,1,1,1,1,0,1,0,,,,,,,,,,,,,,,,,,,,,,,,,,,,,,,,,,,,,,,,,,,,,,,,,,,,,,,,,,,,,,,,30,,,,,,,,381.42548100004205,381.42548100004205,381.42548100004205,381.42548100004205,381.42548100004205,right,0.8266226999694481,1,0,0,99,0.16,-0.08,right,0.7245340999797918,,,,,,,,,,,,,,,,,,,,,,,,,,,,,,,,,,,,,,,,,,,,,,,,,,,,,,,,,,,,UH55MW,train_x,blue_star,bottom_left,2024-12-16_17h32.21.613,HideSeek_v1,2022.2.5,59.980554288900876,
,2,4,7,4,5,0,11,,train_dim1_1,2,30,,,,2,0,2,0,,,,,,,,,0,0,0,0,0,1,1,1,2,0,2,0,,,,,,,,,,,,,,,,,,,,,,,,,,,,,,,,,,,,,,,,,,,,,,,,,,,,,,,,,,,,,,,,30,,,,,,,,382.24268850003136,382.24268850003136,382.24268850003136,382.24268850003136,382.24268850003136,right,0.8264908999553882,1,0,0,99,0.24,-0.08,right,0.7455130000016652,,,,,,,,,,,,,,,,,,,,,,,,,,,,,,,,,,,,,,,,,,,,,,,,,,,,,,,,,,,,UH55MW,train_x,blue_star,bottom_left,2024-12-16_17h32.21.613,HideSeek_v1,2022.2.5,59.980554288900876,
,2,4,7,4,5,0,11,,train_dim1_1,2,30,,,,2,0,2,0,,,,,,,,,0,0,0,0,0,1,1,1,3,0,3,0,,,,,,,,,,,,,,,,,,,,,,,,,,,,,,,,,,,,,,,,,,,,,,,,,,,,,,,,,,,,,,,,30,,,,,,,,383.0746042000246,383.0746042000246,383.0746042000246,383.0746042000246,383.0746042000246,return,1.110429499996826,1,0,0,0,0.24,-0.08,return,1.018287600018084,0,6,0.24,-0.08,,,,,,,,,,,,,,,,,,,,,,,,,,,,,,,,,,,,,,,,,,,,,,,,,,,,,,,,UH55MW,train_x,blue_star,bottom_left,2024-12-16_17h32.21.613,HideSeek_v1,2022.2.5,59.980554288900876,
,4,4,8,4,4,0,21,,train_dim1_1,3,30,,,,2,0,2,0,,,,,,,,,0,0,0,0,0,2,2,2,0,0,0,0,,,,,,,,,,,,,,,,,,,,,,,,,stimuli/alien_stimuli/21.png,,,,,,,,,,,,,,,,,,,,,,,,,,,,,stimuli/alien_stimuli/11.png,11,2,4,,,,,,,30,,,,,,,,401.28473600000143,401.28473600000143,401.28473600000143,401.28473600000143,401.28473600000143,left,4.892703199991956,1,0,0,99,0.08,-0.08,left,4.773578799969982,,,,,399.68566830002237,401.28473600000143,0.4,-0.08,0.0,0.4,-0.08,0.4,0.2,0.4,-0.08,385.83218740002485,385.83218740002485,385.83218740002485,385.83218740002485,385.83218740002485,385.83218740002485,385.83218740002485,385.83218740002485,385.8083579600323,14.045875200012233,return,13.82857899996452,,,,,,,,,,,,,,,,,,,,,,,,,,,,,,,,,UH55MW,train_x,blue_star,bottom_left,2024-12-16_17h32.21.613,HideSeek_v1,2022.2.5,59.980554288900876,
,4,4,8,4,4,0,21,,train_dim1_1,3,30,,,,2,0,2,0,,,,,,,,,0,0,0,0,0,2,2,2,1,0,1,0,,,,,,,,,,,,,,,,,,,,,,,,,,,,,,,,,,,,,,,,,,,,,,,,,,,,,,,,,,,,,,,,30,,,,,,,,406.14563410001574,406.14563410001574,406.14563410001574,406.14563410001574,406.14563410001574,left,0.7757953000254929,1,0,0,99,0.0,-0.08,left,0.6916381000191905,,,,,,,,,,,,,,,,,,,,,,,,,,,,,,,,,,,,,,,,,,,,,,,,,,,,,,,,,,,,UH55MW,train_x,blue_star,bottom_left,2024-12-16_17h32.21.613,HideSeek_v1,2022.2.5,59.980554288900876,
,4,4,8,4,4,0,21,,train_dim1_1,3,30,,,,2,0,2,0,,,,,,,,,0,0,0,0,0,2,2,2,2,0,2,0,,,,,,,,,,,,,,,,,,,,,,,,,,,,,,,,,,,,,,,,,,,,,,,,,,,,,,,,,,,,,,,,30,,,,,,,,406.92834969999967,406.92834969999967,406.92834969999967,406.92834969999967,406.92834969999967,left,1.9612322000321,1,0,0,99,-0.08,-0.08,left,1.8810058999806643,,,,,,,,,,,,,,,,,,,,,,,,,,,,,,,,,,,,,,,,,,,,,,,,,,,,,,,,,,,,UH55MW,train_x,blue_star,bottom_left,2024-12-16_17h32.21.613,HideSeek_v1,2022.2.5,59.980554288900876,
,4,4,8,4,4,0,21,,train_dim1_1,3,30,,,,2,0,2,0,,,,,,,,,0,0,0,0,0,2,2,2,3,0,3,0,,,,,,,,,,,,,,,,,,,,,,,,,,,,,,,,,,,,,,,,,,,,,,,,,,,,,,,,,,,,,,,,30,,,,,,,,408.898033400008,408.898033400008,408.898033400008,408.898033400008,408.898033400008,return,1.0604079000186175,1,0,0,0,-0.08,-0.08,return,0.972173800051678,0,3,-0.08,-0.08,,,,,,,,,,,,,,,,,,,,,,,,,,,,,,,,,,,,,,,,,,,,,,,,,,,,,,,,UH55MW,train_x,blue_star,bottom_left,2024-12-16_17h32.21.613,HideSeek_v1,2022.2.5,59.980554288900876,
,2,3,3,3,1,0,51,,train_dim1_1,4,30,,,,2,0,2,0,,,,,,,,,0,0,0,0,0,3,3,3,0,0,0,0,,,,,,,,,,,,,,,,,,,,,,,,,stimuli/alien_stimuli/51.png,,,,,,,,,,,,,,,,,,,,,,,,,,,,,stimuli/alien_stimuli/21.png,21,4,5,,,,,,,30,,,,,,,,420.7454583000508,420.7454583000508,420.7454583000508,420.7454583000508,420.7454583000508,return,8.411152600019705,1,1,0,0,0,-0.16,return,8.288310199975967,0,3,0,-0.16,419.1517862000037,420.7454583000508,0.48,-0.08,0.0,0.32,-0.08,0.48,0.32,0.48,-0.08,411.55646430002525,411.55646430002525,411.55646430002525,411.55646430002525,411.55646430002525,411.55646430002525,411.55646430002525,411.55646430002525,411.5455416400684,7.741969999973662,return,7.569594600005075,,,,,,,,,,,,,,,,,,,,,,,,,,,,,,,,,UH55MW,train_x,blue_star,bottom_left,2024-12-16_17h32.21.613,HideSeek_v1,2022.2.5,59.980554288900876,
,0,2,0,2,0,0,61,,train_dim1_1,5,30,,,,2,0,2,0,,,,,,,,,0,0,0,0,0,4,4,4,0,0,0,0,,,,,,,,,,,,,,,,,,,,,,,,,stimuli/alien_stimuli/61.png,,,,,,,,,,,,,,,,,,,,,,,,,,,,,stimuli/alien_stimuli/51.png,51,2,6,,,,,,,30,,,,,,,,450.59703160001663,450.59703160001663,450.59703160001663,450.59703160001663,450.59703160001663,right,11.56502239999827,1,1,0,99,-0.08,-0.24,right,11.413667400018312,,,,,448.9769162000157,450.59703160001663,0.08,-0.16,0.0,0.08,-0.16,0.08,0.04,0.08,-0.16,430.74741240002913,430.74741240002913,430.74741240002913,430.74741240002913,430.74741240002913,430.74741240002913,430.74741240002913,430.74741240002913,430.7280021000188,18.401242099993397,return,18.20516879996285,,,,,,,,,,,,,,,,,,,,,,,,,,,,,,,,,UH55MW,train_x,blue_star,bottom_left,2024-12-16_17h32.21.613,HideSeek_v1,2022.2.5,59.980554288900876,
,0,2,0,2,0,0,61,,train_dim1_1,5,30,,,,2,0,2,0,,,,,,,,,0,0,0,0,0,4,4,4,1,0,1,0,,,,,,,,,,,,,,,,,,,,,,,,,,,,,,,,,,,,,,,,,,,,,,,,,,,,,,,,,,,,,,,,30,,,,,,,,462.11085350002395,462.11085350002395,462.11085350002395,462.11085350002395,462.11085350002395,right,0.6601049000164494,1,1,0,99,0.0,-0.24,right,0.5652364999987185,,,,,,,,,,,,,,,,,,,,,,,,,,,,,,,,,,,,,,,,,,,,,,,,,,,,,,,,,,,,UH55MW,train_x,blue_star,bottom_left,2024-12-16_17h32.21.613,HideSeek_v1,2022.2.5,59.980554288900876,
,0,2,0,2,0,0,61,,train_dim1_1,5,30,,,,2,0,2,0,,,,,,,,,0,0,0,0,0,4,4,4,2,0,2,0,,,,,,,,,,,,,,,,,,,,,,,,,,,,,,,,,,,,,,,,,,,,,,,,,,,,,,,,,,,,,,,,30,,,,,,,,462.77101310004946,462.77101310004946,462.77101310004946,462.77101310004946,462.77101310004946,right,0.8097618999890983,1,1,0,99,0.08,-0.24,right,0.7229999999981374,,,,,,,,,,,,,,,,,,,,,,,,,,,,,,,,,,,,,,,,,,,,,,,,,,,,,,,,,,,,UH55MW,train_x,blue_star,bottom_left,2024-12-16_17h32.21.613,HideSeek_v1,2022.2.5,59.980554288900876,
,0,2,0,2,0,0,61,,train_dim1_1,5,30,,,,2,0,2,0,,,,,,,,,0,0,0,0,0,4,4,4,3,0,3,0,,,,,,,,,,,,,,,,,,,,,,,,,,,,,,,,,,,,,,,,,,,,,,,,,,,,,,,,,,,,,,,,30,,,,,,,,463.5891074000392,463.5891074000392,463.5891074000392,463.5891074000392,463.5891074000392,right,2.1611302999663167,1,1,0,99,0.16,-0.24,right,2.0839779999805614,,,,,,,,,,,,,,,,,,,,,,,,,,,,,,,,,,,,,,,,,,,,,,,,,,,,,,,,,,,,UH55MW,train_x,blue_star,bottom_left,2024-12-16_17h32.21.613,HideSeek_v1,2022.2.5,59.980554288900876,
,0,2,0,2,0,0,61,,train_dim1_1,5,30,,,,2,0,2,0,,,,,,,,,0,0,0,0,0,4,4,4,4,0,4,0,,,,,,,,,,,,,,,,,,,,,,,,,,,,,,,,,,,,,,,,,,,,,,,,,,,,,,,,,,,,,,,,30,,,,,,,,465.7565853000269,465.7565853000269,465.7565853000269,465.7565853000269,465.7565853000269,right,0.5268024000106379,1,1,0,99,0.24,-0.24,right,0.4517344000050798,,,,,,,,,,,,,,,,,,,,,,,,,,,,,,,,,,,,,,,,,,,,,,,,,,,,,,,,,,,,UH55MW,train_x,blue_star,bottom_left,2024-12-16_17h32.21.613,HideSeek_v1,2022.2.5,59.980554288900876,
,0,2,0,2,0,0,61,,train_dim1_1,5,30,,,,2,0,2,0,,,,,,,,,0,0,0,0,0,4,4,4,5,0,5,0,,,,,,,,,,,,,,,,,,,,,,,,,,,,,,,,,,,,,,,,,,,,,,,,,,,,,,,,,,,,,,,,30,,,,,,,,466.2903719000169,466.2903719000169,466.2903719000169,466.2903719000169,466.2903719000169,return,0.9100535999750718,1,0,0,0,0.24,-0.24,return,0.8266291000181809,0,8,0.24,-0.24,,,,,,,,,,,,,,,,,,,,,,,,,,,,,,,,,,,,,,,,,,,,,,,,,,,,,,,,UH55MW,train_x,blue_star,bottom_left,2024-12-16_17h32.21.613,HideSeek_v1,2022.2.5,59.980554288900876,
,0,0,4,0,4,0,21,,train_dim1_1,6,30,,,,2,0,2,0,,,,,,,,,0,0,0,0,0,5,5,5,0,0,0,0,,,,,,,,,,,,,,,,,,,,,,,,,stimuli/alien_stimuli/21.png,,,,,,,,,,,,,,,,,,,,,,,,,,,,,stimuli/alien_stimuli/61.png,61,0,7,,,,,,,30,,,,,,,,484.04977520002285,484.04977520002285,484.04977520002285,484.04977520002285,484.04977520002285,right,6.977589000016451,1,0,0,99,-0.08,-0.4,right,6.870883199968375,,,,,482.47124040004564,484.04977520002285,-0.16,-0.24,0.0,0.0,-0.24,-0.16,-0.16,-0.16,-0.24,468.7986222000327,468.7986222000327,468.7986222000327,468.7986222000327,468.7986222000327,468.7986222000327,468.7986222000327,468.7986222000327,468.7927634400432,13.81428180000512,return,13.654325999959838,,,,,,,,,,,,,,,,,,,,,,,,,,,,,,,,,UH55MW,train_x,blue_star,bottom_left,2024-12-16_17h32.21.613,HideSeek_v1,2022.2.5,59.980554288900876,
,0,0,4,0,4,0,21,,train_dim1_1,6,30,,,,2,0,2,0,,,,,,,,,0,0,0,0,0,5,5,5,1,0,1,0,,,,,,,,,,,,,,,,,,,,,,,,,,,,,,,,,,,,,,,,,,,,,,,,,,,,,,,,,,,,,,,,30,,,,,,,,491.01646060001804,491.01646060001804,491.01646060001804,491.01646060001804,491.01646060001804,return,0.7426635000156239,1,0,0,0,-0.08,-0.4,return,0.6583204000489786,0,9,-0.08,-0.4,,,,,,,,,,,,,,,,,,,,,,,,,,,,,,,,,,,,,,,,,,,,,,,,,,,,,,,,UH55MW,train_x,blue_star,bottom_left,2024-12-16_17h32.21.613,HideSeek_v1,2022.2.5,59.980554288900876,
,3,0,3,0,0,0,61,,train_dim1_1,7,30,,,,2,0,2,0,,,,,,,,,0,0,0,0,0,6,6,6,0,0,0,0,,,,,,,,,,,,,,,,,,,,,,,,,stimuli/alien_stimuli/61.png,,,,,,,,,,,,,,,,,,,,,,,,,,,,,stimuli/alien_stimuli/21.png,21,0,8,,,,,,,30,,,,,,,,501.56667130003916,501.56667130003916,501.56667130003916,501.56667130003916,501.56667130003916,left,10.513826599984895,1,0,0,99,0.0,-0.4,left,10.403544300002977,,,,,499.98603330005426,501.56667130003916,0.16,-0.4,0.0,0.32,-0.4,0.16,0.0,0.16,-0.4,493.33560780005064,493.33560780005064,493.33560780005064,493.33560780005064,493.33560780005064,493.33560780005064,493.33560780005064,493.33560780005064,493.31362652000973,6.774245399981737,return,6.63316989998566,,,,,,,,,,,,,,,,,,,,,,,,,,,,,,,,,UH55MW,train_x,blue_star,bottom_left,2024-12-16_17h32.21.613,HideSeek_v1,2022.2.5,59.980554288900876,
,3,0,3,0,0,0,61,,train_dim1_1,7,30,,,,2,0,2,0,,,,,,,,,0,0,0,0,0,6,6,6,1,0,1,0,,,,,,,,,,,,,,,,,,,,,,,,,,,,,,,,,,,,,,,,,,,,,,,,,,,,,,,,,,,,,,,,30,,,,,,,,512.0723676000489,512.0723676000489,512.0723676000489,512.0723676000489,512.0723676000489,left,0.7263141999719664,1,0,0,99,-0.08,-0.4,left,0.6407388999941759,,,,,,,,,,,,,,,,,,,,,,,,,,,,,,,,,,,,,,,,,,,,,,,,,,,,,,,,,,,,UH55MW,train_x,blue_star,bottom_left,2024-12-16_17h32.21.613,HideSeek_v1,2022.2.5,59.980554288900876,
,3,0,3,0,0,0,61,,train_dim1_1,7,30,,,,2,0,2,0,,,,,,,,,0,0,0,0,0,6,6,6,2,0,2,0,,,,,,,,,,,,,,,,,,,,,,,,,,,,,,,,,,,,,,,,,,,,,,,,,,,,,,,,,,,,,,,,30,,,,,,,,512.7967671000515,512.7967671000515,512.7967671000515,512.7967671000515,512.7967671000515,return,0.8932397000025958,1,0,0,0,-0.08,-0.4,return,0.8037914999877103,0,7,-0.08,-0.4,,,,,,,,,,,,,,,,,,,,,,,,,,,,,,,,,,,,,,,,,,,,,,,,,,,,,,,,UH55MW,train_x,blue_star,bottom_left,2024-12-16_17h32.21.613,HideSeek_v1,2022.2.5,59.980554288900876,
,0,4,3,4,3,0,31,,train_dim1_1,8,30,,,,2,0,2,0,,,,,,,,,0,0,0,0,0,7,7,7,0,0,0,0,,,,,,,,,,,,,,,,,,,,,,,,,stimuli/alien_stimuli/31.png,,,,,,,,,,,,,,,,,,,,,,,,,,,,,stimuli/alien_stimuli/61.png,61,3,9,,,,,,,30,,,,,,,,522.2406075000181,522.2406075000181,522.2406075000181,522.2406075000181,522.2406075000181,right,7.127471399959177,1,0,0,99,-0.08,-0.08,right,7.025905699993018,,,,,520.6697299000225,522.2406075000181,0.08,-0.4,0.0,0.0,-0.4,0.08,0.08,0.08,-0.4,515.2781615999993,515.2781615999993,515.2781615999993,515.2781615999993,515.2781615999993,515.2781615999993,515.2781615999993,515.2781615999993,515.2650352800614,5.523551599995699,return,5.363799899991136,,,,,,,,,,,,,,,,,,,,,,,,,,,,,,,,,UH55MW,train_x,blue_star,bottom_left,2024-12-16_17h32.21.613,HideSeek_v1,2022.2.5,59.980554288900876,
,0,4,3,4,3,0,31,,train_dim1_1,8,30,,,,2,0,2,0,,,,,,,,,0,0,0,0,0,7,7,7,1,0,1,0,,,,,,,,,,,,,,,,,,,,,,,,,,,,,,,,,,,,,,,,,,,,,,,,,,,,,,,,,,,,,,,,30,,,,,,,,529.360830700025,529.360830700025,529.360830700025,529.360830700025,529.360830700025,right,0.7929058999870904,1,0,0,99,0.0,-0.08,right,0.7033611999941058,,,,,,,,,,,,,,,,,,,,,,,,,,,,,,,,,,,,,,,,,,,,,,,,,,,,,,,,,,,,UH55MW,train_x,blue_star,bottom_left,2024-12-16_17h32.21.613,HideSeek_v1,2022.2.5,59.980554288900876,
,0,4,3,4,3,0,31,,train_dim1_1,8,30,,,,2,0,2,0,,,,,,,,,0,0,0,0,0,7,7,7,2,0,2,0,,,,,,,,,,,,,,,,,,,,,,,,,,,,,,,,,,,,,,,,,,,,,,,,,,,,,,,,,,,,,,,,30,,,,,,,,530.1609723000438,530.1609723000438,530.1609723000438,530.1609723000438,530.1609723000438,return,1.844408500008285,1,1,0,0,0.0,-0.08,return,1.7594075000379235,0,9,0.0,-0.08,,,,,,,,,,,,,,,,,,,,,,,,,,,,,,,,,,,,,,,,,,,,,,,,,,,,,,,,UH55MW,train_x,blue_star,bottom_left,2024-12-16_17h32.21.613,HideSeek_v1,2022.2.5,59.980554288900876,
,1,0,2,0,1,0,51,,train_dim1_1,9,30,,,,2,0,2,0,,,,,,,,,0,0,0,0,0,8,8,8,0,0,0,0,,,,,,,,,,,,,,,,,,,,,,,,,stimuli/alien_stimuli/51.png,,,,,,,,,,,,,,,,,,,,,,,,,,,,,stimuli/alien_stimuli/31.png,31,0,10,,,,,,,30,,,,,,,,541.6349159000092,541.6349159000092,541.6349159000092,541.6349159000092,541.6349159000092,return,3.1751218999852426,1,1,0,0,-0.08,-0.4,return,3.0691603000159375,0,9,-0.08,-0.4,540.0525235000532,541.6349159000092,0.08,-0.08,0.0,0.24,-0.08,0.08,-0.04,0.08,-0.08,533.5839980000164,533.5839980000164,533.5839980000164,533.5839980000164,533.5839980000164,533.5839980000164,533.5839980000164,533.5839980000164,533.563546820043,6.591311500000302,return,6.441436499997508,,,,,,,,,,,,,,,,,,,,,,,,,,,,,,,,,UH55MW,train_x,blue_star,bottom_left,2024-12-16_17h32.21.613,HideSeek_v1,2022.2.5,59.980554288900876,
,0,3,5,3,5,0,11,,train_dim1_1,10,30,,,,2,0,2,0,,,,,,,,,0,0,0,0,0,9,9,9,0,0,0,0,,,,,,,,,,,,,,,,,,,,,,,,,stimuli/alien_stimuli/11.png,,,,,,,,,,,,,,,,,,,,,,,,,,,,,stimuli/alien_stimuli/51.png,51,1,11,,,,,,,30,,,,,,,,551.7405163000221,551.7405163000221,551.7405163000221,551.7405163000221,551.7405163000221,right,5.10666669998318,1,1,0,99,-0.08,-0.16,right,5.004633799951989,,,,,550.1607837000047,551.7405163000221,0,-0.4,0.0,0.08,-0.4,0,-0.04,0,-0.4,546.367762000009,546.367762000009,546.367762000009,546.367762000009,546.367762000009,546.367762000009,546.367762000009,546.367762000009,546.357534080022,3.9221903999568895,return,3.7605832000263035,,,,,,,,,,,,,,,,,,,,,,,,,,,,,,,,,UH55MW,train_x,blue_star,bottom_left,2024-12-16_17h32.21.613,HideSeek_v1,2022.2.5,59.980554288900876,
,0,3,5,3,5,0,11,,train_dim1_1,10,30,,,,2,0,2,0,,,,,,,,,0,0,0,0,0,9,9,9,1,0,1,0,,,,,,,,,,,,,,,,,,,,,,,,,,,,,,,,,,,,,,,,,,,,,,,,,,,,,,,,,,,,,,,,30,,,,,,,,556.840801000013,556.840801000013,556.840801000013,556.840801000013,556.840801000013,right,1.3599173999973573,1,1,0,99,0.0,-0.16,right,1.2654630000470206,,,,,,,,,,,,,,,,,,,,,,,,,,,,,,,,,,,,,,,,,,,,,,,,,,,,,,,,,,,,UH55MW,train_x,blue_star,bottom_left,2024-12-16_17h32.21.613,HideSeek_v1,2022.2.5,59.980554288900876,
,0,3,5,3,5,0,11,,train_dim1_1,10,30,,,,2,0,2,0,,,,,,,,,0,0,0,0,0,9,9,9,2,0,2,0,,,,,,,,,,,,,,,,,,,,,,,,,,,,,,,,,,,,,,,,,,,,,,,,,,,,,,,,,,,,,,,,30,,,,,,,,558.2046224000514,558.2046224000514,558.2046224000514,558.2046224000514,558.2046224000514,right,0.4430832000216469,1,1,0,99,0.08,-0.16,right,0.3627517999848351,,,,,,,,,,,,,,,,,,,,,,,,,,,,,,,,,,,,,,,,,,,,,,,,,,,,,,,,,,,,UH55MW,train_x,blue_star,bottom_left,2024-12-16_17h32.21.613,HideSeek_v1,2022.2.5,59.980554288900876,
,0,3,5,3,5,0,11,,train_dim1_1,10,30,,,,2,0,2,0,,,,,,,,,0,0,0,0,0,9,9,9,3,0,3,0,,,,,,,,,,,,,,,,,,,,,,,,,,,,,,,,,,,,,,,,,,,,,,,,,,,,,,,,,,,,,,,,30,,,,,,,,558.6548907000106,558.6548907000106,558.6548907000106,558.6548907000106,558.6548907000106,return,0.8434908000053838,1,0,0,0,0.08,-0.16,return,0.7579087000340223,0,12,0.08,-0.16,,,,,,,,,,,,,,,,,,,,,,,,,,,,,,,,,,,,,,,,,,,,,,,,,,,,,,,,UH55MW,train_x,blue_star,bottom_left,2024-12-16_17h32.21.613,HideSeek_v1,2022.2.5,59.980554288900876,
,2,2,5,2,3,0,31,,train_dim1_1,11,30,,,,2,0,2,0,,,,,,,,,0,0,0,0,0,10,10,10,0,0,0,0,,,,,,,,,,,,,,,,,,,,,,,,,stimuli/alien_stimuli/31.png,,,,,,,,,,,,,,,,,,,,,,,,,,,,,stimuli/alien_stimuli/11.png,11,0,12,,,,,,,30,,,,,,,,567.5643967000069,567.5643967000069,567.5643967000069,567.5643967000069,567.5643967000069,right,31.294602500041947,1,0,0,99,0.08,-0.24,right,31.188632100005634,,,,,565.9905396000249,567.5643967000069,0.24,-0.16,0.0,0.4,-0.16,0.24,0.039999999999999994,0.24,-0.16,561.0894562000176,561.0894562000176,561.0894562000176,561.0894562000176,561.0894562000176,561.0894562000176,561.0894562000176,561.0894562000176,561.0697305800626,5.039688799995929,return,4.874010600033216,,,,,,,,,,,,,,,,,,,,,,,,,,,,,,,,,UH55MW,train_x,blue_star,bottom_left,2024-12-16_17h32.21.613,HideSeek_v1,2022.2.5,59.980554288900876,
,2,2,5,2,3,0,31,,train_dim1_1,11,30,,,,2,0,2,0,,,,,,,,,0,0,0,0,0,10,10,10,1,0,1,0,,,,,,,,,,,,,,,,,,,,,,,,,,,,,,,,,,,,,,,,,,,,,,,,,,,,,,,,,,,,,,,,30,,,,,,,,598.8978243000456,598.8978243000456,598.8978243000456,598.8978243000456,598.8978243000456,return,0.9233573999954388,1,0,0,0,0.08,-0.24,return,0.8039254999603145,0,13,0.08,-0.24,,,,,,,,,,,,,,,,,,,,,,,,,,,,,,,,,,,,,,,,,,,,,,,,,,,,,,,,UH55MW,train_x,blue_star,bottom_left,2024-12-16_17h32.21.613,HideSeek_v1,2022.2.5,59.980554288900876,
,0,0,4,0,4,0,21,,train_dim1_1,12,30,,,,2,0,2,0,,,,,,,,,0,0,0,0,0,11,11,11,0,0,0,0,,,,,,,,,,,,,,,,,,,,,,,,,stimuli/alien_stimuli/21.png,,,,,,,,,,,,,,,,,,,,,,,,,,,,,stimuli/alien_stimuli/31.png,31,2,13,,,,,,,30,,,,,,,,611.9339258000255,611.9339258000255,611.9339258000255,611.9339258000255,611.9339258000255,right,4.041135999956168,1,0,0,99,-0.08,-0.4,right,3.9294540000264533,,,,,610.3446070000064,611.9339258000255,0.24,-0.24,0.0,0.24,-0.24,0.24,0.12,0.24,-0.24,601.3663113000221,601.3663113000221,601.3663113000221,601.3663113000221,601.3663113000221,601.3663113000221,601.3663113000221,601.3663113000221,601.3533628800418,9.1102763999952,return,8.958630899956916,,,,,,,,,,,,,,,,,,,,,,,,,,,,,,,,,UH55MW,train_x,blue_star,bottom_left,2024-12-16_17h32.21.613,HideSeek_v1,2022.2.5,59.980554288900876,
,0,0,4,0,4,0,21,,train_dim1_1,12,30,,,,2,0,2,0,,,,,,,,,0,0,0,0,0,11,11,11,1,0,1,0,,,,,,,,,,,,,,,,,,,,,,,,,,,,,,,,,,,,,,,,,,,,,,,,,,,,,,,,,,,,,,,,30,,,,,,,,615.9526976000052,615.9526976000052,615.9526976000052,615.9526976000052,615.9526976000052,right,0.8265447000158019,1,0,0,99,0.0,-0.4,right,0.7344386000186205,,,,,,,,,,,,,,,,,,,,,,,,,,,,,,,,,,,,,,,,,,,,,,,,,,,,,,,,,,,,UH55MW,train_x,blue_star,bottom_left,2024-12-16_17h32.21.613,HideSeek_v1,2022.2.5,59.980554288900876,
,0,0,4,0,4,0,21,,train_dim1_1,12,30,,,,2,0,2,0,,,,,,,,,0,0,0,0,0,11,11,11,2,0,2,0,,,,,,,,,,,,,,,,,,,,,,,,,,,,,,,,,,,,,,,,,,,,,,,,,,,,,,,,,,,,,,,,30,,,,,,,,616.7860837000189,616.7860837000189,616.7860837000189,616.7860837000189,616.7860837000189,right,1.0603325000265613,1,0,0,99,0.08,-0.4,right,0.9690973000251688,,,,,,,,,,,,,,,,,,,,,,,,,,,,,,,,,,,,,,,,,,,,,,,,,,,,,,,,,,,,UH55MW,train_x,blue_star,bottom_left,2024-12-16_17h32.21.613,HideSeek_v1,2022.2.5,59.980554288900876,
,0,0,4,0,4,0,21,,train_dim1_1,12,30,,,,2,0,2,0,,,,,,,,,0,0,0,0,0,11,11,11,3,0,3,0,,,,,,,,,,,,,,,,,,,,,,,,,,,,,,,,,,,,,,,,,,,,,,,,,,,,,,,,,,,,,,,,30,,,,,,,,617.854153500055,617.854153500055,617.854153500055,617.854153500055,617.854153500055,right,0.6264923000126146,1,0,0,99,0.16,-0.4,right,0.5440027000149712,,,,,,,,,,,,,,,,,,,,,,,,,,,,,,,,,,,,,,,,,,,,,,,,,,,,,,,,,,,,UH55MW,train_x,blue_star,bottom_left,2024-12-16_17h32.21.613,HideSeek_v1,2022.2.5,59.980554288900876,
,0,0,4,0,4,0,21,,train_dim1_1,12,30,,,,2,0,2,0,,,,,,,,,0,0,0,0,0,11,11,11,4,0,4,0,,,,,,,,,,,,,,,,,,,,,,,,,,,,,,,,,,,,,,,,,,,,,,,,,,,,,,,,,,,,,,,,30,,,,,,,,618.4871033000527,618.4871033000527,618.4871033000527,618.4871033000527,618.4871033000527,return,0.9435515999794006,2,0,0,1,0.16,-0.4,return,0.8523118000011891,0,17,0.16,-0.4,,,,,,,,,,,,,,,,,,,,,,,,,,,,,,,,,,,,,,,,,,,,,,,,,,,,,,,,UH55MW,train_x,blue_star,bottom_left,2024-12-16_17h32.21.613,HideSeek_v1,2022.2.5,59.980554288900876,
,0,4,1,4,1,0,51,,train_dim1_1,13,30,,,,2,0,2,0,,,,,,,,,0,0,0,0,0,12,12,12,0,0,0,0,,,,,,,,,,,,,,,,,,,,,,,,,stimuli/alien_stimuli/51.png,,,,,,,,,,,,,,,,,,,,,,,,,,,,,stimuli/alien_stimuli/21.png,21,0,14,,,,,,,30,,,,,,,,627.3289134000079,627.3289134000079,627.3289134000079,627.3289134000079,627.3289134000079,right,3.3056011999724433,2,0,0,99,-0.08,-0.08,right,3.216080999991391,,,,,625.7567808000022,627.3289134000079,0.16,-0.4,0.0,0.32,-0.4,0.16,0.0,0.16,-0.4,621.0171743000392,621.0171743000392,621.0171743000392,621.0171743000392,621.0171743000392,621.0171743000392,621.0171743000392,621.0171743000392,621.0029546800419,4.872746400011238,return,4.717311999993399,,,,,,,,,,,,,,,,,,,,,,,,,,,,,,,,,UH55MW,train_x,blue_star,bottom_left,2024-12-16_17h32.21.613,HideSeek_v1,2022.2.5,59.980554288900876,
,0,4,1,4,1,0,51,,train_dim1_1,13,30,,,,2,0,2,0,,,,,,,,,0,0,0,0,0,12,12,12,1,0,1,0,,,,,,,,,,,,,,,,,,,,,,,,,,,,,,,,,,,,,,,,,,,,,,,,,,,,,,,,,,,,,,,,30,,,,,,,,630.6296743000275,630.6296743000275,630.6296743000275,630.6296743000275,630.6296743000275,return,0.7765566000016406,3,0,0,1,-0.08,-0.08,return,0.6894128000130877,0,18,-0.08,-0.08,,,,,,,,,,,,,,,,,,,,,,,,,,,,,,,,,,,,,,,,,,,,,,,,,,,,,,,,UH55MW,train_x,blue_star,bottom_left,2024-12-16_17h32.21.613,HideSeek_v1,2022.2.5,59.980554288900876,
,4,3,9,3,5,0,11,,train_dim1_1,14,30,,,,2,0,2,0,,,,,,,,,0,0,0,0,0,13,13,13,0,0,0,0,,,,,,,,,,,,,,,,,,,,,,,,,stimuli/alien_stimuli/11.png,,,,,,,,,,,,,,,,,,,,,,,,,,,,,stimuli/alien_stimuli/51.png,51,0,15,,,,,,,30,,,,,,,,637.7914472000557,637.7914472000557,637.7914472000557,637.7914472000557,637.7914472000557,left,2.8907385999918915,3,0,0,99,0.08,-0.16,left,2.7863913000328466,,,,,636.2157522000489,637.7914472000557,-0.08,-0.08,0.0,0.08,-0.08,-0.08,-0.12,-0.08,-0.08,632.9919015000341,632.9919015000341,632.9919015000341,632.9919015000341,632.9919015000341,632.9919015000341,632.9919015000341,632.9919015000341,632.9795438800123,3.355044799973257,return,3.20599270000821,,,,,,,,,,,,,,,,,,,,,,,,,,,,,,,,,UH55MW,train_x,blue_star,bottom_left,2024-12-16_17h32.21.613,HideSeek_v1,2022.2.5,59.980554288900876,
,4,3,9,3,5,0,11,,train_dim1_1,14,30,,,,2,0,2,0,,,,,,,,,0,0,0,0,0,13,13,13,1,0,1,0,,,,,,,,,,,,,,,,,,,,,,,,,,,,,,,,,,,,,,,,,,,,,,,,,,,,,,,,,,,,,,,,30,,,,,,,,640.6737852000515,640.6737852000515,640.6737852000515,640.6737852000515,640.6737852000515,left,0.5095891999662854,3,0,0,99,0.0,-0.16,left,0.41678019997198135,,,,,,,,,,,,,,,,,,,,,,,,,,,,,,,,,,,,,,,,,,,,,,,,,,,,,,,,,,,,UH55MW,train_x,blue_star,bottom_left,2024-12-16_17h32.21.613,HideSeek_v1,2022.2.5,59.980554288900876,
,4,3,9,3,5,0,11,,train_dim1_1,14,30,,,,2,0,2,0,,,,,,,,,0,0,0,0,0,13,13,13,2,0,2,0,,,,,,,,,,,,,,,,,,,,,,,,,,,,,,,,,,,,,,,,,,,,,,,,,,,,,,,,,,,,,,,,30,,,,,,,,641.1905855000368,641.1905855000368,641.1905855000368,641.1905855000368,641.1905855000368,return,0.6600267000030726,3,0,0,0,0.0,-0.16,return,0.5797113999724388,0,16,0.0,-0.16,,,,,,,,,,,,,,,,,,,,,,,,,,,,,,,,,,,,,,,,,,,,,,,,,,,,,,,,UH55MW,train_x,blue_star,bottom_left,2024-12-16_17h32.21.613,HideSeek_v1,2022.2.5,59.980554288900876,
,4,2,4,2,0,0,61,,train_dim1_1,15,30,,,,2,0,2,0,,,,,,,,,0,0,0,0,0,14,14,14,0,0,0,0,,,,,,,,,,,,,,,,,,,,,,,,,stimuli/alien_stimuli/61.png,,,,,,,,,,,,,,,,,,,,,,,,,,,,,stimuli/alien_stimuli/11.png,11,4,16,,,,,,,30,,,,,,,,651.5467760000029,651.5467760000029,651.5467760000029,651.5467760000029,651.5467760000029,left,4.358795200008899,3,0,0,99,0.08,-0.24,left,4.253200399980415,,,,,649.9769767000107,651.5467760000029,0.56,-0.16,0.0,0.4,-0.16,0.56,0.36000000000000004,0.56,-0.16,643.4415196000482,643.4415196000482,643.4415196000482,643.4415196000482,643.4415196000482,643.4415196000482,643.4415196000482,643.4415196000482,643.4216448800638,6.674583000014536,return,6.5099054999882355,,,,,,,,,,,,,,,,,,,,,,,,,,,,,,,,,UH55MW,train_x,blue_star,bottom_left,2024-12-16_17h32.21.613,HideSeek_v1,2022.2.5,59.980554288900876,
,4,2,4,2,0,0,61,,train_dim1_1,15,30,,,,2,0,2,0,,,,,,,,,0,0,0,0,0,14,14,14,1,0,1,0,,,,,,,,,,,,,,,,,,,,,,,,,,,,,,,,,,,,,,,,,,,,,,,,,,,,,,,,,,,,,,,,30,,,,,,,,655.8984675000538,655.8984675000538,655.8984675000538,655.8984675000538,655.8984675000538,return,0.926620299986098,3,1,0,0,0.08,-0.24,return,0.83758409996517,0,15,0.08,-0.24,,,,,,,,,,,,,,,,,,,,,,,,,,,,,,,,,,,,,,,,,,,,,,,,,,,,,,,,UH55MW,train_x,blue_star,bottom_left,2024-12-16_17h32.21.613,HideSeek_v1,2022.2.5,59.980554288900876,
,3,3,4,3,1,0,51,,train_dim1_1,16,30,,,,2,0,2,0,,,,,,,,,0,0,0,0,0,15,15,15,0,0,0,0,,,,,,,,,,,,,,,,,,,,,,,,,stimuli/alien_stimuli/51.png,,,,,,,,,,,,,,,,,,,,,,,,,,,,,stimuli/alien_stimuli/61.png,61,4,17,,,,,,,30,,,,,,,,664.5450435000239,664.5450435000239,664.5450435000239,664.5450435000239,664.5450435000239,return,3.7059835999971256,3,1,0,0,0.08,-0.16,return,3.6129409999703057,0,15,0.08,-0.16,662.9710232000216,664.5450435000239,0.16,-0.24,0.0,0.0,-0.24,0.16,0.16,0.16,-0.24,658.3970029000193,658.3970029000193,658.3970029000193,658.3970029000193,658.3970029000193,658.3970029000193,658.3970029000193,658.3970029000193,658.3839458200614,4.689420800015796,return,4.545593199960422,,,,,,,,,,,,,,,,,,,,,,,,,,,,,,,,,UH55MW,train_x,blue_star,bottom_left,2024-12-16_17h32.21.613,HideSeek_v1,2022.2.5,59.980554288900876,
,2,4,6,4,4,0,21,,train_dim1_1,17,30,,,,2,0,2,0,,,,,,,,,0,0,0,0,0,16,16,16,0,0,0,0,,,,,,,,,,,,,,,,,,,,,,,,,stimuli/alien_stimuli/21.png,,,,,,,,,,,,,,,,,,,,,,,,,,,,,stimuli/alien_stimuli/51.png,51,3,18,,,,,,,30,,,,,,,,674.9885324000497,674.9885324000497,674.9885324000497,674.9885324000497,674.9885324000497,right,3.6229194999905303,3,1,0,99,0.08,-0.08,right,3.5182122999685816,,,,,673.4134639000404,674.9885324000497,0.16,-0.16,0.0,0.08,-0.16,0.16,0.12,0.16,-0.16,669.8264552000328,669.8264552000328,669.8264552000328,669.8264552000328,669.8264552000328,669.8264552000328,669.8264552000328,669.8264552000328,669.8103890800616,3.7218453999958,return,3.562963500036858,,,,,,,,,,,,,,,,,,,,,,,,,,,,,,,,,UH55MW,train_x,blue_star,bottom_left,2024-12-16_17h32.21.613,HideSeek_v1,2022.2.5,59.980554288900876,
,2,4,6,4,4,0,21,,train_dim1_1,17,30,,,,2,0,2,0,,,,,,,,,0,0,0,0,0,16,16,16,1,0,1,0,,,,,,,,,,,,,,,,,,,,,,,,,,,,,,,,,,,,,,,,,,,,,,,,,,,,,,,,,,,,,,,,30,,,,,,,,678.6053225000505,678.6053225000505,678.6053225000505,678.6053225000505,678.6053225000505,return,0.8258784000063315,3,0,0,0,0.08,-0.08,return,0.7332823000033386,0,16,0.08,-0.08,,,,,,,,,,,,,,,,,,,,,,,,,,,,,,,,,,,,,,,,,,,,,,,,,,,,,,,,UH55MW,train_x,blue_star,bottom_left,2024-12-16_17h32.21.613,HideSeek_v1,2022.2.5,59.980554288900876,
,2,1,2,1,0,0,61,,train_dim1_1,18,30,,,,2,0,2,0,,,,,,,,,0,0,0,0,0,17,17,17,0,0,0,0,,,,,,,,,,,,,,,,,,,,,,,,,stimuli/alien_stimuli/61.png,,,,,,,,,,,,,,,,,,,,,,,,,,,,,stimuli/alien_stimuli/21.png,21,2,19,,,,,,,30,,,,,,,,684.590709400014,684.590709400014,684.590709400014,684.590709400014,684.590709400014,return,3.257878799980972,4,0,0,1,0,-0.32,return,3.147483500011731,0,16,0,-0.32,683.004338400031,684.590709400014,0.32,-0.08,0.0,0.32,-0.08,0.32,0.16,0.32,-0.08,681.0209456000011,681.0209456000011,681.0209456000011,681.0209456000011,681.0209456000011,681.0209456000011,681.0209456000011,681.0209456000011,681.0026860800339,2.1206812000018544,return,1.955804699973669,,,,,,,,,,,,,,,,,,,,,,,,,,,,,,,,,UH55MW,train_x,blue_star,bottom_left,2024-12-16_17h32.21.613,HideSeek_v1,2022.2.5,59.980554288900876,
,0,3,3,3,3,0,31,,train_dim1_1,19,30,,,,2,0,2,0,,,,,,,,,0,0,0,0,0,18,18,18,0,0,0,0,,,,,,,,,,,,,,,,,,,,,,,,,stimuli/alien_stimuli/31.png,,,,,,,,,,,,,,,,,,,,,,,,,,,,,stimuli/alien_stimuli/61.png,61,2,20,,,,,,,30,,,,,,,,693.6497305000084,693.6497305000084,693.6497305000084,693.6497305000084,693.6497305000084,right,3.9535909999976866,4,0,0,99,-0.08,-0.16,right,3.8376125000067987,,,,,692.0617958000512,693.6497305000084,0,-0.32,0.0,0.0,-0.32,0,0.0,0,-0.32,689.4033801000332,689.4033801000332,689.4033801000332,689.4033801000332,689.4033801000332,689.4033801000332,689.4033801000332,689.4033801000332,689.3931032800232,2.787763200001791,return,2.6337048999848776,,,,,,,,,,,,,,,,,,,,,,,,,,,,,,,,,UH55MW,train_x,blue_star,bottom_left,2024-12-16_17h32.21.613,HideSeek_v1,2022.2.5,59.980554288900876,
,0,3,3,3,3,0,31,,train_dim1_1,19,30,,,,2,0,2,0,,,,,,,,,0,0,0,0,0,18,18,18,1,0,1,0,,,,,,,,,,,,,,,,,,,,,,,,,,,,,,,,,,,,,,,,,,,,,,,,,,,,,,,,,,,,,,,,30,,,,,,,,697.5846731000347,697.5846731000347,697.5846731000347,697.5846731000347,697.5846731000347,right,0.3756850999779999,4,0,0,99,0.0,-0.16,right,0.2949185000034049,,,,,,,,,,,,,,,,,,,,,,,,,,,,,,,,,,,,,,,,,,,,,,,,,,,,,,,,,,,,UH55MW,train_x,blue_star,bottom_left,2024-12-16_17h32.21.613,HideSeek_v1,2022.2.5,59.980554288900876,
,0,3,3,3,3,0,31,,train_dim1_1,19,30,,,,2,0,2,0,,,,,,,,,0,0,0,0,0,18,18,18,2,0,2,0,,,,,,,,,,,,,,,,,,,,,,,,,,,,,,,,,,,,,,,,,,,,,,,,,,,,,,,,,,,,,,,,30,,,,,,,,697.9666826000321,697.9666826000321,697.9666826000321,697.9666826000321,697.9666826000321,right,0.3932560999528505,4,0,0,99,0.08,-0.16,right,0.3078877999796532,,,,,,,,,,,,,,,,,,,,,,,,,,,,,,,,,,,,,,,,,,,,,,,,,,,,,,,,,,,,UH55MW,train_x,blue_star,bottom_left,2024-12-16_17h32.21.613,HideSeek_v1,2022.2.5,59.980554288900876,
,0,3,3,3,3,0,31,,train_dim1_1,19,30,,,,2,0,2,0,,,,,,,,,0,0,0,0,0,18,18,18,3,0,3,0,,,,,,,,,,,,,,,,,,,,,,,,,,,,,,,,,,,,,,,,,,,,,,,,,,,,,,,,,,,,,,,,30,,,,,,,,698.3668739000568,698.3668739000568,698.3668739000568,698.3668739000568,698.3668739000568,right,0.39292690000729635,4,0,0,99,0.16,-0.16,right,0.31656259996816516,,,,,,,,,,,,,,,,,,,,,,,,,,,,,,,,,,,,,,,,,,,,,,,,,,,,,,,,,,,,UH55MW,train_x,blue_star,bottom_left,2024-12-16_17h32.21.613,HideSeek_v1,2022.2.5,59.980554288900876,
,0,3,3,3,3,0,31,,train_dim1_1,19,30,,,,2,0,2,0,,,,,,,,,0,0,0,0,0,18,18,18,4,0,4,0,,,,,,,,,,,,,,,,,,,,,,,,,,,,,,,,,,,,,,,,,,,,,,,,,,,,,,,,,,,,,,,,30,,,,,,,,698.7682079000515,698.7682079000515,698.7682079000515,698.7682079000515,698.7682079000515,return,0.8102352999849245,4,1,0,0,0.16,-0.16,return,0.7186836999608204,0,20,0.16,-0.16,,,,,,,,,,,,,,,,,,,,,,,,,,,,,,,,,,,,,,,,,,,,,,,,,,,,,,,,UH55MW,train_x,blue_star,bottom_left,2024-12-16_17h32.21.613,HideSeek_v1,2022.2.5,59.980554288900876,
,0,1,5,1,5,0,11,,train_dim1_1,20,30,,,,2,0,2,0,,,,,,,,,0,0,0,0,0,19,19,19,0,0,0,0,,,,,,,,,,,,,,,,,,,,,,,,,stimuli/alien_stimuli/11.png,,,,,,,,,,,,,,,,,,,,,,,,,,,,,stimuli/alien_stimuli/31.png,31,0,21,,,,,,,30,,,,,,,,705.4123484000447,705.4123484000447,705.4123484000447,705.4123484000447,705.4123484000447,right,2.574683500046376,4,1,0,99,-0.08,-0.32,right,2.431039499992039,,,,,703.8051262000226,705.4123484000447,0.08,-0.16,0.0,0.24,-0.16,0.08,-0.04,0.08,-0.16,701.1701707000029,701.1701707000029,701.1701707000029,701.1701707000029,701.1701707000029,701.1701707000029,701.1701707000029,701.1701707000029,701.1527502800221,2.7711394000216387,return,2.607466100016609,,,,,,,,,,,,,,,,,,,,,,,,,,,,,,,,,UH55MW,train_x,blue_star,bottom_left,2024-12-16_17h32.21.613,HideSeek_v1,2022.2.5,59.980554288900876,
,0,1,5,1,5,0,11,,train_dim1_1,20,30,,,,2,0,2,0,,,,,,,,,0,0,0,0,0,19,19,19,1,0,1,0,,,,,,,,,,,,,,,,,,,,,,,,,,,,,,,,,,,,,,,,,,,,,,,,,,,,,,,,,,,,,,,,30,,,,,,,,707.9463895000517,707.9463895000517,707.9463895000517,707.9463895000517,707.9463895000517,right,0.542652599979192,4,1,0,99,0.0,-0.32,right,0.4500951999798417,,,,,,,,,,,,,,,,,,,,,,,,,,,,,,,,,,,,,,,,,,,,,,,,,,,,,,,,,,,,UH55MW,train_x,blue_star,bottom_left,2024-12-16_17h32.21.613,HideSeek_v1,2022.2.5,59.980554288900876,
,0,1,5,1,5,0,11,,train_dim1_1,20,30,,,,2,0,2,0,,,,,,,,,0,0,0,0,0,19,19,19,2,0,2,0,,,,,,,,,,,,,,,,,,,,,,,,,,,,,,,,,,,,,,,,,,,,,,,,,,,,,,,,,,,,,,,,30,,,,,,,,708.4963184000226,708.4963184000226,708.4963184000226,708.4963184000226,708.4963184000226,right,0.6098057000199333,4,1,0,99,0.08,-0.32,right,0.5193978000315838,,,,,,,,,,,,,,,,,,,,,,,,,,,,,,,,,,,,,,,,,,,,,,,,,,,,,,,,,,,,UH55MW,train_x,blue_star,bottom_left,2024-12-16_17h32.21.613,HideSeek_v1,2022.2.5,59.980554288900876,
,0,1,5,1,5,0,11,,train_dim1_1,20,30,,,,2,0,2,0,,,,,,,,,0,0,0,0,0,19,19,19,3,0,3,0,,,,,,,,,,,,,,,,,,,,,,,,,,,,,,,,,,,,,,,,,,,,,,,,,,,,,,,,,,,,,,,,30,,,,,,,,709.1125956000178,709.1125956000178,709.1125956000178,709.1125956000178,709.1125956000178,right,0.5599944000132382,4,1,0,99,0.16,-0.32,right,0.4801502000191249,,,,,,,,,,,,,,,,,,,,,,,,,,,,,,,,,,,,,,,,,,,,,,,,,,,,,,,,,,,,UH55MW,train_x,blue_star,bottom_left,2024-12-16_17h32.21.613,HideSeek_v1,2022.2.5,59.980554288900876,
,0,1,5,1,5,0,11,,train_dim1_1,20,30,,,,2,0,2,0,,,,,,,,,0,0,0,0,0,19,19,19,4,0,4,0,,,,,,,,,,,,,,,,,,,,,,,,,,,,,,,,,,,,,,,,,,,,,,,,,,,,,,,,,,,,,,,,30,,,,,,,,709.679644000018,709.679644000018,709.679644000018,709.679644000018,709.679644000018,right,0.5599435000331141,4,1,0,99,0.24,-0.32,right,0.4674860000377521,,,,,,,,,,,,,,,,,,,,,,,,,,,,,,,,,,,,,,,,,,,,,,,,,,,,,,,,,,,,UH55MW,train_x,blue_star,bottom_left,2024-12-16_17h32.21.613,HideSeek_v1,2022.2.5,59.980554288900876,
,0,1,5,1,5,0,11,,train_dim1_1,20,30,,,,2,0,2,0,,,,,,,,,0,0,0,0,0,19,19,19,5,0,5,0,,,,,,,,,,,,,,,,,,,,,,,,,,,,,,,,,,,,,,,,,,,,,,,,,,,,,,,,,,,,,,,,30,,,,,,,,710.2475777000072,710.2475777000072,710.2475777000072,710.2475777000072,710.2475777000072,return,0.7599950999720022,5,0,0,1,0.24,-0.32,return,0.665650800045114,0,25,0.24,-0.32,,,,,,,,,,,,,,,,,,,,,,,,,,,,,,,,,,,,,,,,,,,,,,,,,,,,,,,,UH55MW,train_x,blue_star,bottom_left,2024-12-16_17h32.21.613,HideSeek_v1,2022.2.5,59.980554288900876,
,4,2,7,2,3,0,31,,train_dim1_1,21,30,,,,2,0,2,0,,,,,,,,,0,0,0,0,0,20,20,20,0,0,0,0,,,,,,,,,,,,,,,,,,,,,,,,,stimuli/alien_stimuli/31.png,,,,,,,,,,,,,,,,,,,,,,,,,,,,,stimuli/alien_stimuli/11.png,11,0,22,,,,,,,30,,,,,,,,718.692769300018,718.692769300018,718.692769300018,718.692769300018,718.692769300018,right,3.8398097999743186,5,0,0,99,0.24,-0.24,right,3.7300618999870494,,,,,717.1158656000043,718.692769300018,0.24,-0.32,0.0,0.4,-0.32,0.24,0.039999999999999994,0.24,-0.32,712.5854910000344,712.5854910000344,712.5854910000344,712.5854910000344,712.5854910000344,712.5854910000344,712.5854910000344,712.5854910000344,712.5791388800484,4.655635599978268,return,4.503453299985267,,,,,,,,,,,,,,,,,,,,,,,,,,,,,,,,,UH55MW,train_x,blue_star,bottom_left,2024-12-16_17h32.21.613,HideSeek_v1,2022.2.5,59.980554288900876,
,4,2,7,2,3,0,31,,train_dim1_1,21,30,,,,2,0,2,0,,,,,,,,,0,0,0,0,0,20,20,20,1,0,1,0,,,,,,,,,,,,,,,,,,,,,,,,,,,,,,,,,,,,,,,,,,,,,,,,,,,,,,,,,,,,,,,,30,,,,,,,,722.5214124000049,722.5214124000049,722.5214124000049,722.5214124000049,722.5214124000049,right,0.4762061000219546,5,0,0,99,0.32,-0.24,right,0.3918425000156276,,,,,,,,,,,,,,,,,,,,,,,,,,,,,,,,,,,,,,,,,,,,,,,,,,,,,,,,,,,,UH55MW,train_x,blue_star,bottom_left,2024-12-16_17h32.21.613,HideSeek_v1,2022.2.5,59.980554288900876,
,4,2,7,2,3,0,31,,train_dim1_1,21,30,,,,2,0,2,0,,,,,,,,,0,0,0,0,0,20,20,20,2,0,2,0,,,,,,,,,,,,,,,,,,,,,,,,,,,,,,,,,,,,,,,,,,,,,,,,,,,,,,,,,,,,,,,,30,,,,,,,,723.0048951000208,723.0048951000208,723.0048951000208,723.0048951000208,723.0048951000208,return,0.7105096000013873,5,1,0,0,0.32,-0.24,return,0.6318753000232391,0,27,0.32,-0.24,,,,,,,,,,,,,,,,,,,,,,,,,,,,,,,,,,,,,,,,,,,,,,,,,,,,,,,,UH55MW,train_x,blue_star,bottom_left,2024-12-16_17h32.21.613,HideSeek_v1,2022.2.5,59.980554288900876,
,1,0,5,0,4,0,21,,train_dim1_1,22,30,,,,2,0,2,0,,,,,,,,,0,0,0,0,0,21,21,21,0,0,0,0,,,,,,,,,,,,,,,,,,,,,,,,,stimuli/alien_stimuli/21.png,,,,,,,,,,,,,,,,,,,,,,,,,,,,,stimuli/alien_stimuli/31.png,31,4,23,,,,,,,30,,,,,,,,728.8234411000158,728.8234411000158,728.8234411000158,728.8234411000158,728.8234411000158,right,3.0908741000457667,5,1,0,99,0.0,-0.4,right,2.940671199990902,,,,,727.207828100014,728.8234411000158,0.4,-0.24,0.0,0.24,-0.24,0.4,0.28,0.4,-0.24,725.3018759000115,725.3018759000115,725.3018759000115,725.3018759000115,725.3018759000115,725.3018759000115,725.3018759000115,725.3018759000115,725.2893320800271,2.0374791000504047,return,1.8753785000299104,,,,,,,,,,,,,,,,,,,,,,,,,,,,,,,,,UH55MW,train_x,blue_star,bottom_left,2024-12-16_17h32.21.613,HideSeek_v1,2022.2.5,59.980554288900876,
,1,0,5,0,4,0,21,,train_dim1_1,22,30,,,,2,0,2,0,,,,,,,,,0,0,0,0,0,21,21,21,1,0,1,0,,,,,,,,,,,,,,,,,,,,,,,,,,,,,,,,,,,,,,,,,,,,,,,,,,,,,,,,,,,,,,,,30,,,,,,,,731.8651932000066,731.8651932000066,731.8651932000066,731.8651932000066,731.8651932000066,right,0.5592638999805786,5,1,0,99,0.08,-0.4,right,0.4769192000385374,,,,,,,,,,,,,,,,,,,,,,,,,,,,,,,,,,,,,,,,,,,,,,,,,,,,,,,,,,,,UH55MW,train_x,blue_star,bottom_left,2024-12-16_17h32.21.613,HideSeek_v1,2022.2.5,59.980554288900876,
,1,0,5,0,4,0,21,,train_dim1_1,22,30,,,,2,0,2,0,,,,,,,,,0,0,0,0,0,21,21,21,2,0,2,0,,,,,,,,,,,,,,,,,,,,,,,,,,,,,,,,,,,,,,,,,,,,,,,,,,,,,,,,,,,,,,,,30,,,,,,,,732.4318153000204,732.4318153000204,732.4318153000204,732.4318153000204,732.4318153000204,right,0.6096226999652572,5,1,0,99,0.16,-0.4,right,0.5193722000112757,,,,,,,,,,,,,,,,,,,,,,,,,,,,,,,,,,,,,,,,,,,,,,,,,,,,,,,,,,,,UH55MW,train_x,blue_star,bottom_left,2024-12-16_17h32.21.613,HideSeek_v1,2022.2.5,59.980554288900876,
,1,0,5,0,4,0,21,,train_dim1_1,22,30,,,,2,0,2,0,,,,,,,,,0,0,0,0,0,21,21,21,3,0,3,0,,,,,,,,,,,,,,,,,,,,,,,,,,,,,,,,,,,,,,,,,,,,,,,,,,,,,,,,,,,,,,,,30,,,,,,,,733.05030360003,733.05030360003,733.05030360003,733.05030360003,733.05030360003,right,0.5593315999722108,5,1,0,99,0.24,-0.4,right,0.46476020000409335,,,,,,,,,,,,,,,,,,,,,,,,,,,,,,,,,,,,,,,,,,,,,,,,,,,,,,,,,,,,UH55MW,train_x,blue_star,bottom_left,2024-12-16_17h32.21.613,HideSeek_v1,2022.2.5,59.980554288900876,
,1,0,5,0,4,0,21,,train_dim1_1,22,30,,,,2,0,2,0,,,,,,,,,0,0,0,0,0,21,21,21,4,0,4,0,,,,,,,,,,,,,,,,,,,,,,,,,,,,,,,,,,,,,,,,,,,,,,,,,,,,,,,,,,,,,,,,30,,,,,,,,733.6161796000088,733.6161796000088,733.6161796000088,733.6161796000088,733.6161796000088,return,0.6931428000098094,6,0,0,1,0.24,-0.4,return,0.604665000049863,0,31,0.24,-0.4,,,,,,,,,,,,,,,,,,,,,,,,,,,,,,,,,,,,,,,,,,,,,,,,,,,,,,,,UH55MW,train_x,blue_star,bottom_left,2024-12-16_17h32.21.613,HideSeek_v1,2022.2.5,59.980554288900876,
,2,1,2,1,0,0,61,,train_dim1_1,23,30,,,,2,0,2,0,,,,,,,,,0,0,0,0,0,22,22,22,0,0,0,0,,,,,,,,,,,,,,,,,,,,,,,,,stimuli/alien_stimuli/61.png,,,,,,,,,,,,,,,,,,,,,,,,,,,,,stimuli/alien_stimuli/21.png,21,1,24,,,,,,,30,,,,,,,,738.8369052000344,738.8369052000344,738.8369052000344,738.8369052000344,738.8369052000344,return,2.522685200034175,7,0,0,1,0,-0.32,return,2.4043176000122912,0,31,0,-0.32,737.2493925000308,738.8369052000344,0.24,-0.4,0.0,0.32,-0.4,0.24,0.07999999999999999,0.24,-0.4,735.8968293000362,735.8968293000362,735.8968293000362,735.8968293000362,735.8968293000362,735.8968293000362,735.8968293000362,735.8968293000362,735.881587980059,1.48704129998805,return,1.3362488999846391,,,,,,,,,,,,,,,,,,,,,,,,,,,,,,,,,UH55MW,train_x,blue_star,bottom_left,2024-12-16_17h32.21.613,HideSeek_v1,2022.2.5,59.980554288900876,
,4,4,5,4,1,0,51,,train_dim1_1,24,30,,,,2,0,2,0,,,,,,,,,0,0,0,0,0,23,23,23,0,0,0,0,,,,,,,,,,,,,,,,,,,,,,,,,stimuli/alien_stimuli/51.png,,,,,,,,,,,,,,,,,,,,,,,,,,,,,stimuli/alien_stimuli/61.png,61,2,25,,,,,,,30,,,,,,,,745.6624841000303,745.6624841000303,745.6624841000303,745.6624841000303,745.6624841000303,right,2.922168899967801,7,0,0,99,0.24,-0.08,right,2.8251622999669053,,,,,744.0885163000203,745.6624841000303,0,-0.32,0.0,0.0,-0.32,0,0.0,0,-0.32,742.8980449000373,742.8980449000373,742.8980449000373,742.8980449000373,742.8980449000373,742.8980449000373,742.8980449000373,742.8980449000373,742.8875351200345,1.3033066000207327,return,1.1732708000345156,,,,,,,,,,,,,,,,,,,,,,,,,,,,,,,,,UH55MW,train_x,blue_star,bottom_left,2024-12-16_17h32.21.613,HideSeek_v1,2022.2.5,59.980554288900876,
,4,4,5,4,1,0,51,,train_dim1_1,24,30,,,,2,0,2,0,,,,,,,,,0,0,0,0,0,23,23,23,1,0,1,0,,,,,,,,,,,,,,,,,,,,,,,,,,,,,,,,,,,,,,,,,,,,,,,,,,,,,,,,,,,,,,,,30,,,,,,,,748.5796907000476,748.5796907000476,748.5796907000476,748.5796907000476,748.5796907000476,return,0.7427886999794282,8,0,0,1,0.24,-0.08,return,0.6492857999983244,0,32,0.24,-0.08,,,,,,,,,,,,,,,,,,,,,,,,,,,,,,,,,,,,,,,,,,,,,,,,,,,,,,,,UH55MW,train_x,blue_star,bottom_left,2024-12-16_17h32.21.613,HideSeek_v1,2022.2.5,59.980554288900876,
,3,0,8,0,5,0,11,,train_dim1_1,25,30,,,,2,0,2,0,,,,,,,,,0,0,0,0,0,24,24,24,0,0,0,0,,,,,,,,,,,,,,,,,,,,,,,,,stimuli/alien_stimuli/11.png,,,,,,,,,,,,,,,,,,,,,,,,,,,,,stimuli/alien_stimuli/51.png,51,4,26,,,,,,,30,,,,,,,,753.692986500042,753.692986500042,753.692986500042,753.692986500042,753.692986500042,right,2.073098899971228,8,0,0,99,0.16,-0.4,right,1.9495328000048175,,,,,752.0951234000386,753.692986500042,0.24,-0.08,0.0,0.08,-0.08,0.24,0.2,0.24,-0.08,750.8945034000208,750.8945034000208,750.8945034000208,750.8945034000208,750.8945034000208,750.8945034000208,750.8945034000208,750.8945034000208,750.8775489200139,1.3198618000023998,return,1.1839442999917082,,,,,,,,,,,,,,,,,,,,,,,,,,,,,,,,,UH55MW,train_x,blue_star,bottom_left,2024-12-16_17h32.21.613,HideSeek_v1,2022.2.5,59.980554288900876,
,3,0,8,0,5,0,11,,train_dim1_1,25,30,,,,2,0,2,0,,,,,,,,,0,0,0,0,0,24,24,24,1,0,1,0,,,,,,,,,,,,,,,,,,,,,,,,,,,,,,,,,,,,,,,,,,,,,,,,,,,,,,,,,,,,,,,,30,,,,,,,,755.7375386000494,755.7375386000494,755.7375386000494,755.7375386000494,755.7375386000494,right,0.4096045999904163,8,0,0,99,0.24,-0.4,right,0.320562599983532,,,,,,,,,,,,,,,,,,,,,,,,,,,,,,,,,,,,,,,,,,,,,,,,,,,,,,,,,,,,UH55MW,train_x,blue_star,bottom_left,2024-12-16_17h32.21.613,HideSeek_v1,2022.2.5,59.980554288900876,
,3,0,8,0,5,0,11,,train_dim1_1,25,30,,,,2,0,2,0,,,,,,,,,0,0,0,0,0,24,24,24,2,0,2,0,,,,,,,,,,,,,,,,,,,,,,,,,,,,,,,,,,,,,,,,,,,,,,,,,,,,,,,,,,,,,,,,30,,,,,,,,756.15629980003,756.15629980003,756.15629980003,756.15629980003,756.15629980003,right,0.32519639999372885,8,0,0,99,0.32,-0.4,right,0.24111770000308752,,,,,,,,,,,,,,,,,,,,,,,,,,,,,,,,,,,,,,,,,,,,,,,,,,,,,,,,,,,,UH55MW,train_x,blue_star,bottom_left,2024-12-16_17h32.21.613,HideSeek_v1,2022.2.5,59.980554288900876,
,3,0,8,0,5,0,11,,train_dim1_1,25,30,,,,2,0,2,0,,,,,,,,,0,0,0,0,0,24,24,24,3,0,3,0,,,,,,,,,,,,,,,,,,,,,,,,,,,,,,,,,,,,,,,,,,,,,,,,,,,,,,,,,,,,,,,,30,,,,,,,,756.4938143000472,756.4938143000472,756.4938143000472,756.4938143000472,756.4938143000472,right,1.6271409000037238,8,0,0,99,0.4,-0.4,right,1.5356054999865592,,,,,,,,,,,,,,,,,,,,,,,,,,,,,,,,,,,,,,,,,,,,,,,,,,,,,,,,,,,,UH55MW,train_x,blue_star,bottom_left,2024-12-16_17h32.21.613,HideSeek_v1,2022.2.5,59.980554288900876,
,3,0,8,0,5,0,11,,train_dim1_1,25,30,,,,2,0,2,0,,,,,,,,,0,0,0,0,0,24,24,24,4,0,4,0,,,,,,,,,,,,,,,,,,,,,,,,,,,,,,,,,,,,,,,,,,,,,,,,,,,,,,,,,,,,,,,,30,,,,,,,,758.1259264000109,758.1259264000109,758.1259264000109,758.1259264000109,758.1259264000109,right,0.29226630000630394,8,0,0,99,0.48000000000000004,-0.4,right,0.19570159999420866,,,,,,,,,,,,,,,,,,,,,,,,,,,,,,,,,,,,,,,,,,,,,,,,,,,,,,,,,,,,UH55MW,train_x,blue_star,bottom_left,2024-12-16_17h32.21.613,HideSeek_v1,2022.2.5,59.980554288900876,
,3,0,8,0,5,0,11,,train_dim1_1,25,30,,,,2,0,2,0,,,,,,,,,0,0,0,0,0,24,24,24,5,0,5,0,,,,,,,,,,,,,,,,,,,,,,,,,,,,,,,,,,,,,,,,,,,,,,,,,,,,,,,,,,,,,,,,30,,,,,,,,758.4290945000248,758.4290945000248,758.4290945000248,758.4290945000248,758.4290945000248,right,0.2899045000085607,8,0,0,99,0.56,-0.4,right,0.1963441999978386,,,,,,,,,,,,,,,,,,,,,,,,,,,,,,,,,,,,,,,,,,,,,,,,,,,,,,,,,,,,UH55MW,train_x,blue_star,bottom_left,2024-12-16_17h32.21.613,HideSeek_v1,2022.2.5,59.980554288900876,
,3,0,8,0,5,0,11,,train_dim1_1,25,30,,,,2,0,2,0,,,,,,,,,0,0,0,0,0,24,24,24,6,0,6,0,,,,,,,,,,,,,,,,,,,,,,,,,,,,,,,,,,,,,,,,,,,,,,,,,,,,,,,,,,,,,,,,30,,,,,,,,758.7292542000068,758.7292542000068,758.7292542000068,758.7292542000068,758.7292542000068,return,0.7432751999585889,8,1,0,0,0.56,-0.4,return,0.6448174000252038,0,38,0.56,-0.4,,,,,,,,,,,,,,,,,,,,,,,,,,,,,,,,,,,,,,,,,,,,,,,,,,,,,,,,UH55MW,train_x,blue_star,bottom_left,2024-12-16_17h32.21.613,HideSeek_v1,2022.2.5,59.980554288900876,
,1,1,1,1,0,0,61,,train_dim1_1,26,30,,,,2,0,2,0,,,,,,,,,0,0,0,0,0,25,25,25,0,0,0,0,,,,,,,,,,,,,,,,,,,,,,,,,stimuli/alien_stimuli/61.png,,,,,,,,,,,,,,,,,,,,,,,,,,,,,stimuli/alien_stimuli/11.png,11,3,27,,,,,,,30,,,,,,,,769.9594186000177,769.9594186000177,769.9594186000177,769.9594186000177,769.9594186000177,return,1.8405287000350654,9,0,0,1,-0.08,-0.32,return,1.6944864999968559,0,38,-0.08,-0.32,768.3299410000327,761.0387941000517,0.48,-0.4,0.0,0.4,-0.4,0.48,0.27999999999999997,0.48,-0.4,761.0387941000517,761.0387941000517,761.0387941000517,761.0387941000517,761.0387941000517,761.0387941000517,761.0387941000517,761.0387941000517,761.0189303200109,7.4146898000035435,return,7.263637800002471,,,,,,,,,,,,,,,,,,,,,,,,,,,,,,,,,UH55MW,train_x,blue_star,bottom_left,2024-12-16_17h32.21.613,HideSeek_v1,2022.2.5,59.980554288900876,
,0,1,3,1,3,0,31,,train_dim1_1,27,30,,,,2,0,2,0,,,,,,,,,0,0,0,0,0,26,26,26,0,0,0,0,,,,,,,,,,,,,,,,,,,,,,,,,stimuli/alien_stimuli/31.png,,,,,,,,,,,,,,,,,,,,,,,,,,,,,stimuli/alien_stimuli/61.png,61,1,28,,,,,,,30,,,,,,,,775.7377805000287,775.7377805000287,775.7377805000287,775.7377805000287,775.7377805000287,right,2.1897413000115193,9,0,0,99,-0.08,-0.32,right,2.0740357999457046,,,,,774.1469348000246,775.7377805000287,-0.08,-0.32,0.0,0.0,-0.32,-0.08,-0.08,-0.08,-0.32,773.3232364000287,773.3232364000287,773.3232364000287,773.3232364000287,773.3232364000287,773.3232364000287,773.3232364000287,773.3232364000287,773.3129217800218,0.9544470999971963,return,0.7953674999880604,,,,,,,,,,,,,,,,,,,,,,,,,,,,,,,,,UH55MW,train_x,blue_star,bottom_left,2024-12-16_17h32.21.613,HideSeek_v1,2022.2.5,59.980554288900876,
,0,1,3,1,3,0,31,,train_dim1_1,27,30,,,,2,0,2,0,,,,,,,,,0,0,0,0,0,26,26,26,1,0,1,0,,,,,,,,,,,,,,,,,,,,,,,,,,,,,,,,,,,,,,,,,,,,,,,,,,,,,,,,,,,,,,,,30,,,,,,,,777.9013954000548,777.9013954000548,777.9013954000548,777.9013954000548,777.9013954000548,right,0.5764452000148594,9,0,0,99,0.0,-0.32,right,0.48876239999663085,,,,,,,,,,,,,,,,,,,,,,,,,,,,,,,,,,,,,,,,,,,,,,,,,,,,,,,,,,,,UH55MW,train_x,blue_star,bottom_left,2024-12-16_17h32.21.613,HideSeek_v1,2022.2.5,59.980554288900876,
,0,1,3,1,3,0,31,,train_dim1_1,27,30,,,,2,0,2,0,,,,,,,,,0,0,0,0,0,26,26,26,2,0,2,0,,,,,,,,,,,,,,,,,,,,,,,,,,,,,,,,,,,,,,,,,,,,,,,,,,,,,,,,,,,,,,,,30,,,,,,,,778.4843121000449,778.4843121000449,778.4843121000449,778.4843121000449,778.4843121000449,right,0.3097421000129543,9,0,0,99,0.08,-0.32,right,0.23083369998494163,,,,,,,,,,,,,,,,,,,,,,,,,,,,,,,,,,,,,,,,,,,,,,,,,,,,,,,,,,,,UH55MW,train_x,blue_star,bottom_left,2024-12-16_17h32.21.613,HideSeek_v1,2022.2.5,59.980554288900876,
,0,1,3,1,3,0,31,,train_dim1_1,27,30,,,,2,0,2,0,,,,,,,,,0,0,0,0,0,26,26,26,3,0,3,0,,,,,,,,,,,,,,,,,,,,,,,,,,,,,,,,,,,,,,,,,,,,,,,,,,,,,,,,,,,,,,,,30,,,,,,,,778.7999876000104,778.7999876000104,778.7999876000104,778.7999876000104,778.7999876000104,return,0.8933421000256203,10,0,0,1,0.08,-0.32,return,0.8058701999834739,0,41,0.08,-0.32,,,,,,,,,,,,,,,,,,,,,,,,,,,,,,,,,,,,,,,,,,,,,,,,,,,,,,,,UH55MW,train_x,blue_star,bottom_left,2024-12-16_17h32.21.613,HideSeek_v1,2022.2.5,59.980554288900876,
,3,1,7,1,4,0,21,,train_dim1_1,28,30,,,,2,0,2,0,,,,,,,,,0,0,0,0,0,27,27,27,0,0,0,0,,,,,,,,,,,,,,,,,,,,,,,,,stimuli/alien_stimuli/21.png,,,,,,,,,,,,,,,,,,,,,,,,,,,,,stimuli/alien_stimuli/31.png,31,0,29,,,,,,,30,,,,,,,,783.9812786000548,783.9812786000548,783.9812786000548,783.9812786000548,783.9812786000548,right,1.5156877000117674,10,0,0,99,0.16,-0.32,right,1.391003400029149,,,,,782.3702412000275,783.9812786000548,0.08,-0.32,0.0,0.24,-0.32,0.08,-0.04,0.08,-0.32,781.2638301000115,781.2638301000115,781.2638301000115,781.2638301000115,781.2638301000115,781.2638301000115,781.2638301000115,781.2638301000115,781.2526747200404,1.2203026000061072,return,1.0849823000025935,,,,,,,,,,,,,,,,,,,,,,,,,,,,,,,,,UH55MW,train_x,blue_star,bottom_left,2024-12-16_17h32.21.613,HideSeek_v1,2022.2.5,59.980554288900876,
,3,1,7,1,4,0,21,,train_dim1_1,28,30,,,,2,0,2,0,,,,,,,,,0,0,0,0,0,27,27,27,1,0,1,0,,,,,,,,,,,,,,,,,,,,,,,,,,,,,,,,,,,,,,,,,,,,,,,,,,,,,,,,,,,,,,,,30,,,,,,,,785.4596645000274,785.4596645000274,785.4596645000274,785.4596645000274,785.4596645000274,right,0.4590137000195682,10,0,0,99,0.24,-0.32,right,0.3672284000203945,,,,,,,,,,,,,,,,,,,,,,,,,,,,,,,,,,,,,,,,,,,,,,,,,,,,,,,,,,,,UH55MW,train_x,blue_star,bottom_left,2024-12-16_17h32.21.613,HideSeek_v1,2022.2.5,59.980554288900876,
,3,1,7,1,4,0,21,,train_dim1_1,28,30,,,,2,0,2,0,,,,,,,,,0,0,0,0,0,27,27,27,2,0,2,0,,,,,,,,,,,,,,,,,,,,,,,,,,,,,,,,,,,,,,,,,,,,,,,,,,,,,,,,,,,,,,,,30,,,,,,,,785.9275286000338,785.9275286000338,785.9275286000338,785.9275286000338,785.9275286000338,right,0.32644799997797236,10,0,0,99,0.32,-0.32,right,0.24678769998718053,,,,,,,,,,,,,,,,,,,,,,,,,,,,,,,,,,,,,,,,,,,,,,,,,,,,,,,,,,,,UH55MW,train_x,blue_star,bottom_left,2024-12-16_17h32.21.613,HideSeek_v1,2022.2.5,59.980554288900876,
,3,1,7,1,4,0,21,,train_dim1_1,28,30,,,,2,0,2,0,,,,,,,,,0,0,0,0,0,27,27,27,3,0,3,0,,,,,,,,,,,,,,,,,,,,,,,,,,,,,,,,,,,,,,,,,,,,,,,,,,,,,,,,,,,,,,,,30,,,,,,,,786.2631184000056,786.2631184000056,786.2631184000056,786.2631184000056,786.2631184000056,right,0.29312680003931746,10,0,0,99,0.4,-0.32,right,0.202657799993176,,,,,,,,,,,,,,,,,,,,,,,,,,,,,,,,,,,,,,,,,,,,,,,,,,,,,,,,,,,,UH55MW,train_x,blue_star,bottom_left,2024-12-16_17h32.21.613,HideSeek_v1,2022.2.5,59.980554288900876,
,3,1,7,1,4,0,21,,train_dim1_1,28,30,,,,2,0,2,0,,,,,,,,,0,0,0,0,0,27,27,27,4,0,4,0,,,,,,,,,,,,,,,,,,,,,,,,,,,,,,,,,,,,,,,,,,,,,,,,,,,,,,,,,,,,,,,,30,,,,,,,,786.5650815000408,786.5650815000408,786.5650815000408,786.5650815000408,786.5650815000408,return,1.0435377999674529,11,0,0,1,0.4,-0.32,return,0.95007020002231,0,45,0.4,-0.32,,,,,,,,,,,,,,,,,,,,,,,,,,,,,,,,,,,,,,,,,,,,,,,,,,,,,,,,UH55MW,train_x,blue_star,bottom_left,2024-12-16_17h32.21.613,HideSeek_v1,2022.2.5,59.980554288900876,
,4,0,5,0,1,0,51,,train_dim1_1,29,30,,,,2,0,2,0,,,,,,,,,0,0,0,0,0,28,28,28,0,0,0,0,,,,,,,,,,,,,,,,,,,,,,,,,stimuli/alien_stimuli/51.png,,,,,,,,,,,,,,,,,,,,,,,,,,,,,stimuli/alien_stimuli/21.png,21,3,30,,,,,,,30,,,,,,,,794.5544545000303,794.5544545000303,794.5544545000303,794.5544545000303,794.5544545000303,right,2.7728038000059314,11,0,0,99,0.24,-0.4,right,2.6734845000319183,,,,,792.9791470000055,794.5544545000303,0.4,-0.32,0.0,0.32,-0.32,0.4,0.24000000000000002,0.4,-0.32,789.1746617000317,789.1746617000317,789.1746617000317,789.1746617000317,789.1746617000317,789.1746617000317,789.1746617000317,789.1746617000317,789.1594648200203,3.9219168000272475,return,3.774870900029782,,,,,,,,,,,,,,,,,,,,,,,,,,,,,,,,,UH55MW,train_x,blue_star,bottom_left,2024-12-16_17h32.21.613,HideSeek_v1,2022.2.5,59.980554288900876,
,4,0,5,0,1,0,51,,train_dim1_1,29,30,,,,2,0,2,0,,,,,,,,,0,0,0,0,0,28,28,28,1,0,1,0,,,,,,,,,,,,,,,,,,,,,,,,,,,,,,,,,,,,,,,,,,,,,,,,,,,,,,,,,,,,,,,,30,,,,,,,,797.3182438000222,797.3182438000222,797.3182438000222,797.3182438000222,797.3182438000222,return,0.7429495000396855,12,0,0,1,0.24,-0.4,return,0.6634683000156656,0,46,0.24,-0.4,,,,,,,,,,,,,,,,,,,,,,,,,,,,,,,,,,,,,,,,,,,,,,,,,,,,,,,,UH55MW,train_x,blue_star,bottom_left,2024-12-16_17h32.21.613,HideSeek_v1,2022.2.5,59.980554288900876,
,2,2,7,2,5,0,11,,train_dim1_1,30,30,,,,2,0,2,0,,,,,,,,,0,0,0,0,0,29,29,29,0,0,0,0,,,,,,,,,,,,,,,,,,,,,,,,,stimuli/alien_stimuli/11.png,,,,,,,,,,,,,,,,,,,,,,,,,,,,,stimuli/alien_stimuli/51.png,51,4,31,,,,,,,30,,,,,,,,802.412479700055,802.412479700055,802.412479700055,802.412479700055,802.412479700055,right,3.1074588999617845,12,0,0,99,0.08,-0.24,right,2.9782770999590866,,,,,800.8190404000343,802.412479700055,0.24,-0.4,0.0,0.08,-0.4,0.24,0.2,0.24,-0.4,799.651124200027,799.651124200027,799.651124200027,799.651124200027,799.651124200027,799.651124200027,799.651124200027,799.651124200027,799.63453118006,1.3034897999605164,return,1.1442135000252165,,,,,,,,,,,,,,,,,,,,,,,,,,,,,,,,,UH55MW,train_x,blue_star,bottom_left,2024-12-16_17h32.21.613,HideSeek_v1,2022.2.5,59.980554288900876,
,2,2,7,2,5,0,11,,train_dim1_1,30,30,,,,2,0,2,0,,,,,,,,,0,0,0,0,0,29,29,29,1,0,1,0,,,,,,,,,,,,,,,,,,,,,,,,,,,,,,,,,,,,,,,,,,,,,,,,,,,,,,,,,,,,,,,,30,,,,,,,,805.4942233000183,805.4942233000183,805.4942233000183,805.4942233000183,805.4942233000183,right,0.30936439998913556,12,0,0,99,0.16,-0.24,right,0.22404300002381206,,,,,,,,,,,,,,,,,,,,,,,,,,,,,,,,,,,,,,,,,,,,,,,,,,,,,,,,,,,,UH55MW,train_x,blue_star,bottom_left,2024-12-16_17h32.21.613,HideSeek_v1,2022.2.5,59.980554288900876,
,2,2,7,2,5,0,11,,train_dim1_1,30,30,,,,2,0,2,0,,,,,,,,,0,0,0,0,0,29,29,29,2,0,2,0,,,,,,,,,,,,,,,,,,,,,,,,,,,,,,,,,,,,,,,,,,,,,,,,,,,,,,,,,,,,,,,,30,,,,,,,,805.8158741000225,805.8158741000225,805.8158741000225,805.8158741000225,805.8158741000225,right,0.30938120000064373,12,0,0,99,0.24,-0.24,right,0.21467329998267815,,,,,,,,,,,,,,,,,,,,,,,,,,,,,,,,,,,,,,,,,,,,,,,,,,,,,,,,,,,,UH55MW,train_x,blue_star,bottom_left,2024-12-16_17h32.21.613,HideSeek_v1,2022.2.5,59.980554288900876,
,2,2,7,2,5,0,11,,train_dim1_1,30,30,,,,2,0,2,0,,,,,,,,,0,0,0,0,0,29,29,29,3,0,3,0,,,,,,,,,,,,,,,,,,,,,,,,,,,,,,,,,,,,,,,,,,,,,,,,,,,,,,,,,,,,,,,,30,,,,,,,,806.1276280000457,806.1276280000457,806.1276280000457,806.1276280000457,806.1276280000457,right,0.4266240000142716,12,0,0,99,0.32,-0.24,right,0.3415028000017628,,,,,,,,,,,,,,,,,,,,,,,,,,,,,,,,,,,,,,,,,,,,,,,,,,,,,,,,,,,,UH55MW,train_x,blue_star,bottom_left,2024-12-16_17h32.21.613,HideSeek_v1,2022.2.5,59.980554288900876,
,2,2,7,2,5,0,11,,train_dim1_1,30,30,,,,2,0,2,0,,,,,,,,,0,0,0,0,0,29,29,29,4,0,4,0,,,,,,,,,,,,,,,,,,,,,,,,,,,,,,,,,,,,,,,,,,,,,,,,,,,,,,,,,,,,,,,,30,,,,,,,,806.5627922000131,806.5627922000131,806.5627922000131,806.5627922000131,806.5627922000131,right,0.37663959997007623,12,0,0,99,0.4,-0.24,right,0.2947621999774128,,,,,,,,,,,,,,,,,,,,,,,,,,,,,,,,,,,,,,,,,,,,,,,,,,,,,,,,,,,,UH55MW,train_x,blue_star,bottom_left,2024-12-16_17h32.21.613,HideSeek_v1,2022.2.5,59.980554288900876,
,2,2,7,2,5,0,11,,train_dim1_1,30,30,,,,2,0,2,0,,,,,,,,,0,0,0,0,0,29,29,29,5,0,5,0,,,,,,,,,,,,,,,,,,,,,,,,,,,,,,,,,,,,,,,,,,,,,,,,,,,,,,,,,,,,,,,,30,,,,,,,,806.9452765000169,806.9452765000169,806.9452765000169,806.9452765000169,806.9452765000169,return,0.6764093000092544,13,0,0,1,0.4,-0.24,return,0.5897410000325181,0,51,0.4,-0.24,,,,,,,,,,,,,,,,,,,,,,,,,,,,,,,,,,,,,,,,,,,,,,,,,,,,,,,,UH55MW,train_x,blue_star,bottom_left,2024-12-16_17h32.21.613,HideSeek_v1,2022.2.5,59.980554288900876,
,,,,,,,,,,,30,,,,2,0,2,0,,,,,,,,,,,,,,,,,,,,,,,,,,,,,,,,,,,,,,,,,,,,,,,,,,,,,,,,,,,,,,,,,,,,,,,,,,stimuli/alien_stimuli/11.png,11,2,32,21,0.7,0.5416666666666667,1,1,1,30,0,conditions/schedules/train_x_first/blue_star_00/bottom_left/inputTrain_2.1.xlsx,99,1,2,1,0,,,,,,,,,,,1,,,,,,,,,810.3101333000232,811.9601584000047,0.4,-0.24,0.0,0.4,-0.24,0.4,0.2,0.4,-0.24,809.1915912000113,809.1915912000113,809.1915912000113,809.1915912000113,809.1915912000113,809.1915912000113,809.1915912000113,809.1915912000113,809.1759796200436,1.2367430999875069,return,1.1001897000242025,0,0.9,0,1,13,,,,,,,,,,,,,,,,,,,,,,,,,,,,UH55MW,train_x,blue_star,bottom_left,2024-12-16_17h32.21.613,HideSeek_v1,2022.2.5,59.980554288900876,
,,,,,,,,,,,,,,,3,0,3,0,0,0,0,0,,,,,,,,,,,,,,,,,,,,,,,,,,,,,,,conditions/schedules/train_x_first/blue_star_00/bottom_left/instructions/Slide17.png,conditions/schedules/train_x_first/blue_star_00/bottom_left/instructions/Audio17.wav,811.9601584000047,811.9616283000214,17,"[4.162787300010677, 18.273090600036085, 16.985286599956453, 19.705787499959115, 4.836871500010602, 5.002451199979987, 5.545152299979236, 11.763967800012324, 6.134689400030766, 7.451260000001639, 10.355142300017178, 12.547176200023387, 20.37279310001759, 13.343900199979544, 30.19334830000298, 22.22216160001699, 36.71303490002174]","[4.162794300005771, 18.27309700002661, 16.985293599951547, 19.705794199951924, 4.836878500005696, 5.002457999973558, 0.00021159998141229153, 11.76397430000361, 0.030607499997131526, 7.451267399999779, 10.355148700007703, 12.547183400020003, 20.372800900018774, 13.3439068000298, 30.193356000003405, 22.222168200009037, 36.71304240002064]",0,,,,,,,,,,,,,,,,,,,,,,,,,,,,,,,,,,,,,,,,,,,,,,,,,,,,,,,,,,,,,,,,,,,,,,,,,,,,,,,,,,,,,,,,,,,,,,,,,,,,,,,,,,,,,,,,,,,,,,,,,,,,UH55MW,train_x,blue_star,bottom_left,2024-12-16_17h32.21.613,HideSeek_v1,2022.2.5,59.980554288900876,
,,,,,,,,,,,,,,,3,0,3,0,1,0,1,0,,,,,,,,,,,,,,,,,,,,,,,,,,,,,,,conditions/schedules/train_x_first/blue_star_00/bottom_left/instructions/Slide18.png,conditions/schedules/train_x_first/blue_star_00/bottom_left/instructions/Audio18.wav,848.7696261000237,848.7592529600486,18,"[4.162787300010677, 18.273090600036085, 16.985286599956453, 19.705787499959115, 4.836871500010602, 5.002451199979987, 5.545152299979236, 11.763967800012324, 6.134689400030766, 7.451260000001639, 10.355142300017178, 12.547176200023387, 20.37279310001759, 13.343900199979544, 30.19334830000298, 22.22216160001699, 36.71303490002174, 6.308765100024175]","[4.162794300005771, 18.27309700002661, 16.985293599951547, 19.705794199951924, 4.836878500005696, 5.002457999973558, 0.00021159998141229153, 11.76397430000361, 0.030607499997131526, 7.451267399999779, 10.355148700007703, 12.547183400020003, 20.372800900018774, 13.3439068000298, 30.193356000003405, 22.222168200009037, 36.71304240002064, 6.308772000018507]",0,,,,,,,,,,,,,,,,,,,,,,,,,,,,,,,,,,,,,,,,,,,,,,,,,,,,,,,,,,,,,,,,,,,,,,,,,,,,,,,,,,,,,,,,,,,,,,,,,,,,,,,,,,,,,,,,,,,,,,,,,,,,UH55MW,train_x,blue_star,bottom_left,2024-12-16_17h32.21.613,HideSeek_v1,2022.2.5,59.980554288900876,
,,,,,,,,,,,,,,,3,0,3,0,2,0,2,0,,,,,,,,,,,,,,,,,,,,,,,,,,,,,,,conditions/schedules/train_x_first/blue_star_00/bottom_left/instructions/Slide19.png,conditions/schedules/train_x_first/blue_star_00/bottom_left/instructions/Audio19.wav,855.1679940000176,855.1644637600518,19,"[4.162787300010677, 18.273090600036085, 16.985286599956453, 19.705787499959115, 4.836871500010602, 5.002451199979987, 5.545152299979236, 11.763967800012324, 6.134689400030766, 7.451260000001639, 10.355142300017178, 12.547176200023387, 20.37279310001759, 13.343900199979544, 30.19334830000298, 22.22216160001699, 36.71303490002174, 6.308765100024175, 10.302267099963501]","[4.162794300005771, 18.27309700002661, 16.985293599951547, 19.705794199951924, 4.836878500005696, 5.002457999973558, 0.00021159998141229153, 11.76397430000361, 0.030607499997131526, 7.451267399999779, 10.355148700007703, 12.547183400020003, 20.372800900018774, 13.3439068000298, 30.193356000003405, 22.222168200009037, 36.71304240002064, 6.308772000018507, 10.30227379995631]",0,,,,,,,,,,,,,,,,,,,,,,,,,,,,,,,,,,,,,,,,,,,,,,,,,,,,,,,,,,,,,,,,,,,,,,,,,,,,,,,,,,,,,,,,,,,,,,,,,,,,,,,,,,,,,,,,,,,,,,,,,,,,UH55MW,train_x,blue_star,bottom_left,2024-12-16_17h32.21.613,HideSeek_v1,2022.2.5,59.980554288900876,
,,,,,,,,,,,,,,,3,0,3,0,3,0,3,0,,,,,,,,,,,,,,,,,,,,,,,,,,,,,,,conditions/schedules/train_x_first/blue_star_00/bottom_left/instructions/Slide20.png,conditions/schedules/train_x_first/blue_star_00/bottom_left/instructions/Audio20.wav,865.6033662000555,865.5894672800554,20,"[4.162787300010677, 18.273090600036085, 16.985286599956453, 19.705787499959115, 4.836871500010602, 5.002451199979987, 5.545152299979236, 11.763967800012324, 6.134689400030766, 7.451260000001639, 10.355142300017178, 12.547176200023387, 20.37279310001759, 13.343900199979544, 30.19334830000298, 22.22216160001699, 36.71303490002174, 6.308765100024175, 10.302267099963501, 13.829768600000534]","[4.162794300005771, 18.27309700002661, 16.985293599951547, 19.705794199951924, 4.836878500005696, 5.002457999973558, 0.00021159998141229153, 11.76397430000361, 0.030607499997131526, 7.451267399999779, 10.355148700007703, 12.547183400020003, 20.372800900018774, 13.3439068000298, 30.193356000003405, 22.222168200009037, 36.71304240002064, 6.308772000018507, 10.30227379995631, 13.829774899990298]",0,,,,,,,,,,,,,,,,,,,,,,,,,,,,,,,,,,,,,,,,,,,,,,,,,,,,,,,,,,,,,,,,,,,,,,,,,,,,,,,,,,,,,,,,,,,,,,,,,,,,,,,,,,,,,,,,,,,,,,,,,,,,UH55MW,train_x,blue_star,bottom_left,2024-12-16_17h32.21.613,HideSeek_v1,2022.2.5,59.980554288900876,
1,0,3,0,8,0,5,66,2,instr_dim1_2,,,,,,3,0,3,0,,,,,0,0,0,0,,,,,,,,,,,,,,,,,,,,,,,,,,,,,,,,,,,,,stimuli/alien_stimuli/66.png,conditions/schedules/train_x_first/blue_star_00/bottom_left/inputInstr_2.xlsx,stimuli/alien_stimuli/66.png,879.550348800025,879.550348800025,879.550348800025,879.550348800025,879.5513022800209,return,6.334804399986751,"[-0.16, -0.08, 0, 0.08, 0.16, 0.24, 0.32, 0.4, 0.48, 0.56]","[-0.4, -0.32, -0.24, -0.16, -0.08, 0, 0.08, 0.16, 0.24, 0.32]",8,3,0,0,0.4,0.0,886.0365470000543,886.0365470000543,886.0365470000543,886.0365470000543,886.0365470000543,886.0365470000543,886.0365470000543,886.0231163800694,7.390449200000148,return,7.238963000010699,stimuli/alien_stimuli/66.png,66,0,1,,,,,,,,,,,,,,,,,,,,,,,,,,,,,,,,,,,,,,,,,,,,,,,,,,,,,,,,,,,,,,,,,,,,,,,,,,,,,,,,,,,,,,,,,UH55MW,train_x,blue_star,bottom_left,2024-12-16_17h32.21.613,HideSeek_v1,2022.2.5,59.980554288900876,
,,,,,,,,,,,30,,,,3,0,3,0,,,,,,,,,,,,,,,,,,,,,,,,,,,,,,,,,,,,,,,,,,,,,,,,,,,,,,,,,,,,,,,,,,,,,,,,,,,,,,21,0.7,0.5416666666666667,1,99,2,30,0,conditions/schedules/train_x_first/blue_star_00/bottom_left/inputTrain_2.1.xlsx,99,1,2,1,0,,,,,,,,,,,,,,,,,,,,,,,,,,,,,,,,,,,,,,,,,,,,,,,,,,,,,,,,,,,,,,,,,,,,,,,,,,,UH55MW,train_x,blue_star,bottom_left,2024-12-16_17h32.21.613,HideSeek_v1,2022.2.5,59.980554288900876,
,,,,,,,,,,,,,,,4,0,4,0,0,0,0,0,,,,,,,,,,,,,,,,,,,,,,,,,,,,,,,conditions/schedules/train_x_first/blue_star_00/bottom_left/instructions/Slide21.png,conditions/schedules/train_x_first/blue_star_00/bottom_left/instructions/Audio21.wav,893.5468287000549,893.5458924600505,21,"[4.162787300010677, 18.273090600036085, 16.985286599956453, 19.705787499959115, 4.836871500010602, 5.002451199979987, 5.545152299979236, 11.763967800012324, 6.134689400030766, 7.451260000001639, 10.355142300017178, 12.547176200023387, 20.37279310001759, 13.343900199979544, 30.19334830000298, 22.22216160001699, 36.71303490002174, 6.308765100024175, 10.302267099963501, 13.829768600000534, 16.710500300046988]","[4.162794300005771, 18.27309700002661, 16.985293599951547, 19.705794199951924, 4.836878500005696, 5.002457999973558, 0.00021159998141229153, 11.76397430000361, 0.030607499997131526, 7.451267399999779, 10.355148700007703, 12.547183400020003, 20.372800900018774, 13.3439068000298, 30.193356000003405, 22.222168200009037, 36.71304240002064, 6.308772000018507, 10.30227379995631, 13.829774899990298, 16.710508300049696]",0,,,,,,,,,,,,,,,,,,,,,,,,,,,,,,,,,,,,,,,,,,,,,,,,,,,,,,,,,,,,,,,,,,,,,,,,,,,,,,,,,,,,,,,,,,,,,,,,,,,,,,,,,,,,,,,,,,,,,,,,,,,,UH55MW,train_x,blue_star,bottom_left,2024-12-16_17h32.21.613,HideSeek_v1,2022.2.5,59.980554288900876,
2,2,3,2,3,0,0,61,2,instr_dim1_2,,,,,,4,0,4,0,,,,,0,0,0,0,,,,,,,,,,,,,,,,,,,,,,,,,,,,,,,,,,,,,stimuli/alien_stimuli/61.png,conditions/schedules/train_x_first/blue_star_00/bottom_left/inputInstr_2.xlsx,stimuli/alien_stimuli/61.png,910.3815410000389,910.3815410000389,910.3815410000389,910.3815410000389,910.3769755800371,return,2.914019499963615,"[-0.16, -0.08, 0, 0.08, 0.16, 0.24, 0.32, 0.4, 0.48, 0.56]","[-0.4, -0.32, -0.24, -0.16, -0.08, 0, 0.08, 0.16, 0.24, 0.32]",3,3,2,2,0.0,0.0,913.4435314000002,913.4435314000002,913.4435314000002,913.4435314000002,913.4435314000002,913.4435314000002,913.4435314000002,913.4291535800206,7.473673300002702,return,7.31112700002268,stimuli/alien_stimuli/61.png,61,2,2,,,,,,,,,,,,,,,,,,,,,,,,,,,,,,,,,,,,,,,,,,,,,,,,,,,,,,,,,,,,,,,,,,,,,,,,,,,,,,,,,,,,,,,,,UH55MW,train_x,blue_star,bottom_left,2024-12-16_17h32.21.613,HideSeek_v1,2022.2.5,59.980554288900876,
,,,,,,,,,,,30,,,,4,0,4,0,,,,,,,,,,,,,,,,,,,,,,,,,,,,,,,,,,,,,,,,,,,,,,,,,,,,,,,,,,,,,,,,,,,,,,,,,,,,,,21,0.7,0.5416666666666667,1,99,2,30,0,conditions/schedules/train_x_first/blue_star_00/bottom_left/inputTrain_2.1.xlsx,99,1,2,1,0,,,,,,,,,,,,,,,,,,,,,,,,,,,,,,,,,,,,,,,,,,,,,,,,,,,,,,,,,,,,,,,,,,,,,,,,,,,UH55MW,train_x,blue_star,bottom_left,2024-12-16_17h32.21.613,HideSeek_v1,2022.2.5,59.980554288900876,
,,,,,,,,,,,,,,,5,0,5,0,0,0,0,0,,,,,,,,,,,,,,,,,,,,,,,,,,,,,,,conditions/schedules/train_x_first/blue_star_00/bottom_left/instructions/Slide22.png,conditions/schedules/train_x_first/blue_star_00/bottom_left/instructions/Audio22.wav,921.0961816000054,921.0854644400416,22,"[4.162787300010677, 18.273090600036085, 16.985286599956453, 19.705787499959115, 4.836871500010602, 5.002451199979987, 5.545152299979236, 11.763967800012324, 6.134689400030766, 7.451260000001639, 10.355142300017178, 12.547176200023387, 20.37279310001759, 13.343900199979544, 30.19334830000298, 22.22216160001699, 36.71303490002174, 6.308765100024175, 10.302267099963501, 13.829768600000534, 16.710500300046988, 44.073823099955916]","[4.162794300005771, 18.27309700002661, 16.985293599951547, 19.705794199951924, 4.836878500005696, 5.002457999973558, 0.00021159998141229153, 11.76397430000361, 0.030607499997131526, 7.451267399999779, 10.355148700007703, 12.547183400020003, 20.372800900018774, 13.3439068000298, 30.193356000003405, 22.222168200009037, 36.71304240002064, 6.308772000018507, 10.30227379995631, 13.829774899990298, 16.710508300049696, 44.07383079995634]",0,,,,,,,,,,,,,,,,,,,,,,,,,,,,,,,,,,,,,,,,,,,,,,,,,,,,,,,,,,,,,,,,,,,,,,,,,,,,,,,,,,,,,,,,,,,,,,,,,,,,,,,,,,,,,,,,,,,,,,,,,,,,UH55MW,train_x,blue_star,bottom_left,2024-12-16_17h32.21.613,HideSeek_v1,2022.2.5,59.980554288900876,
,0,0,0,4,0,4,65,,train_dim1_2,1,30,,,,5,0,5,0,,,,,,,,,0,0,0,0,0,0,0,0,0,0,0,0,,,,,,,,,,,,,,,,,,,,,,,,,stimuli/alien_stimuli/65.png,,,,,,,,,,,,,,,,,,,,,,,,,,,,,,,,,,,,,,,30,,,,,,,,965.3137091000099,965.3137091000099,965.3137091000099,965.3137091000099,965.3137091000099,up,5.469685800024308,0,0,0,99,-0.16,-0.32,up,5.3398729000473395,,,,,,,,,,,,,,,,,,,,,,,,,,,,,,,,,,,,,,,,,,,,,,,,,,,,,,,,,,,,UH55MW,train_x,blue_star,bottom_left,2024-12-16_17h32.21.613,HideSeek_v1,2022.2.5,59.980554288900876,
,0,0,0,4,0,4,65,,train_dim1_2,1,30,,,,5,0,5,0,,,,,,,,,0,0,0,0,0,0,0,0,1,0,1,0,,,,,,,,,,,,,,,,,,,,,,,,,,,,,,,,,,,,,,,,,,,,,,,,,,,,,,,,,,,,,,,,30,,,,,,,,970.7425135000376,970.7425135000376,970.7425135000376,970.7425135000376,970.7425135000376,up,0.37593350000679493,0,0,0,99,-0.16,-0.24,up,0.29890430002706125,,,,,,,,,,,,,,,,,,,,,,,,,,,,,,,,,,,,,,,,,,,,,,,,,,,,,,,,,,,,UH55MW,train_x,blue_star,bottom_left,2024-12-16_17h32.21.613,HideSeek_v1,2022.2.5,59.980554288900876,
,0,0,0,4,0,4,65,,train_dim1_2,1,30,,,,5,0,5,0,,,,,,,,,0,0,0,0,0,0,0,0,2,0,2,0,,,,,,,,,,,,,,,,,,,,,,,,,,,,,,,,,,,,,,,,,,,,,,,,,,,,,,,,,,,,,,,,30,,,,,,,,971.1295497000101,971.1295497000101,971.1295497000101,971.1295497000101,971.1295497000101,up,0.3569038999848999,0,0,0,99,-0.16,-0.15999999999999998,up,0.26567439996870235,,,,,,,,,,,,,,,,,,,,,,,,,,,,,,,,,,,,,,,,,,,,,,,,,,,,,,,,,,,,UH55MW,train_x,blue_star,bottom_left,2024-12-16_17h32.21.613,HideSeek_v1,2022.2.5,59.980554288900876,
,0,0,0,4,0,4,65,,train_dim1_2,1,30,,,,5,0,5,0,,,,,,,,,0,0,0,0,0,0,0,0,3,0,3,0,,,,,,,,,,,,,,,,,,,,,,,,,,,,,,,,,,,,,,,,,,,,,,,,,,,,,,,,,,,,,,,,30,,,,,,,,971.4931339000468,971.4931339000468,971.4931339000468,971.4931339000468,971.4931339000468,up,0.32633979996899143,0,0,0,99,-0.16,-0.07999999999999997,up,0.24043349997373298,,,,,,,,,,,,,,,,,,,,,,,,,,,,,,,,,,,,,,,,,,,,,,,,,,,,,,,,,,,,UH55MW,train_x,blue_star,bottom_left,2024-12-16_17h32.21.613,HideSeek_v1,2022.2.5,59.980554288900876,
,0,0,0,4,0,4,65,,train_dim1_2,1,30,,,,5,0,5,0,,,,,,,,,0,0,0,0,0,0,0,0,4,0,4,0,,,,,,,,,,,,,,,,,,,,,,,,,,,,,,,,,,,,,,,,,,,,,,,,,,,,,,,,,,,,,,,,30,,,,,,,,971.8268726000097,971.8268726000097,971.8268726000097,971.8268726000097,971.8268726000097,return,0.7769700000062585,1,0,0,1,-0.16,-0.07999999999999997,return,0.7024149000062607,4,51,-0.16,-0.07999999999999997,,,,,,,,,,,,,,,,,,,,,,,,,,,,,,,,,,,,,,,,,,,,,,,,,,,,,,,,UH55MW,train_x,blue_star,bottom_left,2024-12-16_17h32.21.613,HideSeek_v1,2022.2.5,59.980554288900876,
,3,2,3,7,0,5,66,,train_dim1_2,2,30,,,,5,0,5,0,,,,,,,,,0,0,0,0,0,1,1,1,0,0,0,0,,,,,,,,,,,,,,,,,,,,,,,,,stimuli/alien_stimuli/66.png,,,,,,,,,,,,,,,,,,,,,,,,,,,,,stimuli/alien_stimuli/65.png,65,0,3,,,,,,,30,,,,,,,,978.4283807000029,978.4283807000029,978.4283807000029,978.4283807000029,978.4283807000029,up,3.1077976999804378,1,0,0,99,0.08,-0.15999999999999998,up,3.01625690003857,,,,,976.8656077000196,978.4283807000029,-0.16,-0.08,0.32,0.0,-0.24000000000000002,-0.16,-0.16,-0.16,-0.08,974.1960853000055,974.1960853000055,974.1960853000055,974.1960853000055,974.1960853000055,974.1960853000055,974.1960853000055,974.1960853000055,974.1797912800452,2.8048990999814123,return,2.6415846000309102,,,,,,,,,,,,,,,,,,,,,,,,,,,,,,,,,UH55MW,train_x,blue_star,bottom_left,2024-12-16_17h32.21.613,HideSeek_v1,2022.2.5,59.980554288900876,
,3,2,3,7,0,5,66,,train_dim1_2,2,30,,,,5,0,5,0,,,,,,,,,0,0,0,0,0,1,1,1,1,0,1,0,,,,,,,,,,,,,,,,,,,,,,,,,,,,,,,,,,,,,,,,,,,,,,,,,,,,,,,,,,,,,,,,30,,,,,,,,981.5437952000066,981.5437952000066,981.5437952000066,981.5437952000066,981.5437952000066,up,0.2704191000084393,1,0,0,99,0.08,-0.07999999999999997,up,0.18823180004255846,,,,,,,,,,,,,,,,,,,,,,,,,,,,,,,,,,,,,,,,,,,,,,,,,,,,,,,,,,,,UH55MW,train_x,blue_star,bottom_left,2024-12-16_17h32.21.613,HideSeek_v1,2022.2.5,59.980554288900876,
,3,2,3,7,0,5,66,,train_dim1_2,2,30,,,,5,0,5,0,,,,,,,,,0,0,0,0,0,1,1,1,2,0,2,0,,,,,,,,,,,,,,,,,,,,,,,,,,,,,,,,,,,,,,,,,,,,,,,,,,,,,,,,,,,,,,,,30,,,,,,,,981.8217648999998,981.8217648999998,981.8217648999998,981.8217648999998,981.8217648999998,up,0.2928196999710053,1,0,0,99,0.08,2.7755575615628914e-17,up,0.21362700004829094,,,,,,,,,,,,,,,,,,,,,,,,,,,,,,,,,,,,,,,,,,,,,,,,,,,,,,,,,,,,UH55MW,train_x,blue_star,bottom_left,2024-12-16_17h32.21.613,HideSeek_v1,2022.2.5,59.980554288900876,
,3,2,3,7,0,5,66,,train_dim1_2,2,30,,,,5,0,5,0,,,,,,,,,0,0,0,0,0,1,1,1,3,0,3,0,,,,,,,,,,,,,,,,,,,,,,,,,,,,,,,,,,,,,,,,,,,,,,,,,,,,,,,,,,,,,,,,30,,,,,,,,982.1198624000535,982.1198624000535,982.1198624000535,982.1198624000535,982.1198624000535,up,0.2428871999727562,1,0,0,99,0.08,0.08000000000000003,up,0.1674250999931246,,,,,,,,,,,,,,,,,,,,,,,,,,,,,,,,,,,,,,,,,,,,,,,,,,,,,,,,,,,,UH55MW,train_x,blue_star,bottom_left,2024-12-16_17h32.21.613,HideSeek_v1,2022.2.5,59.980554288900876,
,3,2,3,7,0,5,66,,train_dim1_2,2,30,,,,5,0,5,0,,,,,,,,,0,0,0,0,0,1,1,1,4,0,4,0,,,,,,,,,,,,,,,,,,,,,,,,,,,,,,,,,,,,,,,,,,,,,,,,,,,,,,,,,,,,,,,,30,,,,,,,,982.3688473000075,982.3688473000075,982.3688473000075,982.3688473000075,982.3688473000075,return,1.2771438999916427,1,1,0,0,0.08,0.08000000000000003,return,1.1995533999870531,8,51,0.08,0.08000000000000003,,,,,,,,,,,,,,,,,,,,,,,,,,,,,,,,,,,,,,,,,,,,,,,,,,,,,,,,UH55MW,train_x,blue_star,bottom_left,2024-12-16_17h32.21.613,HideSeek_v1,2022.2.5,59.980554288900876,
,2,3,2,6,0,3,64,,train_dim1_2,3,30,,,,5,0,5,0,,,,,,,,,0,0,0,0,0,2,2,2,0,0,0,0,,,,,,,,,,,,,,,,,,,,,,,,,stimuli/alien_stimuli/64.png,,,,,,,,,,,,,,,,,,,,,,,,,,,,,stimuli/alien_stimuli/66.png,66,3,4,,,,,,,30,,,,,,,,990.3837907000561,990.3837907000561,990.3837907000561,990.3837907000561,990.3837907000561,up,6.075579500000458,1,1,0,99,0,-0.08,up,5.976345799979754,,,,,988.8089394000126,985.2224511000095,0.08,0.16,0.4,0.0,-0.039999999999999994,0.08,0.08,0.08,0.16,985.2224511000095,985.2224511000095,985.2224511000095,985.2224511000095,985.2224511000095,985.2224511000095,985.2224511000095,985.2224511000095,985.2221398800378,3.7017613999778405,return,3.563036099949386,,,,,,,,,,,,,,,,,,,,,,,,,,,,,,,,,UH55MW,train_x,blue_star,bottom_left,2024-12-16_17h32.21.613,HideSeek_v1,2022.2.5,59.980554288900876,
,2,3,2,6,0,3,64,,train_dim1_2,3,30,,,,5,0,5,0,,,,,,,,,0,0,0,0,0,2,2,2,1,0,1,0,,,,,,,,,,,,,,,,,,,,,,,,,,,,,,,,,,,,,,,,,,,,,,,,,,,,,,,,,,,,,,,,30,,,,,,,,996.4476114000427,996.4476114000427,996.4476114000427,996.4476114000427,996.4476114000427,up,0.5428316000034101,1,1,0,99,0,0.0,up,0.4585369999986142,,,,,,,,,,,,,,,,,,,,,,,,,,,,,,,,,,,,,,,,,,,,,,,,,,,,,,,,,,,,UH55MW,train_x,blue_star,bottom_left,2024-12-16_17h32.21.613,HideSeek_v1,2022.2.5,59.980554288900876,
,2,3,2,6,0,3,64,,train_dim1_2,3,30,,,,5,0,5,0,,,,,,,,,0,0,0,0,0,2,2,2,2,0,2,0,,,,,,,,,,,,,,,,,,,,,,,,,,,,,,,,,,,,,,,,,,,,,,,,,,,,,,,,,,,,,,,,30,,,,,,,,996.9976423000335,996.9976423000335,996.9976423000335,996.9976423000335,996.9976423000335,return,0.8935179999680258,1,1,0,0,0,0.0,return,0.8106967000057921,10,51,0,0.0,,,,,,,,,,,,,,,,,,,,,,,,,,,,,,,,,,,,,,,,,,,,,,,,,,,,,,,,UH55MW,train_x,blue_star,bottom_left,2024-12-16_17h32.21.613,HideSeek_v1,2022.2.5,59.980554288900876,
,0,1,0,2,0,1,62,,train_dim1_2,4,30,,,,5,0,5,0,,,,,,,,,0,0,0,0,0,3,3,3,0,0,0,0,,,,,,,,,,,,,,,,,,,,,,,,,stimuli/alien_stimuli/62.png,,,,,,,,,,,,,,,,,,,,,,,,,,,,,stimuli/alien_stimuli/64.png,64,2,5,,,,,,,30,,,,,,,,1004.0032127000159,1004.0032127000159,1004.0032127000159,1004.0032127000159,1004.0032127000159,return,4.58880849997513,1,1,0,0,-0.16,-0.32,return,4.461575399967842,10,51,-0.16,-0.32,1002.4032786000171,1004.0032127000159,0,0.08,0.24,0.0,-0.04,0,0.0,0,0.08,999.4706584000378,999.4706584000378,999.4706584000378,999.4706584000378,999.4706584000378,999.4706584000378,999.4706584000378,999.4706584000378,999.4675093800528,3.0545634999871254,return,2.9002507000113837,,,,,,,,,,,,,,,,,,,,,,,,,,,,,,,,,UH55MW,train_x,blue_star,bottom_left,2024-12-16_17h32.21.613,HideSeek_v1,2022.2.5,59.980554288900876,
,3,3,3,3,0,0,61,,train_dim1_2,5,30,,,,5,0,5,0,,,,,,,,,0,0,0,0,0,4,4,4,0,0,0,0,,,,,,,,,,,,,,,,,,,,,,,,,stimuli/alien_stimuli/61.png,,,,,,,,,,,,,,,,,,,,,,,,,,,,,stimuli/alien_stimuli/62.png,62,0,6,,,,,,,30,,,,,,,,1014.5608028999995,1014.5608028999995,1014.5608028999995,1014.5608028999995,1014.5608028999995,return,4.9903738999855705,2,0,0,1,0.08,-0.16,return,4.904653599951416,10,51,0.08,-0.16,1012.9959844000405,1014.5608028999995,-0.16,-0.24,0.08,0.0,-0.28,-0.16,-0.16,-0.16,-0.24,1010.1223319000565,1010.1223319000565,1010.1223319000565,1010.1223319000565,1010.1223319000565,1010.1223319000565,1010.1223319000565,1010.1223319000565,1010.1094742200453,2.988683299976401,return,2.8471073000109755,,,,,,,,,,,,,,,,,,,,,,,,,,,,,,,,,UH55MW,train_x,blue_star,bottom_left,2024-12-16_17h32.21.613,HideSeek_v1,2022.2.5,59.980554288900876,
,1,4,1,5,0,1,62,,train_dim1_2,6,30,,,,5,0,5,0,,,,,,,,,0,0,0,0,0,5,5,5,0,0,0,0,,,,,,,,,,,,,,,,,,,,,,,,,stimuli/alien_stimuli/62.png,,,,,,,,,,,,,,,,,,,,,,,,,,,,,stimuli/alien_stimuli/61.png,61,3,7,,,,,,,30,,,,,,,,1024.1100399999996,1024.1100399999996,1024.1100399999996,1024.1100399999996,1024.1100399999996,up,3.5400744000216946,2,0,0,99,-0.08,0.0,up,3.4569914000458084,,,,,1022.553175900015,1024.1100399999996,0.08,-0.16,0.0,0.0,-0.16,0.08,0.08,0.08,-0.16,1021.121242800029,1021.121242800029,1021.121242800029,1021.121242800029,1021.121242800029,1021.121242800029,1021.121242800029,1021.121242800029,1021.1188330800272,1.5538130000350066,return,1.4164108000113629,,,,,,,,,,,,,,,,,,,,,,,,,,,,,,,,,UH55MW,train_x,blue_star,bottom_left,2024-12-16_17h32.21.613,HideSeek_v1,2022.2.5,59.980554288900876,
,1,4,1,5,0,1,62,,train_dim1_2,6,30,,,,5,0,5,0,,,,,,,,,0,0,0,0,0,5,5,5,1,0,1,0,,,,,,,,,,,,,,,,,,,,,,,,,,,,,,,,,,,,,,,,,,,,,,,,,,,,,,,,,,,,,,,,30,,,,,,,,1027.6634826000081,1027.6634826000081,1027.6634826000081,1027.6634826000081,1027.6634826000081,return,0.6880837999633513,3,0,0,1,-0.08,0.0,return,0.6108066000160761,11,51,-0.08,0.0,,,,,,,,,,,,,,,,,,,,,,,,,,,,,,,,,,,,,,,,,,,,,,,,,,,,,,,,UH55MW,train_x,blue_star,bottom_left,2024-12-16_17h32.21.613,HideSeek_v1,2022.2.5,59.980554288900876,
,1,3,1,6,0,3,64,,train_dim1_2,7,30,,,,5,0,5,0,,,,,,,,,0,0,0,0,0,6,6,6,0,0,0,0,,,,,,,,,,,,,,,,,,,,,,,,,stimuli/alien_stimuli/64.png,,,,,,,,,,,,,,,,,,,,,,,,,,,,,stimuli/alien_stimuli/62.png,62,1,8,,,,,,,30,,,,,,,,1033.2028064000187,1033.2028064000187,1033.2028064000187,1033.2028064000187,1033.2028064000187,up,3.1055399000179023,3,0,0,99,-0.08,-0.08,up,2.9899999999906868,,,,,1031.6105366000556,1033.2028064000187,-0.08,0,0.08,0.0,-0.04,-0.08,-0.08,-0.08,0,1029.907142900047,1029.907142900047,1029.907142900047,1029.907142900047,1029.907142900047,1029.907142900047,1029.907142900047,1029.907142900047,1029.8927359600318,1.8036533999838866,return,1.6721059000119567,,,,,,,,,,,,,,,,,,,,,,,,,,,,,,,,,UH55MW,train_x,blue_star,bottom_left,2024-12-16_17h32.21.613,HideSeek_v1,2022.2.5,59.980554288900876,
,1,3,1,6,0,3,64,,train_dim1_2,7,30,,,,5,0,5,0,,,,,,,,,0,0,0,0,0,6,6,6,1,0,1,0,,,,,,,,,,,,,,,,,,,,,,,,,,,,,,,,,,,,,,,,,,,,,,,,,,,,,,,,,,,,,,,,30,,,,,,,,1036.28090360004,1036.28090360004,1036.28090360004,1036.28090360004,1036.28090360004,up,0.659399600001052,3,0,0,99,-0.08,0.0,up,0.5687119000358507,,,,,,,,,,,,,,,,,,,,,,,,,,,,,,,,,,,,,,,,,,,,,,,,,,,,,,,,,,,,UH55MW,train_x,blue_star,bottom_left,2024-12-16_17h32.21.613,HideSeek_v1,2022.2.5,59.980554288900876,
,1,3,1,6,0,3,64,,train_dim1_2,7,30,,,,5,0,5,0,,,,,,,,,0,0,0,0,0,6,6,6,2,0,2,0,,,,,,,,,,,,,,,,,,,,,,,,,,,,,,,,,,,,,,,,,,,,,,,,,,,,,,,,,,,,,,,,30,,,,,,,,1036.947383300052,1036.947383300052,1036.947383300052,1036.947383300052,1036.947383300052,up,0.676727399986703,3,0,0,99,-0.08,0.08,up,0.6002227999852039,,,,,,,,,,,,,,,,,,,,,,,,,,,,,,,,,,,,,,,,,,,,,,,,,,,,,,,,,,,,UH55MW,train_x,blue_star,bottom_left,2024-12-16_17h32.21.613,HideSeek_v1,2022.2.5,59.980554288900876,
,1,3,1,6,0,3,64,,train_dim1_2,7,30,,,,5,0,5,0,,,,,,,,,0,0,0,0,0,6,6,6,3,0,3,0,,,,,,,,,,,,,,,,,,,,,,,,,,,,,,,,,,,,,,,,,,,,,,,,,,,,,,,,,,,,,,,,30,,,,,,,,1037.6311375000514,1037.6311375000514,1037.6311375000514,1037.6311375000514,1037.6311375000514,return,0.8599928999901749,4,0,0,1,-0.08,0.08,return,0.7695999999996275,14,51,-0.08,0.08,,,,,,,,,,,,,,,,,,,,,,,,,,,,,,,,,,,,,,,,,,,,,,,,,,,,,,,,UH55MW,train_x,blue_star,bottom_left,2024-12-16_17h32.21.613,HideSeek_v1,2022.2.5,59.980554288900876,
,4,2,4,2,0,0,61,,train_dim1_2,8,30,,,,5,0,5,0,,,,,,,,,0,0,0,0,0,7,7,7,0,0,0,0,,,,,,,,,,,,,,,,,,,,,,,,,stimuli/alien_stimuli/61.png,,,,,,,,,,,,,,,,,,,,,,,,,,,,,stimuli/alien_stimuli/64.png,64,1,9,,,,,,,30,,,,,,,,1042.8977165000397,1042.8977165000397,1042.8977165000397,1042.8977165000397,1042.8977165000397,up,4.0088614000123926,4,0,0,99,0.16,-0.15999999999999998,up,3.9204597999923863,,,,,1041.3356176000088,1042.8977165000397,-0.08,0.08,0.24,0.0,-0.04,-0.08,-0.08,-0.08,0.08,1040.0616720000398,1040.0616720000398,1040.0616720000398,1040.0616720000398,1040.0616720000398,1040.0616720000398,1040.0616720000398,1040.0616720000398,1040.051462720055,1.3862052999902517,return,1.2469480999861844,,,,,,,,,,,,,,,,,,,,,,,,,,,,,,,,,UH55MW,train_x,blue_star,bottom_left,2024-12-16_17h32.21.613,HideSeek_v1,2022.2.5,59.980554288900876,
,4,2,4,2,0,0,61,,train_dim1_2,8,30,,,,5,0,5,0,,,,,,,,,0,0,0,0,0,7,7,7,1,0,1,0,,,,,,,,,,,,,,,,,,,,,,,,,,,,,,,,,,,,,,,,,,,,,,,,,,,,,,,,,,,,,,,,30,,,,,,,,1046.9150926000439,1046.9150926000439,1046.9150926000439,1046.9150926000439,1046.9150926000439,return,0.7564556000288576,4,1,0,0,0.16,-0.15999999999999998,return,0.6653092000051402,15,51,0.16,-0.15999999999999998,,,,,,,,,,,,,,,,,,,,,,,,,,,,,,,,,,,,,,,,,,,,,,,,,,,,,,,,UH55MW,train_x,blue_star,bottom_left,2024-12-16_17h32.21.613,HideSeek_v1,2022.2.5,59.980554288900876,
