trialInstr,x_fixStart,y_fixStart,x_corrSteps,y_corrSteps,x_nrSteps,y_nrSteps,alienID,trialLength,version,trialTrain,praclen,testlen,trial_label,break_on_off,beforeExpLoop.thisRepN,beforeExpLoop.thisTrialN,beforeExpLoop.thisN,beforeExpLoop.thisIndex,mini_instr_trials.thisRepN,mini_instr_trials.thisTrialN,mini_instr_trials.thisN,mini_instr_trials.thisIndex,instrLoop.thisRepN,instrLoop.thisTrialN,instrLoop.thisN,instrLoop.thisIndex,repeat_prac.thisRepN,repeat_prac.thisTrialN,repeat_prac.thisN,repeat_prac.thisIndex,trainLoop.thisRepN,trainLoop.thisTrialN,trainLoop.thisN,trainLoop.thisIndex,moveLoop_train.thisRepN,moveLoop_train.thisTrialN,moveLoop_train.thisN,moveLoop_train.thisIndex,experiment.thisRepN,experiment.thisTrialN,experiment.thisN,experiment.thisIndex,moveLoop_test.thisRepN,moveLoop_test.thisTrialN,moveLoop_test.thisN,moveLoop_test.thisIndex,mini_instr2_trials.thisRepN,mini_instr2_trials.thisTrialN,mini_instr2_trials.thisN,mini_instr2_trials.thisIndex,start_all_time,url,slideStim,audioStim,slides.started,sounds.started,nextButton.numClicks,nextButton.timesOn,nextButton.timesOff,prev_but.numClicks,prev_but.timesOn,prev_but.timesOff,alienStim,instrFile,alienStim_instr,gridImage_instr.started,startPos_3.started,key_instr.started,alienImage_3.started,sounds_1.started,key_instr.keys,key_instr.rt,all_x,all_y,FBy_corrSteps,FBy_fixStart,FBx_corrSteps,FBx_fixStart,FBy_pathSize_check,FBx_pathSize_check,gridImage_9.started,alienImageFB_3.started,startPosFB_3.started,keyFB_3.started,pathLine_ydir_2.started,pathLine_xdir_2.started,alienFace_3.started,sounds_2.started,RTFB_instr,keyFB_3.keys,keyFB_3.rt,draw_alienStim,draw_alienID,test_x,nrepcount,perfthres,percthres,earlierperf,earlystop,nextPrac,fileidx,praclen,saveACC_train,pracFile,nextPrac_train,addNrep,fileidx_endr,repExp,showearly,gridImage_4.started,startPos.started,movePos.started,key_resp.started,alienImage.started,buttonPress_train,RTchoice_train,cumAcctrain,aCorr,saveACC_choice,corrAns,x_movePos_end,y_movePos_end,key_resp.keys,key_resp.rt,wLy_dir,wLx_dir,x_movePos,y_movePos,text_2.started,text_2.stopped,aft_x_corrPos,aft_y_corrPos,y_pathSize_check,x_pathSize_check,y_pathdirY,x_pathdirY,x_pathdirX,x_corrPos,y_corrPos,gridImage_6.started,alienImageFB_2.started,startPosFB_2.started,movePosFB_2.started,keyFB_2.started,pathLine_xdir.started,pathLine_ydir.started,alienFace.started,sounds_4.started,RT_FBtrain,keyFB_2.keys,keyFB_2.rt,saveACC_pre,ACC,within_saveACC_train,earlystop_wloop,cumAcctrain_check,gridImage_3.started,alienImage_test.started,startPos_test.started,movePos_test.started,key_resp_test.started,wLy_dir_test,wLx_dir_test,buttonPress_test,RTchoice_test,cumAcctest,corrAns_test,key_resp_test.keys,key_resp_test.rt,text_3.started,text_3.stopped,total_time,end_all_time,key_resp_3.keys,slides_2.started,sounds_3.started,nextButton_2.numClicks,nextButton_2.timesOn,nextButton_2.timesOff,prev_but_2.numClicks,prev_but_2.timesOn,prev_but_2.timesOff,bye.started,participant,train_first,00_coordinate,starting corner,date,expName,psychopyVersion,frameRate,
,,,,,,,,,,,,,,,0,0,0,0,0,0,0,0,,,,,,,,,,,,,,,,,,,,,,,,,,,,,start_all_time,testround,conditions/schedules/train_x_first/red_square_00/bottom_left/instructions/Slide1.png,conditions/schedules/train_x_first/red_square_00/bottom_left/instructions/Audio1.wav,128.15397870028391,128.09617830254138,1,[3.955815200228244],[3.955825800076127],0,,,,,,,,,,,,,,,,,,,,,,,,,,,,,,,,,,,,,,,,,,,,,,,,,,,,,,,,,,,,,,,,,,,,,,,,,,,,,,,,,,,,,,,,,,,,,,,,,,,,,,,,,,,,,,,,,,,,,,,,,,,,UJD902,train_x,red_square,bottom_left,2025-04-15_10h09.10.890,HideSeek_v1,2022.2.5,59.949486666433344,
,,,,,,,,,,,,,,,0,0,0,0,1,0,1,0,,,,,,,,,,,,,,,,,,,,,,,,,,,,,,,conditions/schedules/train_x_first/red_square_00/bottom_left/instructions/Slide2.png,conditions/schedules/train_x_first/red_square_00/bottom_left/instructions/Audio2.wav,132.1285671000369,132.1306178001687,2,"[3.955815200228244, 17.914684900082648]","[0.0002687000669538975, 17.914691800251603]",0,,,,,,,,,,,,,,,,,,,,,,,,,,,,,,,,,,,,,,,,,,,,,,,,,,,,,,,,,,,,,,,,,,,,,,,,,,,,,,,,,,,,,,,,,,,,,,,,,,,,,,,,,,,,,,,,,,,,,,,,,,,,UJD902,train_x,red_square,bottom_left,2025-04-15_10h09.10.890,HideSeek_v1,2022.2.5,59.949486666433344,
,,,,,,,,,,,,,,,0,0,0,0,2,0,2,0,,,,,,,,,,,,,,,,,,,,,,,,,,,,,,,conditions/schedules/train_x_first/red_square_00/bottom_left/instructions/Slide3.png,conditions/schedules/train_x_first/red_square_00/bottom_left/instructions/Audio3.wav,150.111505900044,150.1120335003361,3,"[3.955815200228244, 17.914684900082648, 16.861677799839526]","[0.0002687000669538975, 0.031568399630486965, 16.861683999653906]",0,,,,,,,,,,,,,,,,,,,,,,,,,,,,,,,,,,,,,,,,,,,,,,,,,,,,,,,,,,,,,,,,,,,,,,,,,,,,,,,,,,,,,,,,,,,,,,,,,,,,,,,,,,,,,,,,,,,,,,,,,,,,UJD902,train_x,red_square,bottom_left,2025-04-15_10h09.10.890,HideSeek_v1,2022.2.5,59.949486666433344,
,,,,,,,,,,,,,,,0,0,0,0,3,0,3,0,,,,,,,,,,,,,,,,,,,,,,,,,,,,,,,conditions/schedules/train_x_first/red_square_00/bottom_left/instructions/Slide4.png,conditions/schedules/train_x_first/red_square_00/bottom_left/instructions/Audio4.wav,167.05332990037277,167.0425205002539,4,"[3.955815200228244, 17.914684900082648, 16.861677799839526, 19.553011199925095]","[0.0002687000669538975, 0.031568399630486965, 0.05399330006912351, 19.55301810009405]",0,,,,,,,,,,,,,,,,,,,,,,,,,,,,,,,,,,,,,,,,,,,,,,,,,,,,,,,,,,,,,,,,,,,,,,,,,,,,,,,,,,,,,,,,,,,,,,,,,,,,,,,,,,,,,,,,,,,,,,,,,,,,UJD902,train_x,red_square,bottom_left,2025-04-15_10h09.10.890,HideSeek_v1,2022.2.5,59.949486666433344,
,,,,,,,,,,,,,,,0,0,0,0,4,0,4,0,,,,,,,,,,,,,,,,,,,,,,,,,,,,,,,conditions/schedules/train_x_first/red_square_00/bottom_left/instructions/Slide5.png,conditions/schedules/train_x_first/red_square_00/bottom_left/instructions/Audio5.wav,186.67607220029458,186.67569060018286,5,"[3.955815200228244, 17.914684900082648, 16.861677799839526, 19.553011199925095, 4.801267900038511]","[0.0002687000669538975, 0.031568399630486965, 0.05399330006912351, 0.11381680006161332, 4.801274699624628]",0,,,,,,,,,,,,,,,,,,,,,,,,,,,,,,,,,,,,,,,,,,,,,,,,,,,,,,,,,,,,,,,,,,,,,,,,,,,,,,,,,,,,,,,,,,,,,,,,,,,,,,,,,,,,,,,,,,,,,,,,,,,,UJD902,train_x,red_square,bottom_left,2025-04-15_10h09.10.890,HideSeek_v1,2022.2.5,59.949486666433344,
,,,,,,,,,,,,,,,0,0,0,0,5,0,5,0,,,,,,,,,,,,,,,,,,,,,,,,,,,,,,,conditions/schedules/train_x_first/red_square_00/bottom_left/instructions/Slide6.png,conditions/schedules/train_x_first/red_square_00/bottom_left/instructions/Audio6.wav,191.53023910010234,191.52959462031723,6,"[3.955815200228244, 17.914684900082648, 16.861677799839526, 19.553011199925095, 4.801267900038511, 4.8675996996462345]","[0.0002687000669538975, 0.031568399630486965, 0.05399330006912351, 0.11381680006161332, 0.09694409975782037, 4.867606400046498]",0,,,,,,,,,,,,,,,,,,,,,,,,,,,,,,,,,,,,,,,,,,,,,,,,,,,,,,,,,,,,,,,,,,,,,,,,,,,,,,,,,,,,,,,,,,,,,,,,,,,,,,,,,,,,,,,,,,,,,,,,,,,,UJD902,train_x,red_square,bottom_left,2025-04-15_10h09.10.890,HideSeek_v1,2022.2.5,59.949486666433344,
,,,,,,,,,,,,,,,0,0,0,0,6,0,6,0,,,,,,,,,,,,,,,,,,,,,,,,,,,,,,,conditions/schedules/train_x_first/red_square_00/bottom_left/instructions/Slide7.png,conditions/schedules/train_x_first/red_square_00/bottom_left/instructions/Audio7.wav,196.44941710028797,196.45031972005964,7,"[3.955815200228244, 17.914684900082648, 16.861677799839526, 19.553011199925095, 4.801267900038511, 4.8675996996462345, 5.553153499960899]","[0.0002687000669538975, 0.031568399630486965, 0.05399330006912351, 0.11381680006161332, 0.09694409975782037, 0.08159129973500967, 5.5531611000187695]",0,,,,,,,,,,,,,,,,,,,,,,,,,,,,,,,,,,,,,,,,,,,,,,,,,,,,,,,,,,,,,,,,,,,,,,,,,,,,,,,,,,,,,,,,,,,,,,,,,,,,,,,,,,,,,,,,,,,,,,,,,,,,UJD902,train_x,red_square,bottom_left,2025-04-15_10h09.10.890,HideSeek_v1,2022.2.5,59.949486666433344,
,,,,,,,,,,,,,,,0,0,0,0,7,0,7,0,,,,,,,,,,,,,,,,,,,,,,,,,,,,,,,conditions/schedules/train_x_first/red_square_00/bottom_left/instructions/Slide8.png,conditions/schedules/train_x_first/red_square_00/bottom_left/instructions/Audio8.wav,202.07259960006922,202.0716773001477,8,"[3.955815200228244, 17.914684900082648, 16.861677799839526, 19.553011199925095, 4.801267900038511, 4.8675996996462345, 5.553153499960899, 11.739498700015247]","[0.0002687000669538975, 0.031568399630486965, 0.05399330006912351, 0.11381680006161332, 0.09694409975782037, 0.08159129973500967, 0.06313030002638698, 11.739504899829626]",0,,,,,,,,,,,,,,,,,,,,,,,,,,,,,,,,,,,,,,,,,,,,,,,,,,,,,,,,,,,,,,,,,,,,,,,,,,,,,,,,,,,,,,,,,,,,,,,,,,,,,,,,,,,,,,,,,,,,,,,,,,,,UJD902,train_x,red_square,bottom_left,2025-04-15_10h09.10.890,HideSeek_v1,2022.2.5,59.949486666433344,
,,,,,,,,,,,,,,,0,0,0,0,8,0,8,0,,,,,,,,,,,,,,,,,,,,,,,,,,,,,,,conditions/schedules/train_x_first/red_square_00/bottom_left/instructions/Slide9.png,conditions/schedules/train_x_first/red_square_00/bottom_left/instructions/Audio9.wav,213.88287049997598,213.8815503004007,9,"[3.955815200228244, 17.914684900082648, 16.861677799839526, 19.553011199925095, 4.801267900038511, 4.8675996996462345, 5.553153499960899, 11.739498700015247, 5.96768660005182]","[0.0002687000669538975, 0.031568399630486965, 0.05399330006912351, 0.11381680006161332, 0.09694409975782037, 0.08159129973500967, 0.06313030002638698, 0.030863699968904257, 5.967693699989468]",0,,,,,,,,,,,,,,,,,,,,,,,,,,,,,,,,,,,,,,,,,,,,,,,,,,,,,,,,,,,,,,,,,,,,,,,,,,,,,,,,,,,,,,,,,,,,,,,,,,,,,,,,,,,,,,,,,,,,,,,,,,,,UJD902,train_x,red_square,bottom_left,2025-04-15_10h09.10.890,HideSeek_v1,2022.2.5,59.949486666433344,
,,,,,,,,,,,,,,,0,0,0,0,9,0,9,0,,,,,,,,,,,,,,,,,,,,,,,,,,,,,,,conditions/schedules/train_x_first/red_square_00/bottom_left/instructions/Slide10.png,conditions/schedules/train_x_first/red_square_00/bottom_left/instructions/Audio10.wav,219.906872600317,219.90313532026485,10,"[3.955815200228244, 17.914684900082648, 16.861677799839526, 19.553011199925095, 4.801267900038511, 4.8675996996462345, 5.553153499960899, 11.739498700015247, 5.96768660005182, 7.000173100270331]","[0.0002687000669538975, 0.031568399630486965, 0.05399330006912351, 0.11381680006161332, 0.09694409975782037, 0.08159129973500967, 0.06313030002638698, 0.030863699968904257, 0.07931390032172203, 7.000179800204933]",0,,,,,,,,,,,,,,,,,,,,,,,,,,,,,,,,,,,,,,,,,,,,,,,,,,,,,,,,,,,,,,,,,,,,,,,,,,,,,,,,,,,,,,,,,,,,,,,,,,,,,,,,,,,,,,,,,,,,,,,,,,,,UJD902,train_x,red_square,bottom_left,2025-04-15_10h09.10.890,HideSeek_v1,2022.2.5,59.949486666433344,
,,,,,,,,,,,,,,,0,0,0,0,10,0,10,0,,,,,,,,,,,,,,,,,,,,,,,,,,,,,,,conditions/schedules/train_x_first/red_square_00/bottom_left/instructions/Slide11.png,conditions/schedules/train_x_first/red_square_00/bottom_left/instructions/Audio11.wav,226.9803772000596,226.97642170032486,11,"[3.955815200228244, 17.914684900082648, 16.861677799839526, 19.553011199925095, 4.801267900038511, 4.8675996996462345, 5.553153499960899, 11.739498700015247, 5.96768660005182, 7.000173100270331, 9.76716659963131]","[0.0002687000669538975, 0.031568399630486965, 0.05399330006912351, 0.11381680006161332, 0.09694409975782037, 0.08159129973500967, 0.06313030002638698, 0.030863699968904257, 0.07931390032172203, 0.04677839996293187, 9.767173099797219]",0,,,,,,,,,,,,,,,,,,,,,,,,,,,,,,,,,,,,,,,,,,,,,,,,,,,,,,,,,,,,,,,,,,,,,,,,,,,,,,,,,,,,,,,,,,,,,,,,,,,,,,,,,,,,,,,,,,,,,,,,,,,,UJD902,train_x,red_square,bottom_left,2025-04-15_10h09.10.890,HideSeek_v1,2022.2.5,59.949486666433344,
,,,,,,,,,,,,,,,0,0,0,0,11,0,11,0,,,,,,,,,,,,,,,,,,,,,,,,,,,,,,,conditions/schedules/train_x_first/red_square_00/bottom_left/instructions/Slide12.png,conditions/schedules/train_x_first/red_square_00/bottom_left/instructions/Audio12.wav,236.80584220029414,236.80047712018714,12,"[3.955815200228244, 17.914684900082648, 16.861677799839526, 19.553011199925095, 4.801267900038511, 4.8675996996462345, 5.553153499960899, 11.739498700015247, 5.96768660005182, 7.000173100270331, 9.76716659963131, 13.003115999978036]","[0.0002687000669538975, 0.031568399630486965, 0.05399330006912351, 0.11381680006161332, 0.09694409975782037, 0.08159129973500967, 0.06313030002638698, 0.030863699968904257, 0.07931390032172203, 0.04677839996293187, 0.047668999992311, 13.003122900146991]",0,,,,,,,,,,,,,,,,,,,,,,,,,,,,,,,,,,,,,,,,,,,,,,,,,,,,,,,,,,,,,,,,,,,,,,,,,,,,,,,,,,,,,,,,,,,,,,,,,,,,,,,,,,,,,,,,,,,,,,,,,,,,UJD902,train_x,red_square,bottom_left,2025-04-15_10h09.10.890,HideSeek_v1,2022.2.5,59.949486666433344,
1,3,2,8,2,5,0,66,2,instr_dim1_1,,,,,,0,0,0,0,,,,,0,0,0,0,,,,,,,,,,,,,,,,,,,,,,,,,,,,,,,,,,,,,stimuli/alien_stimuli/66.png,conditions/schedules/train_x_first/red_square_00/bottom_left/inputInstr_1.xlsx,stimuli/alien_stimuli/66.png,249.90788920037448,249.90788920037448,249.90788920037448,249.90788920037448,249.89485658043995,return,9.459774599410594,"[-0.16, -0.08, 0, 0.08, 0.16, 0.24, 0.32, 0.4, 0.48, 0.56]","[-0.4, -0.32, -0.24, -0.16, -0.08, 0, 0.08, 0.16, 0.24, 0.32]",2,2,8,3,0.0,0.4,259.4983479003422,259.4983479003422,259.4983479003422,259.4983479003422,259.4983479003422,259.4983479003422,259.4983479003422,259.4860905602575,5.672081400174648,return,5.541862099897116,stimuli/alien_stimuli/66.png,66,3,1,,,,,,,,,,,,,,,,,,,,,,,,,,,,,,,,,,,,,,,,,,,,,,,,,,,,,,,,,,,,,,,,,,,,,,,,,,,,,,,,,,,,,,,,,UJD902,train_x,red_square,bottom_left,2025-04-15_10h09.10.890,HideSeek_v1,2022.2.5,59.949486666433344,
,,,,,,,,,,,30,,,,0,0,0,0,,,,,,,,,,,,,,,,,,,,,,,,,,,,,,,,,,,,,,,,,,,,,,,,,,,,,,,,,,,,,,,,,,,,,,,,,,,,,,21,0.7,0,0,99,1,30,0,conditions/schedules/train_x_first/red_square_00/bottom_left/inputTrain_1.1.xlsx,99,1,1,1,0,,,,,,,,,,,,,,,,,,,,,,,,,,,,,,,,,,,,,,,,,,,,,,,,,,,,,,,,,,,,,,,,,,,,,,,,,,,UJD902,train_x,red_square,bottom_left,2025-04-15_10h09.10.890,HideSeek_v1,2022.2.5,59.949486666433344,
,,,,,,,,,,,,,,,1,0,1,0,0,0,0,0,,,,,,,,,,,,,,,,,,,,,,,,,,,,,,,conditions/schedules/train_x_first/red_square_00/bottom_left/instructions/Slide13.png,conditions/schedules/train_x_first/red_square_00/bottom_left/instructions/Audio13.wav,265.1884576003067,265.1911107204855,13,"[3.955815200228244, 17.914684900082648, 16.861677799839526, 19.553011199925095, 4.801267900038511, 4.8675996996462345, 5.553153499960899, 11.739498700015247, 5.96768660005182, 7.000173100270331, 9.76716659963131, 13.003115999978036, 17.39725389983505]","[0.0002687000669538975, 0.031568399630486965, 0.05399330006912351, 0.11381680006161332, 0.09694409975782037, 0.08159129973500967, 0.06313030002638698, 0.030863699968904257, 0.07931390032172203, 0.04677839996293187, 0.047668999992311, 13.003122900146991, 17.39726209966466]",0,,,,,,,,,,,,,,,,,,,,,,,,,,,,,,,,,,,,,,,,,,,,,,,,,,,,,,,,,,,,,,,,,,,,,,,,,,,,,,,,,,,,,,,,,,,,,,,,,,,,,,,,,,,,,,,,,,,,,,,,,,,,UJD902,train_x,red_square,bottom_left,2025-04-15_10h09.10.890,HideSeek_v1,2022.2.5,59.949486666433344,
,,,,,,,,,,,,,,,1,0,1,0,1,0,1,0,,,,,,,,,,,,,,,,,,,,,,,,,,,,,,,conditions/schedules/train_x_first/red_square_00/bottom_left/instructions/Slide14.png,conditions/schedules/train_x_first/red_square_00/bottom_left/instructions/Audio14.wav,282.6511643002741,282.63849142016846,14,"[3.955815200228244, 17.914684900082648, 16.861677799839526, 19.553011199925095, 4.801267900038511, 4.8675996996462345, 5.553153499960899, 11.739498700015247, 5.96768660005182, 7.000173100270331, 9.76716659963131, 13.003115999978036, 17.39725389983505, 13.246070499997586]","[0.0002687000669538975, 0.031568399630486965, 0.05399330006912351, 0.11381680006161332, 0.09694409975782037, 0.08159129973500967, 0.06313030002638698, 0.030863699968904257, 0.07931390032172203, 0.04677839996293187, 0.047668999992311, 13.003122900146991, 0.03494659997522831, 13.246077200397849]",0,,,,,,,,,,,,,,,,,,,,,,,,,,,,,,,,,,,,,,,,,,,,,,,,,,,,,,,,,,,,,,,,,,,,,,,,,,,,,,,,,,,,,,,,,,,,,,,,,,,,,,,,,,,,,,,,,,,,,,,,,,,,UJD902,train_x,red_square,bottom_left,2025-04-15_10h09.10.890,HideSeek_v1,2022.2.5,59.949486666433344,
2,4,0,4,0,0,0,16,2,instr_dim1_1,,,,,,1,0,1,0,,,,,0,0,0,0,,,,,,,,,,,,,,,,,,,,,,,,,,,,,,,,,,,,,stimuli/alien_stimuli/16.png,conditions/schedules/train_x_first/red_square_00/bottom_left/inputInstr_1.xlsx,stimuli/alien_stimuli/16.png,296.0031407000497,296.0031407000497,296.0031407000497,296.0031407000497,295.9998351603747,return,6.140751199796796,"[-0.16, -0.08, 0, 0.08, 0.16, 0.24, 0.32, 0.4, 0.48, 0.56]","[-0.4, -0.32, -0.24, -0.16, -0.08, 0, 0.08, 0.16, 0.24, 0.32]",0,0,4,4,0.0,0.0,302.30820960039273,302.30820960039273,302.30820960039273,302.30820960039273,302.30820960039273,302.30820960039273,302.30820960039273,302.28853474017234,6.556157100014389,return,6.3878654995933175,stimuli/alien_stimuli/16.png,16,4,2,,,,,,,,,,,,,,,,,,,,,,,,,,,,,,,,,,,,,,,,,,,,,,,,,,,,,,,,,,,,,,,,,,,,,,,,,,,,,,,,,,,,,,,,,UJD902,train_x,red_square,bottom_left,2025-04-15_10h09.10.890,HideSeek_v1,2022.2.5,59.949486666433344,
,,,,,,,,,,,30,,,,1,0,1,0,,,,,,,,,,,,,,,,,,,,,,,,,,,,,,,,,,,,,,,,,,,,,,,,,,,,,,,,,,,,,,,,,,,,,,,,,,,,,,21,0.7,0,0,99,1,30,0,conditions/schedules/train_x_first/red_square_00/bottom_left/inputTrain_1.1.xlsx,99,1,1,1,0,,,,,,,,,,,,,,,,,,,,,,,,,,,,,,,,,,,,,,,,,,,,,,,,,,,,,,,,,,,,,,,,,,,,,,,,,,,UJD902,train_x,red_square,bottom_left,2025-04-15_10h09.10.890,HideSeek_v1,2022.2.5,59.949486666433344,
,,,,,,,,,,,,,,,2,0,2,0,0,0,0,0,,,,,,,,,,,,,,,,,,,,,,,,,,,,,,,conditions/schedules/train_x_first/red_square_00/bottom_left/instructions/Slide15.png,conditions/schedules/train_x_first/red_square_00/bottom_left/instructions/Audio15.wav,308.8636402999982,308.8605537201278,15,"[3.955815200228244, 17.914684900082648, 16.861677799839526, 19.553011199925095, 4.801267900038511, 4.8675996996462345, 5.553153499960899, 11.739498700015247, 5.96768660005182, 7.000173100270331, 9.76716659963131, 13.003115999978036, 17.39725389983505, 13.246070499997586, 31.1032974999398]","[0.0002687000669538975, 0.031568399630486965, 0.05399330006912351, 0.11381680006161332, 0.09694409975782037, 0.08159129973500967, 0.06313030002638698, 0.030863699968904257, 0.07931390032172203, 0.04677839996293187, 0.047668999992311, 13.003122900146991, 0.03494659997522831, 13.246077200397849, 31.10330400010571]",0,,,,,,,,,,,,,,,,,,,,,,,,,,,,,,,,,,,,,,,,,,,,,,,,,,,,,,,,,,,,,,,,,,,,,,,,,,,,,,,,,,,,,,,,,,,,,,,,,,,,,,,,,,,,,,,,,,,,,,,,,,,,UJD902,train_x,red_square,bottom_left,2025-04-15_10h09.10.890,HideSeek_v1,2022.2.5,59.949486666433344,
,,,,,,,,,,,,,,,2,0,2,0,1,0,1,0,,,,,,,,,,,,,,,,,,,,,,,,,,,,,,,conditions/schedules/train_x_first/red_square_00/bottom_left/instructions/Slide16.png,conditions/schedules/train_x_first/red_square_00/bottom_left/instructions/Audio16.wav,340.02720790030435,340.0196734202095,16,"[3.955815200228244, 17.914684900082648, 16.861677799839526, 19.553011199925095, 4.801267900038511, 4.8675996996462345, 5.553153499960899, 11.739498700015247, 5.96768660005182, 7.000173100270331, 9.76716659963131, 13.003115999978036, 17.39725389983505, 13.246070499997586, 31.1032974999398, 22.69173750001937]","[0.0002687000669538975, 0.031568399630486965, 0.05399330006912351, 0.11381680006161332, 0.09694409975782037, 0.08159129973500967, 0.06313030002638698, 0.030863699968904257, 0.07931390032172203, 0.04677839996293187, 0.047668999992311, 13.003122900146991, 0.03494659997522831, 13.246077200397849, 0.056870399974286556, 22.691743900068104]",0,,,,,,,,,,,,,,,,,,,,,,,,,,,,,,,,,,,,,,,,,,,,,,,,,,,,,,,,,,,,,,,,,,,,,,,,,,,,,,,,,,,,,,,,,,,,,,,,,,,,,,,,,,,,,,,,,,,,,,,,,,,,UJD902,train_x,red_square,bottom_left,2025-04-15_10h09.10.890,HideSeek_v1,2022.2.5,59.949486666433344,
,2,1,5,1,3,0,46,,train_dim1_1,1,30,,,,2,0,2,0,,,,,,,,,0,0,0,0,0,0,0,0,0,0,0,0,,,,,,,,,,,,,,,,,,,,,,,,,stimuli/alien_stimuli/46.png,,,,,,,,,,,,,,,,,,,,,,,,,,,,,,,,,,,,,,,30,,,,,,,,362.81975830020383,362.81975830020383,362.81975830020383,362.81975830020383,362.81975830020383,up,4.5160705000162125,0,0,0,99,0,-0.24,up,4.4103093994781375,,,,,,,,,,,,,,,,,,,,,,,,,,,,,,,,,,,,,,,,,,,,,,,,,,,,,,,,,,,,UJD902,train_x,red_square,bottom_left,2025-04-15_10h09.10.890,HideSeek_v1,2022.2.5,59.949486666433344,
,2,1,5,1,3,0,46,,train_dim1_1,1,30,,,,2,0,2,0,,,,,,,,,0,0,0,0,0,0,0,0,1,0,1,0,,,,,,,,,,,,,,,,,,,,,,,,,,,,,,,,,,,,,,,,,,,,,,,,,,,,,,,,,,,,,,,,30,,,,,,,,367.32284040004015,367.32284040004015,367.32284040004015,367.32284040004015,367.32284040004015,up,0.6428033001720905,0,0,0,99,0,-0.15999999999999998,up,0.5649531995877624,,,,,,,,,,,,,,,,,,,,,,,,,,,,,,,,,,,,,,,,,,,,,,,,,,,,,,,,,,,,UJD902,train_x,red_square,bottom_left,2025-04-15_10h09.10.890,HideSeek_v1,2022.2.5,59.949486666433344,
,2,1,5,1,3,0,46,,train_dim1_1,1,30,,,,2,0,2,0,,,,,,,,,0,0,0,0,0,0,0,0,2,0,2,0,,,,,,,,,,,,,,,,,,,,,,,,,,,,,,,,,,,,,,,,,,,,,,,,,,,,,,,,,,,,,,,,30,,,,,,,,367.9720581001602,367.9720581001602,367.9720581001602,367.9720581001602,367.9720581001602,right,0.5434749997220933,0,0,0,99,0.08,-0.15999999999999998,right,0.4638663996011019,,,,,,,,,,,,,,,,,,,,,,,,,,,,,,,,,,,,,,,,,,,,,,,,,,,,,,,,,,,,UJD902,train_x,red_square,bottom_left,2025-04-15_10h09.10.890,HideSeek_v1,2022.2.5,59.949486666433344,
,2,1,5,1,3,0,46,,train_dim1_1,1,30,,,,2,0,2,0,,,,,,,,,0,0,0,0,0,0,0,0,3,0,3,0,,,,,,,,,,,,,,,,,,,,,,,,,,,,,,,,,,,,,,,,,,,,,,,,,,,,,,,,,,,,,,,,30,,,,,,,,368.528643600177,368.528643600177,368.528643600177,368.528643600177,368.528643600177,right,0.4267865000292659,0,0,0,99,0.16,-0.15999999999999998,right,0.34401259990409017,,,,,,,,,,,,,,,,,,,,,,,,,,,,,,,,,,,,,,,,,,,,,,,,,,,,,,,,,,,,UJD902,train_x,red_square,bottom_left,2025-04-15_10h09.10.890,HideSeek_v1,2022.2.5,59.949486666433344,
,2,1,5,1,3,0,46,,train_dim1_1,1,30,,,,2,0,2,0,,,,,,,,,0,0,0,0,0,0,0,0,4,0,4,0,,,,,,,,,,,,,,,,,,,,,,,,,,,,,,,,,,,,,,,,,,,,,,,,,,,,,,,,,,,,,,,,30,,,,,,,,368.9578523002565,368.9578523002565,368.9578523002565,368.9578523002565,368.9578523002565,up,0.4431231003254652,0,0,0,99,0.16,-0.07999999999999997,up,0.3677478996105492,,,,,,,,,,,,,,,,,,,,,,,,,,,,,,,,,,,,,,,,,,,,,,,,,,,,,,,,,,,,UJD902,train_x,red_square,bottom_left,2025-04-15_10h09.10.890,HideSeek_v1,2022.2.5,59.949486666433344,
,2,1,5,1,3,0,46,,train_dim1_1,1,30,,,,2,0,2,0,,,,,,,,,0,0,0,0,0,0,0,0,5,0,5,0,,,,,,,,,,,,,,,,,,,,,,,,,,,,,,,,,,,,,,,,,,,,,,,,,,,,,,,,,,,,,,,,30,,,,,,,,369.4065804001875,369.4065804001875,369.4065804001875,369.4065804001875,369.4065804001875,return,1.1939496998675168,0,0,0,0,0.16,-0.07999999999999997,return,1.1209297995083034,3,2,0.16,-0.07999999999999997,,,,,,,,,,,,,,,,,,,,,,,,,,,,,,,,,,,,,,,,,,,,,,,,,,,,,,,,UJD902,train_x,red_square,bottom_left,2025-04-15_10h09.10.890,HideSeek_v1,2022.2.5,59.949486666433344,
,2,4,2,4,0,0,16,,train_dim1_1,2,30,,,,2,0,2,0,,,,,,,,,0,0,0,0,0,1,1,1,0,0,0,0,,,,,,,,,,,,,,,,,,,,,,,,,stimuli/alien_stimuli/16.png,,,,,,,,,,,,,,,,,,,,,,,,,,,,,stimuli/alien_stimuli/46.png,46,2,3,,,,,,,30,,,,,,,,388.1253802003339,388.1253802003339,388.1253802003339,388.1253802003339,388.1253802003339,return,9.844321200158447,1,0,0,1,0,-0.08,return,9.740797999780625,3,2,0,-0.08,386.54132289998233,388.1253802003339,0.24,-0.32,0.0,0.24,-0.32,0.24,0.12,0.24,-0.32,372.17812910024077,372.17812910024077,372.17812910024077,372.17812910024077,372.17812910024077,372.17812910024077,372.17812910024077,372.17812910024077,372.1631404601969,14.480742299929261,return,14.331820899620652,,,,,,,,,,,,,,,,,,,,,,,,,,,,,,,,,UJD902,train_x,red_square,bottom_left,2025-04-15_10h09.10.890,HideSeek_v1,2022.2.5,59.949486666433344,
,4,4,5,4,1,0,26,,train_dim1_1,3,30,,,,2,0,2,0,,,,,,,,,0,0,0,0,0,2,2,2,0,0,0,0,,,,,,,,,,,,,,,,,,,,,,,,,stimuli/alien_stimuli/26.png,,,,,,,,,,,,,,,,,,,,,,,,,,,,,stimuli/alien_stimuli/16.png,16,2,4,,,,,,,30,,,,,,,,404.15535990009084,404.15535990009084,404.15535990009084,404.15535990009084,404.15535990009084,right,1.5383665999397635,1,0,0,99,0.24,-0.08,right,1.44676599977538,,,,,402.589926100336,404.15535990009084,0,-0.08,0.0,0.0,-0.08,0,0.0,0,-0.08,399.55298480018973,399.55298480018973,399.55298480018973,399.55298480018973,399.55298480018973,399.55298480018973,399.55298480018973,399.55298480018973,399.5358996201307,3.1916644000448287,return,3.011775399558246,,,,,,,,,,,,,,,,,,,,,,,,,,,,,,,,,UJD902,train_x,red_square,bottom_left,2025-04-15_10h09.10.890,HideSeek_v1,2022.2.5,59.949486666433344,
,4,4,5,4,1,0,26,,train_dim1_1,3,30,,,,2,0,2,0,,,,,,,,,0,0,0,0,0,2,2,2,1,0,1,0,,,,,,,,,,,,,,,,,,,,,,,,,,,,,,,,,,,,,,,,,,,,,,,,,,,,,,,,,,,,,,,,30,,,,,,,,405.69183690007776,405.69183690007776,405.69183690007776,405.69183690007776,405.69183690007776,return,1.7776403999887407,2,0,0,1,0.24,-0.08,return,1.7008384997025132,3,3,0.24,-0.08,,,,,,,,,,,,,,,,,,,,,,,,,,,,,,,,,,,,,,,,,,,,,,,,,,,,,,,,UJD902,train_x,red_square,bottom_left,2025-04-15_10h09.10.890,HideSeek_v1,2022.2.5,59.949486666433344,
,2,3,6,3,4,0,56,,train_dim1_1,4,30,,,,2,0,2,0,,,,,,,,,0,0,0,0,0,3,3,3,0,0,0,0,,,,,,,,,,,,,,,,,,,,,,,,,stimuli/alien_stimuli/56.png,,,,,,,,,,,,,,,,,,,,,,,,,,,,,stimuli/alien_stimuli/26.png,26,4,5,,,,,,,30,,,,,,,,414.12794660031796,414.12794660031796,414.12794660031796,414.12794660031796,414.12794660031796,right,1.886629099957645,2,0,0,99,0.08,-0.16,right,1.7960181995294988,,,,,412.56280570011586,414.12794660031796,0.24,-0.08,0.0,0.08,-0.08,0.24,0.2,0.24,-0.08,409.0393962999806,409.0393962999806,409.0393962999806,409.0393962999806,409.0393962999806,409.0393962999806,409.0393962999806,409.0393962999806,409.0270496600308,3.638222400099039,return,3.5018328996375203,,,,,,,,,,,,,,,,,,,,,,,,,,,,,,,,,UJD902,train_x,red_square,bottom_left,2025-04-15_10h09.10.890,HideSeek_v1,2022.2.5,59.949486666433344,
,2,3,6,3,4,0,56,,train_dim1_1,4,30,,,,2,0,2,0,,,,,,,,,0,0,0,0,0,3,3,3,1,0,1,0,,,,,,,,,,,,,,,,,,,,,,,,,,,,,,,,,,,,,,,,,,,,,,,,,,,,,,,,,,,,,,,,30,,,,,,,,416.0152053004131,416.0152053004131,416.0152053004131,416.0152053004131,416.0152053004131,right,0.426087100058794,2,0,0,99,0.16,-0.16,right,0.3508347999304533,,,,,,,,,,,,,,,,,,,,,,,,,,,,,,,,,,,,,,,,,,,,,,,,,,,,,,,,,,,,UJD902,train_x,red_square,bottom_left,2025-04-15_10h09.10.890,HideSeek_v1,2022.2.5,59.949486666433344,
,2,3,6,3,4,0,56,,train_dim1_1,4,30,,,,2,0,2,0,,,,,,,,,0,0,0,0,0,3,3,3,2,0,2,0,,,,,,,,,,,,,,,,,,,,,,,,,,,,,,,,,,,,,,,,,,,,,,,,,,,,,,,,,,,,,,,,30,,,,,,,,416.4484264999628,416.4484264999628,416.4484264999628,416.4484264999628,416.4484264999628,right,0.44323610002174973,2,0,0,99,0.24,-0.16,right,0.36332189943641424,,,,,,,,,,,,,,,,,,,,,,,,,,,,,,,,,,,,,,,,,,,,,,,,,,,,,,,,,,,,UJD902,train_x,red_square,bottom_left,2025-04-15_10h09.10.890,HideSeek_v1,2022.2.5,59.949486666433344,
,2,3,6,3,4,0,56,,train_dim1_1,4,30,,,,2,0,2,0,,,,,,,,,0,0,0,0,0,3,3,3,3,0,3,0,,,,,,,,,,,,,,,,,,,,,,,,,,,,,,,,,,,,,,,,,,,,,,,,,,,,,,,,,,,,,,,,30,,,,,,,,416.91754080029204,416.91754080029204,416.91754080029204,416.91754080029204,416.91754080029204,right,0.5428931000642478,2,0,0,99,0.32,-0.16,right,0.4386780997738242,,,,,,,,,,,,,,,,,,,,,,,,,,,,,,,,,,,,,,,,,,,,,,,,,,,,,,,,,,,,UJD902,train_x,red_square,bottom_left,2025-04-15_10h09.10.890,HideSeek_v1,2022.2.5,59.949486666433344,
,2,3,6,3,4,0,56,,train_dim1_1,4,30,,,,2,0,2,0,,,,,,,,,0,0,0,0,0,3,3,3,4,0,4,0,,,,,,,,,,,,,,,,,,,,,,,,,,,,,,,,,,,,,,,,,,,,,,,,,,,,,,,,,,,,,,,,30,,,,,,,,417.4487785003148,417.4487785003148,417.4487785003148,417.4487785003148,417.4487785003148,right,0.42693990003317595,2,0,0,99,0.4,-0.16,right,0.3404020997695625,,,,,,,,,,,,,,,,,,,,,,,,,,,,,,,,,,,,,,,,,,,,,,,,,,,,,,,,,,,,UJD902,train_x,red_square,bottom_left,2025-04-15_10h09.10.890,HideSeek_v1,2022.2.5,59.949486666433344,
,2,3,6,3,4,0,56,,train_dim1_1,4,30,,,,2,0,2,0,,,,,,,,,0,0,0,0,0,3,3,3,5,0,5,0,,,,,,,,,,,,,,,,,,,,,,,,,,,,,,,,,,,,,,,,,,,,,,,,,,,,,,,,,,,,,,,,30,,,,,,,,417.88305720034987,417.88305720034987,417.88305720034987,417.88305720034987,417.88305720034987,return,0.47672070004045963,2,1,0,0,0.4,-0.16,return,0.38963229954242706,3,8,0.4,-0.16,,,,,,,,,,,,,,,,,,,,,,,,,,,,,,,,,,,,,,,,,,,,,,,,,,,,,,,,UJD902,train_x,red_square,bottom_left,2025-04-15_10h09.10.890,HideSeek_v1,2022.2.5,59.949486666433344,
,0,2,5,2,5,0,66,,train_dim1_1,5,30,,,,2,0,2,0,,,,,,,,,0,0,0,0,0,4,4,4,0,0,0,0,,,,,,,,,,,,,,,,,,,,,,,,,stimuli/alien_stimuli/66.png,,,,,,,,,,,,,,,,,,,,,,,,,,,,,stimuli/alien_stimuli/56.png,56,2,6,,,,,,,30,,,,,,,,424.0142769999802,424.0142769999802,424.0142769999802,424.0142769999802,424.0142769999802,right,1.087889799848199,2,1,0,99,-0.08,-0.24,right,0.9903020998463035,,,,,422.4376850002445,424.0142769999802,0.32,-0.16,0.0,0.32,-0.16,0.32,0.16,0.32,-0.16,419.9488461003639,419.9488461003639,419.9488461003639,419.9488461003639,419.9488461003639,419.9488461003639,419.9488461003639,419.9488461003639,419.9365698403679,2.6200599996373057,return,2.4706566999666393,,,,,,,,,,,,,,,,,,,,,,,,,,,,,,,,,UJD902,train_x,red_square,bottom_left,2025-04-15_10h09.10.890,HideSeek_v1,2022.2.5,59.949486666433344,
,0,2,5,2,5,0,66,,train_dim1_1,5,30,,,,2,0,2,0,,,,,,,,,0,0,0,0,0,4,4,4,1,0,1,0,,,,,,,,,,,,,,,,,,,,,,,,,,,,,,,,,,,,,,,,,,,,,,,,,,,,,,,,,,,,,,,,30,,,,,,,,425.086138300132,425.086138300132,425.086138300132,425.086138300132,425.086138300132,right,0.4762872001156211,2,1,0,99,0.0,-0.24,right,0.4011357999406755,,,,,,,,,,,,,,,,,,,,,,,,,,,,,,,,,,,,,,,,,,,,,,,,,,,,,,,,,,,,UJD902,train_x,red_square,bottom_left,2025-04-15_10h09.10.890,HideSeek_v1,2022.2.5,59.949486666433344,
,0,2,5,2,5,0,66,,train_dim1_1,5,30,,,,2,0,2,0,,,,,,,,,0,0,0,0,0,4,4,4,2,0,2,0,,,,,,,,,,,,,,,,,,,,,,,,,,,,,,,,,,,,,,,,,,,,,,,,,,,,,,,,,,,,,,,,30,,,,,,,,425.5898803002201,425.5898803002201,425.5898803002201,425.5898803002201,425.5898803002201,right,0.4935918999835849,2,1,0,99,0.08,-0.24,right,0.4003339000046253,,,,,,,,,,,,,,,,,,,,,,,,,,,,,,,,,,,,,,,,,,,,,,,,,,,,,,,,,,,,UJD902,train_x,red_square,bottom_left,2025-04-15_10h09.10.890,HideSeek_v1,2022.2.5,59.949486666433344,
,0,2,5,2,5,0,66,,train_dim1_1,5,30,,,,2,0,2,0,,,,,,,,,0,0,0,0,0,4,4,4,3,0,3,0,,,,,,,,,,,,,,,,,,,,,,,,,,,,,,,,,,,,,,,,,,,,,,,,,,,,,,,,,,,,,,,,30,,,,,,,,426.072742999997,426.072742999997,426.072742999997,426.072742999997,426.072742999997,right,0.4764946000650525,2,1,0,99,0.16,-0.24,right,0.3977893996052444,,,,,,,,,,,,,,,,,,,,,,,,,,,,,,,,,,,,,,,,,,,,,,,,,,,,,,,,,,,,UJD902,train_x,red_square,bottom_left,2025-04-15_10h09.10.890,HideSeek_v1,2022.2.5,59.949486666433344,
,0,2,5,2,5,0,66,,train_dim1_1,5,30,,,,2,0,2,0,,,,,,,,,0,0,0,0,0,4,4,4,4,0,4,0,,,,,,,,,,,,,,,,,,,,,,,,,,,,,,,,,,,,,,,,,,,,,,,,,,,,,,,,,,,,,,,,30,,,,,,,,426.5546413003467,426.5546413003467,426.5546413003467,426.5546413003467,426.5546413003467,right,0.4432916999794543,2,1,0,99,0.24,-0.24,right,0.3618514998815954,,,,,,,,,,,,,,,,,,,,,,,,,,,,,,,,,,,,,,,,,,,,,,,,,,,,,,,,,,,,UJD902,train_x,red_square,bottom_left,2025-04-15_10h09.10.890,HideSeek_v1,2022.2.5,59.949486666433344,
,0,2,5,2,5,0,66,,train_dim1_1,5,30,,,,2,0,2,0,,,,,,,,,0,0,0,0,0,4,4,4,5,0,5,0,,,,,,,,,,,,,,,,,,,,,,,,,,,,,,,,,,,,,,,,,,,,,,,,,,,,,,,,,,,,,,,,30,,,,,,,,427.0057363002561,427.0057363002561,427.0057363002561,427.0057363002561,427.0057363002561,right,1.8275438002310693,2,1,0,99,0.32,-0.24,right,1.7514966996386647,,,,,,,,,,,,,,,,,,,,,,,,,,,,,,,,,,,,,,,,,,,,,,,,,,,,,,,,,,,,UJD902,train_x,red_square,bottom_left,2025-04-15_10h09.10.890,HideSeek_v1,2022.2.5,59.949486666433344,
,0,2,5,2,5,0,66,,train_dim1_1,5,30,,,,2,0,2,0,,,,,,,,,0,0,0,0,0,4,4,4,6,0,6,0,,,,,,,,,,,,,,,,,,,,,,,,,,,,,,,,,,,,,,,,,,,,,,,,,,,,,,,,,,,,,,,,30,,,,,,,,428.83997950004414,428.83997950004414,428.83997950004414,428.83997950004414,428.83997950004414,return,0.2599059999920428,2,1,0,0,0.32,-0.24,return,0.18763969978317618,3,14,0.32,-0.24,,,,,,,,,,,,,,,,,,,,,,,,,,,,,,,,,,,,,,,,,,,,,,,,,,,,,,,,UJD902,train_x,red_square,bottom_left,2025-04-15_10h09.10.890,HideSeek_v1,2022.2.5,59.949486666433344,
,0,0,1,0,1,0,26,,train_dim1_1,6,30,,,,2,0,2,0,,,,,,,,,0,0,0,0,0,5,5,5,0,0,0,0,,,,,,,,,,,,,,,,,,,,,,,,,stimuli/alien_stimuli/26.png,,,,,,,,,,,,,,,,,,,,,,,,,,,,,stimuli/alien_stimuli/66.png,66,0,7,,,,,,,30,,,,,,,,436.5626015001908,436.5626015001908,436.5626015001908,436.5626015001908,436.5626015001908,right,1.2221735999919474,2,1,0,99,-0.08,-0.4,right,1.1332495999522507,,,,,434.998331699986,436.5626015001908,0.24,-0.24,0.0,0.4,-0.24,0.24,0.039999999999999994,0.24,-0.24,430.67883500037715,430.67883500037715,430.67883500037715,430.67883500037715,430.67883500037715,430.67883500037715,430.67883500037715,430.67883500037715,430.66159006003295,4.439342400059104,return,4.295377099420875,,,,,,,,,,,,,,,,,,,,,,,,,,,,,,,,,UJD902,train_x,red_square,bottom_left,2025-04-15_10h09.10.890,HideSeek_v1,2022.2.5,59.949486666433344,
,0,0,1,0,1,0,26,,train_dim1_1,6,30,,,,2,0,2,0,,,,,,,,,0,0,0,0,0,5,5,5,1,0,1,0,,,,,,,,,,,,,,,,,,,,,,,,,,,,,,,,,,,,,,,,,,,,,,,,,,,,,,,,,,,,,,,,30,,,,,,,,437.7858713003807,437.7858713003807,437.7858713003807,437.7858713003807,437.7858713003807,return,3.061587399803102,3,0,0,1,-0.08,-0.4,return,2.969590099994093,3,15,-0.08,-0.4,,,,,,,,,,,,,,,,,,,,,,,,,,,,,,,,,,,,,,,,,,,,,,,,,,,,,,,,UJD902,train_x,red_square,bottom_left,2025-04-15_10h09.10.890,HideSeek_v1,2022.2.5,59.949486666433344,
,3,0,8,0,5,0,66,,train_dim1_1,7,30,,,,2,0,2,0,,,,,,,,,0,0,0,0,0,6,6,6,0,0,0,0,,,,,,,,,,,,,,,,,,,,,,,,,stimuli/alien_stimuli/66.png,,,,,,,,,,,,,,,,,,,,,,,,,,,,,stimuli/alien_stimuli/26.png,26,0,8,,,,,,,30,,,,,,,,447.8343990002759,447.8343990002759,447.8343990002759,447.8343990002759,447.8343990002759,right,1.4043982001021504,3,0,0,99,0.16,-0.4,right,1.3185926997102797,,,,,446.27416880009696,447.8343990002759,-0.08,-0.4,0.0,0.08,-0.4,-0.08,-0.12,-0.08,-0.4,442.4378690002486,442.4378690002486,442.4378690002486,442.4378690002486,442.4378690002486,442.4378690002486,442.4378690002486,442.4378690002486,442.42144344020636,3.972084099892527,return,3.811073699966073,,,,,,,,,,,,,,,,,,,,,,,,,,,,,,,,,UJD902,train_x,red_square,bottom_left,2025-04-15_10h09.10.890,HideSeek_v1,2022.2.5,59.949486666433344,
,3,0,8,0,5,0,66,,train_dim1_1,7,30,,,,2,0,2,0,,,,,,,,,0,0,0,0,0,6,6,6,1,0,1,0,,,,,,,,,,,,,,,,,,,,,,,,,,,,,,,,,,,,,,,,,,,,,,,,,,,,,,,,,,,,,,,,30,,,,,,,,449.24012120021507,449.24012120021507,449.24012120021507,449.24012120021507,449.24012120021507,right,0.4595547001808882,3,0,0,99,0.24,-0.4,right,0.37840629974380136,,,,,,,,,,,,,,,,,,,,,,,,,,,,,,,,,,,,,,,,,,,,,,,,,,,,,,,,,,,,UJD902,train_x,red_square,bottom_left,2025-04-15_10h09.10.890,HideSeek_v1,2022.2.5,59.949486666433344,
,3,0,8,0,5,0,66,,train_dim1_1,7,30,,,,2,0,2,0,,,,,,,,,0,0,0,0,0,6,6,6,2,0,2,0,,,,,,,,,,,,,,,,,,,,,,,,,,,,,,,,,,,,,,,,,,,,,,,,,,,,,,,,,,,,,,,,30,,,,,,,,449.7067142999731,449.7067142999731,449.7067142999731,449.7067142999731,449.7067142999731,right,0.46041049994528294,3,0,0,99,0.32,-0.4,right,0.3810774995945394,,,,,,,,,,,,,,,,,,,,,,,,,,,,,,,,,,,,,,,,,,,,,,,,,,,,,,,,,,,,UJD902,train_x,red_square,bottom_left,2025-04-15_10h09.10.890,HideSeek_v1,2022.2.5,59.949486666433344,
,3,0,8,0,5,0,66,,train_dim1_1,7,30,,,,2,0,2,0,,,,,,,,,0,0,0,0,0,6,6,6,3,0,3,0,,,,,,,,,,,,,,,,,,,,,,,,,,,,,,,,,,,,,,,,,,,,,,,,,,,,,,,,,,,,,,,,30,,,,,,,,450.18945000041276,450.18945000041276,450.18945000041276,450.18945000041276,450.18945000041276,right,0.46017450001090765,3,0,0,99,0.4,-0.4,right,0.36146519985049963,,,,,,,,,,,,,,,,,,,,,,,,,,,,,,,,,,,,,,,,,,,,,,,,,,,,,,,,,,,,UJD902,train_x,red_square,bottom_left,2025-04-15_10h09.10.890,HideSeek_v1,2022.2.5,59.949486666433344,
,3,0,8,0,5,0,66,,train_dim1_1,7,30,,,,2,0,2,0,,,,,,,,,0,0,0,0,0,6,6,6,4,0,4,0,,,,,,,,,,,,,,,,,,,,,,,,,,,,,,,,,,,,,,,,,,,,,,,,,,,,,,,,,,,,,,,,30,,,,,,,,450.6417402001098,450.6417402001098,450.6417402001098,450.6417402001098,450.6417402001098,right,0.4265555003657937,3,0,0,99,0.48000000000000004,-0.4,right,0.33800299977883697,,,,,,,,,,,,,,,,,,,,,,,,,,,,,,,,,,,,,,,,,,,,,,,,,,,,,,,,,,,,UJD902,train_x,red_square,bottom_left,2025-04-15_10h09.10.890,HideSeek_v1,2022.2.5,59.949486666433344,
,3,0,8,0,5,0,66,,train_dim1_1,7,30,,,,2,0,2,0,,,,,,,,,0,0,0,0,0,6,6,6,5,0,5,0,,,,,,,,,,,,,,,,,,,,,,,,,,,,,,,,,,,,,,,,,,,,,,,,,,,,,,,,,,,,,,,,30,,,,,,,,451.0756151000969,451.0756151000969,451.0756151000969,451.0756151000969,451.0756151000969,return,0.35990010015666485,4,0,0,1,0.48000000000000004,-0.4,return,0.2719462998211384,3,20,0.48000000000000004,-0.4,,,,,,,,,,,,,,,,,,,,,,,,,,,,,,,,,,,,,,,,,,,,,,,,,,,,,,,,UJD902,train_x,red_square,bottom_left,2025-04-15_10h09.10.890,HideSeek_v1,2022.2.5,59.949486666433344,
,0,4,3,4,3,0,46,,train_dim1_1,8,30,,,,2,0,2,0,,,,,,,,,0,0,0,0,0,7,7,7,0,0,0,0,,,,,,,,,,,,,,,,,,,,,,,,,stimuli/alien_stimuli/46.png,,,,,,,,,,,,,,,,,,,,,,,,,,,,,stimuli/alien_stimuli/66.png,66,3,9,,,,,,,30,,,,,,,,458.1943701002747,458.1943701002747,458.1943701002747,458.1943701002747,458.1943701002747,right,0.9534899997524917,4,0,0,99,-0.08,-0.08,right,0.8594470997340977,,,,,456.6327560003847,458.1943701002747,0.48,-0.4,0.0,0.4,-0.4,0.48,0.27999999999999997,0.48,-0.4,453.0299495002255,453.0299495002255,453.0299495002255,453.0299495002255,453.0299495002255,453.0299495002255,453.0299495002255,453.0299495002255,453.0141856402159,3.737786500249058,return,3.5820206995122135,,,,,,,,,,,,,,,,,,,,,,,,,,,,,,,,,UJD902,train_x,red_square,bottom_left,2025-04-15_10h09.10.890,HideSeek_v1,2022.2.5,59.949486666433344,
,0,4,3,4,3,0,46,,train_dim1_1,8,30,,,,2,0,2,0,,,,,,,,,0,0,0,0,0,7,7,7,1,0,1,0,,,,,,,,,,,,,,,,,,,,,,,,,,,,,,,,,,,,,,,,,,,,,,,,,,,,,,,,,,,,,,,,30,,,,,,,,459.14927420020103,459.14927420020103,459.14927420020103,459.14927420020103,459.14927420020103,right,0.40954709984362125,4,0,0,99,0.0,-0.08,right,0.32743640011176467,,,,,,,,,,,,,,,,,,,,,,,,,,,,,,,,,,,,,,,,,,,,,,,,,,,,,,,,,,,,UJD902,train_x,red_square,bottom_left,2025-04-15_10h09.10.890,HideSeek_v1,2022.2.5,59.949486666433344,
,0,4,3,4,3,0,46,,train_dim1_1,8,30,,,,2,0,2,0,,,,,,,,,0,0,0,0,0,7,7,7,2,0,2,0,,,,,,,,,,,,,,,,,,,,,,,,,,,,,,,,,,,,,,,,,,,,,,,,,,,,,,,,,,,,,,,,30,,,,,,,,459.5649399003014,459.5649399003014,459.5649399003014,459.5649399003014,459.5649399003014,right,0.3935280996374786,4,0,0,99,0.08,-0.08,right,0.3107801997102797,,,,,,,,,,,,,,,,,,,,,,,,,,,,,,,,,,,,,,,,,,,,,,,,,,,,,,,,,,,,UJD902,train_x,red_square,bottom_left,2025-04-15_10h09.10.890,HideSeek_v1,2022.2.5,59.949486666433344,
,0,4,3,4,3,0,46,,train_dim1_1,8,30,,,,2,0,2,0,,,,,,,,,0,0,0,0,0,7,7,7,3,0,3,0,,,,,,,,,,,,,,,,,,,,,,,,,,,,,,,,,,,,,,,,,,,,,,,,,,,,,,,,,,,,,,,,30,,,,,,,,459.96548690041527,459.96548690041527,459.96548690041527,459.96548690041527,459.96548690041527,return,1.3607332999818027,5,0,0,1,0.08,-0.08,return,1.2729208995588124,3,23,0.08,-0.08,,,,,,,,,,,,,,,,,,,,,,,,,,,,,,,,,,,,,,,,,,,,,,,,,,,,,,,,UJD902,train_x,red_square,bottom_left,2025-04-15_10h09.10.890,HideSeek_v1,2022.2.5,59.949486666433344,
,1,0,5,0,4,0,56,,train_dim1_1,9,30,,,,2,0,2,0,,,,,,,,,0,0,0,0,0,8,8,8,0,0,0,0,,,,,,,,,,,,,,,,,,,,,,,,,stimuli/alien_stimuli/56.png,,,,,,,,,,,,,,,,,,,,,,,,,,,,,stimuli/alien_stimuli/46.png,46,0,10,,,,,,,30,,,,,,,,467.95212600007653,467.95212600007653,467.95212600007653,467.95212600007653,467.95212600007653,right,1.4395238002762198,5,0,0,99,0.0,-0.4,right,1.348346899729222,,,,,466.3908178000711,467.95212600007653,0.08,-0.08,0.0,0.24,-0.08,0.08,-0.04,0.08,-0.08,462.8890391001478,462.8890391001478,462.8890391001478,462.8890391001478,462.8890391001478,462.8890391001478,462.8890391001478,462.8890391001478,462.8723725801334,3.6044103000313044,return,3.4806424998678267,,,,,,,,,,,,,,,,,,,,,,,,,,,,,,,,,UJD902,train_x,red_square,bottom_left,2025-04-15_10h09.10.890,HideSeek_v1,2022.2.5,59.949486666433344,
,1,0,5,0,4,0,56,,train_dim1_1,9,30,,,,2,0,2,0,,,,,,,,,0,0,0,0,0,8,8,8,1,0,1,0,,,,,,,,,,,,,,,,,,,,,,,,,,,,,,,,,,,,,,,,,,,,,,,,,,,,,,,,,,,,,,,,30,,,,,,,,469.3930840003304,469.3930840003304,469.3930840003304,469.3930840003304,469.3930840003304,right,0.40966870030388236,5,0,0,99,0.08,-0.4,right,0.3333507995121181,,,,,,,,,,,,,,,,,,,,,,,,,,,,,,,,,,,,,,,,,,,,,,,,,,,,,,,,,,,,UJD902,train_x,red_square,bottom_left,2025-04-15_10h09.10.890,HideSeek_v1,2022.2.5,59.949486666433344,
,1,0,5,0,4,0,56,,train_dim1_1,9,30,,,,2,0,2,0,,,,,,,,,0,0,0,0,0,8,8,8,2,0,2,0,,,,,,,,,,,,,,,,,,,,,,,,,,,,,,,,,,,,,,,,,,,,,,,,,,,,,,,,,,,,,,,,30,,,,,,,,469.80931420018896,469.80931420018896,469.80931420018896,469.80931420018896,469.80931420018896,right,0.39373020036146045,5,0,0,99,0.16,-0.4,right,0.30819439981132746,,,,,,,,,,,,,,,,,,,,,,,,,,,,,,,,,,,,,,,,,,,,,,,,,,,,,,,,,,,,UJD902,train_x,red_square,bottom_left,2025-04-15_10h09.10.890,HideSeek_v1,2022.2.5,59.949486666433344,
,1,0,5,0,4,0,56,,train_dim1_1,9,30,,,,2,0,2,0,,,,,,,,,0,0,0,0,0,8,8,8,3,0,3,0,,,,,,,,,,,,,,,,,,,,,,,,,,,,,,,,,,,,,,,,,,,,,,,,,,,,,,,,,,,,,,,,30,,,,,,,,470.2101888000034,470.2101888000034,470.2101888000034,470.2101888000034,470.2101888000034,right,0.41007790016010404,5,0,0,99,0.24,-0.4,right,0.3242153995670378,,,,,,,,,,,,,,,,,,,,,,,,,,,,,,,,,,,,,,,,,,,,,,,,,,,,,,,,,,,,UJD902,train_x,red_square,bottom_left,2025-04-15_10h09.10.890,HideSeek_v1,2022.2.5,59.949486666433344,
,1,0,5,0,4,0,56,,train_dim1_1,9,30,,,,2,0,2,0,,,,,,,,,0,0,0,0,0,8,8,8,4,0,4,0,,,,,,,,,,,,,,,,,,,,,,,,,,,,,,,,,,,,,,,,,,,,,,,,,,,,,,,,,,,,,,,,30,,,,,,,,470.6264427001588,470.6264427001588,470.6264427001588,470.6264427001588,470.6264427001588,return,0.3268128000199795,6,0,0,1,0.24,-0.4,return,0.24997849948704243,3,27,0.24,-0.4,,,,,,,,,,,,,,,,,,,,,,,,,,,,,,,,,,,,,,,,,,,,,,,,,,,,,,,,UJD902,train_x,red_square,bottom_left,2025-04-15_10h09.10.890,HideSeek_v1,2022.2.5,59.949486666433344,
,0,3,0,3,0,0,16,,train_dim1_1,10,30,,,,2,0,2,0,,,,,,,,,0,0,0,0,0,9,9,9,0,0,0,0,,,,,,,,,,,,,,,,,,,,,,,,,stimuli/alien_stimuli/16.png,,,,,,,,,,,,,,,,,,,,,,,,,,,,,stimuli/alien_stimuli/56.png,56,1,11,,,,,,,30,,,,,,,,478.1309285000898,478.1309285000898,478.1309285000898,478.1309285000898,478.1309285000898,return,1.154666000045836,7,0,0,1,-0.16,-0.16,return,1.0715521993115544,3,27,-0.16,-0.16,476.5660467003472,478.1309285000898,0.24,-0.4,0.0,0.32,-0.4,0.24,0.07999999999999999,0.24,-0.4,472.5171994003467,472.5171994003467,472.5171994003467,472.5171994003467,472.5171994003467,472.5171994003467,472.5171994003467,472.5171994003467,472.49629998011517,4.156057800166309,return,4.027985899709165,,,,,,,,,,,,,,,,,,,,,,,,,,,,,,,,,UJD902,train_x,red_square,bottom_left,2025-04-15_10h09.10.890,HideSeek_v1,2022.2.5,59.949486666433344,
,2,2,5,2,3,0,46,,train_dim1_1,11,30,,,,2,0,2,0,,,,,,,,,0,0,0,0,0,10,10,10,0,0,0,0,,,,,,,,,,,,,,,,,,,,,,,,,stimuli/alien_stimuli/46.png,,,,,,,,,,,,,,,,,,,,,,,,,,,,,stimuli/alien_stimuli/16.png,16,0,12,,,,,,,30,,,,,,,,484.86179460026324,484.86179460026324,484.86179460026324,484.86179460026324,484.86179460026324,right,0.7557564997114241,7,0,0,99,0.08,-0.24,right,0.6495221997611225,,,,,483.2884315000847,484.86179460026324,-0.16,-0.16,0.0,0.0,-0.16,-0.16,-0.16,-0.16,-0.16,480.86254720017314,480.86254720017314,480.86254720017314,480.86254720017314,480.86254720017314,480.86254720017314,480.86254720017314,480.86254720017314,480.8534306401387,2.5542692998424172,return,2.408750500064343,,,,,,,,,,,,,,,,,,,,,,,,,,,,,,,,,UJD902,train_x,red_square,bottom_left,2025-04-15_10h09.10.890,HideSeek_v1,2022.2.5,59.949486666433344,
,2,2,5,2,3,0,46,,train_dim1_1,11,30,,,,2,0,2,0,,,,,,,,,0,0,0,0,0,10,10,10,1,0,1,0,,,,,,,,,,,,,,,,,,,,,,,,,,,,,,,,,,,,,,,,,,,,,,,,,,,,,,,,,,,,,,,,30,,,,,,,,485.6040248000063,485.6040248000063,485.6040248000063,485.6040248000063,485.6040248000063,right,0.4261982999742031,7,0,0,99,0.16,-0.24,right,0.34471389977261424,,,,,,,,,,,,,,,,,,,,,,,,,,,,,,,,,,,,,,,,,,,,,,,,,,,,,,,,,,,,UJD902,train_x,red_square,bottom_left,2025-04-15_10h09.10.890,HideSeek_v1,2022.2.5,59.949486666433344,
,2,2,5,2,3,0,46,,train_dim1_1,11,30,,,,2,0,2,0,,,,,,,,,0,0,0,0,0,10,10,10,2,0,2,0,,,,,,,,,,,,,,,,,,,,,,,,,,,,,,,,,,,,,,,,,,,,,,,,,,,,,,,,,,,,,,,,30,,,,,,,,486.0376737001352,486.0376737001352,486.0376737001352,486.0376737001352,486.0376737001352,right,0.5437375996261835,7,0,0,99,0.24,-0.24,right,0.46355529967695475,,,,,,,,,,,,,,,,,,,,,,,,,,,,,,,,,,,,,,,,,,,,,,,,,,,,,,,,,,,,UJD902,train_x,red_square,bottom_left,2025-04-15_10h09.10.890,HideSeek_v1,2022.2.5,59.949486666433344,
,2,2,5,2,3,0,46,,train_dim1_1,11,30,,,,2,0,2,0,,,,,,,,,0,0,0,0,0,10,10,10,3,0,3,0,,,,,,,,,,,,,,,,,,,,,,,,,,,,,,,,,,,,,,,,,,,,,,,,,,,,,,,,,,,,,,,,30,,,,,,,,486.588183300104,486.588183300104,486.588183300104,486.588183300104,486.588183300104,right,1.3271010997705162,7,0,0,99,0.32,-0.24,right,1.241541599854827,,,,,,,,,,,,,,,,,,,,,,,,,,,,,,,,,,,,,,,,,,,,,,,,,,,,,,,,,,,,UJD902,train_x,red_square,bottom_left,2025-04-15_10h09.10.890,HideSeek_v1,2022.2.5,59.949486666433344,
,2,2,5,2,3,0,46,,train_dim1_1,11,30,,,,2,0,2,0,,,,,,,,,0,0,0,0,0,10,10,10,4,0,4,0,,,,,,,,,,,,,,,,,,,,,,,,,,,,,,,,,,,,,,,,,,,,,,,,,,,,,,,,,,,,,,,,30,,,,,,,,487.9259081003256,487.9259081003256,487.9259081003256,487.9259081003256,487.9259081003256,return,0.37698360020294785,7,1,0,0,0.32,-0.24,return,0.2949714995920658,3,31,0.32,-0.24,,,,,,,,,,,,,,,,,,,,,,,,,,,,,,,,,,,,,,,,,,,,,,,,,,,,,,,,UJD902,train_x,red_square,bottom_left,2025-04-15_10h09.10.890,HideSeek_v1,2022.2.5,59.949486666433344,
,0,0,1,0,1,0,26,,train_dim1_1,12,30,,,,2,0,2,0,,,,,,,,,0,0,0,0,0,11,11,11,0,0,0,0,,,,,,,,,,,,,,,,,,,,,,,,,stimuli/alien_stimuli/26.png,,,,,,,,,,,,,,,,,,,,,,,,,,,,,stimuli/alien_stimuli/46.png,46,2,13,,,,,,,30,,,,,,,,496.1054001003504,496.1054001003504,496.1054001003504,496.1054001003504,496.1054001003504,right,1.0379317002370954,7,1,0,99,-0.08,-0.4,right,0.9355256999842823,,,,,494.53083140030503,496.1054001003504,0.24,-0.24,0.0,0.24,-0.24,0.24,0.12,0.24,-0.24,489.86589150037616,489.86589150037616,489.86589150037616,489.86589150037616,489.86589150037616,489.86589150037616,489.86589150037616,489.86589150037616,489.8439939803444,4.772687699645758,return,4.63798449980095,,,,,,,,,,,,,,,,,,,,,,,,,,,,,,,,,UJD902,train_x,red_square,bottom_left,2025-04-15_10h09.10.890,HideSeek_v1,2022.2.5,59.949486666433344,
,0,0,1,0,1,0,26,,train_dim1_1,12,30,,,,2,0,2,0,,,,,,,,,0,0,0,0,0,11,11,11,1,0,1,0,,,,,,,,,,,,,,,,,,,,,,,,,,,,,,,,,,,,,,,,,,,,,,,,,,,,,,,,,,,,,,,,30,,,,,,,,497.1344490000047,497.1344490000047,497.1344490000047,497.1344490000047,497.1344490000047,return,0.3762336000800133,8,0,0,1,-0.08,-0.4,return,0.2843448999337852,3,32,-0.08,-0.4,,,,,,,,,,,,,,,,,,,,,,,,,,,,,,,,,,,,,,,,,,,,,,,,,,,,,,,,UJD902,train_x,red_square,bottom_left,2025-04-15_10h09.10.890,HideSeek_v1,2022.2.5,59.949486666433344,
,0,4,4,4,4,0,56,,train_dim1_1,13,30,,,,2,0,2,0,,,,,,,,,0,0,0,0,0,12,12,12,0,0,0,0,,,,,,,,,,,,,,,,,,,,,,,,,stimuli/alien_stimuli/56.png,,,,,,,,,,,,,,,,,,,,,,,,,,,,,stimuli/alien_stimuli/26.png,26,0,14,,,,,,,30,,,,,,,,502.16533560026437,502.16533560026437,502.16533560026437,502.16533560026437,502.16533560026437,right,0.8869830002076924,8,0,0,99,-0.08,-0.08,right,0.7830151994712651,,,,,500.5860435003415,502.16533560026437,-0.08,-0.4,0.0,0.08,-0.4,-0.08,-0.12,-0.08,-0.4,499.09577070036903,499.09577070036903,499.09577070036903,499.09577070036903,499.09577070036903,499.09577070036903,499.09577070036903,499.09577070036903,499.08520724037663,1.6203300999477506,return,1.4697520998306572,,,,,,,,,,,,,,,,,,,,,,,,,,,,,,,,,UJD902,train_x,red_square,bottom_left,2025-04-15_10h09.10.890,HideSeek_v1,2022.2.5,59.949486666433344,
,0,4,4,4,4,0,56,,train_dim1_1,13,30,,,,2,0,2,0,,,,,,,,,0,0,0,0,0,12,12,12,1,0,1,0,,,,,,,,,,,,,,,,,,,,,,,,,,,,,,,,,,,,,,,,,,,,,,,,,,,,,,,,,,,,,,,,30,,,,,,,,503.0396875003353,503.0396875003353,503.0396875003353,503.0396875003353,503.0396875003353,right,0.3583494001068175,8,0,0,99,0.0,-0.08,right,0.27783010015264153,,,,,,,,,,,,,,,,,,,,,,,,,,,,,,,,,,,,,,,,,,,,,,,,,,,,,,,,,,,,UJD902,train_x,red_square,bottom_left,2025-04-15_10h09.10.890,HideSeek_v1,2022.2.5,59.949486666433344,
,0,4,4,4,4,0,56,,train_dim1_1,13,30,,,,2,0,2,0,,,,,,,,,0,0,0,0,0,12,12,12,2,0,2,0,,,,,,,,,,,,,,,,,,,,,,,,,,,,,,,,,,,,,,,,,,,,,,,,,,,,,,,,,,,,,,,,30,,,,,,,,503.40434470027685,503.40434470027685,503.40434470027685,503.40434470027685,503.40434470027685,right,0.30970240011811256,8,0,0,99,0.08,-0.08,right,0.23420599941164255,,,,,,,,,,,,,,,,,,,,,,,,,,,,,,,,,,,,,,,,,,,,,,,,,,,,,,,,,,,,UJD902,train_x,red_square,bottom_left,2025-04-15_10h09.10.890,HideSeek_v1,2022.2.5,59.949486666433344,
,0,4,4,4,4,0,56,,train_dim1_1,13,30,,,,2,0,2,0,,,,,,,,,0,0,0,0,0,12,12,12,3,0,3,0,,,,,,,,,,,,,,,,,,,,,,,,,,,,,,,,,,,,,,,,,,,,,,,,,,,,,,,,,,,,,,,,30,,,,,,,,503.72061660001054,503.72061660001054,503.72061660001054,503.72061660001054,503.72061660001054,right,0.37709799967706203,8,0,0,99,0.16,-0.08,right,0.29960469994693995,,,,,,,,,,,,,,,,,,,,,,,,,,,,,,,,,,,,,,,,,,,,,,,,,,,,,,,,,,,,UJD902,train_x,red_square,bottom_left,2025-04-15_10h09.10.890,HideSeek_v1,2022.2.5,59.949486666433344,
,0,4,4,4,4,0,56,,train_dim1_1,13,30,,,,2,0,2,0,,,,,,,,,0,0,0,0,0,12,12,12,4,0,4,0,,,,,,,,,,,,,,,,,,,,,,,,,,,,,,,,,,,,,,,,,,,,,,,,,,,,,,,,,,,,,,,,30,,,,,,,,504.10473830020055,504.10473830020055,504.10473830020055,504.10473830020055,504.10473830020055,right,0.35990520007908344,8,0,0,99,0.24,-0.08,right,0.2800336997024715,,,,,,,,,,,,,,,,,,,,,,,,,,,,,,,,,,,,,,,,,,,,,,,,,,,,,,,,,,,,UJD902,train_x,red_square,bottom_left,2025-04-15_10h09.10.890,HideSeek_v1,2022.2.5,59.949486666433344,
,0,4,4,4,4,0,56,,train_dim1_1,13,30,,,,2,0,2,0,,,,,,,,,0,0,0,0,0,12,12,12,5,0,5,0,,,,,,,,,,,,,,,,,,,,,,,,,,,,,,,,,,,,,,,,,,,,,,,,,,,,,,,,,,,,,,,,30,,,,,,,,504.47156330011785,504.47156330011785,504.47156330011785,504.47156330011785,504.47156330011785,return,0.4098935001529753,8,1,0,0,0.24,-0.08,return,0.3209049995057285,3,37,0.24,-0.08,,,,,,,,,,,,,,,,,,,,,,,,,,,,,,,,,,,,,,,,,,,,,,,,,,,,,,,,UJD902,train_x,red_square,bottom_left,2025-04-15_10h09.10.890,HideSeek_v1,2022.2.5,59.949486666433344,
,4,3,4,3,0,0,16,,train_dim1_1,14,30,,,,2,0,2,0,,,,,,,,,0,0,0,0,0,13,13,13,0,0,0,0,,,,,,,,,,,,,,,,,,,,,,,,,stimuli/alien_stimuli/16.png,,,,,,,,,,,,,,,,,,,,,,,,,,,,,stimuli/alien_stimuli/56.png,56,0,15,,,,,,,30,,,,,,,,509.0556914000772,509.0556914000772,509.0556914000772,509.0556914000772,509.0556914000772,return,1.0714648999273777,9,0,0,1,0.16,-0.16,return,0.9748765993863344,3,37,0.16,-0.16,507.49178740009665,509.0556914000772,0.16,-0.08,0.0,0.32,-0.08,0.16,0.0,0.16,-0.08,506.44697650009766,506.44697650009766,506.44697650009766,506.44697650009766,506.44697650009766,506.44697650009766,506.44697650009766,506.44697650009766,506.42458628015595,1.1531204003840685,return,1.0161174000240862,,,,,,,,,,,,,,,,,,,,,,,,,,,,,,,,,UJD902,train_x,red_square,bottom_left,2025-04-15_10h09.10.890,HideSeek_v1,2022.2.5,59.949486666433344,
,4,2,9,2,5,0,66,,train_dim1_1,15,30,,,,2,0,2,0,,,,,,,,,0,0,0,0,0,14,14,14,0,0,0,0,,,,,,,,,,,,,,,,,,,,,,,,,stimuli/alien_stimuli/66.png,,,,,,,,,,,,,,,,,,,,,,,,,,,,,stimuli/alien_stimuli/16.png,16,4,16,,,,,,,30,,,,,,,,515.0762016000226,515.0762016000226,515.0762016000226,515.0762016000226,515.0762016000226,right,0.78777140006423,9,0,0,99,0.24,-0.24,right,0.6900911997072399,,,,,513.5133946002461,515.0762016000226,0.16,-0.16,0.0,0.0,-0.16,0.16,0.16,0.16,-0.16,511.6916127000004,511.6916127000004,511.6916127000004,511.6916127000004,511.6916127000004,511.6916127000004,511.6916127000004,511.6916127000004,511.67901276033376,1.9372104001231492,return,1.8001307994127274,,,,,,,,,,,,,,,,,,,,,,,,,,,,,,,,,UJD902,train_x,red_square,bottom_left,2025-04-15_10h09.10.890,HideSeek_v1,2022.2.5,59.949486666433344,
,4,2,9,2,5,0,66,,train_dim1_1,15,30,,,,2,0,2,0,,,,,,,,,0,0,0,0,0,14,14,14,1,0,1,0,,,,,,,,,,,,,,,,,,,,,,,,,,,,,,,,,,,,,,,,,,,,,,,,,,,,,,,,,,,,,,,,30,,,,,,,,515.8630452002399,515.8630452002399,515.8630452002399,515.8630452002399,515.8630452002399,right,0.3596079000271857,9,0,0,99,0.32,-0.24,right,0.27520159957930446,,,,,,,,,,,,,,,,,,,,,,,,,,,,,,,,,,,,,,,,,,,,,,,,,,,,,,,,,,,,UJD902,train_x,red_square,bottom_left,2025-04-15_10h09.10.890,HideSeek_v1,2022.2.5,59.949486666433344,
,4,2,9,2,5,0,66,,train_dim1_1,15,30,,,,2,0,2,0,,,,,,,,,0,0,0,0,0,14,14,14,2,0,2,0,,,,,,,,,,,,,,,,,,,,,,,,,,,,,,,,,,,,,,,,,,,,,,,,,,,,,,,,,,,,,,,,30,,,,,,,,516.2298787003383,516.2298787003383,516.2298787003383,516.2298787003383,516.2298787003383,right,0.36002019979059696,9,0,0,99,0.4,-0.24,right,0.28069639997556806,,,,,,,,,,,,,,,,,,,,,,,,,,,,,,,,,,,,,,,,,,,,,,,,,,,,,,,,,,,,UJD902,train_x,red_square,bottom_left,2025-04-15_10h09.10.890,HideSeek_v1,2022.2.5,59.949486666433344,
,4,2,9,2,5,0,66,,train_dim1_1,15,30,,,,2,0,2,0,,,,,,,,,0,0,0,0,0,14,14,14,3,0,3,0,,,,,,,,,,,,,,,,,,,,,,,,,,,,,,,,,,,,,,,,,,,,,,,,,,,,,,,,,,,,,,,,30,,,,,,,,516.5974729000591,516.5974729000591,516.5974729000591,516.5974729000591,516.5974729000591,right,0.37649100041016936,9,0,0,99,0.48000000000000004,-0.24,right,0.28867969987913966,,,,,,,,,,,,,,,,,,,,,,,,,,,,,,,,,,,,,,,,,,,,,,,,,,,,,,,,,,,,UJD902,train_x,red_square,bottom_left,2025-04-15_10h09.10.890,HideSeek_v1,2022.2.5,59.949486666433344,
,4,2,9,2,5,0,66,,train_dim1_1,15,30,,,,2,0,2,0,,,,,,,,,0,0,0,0,0,14,14,14,4,0,4,0,,,,,,,,,,,,,,,,,,,,,,,,,,,,,,,,,,,,,,,,,,,,,,,,,,,,,,,,,,,,,,,,30,,,,,,,,516.9799612001516,516.9799612001516,516.9799612001516,516.9799612001516,516.9799612001516,right,0.3766679996624589,9,0,0,99,0.56,-0.24,right,0.29463519947603345,,,,,,,,,,,,,,,,,,,,,,,,,,,,,,,,,,,,,,,,,,,,,,,,,,,,,,,,,,,,UJD902,train_x,red_square,bottom_left,2025-04-15_10h09.10.890,HideSeek_v1,2022.2.5,59.949486666433344,
,4,2,9,2,5,0,66,,train_dim1_1,15,30,,,,2,0,2,0,,,,,,,,,0,0,0,0,0,14,14,14,5,0,5,0,,,,,,,,,,,,,,,,,,,,,,,,,,,,,,,,,,,,,,,,,,,,,,,,,,,,,,,,,,,,,,,,30,,,,,,,,517.3633622000925,517.3633622000925,517.3633622000925,517.3633622000925,517.3633622000925,return,0.4266892997547984,10,0,0,1,0.56,-0.24,return,0.34284159960225224,3,42,0.56,-0.24,,,,,,,,,,,,,,,,,,,,,,,,,,,,,,,,,,,,,,,,,,,,,,,,,,,,,,,,UJD902,train_x,red_square,bottom_left,2025-04-15_10h09.10.890,HideSeek_v1,2022.2.5,59.949486666433344,
,3,3,7,3,4,0,56,,train_dim1_1,16,30,,,,2,0,2,0,,,,,,,,,0,0,0,0,0,15,15,15,0,0,0,0,,,,,,,,,,,,,,,,,,,,,,,,,stimuli/alien_stimuli/56.png,,,,,,,,,,,,,,,,,,,,,,,,,,,,,stimuli/alien_stimuli/66.png,66,4,17,,,,,,,30,,,,,,,,523.7361085000448,523.7361085000448,523.7361085000448,523.7361085000448,523.7361085000448,right,0.9374095997773111,10,0,0,99,0.16,-0.16,right,0.8432427998632193,,,,,522.1704978002235,523.7361085000448,0.56,-0.24,0.0,0.4,-0.24,0.56,0.36000000000000004,0.56,-0.24,519.3532147002406,519.3532147002406,519.3532147002406,519.3532147002406,519.3532147002406,519.3532147002406,519.3532147002406,519.3532147002406,519.3346647800878,2.921667499933392,return,2.792528299614787,,,,,,,,,,,,,,,,,,,,,,,,,,,,,,,,,UJD902,train_x,red_square,bottom_left,2025-04-15_10h09.10.890,HideSeek_v1,2022.2.5,59.949486666433344,
,3,3,7,3,4,0,56,,train_dim1_1,16,30,,,,2,0,2,0,,,,,,,,,0,0,0,0,0,15,15,15,1,0,1,0,,,,,,,,,,,,,,,,,,,,,,,,,,,,,,,,,,,,,,,,,,,,,,,,,,,,,,,,,,,,,,,,30,,,,,,,,524.6728164004162,524.6728164004162,524.6728164004162,524.6728164004162,524.6728164004162,right,0.3926365999504924,10,0,0,99,0.24,-0.16,right,0.3165350998751819,,,,,,,,,,,,,,,,,,,,,,,,,,,,,,,,,,,,,,,,,,,,,,,,,,,,,,,,,,,,UJD902,train_x,red_square,bottom_left,2025-04-15_10h09.10.890,HideSeek_v1,2022.2.5,59.949486666433344,
,3,3,7,3,4,0,56,,train_dim1_1,16,30,,,,2,0,2,0,,,,,,,,,0,0,0,0,0,15,15,15,2,0,2,0,,,,,,,,,,,,,,,,,,,,,,,,,,,,,,,,,,,,,,,,,,,,,,,,,,,,,,,,,,,,,,,,30,,,,,,,,525.0714231003076,525.0714231003076,525.0714231003076,525.0714231003076,525.0714231003076,right,0.6934609999880195,10,0,0,99,0.32,-0.16,right,0.6112429997883737,,,,,,,,,,,,,,,,,,,,,,,,,,,,,,,,,,,,,,,,,,,,,,,,,,,,,,,,,,,,UJD902,train_x,red_square,bottom_left,2025-04-15_10h09.10.890,HideSeek_v1,2022.2.5,59.949486666433344,
,3,3,7,3,4,0,56,,train_dim1_1,16,30,,,,2,0,2,0,,,,,,,,,0,0,0,0,0,15,15,15,3,0,3,0,,,,,,,,,,,,,,,,,,,,,,,,,,,,,,,,,,,,,,,,,,,,,,,,,,,,,,,,,,,,,,,,30,,,,,,,,525.7720483001322,525.7720483001322,525.7720483001322,525.7720483001322,525.7720483001322,right,0.8605407001450658,10,0,0,99,0.4,-0.16,right,0.7721961000934243,,,,,,,,,,,,,,,,,,,,,,,,,,,,,,,,,,,,,,,,,,,,,,,,,,,,,,,,,,,,UJD902,train_x,red_square,bottom_left,2025-04-15_10h09.10.890,HideSeek_v1,2022.2.5,59.949486666433344,
,3,3,7,3,4,0,56,,train_dim1_1,16,30,,,,2,0,2,0,,,,,,,,,0,0,0,0,0,15,15,15,4,0,4,0,,,,,,,,,,,,,,,,,,,,,,,,,,,,,,,,,,,,,,,,,,,,,,,,,,,,,,,,,,,,,,,,30,,,,,,,,526.6399624003097,526.6399624003097,526.6399624003097,526.6399624003097,526.6399624003097,return,0.4934478998184204,11,0,0,1,0.4,-0.16,return,0.41132159950211644,3,46,0.4,-0.16,,,,,,,,,,,,,,,,,,,,,,,,,,,,,,,,,,,,,,,,,,,,,,,,,,,,,,,,UJD902,train_x,red_square,bottom_left,2025-04-15_10h09.10.890,HideSeek_v1,2022.2.5,59.949486666433344,
,2,4,3,4,1,0,26,,train_dim1_1,17,30,,,,2,0,2,0,,,,,,,,,0,0,0,0,0,16,16,16,0,0,0,0,,,,,,,,,,,,,,,,,,,,,,,,,stimuli/alien_stimuli/26.png,,,,,,,,,,,,,,,,,,,,,,,,,,,,,stimuli/alien_stimuli/56.png,56,3,18,,,,,,,30,,,,,,,,532.4480766002089,532.4480766002089,532.4480766002089,532.4480766002089,532.4480766002089,right,2.5572040998376906,11,0,0,99,0.08,-0.08,right,2.43770149955526,,,,,530.8611134001985,532.4480766002089,0.4,-0.16,0.0,0.32,-0.16,0.4,0.24000000000000002,0.4,-0.16,528.6963941999711,528.6963941999711,528.6963941999711,528.6963941999711,528.6963941999711,528.6963941999711,528.6963941999711,528.6963941999711,528.6763398804702,2.2711637997999787,return,2.132940299808979,,,,,,,,,,,,,,,,,,,,,,,,,,,,,,,,,UJD902,train_x,red_square,bottom_left,2025-04-15_10h09.10.890,HideSeek_v1,2022.2.5,59.949486666433344,
,2,4,3,4,1,0,26,,train_dim1_1,17,30,,,,2,0,2,0,,,,,,,,,0,0,0,0,0,16,16,16,1,0,1,0,,,,,,,,,,,,,,,,,,,,,,,,,,,,,,,,,,,,,,,,,,,,,,,,,,,,,,,,,,,,,,,,30,,,,,,,,534.9822584004141,534.9822584004141,534.9822584004141,534.9822584004141,534.9822584004141,left,1.126808799803257,11,0,0,99,0.0,-0.08,left,1.0407826993614435,,,,,,,,,,,,,,,,,,,,,,,,,,,,,,,,,,,,,,,,,,,,,,,,,,,,,,,,,,,,UJD902,train_x,red_square,bottom_left,2025-04-15_10h09.10.890,HideSeek_v1,2022.2.5,59.949486666433344,
,2,4,3,4,1,0,26,,train_dim1_1,17,30,,,,2,0,2,0,,,,,,,,,0,0,0,0,0,16,16,16,2,0,2,0,,,,,,,,,,,,,,,,,,,,,,,,,,,,,,,,,,,,,,,,,,,,,,,,,,,,,,,,,,,,,,,,30,,,,,,,,536.1164916004054,536.1164916004054,536.1164916004054,536.1164916004054,536.1164916004054,return,1.043809600174427,11,1,0,0,0.0,-0.08,return,0.9559093997813761,3,46,0.0,-0.08,,,,,,,,,,,,,,,,,,,,,,,,,,,,,,,,,,,,,,,,,,,,,,,,,,,,,,,,UJD902,train_x,red_square,bottom_left,2025-04-15_10h09.10.890,HideSeek_v1,2022.2.5,59.949486666433344,
,2,1,7,1,5,0,66,,train_dim1_1,18,30,,,,2,0,2,0,,,,,,,,,0,0,0,0,0,17,17,17,0,0,0,0,,,,,,,,,,,,,,,,,,,,,,,,,stimuli/alien_stimuli/66.png,,,,,,,,,,,,,,,,,,,,,,,,,,,,,stimuli/alien_stimuli/26.png,26,2,19,,,,,,,30,,,,,,,,541.9016216001473,541.9016216001473,541.9016216001473,541.9016216001473,541.9016216001473,right,0.9207959999330342,11,1,0,99,0.08,-0.32,right,0.8117930996231735,,,,,540.3188377004117,541.9016216001473,0.08,-0.08,0.0,0.08,-0.08,0.08,0.04,0.08,-0.08,538.7258252999745,538.7258252999745,538.7258252999745,538.7258252999745,538.7258252999745,538.7258252999745,538.7258252999745,538.7258252999745,538.7180644602515,1.7036107000894845,return,1.5748281995765865,,,,,,,,,,,,,,,,,,,,,,,,,,,,,,,,,UJD902,train_x,red_square,bottom_left,2025-04-15_10h09.10.890,HideSeek_v1,2022.2.5,59.949486666433344,
,2,1,7,1,5,0,66,,train_dim1_1,18,30,,,,2,0,2,0,,,,,,,,,0,0,0,0,0,17,17,17,1,0,1,0,,,,,,,,,,,,,,,,,,,,,,,,,,,,,,,,,,,,,,,,,,,,,,,,,,,,,,,,,,,,,,,,30,,,,,,,,542.8061295002699,542.8061295002699,542.8061295002699,542.8061295002699,542.8061295002699,right,0.3387816003523767,11,1,0,99,0.16,-0.32,right,0.2598005994223058,,,,,,,,,,,,,,,,,,,,,,,,,,,,,,,,,,,,,,,,,,,,,,,,,,,,,,,,,,,,UJD902,train_x,red_square,bottom_left,2025-04-15_10h09.10.890,HideSeek_v1,2022.2.5,59.949486666433344,
,2,1,7,1,5,0,66,,train_dim1_1,18,30,,,,2,0,2,0,,,,,,,,,0,0,0,0,0,17,17,17,2,0,2,0,,,,,,,,,,,,,,,,,,,,,,,,,,,,,,,,,,,,,,,,,,,,,,,,,,,,,,,,,,,,,,,,30,,,,,,,,543.1503599002026,543.1503599002026,543.1503599002026,543.1503599002026,543.1503599002026,right,0.3436731998808682,11,1,0,99,0.24,-0.32,right,0.26389879966154695,,,,,,,,,,,,,,,,,,,,,,,,,,,,,,,,,,,,,,,,,,,,,,,,,,,,,,,,,,,,UJD902,train_x,red_square,bottom_left,2025-04-15_10h09.10.890,HideSeek_v1,2022.2.5,59.949486666433344,
,2,1,7,1,5,0,66,,train_dim1_1,18,30,,,,2,0,2,0,,,,,,,,,0,0,0,0,0,17,17,17,3,0,3,0,,,,,,,,,,,,,,,,,,,,,,,,,,,,,,,,,,,,,,,,,,,,,,,,,,,,,,,,,,,,,,,,30,,,,,,,,543.5024649002589,543.5024649002589,543.5024649002589,543.5024649002589,543.5024649002589,right,0.37638660008087754,11,1,0,99,0.32,-0.32,right,0.30298229958862066,,,,,,,,,,,,,,,,,,,,,,,,,,,,,,,,,,,,,,,,,,,,,,,,,,,,,,,,,,,,UJD902,train_x,red_square,bottom_left,2025-04-15_10h09.10.890,HideSeek_v1,2022.2.5,59.949486666433344,
,2,1,7,1,5,0,66,,train_dim1_1,18,30,,,,2,0,2,0,,,,,,,,,0,0,0,0,0,17,17,17,4,0,4,0,,,,,,,,,,,,,,,,,,,,,,,,,,,,,,,,,,,,,,,,,,,,,,,,,,,,,,,,,,,,,,,,30,,,,,,,,543.8848910001107,543.8848910001107,543.8848910001107,543.8848910001107,543.8848910001107,right,0.41002830024808645,11,1,0,99,0.4,-0.32,right,0.33545729983597994,,,,,,,,,,,,,,,,,,,,,,,,,,,,,,,,,,,,,,,,,,,,,,,,,,,,,,,,,,,,UJD902,train_x,red_square,bottom_left,2025-04-15_10h09.10.890,HideSeek_v1,2022.2.5,59.949486666433344,
,2,1,7,1,5,0,66,,train_dim1_1,18,30,,,,2,0,2,0,,,,,,,,,0,0,0,0,0,17,17,17,5,0,5,0,,,,,,,,,,,,,,,,,,,,,,,,,,,,,,,,,,,,,,,,,,,,,,,,,,,,,,,,,,,,,,,,30,,,,,,,,544.3019008003175,544.3019008003175,544.3019008003175,544.3019008003175,544.3019008003175,return,0.4098854996263981,12,0,0,1,0.4,-0.32,return,0.3222176996059716,3,51,0.4,-0.32,,,,,,,,,,,,,,,,,,,,,,,,,,,,,,,,,,,,,,,,,,,,,,,,,,,,,,,,UJD902,train_x,red_square,bottom_left,2025-04-15_10h09.10.890,HideSeek_v1,2022.2.5,59.949486666433344,
,0,3,3,3,3,0,46,,train_dim1_1,19,30,,,,2,0,2,0,,,,,,,,,0,0,0,0,0,18,18,18,0,0,0,0,,,,,,,,,,,,,,,,,,,,,,,,,stimuli/alien_stimuli/46.png,,,,,,,,,,,,,,,,,,,,,,,,,,,,,stimuli/alien_stimuli/66.png,66,2,20,,,,,,,30,,,,,,,,548.5362342000008,548.5362342000008,548.5362342000008,548.5362342000008,548.5362342000008,right,0.9695659996941686,12,0,0,99,-0.08,-0.16,right,0.8825291995890439,,,,,546.9744871002622,548.5362342000008,0.4,-0.32,0.0,0.4,-0.32,0.4,0.2,0.4,-0.32,546.2763612000272,546.2763612000272,546.2763612000272,546.2763612000272,546.2763612000272,546.2763612000272,546.2763612000272,546.2763612000272,546.2578625803814,0.8024806999601424,return,0.6753449998795986,,,,,,,,,,,,,,,,,,,,,,,,,,,,,,,,,UJD902,train_x,red_square,bottom_left,2025-04-15_10h09.10.890,HideSeek_v1,2022.2.5,59.949486666433344,
,0,3,3,3,3,0,46,,train_dim1_1,19,30,,,,2,0,2,0,,,,,,,,,0,0,0,0,0,18,18,18,1,0,1,0,,,,,,,,,,,,,,,,,,,,,,,,,,,,,,,,,,,,,,,,,,,,,,,,,,,,,,,,,,,,,,,,30,,,,,,,,549.5070589999668,549.5070589999668,549.5070589999668,549.5070589999668,549.5070589999668,right,0.34298900002613664,12,0,0,99,0.0,-0.16,right,0.2628401997499168,,,,,,,,,,,,,,,,,,,,,,,,,,,,,,,,,,,,,,,,,,,,,,,,,,,,,,,,,,,,UJD902,train_x,red_square,bottom_left,2025-04-15_10h09.10.890,HideSeek_v1,2022.2.5,59.949486666433344,
,0,3,3,3,3,0,46,,train_dim1_1,19,30,,,,2,0,2,0,,,,,,,,,0,0,0,0,0,18,18,18,2,0,2,0,,,,,,,,,,,,,,,,,,,,,,,,,,,,,,,,,,,,,,,,,,,,,,,,,,,,,,,,,,,,,,,,30,,,,,,,,549.8593872003257,549.8593872003257,549.8593872003257,549.8593872003257,549.8593872003257,right,0.39332889998331666,12,0,0,99,0.08,-0.16,right,0.3073517996817827,,,,,,,,,,,,,,,,,,,,,,,,,,,,,,,,,,,,,,,,,,,,,,,,,,,,,,,,,,,,UJD902,train_x,red_square,bottom_left,2025-04-15_10h09.10.890,HideSeek_v1,2022.2.5,59.949486666433344,
,0,3,3,3,3,0,46,,train_dim1_1,19,30,,,,2,0,2,0,,,,,,,,,0,0,0,0,0,18,18,18,3,0,3,0,,,,,,,,,,,,,,,,,,,,,,,,,,,,,,,,,,,,,,,,,,,,,,,,,,,,,,,,,,,,,,,,30,,,,,,,,550.2577869002707,550.2577869002707,550.2577869002707,550.2577869002707,550.2577869002707,right,0.343306299764663,12,0,0,99,0.16,-0.16,right,0.258086399640888,,,,,,,,,,,,,,,,,,,,,,,,,,,,,,,,,,,,,,,,,,,,,,,,,,,,,,,,,,,,UJD902,train_x,red_square,bottom_left,2025-04-15_10h09.10.890,HideSeek_v1,2022.2.5,59.949486666433344,
,0,3,3,3,3,0,46,,train_dim1_1,19,30,,,,2,0,2,0,,,,,,,,,0,0,0,0,0,18,18,18,4,0,4,0,,,,,,,,,,,,,,,,,,,,,,,,,,,,,,,,,,,,,,,,,,,,,,,,,,,,,,,,,,,,,,,,30,,,,,,,,550.6074960003607,550.6074960003607,550.6074960003607,550.6074960003607,550.6074960003607,return,0.4098815000616014,12,1,0,0,0.16,-0.16,return,0.3274401994422078,3,55,0.16,-0.16,,,,,,,,,,,,,,,,,,,,,,,,,,,,,,,,,,,,,,,,,,,,,,,,,,,,,,,,UJD902,train_x,red_square,bottom_left,2025-04-15_10h09.10.890,HideSeek_v1,2022.2.5,59.949486666433344,
,0,1,0,1,0,0,16,,train_dim1_1,20,30,,,,2,0,2,0,,,,,,,,,0,0,0,0,0,19,19,19,0,0,0,0,,,,,,,,,,,,,,,,,,,,,,,,,stimuli/alien_stimuli/16.png,,,,,,,,,,,,,,,,,,,,,,,,,,,,,stimuli/alien_stimuli/46.png,46,0,21,,,,,,,30,,,,,,,,555.3603827999905,555.3603827999905,555.3603827999905,555.3603827999905,555.3603827999905,right,0.9878064999356866,12,1,0,99,-0.08,-0.32,right,0.9014348997734487,,,,,553.7968313000165,555.3603827999905,0.08,-0.16,0.0,0.24,-0.16,0.08,-0.04,0.08,-0.16,552.581660900265,552.581660900265,552.581660900265,552.581660900265,552.581660900265,552.581660900265,552.581660900265,552.581660900265,552.5628027803265,1.3200089000165462,return,1.1945936996489763,,,,,,,,,,,,,,,,,,,,,,,,,,,,,,,,,UJD902,train_x,red_square,bottom_left,2025-04-15_10h09.10.890,HideSeek_v1,2022.2.5,59.949486666433344,
,0,1,0,1,0,0,16,,train_dim1_1,20,30,,,,2,0,2,0,,,,,,,,,0,0,0,0,0,19,19,19,1,0,1,0,,,,,,,,,,,,,,,,,,,,,,,,,,,,,,,,,,,,,,,,,,,,,,,,,,,,,,,,,,,,,,,,30,,,,,,,,556.3510410003364,556.3510410003364,556.3510410003364,556.3510410003364,556.3510410003364,left,0.4762242999859154,12,1,0,99,-0.16,-0.32,left,0.3931535994634032,,,,,,,,,,,,,,,,,,,,,,,,,,,,,,,,,,,,,,,,,,,,,,,,,,,,,,,,,,,,UJD902,train_x,red_square,bottom_left,2025-04-15_10h09.10.890,HideSeek_v1,2022.2.5,59.949486666433344,
,0,1,0,1,0,0,16,,train_dim1_1,20,30,,,,2,0,2,0,,,,,,,,,0,0,0,0,0,19,19,19,2,0,2,0,,,,,,,,,,,,,,,,,,,,,,,,,,,,,,,,,,,,,,,,,,,,,,,,,,,,,,,,,,,,,,,,30,,,,,,,,556.8330705002882,556.8330705002882,556.8330705002882,556.8330705002882,556.8330705002882,return,0.3269475996494293,13,0,0,1,-0.16,-0.32,return,0.24542879965156317,3,55,-0.16,-0.32,,,,,,,,,,,,,,,,,,,,,,,,,,,,,,,,,,,,,,,,,,,,,,,,,,,,,,,,UJD902,train_x,red_square,bottom_left,2025-04-15_10h09.10.890,HideSeek_v1,2022.2.5,59.949486666433344,
,4,2,7,2,3,0,46,,train_dim1_1,21,30,,,,2,0,2,0,,,,,,,,,0,0,0,0,0,20,20,20,0,0,0,0,,,,,,,,,,,,,,,,,,,,,,,,,stimuli/alien_stimuli/46.png,,,,,,,,,,,,,,,,,,,,,,,,,,,,,stimuli/alien_stimuli/16.png,16,0,22,,,,,,,30,,,,,,,,562.2603532001376,562.2603532001376,562.2603532001376,562.2603532001376,562.2603532001376,right,1.0404727002605796,13,0,0,99,0.24,-0.24,right,0.9495979994535446,,,,,560.7025050004013,562.2603532001376,-0.16,-0.32,0.0,0.0,-0.32,-0.16,-0.16,-0.16,-0.32,558.7292163004167,558.7292163004167,558.7292163004167,558.7292163004167,558.7292163004167,558.7292163004167,558.7292163004167,558.7292163004167,558.7181801603176,2.087161500006914,return,1.9522117995657027,,,,,,,,,,,,,,,,,,,,,,,,,,,,,,,,,UJD902,train_x,red_square,bottom_left,2025-04-15_10h09.10.890,HideSeek_v1,2022.2.5,59.949486666433344,
,4,2,7,2,3,0,46,,train_dim1_1,21,30,,,,2,0,2,0,,,,,,,,,0,0,0,0,0,20,20,20,1,0,1,0,,,,,,,,,,,,,,,,,,,,,,,,,,,,,,,,,,,,,,,,,,,,,,,,,,,,,,,,,,,,,,,,30,,,,,,,,563.3020681999624,563.3020681999624,563.3020681999624,563.3020681999624,563.3020681999624,right,0.4256557999178767,13,0,0,99,0.32,-0.24,right,0.343879799824208,,,,,,,,,,,,,,,,,,,,,,,,,,,,,,,,,,,,,,,,,,,,,,,,,,,,,,,,,,,,UJD902,train_x,red_square,bottom_left,2025-04-15_10h09.10.890,HideSeek_v1,2022.2.5,59.949486666433344,
,4,2,7,2,3,0,46,,train_dim1_1,21,30,,,,2,0,2,0,,,,,,,,,0,0,0,0,0,20,20,20,2,0,2,0,,,,,,,,,,,,,,,,,,,,,,,,,,,,,,,,,,,,,,,,,,,,,,,,,,,,,,,,,,,,,,,,30,,,,,,,,563.734229600057,563.734229600057,563.734229600057,563.734229600057,563.734229600057,right,0.5270576002076268,13,0,0,99,0.4,-0.24,right,0.43959239963442087,,,,,,,,,,,,,,,,,,,,,,,,,,,,,,,,,,,,,,,,,,,,,,,,,,,,,,,,,,,,UJD902,train_x,red_square,bottom_left,2025-04-15_10h09.10.890,HideSeek_v1,2022.2.5,59.949486666433344,
,4,2,7,2,3,0,46,,train_dim1_1,21,30,,,,2,0,2,0,,,,,,,,,0,0,0,0,0,20,20,20,3,0,3,0,,,,,,,,,,,,,,,,,,,,,,,,,,,,,,,,,,,,,,,,,,,,,,,,,,,,,,,,,,,,,,,,30,,,,,,,,564.2682882002555,564.2682882002555,564.2682882002555,564.2682882002555,564.2682882002555,return,0.8268249002285302,14,0,0,1,0.4,-0.24,return,0.7409458998590708,3,58,0.4,-0.24,,,,,,,,,,,,,,,,,,,,,,,,,,,,,,,,,,,,,,,,,,,,,,,,,,,,,,,,UJD902,train_x,red_square,bottom_left,2025-04-15_10h09.10.890,HideSeek_v1,2022.2.5,59.949486666433344,
,1,0,2,0,1,0,26,,train_dim1_1,22,30,,,,2,0,2,0,,,,,,,,,0,0,0,0,0,21,21,21,0,0,0,0,,,,,,,,,,,,,,,,,,,,,,,,,stimuli/alien_stimuli/26.png,,,,,,,,,,,,,,,,,,,,,,,,,,,,,stimuli/alien_stimuli/46.png,46,4,23,,,,,,,30,,,,,,,,568.9864714001305,568.9864714001305,568.9864714001305,568.9864714001305,568.9864714001305,right,0.8374974997714162,14,0,0,99,0.0,-0.4,right,0.7357374997809529,,,,,567.4085319000296,568.9864714001305,0.4,-0.24,0.0,0.24,-0.24,0.4,0.28,0.4,-0.24,566.658834700007,566.658834700007,566.658834700007,566.658834700007,566.658834700007,566.658834700007,566.658834700007,566.658834700007,566.6412790803239,0.8527056998573244,return,0.7179378997534513,,,,,,,,,,,,,,,,,,,,,,,,,,,,,,,,,UJD902,train_x,red_square,bottom_left,2025-04-15_10h09.10.890,HideSeek_v1,2022.2.5,59.949486666433344,
,1,0,2,0,1,0,26,,train_dim1_1,22,30,,,,2,0,2,0,,,,,,,,,0,0,0,0,0,21,21,21,1,0,1,0,,,,,,,,,,,,,,,,,,,,,,,,,,,,,,,,,,,,,,,,,,,,,,,,,,,,,,,,,,,,,,,,30,,,,,,,,569.8112184000202,569.8112184000202,569.8112184000202,569.8112184000202,569.8112184000202,return,0.5097109996713698,15,0,0,1,0.0,-0.4,return,0.4290974996984005,3,59,0.0,-0.4,,,,,,,,,,,,,,,,,,,,,,,,,,,,,,,,,,,,,,,,,,,,,,,,,,,,,,,,UJD902,train_x,red_square,bottom_left,2025-04-15_10h09.10.890,HideSeek_v1,2022.2.5,59.949486666433344,
,2,1,7,1,5,0,66,,train_dim1_1,23,30,,,,2,0,2,0,,,,,,,,,0,0,0,0,0,22,22,22,0,0,0,0,,,,,,,,,,,,,,,,,,,,,,,,,stimuli/alien_stimuli/66.png,,,,,,,,,,,,,,,,,,,,,,,,,,,,,stimuli/alien_stimuli/26.png,26,1,24,,,,,,,30,,,,,,,,574.1081900000572,574.1081900000572,574.1081900000572,574.1081900000572,574.1081900000572,right,0.7880396000109613,15,0,0,99,0.08,-0.32,right,0.6976804994046688,,,,,572.5460045002401,574.1081900000572,0,-0.4,0.0,0.08,-0.4,0,-0.04,0,-0.4,571.8901103003882,571.8901103003882,571.8901103003882,571.8901103003882,571.8901103003882,571.8901103003882,571.8901103003882,571.8901103003882,571.8790991602466,0.7695700000040233,return,0.6298962999135256,,,,,,,,,,,,,,,,,,,,,,,,,,,,,,,,,UJD902,train_x,red_square,bottom_left,2025-04-15_10h09.10.890,HideSeek_v1,2022.2.5,59.949486666433344,
,2,1,7,1,5,0,66,,train_dim1_1,23,30,,,,2,0,2,0,,,,,,,,,0,0,0,0,0,22,22,22,1,0,1,0,,,,,,,,,,,,,,,,,,,,,,,,,,,,,,,,,,,,,,,,,,,,,,,,,,,,,,,,,,,,,,,,30,,,,,,,,574.8943459000438,574.8943459000438,574.8943459000438,574.8943459000438,574.8943459000438,right,0.39235430024564266,15,0,0,99,0.16,-0.32,right,0.3187658996321261,,,,,,,,,,,,,,,,,,,,,,,,,,,,,,,,,,,,,,,,,,,,,,,,,,,,,,,,,,,,UJD902,train_x,red_square,bottom_left,2025-04-15_10h09.10.890,HideSeek_v1,2022.2.5,59.949486666433344,
,2,1,7,1,5,0,66,,train_dim1_1,23,30,,,,2,0,2,0,,,,,,,,,0,0,0,0,0,22,22,22,2,0,2,0,,,,,,,,,,,,,,,,,,,,,,,,,,,,,,,,,,,,,,,,,,,,,,,,,,,,,,,,,,,,,,,,30,,,,,,,,575.2943378002383,575.2943378002383,575.2943378002383,575.2943378002383,575.2943378002383,right,0.4099551001563668,15,0,0,99,0.24,-0.32,right,0.32513399980962276,,,,,,,,,,,,,,,,,,,,,,,,,,,,,,,,,,,,,,,,,,,,,,,,,,,,,,,,,,,,UJD902,train_x,red_square,bottom_left,2025-04-15_10h09.10.890,HideSeek_v1,2022.2.5,59.949486666433344,
,2,1,7,1,5,0,66,,train_dim1_1,23,30,,,,2,0,2,0,,,,,,,,,0,0,0,0,0,22,22,22,3,0,3,0,,,,,,,,,,,,,,,,,,,,,,,,,,,,,,,,,,,,,,,,,,,,,,,,,,,,,,,,,,,,,,,,30,,,,,,,,575.711414300371,575.711414300371,575.711414300371,575.711414300371,575.711414300371,right,0.3934784000739455,15,0,0,99,0.32,-0.32,right,0.31926249945536256,,,,,,,,,,,,,,,,,,,,,,,,,,,,,,,,,,,,,,,,,,,,,,,,,,,,,,,,,,,,UJD902,train_x,red_square,bottom_left,2025-04-15_10h09.10.890,HideSeek_v1,2022.2.5,59.949486666433344,
,2,1,7,1,5,0,66,,train_dim1_1,23,30,,,,2,0,2,0,,,,,,,,,0,0,0,0,0,22,22,22,4,0,4,0,,,,,,,,,,,,,,,,,,,,,,,,,,,,,,,,,,,,,,,,,,,,,,,,,,,,,,,,,,,,,,,,30,,,,,,,,576.1118224002421,576.1118224002421,576.1118224002421,576.1118224002421,576.1118224002421,right,0.4266605000011623,15,0,0,99,0.4,-0.32,right,0.34962329966947436,,,,,,,,,,,,,,,,,,,,,,,,,,,,,,,,,,,,,,,,,,,,,,,,,,,,,,,,,,,,UJD902,train_x,red_square,bottom_left,2025-04-15_10h09.10.890,HideSeek_v1,2022.2.5,59.949486666433344,
,2,1,7,1,5,0,66,,train_dim1_1,23,30,,,,2,0,2,0,,,,,,,,,0,0,0,0,0,22,22,22,5,0,5,0,,,,,,,,,,,,,,,,,,,,,,,,,,,,,,,,,,,,,,,,,,,,,,,,,,,,,,,,,,,,,,,,30,,,,,,,,576.5455766003579,576.5455766003579,576.5455766003579,576.5455766003579,576.5455766003579,return,0.4432544996961951,16,0,0,1,0.4,-0.32,return,0.3700615996494889,3,64,0.4,-0.32,,,,,,,,,,,,,,,,,,,,,,,,,,,,,,,,,,,,,,,,,,,,,,,,,,,,,,,,UJD902,train_x,red_square,bottom_left,2025-04-15_10h09.10.890,HideSeek_v1,2022.2.5,59.949486666433344,
,4,4,8,4,4,0,56,,train_dim1_1,24,30,,,,2,0,2,0,,,,,,,,,0,0,0,0,0,23,23,23,0,0,0,0,,,,,,,,,,,,,,,,,,,,,,,,,stimuli/alien_stimuli/56.png,,,,,,,,,,,,,,,,,,,,,,,,,,,,,stimuli/alien_stimuli/66.png,66,2,25,,,,,,,30,,,,,,,,580.6613175002858,580.6613175002858,580.6613175002858,580.6613175002858,580.6613175002858,right,1.0230594999156892,16,0,0,99,0.24,-0.08,right,0.9399586995132267,,,,,579.1010341001675,580.6613175002858,0.4,-0.32,0.0,0.4,-0.32,0.4,0.2,0.4,-0.32,578.5549962003715,578.5549962003715,578.5549962003715,578.5549962003715,578.5549962003715,578.5549962003715,578.5549962003715,578.5549962003715,578.5345846800134,0.6525045000016689,return,0.5139131997711957,,,,,,,,,,,,,,,,,,,,,,,,,,,,,,,,,UJD902,train_x,red_square,bottom_left,2025-04-15_10h09.10.890,HideSeek_v1,2022.2.5,59.949486666433344,
,4,4,8,4,4,0,56,,train_dim1_1,24,30,,,,2,0,2,0,,,,,,,,,0,0,0,0,0,23,23,23,1,0,1,0,,,,,,,,,,,,,,,,,,,,,,,,,,,,,,,,,,,,,,,,,,,,,,,,,,,,,,,,,,,,,,,,30,,,,,,,,581.6863145004027,581.6863145004027,581.6863145004027,581.6863145004027,581.6863145004027,right,0.3593910001218319,16,0,0,99,0.32,-0.08,right,0.2718565999530256,,,,,,,,,,,,,,,,,,,,,,,,,,,,,,,,,,,,,,,,,,,,,,,,,,,,,,,,,,,,UJD902,train_x,red_square,bottom_left,2025-04-15_10h09.10.890,HideSeek_v1,2022.2.5,59.949486666433344,
,4,4,8,4,4,0,56,,train_dim1_1,24,30,,,,2,0,2,0,,,,,,,,,0,0,0,0,0,23,23,23,2,0,2,0,,,,,,,,,,,,,,,,,,,,,,,,,,,,,,,,,,,,,,,,,,,,,,,,,,,,,,,,,,,,,,,,30,,,,,,,,582.0522025004029,582.0522025004029,582.0522025004029,582.0522025004029,582.0522025004029,right,0.34355400037020445,16,0,0,99,0.4,-0.08,right,0.2637877995148301,,,,,,,,,,,,,,,,,,,,,,,,,,,,,,,,,,,,,,,,,,,,,,,,,,,,,,,,,,,,UJD902,train_x,red_square,bottom_left,2025-04-15_10h09.10.890,HideSeek_v1,2022.2.5,59.949486666433344,
,4,4,8,4,4,0,56,,train_dim1_1,24,30,,,,2,0,2,0,,,,,,,,,0,0,0,0,0,23,23,23,3,0,3,0,,,,,,,,,,,,,,,,,,,,,,,,,,,,,,,,,,,,,,,,,,,,,,,,,,,,,,,,,,,,,,,,30,,,,,,,,582.4029869004153,582.4029869004153,582.4029869004153,582.4029869004153,582.4029869004153,right,0.4101444003172219,16,0,0,99,0.48000000000000004,-0.08,right,0.3198346998542547,,,,,,,,,,,,,,,,,,,,,,,,,,,,,,,,,,,,,,,,,,,,,,,,,,,,,,,,,,,,UJD902,train_x,red_square,bottom_left,2025-04-15_10h09.10.890,HideSeek_v1,2022.2.5,59.949486666433344,
,4,4,8,4,4,0,56,,train_dim1_1,24,30,,,,2,0,2,0,,,,,,,,,0,0,0,0,0,23,23,23,4,0,4,0,,,,,,,,,,,,,,,,,,,,,,,,,,,,,,,,,,,,,,,,,,,,,,,,,,,,,,,,,,,,,,,,30,,,,,,,,582.8195409001783,582.8195409001783,582.8195409001783,582.8195409001783,582.8195409001783,return,0.45986289996653795,17,0,0,1,0.48000000000000004,-0.08,return,0.3812380996532738,3,68,0.48000000000000004,-0.08,,,,,,,,,,,,,,,,,,,,,,,,,,,,,,,,,,,,,,,,,,,,,,,,,,,,,,,,UJD902,train_x,red_square,bottom_left,2025-04-15_10h09.10.890,HideSeek_v1,2022.2.5,59.949486666433344,
,3,0,3,0,0,0,16,,train_dim1_1,25,30,,,,2,0,2,0,,,,,,,,,0,0,0,0,0,24,24,24,0,0,0,0,,,,,,,,,,,,,,,,,,,,,,,,,stimuli/alien_stimuli/16.png,,,,,,,,,,,,,,,,,,,,,,,,,,,,,stimuli/alien_stimuli/56.png,56,4,26,,,,,,,30,,,,,,,,587.0377743002027,587.0377743002027,587.0377743002027,587.0377743002027,587.0377743002027,return,1.121501199901104,18,0,0,1,0.08,-0.4,return,1.0372685994952917,3,68,0.08,-0.4,585.4731682003476,587.0377743002027,0.48,-0.08,0.0,0.32,-0.08,0.48,0.32,0.48,-0.08,584.846919900272,584.846919900272,584.846919900272,584.846919900272,584.846919900272,584.846919900272,584.846919900272,584.846919900272,584.8397916604765,0.7359416000545025,return,0.6011451995000243,,,,,,,,,,,,,,,,,,,,,,,,,,,,,,,,,UJD902,train_x,red_square,bottom_left,2025-04-15_10h09.10.890,HideSeek_v1,2022.2.5,59.949486666433344,
,1,1,6,1,5,0,66,,train_dim1_1,26,30,,,,2,0,2,0,,,,,,,,,0,0,0,0,0,25,25,25,0,0,0,0,,,,,,,,,,,,,,,,,,,,,,,,,stimuli/alien_stimuli/66.png,,,,,,,,,,,,,,,,,,,,,,,,,,,,,stimuli/alien_stimuli/16.png,16,3,27,,,,,,,30,,,,,,,,592.0148807000369,592.0148807000369,592.0148807000369,592.0148807000369,592.0148807000369,right,0.8030409999191761,18,0,0,99,0.0,-0.32,right,0.7096486994996667,,,,,590.4435445000418,592.0148807000369,0.08,-0.4,0.0,0.0,-0.4,0.08,0.08,0.08,-0.4,589.7202114001848,589.7202114001848,589.7202114001848,589.7202114001848,589.7202114001848,589.7202114001848,589.7202114001848,589.7202114001848,589.7107466601767,0.8361817998811603,return,0.6986157996580005,,,,,,,,,,,,,,,,,,,,,,,,,,,,,,,,,UJD902,train_x,red_square,bottom_left,2025-04-15_10h09.10.890,HideSeek_v1,2022.2.5,59.949486666433344,
,1,1,6,1,5,0,66,,train_dim1_1,26,30,,,,2,0,2,0,,,,,,,,,0,0,0,0,0,25,25,25,1,0,1,0,,,,,,,,,,,,,,,,,,,,,,,,,,,,,,,,,,,,,,,,,,,,,,,,,,,,,,,,,,,,,,,,30,,,,,,,,592.8096040003002,592.8096040003002,592.8096040003002,592.8096040003002,592.8096040003002,right,0.39296439988538623,18,0,0,99,0.08,-0.32,right,0.31673079961910844,,,,,,,,,,,,,,,,,,,,,,,,,,,,,,,,,,,,,,,,,,,,,,,,,,,,,,,,,,,,UJD902,train_x,red_square,bottom_left,2025-04-15_10h09.10.890,HideSeek_v1,2022.2.5,59.949486666433344,
,1,1,6,1,5,0,66,,train_dim1_1,26,30,,,,2,0,2,0,,,,,,,,,0,0,0,0,0,25,25,25,2,0,2,0,,,,,,,,,,,,,,,,,,,,,,,,,,,,,,,,,,,,,,,,,,,,,,,,,,,,,,,,,,,,,,,,30,,,,,,,,593.2095564003102,593.2095564003102,593.2095564003102,593.2095564003102,593.2095564003102,right,0.4100000001490116,18,0,0,99,0.16,-0.32,right,0.33813219983130693,,,,,,,,,,,,,,,,,,,,,,,,,,,,,,,,,,,,,,,,,,,,,,,,,,,,,,,,,,,,UJD902,train_x,red_square,bottom_left,2025-04-15_10h09.10.890,HideSeek_v1,2022.2.5,59.949486666433344,
,1,1,6,1,5,0,66,,train_dim1_1,26,30,,,,2,0,2,0,,,,,,,,,0,0,0,0,0,25,25,25,3,0,3,0,,,,,,,,,,,,,,,,,,,,,,,,,,,,,,,,,,,,,,,,,,,,,,,,,,,,,,,,,,,,,,,,30,,,,,,,,593.6283245002851,593.6283245002851,593.6283245002851,593.6283245002851,593.6283245002851,right,0.49343649996444583,18,0,0,99,0.24,-0.32,right,0.411419699434191,,,,,,,,,,,,,,,,,,,,,,,,,,,,,,,,,,,,,,,,,,,,,,,,,,,,,,,,,,,,UJD902,train_x,red_square,bottom_left,2025-04-15_10h09.10.890,HideSeek_v1,2022.2.5,59.949486666433344,
,1,1,6,1,5,0,66,,train_dim1_1,26,30,,,,2,0,2,0,,,,,,,,,0,0,0,0,0,25,25,25,4,0,4,0,,,,,,,,,,,,,,,,,,,,,,,,,,,,,,,,,,,,,,,,,,,,,,,,,,,,,,,,,,,,,,,,30,,,,,,,,594.1271134000272,594.1271134000272,594.1271134000272,594.1271134000272,594.1271134000272,right,0.5766669004224241,18,0,0,99,0.32,-0.32,right,0.4903175998479128,,,,,,,,,,,,,,,,,,,,,,,,,,,,,,,,,,,,,,,,,,,,,,,,,,,,,,,,,,,,UJD902,train_x,red_square,bottom_left,2025-04-15_10h09.10.890,HideSeek_v1,2022.2.5,59.949486666433344,
,1,1,6,1,5,0,66,,train_dim1_1,26,30,,,,2,0,2,0,,,,,,,,,0,0,0,0,0,25,25,25,5,0,5,0,,,,,,,,,,,,,,,,,,,,,,,,,,,,,,,,,,,,,,,,,,,,,,,,,,,,,,,,,,,,,,,,30,,,,,,,,594.7110312003642,594.7110312003642,594.7110312003642,594.7110312003642,594.7110312003642,return,0.5606065997853875,19,0,0,1,0.32,-0.32,return,0.4750049998983741,3,73,0.32,-0.32,,,,,,,,,,,,,,,,,,,,,,,,,,,,,,,,,,,,,,,,,,,,,,,,,,,,,,,,UJD902,train_x,red_square,bottom_left,2025-04-15_10h09.10.890,HideSeek_v1,2022.2.5,59.949486666433344,
,0,1,3,1,3,0,46,,train_dim1_1,27,30,,,,2,0,2,0,,,,,,,,,0,0,0,0,0,26,26,26,0,0,0,0,,,,,,,,,,,,,,,,,,,,,,,,,stimuli/alien_stimuli/46.png,,,,,,,,,,,,,,,,,,,,,,,,,,,,,stimuli/alien_stimuli/66.png,66,1,28,,,,,,,30,,,,,,,,601.445696900133,601.445696900133,601.445696900133,601.445696900133,601.445696900133,right,0.7709452998824418,19,0,0,99,-0.08,-0.32,right,0.6809436995536089,,,,,599.8850780003704,601.445696900133,0.32,-0.32,0.0,0.4,-0.32,0.32,0.12,0.32,-0.32,596.8358924002387,596.8358924002387,596.8358924002387,596.8358924002387,596.8358924002387,596.8358924002387,596.8358924002387,596.8358924002387,596.8163162804209,3.1551540000364184,return,3.027541699819267,,,,,,,,,,,,,,,,,,,,,,,,,,,,,,,,,UJD902,train_x,red_square,bottom_left,2025-04-15_10h09.10.890,HideSeek_v1,2022.2.5,59.949486666433344,
,0,1,3,1,3,0,46,,train_dim1_1,27,30,,,,2,0,2,0,,,,,,,,,0,0,0,0,0,26,26,26,1,0,1,0,,,,,,,,,,,,,,,,,,,,,,,,,,,,,,,,,,,,,,,,,,,,,,,,,,,,,,,,,,,,,,,,30,,,,,,,,602.2184219001792,602.2184219001792,602.2184219001792,602.2184219001792,602.2184219001792,right,0.893469600006938,19,0,0,99,0.0,-0.32,right,0.803931999951601,,,,,,,,,,,,,,,,,,,,,,,,,,,,,,,,,,,,,,,,,,,,,,,,,,,,,,,,,,,,UJD902,train_x,red_square,bottom_left,2025-04-15_10h09.10.890,HideSeek_v1,2022.2.5,59.949486666433344,
,0,1,3,1,3,0,46,,train_dim1_1,27,30,,,,2,0,2,0,,,,,,,,,0,0,0,0,0,26,26,26,2,0,2,0,,,,,,,,,,,,,,,,,,,,,,,,,,,,,,,,,,,,,,,,,,,,,,,,,,,,,,,,,,,,,,,,30,,,,,,,,603.1180191002786,603.1180191002786,603.1180191002786,603.1180191002786,603.1180191002786,right,3.095381199847907,19,0,0,99,0.08,-0.32,right,3.0200791000388563,,,,,,,,,,,,,,,,,,,,,,,,,,,,,,,,,,,,,,,,,,,,,,,,,,,,,,,,,,,,UJD902,train_x,red_square,bottom_left,2025-04-15_10h09.10.890,HideSeek_v1,2022.2.5,59.949486666433344,
,0,1,3,1,3,0,46,,train_dim1_1,27,30,,,,2,0,2,0,,,,,,,,,0,0,0,0,0,26,26,26,3,0,3,0,,,,,,,,,,,,,,,,,,,,,,,,,,,,,,,,,,,,,,,,,,,,,,,,,,,,,,,,,,,,,,,,30,,,,,,,,606.2209287001751,606.2209287001751,606.2209287001751,606.2209287001751,606.2209287001751,return,0.34346819994971156,20,0,0,1,0.08,-0.32,return,0.2609257996082306,3,76,0.08,-0.32,,,,,,,,,,,,,,,,,,,,,,,,,,,,,,,,,,,,,,,,,,,,,,,,,,,,,,,,UJD902,train_x,red_square,bottom_left,2025-04-15_10h09.10.890,HideSeek_v1,2022.2.5,59.949486666433344,
,3,1,4,1,1,0,26,,train_dim1_1,28,30,,,,2,0,2,0,,,,,,,,,0,0,0,0,0,27,27,27,0,0,0,0,,,,,,,,,,,,,,,,,,,,,,,,,stimuli/alien_stimuli/26.png,,,,,,,,,,,,,,,,,,,,,,,,,,,,,stimuli/alien_stimuli/46.png,46,0,29,,,,,,,30,,,,,,,,610.3813548004255,610.3813548004255,610.3813548004255,610.3813548004255,610.3813548004255,right,0.9685249999165535,20,0,0,99,0.16,-0.32,right,0.8565517999231815,,,,,608.7926533999853,610.3813548004255,0.08,-0.32,0.0,0.24,-0.32,0.08,-0.04,0.08,-0.32,608.1575533002615,608.1575533002615,608.1575533002615,608.1575533002615,608.1575533002615,608.1575533002615,608.1575533002615,608.1575533002615,608.1426547404379,0.7694060998037457,return,0.6144893998280168,,,,,,,,,,,,,,,,,,,,,,,,,,,,,,,,,UJD902,train_x,red_square,bottom_left,2025-04-15_10h09.10.890,HideSeek_v1,2022.2.5,59.949486666433344,
,3,1,4,1,1,0,26,,train_dim1_1,28,30,,,,2,0,2,0,,,,,,,,,0,0,0,0,0,27,27,27,1,0,1,0,,,,,,,,,,,,,,,,,,,,,,,,,,,,,,,,,,,,,,,,,,,,,,,,,,,,,,,,,,,,,,,,30,,,,,,,,611.329252500087,611.329252500087,611.329252500087,611.329252500087,611.329252500087,return,0.609428200405091,21,0,0,1,0.16,-0.32,return,0.5260520000010729,3,77,0.16,-0.32,,,,,,,,,,,,,,,,,,,,,,,,,,,,,,,,,,,,,,,,,,,,,,,,,,,,,,,,UJD902,train_x,red_square,bottom_left,2025-04-15_10h09.10.890,HideSeek_v1,2022.2.5,59.949486666433344,
,4,0,8,0,4,0,56,,train_dim1_1,29,30,,,,2,0,2,0,,,,,,,,,0,0,0,0,0,28,28,28,0,0,0,0,,,,,,,,,,,,,,,,,,,,,,,,,stimuli/alien_stimuli/56.png,,,,,,,,,,,,,,,,,,,,,,,,,,,,,stimuli/alien_stimuli/26.png,26,3,30,,,,,,,30,,,,,,,,615.6849716003053,615.6849716003053,615.6849716003053,615.6849716003053,615.6849716003053,right,0.7772679999470711,21,0,0,99,0.24,-0.4,right,0.6756629995070398,,,,,614.1136434003711,615.6849716003053,0.16,-0.32,0.0,0.08,-0.32,0.16,0.12,0.16,-0.32,613.5065719000995,613.5065719000995,613.5065719000995,613.5065719000995,613.5065719000995,613.5065719000995,613.5065719000995,613.5065719000995,613.4970280600712,0.719303899910301,return,0.5808499995619059,,,,,,,,,,,,,,,,,,,,,,,,,,,,,,,,,UJD902,train_x,red_square,bottom_left,2025-04-15_10h09.10.890,HideSeek_v1,2022.2.5,59.949486666433344,
,4,0,8,0,4,0,56,,train_dim1_1,29,30,,,,2,0,2,0,,,,,,,,,0,0,0,0,0,28,28,28,1,0,1,0,,,,,,,,,,,,,,,,,,,,,,,,,,,,,,,,,,,,,,,,,,,,,,,,,,,,,,,,,,,,,,,,30,,,,,,,,616.4642716003582,616.4642716003582,616.4642716003582,616.4642716003582,616.4642716003582,right,0.362043600063771,21,0,0,99,0.32,-0.4,right,0.2848404999822378,,,,,,,,,,,,,,,,,,,,,,,,,,,,,,,,,,,,,,,,,,,,,,,,,,,,,,,,,,,,UJD902,train_x,red_square,bottom_left,2025-04-15_10h09.10.890,HideSeek_v1,2022.2.5,59.949486666433344,
,4,0,8,0,4,0,56,,train_dim1_1,29,30,,,,2,0,2,0,,,,,,,,,0,0,0,0,0,28,28,28,2,0,2,0,,,,,,,,,,,,,,,,,,,,,,,,,,,,,,,,,,,,,,,,,,,,,,,,,,,,,,,,,,,,,,,,30,,,,,,,,616.8321104003116,616.8321104003116,616.8321104003116,616.8321104003116,616.8321104003116,right,0.3933883002027869,21,0,0,99,0.4,-0.4,right,0.3084082994610071,,,,,,,,,,,,,,,,,,,,,,,,,,,,,,,,,,,,,,,,,,,,,,,,,,,,,,,,,,,,UJD902,train_x,red_square,bottom_left,2025-04-15_10h09.10.890,HideSeek_v1,2022.2.5,59.949486666433344,
,4,0,8,0,4,0,56,,train_dim1_1,29,30,,,,2,0,2,0,,,,,,,,,0,0,0,0,0,28,28,28,3,0,3,0,,,,,,,,,,,,,,,,,,,,,,,,,,,,,,,,,,,,,,,,,,,,,,,,,,,,,,,,,,,,,,,,30,,,,,,,,617.2317302003503,617.2317302003503,617.2317302003503,617.2317302003503,617.2317302003503,right,0.3933922001160681,21,0,0,99,0.48000000000000004,-0.4,right,0.31449889997020364,,,,,,,,,,,,,,,,,,,,,,,,,,,,,,,,,,,,,,,,,,,,,,,,,,,,,,,,,,,,UJD902,train_x,red_square,bottom_left,2025-04-15_10h09.10.890,HideSeek_v1,2022.2.5,59.949486666433344,
,4,0,8,0,4,0,56,,train_dim1_1,29,30,,,,2,0,2,0,,,,,,,,,0,0,0,0,0,28,28,28,4,0,4,0,,,,,,,,,,,,,,,,,,,,,,,,,,,,,,,,,,,,,,,,,,,,,,,,,,,,,,,,,,,,,,,,30,,,,,,,,617.6326021002606,617.6326021002606,617.6326021002606,617.6326021002606,617.6326021002606,return,0.4770032996311784,22,0,0,1,0.48000000000000004,-0.4,return,0.3966867998242378,3,81,0.48000000000000004,-0.4,,,,,,,,,,,,,,,,,,,,,,,,,,,,,,,,,,,,,,,,,,,,,,,,,,,,,,,,UJD902,train_x,red_square,bottom_left,2025-04-15_10h09.10.890,HideSeek_v1,2022.2.5,59.949486666433344,
,2,2,2,2,0,0,16,,train_dim1_1,30,30,,,,2,0,2,0,,,,,,,,,0,0,0,0,0,29,29,29,0,0,0,0,,,,,,,,,,,,,,,,,,,,,,,,,stimuli/alien_stimuli/16.png,,,,,,,,,,,,,,,,,,,,,,,,,,,,,stimuli/alien_stimuli/56.png,56,4,31,,,,,,,30,,,,,,,,621.6156426002271,621.6156426002271,621.6156426002271,621.6156426002271,621.6156426002271,return,1.0388104999437928,23,0,0,1,0,-0.24,return,0.9527246998623013,3,81,0,-0.24,620.0519884000532,621.6156426002271,0.48,-0.4,0.0,0.32,-0.4,0.48,0.32,0.48,-0.4,619.6762160002254,619.6762160002254,619.6762160002254,619.6762160002254,619.6762160002254,619.6762160002254,619.6762160002254,619.6762160002254,619.6684621603229,0.48579660011455417,return,0.3534297998994589,,,,,,,,,,,,,,,,,,,,,,,,,,,,,,,,,UJD902,train_x,red_square,bottom_left,2025-04-15_10h09.10.890,HideSeek_v1,2022.2.5,59.949486666433344,
,,,,,,,,,,,30,,,,2,0,2,0,,,,,,,,,,,,,,,,,,,,,,,,,,,,,,,,,,,,,,,,,,,,,,,,,,,,,,,,,,,,,,,,,,,,,,,,,,stimuli/alien_stimuli/16.png,16,2,32,21,0.7,0.9583333333333335,1,1,1,30,0,conditions/schedules/train_x_first/red_square_00/bottom_left/inputTrain_2.1.xlsx,99,1,2,1,0,,,,,,,,,,,1,,,,,,,,,624.739060500171,626.28213290032,0,-0.24,0.0,0.0,-0.24,0,0.0,0,-0.24,624.2129497001879,624.2129497001879,624.2129497001879,624.2129497001879,624.2129497001879,624.2129497001879,624.2129497001879,624.2129497001879,624.2056016603485,0.6363082001917064,return,0.4945613997988403,0,0.9,0,1,23,,,,,,,,,,,,,,,,,,,,,,,,,,,,UJD902,train_x,red_square,bottom_left,2025-04-15_10h09.10.890,HideSeek_v1,2022.2.5,59.949486666433344,
,,,,,,,,,,,,,,,3,0,3,0,0,0,0,0,,,,,,,,,,,,,,,,,,,,,,,,,,,,,,,conditions/schedules/train_x_first/red_square_00/bottom_left/instructions/Slide17.png,conditions/schedules/train_x_first/red_square_00/bottom_left/instructions/Audio17.wav,626.28213290032,626.2739528400824,17,"[3.955815200228244, 17.914684900082648, 16.861677799839526, 19.553011199925095, 4.801267900038511, 4.8675996996462345, 5.553153499960899, 11.739498700015247, 5.96768660005182, 7.000173100270331, 9.76716659963131, 13.003115999978036, 17.39725389983505, 13.246070499997586, 31.1032974999398, 22.69173750001937, 43.108489299658686]","[0.0002687000669538975, 0.031568399630486965, 0.05399330006912351, 0.11381680006161332, 0.09694409975782037, 0.08159129973500967, 0.06313030002638698, 0.030863699968904257, 0.07931390032172203, 0.04677839996293187, 0.047668999992311, 13.003122900146991, 0.03494659997522831, 13.246077200397849, 0.056870399974286556, 22.691743900068104, 43.108497799839824]",0,,,,,,,,,,,,,,,,,,,,,,,,,,,,,,,,,,,,,,,,,,,,,,,,,,,,,,,,,,,,,,,,,,,,,,,,,,,,,,,,,,,,,,,,,,,,,,,,,,,,,,,,,,,,,,,,,,,,,,,,,,,,UJD902,train_x,red_square,bottom_left,2025-04-15_10h09.10.890,HideSeek_v1,2022.2.5,59.949486666433344,
,,,,,,,,,,,,,,,3,0,3,0,1,0,1,0,,,,,,,,,,,,,,,,,,,,,,,,,,,,,,,conditions/schedules/train_x_first/red_square_00/bottom_left/instructions/Slide18.png,conditions/schedules/train_x_first/red_square_00/bottom_left/instructions/Audio18.wav,669.4539868002757,669.4433579203672,18,"[3.955815200228244, 17.914684900082648, 16.861677799839526, 19.553011199925095, 4.801267900038511, 4.8675996996462345, 5.553153499960899, 11.739498700015247, 5.96768660005182, 7.000173100270331, 9.76716659963131, 13.003115999978036, 17.39725389983505, 13.246070499997586, 31.1032974999398, 22.69173750001937, 43.108489299658686, 6.425463599618524]","[0.0002687000669538975, 0.031568399630486965, 0.05399330006912351, 0.11381680006161332, 0.09694409975782037, 0.08159129973500967, 0.06313030002638698, 0.030863699968904257, 0.07931390032172203, 0.04677839996293187, 0.047668999992311, 13.003122900146991, 0.03494659997522831, 13.246077200397849, 0.056870399974286556, 22.691743900068104, 0.0002133999951183796, 6.425470299553126]",0,,,,,,,,,,,,,,,,,,,,,,,,,,,,,,,,,,,,,,,,,,,,,,,,,,,,,,,,,,,,,,,,,,,,,,,,,,,,,,,,,,,,,,,,,,,,,,,,,,,,,,,,,,,,,,,,,,,,,,,,,,,,UJD902,train_x,red_square,bottom_left,2025-04-15_10h09.10.890,HideSeek_v1,2022.2.5,59.949486666433344,
,,,,,,,,,,,,,,,3,0,3,0,2,0,2,0,,,,,,,,,,,,,,,,,,,,,,,,,,,,,,,conditions/schedules/train_x_first/red_square_00/bottom_left/instructions/Slide19.png,conditions/schedules/train_x_first/red_square_00/bottom_left/instructions/Audio19.wav,675.9186319001019,675.9154202404433,19,"[3.955815200228244, 17.914684900082648, 16.861677799839526, 19.553011199925095, 4.801267900038511, 4.8675996996462345, 5.553153499960899, 11.739498700015247, 5.96768660005182, 7.000173100270331, 9.76716659963131, 13.003115999978036, 17.39725389983505, 13.246070499997586, 31.1032974999398, 22.69173750001937, 43.108489299658686, 6.425463599618524, 10.435701000038534]","[0.0002687000669538975, 0.031568399630486965, 0.05399330006912351, 0.11381680006161332, 0.09694409975782037, 0.08159129973500967, 0.06313030002638698, 0.030863699968904257, 0.07931390032172203, 0.04677839996293187, 0.047668999992311, 13.003122900146991, 0.03494659997522831, 13.246077200397849, 0.056870399974286556, 22.691743900068104, 0.0002133999951183796, 0.0635755998082459, 10.435708899982274]",0,,,,,,,,,,,,,,,,,,,,,,,,,,,,,,,,,,,,,,,,,,,,,,,,,,,,,,,,,,,,,,,,,,,,,,,,,,,,,,,,,,,,,,,,,,,,,,,,,,,,,,,,,,,,,,,,,,,,,,,,,,,,UJD902,train_x,red_square,bottom_left,2025-04-15_10h09.10.890,HideSeek_v1,2022.2.5,59.949486666433344,
,,,,,,,,,,,,,,,3,0,3,0,3,0,3,0,,,,,,,,,,,,,,,,,,,,,,,,,,,,,,,conditions/schedules/train_x_first/red_square_00/bottom_left/instructions/Slide20.png,conditions/schedules/train_x_first/red_square_00/bottom_left/instructions/Audio20.wav,686.4240622003563,686.4239679002203,20,"[3.955815200228244, 17.914684900082648, 16.861677799839526, 19.553011199925095, 4.801267900038511, 4.8675996996462345, 5.553153499960899, 11.739498700015247, 5.96768660005182, 7.000173100270331, 9.76716659963131, 13.003115999978036, 17.39725389983505, 13.246070499997586, 31.1032974999398, 22.69173750001937, 43.108489299658686, 6.425463599618524, 10.435701000038534, 14.125943399965763]","[0.0002687000669538975, 0.031568399630486965, 0.05399330006912351, 0.11381680006161332, 0.09694409975782037, 0.08159129973500967, 0.06313030002638698, 0.030863699968904257, 0.07931390032172203, 0.04677839996293187, 0.047668999992311, 13.003122900146991, 0.03494659997522831, 13.246077200397849, 0.056870399974286556, 22.691743900068104, 0.0002133999951183796, 0.0635755998082459, 0.047516499646008015, 14.125949999783188]",0,,,,,,,,,,,,,,,,,,,,,,,,,,,,,,,,,,,,,,,,,,,,,,,,,,,,,,,,,,,,,,,,,,,,,,,,,,,,,,,,,,,,,,,,,,,,,,,,,,,,,,,,,,,,,,,,,,,,,,,,,,,,UJD902,train_x,red_square,bottom_left,2025-04-15_10h09.10.890,HideSeek_v1,2022.2.5,59.949486666433344,
1,2,3,2,8,0,5,11,2,instr_dim1_2,,,,,,3,0,3,0,,,,,0,0,0,0,,,,,,,,,,,,,,,,,,,,,,,,,,,,,,,,,,,,,stimuli/alien_stimuli/11.png,conditions/schedules/train_x_first/red_square_00/bottom_left/inputInstr_2.xlsx,stimuli/alien_stimuli/11.png,700.6542735002004,700.6542735002004,700.6542735002004,700.6542735002004,700.6528951602988,return,6.135626499541104,"[-0.16, -0.08, 0, 0.08, 0.16, 0.24, 0.32, 0.4, 0.48, 0.56]","[-0.4, -0.32, -0.24, -0.16, -0.08, 0, 0.08, 0.16, 0.24, 0.32]",8,3,2,2,0.4,0.0,706.926067000255,706.926067000255,706.926067000255,706.926067000255,706.926067000255,706.926067000255,706.926067000255,706.9245447401889,2.8029594998806715,return,2.65455129975453,stimuli/alien_stimuli/11.png,11,2,1,,,,,,,,,,,,,,,,,,,,,,,,,,,,,,,,,,,,,,,,,,,,,,,,,,,,,,,,,,,,,,,,,,,,,,,,,,,,,,,,,,,,,,,,,UJD902,train_x,red_square,bottom_left,2025-04-15_10h09.10.890,HideSeek_v1,2022.2.5,59.949486666433344,
,,,,,,,,,,,30,,,,3,0,3,0,,,,,,,,,,,,,,,,,,,,,,,,,,,,,,,,,,,,,,,,,,,,,,,,,,,,,,,,,,,,,,,,,,,,,,,,,,,,,,21,0.7,0.9583333333333335,1,99,2,30,0,conditions/schedules/train_x_first/red_square_00/bottom_left/inputTrain_2.1.xlsx,99,1,2,1,0,,,,,,,,,,,,,,,,,,,,,,,,,,,,,,,,,,,,,,,,,,,,,,,,,,,,,,,,,,,,,,,,,,,,,,,,,,,UJD902,train_x,red_square,bottom_left,2025-04-15_10h09.10.890,HideSeek_v1,2022.2.5,59.949486666433344,
,,,,,,,,,,,,,,,4,0,4,0,0,0,0,0,,,,,,,,,,,,,,,,,,,,,,,,,,,,,,,conditions/schedules/train_x_first/red_square_00/bottom_left/instructions/Slide21.png,conditions/schedules/train_x_first/red_square_00/bottom_left/instructions/Audio21.wav,709.759172399994,709.7602584003471,21,"[3.955815200228244, 17.914684900082648, 16.861677799839526, 19.553011199925095, 4.801267900038511, 4.8675996996462345, 5.553153499960899, 11.739498700015247, 5.96768660005182, 7.000173100270331, 9.76716659963131, 13.003115999978036, 17.39725389983505, 13.246070499997586, 31.1032974999398, 22.69173750001937, 43.108489299658686, 6.425463599618524, 10.435701000038534, 14.125943399965763, 3.1338903000578284]","[0.0002687000669538975, 0.031568399630486965, 0.05399330006912351, 0.11381680006161332, 0.09694409975782037, 0.08159129973500967, 0.06313030002638698, 0.030863699968904257, 0.07931390032172203, 0.04677839996293187, 0.047668999992311, 13.003122900146991, 0.03494659997522831, 13.246077200397849, 0.056870399974286556, 22.691743900068104, 0.0002133999951183796, 0.0635755998082459, 0.047516499646008015, 14.125949999783188, 3.1338976002298295]",0,,,,,,,,,,,,,,,,,,,,,,,,,,,,,,,,,,,,,,,,,,,,,,,,,,,,,,,,,,,,,,,,,,,,,,,,,,,,,,,,,,,,,,,,,,,,,,,,,,,,,,,,,,,,,,,,,,,,,,,,,,,,UJD902,train_x,red_square,bottom_left,2025-04-15_10h09.10.890,HideSeek_v1,2022.2.5,59.949486666433344,
2,0,3,0,3,0,0,16,2,instr_dim1_2,,,,,,4,0,4,0,,,,,0,0,0,0,,,,,,,,,,,,,,,,,,,,,,,,,,,,,,,,,,,,,stimuli/alien_stimuli/16.png,conditions/schedules/train_x_first/red_square_00/bottom_left/inputInstr_2.xlsx,stimuli/alien_stimuli/16.png,712.9774132003076,712.9774132003076,712.9774132003076,712.9774132003076,712.9794820802286,return,6.02289789961651,"[-0.16, -0.08, 0, 0.08, 0.16, 0.24, 0.32, 0.4, 0.48, 0.56]","[-0.4, -0.32, -0.24, -0.16, -0.08, 0, 0.08, 0.16, 0.24, 0.32]",3,3,0,0,0.0,0.0,719.1288020000793,719.1288020000793,719.1288020000793,719.1288020000793,719.1288020000793,719.1288020000793,719.1288020000793,719.1179273601622,5.489441600162536,return,5.353308099787682,stimuli/alien_stimuli/16.png,16,0,2,,,,,,,,,,,,,,,,,,,,,,,,,,,,,,,,,,,,,,,,,,,,,,,,,,,,,,,,,,,,,,,,,,,,,,,,,,,,,,,,,,,,,,,,,UJD902,train_x,red_square,bottom_left,2025-04-15_10h09.10.890,HideSeek_v1,2022.2.5,59.949486666433344,
,,,,,,,,,,,30,,,,4,0,4,0,,,,,,,,,,,,,,,,,,,,,,,,,,,,,,,,,,,,,,,,,,,,,,,,,,,,,,,,,,,,,,,,,,,,,,,,,,,,,,21,0.7,0.9583333333333335,1,99,2,30,0,conditions/schedules/train_x_first/red_square_00/bottom_left/inputTrain_2.1.xlsx,99,1,2,1,0,,,,,,,,,,,,,,,,,,,,,,,,,,,,,,,,,,,,,,,,,,,,,,,,,,,,,,,,,,,,,,,,,,,,,,,,,,,UJD902,train_x,red_square,bottom_left,2025-04-15_10h09.10.890,HideSeek_v1,2022.2.5,59.949486666433344,
,,,,,,,,,,,,,,,5,0,5,0,0,0,0,0,,,,,,,,,,,,,,,,,,,,,,,,,,,,,,,conditions/schedules/train_x_first/red_square_00/bottom_left/instructions/Slide22.png,conditions/schedules/train_x_first/red_square_00/bottom_left/instructions/Audio22.wav,724.6719007999636,724.6729483803734,22,"[3.955815200228244, 17.914684900082648, 16.861677799839526, 19.553011199925095, 4.801267900038511, 4.8675996996462345, 5.553153499960899, 11.739498700015247, 5.96768660005182, 7.000173100270331, 9.76716659963131, 13.003115999978036, 17.39725389983505, 13.246070499997586, 31.1032974999398, 22.69173750001937, 43.108489299658686, 6.425463599618524, 10.435701000038534, 14.125943399965763, 3.1338903000578284, 43.2679464998655]","[0.0002687000669538975, 0.031568399630486965, 0.05399330006912351, 0.11381680006161332, 0.09694409975782037, 0.08159129973500967, 0.06313030002638698, 0.030863699968904257, 0.07931390032172203, 0.04677839996293187, 0.047668999992311, 13.003122900146991, 0.03494659997522831, 13.246077200397849, 0.056870399974286556, 22.691743900068104, 0.0002133999951183796, 0.0635755998082459, 0.047516499646008015, 14.125949999783188, 3.1338976002298295, 43.267953999806195]",0,,,,,,,,,,,,,,,,,,,,,,,,,,,,,,,,,,,,,,,,,,,,,,,,,,,,,,,,,,,,,,,,,,,,,,,,,,,,,,,,,,,,,,,,,,,,,,,,,,,,,,,,,,,,,,,,,,,,,,,,,,,,UJD902,train_x,red_square,bottom_left,2025-04-15_10h09.10.890,HideSeek_v1,2022.2.5,59.949486666433344,
,0,0,0,1,0,1,15,,train_dim1_2,1,30,,,,5,0,5,0,,,,,,,,,0,0,0,0,0,0,0,0,0,0,0,0,,,,,,,,,,,,,,,,,,,,,,,,,stimuli/alien_stimuli/15.png,,,,,,,,,,,,,,,,,,,,,,,,,,,,,,,,,,,,,,,30,,,,,,,,768.041805700399,768.041805700399,768.041805700399,768.041805700399,768.041805700399,return,4.514218099880964,0,1,0,0,-0.16,-0.4,return,4.4079589997418225,3,81,-0.16,-0.4,,,,,,,,,,,,,,,,,,,,,,,,,,,,,,,,,,,,,,,,,,,,,,,,,,,,,,,,UJD902,train_x,red_square,bottom_left,2025-04-15_10h09.10.890,HideSeek_v1,2022.2.5,59.949486666433344,
,3,2,3,2,0,0,16,,train_dim1_2,2,30,,,,5,0,5,0,,,,,,,,,0,0,0,0,0,1,1,1,0,0,0,0,,,,,,,,,,,,,,,,,,,,,,,,,stimuli/alien_stimuli/16.png,,,,,,,,,,,,,,,,,,,,,,,,,,,,,stimuli/alien_stimuli/15.png,15,0,3,,,,,,,30,,,,,,,,777.8886485002004,777.8886485002004,777.8886485002004,777.8886485002004,777.8886485002004,return,1.605811399873346,1,0,0,1,0.08,-0.24,return,1.514621699694544,3,81,0.08,-0.24,776.3316600001417,777.8886485002004,-0.16,-0.32,0.08,0.0,-0.36,-0.16,-0.16,-0.16,-0.32,774.1127129001543,774.1127129001543,774.1127129001543,774.1127129001543,774.1127129001543,774.1127129001543,774.1127129001543,774.1127129001543,774.1138402402402,2.3373089996166527,return,2.190372500102967,,,,,,,,,,,,,,,,,,,,,,,,,,,,,,,,,UJD902,train_x,red_square,bottom_left,2025-04-15_10h09.10.890,HideSeek_v1,2022.2.5,59.949486666433344,
,2,3,2,6,0,3,13,,train_dim1_2,3,30,,,,5,0,5,0,,,,,,,,,0,0,0,0,0,2,2,2,0,0,0,0,,,,,,,,,,,,,,,,,,,,,,,,,stimuli/alien_stimuli/13.png,,,,,,,,,,,,,,,,,,,,,,,,,,,,,stimuli/alien_stimuli/16.png,16,3,4,,,,,,,30,,,,,,,,783.7451728000306,783.7451728000306,783.7451728000306,783.7451728000306,783.7451728000306,up,2.37246960029006,1,0,0,99,0,-0.08,up,2.280133799649775,,,,,782.186589000281,783.7451728000306,0.08,-0.24,0.0,0.0,-0.24,0.08,0.08,0.08,-0.24,781.0499297003262,781.0499297003262,781.0499297003262,781.0499297003262,781.0499297003262,781.0499297003262,781.0499297003262,781.0499297003262,781.0359059804119,1.2365039000287652,return,1.108566700015217,,,,,,,,,,,,,,,,,,,,,,,,,,,,,,,,,UJD902,train_x,red_square,bottom_left,2025-04-15_10h09.10.890,HideSeek_v1,2022.2.5,59.949486666433344,
,2,3,2,6,0,3,13,,train_dim1_2,3,30,,,,5,0,5,0,,,,,,,,,0,0,0,0,0,2,2,2,1,0,1,0,,,,,,,,,,,,,,,,,,,,,,,,,,,,,,,,,,,,,,,,,,,,,,,,,,,,,,,,,,,,,,,,30,,,,,,,,786.124483300373,786.124483300373,786.124483300373,786.124483300373,786.124483300373,up,0.42653510021045804,1,0,0,99,0,0.0,up,0.3495146995410323,,,,,,,,,,,,,,,,,,,,,,,,,,,,,,,,,,,,,,,,,,,,,,,,,,,,,,,,,,,,UJD902,train_x,red_square,bottom_left,2025-04-15_10h09.10.890,HideSeek_v1,2022.2.5,59.949486666433344,
,2,3,2,6,0,3,13,,train_dim1_2,3,30,,,,5,0,5,0,,,,,,,,,0,0,0,0,0,2,2,2,2,0,2,0,,,,,,,,,,,,,,,,,,,,,,,,,,,,,,,,,,,,,,,,,,,,,,,,,,,,,,,,,,,,,,,,30,,,,,,,,786.5620425003581,786.5620425003581,786.5620425003581,786.5620425003581,786.5620425003581,up,0.4931533997878432,1,0,0,99,0,0.08,up,0.4093371997587383,,,,,,,,,,,,,,,,,,,,,,,,,,,,,,,,,,,,,,,,,,,,,,,,,,,,,,,,,,,,UJD902,train_x,red_square,bottom_left,2025-04-15_10h09.10.890,HideSeek_v1,2022.2.5,59.949486666433344,
