trialInstr,x_fixStart,y_fixStart,x_corrSteps,y_corrSteps,x_nrSteps,y_nrSteps,alienID,trialLength,version,trialTrain,praclen,testlen,trial_label,break_on_off,beforeExpLoop.thisRepN,beforeExpLoop.thisTrialN,beforeExpLoop.thisN,beforeExpLoop.thisIndex,mini_instr_trials.thisRepN,mini_instr_trials.thisTrialN,mini_instr_trials.thisN,mini_instr_trials.thisIndex,instrLoop.thisRepN,instrLoop.thisTrialN,instrLoop.thisN,instrLoop.thisIndex,repeat_prac.thisRepN,repeat_prac.thisTrialN,repeat_prac.thisN,repeat_prac.thisIndex,trainLoop.thisRepN,trainLoop.thisTrialN,trainLoop.thisN,trainLoop.thisIndex,moveLoop_train.thisRepN,moveLoop_train.thisTrialN,moveLoop_train.thisN,moveLoop_train.thisIndex,experiment.thisRepN,experiment.thisTrialN,experiment.thisN,experiment.thisIndex,moveLoop_test.thisRepN,moveLoop_test.thisTrialN,moveLoop_test.thisN,moveLoop_test.thisIndex,mini_instr2_trials.thisRepN,mini_instr2_trials.thisTrialN,mini_instr2_trials.thisN,mini_instr2_trials.thisIndex,start_all_time,url,slideStim,audioStim,slides.started,sounds.started,nextButton.numClicks,nextButton.timesOn,nextButton.timesOff,prev_but.numClicks,prev_but.timesOn,prev_but.timesOff,alienStim,instrFile,alienStim_instr,gridImage_instr.started,startPos_3.started,key_instr.started,alienImage_3.started,sounds_1.started,key_instr.keys,key_instr.rt,all_x,all_y,FBy_corrSteps,FBy_fixStart,FBx_corrSteps,FBx_fixStart,FBy_pathSize_check,FBx_pathSize_check,gridImage_9.started,alienImageFB_3.started,startPosFB_3.started,keyFB_3.started,pathLine_ydir_2.started,pathLine_xdir_2.started,alienFace_3.started,sounds_2.started,RTFB_instr,keyFB_3.keys,keyFB_3.rt,draw_alienStim,draw_alienID,test_x,nrepcount,perfthres,percthres,earlierperf,earlystop,nextPrac,fileidx,praclen,saveACC_train,pracFile,nextPrac_train,addNrep,fileidx_endr,repExp,showearly,gridImage_4.started,startPos.started,movePos.started,key_resp.started,alienImage.started,buttonPress_train,RTchoice_train,cumAcctrain,aCorr,saveACC_choice,corrAns,x_movePos_end,y_movePos_end,key_resp.keys,key_resp.rt,wLy_dir,wLx_dir,x_movePos,y_movePos,text_2.started,text_2.stopped,aft_x_corrPos,aft_y_corrPos,y_pathSize_check,x_pathSize_check,y_pathdirY,x_pathdirY,x_pathdirX,x_corrPos,y_corrPos,gridImage_6.started,alienImageFB_2.started,startPosFB_2.started,movePosFB_2.started,keyFB_2.started,pathLine_xdir.started,pathLine_ydir.started,alienFace.started,sounds_4.started,RT_FBtrain,keyFB_2.keys,keyFB_2.rt,saveACC_pre,ACC,within_saveACC_train,earlystop_wloop,cumAcctrain_check,gridImage_3.started,alienImage_test.started,startPos_test.started,movePos_test.started,key_resp_test.started,wLy_dir_test,wLx_dir_test,buttonPress_test,RTchoice_test,cumAcctest,corrAns_test,key_resp_test.keys,key_resp_test.rt,text_3.started,text_3.stopped,total_time,end_all_time,key_resp_3.keys,slides_2.started,sounds_3.started,nextButton_2.numClicks,nextButton_2.timesOn,nextButton_2.timesOff,prev_but_2.numClicks,prev_but_2.timesOn,prev_but_2.timesOff,bye.started,participant,train_first,00_coordinate,starting corner,date,expName,psychopyVersion,frameRate,
,,,,,,,,,,,,,,,0,0,0,0,0,0,0,0,,,,,,,,,,,,,,,,,,,,,,,,,,,,,start_all_time,testround,conditions/schedules/train_y_first/blue_star_00/top_left/instructions/Slide1.png,conditions/schedules/train_y_first/blue_star_00/top_left/instructions/Audio1.wav,1823.5356068999972,1823.4845312298044,1,[6.225441599963233],[6.225448499899358],0,,,,,,,,,,,,,,,,,,,,,,,,,,,,,,,,,,,,,,,,,,,,,,,,,,,,,,,,,,,,,,,,,,,,,,,,,,,,,,,,,,,,,,,,,,,,,,,,,,,,,,,,,,,,,,,,,,,,,,,,,,,,UQ11L2,train_y,blue_star,top_left,2025-08-21_14h41.09.629,HideSeek_v1,2022.2.5,59.96095340903511,
,,,,,,,,,,,,,,,0,0,0,0,1,0,1,0,,,,,,,,,,,,,,,,,,,,,,,,,,,,,,,conditions/schedules/train_y_first/blue_star_00/top_left/instructions/Slide2.png,conditions/schedules/train_y_first/blue_star_00/top_left/instructions/Audio2.wav,1829.7842649000231,1829.7849746498978,2,"[6.225441599963233, 19.397848800057545]","[6.225448499899358, 19.3978550999891]",0,,,,,,,,,,,,,,,,,,,,,,,,,,,,,,,,,,,,,,,,,,,,,,,,,,,,,,,,,,,,,,,,,,,,,,,,,,,,,,,,,,,,,,,,,,,,,,,,,,,,,,,,,,,,,,,,,,,,,,,,,,,,UQ11L2,train_y,blue_star,top_left,2025-08-21_14h41.09.629,HideSeek_v1,2022.2.5,59.96095340903511,
,,,,,,,,,,,,,,,0,0,0,0,2,0,2,0,,,,,,,,,,,,,,,,,,,,,,,,,,,,,,,conditions/schedules/train_y_first/blue_star_00/top_left/instructions/Slide3.png,conditions/schedules/train_y_first/blue_star_00/top_left/instructions/Audio3.wav,1849.2520572000649,1849.2510406499496,3,"[6.225441599963233, 19.397848800057545, 16.61050729989074]","[6.225448499899358, 0.014482100028544664, 16.610513899940997]",0,,,,,,,,,,,,,,,,,,,,,,,,,,,,,,,,,,,,,,,,,,,,,,,,,,,,,,,,,,,,,,,,,,,,,,,,,,,,,,,,,,,,,,,,,,,,,,,,,,,,,,,,,,,,,,,,,,,,,,,,,,,,UQ11L2,train_y,blue_star,top_left,2025-08-21_14h41.09.629,HideSeek_v1,2022.2.5,59.96095340903511,
,,,,,,,,,,,,,,,0,0,0,0,3,0,3,0,,,,,,,,,,,,,,,,,,,,,,,,,,,,,,,conditions/schedules/train_y_first/blue_star_00/top_left/instructions/Slide4.png,conditions/schedules/train_y_first/blue_star_00/top_left/instructions/Audio4.wav,1865.948477699887,1865.9481719800738,4,"[6.225441599963233, 19.397848800057545, 16.61050729989074, 19.764336900087073]","[6.225448499899358, 0.014482100028544664, 0.031301300041377544, 19.764344200026244]",0,,,,,,,,,,,,,,,,,,,,,,,,,,,,,,,,,,,,,,,,,,,,,,,,,,,,,,,,,,,,,,,,,,,,,,,,,,,,,,,,,,,,,,,,,,,,,,,,,,,,,,,,,,,,,,,,,,,,,,,,,,,,UQ11L2,train_y,blue_star,top_left,2025-08-21_14h41.09.629,HideSeek_v1,2022.2.5,59.96095340903511,
,,,,,,,,,,,,,,,0,0,0,0,4,0,4,0,,,,,,,,,,,,,,,,,,,,,,,,,,,,,,,conditions/schedules/train_y_first/blue_star_00/top_left/instructions/Slide5.png,conditions/schedules/train_y_first/blue_star_00/top_left/instructions/Audio5.wav,1885.7787327000406,1885.7645384200384,5,"[6.225441599963233, 19.397848800057545, 16.61050729989074, 19.764336900087073, 4.637513000052422]","[6.225448499899358, 0.014482100028544664, 0.031301300041377544, 0.05084490007720888, 4.637519400101155]",0,,,,,,,,,,,,,,,,,,,,,,,,,,,,,,,,,,,,,,,,,,,,,,,,,,,,,,,,,,,,,,,,,,,,,,,,,,,,,,,,,,,,,,,,,,,,,,,,,,,,,,,,,,,,,,,,,,,,,,,,,,,,UQ11L2,train_y,blue_star,top_left,2025-08-21_14h41.09.629,HideSeek_v1,2022.2.5,59.96095340903511,
,,,,,,,,,,,,,,,0,0,0,0,5,0,5,0,,,,,,,,,,,,,,,,,,,,,,,,,,,,,,,conditions/schedules/train_y_first/blue_star_00/top_left/instructions/Slide6.png,conditions/schedules/train_y_first/blue_star_00/top_left/instructions/Audio6.wav,1890.4665634999983,1890.468312819861,6,"[6.225441599963233, 19.397848800057545, 16.61050729989074, 19.764336900087073, 4.637513000052422, 5.787459300132468]","[6.225448499899358, 0.014482100028544664, 0.031301300041377544, 0.05084490007720888, 0.04959650011733174, 5.78746600006707]",0,,,,,,,,,,,,,,,,,,,,,,,,,,,,,,,,,,,,,,,,,,,,,,,,,,,,,,,,,,,,,,,,,,,,,,,,,,,,,,,,,,,,,,,,,,,,,,,,,,,,,,,,,,,,,,,,,,,,,,,,,,,,UQ11L2,train_y,blue_star,top_left,2025-08-21_14h41.09.629,HideSeek_v1,2022.2.5,59.96095340903511,
,,,,,,,,,,,,,,,0,0,0,0,6,0,6,0,,,,,,,,,,,,,,,,,,,,,,,,,,,,,,,conditions/schedules/train_y_first/blue_star_00/top_left/instructions/Slide7.png,conditions/schedules/train_y_first/blue_star_00/top_left/instructions/Audio7.wav,1896.3041650999803,1896.3064706198872,7,"[6.225441599963233, 19.397848800057545, 16.61050729989074, 19.764336900087073, 4.637513000052422, 5.787459300132468, 6.072097399970517]","[6.225448499899358, 0.014482100028544664, 0.031301300041377544, 0.05084490007720888, 0.04959650011733174, 0.06705450010485947, 6.0721038999035954]",0,,,,,,,,,,,,,,,,,,,,,,,,,,,,,,,,,,,,,,,,,,,,,,,,,,,,,,,,,,,,,,,,,,,,,,,,,,,,,,,,,,,,,,,,,,,,,,,,,,,,,,,,,,,,,,,,,,,,,,,,,,,,UQ11L2,train_y,blue_star,top_left,2025-08-21_14h41.09.629,HideSeek_v1,2022.2.5,59.96095340903511,
,,,,,,,,,,,,,,,0,0,0,0,7,0,7,0,,,,,,,,,,,,,,,,,,,,,,,,,,,,,,,conditions/schedules/train_y_first/blue_star_00/top_left/instructions/Slide8.png,conditions/schedules/train_y_first/blue_star_00/top_left/instructions/Audio8.wav,1902.4287205999717,1902.4284142198974,8,"[6.225441599963233, 19.397848800057545, 16.61050729989074, 19.764336900087073, 4.637513000052422, 5.787459300132468, 6.072097399970517, 12.357431800104678]","[6.225448499899358, 0.014482100028544664, 0.031301300041377544, 0.05084490007720888, 0.04959650011733174, 0.06705450010485947, 0.04716950003057718, 12.357438300037757]",0,,,,,,,,,,,,,,,,,,,,,,,,,,,,,,,,,,,,,,,,,,,,,,,,,,,,,,,,,,,,,,,,,,,,,,,,,,,,,,,,,,,,,,,,,,,,,,,,,,,,,,,,,,,,,,,,,,,,,,,,,,,,UQ11L2,train_y,blue_star,top_left,2025-08-21_14h41.09.629,HideSeek_v1,2022.2.5,59.96095340903511,
,,,,,,,,,,,,,,,0,0,0,0,8,0,8,0,,,,,,,,,,,,,,,,,,,,,,,,,,,,,,,conditions/schedules/train_y_first/blue_star_00/top_left/instructions/Slide9.png,conditions/schedules/train_y_first/blue_star_00/top_left/instructions/Audio9.wav,1914.851912099868,1914.838662519958,9,"[6.225441599963233, 19.397848800057545, 16.61050729989074, 19.764336900087073, 4.637513000052422, 5.787459300132468, 6.072097399970517, 12.357431800104678, 6.573712000157684]","[6.225448499899358, 0.014482100028544664, 0.031301300041377544, 0.05084490007720888, 0.04959650011733174, 0.06705450010485947, 0.04716950003057718, 0.035302900010719895, 6.573718700092286]",0,,,,,,,,,,,,,,,,,,,,,,,,,,,,,,,,,,,,,,,,,,,,,,,,,,,,,,,,,,,,,,,,,,,,,,,,,,,,,,,,,,,,,,,,,,,,,,,,,,,,,,,,,,,,,,,,,,,,,,,,,,,,UQ11L2,train_y,blue_star,top_left,2025-08-21_14h41.09.629,HideSeek_v1,2022.2.5,59.96095340903511,
,,,,,,,,,,,,,,,0,0,0,0,9,0,9,0,,,,,,,,,,,,,,,,,,,,,,,,,,,,,,,conditions/schedules/train_y_first/blue_star_00/top_left/instructions/Slide10.png,conditions/schedules/train_y_first/blue_star_00/top_left/instructions/Audio10.wav,1921.477185699856,1921.4776389199776,10,"[6.225441599963233, 19.397848800057545, 16.61050729989074, 19.764336900087073, 4.637513000052422, 5.787459300132468, 6.072097399970517, 12.357431800104678, 6.573712000157684, 7.421021800022572]","[6.225448499899358, 0.014482100028544664, 0.031301300041377544, 0.05084490007720888, 0.04959650011733174, 0.06705450010485947, 0.04716950003057718, 0.035302900010719895, 0.03144819987937808, 7.421028999844566]",0,,,,,,,,,,,,,,,,,,,,,,,,,,,,,,,,,,,,,,,,,,,,,,,,,,,,,,,,,,,,,,,,,,,,,,,,,,,,,,,,,,,,,,,,,,,,,,,,,,,,,,,,,,,,,,,,,,,,,,,,,,,,UQ11L2,train_y,blue_star,top_left,2025-08-21_14h41.09.629,HideSeek_v1,2022.2.5,59.96095340903511,
,,,,,,,,,,,,,,,0,0,0,0,10,0,10,0,,,,,,,,,,,,,,,,,,,,,,,,,,,,,,,conditions/schedules/train_y_first/blue_star_00/top_left/instructions/Slide11.png,conditions/schedules/train_y_first/blue_star_00/top_left/instructions/Audio11.wav,1928.9370084998664,1928.9336740900064,11,"[6.225441599963233, 19.397848800057545, 16.61050729989074, 19.764336900087073, 4.637513000052422, 5.787459300132468, 6.072097399970517, 12.357431800104678, 6.573712000157684, 7.421021800022572, 10.769791699945927]","[6.225448499899358, 0.014482100028544664, 0.031301300041377544, 0.05084490007720888, 0.04959650011733174, 0.06705450010485947, 0.04716950003057718, 0.035302900010719895, 0.03144819987937808, 0.06276719993911684, 10.76979809999466]",0,,,,,,,,,,,,,,,,,,,,,,,,,,,,,,,,,,,,,,,,,,,,,,,,,,,,,,,,,,,,,,,,,,,,,,,,,,,,,,,,,,,,,,,,,,,,,,,,,,,,,,,,,,,,,,,,,,,,,,,,,,,,UQ11L2,train_y,blue_star,top_left,2025-08-21_14h41.09.629,HideSeek_v1,2022.2.5,59.96095340903511,
,,,,,,,,,,,,,,,0,0,0,0,11,0,11,0,,,,,,,,,,,,,,,,,,,,,,,,,,,,,,,conditions/schedules/train_y_first/blue_star_00/top_left/instructions/Slide12.png,conditions/schedules/train_y_first/blue_star_00/top_left/instructions/Audio12.wav,1939.7850035999436,1939.7760806499282,12,"[6.225441599963233, 19.397848800057545, 16.61050729989074, 19.764336900087073, 4.637513000052422, 5.787459300132468, 6.072097399970517, 12.357431800104678, 6.573712000157684, 7.421021800022572, 10.769791699945927, 14.56823919992894]","[6.225448499899358, 0.014482100028544664, 0.031301300041377544, 0.05084490007720888, 0.04959650011733174, 0.06705450010485947, 0.04716950003057718, 0.035302900010719895, 0.03144819987937808, 0.06276719993911684, 0.03536889981478453, 14.568245999980718]",0,,,,,,,,,,,,,,,,,,,,,,,,,,,,,,,,,,,,,,,,,,,,,,,,,,,,,,,,,,,,,,,,,,,,,,,,,,,,,,,,,,,,,,,,,,,,,,,,,,,,,,,,,,,,,,,,,,,,,,,,,,,,UQ11L2,train_y,blue_star,top_left,2025-08-21_14h41.09.629,HideSeek_v1,2022.2.5,59.96095340903511,
1,0,8,0,3,0,-5,66,2,instr_dim1_1,,,,,,0,0,0,0,,,,,0,0,0,0,,,,,,,,,,,,,,,,,,,,,,,,,,,,,,,,,,,,,stimuli/alien_stimuli/66.png,conditions/schedules/train_y_first/blue_star_00/top_left/inputInstr_1.xlsx,stimuli/alien_stimuli/66.png,1954.4538793999236,1954.4538793999236,1954.4538793999236,1954.4538793999236,1954.4550493099496,return,11.862535400083289,"[-0.16, -0.08, 0, 0.08, 0.16, 0.24, 0.32, 0.4, 0.48, 0.56]","[-0.4, -0.32, -0.24, -0.16, -0.08, 0, 0.08, 0.16, 0.24, 0.32]",3,8,0,0,0.4,0.0,1966.483266199939,1966.483266199939,1966.483266199939,1966.483266199939,1966.483266199939,1966.483266199939,1966.483266199939,1966.4650363398716,6.9901806998532265,return,6.837002200074494,stimuli/alien_stimuli/66.png,66,0,1,,,,,,,,,,,,,,,,,,,,,,,,,,,,,,,,,,,,,,,,,,,,,,,,,,,,,,,,,,,,,,,,,,,,,,,,,,,,,,,,,,,,,,,,,UQ11L2,train_y,blue_star,top_left,2025-08-21_14h41.09.629,HideSeek_v1,2022.2.5,59.96095340903511,
,,,,,,,,,,,30,,,,0,0,0,0,,,,,,,,,,,,,,,,,,,,,,,,,,,,,,,,,,,,,,,,,,,,,,,,,,,,,,,,,,,,,,,,,,,,,,,,,,,,,,21,0.7,0,0,99,1,30,0,conditions/schedules/train_y_first/blue_star_00/top_left/inputTrain_1.1.xlsx,99,1,1,1,0,,,,,,,,,,,,,,,,,,,,,,,,,,,,,,,,,,,,,,,,,,,,,,,,,,,,,,,,,,,,,,,,,,,,,,,,,,,UQ11L2,train_y,blue_star,top_left,2025-08-21_14h41.09.629,HideSeek_v1,2022.2.5,59.96095340903511,
,,,,,,,,,,,,,,,1,0,1,0,0,0,0,0,,,,,,,,,,,,,,,,,,,,,,,,,,,,,,,conditions/schedules/train_y_first/blue_star_00/top_left/instructions/Slide13.png,conditions/schedules/train_y_first/blue_star_00/top_left/instructions/Audio13.wav,1973.4694041998591,1973.4706889698516,13,"[6.225441599963233, 19.397848800057545, 16.61050729989074, 19.764336900087073, 4.637513000052422, 5.787459300132468, 6.072097399970517, 12.357431800104678, 6.573712000157684, 7.421021800022572, 10.769791699945927, 14.56823919992894, 17.246848599985242]","[6.225448499899358, 0.014482100028544664, 0.031301300041377544, 0.05084490007720888, 0.04959650011733174, 0.06705450010485947, 0.04716950003057718, 0.035302900010719895, 0.03144819987937808, 0.06276719993911684, 0.03536889981478453, 14.568245999980718, 17.246856299927458]",0,,,,,,,,,,,,,,,,,,,,,,,,,,,,,,,,,,,,,,,,,,,,,,,,,,,,,,,,,,,,,,,,,,,,,,,,,,,,,,,,,,,,,,,,,,,,,,,,,,,,,,,,,,,,,,,,,,,,,,,,,,,,UQ11L2,train_y,blue_star,top_left,2025-08-21_14h41.09.629,HideSeek_v1,2022.2.5,59.96095340903511,
,,,,,,,,,,,,,,,1,0,1,0,1,0,1,0,,,,,,,,,,,,,,,,,,,,,,,,,,,,,,,conditions/schedules/train_y_first/blue_star_00/top_left/instructions/Slide14.png,conditions/schedules/train_y_first/blue_star_00/top_left/instructions/Audio14.wav,1990.7809375999495,1990.7685284199194,14,"[6.225441599963233, 19.397848800057545, 16.61050729989074, 19.764336900087073, 4.637513000052422, 5.787459300132468, 6.072097399970517, 12.357431800104678, 6.573712000157684, 7.421021800022572, 10.769791699945927, 14.56823919992894, 17.246848599985242, 17.14899259991944]","[6.225448499899358, 0.014482100028544664, 0.031301300041377544, 0.05084490007720888, 0.04959650011733174, 0.06705450010485947, 0.04716950003057718, 0.035302900010719895, 0.03144819987937808, 0.06276719993911684, 0.03536889981478453, 14.568245999980718, 0.0350148999132216, 17.148998799966648]",0,,,,,,,,,,,,,,,,,,,,,,,,,,,,,,,,,,,,,,,,,,,,,,,,,,,,,,,,,,,,,,,,,,,,,,,,,,,,,,,,,,,,,,,,,,,,,,,,,,,,,,,,,,,,,,,,,,,,,,,,,,,,UQ11L2,train_y,blue_star,top_left,2025-08-21_14h41.09.629,HideSeek_v1,2022.2.5,59.96095340903511,
2,2,8,2,8,0,0,61,2,instr_dim1_1,,,,,,1,0,1,0,,,,,0,0,0,0,,,,,,,,,,,,,,,,,,,,,,,,,,,,,,,,,,,,,stimuli/alien_stimuli/61.png,conditions/schedules/train_y_first/blue_star_00/top_left/inputInstr_1.xlsx,stimuli/alien_stimuli/61.png,2008.0266052999068,2008.0266052999068,2008.0266052999068,2008.0266052999068,2008.0161252800376,return,5.8963207001797855,"[-0.16, -0.08, 0, 0.08, 0.16, 0.24, 0.32, 0.4, 0.48, 0.56]","[-0.4, -0.32, -0.24, -0.16, -0.08, 0, 0.08, 0.16, 0.24, 0.32]",8,8,2,2,0.0,0.0,2014.0895658000372,2014.0895658000372,2014.0895658000372,2014.0895658000372,2014.0895658000372,2014.0895658000372,2014.0895658000372,2014.087781670061,6.856276399921626,return,6.694431400159374,stimuli/alien_stimuli/61.png,61,2,2,,,,,,,,,,,,,,,,,,,,,,,,,,,,,,,,,,,,,,,,,,,,,,,,,,,,,,,,,,,,,,,,,,,,,,,,,,,,,,,,,,,,,,,,,UQ11L2,train_y,blue_star,top_left,2025-08-21_14h41.09.629,HideSeek_v1,2022.2.5,59.96095340903511,
,,,,,,,,,,,30,,,,1,0,1,0,,,,,,,,,,,,,,,,,,,,,,,,,,,,,,,,,,,,,,,,,,,,,,,,,,,,,,,,,,,,,,,,,,,,,,,,,,,,,,21,0.7,0,0,99,1,30,0,conditions/schedules/train_y_first/blue_star_00/top_left/inputTrain_1.1.xlsx,99,1,1,1,0,,,,,,,,,,,,,,,,,,,,,,,,,,,,,,,,,,,,,,,,,,,,,,,,,,,,,,,,,,,,,,,,,,,,,,,,,,,UQ11L2,train_y,blue_star,top_left,2025-08-21_14h41.09.629,HideSeek_v1,2022.2.5,59.96095340903511,
,,,,,,,,,,,,,,,2,0,2,0,0,0,0,0,,,,,,,,,,,,,,,,,,,,,,,,,,,,,,,conditions/schedules/train_y_first/blue_star_00/top_left/instructions/Slide15.png,conditions/schedules/train_y_first/blue_star_00/top_left/instructions/Audio15.wav,2020.9494660000782,2020.9432361698944,15,"[6.225441599963233, 19.397848800057545, 16.61050729989074, 19.764336900087073, 4.637513000052422, 5.787459300132468, 6.072097399970517, 12.357431800104678, 6.573712000157684, 7.421021800022572, 10.769791699945927, 14.56823919992894, 17.246848599985242, 17.14899259991944, 43.57755960011855]","[6.225448499899358, 0.014482100028544664, 0.031301300041377544, 0.05084490007720888, 0.04959650011733174, 0.06705450010485947, 0.04716950003057718, 0.035302900010719895, 0.03144819987937808, 0.06276719993911684, 0.03536889981478453, 14.568245999980718, 0.0350148999132216, 17.148998799966648, 43.57756710005924]",0,,,,,,,,,,,,,,,,,,,,,,,,,,,,,,,,,,,,,,,,,,,,,,,,,,,,,,,,,,,,,,,,,,,,,,,,,,,,,,,,,,,,,,,,,,,,,,,,,,,,,,,,,,,,,,,,,,,,,,,,,,,,UQ11L2,train_y,blue_star,top_left,2025-08-21_14h41.09.629,HideSeek_v1,2022.2.5,59.96095340903511,
,,,,,,,,,,,,,,,2,0,2,0,1,0,1,0,,,,,,,,,,,,,,,,,,,,,,,,,,,,,,,conditions/schedules/train_y_first/blue_star_00/top_left/instructions/Slide16.png,conditions/schedules/train_y_first/blue_star_00/top_left/instructions/Audio16.wav,2064.605403299909,2064.596338849864,16,"[6.225441599963233, 19.397848800057545, 16.61050729989074, 19.764336900087073, 4.637513000052422, 5.787459300132468, 6.072097399970517, 12.357431800104678, 6.573712000157684, 7.421021800022572, 10.769791699945927, 14.56823919992894, 17.246848599985242, 17.14899259991944, 43.57755960011855, 21.723198499996215]","[6.225448499899358, 0.014482100028544664, 0.031301300041377544, 0.05084490007720888, 0.04959650011733174, 0.06705450010485947, 0.04716950003057718, 0.035302900010719895, 0.03144819987937808, 0.06276719993911684, 0.03536889981478453, 14.568245999980718, 0.0350148999132216, 17.148998799966648, 0.014059199951589108, 21.7232071000617]",0,,,,,,,,,,,,,,,,,,,,,,,,,,,,,,,,,,,,,,,,,,,,,,,,,,,,,,,,,,,,,,,,,,,,,,,,,,,,,,,,,,,,,,,,,,,,,,,,,,,,,,,,,,,,,,,,,,,,,,,,,,,,UQ11L2,train_y,blue_star,top_left,2025-08-21_14h41.09.629,HideSeek_v1,2022.2.5,59.96095340903511,
,0,5,0,1,0,-4,65,,train_dim1_1,1,30,,,,2,0,2,0,,,,,,,,,0,0,0,0,0,0,0,0,0,0,0,0,,,,,,,,,,,,,,,,,,,,,,,,,stimuli/alien_stimuli/65.png,,,,,,,,,,,,,,,,,,,,,,,,,,,,,,,,,,,,,,,30,,,,,,,,2086.4265930000693,2086.4265930000693,2086.4265930000693,2086.4265930000693,2086.4265930000693,right,2.380697999848053,0,0,0,99,-0.08,0,right,2.2796225000638515,,,,,,,,,,,,,,,,,,,,,,,,,,,,,,,,,,,,,,,,,,,,,,,,,,,,,,,,,,,,UQ11L2,train_y,blue_star,top_left,2025-08-21_14h41.09.629,HideSeek_v1,2022.2.5,59.96095340903511,
,0,5,0,1,0,-4,65,,train_dim1_1,1,30,,,,2,0,2,0,,,,,,,,,0,0,0,0,0,0,0,0,1,0,1,0,,,,,,,,,,,,,,,,,,,,,,,,,,,,,,,,,,,,,,,,,,,,,,,,,,,,,,,,,,,,,,,,30,,,,,,,,2088.796739500016,2088.796739500016,2088.796739500016,2088.796739500016,2088.796739500016,right,2.711472800001502,0,0,0,99,0.0,0,right,2.6342435001861304,,,,,,,,,,,,,,,,,,,,,,,,,,,,,,,,,,,,,,,,,,,,,,,,,,,,,,,,,,,,UQ11L2,train_y,blue_star,top_left,2025-08-21_14h41.09.629,HideSeek_v1,2022.2.5,59.96095340903511,
,0,5,0,1,0,-4,65,,train_dim1_1,1,30,,,,2,0,2,0,,,,,,,,,0,0,0,0,0,0,0,0,2,0,2,0,,,,,,,,,,,,,,,,,,,,,,,,,,,,,,,,,,,,,,,,,,,,,,,,,,,,,,,,,,,,,,,,30,,,,,,,,2091.514560099924,2091.514560099924,2091.514560099924,2091.514560099924,2091.514560099924,left,0.7272520000115037,0,0,0,99,-0.08,0,left,0.6443791999481618,,,,,,,,,,,,,,,,,,,,,,,,,,,,,,,,,,,,,,,,,,,,,,,,,,,,,,,,,,,,UQ11L2,train_y,blue_star,top_left,2025-08-21_14h41.09.629,HideSeek_v1,2022.2.5,59.96095340903511,
,0,5,0,1,0,-4,65,,train_dim1_1,1,30,,,,2,0,2,0,,,,,,,,,0,0,0,0,0,0,0,0,3,0,3,0,,,,,,,,,,,,,,,,,,,,,,,,,,,,,,,,,,,,,,,,,,,,,,,,,,,,,,,,,,,,,,,,30,,,,,,,,2092.248801599955,2092.248801599955,2092.248801599955,2092.248801599955,2092.248801599955,left,0.29320940002799034,0,0,0,99,-0.16,0,left,0.21018690010532737,,,,,,,,,,,,,,,,,,,,,,,,,,,,,,,,,,,,,,,,,,,,,,,,,,,,,,,,,,,,UQ11L2,train_y,blue_star,top_left,2025-08-21_14h41.09.629,HideSeek_v1,2022.2.5,59.96095340903511,
,0,5,0,1,0,-4,65,,train_dim1_1,1,30,,,,2,0,2,0,,,,,,,,,0,0,0,0,0,0,0,0,4,0,4,0,,,,,,,,,,,,,,,,,,,,,,,,,,,,,,,,,,,,,,,,,,,,,,,,,,,,,,,,,,,,,,,,30,,,,,,,,2092.5508910999633,2092.5508910999633,2092.5508910999633,2092.5508910999633,2092.5508910999633,return,0.32639420009218156,0,0,0,0,-0.16,0,return,0.24517430015839636,0,0,-0.16,0,,,,,,,,,,,,,,,,,,,,,,,,,,,,,,,,,,,,,,,,,,,,,,,,,,,,,,,,UQ11L2,train_y,blue_star,top_left,2025-08-21_14h41.09.629,HideSeek_v1,2022.2.5,59.96095340903511,
,3,7,3,2,0,-5,66,,train_dim1_1,2,30,,,,2,0,2,0,,,,,,,,,0,0,0,0,0,1,1,1,0,0,0,0,,,,,,,,,,,,,,,,,,,,,,,,,stimuli/alien_stimuli/66.png,,,,,,,,,,,,,,,,,,,,,,,,,,,,,stimuli/alien_stimuli/65.png,65,0,3,,,,,,,30,,,,,,,,2105.481950599933,2105.481950599933,2105.481950599933,2105.481950599933,2105.481950599933,down,1.9226915000472218,0,0,0,99,0.08,0.08,down,1.817711500218138,,,,,2103.9121822000016,2105.481950599933,-0.16,-0.32,0.32,0.0,-0.16,-0.16,-0.16,-0.16,-0.32,2094.4600398999173,2094.4600398999173,2094.4600398999173,2094.4600398999173,2094.4600398999173,2094.4600398999173,2094.4600398999173,2094.4600398999173,2094.454390340066,9.577410999918357,return,9.43062030011788,,,,,,,,,,,,,,,,,,,,,,,,,,,,,,,,,UQ11L2,train_y,blue_star,top_left,2025-08-21_14h41.09.629,HideSeek_v1,2022.2.5,59.96095340903511,
,3,7,3,2,0,-5,66,,train_dim1_1,2,30,,,,2,0,2,0,,,,,,,,,0,0,0,0,0,1,1,1,1,0,1,0,,,,,,,,,,,,,,,,,,,,,,,,,,,,,,,,,,,,,,,,,,,,,,,,,,,,,,,,,,,,,,,,30,,,,,,,,2107.3987624999136,2107.3987624999136,2107.3987624999136,2107.3987624999136,2107.3987624999136,down,0.14273329987190664,0,0,0,99,0.08,0.0,down,0.05312280007638037,,,,,,,,,,,,,,,,,,,,,,,,,,,,,,,,,,,,,,,,,,,,,,,,,,,,,,,,,,,,UQ11L2,train_y,blue_star,top_left,2025-08-21_14h41.09.629,HideSeek_v1,2022.2.5,59.96095340903511,
,3,7,3,2,0,-5,66,,train_dim1_1,2,30,,,,2,0,2,0,,,,,,,,,0,0,0,0,0,1,1,1,2,0,2,0,,,,,,,,,,,,,,,,,,,,,,,,,,,,,,,,,,,,,,,,,,,,,,,,,,,,,,,,,,,,,,,,30,,,,,,,,2107.551283800043,2107.551283800043,2107.551283800043,2107.551283800043,2107.551283800043,down,0.8935779000166804,0,0,0,99,0.08,-0.08,down,0.8014243999496102,,,,,,,,,,,,,,,,,,,,,,,,,,,,,,,,,,,,,,,,,,,,,,,,,,,,,,,,,,,,UQ11L2,train_y,blue_star,top_left,2025-08-21_14h41.09.629,HideSeek_v1,2022.2.5,59.96095340903511,
,3,7,3,2,0,-5,66,,train_dim1_1,2,30,,,,2,0,2,0,,,,,,,,,0,0,0,0,0,1,1,1,3,0,3,0,,,,,,,,,,,,,,,,,,,,,,,,,,,,,,,,,,,,,,,,,,,,,,,,,,,,,,,,,,,,,,,,30,,,,,,,,2108.447061999934,2108.447061999934,2108.447061999934,2108.447061999934,2108.447061999934,down,0.15965049993246794,0,0,0,99,0.08,-0.16,down,0.08537930017337203,,,,,,,,,,,,,,,,,,,,,,,,,,,,,,,,,,,,,,,,,,,,,,,,,,,,,,,,,,,,UQ11L2,train_y,blue_star,top_left,2025-08-21_14h41.09.629,HideSeek_v1,2022.2.5,59.96095340903511,
,3,7,3,2,0,-5,66,,train_dim1_1,2,30,,,,2,0,2,0,,,,,,,,,0,0,0,0,0,1,1,1,4,0,4,0,,,,,,,,,,,,,,,,,,,,,,,,,,,,,,,,,,,,,,,,,,,,,,,,,,,,,,,,,,,,,,,,30,,,,,,,,2108.614531500032,2108.614531500032,2108.614531500032,2108.614531500032,2108.614531500032,return,5.130513299955055,0,1,0,0,0.08,-0.16,return,5.049074400216341,-4,0,0.08,-0.16,,,,,,,,,,,,,,,,,,,,,,,,,,,,,,,,,,,,,,,,,,,,,,,,,,,,,,,,UQ11L2,train_y,blue_star,top_left,2025-08-21_14h41.09.629,HideSeek_v1,2022.2.5,59.96095340903511,
,2,8,2,5,0,-3,64,,train_dim1_1,3,30,,,,2,0,2,0,,,,,,,,,0,0,0,0,0,2,2,2,0,0,0,0,,,,,,,,,,,,,,,,,,,,,,,,,stimuli/alien_stimuli/64.png,,,,,,,,,,,,,,,,,,,,,,,,,,,,,stimuli/alien_stimuli/66.png,66,3,4,,,,,,,30,,,,,,,,2122.8467834000476,2122.8467834000476,2122.8467834000476,2122.8467834000476,2122.8467834000476,right,3.7248225000221282,0,1,0,99,0.08,0.24,right,3.648865100229159,,,,,2121.29333200003,2122.8467834000476,0.08,-0.24,0.4,0.0,-0.039999999999999994,0.08,0.08,0.08,-0.24,2115.312373999972,2115.312373999972,2115.312373999972,2115.312373999972,2115.312373999972,2115.312373999972,2115.312373999972,2115.312373999972,2115.3052874098767,6.090229499852285,return,5.950579900061712,,,,,,,,,,,,,,,,,,,,,,,,,,,,,,,,,UQ11L2,train_y,blue_star,top_left,2025-08-21_14h41.09.629,HideSeek_v1,2022.2.5,59.96095340903511,
,2,8,2,5,0,-3,64,,train_dim1_1,3,30,,,,2,0,2,0,,,,,,,,,0,0,0,0,0,2,2,2,1,0,1,0,,,,,,,,,,,,,,,,,,,,,,,,,,,,,,,,,,,,,,,,,,,,,,,,,,,,,,,,,,,,,,,,30,,,,,,,,2126.5779164000414,2126.5779164000414,2126.5779164000414,2126.5779164000414,2126.5779164000414,left,1.3267777001019567,0,1,0,99,0.0,0.24,left,1.250789200188592,,,,,,,,,,,,,,,,,,,,,,,,,,,,,,,,,,,,,,,,,,,,,,,,,,,,,,,,,,,,UQ11L2,train_y,blue_star,top_left,2025-08-21_14h41.09.629,HideSeek_v1,2022.2.5,59.96095340903511,
,2,8,2,5,0,-3,64,,train_dim1_1,3,30,,,,2,0,2,0,,,,,,,,,0,0,0,0,0,2,2,2,2,0,2,0,,,,,,,,,,,,,,,,,,,,,,,,,,,,,,,,,,,,,,,,,,,,,,,,,,,,,,,,,,,,,,,,30,,,,,,,,2127.9122526999563,2127.9122526999563,2127.9122526999563,2127.9122526999563,2127.9122526999563,down,0.7103061999659985,0,1,0,99,0.0,0.15999999999999998,down,0.6246387001592666,,,,,,,,,,,,,,,,,,,,,,,,,,,,,,,,,,,,,,,,,,,,,,,,,,,,,,,,,,,,UQ11L2,train_y,blue_star,top_left,2025-08-21_14h41.09.629,HideSeek_v1,2022.2.5,59.96095340903511,
,2,8,2,5,0,-3,64,,train_dim1_1,3,30,,,,2,0,2,0,,,,,,,,,0,0,0,0,0,2,2,2,3,0,3,0,,,,,,,,,,,,,,,,,,,,,,,,,,,,,,,,,,,,,,,,,,,,,,,,,,,,,,,,,,,,,,,,30,,,,,,,,2128.6296619998757,2128.6296619998757,2128.6296619998757,2128.6296619998757,2128.6296619998757,down,0.46008959994651377,0,1,0,99,0.0,0.07999999999999997,down,0.38311240007169545,,,,,,,,,,,,,,,,,,,,,,,,,,,,,,,,,,,,,,,,,,,,,,,,,,,,,,,,,,,,UQ11L2,train_y,blue_star,top_left,2025-08-21_14h41.09.629,HideSeek_v1,2022.2.5,59.96095340903511,
,2,8,2,5,0,-3,64,,train_dim1_1,3,30,,,,2,0,2,0,,,,,,,,,0,0,0,0,0,2,2,2,4,0,4,0,,,,,,,,,,,,,,,,,,,,,,,,,,,,,,,,,,,,,,,,,,,,,,,,,,,,,,,,,,,,,,,,30,,,,,,,,2129.0998567000497,2129.0998567000497,2129.0998567000497,2129.0998567000497,2129.0998567000497,down,0.6934845999348909,0,1,0,99,0.0,-2.7755575615628914e-17,down,0.6178624001331627,,,,,,,,,,,,,,,,,,,,,,,,,,,,,,,,,,,,,,,,,,,,,,,,,,,,,,,,,,,,UQ11L2,train_y,blue_star,top_left,2025-08-21_14h41.09.629,HideSeek_v1,2022.2.5,59.96095340903511,
,2,8,2,5,0,-3,64,,train_dim1_1,3,30,,,,2,0,2,0,,,,,,,,,0,0,0,0,0,2,2,2,5,0,5,0,,,,,,,,,,,,,,,,,,,,,,,,,,,,,,,,,,,,,,,,,,,,,,,,,,,,,,,,,,,,,,,,30,,,,,,,,2129.797231100034,2129.797231100034,2129.797231100034,2129.797231100034,2129.797231100034,up,2.0113280001096427,0,1,0,99,0.0,0.07999999999999997,up,1.9338231000583619,,,,,,,,,,,,,,,,,,,,,,,,,,,,,,,,,,,,,,,,,,,,,,,,,,,,,,,,,,,,UQ11L2,train_y,blue_star,top_left,2025-08-21_14h41.09.629,HideSeek_v1,2022.2.5,59.96095340903511,
,2,8,2,5,0,-3,64,,train_dim1_1,3,30,,,,2,0,2,0,,,,,,,,,0,0,0,0,0,2,2,2,6,0,6,0,,,,,,,,,,,,,,,,,,,,,,,,,,,,,,,,,,,,,,,,,,,,,,,,,,,,,,,,,,,,,,,,30,,,,,,,,2131.815263699973,2131.815263699973,2131.815263699973,2131.815263699973,2131.815263699973,down,1.4277117000892758,0,1,0,99,0.0,-2.7755575615628914e-17,down,1.3397619999013841,,,,,,,,,,,,,,,,,,,,,,,,,,,,,,,,,,,,,,,,,,,,,,,,,,,,,,,,,,,,UQ11L2,train_y,blue_star,top_left,2025-08-21_14h41.09.629,HideSeek_v1,2022.2.5,59.96095340903511,
,2,8,2,5,0,-3,64,,train_dim1_1,3,30,,,,2,0,2,0,,,,,,,,,0,0,0,0,0,2,2,2,7,0,7,0,,,,,,,,,,,,,,,,,,,,,,,,,,,,,,,,,,,,,,,,,,,,,,,,,,,,,,,,,,,,,,,,30,,,,,,,,2133.2500809999183,2133.2500809999183,2133.2500809999183,2133.2500809999183,2133.2500809999183,down,3.395731900120154,0,1,0,99,0.0,-0.08000000000000003,down,3.3169633001089096,,,,,,,,,,,,,,,,,,,,,,,,,,,,,,,,,,,,,,,,,,,,,,,,,,,,,,,,,,,,UQ11L2,train_y,blue_star,top_left,2025-08-21_14h41.09.629,HideSeek_v1,2022.2.5,59.96095340903511,
,2,8,2,5,0,-3,64,,train_dim1_1,3,30,,,,2,0,2,0,,,,,,,,,0,0,0,0,0,2,2,2,8,0,8,0,,,,,,,,,,,,,,,,,,,,,,,,,,,,,,,,,,,,,,,,,,,,,,,,,,,,,,,,,,,,,,,,30,,,,,,,,2136.6553317999933,2136.6553317999933,2136.6553317999933,2136.6553317999933,2136.6553317999933,return,1.591868800111115,0,1,0,0,0.0,-0.08000000000000003,return,1.503678600070998,-8,0,0.0,-0.08000000000000003,,,,,,,,,,,,,,,,,,,,,,,,,,,,,,,,,,,,,,,,,,,,,,,,,,,,,,,,UQ11L2,train_y,blue_star,top_left,2025-08-21_14h41.09.629,HideSeek_v1,2022.2.5,59.96095340903511,
,0,6,0,5,0,-1,62,,train_dim1_1,4,30,,,,2,0,2,0,,,,,,,,,0,0,0,0,0,3,3,3,0,0,0,0,,,,,,,,,,,,,,,,,,,,,,,,,stimuli/alien_stimuli/62.png,,,,,,,,,,,,,,,,,,,,,,,,,,,,,stimuli/alien_stimuli/64.png,64,2,5,,,,,,,30,,,,,,,,2145.95126589993,2145.95126589993,2145.95126589993,2145.95126589993,2145.95126589993,right,2.656421599909663,0,1,0,99,-0.08,0.08,right,2.571653800085187,,,,,2144.3958546000067,2145.95126589993,0,0,0.24,0.0,0.12,0,0.0,0,0,2139.8137630999554,2139.8137630999554,2139.8137630999554,2139.8137630999554,2139.8137630999554,2139.8137630999554,2139.8137630999554,2139.8137630999554,2139.809018910001,4.689360599964857,return,4.558968100231141,,,,,,,,,,,,,,,,,,,,,,,,,,,,,,,,,UQ11L2,train_y,blue_star,top_left,2025-08-21_14h41.09.629,HideSeek_v1,2022.2.5,59.96095340903511,
,0,6,0,5,0,-1,62,,train_dim1_1,4,30,,,,2,0,2,0,,,,,,,,,0,0,0,0,0,3,3,3,1,0,1,0,,,,,,,,,,,,,,,,,,,,,,,,,,,,,,,,,,,,,,,,,,,,,,,,,,,,,,,,,,,,,,,,30,,,,,,,,2148.6202264998574,2148.6202264998574,2148.6202264998574,2148.6202264998574,2148.6202264998574,left,0.37053490011021495,0,1,0,99,-0.16,0.08,left,0.28898280020803213,,,,,,,,,,,,,,,,,,,,,,,,,,,,,,,,,,,,,,,,,,,,,,,,,,,,,,,,,,,,UQ11L2,train_y,blue_star,top_left,2025-08-21_14h41.09.629,HideSeek_v1,2022.2.5,59.96095340903511,
,0,6,0,5,0,-1,62,,train_dim1_1,4,30,,,,2,0,2,0,,,,,,,,,0,0,0,0,0,3,3,3,2,0,2,0,,,,,,,,,,,,,,,,,,,,,,,,,,,,,,,,,,,,,,,,,,,,,,,,,,,,,,,,,,,,,,,,30,,,,,,,,2149.0022517000325,2149.0022517000325,2149.0022517000325,2149.0022517000325,2149.0022517000325,return,1.8277416001074016,0,1,0,0,-0.16,0.08,return,1.7476453001145273,-8,0,-0.16,0.08,,,,,,,,,,,,,,,,,,,,,,,,,,,,,,,,,,,,,,,,,,,,,,,,,,,,,,,,UQ11L2,train_y,blue_star,top_left,2025-08-21_14h41.09.629,HideSeek_v1,2022.2.5,59.96095340903511,
,3,8,3,8,0,0,61,,train_dim1_1,5,30,,,,2,0,2,0,,,,,,,,,0,0,0,0,0,4,4,4,0,0,0,0,,,,,,,,,,,,,,,,,,,,,,,,,stimuli/alien_stimuli/61.png,,,,,,,,,,,,,,,,,,,,,,,,,,,,,stimuli/alien_stimuli/62.png,62,0,6,,,,,,,30,,,,,,,,2157.4081295998767,2157.4081295998767,2157.4081295998767,2157.4081295998767,2157.4081295998767,down,2.0576516001019627,0,1,0,99,0.08,0.15999999999999998,down,1.97916020010598,,,,,2155.8555155999493,2157.4081295998767,-0.16,0,0.08,0.0,0.04,-0.16,-0.16,-0.16,0,2152.395713399863,2152.395713399863,2152.395713399863,2152.395713399863,2152.395713399863,2152.395713399863,2152.395713399863,2152.395713399863,2152.386166409892,3.571500400081277,return,3.4419573002960533,,,,,,,,,,,,,,,,,,,,,,,,,,,,,,,,,UQ11L2,train_y,blue_star,top_left,2025-08-21_14h41.09.629,HideSeek_v1,2022.2.5,59.96095340903511,
,3,8,3,8,0,0,61,,train_dim1_1,5,30,,,,2,0,2,0,,,,,,,,,0,0,0,0,0,4,4,4,1,0,1,0,,,,,,,,,,,,,,,,,,,,,,,,,,,,,,,,,,,,,,,,,,,,,,,,,,,,,,,,,,,,,,,,30,,,,,,,,2159.47315179999,2159.47315179999,2159.47315179999,2159.47315179999,2159.47315179999,return,1.4437029000837356,0,1,0,0,0.08,0.15999999999999998,return,1.3705552001483738,-9,0,0.08,0.15999999999999998,,,,,,,,,,,,,,,,,,,,,,,,,,,,,,,,,,,,,,,,,,,,,,,,,,,,,,,,UQ11L2,train_y,blue_star,top_left,2025-08-21_14h41.09.629,HideSeek_v1,2022.2.5,59.96095340903511,
,1,9,1,8,0,-1,62,,train_dim1_1,6,30,,,,2,0,2,0,,,,,,,,,0,0,0,0,0,5,5,5,0,0,0,0,,,,,,,,,,,,,,,,,,,,,,,,,stimuli/alien_stimuli/62.png,,,,,,,,,,,,,,,,,,,,,,,,,,,,,stimuli/alien_stimuli/61.png,61,3,7,,,,,,,30,,,,,,,,2165.4157990000676,2165.4157990000676,2165.4157990000676,2165.4157990000676,2165.4157990000676,down,3.3575194999575615,0,1,0,99,-0.08,0.24,down,3.2733286002185196,,,,,2163.861787599977,2165.4157990000676,0.08,0.24,0.0,0.0,0.24,0.08,0.08,0.08,0.24,2162.469298799988,2162.469298799988,2162.469298799988,2162.469298799988,2162.469298799988,2162.469298799988,2162.469298799988,2162.469298799988,2162.4610021799804,1.4866136000491679,return,1.3656622001435608,,,,,,,,,,,,,,,,,,,,,,,,,,,,,,,,,UQ11L2,train_y,blue_star,top_left,2025-08-21_14h41.09.629,HideSeek_v1,2022.2.5,59.96095340903511,
,1,9,1,8,0,-1,62,,train_dim1_1,6,30,,,,2,0,2,0,,,,,,,,,0,0,0,0,0,5,5,5,1,0,1,0,,,,,,,,,,,,,,,,,,,,,,,,,,,,,,,,,,,,,,,,,,,,,,,,,,,,,,,,,,,,,,,,30,,,,,,,,2168.781205700012,2168.781205700012,2168.781205700012,2168.781205700012,2168.781205700012,return,2.2112116999924183,1,0,0,1,-0.08,0.24,return,2.129074699943885,-10,0,-0.08,0.24,,,,,,,,,,,,,,,,,,,,,,,,,,,,,,,,,,,,,,,,,,,,,,,,,,,,,,,,UQ11L2,train_y,blue_star,top_left,2025-08-21_14h41.09.629,HideSeek_v1,2022.2.5,59.96095340903511,
,1,8,1,5,0,-3,64,,train_dim1_1,7,30,,,,2,0,2,0,,,,,,,,,0,0,0,0,0,6,6,6,0,0,0,0,,,,,,,,,,,,,,,,,,,,,,,,,stimuli/alien_stimuli/64.png,,,,,,,,,,,,,,,,,,,,,,,,,,,,,stimuli/alien_stimuli/62.png,62,1,8,,,,,,,30,,,,,,,,2177.744175300002,2177.744175300002,2177.744175300002,2177.744175300002,2177.744175300002,down,2.106995299924165,1,0,0,99,-0.08,0.15999999999999998,down,2.022153800120577,,,,,2176.188960700063,2177.744175300002,-0.08,0.24,0.08,0.0,0.28,-0.08,-0.08,-0.08,0.24,2172.551164699951,2172.551164699951,2172.551164699951,2172.551164699951,2172.551164699951,2172.551164699951,2172.551164699951,2172.551164699951,2172.55277621008,3.7388372998684645,return,3.619249700102955,,,,,,,,,,,,,,,,,,,,,,,,,,,,,,,,,UQ11L2,train_y,blue_star,top_left,2025-08-21_14h41.09.629,HideSeek_v1,2022.2.5,59.96095340903511,
,1,8,1,5,0,-3,64,,train_dim1_1,7,30,,,,2,0,2,0,,,,,,,,,0,0,0,0,0,6,6,6,1,0,1,0,,,,,,,,,,,,,,,,,,,,,,,,,,,,,,,,,,,,,,,,,,,,,,,,,,,,,,,,,,,,,,,,30,,,,,,,,2179.8821759999264,2179.8821759999264,2179.8821759999264,2179.8821759999264,2179.8821759999264,down,0.8263981000054628,1,0,0,99,-0.08,0.07999999999999997,down,0.7192478000652045,,,,,,,,,,,,,,,,,,,,,,,,,,,,,,,,,,,,,,,,,,,,,,,,,,,,,,,,,,,,UQ11L2,train_y,blue_star,top_left,2025-08-21_14h41.09.629,HideSeek_v1,2022.2.5,59.96095340903511,
,1,8,1,5,0,-3,64,,train_dim1_1,7,30,,,,2,0,2,0,,,,,,,,,0,0,0,0,0,6,6,6,2,0,2,0,,,,,,,,,,,,,,,,,,,,,,,,,,,,,,,,,,,,,,,,,,,,,,,,,,,,,,,,,,,,,,,,30,,,,,,,,2180.6926436999347,2180.6926436999347,2180.6926436999347,2180.6926436999347,2180.6926436999347,down,0.910428199917078,1,0,0,99,-0.08,-2.7755575615628914e-17,down,0.829920600168407,,,,,,,,,,,,,,,,,,,,,,,,,,,,,,,,,,,,,,,,,,,,,,,,,,,,,,,,,,,,UQ11L2,train_y,blue_star,top_left,2025-08-21_14h41.09.629,HideSeek_v1,2022.2.5,59.96095340903511,
,1,8,1,5,0,-3,64,,train_dim1_1,7,30,,,,2,0,2,0,,,,,,,,,0,0,0,0,0,6,6,6,3,0,3,0,,,,,,,,,,,,,,,,,,,,,,,,,,,,,,,,,,,,,,,,,,,,,,,,,,,,,,,,,,,,,,,,30,,,,,,,,2181.608137999894,2181.608137999894,2181.608137999894,2181.608137999894,2181.608137999894,return,1.3440825000870973,2,0,0,1,-0.08,-2.7755575615628914e-17,return,1.2632743001449853,-13,0,-0.08,-2.7755575615628914e-17,,,,,,,,,,,,,,,,,,,,,,,,,,,,,,,,,,,,,,,,,,,,,,,,,,,,,,,,UQ11L2,train_y,blue_star,top_left,2025-08-21_14h41.09.629,HideSeek_v1,2022.2.5,59.96095340903511,
,4,7,4,7,0,0,61,,train_dim1_1,8,30,,,,2,0,2,0,,,,,,,,,0,0,0,0,0,7,7,7,0,0,0,0,,,,,,,,,,,,,,,,,,,,,,,,,stimuli/alien_stimuli/61.png,,,,,,,,,,,,,,,,,,,,,,,,,,,,,stimuli/alien_stimuli/64.png,64,1,9,,,,,,,30,,,,,,,,2187.9423706999514,2187.9423706999514,2187.9423706999514,2187.9423706999514,2187.9423706999514,down,3.838081599911675,2,0,0,99,0.16,0.08,down,3.749258200172335,,,,,2186.380731999874,2187.9423706999514,-0.08,0,0.24,0.0,0.12,-0.08,-0.08,-0.08,0,2184.5289743000176,2184.5289743000176,2184.5289743000176,2184.5289743000176,2184.5289743000176,2184.5289743000176,2184.5289743000176,2184.5289743000176,2184.52935854001,1.9708787000272423,return,1.8360196000430733,,,,,,,,,,,,,,,,,,,,,,,,,,,,,,,,,UQ11L2,train_y,blue_star,top_left,2025-08-21_14h41.09.629,HideSeek_v1,2022.2.5,59.96095340903511,
,4,7,4,7,0,0,61,,train_dim1_1,8,30,,,,2,0,2,0,,,,,,,,,0,0,0,0,0,7,7,7,1,0,1,0,,,,,,,,,,,,,,,,,,,,,,,,,,,,,,,,,,,,,,,,,,,,,,,,,,,,,,,,,,,,,,,,30,,,,,,,,2191.784583099885,2191.784583099885,2191.784583099885,2191.784583099885,2191.784583099885,up,1.9775031998287886,2,0,0,99,0.16,0.16,up,1.8983405001927167,,,,,,,,,,,,,,,,,,,,,,,,,,,,,,,,,,,,,,,,,,,,,,,,,,,,,,,,,,,,UQ11L2,train_y,blue_star,top_left,2025-08-21_14h41.09.629,HideSeek_v1,2022.2.5,59.96095340903511,
,4,7,4,7,0,0,61,,train_dim1_1,8,30,,,,2,0,2,0,,,,,,,,,0,0,0,0,0,7,7,7,2,0,2,0,,,,,,,,,,,,,,,,,,,,,,,,,,,,,,,,,,,,,,,,,,,,,,,,,,,,,,,,,,,,,,,,30,,,,,,,,2193.7684259000234,2193.7684259000234,2193.7684259000234,2193.7684259000234,2193.7684259000234,up,0.20995390019379556,2,0,0,99,0.16,0.24,up,0.13487810012884438,,,,,,,,,,,,,,,,,,,,,,,,,,,,,,,,,,,,,,,,,,,,,,,,,,,,,,,,,,,,UQ11L2,train_y,blue_star,top_left,2025-08-21_14h41.09.629,HideSeek_v1,2022.2.5,59.96095340903511,
,4,7,4,7,0,0,61,,train_dim1_1,8,30,,,,2,0,2,0,,,,,,,,,0,0,0,0,0,7,7,7,3,0,3,0,,,,,,,,,,,,,,,,,,,,,,,,,,,,,,,,,,,,,,,,,,,,,,,,,,,,,,,,,,,,,,,,30,,,,,,,,2193.9907366000116,2193.9907366000116,2193.9907366000116,2193.9907366000116,2193.9907366000116,down,0.6937487998511642,2,0,0,99,0.16,0.15999999999999998,down,0.6008183001540601,,,,,,,,,,,,,,,,,,,,,,,,,,,,,,,,,,,,,,,,,,,,,,,,,,,,,,,,,,,,UQ11L2,train_y,blue_star,top_left,2025-08-21_14h41.09.629,HideSeek_v1,2022.2.5,59.96095340903511,
,4,7,4,7,0,0,61,,train_dim1_1,8,30,,,,2,0,2,0,,,,,,,,,0,0,0,0,0,7,7,7,4,0,4,0,,,,,,,,,,,,,,,,,,,,,,,,,,,,,,,,,,,,,,,,,,,,,,,,,,,,,,,,,,,,,,,,30,,,,,,,,2194.684650100069,2194.684650100069,2194.684650100069,2194.684650100069,2194.684650100069,return,0.4769956998061389,3,0,0,1,0.16,0.15999999999999998,return,0.40287799993529916,-13,0,0.16,0.15999999999999998,,,,,,,,,,,,,,,,,,,,,,,,,,,,,,,,,,,,,,,,,,,,,,,,,,,,,,,,UQ11L2,train_y,blue_star,top_left,2025-08-21_14h41.09.629,HideSeek_v1,2022.2.5,59.96095340903511,
,4,8,4,4,0,-4,65,,train_dim1_1,9,30,,,,2,0,2,0,,,,,,,,,0,0,0,0,0,8,8,8,0,0,0,0,,,,,,,,,,,,,,,,,,,,,,,,,stimuli/alien_stimuli/65.png,,,,,,,,,,,,,,,,,,,,,,,,,,,,,stimuli/alien_stimuli/61.png,61,4,10,,,,,,,30,,,,,,,,2199.826957100071,2199.826957100071,2199.826957100071,2199.826957100071,2199.826957100071,down,1.3730657999403775,3,0,0,99,0.16,0.15999999999999998,down,1.2996569001115859,,,,,2198.274229099974,2199.826957100071,0.16,0.16,0.0,0.0,0.16,0.16,0.16,0.16,0.16,2196.735316999955,2196.735316999955,2196.735316999955,2196.735316999955,2196.735316999955,2196.735316999955,2196.735316999955,2196.735316999955,2196.722800510074,1.6535257000941783,return,1.5087120002135634,,,,,,,,,,,,,,,,,,,,,,,,,,,,,,,,,UQ11L2,train_y,blue_star,top_left,2025-08-21_14h41.09.629,HideSeek_v1,2022.2.5,59.96095340903511,
,4,8,4,4,0,-4,65,,train_dim1_1,9,30,,,,2,0,2,0,,,,,,,,,0,0,0,0,0,8,8,8,1,0,1,0,,,,,,,,,,,,,,,,,,,,,,,,,,,,,,,,,,,,,,,,,,,,,,,,,,,,,,,,,,,,,,,,30,,,,,,,,2201.2079213999677,2201.2079213999677,2201.2079213999677,2201.2079213999677,2201.2079213999677,down,0.6090253000147641,3,0,0,99,0.16,0.07999999999999997,down,0.5283826999366283,,,,,,,,,,,,,,,,,,,,,,,,,,,,,,,,,,,,,,,,,,,,,,,,,,,,,,,,,,,,UQ11L2,train_y,blue_star,top_left,2025-08-21_14h41.09.629,HideSeek_v1,2022.2.5,59.96095340903511,
,4,8,4,4,0,-4,65,,train_dim1_1,9,30,,,,2,0,2,0,,,,,,,,,0,0,0,0,0,8,8,8,2,0,2,0,,,,,,,,,,,,,,,,,,,,,,,,,,,,,,,,,,,,,,,,,,,,,,,,,,,,,,,,,,,,,,,,30,,,,,,,,2201.823257900076,2201.823257900076,2201.823257900076,2201.823257900076,2201.823257900076,down,0.7938730998430401,3,0,0,99,0.16,-2.7755575615628914e-17,down,0.7060313001275063,,,,,,,,,,,,,,,,,,,,,,,,,,,,,,,,,,,,,,,,,,,,,,,,,,,,,,,,,,,,UQ11L2,train_y,blue_star,top_left,2025-08-21_14h41.09.629,HideSeek_v1,2022.2.5,59.96095340903511,
,4,8,4,4,0,-4,65,,train_dim1_1,9,30,,,,2,0,2,0,,,,,,,,,0,0,0,0,0,8,8,8,3,0,3,0,,,,,,,,,,,,,,,,,,,,,,,,,,,,,,,,,,,,,,,,,,,,,,,,,,,,,,,,,,,,,,,,30,,,,,,,,2202.6238291999325,2202.6238291999325,2202.6238291999325,2202.6238291999325,2202.6238291999325,down,0.6939658999908715,3,0,0,99,0.16,-0.08000000000000003,down,0.608667200198397,,,,,,,,,,,,,,,,,,,,,,,,,,,,,,,,,,,,,,,,,,,,,,,,,,,,,,,,,,,,UQ11L2,train_y,blue_star,top_left,2025-08-21_14h41.09.629,HideSeek_v1,2022.2.5,59.96095340903511,
,4,8,4,4,0,-4,65,,train_dim1_1,9,30,,,,2,0,2,0,,,,,,,,,0,0,0,0,0,8,8,8,4,0,4,0,,,,,,,,,,,,,,,,,,,,,,,,,,,,,,,,,,,,,,,,,,,,,,,,,,,,,,,,,,,,,,,,30,,,,,,,,2203.325924600009,2203.325924600009,2203.325924600009,2203.325924600009,2203.325924600009,down,3.4453881001099944,3,0,0,99,0.16,-0.16000000000000003,down,3.357621100032702,,,,,,,,,,,,,,,,,,,,,,,,,,,,,,,,,,,,,,,,,,,,,,,,,,,,,,,,,,,,UQ11L2,train_y,blue_star,top_left,2025-08-21_14h41.09.629,HideSeek_v1,2022.2.5,59.96095340903511,
,4,8,4,4,0,-4,65,,train_dim1_1,9,30,,,,2,0,2,0,,,,,,,,,0,0,0,0,0,8,8,8,5,0,5,0,,,,,,,,,,,,,,,,,,,,,,,,,,,,,,,,,,,,,,,,,,,,,,,,,,,,,,,,,,,,,,,,30,,,,,,,,2206.7796493999194,2206.7796493999194,2206.7796493999194,2206.7796493999194,2206.7796493999194,up,2.1948084998875856,3,0,0,99,0.16,-0.08000000000000003,up,2.107554300222546,,,,,,,,,,,,,,,,,,,,,,,,,,,,,,,,,,,,,,,,,,,,,,,,,,,,,,,,,,,,UQ11L2,train_y,blue_star,top_left,2025-08-21_14h41.09.629,HideSeek_v1,2022.2.5,59.96095340903511,
,4,8,4,4,0,-4,65,,train_dim1_1,9,30,,,,2,0,2,0,,,,,,,,,0,0,0,0,0,8,8,8,6,0,6,0,,,,,,,,,,,,,,,,,,,,,,,,,,,,,,,,,,,,,,,,,,,,,,,,,,,,,,,,,,,,,,,,30,,,,,,,,2208.9802393000573,2208.9802393000573,2208.9802393000573,2208.9802393000573,2208.9802393000573,return,1.460621900158003,4,0,0,1,0.16,-0.08000000000000003,return,1.3728309001307935,-17,0,0.16,-0.08000000000000003,,,,,,,,,,,,,,,,,,,,,,,,,,,,,,,,,,,,,,,,,,,,,,,,,,,,,,,,UQ11L2,train_y,blue_star,top_left,2025-08-21_14h41.09.629,HideSeek_v1,2022.2.5,59.96095340903511,
,2,7,2,2,0,-5,66,,train_dim1_1,10,30,,,,2,0,2,0,,,,,,,,,0,0,0,0,0,9,9,9,0,0,0,0,,,,,,,,,,,,,,,,,,,,,,,,,stimuli/alien_stimuli/66.png,,,,,,,,,,,,,,,,,,,,,,,,,,,,,stimuli/alien_stimuli/65.png,65,4,11,,,,,,,30,,,,,,,,2215.3719979999587,2215.3719979999587,2215.3719979999587,2215.3719979999587,2215.3719979999587,down,1.5405186000280082,4,0,0,99,0,0.08,down,1.45210270001553,,,,,2213.820414100075,2215.3719979999587,0.16,-0.08,0.32,0.0,0.07999999999999999,0.16,0.16,0.16,-0.08,2212.0074386999477,2212.0074386999477,2212.0074386999477,2212.0074386999477,2212.0074386999477,2212.0074386999477,2212.0074386999477,2212.0074386999477,2212.002061409946,1.9205509999301285,return,1.7881803000345826,,,,,,,,,,,,,,,,,,,,,,,,,,,,,,,,,UQ11L2,train_y,blue_star,top_left,2025-08-21_14h41.09.629,HideSeek_v1,2022.2.5,59.96095340903511,
,2,7,2,2,0,-5,66,,train_dim1_1,10,30,,,,2,0,2,0,,,,,,,,,0,0,0,0,0,9,9,9,1,0,1,0,,,,,,,,,,,,,,,,,,,,,,,,,,,,,,,,,,,,,,,,,,,,,,,,,,,,,,,,,,,,,,,,30,,,,,,,,2216.9205595999956,2216.9205595999956,2216.9205595999956,2216.9205595999956,2216.9205595999956,down,0.4764486001804471,4,0,0,99,0,0.0,down,0.3997094000224024,,,,,,,,,,,,,,,,,,,,,,,,,,,,,,,,,,,,,,,,,,,,,,,,,,,,,,,,,,,,UQ11L2,train_y,blue_star,top_left,2025-08-21_14h41.09.629,HideSeek_v1,2022.2.5,59.96095340903511,
,2,7,2,2,0,-5,66,,train_dim1_1,10,30,,,,2,0,2,0,,,,,,,,,0,0,0,0,0,9,9,9,2,0,2,0,,,,,,,,,,,,,,,,,,,,,,,,,,,,,,,,,,,,,,,,,,,,,,,,,,,,,,,,,,,,,,,,30,,,,,,,,2217.4076066999696,2217.4076066999696,2217.4076066999696,2217.4076066999696,2217.4076066999696,down,0.44066779990680516,4,0,0,99,0,-0.08,down,0.36484720022417605,,,,,,,,,,,,,,,,,,,,,,,,,,,,,,,,,,,,,,,,,,,,,,,,,,,,,,,,,,,,UQ11L2,train_y,blue_star,top_left,2025-08-21_14h41.09.629,HideSeek_v1,2022.2.5,59.96095340903511,
,2,7,2,2,0,-5,66,,train_dim1_1,10,30,,,,2,0,2,0,,,,,,,,,0,0,0,0,0,9,9,9,3,0,3,0,,,,,,,,,,,,,,,,,,,,,,,,,,,,,,,,,,,,,,,,,,,,,,,,,,,,,,,,,,,,,,,,30,,,,,,,,2217.8547920000274,2217.8547920000274,2217.8547920000274,2217.8547920000274,2217.8547920000274,down,1.0769919999875128,4,0,0,99,0,-0.16,down,0.994886000175029,,,,,,,,,,,,,,,,,,,,,,,,,,,,,,,,,,,,,,,,,,,,,,,,,,,,,,,,,,,,UQ11L2,train_y,blue_star,top_left,2025-08-21_14h41.09.629,HideSeek_v1,2022.2.5,59.96095340903511,
,2,7,2,2,0,-5,66,,train_dim1_1,10,30,,,,2,0,2,0,,,,,,,,,0,0,0,0,0,9,9,9,4,0,4,0,,,,,,,,,,,,,,,,,,,,,,,,,,,,,,,,,,,,,,,,,,,,,,,,,,,,,,,,,,,,,,,,30,,,,,,,,2218.941391600063,2218.941391600063,2218.941391600063,2218.941391600063,2218.941391600063,return,1.4926052000373602,4,1,0,0,0,-0.16,return,1.4153807999100536,-21,0,0,-0.16,,,,,,,,,,,,,,,,,,,,,,,,,,,,,,,,,,,,,,,,,,,,,,,,,,,,,,,,UQ11L2,train_y,blue_star,top_left,2025-08-21_14h41.09.629,HideSeek_v1,2022.2.5,59.96095340903511,
,4,6,4,2,0,-4,65,,train_dim1_1,11,30,,,,2,0,2,0,,,,,,,,,0,0,0,0,0,10,10,10,0,0,0,0,,,,,,,,,,,,,,,,,,,,,,,,,stimuli/alien_stimuli/65.png,,,,,,,,,,,,,,,,,,,,,,,,,,,,,stimuli/alien_stimuli/66.png,66,2,12,,,,,,,30,,,,,,,,2225.8646370000206,2225.8646370000206,2225.8646370000206,2225.8646370000206,2225.8646370000206,down,1.7077017999254167,4,1,0,99,0.16,0.0,down,1.6254363001789898,,,,,2224.3124265000224,2225.8646370000206,0,-0.24,0.4,0.0,-0.039999999999999994,0,0.0,0,-0.24,2221.9861709000543,2221.9861709000543,2221.9861709000543,2221.9861709000543,2221.9861709000543,2221.9861709000543,2221.9861709000543,2221.9861709000543,2221.9770744800103,2.421172299887985,return,2.305361600127071,,,,,,,,,,,,,,,,,,,,,,,,,,,,,,,,,UQ11L2,train_y,blue_star,top_left,2025-08-21_14h41.09.629,HideSeek_v1,2022.2.5,59.96095340903511,
,4,6,4,2,0,-4,65,,train_dim1_1,11,30,,,,2,0,2,0,,,,,,,,,0,0,0,0,0,10,10,10,1,0,1,0,,,,,,,,,,,,,,,,,,,,,,,,,,,,,,,,,,,,,,,,,,,,,,,,,,,,,,,,,,,,,,,,30,,,,,,,,2227.579108899925,2227.579108899925,2227.579108899925,2227.579108899925,2227.579108899925,down,0.6096441999543458,4,1,0,99,0.16,-0.08,down,0.5358145001810044,,,,,,,,,,,,,,,,,,,,,,,,,,,,,,,,,,,,,,,,,,,,,,,,,,,,,,,,,,,,UQ11L2,train_y,blue_star,top_left,2025-08-21_14h41.09.629,HideSeek_v1,2022.2.5,59.96095340903511,
,4,6,4,2,0,-4,65,,train_dim1_1,11,30,,,,2,0,2,0,,,,,,,,,0,0,0,0,0,10,10,10,2,0,2,0,,,,,,,,,,,,,,,,,,,,,,,,,,,,,,,,,,,,,,,,,,,,,,,,,,,,,,,,,,,,,,,,30,,,,,,,,2228.208134500077,2228.208134500077,2228.208134500077,2228.208134500077,2228.208134500077,down,0.6770950998179615,4,1,0,99,0.16,-0.16,down,0.5834844999480993,,,,,,,,,,,,,,,,,,,,,,,,,,,,,,,,,,,,,,,,,,,,,,,,,,,,,,,,,,,,UQ11L2,train_y,blue_star,top_left,2025-08-21_14h41.09.629,HideSeek_v1,2022.2.5,59.96095340903511,
,4,6,4,2,0,-4,65,,train_dim1_1,11,30,,,,2,0,2,0,,,,,,,,,0,0,0,0,0,10,10,10,3,0,3,0,,,,,,,,,,,,,,,,,,,,,,,,,,,,,,,,,,,,,,,,,,,,,,,,,,,,,,,,,,,,,,,,30,,,,,,,,2228.8816684000194,2228.8816684000194,2228.8816684000194,2228.8816684000194,2228.8816684000194,down,1.0605166999157518,4,1,0,99,0.16,-0.24,down,0.969711400102824,,,,,,,,,,,,,,,,,,,,,,,,,,,,,,,,,,,,,,,,,,,,,,,,,,,,,,,,,,,,UQ11L2,train_y,blue_star,top_left,2025-08-21_14h41.09.629,HideSeek_v1,2022.2.5,59.96095340903511,
,4,6,4,2,0,-4,65,,train_dim1_1,11,30,,,,2,0,2,0,,,,,,,,,0,0,0,0,0,10,10,10,4,0,4,0,,,,,,,,,,,,,,,,,,,,,,,,,,,,,,,,,,,,,,,,,,,,,,,,,,,,,,,,,,,,,,,,30,,,,,,,,2229.946583899902,2229.946583899902,2229.946583899902,2229.946583899902,2229.946583899902,return,2.7290246000047773,5,0,0,1,0.16,-0.24,return,2.6507833001669496,-25,0,0.16,-0.24,,,,,,,,,,,,,,,,,,,,,,,,,,,,,,,,,,,,,,,,,,,,,,,,,,,,,,,,UQ11L2,train_y,blue_star,top_left,2025-08-21_14h41.09.629,HideSeek_v1,2022.2.5,59.96095340903511,
,0,5,0,5,0,0,61,,train_dim1_1,12,30,,,,2,0,2,0,,,,,,,,,0,0,0,0,0,11,11,11,0,0,0,0,,,,,,,,,,,,,,,,,,,,,,,,,stimuli/alien_stimuli/61.png,,,,,,,,,,,,,,,,,,,,,,,,,,,,,stimuli/alien_stimuli/65.png,65,4,13,,,,,,,30,,,,,,,,2237.1911094000097,2237.1911094000097,2237.1911094000097,2237.1911094000097,2237.1911094000097,right,2.241904499940574,5,0,0,99,-0.08,0,right,2.159928300185129,,,,,2235.6382859000005,2237.1911094000097,0.16,-0.24,0.32,0.0,-0.07999999999999999,0.16,0.16,0.16,-0.24,2234.2406202000566,2234.2406202000566,2234.2406202000566,2234.2406202000566,2234.2406202000566,2234.2406202000566,2234.2406202000566,2234.2406202000566,2234.237535710051,1.5028576001059264,return,1.3735658000223339,,,,,,,,,,,,,,,,,,,,,,,,,,,,,,,,,UQ11L2,train_y,blue_star,top_left,2025-08-21_14h41.09.629,HideSeek_v1,2022.2.5,59.96095340903511,
,0,5,0,5,0,0,61,,train_dim1_1,12,30,,,,2,0,2,0,,,,,,,,,0,0,0,0,0,11,11,11,1,0,1,0,,,,,,,,,,,,,,,,,,,,,,,,,,,,,,,,,,,,,,,,,,,,,,,,,,,,,,,,,,,,,,,,30,,,,,,,,2239.4459389999975,2239.4459389999975,2239.4459389999975,2239.4459389999975,2239.4459389999975,down,1.3887873000930995,5,0,0,99,-0.08,-0.08,down,1.301785800140351,,,,,,,,,,,,,,,,,,,,,,,,,,,,,,,,,,,,,,,,,,,,,,,,,,,,,,,,,,,,UQ11L2,train_y,blue_star,top_left,2025-08-21_14h41.09.629,HideSeek_v1,2022.2.5,59.96095340903511,
,0,5,0,5,0,0,61,,train_dim1_1,12,30,,,,2,0,2,0,,,,,,,,,0,0,0,0,0,11,11,11,2,0,2,0,,,,,,,,,,,,,,,,,,,,,,,,,,,,,,,,,,,,,,,,,,,,,,,,,,,,,,,,,,,,,,,,30,,,,,,,,2240.8397315000184,2240.8397315000184,2240.8397315000184,2240.8397315000184,2240.8397315000184,down,0.20971519988961518,5,0,0,99,-0.08,-0.16,down,0.1277480002027005,,,,,,,,,,,,,,,,,,,,,,,,,,,,,,,,,,,,,,,,,,,,,,,,,,,,,,,,,,,,UQ11L2,train_y,blue_star,top_left,2025-08-21_14h41.09.629,HideSeek_v1,2022.2.5,59.96095340903511,
,0,5,0,5,0,0,61,,train_dim1_1,12,30,,,,2,0,2,0,,,,,,,,,0,0,0,0,0,11,11,11,3,0,3,0,,,,,,,,,,,,,,,,,,,,,,,,,,,,,,,,,,,,,,,,,,,,,,,,,,,,,,,,,,,,,,,,30,,,,,,,,2241.0576404000167,2241.0576404000167,2241.0576404000167,2241.0576404000167,2241.0576404000167,left,0.6770306997932494,5,0,0,99,-0.16,-0.16,left,0.5979708002414554,,,,,,,,,,,,,,,,,,,,,,,,,,,,,,,,,,,,,,,,,,,,,,,,,,,,,,,,,,,,UQ11L2,train_y,blue_star,top_left,2025-08-21_14h41.09.629,HideSeek_v1,2022.2.5,59.96095340903511,
,0,5,0,5,0,0,61,,train_dim1_1,12,30,,,,2,0,2,0,,,,,,,,,0,0,0,0,0,11,11,11,4,0,4,0,,,,,,,,,,,,,,,,,,,,,,,,,,,,,,,,,,,,,,,,,,,,,,,,,,,,,,,,,,,,,,,,30,,,,,,,,2241.740256299963,2241.740256299963,2241.740256299963,2241.740256299963,2241.740256299963,up,0.8100785000715405,5,0,0,99,-0.16,-0.08,up,0.7283350001089275,,,,,,,,,,,,,,,,,,,,,,,,,,,,,,,,,,,,,,,,,,,,,,,,,,,,,,,,,,,,UQ11L2,train_y,blue_star,top_left,2025-08-21_14h41.09.629,HideSeek_v1,2022.2.5,59.96095340903511,
,0,5,0,5,0,0,61,,train_dim1_1,12,30,,,,2,0,2,0,,,,,,,,,0,0,0,0,0,11,11,11,5,0,5,0,,,,,,,,,,,,,,,,,,,,,,,,,,,,,,,,,,,,,,,,,,,,,,,,,,,,,,,,,,,,,,,,30,,,,,,,,2242.55863279989,2242.55863279989,2242.55863279989,2242.55863279989,2242.55863279989,return,0.7933165999129415,5,1,0,0,-0.16,-0.08,return,0.7088771001435816,-26,0,-0.16,-0.08,,,,,,,,,,,,,,,,,,,,,,,,,,,,,,,,,,,,,,,,,,,,,,,,,,,,,,,,UQ11L2,train_y,blue_star,top_left,2025-08-21_14h41.09.629,HideSeek_v1,2022.2.5,59.96095340903511,
,4,8,4,7,0,-1,62,,train_dim1_1,13,30,,,,2,0,2,0,,,,,,,,,0,0,0,0,0,12,12,12,0,0,0,0,,,,,,,,,,,,,,,,,,,,,,,,,stimuli/alien_stimuli/62.png,,,,,,,,,,,,,,,,,,,,,,,,,,,,,stimuli/alien_stimuli/61.png,61,0,14,,,,,,,30,,,,,,,,2248.7019660999067,2248.7019660999067,2248.7019660999067,2248.7019660999067,2248.7019660999067,down,2.122650600038469,5,1,0,99,0.16,0.15999999999999998,down,2.0373941001016647,,,,,2247.147840599995,2248.7019660999067,-0.16,0,0.0,0.0,0.0,-0.16,-0.16,-0.16,0,2244.9178871000186,2244.9178871000186,2244.9178871000186,2244.9178871000186,2244.9178871000186,2244.9178871000186,2244.9178871000186,2244.9178871000186,2244.9128166100245,2.3374312000814825,return,2.204001100268215,,,,,,,,,,,,,,,,,,,,,,,,,,,,,,,,,UQ11L2,train_y,blue_star,top_left,2025-08-21_14h41.09.629,HideSeek_v1,2022.2.5,59.96095340903511,
,4,8,4,7,0,-1,62,,train_dim1_1,13,30,,,,2,0,2,0,,,,,,,,,0,0,0,0,0,12,12,12,1,0,1,0,,,,,,,,,,,,,,,,,,,,,,,,,,,,,,,,,,,,,,,,,,,,,,,,,,,,,,,,,,,,,,,,30,,,,,,,,2250.8315854000393,2250.8315854000393,2250.8315854000393,2250.8315854000393,2250.8315854000393,up,0.7766958000138402,5,1,0,99,0.16,0.24,up,0.6914050001651049,,,,,,,,,,,,,,,,,,,,,,,,,,,,,,,,,,,,,,,,,,,,,,,,,,,,,,,,,,,,UQ11L2,train_y,blue_star,top_left,2025-08-21_14h41.09.629,HideSeek_v1,2022.2.5,59.96095340903511,
,4,8,4,7,0,-1,62,,train_dim1_1,13,30,,,,2,0,2,0,,,,,,,,,0,0,0,0,0,12,12,12,2,0,2,0,,,,,,,,,,,,,,,,,,,,,,,,,,,,,,,,,,,,,,,,,,,,,,,,,,,,,,,,,,,,,,,,30,,,,,,,,2251.616556899855,2251.616556899855,2251.616556899855,2251.616556899855,2251.616556899855,return,0.4767541999462992,5,1,0,0,0.16,0.24,return,0.39237670018337667,-26,0,0.16,0.24,,,,,,,,,,,,,,,,,,,,,,,,,,,,,,,,,,,,,,,,,,,,,,,,,,,,,,,,UQ11L2,train_y,blue_star,top_left,2025-08-21_14h41.09.629,HideSeek_v1,2022.2.5,59.96095340903511,
,2,7,2,2,0,-5,66,,train_dim1_1,14,30,,,,2,0,2,0,,,,,,,,,0,0,0,0,0,13,13,13,0,0,0,0,,,,,,,,,,,,,,,,,,,,,,,,,stimuli/alien_stimuli/66.png,,,,,,,,,,,,,,,,,,,,,,,,,,,,,stimuli/alien_stimuli/62.png,62,4,15,,,,,,,30,,,,,,,,2256.6924985998776,2256.6924985998776,2256.6924985998776,2256.6924985998776,2256.6924985998776,down,1.304534199880436,5,1,0,99,0,0.08,down,1.227111600106582,,,,,2255.1377675000113,2256.6924985998776,0.16,0.16,0.08,0.0,0.2,0.16,0.16,0.16,0.16,2253.645777599886,2253.645777599886,2253.645777599886,2253.645777599886,2253.645777599886,2253.645777599886,2253.645777599886,2253.645777599886,2253.6366645799485,1.5870889001525939,return,1.4705352999735624,,,,,,,,,,,,,,,,,,,,,,,,,,,,,,,,,UQ11L2,train_y,blue_star,top_left,2025-08-21_14h41.09.629,HideSeek_v1,2022.2.5,59.96095340903511,
,2,7,2,2,0,-5,66,,train_dim1_1,14,30,,,,2,0,2,0,,,,,,,,,0,0,0,0,0,13,13,13,1,0,1,0,,,,,,,,,,,,,,,,,,,,,,,,,,,,,,,,,,,,,,,,,,,,,,,,,,,,,,,,,,,,,,,,30,,,,,,,,2258.0042375999037,2258.0042375999037,2258.0042375999037,2258.0042375999037,2258.0042375999037,down,0.5263799999374896,5,1,0,99,0,0.0,down,0.45281750010326505,,,,,,,,,,,,,,,,,,,,,,,,,,,,,,,,,,,,,,,,,,,,,,,,,,,,,,,,,,,,UQ11L2,train_y,blue_star,top_left,2025-08-21_14h41.09.629,HideSeek_v1,2022.2.5,59.96095340903511,
,2,7,2,2,0,-5,66,,train_dim1_1,14,30,,,,2,0,2,0,,,,,,,,,0,0,0,0,0,13,13,13,2,0,2,0,,,,,,,,,,,,,,,,,,,,,,,,,,,,,,,,,,,,,,,,,,,,,,,,,,,,,,,,,,,,,,,,30,,,,,,,,2258.5385263999924,2258.5385263999924,2258.5385263999924,2258.5385263999924,2258.5385263999924,down,0.676939700031653,5,1,0,99,0,-0.08,down,0.5983673001173884,,,,,,,,,,,,,,,,,,,,,,,,,,,,,,,,,,,,,,,,,,,,,,,,,,,,,,,,,,,,UQ11L2,train_y,blue_star,top_left,2025-08-21_14h41.09.629,HideSeek_v1,2022.2.5,59.96095340903511,
,2,7,2,2,0,-5,66,,train_dim1_1,14,30,,,,2,0,2,0,,,,,,,,,0,0,0,0,0,13,13,13,3,0,3,0,,,,,,,,,,,,,,,,,,,,,,,,,,,,,,,,,,,,,,,,,,,,,,,,,,,,,,,,,,,,,,,,30,,,,,,,,2259.2209049998783,2259.2209049998783,2259.2209049998783,2259.2209049998783,2259.2209049998783,down,1.6112698998767883,5,1,0,99,0,-0.16,down,1.5339616001583636,,,,,,,,,,,,,,,,,,,,,,,,,,,,,,,,,,,,,,,,,,,,,,,,,,,,,,,,,,,,UQ11L2,train_y,blue_star,top_left,2025-08-21_14h41.09.629,HideSeek_v1,2022.2.5,59.96095340903511,
,2,7,2,2,0,-5,66,,train_dim1_1,14,30,,,,2,0,2,0,,,,,,,,,0,0,0,0,0,13,13,13,4,0,4,0,,,,,,,,,,,,,,,,,,,,,,,,,,,,,,,,,,,,,,,,,,,,,,,,,,,,,,,,,,,,,,,,30,,,,,,,,2260.839219100075,2260.839219100075,2260.839219100075,2260.839219100075,2260.839219100075,return,3.1124779998790473,5,1,0,0,0,-0.16,return,3.028271700022742,-30,0,0,-0.16,,,,,,,,,,,,,,,,,,,,,,,,,,,,,,,,,,,,,,,,,,,,,,,,,,,,,,,,UQ11L2,train_y,blue_star,top_left,2025-08-21_14h41.09.629,HideSeek_v1,2022.2.5,59.96095340903511,
,1,9,1,6,0,-3,64,,train_dim1_1,15,30,,,,2,0,2,0,,,,,,,,,0,0,0,0,0,14,14,14,0,0,0,0,,,,,,,,,,,,,,,,,,,,,,,,,stimuli/alien_stimuli/64.png,,,,,,,,,,,,,,,,,,,,,,,,,,,,,stimuli/alien_stimuli/66.png,66,2,16,,,,,,,30,,,,,,,,2268.7828134999145,2268.7828134999145,2268.7828134999145,2268.7828134999145,2268.7828134999145,down,1.9073765000794083,5,1,0,99,-0.08,0.24,down,1.8248041002079844,,,,,2267.231286499882,2268.7828134999145,0,-0.24,0.4,0.0,-0.039999999999999994,0,0.0,0,-0.24,2265.5213098998647,2265.5213098998647,2265.5213098998647,2265.5213098998647,2265.5213098998647,2265.5213098998647,2265.5213098998647,2265.5213098998647,2265.5133256100353,1.8202833000104874,return,1.6782438000664115,,,,,,,,,,,,,,,,,,,,,,,,,,,,,,,,,UQ11L2,train_y,blue_star,top_left,2025-08-21_14h41.09.629,HideSeek_v1,2022.2.5,59.96095340903511,
,1,9,1,6,0,-3,64,,train_dim1_1,15,30,,,,2,0,2,0,,,,,,,,,0,0,0,0,0,14,14,14,1,0,1,0,,,,,,,,,,,,,,,,,,,,,,,,,,,,,,,,,,,,,,,,,,,,,,,,,,,,,,,,,,,,,,,,30,,,,,,,,2270.6980328999925,2270.6980328999925,2270.6980328999925,2270.6980328999925,2270.6980328999925,down,0.44232629984617233,5,1,0,99,-0.08,0.15999999999999998,down,0.3646971001289785,,,,,,,,,,,,,,,,,,,,,,,,,,,,,,,,,,,,,,,,,,,,,,,,,,,,,,,,,,,,UQ11L2,train_y,blue_star,top_left,2025-08-21_14h41.09.629,HideSeek_v1,2022.2.5,59.96095340903511,
,1,9,1,6,0,-3,64,,train_dim1_1,15,30,,,,2,0,2,0,,,,,,,,,0,0,0,0,0,14,14,14,2,0,2,0,,,,,,,,,,,,,,,,,,,,,,,,,,,,,,,,,,,,,,,,,,,,,,,,,,,,,,,,,,,,,,,,30,,,,,,,,2271.147145499941,2271.147145499941,2271.147145499941,2271.147145499941,2271.147145499941,down,0.5102868000976741,5,1,0,99,-0.08,0.07999999999999997,down,0.4276315001770854,,,,,,,,,,,,,,,,,,,,,,,,,,,,,,,,,,,,,,,,,,,,,,,,,,,,,,,,,,,,UQ11L2,train_y,blue_star,top_left,2025-08-21_14h41.09.629,HideSeek_v1,2022.2.5,59.96095340903511,
,1,9,1,6,0,-3,64,,train_dim1_1,15,30,,,,2,0,2,0,,,,,,,,,0,0,0,0,0,14,14,14,3,0,3,0,,,,,,,,,,,,,,,,,,,,,,,,,,,,,,,,,,,,,,,,,,,,,,,,,,,,,,,,,,,,,,,,30,,,,,,,,2271.6669282999355,2271.6669282999355,2271.6669282999355,2271.6669282999355,2271.6669282999355,down,1.644215099979192,5,1,0,99,-0.08,-2.7755575615628914e-17,down,1.560424700146541,,,,,,,,,,,,,,,,,,,,,,,,,,,,,,,,,,,,,,,,,,,,,,,,,,,,,,,,,,,,UQ11L2,train_y,blue_star,top_left,2025-08-21_14h41.09.629,HideSeek_v1,2022.2.5,59.96095340903511,
,1,9,1,6,0,-3,64,,train_dim1_1,15,30,,,,2,0,2,0,,,,,,,,,0,0,0,0,0,14,14,14,4,0,4,0,,,,,,,,,,,,,,,,,,,,,,,,,,,,,,,,,,,,,,,,,,,,,,,,,,,,,,,,,,,,,,,,30,,,,,,,,2273.3214626000263,2273.3214626000263,2273.3214626000263,2273.3214626000263,2273.3214626000263,up,1.8276823000051081,5,1,0,99,-0.08,0.07999999999999997,up,1.7414705001283437,,,,,,,,,,,,,,,,,,,,,,,,,,,,,,,,,,,,,,,,,,,,,,,,,,,,,,,,,,,,UQ11L2,train_y,blue_star,top_left,2025-08-21_14h41.09.629,HideSeek_v1,2022.2.5,59.96095340903511,
,1,9,1,6,0,-3,64,,train_dim1_1,15,30,,,,2,0,2,0,,,,,,,,,0,0,0,0,0,14,14,14,5,0,5,0,,,,,,,,,,,,,,,,,,,,,,,,,,,,,,,,,,,,,,,,,,,,,,,,,,,,,,,,,,,,,,,,30,,,,,,,,2275.1504718998913,2275.1504718998913,2275.1504718998913,2275.1504718998913,2275.1504718998913,return,0.6604751998092979,6,0,0,1,-0.08,0.07999999999999997,return,0.5820707001257688,-33,0,-0.08,0.07999999999999997,,,,,,,,,,,,,,,,,,,,,,,,,,,,,,,,,,,,,,,,,,,,,,,,,,,,,,,,UQ11L2,train_y,blue_star,top_left,2025-08-21_14h41.09.629,HideSeek_v1,2022.2.5,59.96095340903511,
,4,5,4,1,0,-4,65,,train_dim1_1,16,30,,,,2,0,2,0,,,,,,,,,0,0,0,0,0,15,15,15,0,0,0,0,,,,,,,,,,,,,,,,,,,,,,,,,stimuli/alien_stimuli/65.png,,,,,,,,,,,,,,,,,,,,,,,,,,,,,stimuli/alien_stimuli/64.png,64,1,17,,,,,,,30,,,,,,,,2280.480319000082,2280.480319000082,2280.480319000082,2280.480319000082,2280.480319000082,down,1.1360175998415798,6,0,0,99,0.16,-0.08,down,1.0485137000214309,,,,,2278.924415000016,2280.480319000082,-0.08,0.08,0.24,0.0,0.2,-0.08,-0.08,-0.08,0.08,2277.3807057999074,2277.3807057999074,2277.3807057999074,2277.3807057999074,2277.3807057999074,2277.3807057999074,2277.3807057999074,2277.3807057999074,2277.373080710019,1.6535380000714213,return,1.5149487000890076,,,,,,,,,,,,,,,,,,,,,,,,,,,,,,,,,UQ11L2,train_y,blue_star,top_left,2025-08-21_14h41.09.629,HideSeek_v1,2022.2.5,59.96095340903511,
,4,5,4,1,0,-4,65,,train_dim1_1,16,30,,,,2,0,2,0,,,,,,,,,0,0,0,0,0,15,15,15,1,0,1,0,,,,,,,,,,,,,,,,,,,,,,,,,,,,,,,,,,,,,,,,,,,,,,,,,,,,,,,,,,,,,,,,30,,,,,,,,2281.626476000063,2281.626476000063,2281.626476000063,2281.626476000063,2281.626476000063,down,0.5234873997978866,6,0,0,99,0.16,-0.16,down,0.4372670000884682,,,,,,,,,,,,,,,,,,,,,,,,,,,,,,,,,,,,,,,,,,,,,,,,,,,,,,,,,,,,UQ11L2,train_y,blue_star,top_left,2025-08-21_14h41.09.629,HideSeek_v1,2022.2.5,59.96095340903511,
,4,5,4,1,0,-4,65,,train_dim1_1,16,30,,,,2,0,2,0,,,,,,,,,0,0,0,0,0,15,15,15,2,0,2,0,,,,,,,,,,,,,,,,,,,,,,,,,,,,,,,,,,,,,,,,,,,,,,,,,,,,,,,,,,,,,,,,30,,,,,,,,2282.1582227000035,2282.1582227000035,2282.1582227000035,2282.1582227000035,2282.1582227000035,down,0.4266961000394076,6,0,0,99,0.16,-0.24,down,0.34838860016316175,,,,,,,,,,,,,,,,,,,,,,,,,,,,,,,,,,,,,,,,,,,,,,,,,,,,,,,,,,,,UQ11L2,train_y,blue_star,top_left,2025-08-21_14h41.09.629,HideSeek_v1,2022.2.5,59.96095340903511,
,4,5,4,1,0,-4,65,,train_dim1_1,16,30,,,,2,0,2,0,,,,,,,,,0,0,0,0,0,15,15,15,3,0,3,0,,,,,,,,,,,,,,,,,,,,,,,,,,,,,,,,,,,,,,,,,,,,,,,,,,,,,,,,,,,,,,,,30,,,,,,,,2282.5895843000617,2282.5895843000617,2282.5895843000617,2282.5895843000617,2282.5895843000617,down,0.527068599825725,6,0,0,99,0.16,-0.32,down,0.45601600012741983,,,,,,,,,,,,,,,,,,,,,,,,,,,,,,,,,,,,,,,,,,,,,,,,,,,,,,,,,,,,UQ11L2,train_y,blue_star,top_left,2025-08-21_14h41.09.629,HideSeek_v1,2022.2.5,59.96095340903511,
,4,5,4,1,0,-4,65,,train_dim1_1,16,30,,,,2,0,2,0,,,,,,,,,0,0,0,0,0,15,15,15,4,0,4,0,,,,,,,,,,,,,,,,,,,,,,,,,,,,,,,,,,,,,,,,,,,,,,,,,,,,,,,,,,,,,,,,30,,,,,,,,2283.126140000066,2283.126140000066,2283.126140000066,2283.126140000066,2283.126140000066,return,2.861649699974805,7,0,0,1,0.16,-0.32,return,2.7788221000228077,-37,0,0.16,-0.32,,,,,,,,,,,,,,,,,,,,,,,,,,,,,,,,,,,,,,,,,,,,,,,,,,,,,,,,UQ11L2,train_y,blue_star,top_left,2025-08-21_14h41.09.629,HideSeek_v1,2022.2.5,59.96095340903511,
,3,8,3,5,0,-3,64,,train_dim1_1,17,30,,,,2,0,2,0,,,,,,,,,0,0,0,0,0,16,16,16,0,0,0,0,,,,,,,,,,,,,,,,,,,,,,,,,stimuli/alien_stimuli/64.png,,,,,,,,,,,,,,,,,,,,,,,,,,,,,stimuli/alien_stimuli/65.png,65,4,18,,,,,,,30,,,,,,,,2290.2182839000598,2290.2182839000598,2290.2182839000598,2290.2182839000598,2290.2182839000598,left,0.10483409999869764,7,0,0,99,0.0,0.24,left,0.02859830018132925,,,,,2288.665971899871,2290.2182839000598,0.16,-0.32,0.32,0.0,-0.16,0.16,0.16,0.16,-0.32,2287.538707199972,2287.538707199972,2287.538707199972,2287.538707199972,2287.538707199972,2287.538707199972,2287.538707199972,2287.538707199972,2287.5314742800315,1.2199113999959081,return,1.097939900122583,,,,,,,,,,,,,,,,,,,,,,,,,,,,,,,,,UQ11L2,train_y,blue_star,top_left,2025-08-21_14h41.09.629,HideSeek_v1,2022.2.5,59.96095340903511,
,3,8,3,5,0,-3,64,,train_dim1_1,17,30,,,,2,0,2,0,,,,,,,,,0,0,0,0,0,16,16,16,1,0,1,0,,,,,,,,,,,,,,,,,,,,,,,,,,,,,,,,,,,,,,,,,,,,,,,,,,,,,,,,,,,,,,,,30,,,,,,,,2290.3303026999347,2290.3303026999347,2290.3303026999347,2290.3303026999347,2290.3303026999347,right,1.4438004000112414,7,0,0,99,0.08,0.24,right,1.3709436000790447,,,,,,,,,,,,,,,,,,,,,,,,,,,,,,,,,,,,,,,,,,,,,,,,,,,,,,,,,,,,UQ11L2,train_y,blue_star,top_left,2025-08-21_14h41.09.629,HideSeek_v1,2022.2.5,59.96095340903511,
,3,8,3,5,0,-3,64,,train_dim1_1,17,30,,,,2,0,2,0,,,,,,,,,0,0,0,0,0,16,16,16,2,0,2,0,,,,,,,,,,,,,,,,,,,,,,,,,,,,,,,,,,,,,,,,,,,,,,,,,,,,,,,,,,,,,,,,30,,,,,,,,2291.781320299953,2291.781320299953,2291.781320299953,2291.781320299953,2291.781320299953,down,1.2273228999692947,7,0,0,99,0.08,0.15999999999999998,down,1.1425256999209523,,,,,,,,,,,,,,,,,,,,,,,,,,,,,,,,,,,,,,,,,,,,,,,,,,,,,,,,,,,,UQ11L2,train_y,blue_star,top_left,2025-08-21_14h41.09.629,HideSeek_v1,2022.2.5,59.96095340903511,
,3,8,3,5,0,-3,64,,train_dim1_1,17,30,,,,2,0,2,0,,,,,,,,,0,0,0,0,0,16,16,16,3,0,3,0,,,,,,,,,,,,,,,,,,,,,,,,,,,,,,,,,,,,,,,,,,,,,,,,,,,,,,,,,,,,,,,,30,,,,,,,,2293.0162632998545,2293.0162632998545,2293.0162632998545,2293.0162632998545,2293.0162632998545,down,0.4930565000977367,7,0,0,99,0.08,0.07999999999999997,down,0.4058845001272857,,,,,,,,,,,,,,,,,,,,,,,,,,,,,,,,,,,,,,,,,,,,,,,,,,,,,,,,,,,,UQ11L2,train_y,blue_star,top_left,2025-08-21_14h41.09.629,HideSeek_v1,2022.2.5,59.96095340903511,
,3,8,3,5,0,-3,64,,train_dim1_1,17,30,,,,2,0,2,0,,,,,,,,,0,0,0,0,0,16,16,16,4,0,4,0,,,,,,,,,,,,,,,,,,,,,,,,,,,,,,,,,,,,,,,,,,,,,,,,,,,,,,,,,,,,,,,,30,,,,,,,,2293.516568500083,2293.516568500083,2293.516568500083,2293.516568500083,2293.516568500083,down,0.42685250006616116,7,0,0,99,0.08,-2.7755575615628914e-17,down,0.3513698000460863,,,,,,,,,,,,,,,,,,,,,,,,,,,,,,,,,,,,,,,,,,,,,,,,,,,,,,,,,,,,UQ11L2,train_y,blue_star,top_left,2025-08-21_14h41.09.629,HideSeek_v1,2022.2.5,59.96095340903511,
,3,8,3,5,0,-3,64,,train_dim1_1,17,30,,,,2,0,2,0,,,,,,,,,0,0,0,0,0,16,16,16,5,0,5,0,,,,,,,,,,,,,,,,,,,,,,,,,,,,,,,,,,,,,,,,,,,,,,,,,,,,,,,,,,,,,,,,30,,,,,,,,2293.9505584000144,2293.9505584000144,2293.9505584000144,2293.9505584000144,2293.9505584000144,down,0.5269566001370549,7,0,0,99,0.08,-0.08000000000000003,down,0.4423029001336545,,,,,,,,,,,,,,,,,,,,,,,,,,,,,,,,,,,,,,,,,,,,,,,,,,,,,,,,,,,,UQ11L2,train_y,blue_star,top_left,2025-08-21_14h41.09.629,HideSeek_v1,2022.2.5,59.96095340903511,
,3,8,3,5,0,-3,64,,train_dim1_1,17,30,,,,2,0,2,0,,,,,,,,,0,0,0,0,0,16,16,16,6,0,6,0,,,,,,,,,,,,,,,,,,,,,,,,,,,,,,,,,,,,,,,,,,,,,,,,,,,,,,,,,,,,,,,,30,,,,,,,,2294.4838503999636,2294.4838503999636,2294.4838503999636,2294.4838503999636,2294.4838503999636,up,2.011204600101337,7,0,0,99,0.08,-2.7755575615628914e-17,up,1.9297019999939948,,,,,,,,,,,,,,,,,,,,,,,,,,,,,,,,,,,,,,,,,,,,,,,,,,,,,,,,,,,,UQ11L2,train_y,blue_star,top_left,2025-08-21_14h41.09.629,HideSeek_v1,2022.2.5,59.96095340903511,
,3,8,3,5,0,-3,64,,train_dim1_1,17,30,,,,2,0,2,0,,,,,,,,,0,0,0,0,0,16,16,16,7,0,7,0,,,,,,,,,,,,,,,,,,,,,,,,,,,,,,,,,,,,,,,,,,,,,,,,,,,,,,,,,,,,,,,,30,,,,,,,,2296.501953799976,2296.501953799976,2296.501953799976,2296.501953799976,2296.501953799976,return,0.4268481000326574,8,0,0,1,0.08,-2.7755575615628914e-17,return,0.3507282002829015,-40,0,0.08,-2.7755575615628914e-17,,,,,,,,,,,,,,,,,,,,,,,,,,,,,,,,,,,,,,,,,,,,,,,,,,,,,,,,UQ11L2,train_y,blue_star,top_left,2025-08-21_14h41.09.629,HideSeek_v1,2022.2.5,59.96095340903511,
,2,6,2,6,0,0,61,,train_dim1_1,18,30,,,,2,0,2,0,,,,,,,,,0,0,0,0,0,17,17,17,0,0,0,0,,,,,,,,,,,,,,,,,,,,,,,,,stimuli/alien_stimuli/61.png,,,,,,,,,,,,,,,,,,,,,,,,,,,,,stimuli/alien_stimuli/64.png,64,3,19,,,,,,,30,,,,,,,,2300.777997300029,2300.777997300029,2300.777997300029,2300.777997300029,2300.777997300029,down,1.4726954998914152,8,0,0,99,0,0.0,down,1.397946200100705,,,,,2299.224536099937,2300.777997300029,0.08,0,0.24,0.0,0.12,0.08,0.08,0.08,0,2298.482871199958,2298.482871199958,2298.482871199958,2298.482871199958,2298.482871199958,2298.482871199958,2298.482871199958,2298.482871199958,2298.4738302799874,0.8362392000854015,return,0.7243808002676815,,,,,,,,,,,,,,,,,,,,,,,,,,,,,,,,,UQ11L2,train_y,blue_star,top_left,2025-08-21_14h41.09.629,HideSeek_v1,2022.2.5,59.96095340903511,
,2,6,2,6,0,0,61,,train_dim1_1,18,30,,,,2,0,2,0,,,,,,,,,0,0,0,0,0,17,17,17,1,0,1,0,,,,,,,,,,,,,,,,,,,,,,,,,,,,,,,,,,,,,,,,,,,,,,,,,,,,,,,,,,,,,,,,30,,,,,,,,2302.2580645999406,2302.2580645999406,2302.2580645999406,2302.2580645999406,2302.2580645999406,return,0.8931791000068188,8,1,0,0,0,0.0,return,0.8142361000645906,-41,0,0,0.0,,,,,,,,,,,,,,,,,,,,,,,,,,,,,,,,,,,,,,,,,,,,,,,,,,,,,,,,UQ11L2,train_y,blue_star,top_left,2025-08-21_14h41.09.629,HideSeek_v1,2022.2.5,59.96095340903511,
,0,9,0,8,0,-1,62,,train_dim1_1,19,30,,,,2,0,2,0,,,,,,,,,0,0,0,0,0,18,18,18,0,0,0,0,,,,,,,,,,,,,,,,,,,,,,,,,stimuli/alien_stimuli/62.png,,,,,,,,,,,,,,,,,,,,,,,,,,,,,stimuli/alien_stimuli/61.png,61,2,20,,,,,,,30,,,,,,,,2307.4163835998625,2307.4163835998625,2307.4163835998625,2307.4163835998625,2307.4163835998625,down,1.4563859000336379,8,1,0,99,-0.16,0.24,down,1.382252800045535,,,,,2305.86357149994,2307.4163835998625,0,0.08,0.0,0.0,0.08,0,0.0,0,0.08,2304.7040861998685,2304.7040861998685,2304.7040861998685,2304.7040861998685,2304.7040861998685,2304.7040861998685,2304.7040861998685,2304.7040861998685,2304.6961031799206,1.253188000060618,return,1.1385677000507712,,,,,,,,,,,,,,,,,,,,,,,,,,,,,,,,,UQ11L2,train_y,blue_star,top_left,2025-08-21_14h41.09.629,HideSeek_v1,2022.2.5,59.96095340903511,
,0,9,0,8,0,-1,62,,train_dim1_1,19,30,,,,2,0,2,0,,,,,,,,,0,0,0,0,0,18,18,18,1,0,1,0,,,,,,,,,,,,,,,,,,,,,,,,,,,,,,,,,,,,,,,,,,,,,,,,,,,,,,,,,,,,,,,,30,,,,,,,,2308.880514000077,2308.880514000077,2308.880514000077,2308.880514000077,2308.880514000077,up,0.34242270002141595,8,1,0,99,-0.16,0.32,up,0.26709010009653866,,,,,,,,,,,,,,,,,,,,,,,,,,,,,,,,,,,,,,,,,,,,,,,,,,,,,,,,,,,,UQ11L2,train_y,blue_star,top_left,2025-08-21_14h41.09.629,HideSeek_v1,2022.2.5,59.96095340903511,
,0,9,0,8,0,-1,62,,train_dim1_1,19,30,,,,2,0,2,0,,,,,,,,,0,0,0,0,0,18,18,18,2,0,2,0,,,,,,,,,,,,,,,,,,,,,,,,,,,,,,,,,,,,,,,,,,,,,,,,,,,,,,,,,,,,,,,,30,,,,,,,,2309.2307793998625,2309.2307793998625,2309.2307793998625,2309.2307793998625,2309.2307793998625,return,0.3931589999701828,8,1,0,0,-0.16,0.32,return,0.3043072000145912,-41,0,-0.16,0.32,,,,,,,,,,,,,,,,,,,,,,,,,,,,,,,,,,,,,,,,,,,,,,,,,,,,,,,,UQ11L2,train_y,blue_star,top_left,2025-08-21_14h41.09.629,HideSeek_v1,2022.2.5,59.96095340903511,
,2,5,2,0,0,-5,66,,train_dim1_1,20,30,,,,2,0,2,0,,,,,,,,,0,0,0,0,0,19,19,19,0,0,0,0,,,,,,,,,,,,,,,,,,,,,,,,,stimuli/alien_stimuli/66.png,,,,,,,,,,,,,,,,,,,,,,,,,,,,,stimuli/alien_stimuli/62.png,62,0,21,,,,,,,30,,,,,,,,2314.3094637000468,2314.3094637000468,2314.3094637000468,2314.3094637000468,2314.3094637000468,down,1.7882626000791788,8,1,0,99,0,-0.08,down,1.7094003001693636,,,,,2312.7528065999504,2314.3094637000468,-0.16,0.24,0.08,0.0,0.28,-0.16,-0.16,-0.16,0.24,2311.179618400056,2311.179618400056,2311.179618400056,2311.179618400056,2311.179618400056,2311.179618400056,2311.179618400056,2311.179618400056,2311.16779117994,1.670427800156176,return,1.551763900090009,,,,,,,,,,,,,,,,,,,,,,,,,,,,,,,,,UQ11L2,train_y,blue_star,top_left,2025-08-21_14h41.09.629,HideSeek_v1,2022.2.5,59.96095340903511,
,2,5,2,0,0,-5,66,,train_dim1_1,20,30,,,,2,0,2,0,,,,,,,,,0,0,0,0,0,19,19,19,1,0,1,0,,,,,,,,,,,,,,,,,,,,,,,,,,,,,,,,,,,,,,,,,,,,,,,,,,,,,,,,,,,,,,,,30,,,,,,,,2316.101742999861,2316.101742999861,2316.101742999861,2316.101742999861,2316.101742999861,down,0.46007180004380643,8,1,0,99,0,-0.16,down,0.38479390018619597,,,,,,,,,,,,,,,,,,,,,,,,,,,,,,,,,,,,,,,,,,,,,,,,,,,,,,,,,,,,UQ11L2,train_y,blue_star,top_left,2025-08-21_14h41.09.629,HideSeek_v1,2022.2.5,59.96095340903511,
,2,5,2,0,0,-5,66,,train_dim1_1,20,30,,,,2,0,2,0,,,,,,,,,0,0,0,0,0,19,19,19,2,0,2,0,,,,,,,,,,,,,,,,,,,,,,,,,,,,,,,,,,,,,,,,,,,,,,,,,,,,,,,,,,,,,,,,30,,,,,,,,2316.570559500018,2316.570559500018,2316.570559500018,2316.570559500018,2316.570559500018,down,0.426386599894613,8,1,0,99,0,-0.24,down,0.3401123001240194,,,,,,,,,,,,,,,,,,,,,,,,,,,,,,,,,,,,,,,,,,,,,,,,,,,,,,,,,,,,UQ11L2,train_y,blue_star,top_left,2025-08-21_14h41.09.629,HideSeek_v1,2022.2.5,59.96095340903511,
,2,5,2,0,0,-5,66,,train_dim1_1,20,30,,,,2,0,2,0,,,,,,,,,0,0,0,0,0,19,19,19,3,0,3,0,,,,,,,,,,,,,,,,,,,,,,,,,,,,,,,,,,,,,,,,,,,,,,,,,,,,,,,,,,,,,,,,30,,,,,,,,2317.0028981999494,2317.0028981999494,2317.0028981999494,2317.0028981999494,2317.0028981999494,down,0.31044359994120896,8,1,0,99,0,-0.32,down,0.23239600006490946,,,,,,,,,,,,,,,,,,,,,,,,,,,,,,,,,,,,,,,,,,,,,,,,,,,,,,,,,,,,UQ11L2,train_y,blue_star,top_left,2025-08-21_14h41.09.629,HideSeek_v1,2022.2.5,59.96095340903511,
,2,5,2,0,0,-5,66,,train_dim1_1,20,30,,,,2,0,2,0,,,,,,,,,0,0,0,0,0,19,19,19,4,0,4,0,,,,,,,,,,,,,,,,,,,,,,,,,,,,,,,,,,,,,,,,,,,,,,,,,,,,,,,,,,,,,,,,30,,,,,,,,2317.3222272000276,2317.3222272000276,2317.3222272000276,2317.3222272000276,2317.3222272000276,return,0.4262645998969674,8,1,0,0,0,-0.32,return,0.34296020003966987,-45,0,0,-0.32,,,,,,,,,,,,,,,,,,,,,,,,,,,,,,,,,,,,,,,,,,,,,,,,,,,,,,,,UQ11L2,train_y,blue_star,top_left,2025-08-21_14h41.09.629,HideSeek_v1,2022.2.5,59.96095340903511,
,2,9,2,5,0,-4,65,,train_dim1_1,21,30,,,,2,0,2,0,,,,,,,,,0,0,0,0,0,20,20,20,0,0,0,0,,,,,,,,,,,,,,,,,,,,,,,,,stimuli/alien_stimuli/65.png,,,,,,,,,,,,,,,,,,,,,,,,,,,,,stimuli/alien_stimuli/66.png,66,2,22,,,,,,,30,,,,,,,,2322.628830499947,2322.628830499947,2322.628830499947,2322.628830499947,2322.628830499947,down,0.9717102001886815,8,1,0,99,0,0.24,down,0.8937335000373423,,,,,2321.0761053999886,2322.628830499947,0,-0.4,0.4,0.0,-0.2,0,0.0,0,-0.4,2319.3141902000643,2319.3141902000643,2319.3141902000643,2319.3141902000643,2319.3141902000643,2319.3141902000643,2319.3141902000643,2319.3141902000643,2319.3079110100634,1.8705288998316973,return,1.731528399977833,,,,,,,,,,,,,,,,,,,,,,,,,,,,,,,,,UQ11L2,train_y,blue_star,top_left,2025-08-21_14h41.09.629,HideSeek_v1,2022.2.5,59.96095340903511,
,2,9,2,5,0,-4,65,,train_dim1_1,21,30,,,,2,0,2,0,,,,,,,,,0,0,0,0,0,20,20,20,1,0,1,0,,,,,,,,,,,,,,,,,,,,,,,,,,,,,,,,,,,,,,,,,,,,,,,,,,,,,,,,,,,,,,,,30,,,,,,,,2323.6088932000566,2323.6088932000566,2323.6088932000566,2323.6088932000566,2323.6088932000566,down,0.34314259979873896,8,1,0,99,0,0.15999999999999998,down,0.2645888002589345,,,,,,,,,,,,,,,,,,,,,,,,,,,,,,,,,,,,,,,,,,,,,,,,,,,,,,,,,,,,UQ11L2,train_y,blue_star,top_left,2025-08-21_14h41.09.629,HideSeek_v1,2022.2.5,59.96095340903511,
,2,9,2,5,0,-4,65,,train_dim1_1,21,30,,,,2,0,2,0,,,,,,,,,0,0,0,0,0,20,20,20,2,0,2,0,,,,,,,,,,,,,,,,,,,,,,,,,,,,,,,,,,,,,,,,,,,,,,,,,,,,,,,,,,,,,,,,30,,,,,,,,2323.9594586999156,2323.9594586999156,2323.9594586999156,2323.9594586999156,2323.9594586999156,down,0.4599885998759419,8,1,0,99,0,0.07999999999999997,down,0.3761989001650363,,,,,,,,,,,,,,,,,,,,,,,,,,,,,,,,,,,,,,,,,,,,,,,,,,,,,,,,,,,,UQ11L2,train_y,blue_star,top_left,2025-08-21_14h41.09.629,HideSeek_v1,2022.2.5,59.96095340903511,
,2,9,2,5,0,-4,65,,train_dim1_1,21,30,,,,2,0,2,0,,,,,,,,,0,0,0,0,0,20,20,20,3,0,3,0,,,,,,,,,,,,,,,,,,,,,,,,,,,,,,,,,,,,,,,,,,,,,,,,,,,,,,,,,,,,,,,,30,,,,,,,,2324.4268865999766,2324.4268865999766,2324.4268865999766,2324.4268865999766,2324.4268865999766,down,0.460258100181818,8,1,0,99,0,-2.7755575615628914e-17,down,0.37325599999167025,,,,,,,,,,,,,,,,,,,,,,,,,,,,,,,,,,,,,,,,,,,,,,,,,,,,,,,,,,,,UQ11L2,train_y,blue_star,top_left,2025-08-21_14h41.09.629,HideSeek_v1,2022.2.5,59.96095340903511,
,2,9,2,5,0,-4,65,,train_dim1_1,21,30,,,,2,0,2,0,,,,,,,,,0,0,0,0,0,20,20,20,4,0,4,0,,,,,,,,,,,,,,,,,,,,,,,,,,,,,,,,,,,,,,,,,,,,,,,,,,,,,,,,,,,,,,,,30,,,,,,,,2324.8931489000097,2324.8931489000097,2324.8931489000097,2324.8931489000097,2324.8931489000097,return,0.7102009002119303,9,0,0,1,0,-2.7755575615628914e-17,return,0.6210205003153533,-49,0,0,-2.7755575615628914e-17,,,,,,,,,,,,,,,,,,,,,,,,,,,,,,,,,,,,,,,,,,,,,,,,,,,,,,,,UQ11L2,train_y,blue_star,top_left,2025-08-21_14h41.09.629,HideSeek_v1,2022.2.5,59.96095340903511,
,0,7,0,4,0,-3,64,,train_dim1_1,22,30,,,,2,0,2,0,,,,,,,,,0,0,0,0,0,21,21,21,0,0,0,0,,,,,,,,,,,,,,,,,,,,,,,,,stimuli/alien_stimuli/64.png,,,,,,,,,,,,,,,,,,,,,,,,,,,,,stimuli/alien_stimuli/65.png,65,2,23,,,,,,,30,,,,,,,,2329.5829854998738,2329.5829854998738,2329.5829854998738,2329.5829854998738,2329.5829854998738,down,1.157043999992311,9,0,0,99,-0.16,0.08,down,1.0793352001346648,,,,,2328.0317649999633,2329.5829854998738,0,0,0.32,0.0,0.16,0,0.0,0,0,2327.157842699904,2327.157842699904,2327.157842699904,2327.157842699904,2327.157842699904,2327.157842699904,2327.157842699904,2327.157842699904,2327.1477518799716,0.9696994998957962,return,0.8532891001086682,,,,,,,,,,,,,,,,,,,,,,,,,,,,,,,,,UQ11L2,train_y,blue_star,top_left,2025-08-21_14h41.09.629,HideSeek_v1,2022.2.5,59.96095340903511,
,0,7,0,4,0,-3,64,,train_dim1_1,22,30,,,,2,0,2,0,,,,,,,,,0,0,0,0,0,21,21,21,1,0,1,0,,,,,,,,,,,,,,,,,,,,,,,,,,,,,,,,,,,,,,,,,,,,,,,,,,,,,,,,,,,,,,,,30,,,,,,,,2330.747870299965,2330.747870299965,2330.747870299965,2330.747870299965,2330.747870299965,down,0.2595865000039339,9,0,0,99,-0.16,0.0,down,0.17914590029977262,,,,,,,,,,,,,,,,,,,,,,,,,,,,,,,,,,,,,,,,,,,,,,,,,,,,,,,,,,,,UQ11L2,train_y,blue_star,top_left,2025-08-21_14h41.09.629,HideSeek_v1,2022.2.5,59.96095340903511,
,0,7,0,4,0,-3,64,,train_dim1_1,22,30,,,,2,0,2,0,,,,,,,,,0,0,0,0,0,21,21,21,2,0,2,0,,,,,,,,,,,,,,,,,,,,,,,,,,,,,,,,,,,,,,,,,,,,,,,,,,,,,,,,,,,,,,,,30,,,,,,,,2331.0132267998997,2331.0132267998997,2331.0132267998997,2331.0132267998997,2331.0132267998997,down,0.27666949992999434,9,0,0,99,-0.16,-0.08,down,0.19228820013813674,,,,,,,,,,,,,,,,,,,,,,,,,,,,,,,,,,,,,,,,,,,,,,,,,,,,,,,,,,,,UQ11L2,train_y,blue_star,top_left,2025-08-21_14h41.09.629,HideSeek_v1,2022.2.5,59.96095340903511,
,0,7,0,4,0,-3,64,,train_dim1_1,22,30,,,,2,0,2,0,,,,,,,,,0,0,0,0,0,21,21,21,3,0,3,0,,,,,,,,,,,,,,,,,,,,,,,,,,,,,,,,,,,,,,,,,,,,,,,,,,,,,,,,,,,,,,,,30,,,,,,,,2331.2992293999996,2331.2992293999996,2331.2992293999996,2331.2992293999996,2331.2992293999996,return,2.0448133000172675,10,0,0,1,-0.16,-0.08,return,1.969484600238502,-52,0,-0.16,-0.08,,,,,,,,,,,,,,,,,,,,,,,,,,,,,,,,,,,,,,,,,,,,,,,,,,,,,,,,UQ11L2,train_y,blue_star,top_left,2025-08-21_14h41.09.629,HideSeek_v1,2022.2.5,59.96095340903511,
,0,8,0,8,0,0,61,,train_dim1_1,23,30,,,,2,0,2,0,,,,,,,,,0,0,0,0,0,22,22,22,0,0,0,0,,,,,,,,,,,,,,,,,,,,,,,,,stimuli/alien_stimuli/61.png,,,,,,,,,,,,,,,,,,,,,,,,,,,,,stimuli/alien_stimuli/64.png,64,0,24,,,,,,,30,,,,,,,,2337.340242000064,2337.340242000064,2337.340242000064,2337.340242000064,2337.340242000064,down,3.558408100157976,10,0,0,99,-0.16,0.15999999999999998,down,3.477208600146696,,,,,2335.7881819000468,2337.340242000064,-0.16,-0.08,0.24,0.0,0.04,-0.16,-0.16,-0.16,-0.08,2334.89498750004,2334.89498750004,2334.89498750004,2334.89498750004,2334.89498750004,2334.89498750004,2334.89498750004,2334.89498750004,2334.8879396799953,0.986130999866873,return,0.8711215001530945,,,,,,,,,,,,,,,,,,,,,,,,,,,,,,,,,UQ11L2,train_y,blue_star,top_left,2025-08-21_14h41.09.629,HideSeek_v1,2022.2.5,59.96095340903511,
,0,8,0,8,0,0,61,,train_dim1_1,23,30,,,,2,0,2,0,,,,,,,,,0,0,0,0,0,22,22,22,1,0,1,0,,,,,,,,,,,,,,,,,,,,,,,,,,,,,,,,,,,,,,,,,,,,,,,,,,,,,,,,,,,,,,,,30,,,,,,,,2340.907888100017,2340.907888100017,2340.907888100017,2340.907888100017,2340.907888100017,up,2.293994499836117,10,0,0,99,-0.16,0.24,up,2.210148700280115,,,,,,,,,,,,,,,,,,,,,,,,,,,,,,,,,,,,,,,,,,,,,,,,,,,,,,,,,,,,UQ11L2,train_y,blue_star,top_left,2025-08-21_14h41.09.629,HideSeek_v1,2022.2.5,59.96095340903511,
,0,8,0,8,0,0,61,,train_dim1_1,23,30,,,,2,0,2,0,,,,,,,,,0,0,0,0,0,22,22,22,2,0,2,0,,,,,,,,,,,,,,,,,,,,,,,,,,,,,,,,,,,,,,,,,,,,,,,,,,,,,,,,,,,,,,,,30,,,,,,,,2343.2126643999945,2343.2126643999945,2343.2126643999945,2343.2126643999945,2343.2126643999945,return,0.577203799970448,11,0,0,1,-0.16,0.24,return,0.48682040022686124,-52,0,-0.16,0.24,,,,,,,,,,,,,,,,,,,,,,,,,,,,,,,,,,,,,,,,,,,,,,,,,,,,,,,,UQ11L2,train_y,blue_star,top_left,2025-08-21_14h41.09.629,HideSeek_v1,2022.2.5,59.96095340903511,
,3,7,3,2,0,-5,66,,train_dim1_1,24,30,,,,2,0,2,0,,,,,,,,,0,0,0,0,0,23,23,23,0,0,0,0,,,,,,,,,,,,,,,,,,,,,,,,,stimuli/alien_stimuli/66.png,,,,,,,,,,,,,,,,,,,,,,,,,,,,,stimuli/alien_stimuli/61.png,61,0,25,,,,,,,30,,,,,,,,2347.7402643999085,2347.7402643999085,2347.7402643999085,2347.7402643999085,2347.7402643999085,down,1.0545528000220656,11,0,0,99,0.08,0.08,down,0.960119100054726,,,,,2346.180563099915,2347.7402643999085,-0.16,0.24,0.0,0.0,0.24,-0.16,-0.16,-0.16,0.24,2345.357600499876,2345.357600499876,2345.357600499876,2345.357600499876,2345.357600499876,2345.357600499876,2345.357600499876,2345.357600499876,2345.3462633100107,0.9368922000285238,return,0.8071605002041906,,,,,,,,,,,,,,,,,,,,,,,,,,,,,,,,,UQ11L2,train_y,blue_star,top_left,2025-08-21_14h41.09.629,HideSeek_v1,2022.2.5,59.96095340903511,
,3,7,3,2,0,-5,66,,train_dim1_1,24,30,,,,2,0,2,0,,,,,,,,,0,0,0,0,0,23,23,23,1,0,1,0,,,,,,,,,,,,,,,,,,,,,,,,,,,,,,,,,,,,,,,,,,,,,,,,,,,,,,,,,,,,,,,,30,,,,,,,,2348.797819199972,2348.797819199972,2348.797819199972,2348.797819199972,2348.797819199972,down,0.4764187999535352,11,0,0,99,0.08,0.0,down,0.39030089997686446,,,,,,,,,,,,,,,,,,,,,,,,,,,,,,,,,,,,,,,,,,,,,,,,,,,,,,,,,,,,UQ11L2,train_y,blue_star,top_left,2025-08-21_14h41.09.629,HideSeek_v1,2022.2.5,59.96095340903511,
,3,7,3,2,0,-5,66,,train_dim1_1,24,30,,,,2,0,2,0,,,,,,,,,0,0,0,0,0,23,23,23,2,0,2,0,,,,,,,,,,,,,,,,,,,,,,,,,,,,,,,,,,,,,,,,,,,,,,,,,,,,,,,,,,,,,,,,30,,,,,,,,2349.2808922000695,2349.2808922000695,2349.2808922000695,2349.2808922000695,2349.2808922000695,down,0.6770767001435161,11,0,0,99,0.08,-0.08,down,0.5929870002437383,,,,,,,,,,,,,,,,,,,,,,,,,,,,,,,,,,,,,,,,,,,,,,,,,,,,,,,,,,,,UQ11L2,train_y,blue_star,top_left,2025-08-21_14h41.09.629,HideSeek_v1,2022.2.5,59.96095340903511,
,3,7,3,2,0,-5,66,,train_dim1_1,24,30,,,,2,0,2,0,,,,,,,,,0,0,0,0,0,23,23,23,3,0,3,0,,,,,,,,,,,,,,,,,,,,,,,,,,,,,,,,,,,,,,,,,,,,,,,,,,,,,,,,,,,,,,,,30,,,,,,,,2349.9718263999093,2349.9718263999093,2349.9718263999093,2349.9718263999093,2349.9718263999093,down,0.510281799826771,11,0,0,99,0.08,-0.16,down,0.4294295001309365,,,,,,,,,,,,,,,,,,,,,,,,,,,,,,,,,,,,,,,,,,,,,,,,,,,,,,,,,,,,UQ11L2,train_y,blue_star,top_left,2025-08-21_14h41.09.629,HideSeek_v1,2022.2.5,59.96095340903511,
,3,7,3,2,0,-5,66,,train_dim1_1,24,30,,,,2,0,2,0,,,,,,,,,0,0,0,0,0,23,23,23,4,0,4,0,,,,,,,,,,,,,,,,,,,,,,,,,,,,,,,,,,,,,,,,,,,,,,,,,,,,,,,,,,,,,,,,30,,,,,,,,2350.4921871998813,2350.4921871998813,2350.4921871998813,2350.4921871998813,2350.4921871998813,return,0.8604967000428587,11,1,0,0,0.08,-0.16,return,0.7734599001705647,-56,0,0.08,-0.16,,,,,,,,,,,,,,,,,,,,,,,,,,,,,,,,,,,,,,,,,,,,,,,,,,,,,,,,UQ11L2,train_y,blue_star,top_left,2025-08-21_14h41.09.629,HideSeek_v1,2022.2.5,59.96095340903511,
,3,8,3,7,0,-1,62,,train_dim1_1,25,30,,,,2,0,2,0,,,,,,,,,0,0,0,0,0,24,24,24,0,0,0,0,,,,,,,,,,,,,,,,,,,,,,,,,stimuli/alien_stimuli/62.png,,,,,,,,,,,,,,,,,,,,,,,,,,,,,stimuli/alien_stimuli/66.png,66,3,26,,,,,,,30,,,,,,,,2355.7248996999115,2355.7248996999115,2355.7248996999115,2355.7248996999115,2355.7248996999115,down,1.3719166999217123,11,1,0,99,0.08,0.15999999999999998,down,1.294115300057456,,,,,2354.1698503999505,2355.7248996999115,0.08,-0.24,0.4,0.0,-0.039999999999999994,0.08,0.08,0.08,-0.24,2352.8982696998864,2352.8982696998864,2352.8982696998864,2352.8982696998864,2352.8982696998864,2352.8982696998864,2352.8982696998864,2352.8982696998864,2352.8860909800046,1.3696149999741465,return,1.252203700132668,,,,,,,,,,,,,,,,,,,,,,,,,,,,,,,,,UQ11L2,train_y,blue_star,top_left,2025-08-21_14h41.09.629,HideSeek_v1,2022.2.5,59.96095340903511,
,3,8,3,7,0,-1,62,,train_dim1_1,25,30,,,,2,0,2,0,,,,,,,,,0,0,0,0,0,24,24,24,1,0,1,0,,,,,,,,,,,,,,,,,,,,,,,,,,,,,,,,,,,,,,,,,,,,,,,,,,,,,,,,,,,,,,,,30,,,,,,,,2357.1044350999873,2357.1044350999873,2357.1044350999873,2357.1044350999873,2357.1044350999873,return,0.5267678999807686,12,0,0,1,0.08,0.15999999999999998,return,0.43882380006834865,-57,0,0.08,0.15999999999999998,,,,,,,,,,,,,,,,,,,,,,,,,,,,,,,,,,,,,,,,,,,,,,,,,,,,,,,,UQ11L2,train_y,blue_star,top_left,2025-08-21_14h41.09.629,HideSeek_v1,2022.2.5,59.96095340903511,
,4,9,4,6,0,-3,64,,train_dim1_1,26,30,,,,2,0,2,0,,,,,,,,,0,0,0,0,0,25,25,25,0,0,0,0,,,,,,,,,,,,,,,,,,,,,,,,,stimuli/alien_stimuli/64.png,,,,,,,,,,,,,,,,,,,,,,,,,,,,,stimuli/alien_stimuli/62.png,62,3,27,,,,,,,30,,,,,,,,2361.4603430998977,2361.4603430998977,2361.4603430998977,2361.4603430998977,2361.4603430998977,down,1.8071596999652684,12,0,0,99,0.16,0.24,down,1.7239173001144081,,,,,2359.9086215998977,2361.4603430998977,0.08,0.16,0.08,0.0,0.2,0.08,0.08,0.08,0.16,2359.18807439995,2359.18807439995,2359.18807439995,2359.18807439995,2359.18807439995,2359.18807439995,2359.18807439995,2359.18807439995,2359.174389480008,0.8195001999847591,return,0.6951384001877159,,,,,,,,,,,,,,,,,,,,,,,,,,,,,,,,,UQ11L2,train_y,blue_star,top_left,2025-08-21_14h41.09.629,HideSeek_v1,2022.2.5,59.96095340903511,
,4,9,4,6,0,-3,64,,train_dim1_1,26,30,,,,2,0,2,0,,,,,,,,,0,0,0,0,0,25,25,25,1,0,1,0,,,,,,,,,,,,,,,,,,,,,,,,,,,,,,,,,,,,,,,,,,,,,,,,,,,,,,,,,,,,,,,,30,,,,,,,,2363.2758533000015,2363.2758533000015,2363.2758533000015,2363.2758533000015,2363.2758533000015,down,0.4764108001254499,12,0,0,99,0.16,0.15999999999999998,down,0.39867140003480017,,,,,,,,,,,,,,,,,,,,,,,,,,,,,,,,,,,,,,,,,,,,,,,,,,,,,,,,,,,,UQ11L2,train_y,blue_star,top_left,2025-08-21_14h41.09.629,HideSeek_v1,2022.2.5,59.96095340903511,
,4,9,4,6,0,-3,64,,train_dim1_1,26,30,,,,2,0,2,0,,,,,,,,,0,0,0,0,0,25,25,25,2,0,2,0,,,,,,,,,,,,,,,,,,,,,,,,,,,,,,,,,,,,,,,,,,,,,,,,,,,,,,,,,,,,,,,,30,,,,,,,,2363.758673199918,2363.758673199918,2363.758673199918,2363.758673199918,2363.758673199918,down,0.6767917999532074,12,0,0,99,0.16,0.07999999999999997,down,0.5910003001336008,,,,,,,,,,,,,,,,,,,,,,,,,,,,,,,,,,,,,,,,,,,,,,,,,,,,,,,,,,,,UQ11L2,train_y,blue_star,top_left,2025-08-21_14h41.09.629,HideSeek_v1,2022.2.5,59.96095340903511,
,4,9,4,6,0,-3,64,,train_dim1_1,26,30,,,,2,0,2,0,,,,,,,,,0,0,0,0,0,25,25,25,3,0,3,0,,,,,,,,,,,,,,,,,,,,,,,,,,,,,,,,,,,,,,,,,,,,,,,,,,,,,,,,,,,,,,,,30,,,,,,,,2364.442720900057,2364.442720900057,2364.442720900057,2364.442720900057,2364.442720900057,return,0.7270291999448091,13,0,0,1,0.16,0.07999999999999997,return,0.641978100175038,-60,0,0.16,0.07999999999999997,,,,,,,,,,,,,,,,,,,,,,,,,,,,,,,,,,,,,,,,,,,,,,,,,,,,,,,,UQ11L2,train_y,blue_star,top_left,2025-08-21_14h41.09.629,HideSeek_v1,2022.2.5,59.96095340903511,
,3,9,3,4,0,-5,66,,train_dim1_1,27,30,,,,2,0,2,0,,,,,,,,,0,0,0,0,0,26,26,26,0,0,0,0,,,,,,,,,,,,,,,,,,,,,,,,,stimuli/alien_stimuli/66.png,,,,,,,,,,,,,,,,,,,,,,,,,,,,,stimuli/alien_stimuli/64.png,64,4,28,,,,,,,30,,,,,,,,2369.188949199859,2369.188949199859,2369.188949199859,2369.188949199859,2369.188949199859,down,1.3225102999713272,13,0,0,99,0.08,0.24,down,1.2430959001649171,,,,,2367.6314896999393,2369.188949199859,0.16,0.08,0.24,0.0,0.2,0.16,0.16,0.16,0.08,2366.724660299951,2366.724660299951,2366.724660299951,2366.724660299951,2366.724660299951,2366.724660299951,2366.724660299951,2366.724660299951,2366.7142284799834,1.003325399942696,return,0.8888499001041055,,,,,,,,,,,,,,,,,,,,,,,,,,,,,,,,,UQ11L2,train_y,blue_star,top_left,2025-08-21_14h41.09.629,HideSeek_v1,2022.2.5,59.96095340903511,
,3,9,3,4,0,-5,66,,train_dim1_1,27,30,,,,2,0,2,0,,,,,,,,,0,0,0,0,0,26,26,26,1,0,1,0,,,,,,,,,,,,,,,,,,,,,,,,,,,,,,,,,,,,,,,,,,,,,,,,,,,,,,,,,,,,,,,,30,,,,,,,,2370.5178129000124,2370.5178129000124,2370.5178129000124,2370.5178129000124,2370.5178129000124,down,0.42625120002776384,13,0,0,99,0.08,0.15999999999999998,down,0.3406004002317786,,,,,,,,,,,,,,,,,,,,,,,,,,,,,,,,,,,,,,,,,,,,,,,,,,,,,,,,,,,,UQ11L2,train_y,blue_star,top_left,2025-08-21_14h41.09.629,HideSeek_v1,2022.2.5,59.96095340903511,
,3,9,3,4,0,-5,66,,train_dim1_1,27,30,,,,2,0,2,0,,,,,,,,,0,0,0,0,0,26,26,26,2,0,2,0,,,,,,,,,,,,,,,,,,,,,,,,,,,,,,,,,,,,,,,,,,,,,,,,,,,,,,,,,,,,,,,,30,,,,,,,,2370.9599081999622,2370.9599081999622,2370.9599081999622,2370.9599081999622,2370.9599081999622,down,0.4266031999140978,13,0,0,99,0.08,0.07999999999999997,down,0.33253750018775463,,,,,,,,,,,,,,,,,,,,,,,,,,,,,,,,,,,,,,,,,,,,,,,,,,,,,,,,,,,,UQ11L2,train_y,blue_star,top_left,2025-08-21_14h41.09.629,HideSeek_v1,2022.2.5,59.96095340903511,
,3,9,3,4,0,-5,66,,train_dim1_1,27,30,,,,2,0,2,0,,,,,,,,,0,0,0,0,0,26,26,26,3,0,3,0,,,,,,,,,,,,,,,,,,,,,,,,,,,,,,,,,,,,,,,,,,,,,,,,,,,,,,,,,,,,,,,,30,,,,,,,,2371.3932219999842,2371.3932219999842,2371.3932219999842,2371.3932219999842,2371.3932219999842,down,0.4604000998660922,13,0,0,99,0.08,-2.7755575615628914e-17,down,0.36685230024158955,,,,,,,,,,,,,,,,,,,,,,,,,,,,,,,,,,,,,,,,,,,,,,,,,,,,,,,,,,,,UQ11L2,train_y,blue_star,top_left,2025-08-21_14h41.09.629,HideSeek_v1,2022.2.5,59.96095340903511,
,3,9,3,4,0,-5,66,,train_dim1_1,27,30,,,,2,0,2,0,,,,,,,,,0,0,0,0,0,26,26,26,4,0,4,0,,,,,,,,,,,,,,,,,,,,,,,,,,,,,,,,,,,,,,,,,,,,,,,,,,,,,,,,,,,,,,,,30,,,,,,,,2371.85931119998,2371.85931119998,2371.85931119998,2371.85931119998,2371.85931119998,down,0.47662459989078343,13,0,0,99,0.08,-0.08000000000000003,down,0.3780676000751555,,,,,,,,,,,,,,,,,,,,,,,,,,,,,,,,,,,,,,,,,,,,,,,,,,,,,,,,,,,,UQ11L2,train_y,blue_star,top_left,2025-08-21_14h41.09.629,HideSeek_v1,2022.2.5,59.96095340903511,
,3,9,3,4,0,-5,66,,train_dim1_1,27,30,,,,2,0,2,0,,,,,,,,,0,0,0,0,0,26,26,26,5,0,5,0,,,,,,,,,,,,,,,,,,,,,,,,,,,,,,,,,,,,,,,,,,,,,,,,,,,,,,,,,,,,,,,,30,,,,,,,,2372.345104899956,2372.345104899956,2372.345104899956,2372.345104899956,2372.345104899956,return,0.34352570003829896,14,0,0,1,0.08,-0.08000000000000003,return,0.24761070008389652,-65,0,0.08,-0.08000000000000003,,,,,,,,,,,,,,,,,,,,,,,,,,,,,,,,,,,,,,,,,,,,,,,,,,,,,,,,UQ11L2,train_y,blue_star,top_left,2025-08-21_14h41.09.629,HideSeek_v1,2022.2.5,59.96095340903511,
,4,6,4,6,0,0,61,,train_dim1_1,28,30,,,,2,0,2,0,,,,,,,,,0,0,0,0,0,27,27,27,0,0,0,0,,,,,,,,,,,,,,,,,,,,,,,,,stimuli/alien_stimuli/61.png,,,,,,,,,,,,,,,,,,,,,,,,,,,,,stimuli/alien_stimuli/66.png,66,3,29,,,,,,,30,,,,,,,,2376.3102668998763,2376.3102668998763,2376.3102668998763,2376.3102668998763,2376.3102668998763,down,2.3896155999973416,14,0,0,99,0.16,0.0,down,2.3071344001218677,,,,,2374.7539218999445,2376.3102668998763,0.08,-0.08,0.4,0.0,0.12,0.08,0.08,0.08,-0.08,2374.24318209989,2374.24318209989,2374.24318209989,2374.24318209989,2374.24318209989,2374.24318209989,2374.24318209989,2374.24318209989,2374.2370217098623,0.6196616999804974,return,0.4920388001482934,,,,,,,,,,,,,,,,,,,,,,,,,,,,,,,,,UQ11L2,train_y,blue_star,top_left,2025-08-21_14h41.09.629,HideSeek_v1,2022.2.5,59.96095340903511,
,4,6,4,6,0,0,61,,train_dim1_1,28,30,,,,2,0,2,0,,,,,,,,,0,0,0,0,0,27,27,27,1,0,1,0,,,,,,,,,,,,,,,,,,,,,,,,,,,,,,,,,,,,,,,,,,,,,,,,,,,,,,,,,,,,,,,,30,,,,,,,,2378.7093078999314,2378.7093078999314,2378.7093078999314,2378.7093078999314,2378.7093078999314,up,2.1278047000523657,14,0,0,99,0.16,0.08,up,2.0354204000905156,,,,,,,,,,,,,,,,,,,,,,,,,,,,,,,,,,,,,,,,,,,,,,,,,,,,,,,,,,,,UQ11L2,train_y,blue_star,top_left,2025-08-21_14h41.09.629,HideSeek_v1,2022.2.5,59.96095340903511,
,4,6,4,6,0,0,61,,train_dim1_1,28,30,,,,2,0,2,0,,,,,,,,,0,0,0,0,0,27,27,27,2,0,2,0,,,,,,,,,,,,,,,,,,,,,,,,,,,,,,,,,,,,,,,,,,,,,,,,,,,,,,,,,,,,,,,,30,,,,,,,,2380.843597699888,2380.843597699888,2380.843597699888,2380.843597699888,2380.843597699888,return,0.39324270002543926,15,0,0,1,0.16,0.08,return,0.3093583001755178,-65,0,0.16,0.08,,,,,,,,,,,,,,,,,,,,,,,,,,,,,,,,,,,,,,,,,,,,,,,,,,,,,,,,UQ11L2,train_y,blue_star,top_left,2025-08-21_14h41.09.629,HideSeek_v1,2022.2.5,59.96095340903511,
,2,7,2,6,0,-1,62,,train_dim1_1,29,30,,,,2,0,2,0,,,,,,,,,0,0,0,0,0,28,28,28,0,0,0,0,,,,,,,,,,,,,,,,,,,,,,,,,stimuli/alien_stimuli/62.png,,,,,,,,,,,,,,,,,,,,,,,,,,,,,stimuli/alien_stimuli/61.png,61,4,30,,,,,,,30,,,,,,,,2385.200224299915,2385.200224299915,2385.200224299915,2385.200224299915,2385.200224299915,down,1.5906231999397278,15,0,0,99,0,0.08,down,1.5146157999988645,,,,,2383.6448635999113,2385.200224299915,0.16,0.08,0.0,0.0,0.08,0.16,0.16,0.16,0.08,2382.800030299928,2382.800030299928,2382.800030299928,2382.800030299928,2382.800030299928,2382.800030299928,2382.800030299928,2382.800030299928,2382.793892609957,0.9532370998058468,return,0.8281357001978904,,,,,,,,,,,,,,,,,,,,,,,,,,,,,,,,,UQ11L2,train_y,blue_star,top_left,2025-08-21_14h41.09.629,HideSeek_v1,2022.2.5,59.96095340903511,
,2,7,2,6,0,-1,62,,train_dim1_1,29,30,,,,2,0,2,0,,,,,,,,,0,0,0,0,0,28,28,28,1,0,1,0,,,,,,,,,,,,,,,,,,,,,,,,,,,,,,,,,,,,,,,,,,,,,,,,,,,,,,,,,,,,,,,,30,,,,,,,,2386.7994109999854,2386.7994109999854,2386.7994109999854,2386.7994109999854,2386.7994109999854,return,0.4094281999859959,16,0,0,1,0,0.08,return,0.32512690033763647,-66,0,0,0.08,,,,,,,,,,,,,,,,,,,,,,,,,,,,,,,,,,,,,,,,,,,,,,,,,,,,,,,,UQ11L2,train_y,blue_star,top_left,2025-08-21_14h41.09.629,HideSeek_v1,2022.2.5,59.96095340903511,
,0,6,0,2,0,-4,65,,train_dim1_1,30,30,,,,2,0,2,0,,,,,,,,,0,0,0,0,0,29,29,29,0,0,0,0,,,,,,,,,,,,,,,,,,,,,,,,,stimuli/alien_stimuli/65.png,,,,,,,,,,,,,,,,,,,,,,,,,,,,,stimuli/alien_stimuli/62.png,62,2,31,,,,,,,30,,,,,,,,2390.9691450998653,2390.9691450998653,2390.9691450998653,2390.9691450998653,2390.9691450998653,down,1.4232874000445008,16,0,0,99,-0.16,0.0,down,1.3373019001446664,,,,,2389.416270100046,2390.9691450998653,0,0.08,0.08,0.0,0.12,0,0.0,0,0.08,2388.760315200081,2388.760315200081,2388.760315200081,2388.760315200081,2388.760315200081,2388.760315200081,2388.760315200081,2388.760315200081,2388.748993879976,0.7528851001989096,return,0.632567600114271,,,,,,,,,,,,,,,,,,,,,,,,,,,,,,,,,UQ11L2,train_y,blue_star,top_left,2025-08-21_14h41.09.629,HideSeek_v1,2022.2.5,59.96095340903511,
,0,6,0,2,0,-4,65,,train_dim1_1,30,30,,,,2,0,2,0,,,,,,,,,0,0,0,0,0,29,29,29,1,0,1,0,,,,,,,,,,,,,,,,,,,,,,,,,,,,,,,,,,,,,,,,,,,,,,,,,,,,,,,,,,,,,,,,30,,,,,,,,2392.399679099908,2392.399679099908,2392.399679099908,2392.399679099908,2392.399679099908,down,1.0102241998538375,16,0,0,99,-0.16,-0.08,down,0.9364988000597805,,,,,,,,,,,,,,,,,,,,,,,,,,,,,,,,,,,,,,,,,,,,,,,,,,,,,,,,,,,,UQ11L2,train_y,blue_star,top_left,2025-08-21_14h41.09.629,HideSeek_v1,2022.2.5,59.96095340903511,
,0,6,0,2,0,-4,65,,train_dim1_1,30,30,,,,2,0,2,0,,,,,,,,,0,0,0,0,0,29,29,29,2,0,2,0,,,,,,,,,,,,,,,,,,,,,,,,,,,,,,,,,,,,,,,,,,,,,,,,,,,,,,,,,,,,,,,,30,,,,,,,,2393.4169570000377,2393.4169570000377,2393.4169570000377,2393.4169570000377,2393.4169570000377,down,0.5267862000036985,16,0,0,99,-0.16,-0.16,down,0.4384065002668649,,,,,,,,,,,,,,,,,,,,,,,,,,,,,,,,,,,,,,,,,,,,,,,,,,,,,,,,,,,,UQ11L2,train_y,blue_star,top_left,2025-08-21_14h41.09.629,HideSeek_v1,2022.2.5,59.96095340903511,
,0,6,0,2,0,-4,65,,train_dim1_1,30,30,,,,2,0,2,0,,,,,,,,,0,0,0,0,0,29,29,29,3,0,3,0,,,,,,,,,,,,,,,,,,,,,,,,,,,,,,,,,,,,,,,,,,,,,,,,,,,,,,,,,,,,,,,,30,,,,,,,,2393.9521333999,2393.9521333999,2393.9521333999,2393.9521333999,2393.9521333999,down,0.5434239001479,16,0,0,99,-0.16,-0.24,down,0.4549353001639247,,,,,,,,,,,,,,,,,,,,,,,,,,,,,,,,,,,,,,,,,,,,,,,,,,,,,,,,,,,,UQ11L2,train_y,blue_star,top_left,2025-08-21_14h41.09.629,HideSeek_v1,2022.2.5,59.96095340903511,
,0,6,0,2,0,-4,65,,train_dim1_1,30,30,,,,2,0,2,0,,,,,,,,,0,0,0,0,0,29,29,29,4,0,4,0,,,,,,,,,,,,,,,,,,,,,,,,,,,,,,,,,,,,,,,,,,,,,,,,,,,,,,,,,,,,,,,,30,,,,,,,,2394.5016975000035,2394.5016975000035,2394.5016975000035,2394.5016975000035,2394.5016975000035,down,0.42673299997113645,16,0,0,99,-0.16,-0.32,down,0.34081170009449124,,,,,,,,,,,,,,,,,,,,,,,,,,,,,,,,,,,,,,,,,,,,,,,,,,,,,,,,,,,,UQ11L2,train_y,blue_star,top_left,2025-08-21_14h41.09.629,HideSeek_v1,2022.2.5,59.96095340903511,
,0,6,0,2,0,-4,65,,train_dim1_1,30,30,,,,2,0,2,0,,,,,,,,,0,0,0,0,0,29,29,29,5,0,5,0,,,,,,,,,,,,,,,,,,,,,,,,,,,,,,,,,,,,,,,,,,,,,,,,,,,,,,,,,,,,,,,,30,,,,,,,,2394.9354641998652,2394.9354641998652,2394.9354641998652,2394.9354641998652,2394.9354641998652,return,0.5271348999813199,16,1,0,0,-0.16,-0.32,return,0.4392054001800716,-71,0,-0.16,-0.32,,,,,,,,,,,,,,,,,,,,,,,,,,,,,,,,,,,,,,,,,,,,,,,,,,,,,,,,UQ11L2,train_y,blue_star,top_left,2025-08-21_14h41.09.629,HideSeek_v1,2022.2.5,59.96095340903511,
,,,,,,,,,,,30,,,,2,0,2,0,,,,,,,,,,,,,,,,,,,,,,,,,,,,,,,,,,,,,,,,,,,,,,,,,,,,,,,,,,,,,,,,,,,,,,,,,,stimuli/alien_stimuli/65.png,65,0,32,21,0.7,0.6666666666666667,1,1,1,30,0,conditions/schedules/train_y_first/blue_star_00/top_left/inputTrain_2.1.xlsx,99,1,2,1,0,,,,,,,,,,,0,,,,,,,,,2398.307087099878,2399.8710419000126,-0.16,-0.24,0.32,0.0,-0.07999999999999999,-0.16,-0.16,-0.16,-0.24,2397.014749499969,2397.014749499969,2397.014749499969,2397.014749499969,2397.014749499969,2397.014749499969,2397.014749499969,2397.014749499969,2397.0059990799987,1.3868559000547975,return,1.2755055001471192,0,0.9,0,1,16,,,,,,,,,,,,,,,,,,,,,,,,,,,,UQ11L2,train_y,blue_star,top_left,2025-08-21_14h41.09.629,HideSeek_v1,2022.2.5,59.96095340903511,
,,,,,,,,,,,,,,,3,0,3,0,0,0,0,0,,,,,,,,,,,,,,,,,,,,,,,,,,,,,,,conditions/schedules/train_y_first/blue_star_00/top_left/instructions/Slide17.png,conditions/schedules/train_y_first/blue_star_00/top_left/instructions/Audio17.wav,2399.8710419000126,2399.858187219966,17,"[6.225441599963233, 19.397848800057545, 16.61050729989074, 19.764336900087073, 4.637513000052422, 5.787459300132468, 6.072097399970517, 12.357431800104678, 6.573712000157684, 7.421021800022572, 10.769791699945927, 14.56823919992894, 17.246848599985242, 17.14899259991944, 43.57755960011855, 21.723198499996215, 31.010604900075123]","[6.225448499899358, 0.014482100028544664, 0.031301300041377544, 0.05084490007720888, 0.04959650011733174, 0.06705450010485947, 0.04716950003057718, 0.035302900010719895, 0.03144819987937808, 0.06276719993911684, 0.03536889981478453, 14.568245999980718, 0.0350148999132216, 17.148998799966648, 0.014059199951589108, 21.7232071000617, 31.010612800018862]",0,,,,,,,,,,,,,,,,,,,,,,,,,,,,,,,,,,,,,,,,,,,,,,,,,,,,,,,,,,,,,,,,,,,,,,,,,,,,,,,,,,,,,,,,,,,,,,,,,,,,,,,,,,,,,,,,,,,,,,,,,,,,UQ11L2,train_y,blue_star,top_left,2025-08-21_14h41.09.629,HideSeek_v1,2022.2.5,59.96095340903511,
,,,,,,,,,,,,,,,3,0,3,0,1,0,1,0,,,,,,,,,,,,,,,,,,,,,,,,,,,,,,,conditions/schedules/train_y_first/blue_star_00/top_left/instructions/Slide18.png,conditions/schedules/train_y_first/blue_star_00/top_left/instructions/Audio18.wav,2430.949919699924,2430.95084985008,18,"[6.225441599963233, 19.397848800057545, 16.61050729989074, 19.764336900087073, 4.637513000052422, 5.787459300132468, 6.072097399970517, 12.357431800104678, 6.573712000157684, 7.421021800022572, 10.769791699945927, 14.56823919992894, 17.246848599985242, 17.14899259991944, 43.57755960011855, 21.723198499996215, 31.010604900075123, 6.8217156999744475]","[6.225448499899358, 0.014482100028544664, 0.031301300041377544, 0.05084490007720888, 0.04959650011733174, 0.06705450010485947, 0.04716950003057718, 0.035302900010719895, 0.03144819987937808, 0.06276719993911684, 0.03536889981478453, 14.568245999980718, 0.0350148999132216, 17.148998799966648, 0.014059199951589108, 21.7232071000617, 0.014587700134143233, 6.821721900021657]",0,,,,,,,,,,,,,,,,,,,,,,,,,,,,,,,,,,,,,,,,,,,,,,,,,,,,,,,,,,,,,,,,,,,,,,,,,,,,,,,,,,,,,,,,,,,,,,,,,,,,,,,,,,,,,,,,,,,,,,,,,,,,UQ11L2,train_y,blue_star,top_left,2025-08-21_14h41.09.629,HideSeek_v1,2022.2.5,59.96095340903511,
,,,,,,,,,,,,,,,3,0,3,0,2,0,2,0,,,,,,,,,,,,,,,,,,,,,,,,,,,,,,,conditions/schedules/train_y_first/blue_star_00/top_left/instructions/Slide19.png,conditions/schedules/train_y_first/blue_star_00/top_left/instructions/Audio19.wav,2437.825699100038,2437.823637919873,19,"[6.225441599963233, 19.397848800057545, 16.61050729989074, 19.764336900087073, 4.637513000052422, 5.787459300132468, 6.072097399970517, 12.357431800104678, 6.573712000157684, 7.421021800022572, 10.769791699945927, 14.56823919992894, 17.246848599985242, 17.14899259991944, 43.57755960011855, 21.723198499996215, 31.010604900075123, 6.8217156999744475, 10.470701199956238]","[6.225448499899358, 0.014482100028544664, 0.031301300041377544, 0.05084490007720888, 0.04959650011733174, 0.06705450010485947, 0.04716950003057718, 0.035302900010719895, 0.03144819987937808, 0.06276719993911684, 0.03536889981478453, 14.568245999980718, 0.0350148999132216, 17.148998799966648, 0.014059199951589108, 21.7232071000617, 0.014587700134143233, 0.0002314997836947441, 10.470707400003448]",0,,,,,,,,,,,,,,,,,,,,,,,,,,,,,,,,,,,,,,,,,,,,,,,,,,,,,,,,,,,,,,,,,,,,,,,,,,,,,,,,,,,,,,,,,,,,,,,,,,,,,,,,,,,,,,,,,,,,,,,,,,,,UQ11L2,train_y,blue_star,top_left,2025-08-21_14h41.09.629,HideSeek_v1,2022.2.5,59.96095340903511,
,,,,,,,,,,,,,,,3,0,3,0,3,0,3,0,,,,,,,,,,,,,,,,,,,,,,,,,,,,,,,conditions/schedules/train_y_first/blue_star_00/top_left/instructions/Slide20.png,conditions/schedules/train_y_first/blue_star_00/top_left/instructions/Audio20.wav,2448.3689796999097,2448.3653544500703,20,"[6.225441599963233, 19.397848800057545, 16.61050729989074, 19.764336900087073, 4.637513000052422, 5.787459300132468, 6.072097399970517, 12.357431800104678, 6.573712000157684, 7.421021800022572, 10.769791699945927, 14.56823919992894, 17.246848599985242, 17.14899259991944, 43.57755960011855, 21.723198499996215, 31.010604900075123, 6.8217156999744475, 10.470701199956238, 13.155052500078455]","[6.225448499899358, 0.014482100028544664, 0.031301300041377544, 0.05084490007720888, 0.04959650011733174, 0.06705450010485947, 0.04716950003057718, 0.035302900010719895, 0.03144819987937808, 0.06276719993911684, 0.03536889981478453, 14.568245999980718, 0.0350148999132216, 17.148998799966648, 0.014059199951589108, 21.7232071000617, 0.014587700134143233, 0.0002314997836947441, 0.03207789990119636, 13.15505909989588]",0,,,,,,,,,,,,,,,,,,,,,,,,,,,,,,,,,,,,,,,,,,,,,,,,,,,,,,,,,,,,,,,,,,,,,,,,,,,,,,,,,,,,,,,,,,,,,,,,,,,,,,,,,,,,,,,,,,,,,,,,,,,,UQ11L2,train_y,blue_star,top_left,2025-08-21_14h41.09.629,HideSeek_v1,2022.2.5,59.96095340903511,
