trialInstr,x_fixStart,y_fixStart,x_corrSteps,y_corrSteps,x_nrSteps,y_nrSteps,alienID,trialLength,version,trialTrain,praclen,testlen,trial_label,break_on_off,beforeExpLoop.thisRepN,beforeExpLoop.thisTrialN,beforeExpLoop.thisN,beforeExpLoop.thisIndex,mini_instr_trials.thisRepN,mini_instr_trials.thisTrialN,mini_instr_trials.thisN,mini_instr_trials.thisIndex,instrLoop.thisRepN,instrLoop.thisTrialN,instrLoop.thisN,instrLoop.thisIndex,repeat_prac.thisRepN,repeat_prac.thisTrialN,repeat_prac.thisN,repeat_prac.thisIndex,trainLoop.thisRepN,trainLoop.thisTrialN,trainLoop.thisN,trainLoop.thisIndex,moveLoop_train.thisRepN,moveLoop_train.thisTrialN,moveLoop_train.thisN,moveLoop_train.thisIndex,experiment.thisRepN,experiment.thisTrialN,experiment.thisN,experiment.thisIndex,moveLoop_test.thisRepN,moveLoop_test.thisTrialN,moveLoop_test.thisN,moveLoop_test.thisIndex,mini_instr2_trials.thisRepN,mini_instr2_trials.thisTrialN,mini_instr2_trials.thisN,mini_instr2_trials.thisIndex,start_all_time,url,slideStim,audioStim,slides.started,sounds.started,nextButton.numClicks,nextButton.timesOn,nextButton.timesOff,prev_but.numClicks,prev_but.timesOn,prev_but.timesOff,alienStim,instrFile,alienStim_instr,gridImage_instr.started,startPos_3.started,key_instr.started,alienImage_3.started,sounds_1.started,key_instr.keys,key_instr.rt,all_x,all_y,FBy_corrSteps,FBy_fixStart,FBx_corrSteps,FBx_fixStart,FBy_pathSize_check,FBx_pathSize_check,gridImage_9.started,alienImageFB_3.started,startPosFB_3.started,keyFB_3.started,pathLine_ydir_2.started,pathLine_xdir_2.started,alienFace_3.started,sounds_2.started,RTFB_instr,keyFB_3.keys,keyFB_3.rt,draw_alienStim,draw_alienID,test_x,nrepcount,perfthres,percthres,earlierperf,earlystop,nextPrac,fileidx,praclen,saveACC_train,pracFile,nextPrac_train,addNrep,fileidx_endr,repExp,showearly,gridImage_4.started,startPos.started,movePos.started,key_resp.started,alienImage.started,buttonPress_train,RTchoice_train,cumAcctrain,aCorr,saveACC_choice,corrAns,x_movePos_end,y_movePos_end,key_resp.keys,key_resp.rt,wLy_dir,wLx_dir,x_movePos,y_movePos,text_2.started,text_2.stopped,aft_x_corrPos,aft_y_corrPos,y_pathSize_check,x_pathSize_check,y_pathdirY,x_pathdirY,x_pathdirX,x_corrPos,y_corrPos,gridImage_6.started,alienImageFB_2.started,startPosFB_2.started,movePosFB_2.started,keyFB_2.started,pathLine_xdir.started,pathLine_ydir.started,alienFace.started,sounds_4.started,RT_FBtrain,keyFB_2.keys,keyFB_2.rt,saveACC_pre,ACC,within_saveACC_train,earlystop_wloop,cumAcctrain_check,gridImage_3.started,alienImage_test.started,startPos_test.started,movePos_test.started,key_resp_test.started,wLy_dir_test,wLx_dir_test,buttonPress_test,RTchoice_test,cumAcctest,corrAns_test,key_resp_test.keys,key_resp_test.rt,text_3.started,text_3.stopped,total_time,end_all_time,key_resp_3.keys,slides_2.started,sounds_3.started,nextButton_2.numClicks,nextButton_2.timesOn,nextButton_2.timesOff,prev_but_2.numClicks,prev_but_2.timesOn,prev_but_2.timesOff,bye.started,participant,train_first,00_coordinate,starting corner,date,expName,psychopyVersion,frameRate,
,,,,,,,,,,,,,,,0,0,0,0,0,0,0,0,,,,,,,,,,,,,,,,,,,,,,,,,,,,,start_all_time,testround,conditions/schedules/train_x_first/red_square_00/top_left/instructions/Slide1.png,conditions/schedules/train_x_first/red_square_00/top_left/instructions/Audio1.wav,1855.7262234999798,1855.6774994519074,1,[20.628143900074065],[20.628151400014758],0,,,,,,,,,,,,,,,,,,,,,,,,,,,,,,,,,,,,,,,,,,,,,,,,,,,,,,,,,,,,,,,,,,,,,,,,,,,,,,,,,,,,,,,,,,,,,,,,,,,,,,,,,,,,,,,,,,,,,,,,,,,,VDKA3U,train_x,red_square,top_left,2025-02-21_16h08.47.385,HideSeek_v1,2022.2.5,59.970266752709875,
,,,,,,,,,,,,,,,0,0,0,0,1,0,1,0,,,,,,,,,,,,,,,,,,,,,,,,,,,,,,,conditions/schedules/train_x_first/red_square_00/top_left/instructions/Slide2.png,conditions/schedules/train_x_first/red_square_00/top_left/instructions/Audio2.wav,1876.3844002000988,1876.3747336498927,2,"[20.628143900074065, 17.936171399895102]","[0.05468539986759424, 17.936179200187325]",0,,,,,,,,,,,,,,,,,,,,,,,,,,,,,,,,,,,,,,,,,,,,,,,,,,,,,,,,,,,,,,,,,,,,,,,,,,,,,,,,,,,,,,,,,,,,,,,,,,,,,,,,,,,,,,,,,,,,,,,,,,,,VDKA3U,train_x,red_square,top_left,2025-02-21_16h08.47.385,HideSeek_v1,2022.2.5,59.970266752709875,
,,,,,,,,,,,,,,,0,0,0,0,2,0,2,0,,,,,,,,,,,,,,,,,,,,,,,,,,,,,,,conditions/schedules/train_x_first/red_square_00/top_left/instructions/Slide3.png,conditions/schedules/train_x_first/red_square_00/top_left/instructions/Audio3.wav,1894.3965054000728,1894.38943975023,3,"[20.628143900074065, 17.936171399895102, 17.13764030020684]","[0.05468539986759424, 0.014073600061237812, 17.13764710025862]",0,,,,,,,,,,,,,,,,,,,,,,,,,,,,,,,,,,,,,,,,,,,,,,,,,,,,,,,,,,,,,,,,,,,,,,,,,,,,,,,,,,,,,,,,,,,,,,,,,,,,,,,,,,,,,,,,,,,,,,,,,,,,VDKA3U,train_x,red_square,top_left,2025-02-21_16h08.47.385,HideSeek_v1,2022.2.5,59.970266752709875,
,,,,,,,,,,,,,,,0,0,0,0,3,0,3,0,,,,,,,,,,,,,,,,,,,,,,,,,,,,,,,conditions/schedules/train_x_first/red_square_00/top_left/instructions/Slide4.png,conditions/schedules/train_x_first/red_square_00/top_left/instructions/Audio4.wav,1911.6109150000848,1911.6035853500944,4,"[20.628143900074065, 17.936171399895102, 17.13764030020684, 19.540501600131392]","[0.05468539986759424, 0.014073600061237812, 0.014637399930506945, 19.54050899995491]",0,,,,,,,,,,,,,,,,,,,,,,,,,,,,,,,,,,,,,,,,,,,,,,,,,,,,,,,,,,,,,,,,,,,,,,,,,,,,,,,,,,,,,,,,,,,,,,,,,,,,,,,,,,,,,,,,,,,,,,,,,,,,VDKA3U,train_x,red_square,top_left,2025-02-21_16h08.47.385,HideSeek_v1,2022.2.5,59.970266752709875,
,,,,,,,,,,,,,,,0,0,0,0,4,0,4,0,,,,,,,,,,,,,,,,,,,,,,,,,,,,,,,conditions/schedules/train_x_first/red_square_00/top_left/instructions/Slide5.png,conditions/schedules/train_x_first/red_square_00/top_left/instructions/Audio5.wav,1931.2162294001319,1931.2033926198258,5,"[20.628143900074065, 17.936171399895102, 17.13764030020684, 19.540501600131392, 4.472597800195217]","[0.05468539986759424, 0.014073600061237812, 0.014637399930506945, 0.035313600208610296, 4.472605700138956]",0,,,,,,,,,,,,,,,,,,,,,,,,,,,,,,,,,,,,,,,,,,,,,,,,,,,,,,,,,,,,,,,,,,,,,,,,,,,,,,,,,,,,,,,,,,,,,,,,,,,,,,,,,,,,,,,,,,,,,,,,,,,,VDKA3U,train_x,red_square,top_left,2025-02-21_16h08.47.385,HideSeek_v1,2022.2.5,59.970266752709875,
,,,,,,,,,,,,,,,0,0,0,0,5,0,5,0,,,,,,,,,,,,,,,,,,,,,,,,,,,,,,,conditions/schedules/train_x_first/red_square_00/top_left/instructions/Slide6.png,conditions/schedules/train_x_first/red_square_00/top_left/instructions/Audio6.wav,1935.7384434998967,1935.7402161202392,6,"[20.628143900074065, 17.936171399895102, 17.13764030020684, 19.540501600131392, 4.472597800195217, 5.037000900134444]","[0.05468539986759424, 0.014073600061237812, 0.014637399930506945, 0.035313600208610296, 0.0660063000395894, 5.037007700186223]",0,,,,,,,,,,,,,,,,,,,,,,,,,,,,,,,,,,,,,,,,,,,,,,,,,,,,,,,,,,,,,,,,,,,,,,,,,,,,,,,,,,,,,,,,,,,,,,,,,,,,,,,,,,,,,,,,,,,,,,,,,,,,VDKA3U,train_x,red_square,top_left,2025-02-21_16h08.47.385,HideSeek_v1,2022.2.5,59.970266752709875,
,,,,,,,,,,,,,,,0,0,0,0,6,0,6,0,,,,,,,,,,,,,,,,,,,,,,,,,,,,,,,conditions/schedules/train_x_first/red_square_00/top_left/instructions/Slide7.png,conditions/schedules/train_x_first/red_square_00/top_left/instructions/Audio7.wav,1940.8260265002027,1940.827956220228,7,"[20.628143900074065, 17.936171399895102, 17.13764030020684, 19.540501600131392, 4.472597800195217, 5.037000900134444, 6.404657199978828]","[0.05468539986759424, 0.014073600061237812, 0.014637399930506945, 0.035313600208610296, 0.0660063000395894, 0.0995895997621119, 6.404664000030607]",0,,,,,,,,,,,,,,,,,,,,,,,,,,,,,,,,,,,,,,,,,,,,,,,,,,,,,,,,,,,,,,,,,,,,,,,,,,,,,,,,,,,,,,,,,,,,,,,,,,,,,,,,,,,,,,,,,,,,,,,,,,,,VDKA3U,train_x,red_square,top_left,2025-02-21_16h08.47.385,HideSeek_v1,2022.2.5,59.970266752709875,
,,,,,,,,,,,,,,,0,0,0,0,7,0,7,0,,,,,,,,,,,,,,,,,,,,,,,,,,,,,,,conditions/schedules/train_x_first/red_square_00/top_left/instructions/Slide8.png,conditions/schedules/train_x_first/red_square_00/top_left/instructions/Audio8.wav,1947.2840085998178,1947.2832627199589,8,"[20.628143900074065, 17.936171399895102, 17.13764030020684, 19.540501600131392, 4.472597800195217, 5.037000900134444, 6.404657199978828, 11.673290500417352]","[0.05468539986759424, 0.014073600061237812, 0.014637399930506945, 0.035313600208610296, 0.0660063000395894, 0.0995895997621119, 0.11363440006971359, 11.673297900240868]",0,,,,,,,,,,,,,,,,,,,,,,,,,,,,,,,,,,,,,,,,,,,,,,,,,,,,,,,,,,,,,,,,,,,,,,,,,,,,,,,,,,,,,,,,,,,,,,,,,,,,,,,,,,,,,,,,,,,,,,,,,,,,VDKA3U,train_x,red_square,top_left,2025-02-21_16h08.47.385,HideSeek_v1,2022.2.5,59.970266752709875,
,,,,,,,,,,,,,,,0,0,0,0,8,0,8,0,,,,,,,,,,,,,,,,,,,,,,,,,,,,,,,conditions/schedules/train_x_first/red_square_00/top_left/instructions/Slide9.png,conditions/schedules/train_x_first/red_square_00/top_left/instructions/Audio9.wav,1959.0269221002236,1959.0263324498665,9,"[20.628143900074065, 17.936171399895102, 17.13764030020684, 19.540501600131392, 4.472597800195217, 5.037000900134444, 6.404657199978828, 11.673290500417352, 6.051890600007027]","[0.05468539986759424, 0.014073600061237812, 0.014637399930506945, 0.035313600208610296, 0.0660063000395894, 0.0995895997621119, 0.11363440006971359, 0.013917600270360708, 6.051897699944675]",0,,,,,,,,,,,,,,,,,,,,,,,,,,,,,,,,,,,,,,,,,,,,,,,,,,,,,,,,,,,,,,,,,,,,,,,,,,,,,,,,,,,,,,,,,,,,,,,,,,,,,,,,,,,,,,,,,,,,,,,,,,,,VDKA3U,train_x,red_square,top_left,2025-02-21_16h08.47.385,HideSeek_v1,2022.2.5,59.970266752709875,
,,,,,,,,,,,,,,,0,0,0,0,9,0,9,0,,,,,,,,,,,,,,,,,,,,,,,,,,,,,,,conditions/schedules/train_x_first/red_square_00/top_left/instructions/Slide10.png,conditions/schedules/train_x_first/red_square_00/top_left/instructions/Audio10.wav,1965.1165378000587,1965.1147591899614,10,"[20.628143900074065, 17.936171399895102, 17.13764030020684, 19.540501600131392, 4.472597800195217, 5.037000900134444, 6.404657199978828, 11.673290500417352, 6.051890600007027, 6.917913099750876]","[0.05468539986759424, 0.014073600061237812, 0.014637399930506945, 0.035313600208610296, 0.0660063000395894, 0.0995895997621119, 0.11363440006971359, 0.013917600270360708, 0.07918869983404875, 6.917919899802655]",0,,,,,,,,,,,,,,,,,,,,,,,,,,,,,,,,,,,,,,,,,,,,,,,,,,,,,,,,,,,,,,,,,,,,,,,,,,,,,,,,,,,,,,,,,,,,,,,,,,,,,,,,,,,,,,,,,,,,,,,,,,,,VDKA3U,train_x,red_square,top_left,2025-02-21_16h08.47.385,HideSeek_v1,2022.2.5,59.970266752709875,
,,,,,,,,,,,,,,,0,0,0,0,10,0,10,0,,,,,,,,,,,,,,,,,,,,,,,,,,,,,,,conditions/schedules/train_x_first/red_square_00/top_left/instructions/Slide11.png,conditions/schedules/train_x_first/red_square_00/top_left/instructions/Audio11.wav,1972.0888569001108,1972.087064819969,11,"[20.628143900074065, 17.936171399895102, 17.13764030020684, 19.540501600131392, 4.472597800195217, 5.037000900134444, 6.404657199978828, 11.673290500417352, 6.051890600007027, 6.917913099750876, 9.820809100288898]","[0.05468539986759424, 0.014073600061237812, 0.014637399930506945, 0.035313600208610296, 0.0660063000395894, 0.0995895997621119, 0.11363440006971359, 0.013917600270360708, 0.07918869983404875, 0.04685700032860041, 9.820815599989146]",0,,,,,,,,,,,,,,,,,,,,,,,,,,,,,,,,,,,,,,,,,,,,,,,,,,,,,,,,,,,,,,,,,,,,,,,,,,,,,,,,,,,,,,,,,,,,,,,,,,,,,,,,,,,,,,,,,,,,,,,,,,,,VDKA3U,train_x,red_square,top_left,2025-02-21_16h08.47.385,HideSeek_v1,2022.2.5,59.970266752709875,
,,,,,,,,,,,,,,,0,0,0,0,11,0,11,0,,,,,,,,,,,,,,,,,,,,,,,,,,,,,,,conditions/schedules/train_x_first/red_square_00/top_left/instructions/Slide12.png,conditions/schedules/train_x_first/red_square_00/top_left/instructions/Audio12.wav,1981.9807633999735,1981.9787728500087,11,"[20.628143900074065, 17.936171399895102, 17.13764030020684, 19.540501600131392, 4.472597800195217, 5.037000900134444, 6.404657199978828, 11.673290500417352, 6.051890600007027, 6.917913099750876, 9.820809100288898]","[0.05468539986759424, 0.014073600061237812, 0.014637399930506945, 0.035313600208610296, 0.0660063000395894, 0.0995895997621119, 0.11363440006971359, 0.013917600270360708, 0.07918869983404875, 0.04685700032860041, 0.030749599914997816]",1,[19.71166089968756],[19.711667799856514],,,,,,,,,,,,,,,,,,,,,,,,,,,,,,,,,,,,,,,,,,,,,,,,,,,,,,,,,,,,,,,,,,,,,,,,,,,,,,,,,,,,,,,,,,,,,,,,,,,,,,,,,,,,,,,,,,,,,,,,,,VDKA3U,train_x,red_square,top_left,2025-02-21_16h08.47.385,HideSeek_v1,2022.2.5,59.970266752709875,
,,,,,,,,,,,,,,,0,0,0,0,12,0,12,0,,,,,,,,,,,,,,,,,,,,,,,,,,,,,,,conditions/schedules/train_x_first/red_square_00/top_left/instructions/Slide11.png,conditions/schedules/train_x_first/red_square_00/top_left/instructions/Audio11.wav,2001.7639423999935,2001.7616662501823,12,"[20.628143900074065, 17.936171399895102, 17.13764030020684, 19.540501600131392, 4.472597800195217, 5.037000900134444, 6.404657199978828, 11.673290500417352, 6.051890600007027, 6.917913099750876, 9.820809100288898, 10.404192399699241]","[0.05468539986759424, 0.014073600061237812, 0.014637399930506945, 0.035313600208610296, 0.0660063000395894, 0.0995895997621119, 0.11363440006971359, 0.013917600270360708, 0.07918869983404875, 0.04685700032860041, 0.030749599914997816, 10.404199299868196]",1,[19.71166089968756],[19.711667799856514],,,,,,,,,,,,,,,,,,,,,,,,,,,,,,,,,,,,,,,,,,,,,,,,,,,,,,,,,,,,,,,,,,,,,,,,,,,,,,,,,,,,,,,,,,,,,,,,,,,,,,,,,,,,,,,,,,,,,,,,,,VDKA3U,train_x,red_square,top_left,2025-02-21_16h08.47.385,HideSeek_v1,2022.2.5,59.970266752709875,
,,,,,,,,,,,,,,,0,0,0,0,13,0,13,0,,,,,,,,,,,,,,,,,,,,,,,,,,,,,,,conditions/schedules/train_x_first/red_square_00/top_left/instructions/Slide12.png,conditions/schedules/train_x_first/red_square_00/top_left/instructions/Audio12.wav,2012.2387970001437,2012.237153850263,13,"[20.628143900074065, 17.936171399895102, 17.13764030020684, 19.540501600131392, 4.472597800195217, 5.037000900134444, 6.404657199978828, 11.673290500417352, 6.051890600007027, 6.917913099750876, 9.820809100288898, 10.404192399699241, 12.990907099563628]","[0.05468539986759424, 0.014073600061237812, 0.014637399930506945, 0.035313600208610296, 0.0660063000395894, 0.0995895997621119, 0.11363440006971359, 0.013917600270360708, 0.07918869983404875, 0.04685700032860041, 0.030749599914997816, 0.014619899913668633, 12.99091409984976]",1,[19.71166089968756],[19.711667799856514],,,,,,,,,,,,,,,,,,,,,,,,,,,,,,,,,,,,,,,,,,,,,,,,,,,,,,,,,,,,,,,,,,,,,,,,,,,,,,,,,,,,,,,,,,,,,,,,,,,,,,,,,,,,,,,,,,,,,,,,,,VDKA3U,train_x,red_square,top_left,2025-02-21_16h08.47.385,HideSeek_v1,2022.2.5,59.970266752709875,
1,3,7,8,7,5,0,66,2,instr_dim1_1,,,,,,0,0,0,0,,,,,0,0,0,0,,,,,,,,,,,,,,,,,,,,,,,,,,,,,,,,,,,,,stimuli/alien_stimuli/66.png,conditions/schedules/train_x_first/red_square_00/top_left/inputInstr_1.xlsx,stimuli/alien_stimuli/66.png,2025.3311382001266,2025.3311382001266,2025.3311382001266,2025.3311382001266,2025.3318521101492,return,9.763020100072026,"[-0.16, -0.08, 0, 0.08, 0.16, 0.24, 0.32, 0.4, 0.48, 0.56]","[-0.4, -0.32, -0.24, -0.16, -0.08, 0, 0.08, 0.16, 0.24, 0.32]",7,7,8,3,0.0,0.4,2035.2472840999253,2035.2472840999253,2035.2472840999253,2035.2472840999253,2035.2472840999253,2035.2472840999253,2035.2472840999253,2035.2396136403083,7.373675900045782,return,7.217925900127739,stimuli/alien_stimuli/66.png,66,3,1,,,,,,,,,,,,,,,,,,,,,,,,,,,,,,,,,,,,,,,,,,,,,,,,,,,,,,,,,,,,,,,,,,,,,,,,,,,,,,,,,,,,,,,,,VDKA3U,train_x,red_square,top_left,2025-02-21_16h08.47.385,HideSeek_v1,2022.2.5,59.970266752709875,
,,,,,,,,,,,30,,,,0,0,0,0,,,,,,,,,,,,,,,,,,,,,,,,,,,,,,,,,,,,,,,,,,,,,,,,,,,,,,,,,,,,,,,,,,,,,,,,,,,,,,21,0.7,0,0,99,1,30,0,conditions/schedules/train_x_first/red_square_00/top_left/inputTrain_1.1.xlsx,99,1,1,1,0,,,,,,,,,,,,,,,,,,,,,,,,,,,,,,,,,,,,,,,,,,,,,,,,,,,,,,,,,,,,,,,,,,,,,,,,,,,VDKA3U,train_x,red_square,top_left,2025-02-21_16h08.47.385,HideSeek_v1,2022.2.5,59.970266752709875,
,,,,,,,,,,,,,,,1,0,1,0,0,0,0,0,,,,,,,,,,,,,,,,,,,,,,,,,,,,,,,conditions/schedules/train_x_first/red_square_00/top_left/instructions/Slide13.png,conditions/schedules/train_x_first/red_square_00/top_left/instructions/Audio13.wav,2042.6227811002173,2042.6123254398815,14,"[20.628143900074065, 17.936171399895102, 17.13764030020684, 19.540501600131392, 4.472597800195217, 5.037000900134444, 6.404657199978828, 11.673290500417352, 6.051890600007027, 6.917913099750876, 9.820809100288898, 10.404192399699241, 12.990907099563628, 17.701176800299436]","[0.05468539986759424, 0.014073600061237812, 0.014637399930506945, 0.035313600208610296, 0.0660063000395894, 0.0995895997621119, 0.11363440006971359, 0.013917600270360708, 0.07918869983404875, 0.04685700032860041, 0.030749599914997816, 0.014619899913668633, 12.99091409984976, 17.701183500234038]",1,[19.71166089968756],[19.711667799856514],,,,,,,,,,,,,,,,,,,,,,,,,,,,,,,,,,,,,,,,,,,,,,,,,,,,,,,,,,,,,,,,,,,,,,,,,,,,,,,,,,,,,,,,,,,,,,,,,,,,,,,,,,,,,,,,,,,,,,,,,,VDKA3U,train_x,red_square,top_left,2025-02-21_16h08.47.385,HideSeek_v1,2022.2.5,59.970266752709875,
,,,,,,,,,,,,,,,1,0,1,0,1,0,1,0,,,,,,,,,,,,,,,,,,,,,,,,,,,,,,,conditions/schedules/train_x_first/red_square_00/top_left/instructions/Slide14.png,conditions/schedules/train_x_first/red_square_00/top_left/instructions/Audio14.wav,2060.3992038001306,2060.3934681501705,15,"[20.628143900074065, 17.936171399895102, 17.13764030020684, 19.540501600131392, 4.472597800195217, 5.037000900134444, 6.404657199978828, 11.673290500417352, 6.051890600007027, 6.917913099750876, 9.820809100288898, 10.404192399699241, 12.990907099563628, 17.701176800299436, 12.83617000002414]","[0.05468539986759424, 0.014073600061237812, 0.014637399930506945, 0.035313600208610296, 0.0660063000395894, 0.0995895997621119, 0.11363440006971359, 0.013917600270360708, 0.07918869983404875, 0.04685700032860041, 0.030749599914997816, 0.014619899913668633, 12.99091409984976, 0.031031999737024307, 12.836176400072873]",1,[19.71166089968756],[19.711667799856514],,,,,,,,,,,,,,,,,,,,,,,,,,,,,,,,,,,,,,,,,,,,,,,,,,,,,,,,,,,,,,,,,,,,,,,,,,,,,,,,,,,,,,,,,,,,,,,,,,,,,,,,,,,,,,,,,,,,,,,,,,VDKA3U,train_x,red_square,top_left,2025-02-21_16h08.47.385,HideSeek_v1,2022.2.5,59.970266752709875,
2,4,5,4,5,0,0,16,2,instr_dim1_1,,,,,,1,0,1,0,,,,,0,0,0,0,,,,,,,,,,,,,,,,,,,,,,,,,,,,,,,,,,,,,stimuli/alien_stimuli/16.png,conditions/schedules/train_x_first/red_square_00/top_left/inputInstr_1.xlsx,stimuli/alien_stimuli/16.png,2073.3440803000703,2073.3440803000703,2073.3440803000703,2073.3440803000703,2073.338000810286,return,6.60457789991051,"[-0.16, -0.08, 0, 0.08, 0.16, 0.24, 0.32, 0.4, 0.48, 0.56]","[-0.4, -0.32, -0.24, -0.16, -0.08, 0, 0.08, 0.16, 0.24, 0.32]",5,5,4,4,0.0,0.0,2080.121506500058,2080.121506500058,2080.121506500058,2080.121506500058,2080.121506500058,2080.121506500058,2080.121506500058,2080.109800170036,7.640769700054079,return,7.472399999853224,stimuli/alien_stimuli/16.png,16,4,2,,,,,,,,,,,,,,,,,,,,,,,,,,,,,,,,,,,,,,,,,,,,,,,,,,,,,,,,,,,,,,,,,,,,,,,,,,,,,,,,,,,,,,,,,VDKA3U,train_x,red_square,top_left,2025-02-21_16h08.47.385,HideSeek_v1,2022.2.5,59.970266752709875,
,,,,,,,,,,,30,,,,1,0,1,0,,,,,,,,,,,,,,,,,,,,,,,,,,,,,,,,,,,,,,,,,,,,,,,,,,,,,,,,,,,,,,,,,,,,,,,,,,,,,,21,0.7,0,0,99,1,30,0,conditions/schedules/train_x_first/red_square_00/top_left/inputTrain_1.1.xlsx,99,1,1,1,0,,,,,,,,,,,,,,,,,,,,,,,,,,,,,,,,,,,,,,,,,,,,,,,,,,,,,,,,,,,,,,,,,,,,,,,,,,,VDKA3U,train_x,red_square,top_left,2025-02-21_16h08.47.385,HideSeek_v1,2022.2.5,59.970266752709875,
,,,,,,,,,,,,,,,2,0,2,0,0,0,0,0,,,,,,,,,,,,,,,,,,,,,,,,,,,,,,,conditions/schedules/train_x_first/red_square_00/top_left/instructions/Slide15.png,conditions/schedules/train_x_first/red_square_00/top_left/instructions/Audio15.wav,2087.752582000103,2087.7496929702816,16,"[20.628143900074065, 17.936171399895102, 17.13764030020684, 19.540501600131392, 4.472597800195217, 5.037000900134444, 6.404657199978828, 11.673290500417352, 6.051890600007027, 6.917913099750876, 9.820809100288898, 10.404192399699241, 12.990907099563628, 17.701176800299436, 12.83617000002414, 30.5540187000297]","[0.05468539986759424, 0.014073600061237812, 0.014637399930506945, 0.035313600208610296, 0.0660063000395894, 0.0995895997621119, 0.11363440006971359, 0.013917600270360708, 0.07918869983404875, 0.04685700032860041, 0.030749599914997816, 0.014619899913668633, 12.99091409984976, 0.031031999737024307, 12.836176400072873, 30.55402550008148]",1,[19.71166089968756],[19.711667799856514],,,,,,,,,,,,,,,,,,,,,,,,,,,,,,,,,,,,,,,,,,,,,,,,,,,,,,,,,,,,,,,,,,,,,,,,,,,,,,,,,,,,,,,,,,,,,,,,,,,,,,,,,,,,,,,,,,,,,,,,,,VDKA3U,train_x,red_square,top_left,2025-02-21_16h08.47.385,HideSeek_v1,2022.2.5,59.970266752709875,
,,,,,,,,,,,,,,,2,0,2,0,1,0,1,0,,,,,,,,,,,,,,,,,,,,,,,,,,,,,,,conditions/schedules/train_x_first/red_square_00/top_left/instructions/Slide16.png,conditions/schedules/train_x_first/red_square_00/top_left/instructions/Audio16.wav,2118.37501490023,2118.375084149884,17,"[20.628143900074065, 17.936171399895102, 17.13764030020684, 19.540501600131392, 4.472597800195217, 5.037000900134444, 6.404657199978828, 11.673290500417352, 6.051890600007027, 6.917913099750876, 9.820809100288898, 10.404192399699241, 12.990907099563628, 17.701176800299436, 12.83617000002414, 30.5540187000297, 21.882470200303942]","[0.05468539986759424, 0.014073600061237812, 0.014637399930506945, 0.035313600208610296, 0.0660063000395894, 0.0995895997621119, 0.11363440006971359, 0.013917600270360708, 0.07918869983404875, 0.04685700032860041, 0.030749599914997816, 0.014619899913668633, 12.99091409984976, 0.031031999737024307, 12.836176400072873, 0.08099650032818317, 21.882477400358766]",1,[19.71166089968756],[19.711667799856514],,,,,,,,,,,,,,,,,,,,,,,,,,,,,,,,,,,,,,,,,,,,,,,,,,,,,,,,,,,,,,,,,,,,,,,,,,,,,,,,,,,,,,,,,,,,,,,,,,,,,,,,,,,,,,,,,,,,,,,,,,VDKA3U,train_x,red_square,top_left,2025-02-21_16h08.47.385,HideSeek_v1,2022.2.5,59.970266752709875,
,2,6,5,6,3,0,46,,train_dim1_1,1,30,,,,2,0,2,0,,,,,,,,,0,0,0,0,0,0,0,0,0,0,0,0,,,,,,,,,,,,,,,,,,,,,,,,,stimuli/alien_stimuli/46.png,,,,,,,,,,,,,,,,,,,,,,,,,,,,,,,,,,,,,,,30,,,,,,,,2140.357274999842,2140.357274999842,2140.357274999842,2140.357274999842,2140.357274999842,right,7.800932300277054,0,0,0,99,0.08,0.08,right,7.699426199775189,,,,,,,,,,,,,,,,,,,,,,,,,,,,,,,,,,,,,,,,,,,,,,,,,,,,,,,,,,,,VDKA3U,train_x,red_square,top_left,2025-02-21_16h08.47.385,HideSeek_v1,2022.2.5,59.970266752709875,
,2,6,5,6,3,0,46,,train_dim1_1,1,30,,,,2,0,2,0,,,,,,,,,0,0,0,0,0,0,0,0,1,0,1,0,,,,,,,,,,,,,,,,,,,,,,,,,,,,,,,,,,,,,,,,,,,,,,,,,,,,,,,,,,,,,,,,30,,,,,,,,2148.146381500177,2148.146381500177,2148.146381500177,2148.146381500177,2148.146381500177,right,1.560723299626261,0,0,0,99,0.16,0.08,right,1.4878572998568416,,,,,,,,,,,,,,,,,,,,,,,,,,,,,,,,,,,,,,,,,,,,,,,,,,,,,,,,,,,,VDKA3U,train_x,red_square,top_left,2025-02-21_16h08.47.385,HideSeek_v1,2022.2.5,59.970266752709875,
,2,6,5,6,3,0,46,,train_dim1_1,1,30,,,,2,0,2,0,,,,,,,,,0,0,0,0,0,0,0,0,2,0,2,0,,,,,,,,,,,,,,,,,,,,,,,,,,,,,,,,,,,,,,,,,,,,,,,,,,,,,,,,,,,,,,,,30,,,,,,,,2149.7181365001015,2149.7181365001015,2149.7181365001015,2149.7181365001015,2149.7181365001015,right,1.3748035999014974,0,0,0,99,0.24,0.08,right,1.290230699814856,,,,,,,,,,,,,,,,,,,,,,,,,,,,,,,,,,,,,,,,,,,,,,,,,,,,,,,,,,,,VDKA3U,train_x,red_square,top_left,2025-02-21_16h08.47.385,HideSeek_v1,2022.2.5,59.970266752709875,
,2,6,5,6,3,0,46,,train_dim1_1,1,30,,,,2,0,2,0,,,,,,,,,0,0,0,0,0,0,0,0,3,0,3,0,,,,,,,,,,,,,,,,,,,,,,,,,,,,,,,,,,,,,,,,,,,,,,,,,,,,,,,,,,,,,,,,30,,,,,,,,2151.0990009000525,2151.0990009000525,2151.0990009000525,2151.0990009000525,2151.0990009000525,right,1.3599773002788424,0,0,0,99,0.32,0.08,right,1.287638499867171,,,,,,,,,,,,,,,,,,,,,,,,,,,,,,,,,,,,,,,,,,,,,,,,,,,,,,,,,,,,VDKA3U,train_x,red_square,top_left,2025-02-21_16h08.47.385,HideSeek_v1,2022.2.5,59.970266752709875,
,2,6,5,6,3,0,46,,train_dim1_1,1,30,,,,2,0,2,0,,,,,,,,,0,0,0,0,0,0,0,0,4,0,4,0,,,,,,,,,,,,,,,,,,,,,,,,,,,,,,,,,,,,,,,,,,,,,,,,,,,,,,,,,,,,,,,,30,,,,,,,,2152.4660062999465,2152.4660062999465,2152.4660062999465,2152.4660062999465,2152.4660062999465,return,0.776806200388819,0,1,0,0,0.32,0.08,return,0.6964426999911666,0,4,0.32,0.08,,,,,,,,,,,,,,,,,,,,,,,,,,,,,,,,,,,,,,,,,,,,,,,,,,,,,,,,VDKA3U,train_x,red_square,top_left,2025-02-21_16h08.47.385,HideSeek_v1,2022.2.5,59.970266752709875,
,2,9,2,9,0,0,16,,train_dim1_1,2,30,,,,2,0,2,0,,,,,,,,,0,0,0,0,0,1,1,1,0,0,0,0,,,,,,,,,,,,,,,,,,,,,,,,,stimuli/alien_stimuli/16.png,,,,,,,,,,,,,,,,,,,,,,,,,,,,,stimuli/alien_stimuli/46.png,46,2,3,,,,,,,30,,,,,,,,2180.9191883001477,2180.9191883001477,2180.9191883001477,2180.9191883001477,2180.9191883001477,down,3.2896644002757967,0,1,0,99,0,0.24,down,3.1852476000785828,,,,,2179.342256799806,2180.9191883001477,0.24,0.08,0.0,0.24,0.08,0.24,0.12,0.24,0.08,2154.816365300212,2154.816365300212,2154.816365300212,2154.816365300212,2154.816365300212,2154.816365300212,2154.816365300212,2154.816365300212,2154.8053236101287,24.639089100062847,return,24.494363599922508,,,,,,,,,,,,,,,,,,,,,,,,,,,,,,,,,VDKA3U,train_x,red_square,top_left,2025-02-21_16h08.47.385,HideSeek_v1,2022.2.5,59.970266752709875,
,2,9,2,9,0,0,16,,train_dim1_1,2,30,,,,2,0,2,0,,,,,,,,,0,0,0,0,0,1,1,1,1,0,1,0,,,,,,,,,,,,,,,,,,,,,,,,,,,,,,,,,,,,,,,,,,,,,,,,,,,,,,,,,,,,,,,,30,,,,,,,,2184.199150200002,2184.199150200002,2184.199150200002,2184.199150200002,2184.199150200002,down,0.924942399840802,0,1,0,99,0,0.15999999999999998,down,0.839440600015223,,,,,,,,,,,,,,,,,,,,,,,,,,,,,,,,,,,,,,,,,,,,,,,,,,,,,,,,,,,,VDKA3U,train_x,red_square,top_left,2025-02-21_16h08.47.385,HideSeek_v1,2022.2.5,59.970266752709875,
,2,9,2,9,0,0,16,,train_dim1_1,2,30,,,,2,0,2,0,,,,,,,,,0,0,0,0,0,1,1,1,2,0,2,0,,,,,,,,,,,,,,,,,,,,,,,,,,,,,,,,,,,,,,,,,,,,,,,,,,,,,,,,,,,,,,,,30,,,,,,,,2185.1308475001715,2185.1308475001715,2185.1308475001715,2185.1308475001715,2185.1308475001715,down,0.6602705996483564,0,1,0,99,0,0.07999999999999997,down,0.5713438997045159,,,,,,,,,,,,,,,,,,,,,,,,,,,,,,,,,,,,,,,,,,,,,,,,,,,,,,,,,,,,VDKA3U,train_x,red_square,top_left,2025-02-21_16h08.47.385,HideSeek_v1,2022.2.5,59.970266752709875,
,2,9,2,9,0,0,16,,train_dim1_1,2,30,,,,2,0,2,0,,,,,,,,,0,0,0,0,0,1,1,1,3,0,3,0,,,,,,,,,,,,,,,,,,,,,,,,,,,,,,,,,,,,,,,,,,,,,,,,,,,,,,,,,,,,,,,,30,,,,,,,,2185.797580000013,2185.797580000013,2185.797580000013,2185.797580000013,2185.797580000013,down,1.6774168000556529,0,1,0,99,0,-2.7755575615628914e-17,down,1.5953334998339415,,,,,,,,,,,,,,,,,,,,,,,,,,,,,,,,,,,,,,,,,,,,,,,,,,,,,,,,,,,,VDKA3U,train_x,red_square,top_left,2025-02-21_16h08.47.385,HideSeek_v1,2022.2.5,59.970266752709875,
,2,9,2,9,0,0,16,,train_dim1_1,2,30,,,,2,0,2,0,,,,,,,,,0,0,0,0,0,1,1,1,4,0,4,0,,,,,,,,,,,,,,,,,,,,,,,,,,,,,,,,,,,,,,,,,,,,,,,,,,,,,,,,,,,,,,,,30,,,,,,,,2187.482338800095,2187.482338800095,2187.482338800095,2187.482338800095,2187.482338800095,down,0.5432603000663221,0,1,0,99,0,-0.08000000000000003,down,0.46441749995574355,,,,,,,,,,,,,,,,,,,,,,,,,,,,,,,,,,,,,,,,,,,,,,,,,,,,,,,,,,,,VDKA3U,train_x,red_square,top_left,2025-02-21_16h08.47.385,HideSeek_v1,2022.2.5,59.970266752709875,
,2,9,2,9,0,0,16,,train_dim1_1,2,30,,,,2,0,2,0,,,,,,,,,0,0,0,0,0,1,1,1,5,0,5,0,,,,,,,,,,,,,,,,,,,,,,,,,,,,,,,,,,,,,,,,,,,,,,,,,,,,,,,,,,,,,,,,30,,,,,,,,2188.032619200181,2188.032619200181,2188.032619200181,2188.032619200181,2188.032619200181,return,1.2937046997249126,0,0,0,0,0,-0.08000000000000003,return,1.2065224996767938,-5,4,0,-0.08000000000000003,,,,,,,,,,,,,,,,,,,,,,,,,,,,,,,,,,,,,,,,,,,,,,,,,,,,,,,,VDKA3U,train_x,red_square,top_left,2025-02-21_16h08.47.385,HideSeek_v1,2022.2.5,59.970266752709875,
,4,9,5,9,1,0,26,,train_dim1_1,3,30,,,,2,0,2,0,,,,,,,,,0,0,0,0,0,2,2,2,0,0,0,0,,,,,,,,,,,,,,,,,,,,,,,,,stimuli/alien_stimuli/26.png,,,,,,,,,,,,,,,,,,,,,,,,,,,,,stimuli/alien_stimuli/16.png,16,2,4,,,,,,,30,,,,,,,,2199.906898899935,2199.906898899935,2199.906898899935,2199.906898899935,2199.906898899935,right,4.073551999870688,0,0,0,99,0.24,0.32,right,3.982483100146055,,,,,2198.34138600016,2199.906898899935,0,0.32,0.0,0.0,0.32,0,0.0,0,0.32,2190.9148782999255,2190.9148782999255,2190.9148782999255,2190.9148782999255,2190.9148782999255,2190.9148782999255,2190.9148782999255,2190.9148782999255,2190.90201983992,7.558435200247914,return,7.409909799695015,,,,,,,,,,,,,,,,,,,,,,,,,,,,,,,,,VDKA3U,train_x,red_square,top_left,2025-02-21_16h08.47.385,HideSeek_v1,2022.2.5,59.970266752709875,
,4,9,5,9,1,0,26,,train_dim1_1,3,30,,,,2,0,2,0,,,,,,,,,0,0,0,0,0,2,2,2,1,0,1,0,,,,,,,,,,,,,,,,,,,,,,,,,,,,,,,,,,,,,,,,,,,,,,,,,,,,,,,,,,,,,,,,30,,,,,,,,2203.979403700214,2203.979403700214,2203.979403700214,2203.979403700214,2203.979403700214,right,1.6107470002025366,0,0,0,99,0.32,0.32,right,1.5285089001990855,,,,,,,,,,,,,,,,,,,,,,,,,,,,,,,,,,,,,,,,,,,,,,,,,,,,,,,,,,,,VDKA3U,train_x,red_square,top_left,2025-02-21_16h08.47.385,HideSeek_v1,2022.2.5,59.970266752709875,
,4,9,5,9,1,0,26,,train_dim1_1,3,30,,,,2,0,2,0,,,,,,,,,0,0,0,0,0,2,2,2,2,0,2,0,,,,,,,,,,,,,,,,,,,,,,,,,,,,,,,,,,,,,,,,,,,,,,,,,,,,,,,,,,,,,,,,30,,,,,,,,2205.5973443998955,2205.5973443998955,2205.5973443998955,2205.5973443998955,2205.5973443998955,right,0.7765251002274454,0,0,0,99,0.4,0.32,right,0.6960888998582959,,,,,,,,,,,,,,,,,,,,,,,,,,,,,,,,,,,,,,,,,,,,,,,,,,,,,,,,,,,,VDKA3U,train_x,red_square,top_left,2025-02-21_16h08.47.385,HideSeek_v1,2022.2.5,59.970266752709875,
,4,9,5,9,1,0,26,,train_dim1_1,3,30,,,,2,0,2,0,,,,,,,,,0,0,0,0,0,2,2,2,3,0,3,0,,,,,,,,,,,,,,,,,,,,,,,,,,,,,,,,,,,,,,,,,,,,,,,,,,,,,,,,,,,,,,,,30,,,,,,,,2206.3807498002425,2206.3807498002425,2206.3807498002425,2206.3807498002425,2206.3807498002425,return,2.211612199898809,0,0,0,0,0.4,0.32,return,2.1239919997751713,-5,7,0.4,0.32,,,,,,,,,,,,,,,,,,,,,,,,,,,,,,,,,,,,,,,,,,,,,,,,,,,,,,,,VDKA3U,train_x,red_square,top_left,2025-02-21_16h08.47.385,HideSeek_v1,2022.2.5,59.970266752709875,
,2,8,6,8,4,0,56,,train_dim1_1,4,30,,,,2,0,2,0,,,,,,,,,0,0,0,0,0,3,3,3,0,0,0,0,,,,,,,,,,,,,,,,,,,,,,,,,stimuli/alien_stimuli/56.png,,,,,,,,,,,,,,,,,,,,,,,,,,,,,stimuli/alien_stimuli/26.png,26,4,5,,,,,,,30,,,,,,,,2216.469520200044,2216.469520200044,2216.469520200044,2216.469520200044,2216.469520200044,right,3.3047386999242008,0,0,0,99,0.08,0.24,right,3.219619800336659,,,,,2214.9052936998196,2216.469520200044,0.24,0.32,0.0,0.08,0.32,0.24,0.2,0.24,0.32,2210.177884100005,2210.177884100005,2210.177884100005,2210.177884100005,2210.177884100005,2210.177884100005,2210.177884100005,2210.177884100005,2210.1680920400654,4.856899299658835,return,4.71167859993875,,,,,,,,,,,,,,,,,,,,,,,,,,,,,,,,,VDKA3U,train_x,red_square,top_left,2025-02-21_16h08.47.385,HideSeek_v1,2022.2.5,59.970266752709875,
,2,8,6,8,4,0,56,,train_dim1_1,4,30,,,,2,0,2,0,,,,,,,,,0,0,0,0,0,3,3,3,1,0,1,0,,,,,,,,,,,,,,,,,,,,,,,,,,,,,,,,,,,,,,,,,,,,,,,,,,,,,,,,,,,,,,,,30,,,,,,,,2219.7743958001956,2219.7743958001956,2219.7743958001956,2219.7743958001956,2219.7743958001956,right,0.9935292000882328,0,0,0,99,0.16,0.24,right,0.9110098998062313,,,,,,,,,,,,,,,,,,,,,,,,,,,,,,,,,,,,,,,,,,,,,,,,,,,,,,,,,,,,VDKA3U,train_x,red_square,top_left,2025-02-21_16h08.47.385,HideSeek_v1,2022.2.5,59.970266752709875,
,2,8,6,8,4,0,56,,train_dim1_1,4,30,,,,2,0,2,0,,,,,,,,,0,0,0,0,0,3,3,3,2,0,2,0,,,,,,,,,,,,,,,,,,,,,,,,,,,,,,,,,,,,,,,,,,,,,,,,,,,,,,,,,,,,,,,,30,,,,,,,,2220.774306599982,2220.774306599982,2220.774306599982,2220.774306599982,2220.774306599982,right,1.0271569001488388,0,0,0,99,0.24,0.24,right,0.9501825999468565,,,,,,,,,,,,,,,,,,,,,,,,,,,,,,,,,,,,,,,,,,,,,,,,,,,,,,,,,,,,VDKA3U,train_x,red_square,top_left,2025-02-21_16h08.47.385,HideSeek_v1,2022.2.5,59.970266752709875,
,2,8,6,8,4,0,56,,train_dim1_1,4,30,,,,2,0,2,0,,,,,,,,,0,0,0,0,0,3,3,3,3,0,3,0,,,,,,,,,,,,,,,,,,,,,,,,,,,,,,,,,,,,,,,,,,,,,,,,,,,,,,,,,,,,,,,,30,,,,,,,,2221.8090778002515,2221.8090778002515,2221.8090778002515,2221.8090778002515,2221.8090778002515,right,1.5113280001096427,0,0,0,99,0.32,0.24,right,1.4339462998323143,,,,,,,,,,,,,,,,,,,,,,,,,,,,,,,,,,,,,,,,,,,,,,,,,,,,,,,,,,,,VDKA3U,train_x,red_square,top_left,2025-02-21_16h08.47.385,HideSeek_v1,2022.2.5,59.970266752709875,
,2,8,6,8,4,0,56,,train_dim1_1,4,30,,,,2,0,2,0,,,,,,,,,0,0,0,0,0,3,3,3,4,0,4,0,,,,,,,,,,,,,,,,,,,,,,,,,,,,,,,,,,,,,,,,,,,,,,,,,,,,,,,,,,,,,,,,30,,,,,,,,2223.326947900001,2223.326947900001,2223.326947900001,2223.326947900001,2223.326947900001,right,1.4941424997523427,0,0,0,99,0.4,0.24,right,1.4146878002211452,,,,,,,,,,,,,,,,,,,,,,,,,,,,,,,,,,,,,,,,,,,,,,,,,,,,,,,,,,,,VDKA3U,train_x,red_square,top_left,2025-02-21_16h08.47.385,HideSeek_v1,2022.2.5,59.970266752709875,
,2,8,6,8,4,0,56,,train_dim1_1,4,30,,,,2,0,2,0,,,,,,,,,0,0,0,0,0,3,3,3,5,0,5,0,,,,,,,,,,,,,,,,,,,,,,,,,,,,,,,,,,,,,,,,,,,,,,,,,,,,,,,,,,,,,,,,30,,,,,,,,2224.8284725002013,2224.8284725002013,2224.8284725002013,2224.8284725002013,2224.8284725002013,return,0.5433927001431584,0,1,0,0,0.4,0.24,return,0.46347570000216365,-5,12,0.4,0.24,,,,,,,,,,,,,,,,,,,,,,,,,,,,,,,,,,,,,,,,,,,,,,,,,,,,,,,,VDKA3U,train_x,red_square,top_left,2025-02-21_16h08.47.385,HideSeek_v1,2022.2.5,59.970266752709875,
,0,7,5,7,5,0,66,,train_dim1_1,5,30,,,,2,0,2,0,,,,,,,,,0,0,0,0,0,4,4,4,0,0,0,0,,,,,,,,,,,,,,,,,,,,,,,,,stimuli/alien_stimuli/66.png,,,,,,,,,,,,,,,,,,,,,,,,,,,,,stimuli/alien_stimuli/56.png,56,2,6,,,,,,,30,,,,,,,,2231.82921310002,2231.82921310002,2231.82921310002,2231.82921310002,2231.82921310002,right,1.7706396002322435,0,1,0,99,-0.08,0.16,right,1.678827800322324,,,,,2230.2681929999962,2231.82921310002,0.32,0.24,0.0,0.32,0.24,0.32,0.16,0.32,0.24,2226.951910600066,2226.951910600066,2226.951910600066,2226.951910600066,2226.951910600066,2226.951910600066,2226.951910600066,2226.951910600066,2226.931635910226,3.439101899974048,return,3.286616899538785,,,,,,,,,,,,,,,,,,,,,,,,,,,,,,,,,VDKA3U,train_x,red_square,top_left,2025-02-21_16h08.47.385,HideSeek_v1,2022.2.5,59.970266752709875,
,0,7,5,7,5,0,66,,train_dim1_1,5,30,,,,2,0,2,0,,,,,,,,,0,0,0,0,0,4,4,4,1,0,1,0,,,,,,,,,,,,,,,,,,,,,,,,,,,,,,,,,,,,,,,,,,,,,,,,,,,,,,,,,,,,,,,,30,,,,,,,,2233.6004988998175,2233.6004988998175,2233.6004988998175,2233.6004988998175,2233.6004988998175,right,0.6927908998914063,0,1,0,99,0.0,0.16,right,0.6086220000870526,,,,,,,,,,,,,,,,,,,,,,,,,,,,,,,,,,,,,,,,,,,,,,,,,,,,,,,,,,,,VDKA3U,train_x,red_square,top_left,2025-02-21_16h08.47.385,HideSeek_v1,2022.2.5,59.970266752709875,
,0,7,5,7,5,0,66,,train_dim1_1,5,30,,,,2,0,2,0,,,,,,,,,0,0,0,0,0,4,4,4,2,0,2,0,,,,,,,,,,,,,,,,,,,,,,,,,,,,,,,,,,,,,,,,,,,,,,,,,,,,,,,,,,,,,,,,30,,,,,,,,2234.3003171002492,2234.3003171002492,2234.3003171002492,2234.3003171002492,2234.3003171002492,right,0.8938386999070644,0,1,0,99,0.08,0.16,right,0.8134652003645897,,,,,,,,,,,,,,,,,,,,,,,,,,,,,,,,,,,,,,,,,,,,,,,,,,,,,,,,,,,,VDKA3U,train_x,red_square,top_left,2025-02-21_16h08.47.385,HideSeek_v1,2022.2.5,59.970266752709875,
,0,7,5,7,5,0,66,,train_dim1_1,5,30,,,,2,0,2,0,,,,,,,,,0,0,0,0,0,4,4,4,3,0,3,0,,,,,,,,,,,,,,,,,,,,,,,,,,,,,,,,,,,,,,,,,,,,,,,,,,,,,,,,,,,,,,,,30,,,,,,,,2235.202632599976,2235.202632599976,2235.202632599976,2235.202632599976,2235.202632599976,right,0.6424786001443863,0,1,0,99,0.16,0.16,right,0.5709274997934699,,,,,,,,,,,,,,,,,,,,,,,,,,,,,,,,,,,,,,,,,,,,,,,,,,,,,,,,,,,,VDKA3U,train_x,red_square,top_left,2025-02-21_16h08.47.385,HideSeek_v1,2022.2.5,59.970266752709875,
,0,7,5,7,5,0,66,,train_dim1_1,5,30,,,,2,0,2,0,,,,,,,,,0,0,0,0,0,4,4,4,4,0,4,0,,,,,,,,,,,,,,,,,,,,,,,,,,,,,,,,,,,,,,,,,,,,,,,,,,,,,,,,,,,,,,,,30,,,,,,,,2235.851799100172,2235.851799100172,2235.851799100172,2235.851799100172,2235.851799100172,return,1.8614205000922084,0,1,0,0,0.16,0.16,return,1.7751750000752509,-5,16,0.16,0.16,,,,,,,,,,,,,,,,,,,,,,,,,,,,,,,,,,,,,,,,,,,,,,,,,,,,,,,,VDKA3U,train_x,red_square,top_left,2025-02-21_16h08.47.385,HideSeek_v1,2022.2.5,59.970266752709875,
,0,5,1,5,1,0,26,,train_dim1_1,6,30,,,,2,0,2,0,,,,,,,,,0,0,0,0,0,5,5,5,0,0,0,0,,,,,,,,,,,,,,,,,,,,,,,,,stimuli/alien_stimuli/26.png,,,,,,,,,,,,,,,,,,,,,,,,,,,,,stimuli/alien_stimuli/66.png,66,0,7,,,,,,,30,,,,,,,,2245.162912100088,2245.162912100088,2245.162912100088,2245.162912100088,2245.162912100088,right,3.455089299939573,0,1,0,99,-0.08,0,right,3.3657435001805425,,,,,2243.5954089998268,2245.162912100088,0.24,0.16,0.0,0.4,0.16,0.24,0.039999999999999994,0.24,0.16,2239.2947462000884,2239.2947462000884,2239.2947462000884,2239.2947462000884,2239.2947462000884,2239.2947462000884,2239.2947462000884,2239.2947462000884,2239.2753452100324,4.42270109988749,return,4.274547399953008,,,,,,,,,,,,,,,,,,,,,,,,,,,,,,,,,VDKA3U,train_x,red_square,top_left,2025-02-21_16h08.47.385,HideSeek_v1,2022.2.5,59.970266752709875,
,0,5,1,5,1,0,26,,train_dim1_1,6,30,,,,2,0,2,0,,,,,,,,,0,0,0,0,0,5,5,5,1,0,1,0,,,,,,,,,,,,,,,,,,,,,,,,,,,,,,,,,,,,,,,,,,,,,,,,,,,,,,,,,,,,,,,,30,,,,,,,,2248.616781400051,2248.616781400051,2248.616781400051,2248.616781400051,2248.616781400051,right,0.17628650041297078,0,1,0,99,0.0,0,right,0.08543110033497214,,,,,,,,,,,,,,,,,,,,,,,,,,,,,,,,,,,,,,,,,,,,,,,,,,,,,,,,,,,,VDKA3U,train_x,red_square,top_left,2025-02-21_16h08.47.385,HideSeek_v1,2022.2.5,59.970266752709875,
,0,5,1,5,1,0,26,,train_dim1_1,6,30,,,,2,0,2,0,,,,,,,,,0,0,0,0,0,5,5,5,2,0,2,0,,,,,,,,,,,,,,,,,,,,,,,,,,,,,,,,,,,,,,,,,,,,,,,,,,,,,,,,,,,,,,,,30,,,,,,,,2248.8002961999737,2248.8002961999737,2248.8002961999737,2248.8002961999737,2248.8002961999737,return,1.9275018000043929,0,1,0,0,0.0,0,return,1.8472834997810423,-5,18,0.0,0,,,,,,,,,,,,,,,,,,,,,,,,,,,,,,,,,,,,,,,,,,,,,,,,,,,,,,,,VDKA3U,train_x,red_square,top_left,2025-02-21_16h08.47.385,HideSeek_v1,2022.2.5,59.970266752709875,
,3,5,8,5,5,0,66,,train_dim1_1,7,30,,,,2,0,2,0,,,,,,,,,0,0,0,0,0,6,6,6,0,0,0,0,,,,,,,,,,,,,,,,,,,,,,,,,stimuli/alien_stimuli/66.png,,,,,,,,,,,,,,,,,,,,,,,,,,,,,stimuli/alien_stimuli/26.png,26,0,8,,,,,,,30,,,,,,,,2256.832915000152,2256.832915000152,2256.832915000152,2256.832915000152,2256.832915000152,right,1.787809600122273,0,1,0,99,0.16,0,right,1.6931896000169218,,,,,2255.2719280999154,2256.832915000152,-0.08,0,0.0,0.08,0.0,-0.08,-0.12,-0.08,0,2252.3064397000708,2252.3064397000708,2252.3064397000708,2252.3064397000708,2252.3064397000708,2252.3064397000708,2252.3064397000708,2252.3064397000708,2252.2861952102276,3.0883177001960576,return,2.946183000225574,,,,,,,,,,,,,,,,,,,,,,,,,,,,,,,,,VDKA3U,train_x,red_square,top_left,2025-02-21_16h08.47.385,HideSeek_v1,2022.2.5,59.970266752709875,
,3,5,8,5,5,0,66,,train_dim1_1,7,30,,,,2,0,2,0,,,,,,,,,0,0,0,0,0,6,6,6,1,0,1,0,,,,,,,,,,,,,,,,,,,,,,,,,,,,,,,,,,,,,,,,,,,,,,,,,,,,,,,,,,,,,,,,30,,,,,,,,2258.62203089986,2258.62203089986,2258.62203089986,2258.62203089986,2258.62203089986,right,0.8269838001579046,0,1,0,99,0.24,0,right,0.7444632998667657,,,,,,,,,,,,,,,,,,,,,,,,,,,,,,,,,,,,,,,,,,,,,,,,,,,,,,,,,,,,VDKA3U,train_x,red_square,top_left,2025-02-21_16h08.47.385,HideSeek_v1,2022.2.5,59.970266752709875,
,3,5,8,5,5,0,66,,train_dim1_1,7,30,,,,2,0,2,0,,,,,,,,,0,0,0,0,0,6,6,6,2,0,2,0,,,,,,,,,,,,,,,,,,,,,,,,,,,,,,,,,,,,,,,,,,,,,,,,,,,,,,,,,,,,,,,,30,,,,,,,,2259.4575415998697,2259.4575415998697,2259.4575415998697,2259.4575415998697,2259.4575415998697,right,0.7579133999533951,0,1,0,99,0.32,0,right,0.6747877998277545,,,,,,,,,,,,,,,,,,,,,,,,,,,,,,,,,,,,,,,,,,,,,,,,,,,,,,,,,,,,VDKA3U,train_x,red_square,top_left,2025-02-21_16h08.47.385,HideSeek_v1,2022.2.5,59.970266752709875,
,3,5,8,5,5,0,66,,train_dim1_1,7,30,,,,2,0,2,0,,,,,,,,,0,0,0,0,0,6,6,6,3,0,3,0,,,,,,,,,,,,,,,,,,,,,,,,,,,,,,,,,,,,,,,,,,,,,,,,,,,,,,,,,,,,,,,,30,,,,,,,,2260.2217291998677,2260.2217291998677,2260.2217291998677,2260.2217291998677,2260.2217291998677,right,0.8105472000315785,0,1,0,99,0.4,0,right,0.7292793998494744,,,,,,,,,,,,,,,,,,,,,,,,,,,,,,,,,,,,,,,,,,,,,,,,,,,,,,,,,,,,VDKA3U,train_x,red_square,top_left,2025-02-21_16h08.47.385,HideSeek_v1,2022.2.5,59.970266752709875,
,3,5,8,5,5,0,66,,train_dim1_1,7,30,,,,2,0,2,0,,,,,,,,,0,0,0,0,0,6,6,6,4,0,4,0,,,,,,,,,,,,,,,,,,,,,,,,,,,,,,,,,,,,,,,,,,,,,,,,,,,,,,,,,,,,,,,,30,,,,,,,,2261.040362600237,2261.040362600237,2261.040362600237,2261.040362600237,2261.040362600237,right,0.7268384001217782,0,1,0,99,0.48000000000000004,0,right,0.6412749998271465,,,,,,,,,,,,,,,,,,,,,,,,,,,,,,,,,,,,,,,,,,,,,,,,,,,,,,,,,,,,VDKA3U,train_x,red_square,top_left,2025-02-21_16h08.47.385,HideSeek_v1,2022.2.5,59.970266752709875,
,3,5,8,5,5,0,66,,train_dim1_1,7,30,,,,2,0,2,0,,,,,,,,,0,0,0,0,0,6,6,6,5,0,5,0,,,,,,,,,,,,,,,,,,,,,,,,,,,,,,,,,,,,,,,,,,,,,,,,,,,,,,,,,,,,,,,,30,,,,,,,,2261.77350739995,2261.77350739995,2261.77350739995,2261.77350739995,2261.77350739995,return,0.8600486000068486,1,0,0,1,0.48000000000000004,0,return,0.7782228998839855,-5,23,0.48000000000000004,0,,,,,,,,,,,,,,,,,,,,,,,,,,,,,,,,,,,,,,,,,,,,,,,,,,,,,,,,VDKA3U,train_x,red_square,top_left,2025-02-21_16h08.47.385,HideSeek_v1,2022.2.5,59.970266752709875,
,0,9,3,9,3,0,46,,train_dim1_1,8,30,,,,2,0,2,0,,,,,,,,,0,0,0,0,0,7,7,7,0,0,0,0,,,,,,,,,,,,,,,,,,,,,,,,,stimuli/alien_stimuli/46.png,,,,,,,,,,,,,,,,,,,,,,,,,,,,,stimuli/alien_stimuli/66.png,66,3,9,,,,,,,30,,,,,,,,2268.4077669000253,2268.4077669000253,2268.4077669000253,2268.4077669000253,2268.4077669000253,right,4.373731200117618,1,0,0,99,-0.08,0.32,right,4.293422200251371,,,,,2266.8482299000025,2268.4077669000253,0.48,0,0.0,0.4,0.0,0.48,0.27999999999999997,0.48,0,2264.198638400063,2264.198638400063,2264.198638400063,2264.198638400063,2264.198638400063,2264.198638400063,2264.198638400063,2264.198638400063,2264.1795727800577,2.754119799938053,return,2.6182102002203465,,,,,,,,,,,,,,,,,,,,,,,,,,,,,,,,,VDKA3U,train_x,red_square,top_left,2025-02-21_16h08.47.385,HideSeek_v1,2022.2.5,59.970266752709875,
,0,9,3,9,3,0,46,,train_dim1_1,8,30,,,,2,0,2,0,,,,,,,,,0,0,0,0,0,7,7,7,1,0,1,0,,,,,,,,,,,,,,,,,,,,,,,,,,,,,,,,,,,,,,,,,,,,,,,,,,,,,,,,,,,,,,,,30,,,,,,,,2272.784080100246,2272.784080100246,2272.784080100246,2272.784080100246,2272.784080100246,right,1.1932760002091527,1,0,0,99,0.0,0.32,right,1.11484370008111,,,,,,,,,,,,,,,,,,,,,,,,,,,,,,,,,,,,,,,,,,,,,,,,,,,,,,,,,,,,VDKA3U,train_x,red_square,top_left,2025-02-21_16h08.47.385,HideSeek_v1,2022.2.5,59.970266752709875,
,0,9,3,9,3,0,46,,train_dim1_1,8,30,,,,2,0,2,0,,,,,,,,,0,0,0,0,0,7,7,7,2,0,2,0,,,,,,,,,,,,,,,,,,,,,,,,,,,,,,,,,,,,,,,,,,,,,,,,,,,,,,,,,,,,,,,,30,,,,,,,,2273.9843756002374,2273.9843756002374,2273.9843756002374,2273.9843756002374,2273.9843756002374,return,0.5757838999852538,1,1,0,0,0.0,0.32,return,0.5029470003210008,-5,25,0.0,0.32,,,,,,,,,,,,,,,,,,,,,,,,,,,,,,,,,,,,,,,,,,,,,,,,,,,,,,,,VDKA3U,train_x,red_square,top_left,2025-02-21_16h08.47.385,HideSeek_v1,2022.2.5,59.970266752709875,
,1,5,5,5,4,0,56,,train_dim1_1,9,30,,,,2,0,2,0,,,,,,,,,0,0,0,0,0,8,8,8,0,0,0,0,,,,,,,,,,,,,,,,,,,,,,,,,stimuli/alien_stimuli/56.png,,,,,,,,,,,,,,,,,,,,,,,,,,,,,stimuli/alien_stimuli/46.png,46,0,10,,,,,,,30,,,,,,,,2280.1140652000904,2280.1140652000904,2280.1140652000904,2280.1140652000904,2280.1140652000904,right,1.5921223000623286,1,1,0,99,0.0,0,right,1.4846119997091591,,,,,2278.524633000139,2280.1140652000904,0.08,0.32,0.0,0.24,0.32,0.08,-0.04,0.08,0.32,2276.136767399963,2276.136767399963,2276.136767399963,2276.136767399963,2276.136767399963,2276.136767399963,2276.136767399963,2276.136767399963,2276.122544010216,2.504278199747205,return,2.361963300034404,,,,,,,,,,,,,,,,,,,,,,,,,,,,,,,,,VDKA3U,train_x,red_square,top_left,2025-02-21_16h08.47.385,HideSeek_v1,2022.2.5,59.970266752709875,
,1,5,5,5,4,0,56,,train_dim1_1,9,30,,,,2,0,2,0,,,,,,,,,0,0,0,0,0,8,8,8,1,0,1,0,,,,,,,,,,,,,,,,,,,,,,,,,,,,,,,,,,,,,,,,,,,,,,,,,,,,,,,,,,,,,,,,30,,,,,,,,2281.693441499956,2281.693441499956,2281.693441499956,2281.693441499956,2281.693441499956,right,0.6926293997094035,1,1,0,99,0.08,0,right,0.6026034001260996,,,,,,,,,,,,,,,,,,,,,,,,,,,,,,,,,,,,,,,,,,,,,,,,,,,,,,,,,,,,VDKA3U,train_x,red_square,top_left,2025-02-21_16h08.47.385,HideSeek_v1,2022.2.5,59.970266752709875,
,1,5,5,5,4,0,56,,train_dim1_1,9,30,,,,2,0,2,0,,,,,,,,,0,0,0,0,0,8,8,8,2,0,2,0,,,,,,,,,,,,,,,,,,,,,,,,,,,,,,,,,,,,,,,,,,,,,,,,,,,,,,,,,,,,,,,,30,,,,,,,,2282.3935048999265,2282.3935048999265,2282.3935048999265,2282.3935048999265,2282.3935048999265,right,0.6257453002035618,1,1,0,99,0.16,0,right,0.5472220000810921,,,,,,,,,,,,,,,,,,,,,,,,,,,,,,,,,,,,,,,,,,,,,,,,,,,,,,,,,,,,VDKA3U,train_x,red_square,top_left,2025-02-21_16h08.47.385,HideSeek_v1,2022.2.5,59.970266752709875,
,1,5,5,5,4,0,56,,train_dim1_1,9,30,,,,2,0,2,0,,,,,,,,,0,0,0,0,0,8,8,8,3,0,3,0,,,,,,,,,,,,,,,,,,,,,,,,,,,,,,,,,,,,,,,,,,,,,,,,,,,,,,,,,,,,,,,,30,,,,,,,,2283.0268735000864,2283.0268735000864,2283.0268735000864,2283.0268735000864,2283.0268735000864,right,0.5931359999813139,1,1,0,99,0.24,0,right,0.5097413999028504,,,,,,,,,,,,,,,,,,,,,,,,,,,,,,,,,,,,,,,,,,,,,,,,,,,,,,,,,,,,VDKA3U,train_x,red_square,top_left,2025-02-21_16h08.47.385,HideSeek_v1,2022.2.5,59.970266752709875,
,1,5,5,5,4,0,56,,train_dim1_1,9,30,,,,2,0,2,0,,,,,,,,,0,0,0,0,0,8,8,8,4,0,4,0,,,,,,,,,,,,,,,,,,,,,,,,,,,,,,,,,,,,,,,,,,,,,,,,,,,,,,,,,,,,,,,,30,,,,,,,,2283.626625900157,2283.626625900157,2283.626625900157,2283.626625900157,2283.626625900157,return,0.6437364001758397,2,0,0,1,0.24,0,return,0.557067799847573,-5,29,0.24,0,,,,,,,,,,,,,,,,,,,,,,,,,,,,,,,,,,,,,,,,,,,,,,,,,,,,,,,,VDKA3U,train_x,red_square,top_left,2025-02-21_16h08.47.385,HideSeek_v1,2022.2.5,59.970266752709875,
,0,8,0,8,0,0,16,,train_dim1_1,10,30,,,,2,0,2,0,,,,,,,,,0,0,0,0,0,9,9,9,0,0,0,0,,,,,,,,,,,,,,,,,,,,,,,,,stimuli/alien_stimuli/16.png,,,,,,,,,,,,,,,,,,,,,,,,,,,,,stimuli/alien_stimuli/56.png,56,1,11,,,,,,,30,,,,,,,,2289.2315412000753,2289.2315412000753,2289.2315412000753,2289.2315412000753,2289.2315412000753,right,1.6201864001341164,2,0,0,99,-0.08,0.24,right,1.5149793000891805,,,,,2287.6487590000033,2289.2315412000753,0.24,0,0.0,0.32,0.0,0.24,0.07999999999999999,0.24,0,2285.833708500024,2285.833708500024,2285.833708500024,2285.833708500024,2285.833708500024,2285.833708500024,2285.833708500024,2285.833708500024,2285.8137496802024,1.9205156997777522,return,1.7945413002744317,,,,,,,,,,,,,,,,,,,,,,,,,,,,,,,,,VDKA3U,train_x,red_square,top_left,2025-02-21_16h08.47.385,HideSeek_v1,2022.2.5,59.970266752709875,
,0,8,0,8,0,0,16,,train_dim1_1,10,30,,,,2,0,2,0,,,,,,,,,0,0,0,0,0,9,9,9,1,0,1,0,,,,,,,,,,,,,,,,,,,,,,,,,,,,,,,,,,,,,,,,,,,,,,,,,,,,,,,,,,,,,,,,30,,,,,,,,2290.8377399998717,2290.8377399998717,2290.8377399998717,2290.8377399998717,2290.8377399998717,return,0.5744492998346686,2,1,0,0,-0.08,0.24,return,0.4937229002825916,-5,30,-0.08,0.24,,,,,,,,,,,,,,,,,,,,,,,,,,,,,,,,,,,,,,,,,,,,,,,,,,,,,,,,VDKA3U,train_x,red_square,top_left,2025-02-21_16h08.47.385,HideSeek_v1,2022.2.5,59.970266752709875,
,2,7,5,7,3,0,46,,train_dim1_1,11,30,,,,2,0,2,0,,,,,,,,,0,0,0,0,0,10,10,10,0,0,0,0,,,,,,,,,,,,,,,,,,,,,,,,,stimuli/alien_stimuli/46.png,,,,,,,,,,,,,,,,,,,,,,,,,,,,,stimuli/alien_stimuli/16.png,16,0,12,,,,,,,30,,,,,,,,2297.799271900207,2297.799271900207,2297.799271900207,2297.799271900207,2297.799271900207,right,1.537046399898827,2,1,0,99,0.08,0.16,right,1.455829500220716,,,,,2296.2393430001102,2297.799271900207,-0.16,0.24,0.0,0.0,0.24,-0.16,-0.16,-0.16,0.24,2292.9754762002267,2292.9754762002267,2292.9754762002267,2292.9754762002267,2292.9754762002267,2292.9754762002267,2292.9754762002267,2292.9754762002267,2292.969207509933,3.372600599657744,return,3.23485350003466,,,,,,,,,,,,,,,,,,,,,,,,,,,,,,,,,VDKA3U,train_x,red_square,top_left,2025-02-21_16h08.47.385,HideSeek_v1,2022.2.5,59.970266752709875,
,2,7,5,7,3,0,46,,train_dim1_1,11,30,,,,2,0,2,0,,,,,,,,,0,0,0,0,0,10,10,10,1,0,1,0,,,,,,,,,,,,,,,,,,,,,,,,,,,,,,,,,,,,,,,,,,,,,,,,,,,,,,,,,,,,,,,,30,,,,,,,,2299.3370710001327,2299.3370710001327,2299.3370710001327,2299.3370710001327,2299.3370710001327,right,0.7267124000936747,2,1,0,99,0.16,0.16,right,0.6560937003232539,,,,,,,,,,,,,,,,,,,,,,,,,,,,,,,,,,,,,,,,,,,,,,,,,,,,,,,,,,,,VDKA3U,train_x,red_square,top_left,2025-02-21_16h08.47.385,HideSeek_v1,2022.2.5,59.970266752709875,
,2,7,5,7,3,0,46,,train_dim1_1,11,30,,,,2,0,2,0,,,,,,,,,0,0,0,0,0,10,10,10,2,0,2,0,,,,,,,,,,,,,,,,,,,,,,,,,,,,,,,,,,,,,,,,,,,,,,,,,,,,,,,,,,,,,,,,30,,,,,,,,2300.071605700068,2300.071605700068,2300.071605700068,2300.071605700068,2300.071605700068,right,0.5937433000653982,2,1,0,99,0.24,0.16,right,0.520253200083971,,,,,,,,,,,,,,,,,,,,,,,,,,,,,,,,,,,,,,,,,,,,,,,,,,,,,,,,,,,,VDKA3U,train_x,red_square,top_left,2025-02-21_16h08.47.385,HideSeek_v1,2022.2.5,59.970266752709875,
,2,7,5,7,3,0,46,,train_dim1_1,11,30,,,,2,0,2,0,,,,,,,,,0,0,0,0,0,10,10,10,3,0,3,0,,,,,,,,,,,,,,,,,,,,,,,,,,,,,,,,,,,,,,,,,,,,,,,,,,,,,,,,,,,,,,,,30,,,,,,,,2300.672223099973,2300.672223099973,2300.672223099973,2300.672223099973,2300.672223099973,return,0.7104040002450347,3,0,0,1,0.24,0.16,return,0.6373525997623801,-5,33,0.24,0.16,,,,,,,,,,,,,,,,,,,,,,,,,,,,,,,,,,,,,,,,,,,,,,,,,,,,,,,,VDKA3U,train_x,red_square,top_left,2025-02-21_16h08.47.385,HideSeek_v1,2022.2.5,59.970266752709875,
,0,5,1,5,1,0,26,,train_dim1_1,12,30,,,,2,0,2,0,,,,,,,,,0,0,0,0,0,11,11,11,0,0,0,0,,,,,,,,,,,,,,,,,,,,,,,,,stimuli/alien_stimuli/26.png,,,,,,,,,,,,,,,,,,,,,,,,,,,,,stimuli/alien_stimuli/46.png,46,2,13,,,,,,,30,,,,,,,,2306.1599749000743,2306.1599749000743,2306.1599749000743,2306.1599749000743,2306.1599749000743,right,1.2735457997769117,3,0,0,99,-0.08,0,right,1.1706220000050962,,,,,2304.579222400207,2306.1599749000743,0.24,0.16,0.0,0.24,0.16,0.24,0.12,0.24,0.16,2302.94755910011,2302.94755910011,2302.94755910011,2302.94755910011,2302.94755910011,2302.94755910011,2302.94755910011,2302.94755910011,2302.928224080149,1.7365084001794457,return,1.6000848999246955,,,,,,,,,,,,,,,,,,,,,,,,,,,,,,,,,VDKA3U,train_x,red_square,top_left,2025-02-21_16h08.47.385,HideSeek_v1,2022.2.5,59.970266752709875,
,0,5,1,5,1,0,26,,train_dim1_1,12,30,,,,2,0,2,0,,,,,,,,,0,0,0,0,0,11,11,11,1,0,1,0,,,,,,,,,,,,,,,,,,,,,,,,,,,,,,,,,,,,,,,,,,,,,,,,,,,,,,,,,,,,,,,,30,,,,,,,,2307.415886099916,2307.415886099916,2307.415886099916,2307.415886099916,2307.415886099916,return,0.40899649960920215,4,0,0,1,-0.08,0,return,0.32046590000391006,-5,34,-0.08,0,,,,,,,,,,,,,,,,,,,,,,,,,,,,,,,,,,,,,,,,,,,,,,,,,,,,,,,,VDKA3U,train_x,red_square,top_left,2025-02-21_16h08.47.385,HideSeek_v1,2022.2.5,59.970266752709875,
,0,9,4,9,4,0,45,,train_dim1_1,13,30,,,,2,0,2,0,,,,,,,,,0,0,0,0,0,12,12,12,0,0,0,0,,,,,,,,,,,,,,,,,,,,,,,,,stimuli/alien_stimuli/45.png,,,,,,,,,,,,,,,,,,,,,,,,,,,,,stimuli/alien_stimuli/26.png,26,0,14,,,,,,,30,,,,,,,,2312.6104488000274,2312.6104488000274,2312.6104488000274,2312.6104488000274,2312.6104488000274,right,1.1227649999782443,4,0,0,99,-0.08,0.32,right,1.0283998004160821,,,,,2311.0513341999613,2312.6104488000274,-0.08,0,0.0,0.08,0.0,-0.08,-0.12,-0.08,0,2309.3893197998405,2309.3893197998405,2309.3893197998405,2309.3893197998405,2309.3893197998405,2309.3893197998405,2309.3893197998405,2309.3893197998405,2309.3668500798753,1.770183500368148,return,1.6353771998547018,,,,,,,,,,,,,,,,,,,,,,,,,,,,,,,,,VDKA3U,train_x,red_square,top_left,2025-02-21_16h08.47.385,HideSeek_v1,2022.2.5,59.970266752709875,
,0,9,4,9,4,0,45,,train_dim1_1,13,30,,,,2,0,2,0,,,,,,,,,0,0,0,0,0,12,12,12,1,0,1,0,,,,,,,,,,,,,,,,,,,,,,,,,,,,,,,,,,,,,,,,,,,,,,,,,,,,,,,,,,,,,,,,30,,,,,,,,2313.732711300254,2313.732711300254,2313.732711300254,2313.732711300254,2313.732711300254,right,0.5596044003032148,4,0,0,99,0.0,0.32,right,0.4811662998981774,,,,,,,,,,,,,,,,,,,,,,,,,,,,,,,,,,,,,,,,,,,,,,,,,,,,,,,,,,,,VDKA3U,train_x,red_square,top_left,2025-02-21_16h08.47.385,HideSeek_v1,2022.2.5,59.970266752709875,
,0,9,4,9,4,0,45,,train_dim1_1,13,30,,,,2,0,2,0,,,,,,,,,0,0,0,0,0,12,12,12,2,0,2,0,,,,,,,,,,,,,,,,,,,,,,,,,,,,,,,,,,,,,,,,,,,,,,,,,,,,,,,,,,,,,,,,30,,,,,,,,2314.2988641001284,2314.2988641001284,2314.2988641001284,2314.2988641001284,2314.2988641001284,right,0.5433260002173483,4,0,0,99,0.08,0.32,right,0.4721467001363635,,,,,,,,,,,,,,,,,,,,,,,,,,,,,,,,,,,,,,,,,,,,,,,,,,,,,,,,,,,,VDKA3U,train_x,red_square,top_left,2025-02-21_16h08.47.385,HideSeek_v1,2022.2.5,59.970266752709875,
,0,9,4,9,4,0,45,,train_dim1_1,13,30,,,,2,0,2,0,,,,,,,,,0,0,0,0,0,12,12,12,3,0,3,0,,,,,,,,,,,,,,,,,,,,,,,,,,,,,,,,,,,,,,,,,,,,,,,,,,,,,,,,,,,,,,,,30,,,,,,,,2314.8493921002373,2314.8493921002373,2314.8493921002373,2314.8493921002373,2314.8493921002373,return,0.6601097001694143,4,1,0,0,0.08,0.32,return,0.5842385999858379,-5,37,0.08,0.32,,,,,,,,,,,,,,,,,,,,,,,,,,,,,,,,,,,,,,,,,,,,,,,,,,,,,,,,VDKA3U,train_x,red_square,top_left,2025-02-21_16h08.47.385,HideSeek_v1,2022.2.5,59.970266752709875,
,4,8,4,8,0,0,16,,train_dim1_1,14,30,,,,2,0,2,0,,,,,,,,,0,0,0,0,0,13,13,13,0,0,0,0,,,,,,,,,,,,,,,,,,,,,,,,,stimuli/alien_stimuli/16.png,,,,,,,,,,,,,,,,,,,,,,,,,,,,,stimuli/alien_stimuli/45.png,45,0,15,,,,,,,30,,,,,,,,2320.83730390016,2320.83730390016,2320.83730390016,2320.83730390016,2320.83730390016,return,1.553598899859935,5,0,0,1,0.16,0.24,return,1.4439048999920487,-5,37,0.16,0.24,2319.2583718001842,2320.83730390016,0.16,0.32,0.0,0.32,0.32,0.16,0.0,0.16,0.32,2317.0777473999187,2317.0777473999187,2317.0777473999187,2317.0777473999187,2317.0777473999187,2317.0777473999187,2317.0777473999187,2317.0777473999187,2317.0566490799188,2.2868512999266386,return,2.14922030037269,,,,,,,,,,,,,,,,,,,,,,,,,,,,,,,,,VDKA3U,train_x,red_square,top_left,2025-02-21_16h08.47.385,HideSeek_v1,2022.2.5,59.970266752709875,
,4,7,9,7,5,0,66,,train_dim1_1,15,30,,,,2,0,2,0,,,,,,,,,0,0,0,0,0,14,14,14,0,0,0,0,,,,,,,,,,,,,,,,,,,,,,,,,stimuli/alien_stimuli/66.png,,,,,,,,,,,,,,,,,,,,,,,,,,,,,stimuli/alien_stimuli/16.png,16,4,16,,,,,,,30,,,,,,,,2328.1740660001524,2328.1740660001524,2328.1740660001524,2328.1740660001524,2328.1740660001524,right,0.8230723002925515,5,0,0,99,0.24,0.16,right,0.7379128998145461,,,,,2326.6142723998055,2328.1740660001524,0.16,0.24,0.0,0.0,0.24,0.16,0.16,0.16,0.24,2323.937056200113,2323.937056200113,2323.937056200113,2323.937056200113,2323.937056200113,2323.937056200113,2323.937056200113,2323.937056200113,2323.9288178100715,2.78783299960196,return,2.6602233997546136,,,,,,,,,,,,,,,,,,,,,,,,,,,,,,,,,VDKA3U,train_x,red_square,top_left,2025-02-21_16h08.47.385,HideSeek_v1,2022.2.5,59.970266752709875,
,4,7,9,7,5,0,66,,train_dim1_1,15,30,,,,2,0,2,0,,,,,,,,,0,0,0,0,0,14,14,14,1,0,1,0,,,,,,,,,,,,,,,,,,,,,,,,,,,,,,,,,,,,,,,,,,,,,,,,,,,,,,,,,,,,,,,,30,,,,,,,,2328.9957313998602,2328.9957313998602,2328.9957313998602,2328.9957313998602,2328.9957313998602,right,0.6435084999538958,5,0,0,99,0.32,0.16,right,0.5574034000746906,,,,,,,,,,,,,,,,,,,,,,,,,,,,,,,,,,,,,,,,,,,,,,,,,,,,,,,,,,,,VDKA3U,train_x,red_square,top_left,2025-02-21_16h08.47.385,HideSeek_v1,2022.2.5,59.970266752709875,
,4,7,9,7,5,0,66,,train_dim1_1,15,30,,,,2,0,2,0,,,,,,,,,0,0,0,0,0,14,14,14,2,0,2,0,,,,,,,,,,,,,,,,,,,,,,,,,,,,,,,,,,,,,,,,,,,,,,,,,,,,,,,,,,,,,,,,30,,,,,,,,2329.646816799883,2329.646816799883,2329.646816799883,2329.646816799883,2329.646816799883,right,0.5264507997781038,5,0,0,99,0.4,0.16,right,0.45176640013232827,,,,,,,,,,,,,,,,,,,,,,,,,,,,,,,,,,,,,,,,,,,,,,,,,,,,,,,,,,,,VDKA3U,train_x,red_square,top_left,2025-02-21_16h08.47.385,HideSeek_v1,2022.2.5,59.970266752709875,
,4,7,9,7,5,0,66,,train_dim1_1,15,30,,,,2,0,2,0,,,,,,,,,0,0,0,0,0,14,14,14,3,0,3,0,,,,,,,,,,,,,,,,,,,,,,,,,,,,,,,,,,,,,,,,,,,,,,,,,,,,,,,,,,,,,,,,30,,,,,,,,2330.179136699997,2330.179136699997,2330.179136699997,2330.179136699997,2330.179136699997,right,0.5271605001762509,5,0,0,99,0.48000000000000004,0.16,right,0.45499640004709363,,,,,,,,,,,,,,,,,,,,,,,,,,,,,,,,,,,,,,,,,,,,,,,,,,,,,,,,,,,,VDKA3U,train_x,red_square,top_left,2025-02-21_16h08.47.385,HideSeek_v1,2022.2.5,59.970266752709875,
,4,7,9,7,5,0,66,,train_dim1_1,15,30,,,,2,0,2,0,,,,,,,,,0,0,0,0,0,14,14,14,4,0,4,0,,,,,,,,,,,,,,,,,,,,,,,,,,,,,,,,,,,,,,,,,,,,,,,,,,,,,,,,,,,,,,,,30,,,,,,,,2330.7155936998315,2330.7155936998315,2330.7155936998315,2330.7155936998315,2330.7155936998315,right,0.5083459001034498,5,0,0,99,0.56,0.16,right,0.42358290031552315,,,,,,,,,,,,,,,,,,,,,,,,,,,,,,,,,,,,,,,,,,,,,,,,,,,,,,,,,,,,VDKA3U,train_x,red_square,top_left,2025-02-21_16h08.47.385,HideSeek_v1,2022.2.5,59.970266752709875,
,4,7,9,7,5,0,66,,train_dim1_1,15,30,,,,2,0,2,0,,,,,,,,,0,0,0,0,0,14,14,14,5,0,5,0,,,,,,,,,,,,,,,,,,,,,,,,,,,,,,,,,,,,,,,,,,,,,,,,,,,,,,,,,,,,,,,,30,,,,,,,,2331.2308002999052,2331.2308002999052,2331.2308002999052,2331.2308002999052,2331.2308002999052,return,0.5601290999911726,6,0,0,1,0.56,0.16,return,0.47271050000563264,-5,42,0.56,0.16,,,,,,,,,,,,,,,,,,,,,,,,,,,,,,,,,,,,,,,,,,,,,,,,,,,,,,,,VDKA3U,train_x,red_square,top_left,2025-02-21_16h08.47.385,HideSeek_v1,2022.2.5,59.970266752709875,
,3,8,7,8,4,0,56,,train_dim1_1,16,30,,,,2,0,2,0,,,,,,,,,0,0,0,0,0,15,15,15,0,0,0,0,,,,,,,,,,,,,,,,,,,,,,,,,stimuli/alien_stimuli/56.png,,,,,,,,,,,,,,,,,,,,,,,,,,,,,stimuli/alien_stimuli/66.png,66,4,17,,,,,,,30,,,,,,,,2337.1991142001934,2337.1991142001934,2337.1991142001934,2337.1991142001934,2337.1991142001934,right,1.3229589997790754,6,0,0,99,0.16,0.24,right,1.2190578002482653,,,,,2335.621697000228,2337.1991142001934,0.56,0.16,0.0,0.4,0.16,0.56,0.36000000000000004,0.56,0.16,2333.352863300126,2333.352863300126,2333.352863300126,2333.352863300126,2333.352863300126,2333.352863300126,2333.352863300126,2333.352863300126,2333.3368940799496,2.3703283998183906,return,2.2456978000700474,,,,,,,,,,,,,,,,,,,,,,,,,,,,,,,,,VDKA3U,train_x,red_square,top_left,2025-02-21_16h08.47.385,HideSeek_v1,2022.2.5,59.970266752709875,
,3,8,7,8,4,0,56,,train_dim1_1,16,30,,,,2,0,2,0,,,,,,,,,0,0,0,0,0,15,15,15,1,0,1,0,,,,,,,,,,,,,,,,,,,,,,,,,,,,,,,,,,,,,,,,,,,,,,,,,,,,,,,,,,,,,,,,30,,,,,,,,2338.5264435000718,2338.5264435000718,2338.5264435000718,2338.5264435000718,2338.5264435000718,right,0.6157232001423836,6,0,0,99,0.24,0.24,right,0.5089478003792465,,,,,,,,,,,,,,,,,,,,,,,,,,,,,,,,,,,,,,,,,,,,,,,,,,,,,,,,,,,,VDKA3U,train_x,red_square,top_left,2025-02-21_16h08.47.385,HideSeek_v1,2022.2.5,59.970266752709875,
,3,8,7,8,4,0,56,,train_dim1_1,16,30,,,,2,0,2,0,,,,,,,,,0,0,0,0,0,15,15,15,2,0,2,0,,,,,,,,,,,,,,,,,,,,,,,,,,,,,,,,,,,,,,,,,,,,,,,,,,,,,,,,,,,,,,,,30,,,,,,,,2339.1407455001026,2339.1407455001026,2339.1407455001026,2339.1407455001026,2339.1407455001026,right,0.6131930998526514,6,0,0,99,0.32,0.24,right,0.5242907996289432,,,,,,,,,,,,,,,,,,,,,,,,,,,,,,,,,,,,,,,,,,,,,,,,,,,,,,,,,,,,VDKA3U,train_x,red_square,top_left,2025-02-21_16h08.47.385,HideSeek_v1,2022.2.5,59.970266752709875,
,3,8,7,8,4,0,56,,train_dim1_1,16,30,,,,2,0,2,0,,,,,,,,,0,0,0,0,0,15,15,15,3,0,3,0,,,,,,,,,,,,,,,,,,,,,,,,,,,,,,,,,,,,,,,,,,,,,,,,,,,,,,,,,,,,,,,,30,,,,,,,,2339.7944053998217,2339.7944053998217,2339.7944053998217,2339.7944053998217,2339.7944053998217,right,0.41791220009326935,6,0,0,99,0.4,0.24,right,0.3230906999669969,,,,,,,,,,,,,,,,,,,,,,,,,,,,,,,,,,,,,,,,,,,,,,,,,,,,,,,,,,,,VDKA3U,train_x,red_square,top_left,2025-02-21_16h08.47.385,HideSeek_v1,2022.2.5,59.970266752709875,
,3,8,7,8,4,0,56,,train_dim1_1,16,30,,,,2,0,2,0,,,,,,,,,0,0,0,0,0,15,15,15,4,0,4,0,,,,,,,,,,,,,,,,,,,,,,,,,,,,,,,,,,,,,,,,,,,,,,,,,,,,,,,,,,,,,,,,30,,,,,,,,2340.212769799866,2340.212769799866,2340.212769799866,2340.212769799866,2340.212769799866,return,0.7250542002730072,7,0,0,1,0.4,0.24,return,0.6327124000526965,-5,46,0.4,0.24,,,,,,,,,,,,,,,,,,,,,,,,,,,,,,,,,,,,,,,,,,,,,,,,,,,,,,,,VDKA3U,train_x,red_square,top_left,2025-02-21_16h08.47.385,HideSeek_v1,2022.2.5,59.970266752709875,
,2,9,3,9,1,0,26,,train_dim1_1,17,30,,,,2,0,2,0,,,,,,,,,0,0,0,0,0,16,16,16,0,0,0,0,,,,,,,,,,,,,,,,,,,,,,,,,stimuli/alien_stimuli/26.png,,,,,,,,,,,,,,,,,,,,,,,,,,,,,stimuli/alien_stimuli/56.png,56,3,18,,,,,,,30,,,,,,,,2345.7381923999637,2345.7381923999637,2345.7381923999637,2345.7381923999637,2345.7381923999637,right,1.3387011997401714,7,0,0,99,0.08,0.32,right,1.2425482999533415,,,,,2344.162257700227,2345.7381923999637,0.4,0.24,0.0,0.32,0.24,0.4,0.24000000000000002,0.4,0.24,2342.503733799793,2342.503733799793,2342.503733799793,2342.503733799793,2342.503733799793,2342.503733799793,2342.503733799793,2342.503733799793,2342.4937296100425,1.7709755999967456,return,1.6417550002224743,,,,,,,,,,,,,,,,,,,,,,,,,,,,,,,,,VDKA3U,train_x,red_square,top_left,2025-02-21_16h08.47.385,HideSeek_v1,2022.2.5,59.970266752709875,
,2,9,3,9,1,0,26,,train_dim1_1,17,30,,,,2,0,2,0,,,,,,,,,0,0,0,0,0,16,16,16,1,0,1,0,,,,,,,,,,,,,,,,,,,,,,,,,,,,,,,,,,,,,,,,,,,,,,,,,,,,,,,,,,,,,,,,30,,,,,,,,2347.065772099886,2347.065772099886,2347.065772099886,2347.065772099886,2347.065772099886,return,0.609079800080508,8,0,0,1,0.08,0.32,return,0.5260029998607934,-5,47,0.08,0.32,,,,,,,,,,,,,,,,,,,,,,,,,,,,,,,,,,,,,,,,,,,,,,,,,,,,,,,,VDKA3U,train_x,red_square,top_left,2025-02-21_16h08.47.385,HideSeek_v1,2022.2.5,59.970266752709875,
,2,6,7,6,5,0,66,,train_dim1_1,18,30,,,,2,0,2,0,,,,,,,,,0,0,0,0,0,17,17,17,0,0,0,0,,,,,,,,,,,,,,,,,,,,,,,,,stimuli/alien_stimuli/66.png,,,,,,,,,,,,,,,,,,,,,,,,,,,,,stimuli/alien_stimuli/26.png,26,2,19,,,,,,,30,,,,,,,,2352.563956399914,2352.563956399914,2352.563956399914,2352.563956399914,2352.563956399914,right,1.0879420996643603,8,0,0,99,0.08,0.08,right,0.9944826997816563,,,,,2351.001310199965,2352.563956399914,0.08,0.32,0.0,0.08,0.32,0.08,0.04,0.08,0.32,2349.2390554002486,2349.2390554002486,2349.2390554002486,2349.2390554002486,2349.2390554002486,2349.2390554002486,2349.2390554002486,2349.2390554002486,2349.233249010099,1.8701647999696434,return,1.743953499943018,,,,,,,,,,,,,,,,,,,,,,,,,,,,,,,,,VDKA3U,train_x,red_square,top_left,2025-02-21_16h08.47.385,HideSeek_v1,2022.2.5,59.970266752709875,
,2,6,7,6,5,0,66,,train_dim1_1,18,30,,,,2,0,2,0,,,,,,,,,0,0,0,0,0,17,17,17,1,0,1,0,,,,,,,,,,,,,,,,,,,,,,,,,,,,,,,,,,,,,,,,,,,,,,,,,,,,,,,,,,,,,,,,30,,,,,,,,2353.649968000129,2353.649968000129,2353.649968000129,2353.649968000129,2353.649968000129,right,0.5263131996616721,8,0,0,99,0.16,0.08,right,0.44828230002895,,,,,,,,,,,,,,,,,,,,,,,,,,,,,,,,,,,,,,,,,,,,,,,,,,,,,,,,,,,,VDKA3U,train_x,red_square,top_left,2025-02-21_16h08.47.385,HideSeek_v1,2022.2.5,59.970266752709875,
,2,6,7,6,5,0,66,,train_dim1_1,18,30,,,,2,0,2,0,,,,,,,,,0,0,0,0,0,17,17,17,2,0,2,0,,,,,,,,,,,,,,,,,,,,,,,,,,,,,,,,,,,,,,,,,,,,,,,,,,,,,,,,,,,,,,,,30,,,,,,,,2354.1846408001147,2354.1846408001147,2354.1846408001147,2354.1846408001147,2354.1846408001147,right,0.5255022002384067,8,0,0,99,0.24,0.08,right,0.4490025001578033,,,,,,,,,,,,,,,,,,,,,,,,,,,,,,,,,,,,,,,,,,,,,,,,,,,,,,,,,,,,VDKA3U,train_x,red_square,top_left,2025-02-21_16h08.47.385,HideSeek_v1,2022.2.5,59.970266752709875,
,2,6,7,6,5,0,66,,train_dim1_1,18,30,,,,2,0,2,0,,,,,,,,,0,0,0,0,0,17,17,17,3,0,3,0,,,,,,,,,,,,,,,,,,,,,,,,,,,,,,,,,,,,,,,,,,,,,,,,,,,,,,,,,,,,,,,,30,,,,,,,,2354.7163670999,2354.7163670999,2354.7163670999,2354.7163670999,2354.7163670999,right,0.576757499948144,8,0,0,99,0.32,0.08,right,0.4959192997775972,,,,,,,,,,,,,,,,,,,,,,,,,,,,,,,,,,,,,,,,,,,,,,,,,,,,,,,,,,,,VDKA3U,train_x,red_square,top_left,2025-02-21_16h08.47.385,HideSeek_v1,2022.2.5,59.970266752709875,
,2,6,7,6,5,0,66,,train_dim1_1,18,30,,,,2,0,2,0,,,,,,,,,0,0,0,0,0,17,17,17,4,0,4,0,,,,,,,,,,,,,,,,,,,,,,,,,,,,,,,,,,,,,,,,,,,,,,,,,,,,,,,,,,,,,,,,30,,,,,,,,2355.3009211001918,2355.3009211001918,2355.3009211001918,2355.3009211001918,2355.3009211001918,right,0.46020019985735416,8,0,0,99,0.4,0.08,right,0.38325260020792484,,,,,,,,,,,,,,,,,,,,,,,,,,,,,,,,,,,,,,,,,,,,,,,,,,,,,,,,,,,,VDKA3U,train_x,red_square,top_left,2025-02-21_16h08.47.385,HideSeek_v1,2022.2.5,59.970266752709875,
,2,6,7,6,5,0,66,,train_dim1_1,18,30,,,,2,0,2,0,,,,,,,,,0,0,0,0,0,17,17,17,5,0,5,0,,,,,,,,,,,,,,,,,,,,,,,,,,,,,,,,,,,,,,,,,,,,,,,,,,,,,,,,,,,,,,,,30,,,,,,,,2355.771788700018,2355.771788700018,2355.771788700018,2355.771788700018,2355.771788700018,return,0.6239077998325229,9,0,0,1,0.4,0.08,return,0.5462087001651525,-5,52,0.4,0.08,,,,,,,,,,,,,,,,,,,,,,,,,,,,,,,,,,,,,,,,,,,,,,,,,,,,,,,,VDKA3U,train_x,red_square,top_left,2025-02-21_16h08.47.385,HideSeek_v1,2022.2.5,59.970266752709875,
,0,8,3,8,3,0,46,,train_dim1_1,19,30,,,,2,0,2,0,,,,,,,,,0,0,0,0,0,18,18,18,0,0,0,0,,,,,,,,,,,,,,,,,,,,,,,,,stimuli/alien_stimuli/46.png,,,,,,,,,,,,,,,,,,,,,,,,,,,,,stimuli/alien_stimuli/66.png,66,2,20,,,,,,,30,,,,,,,,2361.6609041998163,2361.6609041998163,2361.6609041998163,2361.6609041998163,2361.6609041998163,right,1.1904791998676956,9,0,0,99,-0.08,0.24,right,1.0901335002854466,,,,,2360.0919699999504,2361.6609041998163,0.4,0.08,0.0,0.4,0.08,0.4,0.2,0.4,0.08,2357.966761600226,2357.966761600226,2357.966761600226,2357.966761600226,2357.966761600226,2357.966761600226,2357.966761600226,2357.966761600226,2357.957457710104,2.2365438998676836,return,2.106871699914336,,,,,,,,,,,,,,,,,,,,,,,,,,,,,,,,,VDKA3U,train_x,red_square,top_left,2025-02-21_16h08.47.385,HideSeek_v1,2022.2.5,59.970266752709875,
,0,8,3,8,3,0,46,,train_dim1_1,19,30,,,,2,0,2,0,,,,,,,,,0,0,0,0,0,18,18,18,1,0,1,0,,,,,,,,,,,,,,,,,,,,,,,,,,,,,,,,,,,,,,,,,,,,,,,,,,,,,,,,,,,,,,,,30,,,,,,,,2362.8422483000904,2362.8422483000904,2362.8422483000904,2362.8422483000904,2362.8422483000904,right,0.47556630009785295,9,0,0,99,0.0,0.24,right,0.4007782000117004,,,,,,,,,,,,,,,,,,,,,,,,,,,,,,,,,,,,,,,,,,,,,,,,,,,,,,,,,,,,VDKA3U,train_x,red_square,top_left,2025-02-21_16h08.47.385,HideSeek_v1,2022.2.5,59.970266752709875,
,0,8,3,8,3,0,46,,train_dim1_1,19,30,,,,2,0,2,0,,,,,,,,,0,0,0,0,0,18,18,18,2,0,2,0,,,,,,,,,,,,,,,,,,,,,,,,,,,,,,,,,,,,,,,,,,,,,,,,,,,,,,,,,,,,,,,,30,,,,,,,,2363.324745300226,2363.324745300226,2363.324745300226,2363.324745300226,2363.324745300226,right,0.5100757000036538,9,0,0,99,0.08,0.24,right,0.42572539998218417,,,,,,,,,,,,,,,,,,,,,,,,,,,,,,,,,,,,,,,,,,,,,,,,,,,,,,,,,,,,VDKA3U,train_x,red_square,top_left,2025-02-21_16h08.47.385,HideSeek_v1,2022.2.5,59.970266752709875,
,0,8,3,8,3,0,46,,train_dim1_1,19,30,,,,2,0,2,0,,,,,,,,,0,0,0,0,0,18,18,18,3,0,3,0,,,,,,,,,,,,,,,,,,,,,,,,,,,,,,,,,,,,,,,,,,,,,,,,,,,,,,,,,,,,,,,,30,,,,,,,,2363.8421628000215,2363.8421628000215,2363.8421628000215,2363.8421628000215,2363.8421628000215,return,1.2100196001119912,10,0,0,1,0.08,0.24,return,1.1232672999612987,-5,55,0.08,0.24,,,,,,,,,,,,,,,,,,,,,,,,,,,,,,,,,,,,,,,,,,,,,,,,,,,,,,,,VDKA3U,train_x,red_square,top_left,2025-02-21_16h08.47.385,HideSeek_v1,2022.2.5,59.970266752709875,
,0,6,0,6,0,0,16,,train_dim1_1,20,30,,,,2,0,2,0,,,,,,,,,0,0,0,0,0,19,19,19,0,0,0,0,,,,,,,,,,,,,,,,,,,,,,,,,stimuli/alien_stimuli/16.png,,,,,,,,,,,,,,,,,,,,,,,,,,,,,stimuli/alien_stimuli/46.png,46,0,21,,,,,,,30,,,,,,,,2371.6133842999116,2371.6133842999116,2371.6133842999116,2371.6133842999116,2371.6133842999116,return,1.1056784000247717,11,0,0,1,-0.16,0.08,return,1.0212985998950899,-5,55,-0.16,0.08,2370.0505710002035,2371.6133842999116,0.08,0.24,0.0,0.24,0.24,0.08,-0.04,0.08,0.24,2366.613843299914,2366.613843299914,2366.613843299914,2366.613843299914,2366.613843299914,2366.613843299914,2366.613843299914,2366.613843299914,2366.5972767801954,3.5385572998784482,return,3.405494499951601,,,,,,,,,,,,,,,,,,,,,,,,,,,,,,,,,VDKA3U,train_x,red_square,top_left,2025-02-21_16h08.47.385,HideSeek_v1,2022.2.5,59.970266752709875,
,4,7,7,7,3,0,46,,train_dim1_1,21,30,,,,2,0,2,0,,,,,,,,,0,0,0,0,0,20,20,20,0,0,0,0,,,,,,,,,,,,,,,,,,,,,,,,,stimuli/alien_stimuli/46.png,,,,,,,,,,,,,,,,,,,,,,,,,,,,,stimuli/alien_stimuli/16.png,16,0,22,,,,,,,30,,,,,,,,2377.6140970000997,2377.6140970000997,2377.6140970000997,2377.6140970000997,2377.6140970000997,right,1.104476499836892,11,0,0,99,0.24,0.16,right,1.0224950998090208,,,,,2376.0552523001097,2377.6140970000997,-0.16,0.08,0.0,0.0,0.08,-0.16,-0.16,-0.16,0.08,2374.2922290000133,2374.2922290000133,2374.2922290000133,2374.2922290000133,2374.2922290000133,2374.2922290000133,2374.2922290000133,2374.2922290000133,2374.2704621102193,1.88707339996472,return,1.7394591001793742,,,,,,,,,,,,,,,,,,,,,,,,,,,,,,,,,VDKA3U,train_x,red_square,top_left,2025-02-21_16h08.47.385,HideSeek_v1,2022.2.5,59.970266752709875,
,4,7,7,7,3,0,46,,train_dim1_1,21,30,,,,2,0,2,0,,,,,,,,,0,0,0,0,0,20,20,20,1,0,1,0,,,,,,,,,,,,,,,,,,,,,,,,,,,,,,,,,,,,,,,,,,,,,,,,,,,,,,,,,,,,,,,,30,,,,,,,,2378.719726399984,2378.719726399984,2378.719726399984,2378.719726399984,2378.719726399984,right,0.9938595001585782,11,0,0,99,0.32,0.16,right,0.9107747003436089,,,,,,,,,,,,,,,,,,,,,,,,,,,,,,,,,,,,,,,,,,,,,,,,,,,,,,,,,,,,VDKA3U,train_x,red_square,top_left,2025-02-21_16h08.47.385,HideSeek_v1,2022.2.5,59.970266752709875,
,4,7,7,7,3,0,46,,train_dim1_1,21,30,,,,2,0,2,0,,,,,,,,,0,0,0,0,0,20,20,20,2,0,2,0,,,,,,,,,,,,,,,,,,,,,,,,,,,,,,,,,,,,,,,,,,,,,,,,,,,,,,,,,,,,,,,,30,,,,,,,,2379.721004600171,2379.721004600171,2379.721004600171,2379.721004600171,2379.721004600171,right,0.8436761000193655,11,0,0,99,0.4,0.16,right,0.7671317001804709,,,,,,,,,,,,,,,,,,,,,,,,,,,,,,,,,,,,,,,,,,,,,,,,,,,,,,,,,,,,VDKA3U,train_x,red_square,top_left,2025-02-21_16h08.47.385,HideSeek_v1,2022.2.5,59.970266752709875,
,4,7,7,7,3,0,46,,train_dim1_1,21,30,,,,2,0,2,0,,,,,,,,,0,0,0,0,0,20,20,20,3,0,3,0,,,,,,,,,,,,,,,,,,,,,,,,,,,,,,,,,,,,,,,,,,,,,,,,,,,,,,,,,,,,,,,,30,,,,,,,,2380.5719198998995,2380.5719198998995,2380.5719198998995,2380.5719198998995,2380.5719198998995,return,1.0606655003502965,12,0,0,1,0.4,0.16,return,0.982880599796772,-5,58,0.4,0.16,,,,,,,,,,,,,,,,,,,,,,,,,,,,,,,,,,,,,,,,,,,,,,,,,,,,,,,,VDKA3U,train_x,red_square,top_left,2025-02-21_16h08.47.385,HideSeek_v1,2022.2.5,59.970266752709875,
,1,5,2,5,1,0,26,,train_dim1_1,22,30,,,,2,0,2,0,,,,,,,,,0,0,0,0,0,21,21,21,0,0,0,0,,,,,,,,,,,,,,,,,,,,,,,,,stimuli/alien_stimuli/26.png,,,,,,,,,,,,,,,,,,,,,,,,,,,,,stimuli/alien_stimuli/46.png,46,4,23,,,,,,,30,,,,,,,,2386.839408,2386.839408,2386.839408,2386.839408,2386.839408,right,1.0886717000976205,12,0,0,99,0.0,0,right,0.9836033000610769,,,,,2385.2627989002503,2386.839408,0.4,0.16,0.0,0.24,0.16,0.4,0.28,0.4,0.16,2383.1978624002077,2383.1978624002077,2383.1978624002077,2383.1978624002077,2383.1978624002077,2383.1978624002077,2383.1978624002077,2383.1978624002077,2383.177904580161,2.1705574998632073,return,2.0476119001396,,,,,,,,,,,,,,,,,,,,,,,,,,,,,,,,,VDKA3U,train_x,red_square,top_left,2025-02-21_16h08.47.385,HideSeek_v1,2022.2.5,59.970266752709875,
,1,5,2,5,1,0,26,,train_dim1_1,22,30,,,,2,0,2,0,,,,,,,,,0,0,0,0,0,21,21,21,1,0,1,0,,,,,,,,,,,,,,,,,,,,,,,,,,,,,,,,,,,,,,,,,,,,,,,,,,,,,,,,,,,,,,,,30,,,,,,,,2387.9157059001736,2387.9157059001736,2387.9157059001736,2387.9157059001736,2387.9157059001736,return,1.376962199807167,13,0,0,1,0.0,0,return,1.3000031001865864,-5,59,0.0,0,,,,,,,,,,,,,,,,,,,,,,,,,,,,,,,,,,,,,,,,,,,,,,,,,,,,,,,,VDKA3U,train_x,red_square,top_left,2025-02-21_16h08.47.385,HideSeek_v1,2022.2.5,59.970266752709875,
,2,6,7,6,5,0,66,,train_dim1_1,23,30,,,,2,0,2,0,,,,,,,,,0,0,0,0,0,22,22,22,0,0,0,0,,,,,,,,,,,,,,,,,,,,,,,,,stimuli/alien_stimuli/66.png,,,,,,,,,,,,,,,,,,,,,,,,,,,,,stimuli/alien_stimuli/26.png,26,1,24,,,,,,,30,,,,,,,,2394.3128333999775,2394.3128333999775,2394.3128333999775,2394.3128333999775,2394.3128333999775,right,0.7530804998241365,13,0,0,99,0.08,0.08,right,0.6621401002630591,,,,,2392.7526348000392,2394.3128333999775,0,0,0.0,0.08,0.0,0,-0.04,0,0,2390.8589725000784,2390.8589725000784,2390.8589725000784,2390.8589725000784,2390.8589725000784,2390.8589725000784,2390.8589725000784,2390.8589725000784,2390.8511149101423,2.003695399966091,return,1.8634731001220644,,,,,,,,,,,,,,,,,,,,,,,,,,,,,,,,,VDKA3U,train_x,red_square,top_left,2025-02-21_16h08.47.385,HideSeek_v1,2022.2.5,59.970266752709875,
,2,6,7,6,5,0,66,,train_dim1_1,23,30,,,,2,0,2,0,,,,,,,,,0,0,0,0,0,22,22,22,1,0,1,0,,,,,,,,,,,,,,,,,,,,,,,,,,,,,,,,,,,,,,,,,,,,,,,,,,,,,,,,,,,,,,,,30,,,,,,,,2395.0675773001276,2395.0675773001276,2395.0675773001276,2395.0675773001276,2395.0675773001276,right,0.6265170001424849,13,0,0,99,0.16,0.08,right,0.5536253997124732,,,,,,,,,,,,,,,,,,,,,,,,,,,,,,,,,,,,,,,,,,,,,,,,,,,,,,,,,,,,VDKA3U,train_x,red_square,top_left,2025-02-21_16h08.47.385,HideSeek_v1,2022.2.5,59.970266752709875,
,2,6,7,6,5,0,66,,train_dim1_1,23,30,,,,2,0,2,0,,,,,,,,,0,0,0,0,0,22,22,22,2,0,2,0,,,,,,,,,,,,,,,,,,,,,,,,,,,,,,,,,,,,,,,,,,,,,,,,,,,,,,,,,,,,,,,,30,,,,,,,,2395.7015018998645,2395.7015018998645,2395.7015018998645,2395.7015018998645,2395.7015018998645,right,0.5600948999635875,13,0,0,99,0.24,0.08,right,0.47773490007966757,,,,,,,,,,,,,,,,,,,,,,,,,,,,,,,,,,,,,,,,,,,,,,,,,,,,,,,,,,,,VDKA3U,train_x,red_square,top_left,2025-02-21_16h08.47.385,HideSeek_v1,2022.2.5,59.970266752709875,
,2,6,7,6,5,0,66,,train_dim1_1,23,30,,,,2,0,2,0,,,,,,,,,0,0,0,0,0,22,22,22,3,0,3,0,,,,,,,,,,,,,,,,,,,,,,,,,,,,,,,,,,,,,,,,,,,,,,,,,,,,,,,,,,,,,,,,30,,,,,,,,2396.2686570999213,2396.2686570999213,2396.2686570999213,2396.2686570999213,2396.2686570999213,right,0.5263241999782622,13,0,0,99,0.32,0.08,right,0.4514106996357441,,,,,,,,,,,,,,,,,,,,,,,,,,,,,,,,,,,,,,,,,,,,,,,,,,,,,,,,,,,,VDKA3U,train_x,red_square,top_left,2025-02-21_16h08.47.385,HideSeek_v1,2022.2.5,59.970266752709875,
,2,6,7,6,5,0,66,,train_dim1_1,23,30,,,,2,0,2,0,,,,,,,,,0,0,0,0,0,22,22,22,4,0,4,0,,,,,,,,,,,,,,,,,,,,,,,,,,,,,,,,,,,,,,,,,,,,,,,,,,,,,,,,,,,,,,,,30,,,,,,,,2396.8011320000514,2396.8011320000514,2396.8011320000514,2396.8011320000514,2396.8011320000514,right,0.6103755999356508,13,0,0,99,0.4,0.08,right,0.5234289998188615,,,,,,,,,,,,,,,,,,,,,,,,,,,,,,,,,,,,,,,,,,,,,,,,,,,,,,,,,,,,VDKA3U,train_x,red_square,top_left,2025-02-21_16h08.47.385,HideSeek_v1,2022.2.5,59.970266752709875,
,2,6,7,6,5,0,66,,train_dim1_1,23,30,,,,2,0,2,0,,,,,,,,,0,0,0,0,0,22,22,22,5,0,5,0,,,,,,,,,,,,,,,,,,,,,,,,,,,,,,,,,,,,,,,,,,,,,,,,,,,,,,,,,,,,,,,,30,,,,,,,,2397.4188530999236,2397.4188530999236,2397.4188530999236,2397.4188530999236,2397.4188530999236,return,0.5598661000840366,14,0,0,1,0.4,0.08,return,0.4817558997310698,-5,64,0.4,0.08,,,,,,,,,,,,,,,,,,,,,,,,,,,,,,,,,,,,,,,,,,,,,,,,,,,,,,,,VDKA3U,train_x,red_square,top_left,2025-02-21_16h08.47.385,HideSeek_v1,2022.2.5,59.970266752709875,
,4,9,8,9,4,0,56,,train_dim1_1,24,30,,,,2,0,2,0,,,,,,,,,0,0,0,0,0,23,23,23,0,0,0,0,,,,,,,,,,,,,,,,,,,,,,,,,stimuli/alien_stimuli/56.png,,,,,,,,,,,,,,,,,,,,,,,,,,,,,stimuli/alien_stimuli/66.png,66,2,25,,,,,,,30,,,,,,,,2403.118925199844,2403.118925199844,2403.118925199844,2403.118925199844,2403.118925199844,right,1.0527425999753177,14,0,0,99,0.24,0.32,right,0.9486385998316109,,,,,2401.542831100058,2403.118925199844,0.4,0.08,0.0,0.4,0.08,0.4,0.2,0.4,0.08,2399.5419143000618,2399.5419143000618,2399.5419143000618,2399.5419143000618,2399.5419143000618,2399.5419143000618,2399.5419143000618,2399.5419143000618,2399.52489947984,2.1036026999354362,return,1.9759549996815622,,,,,,,,,,,,,,,,,,,,,,,,,,,,,,,,,VDKA3U,train_x,red_square,top_left,2025-02-21_16h08.47.385,HideSeek_v1,2022.2.5,59.970266752709875,
,4,9,8,9,4,0,56,,train_dim1_1,24,30,,,,2,0,2,0,,,,,,,,,0,0,0,0,0,23,23,23,1,0,1,0,,,,,,,,,,,,,,,,,,,,,,,,,,,,,,,,,,,,,,,,,,,,,,,,,,,,,,,,,,,,,,,,30,,,,,,,,2404.1627989998087,2404.1627989998087,2404.1627989998087,2404.1627989998087,2404.1627989998087,right,0.5416985996998847,14,0,0,99,0.32,0.32,right,0.45113970013335347,,,,,,,,,,,,,,,,,,,,,,,,,,,,,,,,,,,,,,,,,,,,,,,,,,,,,,,,,,,,VDKA3U,train_x,red_square,top_left,2025-02-21_16h08.47.385,HideSeek_v1,2022.2.5,59.970266752709875,
,4,9,8,9,4,0,56,,train_dim1_1,24,30,,,,2,0,2,0,,,,,,,,,0,0,0,0,0,23,23,23,2,0,2,0,,,,,,,,,,,,,,,,,,,,,,,,,,,,,,,,,,,,,,,,,,,,,,,,,,,,,,,,,,,,,,,,30,,,,,,,,2404.7109499000944,2404.7109499000944,2404.7109499000944,2404.7109499000944,2404.7109499000944,right,0.6938223000615835,14,0,0,99,0.4,0.32,right,0.6072576004080474,,,,,,,,,,,,,,,,,,,,,,,,,,,,,,,,,,,,,,,,,,,,,,,,,,,,,,,,,,,,VDKA3U,train_x,red_square,top_left,2025-02-21_16h08.47.385,HideSeek_v1,2022.2.5,59.970266752709875,
,4,9,8,9,4,0,56,,train_dim1_1,24,30,,,,2,0,2,0,,,,,,,,,0,0,0,0,0,23,23,23,3,0,3,0,,,,,,,,,,,,,,,,,,,,,,,,,,,,,,,,,,,,,,,,,,,,,,,,,,,,,,,,,,,,,,,,30,,,,,,,,2405.411389000248,2405.411389000248,2405.411389000248,2405.411389000248,2405.411389000248,right,0.476611599791795,14,0,0,99,0.48000000000000004,0.32,right,0.3928272998891771,,,,,,,,,,,,,,,,,,,,,,,,,,,,,,,,,,,,,,,,,,,,,,,,,,,,,,,,,,,,VDKA3U,train_x,red_square,top_left,2025-02-21_16h08.47.385,HideSeek_v1,2022.2.5,59.970266752709875,
,4,9,8,9,4,0,56,,train_dim1_1,24,30,,,,2,0,2,0,,,,,,,,,0,0,0,0,0,23,23,23,4,0,4,0,,,,,,,,,,,,,,,,,,,,,,,,,,,,,,,,,,,,,,,,,,,,,,,,,,,,,,,,,,,,,,,,30,,,,,,,,2405.8949731998146,2405.8949731998146,2405.8949731998146,2405.8949731998146,2405.8949731998146,return,0.6435612998902798,15,0,0,1,0.48000000000000004,0.32,return,0.5696112997829914,-5,68,0.48000000000000004,0.32,,,,,,,,,,,,,,,,,,,,,,,,,,,,,,,,,,,,,,,,,,,,,,,,,,,,,,,,VDKA3U,train_x,red_square,top_left,2025-02-21_16h08.47.385,HideSeek_v1,2022.2.5,59.970266752709875,
,3,5,3,5,0,0,16,,train_dim1_1,25,30,,,,2,0,2,0,,,,,,,,,0,0,0,0,0,24,24,24,0,0,0,0,,,,,,,,,,,,,,,,,,,,,,,,,stimuli/alien_stimuli/16.png,,,,,,,,,,,,,,,,,,,,,,,,,,,,,stimuli/alien_stimuli/56.png,56,4,26,,,,,,,30,,,,,,,,2411.8830694998614,2411.8830694998614,2411.8830694998614,2411.8830694998614,2411.8830694998614,return,1.77194539969787,16,0,0,1,0.08,0,return,1.6553309001028538,-5,68,0.08,0,2410.300350099802,2411.8830694998614,0.48,0.32,0.0,0.32,0.32,0.48,0.32,0.48,0.32,2408.104820500128,2408.104820500128,2408.104820500128,2408.104820500128,2408.104820500128,2408.104820500128,2408.104820500128,2408.104820500128,2408.098654510034,2.3041771999560297,return,2.177211499772966,,,,,,,,,,,,,,,,,,,,,,,,,,,,,,,,,VDKA3U,train_x,red_square,top_left,2025-02-21_16h08.47.385,HideSeek_v1,2022.2.5,59.970266752709875,
,1,6,6,6,5,0,66,,train_dim1_1,26,30,,,,2,0,2,0,,,,,,,,,0,0,0,0,0,25,25,25,0,0,0,0,,,,,,,,,,,,,,,,,,,,,,,,,stimuli/alien_stimuli/66.png,,,,,,,,,,,,,,,,,,,,,,,,,,,,,stimuli/alien_stimuli/16.png,16,3,27,,,,,,,30,,,,,,,,2418.3987298002467,2418.3987298002467,2418.3987298002467,2418.3987298002467,2418.3987298002467,right,0.9213605998083949,16,0,0,99,0.0,0.08,right,0.8425030000507832,,,,,2416.8391379998066,2418.3987298002467,0.08,0,0.0,0.0,0.0,0.08,0.08,0.08,0,2415.194938499946,2415.194938499946,2415.194938499946,2415.194938499946,2415.194938499946,2415.194938499946,2415.194938499946,2415.194938499946,2415.187746909959,1.7535866000689566,return,1.614775000140071,,,,,,,,,,,,,,,,,,,,,,,,,,,,,,,,,VDKA3U,train_x,red_square,top_left,2025-02-21_16h08.47.385,HideSeek_v1,2022.2.5,59.970266752709875,
,1,6,6,6,5,0,66,,train_dim1_1,26,30,,,,2,0,2,0,,,,,,,,,0,0,0,0,0,25,25,25,1,0,1,0,,,,,,,,,,,,,,,,,,,,,,,,,,,,,,,,,,,,,,,,,,,,,,,,,,,,,,,,,,,,,,,,30,,,,,,,,2419.320979299955,2419.320979299955,2419.320979299955,2419.320979299955,2419.320979299955,right,0.5595755004324019,16,0,0,99,0.08,0.08,right,0.4756944002583623,,,,,,,,,,,,,,,,,,,,,,,,,,,,,,,,,,,,,,,,,,,,,,,,,,,,,,,,,,,,VDKA3U,train_x,red_square,top_left,2025-02-21_16h08.47.385,HideSeek_v1,2022.2.5,59.970266752709875,
,1,6,6,6,5,0,66,,train_dim1_1,26,30,,,,2,0,2,0,,,,,,,,,0,0,0,0,0,25,25,25,2,0,2,0,,,,,,,,,,,,,,,,,,,,,,,,,,,,,,,,,,,,,,,,,,,,,,,,,,,,,,,,,,,,,,,,30,,,,,,,,2419.888085300103,2419.888085300103,2419.888085300103,2419.888085300103,2419.888085300103,right,0.7270054998807609,16,0,0,99,0.16,0.08,right,0.643573499750346,,,,,,,,,,,,,,,,,,,,,,,,,,,,,,,,,,,,,,,,,,,,,,,,,,,,,,,,,,,,VDKA3U,train_x,red_square,top_left,2025-02-21_16h08.47.385,HideSeek_v1,2022.2.5,59.970266752709875,
,1,6,6,6,5,0,66,,train_dim1_1,26,30,,,,2,0,2,0,,,,,,,,,0,0,0,0,0,25,25,25,3,0,3,0,,,,,,,,,,,,,,,,,,,,,,,,,,,,,,,,,,,,,,,,,,,,,,,,,,,,,,,,,,,,,,,,30,,,,,,,,2420.6215404001996,2420.6215404001996,2420.6215404001996,2420.6215404001996,2420.6215404001996,right,0.593330199830234,16,0,0,99,0.24,0.08,right,0.5068682003766298,,,,,,,,,,,,,,,,,,,,,,,,,,,,,,,,,,,,,,,,,,,,,,,,,,,,,,,,,,,,VDKA3U,train_x,red_square,top_left,2025-02-21_16h08.47.385,HideSeek_v1,2022.2.5,59.970266752709875,
,1,6,6,6,5,0,66,,train_dim1_1,26,30,,,,2,0,2,0,,,,,,,,,0,0,0,0,0,25,25,25,4,0,4,0,,,,,,,,,,,,,,,,,,,,,,,,,,,,,,,,,,,,,,,,,,,,,,,,,,,,,,,,,,,,,,,,30,,,,,,,,2421.2219769000076,2421.2219769000076,2421.2219769000076,2421.2219769000076,2421.2219769000076,right,0.5766949998214841,16,0,0,99,0.32,0.08,right,0.49388180021196604,,,,,,,,,,,,,,,,,,,,,,,,,,,,,,,,,,,,,,,,,,,,,,,,,,,,,,,,,,,,VDKA3U,train_x,red_square,top_left,2025-02-21_16h08.47.385,HideSeek_v1,2022.2.5,59.970266752709875,
,1,6,6,6,5,0,66,,train_dim1_1,26,30,,,,2,0,2,0,,,,,,,,,0,0,0,0,0,25,25,25,5,0,5,0,,,,,,,,,,,,,,,,,,,,,,,,,,,,,,,,,,,,,,,,,,,,,,,,,,,,,,,,,,,,,,,,30,,,,,,,,2421.805305500049,2421.805305500049,2421.805305500049,2421.805305500049,2421.805305500049,return,0.6768710999749601,17,0,0,1,0.32,0.08,return,0.6007389998994768,-5,73,0.32,0.08,,,,,,,,,,,,,,,,,,,,,,,,,,,,,,,,,,,,,,,,,,,,,,,,,,,,,,,,VDKA3U,train_x,red_square,top_left,2025-02-21_16h08.47.385,HideSeek_v1,2022.2.5,59.970266752709875,
,0,6,3,6,3,0,46,,train_dim1_1,27,30,,,,2,0,2,0,,,,,,,,,0,0,0,0,0,26,26,26,0,0,0,0,,,,,,,,,,,,,,,,,,,,,,,,,stimuli/alien_stimuli/46.png,,,,,,,,,,,,,,,,,,,,,,,,,,,,,stimuli/alien_stimuli/66.png,66,1,28,,,,,,,30,,,,,,,,2427.2637415998615,2427.2637415998615,2427.2637415998615,2427.2637415998615,2427.2637415998615,right,1.0399253000505269,17,0,0,99,-0.08,0.08,right,0.9461592002771795,,,,,2425.696746900212,2427.2637415998615,0.32,0.08,0.0,0.4,0.08,0.32,0.12,0.32,0.08,2424.0485068000853,2424.0485068000853,2424.0485068000853,2424.0485068000853,2424.0485068000853,2424.0485068000853,2424.0485068000853,2424.0485068000853,2424.028560180124,1.753955400083214,return,1.6211568000726402,,,,,,,,,,,,,,,,,,,,,,,,,,,,,,,,,VDKA3U,train_x,red_square,top_left,2025-02-21_16h08.47.385,HideSeek_v1,2022.2.5,59.970266752709875,
,0,6,3,6,3,0,46,,train_dim1_1,27,30,,,,2,0,2,0,,,,,,,,,0,0,0,0,0,26,26,26,1,0,1,0,,,,,,,,,,,,,,,,,,,,,,,,,,,,,,,,,,,,,,,,,,,,,,,,,,,,,,,,,,,,,,,,30,,,,,,,,2428.3072668001987,2428.3072668001987,2428.3072668001987,2428.3072668001987,2428.3072668001987,right,0.5426179999485612,17,0,0,99,0.0,0.08,right,0.4491674997843802,,,,,,,,,,,,,,,,,,,,,,,,,,,,,,,,,,,,,,,,,,,,,,,,,,,,,,,,,,,,VDKA3U,train_x,red_square,top_left,2025-02-21_16h08.47.385,HideSeek_v1,2022.2.5,59.970266752709875,
,0,6,3,6,3,0,46,,train_dim1_1,27,30,,,,2,0,2,0,,,,,,,,,0,0,0,0,0,26,26,26,2,0,2,0,,,,,,,,,,,,,,,,,,,,,,,,,,,,,,,,,,,,,,,,,,,,,,,,,,,,,,,,,,,,,,,,30,,,,,,,,2428.8604578999802,2428.8604578999802,2428.8604578999802,2428.8604578999802,2428.8604578999802,right,0.6754200998693705,17,0,0,99,0.08,0.08,right,0.5795721998438239,,,,,,,,,,,,,,,,,,,,,,,,,,,,,,,,,,,,,,,,,,,,,,,,,,,,,,,,,,,,VDKA3U,train_x,red_square,top_left,2025-02-21_16h08.47.385,HideSeek_v1,2022.2.5,59.970266752709875,
,0,6,3,6,3,0,46,,train_dim1_1,27,30,,,,2,0,2,0,,,,,,,,,0,0,0,0,0,26,26,26,3,0,3,0,,,,,,,,,,,,,,,,,,,,,,,,,,,,,,,,,,,,,,,,,,,,,,,,,,,,,,,,,,,,,,,,30,,,,,,,,2429.5297130998224,2429.5297130998224,2429.5297130998224,2429.5297130998224,2429.5297130998224,return,0.6266780002042651,18,0,0,1,0.08,0.08,return,0.5427239001728594,-5,76,0.08,0.08,,,,,,,,,,,,,,,,,,,,,,,,,,,,,,,,,,,,,,,,,,,,,,,,,,,,,,,,VDKA3U,train_x,red_square,top_left,2025-02-21_16h08.47.385,HideSeek_v1,2022.2.5,59.970266752709875,
,3,6,4,6,1,0,26,,train_dim1_1,28,30,,,,2,0,2,0,,,,,,,,,0,0,0,0,0,27,27,27,0,0,0,0,,,,,,,,,,,,,,,,,,,,,,,,,stimuli/alien_stimuli/26.png,,,,,,,,,,,,,,,,,,,,,,,,,,,,,stimuli/alien_stimuli/46.png,46,0,29,,,,,,,30,,,,,,,,2435.5001607998274,2435.5001607998274,2435.5001607998274,2435.5001607998274,2435.5001607998274,right,1.121050300076604,18,0,0,99,0.16,0.08,right,1.0068697999231517,,,,,2433.9202382001095,2435.5001607998274,0.08,0.08,0.0,0.24,0.08,0.08,-0.04,0.08,0.08,2431.7182117002085,2431.7182117002085,2431.7182117002085,2431.7182117002085,2431.7182117002085,2431.7182117002085,2431.7182117002085,2431.7182117002085,2431.7009625801816,2.3045567995868623,return,2.1767253996804357,,,,,,,,,,,,,,,,,,,,,,,,,,,,,,,,,VDKA3U,train_x,red_square,top_left,2025-02-21_16h08.47.385,HideSeek_v1,2022.2.5,59.970266752709875,
,3,6,4,6,1,0,26,,train_dim1_1,28,30,,,,2,0,2,0,,,,,,,,,0,0,0,0,0,27,27,27,1,0,1,0,,,,,,,,,,,,,,,,,,,,,,,,,,,,,,,,,,,,,,,,,,,,,,,,,,,,,,,,,,,,,,,,30,,,,,,,,2436.606501699891,2436.606501699891,2436.606501699891,2436.606501699891,2436.606501699891,return,0.47642960026860237,19,0,0,1,0.16,0.08,return,0.39603740023449063,-5,77,0.16,0.08,,,,,,,,,,,,,,,,,,,,,,,,,,,,,,,,,,,,,,,,,,,,,,,,,,,,,,,,VDKA3U,train_x,red_square,top_left,2025-02-21_16h08.47.385,HideSeek_v1,2022.2.5,59.970266752709875,
,4,5,8,5,4,0,56,,train_dim1_1,29,30,,,,2,0,2,0,,,,,,,,,0,0,0,0,0,28,28,28,0,0,0,0,,,,,,,,,,,,,,,,,,,,,,,,,stimuli/alien_stimuli/56.png,,,,,,,,,,,,,,,,,,,,,,,,,,,,,stimuli/alien_stimuli/26.png,26,3,30,,,,,,,30,,,,,,,,2441.7211667001247,2441.7211667001247,2441.7211667001247,2441.7211667001247,2441.7211667001247,right,0.9700938002206385,19,0,0,99,0.24,0,right,0.8888681000098586,,,,,2440.1584743000567,2441.7211667001247,0.16,0.08,0.0,0.08,0.08,0.16,0.12,0.16,0.08,2438.647714899853,2438.647714899853,2438.647714899853,2438.647714899853,2438.647714899853,2438.647714899853,2438.647714899853,2438.647714899853,2438.640458609955,1.6202592002227902,return,1.48404989996925,,,,,,,,,,,,,,,,,,,,,,,,,,,,,,,,,VDKA3U,train_x,red_square,top_left,2025-02-21_16h08.47.385,HideSeek_v1,2022.2.5,59.970266752709875,
,4,5,8,5,4,0,56,,train_dim1_1,29,30,,,,2,0,2,0,,,,,,,,,0,0,0,0,0,28,28,28,1,0,1,0,,,,,,,,,,,,,,,,,,,,,,,,,,,,,,,,,,,,,,,,,,,,,,,,,,,,,,,,,,,,,,,,30,,,,,,,,2442.6935228002258,2442.6935228002258,2442.6935228002258,2442.6935228002258,2442.6935228002258,right,0.6254644999280572,19,0,0,99,0.32,0,right,0.5446528000757098,,,,,,,,,,,,,,,,,,,,,,,,,,,,,,,,,,,,,,,,,,,,,,,,,,,,,,,,,,,,VDKA3U,train_x,red_square,top_left,2025-02-21_16h08.47.385,HideSeek_v1,2022.2.5,59.970266752709875,
,4,5,8,5,4,0,56,,train_dim1_1,29,30,,,,2,0,2,0,,,,,,,,,0,0,0,0,0,28,28,28,2,0,2,0,,,,,,,,,,,,,,,,,,,,,,,,,,,,,,,,,,,,,,,,,,,,,,,,,,,,,,,,,,,,,,,,30,,,,,,,,2443.3260343000293,2443.3260343000293,2443.3260343000293,2443.3260343000293,2443.3260343000293,right,0.543490500189364,19,0,0,99,0.4,0,right,0.46813479997217655,,,,,,,,,,,,,,,,,,,,,,,,,,,,,,,,,,,,,,,,,,,,,,,,,,,,,,,,,,,,VDKA3U,train_x,red_square,top_left,2025-02-21_16h08.47.385,HideSeek_v1,2022.2.5,59.970266752709875,
,4,5,8,5,4,0,56,,train_dim1_1,29,30,,,,2,0,2,0,,,,,,,,,0,0,0,0,0,28,28,28,3,0,3,0,,,,,,,,,,,,,,,,,,,,,,,,,,,,,,,,,,,,,,,,,,,,,,,,,,,,,,,,,,,,,,,,30,,,,,,,,2443.876376700122,2443.876376700122,2443.876376700122,2443.876376700122,2443.876376700122,right,0.8935854998417199,19,0,0,99,0.48000000000000004,0,right,0.8084871997125447,,,,,,,,,,,,,,,,,,,,,,,,,,,,,,,,,,,,,,,,,,,,,,,,,,,,,,,,,,,,VDKA3U,train_x,red_square,top_left,2025-02-21_16h08.47.385,HideSeek_v1,2022.2.5,59.970266752709875,
,4,5,8,5,4,0,56,,train_dim1_1,29,30,,,,2,0,2,0,,,,,,,,,0,0,0,0,0,28,28,28,4,0,4,0,,,,,,,,,,,,,,,,,,,,,,,,,,,,,,,,,,,,,,,,,,,,,,,,,,,,,,,,,,,,,,,,30,,,,,,,,2444.7766097998247,2444.7766097998247,2444.7766097998247,2444.7766097998247,2444.7766097998247,return,0.543660500086844,20,0,0,1,0.48000000000000004,0,return,0.45390590000897646,-5,81,0.48000000000000004,0,,,,,,,,,,,,,,,,,,,,,,,,,,,,,,,,,,,,,,,,,,,,,,,,,,,,,,,,VDKA3U,train_x,red_square,top_left,2025-02-21_16h08.47.385,HideSeek_v1,2022.2.5,59.970266752709875,
,2,7,2,7,0,0,16,,train_dim1_1,30,30,,,,2,0,2,0,,,,,,,,,0,0,0,0,0,29,29,29,0,0,0,0,,,,,,,,,,,,,,,,,,,,,,,,,stimuli/alien_stimuli/16.png,,,,,,,,,,,,,,,,,,,,,,,,,,,,,stimuli/alien_stimuli/56.png,56,4,31,,,,,,,30,,,,,,,,2449.825873900205,2449.825873900205,2449.825873900205,2449.825873900205,2449.825873900205,return,0.9899510000832379,21,0,0,1,0,0.16,return,0.8774289996363223,-5,81,0,0.16,2448.2485374999233,2449.825873900205,0.48,0,0.0,0.32,0.0,0.48,0.32,0.48,0,2446.886541900225,2446.886541900225,2446.886541900225,2446.886541900225,2446.886541900225,2446.886541900225,2446.886541900225,2446.886541900225,2446.880779610062,1.4702372001484036,return,1.3432815000414848,,,,,,,,,,,,,,,,,,,,,,,,,,,,,,,,,VDKA3U,train_x,red_square,top_left,2025-02-21_16h08.47.385,HideSeek_v1,2022.2.5,59.970266752709875,
,,,,,,,,,,,30,,,,2,0,2,0,,,,,,,,,,,,,,,,,,,,,,,,,,,,,,,,,,,,,,,,,,,,,,,,,,,,,,,,,,,,,,,,,,,,,,,,,,stimuli/alien_stimuli/16.png,16,2,32,21,0.7,0.875,1,1,1,30,0,conditions/schedules/train_x_first/red_square_00/top_left/inputTrain_2.1.xlsx,99,1,2,1,0,,,,,,,,,,,1,,,,,,,,,2454.1365994000807,2455.679726100061,0,0.16,0.0,0.0,0.16,0,0.0,0,0.16,2452.359304700047,2452.359304700047,2452.359304700047,2452.359304700047,2452.359304700047,2452.359304700047,2452.359304700047,2452.359304700047,2452.351931210188,1.8870689999312162,return,1.7502150000073016,0,0.9,0,1,21,,,,,,,,,,,,,,,,,,,,,,,,,,,,VDKA3U,train_x,red_square,top_left,2025-02-21_16h08.47.385,HideSeek_v1,2022.2.5,59.970266752709875,
,,,,,,,,,,,,,,,3,0,3,0,0,0,0,0,,,,,,,,,,,,,,,,,,,,,,,,,,,,,,,conditions/schedules/train_x_first/red_square_00/top_left/instructions/Slide17.png,conditions/schedules/train_x_first/red_square_00/top_left/instructions/Audio17.wav,2455.679726100061,2455.671512289857,18,"[20.628143900074065, 17.936171399895102, 17.13764030020684, 19.540501600131392, 4.472597800195217, 5.037000900134444, 6.404657199978828, 11.673290500417352, 6.051890600007027, 6.917913099750876, 9.820809100288898, 10.404192399699241, 12.990907099563628, 17.701176800299436, 12.83617000002414, 30.5540187000297, 21.882470200303942, 39.02268029982224]","[0.05468539986759424, 0.014073600061237812, 0.014637399930506945, 0.035313600208610296, 0.0660063000395894, 0.0995895997621119, 0.11363440006971359, 0.013917600270360708, 0.07918869983404875, 0.04685700032860041, 0.030749599914997816, 0.014619899913668633, 12.99091409984976, 0.031031999737024307, 12.836176400072873, 0.08099650032818317, 21.882477400358766, 39.022688400000334]",1,[19.71166089968756],[19.711667799856514],,,,,,,,,,,,,,,,,,,,,,,,,,,,,,,,,,,,,,,,,,,,,,,,,,,,,,,,,,,,,,,,,,,,,,,,,,,,,,,,,,,,,,,,,,,,,,,,,,,,,,,,,,,,,,,,,,,,,,,,,,VDKA3U,train_x,red_square,top_left,2025-02-21_16h08.47.385,HideSeek_v1,2022.2.5,59.970266752709875,
,,,,,,,,,,,,,,,3,0,3,0,1,0,1,0,,,,,,,,,,,,,,,,,,,,,,,,,,,,,,,conditions/schedules/train_x_first/red_square_00/top_left/instructions/Slide18.png,conditions/schedules/train_x_first/red_square_00/top_left/instructions/Audio18.wav,2494.7734051998705,2494.770501049934,19,"[20.628143900074065, 17.936171399895102, 17.13764030020684, 19.540501600131392, 4.472597800195217, 5.037000900134444, 6.404657199978828, 11.673290500417352, 6.051890600007027, 6.917913099750876, 9.820809100288898, 10.404192399699241, 12.990907099563628, 17.701176800299436, 12.83617000002414, 30.5540187000297, 21.882470200303942, 39.02268029982224, 7.367651800159365]","[0.05468539986759424, 0.014073600061237812, 0.014637399930506945, 0.035313600208610296, 0.0660063000395894, 0.0995895997621119, 0.11363440006971359, 0.013917600270360708, 0.07918869983404875, 0.04685700032860041, 0.030749599914997816, 0.014619899913668633, 12.99091409984976, 0.031031999737024307, 12.836176400072873, 0.08099650032818317, 21.882477400358766, 0.04680779995396733, 7.3676583003252745]",1,[19.71166089968756],[19.711667799856514],,,,,,,,,,,,,,,,,,,,,,,,,,,,,,,,,,,,,,,,,,,,,,,,,,,,,,,,,,,,,,,,,,,,,,,,,,,,,,,,,,,,,,,,,,,,,,,,,,,,,,,,,,,,,,,,,,,,,,,,,,VDKA3U,train_x,red_square,top_left,2025-02-21_16h08.47.385,HideSeek_v1,2022.2.5,59.970266752709875,
,,,,,,,,,,,,,,,3,0,3,0,2,0,2,0,,,,,,,,,,,,,,,,,,,,,,,,,,,,,,,conditions/schedules/train_x_first/red_square_00/top_left/instructions/Slide19.png,conditions/schedules/train_x_first/red_square_00/top_left/instructions/Audio19.wav,2502.179543300066,2502.17698728987,20,"[20.628143900074065, 17.936171399895102, 17.13764030020684, 19.540501600131392, 4.472597800195217, 5.037000900134444, 6.404657199978828, 11.673290500417352, 6.051890600007027, 6.917913099750876, 9.820809100288898, 10.404192399699241, 12.990907099563628, 17.701176800299436, 12.83617000002414, 30.5540187000297, 21.882470200303942, 39.02268029982224, 7.367651800159365, 10.286069499794394]","[0.05468539986759424, 0.014073600061237812, 0.014637399930506945, 0.035313600208610296, 0.0660063000395894, 0.0995895997621119, 0.11363440006971359, 0.013917600270360708, 0.07918869983404875, 0.04685700032860041, 0.030749599914997816, 0.014619899913668633, 12.99091409984976, 0.031031999737024307, 12.836176400072873, 0.08099650032818317, 21.882477400358766, 0.04680779995396733, 0.030146200209856033, 10.286075899843127]",1,[19.71166089968756],[19.711667799856514],,,,,,,,,,,,,,,,,,,,,,,,,,,,,,,,,,,,,,,,,,,,,,,,,,,,,,,,,,,,,,,,,,,,,,,,,,,,,,,,,,,,,,,,,,,,,,,,,,,,,,,,,,,,,,,,,,,,,,,,,,VDKA3U,train_x,red_square,top_left,2025-02-21_16h08.47.385,HideSeek_v1,2022.2.5,59.970266752709875,
,,,,,,,,,,,,,,,3,0,3,0,3,0,3,0,,,,,,,,,,,,,,,,,,,,,,,,,,,,,,,conditions/schedules/train_x_first/red_square_00/top_left/instructions/Slide20.png,conditions/schedules/train_x_first/red_square_00/top_left/instructions/Audio20.wav,2512.53571509989,2512.535160050029,21,"[20.628143900074065, 17.936171399895102, 17.13764030020684, 19.540501600131392, 4.472597800195217, 5.037000900134444, 6.404657199978828, 11.673290500417352, 6.051890600007027, 6.917913099750876, 9.820809100288898, 10.404192399699241, 12.990907099563628, 17.701176800299436, 12.83617000002414, 30.5540187000297, 21.882470200303942, 39.02268029982224, 7.367651800159365, 10.286069499794394, 14.392121800221503]","[0.05468539986759424, 0.014073600061237812, 0.014637399930506945, 0.035313600208610296, 0.0660063000395894, 0.0995895997621119, 0.11363440006971359, 0.013917600270360708, 0.07918869983404875, 0.04685700032860041, 0.030749599914997816, 0.014619899913668633, 12.99091409984976, 0.031031999737024307, 12.836176400072873, 0.08099650032818317, 21.882477400358766, 0.04680779995396733, 0.030146200209856033, 0.04712270013988018, 14.392133000306785]",1,[19.71166089968756],[19.711667799856514],,,,,,,,,,,,,,,,,,,,,,,,,,,,,,,,,,,,,,,,,,,,,,,,,,,,,,,,,,,,,,,,,,,,,,,,,,,,,,,,,,,,,,,,,,,,,,,,,,,,,,,,,,,,,,,,,,,,,,,,,,VDKA3U,train_x,red_square,top_left,2025-02-21_16h08.47.385,HideSeek_v1,2022.2.5,59.970266752709875,
1,2,8,2,3,0,-5,11,2,instr_dim1_2,,,,,,3,0,3,0,,,,,0,0,0,0,,,,,,,,,,,,,,,,,,,,,,,,,,,,,,,,,,,,,stimuli/alien_stimuli/11.png,conditions/schedules/train_x_first/red_square_00/top_left/inputInstr_2.xlsx,stimuli/alien_stimuli/11.png,2527.030637400225,2527.030637400225,2527.030637400225,2527.030637400225,2527.030482810037,return,7.3641641000285745,"[-0.16, -0.08, 0, 0.08, 0.16, 0.24, 0.32, 0.4, 0.48, 0.56]","[-0.4, -0.32, -0.24, -0.16, -0.08, 0, 0.08, 0.16, 0.24, 0.32]",3,8,2,2,0.4,0.0,2534.552576799877,2534.552576799877,2534.552576799877,2534.552576799877,2534.552576799877,2534.552576799877,2534.552576799877,2534.553302369872,7.340128799900413,return,7.177671500016004,stimuli/alien_stimuli/11.png,11,2,1,,,,,,,,,,,,,,,,,,,,,,,,,,,,,,,,,,,,,,,,,,,,,,,,,,,,,,,,,,,,,,,,,,,,,,,,,,,,,,,,,,,,,,,,,VDKA3U,train_x,red_square,top_left,2025-02-21_16h08.47.385,HideSeek_v1,2022.2.5,59.970266752709875,
,,,,,,,,,,,30,,,,3,0,3,0,,,,,,,,,,,,,,,,,,,,,,,,,,,,,,,,,,,,,,,,,,,,,,,,,,,,,,,,,,,,,,,,,,,,,,,,,,,,,,21,0.7,0.875,1,99,2,30,0,conditions/schedules/train_x_first/red_square_00/top_left/inputTrain_2.1.xlsx,99,1,2,1,0,,,,,,,,,,,,,,,,,,,,,,,,,,,,,,,,,,,,,,,,,,,,,,,,,,,,,,,,,,,,,,,,,,,,,,,,,,,VDKA3U,train_x,red_square,top_left,2025-02-21_16h08.47.385,HideSeek_v1,2022.2.5,59.970266752709875,
,,,,,,,,,,,,,,,4,0,4,0,0,0,0,0,,,,,,,,,,,,,,,,,,,,,,,,,,,,,,,conditions/schedules/train_x_first/red_square_00/top_left/instructions/Slide21.png,conditions/schedules/train_x_first/red_square_00/top_left/instructions/Audio21.wav,2541.904198899865,2541.8928365701345,22,"[20.628143900074065, 17.936171399895102, 17.13764030020684, 19.540501600131392, 4.472597800195217, 5.037000900134444, 6.404657199978828, 11.673290500417352, 6.051890600007027, 6.917913099750876, 9.820809100288898, 10.404192399699241, 12.990907099563628, 17.701176800299436, 12.83617000002414, 30.5540187000297, 21.882470200303942, 39.02268029982224, 7.367651800159365, 10.286069499794394, 14.392121800221503, 17.035348899662495]","[0.05468539986759424, 0.014073600061237812, 0.014637399930506945, 0.035313600208610296, 0.0660063000395894, 0.0995895997621119, 0.11363440006971359, 0.013917600270360708, 0.07918869983404875, 0.04685700032860041, 0.030749599914997816, 0.014619899913668633, 12.99091409984976, 0.031031999737024307, 12.836176400072873, 0.08099650032818317, 21.882477400358766, 0.04680779995396733, 0.030146200209856033, 0.04712270013988018, 14.392133000306785, 17.035355599597096]",1,[19.71166089968756],[19.711667799856514],,,,,,,,,,,,,,,,,,,,,,,,,,,,,,,,,,,,,,,,,,,,,,,,,,,,,,,,,,,,,,,,,,,,,,,,,,,,,,,,,,,,,,,,,,,,,,,,,,,,,,,,,,,,,,,,,,,,,,,,,,VDKA3U,train_x,red_square,top_left,2025-02-21_16h08.47.385,HideSeek_v1,2022.2.5,59.970266752709875,
2,0,8,0,8,0,0,16,2,instr_dim1_2,,,,,,4,0,4,0,,,,,0,0,0,0,,,,,,,,,,,,,,,,,,,,,,,,,,,,,,,,,,,,,stimuli/alien_stimuli/16.png,conditions/schedules/train_x_first/red_square_00/top_left/inputInstr_2.xlsx,stimuli/alien_stimuli/16.png,2559.034988900181,2559.034988900181,2559.034988900181,2559.034988900181,2559.0252398801035,return,7.182588600087911,"[-0.16, -0.08, 0, 0.08, 0.16, 0.24, 0.32, 0.4, 0.48, 0.56]","[-0.4, -0.32, -0.24, -0.16, -0.08, 0, 0.08, 0.16, 0.24, 0.32]",8,8,0,0,0.0,0.0,2566.381991600152,2566.381991600152,2566.381991600152,2566.381991600152,2566.381991600152,2566.381991600152,2566.381991600152,2566.379989569867,7.223687499761581,return,7.057155800051987,stimuli/alien_stimuli/16.png,16,0,2,,,,,,,,,,,,,,,,,,,,,,,,,,,,,,,,,,,,,,,,,,,,,,,,,,,,,,,,,,,,,,,,,,,,,,,,,,,,,,,,,,,,,,,,,VDKA3U,train_x,red_square,top_left,2025-02-21_16h08.47.385,HideSeek_v1,2022.2.5,59.970266752709875,
,,,,,,,,,,,30,,,,4,0,4,0,,,,,,,,,,,,,,,,,,,,,,,,,,,,,,,,,,,,,,,,,,,,,,,,,,,,,,,,,,,,,,,,,,,,,,,,,,,,,,21,0.7,0.875,1,99,2,30,0,conditions/schedules/train_x_first/red_square_00/top_left/inputTrain_2.1.xlsx,99,1,2,1,0,,,,,,,,,,,,,,,,,,,,,,,,,,,,,,,,,,,,,,,,,,,,,,,,,,,,,,,,,,,,,,,,,,,,,,,,,,,VDKA3U,train_x,red_square,top_left,2025-02-21_16h08.47.385,HideSeek_v1,2022.2.5,59.970266752709875,
,,,,,,,,,,,,,,,5,0,5,0,0,0,0,0,,,,,,,,,,,,,,,,,,,,,,,,,,,,,,,conditions/schedules/train_x_first/red_square_00/top_left/instructions/Slide22.png,conditions/schedules/train_x_first/red_square_00/top_left/instructions/Audio22.wav,2573.6197860999964,2573.6193500002846,23,"[20.628143900074065, 17.936171399895102, 17.13764030020684, 19.540501600131392, 4.472597800195217, 5.037000900134444, 6.404657199978828, 11.673290500417352, 6.051890600007027, 6.917913099750876, 9.820809100288898, 10.404192399699241, 12.990907099563628, 17.701176800299436, 12.83617000002414, 30.5540187000297, 21.882470200303942, 39.02268029982224, 7.367651800159365, 10.286069499794394, 14.392121800221503, 17.035348899662495, 44.75059029972181]","[0.05468539986759424, 0.014073600061237812, 0.014637399930506945, 0.035313600208610296, 0.0660063000395894, 0.0995895997621119, 0.11363440006971359, 0.013917600270360708, 0.07918869983404875, 0.04685700032860041, 0.030749599914997816, 0.014619899913668633, 12.99091409984976, 0.031031999737024307, 12.836176400072873, 0.08099650032818317, 21.882477400358766, 0.04680779995396733, 0.030146200209856033, 0.04712270013988018, 14.392133000306785, 17.035355599597096, 44.750597999896854]",1,[19.71166089968756],[19.711667799856514],,,,,,,,,,,,,,,,,,,,,,,,,,,,,,,,,,,,,,,,,,,,,,,,,,,,,,,,,,,,,,,,,,,,,,,,,,,,,,,,,,,,,,,,,,,,,,,,,,,,,,,,,,,,,,,,,,,,,,,,,,VDKA3U,train_x,red_square,top_left,2025-02-21_16h08.47.385,HideSeek_v1,2022.2.5,59.970266752709875,
,0,5,0,4,0,-1,15,,train_dim1_2,1,30,,,,5,0,5,0,,,,,,,,,0,0,0,0,0,0,0,0,0,0,0,0,,,,,,,,,,,,,,,,,,,,,,,,,stimuli/alien_stimuli/15.png,,,,,,,,,,,,,,,,,,,,,,,,,,,,,,,,,,,,,,,30,,,,,,,,2618.468209499959,2618.468209499959,2618.468209499959,2618.468209499959,2618.468209499959,return,3.461944399867207,0,1,0,0,-0.16,0,return,3.366082899738103,-5,81,-0.16,0,,,,,,,,,,,,,,,,,,,,,,,,,,,,,,,,,,,,,,,,,,,,,,,,,,,,,,,,VDKA3U,train_x,red_square,top_left,2025-02-21_16h08.47.385,HideSeek_v1,2022.2.5,59.970266752709875,
,3,7,3,7,0,0,16,,train_dim1_2,2,30,,,,5,0,5,0,,,,,,,,,0,0,0,0,0,1,1,1,0,0,0,0,,,,,,,,,,,,,,,,,,,,,,,,,stimuli/alien_stimuli/16.png,,,,,,,,,,,,,,,,,,,,,,,,,,,,,stimuli/alien_stimuli/15.png,15,0,3,,,,,,,30,,,,,,,,2628.7262384002097,2628.7262384002097,2628.7262384002097,2628.7262384002097,2628.7262384002097,down,2.06799630029127,0,1,0,99,0.08,0.08,down,1.984936200082302,,,,,2627.163470900152,2628.7262384002097,-0.16,-0.08,0.08,0.0,-0.04,-0.16,-0.16,-0.16,-0.08,2623.4966422999278,2623.4966422999278,2623.4966422999278,2623.4966422999278,2623.4966422999278,2623.4966422999278,2623.4966422999278,2623.4966422999278,2623.493922240287,3.788296400103718,return,3.637509500142187,,,,,,,,,,,,,,,,,,,,,,,,,,,,,,,,,VDKA3U,train_x,red_square,top_left,2025-02-21_16h08.47.385,HideSeek_v1,2022.2.5,59.970266752709875,
,3,7,3,7,0,0,16,,train_dim1_2,2,30,,,,5,0,5,0,,,,,,,,,0,0,0,0,0,1,1,1,1,0,1,0,,,,,,,,,,,,,,,,,,,,,,,,,,,,,,,,,,,,,,,,,,,,,,,,,,,,,,,,,,,,,,,,30,,,,,,,,2630.801207699813,2630.801207699813,2630.801207699813,2630.801207699813,2630.801207699813,return,0.708950599655509,0,1,0,0,0.08,0.08,return,0.6330082002095878,-6,81,0.08,0.08,,,,,,,,,,,,,,,,,,,,,,,,,,,,,,,,,,,,,,,,,,,,,,,,,,,,,,,,VDKA3U,train_x,red_square,top_left,2025-02-21_16h08.47.385,HideSeek_v1,2022.2.5,59.970266752709875,
