trialInstr,x_fixStart,y_fixStart,x_corrSteps,y_corrSteps,x_nrSteps,y_nrSteps,alienID,trialLength,version,trialTrain,praclen,testlen,trial_label,break_on_off,beforeExpLoop.thisRepN,beforeExpLoop.thisTrialN,beforeExpLoop.thisN,beforeExpLoop.thisIndex,mini_instr_trials.thisRepN,mini_instr_trials.thisTrialN,mini_instr_trials.thisN,mini_instr_trials.thisIndex,instrLoop.thisRepN,instrLoop.thisTrialN,instrLoop.thisN,instrLoop.thisIndex,repeat_prac.thisRepN,repeat_prac.thisTrialN,repeat_prac.thisN,repeat_prac.thisIndex,trainLoop.thisRepN,trainLoop.thisTrialN,trainLoop.thisN,trainLoop.thisIndex,moveLoop_train.thisRepN,moveLoop_train.thisTrialN,moveLoop_train.thisN,moveLoop_train.thisIndex,experiment.thisRepN,experiment.thisTrialN,experiment.thisN,experiment.thisIndex,moveLoop_test.thisRepN,moveLoop_test.thisTrialN,moveLoop_test.thisN,moveLoop_test.thisIndex,mini_instr2_trials.thisRepN,mini_instr2_trials.thisTrialN,mini_instr2_trials.thisN,mini_instr2_trials.thisIndex,start_all_time,url,slideStim,audioStim,slides.started,sounds.started,nextButton.numClicks,nextButton.timesOn,nextButton.timesOff,prev_but.numClicks,prev_but.timesOn,prev_but.timesOff,alienStim,instrFile,alienStim_instr,gridImage_instr.started,startPos_3.started,key_instr.started,alienImage_3.started,sounds_1.started,key_instr.keys,key_instr.rt,all_x,all_y,FBy_corrSteps,FBy_fixStart,FBx_corrSteps,FBx_fixStart,FBy_pathSize_check,FBx_pathSize_check,gridImage_9.started,alienImageFB_3.started,startPosFB_3.started,keyFB_3.started,pathLine_ydir_2.started,pathLine_xdir_2.started,alienFace_3.started,sounds_2.started,RTFB_instr,keyFB_3.keys,keyFB_3.rt,draw_alienStim,draw_alienID,test_x,nrepcount,perfthres,percthres,earlierperf,earlystop,nextPrac,fileidx,praclen,saveACC_train,pracFile,nextPrac_train,addNrep,fileidx_endr,repExp,showearly,gridImage_4.started,startPos.started,movePos.started,key_resp.started,alienImage.started,buttonPress_train,RTchoice_train,cumAcctrain,aCorr,saveACC_choice,corrAns,x_movePos_end,y_movePos_end,key_resp.keys,key_resp.rt,wLy_dir,wLx_dir,x_movePos,y_movePos,text_2.started,text_2.stopped,aft_x_corrPos,aft_y_corrPos,y_pathSize_check,x_pathSize_check,y_pathdirY,x_pathdirY,x_pathdirX,x_corrPos,y_corrPos,gridImage_6.started,alienImageFB_2.started,startPosFB_2.started,movePosFB_2.started,keyFB_2.started,pathLine_xdir.started,pathLine_ydir.started,alienFace.started,sounds_4.started,RT_FBtrain,keyFB_2.keys,keyFB_2.rt,saveACC_pre,ACC,within_saveACC_train,earlystop_wloop,cumAcctrain_check,gridImage_3.started,alienImage_test.started,startPos_test.started,movePos_test.started,key_resp_test.started,wLy_dir_test,wLx_dir_test,buttonPress_test,RTchoice_test,cumAcctest,corrAns_test,key_resp_test.keys,key_resp_test.rt,text_3.started,text_3.stopped,total_time,end_all_time,key_resp_3.keys,slides_2.started,sounds_3.started,nextButton_2.numClicks,nextButton_2.timesOn,nextButton_2.timesOff,prev_but_2.numClicks,prev_but_2.timesOn,prev_but_2.timesOff,bye.started,participant,train_first,00_coordinate,starting corner,date,expName,psychopyVersion,frameRate,
,,,,,,,,,,,,,,,0,0,0,0,0,0,0,0,,,,,,,,,,,,,,,,,,,,,,,,,,,,,start_all_time,testround,conditions/schedules/train_y_first/blue_star_00/bottom_left/instructions/Slide1.png,conditions/schedules/train_y_first/blue_star_00/bottom_left/instructions/Audio1.wav,67.35946079999849,67.31215679998422,1,[3.6159588000009535],[3.615967100002308],0,,,,,,,,,,,,,,,,,,,,,,,,,,,,,,,,,,,,,,,,,,,,,,,,,,,,,,,,,,,,,,,,,,,,,,,,,,,,,,,,,,,,,,,,,,,,,,,,,,,,,,,,,,,,,,,,,,,,,,,,,,,,VFP65Z,train_y,blue_star,bottom_left,2025-07-09_17h28.51.859,HideSeek_v1,2022.2.5,59.4681289487679,
,,,,,,,,,,,,,,,0,0,0,0,1,0,1,0,,,,,,,,,,,,,,,,,,,,,,,,,,,,,,,conditions/schedules/train_y_first/blue_star_00/bottom_left/instructions/Slide2.png,conditions/schedules/train_y_first/blue_star_00/bottom_left/instructions/Audio2.wav,70.99173919999885,70.98148404000021,2,"[3.6159588000009535, 18.102026500000648]","[0.014012900002853712, 18.102033000002848]",0,,,,,,,,,,,,,,,,,,,,,,,,,,,,,,,,,,,,,,,,,,,,,,,,,,,,,,,,,,,,,,,,,,,,,,,,,,,,,,,,,,,,,,,,,,,,,,,,,,,,,,,,,,,,,,,,,,,,,,,,,,,,VFP65Z,train_y,blue_star,bottom_left,2025-07-09_17h28.51.859,HideSeek_v1,2022.2.5,59.4681289487679,
,,,,,,,,,,,,,,,0,0,0,0,2,0,2,0,,,,,,,,,,,,,,,,,,,,,,,,,,,,,,,conditions/schedules/train_y_first/blue_star_00/bottom_left/instructions/Slide3.png,conditions/schedules/train_y_first/blue_star_00/bottom_left/instructions/Audio3.wav,89.17149290000089,89.16320499999892,3,"[3.6159588000009535, 18.102026500000648, 9.43030870000075]","[0.014012900002853712, 0.013918799999373732, 9.430315999998129]",0,,,,,,,,,,,,,,,,,,,,,,,,,,,,,,,,,,,,,,,,,,,,,,,,,,,,,,,,,,,,,,,,,,,,,,,,,,,,,,,,,,,,,,,,,,,,,,,,,,,,,,,,,,,,,,,,,,,,,,,,,,,,VFP65Z,train_y,blue_star,bottom_left,2025-07-09_17h28.51.859,HideSeek_v1,2022.2.5,59.4681289487679,
,,,,,,,,,,,,,,,0,0,0,0,3,0,3,0,,,,,,,,,,,,,,,,,,,,,,,,,,,,,,,conditions/schedules/train_y_first/blue_star_00/bottom_left/instructions/Slide4.png,conditions/schedules/train_y_first/blue_star_00/bottom_left/instructions/Audio4.wav,98.66297280000072,98.65442193999915,4,"[3.6159588000009535, 18.102026500000648, 9.43030870000075, 18.671388400001888]","[0.014012900002853712, 0.013918799999373732, 0.05571140000029118, 18.671395100001973]",0,,,,,,,,,,,,,,,,,,,,,,,,,,,,,,,,,,,,,,,,,,,,,,,,,,,,,,,,,,,,,,,,,,,,,,,,,,,,,,,,,,,,,,,,,,,,,,,,,,,,,,,,,,,,,,,,,,,,,,,,,,,,VFP65Z,train_y,blue_star,bottom_left,2025-07-09_17h28.51.859,HideSeek_v1,2022.2.5,59.4681289487679,
,,,,,,,,,,,,,,,0,0,0,0,4,0,4,0,,,,,,,,,,,,,,,,,,,,,,,,,,,,,,,conditions/schedules/train_y_first/blue_star_00/bottom_left/instructions/Slide5.png,conditions/schedules/train_y_first/blue_star_00/bottom_left/instructions/Audio5.wav,117.39516540000113,117.3867540399995,5,"[3.6159588000009535, 18.102026500000648, 9.43030870000075, 18.671388400001888, 3.975732299997617]","[0.014012900002853712, 0.013918799999373732, 0.05571140000029118, 0.035050099999352824, 3.975739800000156]",0,,,,,,,,,,,,,,,,,,,,,,,,,,,,,,,,,,,,,,,,,,,,,,,,,,,,,,,,,,,,,,,,,,,,,,,,,,,,,,,,,,,,,,,,,,,,,,,,,,,,,,,,,,,,,,,,,,,,,,,,,,,,VFP65Z,train_y,blue_star,bottom_left,2025-07-09_17h28.51.859,HideSeek_v1,2022.2.5,59.4681289487679,
,,,,,,,,,,,,,,,0,0,0,0,5,0,5,0,,,,,,,,,,,,,,,,,,,,,,,,,,,,,,,conditions/schedules/train_y_first/blue_star_00/bottom_left/instructions/Slide6.png,conditions/schedules/train_y_first/blue_star_00/bottom_left/instructions/Audio6.wav,121.41922999999952,121.40662467999901,6,"[3.6159588000009535, 18.102026500000648, 9.43030870000075, 18.671388400001888, 3.975732299997617, 4.588829699998314]","[0.014012900002853712, 0.013918799999373732, 0.05571140000029118, 0.035050099999352824, 0.051369000000704546, 4.588836299997638]",0,,,,,,,,,,,,,,,,,,,,,,,,,,,,,,,,,,,,,,,,,,,,,,,,,,,,,,,,,,,,,,,,,,,,,,,,,,,,,,,,,,,,,,,,,,,,,,,,,,,,,,,,,,,,,,,,,,,,,,,,,,,,VFP65Z,train_y,blue_star,bottom_left,2025-07-09_17h28.51.859,HideSeek_v1,2022.2.5,59.4681289487679,
,,,,,,,,,,,,,,,0,0,0,0,6,0,6,0,,,,,,,,,,,,,,,,,,,,,,,,,,,,,,,conditions/schedules/train_y_first/blue_star_00/bottom_left/instructions/Slide7.png,conditions/schedules/train_y_first/blue_star_00/bottom_left/instructions/Audio7.wav,126.05674649999855,126.04405738000024,7,"[3.6159588000009535, 18.102026500000648, 9.43030870000075, 18.671388400001888, 3.975732299997617, 4.588829699998314, 5.038687399999617]","[0.014012900002853712, 0.013918799999373732, 0.05571140000029118, 0.035050099999352824, 0.051369000000704546, 0.03426679999756743, 5.038694199996826]",0,,,,,,,,,,,,,,,,,,,,,,,,,,,,,,,,,,,,,,,,,,,,,,,,,,,,,,,,,,,,,,,,,,,,,,,,,,,,,,,,,,,,,,,,,,,,,,,,,,,,,,,,,,,,,,,,,,,,,,,,,,,,VFP65Z,train_y,blue_star,bottom_left,2025-07-09_17h28.51.859,HideSeek_v1,2022.2.5,59.4681289487679,
,,,,,,,,,,,,,,,0,0,0,0,7,0,7,0,,,,,,,,,,,,,,,,,,,,,,,,,,,,,,,conditions/schedules/train_y_first/blue_star_00/bottom_left/instructions/Slide8.png,conditions/schedules/train_y_first/blue_star_00/bottom_left/instructions/Audio8.wav,131.14599570000064,131.14804194000024,8,"[3.6159588000009535, 18.102026500000648, 9.43030870000075, 18.671388400001888, 3.975732299997617, 4.588829699998314, 5.038687399999617, 10.942310700000235]","[0.014012900002853712, 0.013918799999373732, 0.05571140000029118, 0.035050099999352824, 0.051369000000704546, 0.03426679999756743, 0.04981410000254982, 10.94231740000032]",0,,,,,,,,,,,,,,,,,,,,,,,,,,,,,,,,,,,,,,,,,,,,,,,,,,,,,,,,,,,,,,,,,,,,,,,,,,,,,,,,,,,,,,,,,,,,,,,,,,,,,,,,,,,,,,,,,,,,,,,,,,,,VFP65Z,train_y,blue_star,bottom_left,2025-07-09_17h28.51.859,HideSeek_v1,2022.2.5,59.4681289487679,
,,,,,,,,,,,,,,,0,0,0,0,8,0,8,0,,,,,,,,,,,,,,,,,,,,,,,,,,,,,,,conditions/schedules/train_y_first/blue_star_00/bottom_left/instructions/Slide9.png,conditions/schedules/train_y_first/blue_star_00/bottom_left/instructions/Audio9.wav,142.1569524000006,142.15716409999914,9,"[3.6159588000009535, 18.102026500000648, 9.43030870000075, 18.671388400001888, 3.975732299997617, 4.588829699998314, 5.038687399999617, 10.942310700000235, 5.185527300000103]","[0.014012900002853712, 0.013918799999373732, 0.05571140000029118, 0.035050099999352824, 0.051369000000704546, 0.03426679999756743, 0.04981410000254982, 0.03155490000062855, 5.1855337000015425]",0,,,,,,,,,,,,,,,,,,,,,,,,,,,,,,,,,,,,,,,,,,,,,,,,,,,,,,,,,,,,,,,,,,,,,,,,,,,,,,,,,,,,,,,,,,,,,,,,,,,,,,,,,,,,,,,,,,,,,,,,,,,,VFP65Z,train_y,blue_star,bottom_left,2025-07-09_17h28.51.859,HideSeek_v1,2022.2.5,59.4681289487679,
,,,,,,,,,,,,,,,0,0,0,0,9,0,9,0,,,,,,,,,,,,,,,,,,,,,,,,,,,,,,,conditions/schedules/train_y_first/blue_star_00/bottom_left/instructions/Slide10.png,conditions/schedules/train_y_first/blue_star_00/bottom_left/instructions/Audio10.wav,147.3769562999987,147.37843218000089,10,"[3.6159588000009535, 18.102026500000648, 9.43030870000075, 18.671388400001888, 3.975732299997617, 4.588829699998314, 5.038687399999617, 10.942310700000235, 5.185527300000103, 6.387746899999911]","[0.014012900002853712, 0.013918799999373732, 0.05571140000029118, 0.035050099999352824, 0.051369000000704546, 0.03426679999756743, 0.04981410000254982, 0.03155490000062855, 0.04883490000065649, 6.3877542999980506]",0,,,,,,,,,,,,,,,,,,,,,,,,,,,,,,,,,,,,,,,,,,,,,,,,,,,,,,,,,,,,,,,,,,,,,,,,,,,,,,,,,,,,,,,,,,,,,,,,,,,,,,,,,,,,,,,,,,,,,,,,,,,,VFP65Z,train_y,blue_star,bottom_left,2025-07-09_17h28.51.859,HideSeek_v1,2022.2.5,59.4681289487679,
,,,,,,,,,,,,,,,0,0,0,0,10,0,10,0,,,,,,,,,,,,,,,,,,,,,,,,,,,,,,,conditions/schedules/train_y_first/blue_star_00/bottom_left/instructions/Slide11.png,conditions/schedules/train_y_first/blue_star_00/bottom_left/instructions/Audio11.wav,153.7999634000007,153.80033757999954,11,"[3.6159588000009535, 18.102026500000648, 9.43030870000075, 18.671388400001888, 3.975732299997617, 4.588829699998314, 5.038687399999617, 10.942310700000235, 5.185527300000103, 6.387746899999911, 9.605664599999727]","[0.014012900002853712, 0.013918799999373732, 0.05571140000029118, 0.035050099999352824, 0.051369000000704546, 0.03426679999756743, 0.04981410000254982, 0.03155490000062855, 0.04883490000065649, 0.1144696000010299, 9.605671000001166]",0,,,,,,,,,,,,,,,,,,,,,,,,,,,,,,,,,,,,,,,,,,,,,,,,,,,,,,,,,,,,,,,,,,,,,,,,,,,,,,,,,,,,,,,,,,,,,,,,,,,,,,,,,,,,,,,,,,,,,,,,,,,,VFP65Z,train_y,blue_star,bottom_left,2025-07-09_17h28.51.859,HideSeek_v1,2022.2.5,59.4681289487679,
,,,,,,,,,,,,,,,0,0,0,0,11,0,11,0,,,,,,,,,,,,,,,,,,,,,,,,,,,,,,,conditions/schedules/train_y_first/blue_star_00/bottom_left/instructions/Slide12.png,conditions/schedules/train_y_first/blue_star_00/bottom_left/instructions/Audio12.wav,163.4760838000002,163.47509700000046,12,"[3.6159588000009535, 18.102026500000648, 9.43030870000075, 18.671388400001888, 3.975732299997617, 4.588829699998314, 5.038687399999617, 10.942310700000235, 5.185527300000103, 6.387746899999911, 9.605664599999727, 13.424142299998493]","[0.014012900002853712, 0.013918799999373732, 0.05571140000029118, 0.035050099999352824, 0.051369000000704546, 0.03426679999756743, 0.04981410000254982, 0.03155490000062855, 0.04883490000065649, 0.1144696000010299, 0.04722669999682694, 13.424148899997817]",0,,,,,,,,,,,,,,,,,,,,,,,,,,,,,,,,,,,,,,,,,,,,,,,,,,,,,,,,,,,,,,,,,,,,,,,,,,,,,,,,,,,,,,,,,,,,,,,,,,,,,,,,,,,,,,,,,,,,,,,,,,,,VFP65Z,train_y,blue_star,bottom_left,2025-07-09_17h28.51.859,HideSeek_v1,2022.2.5,59.4681289487679,
1,0,3,0,8,0,5,66,2,instr_dim1_1,,,,,,0,0,0,0,,,,,0,0,0,0,,,,,,,,,,,,,,,,,,,,,,,,,,,,,,,,,,,,,stimuli/alien_stimuli/66.png,conditions/schedules/train_y_first/blue_star_00/bottom_left/inputInstr_1.xlsx,stimuli/alien_stimuli/66.png,176.99893470000097,176.99893470000097,176.99893470000097,176.99893470000097,177.00282882000135,return,9.911791099999391,"[-0.16, -0.08, 0, 0.08, 0.16, 0.24, 0.32, 0.4, 0.48, 0.56]","[-0.4, -0.32, -0.24, -0.16, -0.08, 0, 0.08, 0.16, 0.24, 0.32]",8,3,0,0,0.4,0.0,187.0748292999997,187.0748292999997,187.0748292999997,187.0748292999997,187.0748292999997,187.0748292999997,187.0748292999997,187.0613817399997,6.089217400000052,return,5.910549599997466,stimuli/alien_stimuli/66.png,66,0,1,,,,,,,,,,,,,,,,,,,,,,,,,,,,,,,,,,,,,,,,,,,,,,,,,,,,,,,,,,,,,,,,,,,,,,,,,,,,,,,,,,,,,,,,,VFP65Z,train_y,blue_star,bottom_left,2025-07-09_17h28.51.859,HideSeek_v1,2022.2.5,59.4681289487679,
,,,,,,,,,,,30,,,,0,0,0,0,,,,,,,,,,,,,,,,,,,,,,,,,,,,,,,,,,,,,,,,,,,,,,,,,,,,,,,,,,,,,,,,,,,,,,,,,,,,,,21,0.7,0,0,99,1,30,0,conditions/schedules/train_y_first/blue_star_00/bottom_left/inputTrain_1.1.xlsx,99,1,1,1,0,,,,,,,,,,,,,,,,,,,,,,,,,,,,,,,,,,,,,,,,,,,,,,,,,,,,,,,,,,,,,,,,,,,,,,,,,,,VFP65Z,train_y,blue_star,bottom_left,2025-07-09_17h28.51.859,HideSeek_v1,2022.2.5,59.4681289487679,
,,,,,,,,,,,,,,,1,0,1,0,0,0,0,0,,,,,,,,,,,,,,,,,,,,,,,,,,,,,,,conditions/schedules/train_y_first/blue_star_00/bottom_left/instructions/Slide13.png,conditions/schedules/train_y_first/blue_star_00/bottom_left/instructions/Audio13.wav,193.14235890000054,193.13302077999978,13,"[3.6159588000009535, 18.102026500000648, 9.43030870000075, 18.671388400001888, 3.975732299997617, 4.588829699998314, 5.038687399999617, 10.942310700000235, 5.185527300000103, 6.387746899999911, 9.605664599999727, 13.424142299998493, 16.267926300002728]","[0.014012900002853712, 0.013918799999373732, 0.05571140000029118, 0.035050099999352824, 0.051369000000704546, 0.03426679999756743, 0.04981410000254982, 0.03155490000062855, 0.04883490000065649, 0.1144696000010299, 0.04722669999682694, 13.424148899997817, 16.26793380000163]",0,,,,,,,,,,,,,,,,,,,,,,,,,,,,,,,,,,,,,,,,,,,,,,,,,,,,,,,,,,,,,,,,,,,,,,,,,,,,,,,,,,,,,,,,,,,,,,,,,,,,,,,,,,,,,,,,,,,,,,,,,,,,VFP65Z,train_y,blue_star,bottom_left,2025-07-09_17h28.51.859,HideSeek_v1,2022.2.5,59.4681289487679,
,,,,,,,,,,,,,,,1,0,1,0,1,0,1,0,,,,,,,,,,,,,,,,,,,,,,,,,,,,,,,conditions/schedules/train_y_first/blue_star_00/bottom_left/instructions/Slide14.png,conditions/schedules/train_y_first/blue_star_00/bottom_left/instructions/Audio14.wav,209.47479309999835,209.46320274000098,14,"[3.6159588000009535, 18.102026500000648, 9.43030870000075, 18.671388400001888, 3.975732299997617, 4.588829699998314, 5.038687399999617, 10.942310700000235, 5.185527300000103, 6.387746899999911, 9.605664599999727, 13.424142299998493, 16.267926300002728, 16.298986599998898]","[0.014012900002853712, 0.013918799999373732, 0.05571140000029118, 0.035050099999352824, 0.051369000000704546, 0.03426679999756743, 0.04981410000254982, 0.03155490000062855, 0.04883490000065649, 0.1144696000010299, 0.04722669999682694, 13.424148899997817, 0.05287789999783854, 16.298992500000168]",0,,,,,,,,,,,,,,,,,,,,,,,,,,,,,,,,,,,,,,,,,,,,,,,,,,,,,,,,,,,,,,,,,,,,,,,,,,,,,,,,,,,,,,,,,,,,,,,,,,,,,,,,,,,,,,,,,,,,,,,,,,,,VFP65Z,train_y,blue_star,bottom_left,2025-07-09_17h28.51.859,HideSeek_v1,2022.2.5,59.4681289487679,
2,2,3,2,3,0,0,61,2,instr_dim1_1,,,,,,1,0,1,0,,,,,0,0,0,0,,,,,,,,,,,,,,,,,,,,,,,,,,,,,,,,,,,,,stimuli/alien_stimuli/61.png,conditions/schedules/train_y_first/blue_star_00/bottom_left/inputInstr_1.xlsx,stimuli/alien_stimuli/61.png,225.8645761000007,225.8645761000007,225.8645761000007,225.8645761000007,225.8601624600007,return,6.971575599996868,"[-0.16, -0.08, 0, 0.08, 0.16, 0.24, 0.32, 0.4, 0.48, 0.56]","[-0.4, -0.32, -0.24, -0.16, -0.08, 0, 0.08, 0.16, 0.24, 0.32]",3,3,2,2,0.0,0.0,232.98519920000035,232.98519920000035,232.98519920000035,232.98519920000035,232.98519920000035,232.98519920000035,232.98519920000035,232.9828834800006,9.17515369999819,return,9.037235199997667,stimuli/alien_stimuli/61.png,61,2,2,,,,,,,,,,,,,,,,,,,,,,,,,,,,,,,,,,,,,,,,,,,,,,,,,,,,,,,,,,,,,,,,,,,,,,,,,,,,,,,,,,,,,,,,,VFP65Z,train_y,blue_star,bottom_left,2025-07-09_17h28.51.859,HideSeek_v1,2022.2.5,59.4681289487679,
,,,,,,,,,,,30,,,,1,0,1,0,,,,,,,,,,,,,,,,,,,,,,,,,,,,,,,,,,,,,,,,,,,,,,,,,,,,,,,,,,,,,,,,,,,,,,,,,,,,,,21,0.7,0,0,99,1,30,0,conditions/schedules/train_y_first/blue_star_00/bottom_left/inputTrain_1.1.xlsx,99,1,1,1,0,,,,,,,,,,,,,,,,,,,,,,,,,,,,,,,,,,,,,,,,,,,,,,,,,,,,,,,,,,,,,,,,,,,,,,,,,,,VFP65Z,train_y,blue_star,bottom_left,2025-07-09_17h28.51.859,HideSeek_v1,2022.2.5,59.4681289487679,
,,,,,,,,,,,,,,,2,0,2,0,0,0,0,0,,,,,,,,,,,,,,,,,,,,,,,,,,,,,,,conditions/schedules/train_y_first/blue_star_00/bottom_left/instructions/Slide15.png,conditions/schedules/train_y_first/blue_star_00/bottom_left/instructions/Audio15.wav,242.1734221000006,242.1737001399986,15,"[3.6159588000009535, 18.102026500000648, 9.43030870000075, 18.671388400001888, 3.975732299997617, 4.588829699998314, 5.038687399999617, 10.942310700000235, 5.185527300000103, 6.387746899999911, 9.605664599999727, 13.424142299998493, 16.267926300002728, 16.298986599998898, 42.8661718000003]","[0.014012900002853712, 0.013918799999373732, 0.05571140000029118, 0.035050099999352824, 0.051369000000704546, 0.03426679999756743, 0.04981410000254982, 0.03155490000062855, 0.04883490000065649, 0.1144696000010299, 0.04722669999682694, 13.424148899997817, 0.05287789999783854, 16.298992500000168, 42.8661792999992]",0,,,,,,,,,,,,,,,,,,,,,,,,,,,,,,,,,,,,,,,,,,,,,,,,,,,,,,,,,,,,,,,,,,,,,,,,,,,,,,,,,,,,,,,,,,,,,,,,,,,,,,,,,,,,,,,,,,,,,,,,,,,,VFP65Z,train_y,blue_star,bottom_left,2025-07-09_17h28.51.859,HideSeek_v1,2022.2.5,59.4681289487679,
,,,,,,,,,,,,,,,2,0,2,0,1,0,1,0,,,,,,,,,,,,,,,,,,,,,,,,,,,,,,,conditions/schedules/train_y_first/blue_star_00/bottom_left/instructions/Slide16.png,conditions/schedules/train_y_first/blue_star_00/bottom_left/instructions/Audio16.wav,285.1127520000009,285.1095555000011,16,"[3.6159588000009535, 18.102026500000648, 9.43030870000075, 18.671388400001888, 3.975732299997617, 4.588829699998314, 5.038687399999617, 10.942310700000235, 5.185527300000103, 6.387746899999911, 9.605664599999727, 13.424142299998493, 16.267926300002728, 16.298986599998898, 42.8661718000003, 19.21032589999959]","[0.014012900002853712, 0.013918799999373732, 0.05571140000029118, 0.035050099999352824, 0.051369000000704546, 0.03426679999756743, 0.04981410000254982, 0.03155490000062855, 0.04883490000065649, 0.1144696000010299, 0.04722669999682694, 13.424148899997817, 0.05287789999783854, 16.298992500000168, 0.0475613999988127, 19.210333099999843]",0,,,,,,,,,,,,,,,,,,,,,,,,,,,,,,,,,,,,,,,,,,,,,,,,,,,,,,,,,,,,,,,,,,,,,,,,,,,,,,,,,,,,,,,,,,,,,,,,,,,,,,,,,,,,,,,,,,,,,,,,,,,,VFP65Z,train_y,blue_star,bottom_left,2025-07-09_17h28.51.859,HideSeek_v1,2022.2.5,59.4681289487679,
,0,0,0,4,0,4,65,,train_dim1_1,1,30,,,,2,0,2,0,,,,,,,,,0,0,0,0,0,0,0,0,0,0,0,0,,,,,,,,,,,,,,,,,,,,,,,,,stimuli/alien_stimuli/65.png,,,,,,,,,,,,,,,,,,,,,,,,,,,,,,,,,,,,,,,30,,,,,,,,304.42382930000167,304.42382930000167,304.42382930000167,304.42382930000167,304.42382930000167,right,11.871638099997654,0,0,0,99,-0.08,-0.4,right,11.77897689999736,,,,,,,,,,,,,,,,,,,,,,,,,,,,,,,,,,,,,,,,,,,,,,,,,,,,,,,,,,,,VFP65Z,train_y,blue_star,bottom_left,2025-07-09_17h28.51.859,HideSeek_v1,2022.2.5,59.4681289487679,
,0,0,0,4,0,4,65,,train_dim1_1,1,30,,,,2,0,2,0,,,,,,,,,0,0,0,0,0,0,0,0,1,0,1,0,,,,,,,,,,,,,,,,,,,,,,,,,,,,,,,,,,,,,,,,,,,,,,,,,,,,,,,,,,,,,,,,30,,,,,,,,316.30129450000095,316.30129450000095,316.30129450000095,316.30129450000095,316.30129450000095,right,1.1937525000030291,0,0,0,99,0.0,-0.4,right,1.0981221000001824,,,,,,,,,,,,,,,,,,,,,,,,,,,,,,,,,,,,,,,,,,,,,,,,,,,,,,,,,,,,VFP65Z,train_y,blue_star,bottom_left,2025-07-09_17h28.51.859,HideSeek_v1,2022.2.5,59.4681289487679,
,0,0,0,4,0,4,65,,train_dim1_1,1,30,,,,2,0,2,0,,,,,,,,,0,0,0,0,0,0,0,0,2,0,2,0,,,,,,,,,,,,,,,,,,,,,,,,,,,,,,,,,,,,,,,,,,,,,,,,,,,,,,,,,,,,,,,,30,,,,,,,,317.48230110000077,317.48230110000077,317.48230110000077,317.48230110000077,317.48230110000077,up,2.461822999997821,0,0,0,99,0.0,-0.32,up,2.37904449999769,,,,,,,,,,,,,,,,,,,,,,,,,,,,,,,,,,,,,,,,,,,,,,,,,,,,,,,,,,,,VFP65Z,train_y,blue_star,bottom_left,2025-07-09_17h28.51.859,HideSeek_v1,2022.2.5,59.4681289487679,
,0,0,0,4,0,4,65,,train_dim1_1,1,30,,,,2,0,2,0,,,,,,,,,0,0,0,0,0,0,0,0,3,0,3,0,,,,,,,,,,,,,,,,,,,,,,,,,,,,,,,,,,,,,,,,,,,,,,,,,,,,,,,,,,,,,,,,30,,,,,,,,319.9513733999993,319.9513733999993,319.9513733999993,319.9513733999993,319.9513733999993,up,0.4931517000004533,0,0,0,99,0.0,-0.24,up,0.4053280999978597,,,,,,,,,,,,,,,,,,,,,,,,,,,,,,,,,,,,,,,,,,,,,,,,,,,,,,,,,,,,VFP65Z,train_y,blue_star,bottom_left,2025-07-09_17h28.51.859,HideSeek_v1,2022.2.5,59.4681289487679,
,0,0,0,4,0,4,65,,train_dim1_1,1,30,,,,2,0,2,0,,,,,,,,,0,0,0,0,0,0,0,0,4,0,4,0,,,,,,,,,,,,,,,,,,,,,,,,,,,,,,,,,,,,,,,,,,,,,,,,,,,,,,,,,,,,,,,,30,,,,,,,,320.453422999999,320.453422999999,320.453422999999,320.453422999999,320.453422999999,left,2.795543899999757,0,0,0,99,-0.08,-0.24,left,2.720696299998963,,,,,,,,,,,,,,,,,,,,,,,,,,,,,,,,,,,,,,,,,,,,,,,,,,,,,,,,,,,,VFP65Z,train_y,blue_star,bottom_left,2025-07-09_17h28.51.859,HideSeek_v1,2022.2.5,59.4681289487679,
,0,0,0,4,0,4,65,,train_dim1_1,1,30,,,,2,0,2,0,,,,,,,,,0,0,0,0,0,0,0,0,5,0,5,0,,,,,,,,,,,,,,,,,,,,,,,,,,,,,,,,,,,,,,,,,,,,,,,,,,,,,,,,,,,,,,,,30,,,,,,,,323.2533012999993,323.2533012999993,323.2533012999993,323.2533012999993,323.2533012999993,up,0.8102522000008321,0,0,0,99,-0.08,-0.15999999999999998,up,0.7343383999977959,,,,,,,,,,,,,,,,,,,,,,,,,,,,,,,,,,,,,,,,,,,,,,,,,,,,,,,,,,,,VFP65Z,train_y,blue_star,bottom_left,2025-07-09_17h28.51.859,HideSeek_v1,2022.2.5,59.4681289487679,
,0,0,0,4,0,4,65,,train_dim1_1,1,30,,,,2,0,2,0,,,,,,,,,0,0,0,0,0,0,0,0,6,0,6,0,,,,,,,,,,,,,,,,,,,,,,,,,,,,,,,,,,,,,,,,,,,,,,,,,,,,,,,,,,,,,,,,30,,,,,,,,324.0722867000004,324.0722867000004,324.0722867000004,324.0722867000004,324.0722867000004,return,0.6595334999983606,0,0,0,0,-0.08,-0.15999999999999998,return,0.5787363999988884,3,1,-0.08,-0.15999999999999998,,,,,,,,,,,,,,,,,,,,,,,,,,,,,,,,,,,,,,,,,,,,,,,,,,,,,,,,VFP65Z,train_y,blue_star,bottom_left,2025-07-09_17h28.51.859,HideSeek_v1,2022.2.5,59.4681289487679,
,3,2,3,7,0,5,66,,train_dim1_1,2,30,,,,2,0,2,0,,,,,,,,,0,0,0,0,0,1,1,1,0,0,0,0,,,,,,,,,,,,,,,,,,,,,,,,,stimuli/alien_stimuli/66.png,,,,,,,,,,,,,,,,,,,,,,,,,,,,,stimuli/alien_stimuli/65.png,65,0,3,,,,,,,30,,,,,,,,335.003160799999,335.003160799999,335.003160799999,335.003160799999,335.003160799999,left,3.5073052999978245,0,0,0,99,0.0,-0.24,left,3.4350615000003017,,,,,333.4499085999996,335.003160799999,-0.16,-0.08,0.32,0.0,-0.24000000000000002,-0.16,-0.16,-0.16,-0.08,326.31310569999914,326.31310569999914,326.31310569999914,326.31310569999914,326.31310569999914,326.31310569999914,326.31310569999914,326.31310569999914,326.29374331999895,7.25800209999943,return,7.105495099996915,,,,,,,,,,,,,,,,,,,,,,,,,,,,,,,,,VFP65Z,train_y,blue_star,bottom_left,2025-07-09_17h28.51.859,HideSeek_v1,2022.2.5,59.4681289487679,
,3,2,3,7,0,5,66,,train_dim1_1,2,30,,,,2,0,2,0,,,,,,,,,0,0,0,0,0,1,1,1,1,0,1,0,,,,,,,,,,,,,,,,,,,,,,,,,,,,,,,,,,,,,,,,,,,,,,,,,,,,,,,,,,,,,,,,30,,,,,,,,338.51694900000075,338.51694900000075,338.51694900000075,338.51694900000075,338.51694900000075,up,0.9269276999984868,0,0,0,99,0.0,-0.15999999999999998,up,0.8396164999976463,,,,,,,,,,,,,,,,,,,,,,,,,,,,,,,,,,,,,,,,,,,,,,,,,,,,,,,,,,,,VFP65Z,train_y,blue_star,bottom_left,2025-07-09_17h28.51.859,HideSeek_v1,2022.2.5,59.4681289487679,
,3,2,3,7,0,5,66,,train_dim1_1,2,30,,,,2,0,2,0,,,,,,,,,0,0,0,0,0,1,1,1,2,0,2,0,,,,,,,,,,,,,,,,,,,,,,,,,,,,,,,,,,,,,,,,,,,,,,,,,,,,,,,,,,,,,,,,30,,,,,,,,339.45151819999955,339.45151819999955,339.45151819999955,339.45151819999955,339.45151819999955,up,0.4260474000002432,0,0,0,99,0.0,-0.07999999999999997,up,0.3413667999993777,,,,,,,,,,,,,,,,,,,,,,,,,,,,,,,,,,,,,,,,,,,,,,,,,,,,,,,,,,,,VFP65Z,train_y,blue_star,bottom_left,2025-07-09_17h28.51.859,HideSeek_v1,2022.2.5,59.4681289487679,
,3,2,3,7,0,5,66,,train_dim1_1,2,30,,,,2,0,2,0,,,,,,,,,0,0,0,0,0,1,1,1,3,0,3,0,,,,,,,,,,,,,,,,,,,,,,,,,,,,,,,,,,,,,,,,,,,,,,,,,,,,,,,,,,,,,,,,30,,,,,,,,339.8843922999986,339.8843922999986,339.8843922999986,339.8843922999986,339.8843922999986,up,0.710729899998114,0,0,0,99,0.0,2.7755575615628914e-17,up,0.6257960999973875,,,,,,,,,,,,,,,,,,,,,,,,,,,,,,,,,,,,,,,,,,,,,,,,,,,,,,,,,,,,VFP65Z,train_y,blue_star,bottom_left,2025-07-09_17h28.51.859,HideSeek_v1,2022.2.5,59.4681289487679,
,3,2,3,7,0,5,66,,train_dim1_1,2,30,,,,2,0,2,0,,,,,,,,,0,0,0,0,0,1,1,1,4,0,4,0,,,,,,,,,,,,,,,,,,,,,,,,,,,,,,,,,,,,,,,,,,,,,,,,,,,,,,,,,,,,,,,,30,,,,,,,,340.60270519999904,340.60270519999904,340.60270519999904,340.60270519999904,340.60270519999904,return,3.0450270000001183,0,0,0,0,0.0,2.7755575615628914e-17,return,2.967756099998951,6,0,0.0,2.7755575615628914e-17,,,,,,,,,,,,,,,,,,,,,,,,,,,,,,,,,,,,,,,,,,,,,,,,,,,,,,,,VFP65Z,train_y,blue_star,bottom_left,2025-07-09_17h28.51.859,HideSeek_v1,2022.2.5,59.4681289487679,
,2,3,2,6,0,3,64,,train_dim1_1,3,30,,,,2,0,2,0,,,,,,,,,0,0,0,0,0,2,2,2,0,0,0,0,,,,,,,,,,,,,,,,,,,,,,,,,stimuli/alien_stimuli/64.png,,,,,,,,,,,,,,,,,,,,,,,,,,,,,stimuli/alien_stimuli/66.png,66,3,4,,,,,,,30,,,,,,,,350.08163680000143,350.08163680000143,350.08163680000143,350.08163680000143,350.08163680000143,left,2.8391666000024998,0,0,0,99,-0.08,-0.16,left,2.7574553999984346,,,,,348.5289311999986,350.08163680000143,0.08,0.16,0.4,0.0,-0.039999999999999994,0.08,0.08,0.08,0.16,345.22983419999946,345.22983419999946,345.22983419999946,345.22983419999946,345.22983419999946,345.22983419999946,345.22983419999946,345.22983419999946,345.2265532799989,3.420943299999635,return,3.267475500000728,,,,,,,,,,,,,,,,,,,,,,,,,,,,,,,,,VFP65Z,train_y,blue_star,bottom_left,2025-07-09_17h28.51.859,HideSeek_v1,2022.2.5,59.4681289487679,
,2,3,2,6,0,3,64,,train_dim1_1,3,30,,,,2,0,2,0,,,,,,,,,0,0,0,0,0,2,2,2,1,0,1,0,,,,,,,,,,,,,,,,,,,,,,,,,,,,,,,,,,,,,,,,,,,,,,,,,,,,,,,,,,,,,,,,30,,,,,,,,352.930408799999,352.930408799999,352.930408799999,352.930408799999,352.930408799999,up,1.460703700002341,0,0,0,99,-0.08,-0.08,up,1.3816459999979998,,,,,,,,,,,,,,,,,,,,,,,,,,,,,,,,,,,,,,,,,,,,,,,,,,,,,,,,,,,,VFP65Z,train_y,blue_star,bottom_left,2025-07-09_17h28.51.859,HideSeek_v1,2022.2.5,59.4681289487679,
,2,3,2,6,0,3,64,,train_dim1_1,3,30,,,,2,0,2,0,,,,,,,,,0,0,0,0,0,2,2,2,2,0,2,0,,,,,,,,,,,,,,,,,,,,,,,,,,,,,,,,,,,,,,,,,,,,,,,,,,,,,,,,,,,,,,,,30,,,,,,,,354.3988916999988,354.3988916999988,354.3988916999988,354.3988916999988,354.3988916999988,up,0.6075787999980093,0,0,0,99,-0.08,0.0,up,0.5208152999985032,,,,,,,,,,,,,,,,,,,,,,,,,,,,,,,,,,,,,,,,,,,,,,,,,,,,,,,,,,,,VFP65Z,train_y,blue_star,bottom_left,2025-07-09_17h28.51.859,HideSeek_v1,2022.2.5,59.4681289487679,
,2,3,2,6,0,3,64,,train_dim1_1,3,30,,,,2,0,2,0,,,,,,,,,0,0,0,0,0,2,2,2,3,0,3,0,,,,,,,,,,,,,,,,,,,,,,,,,,,,,,,,,,,,,,,,,,,,,,,,,,,,,,,,,,,,,,,,30,,,,,,,,355.01340849999906,355.01340849999906,355.01340849999906,355.01340849999906,355.01340849999906,right,0.7770689000026323,0,0,0,99,0.0,0.0,right,0.7042670999981056,,,,,,,,,,,,,,,,,,,,,,,,,,,,,,,,,,,,,,,,,,,,,,,,,,,,,,,,,,,,VFP65Z,train_y,blue_star,bottom_left,2025-07-09_17h28.51.859,HideSeek_v1,2022.2.5,59.4681289487679,
,2,3,2,6,0,3,64,,train_dim1_1,3,30,,,,2,0,2,0,,,,,,,,,0,0,0,0,0,2,2,2,4,0,4,0,,,,,,,,,,,,,,,,,,,,,,,,,,,,,,,,,,,,,,,,,,,,,,,,,,,,,,,,,,,,,,,,30,,,,,,,,355.79704349999884,355.79704349999884,355.79704349999884,355.79704349999884,355.79704349999884,up,0.5598538000012923,0,0,0,99,0.0,0.08,up,0.4820752999985416,,,,,,,,,,,,,,,,,,,,,,,,,,,,,,,,,,,,,,,,,,,,,,,,,,,,,,,,,,,,VFP65Z,train_y,blue_star,bottom_left,2025-07-09_17h28.51.859,HideSeek_v1,2022.2.5,59.4681289487679,
,2,3,2,6,0,3,64,,train_dim1_1,3,30,,,,2,0,2,0,,,,,,,,,0,0,0,0,0,2,2,2,5,0,5,0,,,,,,,,,,,,,,,,,,,,,,,,,,,,,,,,,,,,,,,,,,,,,,,,,,,,,,,,,,,,,,,,30,,,,,,,,356.3642510999998,356.3642510999998,356.3642510999998,356.3642510999998,356.3642510999998,up,1.3108912999996392,0,0,0,99,0.0,0.16,up,1.227996699999494,,,,,,,,,,,,,,,,,,,,,,,,,,,,,,,,,,,,,,,,,,,,,,,,,,,,,,,,,,,,VFP65Z,train_y,blue_star,bottom_left,2025-07-09_17h28.51.859,HideSeek_v1,2022.2.5,59.4681289487679,
,2,3,2,6,0,3,64,,train_dim1_1,3,30,,,,2,0,2,0,,,,,,,,,0,0,0,0,0,2,2,2,6,0,6,0,,,,,,,,,,,,,,,,,,,,,,,,,,,,,,,,,,,,,,,,,,,,,,,,,,,,,,,,,,,,,,,,30,,,,,,,,357.68176120000135,357.68176120000135,357.68176120000135,357.68176120000135,357.68176120000135,return,0.4768822000005457,0,1,0,0,0.0,0.16,return,0.39790349999748287,10,0,0.0,0.16,,,,,,,,,,,,,,,,,,,,,,,,,,,,,,,,,,,,,,,,,,,,,,,,,,,,,,,,VFP65Z,train_y,blue_star,bottom_left,2025-07-09_17h28.51.859,HideSeek_v1,2022.2.5,59.4681289487679,
,0,1,0,2,0,1,62,,train_dim1_1,4,30,,,,2,0,2,0,,,,,,,,,0,0,0,0,0,3,3,3,0,0,0,0,,,,,,,,,,,,,,,,,,,,,,,,,stimuli/alien_stimuli/62.png,,,,,,,,,,,,,,,,,,,,,,,,,,,,,stimuli/alien_stimuli/64.png,64,2,5,,,,,,,30,,,,,,,,366.6294655999991,366.6294655999991,366.6294655999991,366.6294655999991,366.6294655999991,return,2.924457099998108,0,1,0,0,-0.16,-0.32,return,2.8391673999976774,10,0,-0.16,-0.32,365.0761616000018,366.6294655999991,0,0.08,0.24,0.0,-0.04,0,0.0,0,0.08,359.7292430999987,359.7292430999987,359.7292430999987,359.7292430999987,359.7292430999987,359.7292430999987,359.7292430999987,359.7292430999987,359.72167981999917,5.4564424000018334,return,5.317660500000784,,,,,,,,,,,,,,,,,,,,,,,,,,,,,,,,,VFP65Z,train_y,blue_star,bottom_left,2025-07-09_17h28.51.859,HideSeek_v1,2022.2.5,59.4681289487679,
,3,3,3,3,0,0,61,,train_dim1_1,5,30,,,,2,0,2,0,,,,,,,,,0,0,0,0,0,4,4,4,0,0,0,0,,,,,,,,,,,,,,,,,,,,,,,,,stimuli/alien_stimuli/61.png,,,,,,,,,,,,,,,,,,,,,,,,,,,,,stimuli/alien_stimuli/62.png,62,0,6,,,,,,,30,,,,,,,,378.0895614000001,378.0895614000001,378.0895614000001,378.0895614000001,378.0895614000001,up,2.5740772999997716,0,1,0,99,0.08,-0.08,up,2.487976100001106,,,,,376.53493850000086,378.0895614000001,-0.16,-0.24,0.08,0.0,-0.28,-0.16,-0.16,-0.16,-0.24,371.1195493000014,371.1195493000014,371.1195493000014,371.1195493000014,371.1195493000014,371.1195493000014,371.1195493000014,371.1195493000014,371.1139085200015,5.523615299996891,return,5.385499899999559,,,,,,,,,,,,,,,,,,,,,,,,,,,,,,,,,VFP65Z,train_y,blue_star,bottom_left,2025-07-09_17h28.51.859,HideSeek_v1,2022.2.5,59.4681289487679,
,3,3,3,3,0,0,61,,train_dim1_1,5,30,,,,2,0,2,0,,,,,,,,,0,0,0,0,0,4,4,4,1,0,1,0,,,,,,,,,,,,,,,,,,,,,,,,,,,,,,,,,,,,,,,,,,,,,,,,,,,,,,,,,,,,,,,,30,,,,,,,,380.6728089999997,380.6728089999997,380.6728089999997,380.6728089999997,380.6728089999997,return,0.41014910000012605,0,1,0,0,0.08,-0.08,return,0.32063889999699313,11,0,0.08,-0.08,,,,,,,,,,,,,,,,,,,,,,,,,,,,,,,,,,,,,,,,,,,,,,,,,,,,,,,,VFP65Z,train_y,blue_star,bottom_left,2025-07-09_17h28.51.859,HideSeek_v1,2022.2.5,59.4681289487679,
,1,4,1,5,0,1,62,,train_dim1_1,6,30,,,,2,0,2,0,,,,,,,,,0,0,0,0,0,5,5,5,0,0,0,0,,,,,,,,,,,,,,,,,,,,,,,,,stimuli/alien_stimuli/62.png,,,,,,,,,,,,,,,,,,,,,,,,,,,,,stimuli/alien_stimuli/61.png,61,3,7,,,,,,,30,,,,,,,,404.88124909999897,404.88124909999897,404.88124909999897,404.88124909999897,404.88124909999897,up,3.055336299999908,0,1,0,99,-0.08,0.0,up,2.9514828999999736,,,,,403.30778329999885,404.88124909999897,0.08,-0.16,0.0,0.0,-0.16,0.08,0.08,0.08,-0.16,382.66223810000156,382.66223810000156,382.66223810000156,382.66223810000156,382.66223810000156,382.66223810000156,382.66223810000156,382.66223810000156,382.6569626200002,20.753546500000084,return,20.614253600000666,,,,,,,,,,,,,,,,,,,,,,,,,,,,,,,,,VFP65Z,train_y,blue_star,bottom_left,2025-07-09_17h28.51.859,HideSeek_v1,2022.2.5,59.4681289487679,
,1,4,1,5,0,1,62,,train_dim1_1,6,30,,,,2,0,2,0,,,,,,,,,0,0,0,0,0,5,5,5,1,0,1,0,,,,,,,,,,,,,,,,,,,,,,,,,,,,,,,,,,,,,,,,,,,,,,,,,,,,,,,,,,,,,,,,30,,,,,,,,407.925155500001,407.925155500001,407.925155500001,407.925155500001,407.925155500001,return,0.32640489999903366,1,0,0,1,-0.08,0.0,return,0.2516966000002867,12,0,-0.08,0.0,,,,,,,,,,,,,,,,,,,,,,,,,,,,,,,,,,,,,,,,,,,,,,,,,,,,,,,,VFP65Z,train_y,blue_star,bottom_left,2025-07-09_17h28.51.859,HideSeek_v1,2022.2.5,59.4681289487679,
,1,3,1,6,0,3,64,,train_dim1_1,7,30,,,,2,0,2,0,,,,,,,,,0,0,0,0,0,6,6,6,0,0,0,0,,,,,,,,,,,,,,,,,,,,,,,,,stimuli/alien_stimuli/64.png,,,,,,,,,,,,,,,,,,,,,,,,,,,,,stimuli/alien_stimuli/62.png,62,1,8,,,,,,,30,,,,,,,,415.6534391999994,415.6534391999994,415.6534391999994,415.6534391999994,415.6534391999994,up,2.4895684000002802,1,0,0,99,-0.08,-0.08,up,2.4116208999985247,,,,,414.1001600999989,415.6534391999994,-0.08,0,0.08,0.0,-0.04,-0.08,-0.08,-0.08,0,409.82023499999923,409.82023499999923,409.82023499999923,409.82023499999923,409.82023499999923,409.82023499999923,409.82023499999923,409.82023499999923,409.81353581999826,4.388652400000865,return,4.25171799999589,,,,,,,,,,,,,,,,,,,,,,,,,,,,,,,,,VFP65Z,train_y,blue_star,bottom_left,2025-07-09_17h28.51.859,HideSeek_v1,2022.2.5,59.4681289487679,
,1,3,1,6,0,3,64,,train_dim1_1,7,30,,,,2,0,2,0,,,,,,,,,0,0,0,0,0,6,6,6,1,0,1,0,,,,,,,,,,,,,,,,,,,,,,,,,,,,,,,,,,,,,,,,,,,,,,,,,,,,,,,,,,,,,,,,30,,,,,,,,418.14940840000054,418.14940840000054,418.14940840000054,418.14940840000054,418.14940840000054,up,0.3761930000000575,1,0,0,99,-0.08,0.0,up,0.30183909999686875,,,,,,,,,,,,,,,,,,,,,,,,,,,,,,,,,,,,,,,,,,,,,,,,,,,,,,,,,,,,VFP65Z,train_y,blue_star,bottom_left,2025-07-09_17h28.51.859,HideSeek_v1,2022.2.5,59.4681289487679,
,1,3,1,6,0,3,64,,train_dim1_1,7,30,,,,2,0,2,0,,,,,,,,,0,0,0,0,0,6,6,6,2,0,2,0,,,,,,,,,,,,,,,,,,,,,,,,,,,,,,,,,,,,,,,,,,,,,,,,,,,,,,,,,,,,,,,,30,,,,,,,,418.53300509999826,418.53300509999826,418.53300509999826,418.53300509999826,418.53300509999826,up,0.4100441000009596,1,0,0,99,-0.08,0.08,up,0.33723839999947813,,,,,,,,,,,,,,,,,,,,,,,,,,,,,,,,,,,,,,,,,,,,,,,,,,,,,,,,,,,,VFP65Z,train_y,blue_star,bottom_left,2025-07-09_17h28.51.859,HideSeek_v1,2022.2.5,59.4681289487679,
,1,3,1,6,0,3,64,,train_dim1_1,7,30,,,,2,0,2,0,,,,,,,,,0,0,0,0,0,6,6,6,3,0,3,0,,,,,,,,,,,,,,,,,,,,,,,,,,,,,,,,,,,,,,,,,,,,,,,,,,,,,,,,,,,,,,,,30,,,,,,,,418.9497635000007,418.9497635000007,418.9497635000007,418.9497635000007,418.9497635000007,return,0.7104260000014619,2,0,0,1,-0.08,0.08,return,0.6293575999989116,15,0,-0.08,0.08,,,,,,,,,,,,,,,,,,,,,,,,,,,,,,,,,,,,,,,,,,,,,,,,,,,,,,,,VFP65Z,train_y,blue_star,bottom_left,2025-07-09_17h28.51.859,HideSeek_v1,2022.2.5,59.4681289487679,
,4,2,4,2,0,0,61,,train_dim1_1,8,30,,,,2,0,2,0,,,,,,,,,0,0,0,0,0,7,7,7,0,0,0,0,,,,,,,,,,,,,,,,,,,,,,,,,stimuli/alien_stimuli/61.png,,,,,,,,,,,,,,,,,,,,,,,,,,,,,stimuli/alien_stimuli/64.png,64,1,9,,,,,,,30,,,,,,,,427.33079290000023,427.33079290000023,427.33079290000023,427.33079290000023,427.33079290000023,return,1.8222065000009025,3,0,0,1,0.16,-0.24,return,1.7387639000007766,15,0,0.16,-0.24,425.77649889999884,427.33079290000023,-0.08,0.08,0.24,0.0,-0.04,-0.08,-0.08,-0.08,0.08,421.22727999999915,421.22727999999915,421.22727999999915,421.22727999999915,421.22727999999915,421.22727999999915,421.22727999999915,421.22727999999915,421.2229032199979,4.65587400000004,return,4.529244899997138,,,,,,,,,,,,,,,,,,,,,,,,,,,,,,,,,VFP65Z,train_y,blue_star,bottom_left,2025-07-09_17h28.51.859,HideSeek_v1,2022.2.5,59.4681289487679,
,4,3,4,7,0,4,65,,train_dim1_1,9,30,,,,2,0,2,0,,,,,,,,,0,0,0,0,0,8,8,8,0,0,0,0,,,,,,,,,,,,,,,,,,,,,,,,,stimuli/alien_stimuli/65.png,,,,,,,,,,,,,,,,,,,,,,,,,,,,,stimuli/alien_stimuli/61.png,61,4,10,,,,,,,30,,,,,,,,434.6704118000016,434.6704118000016,434.6704118000016,434.6704118000016,434.6704118000016,up,1.4701380000005884,3,0,0,99,0.16,-0.08,up,1.3977636999989045,,,,,433.1160251000001,434.6704118000016,0.16,-0.24,0.0,0.0,-0.24,0.16,0.16,0.16,-0.24,430.7051887999987,430.7051887999987,430.7051887999987,430.7051887999987,430.7051887999987,430.7051887999987,430.7051887999987,430.7051887999987,430.69760266000156,2.5038865999995323,return,2.381967399996938,,,,,,,,,,,,,,,,,,,,,,,,,,,,,,,,,VFP65Z,train_y,blue_star,bottom_left,2025-07-09_17h28.51.859,HideSeek_v1,2022.2.5,59.4681289487679,
,4,3,4,7,0,4,65,,train_dim1_1,9,30,,,,2,0,2,0,,,,,,,,,0,0,0,0,0,8,8,8,1,0,1,0,,,,,,,,,,,,,,,,,,,,,,,,,,,,,,,,,,,,,,,,,,,,,,,,,,,,,,,,,,,,,,,,30,,,,,,,,436.1475094999987,436.1475094999987,436.1475094999987,436.1475094999987,436.1475094999987,up,0.7432639999969979,3,0,0,99,0.16,0.0,up,0.6668446999974549,,,,,,,,,,,,,,,,,,,,,,,,,,,,,,,,,,,,,,,,,,,,,,,,,,,,,,,,,,,,VFP65Z,train_y,blue_star,bottom_left,2025-07-09_17h28.51.859,HideSeek_v1,2022.2.5,59.4681289487679,
,4,3,4,7,0,4,65,,train_dim1_1,9,30,,,,2,0,2,0,,,,,,,,,0,0,0,0,0,8,8,8,2,0,2,0,,,,,,,,,,,,,,,,,,,,,,,,,,,,,,,,,,,,,,,,,,,,,,,,,,,,,,,,,,,,,,,,30,,,,,,,,436.89778619999925,436.89778619999925,436.89778619999925,436.89778619999925,436.89778619999925,up,0.47703700000056415,3,0,0,99,0.16,0.08,up,0.4024648000013258,,,,,,,,,,,,,,,,,,,,,,,,,,,,,,,,,,,,,,,,,,,,,,,,,,,,,,,,,,,,VFP65Z,train_y,blue_star,bottom_left,2025-07-09_17h28.51.859,HideSeek_v1,2022.2.5,59.4681289487679,
,4,3,4,7,0,4,65,,train_dim1_1,9,30,,,,2,0,2,0,,,,,,,,,0,0,0,0,0,8,8,8,3,0,3,0,,,,,,,,,,,,,,,,,,,,,,,,,,,,,,,,,,,,,,,,,,,,,,,,,,,,,,,,,,,,,,,,30,,,,,,,,437.38198639999973,437.38198639999973,437.38198639999973,437.38198639999973,437.38198639999973,up,0.6435846999993373,3,0,0,99,0.16,0.16,up,0.5590566999999282,,,,,,,,,,,,,,,,,,,,,,,,,,,,,,,,,,,,,,,,,,,,,,,,,,,,,,,,,,,,VFP65Z,train_y,blue_star,bottom_left,2025-07-09_17h28.51.859,HideSeek_v1,2022.2.5,59.4681289487679,
,4,3,4,7,0,4,65,,train_dim1_1,9,30,,,,2,0,2,0,,,,,,,,,0,0,0,0,0,8,8,8,4,0,4,0,,,,,,,,,,,,,,,,,,,,,,,,,,,,,,,,,,,,,,,,,,,,,,,,,,,,,,,,,,,,,,,,30,,,,,,,,438.0321518000019,438.0321518000019,438.0321518000019,438.0321518000019,438.0321518000019,return,0.4436408000001393,4,0,0,1,0.16,0.16,return,0.35903350000080536,19,0,0.16,0.16,,,,,,,,,,,,,,,,,,,,,,,,,,,,,,,,,,,,,,,,,,,,,,,,,,,,,,,,VFP65Z,train_y,blue_star,bottom_left,2025-07-09_17h28.51.859,HideSeek_v1,2022.2.5,59.4681289487679,
,2,2,2,7,0,5,66,,train_dim1_1,10,30,,,,2,0,2,0,,,,,,,,,0,0,0,0,0,9,9,9,0,0,0,0,,,,,,,,,,,,,,,,,,,,,,,,,stimuli/alien_stimuli/66.png,,,,,,,,,,,,,,,,,,,,,,,,,,,,,stimuli/alien_stimuli/65.png,65,4,11,,,,,,,30,,,,,,,,442.90858970000045,442.90858970000045,442.90858970000045,442.90858970000045,442.90858970000045,up,1.3391336999993655,4,0,0,99,0,-0.15999999999999998,up,1.2574819999972533,,,,,441.3561817000009,442.90858970000045,0.16,0.16,0.32,0.0,0.0,0.16,0.16,0.16,0.16,440.03310409999904,440.03310409999904,440.03310409999904,440.03310409999904,440.03310409999904,440.03310409999904,440.03310409999904,440.03310409999904,440.0218742600002,1.4198972000012873,return,1.3015264999994542,,,,,,,,,,,,,,,,,,,,,,,,,,,,,,,,,VFP65Z,train_y,blue_star,bottom_left,2025-07-09_17h28.51.859,HideSeek_v1,2022.2.5,59.4681289487679,
,2,2,2,7,0,5,66,,train_dim1_1,10,30,,,,2,0,2,0,,,,,,,,,0,0,0,0,0,9,9,9,1,0,1,0,,,,,,,,,,,,,,,,,,,,,,,,,,,,,,,,,,,,,,,,,,,,,,,,,,,,,,,,,,,,,,,,30,,,,,,,,444.2540509999999,444.2540509999999,444.2540509999999,444.2540509999999,444.2540509999999,up,0.6934623999986798,4,0,0,99,0,-0.07999999999999997,up,0.613040500000352,,,,,,,,,,,,,,,,,,,,,,,,,,,,,,,,,,,,,,,,,,,,,,,,,,,,,,,,,,,,VFP65Z,train_y,blue_star,bottom_left,2025-07-09_17h28.51.859,HideSeek_v1,2022.2.5,59.4681289487679,
,2,2,2,7,0,5,66,,train_dim1_1,10,30,,,,2,0,2,0,,,,,,,,,0,0,0,0,0,9,9,9,2,0,2,0,,,,,,,,,,,,,,,,,,,,,,,,,,,,,,,,,,,,,,,,,,,,,,,,,,,,,,,,,,,,,,,,30,,,,,,,,444.9538830999991,444.9538830999991,444.9538830999991,444.9538830999991,444.9538830999991,up,0.5268480999984604,4,0,0,99,0,2.7755575615628914e-17,up,0.4508172999994713,,,,,,,,,,,,,,,,,,,,,,,,,,,,,,,,,,,,,,,,,,,,,,,,,,,,,,,,,,,,VFP65Z,train_y,blue_star,bottom_left,2025-07-09_17h28.51.859,HideSeek_v1,2022.2.5,59.4681289487679,
,2,2,2,7,0,5,66,,train_dim1_1,10,30,,,,2,0,2,0,,,,,,,,,0,0,0,0,0,9,9,9,3,0,3,0,,,,,,,,,,,,,,,,,,,,,,,,,,,,,,,,,,,,,,,,,,,,,,,,,,,,,,,,,,,,,,,,30,,,,,,,,445.48958330000096,445.48958330000096,445.48958330000096,445.48958330000096,445.48958330000096,up,0.44359800000165706,4,0,0,99,0,0.08000000000000003,up,0.37123309999878984,,,,,,,,,,,,,,,,,,,,,,,,,,,,,,,,,,,,,,,,,,,,,,,,,,,,,,,,,,,,VFP65Z,train_y,blue_star,bottom_left,2025-07-09_17h28.51.859,HideSeek_v1,2022.2.5,59.4681289487679,
,2,2,2,7,0,5,66,,train_dim1_1,10,30,,,,2,0,2,0,,,,,,,,,0,0,0,0,0,9,9,9,4,0,4,0,,,,,,,,,,,,,,,,,,,,,,,,,,,,,,,,,,,,,,,,,,,,,,,,,,,,,,,,,,,,,,,,30,,,,,,,,445.93983429999935,445.93983429999935,445.93983429999935,445.93983429999935,445.93983429999935,return,0.5271552000012889,4,1,0,0,0,0.08000000000000003,return,0.45249089999924763,23,0,0,0.08000000000000003,,,,,,,,,,,,,,,,,,,,,,,,,,,,,,,,,,,,,,,,,,,,,,,,,,,,,,,,VFP65Z,train_y,blue_star,bottom_left,2025-07-09_17h28.51.859,HideSeek_v1,2022.2.5,59.4681289487679,
,4,1,4,5,0,4,65,,train_dim1_1,11,30,,,,2,0,2,0,,,,,,,,,0,0,0,0,0,10,10,10,0,0,0,0,,,,,,,,,,,,,,,,,,,,,,,,,stimuli/alien_stimuli/65.png,,,,,,,,,,,,,,,,,,,,,,,,,,,,,stimuli/alien_stimuli/66.png,66,2,12,,,,,,,30,,,,,,,,452.7666501999993,452.7666501999993,452.7666501999993,452.7666501999993,452.7666501999993,up,1.172622499998397,4,1,0,99,0.16,-0.24,up,1.089489499998308,,,,,451.2142872000004,452.7666501999993,0,0.16,0.4,0.0,-0.039999999999999994,0,0.0,0,0.16,448.018665399999,448.018665399999,448.018665399999,448.018665399999,448.018665399999,448.018665399999,448.018665399999,448.018665399999,448.0116969600014,3.2881832999992184,return,3.1694751999966684,,,,,,,,,,,,,,,,,,,,,,,,,,,,,,,,,VFP65Z,train_y,blue_star,bottom_left,2025-07-09_17h28.51.859,HideSeek_v1,2022.2.5,59.4681289487679,
,4,1,4,5,0,4,65,,train_dim1_1,11,30,,,,2,0,2,0,,,,,,,,,0,0,0,0,0,10,10,10,1,0,1,0,,,,,,,,,,,,,,,,,,,,,,,,,,,,,,,,,,,,,,,,,,,,,,,,,,,,,,,,,,,,,,,,30,,,,,,,,453.9456699000002,453.9456699000002,453.9456699000002,453.9456699000002,453.9456699000002,up,0.32623810000222875,4,1,0,99,0.16,-0.15999999999999998,up,0.2556034000008367,,,,,,,,,,,,,,,,,,,,,,,,,,,,,,,,,,,,,,,,,,,,,,,,,,,,,,,,,,,,VFP65Z,train_y,blue_star,bottom_left,2025-07-09_17h28.51.859,HideSeek_v1,2022.2.5,59.4681289487679,
,4,1,4,5,0,4,65,,train_dim1_1,11,30,,,,2,0,2,0,,,,,,,,,0,0,0,0,0,10,10,10,2,0,2,0,,,,,,,,,,,,,,,,,,,,,,,,,,,,,,,,,,,,,,,,,,,,,,,,,,,,,,,,,,,,,,,,30,,,,,,,,454.2805062000007,454.2805062000007,454.2805062000007,454.2805062000007,454.2805062000007,up,0.4095865999988746,4,1,0,99,0.16,-0.07999999999999997,up,0.32198090000019874,,,,,,,,,,,,,,,,,,,,,,,,,,,,,,,,,,,,,,,,,,,,,,,,,,,,,,,,,,,,VFP65Z,train_y,blue_star,bottom_left,2025-07-09_17h28.51.859,HideSeek_v1,2022.2.5,59.4681289487679,
,4,1,4,5,0,4,65,,train_dim1_1,11,30,,,,2,0,2,0,,,,,,,,,0,0,0,0,0,10,10,10,3,0,3,0,,,,,,,,,,,,,,,,,,,,,,,,,,,,,,,,,,,,,,,,,,,,,,,,,,,,,,,,,,,,,,,,30,,,,,,,,454.6956315999996,454.6956315999996,454.6956315999996,454.6956315999996,454.6956315999996,up,0.49364280000008876,4,1,0,99,0.16,2.7755575615628914e-17,up,0.4174019000020053,,,,,,,,,,,,,,,,,,,,,,,,,,,,,,,,,,,,,,,,,,,,,,,,,,,,,,,,,,,,VFP65Z,train_y,blue_star,bottom_left,2025-07-09_17h28.51.859,HideSeek_v1,2022.2.5,59.4681289487679,
,4,1,4,5,0,4,65,,train_dim1_1,11,30,,,,2,0,2,0,,,,,,,,,0,0,0,0,0,10,10,10,4,0,4,0,,,,,,,,,,,,,,,,,,,,,,,,,,,,,,,,,,,,,,,,,,,,,,,,,,,,,,,,,,,,,,,,30,,,,,,,,455.1959491999987,455.1959491999987,455.1959491999987,455.1959491999987,455.1959491999987,up,1.2105656000021554,4,1,0,99,0.16,0.08000000000000003,up,1.1258325999988301,,,,,,,,,,,,,,,,,,,,,,,,,,,,,,,,,,,,,,,,,,,,,,,,,,,,,,,,,,,,VFP65Z,train_y,blue_star,bottom_left,2025-07-09_17h28.51.859,HideSeek_v1,2022.2.5,59.4681289487679,
,4,1,4,5,0,4,65,,train_dim1_1,11,30,,,,2,0,2,0,,,,,,,,,0,0,0,0,0,10,10,10,5,0,5,0,,,,,,,,,,,,,,,,,,,,,,,,,,,,,,,,,,,,,,,,,,,,,,,,,,,,,,,,,,,,,,,,30,,,,,,,,456.4145830999987,456.4145830999987,456.4145830999987,456.4145830999987,456.4145830999987,return,0.3934162000005017,4,1,0,0,0.16,0.08000000000000003,return,0.317339199998969,28,0,0.16,0.08000000000000003,,,,,,,,,,,,,,,,,,,,,,,,,,,,,,,,,,,,,,,,,,,,,,,,,,,,,,,,VFP65Z,train_y,blue_star,bottom_left,2025-07-09_17h28.51.859,HideSeek_v1,2022.2.5,59.4681289487679,
,0,0,0,0,0,0,61,,train_dim1_1,12,30,,,,2,0,2,0,,,,,,,,,0,0,0,0,0,11,11,11,0,0,0,0,,,,,,,,,,,,,,,,,,,,,,,,,stimuli/alien_stimuli/61.png,,,,,,,,,,,,,,,,,,,,,,,,,,,,,stimuli/alien_stimuli/65.png,65,4,13,,,,,,,30,,,,,,,,460.90943179999886,460.90943179999886,460.90943179999886,460.90943179999886,460.90943179999886,right,6.274542400002247,4,1,0,99,-0.08,-0.4,right,6.19455680000101,,,,,459.3544913000005,460.90943179999886,0.16,0,0.32,0.0,-0.16,0.16,0.16,0.16,0,458.3747465000015,458.3747465000015,458.3747465000015,458.3747465000015,458.3747465000015,458.3747465000015,458.3747465000015,458.3747465000015,458.37047912000014,1.0862670999995316,return,0.9545249000002514,,,,,,,,,,,,,,,,,,,,,,,,,,,,,,,,,VFP65Z,train_y,blue_star,bottom_left,2025-07-09_17h28.51.859,HideSeek_v1,2022.2.5,59.4681289487679,
,0,0,0,0,0,0,61,,train_dim1_1,12,30,,,,2,0,2,0,,,,,,,,,0,0,0,0,0,11,11,11,1,0,1,0,,,,,,,,,,,,,,,,,,,,,,,,,,,,,,,,,,,,,,,,,,,,,,,,,,,,,,,,,,,,,,,,30,,,,,,,,467.1923405999987,467.1923405999987,467.1923405999987,467.1923405999987,467.1923405999987,return,0.5418903999998292,4,1,0,0,-0.08,-0.4,return,0.4534613999967405,28,1,-0.08,-0.4,,,,,,,,,,,,,,,,,,,,,,,,,,,,,,,,,,,,,,,,,,,,,,,,,,,,,,,,VFP65Z,train_y,blue_star,bottom_left,2025-07-09_17h28.51.859,HideSeek_v1,2022.2.5,59.4681289487679,
,4,3,4,4,0,1,62,,train_dim1_1,13,30,,,,2,0,2,0,,,,,,,,,0,0,0,0,0,12,12,12,0,0,0,0,,,,,,,,,,,,,,,,,,,,,,,,,stimuli/alien_stimuli/62.png,,,,,,,,,,,,,,,,,,,,,,,,,,,,,stimuli/alien_stimuli/61.png,61,0,14,,,,,,,30,,,,,,,,472.0334580999988,472.0334580999988,472.0334580999988,472.0334580999988,472.0334580999988,up,3.0404646000024513,4,1,0,99,0.16,-0.08,up,2.9603637999971397,,,,,470.48032299999977,472.0334580999988,-0.16,-0.4,0.0,0.0,-0.4,-0.16,-0.16,-0.16,-0.4,469.30333900000187,469.30333900000187,469.30333900000187,469.30333900000187,469.30333900000187,469.30333900000187,469.30333900000187,469.30333900000187,469.2963149200008,1.2862234000022,return,1.1520190000010189,,,,,,,,,,,,,,,,,,,,,,,,,,,,,,,,,VFP65Z,train_y,blue_star,bottom_left,2025-07-09_17h28.51.859,HideSeek_v1,2022.2.5,59.4681289487679,
,4,3,4,4,0,1,62,,train_dim1_1,13,30,,,,2,0,2,0,,,,,,,,,0,0,0,0,0,12,12,12,1,0,1,0,,,,,,,,,,,,,,,,,,,,,,,,,,,,,,,,,,,,,,,,,,,,,,,,,,,,,,,,,,,,,,,,30,,,,,,,,475.08123290000003,475.08123290000003,475.08123290000003,475.08123290000003,475.08123290000003,return,0.3931343000003835,5,0,0,1,0.16,-0.08,return,0.31290189999708673,29,1,0.16,-0.08,,,,,,,,,,,,,,,,,,,,,,,,,,,,,,,,,,,,,,,,,,,,,,,,,,,,,,,,VFP65Z,train_y,blue_star,bottom_left,2025-07-09_17h28.51.859,HideSeek_v1,2022.2.5,59.4681289487679,
,2,2,2,7,0,5,66,,train_dim1_1,14,30,,,,2,0,2,0,,,,,,,,,0,0,0,0,0,13,13,13,0,0,0,0,,,,,,,,,,,,,,,,,,,,,,,,,stimuli/alien_stimuli/66.png,,,,,,,,,,,,,,,,,,,,,,,,,,,,,stimuli/alien_stimuli/62.png,62,4,15,,,,,,,30,,,,,,,,479.87397019999844,479.87397019999844,479.87397019999844,479.87397019999844,479.87397019999844,up,1.3552434000012,5,0,0,99,0,-0.15999999999999998,up,1.2698457999977109,,,,,478.3203168,479.87397019999844,0.16,-0.08,0.08,0.0,-0.12,0.16,0.16,0.16,-0.08,477.0257203000001,477.0257203000001,477.0257203000001,477.0257203000001,477.0257203000001,477.0257203000001,477.0257203000001,477.0257203000001,477.0193558599996,1.3865375999994285,return,1.2667476999959035,,,,,,,,,,,,,,,,,,,,,,,,,,,,,,,,,VFP65Z,train_y,blue_star,bottom_left,2025-07-09_17h28.51.859,HideSeek_v1,2022.2.5,59.4681289487679,
,2,2,2,7,0,5,66,,train_dim1_1,14,30,,,,2,0,2,0,,,,,,,,,0,0,0,0,0,13,13,13,1,0,1,0,,,,,,,,,,,,,,,,,,,,,,,,,,,,,,,,,,,,,,,,,,,,,,,,,,,,,,,,,,,,,,,,30,,,,,,,,481.2353116000013,481.2353116000013,481.2353116000013,481.2353116000013,481.2353116000013,up,0.4099463000020478,5,0,0,99,0,-0.07999999999999997,up,0.3240433999999368,,,,,,,,,,,,,,,,,,,,,,,,,,,,,,,,,,,,,,,,,,,,,,,,,,,,,,,,,,,,VFP65Z,train_y,blue_star,bottom_left,2025-07-09_17h28.51.859,HideSeek_v1,2022.2.5,59.4681289487679,
,2,2,2,7,0,5,66,,train_dim1_1,14,30,,,,2,0,2,0,,,,,,,,,0,0,0,0,0,13,13,13,2,0,2,0,,,,,,,,,,,,,,,,,,,,,,,,,,,,,,,,,,,,,,,,,,,,,,,,,,,,,,,,,,,,,,,,30,,,,,,,,481.65292000000045,481.65292000000045,481.65292000000045,481.65292000000045,481.65292000000045,up,0.37655520000043907,5,0,0,99,0,2.7755575615628914e-17,up,0.29180300000007264,,,,,,,,,,,,,,,,,,,,,,,,,,,,,,,,,,,,,,,,,,,,,,,,,,,,,,,,,,,,VFP65Z,train_y,blue_star,bottom_left,2025-07-09_17h28.51.859,HideSeek_v1,2022.2.5,59.4681289487679,
,2,2,2,7,0,5,66,,train_dim1_1,14,30,,,,2,0,2,0,,,,,,,,,0,0,0,0,0,13,13,13,3,0,3,0,,,,,,,,,,,,,,,,,,,,,,,,,,,,,,,,,,,,,,,,,,,,,,,,,,,,,,,,,,,,,,,,30,,,,,,,,482.03570160000163,482.03570160000163,482.03570160000163,482.03570160000163,482.03570160000163,up,0.5600271000002977,5,0,0,99,0,0.08000000000000003,up,0.4731933000002755,,,,,,,,,,,,,,,,,,,,,,,,,,,,,,,,,,,,,,,,,,,,,,,,,,,,,,,,,,,,VFP65Z,train_y,blue_star,bottom_left,2025-07-09_17h28.51.859,HideSeek_v1,2022.2.5,59.4681289487679,
,2,2,2,7,0,5,66,,train_dim1_1,14,30,,,,2,0,2,0,,,,,,,,,0,0,0,0,0,13,13,13,4,0,4,0,,,,,,,,,,,,,,,,,,,,,,,,,,,,,,,,,,,,,,,,,,,,,,,,,,,,,,,,,,,,,,,,30,,,,,,,,482.60305199999857,482.60305199999857,482.60305199999857,482.60305199999857,482.60305199999857,return,0.4604884000000311,5,1,0,0,0,0.08000000000000003,return,0.3763117999988026,33,1,0,0.08000000000000003,,,,,,,,,,,,,,,,,,,,,,,,,,,,,,,,,,,,,,,,,,,,,,,,,,,,,,,,VFP65Z,train_y,blue_star,bottom_left,2025-07-09_17h28.51.859,HideSeek_v1,2022.2.5,59.4681289487679,
,1,4,1,7,0,3,64,,train_dim1_1,15,30,,,,2,0,2,0,,,,,,,,,0,0,0,0,0,14,14,14,0,0,0,0,,,,,,,,,,,,,,,,,,,,,,,,,stimuli/alien_stimuli/64.png,,,,,,,,,,,,,,,,,,,,,,,,,,,,,stimuli/alien_stimuli/66.png,66,2,16,,,,,,,30,,,,,,,,487.32796489999964,487.32796489999964,487.32796489999964,487.32796489999964,487.32796489999964,up,1.9564026000007289,5,1,0,99,-0.08,0.0,up,1.8830595999970683,,,,,485.7766021999996,487.32796489999964,0,0.16,0.4,0.0,-0.039999999999999994,0,0.0,0,0.16,484.61707079999906,484.61707079999906,484.61707079999906,484.61707079999906,484.61707079999906,484.61707079999906,484.61707079999906,484.61707079999906,484.6090379599984,1.2530435000007856,return,1.1277929999996559,,,,,,,,,,,,,,,,,,,,,,,,,,,,,,,,,VFP65Z,train_y,blue_star,bottom_left,2025-07-09_17h28.51.859,HideSeek_v1,2022.2.5,59.4681289487679,
,1,4,1,7,0,3,64,,train_dim1_1,15,30,,,,2,0,2,0,,,,,,,,,0,0,0,0,0,14,14,14,1,0,1,0,,,,,,,,,,,,,,,,,,,,,,,,,,,,,,,,,,,,,,,,,,,,,,,,,,,,,,,,,,,,,,,,30,,,,,,,,489.2911525999989,489.2911525999989,489.2911525999989,489.2911525999989,489.2911525999989,up,0.3432266999989224,5,1,0,99,-0.08,0.08,up,0.268176499997935,,,,,,,,,,,,,,,,,,,,,,,,,,,,,,,,,,,,,,,,,,,,,,,,,,,,,,,,,,,,VFP65Z,train_y,blue_star,bottom_left,2025-07-09_17h28.51.859,HideSeek_v1,2022.2.5,59.4681289487679,
,1,4,1,7,0,3,64,,train_dim1_1,15,30,,,,2,0,2,0,,,,,,,,,0,0,0,0,0,14,14,14,2,0,2,0,,,,,,,,,,,,,,,,,,,,,,,,,,,,,,,,,,,,,,,,,,,,,,,,,,,,,,,,,,,,,,,,30,,,,,,,,489.64168319999953,489.64168319999953,489.64168319999953,489.64168319999953,489.64168319999953,up,0.3604687000006379,5,1,0,99,-0.08,0.16,up,0.2836781999976665,,,,,,,,,,,,,,,,,,,,,,,,,,,,,,,,,,,,,,,,,,,,,,,,,,,,,,,,,,,,VFP65Z,train_y,blue_star,bottom_left,2025-07-09_17h28.51.859,HideSeek_v1,2022.2.5,59.4681289487679,
,1,4,1,7,0,3,64,,train_dim1_1,15,30,,,,2,0,2,0,,,,,,,,,0,0,0,0,0,14,14,14,3,0,3,0,,,,,,,,,,,,,,,,,,,,,,,,,,,,,,,,,,,,,,,,,,,,,,,,,,,,,,,,,,,,,,,,30,,,,,,,,490.00902420000057,490.00902420000057,490.00902420000057,490.00902420000057,490.00902420000057,return,0.3936229999999341,6,0,0,1,-0.08,0.16,return,0.31218879999869387,36,1,-0.08,0.16,,,,,,,,,,,,,,,,,,,,,,,,,,,,,,,,,,,,,,,,,,,,,,,,,,,,,,,,VFP65Z,train_y,blue_star,bottom_left,2025-07-09_17h28.51.859,HideSeek_v1,2022.2.5,59.4681289487679,
,4,0,4,4,0,4,65,,train_dim1_1,16,30,,,,2,0,2,0,,,,,,,,,0,0,0,0,0,15,15,15,0,0,0,0,,,,,,,,,,,,,,,,,,,,,,,,,stimuli/alien_stimuli/65.png,,,,,,,,,,,,,,,,,,,,,,,,,,,,,stimuli/alien_stimuli/64.png,64,1,17,,,,,,,30,,,,,,,,494.65343779999967,494.65343779999967,494.65343779999967,494.65343779999967,494.65343779999967,up,1.270215199998347,6,0,0,99,0.16,-0.32,up,1.1967891999993299,,,,,493.099537099999,494.65343779999967,-0.08,0.16,0.24,0.0,0.04,-0.08,-0.08,-0.08,0.16,491.955195999999,491.955195999999,491.955195999999,491.955195999999,491.955195999999,491.955195999999,491.955195999999,491.955195999999,491.94820475999876,1.2363913999979559,return,1.116065799997159,,,,,,,,,,,,,,,,,,,,,,,,,,,,,,,,,VFP65Z,train_y,blue_star,bottom_left,2025-07-09_17h28.51.859,HideSeek_v1,2022.2.5,59.4681289487679,
,4,0,4,4,0,4,65,,train_dim1_1,16,30,,,,2,0,2,0,,,,,,,,,0,0,0,0,0,15,15,15,1,0,1,0,,,,,,,,,,,,,,,,,,,,,,,,,,,,,,,,,,,,,,,,,,,,,,,,,,,,,,,,,,,,,,,,30,,,,,,,,495.93166629999905,495.93166629999905,495.93166629999905,495.93166629999905,495.93166629999905,up,0.40970780000134255,6,0,0,99,0.16,-0.24,up,0.32519440000032773,,,,,,,,,,,,,,,,,,,,,,,,,,,,,,,,,,,,,,,,,,,,,,,,,,,,,,,,,,,,VFP65Z,train_y,blue_star,bottom_left,2025-07-09_17h28.51.859,HideSeek_v1,2022.2.5,59.4681289487679,
,4,0,4,4,0,4,65,,train_dim1_1,16,30,,,,2,0,2,0,,,,,,,,,0,0,0,0,0,15,15,15,2,0,2,0,,,,,,,,,,,,,,,,,,,,,,,,,,,,,,,,,,,,,,,,,,,,,,,,,,,,,,,,,,,,,,,,30,,,,,,,,496.3478771000009,496.3478771000009,496.3478771000009,496.3478771000009,496.3478771000009,up,0.37745859999995446,6,0,0,99,0.16,-0.15999999999999998,up,0.3033783999962907,,,,,,,,,,,,,,,,,,,,,,,,,,,,,,,,,,,,,,,,,,,,,,,,,,,,,,,,,,,,VFP65Z,train_y,blue_star,bottom_left,2025-07-09_17h28.51.859,HideSeek_v1,2022.2.5,59.4681289487679,
,4,0,4,4,0,4,65,,train_dim1_1,16,30,,,,2,0,2,0,,,,,,,,,0,0,0,0,0,15,15,15,3,0,3,0,,,,,,,,,,,,,,,,,,,,,,,,,,,,,,,,,,,,,,,,,,,,,,,,,,,,,,,,,,,,,,,,30,,,,,,,,496.7321403999995,496.7321403999995,496.7321403999995,496.7321403999995,496.7321403999995,up,0.39353530000153114,6,0,0,99,0.16,-0.07999999999999997,up,0.30836229999840725,,,,,,,,,,,,,,,,,,,,,,,,,,,,,,,,,,,,,,,,,,,,,,,,,,,,,,,,,,,,VFP65Z,train_y,blue_star,bottom_left,2025-07-09_17h28.51.859,HideSeek_v1,2022.2.5,59.4681289487679,
,4,0,4,4,0,4,65,,train_dim1_1,16,30,,,,2,0,2,0,,,,,,,,,0,0,0,0,0,15,15,15,4,0,4,0,,,,,,,,,,,,,,,,,,,,,,,,,,,,,,,,,,,,,,,,,,,,,,,,,,,,,,,,,,,,,,,,30,,,,,,,,497.13186549999955,497.13186549999955,497.13186549999955,497.13186549999955,497.13186549999955,return,0.42617880000034347,7,0,0,1,0.16,-0.07999999999999997,return,0.3509182999987388,40,1,0.16,-0.07999999999999997,,,,,,,,,,,,,,,,,,,,,,,,,,,,,,,,,,,,,,,,,,,,,,,,,,,,,,,,VFP65Z,train_y,blue_star,bottom_left,2025-07-09_17h28.51.859,HideSeek_v1,2022.2.5,59.4681289487679,
,3,3,3,6,0,3,64,,train_dim1_1,17,30,,,,2,0,2,0,,,,,,,,,0,0,0,0,0,16,16,16,0,0,0,0,,,,,,,,,,,,,,,,,,,,,,,,,stimuli/alien_stimuli/64.png,,,,,,,,,,,,,,,,,,,,,,,,,,,,,stimuli/alien_stimuli/65.png,65,4,18,,,,,,,30,,,,,,,,502.47674950000146,502.47674950000146,502.47674950000146,502.47674950000146,502.47674950000146,up,1.6207026000010956,7,0,0,99,0.08,-0.08,up,1.5363590999986627,,,,,500.92238050000014,502.47674950000146,0.16,-0.08,0.32,0.0,-0.24000000000000002,0.16,0.16,0.16,-0.08,499.11064590000024,499.11064590000024,499.11064590000024,499.11064590000024,499.11064590000024,499.11064590000024,499.11064590000024,499.11064590000024,499.1044699599981,1.903768799998943,return,1.7919392999974662,,,,,,,,,,,,,,,,,,,,,,,,,,,,,,,,,VFP65Z,train_y,blue_star,bottom_left,2025-07-09_17h28.51.859,HideSeek_v1,2022.2.5,59.4681289487679,
,3,3,3,6,0,3,64,,train_dim1_1,17,30,,,,2,0,2,0,,,,,,,,,0,0,0,0,0,16,16,16,1,0,1,0,,,,,,,,,,,,,,,,,,,,,,,,,,,,,,,,,,,,,,,,,,,,,,,,,,,,,,,,,,,,,,,,30,,,,,,,,504.10410780000166,504.10410780000166,504.10410780000166,504.10410780000166,504.10410780000166,up,0.4427880000002915,7,0,0,99,0.08,0.0,up,0.36832870000216644,,,,,,,,,,,,,,,,,,,,,,,,,,,,,,,,,,,,,,,,,,,,,,,,,,,,,,,,,,,,VFP65Z,train_y,blue_star,bottom_left,2025-07-09_17h28.51.859,HideSeek_v1,2022.2.5,59.4681289487679,
,3,3,3,6,0,3,64,,train_dim1_1,17,30,,,,2,0,2,0,,,,,,,,,0,0,0,0,0,16,16,16,2,0,2,0,,,,,,,,,,,,,,,,,,,,,,,,,,,,,,,,,,,,,,,,,,,,,,,,,,,,,,,,,,,,,,,,30,,,,,,,,504.5541462000001,504.5541462000001,504.5541462000001,504.5541462000001,504.5541462000001,up,0.49370099999941885,7,0,0,99,0.08,0.08,up,0.42083869999987655,,,,,,,,,,,,,,,,,,,,,,,,,,,,,,,,,,,,,,,,,,,,,,,,,,,,,,,,,,,,VFP65Z,train_y,blue_star,bottom_left,2025-07-09_17h28.51.859,HideSeek_v1,2022.2.5,59.4681289487679,
,3,3,3,6,0,3,64,,train_dim1_1,17,30,,,,2,0,2,0,,,,,,,,,0,0,0,0,0,16,16,16,3,0,3,0,,,,,,,,,,,,,,,,,,,,,,,,,,,,,,,,,,,,,,,,,,,,,,,,,,,,,,,,,,,,,,,,30,,,,,,,,505.0573110000005,505.0573110000005,505.0573110000005,505.0573110000005,505.0573110000005,return,1.5431304999983695,8,0,0,1,0.08,0.08,return,1.4692697999998927,43,1,0.08,0.08,,,,,,,,,,,,,,,,,,,,,,,,,,,,,,,,,,,,,,,,,,,,,,,,,,,,,,,,VFP65Z,train_y,blue_star,bottom_left,2025-07-09_17h28.51.859,HideSeek_v1,2022.2.5,59.4681289487679,
,2,1,2,1,0,0,61,,train_dim1_1,18,30,,,,2,0,2,0,,,,,,,,,0,0,0,0,0,17,17,17,0,0,0,0,,,,,,,,,,,,,,,,,,,,,,,,,stimuli/alien_stimuli/61.png,,,,,,,,,,,,,,,,,,,,,,,,,,,,,stimuli/alien_stimuli/64.png,64,3,19,,,,,,,30,,,,,,,,510.96997570000167,510.96997570000167,510.96997570000167,510.96997570000167,510.96997570000167,up,2.6025292000012996,8,0,0,99,0,-0.24,up,2.5175885999997263,,,,,509.41326520000075,510.96997570000167,0.08,0.08,0.24,0.0,-0.04,0.08,0.08,0.08,0.08,508.15033649999896,508.15033649999896,508.15033649999896,508.15033649999896,508.15033649999896,508.15033649999896,508.15033649999896,508.15033649999896,508.14513555999946,1.3552753000003577,return,1.2316042000020389,,,,,,,,,,,,,,,,,,,,,,,,,,,,,,,,,VFP65Z,train_y,blue_star,bottom_left,2025-07-09_17h28.51.859,HideSeek_v1,2022.2.5,59.4681289487679,
,2,1,2,1,0,0,61,,train_dim1_1,18,30,,,,2,0,2,0,,,,,,,,,0,0,0,0,0,17,17,17,1,0,1,0,,,,,,,,,,,,,,,,,,,,,,,,,,,,,,,,,,,,,,,,,,,,,,,,,,,,,,,,,,,,,,,,30,,,,,,,,513.5792370999989,513.5792370999989,513.5792370999989,513.5792370999989,513.5792370999989,return,0.34333150000020396,8,1,0,0,0,-0.24,return,0.26150179999604006,44,1,0,-0.24,,,,,,,,,,,,,,,,,,,,,,,,,,,,,,,,,,,,,,,,,,,,,,,,,,,,,,,,VFP65Z,train_y,blue_star,bottom_left,2025-07-09_17h28.51.859,HideSeek_v1,2022.2.5,59.4681289487679,
,0,4,0,5,0,1,62,,train_dim1_1,19,30,,,,2,0,2,0,,,,,,,,,0,0,0,0,0,18,18,18,0,0,0,0,,,,,,,,,,,,,,,,,,,,,,,,,stimuli/alien_stimuli/62.png,,,,,,,,,,,,,,,,,,,,,,,,,,,,,stimuli/alien_stimuli/61.png,61,2,20,,,,,,,30,,,,,,,,517.7575550000001,517.7575550000001,517.7575550000001,517.7575550000001,517.7575550000001,return,1.4029700999999477,8,1,0,0,-0.16,-0.08,return,1.3253646999983175,44,1,-0.16,-0.08,516.2015277999999,517.7575550000001,0,-0.32,0.0,0.0,-0.32,0,0.0,0,-0.32,515.4779978000006,515.4779978000006,515.4779978000006,515.4779978000006,515.4779978000006,515.4779978000006,515.4779978000006,515.4779978000006,515.4677300600008,0.8194098999993003,return,0.7066129000013461,,,,,,,,,,,,,,,,,,,,,,,,,,,,,,,,,VFP65Z,train_y,blue_star,bottom_left,2025-07-09_17h28.51.859,HideSeek_v1,2022.2.5,59.4681289487679,
,2,0,2,5,0,5,66,,train_dim1_1,20,30,,,,2,0,2,0,,,,,,,,,0,0,0,0,0,19,19,19,0,0,0,0,,,,,,,,,,,,,,,,,,,,,,,,,stimuli/alien_stimuli/66.png,,,,,,,,,,,,,,,,,,,,,,,,,,,,,stimuli/alien_stimuli/62.png,62,0,21,,,,,,,30,,,,,,,,523.1748274999991,523.1748274999991,523.1748274999991,523.1748274999991,523.1748274999991,up,0.8393087000004016,8,1,0,99,0,-0.32,up,0.7524248999980045,,,,,521.6230346000011,523.1748274999991,-0.16,0,0.08,0.0,-0.04,-0.16,-0.16,-0.16,0,520.7117265000015,520.7117265000015,520.7117265000015,520.7117265000015,520.7117265000015,520.7117265000015,520.7117265000015,520.7117265000015,520.7054848600012,1.0026729999990494,return,0.8807423999969615,,,,,,,,,,,,,,,,,,,,,,,,,,,,,,,,,VFP65Z,train_y,blue_star,bottom_left,2025-07-09_17h28.51.859,HideSeek_v1,2022.2.5,59.4681289487679,
,2,0,2,5,0,5,66,,train_dim1_1,20,30,,,,2,0,2,0,,,,,,,,,0,0,0,0,0,19,19,19,1,0,1,0,,,,,,,,,,,,,,,,,,,,,,,,,,,,,,,,,,,,,,,,,,,,,,,,,,,,,,,,,,,,,,,,30,,,,,,,,524.0213779000005,524.0213779000005,524.0213779000005,524.0213779000005,524.0213779000005,up,0.3431012000000919,8,1,0,99,0,-0.24,up,0.26212829999712994,,,,,,,,,,,,,,,,,,,,,,,,,,,,,,,,,,,,,,,,,,,,,,,,,,,,,,,,,,,,VFP65Z,train_y,blue_star,bottom_left,2025-07-09_17h28.51.859,HideSeek_v1,2022.2.5,59.4681289487679,
,2,0,2,5,0,5,66,,train_dim1_1,20,30,,,,2,0,2,0,,,,,,,,,0,0,0,0,0,19,19,19,2,0,2,0,,,,,,,,,,,,,,,,,,,,,,,,,,,,,,,,,,,,,,,,,,,,,,,,,,,,,,,,,,,,,,,,30,,,,,,,,524.3720582999995,524.3720582999995,524.3720582999995,524.3720582999995,524.3720582999995,up,0.35972079999919515,8,1,0,99,0,-0.15999999999999998,up,0.2749833999987459,,,,,,,,,,,,,,,,,,,,,,,,,,,,,,,,,,,,,,,,,,,,,,,,,,,,,,,,,,,,VFP65Z,train_y,blue_star,bottom_left,2025-07-09_17h28.51.859,HideSeek_v1,2022.2.5,59.4681289487679,
,2,0,2,5,0,5,66,,train_dim1_1,20,30,,,,2,0,2,0,,,,,,,,,0,0,0,0,0,19,19,19,3,0,3,0,,,,,,,,,,,,,,,,,,,,,,,,,,,,,,,,,,,,,,,,,,,,,,,,,,,,,,,,,,,,,,,,30,,,,,,,,524.7378730000019,524.7378730000019,524.7378730000019,524.7378730000019,524.7378730000019,return,0.5774442000001727,8,0,0,0,0,-0.15999999999999998,return,0.4985900999963633,47,1,0,-0.15999999999999998,,,,,,,,,,,,,,,,,,,,,,,,,,,,,,,,,,,,,,,,,,,,,,,,,,,,,,,,VFP65Z,train_y,blue_star,bottom_left,2025-07-09_17h28.51.859,HideSeek_v1,2022.2.5,59.4681289487679,
,2,4,2,8,0,4,65,,train_dim1_1,21,30,,,,2,0,2,0,,,,,,,,,0,0,0,0,0,20,20,20,0,0,0,0,,,,,,,,,,,,,,,,,,,,,,,,,stimuli/alien_stimuli/65.png,,,,,,,,,,,,,,,,,,,,,,,,,,,,,stimuli/alien_stimuli/66.png,66,2,22,,,,,,,30,,,,,,,,531.6318849000018,531.6318849000018,531.6318849000018,531.6318849000018,531.6318849000018,up,1.389518699998007,8,0,0,99,0,0.0,up,1.3130866999999853,,,,,530.0800807999985,531.6318849000018,0,0,0.4,0.0,-0.2,0,0.0,0,0,526.8650761999997,526.8650761999997,526.8650761999997,526.8650761999997,526.8650761999997,526.8650761999997,526.8650761999997,526.8650761999997,526.860814259998,3.304788199999166,return,3.1829706999997143,,,,,,,,,,,,,,,,,,,,,,,,,,,,,,,,,VFP65Z,train_y,blue_star,bottom_left,2025-07-09_17h28.51.859,HideSeek_v1,2022.2.5,59.4681289487679,
,2,4,2,8,0,4,65,,train_dim1_1,21,30,,,,2,0,2,0,,,,,,,,,0,0,0,0,0,20,20,20,1,0,1,0,,,,,,,,,,,,,,,,,,,,,,,,,,,,,,,,,,,,,,,,,,,,,,,,,,,,,,,,,,,,,,,,30,,,,,,,,533.0288346000016,533.0288346000016,533.0288346000016,533.0288346000016,533.0288346000016,up,0.3762700000006589,8,0,0,99,0,0.08,up,0.3003465000001597,,,,,,,,,,,,,,,,,,,,,,,,,,,,,,,,,,,,,,,,,,,,,,,,,,,,,,,,,,,,VFP65Z,train_y,blue_star,bottom_left,2025-07-09_17h28.51.859,HideSeek_v1,2022.2.5,59.4681289487679,
,2,4,2,8,0,4,65,,train_dim1_1,21,30,,,,2,0,2,0,,,,,,,,,0,0,0,0,0,20,20,20,2,0,2,0,,,,,,,,,,,,,,,,,,,,,,,,,,,,,,,,,,,,,,,,,,,,,,,,,,,,,,,,,,,,,,,,30,,,,,,,,533.4119247000017,533.4119247000017,533.4119247000017,533.4119247000017,533.4119247000017,up,0.42674729999998817,8,0,0,99,0,0.16,up,0.3540352999989409,,,,,,,,,,,,,,,,,,,,,,,,,,,,,,,,,,,,,,,,,,,,,,,,,,,,,,,,,,,,VFP65Z,train_y,blue_star,bottom_left,2025-07-09_17h28.51.859,HideSeek_v1,2022.2.5,59.4681289487679,
,2,4,2,8,0,4,65,,train_dim1_1,21,30,,,,2,0,2,0,,,,,,,,,0,0,0,0,0,20,20,20,3,0,3,0,,,,,,,,,,,,,,,,,,,,,,,,,,,,,,,,,,,,,,,,,,,,,,,,,,,,,,,,,,,,,,,,30,,,,,,,,533.8452944000019,533.8452944000019,533.8452944000019,533.8452944000019,533.8452944000019,up,0.47677219999968656,8,0,0,99,0,0.24,up,0.39151269999638316,,,,,,,,,,,,,,,,,,,,,,,,,,,,,,,,,,,,,,,,,,,,,,,,,,,,,,,,,,,,VFP65Z,train_y,blue_star,bottom_left,2025-07-09_17h28.51.859,HideSeek_v1,2022.2.5,59.4681289487679,
,2,4,2,8,0,4,65,,train_dim1_1,21,30,,,,2,0,2,0,,,,,,,,,0,0,0,0,0,20,20,20,4,0,4,0,,,,,,,,,,,,,,,,,,,,,,,,,,,,,,,,,,,,,,,,,,,,,,,,,,,,,,,,,,,,,,,,30,,,,,,,,534.3292145000014,534.3292145000014,534.3292145000014,534.3292145000014,534.3292145000014,return,0.5103808000021672,9,0,0,1,0,0.24,return,0.42592449999938253,51,1,0,0.24,,,,,,,,,,,,,,,,,,,,,,,,,,,,,,,,,,,,,,,,,,,,,,,,,,,,,,,,VFP65Z,train_y,blue_star,bottom_left,2025-07-09_17h28.51.859,HideSeek_v1,2022.2.5,59.4681289487679,
,0,2,0,5,0,3,64,,train_dim1_1,22,30,,,,2,0,2,0,,,,,,,,,0,0,0,0,0,21,21,21,0,0,0,0,,,,,,,,,,,,,,,,,,,,,,,,,stimuli/alien_stimuli/64.png,,,,,,,,,,,,,,,,,,,,,,,,,,,,,stimuli/alien_stimuli/65.png,65,2,23,,,,,,,30,,,,,,,,539.2889656000007,539.2889656000007,539.2889656000007,539.2889656000007,539.2889656000007,up,1.6396988000014971,9,0,0,99,-0.16,-0.15999999999999998,up,1.5625018999962776,,,,,537.7364759000011,539.2889656000007,0,0.24,0.32,0.0,0.07999999999999999,0,0.0,0,0.24,536.3918316999989,536.3918316999989,536.3918316999989,536.3918316999989,536.3918316999989,536.3918316999989,536.3918316999989,536.3918316999989,536.3852179599992,1.436536299999716,return,1.3206016000003729,,,,,,,,,,,,,,,,,,,,,,,,,,,,,,,,,VFP65Z,train_y,blue_star,bottom_left,2025-07-09_17h28.51.859,HideSeek_v1,2022.2.5,59.4681289487679,
,0,2,0,5,0,3,64,,train_dim1_1,22,30,,,,2,0,2,0,,,,,,,,,0,0,0,0,0,21,21,21,1,0,1,0,,,,,,,,,,,,,,,,,,,,,,,,,,,,,,,,,,,,,,,,,,,,,,,,,,,,,,,,,,,,,,,,30,,,,,,,,540.9355542999983,540.9355542999983,540.9355542999983,540.9355542999983,540.9355542999983,up,0.45996240000022226,9,0,0,99,-0.16,-0.07999999999999997,up,0.3749209999987215,,,,,,,,,,,,,,,,,,,,,,,,,,,,,,,,,,,,,,,,,,,,,,,,,,,,,,,,,,,,VFP65Z,train_y,blue_star,bottom_left,2025-07-09_17h28.51.859,HideSeek_v1,2022.2.5,59.4681289487679,
,0,2,0,5,0,3,64,,train_dim1_1,22,30,,,,2,0,2,0,,,,,,,,,0,0,0,0,0,21,21,21,2,0,2,0,,,,,,,,,,,,,,,,,,,,,,,,,,,,,,,,,,,,,,,,,,,,,,,,,,,,,,,,,,,,,,,,30,,,,,,,,541.4026821000007,541.4026821000007,541.4026821000007,541.4026821000007,541.4026821000007,up,0.4932437999996182,9,0,0,99,-0.16,2.7755575615628914e-17,up,0.415971599995828,,,,,,,,,,,,,,,,,,,,,,,,,,,,,,,,,,,,,,,,,,,,,,,,,,,,,,,,,,,,VFP65Z,train_y,blue_star,bottom_left,2025-07-09_17h28.51.859,HideSeek_v1,2022.2.5,59.4681289487679,
,0,2,0,5,0,3,64,,train_dim1_1,22,30,,,,2,0,2,0,,,,,,,,,0,0,0,0,0,21,21,21,3,0,3,0,,,,,,,,,,,,,,,,,,,,,,,,,,,,,,,,,,,,,,,,,,,,,,,,,,,,,,,,,,,,,,,,30,,,,,,,,541.902070600001,541.902070600001,541.902070600001,541.902070600001,541.902070600001,return,1.0105356999993091,10,0,0,1,-0.16,2.7755575615628914e-17,return,0.9341988999985915,54,1,-0.16,2.7755575615628914e-17,,,,,,,,,,,,,,,,,,,,,,,,,,,,,,,,,,,,,,,,,,,,,,,,,,,,,,,,VFP65Z,train_y,blue_star,bottom_left,2025-07-09_17h28.51.859,HideSeek_v1,2022.2.5,59.4681289487679,
,0,3,0,3,0,0,61,,train_dim1_1,23,30,,,,2,0,2,0,,,,,,,,,0,0,0,0,0,22,22,22,0,0,0,0,,,,,,,,,,,,,,,,,,,,,,,,,stimuli/alien_stimuli/61.png,,,,,,,,,,,,,,,,,,,,,,,,,,,,,stimuli/alien_stimuli/64.png,64,0,24,,,,,,,30,,,,,,,,547.6810211000011,547.6810211000011,547.6810211000011,547.6810211000011,547.6810211000011,up,1.3215356999971846,10,0,0,99,-0.16,-0.08,up,1.2379306000002543,,,,,546.1267384999992,547.6810211000011,-0.16,0,0.24,0.0,-0.12,-0.16,-0.16,-0.16,0,544.4667159000019,544.4667159000019,544.4667159000019,544.4667159000019,544.4667159000019,544.4667159000019,544.4667159000019,544.4667159000019,544.4585998600007,1.7533939000022656,return,1.6369274999997288,,,,,,,,,,,,,,,,,,,,,,,,,,,,,,,,,VFP65Z,train_y,blue_star,bottom_left,2025-07-09_17h28.51.859,HideSeek_v1,2022.2.5,59.4681289487679,
,0,3,0,3,0,0,61,,train_dim1_1,23,30,,,,2,0,2,0,,,,,,,,,0,0,0,0,0,22,22,22,1,0,1,0,,,,,,,,,,,,,,,,,,,,,,,,,,,,,,,,,,,,,,,,,,,,,,,,,,,,,,,,,,,,,,,,30,,,,,,,,549.0088770000002,549.0088770000002,549.0088770000002,549.0088770000002,549.0088770000002,up,0.5765036000011605,10,0,0,99,-0.16,0.0,up,0.4896171999971557,,,,,,,,,,,,,,,,,,,,,,,,,,,,,,,,,,,,,,,,,,,,,,,,,,,,,,,,,,,,VFP65Z,train_y,blue_star,bottom_left,2025-07-09_17h28.51.859,HideSeek_v1,2022.2.5,59.4681289487679,
,0,3,0,3,0,0,61,,train_dim1_1,23,30,,,,2,0,2,0,,,,,,,,,0,0,0,0,0,22,22,22,2,0,2,0,,,,,,,,,,,,,,,,,,,,,,,,,,,,,,,,,,,,,,,,,,,,,,,,,,,,,,,,,,,,,,,,30,,,,,,,,549.592429100001,549.592429100001,549.592429100001,549.592429100001,549.592429100001,return,1.077110599999287,10,0,0,0,-0.16,0.0,return,0.9929166999972949,56,1,-0.16,0.0,,,,,,,,,,,,,,,,,,,,,,,,,,,,,,,,,,,,,,,,,,,,,,,,,,,,,,,,VFP65Z,train_y,blue_star,bottom_left,2025-07-09_17h28.51.859,HideSeek_v1,2022.2.5,59.4681289487679,
,3,2,3,7,0,5,66,,train_dim1_1,24,30,,,,2,0,2,0,,,,,,,,,0,0,0,0,0,23,23,23,0,0,0,0,,,,,,,,,,,,,,,,,,,,,,,,,stimuli/alien_stimuli/66.png,,,,,,,,,,,,,,,,,,,,,,,,,,,,,stimuli/alien_stimuli/61.png,61,0,25,,,,,,,30,,,,,,,,558.5887638999993,558.5887638999993,558.5887638999993,558.5887638999993,558.5887638999993,up,1.2561800999974366,10,0,0,99,0.08,-0.15999999999999998,up,1.182723599999008,,,,,557.0359089999984,558.5887638999993,-0.16,-0.16,0.0,0.0,-0.16,-0.16,-0.16,-0.16,-0.16,552.2217842999999,552.2217842999999,552.2217842999999,552.2217842999999,552.2217842999999,552.2217842999999,552.2217842999999,552.2217842999999,552.2153151599989,4.90621850000025,return,4.7857569999978296,,,,,,,,,,,,,,,,,,,,,,,,,,,,,,,,,VFP65Z,train_y,blue_star,bottom_left,2025-07-09_17h28.51.859,HideSeek_v1,2022.2.5,59.4681289487679,
,3,2,3,7,0,5,66,,train_dim1_1,24,30,,,,2,0,2,0,,,,,,,,,0,0,0,0,0,23,23,23,1,0,1,0,,,,,,,,,,,,,,,,,,,,,,,,,,,,,,,,,,,,,,,,,,,,,,,,,,,,,,,,,,,,,,,,30,,,,,,,,559.8509129999984,559.8509129999984,559.8509129999984,559.8509129999984,559.8509129999984,up,0.3926242999987153,10,0,0,99,0.08,-0.07999999999999997,up,0.32090949999837903,,,,,,,,,,,,,,,,,,,,,,,,,,,,,,,,,,,,,,,,,,,,,,,,,,,,,,,,,,,,VFP65Z,train_y,blue_star,bottom_left,2025-07-09_17h28.51.859,HideSeek_v1,2022.2.5,59.4681289487679,
,3,2,3,7,0,5,66,,train_dim1_1,24,30,,,,2,0,2,0,,,,,,,,,0,0,0,0,0,23,23,23,2,0,2,0,,,,,,,,,,,,,,,,,,,,,,,,,,,,,,,,,,,,,,,,,,,,,,,,,,,,,,,,,,,,,,,,30,,,,,,,,560.2518768000009,560.2518768000009,560.2518768000009,560.2518768000009,560.2518768000009,up,0.49300840000069,10,0,0,99,0.08,2.7755575615628914e-17,up,0.40956789999836474,,,,,,,,,,,,,,,,,,,,,,,,,,,,,,,,,,,,,,,,,,,,,,,,,,,,,,,,,,,,VFP65Z,train_y,blue_star,bottom_left,2025-07-09_17h28.51.859,HideSeek_v1,2022.2.5,59.4681289487679,
,3,2,3,7,0,5,66,,train_dim1_1,24,30,,,,2,0,2,0,,,,,,,,,0,0,0,0,0,23,23,23,3,0,3,0,,,,,,,,,,,,,,,,,,,,,,,,,,,,,,,,,,,,,,,,,,,,,,,,,,,,,,,,,,,,,,,,30,,,,,,,,560.7523580999987,560.7523580999987,560.7523580999987,560.7523580999987,560.7523580999987,up,0.35960590000104276,10,0,0,99,0.08,0.08000000000000003,up,0.2823516999997082,,,,,,,,,,,,,,,,,,,,,,,,,,,,,,,,,,,,,,,,,,,,,,,,,,,,,,,,,,,,VFP65Z,train_y,blue_star,bottom_left,2025-07-09_17h28.51.859,HideSeek_v1,2022.2.5,59.4681289487679,
,3,2,3,7,0,5,66,,train_dim1_1,24,30,,,,2,0,2,0,,,,,,,,,0,0,0,0,0,23,23,23,4,0,4,0,,,,,,,,,,,,,,,,,,,,,,,,,,,,,,,,,,,,,,,,,,,,,,,,,,,,,,,,,,,,,,,,30,,,,,,,,561.1184341000007,561.1184341000007,561.1184341000007,561.1184341000007,561.1184341000007,down,0.5270146000002569,10,0,0,99,0.08,2.7755575615628914e-17,down,0.4507019999982731,,,,,,,,,,,,,,,,,,,,,,,,,,,,,,,,,,,,,,,,,,,,,,,,,,,,,,,,,,,,VFP65Z,train_y,blue_star,bottom_left,2025-07-09_17h28.51.859,HideSeek_v1,2022.2.5,59.4681289487679,
,3,2,3,7,0,5,66,,train_dim1_1,24,30,,,,2,0,2,0,,,,,,,,,0,0,0,0,0,23,23,23,5,0,5,0,,,,,,,,,,,,,,,,,,,,,,,,,,,,,,,,,,,,,,,,,,,,,,,,,,,,,,,,,,,,,,,,30,,,,,,,,561.6516770999988,561.6516770999988,561.6516770999988,561.6516770999988,561.6516770999988,up,0.9106071000023803,10,0,0,99,0.08,0.08000000000000003,up,0.8264287999991211,,,,,,,,,,,,,,,,,,,,,,,,,,,,,,,,,,,,,,,,,,,,,,,,,,,,,,,,,,,,VFP65Z,train_y,blue_star,bottom_left,2025-07-09_17h28.51.859,HideSeek_v1,2022.2.5,59.4681289487679,
,3,2,3,7,0,5,66,,train_dim1_1,24,30,,,,2,0,2,0,,,,,,,,,0,0,0,0,0,23,23,23,6,0,6,0,,,,,,,,,,,,,,,,,,,,,,,,,,,,,,,,,,,,,,,,,,,,,,,,,,,,,,,,,,,,,,,,30,,,,,,,,562.5697728000014,562.5697728000014,562.5697728000014,562.5697728000014,562.5697728000014,return,0.7939436999986356,10,1,0,0,0.08,0.08000000000000003,return,0.7142618999969272,60,1,0.08,0.08000000000000003,,,,,,,,,,,,,,,,,,,,,,,,,,,,,,,,,,,,,,,,,,,,,,,,,,,,,,,,VFP65Z,train_y,blue_star,bottom_left,2025-07-09_17h28.51.859,HideSeek_v1,2022.2.5,59.4681289487679,
,3,3,3,4,0,1,62,,train_dim1_1,25,30,,,,2,0,2,0,,,,,,,,,0,0,0,0,0,24,24,24,0,0,0,0,,,,,,,,,,,,,,,,,,,,,,,,,stimuli/alien_stimuli/62.png,,,,,,,,,,,,,,,,,,,,,,,,,,,,,stimuli/alien_stimuli/66.png,66,3,26,,,,,,,30,,,,,,,,571.9348691000014,571.9348691000014,571.9348691000014,571.9348691000014,571.9348691000014,return,1.5545254000026034,10,1,0,0,0.08,-0.16,return,1.4790651000002981,60,1,0.08,-0.16,570.3802485000015,571.9348691000014,0.08,0.16,0.4,0.0,-0.039999999999999994,0.08,0.08,0.08,0.16,564.9359943000018,564.9359943000018,564.9359943000018,564.9359943000018,564.9359943000018,564.9359943000018,564.9359943000018,564.9359943000018,564.9257586200006,5.556665100000828,return,5.417259199999535,,,,,,,,,,,,,,,,,,,,,,,,,,,,,,,,,VFP65Z,train_y,blue_star,bottom_left,2025-07-09_17h28.51.859,HideSeek_v1,2022.2.5,59.4681289487679,
,4,4,4,7,0,3,64,,train_dim1_1,26,30,,,,2,0,2,0,,,,,,,,,0,0,0,0,0,25,25,25,0,0,0,0,,,,,,,,,,,,,,,,,,,,,,,,,stimuli/alien_stimuli/64.png,,,,,,,,,,,,,,,,,,,,,,,,,,,,,stimuli/alien_stimuli/62.png,62,3,27,,,,,,,30,,,,,,,,577.9373616000012,577.9373616000012,577.9373616000012,577.9373616000012,577.9373616000012,up,1.9231878000027791,10,1,0,99,0.16,0.0,up,1.8463054999992892,,,,,576.3853724,577.9373616000012,0.08,-0.08,0.08,0.0,-0.12,0.08,0.08,0.08,-0.08,575.0440535000016,575.0440535000016,575.0440535000016,575.0440535000016,575.0440535000016,575.0440535000016,575.0440535000016,575.0440535000016,575.0339720600016,1.4367879000019457,return,1.309392700000899,,,,,,,,,,,,,,,,,,,,,,,,,,,,,,,,,VFP65Z,train_y,blue_star,bottom_left,2025-07-09_17h28.51.859,HideSeek_v1,2022.2.5,59.4681289487679,
,4,4,4,7,0,3,64,,train_dim1_1,26,30,,,,2,0,2,0,,,,,,,,,0,0,0,0,0,25,25,25,1,0,1,0,,,,,,,,,,,,,,,,,,,,,,,,,,,,,,,,,,,,,,,,,,,,,,,,,,,,,,,,,,,,,,,,30,,,,,,,,579.8685939999996,579.8685939999996,579.8685939999996,579.8685939999996,579.8685939999996,up,0.3256322999986878,10,1,0,99,0.16,0.08,up,0.24358399999982794,,,,,,,,,,,,,,,,,,,,,,,,,,,,,,,,,,,,,,,,,,,,,,,,,,,,,,,,,,,,VFP65Z,train_y,blue_star,bottom_left,2025-07-09_17h28.51.859,HideSeek_v1,2022.2.5,59.4681289487679,
,4,4,4,7,0,3,64,,train_dim1_1,26,30,,,,2,0,2,0,,,,,,,,,0,0,0,0,0,25,25,25,2,0,2,0,,,,,,,,,,,,,,,,,,,,,,,,,,,,,,,,,,,,,,,,,,,,,,,,,,,,,,,,,,,,,,,,30,,,,,,,,580.2002944999986,580.2002944999986,580.2002944999986,580.2002944999986,580.2002944999986,up,0.29376810000030673,10,1,0,99,0.16,0.16,up,0.21492980000039097,,,,,,,,,,,,,,,,,,,,,,,,,,,,,,,,,,,,,,,,,,,,,,,,,,,,,,,,,,,,VFP65Z,train_y,blue_star,bottom_left,2025-07-09_17h28.51.859,HideSeek_v1,2022.2.5,59.4681289487679,
,4,4,4,7,0,3,64,,train_dim1_1,26,30,,,,2,0,2,0,,,,,,,,,0,0,0,0,0,25,25,25,3,0,3,0,,,,,,,,,,,,,,,,,,,,,,,,,,,,,,,,,,,,,,,,,,,,,,,,,,,,,,,,,,,,,,,,30,,,,,,,,580.5013012000018,580.5013012000018,580.5013012000018,580.5013012000018,580.5013012000018,return,0.5431138999992982,11,0,0,1,0.16,0.16,return,0.4659490999983973,63,1,0.16,0.16,,,,,,,,,,,,,,,,,,,,,,,,,,,,,,,,,,,,,,,,,,,,,,,,,,,,,,,,VFP65Z,train_y,blue_star,bottom_left,2025-07-09_17h28.51.859,HideSeek_v1,2022.2.5,59.4681289487679,
,3,4,3,9,0,5,66,,train_dim1_1,27,30,,,,2,0,2,0,,,,,,,,,0,0,0,0,0,26,26,26,0,0,0,0,,,,,,,,,,,,,,,,,,,,,,,,,stimuli/alien_stimuli/66.png,,,,,,,,,,,,,,,,,,,,,,,,,,,,,stimuli/alien_stimuli/64.png,64,4,28,,,,,,,30,,,,,,,,585.5269344000008,585.5269344000008,585.5269344000008,585.5269344000008,585.5269344000008,up,0.9053609000002325,11,0,0,99,0.08,0.0,up,0.8298431000002893,,,,,583.9750504000003,585.5269344000008,0.16,0.16,0.24,0.0,0.04,0.16,0.16,0.16,0.16,582.5992785999988,582.5992785999988,582.5992785999988,582.5992785999988,582.5992785999988,582.5992785999988,582.5992785999988,582.5992785999988,582.590499459998,1.4697387000014714,return,1.346949399998266,,,,,,,,,,,,,,,,,,,,,,,,,,,,,,,,,VFP65Z,train_y,blue_star,bottom_left,2025-07-09_17h28.51.859,HideSeek_v1,2022.2.5,59.4681289487679,
,3,4,3,9,0,5,66,,train_dim1_1,27,30,,,,2,0,2,0,,,,,,,,,0,0,0,0,0,26,26,26,1,0,1,0,,,,,,,,,,,,,,,,,,,,,,,,,,,,,,,,,,,,,,,,,,,,,,,,,,,,,,,,,,,,,,,,30,,,,,,,,586.4404926999996,586.4404926999996,586.4404926999996,586.4404926999996,586.4404926999996,up,0.35972229999970295,11,0,0,99,0.08,0.08,up,0.28659329999572947,,,,,,,,,,,,,,,,,,,,,,,,,,,,,,,,,,,,,,,,,,,,,,,,,,,,,,,,,,,,VFP65Z,train_y,blue_star,bottom_left,2025-07-09_17h28.51.859,HideSeek_v1,2022.2.5,59.4681289487679,
,3,4,3,9,0,5,66,,train_dim1_1,27,30,,,,2,0,2,0,,,,,,,,,0,0,0,0,0,26,26,26,2,0,2,0,,,,,,,,,,,,,,,,,,,,,,,,,,,,,,,,,,,,,,,,,,,,,,,,,,,,,,,,,,,,,,,,30,,,,,,,,586.8059056999991,586.8059056999991,586.8059056999991,586.8059056999991,586.8059056999991,up,0.3597403999992821,11,0,0,99,0.08,0.16,up,0.2824574999976903,,,,,,,,,,,,,,,,,,,,,,,,,,,,,,,,,,,,,,,,,,,,,,,,,,,,,,,,,,,,VFP65Z,train_y,blue_star,bottom_left,2025-07-09_17h28.51.859,HideSeek_v1,2022.2.5,59.4681289487679,
,3,4,3,9,0,5,66,,train_dim1_1,27,30,,,,2,0,2,0,,,,,,,,,0,0,0,0,0,26,26,26,3,0,3,0,,,,,,,,,,,,,,,,,,,,,,,,,,,,,,,,,,,,,,,,,,,,,,,,,,,,,,,,,,,,,,,,30,,,,,,,,587.1741857999987,587.1741857999987,587.1741857999987,587.1741857999987,587.1741857999987,up,0.3267958999967959,11,0,0,99,0.08,0.24,up,0.24182789999758825,,,,,,,,,,,,,,,,,,,,,,,,,,,,,,,,,,,,,,,,,,,,,,,,,,,,,,,,,,,,VFP65Z,train_y,blue_star,bottom_left,2025-07-09_17h28.51.859,HideSeek_v1,2022.2.5,59.4681289487679,
,3,4,3,9,0,5,66,,train_dim1_1,27,30,,,,2,0,2,0,,,,,,,,,0,0,0,0,0,26,26,26,4,0,4,0,,,,,,,,,,,,,,,,,,,,,,,,,,,,,,,,,,,,,,,,,,,,,,,,,,,,,,,,,,,,,,,,30,,,,,,,,587.5067334000014,587.5067334000014,587.5067334000014,587.5067334000014,587.5067334000014,return,0.4774289000015415,11,1,0,0,0.08,0.24,return,0.3960482999973465,67,1,0.08,0.24,,,,,,,,,,,,,,,,,,,,,,,,,,,,,,,,,,,,,,,,,,,,,,,,,,,,,,,,VFP65Z,train_y,blue_star,bottom_left,2025-07-09_17h28.51.859,HideSeek_v1,2022.2.5,59.4681289487679,
,4,1,4,1,0,0,61,,train_dim1_1,28,30,,,,2,0,2,0,,,,,,,,,0,0,0,0,0,27,27,27,0,0,0,0,,,,,,,,,,,,,,,,,,,,,,,,,stimuli/alien_stimuli/61.png,,,,,,,,,,,,,,,,,,,,,,,,,,,,,stimuli/alien_stimuli/66.png,66,3,29,,,,,,,30,,,,,,,,592.1166506000009,592.1166506000009,592.1166506000009,592.1166506000009,592.1166506000009,up,1.3550080999993952,11,1,0,99,0.16,-0.24,up,1.2729776999985916,,,,,590.5636412999993,592.1166506000009,0.08,0.32,0.4,0.0,0.12,0.08,0.08,0.08,0.32,589.538786000001,589.538786000001,589.538786000001,589.538786000001,589.538786000001,589.538786000001,589.538786000001,589.538786000001,589.5296896600005,1.1195955000002868,return,0.9935407999982999,,,,,,,,,,,,,,,,,,,,,,,,,,,,,,,,,VFP65Z,train_y,blue_star,bottom_left,2025-07-09_17h28.51.859,HideSeek_v1,2022.2.5,59.4681289487679,
,4,1,4,1,0,0,61,,train_dim1_1,28,30,,,,2,0,2,0,,,,,,,,,0,0,0,0,0,27,27,27,1,0,1,0,,,,,,,,,,,,,,,,,,,,,,,,,,,,,,,,,,,,,,,,,,,,,,,,,,,,,,,,,,,,,,,,30,,,,,,,,593.4793849999987,593.4793849999987,593.4793849999987,593.4793849999987,593.4793849999987,return,0.29288020000240067,11,1,0,0,0.16,-0.24,return,0.20923659999971278,68,1,0.16,-0.24,,,,,,,,,,,,,,,,,,,,,,,,,,,,,,,,,,,,,,,,,,,,,,,,,,,,,,,,VFP65Z,train_y,blue_star,bottom_left,2025-07-09_17h28.51.859,HideSeek_v1,2022.2.5,59.4681289487679,
,2,2,2,3,0,1,62,,train_dim1_1,29,30,,,,2,0,2,0,,,,,,,,,0,0,0,0,0,28,28,28,0,0,0,0,,,,,,,,,,,,,,,,,,,,,,,,,stimuli/alien_stimuli/62.png,,,,,,,,,,,,,,,,,,,,,,,,,,,,,stimuli/alien_stimuli/61.png,61,4,30,,,,,,,30,,,,,,,,598.3399854000018,598.3399854000018,598.3399854000018,598.3399854000018,598.3399854000018,return,2.6558618000017304,11,1,0,0,0,-0.24,return,2.5664598000003025,68,1,0,-0.24,596.7854582,598.3399854000018,0.16,-0.32,0.0,0.0,-0.32,0.16,0.16,0.16,-0.32,595.3256943000015,595.3256943000015,595.3256943000015,595.3256943000015,595.3256943000015,595.3256943000015,595.3256943000015,595.3256943000015,595.31772346,1.553431600001204,return,1.4329304999992019,,,,,,,,,,,,,,,,,,,,,,,,,,,,,,,,,VFP65Z,train_y,blue_star,bottom_left,2025-07-09_17h28.51.859,HideSeek_v1,2022.2.5,59.4681289487679,
,0,1,0,5,0,4,65,,train_dim1_1,30,30,,,,2,0,2,0,,,,,,,,,0,0,0,0,0,29,29,29,0,0,0,0,,,,,,,,,,,,,,,,,,,,,,,,,stimuli/alien_stimuli/65.png,,,,,,,,,,,,,,,,,,,,,,,,,,,,,stimuli/alien_stimuli/62.png,62,2,31,,,,,,,30,,,,,,,,605.9943567000009,605.9943567000009,605.9943567000009,605.9943567000009,605.9943567000009,return,0.7543716999971366,11,0,0,0,-0.16,-0.32,return,0.6702068999984476,68,1,-0.16,-0.32,604.4418648999999,605.9943567000009,0,-0.16,0.08,0.0,-0.2,0,0.0,0,-0.16,602.5461269000007,602.5461269000007,602.5461269000007,602.5461269000007,602.5461269000007,602.5461269000007,602.5461269000007,602.5461269000007,602.5400708599984,1.9875019999999495,return,1.8775054999969143,,,,,,,,,,,,,,,,,,,,,,,,,,,,,,,,,VFP65Z,train_y,blue_star,bottom_left,2025-07-09_17h28.51.859,HideSeek_v1,2022.2.5,59.4681289487679,
,,,,,,,,,,,30,,,,2,0,2,0,,,,,,,,,,,,,,,,,,,,,,,,,,,,,,,,,,,,,,,,,,,,,,,,,,,,,,,,,,,,,,,,,,,,,,,,,,stimuli/alien_stimuli/65.png,65,0,32,21,0.7,0.45833333333333337,1,1,1,30,0,conditions/schedules/train_y_first/blue_star_00/bottom_left/inputTrain_2.1.xlsx,99,1,2,1,0,,,,,,,,,,,0,,,,,,,,,611.5479225000017,613.0890948000015,-0.16,0,0.32,0.0,-0.16,-0.16,-0.16,-0.16,0,608.2991332999991,608.2991332999991,608.2991332999991,608.2991332999991,608.2991332999991,608.2991332999991,608.2991332999991,608.2991332999991,608.2951589600009,3.338362499998766,return,3.2258747999985644,0,0.9,0,1,11,,,,,,,,,,,,,,,,,,,,,,,,,,,,VFP65Z,train_y,blue_star,bottom_left,2025-07-09_17h28.51.859,HideSeek_v1,2022.2.5,59.4681289487679,
,,,,,,,,,,,,,,,3,0,3,0,0,0,0,0,,,,,,,,,,,,,,,,,,,,,,,,,,,,,,,conditions/schedules/train_y_first/blue_star_00/bottom_left/instructions/Slide17.png,conditions/schedules/train_y_first/blue_star_00/bottom_left/instructions/Audio17.wav,613.0890948000015,613.0823259800014,17,"[3.6159588000009535, 18.102026500000648, 9.43030870000075, 18.671388400001888, 3.975732299997617, 4.588829699998314, 5.038687399999617, 10.942310700000235, 5.185527300000103, 6.387746899999911, 9.605664599999727, 13.424142299998493, 16.267926300002728, 16.298986599998898, 42.8661718000003, 19.21032589999959, 56.239251899998635]","[0.014012900002853712, 0.013918799999373732, 0.05571140000029118, 0.035050099999352824, 0.051369000000704546, 0.03426679999756743, 0.04981410000254982, 0.03155490000062855, 0.04883490000065649, 0.1144696000010299, 0.04722669999682694, 13.424148899997817, 0.05287789999783854, 16.298992500000168, 0.0475613999988127, 19.210333099999843, 56.239283499999146]",0,,,,,,,,,,,,,,,,,,,,,,,,,,,,,,,,,,,,,,,,,,,,,,,,,,,,,,,,,,,,,,,,,,,,,,,,,,,,,,,,,,,,,,,,,,,,,,,,,,,,,,,,,,,,,,,,,,,,,,,,,,,,VFP65Z,train_y,blue_star,bottom_left,2025-07-09_17h28.51.859,HideSeek_v1,2022.2.5,59.4681289487679,
,,,,,,,,,,,,,,,3,0,3,0,1,0,1,0,,,,,,,,,,,,,,,,,,,,,,,,,,,,,,,conditions/schedules/train_y_first/blue_star_00/bottom_left/instructions/Slide18.png,conditions/schedules/train_y_first/blue_star_00/bottom_left/instructions/Audio18.wav,669.4102858000006,669.412912160001,18,"[3.6159588000009535, 18.102026500000648, 9.43030870000075, 18.671388400001888, 3.975732299997617, 4.588829699998314, 5.038687399999617, 10.942310700000235, 5.185527300000103, 6.387746899999911, 9.605664599999727, 13.424142299998493, 16.267926300002728, 16.298986599998898, 42.8661718000003, 19.21032589999959, 56.239251899998635, 5.854497100001026]","[0.014012900002853712, 0.013918799999373732, 0.05571140000029118, 0.035050099999352824, 0.051369000000704546, 0.03426679999756743, 0.04981410000254982, 0.03155490000062855, 0.04883490000065649, 0.1144696000010299, 0.04722669999682694, 13.424148899997817, 0.05287789999783854, 16.298992500000168, 0.0475613999988127, 19.210333099999843, 56.239283499999146, 5.85450629999832]",0,,,,,,,,,,,,,,,,,,,,,,,,,,,,,,,,,,,,,,,,,,,,,,,,,,,,,,,,,,,,,,,,,,,,,,,,,,,,,,,,,,,,,,,,,,,,,,,,,,,,,,,,,,,,,,,,,,,,,,,,,,,,VFP65Z,train_y,blue_star,bottom_left,2025-07-09_17h28.51.859,HideSeek_v1,2022.2.5,59.4681289487679,
,,,,,,,,,,,,,,,3,0,3,0,2,0,2,0,,,,,,,,,,,,,,,,,,,,,,,,,,,,,,,conditions/schedules/train_y_first/blue_star_00/bottom_left/instructions/Slide19.png,conditions/schedules/train_y_first/blue_star_00/bottom_left/instructions/Audio19.wav,675.3163616999991,675.3176387399989,19,"[3.6159588000009535, 18.102026500000648, 9.43030870000075, 18.671388400001888, 3.975732299997617, 4.588829699998314, 5.038687399999617, 10.942310700000235, 5.185527300000103, 6.387746899999911, 9.605664599999727, 13.424142299998493, 16.267926300002728, 16.298986599998898, 42.8661718000003, 19.21032589999959, 56.239251899998635, 5.854497100001026, 9.05599649999931]","[0.014012900002853712, 0.013918799999373732, 0.05571140000029118, 0.035050099999352824, 0.051369000000704546, 0.03426679999756743, 0.04981410000254982, 0.03155490000062855, 0.04883490000065649, 0.1144696000010299, 0.04722669999682694, 13.424148899997817, 0.05287789999783854, 16.298992500000168, 0.0475613999988127, 19.210333099999843, 56.239283499999146, 0.01383229999919422, 9.056002900000749]",0,,,,,,,,,,,,,,,,,,,,,,,,,,,,,,,,,,,,,,,,,,,,,,,,,,,,,,,,,,,,,,,,,,,,,,,,,,,,,,,,,,,,,,,,,,,,,,,,,,,,,,,,,,,,,,,,,,,,,,,,,,,,VFP65Z,train_y,blue_star,bottom_left,2025-07-09_17h28.51.859,HideSeek_v1,2022.2.5,59.4681289487679,
,,,,,,,,,,,,,,,3,0,3,0,3,0,3,0,,,,,,,,,,,,,,,,,,,,,,,,,,,,,,,conditions/schedules/train_y_first/blue_star_00/bottom_left/instructions/Slide20.png,conditions/schedules/train_y_first/blue_star_00/bottom_left/instructions/Audio20.wav,684.4246643000006,684.4250609400013,20,"[3.6159588000009535, 18.102026500000648, 9.43030870000075, 18.671388400001888, 3.975732299997617, 4.588829699998314, 5.038687399999617, 10.942310700000235, 5.185527300000103, 6.387746899999911, 9.605664599999727, 13.424142299998493, 16.267926300002728, 16.298986599998898, 42.8661718000003, 19.21032589999959, 56.239251899998635, 5.854497100001026, 9.05599649999931, 12.17462770000202]","[0.014012900002853712, 0.013918799999373732, 0.05571140000029118, 0.035050099999352824, 0.051369000000704546, 0.03426679999756743, 0.04981410000254982, 0.03155490000062855, 0.04883490000065649, 0.1144696000010299, 0.04722669999682694, 13.424148899997817, 0.05287789999783854, 16.298992500000168, 0.0475613999988127, 19.210333099999843, 56.239283499999146, 0.01383229999919422, 0.048151200000575045, 12.174634000002698]",0,,,,,,,,,,,,,,,,,,,,,,,,,,,,,,,,,,,,,,,,,,,,,,,,,,,,,,,,,,,,,,,,,,,,,,,,,,,,,,,,,,,,,,,,,,,,,,,,,,,,,,,,,,,,,,,,,,,,,,,,,,,,VFP65Z,train_y,blue_star,bottom_left,2025-07-09_17h28.51.859,HideSeek_v1,2022.2.5,59.4681289487679,
1,4,0,9,0,5,0,11,2,instr_dim1_2,,,,,,3,0,3,0,,,,,0,0,0,0,,,,,,,,,,,,,,,,,,,,,,,,,,,,,,,,,,,,,stimuli/alien_stimuli/11.png,conditions/schedules/train_y_first/blue_star_00/bottom_left/inputInstr_2.xlsx,stimuli/alien_stimuli/11.png,696.6999825999992,696.6999825999992,696.6999825999992,696.6999825999992,696.6853610600003,return,7.021546899999521,"[-0.16, -0.08, 0, 0.08, 0.16, 0.24, 0.32, 0.4, 0.48, 0.56]","[-0.4, -0.32, -0.24, -0.16, -0.08, 0, 0.08, 0.16, 0.24, 0.32]",0,0,9,4,0.0,0.4,703.8863052000015,703.8863052000015,703.8863052000015,703.8863052000015,703.8863052000015,703.8863052000015,703.8863052000015,703.8749364399981,6.773091999999451,return,6.6076638999984425,stimuli/alien_stimuli/11.png,11,4,1,,,,,,,,,,,,,,,,,,,,,,,,,,,,,,,,,,,,,,,,,,,,,,,,,,,,,,,,,,,,,,,,,,,,,,,,,,,,,,,,,,,,,,,,,VFP65Z,train_y,blue_star,bottom_left,2025-07-09_17h28.51.859,HideSeek_v1,2022.2.5,59.4681289487679,
,,,,,,,,,,,30,,,,3,0,3,0,,,,,,,,,,,,,,,,,,,,,,,,,,,,,,,,,,,,,,,,,,,,,,,,,,,,,,,,,,,,,,,,,,,,,,,,,,,,,,21,0.7,0.45833333333333337,1,99,2,30,0,conditions/schedules/train_y_first/blue_star_00/bottom_left/inputTrain_2.1.xlsx,99,1,2,1,0,,,,,,,,,,,,,,,,,,,,,,,,,,,,,,,,,,,,,,,,,,,,,,,,,,,,,,,,,,,,,,,,,,,,,,,,,,,VFP65Z,train_y,blue_star,bottom_left,2025-07-09_17h28.51.859,HideSeek_v1,2022.2.5,59.4681289487679,
,,,,,,,,,,,,,,,4,0,4,0,0,0,0,0,,,,,,,,,,,,,,,,,,,,,,,,,,,,,,,conditions/schedules/train_y_first/blue_star_00/bottom_left/instructions/Slide21.png,conditions/schedules/train_y_first/blue_star_00/bottom_left/instructions/Audio21.wav,710.6409839000007,710.6303771799991,21,"[3.6159588000009535, 18.102026500000648, 9.43030870000075, 18.671388400001888, 3.975732299997617, 4.588829699998314, 5.038687399999617, 10.942310700000235, 5.185527300000103, 6.387746899999911, 9.605664599999727, 13.424142299998493, 16.267926300002728, 16.298986599998898, 42.8661718000003, 19.21032589999959, 56.239251899998635, 5.854497100001026, 9.05599649999931, 12.17462770000202, 13.147708200001944]","[0.014012900002853712, 0.013918799999373732, 0.05571140000029118, 0.035050099999352824, 0.051369000000704546, 0.03426679999756743, 0.04981410000254982, 0.03155490000062855, 0.04883490000065649, 0.1144696000010299, 0.04722669999682694, 13.424148899997817, 0.05287789999783854, 16.298992500000168, 0.0475613999988127, 19.210333099999843, 56.239283499999146, 0.01383229999919422, 0.048151200000575045, 12.174634000002698, 13.147715999999491]",0,,,,,,,,,,,,,,,,,,,,,,,,,,,,,,,,,,,,,,,,,,,,,,,,,,,,,,,,,,,,,,,,,,,,,,,,,,,,,,,,,,,,,,,,,,,,,,,,,,,,,,,,,,,,,,,,,,,,,,,,,,,,VFP65Z,train_y,blue_star,bottom_left,2025-07-09_17h28.51.859,HideSeek_v1,2022.2.5,59.4681289487679,
2,3,2,3,2,0,0,61,2,instr_dim1_2,,,,,,4,0,4,0,,,,,0,0,0,0,,,,,,,,,,,,,,,,,,,,,,,,,,,,,,,,,,,,,stimuli/alien_stimuli/61.png,conditions/schedules/train_y_first/blue_star_00/bottom_left/inputInstr_2.xlsx,stimuli/alien_stimuli/61.png,723.891518299999,723.891518299999,723.891518299999,723.891518299999,723.8914668199982,return,3.038854499998706,"[-0.16, -0.08, 0, 0.08, 0.16, 0.24, 0.32, 0.4, 0.48, 0.56]","[-0.4, -0.32, -0.24, -0.16, -0.08, 0, 0.08, 0.16, 0.24, 0.32]",2,2,3,3,0.0,0.0,727.0949959999998,727.0949959999998,727.0949959999998,727.0949959999998,727.0949959999998,727.0949959999998,727.0949959999998,727.0769850800003,4.92203199999858,return,4.7572726999969746,stimuli/alien_stimuli/61.png,61,3,2,,,,,,,,,,,,,,,,,,,,,,,,,,,,,,,,,,,,,,,,,,,,,,,,,,,,,,,,,,,,,,,,,,,,,,,,,,,,,,,,,,,,,,,,,VFP65Z,train_y,blue_star,bottom_left,2025-07-09_17h28.51.859,HideSeek_v1,2022.2.5,59.4681289487679,
,,,,,,,,,,,30,,,,4,0,4,0,,,,,,,,,,,,,,,,,,,,,,,,,,,,,,,,,,,,,,,,,,,,,,,,,,,,,,,,,,,,,,,,,,,,,,,,,,,,,,21,0.7,0.45833333333333337,1,99,2,30,0,conditions/schedules/train_y_first/blue_star_00/bottom_left/inputTrain_2.1.xlsx,99,1,2,1,0,,,,,,,,,,,,,,,,,,,,,,,,,,,,,,,,,,,,,,,,,,,,,,,,,,,,,,,,,,,,,,,,,,,,,,,,,,,VFP65Z,train_y,blue_star,bottom_left,2025-07-09_17h28.51.859,HideSeek_v1,2022.2.5,59.4681289487679,
,,,,,,,,,,,,,,,5,0,5,0,0,0,0,0,,,,,,,,,,,,,,,,,,,,,,,,,,,,,,,conditions/schedules/train_y_first/blue_star_00/bottom_left/instructions/Slide22.png,conditions/schedules/train_y_first/blue_star_00/bottom_left/instructions/Audio22.wav,732.0142616000012,732.0148113399981,22,"[3.6159588000009535, 18.102026500000648, 9.43030870000075, 18.671388400001888, 3.975732299997617, 4.588829699998314, 5.038687399999617, 10.942310700000235, 5.185527300000103, 6.387746899999911, 9.605664599999727, 13.424142299998493, 16.267926300002728, 16.298986599998898, 42.8661718000003, 19.21032589999959, 56.239251899998635, 5.854497100001026, 9.05599649999931, 12.17462770000202, 13.147708200001944, 29.639182400002028]","[0.014012900002853712, 0.013918799999373732, 0.05571140000029118, 0.035050099999352824, 0.051369000000704546, 0.03426679999756743, 0.04981410000254982, 0.03155490000062855, 0.04883490000065649, 0.1144696000010299, 0.04722669999682694, 13.424148899997817, 0.05287789999783854, 16.298992500000168, 0.0475613999988127, 19.210333099999843, 56.239283499999146, 0.01383229999919422, 0.048151200000575045, 12.174634000002698, 13.147715999999491, 29.639189600002283]",0,,,,,,,,,,,,,,,,,,,,,,,,,,,,,,,,,,,,,,,,,,,,,,,,,,,,,,,,,,,,,,,,,,,,,,,,,,,,,,,,,,,,,,,,,,,,,,,,,,,,,,,,,,,,,,,,,,,,,,,,,,,,VFP65Z,train_y,blue_star,bottom_left,2025-07-09_17h28.51.859,HideSeek_v1,2022.2.5,59.4681289487679,
,2,1,5,1,3,0,31,,train_dim1_2,1,30,,,,5,0,5,0,,,,,,,,,0,0,0,0,0,0,0,0,0,0,0,0,,,,,,,,,,,,,,,,,,,,,,,,,stimuli/alien_stimuli/31.png,,,,,,,,,,,,,,,,,,,,,,,,,,,,,,,,,,,,,,,30,,,,,,,,761.7595043000001,761.7595043000001,761.7595043000001,761.7595043000001,761.7595043000001,right,4.531010700000479,0,0,0,99,0.08,-0.32,right,4.418097199999465,,,,,,,,,,,,,,,,,,,,,,,,,,,,,,,,,,,,,,,,,,,,,,,,,,,,,,,,,,,,VFP65Z,train_y,blue_star,bottom_left,2025-07-09_17h28.51.859,HideSeek_v1,2022.2.5,59.4681289487679,
,2,1,5,1,3,0,31,,train_dim1_2,1,30,,,,5,0,5,0,,,,,,,,,0,0,0,0,0,0,0,0,1,0,1,0,,,,,,,,,,,,,,,,,,,,,,,,,,,,,,,,,,,,,,,,,,,,,,,,,,,,,,,,,,,,,,,,30,,,,,,,,766.2742077000003,766.2742077000003,766.2742077000003,766.2742077000003,766.2742077000003,right,0.40985619999992196,0,0,0,99,0.16,-0.32,right,0.3239583999966271,,,,,,,,,,,,,,,,,,,,,,,,,,,,,,,,,,,,,,,,,,,,,,,,,,,,,,,,,,,,VFP65Z,train_y,blue_star,bottom_left,2025-07-09_17h28.51.859,HideSeek_v1,2022.2.5,59.4681289487679,
,2,1,5,1,3,0,31,,train_dim1_2,1,30,,,,5,0,5,0,,,,,,,,,0,0,0,0,0,0,0,0,2,0,2,0,,,,,,,,,,,,,,,,,,,,,,,,,,,,,,,,,,,,,,,,,,,,,,,,,,,,,,,,,,,,,,,,30,,,,,,,,766.6902494999995,766.6902494999995,766.6902494999995,766.6902494999995,766.6902494999995,return,1.1274534000003769,0,1,0,0,0.16,-0.32,return,1.0408328999983496,68,3,0.16,-0.32,,,,,,,,,,,,,,,,,,,,,,,,,,,,,,,,,,,,,,,,,,,,,,,,,,,,,,,,VFP65Z,train_y,blue_star,bottom_left,2025-07-09_17h28.51.859,HideSeek_v1,2022.2.5,59.4681289487679,
,2,4,7,4,5,0,11,,train_dim1_2,2,30,,,,5,0,5,0,,,,,,,,,0,0,0,0,0,1,1,1,0,0,0,0,,,,,,,,,,,,,,,,,,,,,,,,,stimuli/alien_stimuli/11.png,,,,,,,,,,,,,,,,,,,,,,,,,,,,,stimuli/alien_stimuli/31.png,31,2,3,,,,,,,30,,,,,,,,774.7328492999986,774.7328492999986,774.7328492999986,774.7328492999986,774.7328492999986,right,2.1370735000018612,0,1,0,99,0.08,-0.08,right,2.0445384999984526,,,,,773.1656890999984,774.7328492999986,0.24,-0.32,0.0,0.24,-0.32,0.24,0.12,0.24,-0.32,769.380182500001,769.380182500001,769.380182500001,769.380182500001,769.380182500001,769.380182500001,769.380182500001,769.380182500001,769.3623283599984,3.88893889999963,return,3.762245099998836,,,,,,,,,,,,,,,,,,,,,,,,,,,,,,,,,VFP65Z,train_y,blue_star,bottom_left,2025-07-09_17h28.51.859,HideSeek_v1,2022.2.5,59.4681289487679,
,2,4,7,4,5,0,11,,train_dim1_2,2,30,,,,5,0,5,0,,,,,,,,,0,0,0,0,0,1,1,1,1,0,1,0,,,,,,,,,,,,,,,,,,,,,,,,,,,,,,,,,,,,,,,,,,,,,,,,,,,,,,,,,,,,,,,,30,,,,,,,,776.8718463000005,776.8718463000005,776.8718463000005,776.8718463000005,776.8718463000005,right,0.49143719999847235,0,1,0,99,0.16,-0.08,right,0.4013868000001821,,,,,,,,,,,,,,,,,,,,,,,,,,,,,,,,,,,,,,,,,,,,,,,,,,,,,,,,,,,,VFP65Z,train_y,blue_star,bottom_left,2025-07-09_17h28.51.859,HideSeek_v1,2022.2.5,59.4681289487679,
,2,4,7,4,5,0,11,,train_dim1_2,2,30,,,,5,0,5,0,,,,,,,,,0,0,0,0,0,1,1,1,2,0,2,0,,,,,,,,,,,,,,,,,,,,,,,,,,,,,,,,,,,,,,,,,,,,,,,,,,,,,,,,,,,,,,,,30,,,,,,,,777.3698489000017,777.3698489000017,777.3698489000017,777.3698489000017,777.3698489000017,right,0.4605699000021559,0,1,0,99,0.24,-0.08,right,0.3703041000007943,,,,,,,,,,,,,,,,,,,,,,,,,,,,,,,,,,,,,,,,,,,,,,,,,,,,,,,,,,,,VFP65Z,train_y,blue_star,bottom_left,2025-07-09_17h28.51.859,HideSeek_v1,2022.2.5,59.4681289487679,
,2,4,7,4,5,0,11,,train_dim1_2,2,30,,,,5,0,5,0,,,,,,,,,0,0,0,0,0,1,1,1,3,0,3,0,,,,,,,,,,,,,,,,,,,,,,,,,,,,,,,,,,,,,,,,,,,,,,,,,,,,,,,,,,,,,,,,30,,,,,,,,777.8371091000008,777.8371091000008,777.8371091000008,777.8371091000008,777.8371091000008,right,0.4927427999973588,0,1,0,99,0.32,-0.08,right,0.4056334999986575,,,,,,,,,,,,,,,,,,,,,,,,,,,,,,,,,,,,,,,,,,,,,,,,,,,,,,,,,,,,VFP65Z,train_y,blue_star,bottom_left,2025-07-09_17h28.51.859,HideSeek_v1,2022.2.5,59.4681289487679,
,2,4,7,4,5,0,11,,train_dim1_2,2,30,,,,5,0,5,0,,,,,,,,,0,0,0,0,0,1,1,1,4,0,4,0,,,,,,,,,,,,,,,,,,,,,,,,,,,,,,,,,,,,,,,,,,,,,,,,,,,,,,,,,,,,,,,,30,,,,,,,,778.3368969000003,778.3368969000003,778.3368969000003,778.3368969000003,778.3368969000003,return,0.5602101999975275,0,1,0,0,0.32,-0.08,return,0.47844849999819417,68,7,0.32,-0.08,,,,,,,,,,,,,,,,,,,,,,,,,,,,,,,,,,,,,,,,,,,,,,,,,,,,,,,,VFP65Z,train_y,blue_star,bottom_left,2025-07-09_17h28.51.859,HideSeek_v1,2022.2.5,59.4681289487679,
,4,4,8,4,4,0,21,,train_dim1_2,3,30,,,,5,0,5,0,,,,,,,,,0,0,0,0,0,2,2,2,0,0,0,0,,,,,,,,,,,,,,,,,,,,,,,,,stimuli/alien_stimuli/21.png,,,,,,,,,,,,,,,,,,,,,,,,,,,,,stimuli/alien_stimuli/11.png,11,2,4,,,,,,,30,,,,,,,,786.6922029000016,786.6922029000016,786.6922029000016,786.6922029000016,786.6922029000016,right,2.820959299999231,0,1,0,99,0.24,-0.08,right,2.7326098999983515,,,,,785.1255290000008,786.6922029000016,0.4,-0.08,0.0,0.4,-0.08,0.4,0.2,0.4,-0.08,780.4781652999991,780.4781652999991,780.4781652999991,780.4781652999991,780.4781652999991,780.4781652999991,780.4781652999991,780.4781652999991,780.4717393799998,4.772484100001748,return,4.625937599997997,,,,,,,,,,,,,,,,,,,,,,,,,,,,,,,,,VFP65Z,train_y,blue_star,bottom_left,2025-07-09_17h28.51.859,HideSeek_v1,2022.2.5,59.4681289487679,
,4,4,8,4,4,0,21,,train_dim1_2,3,30,,,,5,0,5,0,,,,,,,,,0,0,0,0,0,2,2,2,1,0,1,0,,,,,,,,,,,,,,,,,,,,,,,,,,,,,,,,,,,,,,,,,,,,,,,,,,,,,,,,,,,,,,,,30,,,,,,,,789.5136778999986,789.5136778999986,789.5136778999986,789.5136778999986,789.5136778999986,right,0.5597617000021273,0,1,0,99,0.32,-0.08,right,0.48180799999681767,,,,,,,,,,,,,,,,,,,,,,,,,,,,,,,,,,,,,,,,,,,,,,,,,,,,,,,,,,,,VFP65Z,train_y,blue_star,bottom_left,2025-07-09_17h28.51.859,HideSeek_v1,2022.2.5,59.4681289487679,
,4,4,8,4,4,0,21,,train_dim1_2,3,30,,,,5,0,5,0,,,,,,,,,0,0,0,0,0,2,2,2,2,0,2,0,,,,,,,,,,,,,,,,,,,,,,,,,,,,,,,,,,,,,,,,,,,,,,,,,,,,,,,,,,,,,,,,30,,,,,,,,790.0812589000016,790.0812589000016,790.0812589000016,790.0812589000016,790.0812589000016,right,0.5593499000024167,0,1,0,99,0.4,-0.08,right,0.46913430000131484,,,,,,,,,,,,,,,,,,,,,,,,,,,,,,,,,,,,,,,,,,,,,,,,,,,,,,,,,,,,VFP65Z,train_y,blue_star,bottom_left,2025-07-09_17h28.51.859,HideSeek_v1,2022.2.5,59.4681289487679,
,4,4,8,4,4,0,21,,train_dim1_2,3,30,,,,5,0,5,0,,,,,,,,,0,0,0,0,0,2,2,2,3,0,3,0,,,,,,,,,,,,,,,,,,,,,,,,,,,,,,,,,,,,,,,,,,,,,,,,,,,,,,,,,,,,,,,,30,,,,,,,,790.6479786000018,790.6479786000018,790.6479786000018,790.6479786000018,790.6479786000018,right,0.9270499999984168,0,1,0,99,0.48000000000000004,-0.08,right,0.84482829999979,,,,,,,,,,,,,,,,,,,,,,,,,,,,,,,,,,,,,,,,,,,,,,,,,,,,,,,,,,,,VFP65Z,train_y,blue_star,bottom_left,2025-07-09_17h28.51.859,HideSeek_v1,2022.2.5,59.4681289487679,
,4,4,8,4,4,0,21,,train_dim1_2,3,30,,,,5,0,5,0,,,,,,,,,0,0,0,0,0,2,2,2,4,0,4,0,,,,,,,,,,,,,,,,,,,,,,,,,,,,,,,,,,,,,,,,,,,,,,,,,,,,,,,,,,,,,,,,30,,,,,,,,791.5819284999998,791.5819284999998,791.5819284999998,791.5819284999998,791.5819284999998,return,0.6101275000000896,1,0,0,1,0.48000000000000004,-0.08,return,0.5262509999993199,68,11,0.48000000000000004,-0.08,,,,,,,,,,,,,,,,,,,,,,,,,,,,,,,,,,,,,,,,,,,,,,,,,,,,,,,,VFP65Z,train_y,blue_star,bottom_left,2025-07-09_17h28.51.859,HideSeek_v1,2022.2.5,59.4681289487679,
,2,3,3,3,1,0,51,,train_dim1_2,4,30,,,,5,0,5,0,,,,,,,,,0,0,0,0,0,3,3,3,0,0,0,0,,,,,,,,,,,,,,,,,,,,,,,,,stimuli/alien_stimuli/51.png,,,,,,,,,,,,,,,,,,,,,,,,,,,,,stimuli/alien_stimuli/21.png,21,4,5,,,,,,,30,,,,,,,,796.9752695999996,796.9752695999996,796.9752695999996,796.9752695999996,796.9752695999996,down,4.0058634000015445,1,0,0,99,0,-0.24,down,3.899392999999691,,,,,795.4008510999993,796.9752695999996,0.48,-0.08,0.0,0.32,-0.08,0.48,0.32,0.48,-0.08,793.7727190000005,793.7727190000005,793.7727190000005,793.7727190000005,793.7727190000005,793.7727190000005,793.7727190000005,793.7727190000005,793.7659325799992,1.7540636000012455,return,1.6078653000004124,,,,,,,,,,,,,,,,,,,,,,,,,,,,,,,,,VFP65Z,train_y,blue_star,bottom_left,2025-07-09_17h28.51.859,HideSeek_v1,2022.2.5,59.4681289487679,
,2,3,3,3,1,0,51,,train_dim1_2,4,30,,,,5,0,5,0,,,,,,,,,0,0,0,0,0,3,3,3,1,0,1,0,,,,,,,,,,,,,,,,,,,,,,,,,,,,,,,,,,,,,,,,,,,,,,,,,,,,,,,,,,,,,,,,30,,,,,,,,800.9771336000013,800.9771336000013,800.9771336000013,800.9771336000013,800.9771336000013,down,0.2886313000017253,1,0,0,99,0,-0.32,down,0.20536490000085905,,,,,,,,,,,,,,,,,,,,,,,,,,,,,,,,,,,,,,,,,,,,,,,,,,,,,,,,,,,,VFP65Z,train_y,blue_star,bottom_left,2025-07-09_17h28.51.859,HideSeek_v1,2022.2.5,59.4681289487679,
,2,3,3,3,1,0,51,,train_dim1_2,4,30,,,,5,0,5,0,,,,,,,,,0,0,0,0,0,3,3,3,2,0,2,0,,,,,,,,,,,,,,,,,,,,,,,,,,,,,,,,,,,,,,,,,,,,,,,,,,,,,,,,,,,,,,,,30,,,,,,,,801.2702839000012,801.2702839000012,801.2702839000012,801.2702839000012,801.2702839000012,up,0.5271152000022994,1,0,0,99,0,-0.24,up,0.43723339999633026,,,,,,,,,,,,,,,,,,,,,,,,,,,,,,,,,,,,,,,,,,,,,,,,,,,,,,,,,,,,VFP65Z,train_y,blue_star,bottom_left,2025-07-09_17h28.51.859,HideSeek_v1,2022.2.5,59.4681289487679,
