trialInstr,x_fixStart,y_fixStart,x_corrSteps,y_corrSteps,x_nrSteps,y_nrSteps,alienID,trialLength,version,trialTrain,praclen,testlen,trial_label,break_on_off,beforeExpLoop.thisRepN,beforeExpLoop.thisTrialN,beforeExpLoop.thisN,beforeExpLoop.thisIndex,mini_instr_trials.thisRepN,mini_instr_trials.thisTrialN,mini_instr_trials.thisN,mini_instr_trials.thisIndex,instrLoop.thisRepN,instrLoop.thisTrialN,instrLoop.thisN,instrLoop.thisIndex,repeat_prac.thisRepN,repeat_prac.thisTrialN,repeat_prac.thisN,repeat_prac.thisIndex,trainLoop.thisRepN,trainLoop.thisTrialN,trainLoop.thisN,trainLoop.thisIndex,moveLoop_train.thisRepN,moveLoop_train.thisTrialN,moveLoop_train.thisN,moveLoop_train.thisIndex,experiment.thisRepN,experiment.thisTrialN,experiment.thisN,experiment.thisIndex,moveLoop_test.thisRepN,moveLoop_test.thisTrialN,moveLoop_test.thisN,moveLoop_test.thisIndex,mini_instr2_trials.thisRepN,mini_instr2_trials.thisTrialN,mini_instr2_trials.thisN,mini_instr2_trials.thisIndex,start_all_time,url,slideStim,audioStim,slides.started,sounds.started,nextButton.numClicks,nextButton.timesOn,nextButton.timesOff,prev_but.numClicks,prev_but.timesOn,prev_but.timesOff,alienStim,instrFile,alienStim_instr,gridImage_instr.started,startPos_3.started,key_instr.started,alienImage_3.started,sounds_1.started,key_instr.keys,key_instr.rt,all_x,all_y,FBy_corrSteps,FBy_fixStart,FBx_corrSteps,FBx_fixStart,FBy_pathSize_check,FBx_pathSize_check,gridImage_9.started,alienImageFB_3.started,startPosFB_3.started,keyFB_3.started,pathLine_ydir_2.started,pathLine_xdir_2.started,alienFace_3.started,sounds_2.started,RTFB_instr,keyFB_3.keys,keyFB_3.rt,draw_alienStim,draw_alienID,test_x,nrepcount,perfthres,percthres,earlierperf,earlystop,nextPrac,fileidx,praclen,saveACC_train,pracFile,nextPrac_train,addNrep,fileidx_endr,repExp,showearly,gridImage_4.started,startPos.started,movePos.started,key_resp.started,alienImage.started,buttonPress_train,RTchoice_train,cumAcctrain,aCorr,saveACC_choice,corrAns,x_movePos_end,y_movePos_end,key_resp.keys,key_resp.rt,wLy_dir,wLx_dir,x_movePos,y_movePos,text_2.started,text_2.stopped,aft_x_corrPos,aft_y_corrPos,y_pathSize_check,x_pathSize_check,y_pathdirY,x_pathdirY,x_pathdirX,x_corrPos,y_corrPos,gridImage_6.started,alienImageFB_2.started,startPosFB_2.started,movePosFB_2.started,keyFB_2.started,pathLine_xdir.started,pathLine_ydir.started,alienFace.started,sounds_4.started,RT_FBtrain,keyFB_2.keys,keyFB_2.rt,saveACC_pre,ACC,within_saveACC_train,earlystop_wloop,cumAcctrain_check,gridImage_3.started,alienImage_test.started,startPos_test.started,movePos_test.started,key_resp_test.started,wLy_dir_test,wLx_dir_test,buttonPress_test,RTchoice_test,cumAcctest,corrAns_test,key_resp_test.keys,key_resp_test.rt,text_3.started,text_3.stopped,total_time,end_all_time,key_resp_3.keys,slides_2.started,sounds_3.started,nextButton_2.numClicks,nextButton_2.timesOn,nextButton_2.timesOff,prev_but_2.numClicks,prev_but_2.timesOn,prev_but_2.timesOff,bye.started,participant,train_first,00_coordinate,starting corner,date,expName,psychopyVersion,frameRate,
,,,,,,,,,,,,,,,0,0,0,0,0,0,0,0,,,,,,,,,,,,,,,,,,,,,,,,,,,,,start_all_time,testround,conditions/schedules/train_x_first/blue_star_00/bottom_right/instructions/Slide1.png,conditions/schedules/train_x_first/blue_star_00/bottom_right/instructions/Audio1.wav,226.25920159999987,226.20872230001487,1,[6.292467999999644],[6.2924761000003855],0,,,,,,,,,,,,,,,,,,,,,,,,,,,,,,,,,,,,,,,,,,,,,,,,,,,,,,,,,,,,,,,,,,,,,,,,,,,,,,,,,,,,,,,,,,,,,,,,,,,,,,,,,,,,,,,,,,,,,,,,,,,,VGCZM2,train_x,blue_star,bottom_right,2025-05-07_16h40.56.323,HideSeek_v1,2022.2.5,59.953871491188025,
,,,,,,,,,,,,,,,0,0,0,0,1,0,1,0,,,,,,,,,,,,,,,,,,,,,,,,,,,,,,,conditions/schedules/train_x_first/blue_star_00/bottom_right/instructions/Slide2.png,conditions/schedules/train_x_first/blue_star_00/bottom_right/instructions/Audio2.wav,232.57441629999994,232.57584879999968,2,"[6.292467999999644, 18.514674500000183]","[0.00021319999996194383, 18.514682200000607]",0,,,,,,,,,,,,,,,,,,,,,,,,,,,,,,,,,,,,,,,,,,,,,,,,,,,,,,,,,,,,,,,,,,,,,,,,,,,,,,,,,,,,,,,,,,,,,,,,,,,,,,,,,,,,,,,,,,,,,,,,,,,,VGCZM2,train_x,blue_star,bottom_right,2025-05-07_16h40.56.323,HideSeek_v1,2022.2.5,59.953871491188025,
,,,,,,,,,,,,,,,0,0,0,0,2,0,2,0,,,,,,,,,,,,,,,,,,,,,,,,,,,,,,,conditions/schedules/train_x_first/blue_star_00/bottom_right/instructions/Slide3.png,conditions/schedules/train_x_first/blue_star_00/bottom_right/instructions/Audio3.wav,251.1799022999994,251.17442910000045,3,"[6.292467999999644, 18.514674500000183, 16.742624599999544]","[0.00021319999996194383, 0.017189799999869138, 16.74263189999965]",0,,,,,,,,,,,,,,,,,,,,,,,,,,,,,,,,,,,,,,,,,,,,,,,,,,,,,,,,,,,,,,,,,,,,,,,,,,,,,,,,,,,,,,,,,,,,,,,,,,,,,,,,,,,,,,,,,,,,,,,,,,,,VGCZM2,train_x,blue_star,bottom_right,2025-05-07_16h40.56.323,HideSeek_v1,2022.2.5,59.953871491188025,
,,,,,,,,,,,,,,,0,0,0,0,3,0,3,0,,,,,,,,,,,,,,,,,,,,,,,,,,,,,,,conditions/schedules/train_x_first/blue_star_00/bottom_right/instructions/Slide4.png,conditions/schedules/train_x_first/blue_star_00/bottom_right/instructions/Audio4.wav,267.9948356999994,267.98861270000043,4,"[6.292467999999644, 18.514674500000183, 16.742624599999544, 19.77430639999966]","[0.00021319999996194383, 0.017189799999869138, 0.00021269999979267595, 19.774312999999893]",0,,,,,,,,,,,,,,,,,,,,,,,,,,,,,,,,,,,,,,,,,,,,,,,,,,,,,,,,,,,,,,,,,,,,,,,,,,,,,,,,,,,,,,,,,,,,,,,,,,,,,,,,,,,,,,,,,,,,,,,,,,,,VGCZM2,train_x,blue_star,bottom_right,2025-05-07_16h40.56.323,HideSeek_v1,2022.2.5,59.953871491188025,
,,,,,,,,,,,,,,,0,0,0,0,4,0,4,0,,,,,,,,,,,,,,,,,,,,,,,,,,,,,,,conditions/schedules/train_x_first/blue_star_00/bottom_right/instructions/Slide5.png,conditions/schedules/train_x_first/blue_star_00/bottom_right/instructions/Audio5.wav,287.8326987999999,287.8215773000002,5,"[6.292467999999644, 18.514674500000183, 16.742624599999544, 19.77430639999966, 4.790178600000218]","[0.00021319999996194383, 0.017189799999869138, 0.00021269999979267595, 0.013940400000137743, 4.790185800000472]",0,,,,,,,,,,,,,,,,,,,,,,,,,,,,,,,,,,,,,,,,,,,,,,,,,,,,,,,,,,,,,,,,,,,,,,,,,,,,,,,,,,,,,,,,,,,,,,,,,,,,,,,,,,,,,,,,,,,,,,,,,,,,VGCZM2,train_x,blue_star,bottom_right,2025-05-07_16h40.56.323,HideSeek_v1,2022.2.5,59.953871491188025,
,,,,,,,,,,,,,,,0,0,0,0,5,0,5,0,,,,,,,,,,,,,,,,,,,,,,,,,,,,,,,conditions/schedules/train_x_first/blue_star_00/bottom_right/instructions/Slide6.png,conditions/schedules/train_x_first/blue_star_00/bottom_right/instructions/Audio6.wav,292.6737495999996,292.6756008000002,6,"[6.292467999999644, 18.514674500000183, 16.742624599999544, 19.77430639999966, 4.790178600000218, 4.803746800000226]","[0.00021319999996194383, 0.017189799999869138, 0.00021269999979267595, 0.013940400000137743, 0.03274139999939507, 4.803754599999593]",0,,,,,,,,,,,,,,,,,,,,,,,,,,,,,,,,,,,,,,,,,,,,,,,,,,,,,,,,,,,,,,,,,,,,,,,,,,,,,,,,,,,,,,,,,,,,,,,,,,,,,,,,,,,,,,,,,,,,,,,,,,,,VGCZM2,train_x,blue_star,bottom_right,2025-05-07_16h40.56.323,HideSeek_v1,2022.2.5,59.953871491188025,
,,,,,,,,,,,,,,,0,0,0,0,6,0,6,0,,,,,,,,,,,,,,,,,,,,,,,,,,,,,,,conditions/schedules/train_x_first/blue_star_00/bottom_right/instructions/Slide7.png,conditions/schedules/train_x_first/blue_star_00/bottom_right/instructions/Audio7.wav,297.5295286999999,297.5297029000003,7,"[6.292467999999644, 18.514674500000183, 16.742624599999544, 19.77430639999966, 4.790178600000218, 4.803746800000226, 6.186261900000318]","[0.00021319999996194383, 0.017189799999869138, 0.00021269999979267595, 0.013940400000137743, 0.03274139999939507, 0.06443880000006175, 6.186268800000107]",0,,,,,,,,,,,,,,,,,,,,,,,,,,,,,,,,,,,,,,,,,,,,,,,,,,,,,,,,,,,,,,,,,,,,,,,,,,,,,,,,,,,,,,,,,,,,,,,,,,,,,,,,,,,,,,,,,,,,,,,,,,,,VGCZM2,train_x,blue_star,bottom_right,2025-05-07_16h40.56.323,HideSeek_v1,2022.2.5,59.953871491188025,
,,,,,,,,,,,,,,,0,0,0,0,7,0,7,0,,,,,,,,,,,,,,,,,,,,,,,,,,,,,,,conditions/schedules/train_x_first/blue_star_00/bottom_right/instructions/Slide8.png,conditions/schedules/train_x_first/blue_star_00/bottom_right/instructions/Audio8.wav,303.76822019999963,303.76830960000007,8,"[6.292467999999644, 18.514674500000183, 16.742624599999544, 19.77430639999966, 4.790178600000218, 4.803746800000226, 6.186261900000318, 11.690392200000133]","[0.00021319999996194383, 0.017189799999869138, 0.00021269999979267595, 0.013940400000137743, 0.03274139999939507, 0.06443880000006175, 0.04751880000003439, 11.690399799999796]",0,,,,,,,,,,,,,,,,,,,,,,,,,,,,,,,,,,,,,,,,,,,,,,,,,,,,,,,,,,,,,,,,,,,,,,,,,,,,,,,,,,,,,,,,,,,,,,,,,,,,,,,,,,,,,,,,,,,,,,,,,,,,VGCZM2,train_x,blue_star,bottom_right,2025-05-07_16h40.56.323,HideSeek_v1,2022.2.5,59.953871491188025,
,,,,,,,,,,,,,,,0,0,0,0,8,0,8,0,,,,,,,,,,,,,,,,,,,,,,,,,,,,,,,conditions/schedules/train_x_first/blue_star_00/bottom_right/instructions/Slide9.png,conditions/schedules/train_x_first/blue_star_00/bottom_right/instructions/Audio9.wav,315.5239154000001,315.5112527000001,9,"[6.292467999999644, 18.514674500000183, 16.742624599999544, 19.77430639999966, 4.790178600000218, 4.803746800000226, 6.186261900000318, 11.690392200000133, 6.324405900000784]","[0.00021319999996194383, 0.017189799999869138, 0.00021269999979267595, 0.013940400000137743, 0.03274139999939507, 0.06443880000006175, 0.04751880000003439, 0.05220090000057098, 6.3244139000007635]",0,,,,,,,,,,,,,,,,,,,,,,,,,,,,,,,,,,,,,,,,,,,,,,,,,,,,,,,,,,,,,,,,,,,,,,,,,,,,,,,,,,,,,,,,,,,,,,,,,,,,,,,,,,,,,,,,,,,,,,,,,,,,VGCZM2,train_x,blue_star,bottom_right,2025-05-07_16h40.56.323,HideSeek_v1,2022.2.5,59.953871491188025,
,,,,,,,,,,,,,,,0,0,0,0,9,0,9,0,,,,,,,,,,,,,,,,,,,,,,,,,,,,,,,conditions/schedules/train_x_first/blue_star_00/bottom_right/instructions/Slide10.png,conditions/schedules/train_x_first/blue_star_00/bottom_right/instructions/Audio10.wav,321.88550549999945,321.8830906999997,10,"[6.292467999999644, 18.514674500000183, 16.742624599999544, 19.77430639999966, 4.790178600000218, 4.803746800000226, 6.186261900000318, 11.690392200000133, 6.324405900000784, 7.31750379999994]","[0.00021319999996194383, 0.017189799999869138, 0.00021269999979267595, 0.013940400000137743, 0.03274139999939507, 0.06443880000006175, 0.04751880000003439, 0.05220090000057098, 0.11144870000043738, 7.317511199999899]",0,,,,,,,,,,,,,,,,,,,,,,,,,,,,,,,,,,,,,,,,,,,,,,,,,,,,,,,,,,,,,,,,,,,,,,,,,,,,,,,,,,,,,,,,,,,,,,,,,,,,,,,,,,,,,,,,,,,,,,,,,,,,VGCZM2,train_x,blue_star,bottom_right,2025-05-07_16h40.56.323,HideSeek_v1,2022.2.5,59.953871491188025,
,,,,,,,,,,,,,,,0,0,0,0,10,0,10,0,,,,,,,,,,,,,,,,,,,,,,,,,,,,,,,conditions/schedules/train_x_first/blue_star_00/bottom_right/instructions/Slide11.png,conditions/schedules/train_x_first/blue_star_00/bottom_right/instructions/Audio11.wav,329.2571802000002,329.2559680000004,11,"[6.292467999999644, 18.514674500000183, 16.742624599999544, 19.77430639999966, 4.790178600000218, 4.803746800000226, 6.186261900000318, 11.690392200000133, 6.324405900000784, 7.31750379999994, 10.038065800000368]","[0.00021319999996194383, 0.017189799999869138, 0.00021269999979267595, 0.013940400000137743, 0.03274139999939507, 0.06443880000006175, 0.04751880000003439, 0.05220090000057098, 0.11144870000043738, 0.06297489999997197, 10.038073800000348]",0,,,,,,,,,,,,,,,,,,,,,,,,,,,,,,,,,,,,,,,,,,,,,,,,,,,,,,,,,,,,,,,,,,,,,,,,,,,,,,,,,,,,,,,,,,,,,,,,,,,,,,,,,,,,,,,,,,,,,,,,,,,,VGCZM2,train_x,blue_star,bottom_right,2025-05-07_16h40.56.323,HideSeek_v1,2022.2.5,59.953871491188025,
,,,,,,,,,,,,,,,0,0,0,0,11,0,11,0,,,,,,,,,,,,,,,,,,,,,,,,,,,,,,,conditions/schedules/train_x_first/blue_star_00/bottom_right/instructions/Slide12.png,conditions/schedules/train_x_first/blue_star_00/bottom_right/instructions/Audio12.wav,339.3698463999999,339.36433890000035,12,"[6.292467999999644, 18.514674500000183, 16.742624599999544, 19.77430639999966, 4.790178600000218, 4.803746800000226, 6.186261900000318, 11.690392200000133, 6.324405900000784, 7.31750379999994, 10.038065800000368, 13.002613700000438]","[0.00021319999996194383, 0.017189799999869138, 0.00021269999979267595, 0.013940400000137743, 0.03274139999939507, 0.06443880000006175, 0.04751880000003439, 0.05220090000057098, 0.11144870000043738, 0.06297489999997197, 0.04788619999999355, 13.00262070000008]",0,,,,,,,,,,,,,,,,,,,,,,,,,,,,,,,,,,,,,,,,,,,,,,,,,,,,,,,,,,,,,,,,,,,,,,,,,,,,,,,,,,,,,,,,,,,,,,,,,,,,,,,,,,,,,,,,,,,,,,,,,,,,VGCZM2,train_x,blue_star,bottom_right,2025-05-07_16h40.56.323,HideSeek_v1,2022.2.5,59.953871491188025,
1,9,0,4,0,-5,0,11,2,instr_dim1_1,,,,,,0,0,0,0,,,,,0,0,0,0,,,,,,,,,,,,,,,,,,,,,,,,,,,,,,,,,,,,,stimuli/alien_stimuli/11.png,conditions/schedules/train_x_first/blue_star_00/bottom_right/inputInstr_1.xlsx,stimuli/alien_stimuli/11.png,352.4777782000001,352.4777782000001,352.4777782000001,352.4777782000001,352.4751398000003,return,24.085542600000736,"[-0.16, -0.08, 0, 0.08, 0.16, 0.24, 0.32, 0.4, 0.48, 0.56]","[-0.4, -0.32, -0.24, -0.16, -0.08, 0, 0.08, 0.16, 0.24, 0.32]",0,0,4,9,0.0,0.4,376.7433986999995,376.7433986999995,376.7433986999995,376.7433986999995,376.7433986999995,376.7433986999995,376.7433986999995,376.7284841000005,7.940969700000096,return,7.7632367000005615,stimuli/alien_stimuli/11.png,11,9,1,,,,,,,,,,,,,,,,,,,,,,,,,,,,,,,,,,,,,,,,,,,,,,,,,,,,,,,,,,,,,,,,,,,,,,,,,,,,,,,,,,,,,,,,,VGCZM2,train_x,blue_star,bottom_right,2025-05-07_16h40.56.323,HideSeek_v1,2022.2.5,59.953871491188025,
,,,,,,,,,,,30,,,,0,0,0,0,,,,,,,,,,,,,,,,,,,,,,,,,,,,,,,,,,,,,,,,,,,,,,,,,,,,,,,,,,,,,,,,,,,,,,,,,,,,,,21,0.7,0,0,99,1,30,0,conditions/schedules/train_x_first/blue_star_00/bottom_right/inputTrain_1.1.xlsx,99,1,1,1,0,,,,,,,,,,,,,,,,,,,,,,,,,,,,,,,,,,,,,,,,,,,,,,,,,,,,,,,,,,,,,,,,,,,,,,,,,,,VGCZM2,train_x,blue_star,bottom_right,2025-05-07_16h40.56.323,HideSeek_v1,2022.2.5,59.953871491188025,
,,,,,,,,,,,,,,,1,0,1,0,0,0,0,0,,,,,,,,,,,,,,,,,,,,,,,,,,,,,,,conditions/schedules/train_x_first/blue_star_00/bottom_right/instructions/Slide13.png,conditions/schedules/train_x_first/blue_star_00/bottom_right/instructions/Audio13.wav,384.6662566999994,384.66849409999986,13,"[6.292467999999644, 18.514674500000183, 16.742624599999544, 19.77430639999966, 4.790178600000218, 4.803746800000226, 6.186261900000318, 11.690392200000133, 6.324405900000784, 7.31750379999994, 10.038065800000368, 13.002613700000438, 17.78061660000003]","[0.00021319999996194383, 0.017189799999869138, 0.00021269999979267595, 0.013940400000137743, 0.03274139999939507, 0.06443880000006175, 0.04751880000003439, 0.05220090000057098, 0.11144870000043738, 0.06297489999997197, 0.04788619999999355, 13.00262070000008, 17.780623899999227]",0,,,,,,,,,,,,,,,,,,,,,,,,,,,,,,,,,,,,,,,,,,,,,,,,,,,,,,,,,,,,,,,,,,,,,,,,,,,,,,,,,,,,,,,,,,,,,,,,,,,,,,,,,,,,,,,,,,,,,,,,,,,,VGCZM2,train_x,blue_star,bottom_right,2025-05-07_16h40.56.323,HideSeek_v1,2022.2.5,59.953871491188025,
,,,,,,,,,,,,,,,1,0,1,0,1,0,1,0,,,,,,,,,,,,,,,,,,,,,,,,,,,,,,,conditions/schedules/train_x_first/blue_star_00/bottom_right/instructions/Slide14.png,conditions/schedules/train_x_first/blue_star_00/bottom_right/instructions/Audio14.wav,402.5145339999999,402.51672800000006,14,"[6.292467999999644, 18.514674500000183, 16.742624599999544, 19.77430639999966, 4.790178600000218, 4.803746800000226, 6.186261900000318, 11.690392200000133, 6.324405900000784, 7.31750379999994, 10.038065800000368, 13.002613700000438, 17.78061660000003, 14.044855300000563]","[0.00021319999996194383, 0.017189799999869138, 0.00021269999979267595, 0.013940400000137743, 0.03274139999939507, 0.06443880000006175, 0.04751880000003439, 0.05220090000057098, 0.11144870000043738, 0.06297489999997197, 0.04788619999999355, 13.00262070000008, 17.780623899999227, 14.044861899999887]",0,,,,,,,,,,,,,,,,,,,,,,,,,,,,,,,,,,,,,,,,,,,,,,,,,,,,,,,,,,,,,,,,,,,,,,,,,,,,,,,,,,,,,,,,,,,,,,,,,,,,,,,,,,,,,,,,,,,,,,,,,,,,VGCZM2,train_x,blue_star,bottom_right,2025-05-07_16h40.56.323,HideSeek_v1,2022.2.5,59.953871491188025,
2,8,2,8,2,0,0,61,2,instr_dim1_1,,,,,,1,0,1,0,,,,,0,0,0,0,,,,,,,,,,,,,,,,,,,,,,,,,,,,,,,,,,,,,stimuli/alien_stimuli/61.png,conditions/schedules/train_x_first/blue_star_00/bottom_right/inputInstr_1.xlsx,stimuli/alien_stimuli/61.png,416.6573072000001,416.6573072000001,416.6573072000001,416.6573072000001,416.6456143000005,return,8.155996200001027,"[-0.16, -0.08, 0, 0.08, 0.16, 0.24, 0.32, 0.4, 0.48, 0.56]","[-0.4, -0.32, -0.24, -0.16, -0.08, 0, 0.08, 0.16, 0.24, 0.32]",2,2,8,8,0.0,0.0,424.96980389999953,424.96980389999953,424.96980389999953,424.96980389999953,424.96980389999953,424.96980389999953,424.96980389999953,424.95176170000013,5.889160800000354,return,5.731857800001308,stimuli/alien_stimuli/61.png,61,8,2,,,,,,,,,,,,,,,,,,,,,,,,,,,,,,,,,,,,,,,,,,,,,,,,,,,,,,,,,,,,,,,,,,,,,,,,,,,,,,,,,,,,,,,,,VGCZM2,train_x,blue_star,bottom_right,2025-05-07_16h40.56.323,HideSeek_v1,2022.2.5,59.953871491188025,
,,,,,,,,,,,30,,,,1,0,1,0,,,,,,,,,,,,,,,,,,,,,,,,,,,,,,,,,,,,,,,,,,,,,,,,,,,,,,,,,,,,,,,,,,,,,,,,,,,,,,21,0.7,0,0,99,1,30,0,conditions/schedules/train_x_first/blue_star_00/bottom_right/inputTrain_1.1.xlsx,99,1,1,1,0,,,,,,,,,,,,,,,,,,,,,,,,,,,,,,,,,,,,,,,,,,,,,,,,,,,,,,,,,,,,,,,,,,,,,,,,,,,VGCZM2,train_x,blue_star,bottom_right,2025-05-07_16h40.56.323,HideSeek_v1,2022.2.5,59.953871491188025,
,,,,,,,,,,,,,,,2,0,2,0,0,0,0,0,,,,,,,,,,,,,,,,,,,,,,,,,,,,,,,conditions/schedules/train_x_first/blue_star_00/bottom_right/instructions/Slide15.png,conditions/schedules/train_x_first/blue_star_00/bottom_right/instructions/Audio15.wav,430.85915550000027,430.8568070000006,15,"[6.292467999999644, 18.514674500000183, 16.742624599999544, 19.77430639999966, 4.790178600000218, 4.803746800000226, 6.186261900000318, 11.690392200000133, 6.324405900000784, 7.31750379999994, 10.038065800000368, 13.002613700000438, 17.78061660000003, 14.044855300000563, 30.78722430000016]","[0.00021319999996194383, 0.017189799999869138, 0.00021269999979267595, 0.013940400000137743, 0.03274139999939507, 0.06443880000006175, 0.04751880000003439, 0.05220090000057098, 0.11144870000043738, 0.06297489999997197, 0.04788619999999355, 13.00262070000008, 17.780623899999227, 14.044861899999887, 30.78723269999955]",0,,,,,,,,,,,,,,,,,,,,,,,,,,,,,,,,,,,,,,,,,,,,,,,,,,,,,,,,,,,,,,,,,,,,,,,,,,,,,,,,,,,,,,,,,,,,,,,,,,,,,,,,,,,,,,,,,,,,,,,,,,,,VGCZM2,train_x,blue_star,bottom_right,2025-05-07_16h40.56.323,HideSeek_v1,2022.2.5,59.953871491188025,
,,,,,,,,,,,,,,,2,0,2,0,1,0,1,0,,,,,,,,,,,,,,,,,,,,,,,,,,,,,,,conditions/schedules/train_x_first/blue_star_00/bottom_right/instructions/Slide16.png,conditions/schedules/train_x_first/blue_star_00/bottom_right/instructions/Audio16.wav,461.72273159999986,461.7158612999997,16,"[6.292467999999644, 18.514674500000183, 16.742624599999544, 19.77430639999966, 4.790178600000218, 4.803746800000226, 6.186261900000318, 11.690392200000133, 6.324405900000784, 7.31750379999994, 10.038065800000368, 13.002613700000438, 17.78061660000003, 14.044855300000563, 30.78722430000016, 21.425113499999497]","[0.00021319999996194383, 0.017189799999869138, 0.00021269999979267595, 0.013940400000137743, 0.03274139999939507, 0.06443880000006175, 0.04751880000003439, 0.05220090000057098, 0.11144870000043738, 0.06297489999997197, 0.04788619999999355, 13.00262070000008, 17.780623899999227, 14.044861899999887, 0.03672889999961626, 21.425120299999435]",0,,,,,,,,,,,,,,,,,,,,,,,,,,,,,,,,,,,,,,,,,,,,,,,,,,,,,,,,,,,,,,,,,,,,,,,,,,,,,,,,,,,,,,,,,,,,,,,,,,,,,,,,,,,,,,,,,,,,,,,,,,,,VGCZM2,train_x,blue_star,bottom_right,2025-05-07_16h40.56.323,HideSeek_v1,2022.2.5,59.953871491188025,
,7,1,4,1,-3,0,31,,train_dim1_1,1,30,,,,2,0,2,0,,,,,,,,,0,0,0,0,0,0,0,0,0,0,0,0,,,,,,,,,,,,,,,,,,,,,,,,,stimuli/alien_stimuli/31.png,,,,,,,,,,,,,,,,,,,,,,,,,,,,,,,,,,,,,,,30,,,,,,,,483.24683189999996,483.24683189999996,483.24683189999996,483.24683189999996,483.24683189999996,left,18.360846700000366,0,0,0,99,0.32,-0.32,left,18.263745300000664,,,,,,,,,,,,,,,,,,,,,,,,,,,,,,,,,,,,,,,,,,,,,,,,,,,,,,,,,,,,VGCZM2,train_x,blue_star,bottom_right,2025-05-07_16h40.56.323,HideSeek_v1,2022.2.5,59.953871491188025,
,7,1,4,1,-3,0,31,,train_dim1_1,1,30,,,,2,0,2,0,,,,,,,,,0,0,0,0,0,0,0,0,1,0,1,0,,,,,,,,,,,,,,,,,,,,,,,,,,,,,,,,,,,,,,,,,,,,,,,,,,,,,,,,,,,,,,,,30,,,,,,,,501.61523099999977,501.61523099999977,501.61523099999977,501.61523099999977,501.61523099999977,up,7.6320239999995465,0,0,0,99,0.32,-0.24,up,7.527069900001152,,,,,,,,,,,,,,,,,,,,,,,,,,,,,,,,,,,,,,,,,,,,,,,,,,,,,,,,,,,,VGCZM2,train_x,blue_star,bottom_right,2025-05-07_16h40.56.323,HideSeek_v1,2022.2.5,59.953871491188025,
,7,1,4,1,-3,0,31,,train_dim1_1,1,30,,,,2,0,2,0,,,,,,,,,0,0,0,0,0,0,0,0,2,0,2,0,,,,,,,,,,,,,,,,,,,,,,,,,,,,,,,,,,,,,,,,,,,,,,,,,,,,,,,,,,,,,,,,30,,,,,,,,509.249863,509.249863,509.249863,509.249863,509.249863,up,4.596596200000022,0,0,0,99,0.32,-0.15999999999999998,up,4.506294200000411,,,,,,,,,,,,,,,,,,,,,,,,,,,,,,,,,,,,,,,,,,,,,,,,,,,,,,,,,,,,VGCZM2,train_x,blue_star,bottom_right,2025-05-07_16h40.56.323,HideSeek_v1,2022.2.5,59.953871491188025,
,7,1,4,1,-3,0,31,,train_dim1_1,1,30,,,,2,0,2,0,,,,,,,,,0,0,0,0,0,0,0,0,3,0,3,0,,,,,,,,,,,,,,,,,,,,,,,,,,,,,,,,,,,,,,,,,,,,,,,,,,,,,,,,,,,,,,,,30,,,,,,,,513.8415085999995,513.8415085999995,513.8415085999995,513.8415085999995,513.8415085999995,left,1.7271998999995049,0,0,0,99,0.24,-0.15999999999999998,left,1.644489400000566,,,,,,,,,,,,,,,,,,,,,,,,,,,,,,,,,,,,,,,,,,,,,,,,,,,,,,,,,,,,VGCZM2,train_x,blue_star,bottom_right,2025-05-07_16h40.56.323,HideSeek_v1,2022.2.5,59.953871491188025,
,7,1,4,1,-3,0,31,,train_dim1_1,1,30,,,,2,0,2,0,,,,,,,,,0,0,0,0,0,0,0,0,4,0,4,0,,,,,,,,,,,,,,,,,,,,,,,,,,,,,,,,,,,,,,,,,,,,,,,,,,,,,,,,,,,,,,,,30,,,,,,,,515.5738636999995,515.5738636999995,515.5738636999995,515.5738636999995,515.5738636999995,left,1.0602186999994956,0,0,0,99,0.15999999999999998,-0.15999999999999998,left,0.975502500001312,,,,,,,,,,,,,,,,,,,,,,,,,,,,,,,,,,,,,,,,,,,,,,,,,,,,,,,,,,,,VGCZM2,train_x,blue_star,bottom_right,2025-05-07_16h40.56.323,HideSeek_v1,2022.2.5,59.953871491188025,
,7,1,4,1,-3,0,31,,train_dim1_1,1,30,,,,2,0,2,0,,,,,,,,,0,0,0,0,0,0,0,0,5,0,5,0,,,,,,,,,,,,,,,,,,,,,,,,,,,,,,,,,,,,,,,,,,,,,,,,,,,,,,,,,,,,,,,,30,,,,,,,,516.6412248999995,516.6412248999995,516.6412248999995,516.6412248999995,516.6412248999995,down,5.181042299999717,0,0,0,99,0.15999999999999998,-0.24,down,5.106837300000734,,,,,,,,,,,,,,,,,,,,,,,,,,,,,,,,,,,,,,,,,,,,,,,,,,,,,,,,,,,,VGCZM2,train_x,blue_star,bottom_right,2025-05-07_16h40.56.323,HideSeek_v1,2022.2.5,59.953871491188025,
,7,1,4,1,-3,0,31,,train_dim1_1,1,30,,,,2,0,2,0,,,,,,,,,0,0,0,0,0,0,0,0,6,0,6,0,,,,,,,,,,,,,,,,,,,,,,,,,,,,,,,,,,,,,,,,,,,,,,,,,,,,,,,,,,,,,,,,30,,,,,,,,521.8347004999996,521.8347004999996,521.8347004999996,521.8347004999996,521.8347004999996,left,1.0932333000000654,0,0,0,99,0.07999999999999997,-0.24,left,1.0060612000006586,,,,,,,,,,,,,,,,,,,,,,,,,,,,,,,,,,,,,,,,,,,,,,,,,,,,,,,,,,,,VGCZM2,train_x,blue_star,bottom_right,2025-05-07_16h40.56.323,HideSeek_v1,2022.2.5,59.953871491188025,
,7,1,4,1,-3,0,31,,train_dim1_1,1,30,,,,2,0,2,0,,,,,,,,,0,0,0,0,0,0,0,0,7,0,7,0,,,,,,,,,,,,,,,,,,,,,,,,,,,,,,,,,,,,,,,,,,,,,,,,,,,,,,,,,,,,,,,,30,,,,,,,,522.9316401999995,522.9316401999995,522.9316401999995,522.9316401999995,522.9316401999995,return,1.0267375000003085,0,0,0,0,0.07999999999999997,-0.24,return,0.949114300000474,1,-4,0.07999999999999997,-0.24,,,,,,,,,,,,,,,,,,,,,,,,,,,,,,,,,,,,,,,,,,,,,,,,,,,,,,,,VGCZM2,train_x,blue_star,bottom_right,2025-05-07_16h40.56.323,HideSeek_v1,2022.2.5,59.953871491188025,
,7,4,2,4,-5,0,11,,train_dim1_1,2,30,,,,2,0,2,0,,,,,,,,,0,0,0,0,0,1,1,1,0,0,0,0,,,,,,,,,,,,,,,,,,,,,,,,,stimuli/alien_stimuli/11.png,,,,,,,,,,,,,,,,,,,,,,,,,,,,,stimuli/alien_stimuli/31.png,31,7,3,,,,,,,30,,,,,,,,548.4800679,548.4800679,548.4800679,548.4800679,548.4800679,left,4.491227800000161,0,0,0,99,0.32,-0.08,left,4.380360199999814,,,,,546.9029681000002,548.4800679,0.16,-0.32,0.0,0.24,-0.32,0.16,0.28,0.16,-0.32,525.5302046999996,525.5302046999996,525.5302046999996,525.5302046999996,525.5302046999996,525.5302046999996,525.5302046999996,525.5302046999996,525.5188614000003,21.48667149999983,return,21.354454400000577,,,,,,,,,,,,,,,,,,,,,,,,,,,,,,,,,VGCZM2,train_x,blue_star,bottom_right,2025-05-07_16h40.56.323,HideSeek_v1,2022.2.5,59.953871491188025,
,7,4,2,4,-5,0,11,,train_dim1_1,2,30,,,,2,0,2,0,,,,,,,,,0,0,0,0,0,1,1,1,1,0,1,0,,,,,,,,,,,,,,,,,,,,,,,,,,,,,,,,,,,,,,,,,,,,,,,,,,,,,,,,,,,,,,,,30,,,,,,,,552.9633013000002,552.9633013000002,552.9633013000002,552.9633013000002,552.9633013000002,down,1.7755600999998933,0,0,0,99,0.32,-0.16,down,1.6905839000000924,,,,,,,,,,,,,,,,,,,,,,,,,,,,,,,,,,,,,,,,,,,,,,,,,,,,,,,,,,,,VGCZM2,train_x,blue_star,bottom_right,2025-05-07_16h40.56.323,HideSeek_v1,2022.2.5,59.953871491188025,
,7,4,2,4,-5,0,11,,train_dim1_1,2,30,,,,2,0,2,0,,,,,,,,,0,0,0,0,0,1,1,1,2,0,2,0,,,,,,,,,,,,,,,,,,,,,,,,,,,,,,,,,,,,,,,,,,,,,,,,,,,,,,,,,,,,,,,,30,,,,,,,,554.7427662999999,554.7427662999999,554.7427662999999,554.7427662999999,554.7427662999999,left,1.1107133000004978,0,0,0,99,0.24,-0.16,left,1.0188835000008112,,,,,,,,,,,,,,,,,,,,,,,,,,,,,,,,,,,,,,,,,,,,,,,,,,,,,,,,,,,,VGCZM2,train_x,blue_star,bottom_right,2025-05-07_16h40.56.323,HideSeek_v1,2022.2.5,59.953871491188025,
,7,4,2,4,-5,0,11,,train_dim1_1,2,30,,,,2,0,2,0,,,,,,,,,0,0,0,0,0,1,1,1,3,0,3,0,,,,,,,,,,,,,,,,,,,,,,,,,,,,,,,,,,,,,,,,,,,,,,,,,,,,,,,,,,,,,,,,30,,,,,,,,555.8606319,555.8606319,555.8606319,555.8606319,555.8606319,left,1.1773324000005232,0,0,0,99,0.15999999999999998,-0.16,left,1.0939420000004247,,,,,,,,,,,,,,,,,,,,,,,,,,,,,,,,,,,,,,,,,,,,,,,,,,,,,,,,,,,,VGCZM2,train_x,blue_star,bottom_right,2025-05-07_16h40.56.323,HideSeek_v1,2022.2.5,59.953871491188025,
,7,4,2,4,-5,0,11,,train_dim1_1,2,30,,,,2,0,2,0,,,,,,,,,0,0,0,0,0,1,1,1,4,0,4,0,,,,,,,,,,,,,,,,,,,,,,,,,,,,,,,,,,,,,,,,,,,,,,,,,,,,,,,,,,,,,,,,30,,,,,,,,557.0451619999994,557.0451619999994,557.0451619999994,557.0451619999994,557.0451619999994,left,1.2274398999998084,0,0,0,99,0.07999999999999997,-0.16,left,1.146278600000187,,,,,,,,,,,,,,,,,,,,,,,,,,,,,,,,,,,,,,,,,,,,,,,,,,,,,,,,,,,,VGCZM2,train_x,blue_star,bottom_right,2025-05-07_16h40.56.323,HideSeek_v1,2022.2.5,59.953871491188025,
,7,4,2,4,-5,0,11,,train_dim1_1,2,30,,,,2,0,2,0,,,,,,,,,0,0,0,0,0,1,1,1,5,0,5,0,,,,,,,,,,,,,,,,,,,,,,,,,,,,,,,,,,,,,,,,,,,,,,,,,,,,,,,,,,,,,,,,30,,,,,,,,558.2791894000002,558.2791894000002,558.2791894000002,558.2791894000002,558.2791894000002,left,9.684448900000461,0,0,0,99,-2.7755575615628914e-17,-0.16,left,9.595699700000296,,,,,,,,,,,,,,,,,,,,,,,,,,,,,,,,,,,,,,,,,,,,,,,,,,,,,,,,,,,,VGCZM2,train_x,blue_star,bottom_right,2025-05-07_16h40.56.323,HideSeek_v1,2022.2.5,59.953871491188025,
,7,4,2,4,-5,0,11,,train_dim1_1,2,30,,,,2,0,2,0,,,,,,,,,0,0,0,0,0,1,1,1,6,0,6,0,,,,,,,,,,,,,,,,,,,,,,,,,,,,,,,,,,,,,,,,,,,,,,,,,,,,,,,,,,,,,,,,30,,,,,,,,567.9711004999999,567.9711004999999,567.9711004999999,567.9711004999999,567.9711004999999,down,2.4615677000001597,0,0,0,99,-2.7755575615628914e-17,-0.24,down,2.3845339000008607,,,,,,,,,,,,,,,,,,,,,,,,,,,,,,,,,,,,,,,,,,,,,,,,,,,,,,,,,,,,VGCZM2,train_x,blue_star,bottom_right,2025-05-07_16h40.56.323,HideSeek_v1,2022.2.5,59.953871491188025,
,7,4,2,4,-5,0,11,,train_dim1_1,2,30,,,,2,0,2,0,,,,,,,,,0,0,0,0,0,1,1,1,7,0,7,0,,,,,,,,,,,,,,,,,,,,,,,,,,,,,,,,,,,,,,,,,,,,,,,,,,,,,,,,,,,,,,,,30,,,,,,,,570.4393977,570.4393977,570.4393977,570.4393977,570.4393977,return,1.4610097000004316,0,0,0,0,-2.7755575615628914e-17,-0.24,return,1.3830118000005314,-1,-9,-2.7755575615628914e-17,-0.24,,,,,,,,,,,,,,,,,,,,,,,,,,,,,,,,,,,,,,,,,,,,,,,,,,,,,,,,VGCZM2,train_x,blue_star,bottom_right,2025-05-07_16h40.56.323,HideSeek_v1,2022.2.5,59.953871491188025,
,9,4,5,4,-4,0,21,,train_dim1_1,3,30,,,,2,0,2,0,,,,,,,,,0,0,0,0,0,2,2,2,0,0,0,0,,,,,,,,,,,,,,,,,,,,,,,,,stimuli/alien_stimuli/21.png,,,,,,,,,,,,,,,,,,,,,,,,,,,,,stimuli/alien_stimuli/11.png,11,7,4,,,,,,,30,,,,,,,,584.3768443999998,584.3768443999998,584.3768443999998,584.3768443999998,584.3768443999998,left,5.025123299999905,0,0,0,99,0.48000000000000004,-0.08,left,4.927625400000579,,,,,582.7992364000002,584.3768443999998,0,-0.08,0.0,0.4,-0.08,0,0.2,0,-0.08,573.4817800999999,573.4817800999999,573.4817800999999,573.4817800999999,573.4817800999999,573.4817800999999,573.4817800999999,573.4817800999999,573.4750555999999,9.443093200000476,return,9.290514400000575,,,,,,,,,,,,,,,,,,,,,,,,,,,,,,,,,VGCZM2,train_x,blue_star,bottom_right,2025-05-07_16h40.56.323,HideSeek_v1,2022.2.5,59.953871491188025,
,9,4,5,4,-4,0,21,,train_dim1_1,3,30,,,,2,0,2,0,,,,,,,,,0,0,0,0,0,2,2,2,1,0,1,0,,,,,,,,,,,,,,,,,,,,,,,,,,,,,,,,,,,,,,,,,,,,,,,,,,,,,,,,,,,,,,,,30,,,,,,,,589.3901255999999,589.3901255999999,589.3901255999999,589.3901255999999,589.3901255999999,left,4.195445000000291,0,0,0,99,0.4,-0.08,left,4.103846200000589,,,,,,,,,,,,,,,,,,,,,,,,,,,,,,,,,,,,,,,,,,,,,,,,,,,,,,,,,,,,VGCZM2,train_x,blue_star,bottom_right,2025-05-07_16h40.56.323,HideSeek_v1,2022.2.5,59.953871491188025,
,9,4,5,4,-4,0,21,,train_dim1_1,3,30,,,,2,0,2,0,,,,,,,,,0,0,0,0,0,2,2,2,2,0,2,0,,,,,,,,,,,,,,,,,,,,,,,,,,,,,,,,,,,,,,,,,,,,,,,,,,,,,,,,,,,,,,,,30,,,,,,,,593.5917989999998,593.5917989999998,593.5917989999998,593.5917989999998,593.5917989999998,down,3.2291634000002887,0,0,0,99,0.4,-0.16,down,3.15006380000068,,,,,,,,,,,,,,,,,,,,,,,,,,,,,,,,,,,,,,,,,,,,,,,,,,,,,,,,,,,,VGCZM2,train_x,blue_star,bottom_right,2025-05-07_16h40.56.323,HideSeek_v1,2022.2.5,59.953871491188025,
,9,4,5,4,-4,0,21,,train_dim1_1,3,30,,,,2,0,2,0,,,,,,,,,0,0,0,0,0,2,2,2,3,0,3,0,,,,,,,,,,,,,,,,,,,,,,,,,,,,,,,,,,,,,,,,,,,,,,,,,,,,,,,,,,,,,,,,30,,,,,,,,596.8278805999998,596.8278805999998,596.8278805999998,596.8278805999998,596.8278805999998,left,5.930755600000339,0,0,0,99,0.32,-0.16,left,5.839673600000424,,,,,,,,,,,,,,,,,,,,,,,,,,,,,,,,,,,,,,,,,,,,,,,,,,,,,,,,,,,,VGCZM2,train_x,blue_star,bottom_right,2025-05-07_16h40.56.323,HideSeek_v1,2022.2.5,59.953871491188025,
,9,4,5,4,-4,0,21,,train_dim1_1,3,30,,,,2,0,2,0,,,,,,,,,0,0,0,0,0,2,2,2,4,0,4,0,,,,,,,,,,,,,,,,,,,,,,,,,,,,,,,,,,,,,,,,,,,,,,,,,,,,,,,,,,,,,,,,30,,,,,,,,602.7668778999996,602.7668778999996,602.7668778999996,602.7668778999996,602.7668778999996,return,1.2105075999998007,0,0,0,0,0.32,-0.16,return,1.1186653000004299,-2,-12,0.32,-0.16,,,,,,,,,,,,,,,,,,,,,,,,,,,,,,,,,,,,,,,,,,,,,,,,,,,,,,,,VGCZM2,train_x,blue_star,bottom_right,2025-05-07_16h40.56.323,HideSeek_v1,2022.2.5,59.953871491188025,
,7,3,6,3,-1,0,51,,train_dim1_1,4,30,,,,2,0,2,0,,,,,,,,,0,0,0,0,0,3,3,3,0,0,0,0,,,,,,,,,,,,,,,,,,,,,,,,,stimuli/alien_stimuli/51.png,,,,,,,,,,,,,,,,,,,,,,,,,,,,,stimuli/alien_stimuli/21.png,21,9,5,,,,,,,30,,,,,,,,623.6246087999998,623.6246087999998,623.6246087999998,623.6246087999998,623.6246087999998,left,4.1253817000006165,0,0,0,99,0.32,-0.16,left,4.01633000000129,,,,,622.0484128999997,623.6246087999998,0.24,-0.08,0.0,0.32,-0.08,0.24,0.4,0.24,-0.08,605.5567799999999,605.5567799999999,605.5567799999999,605.5567799999999,605.5567799999999,605.5567799999999,605.5567799999999,605.5567799999999,605.5347930000003,16.61632610000015,return,16.471037299999807,,,,,,,,,,,,,,,,,,,,,,,,,,,,,,,,,VGCZM2,train_x,blue_star,bottom_right,2025-05-07_16h40.56.323,HideSeek_v1,2022.2.5,59.953871491188025,
,7,3,6,3,-1,0,51,,train_dim1_1,4,30,,,,2,0,2,0,,,,,,,,,0,0,0,0,0,3,3,3,1,0,1,0,,,,,,,,,,,,,,,,,,,,,,,,,,,,,,,,,,,,,,,,,,,,,,,,,,,,,,,,,,,,,,,,30,,,,,,,,627.7364102000001,627.7364102000001,627.7364102000001,627.7364102000001,627.7364102000001,left,0.943289800000457,0,0,0,99,0.24,-0.16,left,0.8682778000002145,,,,,,,,,,,,,,,,,,,,,,,,,,,,,,,,,,,,,,,,,,,,,,,,,,,,,,,,,,,,VGCZM2,train_x,blue_star,bottom_right,2025-05-07_16h40.56.323,HideSeek_v1,2022.2.5,59.953871491188025,
,7,3,6,3,-1,0,51,,train_dim1_1,4,30,,,,2,0,2,0,,,,,,,,,0,0,0,0,0,3,3,3,2,0,2,0,,,,,,,,,,,,,,,,,,,,,,,,,,,,,,,,,,,,,,,,,,,,,,,,,,,,,,,,,,,,,,,,30,,,,,,,,628.6860982999997,628.6860982999997,628.6860982999997,628.6860982999997,628.6860982999997,return,0.8270817000002353,0,1,0,0,0.24,-0.16,return,0.7425254000008863,-2,-14,0.24,-0.16,,,,,,,,,,,,,,,,,,,,,,,,,,,,,,,,,,,,,,,,,,,,,,,,,,,,,,,,VGCZM2,train_x,blue_star,bottom_right,2025-05-07_16h40.56.323,HideSeek_v1,2022.2.5,59.953871491188025,
,5,2,5,2,0,0,61,,train_dim1_1,5,30,,,,2,0,2,0,,,,,,,,,0,0,0,0,0,4,4,4,0,0,0,0,,,,,,,,,,,,,,,,,,,,,,,,,stimuli/alien_stimuli/61.png,,,,,,,,,,,,,,,,,,,,,,,,,,,,,stimuli/alien_stimuli/51.png,51,7,6,,,,,,,30,,,,,,,,644.1389465000002,644.1389465000002,644.1389465000002,644.1389465000002,644.1389465000002,return,3.6549453000006906,1,0,0,1,0.24,-0.24,return,3.559846600000128,-2,-14,0.24,-0.24,642.5654218,644.1389465000002,0.32,-0.16,0.0,0.08,-0.16,0.32,0.36,0.32,-0.16,631.0919954999999,631.0919954999999,631.0919954999999,631.0919954999999,631.0919954999999,631.0919954999999,631.0919954999999,631.0919954999999,631.0725539999999,11.595039200000429,return,11.441494200001216,,,,,,,,,,,,,,,,,,,,,,,,,,,,,,,,,VGCZM2,train_x,blue_star,bottom_right,2025-05-07_16h40.56.323,HideSeek_v1,2022.2.5,59.953871491188025,
,5,0,1,0,-4,0,21,,train_dim1_1,6,30,,,,2,0,2,0,,,,,,,,,0,0,0,0,0,5,5,5,0,0,0,0,,,,,,,,,,,,,,,,,,,,,,,,,stimuli/alien_stimuli/21.png,,,,,,,,,,,,,,,,,,,,,,,,,,,,,stimuli/alien_stimuli/61.png,61,5,7,,,,,,,30,,,,,,,,655.4224804999994,655.4224804999994,655.4224804999994,655.4224804999994,655.4224804999994,right,8.127621500000714,1,0,0,99,0.32,-0.4,right,8.035831200000757,,,,,653.8582018999996,655.4224804999994,0.24,-0.24,0.0,0.0,-0.24,0.24,0.24,0.24,-0.24,649.3607482999996,649.3607482999996,649.3607482999996,649.3607482999996,649.3607482999996,649.3607482999996,649.3607482999996,649.3607482999996,649.3547324000001,4.622557000000597,return,4.481506800000716,,,,,,,,,,,,,,,,,,,,,,,,,,,,,,,,,VGCZM2,train_x,blue_star,bottom_right,2025-05-07_16h40.56.323,HideSeek_v1,2022.2.5,59.953871491188025,
,5,0,1,0,-4,0,21,,train_dim1_1,6,30,,,,2,0,2,0,,,,,,,,,0,0,0,0,0,5,5,5,1,0,1,0,,,,,,,,,,,,,,,,,,,,,,,,,,,,,,,,,,,,,,,,,,,,,,,,,,,,,,,,,,,,,,,,30,,,,,,,,663.5497718999995,663.5497718999995,663.5497718999995,663.5497718999995,663.5497718999995,right,1.2103584000005867,1,0,0,99,0.4,-0.4,right,1.1335647000014433,,,,,,,,,,,,,,,,,,,,,,,,,,,,,,,,,,,,,,,,,,,,,,,,,,,,,,,,,,,,VGCZM2,train_x,blue_star,bottom_right,2025-05-07_16h40.56.323,HideSeek_v1,2022.2.5,59.953871491188025,
,5,0,1,0,-4,0,21,,train_dim1_1,6,30,,,,2,0,2,0,,,,,,,,,0,0,0,0,0,5,5,5,2,0,2,0,,,,,,,,,,,,,,,,,,,,,,,,,,,,,,,,,,,,,,,,,,,,,,,,,,,,,,,,,,,,,,,,30,,,,,,,,664.7691002000001,664.7691002000001,664.7691002000001,664.7691002000001,664.7691002000001,right,0.6587307999998302,1,0,0,99,0.48000000000000004,-0.4,right,0.5768667000002097,,,,,,,,,,,,,,,,,,,,,,,,,,,,,,,,,,,,,,,,,,,,,,,,,,,,,,,,,,,,VGCZM2,train_x,blue_star,bottom_right,2025-05-07_16h40.56.323,HideSeek_v1,2022.2.5,59.953871491188025,
,5,0,1,0,-4,0,21,,train_dim1_1,6,30,,,,2,0,2,0,,,,,,,,,0,0,0,0,0,5,5,5,3,0,3,0,,,,,,,,,,,,,,,,,,,,,,,,,,,,,,,,,,,,,,,,,,,,,,,,,,,,,,,,,,,,,,,,30,,,,,,,,665.4345198999999,665.4345198999999,665.4345198999999,665.4345198999999,665.4345198999999,right,0.9439925999995467,1,0,0,99,0.56,-0.4,right,0.8602250000003551,,,,,,,,,,,,,,,,,,,,,,,,,,,,,,,,,,,,,,,,,,,,,,,,,,,,,,,,,,,,VGCZM2,train_x,blue_star,bottom_right,2025-05-07_16h40.56.323,HideSeek_v1,2022.2.5,59.953871491188025,
,5,0,1,0,-4,0,21,,train_dim1_1,6,30,,,,2,0,2,0,,,,,,,,,0,0,0,0,0,5,5,5,4,0,4,0,,,,,,,,,,,,,,,,,,,,,,,,,,,,,,,,,,,,,,,,,,,,,,,,,,,,,,,,,,,,,,,,30,,,,,,,,666.3859894999996,666.3859894999996,666.3859894999996,666.3859894999996,666.3859894999996,left,2.6784005999998044,1,0,0,99,0.48000000000000004,-0.4,left,2.596659300000283,,,,,,,,,,,,,,,,,,,,,,,,,,,,,,,,,,,,,,,,,,,,,,,,,,,,,,,,,,,,VGCZM2,train_x,blue_star,bottom_right,2025-05-07_16h40.56.323,HideSeek_v1,2022.2.5,59.953871491188025,
,5,0,1,0,-4,0,21,,train_dim1_1,6,30,,,,2,0,2,0,,,,,,,,,0,0,0,0,0,5,5,5,5,0,5,0,,,,,,,,,,,,,,,,,,,,,,,,,,,,,,,,,,,,,,,,,,,,,,,,,,,,,,,,,,,,,,,,30,,,,,,,,669.0715220000002,669.0715220000002,669.0715220000002,669.0715220000002,669.0715220000002,left,0.30990879999990284,1,0,0,99,0.4,-0.4,left,0.232005200000458,,,,,,,,,,,,,,,,,,,,,,,,,,,,,,,,,,,,,,,,,,,,,,,,,,,,,,,,,,,,VGCZM2,train_x,blue_star,bottom_right,2025-05-07_16h40.56.323,HideSeek_v1,2022.2.5,59.953871491188025,
,5,0,1,0,-4,0,21,,train_dim1_1,6,30,,,,2,0,2,0,,,,,,,,,0,0,0,0,0,5,5,5,6,0,6,0,,,,,,,,,,,,,,,,,,,,,,,,,,,,,,,,,,,,,,,,,,,,,,,,,,,,,,,,,,,,,,,,30,,,,,,,,669.3874107000001,669.3874107000001,669.3874107000001,669.3874107000001,669.3874107000001,left,0.2264169000000038,1,0,0,99,0.32,-0.4,left,0.1360792000004949,,,,,,,,,,,,,,,,,,,,,,,,,,,,,,,,,,,,,,,,,,,,,,,,,,,,,,,,,,,,VGCZM2,train_x,blue_star,bottom_right,2025-05-07_16h40.56.323,HideSeek_v1,2022.2.5,59.953871491188025,
,5,0,1,0,-4,0,21,,train_dim1_1,6,30,,,,2,0,2,0,,,,,,,,,0,0,0,0,0,5,5,5,7,0,7,0,,,,,,,,,,,,,,,,,,,,,,,,,,,,,,,,,,,,,,,,,,,,,,,,,,,,,,,,,,,,,,,,30,,,,,,,,669.6218113999994,669.6218113999994,669.6218113999994,669.6218113999994,669.6218113999994,left,0.21019599999999627,1,0,0,99,0.24,-0.4,left,0.12269180000021151,,,,,,,,,,,,,,,,,,,,,,,,,,,,,,,,,,,,,,,,,,,,,,,,,,,,,,,,,,,,VGCZM2,train_x,blue_star,bottom_right,2025-05-07_16h40.56.323,HideSeek_v1,2022.2.5,59.953871491188025,
,5,0,1,0,-4,0,21,,train_dim1_1,6,30,,,,2,0,2,0,,,,,,,,,0,0,0,0,0,5,5,5,8,0,8,0,,,,,,,,,,,,,,,,,,,,,,,,,,,,,,,,,,,,,,,,,,,,,,,,,,,,,,,,,,,,,,,,30,,,,,,,,669.8386874999997,669.8386874999997,669.8386874999997,669.8386874999997,669.8386874999997,up,0.7933681999993496,1,0,0,99,0.24,-0.32,up,0.7117684000004374,,,,,,,,,,,,,,,,,,,,,,,,,,,,,,,,,,,,,,,,,,,,,,,,,,,,,,,,,,,,VGCZM2,train_x,blue_star,bottom_right,2025-05-07_16h40.56.323,HideSeek_v1,2022.2.5,59.953871491188025,
,5,0,1,0,-4,0,21,,train_dim1_1,6,30,,,,2,0,2,0,,,,,,,,,0,0,0,0,0,5,5,5,9,0,9,0,,,,,,,,,,,,,,,,,,,,,,,,,,,,,,,,,,,,,,,,,,,,,,,,,,,,,,,,,,,,,,,,30,,,,,,,,670.6391917999999,670.6391917999999,670.6391917999999,670.6391917999999,670.6391917999999,up,2.060991500000455,1,0,0,99,0.24,-0.24,up,1.972297600001184,,,,,,,,,,,,,,,,,,,,,,,,,,,,,,,,,,,,,,,,,,,,,,,,,,,,,,,,,,,,VGCZM2,train_x,blue_star,bottom_right,2025-05-07_16h40.56.323,HideSeek_v1,2022.2.5,59.953871491188025,
,5,0,1,0,-4,0,21,,train_dim1_1,6,30,,,,2,0,2,0,,,,,,,,,0,0,0,0,0,5,5,5,10,0,10,0,,,,,,,,,,,,,,,,,,,,,,,,,,,,,,,,,,,,,,,,,,,,,,,,,,,,,,,,,,,,,,,,30,,,,,,,,672.7079723999996,672.7079723999996,672.7079723999996,672.7079723999996,672.7079723999996,up,4.629452399999536,1,0,0,99,0.24,-0.15999999999999998,up,4.542754500001138,,,,,,,,,,,,,,,,,,,,,,,,,,,,,,,,,,,,,,,,,,,,,,,,,,,,,,,,,,,,VGCZM2,train_x,blue_star,bottom_right,2025-05-07_16h40.56.323,HideSeek_v1,2022.2.5,59.953871491188025,
,5,0,1,0,-4,0,21,,train_dim1_1,6,30,,,,2,0,2,0,,,,,,,,,0,0,0,0,0,5,5,5,11,0,11,0,,,,,,,,,,,,,,,,,,,,,,,,,,,,,,,,,,,,,,,,,,,,,,,,,,,,,,,,,,,,,,,,30,,,,,,,,677.3458629999996,677.3458629999996,677.3458629999996,677.3458629999996,677.3458629999996,up,1.793937200000073,1,0,0,99,0.24,-0.07999999999999997,up,1.7044126000000688,,,,,,,,,,,,,,,,,,,,,,,,,,,,,,,,,,,,,,,,,,,,,,,,,,,,,,,,,,,,VGCZM2,train_x,blue_star,bottom_right,2025-05-07_16h40.56.323,HideSeek_v1,2022.2.5,59.953871491188025,
,5,0,1,0,-4,0,21,,train_dim1_1,6,30,,,,2,0,2,0,,,,,,,,,0,0,0,0,0,5,5,5,12,0,12,0,,,,,,,,,,,,,,,,,,,,,,,,,,,,,,,,,,,,,,,,,,,,,,,,,,,,,,,,,,,,,,,,30,,,,,,,,679.1458955999997,679.1458955999997,679.1458955999997,679.1458955999997,679.1458955999997,up,0.8104002000000037,1,0,0,99,0.24,2.7755575615628914e-17,up,0.7236235000009401,,,,,,,,,,,,,,,,,,,,,,,,,,,,,,,,,,,,,,,,,,,,,,,,,,,,,,,,,,,,VGCZM2,train_x,blue_star,bottom_right,2025-05-07_16h40.56.323,HideSeek_v1,2022.2.5,59.953871491188025,
,5,0,1,0,-4,0,21,,train_dim1_1,6,30,,,,2,0,2,0,,,,,,,,,0,0,0,0,0,5,5,5,13,0,13,0,,,,,,,,,,,,,,,,,,,,,,,,,,,,,,,,,,,,,,,,,,,,,,,,,,,,,,,,,,,,,,,,30,,,,,,,,679.9638580999999,679.9638580999999,679.9638580999999,679.9638580999999,679.9638580999999,up,2.962003999999979,1,0,0,99,0.24,0.08000000000000003,up,2.8845262000013463,,,,,,,,,,,,,,,,,,,,,,,,,,,,,,,,,,,,,,,,,,,,,,,,,,,,,,,,,,,,VGCZM2,train_x,blue_star,bottom_right,2025-05-07_16h40.56.323,HideSeek_v1,2022.2.5,59.953871491188025,
,5,0,1,0,-4,0,21,,train_dim1_1,6,30,,,,2,0,2,0,,,,,,,,,0,0,0,0,0,5,5,5,14,0,14,0,,,,,,,,,,,,,,,,,,,,,,,,,,,,,,,,,,,,,,,,,,,,,,,,,,,,,,,,,,,,,,,,30,,,,,,,,682.9322167999999,682.9322167999999,682.9322167999999,682.9322167999999,682.9322167999999,up,4.2632665000001,1,0,0,99,0.24,0.16000000000000003,up,4.179254300000139,,,,,,,,,,,,,,,,,,,,,,,,,,,,,,,,,,,,,,,,,,,,,,,,,,,,,,,,,,,,VGCZM2,train_x,blue_star,bottom_right,2025-05-07_16h40.56.323,HideSeek_v1,2022.2.5,59.953871491188025,
,5,0,1,0,-4,0,21,,train_dim1_1,6,30,,,,2,0,2,0,,,,,,,,,0,0,0,0,0,5,5,5,15,0,15,0,,,,,,,,,,,,,,,,,,,,,,,,,,,,,,,,,,,,,,,,,,,,,,,,,,,,,,,,,,,,,,,,30,,,,,,,,687.2025709999998,687.2025709999998,687.2025709999998,687.2025709999998,687.2025709999998,return,0.5433736000004501,1,0,0,0,0.24,0.16000000000000003,return,0.46435420000125305,5,-14,0.24,0.16000000000000003,,,,,,,,,,,,,,,,,,,,,,,,,,,,,,,,,,,,,,,,,,,,,,,,,,,,,,,,VGCZM2,train_x,blue_star,bottom_right,2025-05-07_16h40.56.323,HideSeek_v1,2022.2.5,59.953871491188025,
,8,0,8,0,0,0,61,,train_dim1_1,7,30,,,,2,0,2,0,,,,,,,,,0,0,0,0,0,6,6,6,0,0,0,0,,,,,,,,,,,,,,,,,,,,,,,,,stimuli/alien_stimuli/61.png,,,,,,,,,,,,,,,,,,,,,,,,,,,,,stimuli/alien_stimuli/21.png,21,5,8,,,,,,,30,,,,,,,,694.3509156,694.3509156,694.3509156,694.3509156,694.3509156,return,3.256094500000472,2,0,0,1,0.48,-0.4,return,3.1615855000009105,5,-14,0.48,-0.4,692.7904337999998,694.3509156,-0.08,-0.4,0.0,0.32,-0.4,-0.08,0.07999999999999999,-0.08,-0.4,689.3263347000002,689.3263347000002,689.3263347000002,689.3263347000002,689.3263347000002,689.3263347000002,689.3263347000002,689.3263347000002,689.3042426000006,3.5884476999999606,return,3.4468673000001218,,,,,,,,,,,,,,,,,,,,,,,,,,,,,,,,,VGCZM2,train_x,blue_star,bottom_right,2025-05-07_16h40.56.323,HideSeek_v1,2022.2.5,59.953871491188025,
,5,4,2,4,-3,0,31,,train_dim1_1,8,30,,,,2,0,2,0,,,,,,,,,0,0,0,0,0,7,7,7,0,0,0,0,,,,,,,,,,,,,,,,,,,,,,,,,stimuli/alien_stimuli/31.png,,,,,,,,,,,,,,,,,,,,,,,,,,,,,stimuli/alien_stimuli/61.png,61,8,9,,,,,,,30,,,,,,,,702.9756497999997,702.9756497999997,702.9756497999997,702.9756497999997,702.9756497999997,left,5.609136999999464,2,0,0,99,0.15999999999999998,-0.08,left,5.497419100000116,,,,,701.3973178999995,702.9756497999997,0.48,-0.4,0.0,0.0,-0.4,0.48,0.48,0.48,-0.4,699.1849092000002,699.1849092000002,699.1849092000002,699.1849092000002,699.1849092000002,699.1849092000002,699.1849092000002,699.1849092000002,699.1624613999998,2.337402899999688,return,2.1802917000004527,,,,,,,,,,,,,,,,,,,,,,,,,,,,,,,,,VGCZM2,train_x,blue_star,bottom_right,2025-05-07_16h40.56.323,HideSeek_v1,2022.2.5,59.953871491188025,
,5,4,2,4,-3,0,31,,train_dim1_1,8,30,,,,2,0,2,0,,,,,,,,,0,0,0,0,0,7,7,7,1,0,1,0,,,,,,,,,,,,,,,,,,,,,,,,,,,,,,,,,,,,,,,,,,,,,,,,,,,,,,,,,,,,,,,,30,,,,,,,,708.5670399,708.5670399,708.5670399,708.5670399,708.5670399,left,0.32641590000002907,2,0,0,99,0.07999999999999997,-0.08,left,0.2534824000003937,,,,,,,,,,,,,,,,,,,,,,,,,,,,,,,,,,,,,,,,,,,,,,,,,,,,,,,,,,,,VGCZM2,train_x,blue_star,bottom_right,2025-05-07_16h40.56.323,HideSeek_v1,2022.2.5,59.953871491188025,
,5,4,2,4,-3,0,31,,train_dim1_1,8,30,,,,2,0,2,0,,,,,,,,,0,0,0,0,0,7,7,7,2,0,2,0,,,,,,,,,,,,,,,,,,,,,,,,,,,,,,,,,,,,,,,,,,,,,,,,,,,,,,,,,,,,,,,,30,,,,,,,,708.8995493000002,708.8995493000002,708.8995493000002,708.8995493000002,708.8995493000002,left,0.24346809999951802,2,0,0,99,-2.7755575615628914e-17,-0.08,left,0.17062370000076044,,,,,,,,,,,,,,,,,,,,,,,,,,,,,,,,,,,,,,,,,,,,,,,,,,,,,,,,,,,,VGCZM2,train_x,blue_star,bottom_right,2025-05-07_16h40.56.323,HideSeek_v1,2022.2.5,59.953871491188025,
,5,4,2,4,-3,0,31,,train_dim1_1,8,30,,,,2,0,2,0,,,,,,,,,0,0,0,0,0,7,7,7,3,0,3,0,,,,,,,,,,,,,,,,,,,,,,,,,,,,,,,,,,,,,,,,,,,,,,,,,,,,,,,,,,,,,,,,30,,,,,,,,709.1506643000002,709.1506643000002,709.1506643000002,709.1506643000002,709.1506643000002,return,3.2624604000002364,3,0,0,1,-2.7755575615628914e-17,-0.08,return,3.1813923999998224,5,-17,-2.7755575615628914e-17,-0.08,,,,,,,,,,,,,,,,,,,,,,,,,,,,,,,,,,,,,,,,,,,,,,,,,,,,,,,,VGCZM2,train_x,blue_star,bottom_right,2025-05-07_16h40.56.323,HideSeek_v1,2022.2.5,59.953871491188025,
,6,0,5,0,-1,0,51,,train_dim1_1,9,30,,,,2,0,2,0,,,,,,,,,0,0,0,0,0,8,8,8,0,0,0,0,,,,,,,,,,,,,,,,,,,,,,,,,stimuli/alien_stimuli/51.png,,,,,,,,,,,,,,,,,,,,,,,,,,,,,stimuli/alien_stimuli/31.png,31,5,10,,,,,,,30,,,,,,,,718.4890156000001,718.4890156000001,718.4890156000001,718.4890156000001,718.4890156000001,left,8.076919699999962,3,0,0,99,0.24,-0.4,left,7.991043300000456,,,,,716.9270329000001,718.4890156000001,0,-0.08,0.0,0.24,-0.08,0,0.12,0,-0.08,714.0026745999994,714.0026745999994,714.0026745999994,714.0026745999994,714.0026745999994,714.0026745999994,714.0026745999994,714.0026745999994,713.9915338999999,3.0548968000002787,return,2.9086989000006724,,,,,,,,,,,,,,,,,,,,,,,,,,,,,,,,,VGCZM2,train_x,blue_star,bottom_right,2025-05-07_16h40.56.323,HideSeek_v1,2022.2.5,59.953871491188025,
,6,0,5,0,-1,0,51,,train_dim1_1,9,30,,,,2,0,2,0,,,,,,,,,0,0,0,0,0,8,8,8,1,0,1,0,,,,,,,,,,,,,,,,,,,,,,,,,,,,,,,,,,,,,,,,,,,,,,,,,,,,,,,,,,,,,,,,30,,,,,,,,726.5700312999998,726.5700312999998,726.5700312999998,726.5700312999998,726.5700312999998,return,1.2770129999998971,4,0,0,1,0.24,-0.4,return,1.2005654000004142,5,-18,0.24,-0.4,,,,,,,,,,,,,,,,,,,,,,,,,,,,,,,,,,,,,,,,,,,,,,,,,,,,,,,,VGCZM2,train_x,blue_star,bottom_right,2025-05-07_16h40.56.323,HideSeek_v1,2022.2.5,59.953871491188025,
,5,3,0,3,-5,0,11,,train_dim1_1,10,30,,,,2,0,2,0,,,,,,,,,0,0,0,0,0,9,9,9,0,0,0,0,,,,,,,,,,,,,,,,,,,,,,,,,stimuli/alien_stimuli/11.png,,,,,,,,,,,,,,,,,,,,,,,,,,,,,stimuli/alien_stimuli/51.png,51,6,11,,,,,,,30,,,,,,,,732.8776585999994,732.8776585999994,732.8776585999994,732.8776585999994,732.8776585999994,left,5.743438400000741,4,0,0,99,0.15999999999999998,-0.16,left,5.638453500000651,,,,,731.3056396000002,732.8776585999994,0.24,-0.4,0.0,0.08,-0.4,0.24,0.28,0.24,-0.4,729.4241843999998,729.4241843999998,729.4241843999998,729.4241843999998,729.4241843999998,729.4241843999998,729.4241843999998,729.4241843999998,729.4042544999998,2.003844000000754,return,1.8531201000014335,,,,,,,,,,,,,,,,,,,,,,,,,,,,,,,,,VGCZM2,train_x,blue_star,bottom_right,2025-05-07_16h40.56.323,HideSeek_v1,2022.2.5,59.953871491188025,
,5,3,0,3,-5,0,11,,train_dim1_1,10,30,,,,2,0,2,0,,,,,,,,,0,0,0,0,0,9,9,9,1,0,1,0,,,,,,,,,,,,,,,,,,,,,,,,,,,,,,,,,,,,,,,,,,,,,,,,,,,,,,,,,,,,,,,,30,,,,,,,,738.6136385999998,738.6136385999998,738.6136385999998,738.6136385999998,738.6136385999998,left,0.4766785000001619,4,0,0,99,0.07999999999999997,-0.16,left,0.3966146000002482,,,,,,,,,,,,,,,,,,,,,,,,,,,,,,,,,,,,,,,,,,,,,,,,,,,,,,,,,,,,VGCZM2,train_x,blue_star,bottom_right,2025-05-07_16h40.56.323,HideSeek_v1,2022.2.5,59.953871491188025,
,5,3,0,3,-5,0,11,,train_dim1_1,10,30,,,,2,0,2,0,,,,,,,,,0,0,0,0,0,9,9,9,2,0,2,0,,,,,,,,,,,,,,,,,,,,,,,,,,,,,,,,,,,,,,,,,,,,,,,,,,,,,,,,,,,,,,,,30,,,,,,,,739.0973202999994,739.0973202999994,739.0973202999994,739.0973202999994,739.0973202999994,left,0.3764915000001565,4,0,0,99,-2.7755575615628914e-17,-0.16,left,0.2837410000011005,,,,,,,,,,,,,,,,,,,,,,,,,,,,,,,,,,,,,,,,,,,,,,,,,,,,,,,,,,,,VGCZM2,train_x,blue_star,bottom_right,2025-05-07_16h40.56.323,HideSeek_v1,2022.2.5,59.953871491188025,
,5,3,0,3,-5,0,11,,train_dim1_1,10,30,,,,2,0,2,0,,,,,,,,,0,0,0,0,0,9,9,9,3,0,3,0,,,,,,,,,,,,,,,,,,,,,,,,,,,,,,,,,,,,,,,,,,,,,,,,,,,,,,,,,,,,,,,,30,,,,,,,,739.4796096999999,739.4796096999999,739.4796096999999,739.4796096999999,739.4796096999999,left,1.193960500000685,4,0,0,99,-0.08000000000000003,-0.16,left,1.1016636000003928,,,,,,,,,,,,,,,,,,,,,,,,,,,,,,,,,,,,,,,,,,,,,,,,,,,,,,,,,,,,VGCZM2,train_x,blue_star,bottom_right,2025-05-07_16h40.56.323,HideSeek_v1,2022.2.5,59.953871491188025,
,5,3,0,3,-5,0,11,,train_dim1_1,10,30,,,,2,0,2,0,,,,,,,,,0,0,0,0,0,9,9,9,4,0,4,0,,,,,,,,,,,,,,,,,,,,,,,,,,,,,,,,,,,,,,,,,,,,,,,,,,,,,,,,,,,,,,,,30,,,,,,,,740.6807886999995,740.6807886999995,740.6807886999995,740.6807886999995,740.6807886999995,return,3.128747900000235,4,1,0,0,-0.08000000000000003,-0.16,return,3.039576900000611,5,-22,-0.08000000000000003,-0.16,,,,,,,,,,,,,,,,,,,,,,,,,,,,,,,,,,,,,,,,,,,,,,,,,,,,,,,,VGCZM2,train_x,blue_star,bottom_right,2025-05-07_16h40.56.323,HideSeek_v1,2022.2.5,59.953871491188025,
,7,2,4,2,-3,0,31,,train_dim1_1,11,30,,,,2,0,2,0,,,,,,,,,0,0,0,0,0,10,10,10,0,0,0,0,,,,,,,,,,,,,,,,,,,,,,,,,stimuli/alien_stimuli/31.png,,,,,,,,,,,,,,,,,,,,,,,,,,,,,stimuli/alien_stimuli/11.png,11,5,12,,,,,,,30,,,,,,,,749.7120544999998,749.7120544999998,749.7120544999998,749.7120544999998,749.7120544999998,left,3.8757684000001973,4,1,0,99,0.32,-0.24,left,3.7903328000002148,,,,,748.1529191,749.7120544999998,-0.16,-0.16,0.0,0.4,-0.16,-0.16,0.039999999999999994,-0.16,-0.16,745.3902587000002,745.3902587000002,745.3902587000002,745.3902587000002,745.3902587000002,745.3902587000002,745.3902587000002,745.3902587000002,745.3842290000002,2.887940100000378,return,2.7406673000004957,,,,,,,,,,,,,,,,,,,,,,,,,,,,,,,,,VGCZM2,train_x,blue_star,bottom_right,2025-05-07_16h40.56.323,HideSeek_v1,2022.2.5,59.953871491188025,
,7,2,4,2,-3,0,31,,train_dim1_1,11,30,,,,2,0,2,0,,,,,,,,,0,0,0,0,0,10,10,10,1,0,1,0,,,,,,,,,,,,,,,,,,,,,,,,,,,,,,,,,,,,,,,,,,,,,,,,,,,,,,,,,,,,,,,,30,,,,,,,,753.5926941999996,753.5926941999996,753.5926941999996,753.5926941999996,753.5926941999996,left,0.5587655999997878,4,1,0,99,0.24,-0.24,left,0.47710190000088915,,,,,,,,,,,,,,,,,,,,,,,,,,,,,,,,,,,,,,,,,,,,,,,,,,,,,,,,,,,,VGCZM2,train_x,blue_star,bottom_right,2025-05-07_16h40.56.323,HideSeek_v1,2022.2.5,59.953871491188025,
,7,2,4,2,-3,0,31,,train_dim1_1,11,30,,,,2,0,2,0,,,,,,,,,0,0,0,0,0,10,10,10,2,0,2,0,,,,,,,,,,,,,,,,,,,,,,,,,,,,,,,,,,,,,,,,,,,,,,,,,,,,,,,,,,,,,,,,30,,,,,,,,754.1544481999999,754.1544481999999,754.1544481999999,754.1544481999999,754.1544481999999,left,0.560673200000565,4,1,0,99,0.15999999999999998,-0.24,left,0.475674500000423,,,,,,,,,,,,,,,,,,,,,,,,,,,,,,,,,,,,,,,,,,,,,,,,,,,,,,,,,,,,VGCZM2,train_x,blue_star,bottom_right,2025-05-07_16h40.56.323,HideSeek_v1,2022.2.5,59.953871491188025,
,7,2,4,2,-3,0,31,,train_dim1_1,11,30,,,,2,0,2,0,,,,,,,,,0,0,0,0,0,10,10,10,3,0,3,0,,,,,,,,,,,,,,,,,,,,,,,,,,,,,,,,,,,,,,,,,,,,,,,,,,,,,,,,,,,,,,,,30,,,,,,,,754.7225147999998,754.7225147999998,754.7225147999998,754.7225147999998,754.7225147999998,left,1.9110006000000794,4,1,0,99,0.07999999999999997,-0.24,left,1.8384101999999984,,,,,,,,,,,,,,,,,,,,,,,,,,,,,,,,,,,,,,,,,,,,,,,,,,,,,,,,,,,,VGCZM2,train_x,blue_star,bottom_right,2025-05-07_16h40.56.323,HideSeek_v1,2022.2.5,59.953871491188025,
,7,2,4,2,-3,0,31,,train_dim1_1,11,30,,,,2,0,2,0,,,,,,,,,0,0,0,0,0,10,10,10,4,0,4,0,,,,,,,,,,,,,,,,,,,,,,,,,,,,,,,,,,,,,,,,,,,,,,,,,,,,,,,,,,,,,,,,30,,,,,,,,756.6396184999994,756.6396184999994,756.6396184999994,756.6396184999994,756.6396184999994,return,0.15985710000040854,4,1,0,0,0.07999999999999997,-0.24,return,0.08576440000069852,5,-26,0.07999999999999997,-0.24,,,,,,,,,,,,,,,,,,,,,,,,,,,,,,,,,,,,,,,,,,,,,,,,,,,,,,,,VGCZM2,train_x,blue_star,bottom_right,2025-05-07_16h40.56.323,HideSeek_v1,2022.2.5,59.953871491188025,
,5,0,1,0,-4,0,21,,train_dim1_1,12,30,,,,2,0,2,0,,,,,,,,,0,0,0,0,0,11,11,11,0,0,0,0,,,,,,,,,,,,,,,,,,,,,,,,,stimuli/alien_stimuli/21.png,,,,,,,,,,,,,,,,,,,,,,,,,,,,,stimuli/alien_stimuli/31.png,31,7,13,,,,,,,30,,,,,,,,762.2697124999995,762.2697124999995,762.2697124999995,762.2697124999995,762.2697124999995,left,5.4603501999999935,4,1,0,99,0.15999999999999998,-0.4,left,5.360602200000358,,,,,760.6964962000002,762.2697124999995,0.16,-0.24,0.0,0.24,-0.24,0.16,0.28,0.16,-0.24,758.3825883,758.3825883,758.3825883,758.3825883,758.3825883,758.3825883,758.3825883,758.3825883,758.3614708999999,2.4375694999998814,return,2.282569300000432,,,,,,,,,,,,,,,,,,,,,,,,,,,,,,,,,VGCZM2,train_x,blue_star,bottom_right,2025-05-07_16h40.56.323,HideSeek_v1,2022.2.5,59.953871491188025,
,5,0,1,0,-4,0,21,,train_dim1_1,12,30,,,,2,0,2,0,,,,,,,,,0,0,0,0,0,11,11,11,1,0,1,0,,,,,,,,,,,,,,,,,,,,,,,,,,,,,,,,,,,,,,,,,,,,,,,,,,,,,,,,,,,,,,,,30,,,,,,,,767.7202064000003,767.7202064000003,767.7202064000003,767.7202064000003,767.7202064000003,left,0.3096127999997407,4,1,0,99,0.07999999999999997,-0.4,left,0.23022600000058446,,,,,,,,,,,,,,,,,,,,,,,,,,,,,,,,,,,,,,,,,,,,,,,,,,,,,,,,,,,,VGCZM2,train_x,blue_star,bottom_right,2025-05-07_16h40.56.323,HideSeek_v1,2022.2.5,59.953871491188025,
,5,0,1,0,-4,0,21,,train_dim1_1,12,30,,,,2,0,2,0,,,,,,,,,0,0,0,0,0,11,11,11,2,0,2,0,,,,,,,,,,,,,,,,,,,,,,,,,,,,,,,,,,,,,,,,,,,,,,,,,,,,,,,,,,,,,,,,30,,,,,,,,768.0359938000001,768.0359938000001,768.0359938000001,768.0359938000001,768.0359938000001,left,0.3431903999999122,4,1,0,99,-2.7755575615628914e-17,-0.4,left,0.26335280000057537,,,,,,,,,,,,,,,,,,,,,,,,,,,,,,,,,,,,,,,,,,,,,,,,,,,,,,,,,,,,VGCZM2,train_x,blue_star,bottom_right,2025-05-07_16h40.56.323,HideSeek_v1,2022.2.5,59.953871491188025,
,5,0,1,0,-4,0,21,,train_dim1_1,12,30,,,,2,0,2,0,,,,,,,,,0,0,0,0,0,11,11,11,3,0,3,0,,,,,,,,,,,,,,,,,,,,,,,,,,,,,,,,,,,,,,,,,,,,,,,,,,,,,,,,,,,,,,,,30,,,,,,,,768.3869765,768.3869765,768.3869765,768.3869765,768.3869765,return,1.1103824000001623,4,1,0,0,-2.7755575615628914e-17,-0.4,return,1.028911500000504,5,-29,-2.7755575615628914e-17,-0.4,,,,,,,,,,,,,,,,,,,,,,,,,,,,,,,,,,,,,,,,,,,,,,,,,,,,,,,,VGCZM2,train_x,blue_star,bottom_right,2025-05-07_16h40.56.323,HideSeek_v1,2022.2.5,59.953871491188025,
,5,4,4,4,-1,0,51,,train_dim1_1,13,30,,,,2,0,2,0,,,,,,,,,0,0,0,0,0,12,12,12,0,0,0,0,,,,,,,,,,,,,,,,,,,,,,,,,stimuli/alien_stimuli/51.png,,,,,,,,,,,,,,,,,,,,,,,,,,,,,stimuli/alien_stimuli/21.png,21,5,14,,,,,,,30,,,,,,,,775.4382401000003,775.4382401000003,775.4382401000003,775.4382401000003,775.4382401000003,left,2.5709689999994225,4,1,0,99,0.15999999999999998,-0.08,left,2.4793437000007543,,,,,773.8743783,775.4382401000003,-0.08,-0.4,0.0,0.32,-0.4,-0.08,0.07999999999999999,-0.08,-0.4,771.0625717000003,771.0625717000003,771.0625717000003,771.0625717000003,771.0625717000003,771.0625717000003,771.0625717000003,771.0625717000003,771.0553830000003,2.9209524999996574,return,2.788415700000769,,,,,,,,,,,,,,,,,,,,,,,,,,,,,,,,,VGCZM2,train_x,blue_star,bottom_right,2025-05-07_16h40.56.323,HideSeek_v1,2022.2.5,59.953871491188025,
,5,4,4,4,-1,0,51,,train_dim1_1,13,30,,,,2,0,2,0,,,,,,,,,0,0,0,0,0,12,12,12,1,0,1,0,,,,,,,,,,,,,,,,,,,,,,,,,,,,,,,,,,,,,,,,,,,,,,,,,,,,,,,,,,,,,,,,30,,,,,,,,778.0113105,778.0113105,778.0113105,778.0113105,778.0113105,return,0.19224400000075548,5,0,0,1,0.15999999999999998,-0.08,return,0.11120700000083161,5,-30,0.15999999999999998,-0.08,,,,,,,,,,,,,,,,,,,,,,,,,,,,,,,,,,,,,,,,,,,,,,,,,,,,,,,,VGCZM2,train_x,blue_star,bottom_right,2025-05-07_16h40.56.323,HideSeek_v1,2022.2.5,59.953871491188025,
,9,3,4,3,-5,0,11,,train_dim1_1,14,30,,,,2,0,2,0,,,,,,,,,0,0,0,0,0,13,13,13,0,0,0,0,,,,,,,,,,,,,,,,,,,,,,,,,stimuli/alien_stimuli/11.png,,,,,,,,,,,,,,,,,,,,,,,,,,,,,stimuli/alien_stimuli/51.png,51,5,15,,,,,,,30,,,,,,,,782.9736654999997,782.9736654999997,782.9736654999997,782.9736654999997,782.9736654999997,left,2.624749300000076,5,0,0,99,0.48000000000000004,-0.16,left,2.526893899999777,,,,,781.3970264999998,782.9736654999997,0.16,-0.08,0.0,0.08,-0.08,0.16,0.2,0.16,-0.08,779.7670957999999,779.7670957999999,779.7670957999999,779.7670957999999,779.7670957999999,779.7670957999999,779.7670957999999,779.7670957999999,779.7458053,1.7370602999999392,return,1.6036689000011393,,,,,,,,,,,,,,,,,,,,,,,,,,,,,,,,,VGCZM2,train_x,blue_star,bottom_right,2025-05-07_16h40.56.323,HideSeek_v1,2022.2.5,59.953871491188025,
,9,3,4,3,-5,0,11,,train_dim1_1,14,30,,,,2,0,2,0,,,,,,,,,0,0,0,0,0,13,13,13,1,0,1,0,,,,,,,,,,,,,,,,,,,,,,,,,,,,,,,,,,,,,,,,,,,,,,,,,,,,,,,,,,,,,,,,30,,,,,,,,785.5848639999995,785.5848639999995,785.5848639999995,785.5848639999995,785.5848639999995,left,0.40952759999981936,5,0,0,99,0.4,-0.16,left,0.32567440000093484,,,,,,,,,,,,,,,,,,,,,,,,,,,,,,,,,,,,,,,,,,,,,,,,,,,,,,,,,,,,VGCZM2,train_x,blue_star,bottom_right,2025-05-07_16h40.56.323,HideSeek_v1,2022.2.5,59.953871491188025,
,9,3,4,3,-5,0,11,,train_dim1_1,14,30,,,,2,0,2,0,,,,,,,,,0,0,0,0,0,13,13,13,2,0,2,0,,,,,,,,,,,,,,,,,,,,,,,,,,,,,,,,,,,,,,,,,,,,,,,,,,,,,,,,,,,,,,,,30,,,,,,,,786.0019228000001,786.0019228000001,786.0019228000001,786.0019228000001,786.0019228000001,left,0.3767401000004611,5,0,0,99,0.32,-0.16,left,0.290523800000301,,,,,,,,,,,,,,,,,,,,,,,,,,,,,,,,,,,,,,,,,,,,,,,,,,,,,,,,,,,,VGCZM2,train_x,blue_star,bottom_right,2025-05-07_16h40.56.323,HideSeek_v1,2022.2.5,59.953871491188025,
,9,3,4,3,-5,0,11,,train_dim1_1,14,30,,,,2,0,2,0,,,,,,,,,0,0,0,0,0,13,13,13,3,0,3,0,,,,,,,,,,,,,,,,,,,,,,,,,,,,,,,,,,,,,,,,,,,,,,,,,,,,,,,,,,,,,,,,30,,,,,,,,786.3850487999998,786.3850487999998,786.3850487999998,786.3850487999998,786.3850487999998,left,2.2283040000002075,5,0,0,99,0.24,-0.16,left,2.140521300000728,,,,,,,,,,,,,,,,,,,,,,,,,,,,,,,,,,,,,,,,,,,,,,,,,,,,,,,,,,,,VGCZM2,train_x,blue_star,bottom_right,2025-05-07_16h40.56.323,HideSeek_v1,2022.2.5,59.953871491188025,
,9,3,4,3,-5,0,11,,train_dim1_1,14,30,,,,2,0,2,0,,,,,,,,,0,0,0,0,0,13,13,13,4,0,4,0,,,,,,,,,,,,,,,,,,,,,,,,,,,,,,,,,,,,,,,,,,,,,,,,,,,,,,,,,,,,,,,,30,,,,,,,,788.6206307000002,788.6206307000002,788.6206307000002,788.6206307000002,788.6206307000002,return,0.1428158999997322,5,1,0,0,0.24,-0.16,return,0.0670391000003292,5,-34,0.24,-0.16,,,,,,,,,,,,,,,,,,,,,,,,,,,,,,,,,,,,,,,,,,,,,,,,,,,,,,,,VGCZM2,train_x,blue_star,bottom_right,2025-05-07_16h40.56.323,HideSeek_v1,2022.2.5,59.953871491188025,
,9,2,9,2,0,0,61,,train_dim1_1,15,30,,,,2,0,2,0,,,,,,,,,0,0,0,0,0,14,14,14,0,0,0,0,,,,,,,,,,,,,,,,,,,,,,,,,stimuli/alien_stimuli/61.png,,,,,,,,,,,,,,,,,,,,,,,,,,,,,stimuli/alien_stimuli/11.png,11,9,16,,,,,,,30,,,,,,,,794.3532507,794.3532507,794.3532507,794.3532507,794.3532507,return,2.0537284999991243,6,0,0,1,0.56,-0.24,return,1.9572811000007277,5,-34,0.56,-0.24,792.7732224000001,794.3532507,0.16,-0.16,0.0,0.4,-0.16,0.16,0.36000000000000004,0.16,-0.16,790.3482374999994,790.3482374999994,790.3482374999994,790.3482374999994,790.3482374999994,790.3482374999994,790.3482374999994,790.3482374999994,790.3379810000006,2.554357899999559,return,2.3985147000003053,,,,,,,,,,,,,,,,,,,,,,,,,,,,,,,,,VGCZM2,train_x,blue_star,bottom_right,2025-05-07_16h40.56.323,HideSeek_v1,2022.2.5,59.953871491188025,
,8,3,7,3,-1,0,51,,train_dim1_1,16,30,,,,2,0,2,0,,,,,,,,,0,0,0,0,0,15,15,15,0,0,0,0,,,,,,,,,,,,,,,,,,,,,,,,,stimuli/alien_stimuli/51.png,,,,,,,,,,,,,,,,,,,,,,,,,,,,,stimuli/alien_stimuli/61.png,61,9,17,,,,,,,30,,,,,,,,800.3763858000002,800.3763858000002,800.3763858000002,800.3763858000002,800.3763858000002,left,1.9035887999998522,6,0,0,99,0.39999999999999997,-0.16,left,1.8064427000008436,,,,,798.8116761000001,800.3763858000002,0.56,-0.24,0.0,0.0,-0.24,0.56,0.56,0.56,-0.24,797.9511270000003,797.9511270000003,797.9511270000003,797.9511270000003,797.9511270000003,797.9511270000003,797.9511270000003,797.9511270000003,797.9277208000003,0.9697309000002861,return,0.8404653000006874,,,,,,,,,,,,,,,,,,,,,,,,,,,,,,,,,VGCZM2,train_x,blue_star,bottom_right,2025-05-07_16h40.56.323,HideSeek_v1,2022.2.5,59.953871491188025,
,8,3,7,3,-1,0,51,,train_dim1_1,16,30,,,,2,0,2,0,,,,,,,,,0,0,0,0,0,15,15,15,1,0,1,0,,,,,,,,,,,,,,,,,,,,,,,,,,,,,,,,,,,,,,,,,,,,,,,,,,,,,,,,,,,,,,,,30,,,,,,,,802.2806498999998,802.2806498999998,802.2806498999998,802.2806498999998,802.2806498999998,return,0.1760043999993286,7,0,0,1,0.39999999999999997,-0.16,return,0.10024060000068857,5,-35,0.39999999999999997,-0.16,,,,,,,,,,,,,,,,,,,,,,,,,,,,,,,,,,,,,,,,,,,,,,,,,,,,,,,,VGCZM2,train_x,blue_star,bottom_right,2025-05-07_16h40.56.323,HideSeek_v1,2022.2.5,59.953871491188025,
,7,4,3,4,-4,0,21,,train_dim1_1,17,30,,,,2,0,2,0,,,,,,,,,0,0,0,0,0,16,16,16,0,0,0,0,,,,,,,,,,,,,,,,,,,,,,,,,stimuli/alien_stimuli/21.png,,,,,,,,,,,,,,,,,,,,,,,,,,,,,stimuli/alien_stimuli/51.png,51,8,18,,,,,,,30,,,,,,,,806.7461588999995,806.7461588999995,806.7461588999995,806.7461588999995,806.7461588999995,left,2.6566811000002417,7,0,0,99,0.32,-0.08,left,2.5639386000011655,,,,,805.1833820000002,806.7461588999995,0.4,-0.16,0.0,0.08,-0.16,0.4,0.44,0.4,-0.16,804.0233524999994,804.0233524999994,804.0233524999994,804.0233524999994,804.0233524999994,804.0233524999994,804.0233524999994,804.0233524999994,804.0161258000003,1.269836999999825,return,1.1432682000004206,,,,,,,,,,,,,,,,,,,,,,,,,,,,,,,,,VGCZM2,train_x,blue_star,bottom_right,2025-05-07_16h40.56.323,HideSeek_v1,2022.2.5,59.953871491188025,
,7,4,3,4,-4,0,21,,train_dim1_1,17,30,,,,2,0,2,0,,,,,,,,,0,0,0,0,0,16,16,16,1,0,1,0,,,,,,,,,,,,,,,,,,,,,,,,,,,,,,,,,,,,,,,,,,,,,,,,,,,,,,,,,,,,,,,,30,,,,,,,,809.4039627000002,809.4039627000002,809.4039627000002,809.4039627000002,809.4039627000002,left,0.2601669999994556,7,0,0,99,0.24,-0.08,left,0.16983640000034939,,,,,,,,,,,,,,,,,,,,,,,,,,,,,,,,,,,,,,,,,,,,,,,,,,,,,,,,,,,,VGCZM2,train_x,blue_star,bottom_right,2025-05-07_16h40.56.323,HideSeek_v1,2022.2.5,59.953871491188025,
,7,4,3,4,-4,0,21,,train_dim1_1,17,30,,,,2,0,2,0,,,,,,,,,0,0,0,0,0,16,16,16,2,0,2,0,,,,,,,,,,,,,,,,,,,,,,,,,,,,,,,,,,,,,,,,,,,,,,,,,,,,,,,,,,,,,,,,30,,,,,,,,809.6707759000001,809.6707759000001,809.6707759000001,809.6707759000001,809.6707759000001,left,0.2761461000000054,7,0,0,99,0.15999999999999998,-0.08,left,0.1845022000006793,,,,,,,,,,,,,,,,,,,,,,,,,,,,,,,,,,,,,,,,,,,,,,,,,,,,,,,,,,,,VGCZM2,train_x,blue_star,bottom_right,2025-05-07_16h40.56.323,HideSeek_v1,2022.2.5,59.953871491188025,
,7,4,3,4,-4,0,21,,train_dim1_1,17,30,,,,2,0,2,0,,,,,,,,,0,0,0,0,0,16,16,16,3,0,3,0,,,,,,,,,,,,,,,,,,,,,,,,,,,,,,,,,,,,,,,,,,,,,,,,,,,,,,,,,,,,,,,,30,,,,,,,,809.9550635999994,809.9550635999994,809.9550635999994,809.9550635999994,809.9550635999994,left,2.227964499999871,7,0,0,99,0.07999999999999997,-0.08,left,2.137484800000493,,,,,,,,,,,,,,,,,,,,,,,,,,,,,,,,,,,,,,,,,,,,,,,,,,,,,,,,,,,,VGCZM2,train_x,blue_star,bottom_right,2025-05-07_16h40.56.323,HideSeek_v1,2022.2.5,59.953871491188025,
,7,4,3,4,-4,0,21,,train_dim1_1,17,30,,,,2,0,2,0,,,,,,,,,0,0,0,0,0,16,16,16,4,0,4,0,,,,,,,,,,,,,,,,,,,,,,,,,,,,,,,,,,,,,,,,,,,,,,,,,,,,,,,,,,,,,,,,30,,,,,,,,812.1890858999996,812.1890858999996,812.1890858999996,812.1890858999996,812.1890858999996,return,0.15988800000013725,8,0,0,1,0.07999999999999997,-0.08,return,0.08327360000021145,5,-39,0.07999999999999997,-0.08,,,,,,,,,,,,,,,,,,,,,,,,,,,,,,,,,,,,,,,,,,,,,,,,,,,,,,,,VGCZM2,train_x,blue_star,bottom_right,2025-05-07_16h40.56.323,HideSeek_v1,2022.2.5,59.953871491188025,
,7,1,7,1,0,0,61,,train_dim1_1,18,30,,,,2,0,2,0,,,,,,,,,0,0,0,0,0,17,17,17,0,0,0,0,,,,,,,,,,,,,,,,,,,,,,,,,stimuli/alien_stimuli/61.png,,,,,,,,,,,,,,,,,,,,,,,,,,,,,stimuli/alien_stimuli/21.png,21,7,19,,,,,,,30,,,,,,,,817.1034719999998,817.1034719999998,817.1034719999998,817.1034719999998,817.1034719999998,return,1.056340399999499,9,0,0,1,0.4,-0.32,return,0.9549208000007638,5,-39,0.4,-0.32,815.5256308999997,817.1034719999998,0.08,-0.08,0.0,0.32,-0.08,0.08,0.24000000000000002,0.08,-0.08,813.9140749999997,813.9140749999997,813.9140749999997,813.9140749999997,813.9140749999997,813.9140749999997,813.9140749999997,813.9140749999997,813.9077609999999,1.7201125000001412,return,1.582993400000305,,,,,,,,,,,,,,,,,,,,,,,,,,,,,,,,,VGCZM2,train_x,blue_star,bottom_right,2025-05-07_16h40.56.323,HideSeek_v1,2022.2.5,59.953871491188025,
,5,3,2,3,-3,0,31,,train_dim1_1,19,30,,,,2,0,2,0,,,,,,,,,0,0,0,0,0,18,18,18,0,0,0,0,,,,,,,,,,,,,,,,,,,,,,,,,stimuli/alien_stimuli/31.png,,,,,,,,,,,,,,,,,,,,,,,,,,,,,stimuli/alien_stimuli/61.png,61,7,20,,,,,,,30,,,,,,,,822.2533136000002,822.2533136000002,822.2533136000002,822.2533136000002,822.2533136000002,left,1.5239762000001065,9,0,0,99,0.15999999999999998,-0.16,left,1.4387766999998348,,,,,820.6963442999995,822.2533136000002,0.4,-0.32,0.0,0.0,-0.32,0.4,0.4,0.4,-0.32,819.7001491000001,819.7001491000001,819.7001491000001,819.7001491000001,819.7001491000001,819.7001491000001,819.7001491000001,819.7001491000001,819.6789533000001,1.10278019999987,return,0.9645986000004996,,,,,,,,,,,,,,,,,,,,,,,,,,,,,,,,,VGCZM2,train_x,blue_star,bottom_right,2025-05-07_16h40.56.323,HideSeek_v1,2022.2.5,59.953871491188025,
,5,3,2,3,-3,0,31,,train_dim1_1,19,30,,,,2,0,2,0,,,,,,,,,0,0,0,0,0,18,18,18,1,0,1,0,,,,,,,,,,,,,,,,,,,,,,,,,,,,,,,,,,,,,,,,,,,,,,,,,,,,,,,,,,,,,,,,30,,,,,,,,823.7787426999994,823.7787426999994,823.7787426999994,823.7787426999994,823.7787426999994,left,0.20962020000024495,9,0,0,99,0.07999999999999997,-0.16,left,0.1275805000004766,,,,,,,,,,,,,,,,,,,,,,,,,,,,,,,,,,,,,,,,,,,,,,,,,,,,,,,,,,,,VGCZM2,train_x,blue_star,bottom_right,2025-05-07_16h40.56.323,HideSeek_v1,2022.2.5,59.953871491188025,
,5,3,2,3,-3,0,31,,train_dim1_1,19,30,,,,2,0,2,0,,,,,,,,,0,0,0,0,0,18,18,18,2,0,2,0,,,,,,,,,,,,,,,,,,,,,,,,,,,,,,,,,,,,,,,,,,,,,,,,,,,,,,,,,,,,,,,,30,,,,,,,,823.9952554000001,823.9952554000001,823.9952554000001,823.9952554000001,823.9952554000001,left,0.22658860000046843,9,0,0,99,-2.7755575615628914e-17,-0.16,left,0.15296290000060253,,,,,,,,,,,,,,,,,,,,,,,,,,,,,,,,,,,,,,,,,,,,,,,,,,,,,,,,,,,,VGCZM2,train_x,blue_star,bottom_right,2025-05-07_16h40.56.323,HideSeek_v1,2022.2.5,59.953871491188025,
,5,3,2,3,-3,0,31,,train_dim1_1,19,30,,,,2,0,2,0,,,,,,,,,0,0,0,0,0,18,18,18,3,0,3,0,,,,,,,,,,,,,,,,,,,,,,,,,,,,,,,,,,,,,,,,,,,,,,,,,,,,,,,,,,,,,,,,30,,,,,,,,824.2296108999999,824.2296108999999,824.2296108999999,824.2296108999999,824.2296108999999,return,0.5097863000000871,10,0,0,1,-2.7755575615628914e-17,-0.16,return,0.43008330000066053,5,-42,-2.7755575615628914e-17,-0.16,,,,,,,,,,,,,,,,,,,,,,,,,,,,,,,,,,,,,,,,,,,,,,,,,,,,,,,,VGCZM2,train_x,blue_star,bottom_right,2025-05-07_16h40.56.323,HideSeek_v1,2022.2.5,59.953871491188025,
,5,1,0,1,-5,0,11,,train_dim1_1,20,30,,,,2,0,2,0,,,,,,,,,0,0,0,0,0,19,19,19,0,0,0,0,,,,,,,,,,,,,,,,,,,,,,,,,stimuli/alien_stimuli/11.png,,,,,,,,,,,,,,,,,,,,,,,,,,,,,stimuli/alien_stimuli/31.png,31,5,21,,,,,,,30,,,,,,,,828.8847105999994,828.8847105999994,828.8847105999994,828.8847105999994,828.8847105999994,left,1.919998200000009,10,0,0,99,0.15999999999999998,-0.32,left,1.8314236000005621,,,,,827.3186336999997,828.8847105999994,0,-0.16,0.0,0.24,-0.16,0,0.12,0,-0.16,826.3043276999997,826.3043276999997,826.3043276999997,826.3043276999997,826.3043276999997,826.3043276999997,826.3043276999997,826.3043276999997,826.2844176999997,1.119807000000037,return,0.9864201999998841,,,,,,,,,,,,,,,,,,,,,,,,,,,,,,,,,VGCZM2,train_x,blue_star,bottom_right,2025-05-07_16h40.56.323,HideSeek_v1,2022.2.5,59.953871491188025,
,5,1,0,1,-5,0,11,,train_dim1_1,20,30,,,,2,0,2,0,,,,,,,,,0,0,0,0,0,19,19,19,1,0,1,0,,,,,,,,,,,,,,,,,,,,,,,,,,,,,,,,,,,,,,,,,,,,,,,,,,,,,,,,,,,,,,,,30,,,,,,,,830.8058899999996,830.8058899999996,830.8058899999996,830.8058899999996,830.8058899999996,left,0.4261627000005319,10,0,0,99,0.07999999999999997,-0.32,left,0.3396959000010611,,,,,,,,,,,,,,,,,,,,,,,,,,,,,,,,,,,,,,,,,,,,,,,,,,,,,,,,,,,,VGCZM2,train_x,blue_star,bottom_right,2025-05-07_16h40.56.323,HideSeek_v1,2022.2.5,59.953871491188025,
,5,1,0,1,-5,0,11,,train_dim1_1,20,30,,,,2,0,2,0,,,,,,,,,0,0,0,0,0,19,19,19,2,0,2,0,,,,,,,,,,,,,,,,,,,,,,,,,,,,,,,,,,,,,,,,,,,,,,,,,,,,,,,,,,,,,,,,30,,,,,,,,831.2387480999996,831.2387480999996,831.2387480999996,831.2387480999996,831.2387480999996,left,0.3938031999996383,10,0,0,99,-2.7755575615628914e-17,-0.32,left,0.30297840000002907,,,,,,,,,,,,,,,,,,,,,,,,,,,,,,,,,,,,,,,,,,,,,,,,,,,,,,,,,,,,VGCZM2,train_x,blue_star,bottom_right,2025-05-07_16h40.56.323,HideSeek_v1,2022.2.5,59.953871491188025,
,5,1,0,1,-5,0,11,,train_dim1_1,20,30,,,,2,0,2,0,,,,,,,,,0,0,0,0,0,19,19,19,3,0,3,0,,,,,,,,,,,,,,,,,,,,,,,,,,,,,,,,,,,,,,,,,,,,,,,,,,,,,,,,,,,,,,,,30,,,,,,,,831.6386909000003,831.6386909000003,831.6386909000003,831.6386909000003,831.6386909000003,left,0.3599890999994386,10,0,0,99,-0.08000000000000003,-0.32,left,0.2757232000003569,,,,,,,,,,,,,,,,,,,,,,,,,,,,,,,,,,,,,,,,,,,,,,,,,,,,,,,,,,,,VGCZM2,train_x,blue_star,bottom_right,2025-05-07_16h40.56.323,HideSeek_v1,2022.2.5,59.953871491188025,
,5,1,0,1,-5,0,11,,train_dim1_1,20,30,,,,2,0,2,0,,,,,,,,,0,0,0,0,0,19,19,19,4,0,4,0,,,,,,,,,,,,,,,,,,,,,,,,,,,,,,,,,,,,,,,,,,,,,,,,,,,,,,,,,,,,,,,,30,,,,,,,,832.0061697000001,832.0061697000001,832.0061697000001,832.0061697000001,832.0061697000001,left,0.3598695000000589,10,0,0,99,-0.16000000000000003,-0.32,left,0.28393920000053186,,,,,,,,,,,,,,,,,,,,,,,,,,,,,,,,,,,,,,,,,,,,,,,,,,,,,,,,,,,,VGCZM2,train_x,blue_star,bottom_right,2025-05-07_16h40.56.323,HideSeek_v1,2022.2.5,59.953871491188025,
,5,1,0,1,-5,0,11,,train_dim1_1,20,30,,,,2,0,2,0,,,,,,,,,0,0,0,0,0,19,19,19,5,0,5,0,,,,,,,,,,,,,,,,,,,,,,,,,,,,,,,,,,,,,,,,,,,,,,,,,,,,,,,,,,,,,,,,30,,,,,,,,832.3728860000001,832.3728860000001,832.3728860000001,832.3728860000001,832.3728860000001,left,0.4432571999996071,10,0,0,99,-0.24000000000000005,-0.32,left,0.35301800000070216,,,,,,,,,,,,,,,,,,,,,,,,,,,,,,,,,,,,,,,,,,,,,,,,,,,,,,,,,,,,VGCZM2,train_x,blue_star,bottom_right,2025-05-07_16h40.56.323,HideSeek_v1,2022.2.5,59.953871491188025,
,5,1,0,1,-5,0,11,,train_dim1_1,20,30,,,,2,0,2,0,,,,,,,,,0,0,0,0,0,19,19,19,6,0,6,0,,,,,,,,,,,,,,,,,,,,,,,,,,,,,,,,,,,,,,,,,,,,,,,,,,,,,,,,,,,,,,,,30,,,,,,,,832.8238806999998,832.8238806999998,832.8238806999998,832.8238806999998,832.8238806999998,right,9.584253799999715,10,0,0,99,-0.16000000000000003,-0.32,right,9.501695400000244,,,,,,,,,,,,,,,,,,,,,,,,,,,,,,,,,,,,,,,,,,,,,,,,,,,,,,,,,,,,VGCZM2,train_x,blue_star,bottom_right,2025-05-07_16h40.56.323,HideSeek_v1,2022.2.5,59.953871491188025,
,5,1,0,1,-5,0,11,,train_dim1_1,20,30,,,,2,0,2,0,,,,,,,,,0,0,0,0,0,19,19,19,7,0,7,0,,,,,,,,,,,,,,,,,,,,,,,,,,,,,,,,,,,,,,,,,,,,,,,,,,,,,,,,,,,,,,,,30,,,,,,,,842.4352786,842.4352786,842.4352786,842.4352786,842.4352786,return,7.5661135999998805,11,0,0,1,-0.16000000000000003,-0.32,return,7.465280700000221,5,-47,-0.16000000000000003,-0.32,,,,,,,,,,,,,,,,,,,,,,,,,,,,,,,,,,,,,,,,,,,,,,,,,,,,,,,,VGCZM2,train_x,blue_star,bottom_right,2025-05-07_16h40.56.323,HideSeek_v1,2022.2.5,59.953871491188025,
,9,2,6,2,-3,0,31,,train_dim1_1,21,30,,,,2,0,2,0,,,,,,,,,0,0,0,0,0,20,20,20,0,0,0,0,,,,,,,,,,,,,,,,,,,,,,,,,stimuli/alien_stimuli/31.png,,,,,,,,,,,,,,,,,,,,,,,,,,,,,stimuli/alien_stimuli/11.png,11,5,22,,,,,,,30,,,,,,,,854.7842212999994,854.7842212999994,854.7842212999994,854.7842212999994,854.7842212999994,left,1.9895788999992874,11,0,0,99,0.48000000000000004,-0.24,left,1.8797368000014103,,,,,853.2066198000002,854.7842212999994,-0.16,-0.32,0.0,0.4,-0.32,-0.16,0.039999999999999994,-0.16,-0.32,851.5614955000001,851.5614955000001,851.5614955000001,851.5614955000001,851.5614955000001,851.5614955000001,851.5614955000001,851.5614955000001,851.5387125000002,1.7707658999997875,return,1.6295914000002085,,,,,,,,,,,,,,,,,,,,,,,,,,,,,,,,,VGCZM2,train_x,blue_star,bottom_right,2025-05-07_16h40.56.323,HideSeek_v1,2022.2.5,59.953871491188025,
,9,2,6,2,-3,0,31,,train_dim1_1,21,30,,,,2,0,2,0,,,,,,,,,0,0,0,0,0,20,20,20,1,0,1,0,,,,,,,,,,,,,,,,,,,,,,,,,,,,,,,,,,,,,,,,,,,,,,,,,,,,,,,,,,,,,,,,30,,,,,,,,856.7562614999997,856.7562614999997,856.7562614999997,856.7562614999997,856.7562614999997,left,0.2101202000003468,11,0,0,99,0.4,-0.24,left,0.12580740000066726,,,,,,,,,,,,,,,,,,,,,,,,,,,,,,,,,,,,,,,,,,,,,,,,,,,,,,,,,,,,VGCZM2,train_x,blue_star,bottom_right,2025-05-07_16h40.56.323,HideSeek_v1,2022.2.5,59.953871491188025,
,9,2,6,2,-3,0,31,,train_dim1_1,21,30,,,,2,0,2,0,,,,,,,,,0,0,0,0,0,20,20,20,2,0,2,0,,,,,,,,,,,,,,,,,,,,,,,,,,,,,,,,,,,,,,,,,,,,,,,,,,,,,,,,,,,,,,,,30,,,,,,,,856.9730652999997,856.9730652999997,856.9730652999997,856.9730652999997,856.9730652999997,left,0.6595441999998002,11,0,0,99,0.32,-0.24,left,0.5719684000005145,,,,,,,,,,,,,,,,,,,,,,,,,,,,,,,,,,,,,,,,,,,,,,,,,,,,,,,,,,,,VGCZM2,train_x,blue_star,bottom_right,2025-05-07_16h40.56.323,HideSeek_v1,2022.2.5,59.953871491188025,
,9,2,6,2,-3,0,31,,train_dim1_1,21,30,,,,2,0,2,0,,,,,,,,,0,0,0,0,0,20,20,20,3,0,3,0,,,,,,,,,,,,,,,,,,,,,,,,,,,,,,,,,,,,,,,,,,,,,,,,,,,,,,,,,,,,,,,,30,,,,,,,,857.6407060000001,857.6407060000001,857.6407060000001,857.6407060000001,857.6407060000001,return,0.29313809999985097,12,0,0,1,0.32,-0.24,return,0.21985880000102043,5,-50,0.32,-0.24,,,,,,,,,,,,,,,,,,,,,,,,,,,,,,,,,,,,,,,,,,,,,,,,,,,,,,,,VGCZM2,train_x,blue_star,bottom_right,2025-05-07_16h40.56.323,HideSeek_v1,2022.2.5,59.953871491188025,
,6,0,2,0,-4,0,21,,train_dim1_1,22,30,,,,2,0,2,0,,,,,,,,,0,0,0,0,0,21,21,21,0,0,0,0,,,,,,,,,,,,,,,,,,,,,,,,,stimuli/alien_stimuli/21.png,,,,,,,,,,,,,,,,,,,,,,,,,,,,,stimuli/alien_stimuli/31.png,31,9,23,,,,,,,30,,,,,,,,862.1987294,862.1987294,862.1987294,862.1987294,862.1987294,left,4.38871410000047,12,0,0,99,0.24,-0.4,left,4.277082100000371,,,,,860.6127787999994,862.1987294,0.32,-0.24,0.0,0.24,-0.24,0.32,0.44000000000000006,0.32,-0.24,859.4985024999996,859.4985024999996,859.4985024999996,859.4985024999996,859.4985024999996,859.4985024999996,859.4985024999996,859.4985024999996,859.4786138,1.2199248999995689,return,1.0931179000008342,,,,,,,,,,,,,,,,,,,,,,,,,,,,,,,,,VGCZM2,train_x,blue_star,bottom_right,2025-05-07_16h40.56.323,HideSeek_v1,2022.2.5,59.953871491188025,
,6,0,2,0,-4,0,21,,train_dim1_1,22,30,,,,2,0,2,0,,,,,,,,,0,0,0,0,0,21,21,21,1,0,1,0,,,,,,,,,,,,,,,,,,,,,,,,,,,,,,,,,,,,,,,,,,,,,,,,,,,,,,,,,,,,,,,,30,,,,,,,,866.5693432999997,866.5693432999997,866.5693432999997,866.5693432999997,866.5693432999997,left,0.5265040000003864,12,0,0,99,0.15999999999999998,-0.4,left,0.4381131000009191,,,,,,,,,,,,,,,,,,,,,,,,,,,,,,,,,,,,,,,,,,,,,,,,,,,,,,,,,,,,VGCZM2,train_x,blue_star,bottom_right,2025-05-07_16h40.56.323,HideSeek_v1,2022.2.5,59.953871491188025,
,6,0,2,0,-4,0,21,,train_dim1_1,22,30,,,,2,0,2,0,,,,,,,,,0,0,0,0,0,21,21,21,2,0,2,0,,,,,,,,,,,,,,,,,,,,,,,,,,,,,,,,,,,,,,,,,,,,,,,,,,,,,,,,,,,,,,,,30,,,,,,,,867.1017684999997,867.1017684999997,867.1017684999997,867.1017684999997,867.1017684999997,left,0.5434116000005815,12,0,0,99,0.07999999999999997,-0.4,left,0.452760500000295,,,,,,,,,,,,,,,,,,,,,,,,,,,,,,,,,,,,,,,,,,,,,,,,,,,,,,,,,,,,VGCZM2,train_x,blue_star,bottom_right,2025-05-07_16h40.56.323,HideSeek_v1,2022.2.5,59.953871491188025,
,6,0,2,0,-4,0,21,,train_dim1_1,22,30,,,,2,0,2,0,,,,,,,,,0,0,0,0,0,21,21,21,3,0,3,0,,,,,,,,,,,,,,,,,,,,,,,,,,,,,,,,,,,,,,,,,,,,,,,,,,,,,,,,,,,,,,,,30,,,,,,,,867.6523083000002,867.6523083000002,867.6523083000002,867.6523083000002,867.6523083000002,left,0.5769776999995884,12,0,0,99,-2.7755575615628914e-17,-0.4,left,0.4907756000011432,,,,,,,,,,,,,,,,,,,,,,,,,,,,,,,,,,,,,,,,,,,,,,,,,,,,,,,,,,,,VGCZM2,train_x,blue_star,bottom_right,2025-05-07_16h40.56.323,HideSeek_v1,2022.2.5,59.953871491188025,
,6,0,2,0,-4,0,21,,train_dim1_1,22,30,,,,2,0,2,0,,,,,,,,,0,0,0,0,0,21,21,21,4,0,4,0,,,,,,,,,,,,,,,,,,,,,,,,,,,,,,,,,,,,,,,,,,,,,,,,,,,,,,,,,,,,,,,,30,,,,,,,,868.2368667000001,868.2368667000001,868.2368667000001,868.2368667000001,868.2368667000001,return,0.5429513999997653,13,0,0,1,-2.7755575615628914e-17,-0.4,return,0.4638170000007449,5,-54,-2.7755575615628914e-17,-0.4,,,,,,,,,,,,,,,,,,,,,,,,,,,,,,,,,,,,,,,,,,,,,,,,,,,,,,,,VGCZM2,train_x,blue_star,bottom_right,2025-05-07_16h40.56.323,HideSeek_v1,2022.2.5,59.953871491188025,
,7,1,7,1,0,0,61,,train_dim1_1,23,30,,,,2,0,2,0,,,,,,,,,0,0,0,0,0,22,22,22,0,0,0,0,,,,,,,,,,,,,,,,,,,,,,,,,stimuli/alien_stimuli/61.png,,,,,,,,,,,,,,,,,,,,,,,,,,,,,stimuli/alien_stimuli/21.png,21,6,24,,,,,,,30,,,,,,,,873.2647477999999,873.2647477999999,873.2647477999999,873.2647477999999,873.2647477999999,return,1.3734221000004254,14,0,0,1,0.4,-0.32,return,1.2609948999997869,5,-54,0.4,-0.32,871.6887306999997,873.2647477999999,0,-0.4,0.0,0.32,-0.4,0,0.16,0,-0.4,870.3455960000001,870.3455960000001,870.3455960000001,870.3455960000001,870.3455960000001,870.3455960000001,870.3455960000001,870.3455960000001,870.3375974000005,1.453554200000326,return,1.3203156000008676,,,,,,,,,,,,,,,,,,,,,,,,,,,,,,,,,VGCZM2,train_x,blue_star,bottom_right,2025-05-07_16h40.56.323,HideSeek_v1,2022.2.5,59.953871491188025,
,9,4,8,4,-1,0,51,,train_dim1_1,24,30,,,,2,0,2,0,,,,,,,,,0,0,0,0,0,23,23,23,0,0,0,0,,,,,,,,,,,,,,,,,,,,,,,,,stimuli/alien_stimuli/51.png,,,,,,,,,,,,,,,,,,,,,,,,,,,,,stimuli/alien_stimuli/61.png,61,7,25,,,,,,,30,,,,,,,,878.9567821,878.9567821,878.9567821,878.9567821,878.9567821,left,2.0874752999998236,14,0,0,99,0.48000000000000004,-0.08,left,2.001119100001233,,,,,877.3933253999994,878.9567821,0.4,-0.32,0.0,0.0,-0.32,0.4,0.4,0.4,-0.32,876.1753455999997,876.1753455999997,876.1753455999997,876.1753455999997,876.1753455999997,876.1753455999997,876.1753455999997,876.1753455999997,876.1591718,1.3199031999993167,return,1.1859746000009181,,,,,,,,,,,,,,,,,,,,,,,,,,,,,,,,,VGCZM2,train_x,blue_star,bottom_right,2025-05-07_16h40.56.323,HideSeek_v1,2022.2.5,59.953871491188025,
,9,4,8,4,-1,0,51,,train_dim1_1,24,30,,,,2,0,2,0,,,,,,,,,0,0,0,0,0,23,23,23,1,0,1,0,,,,,,,,,,,,,,,,,,,,,,,,,,,,,,,,,,,,,,,,,,,,,,,,,,,,,,,,,,,,,,,,30,,,,,,,,881.0458447000001,881.0458447000001,881.0458447000001,881.0458447000001,881.0458447000001,return,0.27572479999980715,15,0,0,1,0.48000000000000004,-0.08,return,0.19613370000115538,5,-55,0.48000000000000004,-0.08,,,,,,,,,,,,,,,,,,,,,,,,,,,,,,,,,,,,,,,,,,,,,,,,,,,,,,,,VGCZM2,train_x,blue_star,bottom_right,2025-05-07_16h40.56.323,HideSeek_v1,2022.2.5,59.953871491188025,
,8,0,3,0,-5,0,11,,train_dim1_1,25,30,,,,2,0,2,0,,,,,,,,,0,0,0,0,0,24,24,24,0,0,0,0,,,,,,,,,,,,,,,,,,,,,,,,,stimuli/alien_stimuli/11.png,,,,,,,,,,,,,,,,,,,,,,,,,,,,,stimuli/alien_stimuli/51.png,51,9,26,,,,,,,30,,,,,,,,885.5803647000002,885.5803647000002,885.5803647000002,885.5803647000002,885.5803647000002,left,1.9205865000003541,15,0,0,99,0.39999999999999997,-0.4,left,1.8253796000008151,,,,,884.0155752000001,885.5803647000002,0.48,-0.08,0.0,0.08,-0.08,0.48,0.52,0.48,-0.08,882.8865218999999,882.8865218999999,882.8865218999999,882.8865218999999,882.8865218999999,882.8865218999999,882.8865218999999,882.8865218999999,882.8646129999997,1.2366580999996586,return,1.113026400000308,,,,,,,,,,,,,,,,,,,,,,,,,,,,,,,,,VGCZM2,train_x,blue_star,bottom_right,2025-05-07_16h40.56.323,HideSeek_v1,2022.2.5,59.953871491188025,
,8,0,3,0,-5,0,11,,train_dim1_1,25,30,,,,2,0,2,0,,,,,,,,,0,0,0,0,0,24,24,24,1,0,1,0,,,,,,,,,,,,,,,,,,,,,,,,,,,,,,,,,,,,,,,,,,,,,,,,,,,,,,,,,,,,,,,,30,,,,,,,,887.5023212999995,887.5023212999995,887.5023212999995,887.5023212999995,887.5023212999995,left,0.3429288999996061,15,0,0,99,0.31999999999999995,-0.4,left,0.2656568000002153,,,,,,,,,,,,,,,,,,,,,,,,,,,,,,,,,,,,,,,,,,,,,,,,,,,,,,,,,,,,VGCZM2,train_x,blue_star,bottom_right,2025-05-07_16h40.56.323,HideSeek_v1,2022.2.5,59.953871491188025,
,8,0,3,0,-5,0,11,,train_dim1_1,25,30,,,,2,0,2,0,,,,,,,,,0,0,0,0,0,24,24,24,2,0,2,0,,,,,,,,,,,,,,,,,,,,,,,,,,,,,,,,,,,,,,,,,,,,,,,,,,,,,,,,,,,,,,,,30,,,,,,,,887.8523704999998,887.8523704999998,887.8523704999998,887.8523704999998,887.8523704999998,left,0.39332780000040657,15,0,0,99,0.23999999999999994,-0.4,left,0.30454700000063895,,,,,,,,,,,,,,,,,,,,,,,,,,,,,,,,,,,,,,,,,,,,,,,,,,,,,,,,,,,,VGCZM2,train_x,blue_star,bottom_right,2025-05-07_16h40.56.323,HideSeek_v1,2022.2.5,59.953871491188025,
,8,0,3,0,-5,0,11,,train_dim1_1,25,30,,,,2,0,2,0,,,,,,,,,0,0,0,0,0,24,24,24,3,0,3,0,,,,,,,,,,,,,,,,,,,,,,,,,,,,,,,,,,,,,,,,,,,,,,,,,,,,,,,,,,,,,,,,30,,,,,,,,888.2525943,888.2525943,888.2525943,888.2525943,888.2525943,left,0.34398719999990135,15,0,0,99,0.15999999999999992,-0.4,left,0.25241749999986496,,,,,,,,,,,,,,,,,,,,,,,,,,,,,,,,,,,,,,,,,,,,,,,,,,,,,,,,,,,,VGCZM2,train_x,blue_star,bottom_right,2025-05-07_16h40.56.323,HideSeek_v1,2022.2.5,59.953871491188025,
,8,0,3,0,-5,0,11,,train_dim1_1,25,30,,,,2,0,2,0,,,,,,,,,0,0,0,0,0,24,24,24,4,0,4,0,,,,,,,,,,,,,,,,,,,,,,,,,,,,,,,,,,,,,,,,,,,,,,,,,,,,,,,,,,,,,,,,30,,,,,,,,888.6033023999998,888.6033023999998,888.6033023999998,888.6033023999998,888.6033023999998,left,0.35938940000050934,15,0,0,99,0.07999999999999992,-0.4,left,0.2793942000007519,,,,,,,,,,,,,,,,,,,,,,,,,,,,,,,,,,,,,,,,,,,,,,,,,,,,,,,,,,,,VGCZM2,train_x,blue_star,bottom_right,2025-05-07_16h40.56.323,HideSeek_v1,2022.2.5,59.953871491188025,
,8,0,3,0,-5,0,11,,train_dim1_1,25,30,,,,2,0,2,0,,,,,,,,,0,0,0,0,0,24,24,24,5,0,5,0,,,,,,,,,,,,,,,,,,,,,,,,,,,,,,,,,,,,,,,,,,,,,,,,,,,,,,,,,,,,,,,,30,,,,,,,,888.9695221000002,888.9695221000002,888.9695221000002,888.9695221000002,888.9695221000002,left,0.4103816000006191,15,0,0,99,-8.326672684688674e-17,-0.4,left,0.3238184000010733,,,,,,,,,,,,,,,,,,,,,,,,,,,,,,,,,,,,,,,,,,,,,,,,,,,,,,,,,,,,VGCZM2,train_x,blue_star,bottom_right,2025-05-07_16h40.56.323,HideSeek_v1,2022.2.5,59.953871491188025,
,8,0,3,0,-5,0,11,,train_dim1_1,25,30,,,,2,0,2,0,,,,,,,,,0,0,0,0,0,24,24,24,6,0,6,0,,,,,,,,,,,,,,,,,,,,,,,,,,,,,,,,,,,,,,,,,,,,,,,,,,,,,,,,,,,,,,,,30,,,,,,,,889.3881203999999,889.3881203999999,889.3881203999999,889.3881203999999,889.3881203999999,left,0.7763890999995056,15,0,0,99,-0.08000000000000008,-0.4,left,0.68862480000098,,,,,,,,,,,,,,,,,,,,,,,,,,,,,,,,,,,,,,,,,,,,,,,,,,,,,,,,,,,,VGCZM2,train_x,blue_star,bottom_right,2025-05-07_16h40.56.323,HideSeek_v1,2022.2.5,59.953871491188025,
,8,0,3,0,-5,0,11,,train_dim1_1,25,30,,,,2,0,2,0,,,,,,,,,0,0,0,0,0,24,24,24,7,0,7,0,,,,,,,,,,,,,,,,,,,,,,,,,,,,,,,,,,,,,,,,,,,,,,,,,,,,,,,,,,,,,,,,30,,,,,,,,890.1706542000002,890.1706542000002,890.1706542000002,890.1706542000002,890.1706542000002,left,1.727653700000701,15,0,0,99,-0.1600000000000001,-0.4,left,1.6359361000004355,,,,,,,,,,,,,,,,,,,,,,,,,,,,,,,,,,,,,,,,,,,,,,,,,,,,,,,,,,,,VGCZM2,train_x,blue_star,bottom_right,2025-05-07_16h40.56.323,HideSeek_v1,2022.2.5,59.953871491188025,
,8,0,3,0,-5,0,11,,train_dim1_1,25,30,,,,2,0,2,0,,,,,,,,,0,0,0,0,0,24,24,24,8,0,8,0,,,,,,,,,,,,,,,,,,,,,,,,,,,,,,,,,,,,,,,,,,,,,,,,,,,,,,,,,,,,,,,,30,,,,,,,,891.9054140999997,891.9054140999997,891.9054140999997,891.9054140999997,891.9054140999997,return,0.12657020000006014,15,0,0,0,-0.1600000000000001,-0.4,return,0.0506786000005377,5,-63,-0.1600000000000001,-0.4,,,,,,,,,,,,,,,,,,,,,,,,,,,,,,,,,,,,,,,,,,,,,,,,,,,,,,,,VGCZM2,train_x,blue_star,bottom_right,2025-05-07_16h40.56.323,HideSeek_v1,2022.2.5,59.953871491188025,
,6,1,6,1,0,0,61,,train_dim1_1,26,30,,,,2,0,2,0,,,,,,,,,0,0,0,0,0,25,25,25,0,0,0,0,,,,,,,,,,,,,,,,,,,,,,,,,stimuli/alien_stimuli/61.png,,,,,,,,,,,,,,,,,,,,,,,,,,,,,stimuli/alien_stimuli/11.png,11,8,27,,,,,,,30,,,,,,,,899.7044036999996,899.7044036999996,899.7044036999996,899.7044036999996,899.7044036999996,return,1.4218614000001253,16,0,0,1,0.32,-0.32,return,1.3333596000002217,5,-63,0.32,-0.32,898.1440531999997,899.7044036999996,0.08,-0.4,0.0,0.4,-0.4,0.08,0.27999999999999997,0.08,-0.4,893.6172969999998,893.6172969999998,893.6172969999998,893.6172969999998,893.6172969999998,893.6172969999998,893.6172969999998,893.6172969999998,893.6068708000003,4.656161599999905,return,4.495348400000694,,,,,,,,,,,,,,,,,,,,,,,,,,,,,,,,,VGCZM2,train_x,blue_star,bottom_right,2025-05-07_16h40.56.323,HideSeek_v1,2022.2.5,59.953871491188025,
,5,1,2,1,-3,0,31,,train_dim1_1,27,30,,,,2,0,2,0,,,,,,,,,0,0,0,0,0,26,26,26,0,0,0,0,,,,,,,,,,,,,,,,,,,,,,,,,stimuli/alien_stimuli/31.png,,,,,,,,,,,,,,,,,,,,,,,,,,,,,stimuli/alien_stimuli/61.png,61,6,28,,,,,,,30,,,,,,,,905.2237368999995,905.2237368999995,905.2237368999995,905.2237368999995,905.2237368999995,left,1.7700941000002786,16,0,0,99,0.15999999999999998,-0.32,left,1.6621308000012505,,,,,903.6484707999998,905.2237368999995,0.32,-0.32,0.0,0.0,-0.32,0.32,0.32,0.32,-0.32,902.6807202999998,902.6807202999998,902.6807202999998,902.6807202999998,902.6807202999998,902.6807202999998,902.6807202999998,902.6807202999998,902.6643977000003,1.0696567000004507,return,0.9404026000001977,,,,,,,,,,,,,,,,,,,,,,,,,,,,,,,,,VGCZM2,train_x,blue_star,bottom_right,2025-05-07_16h40.56.323,HideSeek_v1,2022.2.5,59.953871491188025,
,5,1,2,1,-3,0,31,,train_dim1_1,27,30,,,,2,0,2,0,,,,,,,,,0,0,0,0,0,26,26,26,1,0,1,0,,,,,,,,,,,,,,,,,,,,,,,,,,,,,,,,,,,,,,,,,,,,,,,,,,,,,,,,,,,,,,,,30,,,,,,,,906.9816081999998,906.9816081999998,906.9816081999998,906.9816081999998,906.9816081999998,left,0.25971539999954985,16,0,0,99,0.07999999999999997,-0.32,left,0.17737080000097194,,,,,,,,,,,,,,,,,,,,,,,,,,,,,,,,,,,,,,,,,,,,,,,,,,,,,,,,,,,,VGCZM2,train_x,blue_star,bottom_right,2025-05-07_16h40.56.323,HideSeek_v1,2022.2.5,59.953871491188025,
,5,1,2,1,-3,0,31,,train_dim1_1,27,30,,,,2,0,2,0,,,,,,,,,0,0,0,0,0,26,26,26,2,0,2,0,,,,,,,,,,,,,,,,,,,,,,,,,,,,,,,,,,,,,,,,,,,,,,,,,,,,,,,,,,,,,,,,30,,,,,,,,907.2489670999994,907.2489670999994,907.2489670999994,907.2489670999994,907.2489670999994,left,0.5766657000003761,16,0,0,99,-2.7755575615628914e-17,-0.32,left,0.4907526000006328,,,,,,,,,,,,,,,,,,,,,,,,,,,,,,,,,,,,,,,,,,,,,,,,,,,,,,,,,,,,VGCZM2,train_x,blue_star,bottom_right,2025-05-07_16h40.56.323,HideSeek_v1,2022.2.5,59.953871491188025,
,5,1,2,1,-3,0,31,,train_dim1_1,27,30,,,,2,0,2,0,,,,,,,,,0,0,0,0,0,26,26,26,3,0,3,0,,,,,,,,,,,,,,,,,,,,,,,,,,,,,,,,,,,,,,,,,,,,,,,,,,,,,,,,,,,,,,,,30,,,,,,,,907.8317534999996,907.8317534999996,907.8317534999996,907.8317534999996,907.8317534999996,return,0.2266368999999031,17,0,0,1,-2.7755575615628914e-17,-0.32,return,0.1532840000008946,5,-66,-2.7755575615628914e-17,-0.32,,,,,,,,,,,,,,,,,,,,,,,,,,,,,,,,,,,,,,,,,,,,,,,,,,,,,,,,VGCZM2,train_x,blue_star,bottom_right,2025-05-07_16h40.56.323,HideSeek_v1,2022.2.5,59.953871491188025,
,8,1,4,1,-4,0,21,,train_dim1_1,28,30,,,,2,0,2,0,,,,,,,,,0,0,0,0,0,27,27,27,0,0,0,0,,,,,,,,,,,,,,,,,,,,,,,,,stimuli/alien_stimuli/21.png,,,,,,,,,,,,,,,,,,,,,,,,,,,,,stimuli/alien_stimuli/31.png,31,5,29,,,,,,,30,,,,,,,,912.1002247999995,912.1002247999995,912.1002247999995,912.1002247999995,912.1002247999995,left,1.9741334999998799,17,0,0,99,0.39999999999999997,-0.32,left,1.8899460000002364,,,,,910.5375260999999,912.1002247999995,0,-0.32,0.0,0.24,-0.32,0,0.12,0,-0.32,909.6203516999994,909.6203516999994,909.6203516999994,909.6203516999994,909.6203516999994,909.6203516999994,909.6203516999994,909.6203516999994,909.6034885999998,1.0196615000004385,return,0.8999476999997569,,,,,,,,,,,,,,,,,,,,,,,,,,,,,,,,,VGCZM2,train_x,blue_star,bottom_right,2025-05-07_16h40.56.323,HideSeek_v1,2022.2.5,59.953871491188025,
,8,1,4,1,-4,0,21,,train_dim1_1,28,30,,,,2,0,2,0,,,,,,,,,0,0,0,0,0,27,27,27,1,0,1,0,,,,,,,,,,,,,,,,,,,,,,,,,,,,,,,,,,,,,,,,,,,,,,,,,,,,,,,,,,,,,,,,30,,,,,,,,914.0743660999997,914.0743660999997,914.0743660999997,914.0743660999997,914.0743660999997,left,0.22678650000034395,17,0,0,99,0.31999999999999995,-0.32,left,0.1406053000000611,,,,,,,,,,,,,,,,,,,,,,,,,,,,,,,,,,,,,,,,,,,,,,,,,,,,,,,,,,,,VGCZM2,train_x,blue_star,bottom_right,2025-05-07_16h40.56.323,HideSeek_v1,2022.2.5,59.953871491188025,
,8,1,4,1,-4,0,21,,train_dim1_1,28,30,,,,2,0,2,0,,,,,,,,,0,0,0,0,0,27,27,27,2,0,2,0,,,,,,,,,,,,,,,,,,,,,,,,,,,,,,,,,,,,,,,,,,,,,,,,,,,,,,,,,,,,,,,,30,,,,,,,,914.3082162999999,914.3082162999999,914.3082162999999,914.3082162999999,914.3082162999999,left,0.20941830000083428,17,0,0,99,0.23999999999999994,-0.32,left,0.12303650000103517,,,,,,,,,,,,,,,,,,,,,,,,,,,,,,,,,,,,,,,,,,,,,,,,,,,,,,,,,,,,VGCZM2,train_x,blue_star,bottom_right,2025-05-07_16h40.56.323,HideSeek_v1,2022.2.5,59.953871491188025,
,8,1,4,1,-4,0,21,,train_dim1_1,28,30,,,,2,0,2,0,,,,,,,,,0,0,0,0,0,27,27,27,3,0,3,0,,,,,,,,,,,,,,,,,,,,,,,,,,,,,,,,,,,,,,,,,,,,,,,,,,,,,,,,,,,,,,,,30,,,,,,,,914.5244189999994,914.5244189999994,914.5244189999994,914.5244189999994,914.5244189999994,left,0.8937583999995695,17,0,0,99,0.15999999999999992,-0.32,left,0.8027262000005067,,,,,,,,,,,,,,,,,,,,,,,,,,,,,,,,,,,,,,,,,,,,,,,,,,,,,,,,,,,,VGCZM2,train_x,blue_star,bottom_right,2025-05-07_16h40.56.323,HideSeek_v1,2022.2.5,59.953871491188025,
,8,1,4,1,-4,0,21,,train_dim1_1,28,30,,,,2,0,2,0,,,,,,,,,0,0,0,0,0,27,27,27,4,0,4,0,,,,,,,,,,,,,,,,,,,,,,,,,,,,,,,,,,,,,,,,,,,,,,,,,,,,,,,,,,,,,,,,30,,,,,,,,915.4257269,915.4257269,915.4257269,915.4257269,915.4257269,return,0.22606830000040645,18,0,0,1,0.15999999999999992,-0.32,return,0.1415180000003602,5,-70,0.15999999999999992,-0.32,,,,,,,,,,,,,,,,,,,,,,,,,,,,,,,,,,,,,,,,,,,,,,,,,,,,,,,,VGCZM2,train_x,blue_star,bottom_right,2025-05-07_16h40.56.323,HideSeek_v1,2022.2.5,59.953871491188025,
,9,0,8,0,-1,0,51,,train_dim1_1,29,30,,,,2,0,2,0,,,,,,,,,0,0,0,0,0,28,28,28,0,0,0,0,,,,,,,,,,,,,,,,,,,,,,,,,stimuli/alien_stimuli/51.png,,,,,,,,,,,,,,,,,,,,,,,,,,,,,stimuli/alien_stimuli/21.png,21,8,30,,,,,,,30,,,,,,,,919.1535484999995,919.1535484999995,919.1535484999995,919.1535484999995,919.1535484999995,left,1.4412937000006423,18,0,0,99,0.48000000000000004,-0.4,left,1.3495903000002727,,,,,917.5934800999994,919.1535484999995,0.16,-0.32,0.0,0.32,-0.32,0.16,0.32,0.16,-0.32,917.2247154999995,917.2247154999995,917.2247154999995,917.2247154999995,917.2247154999995,917.2247154999995,917.2247154999995,917.2247154999995,917.2099973999998,0.4864495000001625,return,0.344113400000424,,,,,,,,,,,,,,,,,,,,,,,,,,,,,,,,,VGCZM2,train_x,blue_star,bottom_right,2025-05-07_16h40.56.323,HideSeek_v1,2022.2.5,59.953871491188025,
,9,0,8,0,-1,0,51,,train_dim1_1,29,30,,,,2,0,2,0,,,,,,,,,0,0,0,0,0,28,28,28,1,0,1,0,,,,,,,,,,,,,,,,,,,,,,,,,,,,,,,,,,,,,,,,,,,,,,,,,,,,,,,,,,,,,,,,30,,,,,,,,920.5950676000002,920.5950676000002,920.5950676000002,920.5950676000002,920.5950676000002,return,0.15894509999998263,19,0,0,1,0.48000000000000004,-0.4,return,0.0814726000007795,5,-71,0.48000000000000004,-0.4,,,,,,,,,,,,,,,,,,,,,,,,,,,,,,,,,,,,,,,,,,,,,,,,,,,,,,,,VGCZM2,train_x,blue_star,bottom_right,2025-05-07_16h40.56.323,HideSeek_v1,2022.2.5,59.953871491188025,
,7,2,2,2,-5,0,11,,train_dim1_1,30,30,,,,2,0,2,0,,,,,,,,,0,0,0,0,0,29,29,29,0,0,0,0,,,,,,,,,,,,,,,,,,,,,,,,,stimuli/alien_stimuli/11.png,,,,,,,,,,,,,,,,,,,,,,,,,,,,,stimuli/alien_stimuli/51.png,51,9,31,,,,,,,30,,,,,,,,924.8950675999995,924.8950675999995,924.8950675999995,924.8950675999995,924.8950675999995,left,1.454581999999391,19,0,0,99,0.32,-0.24,left,1.3573258000005808,,,,,923.3313307999997,924.8950675999995,0.48,-0.4,0.0,0.08,-0.4,0.48,0.52,0.48,-0.4,922.3179449999998,922.3179449999998,922.3179449999998,922.3179449999998,922.3179449999998,922.3179449999998,922.3179449999998,922.3179449999998,922.2974589000005,1.1193309000000227,return,0.9861763000008068,,,,,,,,,,,,,,,,,,,,,,,,,,,,,,,,,VGCZM2,train_x,blue_star,bottom_right,2025-05-07_16h40.56.323,HideSeek_v1,2022.2.5,59.953871491188025,
,7,2,2,2,-5,0,11,,train_dim1_1,30,30,,,,2,0,2,0,,,,,,,,,0,0,0,0,0,29,29,29,1,0,1,0,,,,,,,,,,,,,,,,,,,,,,,,,,,,,,,,,,,,,,,,,,,,,,,,,,,,,,,,,,,,,,,,30,,,,,,,,926.3513357000002,926.3513357000002,926.3513357000002,926.3513357000002,926.3513357000002,left,0.3428045000000566,19,0,0,99,0.24,-0.24,left,0.2670724000008704,,,,,,,,,,,,,,,,,,,,,,,,,,,,,,,,,,,,,,,,,,,,,,,,,,,,,,,,,,,,VGCZM2,train_x,blue_star,bottom_right,2025-05-07_16h40.56.323,HideSeek_v1,2022.2.5,59.953871491188025,
,7,2,2,2,-5,0,11,,train_dim1_1,30,30,,,,2,0,2,0,,,,,,,,,0,0,0,0,0,29,29,29,2,0,2,0,,,,,,,,,,,,,,,,,,,,,,,,,,,,,,,,,,,,,,,,,,,,,,,,,,,,,,,,,,,,,,,,30,,,,,,,,926.7016623,926.7016623,926.7016623,926.7016623,926.7016623,left,0.3766572000004089,19,0,0,99,0.15999999999999998,-0.24,left,0.29031810000105907,,,,,,,,,,,,,,,,,,,,,,,,,,,,,,,,,,,,,,,,,,,,,,,,,,,,,,,,,,,,VGCZM2,train_x,blue_star,bottom_right,2025-05-07_16h40.56.323,HideSeek_v1,2022.2.5,59.953871491188025,
,7,2,2,2,-5,0,11,,train_dim1_1,30,30,,,,2,0,2,0,,,,,,,,,0,0,0,0,0,29,29,29,3,0,3,0,,,,,,,,,,,,,,,,,,,,,,,,,,,,,,,,,,,,,,,,,,,,,,,,,,,,,,,,,,,,,,,,30,,,,,,,,927.0847643999996,927.0847643999996,927.0847643999996,927.0847643999996,927.0847643999996,left,0.3935716999994838,19,0,0,99,0.07999999999999997,-0.24,left,0.30928840000069613,,,,,,,,,,,,,,,,,,,,,,,,,,,,,,,,,,,,,,,,,,,,,,,,,,,,,,,,,,,,VGCZM2,train_x,blue_star,bottom_right,2025-05-07_16h40.56.323,HideSeek_v1,2022.2.5,59.953871491188025,
,7,2,2,2,-5,0,11,,train_dim1_1,30,30,,,,2,0,2,0,,,,,,,,,0,0,0,0,0,29,29,29,4,0,4,0,,,,,,,,,,,,,,,,,,,,,,,,,,,,,,,,,,,,,,,,,,,,,,,,,,,,,,,,,,,,,,,,30,,,,,,,,927.4845991000002,927.4845991000002,927.4845991000002,927.4845991000002,927.4845991000002,left,0.4098752999998396,19,0,0,99,-2.7755575615628914e-17,-0.24,left,0.32989440000073955,,,,,,,,,,,,,,,,,,,,,,,,,,,,,,,,,,,,,,,,,,,,,,,,,,,,,,,,,,,,VGCZM2,train_x,blue_star,bottom_right,2025-05-07_16h40.56.323,HideSeek_v1,2022.2.5,59.953871491188025,
,7,2,2,2,-5,0,11,,train_dim1_1,30,30,,,,2,0,2,0,,,,,,,,,0,0,0,0,0,29,29,29,5,0,5,0,,,,,,,,,,,,,,,,,,,,,,,,,,,,,,,,,,,,,,,,,,,,,,,,,,,,,,,,,,,,,,,,30,,,,,,,,927.9018612999998,927.9018612999998,927.9018612999998,927.9018612999998,927.9018612999998,return,0.2431453999997757,20,0,0,1,-2.7755575615628914e-17,-0.24,return,0.16659980000076757,5,-76,-2.7755575615628914e-17,-0.24,,,,,,,,,,,,,,,,,,,,,,,,,,,,,,,,,,,,,,,,,,,,,,,,,,,,,,,,VGCZM2,train_x,blue_star,bottom_right,2025-05-07_16h40.56.323,HideSeek_v1,2022.2.5,59.953871491188025,
,,,,,,,,,,,30,,,,2,0,2,0,,,,,,,,,,,,,,,,,,,,,,,,,,,,,,,,,,,,,,,,,,,,,,,,,,,,,,,,,,,,,,,,,,,,,,,,,,stimuli/alien_stimuli/11.png,11,7,32,21,0.7,0.8333333333333335,1,1,1,30,0,conditions/schedules/train_x_first/blue_star_00/bottom_right/inputTrain_2.1.xlsx,99,1,2,1,0,,,,,,,,,,,1,,,,,,,,,931.1046587000001,932.6655108999994,0,-0.24,0.0,0.4,-0.24,0,0.2,0,-0.24,929.7115506999999,929.7115506999999,929.7115506999999,929.7115506999999,929.7115506999999,929.7115506999999,929.7115506999999,929.7115506999999,929.7035394,1.5052365999999893,return,1.3744591000013315,0,0.9,0,1,20,,,,,,,,,,,,,,,,,,,,,,,,,,,,VGCZM2,train_x,blue_star,bottom_right,2025-05-07_16h40.56.323,HideSeek_v1,2022.2.5,59.953871491188025,
,,,,,,,,,,,,,,,3,0,3,0,0,0,0,0,,,,,,,,,,,,,,,,,,,,,,,,,,,,,,,conditions/schedules/train_x_first/blue_star_00/bottom_right/instructions/Slide17.png,conditions/schedules/train_x_first/blue_star_00/bottom_right/instructions/Audio17.wav,932.6655108999994,932.6556733999996,17,"[6.292467999999644, 18.514674500000183, 16.742624599999544, 19.77430639999966, 4.790178600000218, 4.803746800000226, 6.186261900000318, 11.690392200000133, 6.324405900000784, 7.31750379999994, 10.038065800000368, 13.002613700000438, 17.78061660000003, 14.044855300000563, 30.78722430000016, 21.425113499999497, 68.59476170000016]","[0.00021319999996194383, 0.017189799999869138, 0.00021269999979267595, 0.013940400000137743, 0.03274139999939507, 0.06443880000006175, 0.04751880000003439, 0.05220090000057098, 0.11144870000043738, 0.06297489999997197, 0.04788619999999355, 13.00262070000008, 17.780623899999227, 14.044861899999887, 0.03672889999961626, 21.425120299999435, 68.59477030000016]",0,,,,,,,,,,,,,,,,,,,,,,,,,,,,,,,,,,,,,,,,,,,,,,,,,,,,,,,,,,,,,,,,,,,,,,,,,,,,,,,,,,,,,,,,,,,,,,,,,,,,,,,,,,,,,,,,,,,,,,,,,,,,VGCZM2,train_x,blue_star,bottom_right,2025-05-07_16h40.56.323,HideSeek_v1,2022.2.5,59.953871491188025,
,,,,,,,,,,,,,,,3,0,3,0,1,0,1,0,,,,,,,,,,,,,,,,,,,,,,,,,,,,,,,conditions/schedules/train_x_first/blue_star_00/bottom_right/instructions/Slide18.png,conditions/schedules/train_x_first/blue_star_00/bottom_right/instructions/Audio18.wav,1001.3322245999998,1001.3297103999998,18,"[6.292467999999644, 18.514674500000183, 16.742624599999544, 19.77430639999966, 4.790178600000218, 4.803746800000226, 6.186261900000318, 11.690392200000133, 6.324405900000784, 7.31750379999994, 10.038065800000368, 13.002613700000438, 17.78061660000003, 14.044855300000563, 30.78722430000016, 21.425113499999497, 68.59476170000016, 10.336569400000371]","[0.00021319999996194383, 0.017189799999869138, 0.00021269999979267595, 0.013940400000137743, 0.03274139999939507, 0.06443880000006175, 0.04751880000003439, 0.05220090000057098, 0.11144870000043738, 0.06297489999997197, 0.04788619999999355, 13.00262070000008, 17.780623899999227, 14.044861899999887, 0.03672889999961626, 21.425120299999435, 0.030560899999727553, 10.336576099999547]",0,,,,,,,,,,,,,,,,,,,,,,,,,,,,,,,,,,,,,,,,,,,,,,,,,,,,,,,,,,,,,,,,,,,,,,,,,,,,,,,,,,,,,,,,,,,,,,,,,,,,,,,,,,,,,,,,,,,,,,,,,,,,VGCZM2,train_x,blue_star,bottom_right,2025-05-07_16h40.56.323,HideSeek_v1,2022.2.5,59.953871491188025,
,,,,,,,,,,,,,,,3,0,3,0,2,0,2,0,,,,,,,,,,,,,,,,,,,,,,,,,,,,,,,conditions/schedules/train_x_first/blue_star_00/bottom_right/instructions/Slide19.png,conditions/schedules/train_x_first/blue_star_00/bottom_right/instructions/Audio19.wav,1011.7263505999999,1011.7213890000003,19,"[6.292467999999644, 18.514674500000183, 16.742624599999544, 19.77430639999966, 4.790178600000218, 4.803746800000226, 6.186261900000318, 11.690392200000133, 6.324405900000784, 7.31750379999994, 10.038065800000368, 13.002613700000438, 17.78061660000003, 14.044855300000563, 30.78722430000016, 21.425113499999497, 68.59476170000016, 10.336569400000371, 12.286567699999978]","[0.00021319999996194383, 0.017189799999869138, 0.00021269999979267595, 0.013940400000137743, 0.03274139999939507, 0.06443880000006175, 0.04751880000003439, 0.05220090000057098, 0.11144870000043738, 0.06297489999997197, 0.04788619999999355, 13.00262070000008, 17.780623899999227, 14.044861899999887, 0.03672889999961626, 21.425120299999435, 0.030560899999727553, 0.000273600000582519, 12.286574700000529]",0,,,,,,,,,,,,,,,,,,,,,,,,,,,,,,,,,,,,,,,,,,,,,,,,,,,,,,,,,,,,,,,,,,,,,,,,,,,,,,,,,,,,,,,,,,,,,,,,,,,,,,,,,,,,,,,,,,,,,,,,,,,,VGCZM2,train_x,blue_star,bottom_right,2025-05-07_16h40.56.323,HideSeek_v1,2022.2.5,59.953871491188025,
,,,,,,,,,,,,,,,3,0,3,0,3,0,3,0,,,,,,,,,,,,,,,,,,,,,,,,,,,,,,,conditions/schedules/train_x_first/blue_star_00/bottom_right/instructions/Slide20.png,conditions/schedules/train_x_first/blue_star_00/bottom_right/instructions/Audio20.wav,1024.0838863,1024.0817616,20,"[6.292467999999644, 18.514674500000183, 16.742624599999544, 19.77430639999966, 4.790178600000218, 4.803746800000226, 6.186261900000318, 11.690392200000133, 6.324405900000784, 7.31750379999994, 10.038065800000368, 13.002613700000438, 17.78061660000003, 14.044855300000563, 30.78722430000016, 21.425113499999497, 68.59476170000016, 10.336569400000371, 12.286567699999978, 5.8170416999992085]","[0.00021319999996194383, 0.017189799999869138, 0.00021269999979267595, 0.013940400000137743, 0.03274139999939507, 0.06443880000006175, 0.04751880000003439, 0.05220090000057098, 0.11144870000043738, 0.06297489999997197, 0.04788619999999355, 13.00262070000008, 17.780623899999227, 14.044861899999887, 0.03672889999961626, 21.425120299999435, 0.030560899999727553, 0.000273600000582519, 12.286574700000529, 5.817048399999294]",0,,,,,,,,,,,,,,,,,,,,,,,,,,,,,,,,,,,,,,,,,,,,,,,,,,,,,,,,,,,,,,,,,,,,,,,,,,,,,,,,,,,,,,,,,,,,,,,,,,,,,,,,,,,,,,,,,,,,,,,,,,,,VGCZM2,train_x,blue_star,bottom_right,2025-05-07_16h40.56.323,HideSeek_v1,2022.2.5,59.953871491188025,
1,5,3,5,8,0,5,66,2,instr_dim1_2,,,,,,3,0,3,0,,,,,0,0,0,0,,,,,,,,,,,,,,,,,,,,,,,,,,,,,,,,,,,,,stimuli/alien_stimuli/66.png,conditions/schedules/train_x_first/blue_star_00/bottom_right/inputInstr_2.xlsx,stimuli/alien_stimuli/66.png,1029.9791279,1029.9791279,1029.9791279,1029.9791279,1029.9701003000005,return,10.997777000000497,"[-0.16, -0.08, 0, 0.08, 0.16, 0.24, 0.32, 0.4, 0.48, 0.56]","[-0.4, -0.32, -0.24, -0.16, -0.08, 0, 0.08, 0.16, 0.24, 0.32]",8,3,5,5,0.4,0.0,1041.1378896999995,1041.1378896999995,1041.1378896999995,1041.1378896999995,1041.1378896999995,1041.1378896999995,1041.1378896999995,1041.1290373000006,8.257853000000068,return,8.088999000000513,stimuli/alien_stimuli/66.png,66,5,1,,,,,,,,,,,,,,,,,,,,,,,,,,,,,,,,,,,,,,,,,,,,,,,,,,,,,,,,,,,,,,,,,,,,,,,,,,,,,,,,,,,,,,,,,VGCZM2,train_x,blue_star,bottom_right,2025-05-07_16h40.56.323,HideSeek_v1,2022.2.5,59.953871491188025,
,,,,,,,,,,,30,,,,3,0,3,0,,,,,,,,,,,,,,,,,,,,,,,,,,,,,,,,,,,,,,,,,,,,,,,,,,,,,,,,,,,,,,,,,,,,,,,,,,,,,,21,0.7,0.8333333333333335,1,99,2,30,0,conditions/schedules/train_x_first/blue_star_00/bottom_right/inputTrain_2.1.xlsx,99,1,2,1,0,,,,,,,,,,,,,,,,,,,,,,,,,,,,,,,,,,,,,,,,,,,,,,,,,,,,,,,,,,,,,,,,,,,,,,,,,,,VGCZM2,train_x,blue_star,bottom_right,2025-05-07_16h40.56.323,HideSeek_v1,2022.2.5,59.953871491188025,
