trialInstr,x_fixStart,y_fixStart,x_corrSteps,y_corrSteps,x_nrSteps,y_nrSteps,alienID,trialLength,version,trialTrain,praclen,testlen,trial_label,break_on_off,beforeExpLoop.thisRepN,beforeExpLoop.thisTrialN,beforeExpLoop.thisN,beforeExpLoop.thisIndex,mini_instr_trials.thisRepN,mini_instr_trials.thisTrialN,mini_instr_trials.thisN,mini_instr_trials.thisIndex,instrLoop.thisRepN,instrLoop.thisTrialN,instrLoop.thisN,instrLoop.thisIndex,repeat_prac.thisRepN,repeat_prac.thisTrialN,repeat_prac.thisN,repeat_prac.thisIndex,trainLoop.thisRepN,trainLoop.thisTrialN,trainLoop.thisN,trainLoop.thisIndex,moveLoop_train.thisRepN,moveLoop_train.thisTrialN,moveLoop_train.thisN,moveLoop_train.thisIndex,experiment.thisRepN,experiment.thisTrialN,experiment.thisN,experiment.thisIndex,moveLoop_test.thisRepN,moveLoop_test.thisTrialN,moveLoop_test.thisN,moveLoop_test.thisIndex,mini_instr2_trials.thisRepN,mini_instr2_trials.thisTrialN,mini_instr2_trials.thisN,mini_instr2_trials.thisIndex,start_all_time,url,slideStim,audioStim,slides.started,sounds.started,nextButton.numClicks,nextButton.timesOn,nextButton.timesOff,prev_but.numClicks,prev_but.timesOn,prev_but.timesOff,alienStim,instrFile,alienStim_instr,gridImage_instr.started,startPos_3.started,key_instr.started,alienImage_3.started,sounds_1.started,key_instr.keys,key_instr.rt,all_x,all_y,FBy_corrSteps,FBy_fixStart,FBx_corrSteps,FBx_fixStart,FBy_pathSize_check,FBx_pathSize_check,gridImage_9.started,alienImageFB_3.started,startPosFB_3.started,keyFB_3.started,pathLine_ydir_2.started,pathLine_xdir_2.started,alienFace_3.started,sounds_2.started,RTFB_instr,keyFB_3.keys,keyFB_3.rt,draw_alienStim,draw_alienID,test_x,nrepcount,perfthres,percthres,earlierperf,earlystop,nextPrac,fileidx,praclen,saveACC_train,pracFile,nextPrac_train,addNrep,fileidx_endr,repExp,showearly,gridImage_4.started,startPos.started,movePos.started,key_resp.started,alienImage.started,wLy_dir,wLx_dir,x_movePos,y_movePos,buttonPress_train,RTchoice_train,cumAcctrain,aCorr,saveACC_choice,corrAns,x_movePos_end,y_movePos_end,key_resp.keys,key_resp.rt,text_2.started,text_2.stopped,aft_x_corrPos,aft_y_corrPos,y_pathSize_check,x_pathSize_check,y_pathdirY,x_pathdirY,x_pathdirX,x_corrPos,y_corrPos,gridImage_6.started,alienImageFB_2.started,startPosFB_2.started,movePosFB_2.started,keyFB_2.started,pathLine_xdir.started,pathLine_ydir.started,alienFace.started,sounds_4.started,RT_FBtrain,keyFB_2.keys,keyFB_2.rt,saveACC_pre,ACC,within_saveACC_train,earlystop_wloop,cumAcctrain_check,gridImage_3.started,alienImage_test.started,startPos_test.started,movePos_test.started,key_resp_test.started,wLy_dir_test,wLx_dir_test,buttonPress_test,RTchoice_test,cumAcctest,corrAns_test,key_resp_test.keys,key_resp_test.rt,text_3.started,text_3.stopped,total_time,end_all_time,key_resp_3.keys,slides_2.started,sounds_3.started,nextButton_2.numClicks,nextButton_2.timesOn,nextButton_2.timesOff,prev_but_2.numClicks,prev_but_2.timesOn,prev_but_2.timesOff,bye.started,participant,train_first,00_coordinate,starting corner,date,expName,psychopyVersion,frameRate,
,,,,,,,,,,,,,,,0,0,0,0,0,0,0,0,,,,,,,,,,,,,,,,,,,,,,,,,,,,,start_all_time,testround,conditions/schedules/train_y_first/red_square_00/bottom_left/instructions/Slide1.png,conditions/schedules/train_y_first/red_square_00/bottom_left/instructions/Audio1.wav,948.1841059997678,948.1362193871289,1,[2.9817749997600913],[2.981787099968642],0,,,,,,,,,,,,,,,,,,,,,,,,,,,,,,,,,,,,,,,,,,,,,,,,,,,,,,,,,,,,,,,,,,,,,,,,,,,,,,,,,,,,,,,,,,,,,,,,,,,,,,,,,,,,,,,,,,,,,,,,,,,,VGD5VN,train_y,red_square,bottom_left,2025-04-25_16h01.59.854,HideSeek_v1,2022.2.5,60.01093406147043,
,,,,,,,,,,,,,,,0,0,0,0,1,0,1,0,,,,,,,,,,,,,,,,,,,,,,,,,,,,,,,conditions/schedules/train_y_first/red_square_00/bottom_left/instructions/Slide2.png,conditions/schedules/train_y_first/red_square_00/bottom_left/instructions/Audio2.wav,951.1866183001548,951.1872318000533,2,"[2.9817749997600913, 18.79787339968607]","[2.981787099968642, 18.79788149986416]",0,,,,,,,,,,,,,,,,,,,,,,,,,,,,,,,,,,,,,,,,,,,,,,,,,,,,,,,,,,,,,,,,,,,,,,,,,,,,,,,,,,,,,,,,,,,,,,,,,,,,,,,,,,,,,,,,,,,,,,,,,,,,VGD5VN,train_y,red_square,bottom_left,2025-04-25_16h01.59.854,HideSeek_v1,2022.2.5,60.01093406147043,
,,,,,,,,,,,,,,,0,0,0,0,2,0,2,0,,,,,,,,,,,,,,,,,,,,,,,,,,,,,,,conditions/schedules/train_y_first/red_square_00/bottom_left/instructions/Slide3.png,conditions/schedules/train_y_first/red_square_00/bottom_left/instructions/Audio3.wav,970.0636200001463,970.0531786000356,3,"[2.9817749997600913, 18.79787339968607, 16.517787999939173]","[2.981787099968642, 18.79788149986416, 16.517795599997044]",0,,,,,,,,,,,,,,,,,,,,,,,,,,,,,,,,,,,,,,,,,,,,,,,,,,,,,,,,,,,,,,,,,,,,,,,,,,,,,,,,,,,,,,,,,,,,,,,,,,,,,,,,,,,,,,,,,,,,,,,,,,,,VGD5VN,train_y,red_square,bottom_left,2025-04-25_16h01.59.854,HideSeek_v1,2022.2.5,60.01093406147043,
,,,,,,,,,,,,,,,0,0,0,0,3,0,3,0,,,,,,,,,,,,,,,,,,,,,,,,,,,,,,,conditions/schedules/train_y_first/red_square_00/bottom_left/instructions/Slide4.png,conditions/schedules/train_y_first/red_square_00/bottom_left/instructions/Audio4.wav,986.6585971000604,986.6506329001859,4,"[2.9817749997600913, 18.79787339968607, 16.517787999939173, 19.322048400063068]","[2.981787099968642, 18.79788149986416, 0.03562380000948906, 19.322055799886584]",0,,,,,,,,,,,,,,,,,,,,,,,,,,,,,,,,,,,,,,,,,,,,,,,,,,,,,,,,,,,,,,,,,,,,,,,,,,,,,,,,,,,,,,,,,,,,,,,,,,,,,,,,,,,,,,,,,,,,,,,,,,,,VGD5VN,train_y,red_square,bottom_left,2025-04-25_16h01.59.854,HideSeek_v1,2022.2.5,60.01093406147043,
,,,,,,,,,,,,,,,0,0,0,0,4,0,4,0,,,,,,,,,,,,,,,,,,,,,,,,,,,,,,,conditions/schedules/train_y_first/red_square_00/bottom_left/instructions/Slide5.png,conditions/schedules/train_y_first/red_square_00/bottom_left/instructions/Audio5.wav,1006.0474835000932,1006.0498263002373,5,"[2.9817749997600913, 18.79787339968607, 16.517787999939173, 19.322048400063068, 4.320396399591118]","[2.981787099968642, 18.79788149986416, 0.03562380000948906, 0.014146899804472923, 4.320404300000519]",0,,,,,,,,,,,,,,,,,,,,,,,,,,,,,,,,,,,,,,,,,,,,,,,,,,,,,,,,,,,,,,,,,,,,,,,,,,,,,,,,,,,,,,,,,,,,,,,,,,,,,,,,,,,,,,,,,,,,,,,,,,,,VGD5VN,train_y,red_square,bottom_left,2025-04-25_16h01.59.854,HideSeek_v1,2022.2.5,60.01093406147043,
,,,,,,,,,,,,,,,0,0,0,0,5,0,5,0,,,,,,,,,,,,,,,,,,,,,,,,,,,,,,,conditions/schedules/train_y_first/red_square_00/bottom_left/instructions/Slide6.png,conditions/schedules/train_y_first/red_square_00/bottom_left/instructions/Audio6.wav,1010.4192300997674,1010.4202720601112,6,"[2.9817749997600913, 18.79787339968607, 16.517787999939173, 19.322048400063068, 4.320396399591118, 4.919630900025368]","[2.981787099968642, 18.79788149986416, 0.03562380000948906, 0.014146899804472923, 0.04943179991096258, 4.919638500083238]",0,,,,,,,,,,,,,,,,,,,,,,,,,,,,,,,,,,,,,,,,,,,,,,,,,,,,,,,,,,,,,,,,,,,,,,,,,,,,,,,,,,,,,,,,,,,,,,,,,,,,,,,,,,,,,,,,,,,,,,,,,,,,VGD5VN,train_y,red_square,bottom_left,2025-04-25_16h01.59.854,HideSeek_v1,2022.2.5,60.01093406147043,
,,,,,,,,,,,,,,,0,0,0,0,6,0,6,0,,,,,,,,,,,,,,,,,,,,,,,,,,,,,,,conditions/schedules/train_y_first/red_square_00/bottom_left/instructions/Slide7.png,conditions/schedules/train_y_first/red_square_00/bottom_left/instructions/Audio7.wav,1015.3898876998574,1015.3911968599074,7,"[2.9817749997600913, 18.79787339968607, 16.517787999939173, 19.322048400063068, 4.320396399591118, 4.919630900025368, 5.569856599904597]","[2.981787099968642, 18.79788149986416, 0.03562380000948906, 0.014146899804472923, 0.04943179991096258, 0.03200769983232021, 5.569864499848336]",0,,,,,,,,,,,,,,,,,,,,,,,,,,,,,,,,,,,,,,,,,,,,,,,,,,,,,,,,,,,,,,,,,,,,,,,,,,,,,,,,,,,,,,,,,,,,,,,,,,,,,,,,,,,,,,,,,,,,,,,,,,,,VGD5VN,train_y,red_square,bottom_left,2025-04-25_16h01.59.854,HideSeek_v1,2022.2.5,60.01093406147043,
,,,,,,,,,,,,,,,0,0,0,0,7,0,7,0,,,,,,,,,,,,,,,,,,,,,,,,,,,,,,,conditions/schedules/train_y_first/red_square_00/bottom_left/instructions/Slide8.png,conditions/schedules/train_y_first/red_square_00/bottom_left/instructions/Audio8.wav,1021.0168661000207,1021.0124918598682,8,"[2.9817749997600913, 18.79787339968607, 16.517787999939173, 19.322048400063068, 4.320396399591118, 4.919630900025368, 5.569856599904597, 11.56942919967696]","[2.981787099968642, 18.79788149986416, 0.03562380000948906, 0.014146899804472923, 0.04943179991096258, 0.03200769983232021, 0.04763669986277819, 11.569437799975276]",0,,,,,,,,,,,,,,,,,,,,,,,,,,,,,,,,,,,,,,,,,,,,,,,,,,,,,,,,,,,,,,,,,,,,,,,,,,,,,,,,,,,,,,,,,,,,,,,,,,,,,,,,,,,,,,,,,,,,,,,,,,,,VGD5VN,train_y,red_square,bottom_left,2025-04-25_16h01.59.854,HideSeek_v1,2022.2.5,60.01093406147043,
,,,,,,,,,,,,,,,0,0,0,0,8,0,8,0,,,,,,,,,,,,,,,,,,,,,,,,,,,,,,,conditions/schedules/train_y_first/red_square_00/bottom_left/instructions/Slide9.png,conditions/schedules/train_y_first/red_square_00/bottom_left/instructions/Audio9.wav,1032.657648500055,1032.6553365001455,9,"[2.9817749997600913, 18.79787339968607, 16.517787999939173, 19.322048400063068, 4.320396399591118, 4.919630900025368, 5.569856599904597, 11.56942919967696, 5.8342373999767005]","[2.981787099968642, 18.79788149986416, 0.03562380000948906, 0.014146899804472923, 0.04943179991096258, 0.03200769983232021, 0.04763669986277819, 0.04674030002206564, 5.834246100392193]",0,,,,,,,,,,,,,,,,,,,,,,,,,,,,,,,,,,,,,,,,,,,,,,,,,,,,,,,,,,,,,,,,,,,,,,,,,,,,,,,,,,,,,,,,,,,,,,,,,,,,,,,,,,,,,,,,,,,,,,,,,,,,VGD5VN,train_y,red_square,bottom_left,2025-04-25_16h01.59.854,HideSeek_v1,2022.2.5,60.01093406147043,
,,,,,,,,,,,,,,,0,0,0,0,9,0,9,0,,,,,,,,,,,,,,,,,,,,,,,,,,,,,,,conditions/schedules/train_y_first/red_square_00/bottom_left/instructions/Slide10.png,conditions/schedules/train_y_first/red_square_00/bottom_left/instructions/Audio10.wav,1038.529714900069,1038.5269396200777,10,"[2.9817749997600913, 18.79787339968607, 16.517787999939173, 19.322048400063068, 4.320396399591118, 4.919630900025368, 5.569856599904597, 11.56942919967696, 5.8342373999767005, 6.966800400055945]","[2.981787099968642, 18.79788149986416, 0.03562380000948906, 0.014146899804472923, 0.04943179991096258, 0.03200769983232021, 0.04763669986277819, 0.04674030002206564, 0.0778095000423491, 6.966808000113815]",0,,,,,,,,,,,,,,,,,,,,,,,,,,,,,,,,,,,,,,,,,,,,,,,,,,,,,,,,,,,,,,,,,,,,,,,,,,,,,,,,,,,,,,,,,,,,,,,,,,,,,,,,,,,,,,,,,,,,,,,,,,,,VGD5VN,train_y,red_square,bottom_left,2025-04-25_16h01.59.854,HideSeek_v1,2022.2.5,60.01093406147043,
,,,,,,,,,,,,,,,0,0,0,0,10,0,10,0,,,,,,,,,,,,,,,,,,,,,,,,,,,,,,,conditions/schedules/train_y_first/red_square_00/bottom_left/instructions/Slide11.png,conditions/schedules/train_y_first/red_square_00/bottom_left/instructions/Audio11.wav,1045.5358477998525,1045.5325734199025,11,"[2.9817749997600913, 18.79787339968607, 16.517787999939173, 19.322048400063068, 4.320396399591118, 4.919630900025368, 5.569856599904597, 11.56942919967696, 5.8342373999767005, 6.966800400055945, 10.119231699965894]","[2.981787099968642, 18.79788149986416, 0.03562380000948906, 0.014146899804472923, 0.04943179991096258, 0.03200769983232021, 0.04763669986277819, 0.04674030002206564, 0.0778095000423491, 0.1105975997634232, 10.119239199906588]",0,,,,,,,,,,,,,,,,,,,,,,,,,,,,,,,,,,,,,,,,,,,,,,,,,,,,,,,,,,,,,,,,,,,,,,,,,,,,,,,,,,,,,,,,,,,,,,,,,,,,,,,,,,,,,,,,,,,,,,,,,,,,VGD5VN,train_y,red_square,bottom_left,2025-04-25_16h01.59.854,HideSeek_v1,2022.2.5,60.01093406147043,
,,,,,,,,,,,,,,,0,0,0,0,11,0,11,0,,,,,,,,,,,,,,,,,,,,,,,,,,,,,,,conditions/schedules/train_y_first/red_square_00/bottom_left/instructions/Slide12.png,conditions/schedules/train_y_first/red_square_00/bottom_left/instructions/Audio12.wav,1055.723328200169,1055.7247196002863,12,"[2.9817749997600913, 18.79787339968607, 16.517787999939173, 19.322048400063068, 4.320396399591118, 4.919630900025368, 5.569856599904597, 11.56942919967696, 5.8342373999767005, 6.966800400055945, 10.119231699965894, 14.060287000145763]","[2.981787099968642, 18.79788149986416, 0.03562380000948906, 0.014146899804472923, 0.04943179991096258, 0.03200769983232021, 0.04763669986277819, 0.04674030002206564, 0.0778095000423491, 0.1105975997634232, 0.0655914000235498, 14.060294900089502]",0,,,,,,,,,,,,,,,,,,,,,,,,,,,,,,,,,,,,,,,,,,,,,,,,,,,,,,,,,,,,,,,,,,,,,,,,,,,,,,,,,,,,,,,,,,,,,,,,,,,,,,,,,,,,,,,,,,,,,,,,,,,,VGD5VN,train_y,red_square,bottom_left,2025-04-25_16h01.59.854,HideSeek_v1,2022.2.5,60.01093406147043,
1,2,3,2,8,0,5,11,2,instr_dim1_1,,,,,,0,0,0,0,,,,,0,0,0,0,,,,,,,,,,,,,,,,,,,,,,,,,,,,,,,,,,,,,stimuli/alien_stimuli/11.png,conditions/schedules/train_y_first/red_square_00/bottom_left/inputInstr_1.xlsx,stimuli/alien_stimuli/11.png,1069.8888920000754,1069.8888920000754,1069.8888920000754,1069.8888920000754,1069.8862626801247,return,9.140508900396526,"[-0.16, -0.08, 0, 0.08, 0.16, 0.24, 0.32, 0.4, 0.48, 0.56]","[-0.4, -0.32, -0.24, -0.16, -0.08, 0, 0.08, 0.16, 0.24, 0.32]",8,3,2,2,0.4,0.0,1079.1998828002252,1079.1998828002252,1079.1998828002252,1079.1998828002252,1079.1998828002252,1079.1998828002252,1079.1998828002252,1079.193910160009,5.33892560005188,return,5.177049100399017,stimuli/alien_stimuli/11.png,11,2,1,,,,,,,,,,,,,,,,,,,,,,,,,,,,,,,,,,,,,,,,,,,,,,,,,,,,,,,,,,,,,,,,,,,,,,,,,,,,,,,,,,,,,,,,,VGD5VN,train_y,red_square,bottom_left,2025-04-25_16h01.59.854,HideSeek_v1,2022.2.5,60.01093406147043,
,,,,,,,,,,,30,,,,0,0,0,0,,,,,,,,,,,,,,,,,,,,,,,,,,,,,,,,,,,,,,,,,,,,,,,,,,,,,,,,,,,,,,,,,,,,,,,,,,,,,,21,0.7,0,0,99,1,30,0,conditions/schedules/train_y_first/red_square_00/bottom_left/inputTrain_1.1.xlsx,99,1,1,1,0,,,,,,,,,,,,,,,,,,,,,,,,,,,,,,,,,,,,,,,,,,,,,,,,,,,,,,,,,,,,,,,,,,,,,,,,,,,VGD5VN,train_y,red_square,bottom_left,2025-04-25_16h01.59.854,HideSeek_v1,2022.2.5,60.01093406147043,
,,,,,,,,,,,,,,,1,0,1,0,0,0,0,0,,,,,,,,,,,,,,,,,,,,,,,,,,,,,,,conditions/schedules/train_y_first/red_square_00/bottom_left/instructions/Slide13.png,conditions/schedules/train_y_first/red_square_00/bottom_left/instructions/Audio13.wav,1084.5301998001523,1084.5317459603773,13,"[2.9817749997600913, 18.79787339968607, 16.517787999939173, 19.322048400063068, 4.320396399591118, 4.919630900025368, 5.569856599904597, 11.56942919967696, 5.8342373999767005, 6.966800400055945, 10.119231699965894, 14.060287000145763, 17.630235200282186]","[2.981787099968642, 18.79788149986416, 0.03562380000948906, 0.014146899804472923, 0.04943179991096258, 0.03200769983232021, 0.04763669986277819, 0.04674030002206564, 0.0778095000423491, 0.1105975997634232, 0.0655914000235498, 14.060294900089502, 17.630242899991572]",0,,,,,,,,,,,,,,,,,,,,,,,,,,,,,,,,,,,,,,,,,,,,,,,,,,,,,,,,,,,,,,,,,,,,,,,,,,,,,,,,,,,,,,,,,,,,,,,,,,,,,,,,,,,,,,,,,,,,,,,,,,,,VGD5VN,train_y,red_square,bottom_left,2025-04-25_16h01.59.854,HideSeek_v1,2022.2.5,60.01093406147043,
,,,,,,,,,,,,,,,1,0,1,0,1,0,1,0,,,,,,,,,,,,,,,,,,,,,,,,,,,,,,,conditions/schedules/train_y_first/red_square_00/bottom_left/instructions/Slide14.png,conditions/schedules/train_y_first/red_square_00/bottom_left/instructions/Audio14.wav,1102.2346975998953,1102.2296943003312,14,"[2.9817749997600913, 18.79787339968607, 16.517787999939173, 19.322048400063068, 4.320396399591118, 4.919630900025368, 5.569856599904597, 11.56942919967696, 5.8342373999767005, 6.966800400055945, 10.119231699965894, 14.060287000145763, 17.630235200282186, 16.77310230024159]","[2.981787099968642, 18.79788149986416, 0.03562380000948906, 0.014146899804472923, 0.04943179991096258, 0.03200769983232021, 0.04763669986277819, 0.04674030002206564, 0.0778095000423491, 0.1105975997634232, 0.0655914000235498, 14.060294900089502, 0.0002164999023079872, 16.773110299836844]",0,,,,,,,,,,,,,,,,,,,,,,,,,,,,,,,,,,,,,,,,,,,,,,,,,,,,,,,,,,,,,,,,,,,,,,,,,,,,,,,,,,,,,,,,,,,,,,,,,,,,,,,,,,,,,,,,,,,,,,,,,,,,VGD5VN,train_y,red_square,bottom_left,2025-04-25_16h01.59.854,HideSeek_v1,2022.2.5,60.01093406147043,
2,0,3,0,3,0,0,16,2,instr_dim1_1,,,,,,1,0,1,0,,,,,0,0,0,0,,,,,,,,,,,,,,,,,,,,,,,,,,,,,,,,,,,,,stimuli/alien_stimuli/16.png,conditions/schedules/train_y_first/red_square_00/bottom_left/inputInstr_1.xlsx,stimuli/alien_stimuli/16.png,1119.1103106997907,1119.1103106997907,1119.1103106997907,1119.1103106997907,1119.1105214801619,return,6.507244799751788,"[-0.16, -0.08, 0, 0.08, 0.16, 0.24, 0.32, 0.4, 0.48, 0.56]","[-0.4, -0.32, -0.24, -0.16, -0.08, 0, 0.08, 0.16, 0.24, 0.32]",3,3,0,0,0.0,0.0,1125.7798656998202,1125.7798656998202,1125.7798656998202,1125.7798656998202,1125.7798656998202,1125.7798656998202,1125.7798656998202,1125.766088420339,6.32274470012635,return,6.158718999940902,stimuli/alien_stimuli/16.png,16,0,2,,,,,,,,,,,,,,,,,,,,,,,,,,,,,,,,,,,,,,,,,,,,,,,,,,,,,,,,,,,,,,,,,,,,,,,,,,,,,,,,,,,,,,,,,VGD5VN,train_y,red_square,bottom_left,2025-04-25_16h01.59.854,HideSeek_v1,2022.2.5,60.01093406147043,
,,,,,,,,,,,30,,,,1,0,1,0,,,,,,,,,,,,,,,,,,,,,,,,,,,,,,,,,,,,,,,,,,,,,,,,,,,,,,,,,,,,,,,,,,,,,,,,,,,,,,21,0.7,0,0,99,1,30,0,conditions/schedules/train_y_first/red_square_00/bottom_left/inputTrain_1.1.xlsx,99,1,1,1,0,,,,,,,,,,,,,,,,,,,,,,,,,,,,,,,,,,,,,,,,,,,,,,,,,,,,,,,,,,,,,,,,,,,,,,,,,,,VGD5VN,train_y,red_square,bottom_left,2025-04-25_16h01.59.854,HideSeek_v1,2022.2.5,60.01093406147043,
,,,,,,,,,,,,,,,2,0,2,0,0,0,0,0,,,,,,,,,,,,,,,,,,,,,,,,,,,,,,,conditions/schedules/train_y_first/red_square_00/bottom_left/instructions/Slide15.png,conditions/schedules/train_y_first/red_square_00/bottom_left/instructions/Audio15.wav,1132.1243651001714,1132.121304300148,15,"[2.9817749997600913, 18.79787339968607, 16.517787999939173, 19.322048400063068, 4.320396399591118, 4.919630900025368, 5.569856599904597, 11.56942919967696, 5.8342373999767005, 6.966800400055945, 10.119231699965894, 14.060287000145763, 17.630235200282186, 16.77310230024159, 43.13002650020644]","[2.981787099968642, 18.79788149986416, 0.03562380000948906, 0.014146899804472923, 0.04943179991096258, 0.03200769983232021, 0.04763669986277819, 0.04674030002206564, 0.0778095000423491, 0.1105975997634232, 0.0655914000235498, 14.060294900089502, 0.0002164999023079872, 16.773110299836844, 43.130034499801695]",0,,,,,,,,,,,,,,,,,,,,,,,,,,,,,,,,,,,,,,,,,,,,,,,,,,,,,,,,,,,,,,,,,,,,,,,,,,,,,,,,,,,,,,,,,,,,,,,,,,,,,,,,,,,,,,,,,,,,,,,,,,,,VGD5VN,train_y,red_square,bottom_left,2025-04-25_16h01.59.854,HideSeek_v1,2022.2.5,60.01093406147043,
,,,,,,,,,,,,,,,2,0,2,0,1,0,1,0,,,,,,,,,,,,,,,,,,,,,,,,,,,,,,,conditions/schedules/train_y_first/red_square_00/bottom_left/instructions/Slide16.png,conditions/schedules/train_y_first/red_square_00/bottom_left/instructions/Audio16.wav,1175.3279073000886,1175.3237813003361,16,"[2.9817749997600913, 18.79787339968607, 16.517787999939173, 19.322048400063068, 4.320396399591118, 4.919630900025368, 5.569856599904597, 11.56942919967696, 5.8342373999767005, 6.966800400055945, 10.119231699965894, 14.060287000145763, 17.630235200282186, 16.77310230024159, 43.13002650020644, 22.461330899968743]","[2.981787099968642, 18.79788149986416, 0.03562380000948906, 0.014146899804472923, 0.04943179991096258, 0.03200769983232021, 0.04763669986277819, 0.04674030002206564, 0.0778095000423491, 0.1105975997634232, 0.0655914000235498, 14.060294900089502, 0.0002164999023079872, 16.773110299836844, 0.06451609963551164, 22.46133829979226]",0,,,,,,,,,,,,,,,,,,,,,,,,,,,,,,,,,,,,,,,,,,,,,,,,,,,,,,,,,,,,,,,,,,,,,,,,,,,,,,,,,,,,,,,,,,,,,,,,,,,,,,,,,,,,,,,,,,,,,,,,,,,,VGD5VN,train_y,red_square,bottom_left,2025-04-25_16h01.59.854,HideSeek_v1,2022.2.5,60.01093406147043,
,0,0,0,1,0,1,15,,train_dim1_1,1,30,,,,2,0,2,0,,,,,,,,,0,0,0,0,0,0,0,0,0,0,0,0,,,,,,,,,,,,,,,,,,,,,,,,,stimuli/alien_stimuli/15.png,,,,,,,,,,,,,,,,,,,,,,,,,,,,,,,,,,,,,,,30,,,,,,,,1197.8965993998572,1197.8965993998572,1197.8965993998572,1197.8965993998572,1197.8965993998572,0,0,-0.16,-0.4,return,10.302293099928647,0,1,0,0,-0.16,-0.4,return,10.190663299988955,,,,,,,,,,,,,,,,,,,,,,,,,,,,,,,,,,,,,,,,,,,,,,,,,,,,,,,,VGD5VN,train_y,red_square,bottom_left,2025-04-25_16h01.59.854,HideSeek_v1,2022.2.5,60.01093406147043,
,3,2,3,2,0,0,16,,train_dim1_1,2,30,,,,2,0,2,0,,,,,,,,,0,0,0,0,0,1,1,1,0,0,0,0,,,,,,,,,,,,,,,,,,,,,,,,,stimuli/alien_stimuli/16.png,,,,,,,,,,,,,,,,,,,,,,,,,,,,,stimuli/alien_stimuli/15.png,15,0,3,,,,,,,30,,,,,,,,1229.5345068001188,1229.5345068001188,1229.5345068001188,1229.5345068001188,1229.5345068001188,,,,,right,11.739956999663264,0,1,0,99,0.16,-0.24,right,11.643530500121415,1227.951014299877,1229.5345068001188,-0.16,-0.32,0.08,0.0,-0.36,-0.16,-0.16,-0.16,-0.32,1209.77154480014,1209.77154480014,1209.77154480014,1209.77154480014,1209.77154480014,1209.77154480014,1209.77154480014,1209.77154480014,1209.769389060233,18.31690109986812,return,18.147100999951363,,,,,,,,,,,,,,,,,,,,,,,,,,,,,,,,,VGD5VN,train_y,red_square,bottom_left,2025-04-25_16h01.59.854,HideSeek_v1,2022.2.5,60.01093406147043,
,3,2,3,2,0,0,16,,train_dim1_1,2,30,,,,2,0,2,0,,,,,,,,,0,0,0,0,0,1,1,1,1,0,1,0,,,,,,,,,,,,,,,,,,,,,,,,,,,,,,,,,,,,,,,,,,,,,,,,,,,,,,,,,,,,,,,,30,,,,,,,,1241.283150699921,1241.283150699921,1241.283150699921,1241.283150699921,1241.283150699921,0,1,0.16,-0.24,return,2.1615399001166224,0,1,0,0,0.16,-0.24,return,2.0533870002254844,,,,,,,,,,,,,,,,,,,,,,,,,,,,,,,,,,,,,,,,,,,,,,,,,,,,,,,,VGD5VN,train_y,red_square,bottom_left,2025-04-25_16h01.59.854,HideSeek_v1,2022.2.5,60.01093406147043,
,2,3,2,6,0,3,13,,train_dim1_1,3,30,,,,2,0,2,0,,,,,,,,,0,0,0,0,0,2,2,2,0,0,0,0,,,,,,,,,,,,,,,,,,,,,,,,,stimuli/alien_stimuli/13.png,,,,,,,,,,,,,,,,,,,,,,,,,,,,,stimuli/alien_stimuli/16.png,16,3,4,,,,,,,30,,,,,,,,1265.473757199943,1265.473757199943,1265.473757199943,1265.473757199943,1265.473757199943,,,,,down,10.692891399841756,0,1,0,99,0,-0.24,down,10.587315800134093,1263.8972514998168,1265.473757199943,0.08,-0.24,0.0,0.0,-0.24,0.08,0.08,0.08,-0.24,1244.9998389999382,1244.9998389999382,1244.9998389999382,1244.9998389999382,1244.9998389999382,1244.9998389999382,1244.9998389999382,1244.9998389999382,1244.9986751203426,19.018053299747407,return,18.87900700001046,,,,,,,,,,,,,,,,,,,,,,,,,,,,,,,,,VGD5VN,train_y,red_square,bottom_left,2025-04-25_16h01.59.854,HideSeek_v1,2022.2.5,60.01093406147043,
,2,3,2,6,0,3,13,,train_dim1_1,3,30,,,,2,0,2,0,,,,,,,,,0,0,0,0,0,2,2,2,1,0,1,0,,,,,,,,,,,,,,,,,,,,,,,,,,,,,,,,,,,,,,,,,,,,,,,,,,,,,,,,,,,,,,,,30,,,,,,,,1276.1784497001208,1276.1784497001208,1276.1784497001208,1276.1784497001208,1276.1784497001208,,,,,down,0.9591252999380231,0,1,0,99,0,-0.32,down,0.8513230001553893,,,,,,,,,,,,,,,,,,,,,,,,,,,,,,,,,,,,,,,,,,,,,,,,,,,,,,,,VGD5VN,train_y,red_square,bottom_left,2025-04-25_16h01.59.854,HideSeek_v1,2022.2.5,60.01093406147043,
,2,3,2,6,0,3,13,,train_dim1_1,3,30,,,,2,0,2,0,,,,,,,,,0,0,0,0,0,2,2,2,2,0,2,0,,,,,,,,,,,,,,,,,,,,,,,,,,,,,,,,,,,,,,,,,,,,,,,,,,,,,,,,,,,,,,,,30,,,,,,,,1277.1264979001135,1277.1264979001135,1277.1264979001135,1277.1264979001135,1277.1264979001135,-2,1,0,-0.32,return,2.9782495996914804,0,0,0,0,0,-0.32,return,2.8973129000514746,,,,,,,,,,,,,,,,,,,,,,,,,,,,,,,,,,,,,,,,,,,,,,,,,,,,,,,,VGD5VN,train_y,red_square,bottom_left,2025-04-25_16h01.59.854,HideSeek_v1,2022.2.5,60.01093406147043,
,0,1,0,5,0,4,12,,train_dim1_1,4,30,,,,2,0,2,0,,,,,,,,,0,0,0,0,0,3,3,3,0,0,0,0,,,,,,,,,,,,,,,,,,,,,,,,,stimuli/alien_stimuli/12.png,,,,,,,,,,,,,,,,,,,,,,,,,,,,,stimuli/alien_stimuli/13.png,13,2,5,,,,,,,30,,,,,,,,1302.8213860001415,1302.8213860001415,1302.8213860001415,1302.8213860001415,1302.8213860001415,,,,,up,11.04353479994461,0,0,0,99,-0.16,-0.24,up,10.95151530019939,1301.2451201002114,1302.8213860001415,0,0.08,0.24,0.0,-0.04,0,0.0,0,0.08,1281.683032500092,1281.683032500092,1281.683032500092,1281.683032500092,1281.683032500092,1281.683032500092,1281.683032500092,1281.683032500092,1281.679101720266,19.68480799999088,return,19.53864109981805,,,,,,,,,,,,,,,,,,,,,,,,,,,,,,,,,VGD5VN,train_y,red_square,bottom_left,2025-04-25_16h01.59.854,HideSeek_v1,2022.2.5,60.01093406147043,
,0,1,0,5,0,4,12,,train_dim1_1,4,30,,,,2,0,2,0,,,,,,,,,0,0,0,0,0,3,3,3,1,0,1,0,,,,,,,,,,,,,,,,,,,,,,,,,,,,,,,,,,,,,,,,,,,,,,,,,,,,,,,,,,,,,,,,30,,,,,,,,1313.8757035997696,1313.8757035997696,1313.8757035997696,1313.8757035997696,1313.8757035997696,,,,,up,0.8426947998814285,0,0,0,99,-0.16,-0.15999999999999998,up,0.7380924001336098,,,,,,,,,,,,,,,,,,,,,,,,,,,,,,,,,,,,,,,,,,,,,,,,,,,,,,,,VGD5VN,train_y,red_square,bottom_left,2025-04-25_16h01.59.854,HideSeek_v1,2022.2.5,60.01093406147043,
,0,1,0,5,0,4,12,,train_dim1_1,4,30,,,,2,0,2,0,,,,,,,,,0,0,0,0,0,3,3,3,2,0,2,0,,,,,,,,,,,,,,,,,,,,,,,,,,,,,,,,,,,,,,,,,,,,,,,,,,,,,,,,,,,,,,,,30,,,,,,,,1314.7078440999612,1314.7078440999612,1314.7078440999612,1314.7078440999612,1314.7078440999612,,,,,up,0.5590034001506865,0,0,0,99,-0.16,-0.07999999999999997,up,0.4757677000015974,,,,,,,,,,,,,,,,,,,,,,,,,,,,,,,,,,,,,,,,,,,,,,,,,,,,,,,,VGD5VN,train_y,red_square,bottom_left,2025-04-25_16h01.59.854,HideSeek_v1,2022.2.5,60.01093406147043,
,0,1,0,5,0,4,12,,train_dim1_1,4,30,,,,2,0,2,0,,,,,,,,,0,0,0,0,0,3,3,3,3,0,3,0,,,,,,,,,,,,,,,,,,,,,,,,,,,,,,,,,,,,,,,,,,,,,,,,,,,,,,,,,,,,,,,,30,,,,,,,,1315.2743441998027,1315.2743441998027,1315.2743441998027,1315.2743441998027,1315.2743441998027,1,1,-0.16,-0.07999999999999997,return,1.3778115999884903,0,1,0,0,-0.16,-0.07999999999999997,return,1.2981559997424483,,,,,,,,,,,,,,,,,,,,,,,,,,,,,,,,,,,,,,,,,,,,,,,,,,,,,,,,VGD5VN,train_y,red_square,bottom_left,2025-04-25_16h01.59.854,HideSeek_v1,2022.2.5,60.01093406147043,
,3,3,3,8,0,5,11,,train_dim1_1,5,30,,,,2,0,2,0,,,,,,,,,0,0,0,0,0,4,4,4,0,0,0,0,,,,,,,,,,,,,,,,,,,,,,,,,stimuli/alien_stimuli/11.png,,,,,,,,,,,,,,,,,,,,,,,,,,,,,stimuli/alien_stimuli/12.png,12,0,6,,,,,,,30,,,,,,,,1328.2605272000656,1328.2605272000656,1328.2605272000656,1328.2605272000656,1328.2605272000656,,,,,left,6.474013600032777,0,1,0,99,0.0,-0.16,left,6.396619300357997,1326.6995246000588,1328.2605272000656,-0.16,0,0.32,0.0,-0.16,-0.16,-0.16,-0.16,0,1318.2286694999784,1318.2286694999784,1318.2286694999784,1318.2286694999784,1318.2286694999784,1318.2286694999784,1318.2286694999784,1318.2286694999784,1318.225937420316,8.592815900221467,return,8.448471900075674,,,,,,,,,,,,,,,,,,,,,,,,,,,,,,,,,VGD5VN,train_y,red_square,bottom_left,2025-04-25_16h01.59.854,HideSeek_v1,2022.2.5,60.01093406147043,
,3,3,3,8,0,5,11,,train_dim1_1,5,30,,,,2,0,2,0,,,,,,,,,0,0,0,0,0,4,4,4,1,0,1,0,,,,,,,,,,,,,,,,,,,,,,,,,,,,,,,,,,,,,,,,,,,,,,,,,,,,,,,,,,,,,,,,30,,,,,,,,1334.7435639998876,1334.7435639998876,1334.7435639998876,1334.7435639998876,1334.7435639998876,,,,,left,0.5582610000856221,0,1,0,99,-0.08,-0.16,left,0.4703512000851333,,,,,,,,,,,,,,,,,,,,,,,,,,,,,,,,,,,,,,,,,,,,,,,,,,,,,,,,VGD5VN,train_y,red_square,bottom_left,2025-04-25_16h01.59.854,HideSeek_v1,2022.2.5,60.01093406147043,
,3,3,3,8,0,5,11,,train_dim1_1,5,30,,,,2,0,2,0,,,,,,,,,0,0,0,0,0,4,4,4,2,0,2,0,,,,,,,,,,,,,,,,,,,,,,,,,,,,,,,,,,,,,,,,,,,,,,,,,,,,,,,,,,,,,,,,30,,,,,,,,1335.308151499834,1335.308151499834,1335.308151499834,1335.308151499834,1335.308151499834,,,,,left,1.0600843001157045,0,1,0,99,-0.16,-0.16,left,0.9819852001965046,,,,,,,,,,,,,,,,,,,,,,,,,,,,,,,,,,,,,,,,,,,,,,,,,,,,,,,,VGD5VN,train_y,red_square,bottom_left,2025-04-25_16h01.59.854,HideSeek_v1,2022.2.5,60.01093406147043,
,3,3,3,8,0,5,11,,train_dim1_1,5,30,,,,2,0,2,0,,,,,,,,,0,0,0,0,0,4,4,4,3,0,3,0,,,,,,,,,,,,,,,,,,,,,,,,,,,,,,,,,,,,,,,,,,,,,,,,,,,,,,,,,,,,,,,,30,,,,,,,,1336.3738568997942,1336.3738568997942,1336.3738568997942,1336.3738568997942,1336.3738568997942,1,-2,-0.16,-0.16,return,0.9104981999844313,0,0,0,0,-0.16,-0.16,return,0.8228532001376152,,,,,,,,,,,,,,,,,,,,,,,,,,,,,,,,,,,,,,,,,,,,,,,,,,,,,,,,VGD5VN,train_y,red_square,bottom_left,2025-04-25_16h01.59.854,HideSeek_v1,2022.2.5,60.01093406147043,
,1,4,1,8,0,4,12,,train_dim1_1,6,30,,,,2,0,2,0,,,,,,,,,0,0,0,0,0,5,5,5,0,0,0,0,,,,,,,,,,,,,,,,,,,,,,,,,stimuli/alien_stimuli/12.png,,,,,,,,,,,,,,,,,,,,,,,,,,,,,stimuli/alien_stimuli/11.png,11,3,7,,,,,,,30,,,,,,,,1346.154328300152,1346.154328300152,1346.154328300152,1346.154328300152,1346.154328300152,,,,,right,3.325432399753481,0,0,0,99,0.0,-0.08,right,3.241114899981767,1344.5976692000404,1346.154328300152,0.08,0.24,0.4,0.0,0.039999999999999994,0.08,0.08,0.08,0.24,1338.864488999825,1338.864488999825,1338.864488999825,1338.864488999825,1338.864488999825,1338.864488999825,1338.864488999825,1338.864488999825,1338.8596389203333,5.857386199757457,return,5.701905999798328,,,,,,,,,,,,,,,,,,,,,,,,,,,,,,,,,VGD5VN,train_y,red_square,bottom_left,2025-04-25_16h01.59.854,HideSeek_v1,2022.2.5,60.01093406147043,
,1,4,1,8,0,4,12,,train_dim1_1,6,30,,,,2,0,2,0,,,,,,,,,0,0,0,0,0,5,5,5,1,0,1,0,,,,,,,,,,,,,,,,,,,,,,,,,,,,,,,,,,,,,,,,,,,,,,,,,,,,,,,,,,,,,,,,30,,,,,,,,1349.4864500002004,1349.4864500002004,1349.4864500002004,1349.4864500002004,1349.4864500002004,,,,,right,0.6596272001042962,0,0,0,99,0.08,-0.08,right,0.5776289999485016,,,,,,,,,,,,,,,,,,,,,,,,,,,,,,,,,,,,,,,,,,,,,,,,,,,,,,,,VGD5VN,train_y,red_square,bottom_left,2025-04-25_16h01.59.854,HideSeek_v1,2022.2.5,60.01093406147043,
,1,4,1,8,0,4,12,,train_dim1_1,6,30,,,,2,0,2,0,,,,,,,,,0,0,0,0,0,5,5,5,2,0,2,0,,,,,,,,,,,,,,,,,,,,,,,,,,,,,,,,,,,,,,,,,,,,,,,,,,,,,,,,,,,,,,,,30,,,,,,,,1350.1534337000921,1350.1534337000921,1350.1534337000921,1350.1534337000921,1350.1534337000921,,,,,right,0.5602273000404239,0,0,0,99,0.16,-0.08,right,0.47193200001493096,,,,,,,,,,,,,,,,,,,,,,,,,,,,,,,,,,,,,,,,,,,,,,,,,,,,,,,,VGD5VN,train_y,red_square,bottom_left,2025-04-25_16h01.59.854,HideSeek_v1,2022.2.5,60.01093406147043,
,1,4,1,8,0,4,12,,train_dim1_1,6,30,,,,2,0,2,0,,,,,,,,,0,0,0,0,0,5,5,5,3,0,3,0,,,,,,,,,,,,,,,,,,,,,,,,,,,,,,,,,,,,,,,,,,,,,,,,,,,,,,,,,,,,,,,,30,,,,,,,,1350.7219974999316,1350.7219974999316,1350.7219974999316,1350.7219974999316,1350.7219974999316,,,,,right,0.5757005997002125,0,0,0,99,0.24,-0.08,right,0.4926964999176562,,,,,,,,,,,,,,,,,,,,,,,,,,,,,,,,,,,,,,,,,,,,,,,,,,,,,,,,VGD5VN,train_y,red_square,bottom_left,2025-04-25_16h01.59.854,HideSeek_v1,2022.2.5,60.01093406147043,
,1,4,1,8,0,4,12,,train_dim1_1,6,30,,,,2,0,2,0,,,,,,,,,0,0,0,0,0,5,5,5,4,0,4,0,,,,,,,,,,,,,,,,,,,,,,,,,,,,,,,,,,,,,,,,,,,,,,,,,,,,,,,,,,,,,,,,30,,,,,,,,1351.304138300009,1351.304138300009,1351.304138300009,1351.304138300009,1351.304138300009,,,,,right,0.5766989002004266,0,0,0,99,0.32,-0.08,right,0.49089100025594234,,,,,,,,,,,,,,,,,,,,,,,,,,,,,,,,,,,,,,,,,,,,,,,,,,,,,,,,VGD5VN,train_y,red_square,bottom_left,2025-04-25_16h01.59.854,HideSeek_v1,2022.2.5,60.01093406147043,
,1,4,1,8,0,4,12,,train_dim1_1,6,30,,,,2,0,2,0,,,,,,,,,0,0,0,0,0,5,5,5,5,0,5,0,,,,,,,,,,,,,,,,,,,,,,,,,,,,,,,,,,,,,,,,,,,,,,,,,,,,,,,,,,,,,,,,30,,,,,,,,1351.8887787000276,1351.8887787000276,1351.8887787000276,1351.8887787000276,1351.8887787000276,1,3,0.32,-0.08,return,0.660198800265789,0,0,0,0,0.32,-0.08,return,0.582122300285846,,,,,,,,,,,,,,,,,,,,,,,,,,,,,,,,,,,,,,,,,,,,,,,,,,,,,,,,VGD5VN,train_y,red_square,bottom_left,2025-04-25_16h01.59.854,HideSeek_v1,2022.2.5,60.01093406147043,
,1,3,1,6,0,3,13,,train_dim1_1,7,30,,,,2,0,2,0,,,,,,,,,0,0,0,0,0,6,6,6,0,0,0,0,,,,,,,,,,,,,,,,,,,,,,,,,stimuli/alien_stimuli/13.png,,,,,,,,,,,,,,,,,,,,,,,,,,,,,stimuli/alien_stimuli/12.png,12,1,8,,,,,,,30,,,,,,,,1363.9874358000234,1363.9874358000234,1363.9874358000234,1363.9874358000234,1363.9874358000234,,,,,right,7.259947199840099,0,0,0,99,0.0,-0.16,right,7.169226200319827,1362.429187799804,1363.9874358000234,-0.08,0.24,0.32,0.0,0.07999999999999999,-0.08,-0.08,-0.08,0.24,1354.1296319002286,1354.1296319002286,1354.1296319002286,1354.1296319002286,1354.1296319002286,1354.1296319002286,1354.1296319002286,1354.1296319002286,1354.1225712199696,8.425765399821103,return,8.274119400419295,,,,,,,,,,,,,,,,,,,,,,,,,,,,,,,,,VGD5VN,train_y,red_square,bottom_left,2025-04-25_16h01.59.854,HideSeek_v1,2022.2.5,60.01093406147043,
,1,3,1,6,0,3,13,,train_dim1_1,7,30,,,,2,0,2,0,,,,,,,,,0,0,0,0,0,6,6,6,1,0,1,0,,,,,,,,,,,,,,,,,,,,,,,,,,,,,,,,,,,,,,,,,,,,,,,,,,,,,,,,,,,,,,,,30,,,,,,,,1371.2544320998713,1371.2544320998713,1371.2544320998713,1371.2544320998713,1371.2544320998713,,,,,right,1.710666500031948,0,0,0,99,0.08,-0.16,right,1.6303551001474261,,,,,,,,,,,,,,,,,,,,,,,,,,,,,,,,,,,,,,,,,,,,,,,,,,,,,,,,VGD5VN,train_y,red_square,bottom_left,2025-04-25_16h01.59.854,HideSeek_v1,2022.2.5,60.01093406147043,
,1,3,1,6,0,3,13,,train_dim1_1,7,30,,,,2,0,2,0,,,,,,,,,0,0,0,0,0,6,6,6,2,0,2,0,,,,,,,,,,,,,,,,,,,,,,,,,,,,,,,,,,,,,,,,,,,,,,,,,,,,,,,,,,,,,,,,30,,,,,,,,1372.9709059000015,1372.9709059000015,1372.9709059000015,1372.9709059000015,1372.9709059000015,,,,,right,1.0105603002011776,0,0,0,99,0.16,-0.16,right,0.9199463999830186,,,,,,,,,,,,,,,,,,,,,,,,,,,,,,,,,,,,,,,,,,,,,,,,,,,,,,,,VGD5VN,train_y,red_square,bottom_left,2025-04-25_16h01.59.854,HideSeek_v1,2022.2.5,60.01093406147043,
,1,3,1,6,0,3,13,,train_dim1_1,7,30,,,,2,0,2,0,,,,,,,,,0,0,0,0,0,6,6,6,3,0,3,0,,,,,,,,,,,,,,,,,,,,,,,,,,,,,,,,,,,,,,,,,,,,,,,,,,,,,,,,,,,,,,,,30,,,,,,,,1373.9884806000628,1373.9884806000628,1373.9884806000628,1373.9884806000628,1373.9884806000628,1,6,0.16,-0.16,return,0.6936845001764596,0,0,0,0,0.16,-0.16,return,0.6042865999042988,,,,,,,,,,,,,,,,,,,,,,,,,,,,,,,,,,,,,,,,,,,,,,,,,,,,,,,,VGD5VN,train_y,red_square,bottom_left,2025-04-25_16h01.59.854,HideSeek_v1,2022.2.5,60.01093406147043,
,4,2,4,7,0,5,11,,train_dim1_1,8,30,,,,2,0,2,0,,,,,,,,,0,0,0,0,0,7,7,7,0,0,0,0,,,,,,,,,,,,,,,,,,,,,,,,,stimuli/alien_stimuli/11.png,,,,,,,,,,,,,,,,,,,,,,,,,,,,,stimuli/alien_stimuli/13.png,13,1,9,,,,,,,30,,,,,,,,1383.8231665999629,1383.8231665999629,1383.8231665999629,1383.8231665999629,1383.8231665999629,,,,,up,8.542712100315839,0,0,0,99,0.16,-0.15999999999999998,up,8.454877800308168,1382.2624027999118,1383.8231665999629,-0.08,0.08,0.24,0.0,-0.04,-0.08,-0.08,-0.08,0.08,1376.260553299915,1376.260553299915,1376.260553299915,1376.260553299915,1376.260553299915,1376.260553299915,1376.260553299915,1376.260553299915,1376.2578260202893,6.123427600134164,return,5.984964800067246,,,,,,,,,,,,,,,,,,,,,,,,,,,,,,,,,VGD5VN,train_y,red_square,bottom_left,2025-04-25_16h01.59.854,HideSeek_v1,2022.2.5,60.01093406147043,
,4,2,4,7,0,5,11,,train_dim1_1,8,30,,,,2,0,2,0,,,,,,,,,0,0,0,0,0,7,7,7,1,0,1,0,,,,,,,,,,,,,,,,,,,,,,,,,,,,,,,,,,,,,,,,,,,,,,,,,,,,,,,,,,,,,,,,30,,,,,,,,1392.372625300195,1392.372625300195,1392.372625300195,1392.372625300195,1392.372625300195,,,,,up,0.459500000346452,0,0,0,99,0.16,-0.07999999999999997,up,0.3772374000400305,,,,,,,,,,,,,,,,,,,,,,,,,,,,,,,,,,,,,,,,,,,,,,,,,,,,,,,,VGD5VN,train_y,red_square,bottom_left,2025-04-25_16h01.59.854,HideSeek_v1,2022.2.5,60.01093406147043,
,4,2,4,7,0,5,11,,train_dim1_1,8,30,,,,2,0,2,0,,,,,,,,,0,0,0,0,0,7,7,7,2,0,2,0,,,,,,,,,,,,,,,,,,,,,,,,,,,,,,,,,,,,,,,,,,,,,,,,,,,,,,,,,,,,,,,,30,,,,,,,,1392.8377827000804,1392.8377827000804,1392.8377827000804,1392.8377827000804,1392.8377827000804,,,,,up,0.3933578999713063,0,0,0,99,0.16,2.7755575615628914e-17,up,0.31159890023991466,,,,,,,,,,,,,,,,,,,,,,,,,,,,,,,,,,,,,,,,,,,,,,,,,,,,,,,,VGD5VN,train_y,red_square,bottom_left,2025-04-25_16h01.59.854,HideSeek_v1,2022.2.5,60.01093406147043,
,4,2,4,7,0,5,11,,train_dim1_1,8,30,,,,2,0,2,0,,,,,,,,,0,0,0,0,0,7,7,7,3,0,3,0,,,,,,,,,,,,,,,,,,,,,,,,,,,,,,,,,,,,,,,,,,,,,,,,,,,,,,,,,,,,,,,,30,,,,,,,,1393.2380813001655,1393.2380813001655,1393.2380813001655,1393.2380813001655,1393.2380813001655,4,6,0.16,2.7755575615628914e-17,return,0.977156899869442,0,0,0,0,0.16,2.7755575615628914e-17,return,0.8975513000041246,,,,,,,,,,,,,,,,,,,,,,,,,,,,,,,,,,,,,,,,,,,,,,,,,,,,,,,,VGD5VN,train_y,red_square,bottom_left,2025-04-25_16h01.59.854,HideSeek_v1,2022.2.5,60.01093406147043,
,4,3,4,4,0,1,15,,train_dim1_1,9,30,,,,2,0,2,0,,,,,,,,,0,0,0,0,0,8,8,8,0,0,0,0,,,,,,,,,,,,,,,,,,,,,,,,,stimuli/alien_stimuli/15.png,,,,,,,,,,,,,,,,,,,,,,,,,,,,,stimuli/alien_stimuli/11.png,11,4,10,,,,,,,30,,,,,,,,1402.553802299779,1402.553802299779,1402.553802299779,1402.553802299779,1402.553802299779,,,,,left,15.683812799863517,0,0,0,99,0.08,-0.16,left,15.604774800129235,1400.9947505998425,1402.553802299779,0.16,0.16,0.4,0.0,-0.039999999999999994,0.16,0.16,0.16,0.16,1395.7964284000918,1395.7964284000918,1395.7964284000918,1395.7964284000918,1395.7964284000918,1395.7964284000918,1395.7964284000918,1395.7964284000918,1395.79049842041,5.322943499777466,return,5.16877180011943,,,,,,,,,,,,,,,,,,,,,,,,,,,,,,,,,VGD5VN,train_y,red_square,bottom_left,2025-04-25_16h01.59.854,HideSeek_v1,2022.2.5,60.01093406147043,
,4,3,4,4,0,1,15,,train_dim1_1,9,30,,,,2,0,2,0,,,,,,,,,0,0,0,0,0,8,8,8,1,0,1,0,,,,,,,,,,,,,,,,,,,,,,,,,,,,,,,,,,,,,,,,,,,,,,,,,,,,,,,,,,,,,,,,30,,,,,,,,1418.264561300166,1418.264561300166,1418.264561300166,1418.264561300166,1418.264561300166,,,,,left,0.4929370996542275,0,0,0,99,0.0,-0.16,left,0.3797219004482031,,,,,,,,,,,,,,,,,,,,,,,,,,,,,,,,,,,,,,,,,,,,,,,,,,,,,,,,VGD5VN,train_y,red_square,bottom_left,2025-04-25_16h01.59.854,HideSeek_v1,2022.2.5,60.01093406147043,
,4,3,4,4,0,1,15,,train_dim1_1,9,30,,,,2,0,2,0,,,,,,,,,0,0,0,0,0,8,8,8,2,0,2,0,,,,,,,,,,,,,,,,,,,,,,,,,,,,,,,,,,,,,,,,,,,,,,,,,,,,,,,,,,,,,,,,30,,,,,,,,1418.7442185999826,1418.7442185999826,1418.7442185999826,1418.7442185999826,1418.7442185999826,,,,,left,0.5104179000481963,0,0,0,99,-0.08,-0.16,left,0.43318030005320907,,,,,,,,,,,,,,,,,,,,,,,,,,,,,,,,,,,,,,,,,,,,,,,,,,,,,,,,VGD5VN,train_y,red_square,bottom_left,2025-04-25_16h01.59.854,HideSeek_v1,2022.2.5,60.01093406147043,
,4,3,4,4,0,1,15,,train_dim1_1,9,30,,,,2,0,2,0,,,,,,,,,0,0,0,0,0,8,8,8,3,0,3,0,,,,,,,,,,,,,,,,,,,,,,,,,,,,,,,,,,,,,,,,,,,,,,,,,,,,,,,,,,,,,,,,30,,,,,,,,1419.2635852000676,1419.2635852000676,1419.2635852000676,1419.2635852000676,1419.2635852000676,,,,,left,1.3439197996631265,0,0,0,99,-0.16,-0.16,left,1.2555555002763867,,,,,,,,,,,,,,,,,,,,,,,,,,,,,,,,,,,,,,,,,,,,,,,,,,,,,,,,VGD5VN,train_y,red_square,bottom_left,2025-04-25_16h01.59.854,HideSeek_v1,2022.2.5,60.01093406147043,
,4,3,4,4,0,1,15,,train_dim1_1,9,30,,,,2,0,2,0,,,,,,,,,0,0,0,0,0,8,8,8,4,0,4,0,,,,,,,,,,,,,,,,,,,,,,,,,,,,,,,,,,,,,,,,,,,,,,,,,,,,,,,,,,,,,,,,30,,,,,,,,1420.6120238997974,1420.6120238997974,1420.6120238997974,1420.6120238997974,1420.6120238997974,4,2,-0.16,-0.16,return,1.6774637997150421,0,0,0,0,-0.16,-0.16,return,1.5930582000873983,,,,,,,,,,,,,,,,,,,,,,,,,,,,,,,,,,,,,,,,,,,,,,,,,,,,,,,,VGD5VN,train_y,red_square,bottom_left,2025-04-25_16h01.59.854,HideSeek_v1,2022.2.5,60.01093406147043,
,2,2,2,2,0,0,16,,train_dim1_1,10,30,,,,2,0,2,0,,,,,,,,,0,0,0,0,0,9,9,9,0,0,0,0,,,,,,,,,,,,,,,,,,,,,,,,,stimuli/alien_stimuli/16.png,,,,,,,,,,,,,,,,,,,,,,,,,,,,,stimuli/alien_stimuli/15.png,15,4,11,,,,,,,30,,,,,,,,1430.1655731000938,1430.1655731000938,1430.1655731000938,1430.1655731000938,1430.1655731000938,,,,,right,3.718475299887359,0,0,0,99,0.08,-0.24,right,3.6295786001719534,1428.6009169998579,1430.1655731000938,0.16,-0.08,0.08,0.0,-0.12,0.16,0.16,0.16,-0.08,1423.8667087000795,1423.8667087000795,1423.8667087000795,1423.8667087000795,1423.8667087000795,1423.8667087000795,1423.8667087000795,1423.8667087000795,1423.8635883203708,4.8563395999372005,return,4.7116487002931535,,,,,,,,,,,,,,,,,,,,,,,,,,,,,,,,,VGD5VN,train_y,red_square,bottom_left,2025-04-25_16h01.59.854,HideSeek_v1,2022.2.5,60.01093406147043,
,2,2,2,2,0,0,16,,train_dim1_1,10,30,,,,2,0,2,0,,,,,,,,,0,0,0,0,0,9,9,9,1,0,1,0,,,,,,,,,,,,,,,,,,,,,,,,,,,,,,,,,,,,,,,,,,,,,,,,,,,,,,,,,,,,,,,,30,,,,,,,,1433.8895423999056,1433.8895423999056,1433.8895423999056,1433.8895423999056,1433.8895423999056,,,,,right,0.4763866001740098,0,0,0,99,0.16,-0.24,right,0.3929051999002695,,,,,,,,,,,,,,,,,,,,,,,,,,,,,,,,,,,,,,,,,,,,,,,,,,,,,,,,VGD5VN,train_y,red_square,bottom_left,2025-04-25_16h01.59.854,HideSeek_v1,2022.2.5,60.01093406147043,
,2,2,2,2,0,0,16,,train_dim1_1,10,30,,,,2,0,2,0,,,,,,,,,0,0,0,0,0,9,9,9,2,0,2,0,,,,,,,,,,,,,,,,,,,,,,,,,,,,,,,,,,,,,,,,,,,,,,,,,,,,,,,,,,,,,,,,30,,,,,,,,1434.3728229999542,1434.3728229999542,1434.3728229999542,1434.3728229999542,1434.3728229999542,,,,,right,0.49332320038229227,0,0,0,99,0.24,-0.24,right,0.41582580050453544,,,,,,,,,,,,,,,,,,,,,,,,,,,,,,,,,,,,,,,,,,,,,,,,,,,,,,,,VGD5VN,train_y,red_square,bottom_left,2025-04-25_16h01.59.854,HideSeek_v1,2022.2.5,60.01093406147043,
,2,2,2,2,0,0,16,,train_dim1_1,10,30,,,,2,0,2,0,,,,,,,,,0,0,0,0,0,9,9,9,3,0,3,0,,,,,,,,,,,,,,,,,,,,,,,,,,,,,,,,,,,,,,,,,,,,,,,,,,,,,,,,,,,,,,,,30,,,,,,,,1434.8736531999893,1434.8736531999893,1434.8736531999893,1434.8736531999893,1434.8736531999893,4,5,0.24,-0.24,return,0.5435545998625457,0,0,0,0,0.24,-0.24,return,0.45585819985717535,,,,,,,,,,,,,,,,,,,,,,,,,,,,,,,,,,,,,,,,,,,,,,,,,,,,,,,,VGD5VN,train_y,red_square,bottom_left,2025-04-25_16h01.59.854,HideSeek_v1,2022.2.5,60.01093406147043,
,4,1,4,2,0,1,15,,train_dim1_1,11,30,,,,2,0,2,0,,,,,,,,,0,0,0,0,0,10,10,10,0,0,0,0,,,,,,,,,,,,,,,,,,,,,,,,,stimuli/alien_stimuli/15.png,,,,,,,,,,,,,,,,,,,,,,,,,,,,,stimuli/alien_stimuli/16.png,16,2,12,,,,,,,30,,,,,,,,1441.888410099782,1441.888410099782,1441.888410099782,1441.888410099782,1441.888410099782,,,,,up,3.5889458996243775,0,0,0,99,0.16,-0.24,up,3.5101060001179576,1440.3272580998018,1441.888410099782,0,-0.24,0.0,0.0,-0.24,0,0.0,0,-0.24,1436.9889480997808,1436.9889480997808,1436.9889480997808,1436.9889480997808,1436.9889480997808,1436.9889480997808,1436.9889480997808,1436.9889480997808,1436.9746863801965,3.4548662998713553,return,3.3098543998785317,,,,,,,,,,,,,,,,,,,,,,,,,,,,,,,,,VGD5VN,train_y,red_square,bottom_left,2025-04-25_16h01.59.854,HideSeek_v1,2022.2.5,60.01093406147043,
,4,1,4,2,0,1,15,,train_dim1_1,11,30,,,,2,0,2,0,,,,,,,,,0,0,0,0,0,10,10,10,1,0,1,0,,,,,,,,,,,,,,,,,,,,,,,,,,,,,,,,,,,,,,,,,,,,,,,,,,,,,,,,,,,,,,,,30,,,,,,,,1445.4855402000248,1445.4855402000248,1445.4855402000248,1445.4855402000248,1445.4855402000248,5,5,0.16,-0.24,return,0.55752639984712,1,0,0,1,0.16,-0.24,return,0.46485069999471307,,,,,,,,,,,,,,,,,,,,,,,,,,,,,,,,,,,,,,,,,,,,,,,,,,,,,,,,VGD5VN,train_y,red_square,bottom_left,2025-04-25_16h01.59.854,HideSeek_v1,2022.2.5,60.01093406147043,
,0,0,0,5,0,5,11,,train_dim1_1,12,30,,,,2,0,2,0,,,,,,,,,0,0,0,0,0,11,11,11,0,0,0,0,,,,,,,,,,,,,,,,,,,,,,,,,stimuli/alien_stimuli/11.png,,,,,,,,,,,,,,,,,,,,,,,,,,,,,stimuli/alien_stimuli/15.png,15,4,13,,,,,,,30,,,,,,,,1452.160096900072,1452.160096900072,1452.160096900072,1452.160096900072,1452.160096900072,,,,,right,30.046181099954993,1,0,0,99,-0.08,-0.4,right,29.959748200140893,1450.6024759998545,1452.160096900072,0.16,-0.24,0.08,0.0,-0.28,0.16,0.16,0.16,-0.24,1447.6247185999528,1447.6247185999528,1447.6247185999528,1447.6247185999528,1447.6247185999528,1447.6247185999528,1447.6247185999528,1447.6247185999528,1447.6169519203715,3.1043519000522792,return,2.9514001002535224,,,,,,,,,,,,,,,,,,,,,,,,,,,,,,,,,VGD5VN,train_y,red_square,bottom_left,2025-04-25_16h01.59.854,HideSeek_v1,2022.2.5,60.01093406147043,
,0,0,0,5,0,5,11,,train_dim1_1,12,30,,,,2,0,2,0,,,,,,,,,0,0,0,0,0,11,11,11,1,0,1,0,,,,,,,,,,,,,,,,,,,,,,,,,,,,,,,,,,,,,,,,,,,,,,,,,,,,,,,,,,,,,,,,30,,,,,,,,1482.2307198001072,1482.2307198001072,1482.2307198001072,1482.2307198001072,1482.2307198001072,,,,,right,1.3602576996199787,1,0,0,99,0.0,-0.4,right,1.2576413000933826,,,,,,,,,,,,,,,,,,,,,,,,,,,,,,,,,,,,,,,,,,,,,,,,,,,,,,,,VGD5VN,train_y,red_square,bottom_left,2025-04-25_16h01.59.854,HideSeek_v1,2022.2.5,60.01093406147043,
,0,0,0,5,0,5,11,,train_dim1_1,12,30,,,,2,0,2,0,,,,,,,,,0,0,0,0,0,11,11,11,2,0,2,0,,,,,,,,,,,,,,,,,,,,,,,,,,,,,,,,,,,,,,,,,,,,,,,,,,,,,,,,,,,,,,,,30,,,,,,,,1483.5806489000097,1483.5806489000097,1483.5806489000097,1483.5806489000097,1483.5806489000097,,,,,right,14.054785599932075,1,0,0,99,0.08,-0.4,right,13.971337200142443,,,,,,,,,,,,,,,,,,,,,,,,,,,,,,,,,,,,,,,,,,,,,,,,,,,,,,,,VGD5VN,train_y,red_square,bottom_left,2025-04-25_16h01.59.854,HideSeek_v1,2022.2.5,60.01093406147043,
,0,0,0,5,0,5,11,,train_dim1_1,12,30,,,,2,0,2,0,,,,,,,,,0,0,0,0,0,11,11,11,3,0,3,0,,,,,,,,,,,,,,,,,,,,,,,,,,,,,,,,,,,,,,,,,,,,,,,,,,,,,,,,,,,,,,,,30,,,,,,,,1497.6640800000168,1497.6640800000168,1497.6640800000168,1497.6640800000168,1497.6640800000168,5,8,0.08,-0.4,return,0.7753389999270439,1,0,0,0,0.08,-0.4,return,0.670577900018543,,,,,,,,,,,,,,,,,,,,,,,,,,,,,,,,,,,,,,,,,,,,,,,,,,,,,,,,VGD5VN,train_y,red_square,bottom_left,2025-04-25_16h01.59.854,HideSeek_v1,2022.2.5,60.01093406147043,
,4,3,4,7,0,4,12,,train_dim1_1,13,30,,,,2,0,2,0,,,,,,,,,0,0,0,0,0,12,12,12,0,0,0,0,,,,,,,,,,,,,,,,,,,,,,,,,stimuli/alien_stimuli/12.png,,,,,,,,,,,,,,,,,,,,,,,,,,,,,stimuli/alien_stimuli/11.png,11,0,14,,,,,,,30,,,,,,,,1506.0475824000314,1506.0475824000314,1506.0475824000314,1506.0475824000314,1506.0475824000314,,,,,up,4.950939899776131,1,0,0,99,0.16,-0.08,up,4.860283300280571,1504.4803985999897,1506.0475824000314,-0.16,0,0.4,0.0,-0.2,-0.16,-0.16,-0.16,0,1499.994607300032,1499.994607300032,1499.994607300032,1499.994607300032,1499.994607300032,1499.994607300032,1499.994607300032,1499.994607300032,1499.9937628203072,4.606020599603653,return,4.467425300274044,,,,,,,,,,,,,,,,,,,,,,,,,,,,,,,,,VGD5VN,train_y,red_square,bottom_left,2025-04-25_16h01.59.854,HideSeek_v1,2022.2.5,60.01093406147043,
,4,3,4,7,0,4,12,,train_dim1_1,13,30,,,,2,0,2,0,,,,,,,,,0,0,0,0,0,12,12,12,1,0,1,0,,,,,,,,,,,,,,,,,,,,,,,,,,,,,,,,,,,,,,,,,,,,,,,,,,,,,,,,,,,,,,,,30,,,,,,,,1511.0050669000484,1511.0050669000484,1511.0050669000484,1511.0050669000484,1511.0050669000484,6,8,0.16,-0.08,return,0.5600517001003027,1,0,0,0,0.16,-0.08,return,0.4672929998487234,,,,,,,,,,,,,,,,,,,,,,,,,,,,,,,,,,,,,,,,,,,,,,,,,,,,,,,,VGD5VN,train_y,red_square,bottom_left,2025-04-25_16h01.59.854,HideSeek_v1,2022.2.5,60.01093406147043,
,2,2,2,2,0,0,16,,train_dim1_1,14,30,,,,2,0,2,0,,,,,,,,,0,0,0,0,0,13,13,13,0,0,0,0,,,,,,,,,,,,,,,,,,,,,,,,,stimuli/alien_stimuli/16.png,,,,,,,,,,,,,,,,,,,,,,,,,,,,,stimuli/alien_stimuli/12.png,12,4,15,,,,,,,30,,,,,,,,1518.3037708001211,1518.3037708001211,1518.3037708001211,1518.3037708001211,1518.3037708001211,6,8,0,-0.24,return,3.5872343997471035,2,0,0,1,0,-0.24,return,3.495343199931085,1516.7414559000172,1518.3037708001211,0.16,0.16,0.32,0.0,0.0,0.16,0.16,0.16,0.16,1513.1406755000353,1513.1406755000353,1513.1406755000353,1513.1406755000353,1513.1406755000353,1513.1406755000353,1513.1406755000353,1513.1406755000353,1513.1381062202156,3.7223158003762364,return,3.5791683001443744,,,,,,,,,,,,,,,,,,,,,,,,,,,,,,,,,VGD5VN,train_y,red_square,bottom_left,2025-04-25_16h01.59.854,HideSeek_v1,2022.2.5,60.01093406147043,
,1,4,1,7,0,3,13,,train_dim1_1,15,30,,,,2,0,2,0,,,,,,,,,0,0,0,0,0,14,14,14,0,0,0,0,,,,,,,,,,,,,,,,,,,,,,,,,stimuli/alien_stimuli/13.png,,,,,,,,,,,,,,,,,,,,,,,,,,,,,stimuli/alien_stimuli/16.png,16,2,16,,,,,,,30,,,,,,,,1527.1909264000133,1527.1909264000133,1527.1909264000133,1527.1909264000133,1527.1909264000133,,,,,up,5.256657800171524,2,0,0,99,-0.08,0.0,up,5.170222100336105,1525.631714799907,1527.1909264000133,0,-0.24,0.0,0.0,-0.24,0,0.0,0,-0.24,1523.467845399864,1523.467845399864,1523.467845399864,1523.467845399864,1523.467845399864,1523.467845399864,1523.467845399864,1523.467845399864,1523.463198220171,2.2874862998723984,return,2.1440364001318812,,,,,,,,,,,,,,,,,,,,,,,,,,,,,,,,,VGD5VN,train_y,red_square,bottom_left,2025-04-25_16h01.59.854,HideSeek_v1,2022.2.5,60.01093406147043,
,1,4,1,7,0,3,13,,train_dim1_1,15,30,,,,2,0,2,0,,,,,,,,,0,0,0,0,0,14,14,14,1,0,1,0,,,,,,,,,,,,,,,,,,,,,,,,,,,,,,,,,,,,,,,,,,,,,,,,,,,,,,,,,,,,,,,,30,,,,,,,,1532.4547358998097,1532.4547358998097,1532.4547358998097,1532.4547358998097,1532.4547358998097,,,,,up,0.5264961998909712,2,0,0,99,-0.08,0.08,up,0.4441320998594165,,,,,,,,,,,,,,,,,,,,,,,,,,,,,,,,,,,,,,,,,,,,,,,,,,,,,,,,VGD5VN,train_y,red_square,bottom_left,2025-04-25_16h01.59.854,HideSeek_v1,2022.2.5,60.01093406147043,
,1,4,1,7,0,3,13,,train_dim1_1,15,30,,,,2,0,2,0,,,,,,,,,0,0,0,0,0,14,14,14,2,0,2,0,,,,,,,,,,,,,,,,,,,,,,,,,,,,,,,,,,,,,,,,,,,,,,,,,,,,,,,,,,,,,,,,30,,,,,,,,1532.9887651000172,1532.9887651000172,1532.9887651000172,1532.9887651000172,1532.9887651000172,,,,,up,0.4094805000349879,2,0,0,99,-0.08,0.16,up,0.3213490997441113,,,,,,,,,,,,,,,,,,,,,,,,,,,,,,,,,,,,,,,,,,,,,,,,,,,,,,,,VGD5VN,train_y,red_square,bottom_left,2025-04-25_16h01.59.854,HideSeek_v1,2022.2.5,60.01093406147043,
,1,4,1,7,0,3,13,,train_dim1_1,15,30,,,,2,0,2,0,,,,,,,,,0,0,0,0,0,14,14,14,3,0,3,0,,,,,,,,,,,,,,,,,,,,,,,,,,,,,,,,,,,,,,,,,,,,,,,,,,,,,,,,,,,,,,,,30,,,,,,,,1533.407588900067,1533.407588900067,1533.407588900067,1533.407588900067,1533.407588900067,,,,,up,1.0415375996381044,2,0,0,99,-0.08,0.24,up,0.9610057999379933,,,,,,,,,,,,,,,,,,,,,,,,,,,,,,,,,,,,,,,,,,,,,,,,,,,,,,,,VGD5VN,train_y,red_square,bottom_left,2025-04-25_16h01.59.854,HideSeek_v1,2022.2.5,60.01093406147043,
,1,4,1,7,0,3,13,,train_dim1_1,15,30,,,,2,0,2,0,,,,,,,,,0,0,0,0,0,14,14,14,4,0,4,0,,,,,,,,,,,,,,,,,,,,,,,,,,,,,,,,,,,,,,,,,,,,,,,,,,,,,,,,,,,,,,,,30,,,,,,,,1534.4558043000288,1534.4558043000288,1534.4558043000288,1534.4558043000288,1534.4558043000288,10,8,-0.08,0.24,return,0.7271390999667346,2,1,0,0,-0.08,0.24,return,0.6455144002102315,,,,,,,,,,,,,,,,,,,,,,,,,,,,,,,,,,,,,,,,,,,,,,,,,,,,,,,,VGD5VN,train_y,red_square,bottom_left,2025-04-25_16h01.59.854,HideSeek_v1,2022.2.5,60.01093406147043,
,4,0,4,1,0,1,15,,train_dim1_1,16,30,,,,2,0,2,0,,,,,,,,,0,0,0,0,0,15,15,15,0,0,0,0,,,,,,,,,,,,,,,,,,,,,,,,,stimuli/alien_stimuli/15.png,,,,,,,,,,,,,,,,,,,,,,,,,,,,,stimuli/alien_stimuli/13.png,13,1,17,,,,,,,30,,,,,,,,1541.7342587001622,1541.7342587001622,1541.7342587001622,1541.7342587001622,1541.7342587001622,,,,,up,2.491149800363928,2,1,0,99,0.16,-0.32,up,2.4122676998376846,1540.176762000192,1541.7342587001622,-0.08,0.16,0.24,0.0,0.04,-0.08,-0.08,-0.08,0.16,1536.7571139000356,1536.7571139000356,1536.7571139000356,1536.7571139000356,1536.7571139000356,1536.7571139000356,1536.7571139000356,1536.7571139000356,1536.757601820212,3.5382872000336647,return,3.3965162998065352,,,,,,,,,,,,,,,,,,,,,,,,,,,,,,,,,VGD5VN,train_y,red_square,bottom_left,2025-04-25_16h01.59.854,HideSeek_v1,2022.2.5,60.01093406147043,
,4,0,4,1,0,1,15,,train_dim1_1,16,30,,,,2,0,2,0,,,,,,,,,0,0,0,0,0,15,15,15,1,0,1,0,,,,,,,,,,,,,,,,,,,,,,,,,,,,,,,,,,,,,,,,,,,,,,,,,,,,,,,,,,,,,,,,30,,,,,,,,1544.2328063999303,1544.2328063999303,1544.2328063999303,1544.2328063999303,1544.2328063999303,11,8,0.16,-0.32,return,0.5258532003499568,3,0,0,1,0.16,-0.32,return,0.4367454005405307,,,,,,,,,,,,,,,,,,,,,,,,,,,,,,,,,,,,,,,,,,,,,,,,,,,,,,,,VGD5VN,train_y,red_square,bottom_left,2025-04-25_16h01.59.854,HideSeek_v1,2022.2.5,60.01093406147043,
,3,3,3,6,0,3,13,,train_dim1_1,17,30,,,,2,0,2,0,,,,,,,,,0,0,0,0,0,16,16,16,0,0,0,0,,,,,,,,,,,,,,,,,,,,,,,,,stimuli/alien_stimuli/13.png,,,,,,,,,,,,,,,,,,,,,,,,,,,,,stimuli/alien_stimuli/15.png,15,4,18,,,,,,,30,,,,,,,,1551.4933484001085,1551.4933484001085,1551.4933484001085,1551.4933484001085,1551.4933484001085,,,,,up,3.0225732000544667,3,0,0,99,0.08,-0.08,up,2.935271699912846,1549.9349859999493,1551.4933484001085,0.16,-0.32,0.08,0.0,-0.36,0.16,0.16,0.16,-0.32,1546.3336661998183,1546.3336661998183,1546.3336661998183,1546.3336661998183,1546.3336661998183,1546.3336661998183,1546.3336661998183,1546.3336661998183,1546.3321416203864,3.7218292001634836,return,3.569966800045222,,,,,,,,,,,,,,,,,,,,,,,,,,,,,,,,,VGD5VN,train_y,red_square,bottom_left,2025-04-25_16h01.59.854,HideSeek_v1,2022.2.5,60.01093406147043,
,3,3,3,6,0,3,13,,train_dim1_1,17,30,,,,2,0,2,0,,,,,,,,,0,0,0,0,0,16,16,16,1,0,1,0,,,,,,,,,,,,,,,,,,,,,,,,,,,,,,,,,,,,,,,,,,,,,,,,,,,,,,,,,,,,,,,,30,,,,,,,,1554.5230052000843,1554.5230052000843,1554.5230052000843,1554.5230052000843,1554.5230052000843,,,,,up,0.5761763998307288,3,0,0,99,0.08,0.0,up,0.4875674997456372,,,,,,,,,,,,,,,,,,,,,,,,,,,,,,,,,,,,,,,,,,,,,,,,,,,,,,,,VGD5VN,train_y,red_square,bottom_left,2025-04-25_16h01.59.854,HideSeek_v1,2022.2.5,60.01093406147043,
,3,3,3,6,0,3,13,,train_dim1_1,17,30,,,,2,0,2,0,,,,,,,,,0,0,0,0,0,16,16,16,2,0,2,0,,,,,,,,,,,,,,,,,,,,,,,,,,,,,,,,,,,,,,,,,,,,,,,,,,,,,,,,,,,,,,,,30,,,,,,,,1555.1058143000118,1555.1058143000118,1555.1058143000118,1555.1058143000118,1555.1058143000118,,,,,up,0.7767081004567444,3,0,0,99,0.08,0.08,up,0.6957598002627492,,,,,,,,,,,,,,,,,,,,,,,,,,,,,,,,,,,,,,,,,,,,,,,,,,,,,,,,VGD5VN,train_y,red_square,bottom_left,2025-04-25_16h01.59.854,HideSeek_v1,2022.2.5,60.01093406147043,
,3,3,3,6,0,3,13,,train_dim1_1,17,30,,,,2,0,2,0,,,,,,,,,0,0,0,0,0,16,16,16,3,0,3,0,,,,,,,,,,,,,,,,,,,,,,,,,,,,,,,,,,,,,,,,,,,,,,,,,,,,,,,,,,,,,,,,30,,,,,,,,1555.8892781999893,1555.8892781999893,1555.8892781999893,1555.8892781999893,1555.8892781999893,,,,,up,0.5599358002655208,3,0,0,99,0.08,0.16,up,0.4749424001201987,,,,,,,,,,,,,,,,,,,,,,,,,,,,,,,,,,,,,,,,,,,,,,,,,,,,,,,,VGD5VN,train_y,red_square,bottom_left,2025-04-25_16h01.59.854,HideSeek_v1,2022.2.5,60.01093406147043,
,3,3,3,6,0,3,13,,train_dim1_1,17,30,,,,2,0,2,0,,,,,,,,,0,0,0,0,0,16,16,16,4,0,4,0,,,,,,,,,,,,,,,,,,,,,,,,,,,,,,,,,,,,,,,,,,,,,,,,,,,,,,,,,,,,,,,,30,,,,,,,,1556.4558600001037,1556.4558600001037,1556.4558600001037,1556.4558600001037,1556.4558600001037,15,8,0.08,0.16,return,0.8277858998626471,3,1,0,0,0.08,0.16,return,0.736971499864012,,,,,,,,,,,,,,,,,,,,,,,,,,,,,,,,,,,,,,,,,,,,,,,,,,,,,,,,VGD5VN,train_y,red_square,bottom_left,2025-04-25_16h01.59.854,HideSeek_v1,2022.2.5,60.01093406147043,
,2,1,2,6,0,5,11,,train_dim1_1,18,30,,,,2,0,2,0,,,,,,,,,0,0,0,0,0,17,17,17,0,0,0,0,,,,,,,,,,,,,,,,,,,,,,,,,stimuli/alien_stimuli/11.png,,,,,,,,,,,,,,,,,,,,,,,,,,,,,stimuli/alien_stimuli/13.png,13,3,19,,,,,,,30,,,,,,,,1562.7905493001454,1562.7905493001454,1562.7905493001454,1562.7905493001454,1562.7905493001454,,,,,up,8.172704999800771,3,1,0,99,0,-0.24,up,8.086866000201553,1561.2278275000863,1562.7905493001454,0.08,0.08,0.24,0.0,-0.04,0.08,0.08,0.08,0.08,1558.8590858001262,1558.8590858001262,1558.8590858001262,1558.8590858001262,1558.8590858001262,1558.8590858001262,1558.8590858001262,1558.8590858001262,1558.8593702202663,2.4878825997002423,return,2.344223199877888,,,,,,,,,,,,,,,,,,,,,,,,,,,,,,,,,VGD5VN,train_y,red_square,bottom_left,2025-04-25_16h01.59.854,HideSeek_v1,2022.2.5,60.01093406147043,
,2,1,2,6,0,5,11,,train_dim1_1,18,30,,,,2,0,2,0,,,,,,,,,0,0,0,0,0,17,17,17,1,0,1,0,,,,,,,,,,,,,,,,,,,,,,,,,,,,,,,,,,,,,,,,,,,,,,,,,,,,,,,,,,,,,,,,30,,,,,,,,1570.9724246999249,1570.9724246999249,1570.9724246999249,1570.9724246999249,1570.9724246999249,,,,,up,0.4917040001600981,3,1,0,99,0,-0.15999999999999998,up,0.4016014002263546,,,,,,,,,,,,,,,,,,,,,,,,,,,,,,,,,,,,,,,,,,,,,,,,,,,,,,,,VGD5VN,train_y,red_square,bottom_left,2025-04-25_16h01.59.854,HideSeek_v1,2022.2.5,60.01093406147043,
,2,1,2,6,0,5,11,,train_dim1_1,18,30,,,,2,0,2,0,,,,,,,,,0,0,0,0,0,17,17,17,2,0,2,0,,,,,,,,,,,,,,,,,,,,,,,,,,,,,,,,,,,,,,,,,,,,,,,,,,,,,,,,,,,,,,,,30,,,,,,,,1571.47005299991,1571.47005299991,1571.47005299991,1571.47005299991,1571.47005299991,,,,,up,0.4265758004039526,3,1,0,99,0,-0.07999999999999997,up,0.3448824002407491,,,,,,,,,,,,,,,,,,,,,,,,,,,,,,,,,,,,,,,,,,,,,,,,,,,,,,,,VGD5VN,train_y,red_square,bottom_left,2025-04-25_16h01.59.854,HideSeek_v1,2022.2.5,60.01093406147043,
,2,1,2,6,0,5,11,,train_dim1_1,18,30,,,,2,0,2,0,,,,,,,,,0,0,0,0,0,17,17,17,3,0,3,0,,,,,,,,,,,,,,,,,,,,,,,,,,,,,,,,,,,,,,,,,,,,,,,,,,,,,,,,,,,,,,,,30,,,,,,,,1571.9037891998887,1571.9037891998887,1571.9037891998887,1571.9037891998887,1571.9037891998887,,,,,up,0.4102452998049557,3,1,0,99,0,2.7755575615628914e-17,up,0.3291076999157667,,,,,,,,,,,,,,,,,,,,,,,,,,,,,,,,,,,,,,,,,,,,,,,,,,,,,,,,VGD5VN,train_y,red_square,bottom_left,2025-04-25_16h01.59.854,HideSeek_v1,2022.2.5,60.01093406147043,
,2,1,2,6,0,5,11,,train_dim1_1,18,30,,,,2,0,2,0,,,,,,,,,0,0,0,0,0,17,17,17,4,0,4,0,,,,,,,,,,,,,,,,,,,,,,,,,,,,,,,,,,,,,,,,,,,,,,,,,,,,,,,,,,,,,,,,30,,,,,,,,1572.3205844000913,1572.3205844000913,1572.3205844000913,1572.3205844000913,1572.3205844000913,19,8,0,2.7755575615628914e-17,return,0.7266021003015339,3,1,0,0,0,2.7755575615628914e-17,return,0.6416326998732984,,,,,,,,,,,,,,,,,,,,,,,,,,,,,,,,,,,,,,,,,,,,,,,,,,,,,,,,VGD5VN,train_y,red_square,bottom_left,2025-04-25_16h01.59.854,HideSeek_v1,2022.2.5,60.01093406147043,
,0,4,0,8,0,4,12,,train_dim1_1,19,30,,,,2,0,2,0,,,,,,,,,0,0,0,0,0,18,18,18,0,0,0,0,,,,,,,,,,,,,,,,,,,,,,,,,stimuli/alien_stimuli/12.png,,,,,,,,,,,,,,,,,,,,,,,,,,,,,stimuli/alien_stimuli/11.png,11,2,20,,,,,,,30,,,,,,,,1578.6684607001953,1578.6684607001953,1578.6684607001953,1578.6684607001953,1578.6684607001953,,,,,right,3.7219786001369357,3,1,0,99,-0.08,-0.08,right,3.6393802003003657,1577.1077513000928,1578.6684607001953,0,0.08,0.4,0.0,-0.12,0,0.0,0,0.08,1574.6271039000712,1574.6271039000712,1574.6271039000712,1574.6271039000712,1574.6271039000712,1574.6271039000712,1574.6271039000712,1574.6271039000712,1574.6222345203162,2.6044216002337635,return,2.4646300999447703,,,,,,,,,,,,,,,,,,,,,,,,,,,,,,,,,VGD5VN,train_y,red_square,bottom_left,2025-04-25_16h01.59.854,HideSeek_v1,2022.2.5,60.01093406147043,
,0,4,0,8,0,4,12,,train_dim1_1,19,30,,,,2,0,2,0,,,,,,,,,0,0,0,0,0,18,18,18,1,0,1,0,,,,,,,,,,,,,,,,,,,,,,,,,,,,,,,,,,,,,,,,,,,,,,,,,,,,,,,,,,,,,,,,30,,,,,,,,1582.3989892001264,1582.3989892001264,1582.3989892001264,1582.3989892001264,1582.3989892001264,,,,,right,0.4407111001200974,3,1,0,99,0.0,-0.08,right,0.356332799885422,,,,,,,,,,,,,,,,,,,,,,,,,,,,,,,,,,,,,,,,,,,,,,,,,,,,,,,,VGD5VN,train_y,red_square,bottom_left,2025-04-25_16h01.59.854,HideSeek_v1,2022.2.5,60.01093406147043,
,0,4,0,8,0,4,12,,train_dim1_1,19,30,,,,2,0,2,0,,,,,,,,,0,0,0,0,0,18,18,18,2,0,2,0,,,,,,,,,,,,,,,,,,,,,,,,,,,,,,,,,,,,,,,,,,,,,,,,,,,,,,,,,,,,,,,,30,,,,,,,,1582.8471687999554,1582.8471687999554,1582.8471687999554,1582.8471687999554,1582.8471687999554,,,,,right,0.4933587000705302,3,1,0,99,0.08,-0.08,right,0.40761940041556954,,,,,,,,,,,,,,,,,,,,,,,,,,,,,,,,,,,,,,,,,,,,,,,,,,,,,,,,VGD5VN,train_y,red_square,bottom_left,2025-04-25_16h01.59.854,HideSeek_v1,2022.2.5,60.01093406147043,
,0,4,0,8,0,4,12,,train_dim1_1,19,30,,,,2,0,2,0,,,,,,,,,0,0,0,0,0,18,18,18,3,0,3,0,,,,,,,,,,,,,,,,,,,,,,,,,,,,,,,,,,,,,,,,,,,,,,,,,,,,,,,,,,,,,,,,30,,,,,,,,1583.3470085998997,1583.3470085998997,1583.3470085998997,1583.3470085998997,1583.3470085998997,19,11,0.08,-0.08,return,0.5938564999960363,3,0,0,0,0.08,-0.08,return,0.5088661005720496,,,,,,,,,,,,,,,,,,,,,,,,,,,,,,,,,,,,,,,,,,,,,,,,,,,,,,,,VGD5VN,train_y,red_square,bottom_left,2025-04-25_16h01.59.854,HideSeek_v1,2022.2.5,60.01093406147043,
,2,0,2,0,0,0,16,,train_dim1_1,20,30,,,,2,0,2,0,,,,,,,,,0,0,0,0,0,19,19,19,0,0,0,0,,,,,,,,,,,,,,,,,,,,,,,,,stimuli/alien_stimuli/16.png,,,,,,,,,,,,,,,,,,,,,,,,,,,,,stimuli/alien_stimuli/12.png,12,0,21,,,,,,,30,,,,,,,,1592.0951465000398,1592.0951465000398,1592.0951465000398,1592.0951465000398,1592.0951465000398,19,11,0,-0.4,return,2.2886860999278724,4,0,0,1,0,-0.4,return,2.2050585001707077,1590.5353167997673,1592.0951465000398,-0.16,0.24,0.32,0.0,0.07999999999999999,-0.16,-0.16,-0.16,0.24,1585.5174301997758,1585.5174301997758,1585.5174301997758,1585.5174301997758,1585.5174301997758,1585.5174301997758,1585.5174301997758,1585.5174301997758,1585.5146330201999,5.140153500251472,return,4.99383720010519,,,,,,,,,,,,,,,,,,,,,,,,,,,,,,,,,VGD5VN,train_y,red_square,bottom_left,2025-04-25_16h01.59.854,HideSeek_v1,2022.2.5,60.01093406147043,
,2,4,2,5,0,1,15,,train_dim1_1,21,30,,,,2,0,2,0,,,,,,,,,0,0,0,0,0,20,20,20,0,0,0,0,,,,,,,,,,,,,,,,,,,,,,,,,stimuli/alien_stimuli/15.png,,,,,,,,,,,,,,,,,,,,,,,,,,,,,stimuli/alien_stimuli/16.png,16,2,22,,,,,,,30,,,,,,,,1600.9675310999155,1600.9675310999155,1600.9675310999155,1600.9675310999155,1600.9675310999155,,,,,up,3.093244899995625,4,0,0,99,0,0.0,up,3.001140400301665,1599.3933518999256,1600.9675310999155,0,-0.4,0.0,0.0,-0.4,0,0.0,0,-0.4,1595.963852299843,1595.963852299843,1595.963852299843,1595.963852299843,1595.963852299843,1595.963852299843,1595.963852299843,1595.963852299843,1595.9568669202738,3.5550927999429405,return,3.401208299677819,,,,,,,,,,,,,,,,,,,,,,,,,,,,,,,,,VGD5VN,train_y,red_square,bottom_left,2025-04-25_16h01.59.854,HideSeek_v1,2022.2.5,60.01093406147043,
,2,4,2,5,0,1,15,,train_dim1_1,21,30,,,,2,0,2,0,,,,,,,,,0,0,0,0,0,20,20,20,1,0,1,0,,,,,,,,,,,,,,,,,,,,,,,,,,,,,,,,,,,,,,,,,,,,,,,,,,,,,,,,,,,,,,,,30,,,,,,,,1604.0649255998433,1604.0649255998433,1604.0649255998433,1604.0649255998433,1604.0649255998433,20,11,0,0.0,return,0.5596835003234446,5,0,0,1,0,0.0,return,0.47455319995060563,,,,,,,,,,,,,,,,,,,,,,,,,,,,,,,,,,,,,,,,,,,,,,,,,,,,,,,,VGD5VN,train_y,red_square,bottom_left,2025-04-25_16h01.59.854,HideSeek_v1,2022.2.5,60.01093406147043,
,0,2,0,5,0,3,13,,train_dim1_1,22,30,,,,2,0,2,0,,,,,,,,,0,0,0,0,0,21,21,21,0,0,0,0,,,,,,,,,,,,,,,,,,,,,,,,,stimuli/alien_stimuli/13.png,,,,,,,,,,,,,,,,,,,,,,,,,,,,,stimuli/alien_stimuli/15.png,15,2,23,,,,,,,30,,,,,,,,1610.9447885998525,1610.9447885998525,1610.9447885998525,1610.9447885998525,1610.9447885998525,,,,,up,6.623813500162214,5,0,0,99,-0.16,-0.15999999999999998,up,6.54223330039531,1609.3844325002283,1610.9447885998525,0,0,0.08,0.0,-0.04,0,0.0,0,0,1606.1981036001816,1606.1981036001816,1606.1981036001816,1606.1981036001816,1606.1981036001816,1606.1981036001816,1606.1981036001816,1606.1981036001816,1606.1984833202325,3.304762300103903,return,3.155463700182736,,,,,,,,,,,,,,,,,,,,,,,,,,,,,,,,,VGD5VN,train_y,red_square,bottom_left,2025-04-25_16h01.59.854,HideSeek_v1,2022.2.5,60.01093406147043,
,0,2,0,5,0,3,13,,train_dim1_1,22,30,,,,2,0,2,0,,,,,,,,,0,0,0,0,0,21,21,21,1,0,1,0,,,,,,,,,,,,,,,,,,,,,,,,,,,,,,,,,,,,,,,,,,,,,,,,,,,,,,,,,,,,,,,,30,,,,,,,,1617.5756868999451,1617.5756868999451,1617.5756868999451,1617.5756868999451,1617.5756868999451,,,,,up,0.47648930037394166,5,0,0,99,-0.16,-0.07999999999999997,up,0.3918993999250233,,,,,,,,,,,,,,,,,,,,,,,,,,,,,,,,,,,,,,,,,,,,,,,,,,,,,,,,VGD5VN,train_y,red_square,bottom_left,2025-04-25_16h01.59.854,HideSeek_v1,2022.2.5,60.01093406147043,
,0,2,0,5,0,3,13,,train_dim1_1,22,30,,,,2,0,2,0,,,,,,,,,0,0,0,0,0,21,21,21,2,0,2,0,,,,,,,,,,,,,,,,,,,,,,,,,,,,,,,,,,,,,,,,,,,,,,,,,,,,,,,,,,,,,,,,30,,,,,,,,1618.0574968000874,1618.0574968000874,1618.0574968000874,1618.0574968000874,1618.0574968000874,,,,,up,0.44340369990095496,5,0,0,99,-0.16,2.7755575615628914e-17,up,0.3643454001285136,,,,,,,,,,,,,,,,,,,,,,,,,,,,,,,,,,,,,,,,,,,,,,,,,,,,,,,,VGD5VN,train_y,red_square,bottom_left,2025-04-25_16h01.59.854,HideSeek_v1,2022.2.5,60.01093406147043,
,0,2,0,5,0,3,13,,train_dim1_1,22,30,,,,2,0,2,0,,,,,,,,,0,0,0,0,0,21,21,21,3,0,3,0,,,,,,,,,,,,,,,,,,,,,,,,,,,,,,,,,,,,,,,,,,,,,,,,,,,,,,,,,,,,,,,,30,,,,,,,,1618.5097019001842,1618.5097019001842,1618.5097019001842,1618.5097019001842,1618.5097019001842,23,11,-0.16,2.7755575615628914e-17,return,0.6935204002074897,6,0,0,1,-0.16,2.7755575615628914e-17,return,0.613084000069648,,,,,,,,,,,,,,,,,,,,,,,,,,,,,,,,,,,,,,,,,,,,,,,,,,,,,,,,VGD5VN,train_y,red_square,bottom_left,2025-04-25_16h01.59.854,HideSeek_v1,2022.2.5,60.01093406147043,
,0,3,0,8,0,5,11,,train_dim1_1,23,30,,,,2,0,2,0,,,,,,,,,0,0,0,0,0,22,22,22,0,0,0,0,,,,,,,,,,,,,,,,,,,,,,,,,stimuli/alien_stimuli/11.png,,,,,,,,,,,,,,,,,,,,,,,,,,,,,stimuli/alien_stimuli/13.png,13,0,24,,,,,,,30,,,,,,,,1624.7939412998967,1624.7939412998967,1624.7939412998967,1624.7939412998967,1624.7939412998967,,,,,up,5.087018200196326,6,0,0,99,-0.16,-0.08,up,4.99617090029642,1623.229241900146,1624.7939412998967,-0.16,0,0.24,0.0,-0.12,-0.16,-0.16,-0.16,0,1620.7788463998586,1620.7788463998586,1620.7788463998586,1620.7788463998586,1620.7788463998586,1620.7788463998586,1620.7788463998586,1620.7788463998586,1620.7772994202562,2.5705599999055266,return,2.420907699968666,,,,,,,,,,,,,,,,,,,,,,,,,,,,,,,,,VGD5VN,train_y,red_square,bottom_left,2025-04-25_16h01.59.854,HideSeek_v1,2022.2.5,60.01093406147043,
,0,3,0,8,0,5,11,,train_dim1_1,23,30,,,,2,0,2,0,,,,,,,,,0,0,0,0,0,22,22,22,1,0,1,0,,,,,,,,,,,,,,,,,,,,,,,,,,,,,,,,,,,,,,,,,,,,,,,,,,,,,,,,,,,,,,,,30,,,,,,,,1629.8870916999876,1629.8870916999876,1629.8870916999876,1629.8870916999876,1629.8870916999876,,,,,up,0.7929592998698354,6,0,0,99,-0.16,0.0,up,0.7032705000601709,,,,,,,,,,,,,,,,,,,,,,,,,,,,,,,,,,,,,,,,,,,,,,,,,,,,,,,,VGD5VN,train_y,red_square,bottom_left,2025-04-25_16h01.59.854,HideSeek_v1,2022.2.5,60.01093406147043,
,0,3,0,8,0,5,11,,train_dim1_1,23,30,,,,2,0,2,0,,,,,,,,,0,0,0,0,0,22,22,22,2,0,2,0,,,,,,,,,,,,,,,,,,,,,,,,,,,,,,,,,,,,,,,,,,,,,,,,,,,,,,,,,,,,,,,,30,,,,,,,,1630.6859296001494,1630.6859296001494,1630.6859296001494,1630.6859296001494,1630.6859296001494,,,,,up,1.343862900044769,6,0,0,99,-0.16,0.08,up,1.252503300551325,,,,,,,,,,,,,,,,,,,,,,,,,,,,,,,,,,,,,,,,,,,,,,,,,,,,,,,,VGD5VN,train_y,red_square,bottom_left,2025-04-25_16h01.59.854,HideSeek_v1,2022.2.5,60.01093406147043,
,0,3,0,8,0,5,11,,train_dim1_1,23,30,,,,2,0,2,0,,,,,,,,,0,0,0,0,0,22,22,22,3,0,3,0,,,,,,,,,,,,,,,,,,,,,,,,,,,,,,,,,,,,,,,,,,,,,,,,,,,,,,,,,,,,,,,,30,,,,,,,,1632.0373875000514,1632.0373875000514,1632.0373875000514,1632.0373875000514,1632.0373875000514,26,11,-0.16,0.08,return,2.111550400033593,6,0,0,0,-0.16,0.08,return,2.02210980001837,,,,,,,,,,,,,,,,,,,,,,,,,,,,,,,,,,,,,,,,,,,,,,,,,,,,,,,,VGD5VN,train_y,red_square,bottom_left,2025-04-25_16h01.59.854,HideSeek_v1,2022.2.5,60.01093406147043,
,3,2,3,2,0,0,16,,train_dim1_1,24,30,,,,2,0,2,0,,,,,,,,,0,0,0,0,0,23,23,23,0,0,0,0,,,,,,,,,,,,,,,,,,,,,,,,,stimuli/alien_stimuli/16.png,,,,,,,,,,,,,,,,,,,,,,,,,,,,,stimuli/alien_stimuli/11.png,11,0,25,,,,,,,30,,,,,,,,1640.9061671001837,1640.9061671001837,1640.9061671001837,1640.9061671001837,1640.9061671001837,26,11,0.08,-0.24,return,1.6508097001351416,7,0,0,1,0.08,-0.24,return,1.5653575998730958,1639.3428875999525,1640.9061671001837,-0.16,0.24,0.4,0.0,0.039999999999999994,-0.16,-0.16,-0.16,0.24,1635.7252031997778,1635.7252031997778,1635.7252031997778,1635.7252031997778,1635.7252031997778,1635.7252031997778,1635.7252031997778,1635.7252031997778,1635.7230808202178,3.739073899574578,return,3.601991199888289,,,,,,,,,,,,,,,,,,,,,,,,,,,,,,,,,VGD5VN,train_y,red_square,bottom_left,2025-04-25_16h01.59.854,HideSeek_v1,2022.2.5,60.01093406147043,
,3,3,3,7,0,4,12,,train_dim1_1,25,30,,,,2,0,2,0,,,,,,,,,0,0,0,0,0,24,24,24,0,0,0,0,,,,,,,,,,,,,,,,,,,,,,,,,stimuli/alien_stimuli/12.png,,,,,,,,,,,,,,,,,,,,,,,,,,,,,stimuli/alien_stimuli/16.png,16,3,26,,,,,,,30,,,,,,,,1646.993135499768,1646.993135499768,1646.993135499768,1646.993135499768,1646.993135499768,,,,,up,10.992926499806345,7,0,0,99,0.08,-0.08,up,10.914618500042707,1645.430998899974,1646.993135499768,0.08,-0.24,0.0,0.0,-0.24,0.08,0.08,0.08,-0.24,1644.1182736000046,1644.1182736000046,1644.1182736000046,1644.1182736000046,1644.1182736000046,1644.1182736000046,1644.1182736000046,1644.1182736000046,1644.113550880179,1.4197956998832524,return,1.2880315999500453,,,,,,,,,,,,,,,,,,,,,,,,,,,,,,,,,VGD5VN,train_y,red_square,bottom_left,2025-04-25_16h01.59.854,HideSeek_v1,2022.2.5,60.01093406147043,
,3,3,3,7,0,4,12,,train_dim1_1,25,30,,,,2,0,2,0,,,,,,,,,0,0,0,0,0,24,24,24,1,0,1,0,,,,,,,,,,,,,,,,,,,,,,,,,,,,,,,,,,,,,,,,,,,,,,,,,,,,,,,,,,,,,,,,30,,,,,,,,1658.0124325999059,1658.0124325999059,1658.0124325999059,1658.0124325999059,1658.0124325999059,,,,,up,0.541911999695003,7,0,0,99,0.08,0.0,up,0.4366295002400875,,,,,,,,,,,,,,,,,,,,,,,,,,,,,,,,,,,,,,,,,,,,,,,,,,,,,,,,VGD5VN,train_y,red_square,bottom_left,2025-04-25_16h01.59.854,HideSeek_v1,2022.2.5,60.01093406147043,
,3,3,3,7,0,4,12,,train_dim1_1,25,30,,,,2,0,2,0,,,,,,,,,0,0,0,0,0,24,24,24,2,0,2,0,,,,,,,,,,,,,,,,,,,,,,,,,,,,,,,,,,,,,,,,,,,,,,,,,,,,,,,,,,,,,,,,30,,,,,,,,1658.542803700082,1658.542803700082,1658.542803700082,1658.542803700082,1658.542803700082,,,,,up,0.4434512001462281,7,0,0,99,0.08,0.08,up,0.3537369999103248,,,,,,,,,,,,,,,,,,,,,,,,,,,,,,,,,,,,,,,,,,,,,,,,,,,,,,,,VGD5VN,train_y,red_square,bottom_left,2025-04-25_16h01.59.854,HideSeek_v1,2022.2.5,60.01093406147043,
,3,3,3,7,0,4,12,,train_dim1_1,25,30,,,,2,0,2,0,,,,,,,,,0,0,0,0,0,24,24,24,3,0,3,0,,,,,,,,,,,,,,,,,,,,,,,,,,,,,,,,,,,,,,,,,,,,,,,,,,,,,,,,,,,,,,,,30,,,,,,,,1658.9925232999958,1658.9925232999958,1658.9925232999958,1658.9925232999958,1658.9925232999958,,,,,up,0.493442399892956,7,0,0,99,0.08,0.16,up,0.4073735000565648,,,,,,,,,,,,,,,,,,,,,,,,,,,,,,,,,,,,,,,,,,,,,,,,,,,,,,,,VGD5VN,train_y,red_square,bottom_left,2025-04-25_16h01.59.854,HideSeek_v1,2022.2.5,60.01093406147043,
,3,3,3,7,0,4,12,,train_dim1_1,25,30,,,,2,0,2,0,,,,,,,,,0,0,0,0,0,24,24,24,4,0,4,0,,,,,,,,,,,,,,,,,,,,,,,,,,,,,,,,,,,,,,,,,,,,,,,,,,,,,,,,,,,,,,,,30,,,,,,,,1659.49420729978,1659.49420729978,1659.49420729978,1659.49420729978,1659.49420729978,30,11,0.08,0.16,return,1.3945566001348197,8,0,0,1,0.08,0.16,return,1.3095571002922952,,,,,,,,,,,,,,,,,,,,,,,,,,,,,,,,,,,,,,,,,,,,,,,,,,,,,,,,VGD5VN,train_y,red_square,bottom_left,2025-04-25_16h01.59.854,HideSeek_v1,2022.2.5,60.01093406147043,
,4,4,4,7,0,3,13,,train_dim1_1,26,30,,,,2,0,2,0,,,,,,,,,0,0,0,0,0,25,25,25,0,0,0,0,,,,,,,,,,,,,,,,,,,,,,,,,stimuli/alien_stimuli/13.png,,,,,,,,,,,,,,,,,,,,,,,,,,,,,stimuli/alien_stimuli/12.png,12,3,27,,,,,,,30,,,,,,,,1667.0272629000247,1667.0272629000247,1667.0272629000247,1667.0272629000247,1667.0272629000247,,,,,up,6.705808499827981,8,0,0,99,0.16,0.0,up,6.613613800145686,1665.4643643000163,1667.0272629000247,0.08,0.16,0.32,0.0,0.0,0.08,0.08,0.08,0.16,1662.4665326997638,1662.4665326997638,1662.4665326997638,1662.4665326997638,1662.4665326997638,1662.4665326997638,1662.4665326997638,1662.4665326997638,1662.4619702201337,3.121692200191319,return,2.982061400078237,,,,,,,,,,,,,,,,,,,,,,,,,,,,,,,,,VGD5VN,train_y,red_square,bottom_left,2025-04-25_16h01.59.854,HideSeek_v1,2022.2.5,60.01093406147043,
,4,4,4,7,0,3,13,,train_dim1_1,26,30,,,,2,0,2,0,,,,,,,,,0,0,0,0,0,25,25,25,1,0,1,0,,,,,,,,,,,,,,,,,,,,,,,,,,,,,,,,,,,,,,,,,,,,,,,,,,,,,,,,,,,,,,,,30,,,,,,,,1673.7381015000865,1673.7381015000865,1673.7381015000865,1673.7381015000865,1673.7381015000865,,,,,up,0.49297439958900213,8,0,0,99,0.16,0.08,up,0.4049650002270937,,,,,,,,,,,,,,,,,,,,,,,,,,,,,,,,,,,,,,,,,,,,,,,,,,,,,,,,VGD5VN,train_y,red_square,bottom_left,2025-04-25_16h01.59.854,HideSeek_v1,2022.2.5,60.01093406147043,
,4,4,4,7,0,3,13,,train_dim1_1,26,30,,,,2,0,2,0,,,,,,,,,0,0,0,0,0,25,25,25,2,0,2,0,,,,,,,,,,,,,,,,,,,,,,,,,,,,,,,,,,,,,,,,,,,,,,,,,,,,,,,,,,,,,,,,30,,,,,,,,1674.238119599875,1674.238119599875,1674.238119599875,1674.238119599875,1674.238119599875,,,,,up,0.4603614001534879,8,0,0,99,0.16,0.16,up,0.37792970007285476,,,,,,,,,,,,,,,,,,,,,,,,,,,,,,,,,,,,,,,,,,,,,,,,,,,,,,,,VGD5VN,train_y,red_square,bottom_left,2025-04-25_16h01.59.854,HideSeek_v1,2022.2.5,60.01093406147043,
,4,4,4,7,0,3,13,,train_dim1_1,26,30,,,,2,0,2,0,,,,,,,,,0,0,0,0,0,25,25,25,3,0,3,0,,,,,,,,,,,,,,,,,,,,,,,,,,,,,,,,,,,,,,,,,,,,,,,,,,,,,,,,,,,,,,,,30,,,,,,,,1674.7059353999794,1674.7059353999794,1674.7059353999794,1674.7059353999794,1674.7059353999794,,,,,up,0.4267631000839174,8,0,0,99,0.16,0.24,up,0.339478200301528,,,,,,,,,,,,,,,,,,,,,,,,,,,,,,,,,,,,,,,,,,,,,,,,,,,,,,,,VGD5VN,train_y,red_square,bottom_left,2025-04-25_16h01.59.854,HideSeek_v1,2022.2.5,60.01093406147043,
,4,4,4,7,0,3,13,,train_dim1_1,26,30,,,,2,0,2,0,,,,,,,,,0,0,0,0,0,25,25,25,4,0,4,0,,,,,,,,,,,,,,,,,,,,,,,,,,,,,,,,,,,,,,,,,,,,,,,,,,,,,,,,,,,,,,,,30,,,,,,,,1675.1385567998514,1675.1385567998514,1675.1385567998514,1675.1385567998514,1675.1385567998514,34,11,0.16,0.24,return,0.7102745999582112,8,1,0,0,0.16,0.24,return,0.6304542003199458,,,,,,,,,,,,,,,,,,,,,,,,,,,,,,,,,,,,,,,,,,,,,,,,,,,,,,,,VGD5VN,train_y,red_square,bottom_left,2025-04-25_16h01.59.854,HideSeek_v1,2022.2.5,60.01093406147043,
,3,4,3,4,0,0,16,,train_dim1_1,27,30,,,,2,0,2,0,,,,,,,,,0,0,0,0,0,26,26,26,0,0,0,0,,,,,,,,,,,,,,,,,,,,,,,,,stimuli/alien_stimuli/16.png,,,,,,,,,,,,,,,,,,,,,,,,,,,,,stimuli/alien_stimuli/13.png,13,4,28,,,,,,,30,,,,,,,,1681.255130100064,1681.255130100064,1681.255130100064,1681.255130100064,1681.255130100064,34,11,0.08,-0.08,return,1.217384799849242,9,0,0,1,0.08,-0.08,return,1.1289530000649393,1679.692766299937,1681.255130100064,0.16,0.16,0.24,0.0,0.04,0.16,0.16,0.16,0.16,1677.4287426997907,1677.4287426997907,1677.4287426997907,1677.4287426997907,1677.4287426997907,1677.4287426997907,1677.4287426997907,1677.4287426997907,1677.4242920203135,2.3870760002173483,return,2.2389645003713667,,,,,,,,,,,,,,,,,,,,,,,,,,,,,,,,,VGD5VN,train_y,red_square,bottom_left,2025-04-25_16h01.59.854,HideSeek_v1,2022.2.5,60.01093406147043,
,4,1,4,6,0,5,11,,train_dim1_1,28,30,,,,2,0,2,0,,,,,,,,,0,0,0,0,0,27,27,27,0,0,0,0,,,,,,,,,,,,,,,,,,,,,,,,,stimuli/alien_stimuli/11.png,,,,,,,,,,,,,,,,,,,,,,,,,,,,,stimuli/alien_stimuli/16.png,16,3,29,,,,,,,30,,,,,,,,1688.05746609997,1688.05746609997,1688.05746609997,1688.05746609997,1688.05746609997,,,,,up,6.007407300174236,9,0,0,99,0.16,-0.24,up,5.922971100080758,1686.4983216999099,1688.05746609997,0.08,-0.08,0.0,0.0,-0.08,0.08,0.08,0.08,-0.08,1684.0316217001528,1684.0316217001528,1684.0316217001528,1684.0316217001528,1684.0316217001528,1684.0316217001528,1684.0316217001528,1684.0316217001528,1684.029877480306,2.570551600307226,return,2.436279700137675,,,,,,,,,,,,,,,,,,,,,,,,,,,,,,,,,VGD5VN,train_y,red_square,bottom_left,2025-04-25_16h01.59.854,HideSeek_v1,2022.2.5,60.01093406147043,
,4,1,4,6,0,5,11,,train_dim1_1,28,30,,,,2,0,2,0,,,,,,,,,0,0,0,0,0,27,27,27,1,0,1,0,,,,,,,,,,,,,,,,,,,,,,,,,,,,,,,,,,,,,,,,,,,,,,,,,,,,,,,,,,,,,,,,30,,,,,,,,1694.0723230000585,1694.0723230000585,1694.0723230000585,1694.0723230000585,1694.0723230000585,,,,,up,0.8096892996691167,9,0,0,99,0.16,-0.15999999999999998,up,0.7260561999864876,,,,,,,,,,,,,,,,,,,,,,,,,,,,,,,,,,,,,,,,,,,,,,,,,,,,,,,,VGD5VN,train_y,red_square,bottom_left,2025-04-25_16h01.59.854,HideSeek_v1,2022.2.5,60.01093406147043,
,4,1,4,6,0,5,11,,train_dim1_1,28,30,,,,2,0,2,0,,,,,,,,,0,0,0,0,0,27,27,27,2,0,2,0,,,,,,,,,,,,,,,,,,,,,,,,,,,,,,,,,,,,,,,,,,,,,,,,,,,,,,,,,,,,,,,,30,,,,,,,,1694.8887403998524,1694.8887403998524,1694.8887403998524,1694.8887403998524,1694.8887403998524,,,,,up,1.294231599662453,9,0,0,99,0.16,-0.07999999999999997,up,1.206158600281924,,,,,,,,,,,,,,,,,,,,,,,,,,,,,,,,,,,,,,,,,,,,,,,,,,,,,,,,VGD5VN,train_y,red_square,bottom_left,2025-04-25_16h01.59.854,HideSeek_v1,2022.2.5,60.01093406147043,
,4,1,4,6,0,5,11,,train_dim1_1,28,30,,,,2,0,2,0,,,,,,,,,0,0,0,0,0,27,27,27,3,0,3,0,,,,,,,,,,,,,,,,,,,,,,,,,,,,,,,,,,,,,,,,,,,,,,,,,,,,,,,,,,,,,,,,30,,,,,,,,1696.1895959000103,1696.1895959000103,1696.1895959000103,1696.1895959000103,1696.1895959000103,37,11,0.16,-0.07999999999999997,return,0.626825800165534,9,0,0,0,0.16,-0.07999999999999997,return,0.5351974000222981,,,,,,,,,,,,,,,,,,,,,,,,,,,,,,,,,,,,,,,,,,,,,,,,,,,,,,,,VGD5VN,train_y,red_square,bottom_left,2025-04-25_16h01.59.854,HideSeek_v1,2022.2.5,60.01093406147043,
,2,2,2,6,0,4,12,,train_dim1_1,29,30,,,,2,0,2,0,,,,,,,,,0,0,0,0,0,28,28,28,0,0,0,0,,,,,,,,,,,,,,,,,,,,,,,,,stimuli/alien_stimuli/12.png,,,,,,,,,,,,,,,,,,,,,,,,,,,,,stimuli/alien_stimuli/11.png,11,4,30,,,,,,,30,,,,,,,,1705.8739616000094,1705.8739616000094,1705.8739616000094,1705.8739616000094,1705.8739616000094,,,,,up,3.772158599924296,9,0,0,99,0,-0.15999999999999998,up,3.6860102000646293,1704.3133486998267,1705.8739616000094,0.16,0.08,0.4,0.0,-0.12,0.16,0.16,0.16,0.08,1698.3940759999678,1698.3940759999678,1698.3940759999678,1698.3940759999678,1698.3940759999678,1698.3940759999678,1698.3940759999678,1698.3940759999678,1698.391805120092,6.040266499854624,return,5.886989899910986,,,,,,,,,,,,,,,,,,,,,,,,,,,,,,,,,VGD5VN,train_y,red_square,bottom_left,2025-04-25_16h01.59.854,HideSeek_v1,2022.2.5,60.01093406147043,
,2,2,2,6,0,4,12,,train_dim1_1,29,30,,,,2,0,2,0,,,,,,,,,0,0,0,0,0,28,28,28,1,0,1,0,,,,,,,,,,,,,,,,,,,,,,,,,,,,,,,,,,,,,,,,,,,,,,,,,,,,,,,,,,,,,,,,30,,,,,,,,1709.6520286998712,1709.6520286998712,1709.6520286998712,1709.6520286998712,1709.6520286998712,,,,,up,1.0768035999499261,9,0,0,99,0,-0.07999999999999997,up,0.9899476002901793,,,,,,,,,,,,,,,,,,,,,,,,,,,,,,,,,,,,,,,,,,,,,,,,,,,,,,,,VGD5VN,train_y,red_square,bottom_left,2025-04-25_16h01.59.854,HideSeek_v1,2022.2.5,60.01093406147043,
,2,2,2,6,0,4,12,,train_dim1_1,29,30,,,,2,0,2,0,,,,,,,,,0,0,0,0,0,28,28,28,2,0,2,0,,,,,,,,,,,,,,,,,,,,,,,,,,,,,,,,,,,,,,,,,,,,,,,,,,,,,,,,,,,,,,,,30,,,,,,,,1710.7354291998781,1710.7354291998781,1710.7354291998781,1710.7354291998781,1710.7354291998781,,,,,up,0.49327649967744946,9,0,0,99,0,2.7755575615628914e-17,up,0.4143496002070606,,,,,,,,,,,,,,,,,,,,,,,,,,,,,,,,,,,,,,,,,,,,,,,,,,,,,,,,VGD5VN,train_y,red_square,bottom_left,2025-04-25_16h01.59.854,HideSeek_v1,2022.2.5,60.01093406147043,
,2,2,2,6,0,4,12,,train_dim1_1,29,30,,,,2,0,2,0,,,,,,,,,0,0,0,0,0,28,28,28,3,0,3,0,,,,,,,,,,,,,,,,,,,,,,,,,,,,,,,,,,,,,,,,,,,,,,,,,,,,,,,,,,,,,,,,30,,,,,,,,1711.2364905001596,1711.2364905001596,1711.2364905001596,1711.2364905001596,1711.2364905001596,40,11,0,2.7755575615628914e-17,return,0.5102756996639073,9,1,0,0,0,2.7755575615628914e-17,return,0.42610769998282194,,,,,,,,,,,,,,,,,,,,,,,,,,,,,,,,,,,,,,,,,,,,,,,,,,,,,,,,VGD5VN,train_y,red_square,bottom_left,2025-04-25_16h01.59.854,HideSeek_v1,2022.2.5,60.01093406147043,
,0,1,0,2,0,1,15,,train_dim1_1,30,30,,,,2,0,2,0,,,,,,,,,0,0,0,0,0,29,29,29,0,0,0,0,,,,,,,,,,,,,,,,,,,,,,,,,stimuli/alien_stimuli/15.png,,,,,,,,,,,,,,,,,,,,,,,,,,,,,stimuli/alien_stimuli/12.png,12,2,31,,,,,,,30,,,,,,,,1716.8811673000455,1716.8811673000455,1716.8811673000455,1716.8811673000455,1716.8811673000455,,,,,up,6.225478700362146,9,1,0,99,-0.16,-0.24,up,6.142851000186056,1715.3223044001497,1716.8811673000455,0,0.08,0.32,0.0,-0.07999999999999999,0,0.0,0,0.08,1713.3229748001322,1713.3229748001322,1713.3229748001322,1713.3229748001322,1713.3229748001322,1713.3229748001322,1713.3229748001322,1713.3229748001322,1713.3207813201473,2.1206517997197807,return,1.9817392001859844,,,,,,,,,,,,,,,,,,,,,,,,,,,,,,,,,VGD5VN,train_y,red_square,bottom_left,2025-04-25_16h01.59.854,HideSeek_v1,2022.2.5,60.01093406147043,
,0,1,0,2,0,1,15,,train_dim1_1,30,30,,,,2,0,2,0,,,,,,,,,0,0,0,0,0,29,29,29,1,0,1,0,,,,,,,,,,,,,,,,,,,,,,,,,,,,,,,,,,,,,,,,,,,,,,,,,,,,,,,,,,,,,,,,30,,,,,,,,1723.1137399999425,1723.1137399999425,1723.1137399999425,1723.1137399999425,1723.1137399999425,41,11,-0.16,-0.24,return,1.5604150998406112,10,0,0,1,-0.16,-0.24,return,1.478423499967903,,,,,,,,,,,,,,,,,,,,,,,,,,,,,,,,,,,,,,,,,,,,,,,,,,,,,,,,VGD5VN,train_y,red_square,bottom_left,2025-04-25_16h01.59.854,HideSeek_v1,2022.2.5,60.01093406147043,
,,,,,,,,,,,30,,,,2,0,2,0,,,,,,,,,,,,,,,,,,,,,,,,,,,,,,,,,,,,,,,,,,,,,,,,,,,,,,,,,,,,,,,,,,,,,,,,,,stimuli/alien_stimuli/15.png,15,0,32,21,0.7,0.41666666666666674,1,1,1,30,0,conditions/schedules/train_y_first/red_square_00/bottom_left/inputTrain_2.1.xlsx,99,1,2,1,0,,,,,,,,,,,,,,,1,,,,,1728.8168954998255,1730.3653115001507,-0.16,-0.24,0.08,0.0,-0.28,-0.16,-0.16,-0.16,-0.24,1726.2503515998833,1726.2503515998833,1726.2503515998833,1726.2503515998833,1726.2503515998833,1726.2503515998833,1726.2503515998833,1726.2503515998833,1726.2482123200782,2.6877096998505294,return,2.5466195000335574,0,0.9,0,1,10,,,,,,,,,,,,,,,,,,,,,,,,,,,,VGD5VN,train_y,red_square,bottom_left,2025-04-25_16h01.59.854,HideSeek_v1,2022.2.5,60.01093406147043,
,,,,,,,,,,,,,,,3,0,3,0,0,0,0,0,,,,,,,,,,,,,,,,,,,,,,,,,,,,,,,conditions/schedules/train_y_first/red_square_00/bottom_left/instructions/Slide17.png,conditions/schedules/train_y_first/red_square_00/bottom_left/instructions/Audio17.wav,1730.3653115001507,1730.3683007600719,17,"[2.9817749997600913, 18.79787339968607, 16.517787999939173, 19.322048400063068, 4.320396399591118, 4.919630900025368, 5.569856599904597, 11.56942919967696, 5.8342373999767005, 6.966800400055945, 10.119231699965894, 14.060287000145763, 17.630235200282186, 16.77310230024159, 43.13002650020644, 22.461330899968743, 291.3423361000605]","[2.981787099968642, 18.79788149986416, 0.03562380000948906, 0.014146899804472923, 0.04943179991096258, 0.03200769983232021, 0.04763669986277819, 0.04674030002206564, 0.0778095000423491, 0.1105975997634232, 0.0655914000235498, 14.060294900089502, 0.0002164999023079872, 16.773110299836844, 0.06451609963551164, 22.46133829979226, 291.34234380023554]",0,,,,,,,,,,,,,,,,,,,,,,,,,,,,,,,,,,,,,,,,,,,,,,,,,,,,,,,,,,,,,,,,,,,,,,,,,,,,,,,,,,,,,,,,,,,,,,,,,,,,,,,,,,,,,,,,,,,,,,,,,,,,VGD5VN,train_y,red_square,bottom_left,2025-04-25_16h01.59.854,HideSeek_v1,2022.2.5,60.01093406147043,
,,,,,,,,,,,,,,,3,0,3,0,1,0,1,0,,,,,,,,,,,,,,,,,,,,,,,,,,,,,,,conditions/schedules/train_y_first/red_square_00/bottom_left/instructions/Slide18.png,conditions/schedules/train_y_first/red_square_00/bottom_left/instructions/Audio18.wav,2021.7820374001749,2021.7771777003072,18,"[2.9817749997600913, 18.79787339968607, 16.517787999939173, 19.322048400063068, 4.320396399591118, 4.919630900025368, 5.569856599904597, 11.56942919967696, 5.8342373999767005, 6.966800400055945, 10.119231699965894, 14.060287000145763, 17.630235200282186, 16.77310230024159, 43.13002650020644, 22.461330899968743, 291.3423361000605, 6.1981679000891745]","[2.981787099968642, 18.79788149986416, 0.03562380000948906, 0.014146899804472923, 0.04943179991096258, 0.03200769983232021, 0.04763669986277819, 0.04674030002206564, 0.0778095000423491, 0.1105975997634232, 0.0655914000235498, 14.060294900089502, 0.0002164999023079872, 16.773110299836844, 0.06451609963551164, 22.46133829979226, 0.07903890032321215, 6.198176600039005]",0,,,,,,,,,,,,,,,,,,,,,,,,,,,,,,,,,,,,,,,,,,,,,,,,,,,,,,,,,,,,,,,,,,,,,,,,,,,,,,,,,,,,,,,,,,,,,,,,,,,,,,,,,,,,,,,,,,,,,,,,,,,,VGD5VN,train_y,red_square,bottom_left,2025-04-25_16h01.59.854,HideSeek_v1,2022.2.5,60.01093406147043,
,,,,,,,,,,,,,,,3,0,3,0,2,0,2,0,,,,,,,,,,,,,,,,,,,,,,,,,,,,,,,conditions/schedules/train_y_first/red_square_00/bottom_left/instructions/Slide19.png,conditions/schedules/train_y_first/red_square_00/bottom_left/instructions/Audio19.wav,2028.0503346999176,2028.04861050006,19,"[2.9817749997600913, 18.79787339968607, 16.517787999939173, 19.322048400063068, 4.320396399591118, 4.919630900025368, 5.569856599904597, 11.56942919967696, 5.8342373999767005, 6.966800400055945, 10.119231699965894, 14.060287000145763, 17.630235200282186, 16.77310230024159, 43.13002650020644, 22.461330899968743, 291.3423361000605, 6.1981679000891745, 10.120727399829775]","[2.981787099968642, 18.79788149986416, 0.03562380000948906, 0.014146899804472923, 0.04943179991096258, 0.03200769983232021, 0.04763669986277819, 0.04674030002206564, 0.0778095000423491, 0.1105975997634232, 0.0655914000235498, 14.060294900089502, 0.0002164999023079872, 16.773110299836844, 0.06451609963551164, 22.46133829979226, 0.07903890032321215, 0.030247900169342756, 10.120734999887645]",0,,,,,,,,,,,,,,,,,,,,,,,,,,,,,,,,,,,,,,,,,,,,,,,,,,,,,,,,,,,,,,,,,,,,,,,,,,,,,,,,,,,,,,,,,,,,,,,,,,,,,,,,,,,,,,,,,,,,,,,,,,,,VGD5VN,train_y,red_square,bottom_left,2025-04-25_16h01.59.854,HideSeek_v1,2022.2.5,60.01093406147043,
,,,,,,,,,,,,,,,3,0,3,0,3,0,3,0,,,,,,,,,,,,,,,,,,,,,,,,,,,,,,,conditions/schedules/train_y_first/red_square_00/bottom_left/instructions/Slide20.png,conditions/schedules/train_y_first/red_square_00/bottom_left/instructions/Audio20.wav,2038.2420180002227,2038.240426900331,20,"[2.9817749997600913, 18.79787339968607, 16.517787999939173, 19.322048400063068, 4.320396399591118, 4.919630900025368, 5.569856599904597, 11.56942919967696, 5.8342373999767005, 6.966800400055945, 10.119231699965894, 14.060287000145763, 17.630235200282186, 16.77310230024159, 43.13002650020644, 22.461330899968743, 291.3423361000605, 6.1981679000891745, 10.120727399829775, 13.223983000032604]","[2.981787099968642, 18.79788149986416, 0.03562380000948906, 0.014146899804472923, 0.04943179991096258, 0.03200769983232021, 0.04763669986277819, 0.04674030002206564, 0.0778095000423491, 0.1105975997634232, 0.0655914000235498, 14.060294900089502, 0.0002164999023079872, 16.773110299836844, 0.06451609963551164, 22.46133829979226, 0.07903890032321215, 0.030247900169342756, 0.046480000019073486, 13.223991500213742]",0,,,,,,,,,,,,,,,,,,,,,,,,,,,,,,,,,,,,,,,,,,,,,,,,,,,,,,,,,,,,,,,,,,,,,,,,,,,,,,,,,,,,,,,,,,,,,,,,,,,,,,,,,,,,,,,,,,,,,,,,,,,,VGD5VN,train_y,red_square,bottom_left,2025-04-25_16h01.59.854,HideSeek_v1,2022.2.5,60.01093406147043,
1,3,2,8,2,5,0,66,2,instr_dim1_2,,,,,,3,0,3,0,,,,,0,0,0,0,,,,,,,,,,,,,,,,,,,,,,,,,,,,,,,,,,,,,stimuli/alien_stimuli/66.png,conditions/schedules/train_y_first/red_square_00/bottom_left/inputInstr_2.xlsx,stimuli/alien_stimuli/66.png,2051.574160899967,2051.574160899967,2051.574160899967,2051.574160899967,2051.5685522800313,return,6.945581799838692,"[-0.16, -0.08, 0, 0.08, 0.16, 0.24, 0.32, 0.4, 0.48, 0.56]","[-0.4, -0.32, -0.24, -0.16, -0.08, 0, 0.08, 0.16, 0.24, 0.32]",2,2,8,3,0.0,0.4,2058.6628279997967,2058.6628279997967,2058.6628279997967,2058.6628279997967,2058.6628279997967,2058.6628279997967,2058.6628279997967,2058.640855180286,6.355904900003225,return,6.212019000202417,stimuli/alien_stimuli/66.png,66,3,1,,,,,,,,,,,,,,,,,,,,,,,,,,,,,,,,,,,,,,,,,,,,,,,,,,,,,,,,,,,,,,,,,,,,,,,,,,,,,,,,,,,,,,,,,VGD5VN,train_y,red_square,bottom_left,2025-04-25_16h01.59.854,HideSeek_v1,2022.2.5,60.01093406147043,
,,,,,,,,,,,30,,,,3,0,3,0,,,,,,,,,,,,,,,,,,,,,,,,,,,,,,,,,,,,,,,,,,,,,,,,,,,,,,,,,,,,,,,,,,,,,,,,,,,,,,21,0.7,0.41666666666666674,1,99,2,30,0,conditions/schedules/train_y_first/red_square_00/bottom_left/inputTrain_2.1.xlsx,99,1,2,1,0,,,,,,,,,,,,,,,,,,,,,,,,,,,,,,,,,,,,,,,,,,,,,,,,,,,,,,,,,,,,,,,,,,,,,,,,,,,VGD5VN,train_y,red_square,bottom_left,2025-04-25_16h01.59.854,HideSeek_v1,2022.2.5,60.01093406147043,
,,,,,,,,,,,,,,,4,0,4,0,0,0,0,0,,,,,,,,,,,,,,,,,,,,,,,,,,,,,,,conditions/schedules/train_y_first/red_square_00/bottom_left/instructions/Slide21.png,conditions/schedules/train_y_first/red_square_00/bottom_left/instructions/Audio21.wav,2065.0285550998524,2065.0294349602423,21,"[2.9817749997600913, 18.79787339968607, 16.517787999939173, 19.322048400063068, 4.320396399591118, 4.919630900025368, 5.569856599904597, 11.56942919967696, 5.8342373999767005, 6.966800400055945, 10.119231699965894, 14.060287000145763, 17.630235200282186, 16.77310230024159, 43.13002650020644, 22.461330899968743, 291.3423361000605, 6.1981679000891745, 10.120727399829775, 13.223983000032604, 13.110271600075066]","[2.981787099968642, 18.79788149986416, 0.03562380000948906, 0.014146899804472923, 0.04943179991096258, 0.03200769983232021, 0.04763669986277819, 0.04674030002206564, 0.0778095000423491, 0.1105975997634232, 0.0655914000235498, 14.060294900089502, 0.0002164999023079872, 16.773110299836844, 0.06451609963551164, 22.46133829979226, 0.07903890032321215, 0.030247900169342756, 0.046480000019073486, 13.223991500213742, 13.110280099790543]",0,,,,,,,,,,,,,,,,,,,,,,,,,,,,,,,,,,,,,,,,,,,,,,,,,,,,,,,,,,,,,,,,,,,,,,,,,,,,,,,,,,,,,,,,,,,,,,,,,,,,,,,,,,,,,,,,,,,,,,,,,,,,VGD5VN,train_y,red_square,bottom_left,2025-04-25_16h01.59.854,HideSeek_v1,2022.2.5,60.01093406147043,
2,4,0,4,0,0,0,16,2,instr_dim1_2,,,,,,4,0,4,0,,,,,0,0,0,0,,,,,,,,,,,,,,,,,,,,,,,,,,,,,,,,,,,,,stimuli/alien_stimuli/16.png,conditions/schedules/train_y_first/red_square_00/bottom_left/inputInstr_2.xlsx,stimuli/alien_stimuli/16.png,2078.2403196999803,2078.2403196999803,2078.2403196999803,2078.2403196999803,2078.2409674801866,return,9.591476100031286,"[-0.16, -0.08, 0, 0.08, 0.16, 0.24, 0.32, 0.4, 0.48, 0.56]","[-0.4, -0.32, -0.24, -0.16, -0.08, 0, 0.08, 0.16, 0.24, 0.32]",0,0,4,4,0.0,0.0,2087.992111099884,2087.992111099884,2087.992111099884,2087.992111099884,2087.992111099884,2087.992111099884,2087.992111099884,2087.9819600599817,6.072314999997616,return,5.8978740000166,stimuli/alien_stimuli/16.png,16,4,2,,,,,,,,,,,,,,,,,,,,,,,,,,,,,,,,,,,,,,,,,,,,,,,,,,,,,,,,,,,,,,,,,,,,,,,,,,,,,,,,,,,,,,,,,VGD5VN,train_y,red_square,bottom_left,2025-04-25_16h01.59.854,HideSeek_v1,2022.2.5,60.01093406147043,
,,,,,,,,,,,30,,,,4,0,4,0,,,,,,,,,,,,,,,,,,,,,,,,,,,,,,,,,,,,,,,,,,,,,,,,,,,,,,,,,,,,,,,,,,,,,,,,,,,,,,21,0.7,0.41666666666666674,1,99,2,30,0,conditions/schedules/train_y_first/red_square_00/bottom_left/inputTrain_2.1.xlsx,99,1,2,1,0,,,,,,,,,,,,,,,,,,,,,,,,,,,,,,,,,,,,,,,,,,,,,,,,,,,,,,,,,,,,,,,,,,,,,,,,,,,VGD5VN,train_y,red_square,bottom_left,2025-04-25_16h01.59.854,HideSeek_v1,2022.2.5,60.01093406147043,
,,,,,,,,,,,,,,,5,0,5,0,0,0,0,0,,,,,,,,,,,,,,,,,,,,,,,,,,,,,,,conditions/schedules/train_y_first/red_square_00/bottom_left/instructions/Slide22.png,conditions/schedules/train_y_first/red_square_00/bottom_left/instructions/Audio22.wav,2094.0612448998727,2094.0536079601384,22,"[2.9817749997600913, 18.79787339968607, 16.517787999939173, 19.322048400063068, 4.320396399591118, 4.919630900025368, 5.569856599904597, 11.56942919967696, 5.8342373999767005, 6.966800400055945, 10.119231699965894, 14.060287000145763, 17.630235200282186, 16.77310230024159, 43.13002650020644, 22.461330899968743, 291.3423361000605, 6.1981679000891745, 10.120727399829775, 13.223983000032604, 13.110271600075066, 30.582395799923688]","[2.981787099968642, 18.79788149986416, 0.03562380000948906, 0.014146899804472923, 0.04943179991096258, 0.03200769983232021, 0.04763669986277819, 0.04674030002206564, 0.0778095000423491, 0.1105975997634232, 0.0655914000235498, 14.060294900089502, 0.0002164999023079872, 16.773110299836844, 0.06451609963551164, 22.46133829979226, 0.07903890032321215, 0.030247900169342756, 0.046480000019073486, 13.223991500213742, 13.110280099790543, 30.582402700092643]",0,,,,,,,,,,,,,,,,,,,,,,,,,,,,,,,,,,,,,,,,,,,,,,,,,,,,,,,,,,,,,,,,,,,,,,,,,,,,,,,,,,,,,,,,,,,,,,,,,,,,,,,,,,,,,,,,,,,,,,,,,,,,VGD5VN,train_y,red_square,bottom_left,2025-04-25_16h01.59.854,HideSeek_v1,2022.2.5,60.01093406147043,
,2,1,5,1,3,0,46,,train_dim1_2,1,30,,,,5,0,5,0,,,,,,,,,0,0,0,0,0,0,0,0,0,0,0,0,,,,,,,,,,,,,,,,,,,,,,,,,stimuli/alien_stimuli/46.png,,,,,,,,,,,,,,,,,,,,,,,,,,,,,,,,,,,,,,,30,,,,,,,,2124.7470959997736,2124.7470959997736,2124.7470959997736,2124.7470959997736,2124.7470959997736,,,,,up,4.380768099799752,0,0,0,99,0,-0.24,up,4.283079100307077,,,,,,,,,,,,,,,,,,,,,,,,,,,,,,,,,,,,,,,,,,,,,,,,,,,,,,,,VGD5VN,train_y,red_square,bottom_left,2025-04-25_16h01.59.854,HideSeek_v1,2022.2.5,60.01093406147043,
,2,1,5,1,3,0,46,,train_dim1_2,1,30,,,,5,0,5,0,,,,,,,,,0,0,0,0,0,0,0,0,1,0,1,0,,,,,,,,,,,,,,,,,,,,,,,,,,,,,,,,,,,,,,,,,,,,,,,,,,,,,,,,,,,,,,,,30,,,,,,,,2129.113226099871,2129.113226099871,2129.113226099871,2129.113226099871,2129.113226099871,,,,,up,0.4431651998311281,0,0,0,99,0,-0.15999999999999998,up,0.36935399984940886,,,,,,,,,,,,,,,,,,,,,,,,,,,,,,,,,,,,,,,,,,,,,,,,,,,,,,,,VGD5VN,train_y,red_square,bottom_left,2025-04-25_16h01.59.854,HideSeek_v1,2022.2.5,60.01093406147043,
,2,1,5,1,3,0,46,,train_dim1_2,1,30,,,,5,0,5,0,,,,,,,,,0,0,0,0,0,0,0,0,2,0,2,0,,,,,,,,,,,,,,,,,,,,,,,,,,,,,,,,,,,,,,,,,,,,,,,,,,,,,,,,,,,,,,,,30,,,,,,,,2129.5636745998636,2129.5636745998636,2129.5636745998636,2129.5636745998636,2129.5636745998636,,,,,up,0.6593867000192404,0,0,0,99,0,-0.07999999999999997,up,0.5813588001765311,,,,,,,,,,,,,,,,,,,,,,,,,,,,,,,,,,,,,,,,,,,,,,,,,,,,,,,,VGD5VN,train_y,red_square,bottom_left,2025-04-25_16h01.59.854,HideSeek_v1,2022.2.5,60.01093406147043,
,2,1,5,1,3,0,46,,train_dim1_2,1,30,,,,5,0,5,0,,,,,,,,,0,0,0,0,0,0,0,0,3,0,3,0,,,,,,,,,,,,,,,,,,,,,,,,,,,,,,,,,,,,,,,,,,,,,,,,,,,,,,,,,,,,,,,,30,,,,,,,,2130.2297225999646,2130.2297225999646,2130.2297225999646,2130.2297225999646,2130.2297225999646,44,11,0,-0.07999999999999997,return,0.8436400997452438,0,0,0,0,0,-0.07999999999999997,return,0.7565758000127971,,,,,,,,,,,,,,,,,,,,,,,,,,,,,,,,,,,,,,,,,,,,,,,,,,,,,,,,VGD5VN,train_y,red_square,bottom_left,2025-04-25_16h01.59.854,HideSeek_v1,2022.2.5,60.01093406147043,
,2,4,2,4,0,0,16,,train_dim1_2,2,30,,,,5,0,5,0,,,,,,,,,0,0,0,0,0,1,1,1,0,0,0,0,,,,,,,,,,,,,,,,,,,,,,,,,stimuli/alien_stimuli/16.png,,,,,,,,,,,,,,,,,,,,,,,,,,,,,stimuli/alien_stimuli/46.png,46,2,3,,,,,,,30,,,,,,,,2140.7743199001998,2140.7743199001998,2140.7743199001998,2140.7743199001998,2140.7743199001998,44,11,0,-0.08,return,2.020312999840826,1,0,0,1,0,-0.08,return,1.9327410999685526,2139.207913099788,2140.7743199001998,0.24,-0.32,0.0,0.24,-0.32,0.24,0.12,0.24,-0.32,2132.642534399871,2132.642534399871,2132.642534399871,2132.642534399871,2132.642534399871,2132.642534399871,2132.642534399871,2132.642534399871,2132.619294740353,6.67424810025841,return,6.539451600518078,,,,,,,,,,,,,,,,,,,,,,,,,,,,,,,,,VGD5VN,train_y,red_square,bottom_left,2025-04-25_16h01.59.854,HideSeek_v1,2022.2.5,60.01093406147043,
,4,4,5,4,1,0,26,,train_dim1_2,3,30,,,,5,0,5,0,,,,,,,,,0,0,0,0,0,2,2,2,0,0,0,0,,,,,,,,,,,,,,,,,,,,,,,,,stimuli/alien_stimuli/26.png,,,,,,,,,,,,,,,,,,,,,,,,,,,,,stimuli/alien_stimuli/16.png,16,2,4,,,,,,,30,,,,,,,,2150.883919700049,2150.883919700049,2150.883919700049,2150.883919700049,2150.883919700049,,,,,up,3.573670499958098,1,0,0,99,0.16,0.0,up,3.487951499875635,2149.316463000141,2150.883919700049,0,-0.08,0.0,0.0,-0.08,0,0.0,0,-0.08,2144.3747038999572,2144.3747038999572,2144.3747038999572,2144.3747038999572,2144.3747038999572,2144.3747038999572,2144.3747038999572,2144.3747038999572,2144.362085920107,5.07409520028159,return,4.922974599990994,,,,,,,,,,,,,,,,,,,,,,,,,,,,,,,,,VGD5VN,train_y,red_square,bottom_left,2025-04-25_16h01.59.854,HideSeek_v1,2022.2.5,60.01093406147043,
,4,4,5,4,1,0,26,,train_dim1_2,3,30,,,,5,0,5,0,,,,,,,,,0,0,0,0,0,2,2,2,1,0,1,0,,,,,,,,,,,,,,,,,,,,,,,,,,,,,,,,,,,,,,,,,,,,,,,,,,,,,,,,,,,,,,,,30,,,,,,,,2154.456172599923,2154.456172599923,2154.456172599923,2154.456172599923,2154.456172599923,45,11,0.16,0.0,return,0.5927952001802623,1,0,0,0,0.16,0.0,return,0.5014991001226008,,,,,,,,,,,,,,,,,,,,,,,,,,,,,,,,,,,,,,,,,,,,,,,,,,,,,,,,VGD5VN,train_y,red_square,bottom_left,2025-04-25_16h01.59.854,HideSeek_v1,2022.2.5,60.01093406147043,
,2,3,6,3,4,0,56,,train_dim1_2,4,30,,,,5,0,5,0,,,,,,,,,0,0,0,0,0,3,3,3,0,0,0,0,,,,,,,,,,,,,,,,,,,,,,,,,stimuli/alien_stimuli/56.png,,,,,,,,,,,,,,,,,,,,,,,,,,,,,stimuli/alien_stimuli/26.png,26,4,5,,,,,,,30,,,,,,,,2161.354225900024,2161.354225900024,2161.354225900024,2161.354225900024,2161.354225900024,,,,,right,4.026775999926031,1,0,0,99,0.08,-0.16,right,3.9381413999944925,2159.7919895001687,2161.354225900024,0.24,-0.08,0.0,0.08,-0.08,0.24,0.2,0.24,-0.08,2156.648352100048,2156.648352100048,2156.648352100048,2156.648352100048,2156.648352100048,2156.648352100048,2156.648352100048,2156.648352100048,2156.6386354200545,3.272541700396687,return,3.1115612001158297,,,,,,,,,,,,,,,,,,,,,,,,,,,,,,,,,VGD5VN,train_y,red_square,bottom_left,2025-04-25_16h01.59.854,HideSeek_v1,2022.2.5,60.01093406147043,
,2,3,6,3,4,0,56,,train_dim1_2,4,30,,,,5,0,5,0,,,,,,,,,0,0,0,0,0,3,3,3,1,0,1,0,,,,,,,,,,,,,,,,,,,,,,,,,,,,,,,,,,,,,,,,,,,,,,,,,,,,,,,,,,,,,,,,30,,,,,,,,2165.3797019999474,2165.3797019999474,2165.3797019999474,2165.3797019999474,2165.3797019999474,,,,,right,0.39203370036557317,1,0,0,99,0.16,-0.16,right,0.30964160012081265,,,,,,,,,,,,,,,,,,,,,,,,,,,,,,,,,,,,,,,,,,,,,,,,,,,,,,,,VGD5VN,train_y,red_square,bottom_left,2025-04-25_16h01.59.854,HideSeek_v1,2022.2.5,60.01093406147043,
,2,3,6,3,4,0,56,,train_dim1_2,4,30,,,,5,0,5,0,,,,,,,,,0,0,0,0,0,3,3,3,2,0,2,0,,,,,,,,,,,,,,,,,,,,,,,,,,,,,,,,,,,,,,,,,,,,,,,,,,,,,,,,,,,,,,,,30,,,,,,,,2165.778941600118,2165.778941600118,2165.778941600118,2165.778941600118,2165.778941600118,,,,,right,0.37652260018512607,1,0,0,99,0.24,-0.16,right,0.2926424997858703,,,,,,,,,,,,,,,,,,,,,,,,,,,,,,,,,,,,,,,,,,,,,,,,,,,,,,,,VGD5VN,train_y,red_square,bottom_left,2025-04-25_16h01.59.854,HideSeek_v1,2022.2.5,60.01093406147043,
,2,3,6,3,4,0,56,,train_dim1_2,4,30,,,,5,0,5,0,,,,,,,,,0,0,0,0,0,3,3,3,3,0,3,0,,,,,,,,,,,,,,,,,,,,,,,,,,,,,,,,,,,,,,,,,,,,,,,,,,,,,,,,,,,,,,,,30,,,,,,,,2166.162863300182,2166.162863300182,2166.162863300182,2166.162863300182,2166.162863300182,45,14,0.24,-0.16,return,0.5766783999279141,1,1,0,0,0.24,-0.16,return,0.4964984003454447,,,,,,,,,,,,,,,,,,,,,,,,,,,,,,,,,,,,,,,,,,,,,,,,,,,,,,,,VGD5VN,train_y,red_square,bottom_left,2025-04-25_16h01.59.854,HideSeek_v1,2022.2.5,60.01093406147043,
,0,2,5,2,5,0,66,,train_dim1_2,5,30,,,,5,0,5,0,,,,,,,,,0,0,0,0,0,4,4,4,0,0,0,0,,,,,,,,,,,,,,,,,,,,,,,,,stimuli/alien_stimuli/66.png,,,,,,,,,,,,,,,,,,,,,,,,,,,,,stimuli/alien_stimuli/56.png,56,2,6,,,,,,,30,,,,,,,,2172.266203899868,2172.266203899868,2172.266203899868,2172.266203899868,2172.266203899868,,,,,right,2.3177865999750793,1,1,0,99,-0.08,-0.24,right,2.2060754001140594,2170.684057999868,2172.266203899868,0.32,-0.16,0.0,0.32,-0.16,0.32,0.16,0.32,-0.16,2168.317843100056,2168.317843100056,2168.317843100056,2168.317843100056,2168.317843100056,2168.317843100056,2168.317843100056,2168.317843100056,2168.2987679803746,2.4877103003673255,return,2.3493778998963535,,,,,,,,,,,,,,,,,,,,,,,,,,,,,,,,,VGD5VN,train_y,red_square,bottom_left,2025-04-25_16h01.59.854,HideSeek_v1,2022.2.5,60.01093406147043,
,0,2,5,2,5,0,66,,train_dim1_2,5,30,,,,5,0,5,0,,,,,,,,,0,0,0,0,0,4,4,4,1,0,1,0,,,,,,,,,,,,,,,,,,,,,,,,,,,,,,,,,,,,,,,,,,,,,,,,,,,,,,,,,,,,,,,,30,,,,,,,,2174.571452899836,2174.571452899836,2174.571452899836,2174.571452899836,2174.571452899836,,,,,right,0.4063456002622843,1,1,0,99,0.0,-0.24,right,0.3255198001861572,,,,,,,,,,,,,,,,,,,,,,,,,,,,,,,,,,,,,,,,,,,,,,,,,,,,,,,,VGD5VN,train_y,red_square,bottom_left,2025-04-25_16h01.59.854,HideSeek_v1,2022.2.5,60.01093406147043,
,0,2,5,2,5,0,66,,train_dim1_2,5,30,,,,5,0,5,0,,,,,,,,,0,0,0,0,0,4,4,4,2,0,2,0,,,,,,,,,,,,,,,,,,,,,,,,,,,,,,,,,,,,,,,,,,,,,,,,,,,,,,,,,,,,,,,,30,,,,,,,,2174.9841220998205,2174.9841220998205,2174.9841220998205,2174.9841220998205,2174.9841220998205,,,,,right,0.326965699903667,1,1,0,99,0.08,-0.24,right,0.24619639990851283,,,,,,,,,,,,,,,,,,,,,,,,,,,,,,,,,,,,,,,,,,,,,,,,,,,,,,,,VGD5VN,train_y,red_square,bottom_left,2025-04-25_16h01.59.854,HideSeek_v1,2022.2.5,60.01093406147043,
,0,2,5,2,5,0,66,,train_dim1_2,5,30,,,,5,0,5,0,,,,,,,,,0,0,0,0,0,4,4,4,3,0,3,0,,,,,,,,,,,,,,,,,,,,,,,,,,,,,,,,,,,,,,,,,,,,,,,,,,,,,,,,,,,,,,,,30,,,,,,,,2175.3174140001647,2175.3174140001647,2175.3174140001647,2175.3174140001647,2175.3174140001647,,,,,right,0.32631060015410185,1,1,0,99,0.16,-0.24,right,0.2476367000490427,,,,,,,,,,,,,,,,,,,,,,,,,,,,,,,,,,,,,,,,,,,,,,,,,,,,,,,,VGD5VN,train_y,red_square,bottom_left,2025-04-25_16h01.59.854,HideSeek_v1,2022.2.5,60.01093406147043,
,0,2,5,2,5,0,66,,train_dim1_2,5,30,,,,5,0,5,0,,,,,,,,,0,0,0,0,0,4,4,4,4,0,4,0,,,,,,,,,,,,,,,,,,,,,,,,,,,,,,,,,,,,,,,,,,,,,,,,,,,,,,,,,,,,,,,,30,,,,,,,,2175.6510923001915,2175.6510923001915,2175.6510923001915,2175.6510923001915,2175.6510923001915,,,,,right,0.34329230012372136,1,1,0,99,0.24,-0.24,right,0.2637912002392113,,,,,,,,,,,,,,,,,,,,,,,,,,,,,,,,,,,,,,,,,,,,,,,,,,,,,,,,VGD5VN,train_y,red_square,bottom_left,2025-04-25_16h01.59.854,HideSeek_v1,2022.2.5,60.01093406147043,
,0,2,5,2,5,0,66,,train_dim1_2,5,30,,,,5,0,5,0,,,,,,,,,0,0,0,0,0,4,4,4,5,0,5,0,,,,,,,,,,,,,,,,,,,,,,,,,,,,,,,,,,,,,,,,,,,,,,,,,,,,,,,,,,,,,,,,30,,,,,,,,2176.0017956001684,2176.0017956001684,2176.0017956001684,2176.0017956001684,2176.0017956001684,45,19,0.24,-0.24,return,1.3106924998573959,2,0,0,1,0.24,-0.24,return,1.2378112003207207,,,,,,,,,,,,,,,,,,,,,,,,,,,,,,,,,,,,,,,,,,,,,,,,,,,,,,,,VGD5VN,train_y,red_square,bottom_left,2025-04-25_16h01.59.854,HideSeek_v1,2022.2.5,60.01093406147043,
,0,0,1,0,1,0,26,,train_dim1_2,6,30,,,,5,0,5,0,,,,,,,,,0,0,0,0,0,5,5,5,0,0,0,0,,,,,,,,,,,,,,,,,,,,,,,,,stimuli/alien_stimuli/26.png,,,,,,,,,,,,,,,,,,,,,,,,,,,,,stimuli/alien_stimuli/66.png,66,0,7,,,,,,,30,,,,,,,,2184.163208299782,2184.163208299782,2184.163208299782,2184.163208299782,2184.163208299782,,,,,right,8.39023149991408,2,0,0,99,-0.08,-0.4,right,8.29881659988314,2182.593893200159,2184.163208299782,0.24,-0.24,0.0,0.4,-0.24,0.24,0.039999999999999994,0.24,-0.24,2178.891617000103,2178.891617000103,2178.891617000103,2178.891617000103,2178.891617000103,2178.891617000103,2178.891617000103,2178.891617000103,2178.8742313801313,3.821806500200182,return,3.679034700151533,,,,,,,,,,,,,,,,,,,,,,,,,,,,,,,,,VGD5VN,train_y,red_square,bottom_left,2025-04-25_16h01.59.854,HideSeek_v1,2022.2.5,60.01093406147043,
,0,0,1,0,1,0,26,,train_dim1_2,6,30,,,,5,0,5,0,,,,,,,,,0,0,0,0,0,5,5,5,1,0,1,0,,,,,,,,,,,,,,,,,,,,,,,,,,,,,,,,,,,,,,,,,,,,,,,,,,,,,,,,,,,,,,,,30,,,,,,,,2192.5540423002094,2192.5540423002094,2192.5540423002094,2192.5540423002094,2192.5540423002094,45,20,-0.08,-0.4,return,0.5091423997655511,3,0,0,1,-0.08,-0.4,return,0.4247964001260698,,,,,,,,,,,,,,,,,,,,,,,,,,,,,,,,,,,,,,,,,,,,,,,,,,,,,,,,VGD5VN,train_y,red_square,bottom_left,2025-04-25_16h01.59.854,HideSeek_v1,2022.2.5,60.01093406147043,
,3,0,8,0,5,0,66,,train_dim1_2,7,30,,,,5,0,5,0,,,,,,,,,0,0,0,0,0,6,6,6,0,0,0,0,,,,,,,,,,,,,,,,,,,,,,,,,stimuli/alien_stimuli/66.png,,,,,,,,,,,,,,,,,,,,,,,,,,,,,stimuli/alien_stimuli/26.png,26,0,8,,,,,,,30,,,,,,,,2200.3681951998733,2200.3681951998733,2200.3681951998733,2200.3681951998733,2200.3681951998733,,,,,right,8.093910899944603,3,0,0,99,0.16,-0.4,right,8.008372300304472,2198.8070640000515,2200.3681951998733,-0.08,-0.4,0.0,0.08,-0.4,-0.08,-0.12,-0.08,-0.4,2194.6493445998058,2194.6493445998058,2194.6493445998058,2194.6493445998058,2194.6493445998058,2194.6493445998058,2194.6493445998058,2194.6493445998058,2194.637481820118,4.288605200126767,return,4.126555900089443,,,,,,,,,,,,,,,,,,,,,,,,,,,,,,,,,VGD5VN,train_y,red_square,bottom_left,2025-04-25_16h01.59.854,HideSeek_v1,2022.2.5,60.01093406147043,
