trialInstr,x_fixStart,y_fixStart,x_corrSteps,y_corrSteps,x_nrSteps,y_nrSteps,alienID,trialLength,version,trialTrain,praclen,testlen,trial_label,break_on_off,beforeExpLoop.thisRepN,beforeExpLoop.thisTrialN,beforeExpLoop.thisN,beforeExpLoop.thisIndex,mini_instr_trials.thisRepN,mini_instr_trials.thisTrialN,mini_instr_trials.thisN,mini_instr_trials.thisIndex,instrLoop.thisRepN,instrLoop.thisTrialN,instrLoop.thisN,instrLoop.thisIndex,repeat_prac.thisRepN,repeat_prac.thisTrialN,repeat_prac.thisN,repeat_prac.thisIndex,trainLoop.thisRepN,trainLoop.thisTrialN,trainLoop.thisN,trainLoop.thisIndex,moveLoop_train.thisRepN,moveLoop_train.thisTrialN,moveLoop_train.thisN,moveLoop_train.thisIndex,experiment.thisRepN,experiment.thisTrialN,experiment.thisN,experiment.thisIndex,moveLoop_test.thisRepN,moveLoop_test.thisTrialN,moveLoop_test.thisN,moveLoop_test.thisIndex,mini_instr2_trials.thisRepN,mini_instr2_trials.thisTrialN,mini_instr2_trials.thisN,mini_instr2_trials.thisIndex,start_all_time,url,slideStim,audioStim,slides.started,sounds.started,nextButton.numClicks,nextButton.timesOn,nextButton.timesOff,prev_but.numClicks,prev_but.timesOn,prev_but.timesOff,alienStim,instrFile,alienStim_instr,gridImage_instr.started,startPos_3.started,key_instr.started,alienImage_3.started,sounds_1.started,key_instr.keys,key_instr.rt,all_x,all_y,FBy_corrSteps,FBy_fixStart,FBx_corrSteps,FBx_fixStart,FBy_pathSize_check,FBx_pathSize_check,gridImage_9.started,alienImageFB_3.started,startPosFB_3.started,keyFB_3.started,pathLine_ydir_2.started,pathLine_xdir_2.started,alienFace_3.started,sounds_2.started,RTFB_instr,keyFB_3.keys,keyFB_3.rt,draw_alienStim,draw_alienID,test_x,nrepcount,perfthres,percthres,earlierperf,earlystop,nextPrac,fileidx,praclen,saveACC_train,pracFile,nextPrac_train,addNrep,fileidx_endr,repExp,showearly,gridImage_4.started,startPos.started,movePos.started,key_resp.started,alienImage.started,buttonPress_train,RTchoice_train,cumAcctrain,aCorr,saveACC_choice,corrAns,x_movePos_end,y_movePos_end,key_resp.keys,key_resp.rt,wLy_dir,wLx_dir,x_movePos,y_movePos,text_2.started,text_2.stopped,aft_x_corrPos,aft_y_corrPos,y_pathSize_check,x_pathSize_check,y_pathdirY,x_pathdirY,x_pathdirX,x_corrPos,y_corrPos,gridImage_6.started,alienImageFB_2.started,startPosFB_2.started,movePosFB_2.started,keyFB_2.started,pathLine_xdir.started,pathLine_ydir.started,alienFace.started,sounds_4.started,RT_FBtrain,keyFB_2.keys,keyFB_2.rt,saveACC_pre,ACC,within_saveACC_train,earlystop_wloop,cumAcctrain_check,gridImage_3.started,alienImage_test.started,startPos_test.started,movePos_test.started,key_resp_test.started,wLy_dir_test,wLx_dir_test,buttonPress_test,RTchoice_test,cumAcctest,corrAns_test,key_resp_test.keys,key_resp_test.rt,text_3.started,text_3.stopped,total_time,end_all_time,key_resp_3.keys,slides_2.started,sounds_3.started,nextButton_2.numClicks,nextButton_2.timesOn,nextButton_2.timesOff,prev_but_2.numClicks,prev_but_2.timesOn,prev_but_2.timesOff,bye.started,participant,train_first,00_coordinate,starting corner,date,expName,psychopyVersion,frameRate,
,,,,,,,,,,,,,,,0,0,0,0,0,0,0,0,,,,,,,,,,,,,,,,,,,,,,,,,,,,,start_all_time,testround,conditions/schedules/train_x_first/blue_star_00/top_right/instructions/Slide1.png,conditions/schedules/train_x_first/blue_star_00/top_right/instructions/Audio1.wav,651.617439399939,651.5633792150766,1,[4.549054999835789],[4.549063500016928],0,,,,,,,,,,,,,,,,,,,,,,,,,,,,,,,,,,,,,,,,,,,,,,,,,,,,,,,,,,,,,,,,,,,,,,,,,,,,,,,,,,,,,,,,,,,,,,,,,,,,,,,,,,,,,,,,,,,,,,,,,,,,VWTGZN,train_x,blue_star,top_right,2025-04-23_09h59.41.636,HideSeek_v1,2022.2.5,59.5871563930061,
,,,,,,,,,,,,,,,0,0,0,0,1,0,1,0,,,,,,,,,,,,,,,,,,,,,,,,,,,,,,,conditions/schedules/train_x_first/blue_star_00/top_right/instructions/Slide2.png,conditions/schedules/train_x_first/blue_star_00/top_right/instructions/Audio2.wav,656.1864415002055,656.1862746002153,2,"[4.549054999835789, 18.197071800008416]","[4.549063500016928, 18.197079999838024]",0,,,,,,,,,,,,,,,,,,,,,,,,,,,,,,,,,,,,,,,,,,,,,,,,,,,,,,,,,,,,,,,,,,,,,,,,,,,,,,,,,,,,,,,,,,,,,,,,,,,,,,,,,,,,,,,,,,,,,,,,,,,,VWTGZN,train_x,blue_star,top_right,2025-04-23_09h59.41.636,HideSeek_v1,2022.2.5,59.5871563930061,
,,,,,,,,,,,,,,,0,0,0,0,2,0,2,0,,,,,,,,,,,,,,,,,,,,,,,,,,,,,,,conditions/schedules/train_x_first/blue_star_00/top_right/instructions/Slide3.png,conditions/schedules/train_x_first/blue_star_00/top_right/instructions/Audio3.wav,674.4565411000513,674.451293699909,3,"[4.549054999835789, 18.197071800008416, 16.906455400399864]","[4.549063500016928, 18.197079999838024, 16.90646200021729]",0,,,,,,,,,,,,,,,,,,,,,,,,,,,,,,,,,,,,,,,,,,,,,,,,,,,,,,,,,,,,,,,,,,,,,,,,,,,,,,,,,,,,,,,,,,,,,,,,,,,,,,,,,,,,,,,,,,,,,,,,,,,,VWTGZN,train_x,blue_star,top_right,2025-04-23_09h59.41.636,HideSeek_v1,2022.2.5,59.5871563930061,
,,,,,,,,,,,,,,,0,0,0,0,3,0,3,0,,,,,,,,,,,,,,,,,,,,,,,,,,,,,,,conditions/schedules/train_x_first/blue_star_00/top_right/instructions/Slide4.png,conditions/schedules/train_x_first/blue_star_00/top_right/instructions/Audio4.wav,691.4511127001606,691.4485775600187,4,"[4.549054999835789, 18.197071800008416, 16.906455400399864, 19.411730899941176]","[4.549063500016928, 18.197079999838024, 16.90646200021729, 19.41173700010404]",0,,,,,,,,,,,,,,,,,,,,,,,,,,,,,,,,,,,,,,,,,,,,,,,,,,,,,,,,,,,,,,,,,,,,,,,,,,,,,,,,,,,,,,,,,,,,,,,,,,,,,,,,,,,,,,,,,,,,,,,,,,,,VWTGZN,train_x,blue_star,top_right,2025-04-23_09h59.41.636,HideSeek_v1,2022.2.5,59.5871563930061,
,,,,,,,,,,,,,,,0,0,0,0,4,0,4,0,,,,,,,,,,,,,,,,,,,,,,,,,,,,,,,conditions/schedules/train_x_first/blue_star_00/top_right/instructions/Slide5.png,conditions/schedules/train_x_first/blue_star_00/top_right/instructions/Audio5.wav,710.935841599945,710.9318229001947,5,"[4.549054999835789, 18.197071800008416, 16.906455400399864, 19.411730899941176, 4.930393799673766]","[4.549063500016928, 18.197079999838024, 16.90646200021729, 0.03056959994137287, 4.9304005997255445]",0,,,,,,,,,,,,,,,,,,,,,,,,,,,,,,,,,,,,,,,,,,,,,,,,,,,,,,,,,,,,,,,,,,,,,,,,,,,,,,,,,,,,,,,,,,,,,,,,,,,,,,,,,,,,,,,,,,,,,,,,,,,,VWTGZN,train_x,blue_star,top_right,2025-04-23_09h59.41.636,HideSeek_v1,2022.2.5,59.5871563930061,
,,,,,,,,,,,,,,,0,0,0,0,5,0,5,0,,,,,,,,,,,,,,,,,,,,,,,,,,,,,,,conditions/schedules/train_x_first/blue_star_00/top_right/instructions/Slide6.png,conditions/schedules/train_x_first/blue_star_00/top_right/instructions/Audio6.wav,715.9184529003687,715.9189329398796,6,"[4.549054999835789, 18.197071800008416, 16.906455400399864, 19.411730899941176, 4.930393799673766, 4.602174699772149]","[4.549063500016928, 18.197079999838024, 16.90646200021729, 0.03056959994137287, 0.014071299694478512, 4.602181099820882]",0,,,,,,,,,,,,,,,,,,,,,,,,,,,,,,,,,,,,,,,,,,,,,,,,,,,,,,,,,,,,,,,,,,,,,,,,,,,,,,,,,,,,,,,,,,,,,,,,,,,,,,,,,,,,,,,,,,,,,,,,,,,,VWTGZN,train_x,blue_star,top_right,2025-04-23_09h59.41.636,HideSeek_v1,2022.2.5,59.5871563930061,
,,,,,,,,,,,,,,,0,0,0,0,6,0,6,0,,,,,,,,,,,,,,,,,,,,,,,,,,,,,,,conditions/schedules/train_x_first/blue_star_00/top_right/instructions/Slide7.png,conditions/schedules/train_x_first/blue_star_00/top_right/instructions/Audio7.wav,720.5734375999309,720.5730239399709,7,"[4.549054999835789, 18.197071800008416, 16.906455400399864, 19.411730899941176, 4.930393799673766, 4.602174699772149, 5.335104399826378]","[4.549063500016928, 18.197079999838024, 16.90646200021729, 0.03056959994137287, 0.014071299694478512, 0.06373259983956814, 5.335111099760979]",0,,,,,,,,,,,,,,,,,,,,,,,,,,,,,,,,,,,,,,,,,,,,,,,,,,,,,,,,,,,,,,,,,,,,,,,,,,,,,,,,,,,,,,,,,,,,,,,,,,,,,,,,,,,,,,,,,,,,,,,,,,,,VWTGZN,train_x,blue_star,top_right,2025-04-23_09h59.41.636,HideSeek_v1,2022.2.5,59.5871563930061,
,,,,,,,,,,,,,,,0,0,0,0,7,0,7,0,,,,,,,,,,,,,,,,,,,,,,,,,,,,,,,conditions/schedules/train_x_first/blue_star_00/top_right/instructions/Slide8.png,conditions/schedules/train_x_first/blue_star_00/top_right/instructions/Audio8.wav,725.9801540002227,725.9777051000856,8,"[4.549054999835789, 18.197071800008416, 16.906455400399864, 19.411730899941176, 4.930393799673766, 4.602174699772149, 5.335104399826378, 11.538329700008035]","[4.549063500016928, 18.197079999838024, 16.90646200021729, 0.03056959994137287, 0.014071299694478512, 0.06373259983956814, 0.014205200131982565, 11.538337199948728]",0,,,,,,,,,,,,,,,,,,,,,,,,,,,,,,,,,,,,,,,,,,,,,,,,,,,,,,,,,,,,,,,,,,,,,,,,,,,,,,,,,,,,,,,,,,,,,,,,,,,,,,,,,,,,,,,,,,,,,,,,,,,,VWTGZN,train_x,blue_star,top_right,2025-04-23_09h59.41.636,HideSeek_v1,2022.2.5,59.5871563930061,
,,,,,,,,,,,,,,,0,0,0,0,8,0,8,0,,,,,,,,,,,,,,,,,,,,,,,,,,,,,,,conditions/schedules/train_x_first/blue_star_00/top_right/instructions/Slide9.png,conditions/schedules/train_x_first/blue_star_00/top_right/instructions/Audio9.wav,737.5860687000677,737.5871969000436,9,"[4.549054999835789, 18.197071800008416, 16.906455400399864, 19.411730899941176, 4.930393799673766, 4.602174699772149, 5.335104399826378, 11.538329700008035, 6.004066000226885]","[4.549063500016928, 18.197079999838024, 16.90646200021729, 0.03056959994137287, 0.014071299694478512, 0.06373259983956814, 0.014205200131982565, 11.538337199948728, 6.004072700161487]",0,,,,,,,,,,,,,,,,,,,,,,,,,,,,,,,,,,,,,,,,,,,,,,,,,,,,,,,,,,,,,,,,,,,,,,,,,,,,,,,,,,,,,,,,,,,,,,,,,,,,,,,,,,,,,,,,,,,,,,,,,,,,VWTGZN,train_x,blue_star,top_right,2025-04-23_09h59.41.636,HideSeek_v1,2022.2.5,59.5871563930061,
,,,,,,,,,,,,,,,0,0,0,0,9,0,9,0,,,,,,,,,,,,,,,,,,,,,,,,,,,,,,,conditions/schedules/train_x_first/blue_star_00/top_right/instructions/Slide10.png,conditions/schedules/train_x_first/blue_star_00/top_right/instructions/Audio10.wav,743.642153300345,743.6422462402843,10,"[4.549054999835789, 18.197071800008416, 16.906455400399864, 19.411730899941176, 4.930393799673766, 4.602174699772149, 5.335104399826378, 11.538329700008035, 6.004066000226885, 7.154184100218117]","[4.549063500016928, 18.197079999838024, 16.90646200021729, 0.03056959994137287, 0.014071299694478512, 0.06373259983956814, 0.014205200131982565, 11.538337199948728, 0.000238100066781044, 7.154191699810326]",0,,,,,,,,,,,,,,,,,,,,,,,,,,,,,,,,,,,,,,,,,,,,,,,,,,,,,,,,,,,,,,,,,,,,,,,,,,,,,,,,,,,,,,,,,,,,,,,,,,,,,,,,,,,,,,,,,,,,,,,,,,,,VWTGZN,train_x,blue_star,top_right,2025-04-23_09h59.41.636,HideSeek_v1,2022.2.5,59.5871563930061,
,,,,,,,,,,,,,,,0,0,0,0,10,0,10,0,,,,,,,,,,,,,,,,,,,,,,,,,,,,,,,conditions/schedules/train_x_first/blue_star_00/top_right/instructions/Slide11.png,conditions/schedules/train_x_first/blue_star_00/top_right/instructions/Audio11.wav,750.8663348001428,750.8649511998519,11,"[4.549054999835789, 18.197071800008416, 16.906455400399864, 19.411730899941176, 4.930393799673766, 4.602174699772149, 5.335104399826378, 11.538329700008035, 6.004066000226885, 7.154184100218117, 9.937648700084537]","[4.549063500016928, 18.197079999838024, 16.90646200021729, 0.03056959994137287, 0.014071299694478512, 0.06373259983956814, 0.014205200131982565, 11.538337199948728, 0.000238100066781044, 0.030476999934762716, 9.937655200250447]",0,,,,,,,,,,,,,,,,,,,,,,,,,,,,,,,,,,,,,,,,,,,,,,,,,,,,,,,,,,,,,,,,,,,,,,,,,,,,,,,,,,,,,,,,,,,,,,,,,,,,,,,,,,,,,,,,,,,,,,,,,,,,VWTGZN,train_x,blue_star,top_right,2025-04-23_09h59.41.636,HideSeek_v1,2022.2.5,59.5871563930061,
,,,,,,,,,,,,,,,0,0,0,0,11,0,11,0,,,,,,,,,,,,,,,,,,,,,,,,,,,,,,,conditions/schedules/train_x_first/blue_star_00/top_right/instructions/Slide12.png,conditions/schedules/train_x_first/blue_star_00/top_right/instructions/Audio12.wav,760.8599720001221,760.856339239981,12,"[4.549054999835789, 18.197071800008416, 16.906455400399864, 19.411730899941176, 4.930393799673766, 4.602174699772149, 5.335104399826378, 11.538329700008035, 6.004066000226885, 7.154184100218117, 9.937648700084537, 12.40404859976843]","[4.549063500016928, 18.197079999838024, 16.90646200021729, 0.03056959994137287, 0.014071299694478512, 0.06373259983956814, 0.014205200131982565, 11.538337199948728, 0.000238100066781044, 0.030476999934762716, 0.04709309991449118, 12.404054899699986]",0,,,,,,,,,,,,,,,,,,,,,,,,,,,,,,,,,,,,,,,,,,,,,,,,,,,,,,,,,,,,,,,,,,,,,,,,,,,,,,,,,,,,,,,,,,,,,,,,,,,,,,,,,,,,,,,,,,,,,,,,,,,,VWTGZN,train_x,blue_star,top_right,2025-04-23_09h59.41.636,HideSeek_v1,2022.2.5,59.5871563930061,
1,9,5,4,5,-5,0,11,2,instr_dim1_1,,,,,,0,0,0,0,,,,,0,0,0,0,,,,,,,,,,,,,,,,,,,,,,,,,,,,,,,,,,,,,stimuli/alien_stimuli/11.png,conditions/schedules/train_x_first/blue_star_00/top_right/inputInstr_1.xlsx,stimuli/alien_stimuli/11.png,773.3746795002371,773.3746795002371,773.3746795002371,773.3746795002371,773.3666811198927,return,10.78251580009237,"[-0.16, -0.08, 0, 0.08, 0.16, 0.24, 0.32, 0.4, 0.48, 0.56]","[-0.4, -0.32, -0.24, -0.16, -0.08, 0, 0.08, 0.16, 0.24, 0.32]",5,5,4,9,0.0,0.4,784.3178421999328,784.3178421999328,784.3178421999328,784.3178421999328,784.3178421999328,784.3178421999328,784.3178421999328,784.3092339402065,8.173909000121057,return,7.9991874997504056,stimuli/alien_stimuli/11.png,11,9,1,,,,,,,,,,,,,,,,,,,,,,,,,,,,,,,,,,,,,,,,,,,,,,,,,,,,,,,,,,,,,,,,,,,,,,,,,,,,,,,,,,,,,,,,,VWTGZN,train_x,blue_star,top_right,2025-04-23_09h59.41.636,HideSeek_v1,2022.2.5,59.5871563930061,
,,,,,,,,,,,30,,,,0,0,0,0,,,,,,,,,,,,,,,,,,,,,,,,,,,,,,,,,,,,,,,,,,,,,,,,,,,,,,,,,,,,,,,,,,,,,,,,,,,,,,21,0.7,0,0,99,1,30,0,conditions/schedules/train_x_first/blue_star_00/top_right/inputTrain_1.1.xlsx,99,1,1,1,0,,,,,,,,,,,,,,,,,,,,,,,,,,,,,,,,,,,,,,,,,,,,,,,,,,,,,,,,,,,,,,,,,,,,,,,,,,,VWTGZN,train_x,blue_star,top_right,2025-04-23_09h59.41.636,HideSeek_v1,2022.2.5,59.5871563930061,
,,,,,,,,,,,,,,,1,0,1,0,0,0,0,0,,,,,,,,,,,,,,,,,,,,,,,,,,,,,,,conditions/schedules/train_x_first/blue_star_00/top_right/instructions/Slide13.png,conditions/schedules/train_x_first/blue_star_00/top_right/instructions/Audio13.wav,792.4797617001459,792.4826425397769,13,"[4.549054999835789, 18.197071800008416, 16.906455400399864, 19.411730899941176, 4.930393799673766, 4.602174699772149, 5.335104399826378, 11.538329700008035, 6.004066000226885, 7.154184100218117, 9.937648700084537, 12.40404859976843, 18.382618099916726]","[4.549063500016928, 18.197079999838024, 16.90646200021729, 0.03056959994137287, 0.014071299694478512, 0.06373259983956814, 0.014205200131982565, 11.538337199948728, 0.000238100066781044, 0.030476999934762716, 0.04709309991449118, 12.404054899699986, 18.382624899968505]",0,,,,,,,,,,,,,,,,,,,,,,,,,,,,,,,,,,,,,,,,,,,,,,,,,,,,,,,,,,,,,,,,,,,,,,,,,,,,,,,,,,,,,,,,,,,,,,,,,,,,,,,,,,,,,,,,,,,,,,,,,,,,VWTGZN,train_x,blue_star,top_right,2025-04-23_09h59.41.636,HideSeek_v1,2022.2.5,59.5871563930061,
,,,,,,,,,,,,,,,1,0,1,0,1,0,1,0,,,,,,,,,,,,,,,,,,,,,,,,,,,,,,,conditions/schedules/train_x_first/blue_star_00/top_right/instructions/Slide14.png,conditions/schedules/train_x_first/blue_star_00/top_right/instructions/Audio14.wav,810.9291334999725,810.931479100138,14,"[4.549054999835789, 18.197071800008416, 16.906455400399864, 19.411730899941176, 4.930393799673766, 4.602174699772149, 5.335104399826378, 11.538329700008035, 6.004066000226885, 7.154184100218117, 9.937648700084537, 12.40404859976843, 18.382618099916726, 13.044590699952096]","[4.549063500016928, 18.197079999838024, 16.90646200021729, 0.03056959994137287, 0.014071299694478512, 0.06373259983956814, 0.014205200131982565, 11.538337199948728, 0.000238100066781044, 0.030476999934762716, 0.04709309991449118, 12.404054899699986, 0.05030289990827441, 13.044597100000829]",0,,,,,,,,,,,,,,,,,,,,,,,,,,,,,,,,,,,,,,,,,,,,,,,,,,,,,,,,,,,,,,,,,,,,,,,,,,,,,,,,,,,,,,,,,,,,,,,,,,,,,,,,,,,,,,,,,,,,,,,,,,,,VWTGZN,train_x,blue_star,top_right,2025-04-23_09h59.41.636,HideSeek_v1,2022.2.5,59.5871563930061,
2,8,7,8,7,0,0,61,2,instr_dim1_1,,,,,,1,0,1,0,,,,,0,0,0,0,,,,,,,,,,,,,,,,,,,,,,,,,,,,,,,,,,,,,stimuli/alien_stimuli/61.png,conditions/schedules/train_x_first/blue_star_00/top_right/inputInstr_1.xlsx,stimuli/alien_stimuli/61.png,824.0819657999091,824.0819657999091,824.0819657999091,824.0819657999091,824.0758012202568,return,6.564127000048757,"[-0.16, -0.08, 0, 0.08, 0.16, 0.24, 0.32, 0.4, 0.48, 0.56]","[-0.4, -0.32, -0.24, -0.16, -0.08, 0, 0.08, 0.16, 0.24, 0.32]",7,7,8,8,0.0,0.0,830.7888688002713,830.7888688002713,830.7888688002713,830.7888688002713,830.7888688002713,830.7888688002713,830.7888688002713,830.7812001798302,7.857158999890089,return,7.704269899521023,stimuli/alien_stimuli/61.png,61,8,2,,,,,,,,,,,,,,,,,,,,,,,,,,,,,,,,,,,,,,,,,,,,,,,,,,,,,,,,,,,,,,,,,,,,,,,,,,,,,,,,,,,,,,,,,VWTGZN,train_x,blue_star,top_right,2025-04-23_09h59.41.636,HideSeek_v1,2022.2.5,59.5871563930061,
,,,,,,,,,,,30,,,,1,0,1,0,,,,,,,,,,,,,,,,,,,,,,,,,,,,,,,,,,,,,,,,,,,,,,,,,,,,,,,,,,,,,,,,,,,,,,,,,,,,,,21,0.7,0,0,99,1,30,0,conditions/schedules/train_x_first/blue_star_00/top_right/inputTrain_1.1.xlsx,99,1,1,1,0,,,,,,,,,,,,,,,,,,,,,,,,,,,,,,,,,,,,,,,,,,,,,,,,,,,,,,,,,,,,,,,,,,,,,,,,,,,VWTGZN,train_x,blue_star,top_right,2025-04-23_09h59.41.636,HideSeek_v1,2022.2.5,59.5871563930061,
,,,,,,,,,,,,,,,2,0,2,0,0,0,0,0,,,,,,,,,,,,,,,,,,,,,,,,,,,,,,,conditions/schedules/train_x_first/blue_star_00/top_right/instructions/Slide15.png,conditions/schedules/train_x_first/blue_star_00/top_right/instructions/Audio15.wav,838.6570179001428,838.654099740088,15,"[4.549054999835789, 18.197071800008416, 16.906455400399864, 19.411730899941176, 4.930393799673766, 4.602174699772149, 5.335104399826378, 11.538329700008035, 6.004066000226885, 7.154184100218117, 9.937648700084537, 12.40404859976843, 18.382618099916726, 13.044590699952096, 31.30396950012073]","[4.549063500016928, 18.197079999838024, 16.90646200021729, 0.03056959994137287, 0.014071299694478512, 0.06373259983956814, 0.014205200131982565, 11.538337199948728, 0.000238100066781044, 0.030476999934762716, 0.04709309991449118, 12.404054899699986, 0.05030289990827441, 13.044597100000829, 31.303976099938154]",0,,,,,,,,,,,,,,,,,,,,,,,,,,,,,,,,,,,,,,,,,,,,,,,,,,,,,,,,,,,,,,,,,,,,,,,,,,,,,,,,,,,,,,,,,,,,,,,,,,,,,,,,,,,,,,,,,,,,,,,,,,,,VWTGZN,train_x,blue_star,top_right,2025-04-23_09h59.41.636,HideSeek_v1,2022.2.5,59.5871563930061,
,,,,,,,,,,,,,,,2,0,2,0,1,0,1,0,,,,,,,,,,,,,,,,,,,,,,,,,,,,,,,conditions/schedules/train_x_first/blue_star_00/top_right/instructions/Slide16.png,conditions/schedules/train_x_first/blue_star_00/top_right/instructions/Audio16.wav,870.0242588003166,870.013889640104,16,"[4.549054999835789, 18.197071800008416, 16.906455400399864, 19.411730899941176, 4.930393799673766, 4.602174699772149, 5.335104399826378, 11.538329700008035, 6.004066000226885, 7.154184100218117, 9.937648700084537, 12.40404859976843, 18.382618099916726, 13.044590699952096, 31.30396950012073, 21.221776499878615]","[4.549063500016928, 18.197079999838024, 16.90646200021729, 0.03056959994137287, 0.014071299694478512, 0.06373259983956814, 0.014205200131982565, 11.538337199948728, 0.000238100066781044, 0.030476999934762716, 0.04709309991449118, 12.404054899699986, 0.05030289990827441, 13.044597100000829, 0.014132999815046787, 21.221783499699086]",0,,,,,,,,,,,,,,,,,,,,,,,,,,,,,,,,,,,,,,,,,,,,,,,,,,,,,,,,,,,,,,,,,,,,,,,,,,,,,,,,,,,,,,,,,,,,,,,,,,,,,,,,,,,,,,,,,,,,,,,,,,,,VWTGZN,train_x,blue_star,top_right,2025-04-23_09h59.41.636,HideSeek_v1,2022.2.5,59.5871563930061,
,7,6,4,6,-3,0,31,,train_dim1_1,1,30,,,,2,0,2,0,,,,,,,,,0,0,0,0,0,0,0,0,0,0,0,0,,,,,,,,,,,,,,,,,,,,,,,,,stimuli/alien_stimuli/31.png,,,,,,,,,,,,,,,,,,,,,,,,,,,,,,,,,,,,,,,30,,,,,,,,891.3492463002913,891.3492463002913,891.3492463002913,891.3492463002913,891.3492463002913,up,8.018018399830908,0,0,0,99,0.4,0.16,up,7.91719889966771,,,,,,,,,,,,,,,,,,,,,,,,,,,,,,,,,,,,,,,,,,,,,,,,,,,,,,,,,,,,VWTGZN,train_x,blue_star,top_right,2025-04-23_09h59.41.636,HideSeek_v1,2022.2.5,59.5871563930061,
,7,6,4,6,-3,0,31,,train_dim1_1,1,30,,,,2,0,2,0,,,,,,,,,0,0,0,0,0,0,0,0,1,0,1,0,,,,,,,,,,,,,,,,,,,,,,,,,,,,,,,,,,,,,,,,,,,,,,,,,,,,,,,,,,,,,,,,30,,,,,,,,899.3542792000808,899.3542792000808,899.3542792000808,899.3542792000808,899.3542792000808,up,0.74268600018695,0,0,0,99,0.4,0.24,up,0.6632483000867069,,,,,,,,,,,,,,,,,,,,,,,,,,,,,,,,,,,,,,,,,,,,,,,,,,,,,,,,,,,,VWTGZN,train_x,blue_star,top_right,2025-04-23_09h59.41.636,HideSeek_v1,2022.2.5,59.5871563930061,
,7,6,4,6,-3,0,31,,train_dim1_1,1,30,,,,2,0,2,0,,,,,,,,,0,0,0,0,0,0,0,0,2,0,2,0,,,,,,,,,,,,,,,,,,,,,,,,,,,,,,,,,,,,,,,,,,,,,,,,,,,,,,,,,,,,,,,,30,,,,,,,,900.1030676001683,900.1030676001683,900.1030676001683,900.1030676001683,900.1030676001683,left,1.9286323999986053,0,0,0,99,0.32,0.24,left,1.8401994998566806,,,,,,,,,,,,,,,,,,,,,,,,,,,,,,,,,,,,,,,,,,,,,,,,,,,,,,,,,,,,VWTGZN,train_x,blue_star,top_right,2025-04-23_09h59.41.636,HideSeek_v1,2022.2.5,59.5871563930061,
,7,6,4,6,-3,0,31,,train_dim1_1,1,30,,,,2,0,2,0,,,,,,,,,0,0,0,0,0,0,0,0,3,0,3,0,,,,,,,,,,,,,,,,,,,,,,,,,,,,,,,,,,,,,,,,,,,,,,,,,,,,,,,,,,,,,,,,30,,,,,,,,902.0377899003215,902.0377899003215,902.0377899003215,902.0377899003215,902.0377899003215,left,1.3940039998851717,0,0,0,99,0.24,0.24,left,1.3087742999196053,,,,,,,,,,,,,,,,,,,,,,,,,,,,,,,,,,,,,,,,,,,,,,,,,,,,,,,,,,,,VWTGZN,train_x,blue_star,top_right,2025-04-23_09h59.41.636,HideSeek_v1,2022.2.5,59.5871563930061,
,7,6,4,6,-3,0,31,,train_dim1_1,1,30,,,,2,0,2,0,,,,,,,,,0,0,0,0,0,0,0,0,4,0,4,0,,,,,,,,,,,,,,,,,,,,,,,,,,,,,,,,,,,,,,,,,,,,,,,,,,,,,,,,,,,,,,,,30,,,,,,,,903.4412405001931,903.4412405001931,903.4412405001931,903.4412405001931,903.4412405001931,return,0.8764447001740336,0,0,0,0,0.24,0.24,return,0.7936207000166178,2,-2,0.24,0.24,,,,,,,,,,,,,,,,,,,,,,,,,,,,,,,,,,,,,,,,,,,,,,,,,,,,,,,,VWTGZN,train_x,blue_star,top_right,2025-04-23_09h59.41.636,HideSeek_v1,2022.2.5,59.5871563930061,
,7,9,2,9,-5,0,11,,train_dim1_1,2,30,,,,2,0,2,0,,,,,,,,,0,0,0,0,0,1,1,1,0,0,0,0,,,,,,,,,,,,,,,,,,,,,,,,,stimuli/alien_stimuli/11.png,,,,,,,,,,,,,,,,,,,,,,,,,,,,,stimuli/alien_stimuli/31.png,31,7,3,,,,,,,30,,,,,,,,927.2450687000528,927.2450687000528,927.2450687000528,927.2450687000528,927.2450687000528,down,5.073622199706733,0,0,0,99,0.4,0.24,down,4.956218999810517,,,,,925.660109099932,927.2450687000528,0.16,0.08,0.0,0.24,0.08,0.16,0.28,0.16,0.08,905.8903072001413,905.8903072001413,905.8903072001413,905.8903072001413,905.8903072001413,905.8903072001413,905.8903072001413,905.8903072001413,905.8768192199059,19.88564829993993,return,19.74788749963045,,,,,,,,,,,,,,,,,,,,,,,,,,,,,,,,,VWTGZN,train_x,blue_star,top_right,2025-04-23_09h59.41.636,HideSeek_v1,2022.2.5,59.5871563930061,
,7,9,2,9,-5,0,11,,train_dim1_1,2,30,,,,2,0,2,0,,,,,,,,,0,0,0,0,0,1,1,1,1,0,1,0,,,,,,,,,,,,,,,,,,,,,,,,,,,,,,,,,,,,,,,,,,,,,,,,,,,,,,,,,,,,,,,,30,,,,,,,,932.3006331003271,932.3006331003271,932.3006331003271,932.3006331003271,932.3006331003271,down,1.3935727998614311,0,0,0,99,0.4,0.15999999999999998,down,1.308435999788344,,,,,,,,,,,,,,,,,,,,,,,,,,,,,,,,,,,,,,,,,,,,,,,,,,,,,,,,,,,,VWTGZN,train_x,blue_star,top_right,2025-04-23_09h59.41.636,HideSeek_v1,2022.2.5,59.5871563930061,
,7,9,2,9,-5,0,11,,train_dim1_1,2,30,,,,2,0,2,0,,,,,,,,,0,0,0,0,0,1,1,1,2,0,2,0,,,,,,,,,,,,,,,,,,,,,,,,,,,,,,,,,,,,,,,,,,,,,,,,,,,,,,,,,,,,,,,,30,,,,,,,,933.7010119003244,933.7010119003244,933.7010119003244,933.7010119003244,933.7010119003244,down,0.9435826996341348,0,0,0,99,0.4,0.07999999999999997,down,0.856201599817723,,,,,,,,,,,,,,,,,,,,,,,,,,,,,,,,,,,,,,,,,,,,,,,,,,,,,,,,,,,,VWTGZN,train_x,blue_star,top_right,2025-04-23_09h59.41.636,HideSeek_v1,2022.2.5,59.5871563930061,
,7,9,2,9,-5,0,11,,train_dim1_1,2,30,,,,2,0,2,0,,,,,,,,,0,0,0,0,0,1,1,1,3,0,3,0,,,,,,,,,,,,,,,,,,,,,,,,,,,,,,,,,,,,,,,,,,,,,,,,,,,,,,,,,,,,,,,,30,,,,,,,,934.6515970001929,934.6515970001929,934.6515970001929,934.6515970001929,934.6515970001929,down,0.8773079998791218,0,0,0,99,0.4,-2.7755575615628914e-17,down,0.7883358001708984,,,,,,,,,,,,,,,,,,,,,,,,,,,,,,,,,,,,,,,,,,,,,,,,,,,,,,,,,,,,VWTGZN,train_x,blue_star,top_right,2025-04-23_09h59.41.636,HideSeek_v1,2022.2.5,59.5871563930061,
,7,9,2,9,-5,0,11,,train_dim1_1,2,30,,,,2,0,2,0,,,,,,,,,0,0,0,0,0,1,1,1,4,0,4,0,,,,,,,,,,,,,,,,,,,,,,,,,,,,,,,,,,,,,,,,,,,,,,,,,,,,,,,,,,,,,,,,30,,,,,,,,935.5443164999597,935.5443164999597,935.5443164999597,935.5443164999597,935.5443164999597,down,1.760972499847412,0,0,0,99,0.4,-0.08000000000000003,down,1.6710586994886398,,,,,,,,,,,,,,,,,,,,,,,,,,,,,,,,,,,,,,,,,,,,,,,,,,,,,,,,,,,,VWTGZN,train_x,blue_star,top_right,2025-04-23_09h59.41.636,HideSeek_v1,2022.2.5,59.5871563930061,
,7,9,2,9,-5,0,11,,train_dim1_1,2,30,,,,2,0,2,0,,,,,,,,,0,0,0,0,0,1,1,1,5,0,5,0,,,,,,,,,,,,,,,,,,,,,,,,,,,,,,,,,,,,,,,,,,,,,,,,,,,,,,,,,,,,,,,,30,,,,,,,,937.3057719999924,937.3057719999924,937.3057719999924,937.3057719999924,937.3057719999924,return,0.6759967003017664,0,0,0,0,0.4,-0.08000000000000003,return,0.5973375998437405,-3,-2,0.4,-0.08000000000000003,,,,,,,,,,,,,,,,,,,,,,,,,,,,,,,,,,,,,,,,,,,,,,,,,,,,,,,,VWTGZN,train_x,blue_star,top_right,2025-04-23_09h59.41.636,HideSeek_v1,2022.2.5,59.5871563930061,
,9,9,5,9,-4,0,21,,train_dim1_1,3,30,,,,2,0,2,0,,,,,,,,,0,0,0,0,0,2,2,2,0,0,0,0,,,,,,,,,,,,,,,,,,,,,,,,,stimuli/alien_stimuli/21.png,,,,,,,,,,,,,,,,,,,,,,,,,,,,,stimuli/alien_stimuli/11.png,11,7,4,,,,,,,30,,,,,,,,948.8426802000031,948.8426802000031,948.8426802000031,948.8426802000031,948.8426802000031,left,10.948158300016075,0,0,0,99,0.48000000000000004,0.32,left,10.86312530003488,,,,,947.2779669999145,948.8426802000031,0,0.32,0.0,0.4,0.32,0,0.2,0,0.32,939.5685383002274,939.5685383002274,939.5685383002274,939.5685383002274,939.5685383002274,939.5685383002274,939.5685383002274,939.5685383002274,939.5551165798679,7.841753999702632,return,7.691012499853969,,,,,,,,,,,,,,,,,,,,,,,,,,,,,,,,,VWTGZN,train_x,blue_star,top_right,2025-04-23_09h59.41.636,HideSeek_v1,2022.2.5,59.5871563930061,
,9,9,5,9,-4,0,21,,train_dim1_1,3,30,,,,2,0,2,0,,,,,,,,,0,0,0,0,0,2,2,2,1,0,1,0,,,,,,,,,,,,,,,,,,,,,,,,,,,,,,,,,,,,,,,,,,,,,,,,,,,,,,,,,,,,,,,,30,,,,,,,,959.8015784001909,959.8015784001909,959.8015784001909,959.8015784001909,959.8015784001909,left,0.8930128999054432,0,0,0,99,0.4,0.32,left,0.7975571998395026,,,,,,,,,,,,,,,,,,,,,,,,,,,,,,,,,,,,,,,,,,,,,,,,,,,,,,,,,,,,VWTGZN,train_x,blue_star,top_right,2025-04-23_09h59.41.636,HideSeek_v1,2022.2.5,59.5871563930061,
,9,9,5,9,-4,0,21,,train_dim1_1,3,30,,,,2,0,2,0,,,,,,,,,0,0,0,0,0,2,2,2,2,0,2,0,,,,,,,,,,,,,,,,,,,,,,,,,,,,,,,,,,,,,,,,,,,,,,,,,,,,,,,,,,,,,,,,30,,,,,,,,960.6911702002399,960.6911702002399,960.6911702002399,960.6911702002399,960.6911702002399,left,1.1266977996565402,0,0,0,99,0.32,0.32,left,1.048126199748367,,,,,,,,,,,,,,,,,,,,,,,,,,,,,,,,,,,,,,,,,,,,,,,,,,,,,,,,,,,,VWTGZN,train_x,blue_star,top_right,2025-04-23_09h59.41.636,HideSeek_v1,2022.2.5,59.5871563930061,
,9,9,5,9,-4,0,21,,train_dim1_1,3,30,,,,2,0,2,0,,,,,,,,,0,0,0,0,0,2,2,2,3,0,3,0,,,,,,,,,,,,,,,,,,,,,,,,,,,,,,,,,,,,,,,,,,,,,,,,,,,,,,,,,,,,,,,,30,,,,,,,,961.8245643000118,961.8245643000118,961.8245643000118,961.8245643000118,961.8245643000118,return,2.011137300170958,0,1,0,0,0.32,0.32,return,1.9239921001717448,-3,-5,0.32,0.32,,,,,,,,,,,,,,,,,,,,,,,,,,,,,,,,,,,,,,,,,,,,,,,,,,,,,,,,VWTGZN,train_x,blue_star,top_right,2025-04-23_09h59.41.636,HideSeek_v1,2022.2.5,59.5871563930061,
,7,8,6,8,-1,0,51,,train_dim1_1,4,30,,,,2,0,2,0,,,,,,,,,0,0,0,0,0,3,3,3,0,0,0,0,,,,,,,,,,,,,,,,,,,,,,,,,stimuli/alien_stimuli/51.png,,,,,,,,,,,,,,,,,,,,,,,,,,,,,stimuli/alien_stimuli/21.png,21,9,5,,,,,,,30,,,,,,,,979.8907026001252,979.8907026001252,979.8907026001252,979.8907026001252,979.8907026001252,down,5.6894005998037755,0,1,0,99,0.4,0.15999999999999998,down,5.588810999877751,,,,,978.3206581999548,979.8907026001252,0.24,0.32,0.0,0.32,0.32,0.24,0.4,0.24,0.32,965.426993300207,965.426993300207,965.426993300207,965.426993300207,965.426993300207,965.426993300207,965.426993300207,965.426993300207,965.4097208799794,13.029485099948943,return,12.865834000054747,,,,,,,,,,,,,,,,,,,,,,,,,,,,,,,,,VWTGZN,train_x,blue_star,top_right,2025-04-23_09h59.41.636,HideSeek_v1,2022.2.5,59.5871563930061,
,7,8,6,8,-1,0,51,,train_dim1_1,4,30,,,,2,0,2,0,,,,,,,,,0,0,0,0,0,3,3,3,1,0,1,0,,,,,,,,,,,,,,,,,,,,,,,,,,,,,,,,,,,,,,,,,,,,,,,,,,,,,,,,,,,,,,,,30,,,,,,,,985.577620500233,985.577620500233,985.577620500233,985.577620500233,985.577620500233,down,0.5761219998821616,0,1,0,99,0.4,0.07999999999999997,down,0.49465129943564534,,,,,,,,,,,,,,,,,,,,,,,,,,,,,,,,,,,,,,,,,,,,,,,,,,,,,,,,,,,,VWTGZN,train_x,blue_star,top_right,2025-04-23_09h59.41.636,HideSeek_v1,2022.2.5,59.5871563930061,
,7,8,6,8,-1,0,51,,train_dim1_1,4,30,,,,2,0,2,0,,,,,,,,,0,0,0,0,0,3,3,3,2,0,2,0,,,,,,,,,,,,,,,,,,,,,,,,,,,,,,,,,,,,,,,,,,,,,,,,,,,,,,,,,,,,,,,,30,,,,,,,,986.1597613003105,986.1597613003105,986.1597613003105,986.1597613003105,986.1597613003105,down,0.6765530998818576,0,1,0,99,0.4,-2.7755575615628914e-17,down,0.5945233996026218,,,,,,,,,,,,,,,,,,,,,,,,,,,,,,,,,,,,,,,,,,,,,,,,,,,,,,,,,,,,VWTGZN,train_x,blue_star,top_right,2025-04-23_09h59.41.636,HideSeek_v1,2022.2.5,59.5871563930061,
,7,8,6,8,-1,0,51,,train_dim1_1,4,30,,,,2,0,2,0,,,,,,,,,0,0,0,0,0,3,3,3,3,0,3,0,,,,,,,,,,,,,,,,,,,,,,,,,,,,,,,,,,,,,,,,,,,,,,,,,,,,,,,,,,,,,,,,30,,,,,,,,986.866208200343,986.866208200343,986.866208200343,986.866208200343,986.866208200343,return,0.7102847998030484,0,0,0,0,0.4,-2.7755575615628914e-17,return,0.6013024994172156,-6,-5,0.4,-2.7755575615628914e-17,,,,,,,,,,,,,,,,,,,,,,,,,,,,,,,,,,,,,,,,,,,,,,,,,,,,,,,,VWTGZN,train_x,blue_star,top_right,2025-04-23_09h59.41.636,HideSeek_v1,2022.2.5,59.5871563930061,
,5,7,5,7,0,0,61,,train_dim1_1,5,30,,,,2,0,2,0,,,,,,,,,0,0,0,0,0,4,4,4,0,0,0,0,,,,,,,,,,,,,,,,,,,,,,,,,stimuli/alien_stimuli/61.png,,,,,,,,,,,,,,,,,,,,,,,,,,,,,stimuli/alien_stimuli/51.png,51,7,6,,,,,,,30,,,,,,,,994.0339522003196,994.0339522003196,994.0339522003196,994.0339522003196,994.0339522003196,left,5.0560182998888195,0,0,0,99,0.15999999999999998,0.16,left,4.958159999921918,,,,,992.4656323003583,994.0339522003196,0.32,0.24,0.0,0.08,0.24,0.32,0.36,0.32,0.24,989.1263937000185,989.1263937000185,989.1263937000185,989.1263937000185,989.1263937000185,989.1263937000185,989.1263937000185,989.1263937000185,989.1128119202331,3.455383399967104,return,3.323333299718797,,,,,,,,,,,,,,,,,,,,,,,,,,,,,,,,,VWTGZN,train_x,blue_star,top_right,2025-04-23_09h59.41.636,HideSeek_v1,2022.2.5,59.5871563930061,
,5,7,5,7,0,0,61,,train_dim1_1,5,30,,,,2,0,2,0,,,,,,,,,0,0,0,0,0,4,4,4,1,0,1,0,,,,,,,,,,,,,,,,,,,,,,,,,,,,,,,,,,,,,,,,,,,,,,,,,,,,,,,,,,,,,,,,30,,,,,,,,999.0851900000125,999.0851900000125,999.0851900000125,999.0851900000125,999.0851900000125,return,1.243573000188917,0,1,0,0,0.15999999999999998,0.16,return,1.1654432998038828,-6,-6,0.15999999999999998,0.16,,,,,,,,,,,,,,,,,,,,,,,,,,,,,,,,,,,,,,,,,,,,,,,,,,,,,,,,VWTGZN,train_x,blue_star,top_right,2025-04-23_09h59.41.636,HideSeek_v1,2022.2.5,59.5871563930061,
,5,5,1,5,-4,0,21,,train_dim1_1,6,30,,,,2,0,2,0,,,,,,,,,0,0,0,0,0,5,5,5,0,0,0,0,,,,,,,,,,,,,,,,,,,,,,,,,stimuli/alien_stimuli/21.png,,,,,,,,,,,,,,,,,,,,,,,,,,,,,stimuli/alien_stimuli/61.png,61,5,7,,,,,,,30,,,,,,,,1015.3227910003625,1015.3227910003625,1015.3227910003625,1015.3227910003625,1015.3227910003625,left,6.50796450022608,0,1,0,99,0.15999999999999998,0,left,6.417084399610758,,,,,1013.7499196999706,1015.3227910003625,0.24,0.16,0.0,0.0,0.16,0.24,0.24,0.24,0.16,1001.9103911002167,1001.9103911002167,1001.9103911002167,1001.9103911002167,1001.9103911002167,1001.9103911002167,1001.9103911002167,1001.9103911002167,1001.890020320192,11.962246499955654,return,11.82015849975869,,,,,,,,,,,,,,,,,,,,,,,,,,,,,,,,,VWTGZN,train_x,blue_star,top_right,2025-04-23_09h59.41.636,HideSeek_v1,2022.2.5,59.5871563930061,
,5,5,1,5,-4,0,21,,train_dim1_1,6,30,,,,2,0,2,0,,,,,,,,,0,0,0,0,0,5,5,5,1,0,1,0,,,,,,,,,,,,,,,,,,,,,,,,,,,,,,,,,,,,,,,,,,,,,,,,,,,,,,,,,,,,,,,,30,,,,,,,,1021.8262046002783,1021.8262046002783,1021.8262046002783,1021.8262046002783,1021.8262046002783,left,0.6085143000818789,0,1,0,99,0.07999999999999997,0,left,0.5231803995557129,,,,,,,,,,,,,,,,,,,,,,,,,,,,,,,,,,,,,,,,,,,,,,,,,,,,,,,,,,,,VWTGZN,train_x,blue_star,top_right,2025-04-23_09h59.41.636,HideSeek_v1,2022.2.5,59.5871563930061,
,5,5,1,5,-4,0,21,,train_dim1_1,6,30,,,,2,0,2,0,,,,,,,,,0,0,0,0,0,5,5,5,2,0,2,0,,,,,,,,,,,,,,,,,,,,,,,,,,,,,,,,,,,,,,,,,,,,,,,,,,,,,,,,,,,,,,,,30,,,,,,,,1022.4414011002518,1022.4414011002518,1022.4414011002518,1022.4414011002518,1022.4414011002518,left,0.6765825999900699,0,1,0,99,-2.7755575615628914e-17,0,left,0.5987488999962807,,,,,,,,,,,,,,,,,,,,,,,,,,,,,,,,,,,,,,,,,,,,,,,,,,,,,,,,,,,,VWTGZN,train_x,blue_star,top_right,2025-04-23_09h59.41.636,HideSeek_v1,2022.2.5,59.5871563930061,
,5,5,1,5,-4,0,21,,train_dim1_1,6,30,,,,2,0,2,0,,,,,,,,,0,0,0,0,0,5,5,5,3,0,3,0,,,,,,,,,,,,,,,,,,,,,,,,,,,,,,,,,,,,,,,,,,,,,,,,,,,,,,,,,,,,,,,,30,,,,,,,,1023.1254711002111,1023.1254711002111,1023.1254711002111,1023.1254711002111,1023.1254711002111,return,1.093799699563533,0,1,0,0,-2.7755575615628914e-17,0,return,1.0100366999395192,-6,-9,-2.7755575615628914e-17,0,,,,,,,,,,,,,,,,,,,,,,,,,,,,,,,,,,,,,,,,,,,,,,,,,,,,,,,,VWTGZN,train_x,blue_star,top_right,2025-04-23_09h59.41.636,HideSeek_v1,2022.2.5,59.5871563930061,
,8,5,8,5,0,0,61,,train_dim1_1,7,30,,,,2,0,2,0,,,,,,,,,0,0,0,0,0,6,6,6,0,0,0,0,,,,,,,,,,,,,,,,,,,,,,,,,stimuli/alien_stimuli/61.png,,,,,,,,,,,,,,,,,,,,,,,,,,,,,stimuli/alien_stimuli/21.png,21,5,8,,,,,,,30,,,,,,,,1031.5930043999106,1031.5930043999106,1031.5930043999106,1031.5930043999106,1031.5930043999106,left,2.7378663001582026,0,1,0,99,0.39999999999999997,0,left,2.652931399643421,,,,,1030.0300394999795,1031.5930043999106,-0.08,0,0.0,0.32,0.0,-0.08,0.07999999999999999,-0.08,0,1025.8060705000535,1025.8060705000535,1025.8060705000535,1025.8060705000535,1025.8060705000535,1025.8060705000535,1025.8060705000535,1025.8060705000535,1025.7931126798503,4.355498599819839,return,4.200850300025195,,,,,,,,,,,,,,,,,,,,,,,,,,,,,,,,,VWTGZN,train_x,blue_star,top_right,2025-04-23_09h59.41.636,HideSeek_v1,2022.2.5,59.5871563930061,
,8,5,8,5,0,0,61,,train_dim1_1,7,30,,,,2,0,2,0,,,,,,,,,0,0,0,0,0,6,6,6,1,0,1,0,,,,,,,,,,,,,,,,,,,,,,,,,,,,,,,,,,,,,,,,,,,,,,,,,,,,,,,,,,,,,,,,30,,,,,,,,1034.331462000031,1034.331462000031,1034.331462000031,1034.331462000031,1034.331462000031,return,1.1934938002377748,0,1,0,0,0.39999999999999997,0,return,1.1088286000303924,-6,-10,0.39999999999999997,0,,,,,,,,,,,,,,,,,,,,,,,,,,,,,,,,,,,,,,,,,,,,,,,,,,,,,,,,VWTGZN,train_x,blue_star,top_right,2025-04-23_09h59.41.636,HideSeek_v1,2022.2.5,59.5871563930061,
,5,9,2,9,-3,0,31,,train_dim1_1,8,30,,,,2,0,2,0,,,,,,,,,0,0,0,0,0,7,7,7,0,0,0,0,,,,,,,,,,,,,,,,,,,,,,,,,stimuli/alien_stimuli/31.png,,,,,,,,,,,,,,,,,,,,,,,,,,,,,stimuli/alien_stimuli/61.png,61,8,9,,,,,,,30,,,,,,,,1041.304017400369,1041.304017400369,1041.304017400369,1041.304017400369,1041.304017400369,left,5.771377900149673,0,1,0,99,0.15999999999999998,0.32,left,5.682984699960798,,,,,1039.7382771000266,1041.304017400369,0.48,0,0.0,0.0,0.0,0.48,0.48,0.48,0,1037.1131808999926,1037.1131808999926,1037.1131808999926,1037.1131808999926,1037.1131808999926,1037.1131808999926,1037.1131808999926,1037.1131808999926,1037.102542379871,2.7545455996878445,return,2.603588500060141,,,,,,,,,,,,,,,,,,,,,,,,,,,,,,,,,VWTGZN,train_x,blue_star,top_right,2025-04-23_09h59.41.636,HideSeek_v1,2022.2.5,59.5871563930061,
,5,9,2,9,-3,0,31,,train_dim1_1,8,30,,,,2,0,2,0,,,,,,,,,0,0,0,0,0,7,7,7,1,0,1,0,,,,,,,,,,,,,,,,,,,,,,,,,,,,,,,,,,,,,,,,,,,,,,,,,,,,,,,,,,,,,,,,30,,,,,,,,1047.0769825000316,1047.0769825000316,1047.0769825000316,1047.0769825000316,1047.0769825000316,left,0.575184800196439,0,1,0,99,0.07999999999999997,0.32,left,0.49854329973459244,,,,,,,,,,,,,,,,,,,,,,,,,,,,,,,,,,,,,,,,,,,,,,,,,,,,,,,,,,,,VWTGZN,train_x,blue_star,top_right,2025-04-23_09h59.41.636,HideSeek_v1,2022.2.5,59.5871563930061,
,5,9,2,9,-3,0,31,,train_dim1_1,8,30,,,,2,0,2,0,,,,,,,,,0,0,0,0,0,7,7,7,2,0,2,0,,,,,,,,,,,,,,,,,,,,,,,,,,,,,,,,,,,,,,,,,,,,,,,,,,,,,,,,,,,,,,,,30,,,,,,,,1047.6607694001868,1047.6607694001868,1047.6607694001868,1047.6607694001868,1047.6607694001868,left,0.8261965001001954,0,1,0,99,-2.7755575615628914e-17,0.32,left,0.739107399713248,,,,,,,,,,,,,,,,,,,,,,,,,,,,,,,,,,,,,,,,,,,,,,,,,,,,,,,,,,,,VWTGZN,train_x,blue_star,top_right,2025-04-23_09h59.41.636,HideSeek_v1,2022.2.5,59.5871563930061,
,5,9,2,9,-3,0,31,,train_dim1_1,8,30,,,,2,0,2,0,,,,,,,,,0,0,0,0,0,7,7,7,3,0,3,0,,,,,,,,,,,,,,,,,,,,,,,,,,,,,,,,,,,,,,,,,,,,,,,,,,,,,,,,,,,,,,,,30,,,,,,,,1048.4926542001776,1048.4926542001776,1048.4926542001776,1048.4926542001776,1048.4926542001776,left,0.7604661998338997,0,1,0,99,-0.08000000000000003,0.32,left,0.686911900062114,,,,,,,,,,,,,,,,,,,,,,,,,,,,,,,,,,,,,,,,,,,,,,,,,,,,,,,,,,,,VWTGZN,train_x,blue_star,top_right,2025-04-23_09h59.41.636,HideSeek_v1,2022.2.5,59.5871563930061,
,5,9,2,9,-3,0,31,,train_dim1_1,8,30,,,,2,0,2,0,,,,,,,,,0,0,0,0,0,7,7,7,4,0,4,0,,,,,,,,,,,,,,,,,,,,,,,,,,,,,,,,,,,,,,,,,,,,,,,,,,,,,,,,,,,,,,,,30,,,,,,,,1049.2602781001478,1049.2602781001478,1049.2602781001478,1049.2602781001478,1049.2602781001478,return,0.7766408999450505,0,1,0,0,-0.08000000000000003,0.32,return,0.6985881999135017,-6,-14,-0.08000000000000003,0.32,,,,,,,,,,,,,,,,,,,,,,,,,,,,,,,,,,,,,,,,,,,,,,,,,,,,,,,,VWTGZN,train_x,blue_star,top_right,2025-04-23_09h59.41.636,HideSeek_v1,2022.2.5,59.5871563930061,
,6,5,5,5,-1,0,51,,train_dim1_1,9,30,,,,2,0,2,0,,,,,,,,,0,0,0,0,0,8,8,8,0,0,0,0,,,,,,,,,,,,,,,,,,,,,,,,,stimuli/alien_stimuli/51.png,,,,,,,,,,,,,,,,,,,,,,,,,,,,,stimuli/alien_stimuli/31.png,31,5,10,,,,,,,30,,,,,,,,1056.3337035002187,1056.3337035002187,1056.3337035002187,1056.3337035002187,1056.3337035002187,left,4.854383500292897,0,1,0,99,0.24,0,left,4.768657399807125,,,,,1054.7673797002062,1056.3337035002187,0,0.32,0.0,0.24,0.32,0,0.12,0,0.32,1051.6154285999946,1051.6154285999946,1051.6154285999946,1051.6154285999946,1051.6154285999946,1051.6154285999946,1051.6154285999946,1051.6154285999946,1051.5980351199396,3.2717140996828675,return,3.125497699715197,,,,,,,,,,,,,,,,,,,,,,,,,,,,,,,,,VWTGZN,train_x,blue_star,top_right,2025-04-23_09h59.41.636,HideSeek_v1,2022.2.5,59.5871563930061,
,6,5,5,5,-1,0,51,,train_dim1_1,9,30,,,,2,0,2,0,,,,,,,,,0,0,0,0,0,8,8,8,1,0,1,0,,,,,,,,,,,,,,,,,,,,,,,,,,,,,,,,,,,,,,,,,,,,,,,,,,,,,,,,,,,,,,,,30,,,,,,,,1061.1922794999555,1061.1922794999555,1061.1922794999555,1061.1922794999555,1061.1922794999555,return,0.7245836001820862,1,0,0,1,0.24,0,return,0.6434280998073518,-6,-15,0.24,0,,,,,,,,,,,,,,,,,,,,,,,,,,,,,,,,,,,,,,,,,,,,,,,,,,,,,,,,VWTGZN,train_x,blue_star,top_right,2025-04-23_09h59.41.636,HideSeek_v1,2022.2.5,59.5871563930061,
,5,8,0,8,-5,0,11,,train_dim1_1,10,30,,,,2,0,2,0,,,,,,,,,0,0,0,0,0,9,9,9,0,0,0,0,,,,,,,,,,,,,,,,,,,,,,,,,stimuli/alien_stimuli/11.png,,,,,,,,,,,,,,,,,,,,,,,,,,,,,stimuli/alien_stimuli/51.png,51,6,11,,,,,,,30,,,,,,,,1072.2877662000246,1072.2877662000246,1072.2877662000246,1072.2877662000246,1072.2877662000246,left,7.117766299750656,1,0,0,99,0.15999999999999998,0.24,left,7.018206600099802,,,,,1070.7137756999582,1072.2877662000246,0.24,0,0.0,0.08,0.0,0.24,0.28,0.24,0,1063.4981460999697,1063.4981460999697,1063.4981460999697,1063.4981460999697,1063.4981460999697,1063.4981460999697,1063.4981460999697,1063.4981460999697,1063.491018179804,7.341653299983591,return,7.190928999800235,,,,,,,,,,,,,,,,,,,,,,,,,,,,,,,,,VWTGZN,train_x,blue_star,top_right,2025-04-23_09h59.41.636,HideSeek_v1,2022.2.5,59.5871563930061,
,5,8,0,8,-5,0,11,,train_dim1_1,10,30,,,,2,0,2,0,,,,,,,,,0,0,0,0,0,9,9,9,1,0,1,0,,,,,,,,,,,,,,,,,,,,,,,,,,,,,,,,,,,,,,,,,,,,,,,,,,,,,,,,,,,,,,,,30,,,,,,,,1079.4068913999945,1079.4068913999945,1079.4068913999945,1079.4068913999945,1079.4068913999945,left,0.5264359000138938,1,0,0,99,0.07999999999999997,0.24,left,0.4470806000754237,,,,,,,,,,,,,,,,,,,,,,,,,,,,,,,,,,,,,,,,,,,,,,,,,,,,,,,,,,,,VWTGZN,train_x,blue_star,top_right,2025-04-23_09h59.41.636,HideSeek_v1,2022.2.5,59.5871563930061,
,5,8,0,8,-5,0,11,,train_dim1_1,10,30,,,,2,0,2,0,,,,,,,,,0,0,0,0,0,9,9,9,2,0,2,0,,,,,,,,,,,,,,,,,,,,,,,,,,,,,,,,,,,,,,,,,,,,,,,,,,,,,,,,,,,,,,,,30,,,,,,,,1079.9400909999385,1079.9400909999385,1079.9400909999385,1079.9400909999385,1079.9400909999385,left,0.5097145000472665,1,0,0,99,-2.7755575615628914e-17,0.24,left,0.4198146997950971,,,,,,,,,,,,,,,,,,,,,,,,,,,,,,,,,,,,,,,,,,,,,,,,,,,,,,,,,,,,VWTGZN,train_x,blue_star,top_right,2025-04-23_09h59.41.636,HideSeek_v1,2022.2.5,59.5871563930061,
,5,8,0,8,-5,0,11,,train_dim1_1,10,30,,,,2,0,2,0,,,,,,,,,0,0,0,0,0,9,9,9,3,0,3,0,,,,,,,,,,,,,,,,,,,,,,,,,,,,,,,,,,,,,,,,,,,,,,,,,,,,,,,,,,,,,,,,30,,,,,,,,1080.459578000009,1080.459578000009,1080.459578000009,1080.459578000009,1080.459578000009,left,0.4935953002423048,1,0,0,99,-0.08000000000000003,0.24,left,0.4086838997900486,,,,,,,,,,,,,,,,,,,,,,,,,,,,,,,,,,,,,,,,,,,,,,,,,,,,,,,,,,,,VWTGZN,train_x,blue_star,top_right,2025-04-23_09h59.41.636,HideSeek_v1,2022.2.5,59.5871563930061,
,5,8,0,8,-5,0,11,,train_dim1_1,10,30,,,,2,0,2,0,,,,,,,,,0,0,0,0,0,9,9,9,4,0,4,0,,,,,,,,,,,,,,,,,,,,,,,,,,,,,,,,,,,,,,,,,,,,,,,,,,,,,,,,,,,,,,,,30,,,,,,,,1080.9579994003288,1080.9579994003288,1080.9579994003288,1080.9579994003288,1080.9579994003288,return,2.244473799597472,1,1,0,0,-0.08000000000000003,0.24,return,2.153895399533212,-6,-19,-0.08000000000000003,0.24,,,,,,,,,,,,,,,,,,,,,,,,,,,,,,,,,,,,,,,,,,,,,,,,,,,,,,,,VWTGZN,train_x,blue_star,top_right,2025-04-23_09h59.41.636,HideSeek_v1,2022.2.5,59.5871563930061,
,7,7,4,7,-3,0,31,,train_dim1_1,11,30,,,,2,0,2,0,,,,,,,,,0,0,0,0,0,10,10,10,0,0,0,0,,,,,,,,,,,,,,,,,,,,,,,,,stimuli/alien_stimuli/31.png,,,,,,,,,,,,,,,,,,,,,,,,,,,,,stimuli/alien_stimuli/11.png,11,5,12,,,,,,,30,,,,,,,,1088.866036500316,1088.866036500316,1088.866036500316,1088.866036500316,1088.866036500316,left,5.7939944001846015,1,1,0,99,0.32,0.16,left,5.694508200045675,,,,,1087.2942570000887,1088.866036500316,-0.16,0.24,0.0,0.4,0.24,-0.16,0.039999999999999994,-0.16,0.24,1084.7800500001758,1084.7800500001758,1084.7800500001758,1084.7800500001758,1084.7800500001758,1084.7800500001758,1084.7800500001758,1084.7800500001758,1084.7586460202,2.6372331003658473,return,2.4898386001586914,,,,,,,,,,,,,,,,,,,,,,,,,,,,,,,,,VWTGZN,train_x,blue_star,top_right,2025-04-23_09h59.41.636,HideSeek_v1,2022.2.5,59.5871563930061,
,7,7,4,7,-3,0,31,,train_dim1_1,11,30,,,,2,0,2,0,,,,,,,,,0,0,0,0,0,10,10,10,1,0,1,0,,,,,,,,,,,,,,,,,,,,,,,,,,,,,,,,,,,,,,,,,,,,,,,,,,,,,,,,,,,,,,,,30,,,,,,,,1094.6494656000286,1094.6494656000286,1094.6494656000286,1094.6494656000286,1094.6494656000286,left,0.6423501996323466,1,1,0,99,0.24,0.16,left,0.5634929998777807,,,,,,,,,,,,,,,,,,,,,,,,,,,,,,,,,,,,,,,,,,,,,,,,,,,,,,,,,,,,VWTGZN,train_x,blue_star,top_right,2025-04-23_09h59.41.636,HideSeek_v1,2022.2.5,59.5871563930061,
,7,7,4,7,-3,0,31,,train_dim1_1,11,30,,,,2,0,2,0,,,,,,,,,0,0,0,0,0,10,10,10,2,0,2,0,,,,,,,,,,,,,,,,,,,,,,,,,,,,,,,,,,,,,,,,,,,,,,,,,,,,,,,,,,,,,,,,30,,,,,,,,1095.2995982002467,1095.2995982002467,1095.2995982002467,1095.2995982002467,1095.2995982002467,left,1.1274562003090978,1,1,0,99,0.15999999999999998,0.16,left,1.036926199682057,,,,,,,,,,,,,,,,,,,,,,,,,,,,,,,,,,,,,,,,,,,,,,,,,,,,,,,,,,,,VWTGZN,train_x,blue_star,top_right,2025-04-23_09h59.41.636,HideSeek_v1,2022.2.5,59.5871563930061,
,7,7,4,7,-3,0,31,,train_dim1_1,11,30,,,,2,0,2,0,,,,,,,,,0,0,0,0,0,10,10,10,3,0,3,0,,,,,,,,,,,,,,,,,,,,,,,,,,,,,,,,,,,,,,,,,,,,,,,,,,,,,,,,,,,,,,,,30,,,,,,,,1096.434687900357,1096.434687900357,1096.434687900357,1096.434687900357,1096.434687900357,return,0.792971100192517,2,0,0,1,0.15999999999999998,0.16,return,0.7051760996691883,-6,-22,0.15999999999999998,0.16,,,,,,,,,,,,,,,,,,,,,,,,,,,,,,,,,,,,,,,,,,,,,,,,,,,,,,,,VWTGZN,train_x,blue_star,top_right,2025-04-23_09h59.41.636,HideSeek_v1,2022.2.5,59.5871563930061,
,5,5,1,5,-4,0,21,,train_dim1_1,12,30,,,,2,0,2,0,,,,,,,,,0,0,0,0,0,11,11,11,0,0,0,0,,,,,,,,,,,,,,,,,,,,,,,,,stimuli/alien_stimuli/21.png,,,,,,,,,,,,,,,,,,,,,,,,,,,,,stimuli/alien_stimuli/31.png,31,7,13,,,,,,,30,,,,,,,,1103.0524094002321,1103.0524094002321,1103.0524094002321,1103.0524094002321,1103.0524094002321,left,3.691635299939662,2,0,0,99,0.15999999999999998,0,left,3.59249209985137,,,,,1101.488810100127,1103.0524094002321,0.16,0.16,0.0,0.24,0.16,0.16,0.28,0.16,0.16,1098.7904143002816,1098.7904143002816,1098.7904143002816,1098.7904143002816,1098.7904143002816,1098.7904143002816,1098.7904143002816,1098.7904143002816,1098.7702253600582,2.8047548001632094,return,2.6782180997543037,,,,,,,,,,,,,,,,,,,,,,,,,,,,,,,,,VWTGZN,train_x,blue_star,top_right,2025-04-23_09h59.41.636,HideSeek_v1,2022.2.5,59.5871563930061,
,5,5,1,5,-4,0,21,,train_dim1_1,12,30,,,,2,0,2,0,,,,,,,,,0,0,0,0,0,11,11,11,1,0,1,0,,,,,,,,,,,,,,,,,,,,,,,,,,,,,,,,,,,,,,,,,,,,,,,,,,,,,,,,,,,,,,,,30,,,,,,,,1106.7453992003575,1106.7453992003575,1106.7453992003575,1106.7453992003575,1106.7453992003575,left,0.5263502998277545,2,0,0,99,0.07999999999999997,0,left,0.4465304999612272,,,,,,,,,,,,,,,,,,,,,,,,,,,,,,,,,,,,,,,,,,,,,,,,,,,,,,,,,,,,VWTGZN,train_x,blue_star,top_right,2025-04-23_09h59.41.636,HideSeek_v1,2022.2.5,59.5871563930061,
,5,5,1,5,-4,0,21,,train_dim1_1,12,30,,,,2,0,2,0,,,,,,,,,0,0,0,0,0,11,11,11,2,0,2,0,,,,,,,,,,,,,,,,,,,,,,,,,,,,,,,,,,,,,,,,,,,,,,,,,,,,,,,,,,,,,,,,30,,,,,,,,1107.2797798002139,1107.2797798002139,1107.2797798002139,1107.2797798002139,1107.2797798002139,left,0.5432556997984648,2,0,0,99,-2.7755575615628914e-17,0,left,0.45442229975014925,,,,,,,,,,,,,,,,,,,,,,,,,,,,,,,,,,,,,,,,,,,,,,,,,,,,,,,,,,,,VWTGZN,train_x,blue_star,top_right,2025-04-23_09h59.41.636,HideSeek_v1,2022.2.5,59.5871563930061,
,5,5,1,5,-4,0,21,,train_dim1_1,12,30,,,,2,0,2,0,,,,,,,,,0,0,0,0,0,11,11,11,3,0,3,0,,,,,,,,,,,,,,,,,,,,,,,,,,,,,,,,,,,,,,,,,,,,,,,,,,,,,,,,,,,,,,,,30,,,,,,,,1107.829965500161,1107.829965500161,1107.829965500161,1107.829965500161,1107.829965500161,left,1.0933471000753343,2,0,0,99,-0.08000000000000003,0,left,1.0161410998553038,,,,,,,,,,,,,,,,,,,,,,,,,,,,,,,,,,,,,,,,,,,,,,,,,,,,,,,,,,,,VWTGZN,train_x,blue_star,top_right,2025-04-23_09h59.41.636,HideSeek_v1,2022.2.5,59.5871563930061,
,5,5,1,5,-4,0,21,,train_dim1_1,12,30,,,,2,0,2,0,,,,,,,,,0,0,0,0,0,11,11,11,4,0,4,0,,,,,,,,,,,,,,,,,,,,,,,,,,,,,,,,,,,,,,,,,,,,,,,,,,,,,,,,,,,,,,,,30,,,,,,,,1108.9322701999918,1108.9322701999918,1108.9322701999918,1108.9322701999918,1108.9322701999918,return,0.6268144999630749,3,0,0,1,-0.08000000000000003,0,return,0.5331408996134996,-6,-26,-0.08000000000000003,0,,,,,,,,,,,,,,,,,,,,,,,,,,,,,,,,,,,,,,,,,,,,,,,,,,,,,,,,VWTGZN,train_x,blue_star,top_right,2025-04-23_09h59.41.636,HideSeek_v1,2022.2.5,59.5871563930061,
,5,9,4,9,-1,0,51,,train_dim1_1,13,30,,,,2,0,2,0,,,,,,,,,0,0,0,0,0,12,12,12,0,0,0,0,,,,,,,,,,,,,,,,,,,,,,,,,stimuli/alien_stimuli/51.png,,,,,,,,,,,,,,,,,,,,,,,,,,,,,stimuli/alien_stimuli/21.png,21,5,14,,,,,,,30,,,,,,,,1114.573679999914,1114.573679999914,1114.573679999914,1114.573679999914,1114.573679999914,return,2.5078314999118447,3,1,0,0,0.24,0.32,return,2.3982648998498917,-6,-26,0.24,0.32,1112.9986906000413,1114.573679999914,-0.08,0,0.0,0.32,0.0,-0.08,0.07999999999999999,-0.08,0,1111.1450437000021,1111.1450437000021,1111.1450437000021,1111.1450437000021,1111.1450437000021,1111.1450437000021,1111.1450437000021,1111.1450437000021,1111.1302477801219,1.9873624998144805,return,1.8348505995236337,,,,,,,,,,,,,,,,,,,,,,,,,,,,,,,,,VWTGZN,train_x,blue_star,top_right,2025-04-23_09h59.41.636,HideSeek_v1,2022.2.5,59.5871563930061,
,9,8,4,8,-5,0,11,,train_dim1_1,14,30,,,,2,0,2,0,,,,,,,,,0,0,0,0,0,13,13,13,0,0,0,0,,,,,,,,,,,,,,,,,,,,,,,,,stimuli/alien_stimuli/11.png,,,,,,,,,,,,,,,,,,,,,,,,,,,,,stimuli/alien_stimuli/51.png,51,5,15,,,,,,,30,,,,,,,,1123.4766214000992,1123.4766214000992,1123.4766214000992,1123.4766214000992,1123.4766214000992,left,2.2735995003022254,3,1,0,99,0.48000000000000004,0.24,left,2.1801554998382926,,,,,1121.9059999003075,1123.4766214000992,0.16,0.32,0.0,0.08,0.32,0.16,0.2,0.16,0.32,1118.62677180022,1118.62677180022,1118.62677180022,1118.62677180022,1118.62677180022,1118.62677180022,1118.62677180022,1118.62677180022,1118.6199590200558,3.388168300036341,return,3.2538464996032417,,,,,,,,,,,,,,,,,,,,,,,,,,,,,,,,,VWTGZN,train_x,blue_star,top_right,2025-04-23_09h59.41.636,HideSeek_v1,2022.2.5,59.5871563930061,
,9,8,4,8,-5,0,11,,train_dim1_1,14,30,,,,2,0,2,0,,,,,,,,,0,0,0,0,0,13,13,13,1,0,1,0,,,,,,,,,,,,,,,,,,,,,,,,,,,,,,,,,,,,,,,,,,,,,,,,,,,,,,,,,,,,,,,,30,,,,,,,,1125.746322200168,1125.746322200168,1125.746322200168,1125.746322200168,1125.746322200168,left,0.47601279988884926,3,1,0,99,0.4,0.24,left,0.3969594999216497,,,,,,,,,,,,,,,,,,,,,,,,,,,,,,,,,,,,,,,,,,,,,,,,,,,,,,,,,,,,VWTGZN,train_x,blue_star,top_right,2025-04-23_09h59.41.636,HideSeek_v1,2022.2.5,59.5871563930061,
,9,8,4,8,-5,0,11,,train_dim1_1,14,30,,,,2,0,2,0,,,,,,,,,0,0,0,0,0,13,13,13,2,0,2,0,,,,,,,,,,,,,,,,,,,,,,,,,,,,,,,,,,,,,,,,,,,,,,,,,,,,,,,,,,,,,,,,30,,,,,,,,1126.2281471001916,1126.2281471001916,1126.2281471001916,1126.2281471001916,1126.2281471001916,left,0.5761273996904492,3,1,0,99,0.32,0.24,left,0.4939485997892916,,,,,,,,,,,,,,,,,,,,,,,,,,,,,,,,,,,,,,,,,,,,,,,,,,,,,,,,,,,,VWTGZN,train_x,blue_star,top_right,2025-04-23_09h59.41.636,HideSeek_v1,2022.2.5,59.5871563930061,
,9,8,4,8,-5,0,11,,train_dim1_1,14,30,,,,2,0,2,0,,,,,,,,,0,0,0,0,0,13,13,13,3,0,3,0,,,,,,,,,,,,,,,,,,,,,,,,,,,,,,,,,,,,,,,,,,,,,,,,,,,,,,,,,,,,,,,,30,,,,,,,,1126.8115950003266,1126.8115950003266,1126.8115950003266,1126.8115950003266,1126.8115950003266,left,0.5928433001972735,3,1,0,99,0.24,0.24,left,0.5166071001440287,,,,,,,,,,,,,,,,,,,,,,,,,,,,,,,,,,,,,,,,,,,,,,,,,,,,,,,,,,,,VWTGZN,train_x,blue_star,top_right,2025-04-23_09h59.41.636,HideSeek_v1,2022.2.5,59.5871563930061,
,9,8,4,8,-5,0,11,,train_dim1_1,14,30,,,,2,0,2,0,,,,,,,,,0,0,0,0,0,13,13,13,4,0,4,0,,,,,,,,,,,,,,,,,,,,,,,,,,,,,,,,,,,,,,,,,,,,,,,,,,,,,,,,,,,,,,,,30,,,,,,,,1127.4119441001676,1127.4119441001676,1127.4119441001676,1127.4119441001676,1127.4119441001676,left,0.5767626999877393,3,1,0,99,0.15999999999999998,0.24,left,0.4986148001626134,,,,,,,,,,,,,,,,,,,,,,,,,,,,,,,,,,,,,,,,,,,,,,,,,,,,,,,,,,,,VWTGZN,train_x,blue_star,top_right,2025-04-23_09h59.41.636,HideSeek_v1,2022.2.5,59.5871563930061,
,9,8,4,8,-5,0,11,,train_dim1_1,14,30,,,,2,0,2,0,,,,,,,,,0,0,0,0,0,13,13,13,5,0,5,0,,,,,,,,,,,,,,,,,,,,,,,,,,,,,,,,,,,,,,,,,,,,,,,,,,,,,,,,,,,,,,,,30,,,,,,,,1127.9984160000458,1127.9984160000458,1127.9984160000458,1127.9984160000458,1127.9984160000458,return,0.6599039998836815,4,0,0,1,0.15999999999999998,0.24,return,0.5654498995281756,-6,-31,0.15999999999999998,0.24,,,,,,,,,,,,,,,,,,,,,,,,,,,,,,,,,,,,,,,,,,,,,,,,,,,,,,,,VWTGZN,train_x,blue_star,top_right,2025-04-23_09h59.41.636,HideSeek_v1,2022.2.5,59.5871563930061,
,9,7,9,7,0,0,61,,train_dim1_1,15,30,,,,2,0,2,0,,,,,,,,,0,0,0,0,0,14,14,14,0,0,0,0,,,,,,,,,,,,,,,,,,,,,,,,,stimuli/alien_stimuli/61.png,,,,,,,,,,,,,,,,,,,,,,,,,,,,,stimuli/alien_stimuli/11.png,11,9,16,,,,,,,30,,,,,,,,1133.5733604002744,1133.5733604002744,1133.5733604002744,1133.5733604002744,1133.5733604002744,return,1.6727281999774277,5,0,0,1,0.56,0.16,return,1.5756181995384395,-6,-31,0.56,0.16,1131.997792399954,1133.5733604002744,0.16,0.24,0.0,0.4,0.24,0.16,0.36000000000000004,0.16,0.24,1130.2445629001595,1130.2445629001595,1130.2445629001595,1130.2445629001595,1130.2445629001595,1130.2445629001595,1130.2445629001595,1130.2445629001595,1130.229529379867,1.8873033002018929,return,1.7217099000699818,,,,,,,,,,,,,,,,,,,,,,,,,,,,,,,,,VWTGZN,train_x,blue_star,top_right,2025-04-23_09h59.41.636,HideSeek_v1,2022.2.5,59.5871563930061,
,8,8,7,8,-1,0,51,,train_dim1_1,16,30,,,,2,0,2,0,,,,,,,,,0,0,0,0,0,15,15,15,0,0,0,0,,,,,,,,,,,,,,,,,,,,,,,,,stimuli/alien_stimuli/51.png,,,,,,,,,,,,,,,,,,,,,,,,,,,,,stimuli/alien_stimuli/61.png,61,9,17,,,,,,,30,,,,,,,,1140.2176586003043,1140.2176586003043,1140.2176586003043,1140.2176586003043,1140.2176586003043,left,1.4387206002138555,5,0,0,99,0.39999999999999997,0.24,left,1.3391098999418318,,,,,1138.6535314000212,1140.2176586003043,0.56,0.16,0.0,0.0,0.16,0.56,0.56,0.56,0.16,1136.7874643001705,1136.7874643001705,1136.7874643001705,1136.7874643001705,1136.7874643001705,1136.7874643001705,1136.7874643001705,1136.7874643001705,1136.7682071598247,1.9716428997926414,return,1.847547599580139,,,,,,,,,,,,,,,,,,,,,,,,,,,,,,,,,VWTGZN,train_x,blue_star,top_right,2025-04-23_09h59.41.636,HideSeek_v1,2022.2.5,59.5871563930061,
,8,8,7,8,-1,0,51,,train_dim1_1,16,30,,,,2,0,2,0,,,,,,,,,0,0,0,0,0,15,15,15,1,0,1,0,,,,,,,,,,,,,,,,,,,,,,,,,,,,,,,,,,,,,,,,,,,,,,,,,,,,,,,,,,,,,,,,30,,,,,,,,1141.6564263999462,1141.6564263999462,1141.6564263999462,1141.6564263999462,1141.6564263999462,return,0.5761032998561859,6,0,0,1,0.39999999999999997,0.24,return,0.49859899980947375,-6,-32,0.39999999999999997,0.24,,,,,,,,,,,,,,,,,,,,,,,,,,,,,,,,,,,,,,,,,,,,,,,,,,,,,,,,VWTGZN,train_x,blue_star,top_right,2025-04-23_09h59.41.636,HideSeek_v1,2022.2.5,59.5871563930061,
,7,9,3,9,-4,0,21,,train_dim1_1,17,30,,,,2,0,2,0,,,,,,,,,0,0,0,0,0,16,16,16,0,0,0,0,,,,,,,,,,,,,,,,,,,,,,,,,stimuli/alien_stimuli/21.png,,,,,,,,,,,,,,,,,,,,,,,,,,,,,stimuli/alien_stimuli/51.png,51,8,18,,,,,,,30,,,,,,,,1147.1114308000542,1147.1114308000542,1147.1114308000542,1147.1114308000542,1147.1114308000542,left,1.7368259998038411,6,0,0,99,0.32,0.32,left,1.621832299977541,,,,,1145.5260139000602,1147.1114308000542,0.4,0.24,0.0,0.08,0.24,0.4,0.44,0.4,0.24,1143.8034820002504,1143.8034820002504,1143.8034820002504,1143.8034820002504,1143.8034820002504,1143.8034820002504,1143.8034820002504,1143.8034820002504,1143.791130320169,1.836961300112307,return,1.701197899878025,,,,,,,,,,,,,,,,,,,,,,,,,,,,,,,,,VWTGZN,train_x,blue_star,top_right,2025-04-23_09h59.41.636,HideSeek_v1,2022.2.5,59.5871563930061,
,7,9,3,9,-4,0,21,,train_dim1_1,17,30,,,,2,0,2,0,,,,,,,,,0,0,0,0,0,16,16,16,1,0,1,0,,,,,,,,,,,,,,,,,,,,,,,,,,,,,,,,,,,,,,,,,,,,,,,,,,,,,,,,,,,,,,,,30,,,,,,,,1148.830359800253,1148.830359800253,1148.830359800253,1148.830359800253,1148.830359800253,left,0.5430108001455665,6,0,0,99,0.24,0.32,left,0.4649503994733095,,,,,,,,,,,,,,,,,,,,,,,,,,,,,,,,,,,,,,,,,,,,,,,,,,,,,,,,,,,,VWTGZN,train_x,blue_star,top_right,2025-04-23_09h59.41.636,HideSeek_v1,2022.2.5,59.5871563930061,
,7,9,3,9,-4,0,21,,train_dim1_1,17,30,,,,2,0,2,0,,,,,,,,,0,0,0,0,0,16,16,16,2,0,2,0,,,,,,,,,,,,,,,,,,,,,,,,,,,,,,,,,,,,,,,,,,,,,,,,,,,,,,,,,,,,,,,,30,,,,,,,,1149.380525100045,1149.380525100045,1149.380525100045,1149.380525100045,1149.380525100045,left,0.5766323003917933,6,0,0,99,0.15999999999999998,0.32,left,0.48988439980894327,,,,,,,,,,,,,,,,,,,,,,,,,,,,,,,,,,,,,,,,,,,,,,,,,,,,,,,,,,,,VWTGZN,train_x,blue_star,top_right,2025-04-23_09h59.41.636,HideSeek_v1,2022.2.5,59.5871563930061,
,7,9,3,9,-4,0,21,,train_dim1_1,17,30,,,,2,0,2,0,,,,,,,,,0,0,0,0,0,16,16,16,3,0,3,0,,,,,,,,,,,,,,,,,,,,,,,,,,,,,,,,,,,,,,,,,,,,,,,,,,,,,,,,,,,,,,,,30,,,,,,,,1149.9652644000016,1149.9652644000016,1149.9652644000016,1149.9652644000016,1149.9652644000016,left,2.5445943996310234,6,0,0,99,0.07999999999999997,0.32,left,2.4662302997894585,,,,,,,,,,,,,,,,,,,,,,,,,,,,,,,,,,,,,,,,,,,,,,,,,,,,,,,,,,,,VWTGZN,train_x,blue_star,top_right,2025-04-23_09h59.41.636,HideSeek_v1,2022.2.5,59.5871563930061,
,7,9,3,9,-4,0,21,,train_dim1_1,17,30,,,,2,0,2,0,,,,,,,,,0,0,0,0,0,16,16,16,4,0,4,0,,,,,,,,,,,,,,,,,,,,,,,,,,,,,,,,,,,,,,,,,,,,,,,,,,,,,,,,,,,,,,,,30,,,,,,,,1152.516383100301,1152.516383100301,1152.516383100301,1152.516383100301,1152.516383100301,return,0.543160299770534,7,0,0,1,0.07999999999999997,0.32,return,0.4635800998657942,-6,-36,0.07999999999999997,0.32,,,,,,,,,,,,,,,,,,,,,,,,,,,,,,,,,,,,,,,,,,,,,,,,,,,,,,,,VWTGZN,train_x,blue_star,top_right,2025-04-23_09h59.41.636,HideSeek_v1,2022.2.5,59.5871563930061,
,7,6,7,6,0,0,61,,train_dim1_1,18,30,,,,2,0,2,0,,,,,,,,,0,0,0,0,0,17,17,17,0,0,0,0,,,,,,,,,,,,,,,,,,,,,,,,,stimuli/alien_stimuli/61.png,,,,,,,,,,,,,,,,,,,,,,,,,,,,,stimuli/alien_stimuli/21.png,21,7,19,,,,,,,30,,,,,,,,1157.7217688001692,1157.7217688001692,1157.7217688001692,1157.7217688001692,1157.7217688001692,return,1.8716699997894466,8,0,0,1,0.4,0.08,return,1.7784196995198727,-6,-36,0.4,0.08,1156.1515832003206,1157.7217688001692,0.08,0.32,0.0,0.32,0.32,0.08,0.24000000000000002,0.08,0.32,1154.64698650036,1154.64698650036,1154.64698650036,1154.64698650036,1154.64698650036,1154.64698650036,1154.64698650036,1154.64698650036,1154.6335549801588,1.6367704002186656,return,1.4769291998818517,,,,,,,,,,,,,,,,,,,,,,,,,,,,,,,,,VWTGZN,train_x,blue_star,top_right,2025-04-23_09h59.41.636,HideSeek_v1,2022.2.5,59.5871563930061,
,5,8,2,8,-3,0,31,,train_dim1_1,19,30,,,,2,0,2,0,,,,,,,,,0,0,0,0,0,18,18,18,0,0,0,0,,,,,,,,,,,,,,,,,,,,,,,,,stimuli/alien_stimuli/31.png,,,,,,,,,,,,,,,,,,,,,,,,,,,,,stimuli/alien_stimuli/61.png,61,7,20,,,,,,,30,,,,,,,,1165.2573354002088,1165.2573354002088,1165.2573354002088,1165.2573354002088,1165.2573354002088,left,3.2546736001968384,8,0,0,99,0.15999999999999998,0.24,left,3.1666770996525884,,,,,1163.6911495001987,1165.2573354002088,0.4,0.08,0.0,0.0,0.08,0.4,0.4,0.4,0.08,1161.1549651999958,1161.1549651999958,1161.1549651999958,1161.1549651999958,1161.1549651999958,1161.1549651999958,1161.1549651999958,1161.1549651999958,1161.1392407198437,2.6537493001669645,return,2.504058300051838,,,,,,,,,,,,,,,,,,,,,,,,,,,,,,,,,VWTGZN,train_x,blue_star,top_right,2025-04-23_09h59.41.636,HideSeek_v1,2022.2.5,59.5871563930061,
,5,8,2,8,-3,0,31,,train_dim1_1,19,30,,,,2,0,2,0,,,,,,,,,0,0,0,0,0,18,18,18,1,0,1,0,,,,,,,,,,,,,,,,,,,,,,,,,,,,,,,,,,,,,,,,,,,,,,,,,,,,,,,,,,,,,,,,30,,,,,,,,1168.509683900047,1168.509683900047,1168.509683900047,1168.509683900047,1168.509683900047,left,0.6262209000997245,8,0,0,99,0.07999999999999997,0.24,left,0.5433554998598993,,,,,,,,,,,,,,,,,,,,,,,,,,,,,,,,,,,,,,,,,,,,,,,,,,,,,,,,,,,,VWTGZN,train_x,blue_star,top_right,2025-04-23_09h59.41.636,HideSeek_v1,2022.2.5,59.5871563930061,
,5,8,2,8,-3,0,31,,train_dim1_1,19,30,,,,2,0,2,0,,,,,,,,,0,0,0,0,0,18,18,18,2,0,2,0,,,,,,,,,,,,,,,,,,,,,,,,,,,,,,,,,,,,,,,,,,,,,,,,,,,,,,,,,,,,,,,,30,,,,,,,,1169.1439026002772,1169.1439026002772,1169.1439026002772,1169.1439026002772,1169.1439026002772,left,1.110407399944961,8,0,0,99,-2.7755575615628914e-17,0.24,left,1.0344140999950469,,,,,,,,,,,,,,,,,,,,,,,,,,,,,,,,,,,,,,,,,,,,,,,,,,,,,,,,,,,,VWTGZN,train_x,blue_star,top_right,2025-04-23_09h59.41.636,HideSeek_v1,2022.2.5,59.5871563930061,
,5,8,2,8,-3,0,31,,train_dim1_1,19,30,,,,2,0,2,0,,,,,,,,,0,0,0,0,0,18,18,18,3,0,3,0,,,,,,,,,,,,,,,,,,,,,,,,,,,,,,,,,,,,,,,,,,,,,,,,,,,,,,,,,,,,,,,,30,,,,,,,,1170.2599463001825,1170.2599463001825,1170.2599463001825,1170.2599463001825,1170.2599463001825,return,0.760359900072217,9,0,0,1,-2.7755575615628914e-17,0.24,return,0.6854547997936606,-6,-39,-2.7755575615628914e-17,0.24,,,,,,,,,,,,,,,,,,,,,,,,,,,,,,,,,,,,,,,,,,,,,,,,,,,,,,,,VWTGZN,train_x,blue_star,top_right,2025-04-23_09h59.41.636,HideSeek_v1,2022.2.5,59.5871563930061,
,5,6,0,6,-5,0,11,,train_dim1_1,20,30,,,,2,0,2,0,,,,,,,,,0,0,0,0,0,19,19,19,0,0,0,0,,,,,,,,,,,,,,,,,,,,,,,,,stimuli/alien_stimuli/11.png,,,,,,,,,,,,,,,,,,,,,,,,,,,,,stimuli/alien_stimuli/31.png,31,5,21,,,,,,,30,,,,,,,,1176.4511572001502,1176.4511572001502,1176.4511572001502,1176.4511572001502,1176.4511572001502,left,1.9538190001621842,9,0,0,99,0.15999999999999998,0.08,left,1.8458499000407755,,,,,1174.8670067000203,1176.4511572001502,0,0.24,0.0,0.24,0.24,0,0.12,0,0.24,1172.606331200339,1172.606331200339,1172.606331200339,1172.606331200339,1172.606331200339,1172.606331200339,1172.606331200339,1172.606331200339,1172.5984831801616,2.387382300104946,return,2.230922599788755,,,,,,,,,,,,,,,,,,,,,,,,,,,,,,,,,VWTGZN,train_x,blue_star,top_right,2025-04-23_09h59.41.636,HideSeek_v1,2022.2.5,59.5871563930061,
,5,6,0,6,-5,0,11,,train_dim1_1,20,30,,,,2,0,2,0,,,,,,,,,0,0,0,0,0,19,19,19,1,0,1,0,,,,,,,,,,,,,,,,,,,,,,,,,,,,,,,,,,,,,,,,,,,,,,,,,,,,,,,,,,,,,,,,30,,,,,,,,1178.3871935000643,1178.3871935000643,1178.3871935000643,1178.3871935000643,1178.3871935000643,left,0.5430204998701811,9,0,0,99,0.07999999999999997,0.08,left,0.45218499982729554,,,,,,,,,,,,,,,,,,,,,,,,,,,,,,,,,,,,,,,,,,,,,,,,,,,,,,,,,,,,VWTGZN,train_x,blue_star,top_right,2025-04-23_09h59.41.636,HideSeek_v1,2022.2.5,59.5871563930061,
,5,6,0,6,-5,0,11,,train_dim1_1,20,30,,,,2,0,2,0,,,,,,,,,0,0,0,0,0,19,19,19,2,0,2,0,,,,,,,,,,,,,,,,,,,,,,,,,,,,,,,,,,,,,,,,,,,,,,,,,,,,,,,,,,,,,,,,30,,,,,,,,1178.9371716999449,1178.9371716999449,1178.9371716999449,1178.9371716999449,1178.9371716999449,left,0.5097699998877943,9,0,0,99,-2.7755575615628914e-17,0.08,left,0.432848799508065,,,,,,,,,,,,,,,,,,,,,,,,,,,,,,,,,,,,,,,,,,,,,,,,,,,,,,,,,,,,VWTGZN,train_x,blue_star,top_right,2025-04-23_09h59.41.636,HideSeek_v1,2022.2.5,59.5871563930061,
,5,6,0,6,-5,0,11,,train_dim1_1,20,30,,,,2,0,2,0,,,,,,,,,0,0,0,0,0,19,19,19,3,0,3,0,,,,,,,,,,,,,,,,,,,,,,,,,,,,,,,,,,,,,,,,,,,,,,,,,,,,,,,,,,,,,,,,30,,,,,,,,1179.4554459000938,1179.4554459000938,1179.4554459000938,1179.4554459000938,1179.4554459000938,left,0.5601981999352574,9,0,0,99,-0.08000000000000003,0.08,left,0.4791660998016596,,,,,,,,,,,,,,,,,,,,,,,,,,,,,,,,,,,,,,,,,,,,,,,,,,,,,,,,,,,,VWTGZN,train_x,blue_star,top_right,2025-04-23_09h59.41.636,HideSeek_v1,2022.2.5,59.5871563930061,
,5,6,0,6,-5,0,11,,train_dim1_1,20,30,,,,2,0,2,0,,,,,,,,,0,0,0,0,0,19,19,19,4,0,4,0,,,,,,,,,,,,,,,,,,,,,,,,,,,,,,,,,,,,,,,,,,,,,,,,,,,,,,,,,,,,,,,,30,,,,,,,,1180.0220367000438,1180.0220367000438,1180.0220367000438,1180.0220367000438,1180.0220367000438,left,0.5267962999641895,9,0,0,99,-0.16000000000000003,0.08,left,0.4363253000192344,,,,,,,,,,,,,,,,,,,,,,,,,,,,,,,,,,,,,,,,,,,,,,,,,,,,,,,,,,,,VWTGZN,train_x,blue_star,top_right,2025-04-23_09h59.41.636,HideSeek_v1,2022.2.5,59.5871563930061,
,5,6,0,6,-5,0,11,,train_dim1_1,20,30,,,,2,0,2,0,,,,,,,,,0,0,0,0,0,19,19,19,5,0,5,0,,,,,,,,,,,,,,,,,,,,,,,,,,,,,,,,,,,,,,,,,,,,,,,,,,,,,,,,,,,,,,,,30,,,,,,,,1180.5717817000113,1180.5717817000113,1180.5717817000113,1180.5717817000113,1180.5717817000113,return,0.6595268999226391,10,0,0,1,-0.16000000000000003,0.08,return,0.5656849998049438,-6,-44,-0.16000000000000003,0.08,,,,,,,,,,,,,,,,,,,,,,,,,,,,,,,,,,,,,,,,,,,,,,,,,,,,,,,,VWTGZN,train_x,blue_star,top_right,2025-04-23_09h59.41.636,HideSeek_v1,2022.2.5,59.5871563930061,
,9,7,6,7,-3,0,31,,train_dim1_1,21,30,,,,2,0,2,0,,,,,,,,,0,0,0,0,0,20,20,20,0,0,0,0,,,,,,,,,,,,,,,,,,,,,,,,,stimuli/alien_stimuli/31.png,,,,,,,,,,,,,,,,,,,,,,,,,,,,,stimuli/alien_stimuli/11.png,11,5,22,,,,,,,30,,,,,,,,1185.917618600186,1185.917618600186,1185.917618600186,1185.917618600186,1185.917618600186,left,2.921655499842018,10,0,0,99,0.48000000000000004,0.16,left,2.8155156997963786,,,,,1184.3416858003475,1185.917618600186,-0.16,0.08,0.0,0.4,0.08,-0.16,0.039999999999999994,-0.16,0.08,1182.787595400121,1182.787595400121,1182.787595400121,1182.787595400121,1182.787595400121,1182.787595400121,1182.787595400121,1182.787595400121,1182.7736382200383,1.6700065000914037,return,1.5288371997885406,,,,,,,,,,,,,,,,,,,,,,,,,,,,,,,,,VWTGZN,train_x,blue_star,top_right,2025-04-23_09h59.41.636,HideSeek_v1,2022.2.5,59.5871563930061,
,9,7,6,7,-3,0,31,,train_dim1_1,21,30,,,,2,0,2,0,,,,,,,,,0,0,0,0,0,20,20,20,1,0,1,0,,,,,,,,,,,,,,,,,,,,,,,,,,,,,,,,,,,,,,,,,,,,,,,,,,,,,,,,,,,,,,,,30,,,,,,,,1188.826934600249,1188.826934600249,1188.826934600249,1188.826934600249,1188.826934600249,left,0.7260985998436809,10,0,0,99,0.4,0.16,left,0.642897299490869,,,,,,,,,,,,,,,,,,,,,,,,,,,,,,,,,,,,,,,,,,,,,,,,,,,,,,,,,,,,VWTGZN,train_x,blue_star,top_right,2025-04-23_09h59.41.636,HideSeek_v1,2022.2.5,59.5871563930061,
,9,7,6,7,-3,0,31,,train_dim1_1,21,30,,,,2,0,2,0,,,,,,,,,0,0,0,0,0,20,20,20,2,0,2,0,,,,,,,,,,,,,,,,,,,,,,,,,,,,,,,,,,,,,,,,,,,,,,,,,,,,,,,,,,,,,,,,30,,,,,,,,1189.5611998001114,1189.5611998001114,1189.5611998001114,1189.5611998001114,1189.5611998001114,left,1.3097638003528118,10,0,0,99,0.32,0.16,left,1.2295500999316573,,,,,,,,,,,,,,,,,,,,,,,,,,,,,,,,,,,,,,,,,,,,,,,,,,,,,,,,,,,,VWTGZN,train_x,blue_star,top_right,2025-04-23_09h59.41.636,HideSeek_v1,2022.2.5,59.5871563930061,
,9,7,6,7,-3,0,31,,train_dim1_1,21,30,,,,2,0,2,0,,,,,,,,,0,0,0,0,0,20,20,20,3,0,3,0,,,,,,,,,,,,,,,,,,,,,,,,,,,,,,,,,,,,,,,,,,,,,,,,,,,,,,,,,,,,,,,,30,,,,,,,,1190.8780287001282,1190.8780287001282,1190.8780287001282,1190.8780287001282,1190.8780287001282,return,0.7764433999545872,11,0,0,1,0.32,0.16,return,0.6879615997895598,-6,-47,0.32,0.16,,,,,,,,,,,,,,,,,,,,,,,,,,,,,,,,,,,,,,,,,,,,,,,,,,,,,,,,VWTGZN,train_x,blue_star,top_right,2025-04-23_09h59.41.636,HideSeek_v1,2022.2.5,59.5871563930061,
,6,5,2,5,-4,0,21,,train_dim1_1,22,30,,,,2,0,2,0,,,,,,,,,0,0,0,0,0,21,21,21,0,0,0,0,,,,,,,,,,,,,,,,,,,,,,,,,stimuli/alien_stimuli/21.png,,,,,,,,,,,,,,,,,,,,,,,,,,,,,stimuli/alien_stimuli/31.png,31,9,23,,,,,,,30,,,,,,,,1196.0409377003089,1196.0409377003089,1196.0409377003089,1196.0409377003089,1196.0409377003089,left,1.8830601000227034,11,0,0,99,0.24,0,left,1.7670633997768164,,,,,1194.449981099926,1196.0409377003089,0.32,0.16,0.0,0.24,0.16,0.32,0.44000000000000006,0.32,0.16,1193.2385917003267,1193.2385917003267,1193.2385917003267,1193.2385917003267,1193.2385917003267,1193.2385917003267,1193.2385917003267,1193.2385917003267,1193.215659020003,1.3365332996472716,return,1.1913290997035801,,,,,,,,,,,,,,,,,,,,,,,,,,,,,,,,,VWTGZN,train_x,blue_star,top_right,2025-04-23_09h59.41.636,HideSeek_v1,2022.2.5,59.5871563930061,
,6,5,2,5,-4,0,21,,train_dim1_1,22,30,,,,2,0,2,0,,,,,,,,,0,0,0,0,0,21,21,21,1,0,1,0,,,,,,,,,,,,,,,,,,,,,,,,,,,,,,,,,,,,,,,,,,,,,,,,,,,,,,,,,,,,,,,,30,,,,,,,,1197.9056667000987,1197.9056667000987,1197.9056667000987,1197.9056667000987,1197.9056667000987,left,0.5247353999875486,11,0,0,99,0.15999999999999998,0,left,0.43770069954916835,,,,,,,,,,,,,,,,,,,,,,,,,,,,,,,,,,,,,,,,,,,,,,,,,,,,,,,,,,,,VWTGZN,train_x,blue_star,top_right,2025-04-23_09h59.41.636,HideSeek_v1,2022.2.5,59.5871563930061,
,6,5,2,5,-4,0,21,,train_dim1_1,22,30,,,,2,0,2,0,,,,,,,,,0,0,0,0,0,21,21,21,2,0,2,0,,,,,,,,,,,,,,,,,,,,,,,,,,,,,,,,,,,,,,,,,,,,,,,,,,,,,,,,,,,,,,,,30,,,,,,,,1198.438165700063,1198.438165700063,1198.438165700063,1198.438165700063,1198.438165700063,left,0.6934899999760091,11,0,0,99,0.07999999999999997,0,left,0.6012918995693326,,,,,,,,,,,,,,,,,,,,,,,,,,,,,,,,,,,,,,,,,,,,,,,,,,,,,,,,,,,,VWTGZN,train_x,blue_star,top_right,2025-04-23_09h59.41.636,HideSeek_v1,2022.2.5,59.5871563930061,
,6,5,2,5,-4,0,21,,train_dim1_1,22,30,,,,2,0,2,0,,,,,,,,,0,0,0,0,0,21,21,21,3,0,3,0,,,,,,,,,,,,,,,,,,,,,,,,,,,,,,,,,,,,,,,,,,,,,,,,,,,,,,,,,,,,,,,,30,,,,,,,,1199.1533810999244,1199.1533810999244,1199.1533810999244,1199.1533810999244,1199.1533810999244,left,0.5934687000699341,11,0,0,99,-2.7755575615628914e-17,0,left,0.48567500011995435,,,,,,,,,,,,,,,,,,,,,,,,,,,,,,,,,,,,,,,,,,,,,,,,,,,,,,,,,,,,VWTGZN,train_x,blue_star,top_right,2025-04-23_09h59.41.636,HideSeek_v1,2022.2.5,59.5871563930061,
,6,5,2,5,-4,0,21,,train_dim1_1,22,30,,,,2,0,2,0,,,,,,,,,0,0,0,0,0,21,21,21,4,0,4,0,,,,,,,,,,,,,,,,,,,,,,,,,,,,,,,,,,,,,,,,,,,,,,,,,,,,,,,,,,,,,,,,30,,,,,,,,1199.738480000291,1199.738480000291,1199.738480000291,1199.738480000291,1199.738480000291,return,0.5599881000816822,12,0,0,1,-2.7755575615628914e-17,0,return,0.47604990005493164,-6,-51,-2.7755575615628914e-17,0,,,,,,,,,,,,,,,,,,,,,,,,,,,,,,,,,,,,,,,,,,,,,,,,,,,,,,,,VWTGZN,train_x,blue_star,top_right,2025-04-23_09h59.41.636,HideSeek_v1,2022.2.5,59.5871563930061,
,7,6,7,6,0,0,61,,train_dim1_1,23,30,,,,2,0,2,0,,,,,,,,,0,0,0,0,0,22,22,22,0,0,0,0,,,,,,,,,,,,,,,,,,,,,,,,,stimuli/alien_stimuli/61.png,,,,,,,,,,,,,,,,,,,,,,,,,,,,,stimuli/alien_stimuli/21.png,21,6,24,,,,,,,30,,,,,,,,1205.706333000213,1205.706333000213,1205.706333000213,1205.706333000213,1205.706333000213,return,1.953725800383836,13,0,0,1,0.4,0.08,return,1.8399588000029325,-6,-51,0.4,0.08,1204.1253540003672,1205.706333000213,0,0,0.0,0.32,0.0,0,0.16,0,0,1201.868845900055,1201.868845900055,1201.868845900055,1201.868845900055,1201.868845900055,1201.868845900055,1201.868845900055,1201.868845900055,1201.8562583201565,2.3710945998318493,return,2.229115800000727,,,,,,,,,,,,,,,,,,,,,,,,,,,,,,,,,VWTGZN,train_x,blue_star,top_right,2025-04-23_09h59.41.636,HideSeek_v1,2022.2.5,59.5871563930061,
,9,9,8,9,-1,0,51,,train_dim1_1,24,30,,,,2,0,2,0,,,,,,,,,0,0,0,0,0,23,23,23,0,0,0,0,,,,,,,,,,,,,,,,,,,,,,,,,stimuli/alien_stimuli/51.png,,,,,,,,,,,,,,,,,,,,,,,,,,,,,stimuli/alien_stimuli/61.png,61,7,25,,,,,,,30,,,,,,,,1212.2479873001575,1212.2479873001575,1212.2479873001575,1212.2479873001575,1212.2479873001575,left,1.5529265999794006,13,0,0,99,0.48000000000000004,0.32,left,1.4397489996626973,,,,,1210.663561699912,1212.2479873001575,0.4,0.08,0.0,0.0,0.08,0.4,0.4,0.4,0.08,1209.1998707000166,1209.1998707000166,1209.1998707000166,1209.1998707000166,1209.1998707000166,1209.1998707000166,1209.1998707000166,1209.1998707000166,1209.178798459936,1.5702295997180045,return,1.4448814997449517,,,,,,,,,,,,,,,,,,,,,,,,,,,,,,,,,VWTGZN,train_x,blue_star,top_right,2025-04-23_09h59.41.636,HideSeek_v1,2022.2.5,59.5871563930061,
,9,9,8,9,-1,0,51,,train_dim1_1,24,30,,,,2,0,2,0,,,,,,,,,0,0,0,0,0,23,23,23,1,0,1,0,,,,,,,,,,,,,,,,,,,,,,,,,,,,,,,,,,,,,,,,,,,,,,,,,,,,,,,,,,,,,,,,30,,,,,,,,1213.7833032999188,1213.7833032999188,1213.7833032999188,1213.7833032999188,1213.7833032999188,return,0.5262438002973795,14,0,0,1,0.48000000000000004,0.32,return,0.4397715996019542,-6,-52,0.48000000000000004,0.32,,,,,,,,,,,,,,,,,,,,,,,,,,,,,,,,,,,,,,,,,,,,,,,,,,,,,,,,VWTGZN,train_x,blue_star,top_right,2025-04-23_09h59.41.636,HideSeek_v1,2022.2.5,59.5871563930061,
,8,5,3,5,-5,0,11,,train_dim1_1,25,30,,,,2,0,2,0,,,,,,,,,0,0,0,0,0,24,24,24,0,0,0,0,,,,,,,,,,,,,,,,,,,,,,,,,stimuli/alien_stimuli/11.png,,,,,,,,,,,,,,,,,,,,,,,,,,,,,stimuli/alien_stimuli/51.png,51,9,26,,,,,,,30,,,,,,,,1218.7996348002926,1218.7996348002926,1218.7996348002926,1218.7996348002926,1218.7996348002926,left,1.6886015003547072,14,0,0,99,0.39999999999999997,0,left,1.6049301996827126,,,,,1217.2356753000058,1218.7996348002926,0.48,0.32,0.0,0.08,0.32,0.48,0.52,0.48,0.32,1215.8791452003643,1215.8791452003643,1215.8791452003643,1215.8791452003643,1215.8791452003643,1215.8791452003643,1215.8791452003643,1215.8791452003643,1215.867243419867,1.4708263999782503,return,1.3367369999177754,,,,,,,,,,,,,,,,,,,,,,,,,,,,,,,,,VWTGZN,train_x,blue_star,top_right,2025-04-23_09h59.41.636,HideSeek_v1,2022.2.5,59.5871563930061,
,8,5,3,5,-5,0,11,,train_dim1_1,25,30,,,,2,0,2,0,,,,,,,,,0,0,0,0,0,24,24,24,1,0,1,0,,,,,,,,,,,,,,,,,,,,,,,,,,,,,,,,,,,,,,,,,,,,,,,,,,,,,,,,,,,,,,,,30,,,,,,,,1220.4901950000785,1220.4901950000785,1220.4901950000785,1220.4901950000785,1220.4901950000785,left,0.5093278996646404,14,0,0,99,0.31999999999999995,0,left,0.4275929997675121,,,,,,,,,,,,,,,,,,,,,,,,,,,,,,,,,,,,,,,,,,,,,,,,,,,,,,,,,,,,VWTGZN,train_x,blue_star,top_right,2025-04-23_09h59.41.636,HideSeek_v1,2022.2.5,59.5871563930061,
,8,5,3,5,-5,0,11,,train_dim1_1,25,30,,,,2,0,2,0,,,,,,,,,0,0,0,0,0,24,24,24,2,0,2,0,,,,,,,,,,,,,,,,,,,,,,,,,,,,,,,,,,,,,,,,,,,,,,,,,,,,,,,,,,,,,,,,30,,,,,,,,1221.006577100139,1221.006577100139,1221.006577100139,1221.006577100139,1221.006577100139,left,0.543805000372231,14,0,0,99,0.23999999999999994,0,left,0.45433529978618026,,,,,,,,,,,,,,,,,,,,,,,,,,,,,,,,,,,,,,,,,,,,,,,,,,,,,,,,,,,,VWTGZN,train_x,blue_star,top_right,2025-04-23_09h59.41.636,HideSeek_v1,2022.2.5,59.5871563930061,
,8,5,3,5,-5,0,11,,train_dim1_1,25,30,,,,2,0,2,0,,,,,,,,,0,0,0,0,0,24,24,24,3,0,3,0,,,,,,,,,,,,,,,,,,,,,,,,,,,,,,,,,,,,,,,,,,,,,,,,,,,,,,,,,,,,,,,,30,,,,,,,,1221.5564691000618,1221.5564691000618,1221.5564691000618,1221.5564691000618,1221.5564691000618,left,0.6101357000879943,14,0,0,99,0.15999999999999992,0,left,0.5276343999430537,,,,,,,,,,,,,,,,,,,,,,,,,,,,,,,,,,,,,,,,,,,,,,,,,,,,,,,,,,,,VWTGZN,train_x,blue_star,top_right,2025-04-23_09h59.41.636,HideSeek_v1,2022.2.5,59.5871563930061,
,8,5,3,5,-5,0,11,,train_dim1_1,25,30,,,,2,0,2,0,,,,,,,,,0,0,0,0,0,24,24,24,4,0,4,0,,,,,,,,,,,,,,,,,,,,,,,,,,,,,,,,,,,,,,,,,,,,,,,,,,,,,,,,,,,,,,,,30,,,,,,,,1222.1731470003724,1222.1731470003724,1222.1731470003724,1222.1731470003724,1222.1731470003724,left,0.4933115001767874,14,0,0,99,0.07999999999999992,0,left,0.4062988995574415,,,,,,,,,,,,,,,,,,,,,,,,,,,,,,,,,,,,,,,,,,,,,,,,,,,,,,,,,,,,VWTGZN,train_x,blue_star,top_right,2025-04-23_09h59.41.636,HideSeek_v1,2022.2.5,59.5871563930061,
,8,5,3,5,-5,0,11,,train_dim1_1,25,30,,,,2,0,2,0,,,,,,,,,0,0,0,0,0,24,24,24,5,0,5,0,,,,,,,,,,,,,,,,,,,,,,,,,,,,,,,,,,,,,,,,,,,,,,,,,,,,,,,,,,,,,,,,30,,,,,,,,1222.6736209001392,1222.6736209001392,1222.6736209001392,1222.6736209001392,1222.6736209001392,return,0.6102191996760666,15,0,0,1,0.07999999999999992,0,return,0.5234940997324884,-6,-57,0.07999999999999992,0,,,,,,,,,,,,,,,,,,,,,,,,,,,,,,,,,,,,,,,,,,,,,,,,,,,,,,,,VWTGZN,train_x,blue_star,top_right,2025-04-23_09h59.41.636,HideSeek_v1,2022.2.5,59.5871563930061,
,6,6,6,6,0,0,61,,train_dim1_1,26,30,,,,2,0,2,0,,,,,,,,,0,0,0,0,0,25,25,25,0,0,0,0,,,,,,,,,,,,,,,,,,,,,,,,,stimuli/alien_stimuli/61.png,,,,,,,,,,,,,,,,,,,,,,,,,,,,,stimuli/alien_stimuli/11.png,11,8,27,,,,,,,30,,,,,,,,1227.490707800258,1227.490707800258,1227.490707800258,1227.490707800258,1227.490707800258,return,2.003486800007522,16,0,0,1,0.32,0.08,return,1.890129099600017,-6,-57,0.32,0.08,1225.909524100367,1227.490707800258,0.08,0,0.0,0.4,0.0,0.08,0.27999999999999997,0.08,0,1224.8627074002288,1224.8627074002288,1224.8627074002288,1224.8627074002288,1224.8627074002288,1224.8627074002288,1224.8627074002288,1224.8627074002288,1224.8422195198946,1.1688540000468493,return,1.022707799449563,,,,,,,,,,,,,,,,,,,,,,,,,,,,,,,,,VWTGZN,train_x,blue_star,top_right,2025-04-23_09h59.41.636,HideSeek_v1,2022.2.5,59.5871563930061,
,5,6,2,6,-3,0,31,,train_dim1_1,27,30,,,,2,0,2,0,,,,,,,,,0,0,0,0,0,26,26,26,0,0,0,0,,,,,,,,,,,,,,,,,,,,,,,,,stimuli/alien_stimuli/31.png,,,,,,,,,,,,,,,,,,,,,,,,,,,,,stimuli/alien_stimuli/61.png,61,6,28,,,,,,,30,,,,,,,,1234.6621270999312,1234.6621270999312,1234.6621270999312,1234.6621270999312,1234.6621270999312,left,3.621942300349474,16,0,0,99,0.15999999999999998,0.08,left,3.525296499952674,,,,,1233.098738099914,1234.6621270999312,0.32,0.08,0.0,0.0,0.08,0.32,0.32,0.32,0.08,1231.03552830033,1231.03552830033,1231.03552830033,1231.03552830033,1231.03552830033,1231.03552830033,1231.03552830033,1231.03552830033,1231.013685959857,2.1709549999795854,return,2.03770379954949,,,,,,,,,,,,,,,,,,,,,,,,,,,,,,,,,VWTGZN,train_x,blue_star,top_right,2025-04-23_09h59.41.636,HideSeek_v1,2022.2.5,59.5871563930061,
,5,6,2,6,-3,0,31,,train_dim1_1,27,30,,,,2,0,2,0,,,,,,,,,0,0,0,0,0,26,26,26,1,0,1,0,,,,,,,,,,,,,,,,,,,,,,,,,,,,,,,,,,,,,,,,,,,,,,,,,,,,,,,,,,,,,,,,30,,,,,,,,1238.287612600252,1238.287612600252,1238.287612600252,1238.287612600252,1238.287612600252,left,0.6073894998989999,16,0,0,99,0.07999999999999997,0.08,left,0.5199638996273279,,,,,,,,,,,,,,,,,,,,,,,,,,,,,,,,,,,,,,,,,,,,,,,,,,,,,,,,,,,,VWTGZN,train_x,blue_star,top_right,2025-04-23_09h59.41.636,HideSeek_v1,2022.2.5,59.5871563930061,
,5,6,2,6,-3,0,31,,train_dim1_1,27,30,,,,2,0,2,0,,,,,,,,,0,0,0,0,0,26,26,26,2,0,2,0,,,,,,,,,,,,,,,,,,,,,,,,,,,,,,,,,,,,,,,,,,,,,,,,,,,,,,,,,,,,,,,,30,,,,,,,,1238.9009394999593,1238.9009394999593,1238.9009394999593,1238.9009394999593,1238.9009394999593,left,0.5598405003547668,16,0,0,99,-2.7755575615628914e-17,0.08,left,0.4785031001083553,,,,,,,,,,,,,,,,,,,,,,,,,,,,,,,,,,,,,,,,,,,,,,,,,,,,,,,,,,,,VWTGZN,train_x,blue_star,top_right,2025-04-23_09h59.41.636,HideSeek_v1,2022.2.5,59.5871563930061,
,5,6,2,6,-3,0,31,,train_dim1_1,27,30,,,,2,0,2,0,,,,,,,,,0,0,0,0,0,26,26,26,3,0,3,0,,,,,,,,,,,,,,,,,,,,,,,,,,,,,,,,,,,,,,,,,,,,,,,,,,,,,,,,,,,,,,,,30,,,,,,,,1239.467804200016,1239.467804200016,1239.467804200016,1239.467804200016,1239.467804200016,return,0.560258099809289,17,0,0,1,-2.7755575615628914e-17,0.08,return,0.47719129966571927,-6,-60,-2.7755575615628914e-17,0.08,,,,,,,,,,,,,,,,,,,,,,,,,,,,,,,,,,,,,,,,,,,,,,,,,,,,,,,,VWTGZN,train_x,blue_star,top_right,2025-04-23_09h59.41.636,HideSeek_v1,2022.2.5,59.5871563930061,
,8,6,4,6,-4,0,21,,train_dim1_1,28,30,,,,2,0,2,0,,,,,,,,,0,0,0,0,0,27,27,27,0,0,0,0,,,,,,,,,,,,,,,,,,,,,,,,,stimuli/alien_stimuli/21.png,,,,,,,,,,,,,,,,,,,,,,,,,,,,,stimuli/alien_stimuli/31.png,31,5,29,,,,,,,30,,,,,,,,1244.5699209999293,1244.5699209999293,1244.5699209999293,1244.5699209999293,1244.5699209999293,left,1.4539629998616874,17,0,0,99,0.39999999999999997,0.08,left,1.3427392998710275,,,,,1242.9901793999597,1244.5699209999293,0,0.08,0.0,0.24,0.08,0,0.12,0,0.08,1241.6035460000858,1241.6035460000858,1241.6035460000858,1241.6035460000858,1241.6035460000858,1241.6035460000858,1241.6035460000858,1241.6035460000858,1241.5891034197994,1.5032489001750946,return,1.3668797994032502,,,,,,,,,,,,,,,,,,,,,,,,,,,,,,,,,VWTGZN,train_x,blue_star,top_right,2025-04-23_09h59.41.636,HideSeek_v1,2022.2.5,59.5871563930061,
,8,6,4,6,-4,0,21,,train_dim1_1,28,30,,,,2,0,2,0,,,,,,,,,0,0,0,0,0,27,27,27,1,0,1,0,,,,,,,,,,,,,,,,,,,,,,,,,,,,,,,,,,,,,,,,,,,,,,,,,,,,,,,,,,,,,,,,30,,,,,,,,1246.01347539993,1246.01347539993,1246.01347539993,1246.01347539993,1246.01347539993,left,0.5263355998322368,17,0,0,99,0.31999999999999995,0.08,left,0.44147289963439107,,,,,,,,,,,,,,,,,,,,,,,,,,,,,,,,,,,,,,,,,,,,,,,,,,,,,,,,,,,,VWTGZN,train_x,blue_star,top_right,2025-04-23_09h59.41.636,HideSeek_v1,2022.2.5,59.5871563930061,
,8,6,4,6,-4,0,21,,train_dim1_1,28,30,,,,2,0,2,0,,,,,,,,,0,0,0,0,0,27,27,27,2,0,2,0,,,,,,,,,,,,,,,,,,,,,,,,,,,,,,,,,,,,,,,,,,,,,,,,,,,,,,,,,,,,,,,,30,,,,,,,,1246.5479276999831,1246.5479276999831,1246.5479276999831,1246.5479276999831,1246.5479276999831,left,0.6398058999329805,17,0,0,99,0.23999999999999994,0.08,left,0.5474728997796774,,,,,,,,,,,,,,,,,,,,,,,,,,,,,,,,,,,,,,,,,,,,,,,,,,,,,,,,,,,,VWTGZN,train_x,blue_star,top_right,2025-04-23_09h59.41.636,HideSeek_v1,2022.2.5,59.5871563930061,
,8,6,4,6,-4,0,21,,train_dim1_1,28,30,,,,2,0,2,0,,,,,,,,,0,0,0,0,0,27,27,27,3,0,3,0,,,,,,,,,,,,,,,,,,,,,,,,,,,,,,,,,,,,,,,,,,,,,,,,,,,,,,,,,,,,,,,,30,,,,,,,,1247.199976300355,1247.199976300355,1247.199976300355,1247.199976300355,1247.199976300355,left,0.8574369996786118,17,0,0,99,0.15999999999999992,0.08,left,0.7736181998625398,,,,,,,,,,,,,,,,,,,,,,,,,,,,,,,,,,,,,,,,,,,,,,,,,,,,,,,,,,,,VWTGZN,train_x,blue_star,top_right,2025-04-23_09h59.41.636,HideSeek_v1,2022.2.5,59.5871563930061,
,8,6,4,6,-4,0,21,,train_dim1_1,28,30,,,,2,0,2,0,,,,,,,,,0,0,0,0,0,27,27,27,4,0,4,0,,,,,,,,,,,,,,,,,,,,,,,,,,,,,,,,,,,,,,,,,,,,,,,,,,,,,,,,,,,,,,,,30,,,,,,,,1248.0635263002478,1248.0635263002478,1248.0635263002478,1248.0635263002478,1248.0635263002478,return,0.5591553999111056,18,0,0,1,0.15999999999999992,0.08,return,0.4714330998249352,-6,-64,0.15999999999999992,0.08,,,,,,,,,,,,,,,,,,,,,,,,,,,,,,,,,,,,,,,,,,,,,,,,,,,,,,,,VWTGZN,train_x,blue_star,top_right,2025-04-23_09h59.41.636,HideSeek_v1,2022.2.5,59.5871563930061,
,9,5,8,5,-1,0,51,,train_dim1_1,29,30,,,,2,0,2,0,,,,,,,,,0,0,0,0,0,28,28,28,0,0,0,0,,,,,,,,,,,,,,,,,,,,,,,,,stimuli/alien_stimuli/51.png,,,,,,,,,,,,,,,,,,,,,,,,,,,,,stimuli/alien_stimuli/21.png,21,8,30,,,,,,,30,,,,,,,,1253.3448995002545,1253.3448995002545,1253.3448995002545,1253.3448995002545,1253.3448995002545,left,1.4034136002883315,18,0,0,99,0.48000000000000004,0,left,1.3003525994718075,,,,,1251.764165200293,1253.3448995002545,0.16,0.08,0.0,0.32,0.08,0.16,0.32,0.16,0.08,1250.1920207999647,1250.1920207999647,1250.1920207999647,1250.1920207999647,1250.1920207999647,1250.1920207999647,1250.1920207999647,1250.1920207999647,1250.1797008202411,1.6865043002180755,return,1.547182499896735,,,,,,,,,,,,,,,,,,,,,,,,,,,,,,,,,VWTGZN,train_x,blue_star,top_right,2025-04-23_09h59.41.636,HideSeek_v1,2022.2.5,59.5871563930061,
,9,5,8,5,-1,0,51,,train_dim1_1,29,30,,,,2,0,2,0,,,,,,,,,0,0,0,0,0,28,28,28,1,0,1,0,,,,,,,,,,,,,,,,,,,,,,,,,,,,,,,,,,,,,,,,,,,,,,,,,,,,,,,,,,,,,,,,30,,,,,,,,1254.7347438000143,1254.7347438000143,1254.7347438000143,1254.7347438000143,1254.7347438000143,return,0.44223229959607124,19,0,0,1,0.48000000000000004,0,return,0.352948899846524,-6,-65,0.48000000000000004,0,,,,,,,,,,,,,,,,,,,,,,,,,,,,,,,,,,,,,,,,,,,,,,,,,,,,,,,,VWTGZN,train_x,blue_star,top_right,2025-04-23_09h59.41.636,HideSeek_v1,2022.2.5,59.5871563930061,
,7,7,2,7,-5,0,11,,train_dim1_1,30,30,,,,2,0,2,0,,,,,,,,,0,0,0,0,0,29,29,29,0,0,0,0,,,,,,,,,,,,,,,,,,,,,,,,,stimuli/alien_stimuli/11.png,,,,,,,,,,,,,,,,,,,,,,,,,,,,,stimuli/alien_stimuli/51.png,51,9,31,,,,,,,30,,,,,,,,1260.1048960001208,1260.1048960001208,1260.1048960001208,1260.1048960001208,1260.1048960001208,left,1.7205969998613,19,0,0,99,0.32,0.16,left,1.6229341998696327,,,,,1258.5366275999695,1260.1048960001208,0.48,0,0.0,0.08,0.0,0.48,0.52,0.48,0,1256.7414321000688,1256.7414321000688,1256.7414321000688,1256.7414321000688,1256.7414321000688,1256.7414321000688,1256.7414321000688,1256.7414321000688,1256.7184046600014,1.9035903997719288,return,1.770657300017774,,,,,,,,,,,,,,,,,,,,,,,,,,,,,,,,,VWTGZN,train_x,blue_star,top_right,2025-04-23_09h59.41.636,HideSeek_v1,2022.2.5,59.5871563930061,
,7,7,2,7,-5,0,11,,train_dim1_1,30,30,,,,2,0,2,0,,,,,,,,,0,0,0,0,0,29,29,29,1,0,1,0,,,,,,,,,,,,,,,,,,,,,,,,,,,,,,,,,,,,,,,,,,,,,,,,,,,,,,,,,,,,,,,,30,,,,,,,,1261.8244273001328,1261.8244273001328,1261.8244273001328,1261.8244273001328,1261.8244273001328,left,0.5430903998203576,19,0,0,99,0.24,0.16,left,0.4513910994865,,,,,,,,,,,,,,,,,,,,,,,,,,,,,,,,,,,,,,,,,,,,,,,,,,,,,,,,,,,,VWTGZN,train_x,blue_star,top_right,2025-04-23_09h59.41.636,HideSeek_v1,2022.2.5,59.5871563930061,
,7,7,2,7,-5,0,11,,train_dim1_1,30,30,,,,2,0,2,0,,,,,,,,,0,0,0,0,0,29,29,29,2,0,2,0,,,,,,,,,,,,,,,,,,,,,,,,,,,,,,,,,,,,,,,,,,,,,,,,,,,,,,,,,,,,,,,,30,,,,,,,,1262.374364499934,1262.374364499934,1262.374364499934,1262.374364499934,1262.374364499934,left,2.4282231996767223,19,0,0,99,0.15999999999999998,0.16,left,2.3394586998037994,,,,,,,,,,,,,,,,,,,,,,,,,,,,,,,,,,,,,,,,,,,,,,,,,,,,,,,,,,,,VWTGZN,train_x,blue_star,top_right,2025-04-23_09h59.41.636,HideSeek_v1,2022.2.5,59.5871563930061,
,7,7,2,7,-5,0,11,,train_dim1_1,30,30,,,,2,0,2,0,,,,,,,,,0,0,0,0,0,29,29,29,3,0,3,0,,,,,,,,,,,,,,,,,,,,,,,,,,,,,,,,,,,,,,,,,,,,,,,,,,,,,,,,,,,,,,,,30,,,,,,,,1264.811542800162,1264.811542800162,1264.811542800162,1264.811542800162,1264.811542800162,left,0.70869529992342,19,0,0,99,0.07999999999999997,0.16,left,0.6234435997903347,,,,,,,,,,,,,,,,,,,,,,,,,,,,,,,,,,,,,,,,,,,,,,,,,,,,,,,,,,,,VWTGZN,train_x,blue_star,top_right,2025-04-23_09h59.41.636,HideSeek_v1,2022.2.5,59.5871563930061,
,7,7,2,7,-5,0,11,,train_dim1_1,30,30,,,,2,0,2,0,,,,,,,,,0,0,0,0,0,29,29,29,4,0,4,0,,,,,,,,,,,,,,,,,,,,,,,,,,,,,,,,,,,,,,,,,,,,,,,,,,,,,,,,,,,,,,,,30,,,,,,,,1265.5265893000178,1265.5265893000178,1265.5265893000178,1265.5265893000178,1265.5265893000178,left,0.5435582003556192,19,0,0,99,-2.7755575615628914e-17,0.16,left,0.458986799698323,,,,,,,,,,,,,,,,,,,,,,,,,,,,,,,,,,,,,,,,,,,,,,,,,,,,,,,,,,,,VWTGZN,train_x,blue_star,top_right,2025-04-23_09h59.41.636,HideSeek_v1,2022.2.5,59.5871563930061,
,7,7,2,7,-5,0,11,,train_dim1_1,30,30,,,,2,0,2,0,,,,,,,,,0,0,0,0,0,29,29,29,5,0,5,0,,,,,,,,,,,,,,,,,,,,,,,,,,,,,,,,,,,,,,,,,,,,,,,,,,,,,,,,,,,,,,,,30,,,,,,,,1266.086117300205,1266.086117300205,1266.086117300205,1266.086117300205,1266.086117300205,return,0.676222300156951,20,0,0,1,-2.7755575615628914e-17,0.16,return,0.5798470000736415,-6,-70,-2.7755575615628914e-17,0.16,,,,,,,,,,,,,,,,,,,,,,,,,,,,,,,,,,,,,,,,,,,,,,,,,,,,,,,,VWTGZN,train_x,blue_star,top_right,2025-04-23_09h59.41.636,HideSeek_v1,2022.2.5,59.5871563930061,
,,,,,,,,,,,30,,,,2,0,2,0,,,,,,,,,,,,,,,,,,,,,,,,,,,,,,,,,,,,,,,,,,,,,,,,,,,,,,,,,,,,,,,,,,,,,,,,,,stimuli/alien_stimuli/11.png,11,7,32,21,0.7,0.8333333333333335,1,1,1,30,0,conditions/schedules/train_x_first/blue_star_00/top_right/inputTrain_2.1.xlsx,99,1,2,1,0,,,,,,,,,,,1,,,,,,,,,1270.3964678002521,1271.9594288999215,0,0.16,0.0,0.4,0.16,0,0.2,0,0.16,1268.341210800223,1268.341210800223,1268.341210800223,1268.341210800223,1268.341210800223,1268.341210800223,1268.341210800223,1268.341210800223,1268.3283349801786,2.186608800198883,return,2.0321899000555277,0,0.9,0,1,20,,,,,,,,,,,,,,,,,,,,,,,,,,,,VWTGZN,train_x,blue_star,top_right,2025-04-23_09h59.41.636,HideSeek_v1,2022.2.5,59.5871563930061,
,,,,,,,,,,,,,,,3,0,3,0,0,0,0,0,,,,,,,,,,,,,,,,,,,,,,,,,,,,,,,conditions/schedules/train_x_first/blue_star_00/top_right/instructions/Slide17.png,conditions/schedules/train_x_first/blue_star_00/top_right/instructions/Audio17.wav,1271.9594288999215,1271.9476074399427,17,"[4.549054999835789, 18.197071800008416, 16.906455400399864, 19.411730899941176, 4.930393799673766, 4.602174699772149, 5.335104399826378, 11.538329700008035, 6.004066000226885, 7.154184100218117, 9.937648700084537, 12.40404859976843, 18.382618099916726, 13.044590699952096, 31.30396950012073, 21.221776499878615, 30.629810499958694]","[4.549063500016928, 18.197079999838024, 16.90646200021729, 0.03056959994137287, 0.014071299694478512, 0.06373259983956814, 0.014205200131982565, 11.538337199948728, 0.000238100066781044, 0.030476999934762716, 0.04709309991449118, 12.404054899699986, 0.05030289990827441, 13.044597100000829, 0.014132999815046787, 21.221783499699086, 30.629817199893296]",0,,,,,,,,,,,,,,,,,,,,,,,,,,,,,,,,,,,,,,,,,,,,,,,,,,,,,,,,,,,,,,,,,,,,,,,,,,,,,,,,,,,,,,,,,,,,,,,,,,,,,,,,,,,,,,,,,,,,,,,,,,,,VWTGZN,train_x,blue_star,top_right,2025-04-23_09h59.41.636,HideSeek_v1,2022.2.5,59.5871563930061,
,,,,,,,,,,,,,,,3,0,3,0,1,0,1,0,,,,,,,,,,,,,,,,,,,,,,,,,,,,,,,conditions/schedules/train_x_first/blue_star_00/top_right/instructions/Slide18.png,conditions/schedules/train_x_first/blue_star_00/top_right/instructions/Audio18.wav,1302.6462901001796,1302.6410155398771,18,"[4.549054999835789, 18.197071800008416, 16.906455400399864, 19.411730899941176, 4.930393799673766, 4.602174699772149, 5.335104399826378, 11.538329700008035, 6.004066000226885, 7.154184100218117, 9.937648700084537, 12.40404859976843, 18.382618099916726, 13.044590699952096, 31.30396950012073, 21.221776499878615, 30.629810499958694, 6.013312099967152]","[4.549063500016928, 18.197079999838024, 16.90646200021729, 0.03056959994137287, 0.014071299694478512, 0.06373259983956814, 0.014205200131982565, 11.538337199948728, 0.000238100066781044, 0.030476999934762716, 0.04709309991449118, 12.404054899699986, 0.05030289990827441, 13.044597100000829, 0.014132999815046787, 21.221783499699086, 0.00020830007269978523, 6.013318600133061]",0,,,,,,,,,,,,,,,,,,,,,,,,,,,,,,,,,,,,,,,,,,,,,,,,,,,,,,,,,,,,,,,,,,,,,,,,,,,,,,,,,,,,,,,,,,,,,,,,,,,,,,,,,,,,,,,,,,,,,,,,,,,,VWTGZN,train_x,blue_star,top_right,2025-04-23_09h59.41.636,HideSeek_v1,2022.2.5,59.5871563930061,
,,,,,,,,,,,,,,,3,0,3,0,2,0,2,0,,,,,,,,,,,,,,,,,,,,,,,,,,,,,,,conditions/schedules/train_x_first/blue_star_00/top_right/instructions/Slide19.png,conditions/schedules/train_x_first/blue_star_00/top_right/instructions/Audio19.wav,1308.6977214999497,1308.6949627799913,19,"[4.549054999835789, 18.197071800008416, 16.906455400399864, 19.411730899941176, 4.930393799673766, 4.602174699772149, 5.335104399826378, 11.538329700008035, 6.004066000226885, 7.154184100218117, 9.937648700084537, 12.40404859976843, 18.382618099916726, 13.044590699952096, 31.30396950012073, 21.221776499878615, 30.629810499958694, 6.013312099967152, 10.452866400126368]","[4.549063500016928, 18.197079999838024, 16.90646200021729, 0.03056959994137287, 0.014071299694478512, 0.06373259983956814, 0.014205200131982565, 11.538337199948728, 0.000238100066781044, 0.030476999934762716, 0.04709309991449118, 12.404054899699986, 0.05030289990827441, 13.044597100000829, 0.014132999815046787, 21.221783499699086, 0.00020830007269978523, 0.07872560014948249, 10.452872599940747]",0,,,,,,,,,,,,,,,,,,,,,,,,,,,,,,,,,,,,,,,,,,,,,,,,,,,,,,,,,,,,,,,,,,,,,,,,,,,,,,,,,,,,,,,,,,,,,,,,,,,,,,,,,,,,,,,,,,,,,,,,,,,,VWTGZN,train_x,blue_star,top_right,2025-04-23_09h59.41.636,HideSeek_v1,2022.2.5,59.5871563930061,
,,,,,,,,,,,,,,,3,0,3,0,3,0,3,0,,,,,,,,,,,,,,,,,,,,,,,,,,,,,,,conditions/schedules/train_x_first/blue_star_00/top_right/instructions/Slide20.png,conditions/schedules/train_x_first/blue_star_00/top_right/instructions/Audio20.wav,1319.2195774000138,1319.2203222000971,20,"[4.549054999835789, 18.197071800008416, 16.906455400399864, 19.411730899941176, 4.930393799673766, 4.602174699772149, 5.335104399826378, 11.538329700008035, 6.004066000226885, 7.154184100218117, 9.937648700084537, 12.40404859976843, 18.382618099916726, 13.044590699952096, 31.30396950012073, 21.221776499878615, 30.629810499958694, 6.013312099967152, 10.452866400126368, 13.776802899781615]","[4.549063500016928, 18.197079999838024, 16.90646200021729, 0.03056959994137287, 0.014071299694478512, 0.06373259983956814, 0.014205200131982565, 11.538337199948728, 0.000238100066781044, 0.030476999934762716, 0.04709309991449118, 12.404054899699986, 0.05030289990827441, 13.044597100000829, 0.014132999815046787, 21.221783499699086, 0.00020830007269978523, 0.07872560014948249, 0.0656662997789681, 13.776810099836439]",0,,,,,,,,,,,,,,,,,,,,,,,,,,,,,,,,,,,,,,,,,,,,,,,,,,,,,,,,,,,,,,,,,,,,,,,,,,,,,,,,,,,,,,,,,,,,,,,,,,,,,,,,,,,,,,,,,,,,,,,,,,,,VWTGZN,train_x,blue_star,top_right,2025-04-23_09h59.41.636,HideSeek_v1,2022.2.5,59.5871563930061,
1,5,8,5,3,0,-5,66,2,instr_dim1_2,,,,,,3,0,3,0,,,,,0,0,0,0,,,,,,,,,,,,,,,,,,,,,,,,,,,,,,,,,,,,,stimuli/alien_stimuli/66.png,conditions/schedules/train_x_first/blue_star_00/top_right/inputInstr_2.xlsx,stimuli/alien_stimuli/66.png,1333.0924796001054,1333.0924796001054,1333.0924796001054,1333.0924796001054,1333.0817200602032,return,11.676884099375457,"[-0.16, -0.08, 0, 0.08, 0.16, 0.24, 0.32, 0.4, 0.48, 0.56]","[-0.4, -0.32, -0.24, -0.16, -0.08, 0, 0.08, 0.16, 0.24, 0.32]",3,8,5,5,0.4,0.0,1344.9307432002388,1344.9307432002388,1344.9307432002388,1344.9307432002388,1344.9307432002388,1344.9307432002388,1344.9307432002388,1344.9247317397967,9.392743099946529,return,9.222847999539226,stimuli/alien_stimuli/66.png,66,5,1,,,,,,,,,,,,,,,,,,,,,,,,,,,,,,,,,,,,,,,,,,,,,,,,,,,,,,,,,,,,,,,,,,,,,,,,,,,,,,,,,,,,,,,,,VWTGZN,train_x,blue_star,top_right,2025-04-23_09h59.41.636,HideSeek_v1,2022.2.5,59.5871563930061,
,,,,,,,,,,,30,,,,3,0,3,0,,,,,,,,,,,,,,,,,,,,,,,,,,,,,,,,,,,,,,,,,,,,,,,,,,,,,,,,,,,,,,,,,,,,,,,,,,,,,,21,0.7,0.8333333333333335,1,99,2,30,0,conditions/schedules/train_x_first/blue_star_00/top_right/inputTrain_2.1.xlsx,99,1,2,1,0,,,,,,,,,,,,,,,,,,,,,,,,,,,,,,,,,,,,,,,,,,,,,,,,,,,,,,,,,,,,,,,,,,,,,,,,,,,VWTGZN,train_x,blue_star,top_right,2025-04-23_09h59.41.636,HideSeek_v1,2022.2.5,59.5871563930061,
,,,,,,,,,,,,,,,4,0,4,0,0,0,0,0,,,,,,,,,,,,,,,,,,,,,,,,,,,,,,,conditions/schedules/train_x_first/blue_star_00/top_right/instructions/Slide21.png,conditions/schedules/train_x_first/blue_star_00/top_right/instructions/Audio21.wav,1354.3342848001048,1354.3330490998924,21,"[4.549054999835789, 18.197071800008416, 16.906455400399864, 19.411730899941176, 4.930393799673766, 4.602174699772149, 5.335104399826378, 11.538329700008035, 6.004066000226885, 7.154184100218117, 9.937648700084537, 12.40404859976843, 18.382618099916726, 13.044590699952096, 31.30396950012073, 21.221776499878615, 30.629810499958694, 6.013312099967152, 10.452866400126368, 13.776802899781615, 17.627210299950093]","[4.549063500016928, 18.197079999838024, 16.90646200021729, 0.03056959994137287, 0.014071299694478512, 0.06373259983956814, 0.014205200131982565, 11.538337199948728, 0.000238100066781044, 0.030476999934762716, 0.04709309991449118, 12.404054899699986, 0.05030289990827441, 13.044597100000829, 0.014132999815046787, 21.221783499699086, 0.00020830007269978523, 0.07872560014948249, 0.0656662997789681, 13.776810099836439, 17.627216899767518]",0,,,,,,,,,,,,,,,,,,,,,,,,,,,,,,,,,,,,,,,,,,,,,,,,,,,,,,,,,,,,,,,,,,,,,,,,,,,,,,,,,,,,,,,,,,,,,,,,,,,,,,,,,,,,,,,,,,,,,,,,,,,,VWTGZN,train_x,blue_star,top_right,2025-04-23_09h59.41.636,HideSeek_v1,2022.2.5,59.5871563930061,
2,7,8,7,8,0,0,61,2,instr_dim1_2,,,,,,4,0,4,0,,,,,0,0,0,0,,,,,,,,,,,,,,,,,,,,,,,,,,,,,,,,,,,,,stimuli/alien_stimuli/61.png,conditions/schedules/train_x_first/blue_star_00/top_right/inputInstr_2.xlsx,stimuli/alien_stimuli/61.png,1372.0596370003186,1372.0596370003186,1372.0596370003186,1372.0596370003186,1372.0641318201087,return,2.9601376997306943,"[-0.16, -0.08, 0, 0.08, 0.16, 0.24, 0.32, 0.4, 0.48, 0.56]","[-0.4, -0.32, -0.24, -0.16, -0.08, 0, 0.08, 0.16, 0.24, 0.32]",8,8,7,7,0.0,0.0,1375.1750906999223,1375.1750906999223,1375.1750906999223,1375.1750906999223,1375.1750906999223,1375.1750906999223,1375.1750906999223,1375.1668609799817,7.407182500232011,return,7.261511699762195,stimuli/alien_stimuli/61.png,61,7,2,,,,,,,,,,,,,,,,,,,,,,,,,,,,,,,,,,,,,,,,,,,,,,,,,,,,,,,,,,,,,,,,,,,,,,,,,,,,,,,,,,,,,,,,,VWTGZN,train_x,blue_star,top_right,2025-04-23_09h59.41.636,HideSeek_v1,2022.2.5,59.5871563930061,
,,,,,,,,,,,30,,,,4,0,4,0,,,,,,,,,,,,,,,,,,,,,,,,,,,,,,,,,,,,,,,,,,,,,,,,,,,,,,,,,,,,,,,,,,,,,,,,,,,,,,21,0.7,0.8333333333333335,1,99,2,30,0,conditions/schedules/train_x_first/blue_star_00/top_right/inputTrain_2.1.xlsx,99,1,2,1,0,,,,,,,,,,,,,,,,,,,,,,,,,,,,,,,,,,,,,,,,,,,,,,,,,,,,,,,,,,,,,,,,,,,,,,,,,,,VWTGZN,train_x,blue_star,top_right,2025-04-23_09h59.41.636,HideSeek_v1,2022.2.5,59.5871563930061,
,,,,,,,,,,,,,,,5,0,5,0,0,0,0,0,,,,,,,,,,,,,,,,,,,,,,,,,,,,,,,conditions/schedules/train_x_first/blue_star_00/top_right/instructions/Slide22.png,conditions/schedules/train_x_first/blue_star_00/top_right/instructions/Audio22.wav,1382.6065635001287,1382.6062941998243,22,"[4.549054999835789, 18.197071800008416, 16.906455400399864, 19.411730899941176, 4.930393799673766, 4.602174699772149, 5.335104399826378, 11.538329700008035, 6.004066000226885, 7.154184100218117, 9.937648700084537, 12.40404859976843, 18.382618099916726, 13.044590699952096, 31.30396950012073, 21.221776499878615, 30.629810499958694, 6.013312099967152, 10.452866400126368, 13.776802899781615, 17.627210299950093, 43.499867000151426]","[4.549063500016928, 18.197079999838024, 16.90646200021729, 0.03056959994137287, 0.014071299694478512, 0.06373259983956814, 0.014205200131982565, 11.538337199948728, 0.000238100066781044, 0.030476999934762716, 0.04709309991449118, 12.404054899699986, 0.05030289990827441, 13.044597100000829, 0.014132999815046787, 21.221783499699086, 0.00020830007269978523, 0.07872560014948249, 0.0656662997789681, 13.776810099836439, 17.627216899767518, 43.49987370008603]",0,,,,,,,,,,,,,,,,,,,,,,,,,,,,,,,,,,,,,,,,,,,,,,,,,,,,,,,,,,,,,,,,,,,,,,,,,,,,,,,,,,,,,,,,,,,,,,,,,,,,,,,,,,,,,,,,,,,,,,,,,,,,VWTGZN,train_x,blue_star,top_right,2025-04-23_09h59.41.636,HideSeek_v1,2022.2.5,59.5871563930061,
,5,5,5,1,0,-4,65,,train_dim1_2,1,30,,,,5,0,5,0,,,,,,,,,0,0,0,0,0,0,0,0,0,0,0,0,,,,,,,,,,,,,,,,,,,,,,,,,stimuli/alien_stimuli/65.png,,,,,,,,,,,,,,,,,,,,,,,,,,,,,,,,,,,,,,,30,,,,,,,,1426.2161803999916,1426.2161803999916,1426.2161803999916,1426.2161803999916,1426.2161803999916,down,4.898304400034249,0,0,0,99,0.24,-0.08,down,4.792846099939197,,,,,,,,,,,,,,,,,,,,,,,,,,,,,,,,,,,,,,,,,,,,,,,,,,,,,,,,,,,,VWTGZN,train_x,blue_star,top_right,2025-04-23_09h59.41.636,HideSeek_v1,2022.2.5,59.5871563930061,
,5,5,5,1,0,-4,65,,train_dim1_2,1,30,,,,5,0,5,0,,,,,,,,,0,0,0,0,0,0,0,0,1,0,1,0,,,,,,,,,,,,,,,,,,,,,,,,,,,,,,,,,,,,,,,,,,,,,,,,,,,,,,,,,,,,,,,,30,,,,,,,,1431.0940033001825,1431.0940033001825,1431.0940033001825,1431.0940033001825,1431.0940033001825,down,0.6096729999408126,0,0,0,99,0.24,-0.16,down,0.5355668994598091,,,,,,,,,,,,,,,,,,,,,,,,,,,,,,,,,,,,,,,,,,,,,,,,,,,,,,,,,,,,VWTGZN,train_x,blue_star,top_right,2025-04-23_09h59.41.636,HideSeek_v1,2022.2.5,59.5871563930061,
,5,5,5,1,0,-4,65,,train_dim1_2,1,30,,,,5,0,5,0,,,,,,,,,0,0,0,0,0,0,0,0,2,0,2,0,,,,,,,,,,,,,,,,,,,,,,,,,,,,,,,,,,,,,,,,,,,,,,,,,,,,,,,,,,,,,,,,30,,,,,,,,1431.7108942000195,1431.7108942000195,1431.7108942000195,1431.7108942000195,1431.7108942000195,down,0.5935194999910891,0,0,0,99,0.24,-0.24,down,0.5193805997259915,,,,,,,,,,,,,,,,,,,,,,,,,,,,,,,,,,,,,,,,,,,,,,,,,,,,,,,,,,,,VWTGZN,train_x,blue_star,top_right,2025-04-23_09h59.41.636,HideSeek_v1,2022.2.5,59.5871563930061,
,5,5,5,1,0,-4,65,,train_dim1_2,1,30,,,,5,0,5,0,,,,,,,,,0,0,0,0,0,0,0,0,3,0,3,0,,,,,,,,,,,,,,,,,,,,,,,,,,,,,,,,,,,,,,,,,,,,,,,,,,,,,,,,,,,,,,,,30,,,,,,,,1432.3108124001883,1432.3108124001883,1432.3108124001883,1432.3108124001883,1432.3108124001883,down,0.5936414999887347,0,0,0,99,0.24,-0.32,down,0.5142123997211456,,,,,,,,,,,,,,,,,,,,,,,,,,,,,,,,,,,,,,,,,,,,,,,,,,,,,,,,,,,,VWTGZN,train_x,blue_star,top_right,2025-04-23_09h59.41.636,HideSeek_v1,2022.2.5,59.5871563930061,
,5,5,5,1,0,-4,65,,train_dim1_2,1,30,,,,5,0,5,0,,,,,,,,,0,0,0,0,0,0,0,0,4,0,4,0,,,,,,,,,,,,,,,,,,,,,,,,,,,,,,,,,,,,,,,,,,,,,,,,,,,,,,,,,,,,,,,,30,,,,,,,,1432.911232500337,1432.911232500337,1432.911232500337,1432.911232500337,1432.911232500337,down,0.5769421001896262,0,0,0,99,0.24,-0.4,down,0.490287899505347,,,,,,,,,,,,,,,,,,,,,,,,,,,,,,,,,,,,,,,,,,,,,,,,,,,,,,,,,,,,VWTGZN,train_x,blue_star,top_right,2025-04-23_09h59.41.636,HideSeek_v1,2022.2.5,59.5871563930061,
,5,5,5,1,0,-4,65,,train_dim1_2,1,30,,,,5,0,5,0,,,,,,,,,0,0,0,0,0,0,0,0,5,0,5,0,,,,,,,,,,,,,,,,,,,,,,,,,,,,,,,,,,,,,,,,,,,,,,,,,,,,,,,,,,,,,,,,30,,,,,,,,1433.4960958999582,1433.4960958999582,1433.4960958999582,1433.4960958999582,1433.4960958999582,return,0.560528100002557,0,1,0,0,0.24,-0.4,return,0.4860273995436728,-11,-70,0.24,-0.4,,,,,,,,,,,,,,,,,,,,,,,,,,,,,,,,,,,,,,,,,,,,,,,,,,,,,,,,VWTGZN,train_x,blue_star,top_right,2025-04-23_09h59.41.636,HideSeek_v1,2022.2.5,59.5871563930061,
,8,7,8,2,0,-5,66,,train_dim1_2,2,30,,,,5,0,5,0,,,,,,,,,0,0,0,0,0,1,1,1,0,0,0,0,,,,,,,,,,,,,,,,,,,,,,,,,stimuli/alien_stimuli/66.png,,,,,,,,,,,,,,,,,,,,,,,,,,,,,stimuli/alien_stimuli/65.png,65,5,3,,,,,,,30,,,,,,,,1442.6123134000227,1442.6123134000227,1442.6123134000227,1442.6123134000227,1442.6123134000227,down,7.707238300237805,0,1,0,99,0.48,0.08,down,7.625856599770486,,,,,1441.054715699982,1442.6123134000227,0.24,-0.32,0.32,0.0,-0.16,0.24,0.24,0.24,-0.32,1435.649342800025,1435.649342800025,1435.649342800025,1435.649342800025,1435.649342800025,1435.649342800025,1435.649342800025,1435.649342800025,1435.6337106800638,5.539978599641472,return,5.384759199805558,,,,,,,,,,,,,,,,,,,,,,,,,,,,,,,,,VWTGZN,train_x,blue_star,top_right,2025-04-23_09h59.41.636,HideSeek_v1,2022.2.5,59.5871563930061,
,8,7,8,2,0,-5,66,,train_dim1_2,2,30,,,,5,0,5,0,,,,,,,,,0,0,0,0,0,1,1,1,1,0,1,0,,,,,,,,,,,,,,,,,,,,,,,,,,,,,,,,,,,,,,,,,,,,,,,,,,,,,,,,,,,,,,,,30,,,,,,,,1450.330584499985,1450.330584499985,1450.330584499985,1450.330584499985,1450.330584499985,down,0.6930467998608947,0,1,0,99,0.48,0.0,down,0.6127993995323777,,,,,,,,,,,,,,,,,,,,,,,,,,,,,,,,,,,,,,,,,,,,,,,,,,,,,,,,,,,,VWTGZN,train_x,blue_star,top_right,2025-04-23_09h59.41.636,HideSeek_v1,2022.2.5,59.5871563930061,
,8,7,8,2,0,-5,66,,train_dim1_2,2,30,,,,5,0,5,0,,,,,,,,,0,0,0,0,0,1,1,1,2,0,2,0,,,,,,,,,,,,,,,,,,,,,,,,,,,,,,,,,,,,,,,,,,,,,,,,,,,,,,,,,,,,,,,,30,,,,,,,,1451.0294334003702,1451.0294334003702,1451.0294334003702,1451.0294334003702,1451.0294334003702,down,0.692269999999553,0,1,0,99,0.48,-0.08,down,0.6143732001073658,,,,,,,,,,,,,,,,,,,,,,,,,,,,,,,,,,,,,,,,,,,,,,,,,,,,,,,,,,,,VWTGZN,train_x,blue_star,top_right,2025-04-23_09h59.41.636,HideSeek_v1,2022.2.5,59.5871563930061,
,8,7,8,2,0,-5,66,,train_dim1_2,2,30,,,,5,0,5,0,,,,,,,,,0,0,0,0,0,1,1,1,3,0,3,0,,,,,,,,,,,,,,,,,,,,,,,,,,,,,,,,,,,,,,,,,,,,,,,,,,,,,,,,,,,,,,,,30,,,,,,,,1451.726880799979,1451.726880799979,1451.726880799979,1451.726880799979,1451.726880799979,down,0.7436605002731085,0,1,0,99,0.48,-0.16,down,0.6631236998364329,,,,,,,,,,,,,,,,,,,,,,,,,,,,,,,,,,,,,,,,,,,,,,,,,,,,,,,,,,,,VWTGZN,train_x,blue_star,top_right,2025-04-23_09h59.41.636,HideSeek_v1,2022.2.5,59.5871563930061,
,8,7,8,2,0,-5,66,,train_dim1_2,2,30,,,,5,0,5,0,,,,,,,,,0,0,0,0,0,1,1,1,4,0,4,0,,,,,,,,,,,,,,,,,,,,,,,,,,,,,,,,,,,,,,,,,,,,,,,,,,,,,,,,,,,,,,,,30,,,,,,,,1452.4786535999738,1452.4786535999738,1452.4786535999738,1452.4786535999738,1452.4786535999738,down,0.9102346999570727,0,1,0,99,0.48,-0.24,down,0.8270740997977555,,,,,,,,,,,,,,,,,,,,,,,,,,,,,,,,,,,,,,,,,,,,,,,,,,,,,,,,,,,,VWTGZN,train_x,blue_star,top_right,2025-04-23_09h59.41.636,HideSeek_v1,2022.2.5,59.5871563930061,
,8,7,8,2,0,-5,66,,train_dim1_2,2,30,,,,5,0,5,0,,,,,,,,,0,0,0,0,0,1,1,1,5,0,5,0,,,,,,,,,,,,,,,,,,,,,,,,,,,,,,,,,,,,,,,,,,,,,,,,,,,,,,,,,,,,,,,,30,,,,,,,,1453.395020800177,1453.395020800177,1453.395020800177,1453.395020800177,1453.395020800177,return,0.8606493999250233,1,0,0,1,0.48,-0.24,return,0.7889523999765515,-16,-70,0.48,-0.24,,,,,,,,,,,,,,,,,,,,,,,,,,,,,,,,,,,,,,,,,,,,,,,,,,,,,,,,VWTGZN,train_x,blue_star,top_right,2025-04-23_09h59.41.636,HideSeek_v1,2022.2.5,59.5871563930061,
