trialInstr,x_fixStart,y_fixStart,x_corrSteps,y_corrSteps,x_nrSteps,y_nrSteps,alienID,trialLength,version,trialTrain,praclen,testlen,trial_label,break_on_off,beforeExpLoop.thisRepN,beforeExpLoop.thisTrialN,beforeExpLoop.thisN,beforeExpLoop.thisIndex,mini_instr_trials.thisRepN,mini_instr_trials.thisTrialN,mini_instr_trials.thisN,mini_instr_trials.thisIndex,instrLoop.thisRepN,instrLoop.thisTrialN,instrLoop.thisN,instrLoop.thisIndex,repeat_prac.thisRepN,repeat_prac.thisTrialN,repeat_prac.thisN,repeat_prac.thisIndex,trainLoop.thisRepN,trainLoop.thisTrialN,trainLoop.thisN,trainLoop.thisIndex,moveLoop_train.thisRepN,moveLoop_train.thisTrialN,moveLoop_train.thisN,moveLoop_train.thisIndex,experiment.thisRepN,experiment.thisTrialN,experiment.thisN,experiment.thisIndex,moveLoop_test.thisRepN,moveLoop_test.thisTrialN,moveLoop_test.thisN,moveLoop_test.thisIndex,mini_instr2_trials.thisRepN,mini_instr2_trials.thisTrialN,mini_instr2_trials.thisN,mini_instr2_trials.thisIndex,start_all_time,url,slideStim,audioStim,slides.started,sounds.started,nextButton.numClicks,nextButton.timesOn,nextButton.timesOff,prev_but.numClicks,prev_but.timesOn,prev_but.timesOff,alienStim,instrFile,alienStim_instr,gridImage_instr.started,startPos_3.started,key_instr.started,alienImage_3.started,sounds_1.started,key_instr.keys,key_instr.rt,all_x,all_y,FBy_corrSteps,FBy_fixStart,FBx_corrSteps,FBx_fixStart,FBy_pathSize_check,FBx_pathSize_check,gridImage_9.started,alienImageFB_3.started,startPosFB_3.started,keyFB_3.started,pathLine_ydir_2.started,pathLine_xdir_2.started,alienFace_3.started,sounds_2.started,RTFB_instr,keyFB_3.keys,keyFB_3.rt,draw_alienStim,draw_alienID,test_x,nrepcount,perfthres,percthres,earlierperf,earlystop,nextPrac,fileidx,praclen,saveACC_train,pracFile,nextPrac_train,addNrep,fileidx_endr,repExp,showearly,gridImage_4.started,startPos.started,movePos.started,key_resp.started,alienImage.started,buttonPress_train,RTchoice_train,cumAcctrain,aCorr,saveACC_choice,corrAns,x_movePos_end,y_movePos_end,key_resp.keys,key_resp.rt,wLy_dir,wLx_dir,x_movePos,y_movePos,text_2.started,text_2.stopped,aft_x_corrPos,aft_y_corrPos,y_pathSize_check,x_pathSize_check,y_pathdirY,x_pathdirY,x_pathdirX,x_corrPos,y_corrPos,gridImage_6.started,alienImageFB_2.started,startPosFB_2.started,movePosFB_2.started,keyFB_2.started,pathLine_xdir.started,pathLine_ydir.started,alienFace.started,sounds_4.started,RT_FBtrain,keyFB_2.keys,keyFB_2.rt,saveACC_pre,ACC,within_saveACC_train,earlystop_wloop,cumAcctrain_check,gridImage_3.started,alienImage_test.started,startPos_test.started,movePos_test.started,key_resp_test.started,wLy_dir_test,wLx_dir_test,buttonPress_test,RTchoice_test,cumAcctest,corrAns_test,key_resp_test.keys,key_resp_test.rt,text_3.started,text_3.stopped,total_time,end_all_time,key_resp_3.keys,slides_2.started,sounds_3.started,nextButton_2.numClicks,nextButton_2.timesOn,nextButton_2.timesOff,prev_but_2.numClicks,prev_but_2.timesOn,prev_but_2.timesOff,bye.started,participant,train_first,00_coordinate,starting corner,date,expName,psychopyVersion,frameRate,
,,,,,,,,,,,,,,,0,0,0,0,0,0,0,0,,,,,,,,,,,,,,,,,,,,,,,,,,,,,start_all_time,testround,conditions/schedules/train_y_first/blue_star_00/top_left/instructions/Slide1.png,conditions/schedules/train_y_first/blue_star_00/top_left/instructions/Audio1.wav,39.19922180008143,39.14489883789793,1,[1.2193819000385702],[1.2193893999792635],0,,,,,,,,,,,,,,,,,,,,,,,,,,,,,,,,,,,,,,,,,,,,,,,,,,,,,,,,,,,,,,,,,,,,,,,,,,,,,,,,,,,,,,,,,,,,,,,,,,,,,,,,,,,,,,,,,,,,,,,,,,,,VZEEM3,train_y,blue_star,top_left,2025-02-17_16h04.54.564,HideSeek_v1,2022.2.5,60.46501211678796,
,,,,,,,,,,,,,,,0,0,0,0,1,0,1,0,,,,,,,,,,,,,,,,,,,,,,,,,,,,,,,conditions/schedules/train_y_first/blue_star_00/top_left/instructions/Slide2.png,conditions/schedules/train_y_first/blue_star_00/top_left/instructions/Audio2.wav,40.4372449000366,40.42672652006149,2,"[1.2193819000385702, 0.8374231001362205]","[0.013818600215017796, 0.837430200073868]",0,,,,,,,,,,,,,,,,,,,,,,,,,,,,,,,,,,,,,,,,,,,,,,,,,,,,,,,,,,,,,,,,,,,,,,,,,,,,,,,,,,,,,,,,,,,,,,,,,,,,,,,,,,,,,,,,,,,,,,,,,,,,VZEEM3,train_y,blue_star,top_left,2025-02-17_16h04.54.564,HideSeek_v1,2022.2.5,60.46501211678796,
,,,,,,,,,,,,,,,0,0,0,0,2,0,2,0,,,,,,,,,,,,,,,,,,,,,,,,,,,,,,,conditions/schedules/train_y_first/blue_star_00/top_left/instructions/Slide3.png,conditions/schedules/train_y_first/blue_star_00/top_left/instructions/Audio3.wav,41.33448390010744,41.327512819785625,3,"[1.2193819000385702, 0.8374231001362205, 0.7745463000610471]","[0.013818600215017796, 0.03695050021633506, 0.7745533999986947]",0,,,,,,,,,,,,,,,,,,,,,,,,,,,,,,,,,,,,,,,,,,,,,,,,,,,,,,,,,,,,,,,,,,,,,,,,,,,,,,,,,,,,,,,,,,,,,,,,,,,,,,,,,,,,,,,,,,,,,,,,,,,,VZEEM3,train_y,blue_star,top_left,2025-02-17_16h04.54.564,HideSeek_v1,2022.2.5,60.46501211678796,
,,,,,,,,,,,,,,,0,0,0,0,3,0,3,0,,,,,,,,,,,,,,,,,,,,,,,,,,,,,,,conditions/schedules/train_y_first/blue_star_00/top_left/instructions/Slide4.png,conditions/schedules/train_y_first/blue_star_00/top_left/instructions/Audio4.wav,42.169657399877906,42.16145251970738,4,"[1.2193819000385702, 0.8374231001362205, 0.7745463000610471, 19.47241730010137]","[0.013818600215017796, 0.03695050021633506, 0.01422830019146204, 19.47242380026728]",0,,,,,,,,,,,,,,,,,,,,,,,,,,,,,,,,,,,,,,,,,,,,,,,,,,,,,,,,,,,,,,,,,,,,,,,,,,,,,,,,,,,,,,,,,,,,,,,,,,,,,,,,,,,,,,,,,,,,,,,,,,,,VZEEM3,train_y,blue_star,top_left,2025-02-17_16h04.54.564,HideSeek_v1,2022.2.5,60.46501211678796,
,,,,,,,,,,,,,,,0,0,0,0,4,0,4,0,,,,,,,,,,,,,,,,,,,,,,,,,,,,,,,conditions/schedules/train_y_first/blue_star_00/top_left/instructions/Slide5.png,conditions/schedules/train_y_first/blue_star_00/top_left/instructions/Audio5.wav,61.70706109981984,61.69461241969839,5,"[1.2193819000385702, 0.8374231001362205, 0.7745463000610471, 19.47241730010137, 5.1728560999035835]","[0.013818600215017796, 0.03695050021633506, 0.01422830019146204, 0.034816100262105465, 5.172863500192761]",0,,,,,,,,,,,,,,,,,,,,,,,,,,,,,,,,,,,,,,,,,,,,,,,,,,,,,,,,,,,,,,,,,,,,,,,,,,,,,,,,,,,,,,,,,,,,,,,,,,,,,,,,,,,,,,,,,,,,,,,,,,,,VZEEM3,train_y,blue_star,top_left,2025-02-17_16h04.54.564,HideSeek_v1,2022.2.5,60.46501211678796,
,,,,,,,,,,,,,,,0,0,0,0,5,0,5,0,,,,,,,,,,,,,,,,,,,,,,,,,,,,,,,conditions/schedules/train_y_first/blue_star_00/top_left/instructions/Slide6.png,conditions/schedules/train_y_first/blue_star_00/top_left/instructions/Audio6.wav,66.93170089973137,66.93217861978337,6,"[1.2193819000385702, 0.8374231001362205, 0.7745463000610471, 19.47241730010137, 5.1728560999035835, 4.9353686003014445]","[0.013818600215017796, 0.03695050021633506, 0.01422830019146204, 0.034816100262105465, 0.04786300007253885, 4.935375900007784]",0,,,,,,,,,,,,,,,,,,,,,,,,,,,,,,,,,,,,,,,,,,,,,,,,,,,,,,,,,,,,,,,,,,,,,,,,,,,,,,,,,,,,,,,,,,,,,,,,,,,,,,,,,,,,,,,,,,,,,,,,,,,,VZEEM3,train_y,blue_star,top_left,2025-02-17_16h04.54.564,HideSeek_v1,2022.2.5,60.46501211678796,
,,,,,,,,,,,,,,,0,0,0,0,6,0,6,0,,,,,,,,,,,,,,,,,,,,,,,,,,,,,,,conditions/schedules/train_y_first/blue_star_00/top_left/instructions/Slide7.png,conditions/schedules/train_y_first/blue_star_00/top_left/instructions/Audio7.wav,71.91861720010638,71.91957111982629,7,"[1.2193819000385702, 0.8374231001362205, 0.7745463000610471, 19.47241730010137, 5.1728560999035835, 4.9353686003014445, 5.536155799869448]","[0.013818600215017796, 0.03695050021633506, 0.01422830019146204, 0.034816100262105465, 0.04786300007253885, 0.04795120004564524, 5.536162700038403]",0,,,,,,,,,,,,,,,,,,,,,,,,,,,,,,,,,,,,,,,,,,,,,,,,,,,,,,,,,,,,,,,,,,,,,,,,,,,,,,,,,,,,,,,,,,,,,,,,,,,,,,,,,,,,,,,,,,,,,,,,,,,,VZEEM3,train_y,blue_star,top_left,2025-02-17_16h04.54.564,HideSeek_v1,2022.2.5,60.46501211678796,
,,,,,,,,,,,,,,,0,0,0,0,7,0,7,0,,,,,,,,,,,,,,,,,,,,,,,,,,,,,,,conditions/schedules/train_y_first/blue_star_00/top_left/instructions/Slide8.png,conditions/schedules/train_y_first/blue_star_00/top_left/instructions/Audio8.wav,77.50966939982027,77.50753221986815,8,"[1.2193819000385702, 0.8374231001362205, 0.7745463000610471, 19.47241730010137, 5.1728560999035835, 4.9353686003014445, 5.536155799869448, 11.705062699969858]","[0.013818600215017796, 0.03695050021633506, 0.01422830019146204, 0.034816100262105465, 0.04786300007253885, 0.04795120004564524, 0.06180260004475713, 11.705069600138813]",0,,,,,,,,,,,,,,,,,,,,,,,,,,,,,,,,,,,,,,,,,,,,,,,,,,,,,,,,,,,,,,,,,,,,,,,,,,,,,,,,,,,,,,,,,,,,,,,,,,,,,,,,,,,,,,,,,,,,,,,,,,,,VZEEM3,train_y,blue_star,top_left,2025-02-17_16h04.54.564,HideSeek_v1,2022.2.5,60.46501211678796,
,,,,,,,,,,,,,,,0,0,0,0,8,0,8,0,,,,,,,,,,,,,,,,,,,,,,,,,,,,,,,conditions/schedules/train_y_first/blue_star_00/top_left/instructions/Slide9.png,conditions/schedules/train_y_first/blue_star_00/top_left/instructions/Audio9.wav,89.2801044001244,89.26730962004513,9,"[1.2193819000385702, 0.8374231001362205, 0.7745463000610471, 19.47241730010137, 5.1728560999035835, 4.9353686003014445, 5.536155799869448, 11.705062699969858, 5.9896418997086585]","[0.013818600215017796, 0.03695050021633506, 0.01422830019146204, 0.034816100262105465, 0.04786300007253885, 0.04795120004564524, 0.06180260004475713, 0.03490449953824282, 5.989648799877614]",0,,,,,,,,,,,,,,,,,,,,,,,,,,,,,,,,,,,,,,,,,,,,,,,,,,,,,,,,,,,,,,,,,,,,,,,,,,,,,,,,,,,,,,,,,,,,,,,,,,,,,,,,,,,,,,,,,,,,,,,,,,,,VZEEM3,train_y,blue_star,top_left,2025-02-17_16h04.54.564,HideSeek_v1,2022.2.5,60.46501211678796,
,,,,,,,,,,,,,,,0,0,0,0,9,0,9,0,,,,,,,,,,,,,,,,,,,,,,,,,,,,,,,conditions/schedules/train_y_first/blue_star_00/top_left/instructions/Slide10.png,conditions/schedules/train_y_first/blue_star_00/top_left/instructions/Audio10.wav,95.30690179998055,95.30552188982256,10,"[1.2193819000385702, 0.8374231001362205, 0.7745463000610471, 19.47241730010137, 5.1728560999035835, 4.9353686003014445, 5.536155799869448, 11.705062699969858, 5.9896418997086585, 7.035397700034082]","[0.013818600215017796, 0.03695050021633506, 0.01422830019146204, 0.034816100262105465, 0.04786300007253885, 0.04795120004564524, 0.06180260004475713, 0.03490449953824282, 0.09599060006439686, 7.0354045000858605]",0,,,,,,,,,,,,,,,,,,,,,,,,,,,,,,,,,,,,,,,,,,,,,,,,,,,,,,,,,,,,,,,,,,,,,,,,,,,,,,,,,,,,,,,,,,,,,,,,,,,,,,,,,,,,,,,,,,,,,,,,,,,,VZEEM3,train_y,blue_star,top_left,2025-02-17_16h04.54.564,HideSeek_v1,2022.2.5,60.46501211678796,
,,,,,,,,,,,,,,,0,0,0,0,10,0,10,0,,,,,,,,,,,,,,,,,,,,,,,,,,,,,,,conditions/schedules/train_y_first/blue_star_00/top_left/instructions/Slide11.png,conditions/schedules/train_y_first/blue_star_00/top_left/instructions/Audio11.wav,102.3812933000736,102.37821928993799,11,"[1.2193819000385702, 0.8374231001362205, 0.7745463000610471, 19.47241730010137, 5.1728560999035835, 4.9353686003014445, 5.536155799869448, 11.705062699969858, 5.9896418997086585, 7.035397700034082, 10.035878399852663]","[0.013818600215017796, 0.03695050021633506, 0.01422830019146204, 0.034816100262105465, 0.04786300007253885, 0.04795120004564524, 0.06180260004475713, 0.03490449953824282, 0.09599060006439686, 0.09416319988667965, 10.035885399673134]",0,,,,,,,,,,,,,,,,,,,,,,,,,,,,,,,,,,,,,,,,,,,,,,,,,,,,,,,,,,,,,,,,,,,,,,,,,,,,,,,,,,,,,,,,,,,,,,,,,,,,,,,,,,,,,,,,,,,,,,,,,,,,VZEEM3,train_y,blue_star,top_left,2025-02-17_16h04.54.564,HideSeek_v1,2022.2.5,60.46501211678796,
,,,,,,,,,,,,,,,0,0,0,0,11,0,11,0,,,,,,,,,,,,,,,,,,,,,,,,,,,,,,,conditions/schedules/train_y_first/blue_star_00/top_left/instructions/Slide12.png,conditions/schedules/train_y_first/blue_star_00/top_left/instructions/Audio12.wav,112.48773059993982,112.48647314985283,12,"[1.2193819000385702, 0.8374231001362205, 0.7745463000610471, 19.47241730010137, 5.1728560999035835, 4.9353686003014445, 5.536155799869448, 11.705062699969858, 5.9896418997086585, 7.035397700034082, 10.035878399852663, 14.024605399928987]","[0.013818600215017796, 0.03695050021633506, 0.01422830019146204, 0.034816100262105465, 0.04786300007253885, 0.04795120004564524, 0.06180260004475713, 0.03490449953824282, 0.09599060006439686, 0.09416319988667965, 0.029812800232321024, 14.02461210032925]",0,,,,,,,,,,,,,,,,,,,,,,,,,,,,,,,,,,,,,,,,,,,,,,,,,,,,,,,,,,,,,,,,,,,,,,,,,,,,,,,,,,,,,,,,,,,,,,,,,,,,,,,,,,,,,,,,,,,,,,,,,,,,VZEEM3,train_y,blue_star,top_left,2025-02-17_16h04.54.564,HideSeek_v1,2022.2.5,60.46501211678796,
1,0,8,0,3,0,-5,66,2,instr_dim1_1,,,,,,0,0,0,0,,,,,0,0,0,0,,,,,,,,,,,,,,,,,,,,,,,,,,,,,,,,,,,,,stimuli/alien_stimuli/66.png,conditions/schedules/train_y_first/blue_star_00/top_left/inputInstr_1.xlsx,stimuli/alien_stimuli/66.png,126.61382990004495,126.61382990004495,126.61382990004495,126.61382990004495,126.61525170993991,return,14.882386800367385,"[-0.16, -0.08, 0, 0.08, 0.16, 0.24, 0.32, 0.4, 0.48, 0.56]","[-0.4, -0.32, -0.24, -0.16, -0.08, 0, 0.08, 0.16, 0.24, 0.32]",3,8,0,0,0.4,0.0,141.6686283000745,141.6686283000745,141.6686283000745,141.6686283000745,141.6686283000745,141.6686283000745,141.6686283000745,141.660727069946,10.626457099802792,return,10.462658800184727,stimuli/alien_stimuli/66.png,66,0,1,,,,,,,,,,,,,,,,,,,,,,,,,,,,,,,,,,,,,,,,,,,,,,,,,,,,,,,,,,,,,,,,,,,,,,,,,,,,,,,,,,,,,,,,,VZEEM3,train_y,blue_star,top_left,2025-02-17_16h04.54.564,HideSeek_v1,2022.2.5,60.46501211678796,
,,,,,,,,,,,30,,,,0,0,0,0,,,,,,,,,,,,,,,,,,,,,,,,,,,,,,,,,,,,,,,,,,,,,,,,,,,,,,,,,,,,,,,,,,,,,,,,,,,,,,21,0.7,0,0,99,1,30,0,conditions/schedules/train_y_first/blue_star_00/top_left/inputTrain_1.1.xlsx,99,1,1,1,0,,,,,,,,,,,,,,,,,,,,,,,,,,,,,,,,,,,,,,,,,,,,,,,,,,,,,,,,,,,,,,,,,,,,,,,,,,,VZEEM3,train_y,blue_star,top_left,2025-02-17_16h04.54.564,HideSeek_v1,2022.2.5,60.46501211678796,
,,,,,,,,,,,,,,,1,0,1,0,0,0,0,0,,,,,,,,,,,,,,,,,,,,,,,,,,,,,,,conditions/schedules/train_y_first/blue_star_00/top_left/instructions/Slide13.png,conditions/schedules/train_y_first/blue_star_00/top_left/instructions/Audio13.wav,152.29765459988266,152.28595146979205,13,"[1.2193819000385702, 0.8374231001362205, 0.7745463000610471, 19.47241730010137, 5.1728560999035835, 4.9353686003014445, 5.536155799869448, 11.705062699969858, 5.9896418997086585, 7.035397700034082, 10.035878399852663, 14.024605399928987, 19.634817000012845]","[0.013818600215017796, 0.03695050021633506, 0.01422830019146204, 0.034816100262105465, 0.04786300007253885, 0.04795120004564524, 0.06180260004475713, 0.03490449953824282, 0.09599060006439686, 0.09416319988667965, 0.029812800232321024, 14.02461210032925, 19.6348239001818]",0,,,,,,,,,,,,,,,,,,,,,,,,,,,,,,,,,,,,,,,,,,,,,,,,,,,,,,,,,,,,,,,,,,,,,,,,,,,,,,,,,,,,,,,,,,,,,,,,,,,,,,,,,,,,,,,,,,,,,,,,,,,,VZEEM3,train_y,blue_star,top_left,2025-02-17_16h04.54.564,HideSeek_v1,2022.2.5,60.46501211678796,
,,,,,,,,,,,,,,,1,0,1,0,1,0,1,0,,,,,,,,,,,,,,,,,,,,,,,,,,,,,,,conditions/schedules/train_y_first/blue_star_00/top_left/instructions/Slide14.png,conditions/schedules/train_y_first/blue_star_00/top_left/instructions/Audio14.wav,172.00801370013505,172.00250304979272,14,"[1.2193819000385702, 0.8374231001362205, 0.7745463000610471, 19.47241730010137, 5.1728560999035835, 4.9353686003014445, 5.536155799869448, 11.705062699969858, 5.9896418997086585, 7.035397700034082, 10.035878399852663, 14.024605399928987, 19.634817000012845, 16.639158099889755]","[0.013818600215017796, 0.03695050021633506, 0.01422830019146204, 0.034816100262105465, 0.04786300007253885, 0.04795120004564524, 0.06180260004475713, 0.03490449953824282, 0.09599060006439686, 0.09416319988667965, 0.029812800232321024, 14.02461210032925, 0.00021929992362856865, 16.639164899941534]",0,,,,,,,,,,,,,,,,,,,,,,,,,,,,,,,,,,,,,,,,,,,,,,,,,,,,,,,,,,,,,,,,,,,,,,,,,,,,,,,,,,,,,,,,,,,,,,,,,,,,,,,,,,,,,,,,,,,,,,,,,,,,VZEEM3,train_y,blue_star,top_left,2025-02-17_16h04.54.564,HideSeek_v1,2022.2.5,60.46501211678796,
2,2,8,2,8,0,0,61,2,instr_dim1_1,,,,,,1,0,1,0,,,,,0,0,0,0,,,,,,,,,,,,,,,,,,,,,,,,,,,,,,,,,,,,,stimuli/alien_stimuli/61.png,conditions/schedules/train_y_first/blue_star_00/top_left/inputInstr_1.xlsx,stimuli/alien_stimuli/61.png,188.7390859001316,188.7390859001316,188.7390859001316,188.7390859001316,188.73304647998884,return,15.447792899794877,"[-0.16, -0.08, 0, 0.08, 0.16, 0.24, 0.32, 0.4, 0.48, 0.56]","[-0.4, -0.32, -0.24, -0.16, -0.08, 0, 0.08, 0.16, 0.24, 0.32]",8,8,2,2,0.0,0.0,204.35275419987738,204.35275419987738,204.35275419987738,204.35275419987738,204.35275419987738,204.35275419987738,204.35275419987738,204.34557137009688,10.977307800203562,return,10.818467000033706,stimuli/alien_stimuli/61.png,61,2,2,,,,,,,,,,,,,,,,,,,,,,,,,,,,,,,,,,,,,,,,,,,,,,,,,,,,,,,,,,,,,,,,,,,,,,,,,,,,,,,,,,,,,,,,,VZEEM3,train_y,blue_star,top_left,2025-02-17_16h04.54.564,HideSeek_v1,2022.2.5,60.46501211678796,
,,,,,,,,,,,30,,,,1,0,1,0,,,,,,,,,,,,,,,,,,,,,,,,,,,,,,,,,,,,,,,,,,,,,,,,,,,,,,,,,,,,,,,,,,,,,,,,,,,,,,21,0.7,0,0,99,1,30,0,conditions/schedules/train_y_first/blue_star_00/top_left/inputTrain_1.1.xlsx,99,1,1,1,0,,,,,,,,,,,,,,,,,,,,,,,,,,,,,,,,,,,,,,,,,,,,,,,,,,,,,,,,,,,,,,,,,,,,,,,,,,,VZEEM3,train_y,blue_star,top_left,2025-02-17_16h04.54.564,HideSeek_v1,2022.2.5,60.46501211678796,
,,,,,,,,,,,,,,,2,0,2,0,0,0,0,0,,,,,,,,,,,,,,,,,,,,,,,,,,,,,,,conditions/schedules/train_y_first/blue_star_00/top_left/instructions/Slide15.png,conditions/schedules/train_y_first/blue_star_00/top_left/instructions/Audio15.wav,215.33715489972383,215.33843120001256,15,"[1.2193819000385702, 0.8374231001362205, 0.7745463000610471, 19.47241730010137, 5.1728560999035835, 4.9353686003014445, 5.536155799869448, 11.705062699969858, 5.9896418997086585, 7.035397700034082, 10.035878399852663, 14.024605399928987, 19.634817000012845, 16.639158099889755, 43.568054699804634]","[0.013818600215017796, 0.03695050021633506, 0.01422830019146204, 0.034816100262105465, 0.04786300007253885, 0.04795120004564524, 0.06180260004475713, 0.03490449953824282, 0.09599060006439686, 0.09416319988667965, 0.029812800232321024, 14.02461210032925, 0.00021929992362856865, 16.639164899941534, 43.56806179974228]",0,,,,,,,,,,,,,,,,,,,,,,,,,,,,,,,,,,,,,,,,,,,,,,,,,,,,,,,,,,,,,,,,,,,,,,,,,,,,,,,,,,,,,,,,,,,,,,,,,,,,,,,,,,,,,,,,,,,,,,,,,,,,VZEEM3,train_y,blue_star,top_left,2025-02-17_16h04.54.564,HideSeek_v1,2022.2.5,60.46501211678796,
,,,,,,,,,,,,,,,2,0,2,0,1,0,1,0,,,,,,,,,,,,,,,,,,,,,,,,,,,,,,,conditions/schedules/train_y_first/blue_star_00/top_left/instructions/Slide16.png,conditions/schedules/train_y_first/blue_star_00/top_left/instructions/Audio16.wav,258.9766083001159,258.9747526498977,16,"[1.2193819000385702, 0.8374231001362205, 0.7745463000610471, 19.47241730010137, 5.1728560999035835, 4.9353686003014445, 5.536155799869448, 11.705062699969858, 5.9896418997086585, 7.035397700034082, 10.035878399852663, 14.024605399928987, 19.634817000012845, 16.639158099889755, 43.568054699804634, 21.94690559990704]","[0.013818600215017796, 0.03695050021633506, 0.01422830019146204, 0.034816100262105465, 0.04786300007253885, 0.04795120004564524, 0.06180260004475713, 0.03490449953824282, 0.09599060006439686, 0.09416319988667965, 0.029812800232321024, 14.02461210032925, 0.00021929992362856865, 16.639164899941534, 0.062116299755871296, 21.946912699844688]",0,,,,,,,,,,,,,,,,,,,,,,,,,,,,,,,,,,,,,,,,,,,,,,,,,,,,,,,,,,,,,,,,,,,,,,,,,,,,,,,,,,,,,,,,,,,,,,,,,,,,,,,,,,,,,,,,,,,,,,,,,,,,VZEEM3,train_y,blue_star,top_left,2025-02-17_16h04.54.564,HideSeek_v1,2022.2.5,60.46501211678796,
,0,5,0,1,0,-4,65,,train_dim1_1,1,30,,,,2,0,2,0,,,,,,,,,0,0,0,0,0,0,0,0,0,0,0,0,,,,,,,,,,,,,,,,,,,,,,,,,stimuli/alien_stimuli/65.png,,,,,,,,,,,,,,,,,,,,,,,,,,,,,,,,,,,,,,,30,,,,,,,,281.0288062999025,281.0288062999025,281.0288062999025,281.0288062999025,281.0288062999025,down,6.548297400120646,0,0,0,99,-0.16,-0.08,down,6.443837099708617,,,,,,,,,,,,,,,,,,,,,,,,,,,,,,,,,,,,,,,,,,,,,,,,,,,,,,,,,,,,VZEEM3,train_y,blue_star,top_left,2025-02-17_16h04.54.564,HideSeek_v1,2022.2.5,60.46501211678796,
,0,5,0,1,0,-4,65,,train_dim1_1,1,30,,,,2,0,2,0,,,,,,,,,0,0,0,0,0,0,0,0,1,0,1,0,,,,,,,,,,,,,,,,,,,,,,,,,,,,,,,,,,,,,,,,,,,,,,,,,,,,,,,,,,,,,,,,30,,,,,,,,287.56369409989566,287.56369409989566,287.56369409989566,287.56369409989566,287.56369409989566,down,1.1919601000845432,0,0,0,99,-0.16,-0.16,down,1.108756100293249,,,,,,,,,,,,,,,,,,,,,,,,,,,,,,,,,,,,,,,,,,,,,,,,,,,,,,,,,,,,VZEEM3,train_y,blue_star,top_left,2025-02-17_16h04.54.564,HideSeek_v1,2022.2.5,60.46501211678796,
,0,5,0,1,0,-4,65,,train_dim1_1,1,30,,,,2,0,2,0,,,,,,,,,0,0,0,0,0,0,0,0,2,0,2,0,,,,,,,,,,,,,,,,,,,,,,,,,,,,,,,,,,,,,,,,,,,,,,,,,,,,,,,,,,,,,,,,30,,,,,,,,288.76161429984495,288.76161429984495,288.76161429984495,288.76161429984495,288.76161429984495,down,2.3112328997813165,0,0,0,99,-0.16,-0.24,down,2.2281456999480724,,,,,,,,,,,,,,,,,,,,,,,,,,,,,,,,,,,,,,,,,,,,,,,,,,,,,,,,,,,,VZEEM3,train_y,blue_star,top_left,2025-02-17_16h04.54.564,HideSeek_v1,2022.2.5,60.46501211678796,
,0,5,0,1,0,-4,65,,train_dim1_1,1,30,,,,2,0,2,0,,,,,,,,,0,0,0,0,0,0,0,0,3,0,3,0,,,,,,,,,,,,,,,,,,,,,,,,,,,,,,,,,,,,,,,,,,,,,,,,,,,,,,,,,,,,,,,,30,,,,,,,,291.07997239986435,291.07997239986435,291.07997239986435,291.07997239986435,291.07997239986435,down,5.2137455004267395,0,0,0,99,-0.16,-0.32,down,5.1423696000128984,,,,,,,,,,,,,,,,,,,,,,,,,,,,,,,,,,,,,,,,,,,,,,,,,,,,,,,,,,,,VZEEM3,train_y,blue_star,top_left,2025-02-17_16h04.54.564,HideSeek_v1,2022.2.5,60.46501211678796,
,0,5,0,1,0,-4,65,,train_dim1_1,1,30,,,,2,0,2,0,,,,,,,,,0,0,0,0,0,0,0,0,4,0,4,0,,,,,,,,,,,,,,,,,,,,,,,,,,,,,,,,,,,,,,,,,,,,,,,,,,,,,,,,,,,,,,,,30,,,,,,,,296.3015402001329,296.3015402001329,296.3015402001329,296.3015402001329,296.3015402001329,right,3.779534799978137,0,0,0,99,-0.08,-0.32,right,3.706688199657947,,,,,,,,,,,,,,,,,,,,,,,,,,,,,,,,,,,,,,,,,,,,,,,,,,,,,,,,,,,,VZEEM3,train_y,blue_star,top_left,2025-02-17_16h04.54.564,HideSeek_v1,2022.2.5,60.46501211678796,
,0,5,0,1,0,-4,65,,train_dim1_1,1,30,,,,2,0,2,0,,,,,,,,,0,0,0,0,0,0,0,0,5,0,5,0,,,,,,,,,,,,,,,,,,,,,,,,,,,,,,,,,,,,,,,,,,,,,,,,,,,,,,,,,,,,,,,,30,,,,,,,,300.08815199974924,300.08815199974924,300.08815199974924,300.08815199974924,300.08815199974924,right,0.4091501999646425,0,0,0,99,0.0,-0.32,right,0.32693309988826513,,,,,,,,,,,,,,,,,,,,,,,,,,,,,,,,,,,,,,,,,,,,,,,,,,,,,,,,,,,,VZEEM3,train_y,blue_star,top_left,2025-02-17_16h04.54.564,HideSeek_v1,2022.2.5,60.46501211678796,
,0,5,0,1,0,-4,65,,train_dim1_1,1,30,,,,2,0,2,0,,,,,,,,,0,0,0,0,0,0,0,0,6,0,6,0,,,,,,,,,,,,,,,,,,,,,,,,,,,,,,,,,,,,,,,,,,,,,,,,,,,,,,,,,,,,,,,,30,,,,,,,,300.504747599829,300.504747599829,300.504747599829,300.504747599829,300.504747599829,right,0.30984089989215136,0,0,0,99,0.08,-0.32,right,0.22455869987607002,,,,,,,,,,,,,,,,,,,,,,,,,,,,,,,,,,,,,,,,,,,,,,,,,,,,,,,,,,,,VZEEM3,train_y,blue_star,top_left,2025-02-17_16h04.54.564,HideSeek_v1,2022.2.5,60.46501211678796,
,0,5,0,1,0,-4,65,,train_dim1_1,1,30,,,,2,0,2,0,,,,,,,,,0,0,0,0,0,0,0,0,7,0,7,0,,,,,,,,,,,,,,,,,,,,,,,,,,,,,,,,,,,,,,,,,,,,,,,,,,,,,,,,,,,,,,,,30,,,,,,,,300.8228822997771,300.8228822997771,300.8228822997771,300.8228822997771,300.8228822997771,right,0.2762687001377344,0,0,0,99,0.16,-0.32,right,0.19824800034984946,,,,,,,,,,,,,,,,,,,,,,,,,,,,,,,,,,,,,,,,,,,,,,,,,,,,,,,,,,,,VZEEM3,train_y,blue_star,top_left,2025-02-17_16h04.54.564,HideSeek_v1,2022.2.5,60.46501211678796,
,0,5,0,1,0,-4,65,,train_dim1_1,1,30,,,,2,0,2,0,,,,,,,,,0,0,0,0,0,0,0,0,8,0,8,0,,,,,,,,,,,,,,,,,,,,,,,,,,,,,,,,,,,,,,,,,,,,,,,,,,,,,,,,,,,,,,,,30,,,,,,,,301.1054059001617,301.1054059001617,301.1054059001617,301.1054059001617,301.1054059001617,up,1.143536000046879,0,0,0,99,0.16,-0.24,up,1.0680296998471022,,,,,,,,,,,,,,,,,,,,,,,,,,,,,,,,,,,,,,,,,,,,,,,,,,,,,,,,,,,,VZEEM3,train_y,blue_star,top_left,2025-02-17_16h04.54.564,HideSeek_v1,2022.2.5,60.46501211678796,
,0,5,0,1,0,-4,65,,train_dim1_1,1,30,,,,2,0,2,0,,,,,,,,,0,0,0,0,0,0,0,0,9,0,9,0,,,,,,,,,,,,,,,,,,,,,,,,,,,,,,,,,,,,,,,,,,,,,,,,,,,,,,,,,,,,,,,,30,,,,,,,,302.2569777998142,302.2569777998142,302.2569777998142,302.2569777998142,302.2569777998142,up,0.7756845001131296,0,0,0,99,0.16,-0.15999999999999998,up,0.6935323998332024,,,,,,,,,,,,,,,,,,,,,,,,,,,,,,,,,,,,,,,,,,,,,,,,,,,,,,,,,,,,VZEEM3,train_y,blue_star,top_left,2025-02-17_16h04.54.564,HideSeek_v1,2022.2.5,60.46501211678796,
,0,5,0,1,0,-4,65,,train_dim1_1,1,30,,,,2,0,2,0,,,,,,,,,0,0,0,0,0,0,0,0,10,0,10,0,,,,,,,,,,,,,,,,,,,,,,,,,,,,,,,,,,,,,,,,,,,,,,,,,,,,,,,,,,,,,,,,30,,,,,,,,303.0423499997705,303.0423499997705,303.0423499997705,303.0423499997705,303.0423499997705,up,0.29815779998898506,0,0,0,99,0.16,-0.07999999999999997,up,0.22335259988904,,,,,,,,,,,,,,,,,,,,,,,,,,,,,,,,,,,,,,,,,,,,,,,,,,,,,,,,,,,,VZEEM3,train_y,blue_star,top_left,2025-02-17_16h04.54.564,HideSeek_v1,2022.2.5,60.46501211678796,
,0,5,0,1,0,-4,65,,train_dim1_1,1,30,,,,2,0,2,0,,,,,,,,,0,0,0,0,0,0,0,0,11,0,11,0,,,,,,,,,,,,,,,,,,,,,,,,,,,,,,,,,,,,,,,,,,,,,,,,,,,,,,,,,,,,,,,,30,,,,,,,,303.34794460004196,303.34794460004196,303.34794460004196,303.34794460004196,303.34794460004196,up,0.5187738002277911,0,0,0,99,0.16,2.7755575615628914e-17,up,0.4414324997924268,,,,,,,,,,,,,,,,,,,,,,,,,,,,,,,,,,,,,,,,,,,,,,,,,,,,,,,,,,,,VZEEM3,train_y,blue_star,top_left,2025-02-17_16h04.54.564,HideSeek_v1,2022.2.5,60.46501211678796,
,0,5,0,1,0,-4,65,,train_dim1_1,1,30,,,,2,0,2,0,,,,,,,,,0,0,0,0,0,0,0,0,12,0,12,0,,,,,,,,,,,,,,,,,,,,,,,,,,,,,,,,,,,,,,,,,,,,,,,,,,,,,,,,,,,,,,,,30,,,,,,,,303.87418260006234,303.87418260006234,303.87418260006234,303.87418260006234,303.87418260006234,right,1.160295800305903,0,0,0,99,0.24,2.7755575615628914e-17,right,1.0880480003543198,,,,,,,,,,,,,,,,,,,,,,,,,,,,,,,,,,,,,,,,,,,,,,,,,,,,,,,,,,,,VZEEM3,train_y,blue_star,top_left,2025-02-17_16h04.54.564,HideSeek_v1,2022.2.5,60.46501211678796,
,0,5,0,1,0,-4,65,,train_dim1_1,1,30,,,,2,0,2,0,,,,,,,,,0,0,0,0,0,0,0,0,13,0,13,0,,,,,,,,,,,,,,,,,,,,,,,,,,,,,,,,,,,,,,,,,,,,,,,,,,,,,,,,,,,,,,,,30,,,,,,,,305.0422092000954,305.0422092000954,305.0422092000954,305.0422092000954,305.0422092000954,return,1.527182100340724,0,0,0,0,0.24,2.7755575615628914e-17,return,1.4427037998102605,0,5,0.24,2.7755575615628914e-17,,,,,,,,,,,,,,,,,,,,,,,,,,,,,,,,,,,,,,,,,,,,,,,,,,,,,,,,VZEEM3,train_y,blue_star,top_left,2025-02-17_16h04.54.564,HideSeek_v1,2022.2.5,60.46501211678796,
,3,7,3,2,0,-5,66,,train_dim1_1,2,30,,,,2,0,2,0,,,,,,,,,0,0,0,0,0,1,1,1,0,0,0,0,,,,,,,,,,,,,,,,,,,,,,,,,stimuli/alien_stimuli/66.png,,,,,,,,,,,,,,,,,,,,,,,,,,,,,stimuli/alien_stimuli/65.png,65,0,3,,,,,,,30,,,,,,,,330.2844746001065,330.2844746001065,330.2844746001065,330.2844746001065,330.2844746001065,right,4.791914099827409,0,0,0,99,0.16,0.16,right,4.688522200100124,,,,,328.71570379985496,330.2844746001065,-0.16,-0.32,0.32,0.0,-0.16,-0.16,-0.16,-0.16,-0.32,308.14601649995893,308.14601649995893,308.14601649995893,308.14601649995893,308.14601649995893,308.14601649995893,308.14601649995893,308.14601649995893,308.13189150975086,20.68612729990855,return,20.541670999955386,,,,,,,,,,,,,,,,,,,,,,,,,,,,,,,,,VZEEM3,train_y,blue_star,top_left,2025-02-17_16h04.54.564,HideSeek_v1,2022.2.5,60.46501211678796,
,3,7,3,2,0,-5,66,,train_dim1_1,2,30,,,,2,0,2,0,,,,,,,,,0,0,0,0,0,1,1,1,1,0,1,0,,,,,,,,,,,,,,,,,,,,,,,,,,,,,,,,,,,,,,,,,,,,,,,,,,,,,,,,,,,,,,,,30,,,,,,,,335.0687997001223,335.0687997001223,335.0687997001223,335.0687997001223,335.0687997001223,right,0.9432430998422205,0,0,0,99,0.24,0.16,right,0.8610636000521481,,,,,,,,,,,,,,,,,,,,,,,,,,,,,,,,,,,,,,,,,,,,,,,,,,,,,,,,,,,,VZEEM3,train_y,blue_star,top_left,2025-02-17_16h04.54.564,HideSeek_v1,2022.2.5,60.46501211678796,
,3,7,3,2,0,-5,66,,train_dim1_1,2,30,,,,2,0,2,0,,,,,,,,,0,0,0,0,0,1,1,1,2,0,2,0,,,,,,,,,,,,,,,,,,,,,,,,,,,,,,,,,,,,,,,,,,,,,,,,,,,,,,,,,,,,,,,,30,,,,,,,,336.01790140010417,336.01790140010417,336.01790140010417,336.01790140010417,336.01790140010417,right,0.9098430001176894,0,0,0,99,0.32,0.16,right,0.823101400397718,,,,,,,,,,,,,,,,,,,,,,,,,,,,,,,,,,,,,,,,,,,,,,,,,,,,,,,,,,,,VZEEM3,train_y,blue_star,top_left,2025-02-17_16h04.54.564,HideSeek_v1,2022.2.5,60.46501211678796,
,3,7,3,2,0,-5,66,,train_dim1_1,2,30,,,,2,0,2,0,,,,,,,,,0,0,0,0,0,1,1,1,3,0,3,0,,,,,,,,,,,,,,,,,,,,,,,,,,,,,,,,,,,,,,,,,,,,,,,,,,,,,,,,,,,,,,,,30,,,,,,,,336.9347239998169,336.9347239998169,336.9347239998169,336.9347239998169,336.9347239998169,right,1.0272317002527416,0,0,0,99,0.4,0.16,right,0.9403775003738701,,,,,,,,,,,,,,,,,,,,,,,,,,,,,,,,,,,,,,,,,,,,,,,,,,,,,,,,,,,,VZEEM3,train_y,blue_star,top_left,2025-02-17_16h04.54.564,HideSeek_v1,2022.2.5,60.46501211678796,
,3,7,3,2,0,-5,66,,train_dim1_1,2,30,,,,2,0,2,0,,,,,,,,,0,0,0,0,0,1,1,1,4,0,4,0,,,,,,,,,,,,,,,,,,,,,,,,,,,,,,,,,,,,,,,,,,,,,,,,,,,,,,,,,,,,,,,,30,,,,,,,,337.9689620998688,337.9689620998688,337.9689620998688,337.9689620998688,337.9689620998688,right,1.610852099955082,0,0,0,99,0.48000000000000004,0.16,right,1.5286932000890374,,,,,,,,,,,,,,,,,,,,,,,,,,,,,,,,,,,,,,,,,,,,,,,,,,,,,,,,,,,,VZEEM3,train_y,blue_star,top_left,2025-02-17_16h04.54.564,HideSeek_v1,2022.2.5,60.46501211678796,
,3,7,3,2,0,-5,66,,train_dim1_1,2,30,,,,2,0,2,0,,,,,,,,,0,0,0,0,0,1,1,1,5,0,5,0,,,,,,,,,,,,,,,,,,,,,,,,,,,,,,,,,,,,,,,,,,,,,,,,,,,,,,,,,,,,,,,,30,,,,,,,,339.58749129995704,339.58749129995704,339.58749129995704,339.58749129995704,339.58749129995704,left,1.4272842998616397,0,0,0,99,0.4,0.16,left,1.3560203001834452,,,,,,,,,,,,,,,,,,,,,,,,,,,,,,,,,,,,,,,,,,,,,,,,,,,,,,,,,,,,VZEEM3,train_y,blue_star,top_left,2025-02-17_16h04.54.564,HideSeek_v1,2022.2.5,60.46501211678796,
,3,7,3,2,0,-5,66,,train_dim1_1,2,30,,,,2,0,2,0,,,,,,,,,0,0,0,0,0,1,1,1,6,0,6,0,,,,,,,,,,,,,,,,,,,,,,,,,,,,,,,,,,,,,,,,,,,,,,,,,,,,,,,,,,,,,,,,30,,,,,,,,341.0227568000555,341.0227568000555,341.0227568000555,341.0227568000555,341.0227568000555,return,5.380106499884278,0,0,0,0,0.4,0.16,return,5.292721899691969,0,9,0.4,0.16,,,,,,,,,,,,,,,,,,,,,,,,,,,,,,,,,,,,,,,,,,,,,,,,,,,,,,,,VZEEM3,train_y,blue_star,top_left,2025-02-17_16h04.54.564,HideSeek_v1,2022.2.5,60.46501211678796,
,2,8,2,5,0,-3,64,,train_dim1_1,3,30,,,,2,0,2,0,,,,,,,,,0,0,0,0,0,2,2,2,0,0,0,0,,,,,,,,,,,,,,,,,,,,,,,,,stimuli/alien_stimuli/64.png,,,,,,,,,,,,,,,,,,,,,,,,,,,,,stimuli/alien_stimuli/66.png,66,3,4,,,,,,,30,,,,,,,,354.6228423998691,354.6228423998691,354.6228423998691,354.6228423998691,354.6228423998691,down,4.791957600042224,0,0,0,99,0,0.15999999999999998,down,4.713974599726498,,,,,353.06923120003194,354.6228423998691,0.08,-0.24,0.4,0.0,-0.039999999999999994,0.08,0.08,0.08,-0.24,347.9716480001807,347.9716480001807,347.9716480001807,347.9716480001807,347.9716480001807,347.9716480001807,347.9716480001807,347.9716480001807,347.96511741005816,5.206902000121772,return,5.078004499897361,,,,,,,,,,,,,,,,,,,,,,,,,,,,,,,,,VZEEM3,train_y,blue_star,top_left,2025-02-17_16h04.54.564,HideSeek_v1,2022.2.5,60.46501211678796,
,2,8,2,5,0,-3,64,,train_dim1_1,3,30,,,,2,0,2,0,,,,,,,,,0,0,0,0,0,2,2,2,1,0,1,0,,,,,,,,,,,,,,,,,,,,,,,,,,,,,,,,,,,,,,,,,,,,,,,,,,,,,,,,,,,,,,,,30,,,,,,,,359.42174059990793,359.42174059990793,359.42174059990793,359.42174059990793,359.42174059990793,down,0.8092661998234689,0,0,0,99,0,0.07999999999999997,down,0.7322093001566827,,,,,,,,,,,,,,,,,,,,,,,,,,,,,,,,,,,,,,,,,,,,,,,,,,,,,,,,,,,,VZEEM3,train_y,blue_star,top_left,2025-02-17_16h04.54.564,HideSeek_v1,2022.2.5,60.46501211678796,
,2,8,2,5,0,-3,64,,train_dim1_1,3,30,,,,2,0,2,0,,,,,,,,,0,0,0,0,0,2,2,2,2,0,2,0,,,,,,,,,,,,,,,,,,,,,,,,,,,,,,,,,,,,,,,,,,,,,,,,,,,,,,,,,,,,,,,,30,,,,,,,,360.24344900017604,360.24344900017604,360.24344900017604,360.24344900017604,360.24344900017604,down,1.1394472001120448,0,0,0,99,0,-2.7755575615628914e-17,down,1.061361299827695,,,,,,,,,,,,,,,,,,,,,,,,,,,,,,,,,,,,,,,,,,,,,,,,,,,,,,,,,,,,VZEEM3,train_y,blue_star,top_left,2025-02-17_16h04.54.564,HideSeek_v1,2022.2.5,60.46501211678796,
,2,8,2,5,0,-3,64,,train_dim1_1,3,30,,,,2,0,2,0,,,,,,,,,0,0,0,0,0,2,2,2,3,0,3,0,,,,,,,,,,,,,,,,,,,,,,,,,,,,,,,,,,,,,,,,,,,,,,,,,,,,,,,,,,,,,,,,30,,,,,,,,361.3884140998125,361.3884140998125,361.3884140998125,361.3884140998125,361.3884140998125,up,2.294213999994099,0,0,0,99,0,0.07999999999999997,up,2.2168419999070466,,,,,,,,,,,,,,,,,,,,,,,,,,,,,,,,,,,,,,,,,,,,,,,,,,,,,,,,,,,,VZEEM3,train_y,blue_star,top_left,2025-02-17_16h04.54.564,HideSeek_v1,2022.2.5,60.46501211678796,
,2,8,2,5,0,-3,64,,train_dim1_1,3,30,,,,2,0,2,0,,,,,,,,,0,0,0,0,0,2,2,2,4,0,4,0,,,,,,,,,,,,,,,,,,,,,,,,,,,,,,,,,,,,,,,,,,,,,,,,,,,,,,,,,,,,,,,,30,,,,,,,,363.69122189981863,363.69122189981863,363.69122189981863,363.69122189981863,363.69122189981863,up,0.3594357003457844,0,0,0,99,0,0.15999999999999998,up,0.2798524000681937,,,,,,,,,,,,,,,,,,,,,,,,,,,,,,,,,,,,,,,,,,,,,,,,,,,,,,,,,,,,VZEEM3,train_y,blue_star,top_left,2025-02-17_16h04.54.564,HideSeek_v1,2022.2.5,60.46501211678796,
,2,8,2,5,0,-3,64,,train_dim1_1,3,30,,,,2,0,2,0,,,,,,,,,0,0,0,0,0,2,2,2,5,0,5,0,,,,,,,,,,,,,,,,,,,,,,,,,,,,,,,,,,,,,,,,,,,,,,,,,,,,,,,,,,,,,,,,30,,,,,,,,364.05718360003084,364.05718360003084,364.05718360003084,364.05718360003084,364.05718360003084,up,1.2103206999599934,0,0,0,99,0,0.24,up,1.1377594997175038,,,,,,,,,,,,,,,,,,,,,,,,,,,,,,,,,,,,,,,,,,,,,,,,,,,,,,,,,,,,VZEEM3,train_y,blue_star,top_left,2025-02-17_16h04.54.564,HideSeek_v1,2022.2.5,60.46501211678796,
,2,8,2,5,0,-3,64,,train_dim1_1,3,30,,,,2,0,2,0,,,,,,,,,0,0,0,0,0,2,2,2,6,0,6,0,,,,,,,,,,,,,,,,,,,,,,,,,,,,,,,,,,,,,,,,,,,,,,,,,,,,,,,,,,,,,,,,30,,,,,,,,365.2748460001312,365.2748460001312,365.2748460001312,365.2748460001312,365.2748460001312,right,1.7604908999055624,0,0,0,99,0.08,0.24,right,1.6785686002112925,,,,,,,,,,,,,,,,,,,,,,,,,,,,,,,,,,,,,,,,,,,,,,,,,,,,,,,,,,,,VZEEM3,train_y,blue_star,top_left,2025-02-17_16h04.54.564,HideSeek_v1,2022.2.5,60.46501211678796,
,2,8,2,5,0,-3,64,,train_dim1_1,3,30,,,,2,0,2,0,,,,,,,,,0,0,0,0,0,2,2,2,7,0,7,0,,,,,,,,,,,,,,,,,,,,,,,,,,,,,,,,,,,,,,,,,,,,,,,,,,,,,,,,,,,,,,,,30,,,,,,,,367.0429321997799,367.0429321997799,367.0429321997799,367.0429321997799,367.0429321997799,right,2.261473899707198,0,0,0,99,0.16,0.24,right,2.1853334000334144,,,,,,,,,,,,,,,,,,,,,,,,,,,,,,,,,,,,,,,,,,,,,,,,,,,,,,,,,,,,VZEEM3,train_y,blue_star,top_left,2025-02-17_16h04.54.564,HideSeek_v1,2022.2.5,60.46501211678796,
,2,8,2,5,0,-3,64,,train_dim1_1,3,30,,,,2,0,2,0,,,,,,,,,0,0,0,0,0,2,2,2,8,0,8,0,,,,,,,,,,,,,,,,,,,,,,,,,,,,,,,,,,,,,,,,,,,,,,,,,,,,,,,,,,,,,,,,30,,,,,,,,369.31180729996413,369.31180729996413,369.31180729996413,369.31180729996413,369.31180729996413,right,0.9602401996962726,0,0,0,99,0.24,0.24,right,0.8727714000269771,,,,,,,,,,,,,,,,,,,,,,,,,,,,,,,,,,,,,,,,,,,,,,,,,,,,,,,,,,,,VZEEM3,train_y,blue_star,top_left,2025-02-17_16h04.54.564,HideSeek_v1,2022.2.5,60.46501211678796,
,2,8,2,5,0,-3,64,,train_dim1_1,3,30,,,,2,0,2,0,,,,,,,,,0,0,0,0,0,2,2,2,9,0,9,0,,,,,,,,,,,,,,,,,,,,,,,,,,,,,,,,,,,,,,,,,,,,,,,,,,,,,,,,,,,,,,,,30,,,,,,,,370.2791420998983,370.2791420998983,370.2791420998983,370.2791420998983,370.2791420998983,right,1.5106231002137065,0,0,0,99,0.32,0.24,right,1.4387056999839842,,,,,,,,,,,,,,,,,,,,,,,,,,,,,,,,,,,,,,,,,,,,,,,,,,,,,,,,,,,,VZEEM3,train_y,blue_star,top_left,2025-02-17_16h04.54.564,HideSeek_v1,2022.2.5,60.46501211678796,
,2,8,2,5,0,-3,64,,train_dim1_1,3,30,,,,2,0,2,0,,,,,,,,,0,0,0,0,0,2,2,2,10,0,10,0,,,,,,,,,,,,,,,,,,,,,,,,,,,,,,,,,,,,,,,,,,,,,,,,,,,,,,,,,,,,,,,,30,,,,,,,,371.7966082999483,371.7966082999483,371.7966082999483,371.7966082999483,371.7966082999483,right,1.3771059000864625,0,0,0,99,0.4,0.24,right,1.294877499807626,,,,,,,,,,,,,,,,,,,,,,,,,,,,,,,,,,,,,,,,,,,,,,,,,,,,,,,,,,,,VZEEM3,train_y,blue_star,top_left,2025-02-17_16h04.54.564,HideSeek_v1,2022.2.5,60.46501211678796,
,2,8,2,5,0,-3,64,,train_dim1_1,3,30,,,,2,0,2,0,,,,,,,,,0,0,0,0,0,2,2,2,11,0,11,0,,,,,,,,,,,,,,,,,,,,,,,,,,,,,,,,,,,,,,,,,,,,,,,,,,,,,,,,,,,,,,,,30,,,,,,,,373.18213689979166,373.18213689979166,373.18213689979166,373.18213689979166,373.18213689979166,return,1.6440329002216458,0,0,0,0,0.4,0.24,return,1.5561071000993252,0,14,0.4,0.24,,,,,,,,,,,,,,,,,,,,,,,,,,,,,,,,,,,,,,,,,,,,,,,,,,,,,,,,VZEEM3,train_y,blue_star,top_left,2025-02-17_16h04.54.564,HideSeek_v1,2022.2.5,60.46501211678796,
,0,6,0,5,0,-1,62,,train_dim1_1,4,30,,,,2,0,2,0,,,,,,,,,0,0,0,0,0,3,3,3,0,0,0,0,,,,,,,,,,,,,,,,,,,,,,,,,stimuli/alien_stimuli/62.png,,,,,,,,,,,,,,,,,,,,,,,,,,,,,stimuli/alien_stimuli/64.png,64,2,5,,,,,,,30,,,,,,,,392.56222769990563,392.56222769990563,392.56222769990563,392.56222769990563,392.56222769990563,down,5.376900100149214,0,0,0,99,-0.16,0.0,down,5.292272599879652,,,,,391.0011582998559,392.56222769990563,0,0,0.24,0.0,0.12,0,0.0,0,0,376.3955012001097,376.3955012001097,376.3955012001097,376.3955012001097,376.3955012001097,376.3955012001097,376.3955012001097,376.3955012001097,376.38871321012266,14.71478939987719,return,14.588281999807805,,,,,,,,,,,,,,,,,,,,,,,,,,,,,,,,,VZEEM3,train_y,blue_star,top_left,2025-02-17_16h04.54.564,HideSeek_v1,2022.2.5,60.46501211678796,
,0,6,0,5,0,-1,62,,train_dim1_1,4,30,,,,2,0,2,0,,,,,,,,,0,0,0,0,0,3,3,3,1,0,1,0,,,,,,,,,,,,,,,,,,,,,,,,,,,,,,,,,,,,,,,,,,,,,,,,,,,,,,,,,,,,,,,,30,,,,,,,,397.9393433998339,397.9393433998339,397.9393433998339,397.9393433998339,397.9393433998339,down,0.5911091999150813,0,0,0,99,-0.16,-0.08,down,0.5089806001633406,,,,,,,,,,,,,,,,,,,,,,,,,,,,,,,,,,,,,,,,,,,,,,,,,,,,,,,,,,,,VZEEM3,train_y,blue_star,top_left,2025-02-17_16h04.54.564,HideSeek_v1,2022.2.5,60.46501211678796,
,0,6,0,5,0,-1,62,,train_dim1_1,4,30,,,,2,0,2,0,,,,,,,,,0,0,0,0,0,3,3,3,2,0,2,0,,,,,,,,,,,,,,,,,,,,,,,,,,,,,,,,,,,,,,,,,,,,,,,,,,,,,,,,,,,,,,,,30,,,,,,,,398.5367898000404,398.5367898000404,398.5367898000404,398.5367898000404,398.5367898000404,return,3.3956860997714102,0,1,0,0,-0.16,-0.08,return,3.3185450001619756,-2,14,-0.16,-0.08,,,,,,,,,,,,,,,,,,,,,,,,,,,,,,,,,,,,,,,,,,,,,,,,,,,,,,,,VZEEM3,train_y,blue_star,top_left,2025-02-17_16h04.54.564,HideSeek_v1,2022.2.5,60.46501211678796,
,3,8,3,8,0,0,61,,train_dim1_1,5,30,,,,2,0,2,0,,,,,,,,,0,0,0,0,0,4,4,4,0,0,0,0,,,,,,,,,,,,,,,,,,,,,,,,,stimuli/alien_stimuli/61.png,,,,,,,,,,,,,,,,,,,,,,,,,,,,,stimuli/alien_stimuli/62.png,62,0,6,,,,,,,30,,,,,,,,421.1079396000132,421.1079396000132,421.1079396000132,421.1079396000132,421.1079396000132,down,2.7236147997900844,0,1,0,99,0.08,0.15999999999999998,down,2.630164799746126,,,,,419.54112339997664,421.1079396000132,-0.16,0,0.08,0.0,0.04,-0.16,-0.16,-0.16,0,403.50269179977477,403.50269179977477,403.50269179977477,403.50269179977477,403.50269179977477,403.50269179977477,403.50269179977477,403.50269179977477,403.49458661000244,16.148789500351995,return,16.018351499922574,,,,,,,,,,,,,,,,,,,,,,,,,,,,,,,,,VZEEM3,train_y,blue_star,top_left,2025-02-17_16h04.54.564,HideSeek_v1,2022.2.5,60.46501211678796,
,3,8,3,8,0,0,61,,train_dim1_1,5,30,,,,2,0,2,0,,,,,,,,,0,0,0,0,0,4,4,4,1,0,1,0,,,,,,,,,,,,,,,,,,,,,,,,,,,,,,,,,,,,,,,,,,,,,,,,,,,,,,,,,,,,,,,,30,,,,,,,,423.82557919993997,423.82557919993997,423.82557919993997,423.82557919993997,423.82557919993997,down,1.4431971996091306,0,1,0,99,0.08,0.07999999999999997,down,1.3574846996925771,,,,,,,,,,,,,,,,,,,,,,,,,,,,,,,,,,,,,,,,,,,,,,,,,,,,,,,,,,,,VZEEM3,train_y,blue_star,top_left,2025-02-17_16h04.54.564,HideSeek_v1,2022.2.5,60.46501211678796,
,3,8,3,8,0,0,61,,train_dim1_1,5,30,,,,2,0,2,0,,,,,,,,,0,0,0,0,0,4,4,4,2,0,2,0,,,,,,,,,,,,,,,,,,,,,,,,,,,,,,,,,,,,,,,,,,,,,,,,,,,,,,,,,,,,,,,,30,,,,,,,,425.2756054997444,425.2756054997444,425.2756054997444,425.2756054997444,425.2756054997444,down,3.979616400320083,0,1,0,99,0.08,-2.7755575615628914e-17,down,3.9019190999679267,,,,,,,,,,,,,,,,,,,,,,,,,,,,,,,,,,,,,,,,,,,,,,,,,,,,,,,,,,,,VZEEM3,train_y,blue_star,top_left,2025-02-17_16h04.54.564,HideSeek_v1,2022.2.5,60.46501211678796,
,3,8,3,8,0,0,61,,train_dim1_1,5,30,,,,2,0,2,0,,,,,,,,,0,0,0,0,0,4,4,4,3,0,3,0,,,,,,,,,,,,,,,,,,,,,,,,,,,,,,,,,,,,,,,,,,,,,,,,,,,,,,,,,,,,,,,,30,,,,,,,,429.26317579997703,429.26317579997703,429.26317579997703,429.26317579997703,429.26317579997703,return,0.6761264000087976,0,0,0,0,0.08,-2.7755575615628914e-17,return,0.596161600202322,-5,14,0.08,-2.7755575615628914e-17,,,,,,,,,,,,,,,,,,,,,,,,,,,,,,,,,,,,,,,,,,,,,,,,,,,,,,,,VZEEM3,train_y,blue_star,top_left,2025-02-17_16h04.54.564,HideSeek_v1,2022.2.5,60.46501211678796,
,1,9,1,8,0,-1,62,,train_dim1_1,6,30,,,,2,0,2,0,,,,,,,,,0,0,0,0,0,5,5,5,0,0,0,0,,,,,,,,,,,,,,,,,,,,,,,,,stimuli/alien_stimuli/62.png,,,,,,,,,,,,,,,,,,,,,,,,,,,,,stimuli/alien_stimuli/61.png,61,3,7,,,,,,,30,,,,,,,,437.9922032998875,437.9922032998875,437.9922032998875,437.9922032998875,437.9922032998875,down,4.374419100116938,0,0,0,99,-0.08,0.24,down,4.288788499776274,,,,,436.4383629998192,437.9922032998875,0.08,0.24,0.0,0.0,0.24,0.08,0.08,0.08,0.24,431.50656219990924,431.50656219990924,431.50656219990924,431.50656219990924,431.50656219990924,431.50656219990924,431.50656219990924,431.50656219990924,431.50078270980157,5.040158800315112,return,4.902255799621344,,,,,,,,,,,,,,,,,,,,,,,,,,,,,,,,,VZEEM3,train_y,blue_star,top_left,2025-02-17_16h04.54.564,HideSeek_v1,2022.2.5,60.46501211678796,
,1,9,1,8,0,-1,62,,train_dim1_1,6,30,,,,2,0,2,0,,,,,,,,,0,0,0,0,0,5,5,5,1,0,1,0,,,,,,,,,,,,,,,,,,,,,,,,,,,,,,,,,,,,,,,,,,,,,,,,,,,,,,,,,,,,,,,,30,,,,,,,,442.37331889988855,442.37331889988855,442.37331889988855,442.37331889988855,442.37331889988855,down,2.6616634000092745,0,0,0,99,-0.08,0.15999999999999998,down,2.5786068001762033,,,,,,,,,,,,,,,,,,,,,,,,,,,,,,,,,,,,,,,,,,,,,,,,,,,,,,,,,,,,VZEEM3,train_y,blue_star,top_left,2025-02-17_16h04.54.564,HideSeek_v1,2022.2.5,60.46501211678796,
,1,9,1,8,0,-1,62,,train_dim1_1,6,30,,,,2,0,2,0,,,,,,,,,0,0,0,0,0,5,5,5,2,0,2,0,,,,,,,,,,,,,,,,,,,,,,,,,,,,,,,,,,,,,,,,,,,,,,,,,,,,,,,,,,,,,,,,30,,,,,,,,445.04232280002907,445.04232280002907,445.04232280002907,445.04232280002907,445.04232280002907,return,5.94732809998095,0,1,0,0,-0.08,0.15999999999999998,return,5.872985700145364,-7,14,-0.08,0.15999999999999998,,,,,,,,,,,,,,,,,,,,,,,,,,,,,,,,,,,,,,,,,,,,,,,,,,,,,,,,VZEEM3,train_y,blue_star,top_left,2025-02-17_16h04.54.564,HideSeek_v1,2022.2.5,60.46501211678796,
,1,8,1,5,0,-3,64,,train_dim1_1,7,30,,,,2,0,2,0,,,,,,,,,0,0,0,0,0,6,6,6,0,0,0,0,,,,,,,,,,,,,,,,,,,,,,,,,stimuli/alien_stimuli/64.png,,,,,,,,,,,,,,,,,,,,,,,,,,,,,stimuli/alien_stimuli/62.png,62,1,8,,,,,,,30,,,,,,,,473.3719807998277,473.3719807998277,473.3719807998277,473.3719807998277,473.3719807998277,down,4.2251208000816405,0,1,0,99,-0.08,0.15999999999999998,down,4.132600299548358,,,,,471.80089600011706,473.3719807998277,-0.08,0.24,0.08,0.0,0.28,-0.08,-0.08,-0.08,0.24,452.5624319999479,452.5624319999479,452.5624319999479,452.5624319999479,452.5624319999479,452.5624319999479,452.5624319999479,452.5624319999479,452.5517215097789,19.351300900336355,return,19.20985999982804,,,,,,,,,,,,,,,,,,,,,,,,,,,,,,,,,VZEEM3,train_y,blue_star,top_left,2025-02-17_16h04.54.564,HideSeek_v1,2022.2.5,60.46501211678796,
,1,8,1,5,0,-3,64,,train_dim1_1,7,30,,,,2,0,2,0,,,,,,,,,0,0,0,0,0,6,6,6,1,0,1,0,,,,,,,,,,,,,,,,,,,,,,,,,,,,,,,,,,,,,,,,,,,,,,,,,,,,,,,,,,,,,,,,30,,,,,,,,477.58623570017517,477.58623570017517,477.58623570017517,477.58623570017517,477.58623570017517,down,0.7426342000253499,0,1,0,99,-0.08,0.07999999999999997,down,0.6557808998040855,,,,,,,,,,,,,,,,,,,,,,,,,,,,,,,,,,,,,,,,,,,,,,,,,,,,,,,,,,,,VZEEM3,train_y,blue_star,top_left,2025-02-17_16h04.54.564,HideSeek_v1,2022.2.5,60.46501211678796,
,1,8,1,5,0,-3,64,,train_dim1_1,7,30,,,,2,0,2,0,,,,,,,,,0,0,0,0,0,6,6,6,2,0,2,0,,,,,,,,,,,,,,,,,,,,,,,,,,,,,,,,,,,,,,,,,,,,,,,,,,,,,,,,,,,,,,,,30,,,,,,,,478.3354853000492,478.3354853000492,478.3354853000492,478.3354853000492,478.3354853000492,down,0.6600807998329401,0,1,0,99,-0.08,-2.7755575615628914e-17,down,0.5864265998825431,,,,,,,,,,,,,,,,,,,,,,,,,,,,,,,,,,,,,,,,,,,,,,,,,,,,,,,,,,,,VZEEM3,train_y,blue_star,top_left,2025-02-17_16h04.54.564,HideSeek_v1,2022.2.5,60.46501211678796,
,1,8,1,5,0,-3,64,,train_dim1_1,7,30,,,,2,0,2,0,,,,,,,,,0,0,0,0,0,6,6,6,3,0,3,0,,,,,,,,,,,,,,,,,,,,,,,,,,,,,,,,,,,,,,,,,,,,,,,,,,,,,,,,,,,,,,,,30,,,,,,,,479.003513999749,479.003513999749,479.003513999749,479.003513999749,479.003513999749,down,1.7269854000769556,0,1,0,99,-0.08,-0.08000000000000003,down,1.6534003000706434,,,,,,,,,,,,,,,,,,,,,,,,,,,,,,,,,,,,,,,,,,,,,,,,,,,,,,,,,,,,VZEEM3,train_y,blue_star,top_left,2025-02-17_16h04.54.564,HideSeek_v1,2022.2.5,60.46501211678796,
,1,8,1,5,0,-3,64,,train_dim1_1,7,30,,,,2,0,2,0,,,,,,,,,0,0,0,0,0,6,6,6,4,0,4,0,,,,,,,,,,,,,,,,,,,,,,,,,,,,,,,,,,,,,,,,,,,,,,,,,,,,,,,,,,,,,,,,30,,,,,,,,480.7386492998339,480.7386492998339,480.7386492998339,480.7386492998339,480.7386492998339,down,0.7269331002607942,0,1,0,99,-0.08,-0.16000000000000003,down,0.6535135000012815,,,,,,,,,,,,,,,,,,,,,,,,,,,,,,,,,,,,,,,,,,,,,,,,,,,,,,,,,,,,VZEEM3,train_y,blue_star,top_left,2025-02-17_16h04.54.564,HideSeek_v1,2022.2.5,60.46501211678796,
,1,8,1,5,0,-3,64,,train_dim1_1,7,30,,,,2,0,2,0,,,,,,,,,0,0,0,0,0,6,6,6,5,0,5,0,,,,,,,,,,,,,,,,,,,,,,,,,,,,,,,,,,,,,,,,,,,,,,,,,,,,,,,,,,,,,,,,30,,,,,,,,481.4724277998321,481.4724277998321,481.4724277998321,481.4724277998321,481.4724277998321,return,0.7096636001951993,0,0,0,0,-0.08,-0.16000000000000003,return,0.6225290996953845,-12,14,-0.08,-0.16000000000000003,,,,,,,,,,,,,,,,,,,,,,,,,,,,,,,,,,,,,,,,,,,,,,,,,,,,,,,,VZEEM3,train_y,blue_star,top_left,2025-02-17_16h04.54.564,HideSeek_v1,2022.2.5,60.46501211678796,
,4,7,4,7,0,0,61,,train_dim1_1,8,30,,,,2,0,2,0,,,,,,,,,0,0,0,0,0,7,7,7,0,0,0,0,,,,,,,,,,,,,,,,,,,,,,,,,stimuli/alien_stimuli/61.png,,,,,,,,,,,,,,,,,,,,,,,,,,,,,stimuli/alien_stimuli/64.png,64,1,9,,,,,,,30,,,,,,,,490.96889120014384,490.96889120014384,490.96889120014384,490.96889120014384,490.96889120014384,down,2.556206100154668,0,0,0,99,0.16,0.08,down,2.474365600384772,,,,,489.41582529991865,490.96889120014384,-0.08,0,0.24,0.0,0.12,-0.08,-0.08,-0.08,0,483.75042450008914,483.75042450008914,483.75042450008914,483.75042450008914,483.75042450008914,483.75042450008914,483.75042450008914,483.75042450008914,483.74424780975096,5.773767800070345,return,5.644547499716282,,,,,,,,,,,,,,,,,,,,,,,,,,,,,,,,,VZEEM3,train_y,blue_star,top_left,2025-02-17_16h04.54.564,HideSeek_v1,2022.2.5,60.46501211678796,
,4,7,4,7,0,0,61,,train_dim1_1,8,30,,,,2,0,2,0,,,,,,,,,0,0,0,0,0,7,7,7,1,0,1,0,,,,,,,,,,,,,,,,,,,,,,,,,,,,,,,,,,,,,,,,,,,,,,,,,,,,,,,,,,,,,,,,30,,,,,,,,493.5323208998889,493.5323208998889,493.5323208998889,493.5323208998889,493.5323208998889,down,0.6099115000106394,0,0,0,99,0.16,0.0,down,0.5290120001882315,,,,,,,,,,,,,,,,,,,,,,,,,,,,,,,,,,,,,,,,,,,,,,,,,,,,,,,,,,,,VZEEM3,train_y,blue_star,top_left,2025-02-17_16h04.54.564,HideSeek_v1,2022.2.5,60.46501211678796,
,4,7,4,7,0,0,61,,train_dim1_1,8,30,,,,2,0,2,0,,,,,,,,,0,0,0,0,0,7,7,7,2,0,2,0,,,,,,,,,,,,,,,,,,,,,,,,,,,,,,,,,,,,,,,,,,,,,,,,,,,,,,,,,,,,,,,,30,,,,,,,,494.14960040012375,494.14960040012375,494.14960040012375,494.14960040012375,494.14960040012375,down,2.027660300023854,0,0,0,99,0.16,-0.08,down,1.9450154998339713,,,,,,,,,,,,,,,,,,,,,,,,,,,,,,,,,,,,,,,,,,,,,,,,,,,,,,,,,,,,VZEEM3,train_y,blue_star,top_left,2025-02-17_16h04.54.564,HideSeek_v1,2022.2.5,60.46501211678796,
,4,7,4,7,0,0,61,,train_dim1_1,8,30,,,,2,0,2,0,,,,,,,,,0,0,0,0,0,7,7,7,3,0,3,0,,,,,,,,,,,,,,,,,,,,,,,,,,,,,,,,,,,,,,,,,,,,,,,,,,,,,,,,,,,,,,,,30,,,,,,,,496.1845378000289,496.1845378000289,496.1845378000289,496.1845378000289,496.1845378000289,return,3.328874500002712,0,0,0,0,0.16,-0.08,return,3.245965899899602,-15,14,0.16,-0.08,,,,,,,,,,,,,,,,,,,,,,,,,,,,,,,,,,,,,,,,,,,,,,,,,,,,,,,,VZEEM3,train_y,blue_star,top_left,2025-02-17_16h04.54.564,HideSeek_v1,2022.2.5,60.46501211678796,
,4,8,4,4,0,-4,65,,train_dim1_1,9,30,,,,2,0,2,0,,,,,,,,,0,0,0,0,0,8,8,8,0,0,0,0,,,,,,,,,,,,,,,,,,,,,,,,,stimuli/alien_stimuli/65.png,,,,,,,,,,,,,,,,,,,,,,,,,,,,,stimuli/alien_stimuli/61.png,61,4,10,,,,,,,30,,,,,,,,506.2123046000488,506.2123046000488,506.2123046000488,506.2123046000488,506.2123046000488,down,2.7582577001303434,0,0,0,99,0.16,0.15999999999999998,down,2.6815454000607133,,,,,504.6616707001813,506.2123046000488,0.16,0.16,0.0,0.0,0.16,0.16,0.16,0.16,0.16,501.0773414997384,501.0773414997384,501.0773414997384,501.0773414997384,501.0773414997384,501.0773414997384,501.0773414997384,501.0773414997384,501.07547430996783,3.688511800020933,return,3.5590733997523785,,,,,,,,,,,,,,,,,,,,,,,,,,,,,,,,,VZEEM3,train_y,blue_star,top_left,2025-02-17_16h04.54.564,HideSeek_v1,2022.2.5,60.46501211678796,
,4,8,4,4,0,-4,65,,train_dim1_1,9,30,,,,2,0,2,0,,,,,,,,,0,0,0,0,0,8,8,8,1,0,1,0,,,,,,,,,,,,,,,,,,,,,,,,,,,,,,,,,,,,,,,,,,,,,,,,,,,,,,,,,,,,,,,,30,,,,,,,,508.9779043998569,508.9779043998569,508.9779043998569,508.9779043998569,508.9779043998569,down,0.7593554998748004,0,0,0,99,0.16,0.07999999999999997,down,0.6841254997998476,,,,,,,,,,,,,,,,,,,,,,,,,,,,,,,,,,,,,,,,,,,,,,,,,,,,,,,,,,,,VZEEM3,train_y,blue_star,top_left,2025-02-17_16h04.54.564,HideSeek_v1,2022.2.5,60.46501211678796,
,4,8,4,4,0,-4,65,,train_dim1_1,9,30,,,,2,0,2,0,,,,,,,,,0,0,0,0,0,8,8,8,2,0,2,0,,,,,,,,,,,,,,,,,,,,,,,,,,,,,,,,,,,,,,,,,,,,,,,,,,,,,,,,,,,,,,,,30,,,,,,,,509.7465280001052,509.7465280001052,509.7465280001052,509.7465280001052,509.7465280001052,down,1.6935689002275467,0,0,0,99,0.16,-2.7755575615628914e-17,down,1.6113329003565013,,,,,,,,,,,,,,,,,,,,,,,,,,,,,,,,,,,,,,,,,,,,,,,,,,,,,,,,,,,,VZEEM3,train_y,blue_star,top_left,2025-02-17_16h04.54.564,HideSeek_v1,2022.2.5,60.46501211678796,
,4,8,4,4,0,-4,65,,train_dim1_1,9,30,,,,2,0,2,0,,,,,,,,,0,0,0,0,0,8,8,8,3,0,3,0,,,,,,,,,,,,,,,,,,,,,,,,,,,,,,,,,,,,,,,,,,,,,,,,,,,,,,,,,,,,,,,,30,,,,,,,,511.4464189000428,511.4464189000428,511.4464189000428,511.4464189000428,511.4464189000428,up,2.228064800146967,0,0,0,99,0.16,0.07999999999999997,up,2.1456774999387562,,,,,,,,,,,,,,,,,,,,,,,,,,,,,,,,,,,,,,,,,,,,,,,,,,,,,,,,,,,,VZEEM3,train_y,blue_star,top_left,2025-02-17_16h04.54.564,HideSeek_v1,2022.2.5,60.46501211678796,
,4,8,4,4,0,-4,65,,train_dim1_1,9,30,,,,2,0,2,0,,,,,,,,,0,0,0,0,0,8,8,8,4,0,4,0,,,,,,,,,,,,,,,,,,,,,,,,,,,,,,,,,,,,,,,,,,,,,,,,,,,,,,,,,,,,,,,,30,,,,,,,,513.6815903000534,513.6815903000534,513.6815903000534,513.6815903000534,513.6815903000534,return,0.8436892000027001,0,0,0,0,0.16,0.07999999999999997,return,0.7710654996335506,-17,14,0.16,0.07999999999999997,,,,,,,,,,,,,,,,,,,,,,,,,,,,,,,,,,,,,,,,,,,,,,,,,,,,,,,,VZEEM3,train_y,blue_star,top_left,2025-02-17_16h04.54.564,HideSeek_v1,2022.2.5,60.46501211678796,
,2,7,2,2,0,-5,66,,train_dim1_1,10,30,,,,2,0,2,0,,,,,,,,,0,0,0,0,0,9,9,9,0,0,0,0,,,,,,,,,,,,,,,,,,,,,,,,,stimuli/alien_stimuli/66.png,,,,,,,,,,,,,,,,,,,,,,,,,,,,,stimuli/alien_stimuli/65.png,65,4,11,,,,,,,30,,,,,,,,528.0320377000608,528.0320377000608,528.0320377000608,528.0320377000608,528.0320377000608,down,2.341326600406319,0,0,0,99,0,0.08,down,2.237380300182849,,,,,526.4630313999951,528.0320377000608,0.16,-0.08,0.32,0.0,0.07999999999999999,0.16,0.16,0.16,-0.08,516.0941242999397,516.0941242999397,516.0941242999397,516.0941242999397,516.0941242999397,516.0941242999397,516.0941242999397,516.0941242999397,516.0879440100398,10.477377200033516,return,10.343750400003046,,,,,,,,,,,,,,,,,,,,,,,,,,,,,,,,,VZEEM3,train_y,blue_star,top_left,2025-02-17_16h04.54.564,HideSeek_v1,2022.2.5,60.46501211678796,
,2,7,2,2,0,-5,66,,train_dim1_1,10,30,,,,2,0,2,0,,,,,,,,,0,0,0,0,0,9,9,9,1,0,1,0,,,,,,,,,,,,,,,,,,,,,,,,,,,,,,,,,,,,,,,,,,,,,,,,,,,,,,,,,,,,,,,,30,,,,,,,,530.3625976000912,530.3625976000912,530.3625976000912,530.3625976000912,530.3625976000912,down,1.1100998003967106,0,0,0,99,0,0.0,down,1.0293756001628935,,,,,,,,,,,,,,,,,,,,,,,,,,,,,,,,,,,,,,,,,,,,,,,,,,,,,,,,,,,,VZEEM3,train_y,blue_star,top_left,2025-02-17_16h04.54.564,HideSeek_v1,2022.2.5,60.46501211678796,
,2,7,2,2,0,-5,66,,train_dim1_1,10,30,,,,2,0,2,0,,,,,,,,,0,0,0,0,0,9,9,9,2,0,2,0,,,,,,,,,,,,,,,,,,,,,,,,,,,,,,,,,,,,,,,,,,,,,,,,,,,,,,,,,,,,,,,,30,,,,,,,,531.4804541999474,531.4804541999474,531.4804541999474,531.4804541999474,531.4804541999474,down,2.0277855000458658,0,0,0,99,0,-0.08,down,1.9538140995427966,,,,,,,,,,,,,,,,,,,,,,,,,,,,,,,,,,,,,,,,,,,,,,,,,,,,,,,,,,,,VZEEM3,train_y,blue_star,top_left,2025-02-17_16h04.54.564,HideSeek_v1,2022.2.5,60.46501211678796,
,2,7,2,2,0,-5,66,,train_dim1_1,10,30,,,,2,0,2,0,,,,,,,,,0,0,0,0,0,9,9,9,3,0,3,0,,,,,,,,,,,,,,,,,,,,,,,,,,,,,,,,,,,,,,,,,,,,,,,,,,,,,,,,,,,,,,,,30,,,,,,,,533.5149970999919,533.5149970999919,533.5149970999919,533.5149970999919,533.5149970999919,down,0.49309290014207363,0,0,0,99,0,-0.16,down,0.41164900036528707,,,,,,,,,,,,,,,,,,,,,,,,,,,,,,,,,,,,,,,,,,,,,,,,,,,,,,,,,,,,VZEEM3,train_y,blue_star,top_left,2025-02-17_16h04.54.564,HideSeek_v1,2022.2.5,60.46501211678796,
,2,7,2,2,0,-5,66,,train_dim1_1,10,30,,,,2,0,2,0,,,,,,,,,0,0,0,0,0,9,9,9,4,0,4,0,,,,,,,,,,,,,,,,,,,,,,,,,,,,,,,,,,,,,,,,,,,,,,,,,,,,,,,,,,,,,,,,30,,,,,,,,534.0162561000325,534.0162561000325,534.0162561000325,534.0162561000325,534.0162561000325,down,1.1600881000049412,0,0,0,99,0,-0.24,down,1.081746400333941,,,,,,,,,,,,,,,,,,,,,,,,,,,,,,,,,,,,,,,,,,,,,,,,,,,,,,,,,,,,VZEEM3,train_y,blue_star,top_left,2025-02-17_16h04.54.564,HideSeek_v1,2022.2.5,60.46501211678796,
,2,7,2,2,0,-5,66,,train_dim1_1,10,30,,,,2,0,2,0,,,,,,,,,0,0,0,0,0,9,9,9,5,0,5,0,,,,,,,,,,,,,,,,,,,,,,,,,,,,,,,,,,,,,,,,,,,,,,,,,,,,,,,,,,,,,,,,30,,,,,,,,535.1826113997959,535.1826113997959,535.1826113997959,535.1826113997959,535.1826113997959,return,0.5265776999294758,1,0,0,1,0,-0.24,return,0.4542645998299122,-22,14,0,-0.24,,,,,,,,,,,,,,,,,,,,,,,,,,,,,,,,,,,,,,,,,,,,,,,,,,,,,,,,VZEEM3,train_y,blue_star,top_left,2025-02-17_16h04.54.564,HideSeek_v1,2022.2.5,60.46501211678796,
,4,6,4,2,0,-4,65,,train_dim1_1,11,30,,,,2,0,2,0,,,,,,,,,0,0,0,0,0,10,10,10,0,0,0,0,,,,,,,,,,,,,,,,,,,,,,,,,stimuli/alien_stimuli/65.png,,,,,,,,,,,,,,,,,,,,,,,,,,,,,stimuli/alien_stimuli/66.png,66,2,12,,,,,,,30,,,,,,,,546.4468319998123,546.4468319998123,546.4468319998123,546.4468319998123,546.4468319998123,down,1.9738090001046658,1,0,0,99,0.16,0.0,down,1.8960653999820352,,,,,544.8949716999196,546.4468319998123,0,-0.24,0.4,0.0,-0.039999999999999994,0,0.0,0,-0.24,537.2793113999069,537.2793113999069,537.2793113999069,537.2793113999069,537.2793113999069,537.2793113999069,537.2793113999069,537.2793113999069,537.271918109851,7.725296100135893,return,7.587467999663204,,,,,,,,,,,,,,,,,,,,,,,,,,,,,,,,,VZEEM3,train_y,blue_star,top_left,2025-02-17_16h04.54.564,HideSeek_v1,2022.2.5,60.46501211678796,
,4,6,4,2,0,-4,65,,train_dim1_1,11,30,,,,2,0,2,0,,,,,,,,,0,0,0,0,0,10,10,10,1,0,1,0,,,,,,,,,,,,,,,,,,,,,,,,,,,,,,,,,,,,,,,,,,,,,,,,,,,,,,,,,,,,,,,,30,,,,,,,,548.4272635001689,548.4272635001689,548.4272635001689,548.4272635001689,548.4272635001689,down,0.99275610037148,1,0,0,99,0.16,-0.08,down,0.9117601001635194,,,,,,,,,,,,,,,,,,,,,,,,,,,,,,,,,,,,,,,,,,,,,,,,,,,,,,,,,,,,VZEEM3,train_y,blue_star,top_left,2025-02-17_16h04.54.564,HideSeek_v1,2022.2.5,60.46501211678796,
,4,6,4,2,0,-4,65,,train_dim1_1,11,30,,,,2,0,2,0,,,,,,,,,0,0,0,0,0,10,10,10,2,0,2,0,,,,,,,,,,,,,,,,,,,,,,,,,,,,,,,,,,,,,,,,,,,,,,,,,,,,,,,,,,,,,,,,30,,,,,,,,549.427634799853,549.427634799853,549.427634799853,549.427634799853,549.427634799853,down,0.8103116997517645,1,0,0,99,0.16,-0.16,down,0.7340873000212014,,,,,,,,,,,,,,,,,,,,,,,,,,,,,,,,,,,,,,,,,,,,,,,,,,,,,,,,,,,,VZEEM3,train_y,blue_star,top_left,2025-02-17_16h04.54.564,HideSeek_v1,2022.2.5,60.46501211678796,
,4,6,4,2,0,-4,65,,train_dim1_1,11,30,,,,2,0,2,0,,,,,,,,,0,0,0,0,0,10,10,10,3,0,3,0,,,,,,,,,,,,,,,,,,,,,,,,,,,,,,,,,,,,,,,,,,,,,,,,,,,,,,,,,,,,,,,,30,,,,,,,,550.2450843998231,550.2450843998231,550.2450843998231,550.2450843998231,550.2450843998231,down,0.9763247999362648,1,0,0,99,0.16,-0.24,down,0.9036182002164423,,,,,,,,,,,,,,,,,,,,,,,,,,,,,,,,,,,,,,,,,,,,,,,,,,,,,,,,,,,,VZEEM3,train_y,blue_star,top_left,2025-02-17_16h04.54.564,HideSeek_v1,2022.2.5,60.46501211678796,
,4,6,4,2,0,-4,65,,train_dim1_1,11,30,,,,2,0,2,0,,,,,,,,,0,0,0,0,0,10,10,10,4,0,4,0,,,,,,,,,,,,,,,,,,,,,,,,,,,,,,,,,,,,,,,,,,,,,,,,,,,,,,,,,,,,,,,,30,,,,,,,,551.2290829000995,551.2290829000995,551.2290829000995,551.2290829000995,551.2290829000995,return,4.029674600344151,2,0,0,1,0.16,-0.24,return,3.9580163997597992,-26,14,0.16,-0.24,,,,,,,,,,,,,,,,,,,,,,,,,,,,,,,,,,,,,,,,,,,,,,,,,,,,,,,,VZEEM3,train_y,blue_star,top_left,2025-02-17_16h04.54.564,HideSeek_v1,2022.2.5,60.46501211678796,
,0,5,0,5,0,0,61,,train_dim1_1,12,30,,,,2,0,2,0,,,,,,,,,0,0,0,0,0,11,11,11,0,0,0,0,,,,,,,,,,,,,,,,,,,,,,,,,stimuli/alien_stimuli/61.png,,,,,,,,,,,,,,,,,,,,,,,,,,,,,stimuli/alien_stimuli/65.png,65,4,13,,,,,,,30,,,,,,,,562.5444835997187,562.5444835997187,562.5444835997187,562.5444835997187,562.5444835997187,down,5.9940869002602994,2,0,0,99,-0.16,-0.08,down,5.919453599955887,,,,,560.991608900018,562.5444835997187,0.16,-0.24,0.32,0.0,-0.07999999999999999,0.16,0.16,0.16,-0.24,556.8293055999093,556.8293055999093,556.8293055999093,556.8293055999093,556.8293055999093,556.8293055999093,556.8293055999093,556.8293055999093,556.8216294099111,4.272281200159341,return,4.137063399888575,,,,,,,,,,,,,,,,,,,,,,,,,,,,,,,,,VZEEM3,train_y,blue_star,top_left,2025-02-17_16h04.54.564,HideSeek_v1,2022.2.5,60.46501211678796,
,0,5,0,5,0,0,61,,train_dim1_1,12,30,,,,2,0,2,0,,,,,,,,,0,0,0,0,0,11,11,11,1,0,1,0,,,,,,,,,,,,,,,,,,,,,,,,,,,,,,,,,,,,,,,,,,,,,,,,,,,,,,,,,,,,,,,,30,,,,,,,,568.5454029999673,568.5454029999673,568.5454029999673,568.5454029999673,568.5454029999673,up,0.8593067000620067,2,0,0,99,-0.16,0.0,up,0.77326750010252,,,,,,,,,,,,,,,,,,,,,,,,,,,,,,,,,,,,,,,,,,,,,,,,,,,,,,,,,,,,VZEEM3,train_y,blue_star,top_left,2025-02-17_16h04.54.564,HideSeek_v1,2022.2.5,60.46501211678796,
,0,5,0,5,0,0,61,,train_dim1_1,12,30,,,,2,0,2,0,,,,,,,,,0,0,0,0,0,11,11,11,2,0,2,0,,,,,,,,,,,,,,,,,,,,,,,,,,,,,,,,,,,,,,,,,,,,,,,,,,,,,,,,,,,,,,,,30,,,,,,,,569.4110363000073,569.4110363000073,569.4110363000073,569.4110363000073,569.4110363000073,return,0.8101951000280678,3,0,0,1,-0.16,0.0,return,0.7355525000020862,-26,14,-0.16,0.0,,,,,,,,,,,,,,,,,,,,,,,,,,,,,,,,,,,,,,,,,,,,,,,,,,,,,,,,VZEEM3,train_y,blue_star,top_left,2025-02-17_16h04.54.564,HideSeek_v1,2022.2.5,60.46501211678796,
,4,8,4,7,0,-1,62,,train_dim1_1,13,30,,,,2,0,2,0,,,,,,,,,0,0,0,0,0,12,12,12,0,0,0,0,,,,,,,,,,,,,,,,,,,,,,,,,stimuli/alien_stimuli/62.png,,,,,,,,,,,,,,,,,,,,,,,,,,,,,stimuli/alien_stimuli/61.png,61,0,14,,,,,,,30,,,,,,,,580.7764041000046,580.7764041000046,580.7764041000046,580.7764041000046,580.7764041000046,down,2.4227219000458717,3,0,0,99,0.16,0.15999999999999998,down,2.3505893000401556,,,,,579.2231295001693,580.7764041000046,-0.16,0,0.0,0.0,0.0,-0.16,-0.16,-0.16,0,571.7908451999538,571.7908451999538,571.7908451999538,571.7908451999538,571.7908451999538,571.7908451999538,571.7908451999538,571.7908451999538,571.7839294096921,7.541868699714541,return,7.4011851996183395,,,,,,,,,,,,,,,,,,,,,,,,,,,,,,,,,VZEEM3,train_y,blue_star,top_left,2025-02-17_16h04.54.564,HideSeek_v1,2022.2.5,60.46501211678796,
,4,8,4,7,0,-1,62,,train_dim1_1,13,30,,,,2,0,2,0,,,,,,,,,0,0,0,0,0,12,12,12,1,0,1,0,,,,,,,,,,,,,,,,,,,,,,,,,,,,,,,,,,,,,,,,,,,,,,,,,,,,,,,,,,,,,,,,30,,,,,,,,583.2061795997433,583.2061795997433,583.2061795997433,583.2061795997433,583.2061795997433,down,2.361088200006634,3,0,0,99,0.16,0.07999999999999997,down,2.2894140002317727,,,,,,,,,,,,,,,,,,,,,,,,,,,,,,,,,,,,,,,,,,,,,,,,,,,,,,,,,,,,VZEEM3,train_y,blue_star,top_left,2025-02-17_16h04.54.564,HideSeek_v1,2022.2.5,60.46501211678796,
,4,8,4,7,0,-1,62,,train_dim1_1,13,30,,,,2,0,2,0,,,,,,,,,0,0,0,0,0,12,12,12,2,0,2,0,,,,,,,,,,,,,,,,,,,,,,,,,,,,,,,,,,,,,,,,,,,,,,,,,,,,,,,,,,,,,,,,30,,,,,,,,585.5750007997267,585.5750007997267,585.5750007997267,585.5750007997267,585.5750007997267,up,1.02694830019027,3,0,0,99,0.16,0.15999999999999998,up,0.9554826999083161,,,,,,,,,,,,,,,,,,,,,,,,,,,,,,,,,,,,,,,,,,,,,,,,,,,,,,,,,,,,VZEEM3,train_y,blue_star,top_left,2025-02-17_16h04.54.564,HideSeek_v1,2022.2.5,60.46501211678796,
,4,8,4,7,0,-1,62,,train_dim1_1,13,30,,,,2,0,2,0,,,,,,,,,0,0,0,0,0,12,12,12,3,0,3,0,,,,,,,,,,,,,,,,,,,,,,,,,,,,,,,,,,,,,,,,,,,,,,,,,,,,,,,,,,,,,,,,30,,,,,,,,586.6095050000586,586.6095050000586,586.6095050000586,586.6095050000586,586.6095050000586,up,0.09303010022267699,3,0,0,99,0.16,0.24,up,0.01012649992480874,,,,,,,,,,,,,,,,,,,,,,,,,,,,,,,,,,,,,,,,,,,,,,,,,,,,,,,,,,,,VZEEM3,train_y,blue_star,top_left,2025-02-17_16h04.54.564,HideSeek_v1,2022.2.5,60.46501211678796,
,4,8,4,7,0,-1,62,,train_dim1_1,13,30,,,,2,0,2,0,,,,,,,,,0,0,0,0,0,12,12,12,4,0,4,0,,,,,,,,,,,,,,,,,,,,,,,,,,,,,,,,,,,,,,,,,,,,,,,,,,,,,,,,,,,,,,,,30,,,,,,,,586.7092261998914,586.7092261998914,586.7092261998914,586.7092261998914,586.7092261998914,return,0.9936808999627829,3,1,0,0,0.16,0.24,return,0.9163530999794602,-26,14,0.16,0.24,,,,,,,,,,,,,,,,,,,,,,,,,,,,,,,,,,,,,,,,,,,,,,,,,,,,,,,,VZEEM3,train_y,blue_star,top_left,2025-02-17_16h04.54.564,HideSeek_v1,2022.2.5,60.46501211678796,
,2,7,2,2,0,-5,66,,train_dim1_1,14,30,,,,2,0,2,0,,,,,,,,,0,0,0,0,0,13,13,13,0,0,0,0,,,,,,,,,,,,,,,,,,,,,,,,,stimuli/alien_stimuli/66.png,,,,,,,,,,,,,,,,,,,,,,,,,,,,,stimuli/alien_stimuli/62.png,62,4,15,,,,,,,30,,,,,,,,594.4874275997281,594.4874275997281,594.4874275997281,594.4874275997281,594.4874275997281,down,2.6567840999923646,3,1,0,99,0,0.08,down,2.577047800179571,,,,,592.9348733997904,594.4874275997281,0.16,0.16,0.08,0.0,0.2,0.16,0.16,0.16,0.16,589.2760179000907,589.2760179000907,589.2760179000907,589.2760179000907,589.2760179000907,589.2760179000907,589.2760179000907,589.2760179000907,589.2649388096761,3.77181199984625,return,3.6356035000644624,,,,,,,,,,,,,,,,,,,,,,,,,,,,,,,,,VZEEM3,train_y,blue_star,top_left,2025-02-17_16h04.54.564,HideSeek_v1,2022.2.5,60.46501211678796,
,2,7,2,2,0,-5,66,,train_dim1_1,14,30,,,,2,0,2,0,,,,,,,,,0,0,0,0,0,13,13,13,1,0,1,0,,,,,,,,,,,,,,,,,,,,,,,,,,,,,,,,,,,,,,,,,,,,,,,,,,,,,,,,,,,,,,,,30,,,,,,,,597.1522475997917,597.1522475997917,597.1522475997917,597.1522475997917,597.1522475997917,down,0.6428346000611782,3,1,0,99,0,0.0,down,0.5647328998893499,,,,,,,,,,,,,,,,,,,,,,,,,,,,,,,,,,,,,,,,,,,,,,,,,,,,,,,,,,,,VZEEM3,train_y,blue_star,top_left,2025-02-17_16h04.54.564,HideSeek_v1,2022.2.5,60.46501211678796,
,2,7,2,2,0,-5,66,,train_dim1_1,14,30,,,,2,0,2,0,,,,,,,,,0,0,0,0,0,13,13,13,2,0,2,0,,,,,,,,,,,,,,,,,,,,,,,,,,,,,,,,,,,,,,,,,,,,,,,,,,,,,,,,,,,,,,,,30,,,,,,,,597.8016575998627,597.8016575998627,597.8016575998627,597.8016575998627,597.8016575998627,down,0.8267156998626888,3,1,0,99,0,-0.08,down,0.7400400000624359,,,,,,,,,,,,,,,,,,,,,,,,,,,,,,,,,,,,,,,,,,,,,,,,,,,,,,,,,,,,VZEEM3,train_y,blue_star,top_left,2025-02-17_16h04.54.564,HideSeek_v1,2022.2.5,60.46501211678796,
,2,7,2,2,0,-5,66,,train_dim1_1,14,30,,,,2,0,2,0,,,,,,,,,0,0,0,0,0,13,13,13,3,0,3,0,,,,,,,,,,,,,,,,,,,,,,,,,,,,,,,,,,,,,,,,,,,,,,,,,,,,,,,,,,,,,,,,30,,,,,,,,598.6354694999754,598.6354694999754,598.6354694999754,598.6354694999754,598.6354694999754,down,0.809925100300461,3,1,0,99,0,-0.16,down,0.7326734997332096,,,,,,,,,,,,,,,,,,,,,,,,,,,,,,,,,,,,,,,,,,,,,,,,,,,,,,,,,,,,VZEEM3,train_y,blue_star,top_left,2025-02-17_16h04.54.564,HideSeek_v1,2022.2.5,60.46501211678796,
,2,7,2,2,0,-5,66,,train_dim1_1,14,30,,,,2,0,2,0,,,,,,,,,0,0,0,0,0,13,13,13,4,0,4,0,,,,,,,,,,,,,,,,,,,,,,,,,,,,,,,,,,,,,,,,,,,,,,,,,,,,,,,,,,,,,,,,30,,,,,,,,599.4531792998314,599.4531792998314,599.4531792998314,599.4531792998314,599.4531792998314,return,0.5926199001260102,3,1,0,0,0,-0.16,return,0.5157312997616827,-30,14,0,-0.16,,,,,,,,,,,,,,,,,,,,,,,,,,,,,,,,,,,,,,,,,,,,,,,,,,,,,,,,VZEEM3,train_y,blue_star,top_left,2025-02-17_16h04.54.564,HideSeek_v1,2022.2.5,60.46501211678796,
,1,9,1,6,0,-3,64,,train_dim1_1,15,30,,,,2,0,2,0,,,,,,,,,0,0,0,0,0,14,14,14,0,0,0,0,,,,,,,,,,,,,,,,,,,,,,,,,stimuli/alien_stimuli/64.png,,,,,,,,,,,,,,,,,,,,,,,,,,,,,stimuli/alien_stimuli/66.png,66,2,16,,,,,,,30,,,,,,,,607.8138541001827,607.8138541001827,607.8138541001827,607.8138541001827,607.8138541001827,down,1.8229796001687646,3,1,0,99,-0.08,0.24,down,1.7359195002354681,,,,,606.2626084000804,607.8138541001827,0,-0.24,0.4,0.0,-0.039999999999999994,0,0.0,0,-0.24,601.6168145998381,601.6168145998381,601.6168145998381,601.6168145998381,601.6168145998381,601.6168145998381,601.6168145998381,601.6168145998381,601.608715909766,4.756152700167149,return,4.61777410004288,,,,,,,,,,,,,,,,,,,,,,,,,,,,,,,,,VZEEM3,train_y,blue_star,top_left,2025-02-17_16h04.54.564,HideSeek_v1,2022.2.5,60.46501211678796,
,1,9,1,6,0,-3,64,,train_dim1_1,15,30,,,,2,0,2,0,,,,,,,,,0,0,0,0,0,14,14,14,1,0,1,0,,,,,,,,,,,,,,,,,,,,,,,,,,,,,,,,,,,,,,,,,,,,,,,,,,,,,,,,,,,,,,,,30,,,,,,,,609.6441397997551,609.6441397997551,609.6441397997551,609.6441397997551,609.6441397997551,down,0.6428872998803854,3,1,0,99,-0.08,0.15999999999999998,down,0.5608765999786556,,,,,,,,,,,,,,,,,,,,,,,,,,,,,,,,,,,,,,,,,,,,,,,,,,,,,,,,,,,,VZEEM3,train_y,blue_star,top_left,2025-02-17_16h04.54.564,HideSeek_v1,2022.2.5,60.46501211678796,
,1,9,1,6,0,-3,64,,train_dim1_1,15,30,,,,2,0,2,0,,,,,,,,,0,0,0,0,0,14,14,14,2,0,2,0,,,,,,,,,,,,,,,,,,,,,,,,,,,,,,,,,,,,,,,,,,,,,,,,,,,,,,,,,,,,,,,,30,,,,,,,,610.2945566000417,610.2945566000417,610.2945566000417,610.2945566000417,610.2945566000417,down,0.6103190998546779,3,1,0,99,-0.08,0.07999999999999997,down,0.5262313997372985,,,,,,,,,,,,,,,,,,,,,,,,,,,,,,,,,,,,,,,,,,,,,,,,,,,,,,,,,,,,VZEEM3,train_y,blue_star,top_left,2025-02-17_16h04.54.564,HideSeek_v1,2022.2.5,60.46501211678796,
,1,9,1,6,0,-3,64,,train_dim1_1,15,30,,,,2,0,2,0,,,,,,,,,0,0,0,0,0,14,14,14,3,0,3,0,,,,,,,,,,,,,,,,,,,,,,,,,,,,,,,,,,,,,,,,,,,,,,,,,,,,,,,,,,,,,,,,30,,,,,,,,610.9124861001037,610.9124861001037,610.9124861001037,610.9124861001037,610.9124861001037,return,1.110120200086385,4,0,0,1,-0.08,0.07999999999999997,return,1.0334480996243656,-33,14,-0.08,0.07999999999999997,,,,,,,,,,,,,,,,,,,,,,,,,,,,,,,,,,,,,,,,,,,,,,,,,,,,,,,,VZEEM3,train_y,blue_star,top_left,2025-02-17_16h04.54.564,HideSeek_v1,2022.2.5,60.46501211678796,
,4,5,4,1,0,-4,65,,train_dim1_1,16,30,,,,2,0,2,0,,,,,,,,,0,0,0,0,0,15,15,15,0,0,0,0,,,,,,,,,,,,,,,,,,,,,,,,,stimuli/alien_stimuli/65.png,,,,,,,,,,,,,,,,,,,,,,,,,,,,,stimuli/alien_stimuli/64.png,64,1,17,,,,,,,30,,,,,,,,619.7248717001639,619.7248717001639,619.7248717001639,619.7248717001639,619.7248717001639,down,1.088950099889189,4,0,0,99,0.16,-0.08,down,1.0073465998284519,,,,,618.1725356001407,619.7248717001639,-0.08,0.08,0.24,0.0,0.2,-0.08,-0.08,-0.08,0.08,613.5940541997552,613.5940541997552,613.5940541997552,613.5940541997552,613.5940541997552,613.5940541997552,613.5940541997552,613.5940541997552,613.5852543099318,4.688980500213802,return,4.5467771999537945,,,,,,,,,,,,,,,,,,,,,,,,,,,,,,,,,VZEEM3,train_y,blue_star,top_left,2025-02-17_16h04.54.564,HideSeek_v1,2022.2.5,60.46501211678796,
,4,5,4,1,0,-4,65,,train_dim1_1,16,30,,,,2,0,2,0,,,,,,,,,0,0,0,0,0,15,15,15,1,0,1,0,,,,,,,,,,,,,,,,,,,,,,,,,,,,,,,,,,,,,,,,,,,,,,,,,,,,,,,,,,,,,,,,30,,,,,,,,620.8208655999042,620.8208655999042,620.8208655999042,620.8208655999042,620.8208655999042,down,0.7931030998006463,4,0,0,99,0.16,-0.16,down,0.7200059001334012,,,,,,,,,,,,,,,,,,,,,,,,,,,,,,,,,,,,,,,,,,,,,,,,,,,,,,,,,,,,VZEEM3,train_y,blue_star,top_left,2025-02-17_16h04.54.564,HideSeek_v1,2022.2.5,60.46501211678796,
,4,5,4,1,0,-4,65,,train_dim1_1,16,30,,,,2,0,2,0,,,,,,,,,0,0,0,0,0,15,15,15,2,0,2,0,,,,,,,,,,,,,,,,,,,,,,,,,,,,,,,,,,,,,,,,,,,,,,,,,,,,,,,,,,,,,,,,30,,,,,,,,621.6217686999589,621.6217686999589,621.6217686999589,621.6217686999589,621.6217686999589,down,0.909852399956435,4,0,0,99,0.16,-0.24,down,0.8274131999351084,,,,,,,,,,,,,,,,,,,,,,,,,,,,,,,,,,,,,,,,,,,,,,,,,,,,,,,,,,,,VZEEM3,train_y,blue_star,top_left,2025-02-17_16h04.54.564,HideSeek_v1,2022.2.5,60.46501211678796,
,4,5,4,1,0,-4,65,,train_dim1_1,16,30,,,,2,0,2,0,,,,,,,,,0,0,0,0,0,15,15,15,3,0,3,0,,,,,,,,,,,,,,,,,,,,,,,,,,,,,,,,,,,,,,,,,,,,,,,,,,,,,,,,,,,,,,,,30,,,,,,,,622.5386513997801,622.5386513997801,622.5386513997801,622.5386513997801,622.5386513997801,down,2.8787400000728667,4,0,0,99,0.16,-0.32,down,2.801270700059831,,,,,,,,,,,,,,,,,,,,,,,,,,,,,,,,,,,,,,,,,,,,,,,,,,,,,,,,,,,,VZEEM3,train_y,blue_star,top_left,2025-02-17_16h04.54.564,HideSeek_v1,2022.2.5,60.46501211678796,
,4,5,4,1,0,-4,65,,train_dim1_1,16,30,,,,2,0,2,0,,,,,,,,,0,0,0,0,0,15,15,15,4,0,4,0,,,,,,,,,,,,,,,,,,,,,,,,,,,,,,,,,,,,,,,,,,,,,,,,,,,,,,,,,,,,,,,,30,,,,,,,,625.4241010998376,625.4241010998376,625.4241010998376,625.4241010998376,625.4241010998376,down,0.6099049001932144,4,0,0,99,0.16,-0.4,down,0.5271948999725282,,,,,,,,,,,,,,,,,,,,,,,,,,,,,,,,,,,,,,,,,,,,,,,,,,,,,,,,,,,,VZEEM3,train_y,blue_star,top_left,2025-02-17_16h04.54.564,HideSeek_v1,2022.2.5,60.46501211678796,
,4,5,4,1,0,-4,65,,train_dim1_1,16,30,,,,2,0,2,0,,,,,,,,,0,0,0,0,0,15,15,15,5,0,5,0,,,,,,,,,,,,,,,,,,,,,,,,,,,,,,,,,,,,,,,,,,,,,,,,,,,,,,,,,,,,,,,,30,,,,,,,,626.0415886999108,626.0415886999108,626.0415886999108,626.0415886999108,626.0415886999108,return,0.593116800300777,4,1,0,0,0.16,-0.4,return,0.5107803996652365,-38,14,0.16,-0.4,,,,,,,,,,,,,,,,,,,,,,,,,,,,,,,,,,,,,,,,,,,,,,,,,,,,,,,,VZEEM3,train_y,blue_star,top_left,2025-02-17_16h04.54.564,HideSeek_v1,2022.2.5,60.46501211678796,
,3,8,3,5,0,-3,64,,train_dim1_1,17,30,,,,2,0,2,0,,,,,,,,,0,0,0,0,0,16,16,16,0,0,0,0,,,,,,,,,,,,,,,,,,,,,,,,,stimuli/alien_stimuli/64.png,,,,,,,,,,,,,,,,,,,,,,,,,,,,,stimuli/alien_stimuli/65.png,65,4,18,,,,,,,30,,,,,,,,633.6714943000115,633.6714943000115,633.6714943000115,633.6714943000115,633.6714943000115,down,1.204003700055182,4,1,0,99,0.08,0.15999999999999998,down,1.1273838998749852,,,,,632.1173466998152,633.6714943000115,0.16,-0.32,0.32,0.0,-0.16,0.16,0.16,0.16,-0.32,628.2045259997249,628.2045259997249,628.2045259997249,628.2045259997249,628.2045259997249,628.2045259997249,628.2045259997249,628.2045259997249,628.1976394096855,4.021743500139564,return,3.8841825001873076,,,,,,,,,,,,,,,,,,,,,,,,,,,,,,,,,VZEEM3,train_y,blue_star,top_left,2025-02-17_16h04.54.564,HideSeek_v1,2022.2.5,60.46501211678796,
,3,8,3,5,0,-3,64,,train_dim1_1,17,30,,,,2,0,2,0,,,,,,,,,0,0,0,0,0,16,16,16,1,0,1,0,,,,,,,,,,,,,,,,,,,,,,,,,,,,,,,,,,,,,,,,,,,,,,,,,,,,,,,,,,,,,,,,30,,,,,,,,634.8825737000443,634.8825737000443,634.8825737000443,634.8825737000443,634.8825737000443,down,1.54396040039137,4,1,0,99,0.08,0.07999999999999997,down,1.4679046999663115,,,,,,,,,,,,,,,,,,,,,,,,,,,,,,,,,,,,,,,,,,,,,,,,,,,,,,,,,,,,VZEEM3,train_y,blue_star,top_left,2025-02-17_16h04.54.564,HideSeek_v1,2022.2.5,60.46501211678796,
,3,8,3,5,0,-3,64,,train_dim1_1,17,30,,,,2,0,2,0,,,,,,,,,0,0,0,0,0,16,16,16,2,0,2,0,,,,,,,,,,,,,,,,,,,,,,,,,,,,,,,,,,,,,,,,,,,,,,,,,,,,,,,,,,,,,,,,30,,,,,,,,636.4335619998164,636.4335619998164,636.4335619998164,636.4335619998164,636.4335619998164,down,0.693980900105089,4,1,0,99,0.08,-2.7755575615628914e-17,down,0.6134142000228167,,,,,,,,,,,,,,,,,,,,,,,,,,,,,,,,,,,,,,,,,,,,,,,,,,,,,,,,,,,,VZEEM3,train_y,blue_star,top_left,2025-02-17_16h04.54.564,HideSeek_v1,2022.2.5,60.46501211678796,
,3,8,3,5,0,-3,64,,train_dim1_1,17,30,,,,2,0,2,0,,,,,,,,,0,0,0,0,0,16,16,16,3,0,3,0,,,,,,,,,,,,,,,,,,,,,,,,,,,,,,,,,,,,,,,,,,,,,,,,,,,,,,,,,,,,,,,,30,,,,,,,,637.1357689001597,637.1357689001597,637.1357689001597,637.1357689001597,637.1357689001597,return,0.47582520032301545,5,0,0,1,0.08,-2.7755575615628914e-17,return,0.3955587996169925,-41,14,0.08,-2.7755575615628914e-17,,,,,,,,,,,,,,,,,,,,,,,,,,,,,,,,,,,,,,,,,,,,,,,,,,,,,,,,VZEEM3,train_y,blue_star,top_left,2025-02-17_16h04.54.564,HideSeek_v1,2022.2.5,60.46501211678796,
,2,6,2,6,0,0,61,,train_dim1_1,18,30,,,,2,0,2,0,,,,,,,,,0,0,0,0,0,17,17,17,0,0,0,0,,,,,,,,,,,,,,,,,,,,,,,,,stimuli/alien_stimuli/61.png,,,,,,,,,,,,,,,,,,,,,,,,,,,,,stimuli/alien_stimuli/64.png,64,3,19,,,,,,,30,,,,,,,,644.012401400134,644.012401400134,644.012401400134,644.012401400134,644.012401400134,down,2.123186099808663,5,0,0,99,0,0.0,down,2.05004969984293,,,,,642.45920199994,644.012401400134,0.08,0,0.24,0.0,0.12,0.08,0.08,0.08,0,639.1727042999119,639.1727042999119,639.1727042999119,639.1727042999119,639.1727042999119,639.1727042999119,639.1727042999119,639.1727042999119,639.1733030097093,3.3883615997619927,return,3.2649648003280163,,,,,,,,,,,,,,,,,,,,,,,,,,,,,,,,,VZEEM3,train_y,blue_star,top_left,2025-02-17_16h04.54.564,HideSeek_v1,2022.2.5,60.46501211678796,
,2,6,2,6,0,0,61,,train_dim1_1,18,30,,,,2,0,2,0,,,,,,,,,0,0,0,0,0,17,17,17,1,0,1,0,,,,,,,,,,,,,,,,,,,,,,,,,,,,,,,,,,,,,,,,,,,,,,,,,,,,,,,,,,,,,,,,30,,,,,,,,646.1425203001127,646.1425203001127,646.1425203001127,646.1425203001127,646.1425203001127,up,2.728030300233513,5,0,0,99,0,0.08,up,2.645951199810952,,,,,,,,,,,,,,,,,,,,,,,,,,,,,,,,,,,,,,,,,,,,,,,,,,,,,,,,,,,,VZEEM3,train_y,blue_star,top_left,2025-02-17_16h04.54.564,HideSeek_v1,2022.2.5,60.46501211678796,
,2,6,2,6,0,0,61,,train_dim1_1,18,30,,,,2,0,2,0,,,,,,,,,0,0,0,0,0,17,17,17,2,0,2,0,,,,,,,,,,,,,,,,,,,,,,,,,,,,,,,,,,,,,,,,,,,,,,,,,,,,,,,,,,,,,,,,30,,,,,,,,648.8776075001806,648.8776075001806,648.8776075001806,648.8776075001806,648.8776075001806,return,1.6440822998993099,6,0,0,1,0,0.08,return,1.5649403999559581,-41,14,0,0.08,,,,,,,,,,,,,,,,,,,,,,,,,,,,,,,,,,,,,,,,,,,,,,,,,,,,,,,,VZEEM3,train_y,blue_star,top_left,2025-02-17_16h04.54.564,HideSeek_v1,2022.2.5,60.46501211678796,
,0,9,0,8,0,-1,62,,train_dim1_1,19,30,,,,2,0,2,0,,,,,,,,,0,0,0,0,0,18,18,18,0,0,0,0,,,,,,,,,,,,,,,,,,,,,,,,,stimuli/alien_stimuli/62.png,,,,,,,,,,,,,,,,,,,,,,,,,,,,,stimuli/alien_stimuli/61.png,61,2,20,,,,,,,30,,,,,,,,655.2722752997652,655.2722752997652,655.2722752997652,655.2722752997652,655.2722752997652,down,1.938994999974966,6,0,0,99,-0.16,0.24,down,1.8657673001289368,,,,,653.7184763001278,655.2722752997652,0,0.08,0.0,0.0,0.08,0,0.0,0,0.08,652.0900583001785,652.0900583001785,652.0900583001785,652.0900583001785,652.0900583001785,652.0900583001785,652.0900583001785,652.0900583001785,652.0839913098607,1.7367782997898757,return,1.5992171000689268,,,,,,,,,,,,,,,,,,,,,,,,,,,,,,,,,VZEEM3,train_y,blue_star,top_left,2025-02-17_16h04.54.564,HideSeek_v1,2022.2.5,60.46501211678796,
,0,9,0,8,0,-1,62,,train_dim1_1,19,30,,,,2,0,2,0,,,,,,,,,0,0,0,0,0,18,18,18,1,0,1,0,,,,,,,,,,,,,,,,,,,,,,,,,,,,,,,,,,,,,,,,,,,,,,,,,,,,,,,,,,,,,,,,30,,,,,,,,657.2180339000188,657.2180339000188,657.2180339000188,657.2180339000188,657.2180339000188,down,0.6262994999997318,6,0,0,99,-0.16,0.15999999999999998,down,0.5538611998781562,,,,,,,,,,,,,,,,,,,,,,,,,,,,,,,,,,,,,,,,,,,,,,,,,,,,,,,,,,,,VZEEM3,train_y,blue_star,top_left,2025-02-17_16h04.54.564,HideSeek_v1,2022.2.5,60.46501211678796,
,0,9,0,8,0,-1,62,,train_dim1_1,19,30,,,,2,0,2,0,,,,,,,,,0,0,0,0,0,18,18,18,2,0,2,0,,,,,,,,,,,,,,,,,,,,,,,,,,,,,,,,,,,,,,,,,,,,,,,,,,,,,,,,,,,,,,,,30,,,,,,,,657.8518957998604,657.8518957998604,657.8518957998604,657.8518957998604,657.8518957998604,up,1.3604872999712825,6,0,0,99,-0.16,0.24,up,1.2771395999006927,,,,,,,,,,,,,,,,,,,,,,,,,,,,,,,,,,,,,,,,,,,,,,,,,,,,,,,,,,,,VZEEM3,train_y,blue_star,top_left,2025-02-17_16h04.54.564,HideSeek_v1,2022.2.5,60.46501211678796,
,0,9,0,8,0,-1,62,,train_dim1_1,19,30,,,,2,0,2,0,,,,,,,,,0,0,0,0,0,18,18,18,3,0,3,0,,,,,,,,,,,,,,,,,,,,,,,,,,,,,,,,,,,,,,,,,,,,,,,,,,,,,,,,,,,,,,,,30,,,,,,,,659.2205695998855,659.2205695998855,659.2205695998855,659.2205695998855,659.2205695998855,up,0.559183900244534,6,0,0,99,-0.16,0.32,up,0.4856564002111554,,,,,,,,,,,,,,,,,,,,,,,,,,,,,,,,,,,,,,,,,,,,,,,,,,,,,,,,,,,,VZEEM3,train_y,blue_star,top_left,2025-02-17_16h04.54.564,HideSeek_v1,2022.2.5,60.46501211678796,
,0,9,0,8,0,-1,62,,train_dim1_1,19,30,,,,2,0,2,0,,,,,,,,,0,0,0,0,0,18,18,18,4,0,4,0,,,,,,,,,,,,,,,,,,,,,,,,,,,,,,,,,,,,,,,,,,,,,,,,,,,,,,,,,,,,,,,,30,,,,,,,,659.7862184997648,659.7862184997648,659.7862184997648,659.7862184997648,659.7862184997648,return,2.07793670007959,6,1,0,0,-0.16,0.32,return,2.000808599870652,-41,14,-0.16,0.32,,,,,,,,,,,,,,,,,,,,,,,,,,,,,,,,,,,,,,,,,,,,,,,,,,,,,,,,VZEEM3,train_y,blue_star,top_left,2025-02-17_16h04.54.564,HideSeek_v1,2022.2.5,60.46501211678796,
,2,5,2,0,0,-5,66,,train_dim1_1,20,30,,,,2,0,2,0,,,,,,,,,0,0,0,0,0,19,19,19,0,0,0,0,,,,,,,,,,,,,,,,,,,,,,,,,stimuli/alien_stimuli/66.png,,,,,,,,,,,,,,,,,,,,,,,,,,,,,stimuli/alien_stimuli/62.png,62,0,21,,,,,,,30,,,,,,,,667.2001994997263,667.2001994997263,667.2001994997263,667.2001994997263,667.2001994997263,down,1.9032787000760436,6,1,0,99,0,-0.08,down,1.8207299001514912,,,,,665.6449819998816,667.2001994997263,-0.16,0.24,0.08,0.0,0.28,-0.16,-0.16,-0.16,0.24,663.4301253999583,663.4301253999583,663.4301253999583,663.4301253999583,663.4301253999583,663.4301253999583,663.4301253999583,663.4301253999583,663.4267618099693,2.3204637998715043,return,2.183583200443536,,,,,,,,,,,,,,,,,,,,,,,,,,,,,,,,,VZEEM3,train_y,blue_star,top_left,2025-02-17_16h04.54.564,HideSeek_v1,2022.2.5,60.46501211678796,
,2,5,2,0,0,-5,66,,train_dim1_1,20,30,,,,2,0,2,0,,,,,,,,,0,0,0,0,0,19,19,19,1,0,1,0,,,,,,,,,,,,,,,,,,,,,,,,,,,,,,,,,,,,,,,,,,,,,,,,,,,,,,,,,,,,,,,,30,,,,,,,,669.1111400001682,669.1111400001682,669.1111400001682,669.1111400001682,669.1111400001682,down,0.6763630998320878,6,1,0,99,0,-0.16,down,0.5934231001883745,,,,,,,,,,,,,,,,,,,,,,,,,,,,,,,,,,,,,,,,,,,,,,,,,,,,,,,,,,,,VZEEM3,train_y,blue_star,top_left,2025-02-17_16h04.54.564,HideSeek_v1,2022.2.5,60.46501211678796,
,2,5,2,0,0,-5,66,,train_dim1_1,20,30,,,,2,0,2,0,,,,,,,,,0,0,0,0,0,19,19,19,2,0,2,0,,,,,,,,,,,,,,,,,,,,,,,,,,,,,,,,,,,,,,,,,,,,,,,,,,,,,,,,,,,,,,,,30,,,,,,,,669.7950108000077,669.7950108000077,669.7950108000077,669.7950108000077,669.7950108000077,down,0.8603377002291381,6,1,0,99,0,-0.24,down,0.778731900267303,,,,,,,,,,,,,,,,,,,,,,,,,,,,,,,,,,,,,,,,,,,,,,,,,,,,,,,,,,,,VZEEM3,train_y,blue_star,top_left,2025-02-17_16h04.54.564,HideSeek_v1,2022.2.5,60.46501211678796,
,2,5,2,0,0,-5,66,,train_dim1_1,20,30,,,,2,0,2,0,,,,,,,,,0,0,0,0,0,19,19,19,3,0,3,0,,,,,,,,,,,,,,,,,,,,,,,,,,,,,,,,,,,,,,,,,,,,,,,,,,,,,,,,,,,,,,,,30,,,,,,,,670.6620454997756,670.6620454997756,670.6620454997756,670.6620454997756,670.6620454997756,down,1.5608486998826265,6,1,0,99,0,-0.32,down,1.4739533001556993,,,,,,,,,,,,,,,,,,,,,,,,,,,,,,,,,,,,,,,,,,,,,,,,,,,,,,,,,,,,VZEEM3,train_y,blue_star,top_left,2025-02-17_16h04.54.564,HideSeek_v1,2022.2.5,60.46501211678796,
,2,5,2,0,0,-5,66,,train_dim1_1,20,30,,,,2,0,2,0,,,,,,,,,0,0,0,0,0,19,19,19,4,0,4,0,,,,,,,,,,,,,,,,,,,,,,,,,,,,,,,,,,,,,,,,,,,,,,,,,,,,,,,,,,,,,,,,30,,,,,,,,672.230162399821,672.230162399821,672.230162399821,672.230162399821,672.230162399821,return,0.5762215000577271,6,1,0,0,0,-0.32,return,0.48983809957280755,-45,14,0,-0.32,,,,,,,,,,,,,,,,,,,,,,,,,,,,,,,,,,,,,,,,,,,,,,,,,,,,,,,,VZEEM3,train_y,blue_star,top_left,2025-02-17_16h04.54.564,HideSeek_v1,2022.2.5,60.46501211678796,
,2,9,2,5,0,-4,65,,train_dim1_1,21,30,,,,2,0,2,0,,,,,,,,,0,0,0,0,0,20,20,20,0,0,0,0,,,,,,,,,,,,,,,,,,,,,,,,,stimuli/alien_stimuli/65.png,,,,,,,,,,,,,,,,,,,,,,,,,,,,,stimuli/alien_stimuli/66.png,66,2,22,,,,,,,30,,,,,,,,678.0389367998578,678.0389367998578,678.0389367998578,678.0389367998578,678.0389367998578,down,1.5570880002342165,6,1,0,99,0,0.24,down,1.4759026998654008,,,,,676.4874256001785,678.0389367998578,0,-0.4,0.4,0.0,-0.2,0,0.0,0,-0.4,674.3712468999438,674.3712468999438,674.3712468999438,674.3712468999438,674.3712468999438,674.3712468999438,674.3712468999438,674.3712468999438,674.3689188098069,2.220924499910325,return,2.091893999837339,,,,,,,,,,,,,,,,,,,,,,,,,,,,,,,,,VZEEM3,train_y,blue_star,top_left,2025-02-17_16h04.54.564,HideSeek_v1,2022.2.5,60.46501211678796,
,2,9,2,5,0,-4,65,,train_dim1_1,21,30,,,,2,0,2,0,,,,,,,,,0,0,0,0,0,20,20,20,1,0,1,0,,,,,,,,,,,,,,,,,,,,,,,,,,,,,,,,,,,,,,,,,,,,,,,,,,,,,,,,,,,,,,,,30,,,,,,,,679.6037987000309,679.6037987000309,679.6037987000309,679.6037987000309,679.6037987000309,down,1.0759748998098075,6,1,0,99,0,0.15999999999999998,down,0.9971977998502553,,,,,,,,,,,,,,,,,,,,,,,,,,,,,,,,,,,,,,,,,,,,,,,,,,,,,,,,,,,,VZEEM3,train_y,blue_star,top_left,2025-02-17_16h04.54.564,HideSeek_v1,2022.2.5,60.46501211678796,
,2,9,2,5,0,-4,65,,train_dim1_1,21,30,,,,2,0,2,0,,,,,,,,,0,0,0,0,0,20,20,20,2,0,2,0,,,,,,,,,,,,,,,,,,,,,,,,,,,,,,,,,,,,,,,,,,,,,,,,,,,,,,,,,,,,,,,,30,,,,,,,,680.6865280000493,680.6865280000493,680.6865280000493,680.6865280000493,680.6865280000493,down,0.5098345000296831,6,1,0,99,0,0.07999999999999997,down,0.43037670012563467,,,,,,,,,,,,,,,,,,,,,,,,,,,,,,,,,,,,,,,,,,,,,,,,,,,,,,,,,,,,VZEEM3,train_y,blue_star,top_left,2025-02-17_16h04.54.564,HideSeek_v1,2022.2.5,60.46501211678796,
,2,9,2,5,0,-4,65,,train_dim1_1,21,30,,,,2,0,2,0,,,,,,,,,0,0,0,0,0,20,20,20,3,0,3,0,,,,,,,,,,,,,,,,,,,,,,,,,,,,,,,,,,,,,,,,,,,,,,,,,,,,,,,,,,,,,,,,30,,,,,,,,681.2040141001344,681.2040141001344,681.2040141001344,681.2040141001344,681.2040141001344,return,1.010308500379324,6,1,0,0,0,0.07999999999999997,return,0.9390476997941732,-48,14,0,0.07999999999999997,,,,,,,,,,,,,,,,,,,,,,,,,,,,,,,,,,,,,,,,,,,,,,,,,,,,,,,,VZEEM3,train_y,blue_star,top_left,2025-02-17_16h04.54.564,HideSeek_v1,2022.2.5,60.46501211678796,
,0,7,0,4,0,-3,64,,train_dim1_1,22,30,,,,2,0,2,0,,,,,,,,,0,0,0,0,0,21,21,21,0,0,0,0,,,,,,,,,,,,,,,,,,,,,,,,,stimuli/alien_stimuli/64.png,,,,,,,,,,,,,,,,,,,,,,,,,,,,,stimuli/alien_stimuli/65.png,65,2,23,,,,,,,30,,,,,,,,689.247996899765,689.247996899765,689.247996899765,689.247996899765,689.247996899765,down,1.5558277000673115,6,1,0,99,-0.16,0.08,down,1.4699152000248432,,,,,687.6965116001666,689.247996899765,0,0,0.32,0.0,0.16,0,0.0,0,0,683.765722299926,683.765722299926,683.765722299926,683.765722299926,683.765722299926,683.765722299926,683.765722299926,683.765722299926,683.7602782798931,4.022191799711436,return,3.91375989979133,,,,,,,,,,,,,,,,,,,,,,,,,,,,,,,,,VZEEM3,train_y,blue_star,top_left,2025-02-17_16h04.54.564,HideSeek_v1,2022.2.5,60.46501211678796,
,0,7,0,4,0,-3,64,,train_dim1_1,22,30,,,,2,0,2,0,,,,,,,,,0,0,0,0,0,21,21,21,1,0,1,0,,,,,,,,,,,,,,,,,,,,,,,,,,,,,,,,,,,,,,,,,,,,,,,,,,,,,,,,,,,,,,,,30,,,,,,,,690.8120403001085,690.8120403001085,690.8120403001085,690.8120403001085,690.8120403001085,down,0.5760111999697983,6,1,0,99,-0.16,0.0,down,0.4937032996676862,,,,,,,,,,,,,,,,,,,,,,,,,,,,,,,,,,,,,,,,,,,,,,,,,,,,,,,,,,,,VZEEM3,train_y,blue_star,top_left,2025-02-17_16h04.54.564,HideSeek_v1,2022.2.5,60.46501211678796,
,0,7,0,4,0,-3,64,,train_dim1_1,22,30,,,,2,0,2,0,,,,,,,,,0,0,0,0,0,21,21,21,2,0,2,0,,,,,,,,,,,,,,,,,,,,,,,,,,,,,,,,,,,,,,,,,,,,,,,,,,,,,,,,,,,,,,,,30,,,,,,,,691.3958833999932,691.3958833999932,691.3958833999932,691.3958833999932,691.3958833999932,down,1.0097370999865234,6,1,0,99,-0.16,-0.08,down,0.9305591001175344,,,,,,,,,,,,,,,,,,,,,,,,,,,,,,,,,,,,,,,,,,,,,,,,,,,,,,,,,,,,VZEEM3,train_y,blue_star,top_left,2025-02-17_16h04.54.564,HideSeek_v1,2022.2.5,60.46501211678796,
,0,7,0,4,0,-3,64,,train_dim1_1,22,30,,,,2,0,2,0,,,,,,,,,0,0,0,0,0,21,21,21,3,0,3,0,,,,,,,,,,,,,,,,,,,,,,,,,,,,,,,,,,,,,,,,,,,,,,,,,,,,,,,,,,,,,,,,30,,,,,,,,692.4147994001396,692.4147994001396,692.4147994001396,692.4147994001396,692.4147994001396,return,0.4933468997478485,7,0,0,1,-0.16,-0.08,return,0.4197296998463571,-51,14,-0.16,-0.08,,,,,,,,,,,,,,,,,,,,,,,,,,,,,,,,,,,,,,,,,,,,,,,,,,,,,,,,VZEEM3,train_y,blue_star,top_left,2025-02-17_16h04.54.564,HideSeek_v1,2022.2.5,60.46501211678796,
,0,8,0,8,0,0,61,,train_dim1_1,23,30,,,,2,0,2,0,,,,,,,,,0,0,0,0,0,22,22,22,0,0,0,0,,,,,,,,,,,,,,,,,,,,,,,,,stimuli/alien_stimuli/61.png,,,,,,,,,,,,,,,,,,,,,,,,,,,,,stimuli/alien_stimuli/64.png,64,0,24,,,,,,,30,,,,,,,,700.942768199835,700.942768199835,700.942768199835,700.942768199835,700.942768199835,down,1.9230587999336421,7,0,0,99,-0.16,0.15999999999999998,down,1.8405683999881148,,,,,699.389891800005,700.942768199835,-0.16,-0.08,0.24,0.0,0.04,-0.16,-0.16,-0.16,-0.08,694.4790546000004,694.4790546000004,694.4790546000004,694.4790546000004,694.4790546000004,694.4790546000004,694.4790546000004,694.4790546000004,694.4690381099936,5.0225542997941375,return,4.893560300115496,,,,,,,,,,,,,,,,,,,,,,,,,,,,,,,,,VZEEM3,train_y,blue_star,top_left,2025-02-17_16h04.54.564,HideSeek_v1,2022.2.5,60.46501211678796,
,0,8,0,8,0,0,61,,train_dim1_1,23,30,,,,2,0,2,0,,,,,,,,,0,0,0,0,0,22,22,22,1,0,1,0,,,,,,,,,,,,,,,,,,,,,,,,,,,,,,,,,,,,,,,,,,,,,,,,,,,,,,,,,,,,,,,,30,,,,,,,,702.872793499846,702.872793499846,702.872793499846,702.872793499846,702.872793499846,down,0.7092148000374436,7,0,0,99,-0.16,0.07999999999999997,down,0.6220476999878883,,,,,,,,,,,,,,,,,,,,,,,,,,,,,,,,,,,,,,,,,,,,,,,,,,,,,,,,,,,,VZEEM3,train_y,blue_star,top_left,2025-02-17_16h04.54.564,HideSeek_v1,2022.2.5,60.46501211678796,
,0,8,0,8,0,0,61,,train_dim1_1,23,30,,,,2,0,2,0,,,,,,,,,0,0,0,0,0,22,22,22,2,0,2,0,,,,,,,,,,,,,,,,,,,,,,,,,,,,,,,,,,,,,,,,,,,,,,,,,,,,,,,,,,,,,,,,30,,,,,,,,703.5896151000634,703.5896151000634,703.5896151000634,703.5896151000634,703.5896151000634,down,0.6935024000704288,7,0,0,99,-0.16,-2.7755575615628914e-17,down,0.6138371997512877,,,,,,,,,,,,,,,,,,,,,,,,,,,,,,,,,,,,,,,,,,,,,,,,,,,,,,,,,,,,VZEEM3,train_y,blue_star,top_left,2025-02-17_16h04.54.564,HideSeek_v1,2022.2.5,60.46501211678796,
,0,8,0,8,0,0,61,,train_dim1_1,23,30,,,,2,0,2,0,,,,,,,,,0,0,0,0,0,22,22,22,3,0,3,0,,,,,,,,,,,,,,,,,,,,,,,,,,,,,,,,,,,,,,,,,,,,,,,,,,,,,,,,,,,,,,,,30,,,,,,,,704.2899549999274,704.2899549999274,704.2899549999274,704.2899549999274,704.2899549999274,up,1.5438981000334024,7,0,0,99,-0.16,0.07999999999999997,up,1.4672129997052252,,,,,,,,,,,,,,,,,,,,,,,,,,,,,,,,,,,,,,,,,,,,,,,,,,,,,,,,,,,,VZEEM3,train_y,blue_star,top_left,2025-02-17_16h04.54.564,HideSeek_v1,2022.2.5,60.46501211678796,
,0,8,0,8,0,0,61,,train_dim1_1,23,30,,,,2,0,2,0,,,,,,,,,0,0,0,0,0,22,22,22,4,0,4,0,,,,,,,,,,,,,,,,,,,,,,,,,,,,,,,,,,,,,,,,,,,,,,,,,,,,,,,,,,,,,,,,30,,,,,,,,705.8413426000625,705.8413426000625,705.8413426000625,705.8413426000625,705.8413426000625,up,0.5432227002456784,7,0,0,99,-0.16,0.15999999999999998,up,0.46465970017015934,,,,,,,,,,,,,,,,,,,,,,,,,,,,,,,,,,,,,,,,,,,,,,,,,,,,,,,,,,,,VZEEM3,train_y,blue_star,top_left,2025-02-17_16h04.54.564,HideSeek_v1,2022.2.5,60.46501211678796,
,0,8,0,8,0,0,61,,train_dim1_1,23,30,,,,2,0,2,0,,,,,,,,,0,0,0,0,0,22,22,22,5,0,5,0,,,,,,,,,,,,,,,,,,,,,,,,,,,,,,,,,,,,,,,,,,,,,,,,,,,,,,,,,,,,,,,,30,,,,,,,,706.3927202997729,706.3927202997729,706.3927202997729,706.3927202997729,706.3927202997729,return,0.8428207999095321,7,1,0,0,-0.16,0.15999999999999998,return,0.7546542999334633,-52,14,-0.16,0.15999999999999998,,,,,,,,,,,,,,,,,,,,,,,,,,,,,,,,,,,,,,,,,,,,,,,,,,,,,,,,VZEEM3,train_y,blue_star,top_left,2025-02-17_16h04.54.564,HideSeek_v1,2022.2.5,60.46501211678796,
,3,7,3,2,0,-5,66,,train_dim1_1,24,30,,,,2,0,2,0,,,,,,,,,0,0,0,0,0,23,23,23,0,0,0,0,,,,,,,,,,,,,,,,,,,,,,,,,stimuli/alien_stimuli/66.png,,,,,,,,,,,,,,,,,,,,,,,,,,,,,stimuli/alien_stimuli/61.png,61,0,25,,,,,,,30,,,,,,,,711.6012122998945,711.6012122998945,711.6012122998945,711.6012122998945,711.6012122998945,down,1.2887937002815306,7,1,0,99,0.08,0.08,down,1.2118600001558661,,,,,710.0484178001061,711.6012122998945,-0.16,0.24,0.0,0.0,0.24,-0.16,-0.16,-0.16,0.24,708.804236699827,708.804236699827,708.804236699827,708.804236699827,708.804236699827,708.804236699827,708.804236699827,708.804236699827,708.7978645099793,1.3529127999208868,return,1.212291399948299,,,,,,,,,,,,,,,,,,,,,,,,,,,,,,,,,VZEEM3,train_y,blue_star,top_left,2025-02-17_16h04.54.564,HideSeek_v1,2022.2.5,60.46501211678796,
,3,7,3,2,0,-5,66,,train_dim1_1,24,30,,,,2,0,2,0,,,,,,,,,0,0,0,0,0,23,23,23,1,0,1,0,,,,,,,,,,,,,,,,,,,,,,,,,,,,,,,,,,,,,,,,,,,,,,,,,,,,,,,,,,,,,,,,30,,,,,,,,712.8974679000676,712.8974679000676,712.8974679000676,712.8974679000676,712.8974679000676,down,1.15992569969967,7,1,0,99,0.08,0.0,down,1.0871569002047181,,,,,,,,,,,,,,,,,,,,,,,,,,,,,,,,,,,,,,,,,,,,,,,,,,,,,,,,,,,,VZEEM3,train_y,blue_star,top_left,2025-02-17_16h04.54.564,HideSeek_v1,2022.2.5,60.46501211678796,
,3,7,3,2,0,-5,66,,train_dim1_1,24,30,,,,2,0,2,0,,,,,,,,,0,0,0,0,0,23,23,23,2,0,2,0,,,,,,,,,,,,,,,,,,,,,,,,,,,,,,,,,,,,,,,,,,,,,,,,,,,,,,,,,,,,,,,,30,,,,,,,,714.0644644000567,714.0644644000567,714.0644644000567,714.0644644000567,714.0644644000567,down,2.2778547001071274,7,1,0,99,0.08,-0.08,down,2.2013095999136567,,,,,,,,,,,,,,,,,,,,,,,,,,,,,,,,,,,,,,,,,,,,,,,,,,,,,,,,,,,,VZEEM3,train_y,blue_star,top_left,2025-02-17_16h04.54.564,HideSeek_v1,2022.2.5,60.46501211678796,
,3,7,3,2,0,-5,66,,train_dim1_1,24,30,,,,2,0,2,0,,,,,,,,,0,0,0,0,0,23,23,23,3,0,3,0,,,,,,,,,,,,,,,,,,,,,,,,,,,,,,,,,,,,,,,,,,,,,,,,,,,,,,,,,,,,,,,,30,,,,,,,,716.349964399822,716.349964399822,716.349964399822,716.349964399822,716.349964399822,down,2.3277738001197577,7,1,0,99,0.08,-0.16,down,2.250913199968636,,,,,,,,,,,,,,,,,,,,,,,,,,,,,,,,,,,,,,,,,,,,,,,,,,,,,,,,,,,,VZEEM3,train_y,blue_star,top_left,2025-02-17_16h04.54.564,HideSeek_v1,2022.2.5,60.46501211678796,
,3,7,3,2,0,-5,66,,train_dim1_1,24,30,,,,2,0,2,0,,,,,,,,,0,0,0,0,0,23,23,23,4,0,4,0,,,,,,,,,,,,,,,,,,,,,,,,,,,,,,,,,,,,,,,,,,,,,,,,,,,,,,,,,,,,,,,,30,,,,,,,,718.6855858000927,718.6855858000927,718.6855858000927,718.6855858000927,718.6855858000927,return,0.3761644000187516,7,1,0,0,0.08,-0.16,return,0.3005299000069499,-56,14,0.08,-0.16,,,,,,,,,,,,,,,,,,,,,,,,,,,,,,,,,,,,,,,,,,,,,,,,,,,,,,,,VZEEM3,train_y,blue_star,top_left,2025-02-17_16h04.54.564,HideSeek_v1,2022.2.5,60.46501211678796,
,3,8,3,7,0,-1,62,,train_dim1_1,25,30,,,,2,0,2,0,,,,,,,,,0,0,0,0,0,24,24,24,0,0,0,0,,,,,,,,,,,,,,,,,,,,,,,,,stimuli/alien_stimuli/62.png,,,,,,,,,,,,,,,,,,,,,,,,,,,,,stimuli/alien_stimuli/66.png,66,3,26,,,,,,,30,,,,,,,,724.8141419999301,724.8141419999301,724.8141419999301,724.8141419999301,724.8141419999301,down,1.6536661996506155,7,1,0,99,0.08,0.15999999999999998,down,1.5685355998575687,,,,,723.2596593000926,724.8141419999301,0.08,-0.24,0.4,0.0,-0.039999999999999994,0.08,0.08,0.08,-0.24,720.6128978999332,720.6128978999332,720.6128978999332,720.6128978999332,720.6128978999332,720.6128978999332,720.6128978999332,720.6128978999332,720.6074926797301,2.737439099699259,return,2.6218193997628987,,,,,,,,,,,,,,,,,,,,,,,,,,,,,,,,,VZEEM3,train_y,blue_star,top_left,2025-02-17_16h04.54.564,HideSeek_v1,2022.2.5,60.46501211678796,
,3,8,3,7,0,-1,62,,train_dim1_1,25,30,,,,2,0,2,0,,,,,,,,,0,0,0,0,0,24,24,24,1,0,1,0,,,,,,,,,,,,,,,,,,,,,,,,,,,,,,,,,,,,,,,,,,,,,,,,,,,,,,,,,,,,,,,,30,,,,,,,,726.4756831000559,726.4756831000559,726.4756831000559,726.4756831000559,726.4756831000559,up,0.776197999715805,7,1,0,99,0.08,0.24,up,0.6888174000196159,,,,,,,,,,,,,,,,,,,,,,,,,,,,,,,,,,,,,,,,,,,,,,,,,,,,,,,,,,,,VZEEM3,train_y,blue_star,top_left,2025-02-17_16h04.54.564,HideSeek_v1,2022.2.5,60.46501211678796,
,3,8,3,7,0,-1,62,,train_dim1_1,25,30,,,,2,0,2,0,,,,,,,,,0,0,0,0,0,24,24,24,2,0,2,0,,,,,,,,,,,,,,,,,,,,,,,,,,,,,,,,,,,,,,,,,,,,,,,,,,,,,,,,,,,,,,,,30,,,,,,,,727.2596549000591,727.2596549000591,727.2596549000591,727.2596549000591,727.2596549000591,return,0.49286790005862713,7,1,0,0,0.08,0.24,return,0.40694390004500747,-56,14,0.08,0.24,,,,,,,,,,,,,,,,,,,,,,,,,,,,,,,,,,,,,,,,,,,,,,,,,,,,,,,,VZEEM3,train_y,blue_star,top_left,2025-02-17_16h04.54.564,HideSeek_v1,2022.2.5,60.46501211678796,
,4,9,4,6,0,-3,64,,train_dim1_1,26,30,,,,2,0,2,0,,,,,,,,,0,0,0,0,0,25,25,25,0,0,0,0,,,,,,,,,,,,,,,,,,,,,,,,,stimuli/alien_stimuli/64.png,,,,,,,,,,,,,,,,,,,,,,,,,,,,,stimuli/alien_stimuli/62.png,62,3,27,,,,,,,30,,,,,,,,733.0181334000081,733.0181334000081,733.0181334000081,733.0181334000081,733.0181334000081,down,1.5222428999841213,7,1,0,99,0.16,0.24,down,1.4413541997782886,,,,,731.4659985997714,733.0181334000081,0.08,0.16,0.08,0.0,0.2,0.08,0.08,0.08,0.16,729.3014178997837,729.3014178997837,729.3014178997837,729.3014178997837,729.3014178997837,729.3014178997837,729.3014178997837,729.3014178997837,729.2980503798462,2.253762200009078,return,2.139636700041592,,,,,,,,,,,,,,,,,,,,,,,,,,,,,,,,,VZEEM3,train_y,blue_star,top_left,2025-02-17_16h04.54.564,HideSeek_v1,2022.2.5,60.46501211678796,
,4,9,4,6,0,-3,64,,train_dim1_1,26,30,,,,2,0,2,0,,,,,,,,,0,0,0,0,0,25,25,25,1,0,1,0,,,,,,,,,,,,,,,,,,,,,,,,,,,,,,,,,,,,,,,,,,,,,,,,,,,,,,,,,,,,,,,,30,,,,,,,,734.5491983997636,734.5491983997636,734.5491983997636,734.5491983997636,734.5491983997636,down,1.3599164001643658,7,1,0,99,0.16,0.15999999999999998,down,1.2770330999046564,,,,,,,,,,,,,,,,,,,,,,,,,,,,,,,,,,,,,,,,,,,,,,,,,,,,,,,,,,,,VZEEM3,train_y,blue_star,top_left,2025-02-17_16h04.54.564,HideSeek_v1,2022.2.5,60.46501211678796,
,4,9,4,6,0,-3,64,,train_dim1_1,26,30,,,,2,0,2,0,,,,,,,,,0,0,0,0,0,25,25,25,2,0,2,0,,,,,,,,,,,,,,,,,,,,,,,,,,,,,,,,,,,,,,,,,,,,,,,,,,,,,,,,,,,,,,,,30,,,,,,,,735.9159450000152,735.9159450000152,735.9159450000152,735.9159450000152,735.9159450000152,down,0.7600659001618624,7,1,0,99,0.16,0.07999999999999997,down,0.6875583999790251,,,,,,,,,,,,,,,,,,,,,,,,,,,,,,,,,,,,,,,,,,,,,,,,,,,,,,,,,,,,VZEEM3,train_y,blue_star,top_left,2025-02-17_16h04.54.564,HideSeek_v1,2022.2.5,60.46501211678796,
,4,9,4,6,0,-3,64,,train_dim1_1,26,30,,,,2,0,2,0,,,,,,,,,0,0,0,0,0,25,25,25,3,0,3,0,,,,,,,,,,,,,,,,,,,,,,,,,,,,,,,,,,,,,,,,,,,,,,,,,,,,,,,,,,,,,,,,30,,,,,,,,736.6833450999111,736.6833450999111,736.6833450999111,736.6833450999111,736.6833450999111,return,0.5262306998483837,8,0,0,1,0.16,0.07999999999999997,return,0.4541943003423512,-59,14,0.16,0.07999999999999997,,,,,,,,,,,,,,,,,,,,,,,,,,,,,,,,,,,,,,,,,,,,,,,,,,,,,,,,VZEEM3,train_y,blue_star,top_left,2025-02-17_16h04.54.564,HideSeek_v1,2022.2.5,60.46501211678796,
,3,9,3,4,0,-5,66,,train_dim1_1,27,30,,,,2,0,2,0,,,,,,,,,0,0,0,0,0,26,26,26,0,0,0,0,,,,,,,,,,,,,,,,,,,,,,,,,stimuli/alien_stimuli/66.png,,,,,,,,,,,,,,,,,,,,,,,,,,,,,stimuli/alien_stimuli/64.png,64,4,28,,,,,,,30,,,,,,,,745.9466685997322,745.9466685997322,745.9466685997322,745.9466685997322,745.9466685997322,down,2.1055140998214483,8,0,0,99,0.08,0.24,down,2.0289280000142753,,,,,744.3935703998432,745.9466685997322,0.16,0.08,0.24,0.0,0.2,0.16,0.16,0.16,0.08,738.7611632999033,738.7611632999033,738.7611632999033,738.7611632999033,738.7611632999033,738.7611632999033,738.7611632999033,738.7611632999033,738.755638979841,5.723582300357521,return,5.611152299679816,,,,,,,,,,,,,,,,,,,,,,,,,,,,,,,,,VZEEM3,train_y,blue_star,top_left,2025-02-17_16h04.54.564,HideSeek_v1,2022.2.5,60.46501211678796,
,3,9,3,4,0,-5,66,,train_dim1_1,27,30,,,,2,0,2,0,,,,,,,,,0,0,0,0,0,26,26,26,1,0,1,0,,,,,,,,,,,,,,,,,,,,,,,,,,,,,,,,,,,,,,,,,,,,,,,,,,,,,,,,,,,,,,,,30,,,,,,,,748.0600642999634,748.0600642999634,748.0600642999634,748.0600642999634,748.0600642999634,down,0.6092912997119129,8,0,0,99,0.08,0.15999999999999998,down,0.5285558998584747,,,,,,,,,,,,,,,,,,,,,,,,,,,,,,,,,,,,,,,,,,,,,,,,,,,,,,,,,,,,VZEEM3,train_y,blue_star,top_left,2025-02-17_16h04.54.564,HideSeek_v1,2022.2.5,60.46501211678796,
,3,9,3,4,0,-5,66,,train_dim1_1,27,30,,,,2,0,2,0,,,,,,,,,0,0,0,0,0,26,26,26,2,0,2,0,,,,,,,,,,,,,,,,,,,,,,,,,,,,,,,,,,,,,,,,,,,,,,,,,,,,,,,,,,,,,,,,30,,,,,,,,748.677139100153,748.677139100153,748.677139100153,748.677139100153,748.677139100153,down,0.6096347998827696,8,0,0,99,0.08,0.07999999999999997,down,0.5361066996119916,,,,,,,,,,,,,,,,,,,,,,,,,,,,,,,,,,,,,,,,,,,,,,,,,,,,,,,,,,,,VZEEM3,train_y,blue_star,top_left,2025-02-17_16h04.54.564,HideSeek_v1,2022.2.5,60.46501211678796,
,3,9,3,4,0,-5,66,,train_dim1_1,27,30,,,,2,0,2,0,,,,,,,,,0,0,0,0,0,26,26,26,3,0,3,0,,,,,,,,,,,,,,,,,,,,,,,,,,,,,,,,,,,,,,,,,,,,,,,,,,,,,,,,,,,,,,,,30,,,,,,,,749.2942133001052,749.2942133001052,749.2942133001052,749.2942133001052,749.2942133001052,down,1.6107614003121853,8,0,0,99,0.08,-2.7755575615628914e-17,down,1.5383647996932268,,,,,,,,,,,,,,,,,,,,,,,,,,,,,,,,,,,,,,,,,,,,,,,,,,,,,,,,,,,,VZEEM3,train_y,blue_star,top_left,2025-02-17_16h04.54.564,HideSeek_v1,2022.2.5,60.46501211678796,
,3,9,3,4,0,-5,66,,train_dim1_1,27,30,,,,2,0,2,0,,,,,,,,,0,0,0,0,0,26,26,26,4,0,4,0,,,,,,,,,,,,,,,,,,,,,,,,,,,,,,,,,,,,,,,,,,,,,,,,,,,,,,,,,,,,,,,,30,,,,,,,,750.9128319001757,750.9128319001757,750.9128319001757,750.9128319001757,750.9128319001757,down,0.8595649003982544,8,0,0,99,0.08,-0.08000000000000003,down,0.7820222000591457,,,,,,,,,,,,,,,,,,,,,,,,,,,,,,,,,,,,,,,,,,,,,,,,,,,,,,,,,,,,VZEEM3,train_y,blue_star,top_left,2025-02-17_16h04.54.564,HideSeek_v1,2022.2.5,60.46501211678796,
,3,9,3,4,0,-5,66,,train_dim1_1,27,30,,,,2,0,2,0,,,,,,,,,0,0,0,0,0,26,26,26,5,0,5,0,,,,,,,,,,,,,,,,,,,,,,,,,,,,,,,,,,,,,,,,,,,,,,,,,,,,,,,,,,,,,,,,30,,,,,,,,751.7790922997519,751.7790922997519,751.7790922997519,751.7790922997519,751.7790922997519,return,0.6597317000851035,9,0,0,1,0.08,-0.08000000000000003,return,0.5733436001464725,-64,14,0.08,-0.08000000000000003,,,,,,,,,,,,,,,,,,,,,,,,,,,,,,,,,,,,,,,,,,,,,,,,,,,,,,,,VZEEM3,train_y,blue_star,top_left,2025-02-17_16h04.54.564,HideSeek_v1,2022.2.5,60.46501211678796,
,4,6,4,6,0,0,61,,train_dim1_1,28,30,,,,2,0,2,0,,,,,,,,,0,0,0,0,0,27,27,27,0,0,0,0,,,,,,,,,,,,,,,,,,,,,,,,,stimuli/alien_stimuli/61.png,,,,,,,,,,,,,,,,,,,,,,,,,,,,,stimuli/alien_stimuli/66.png,66,3,29,,,,,,,30,,,,,,,,759.2415188001469,759.2415188001469,759.2415188001469,759.2415188001469,759.2415188001469,down,1.9559995997697115,9,0,0,99,0.16,0.0,down,1.87393070012331,,,,,757.6881719999947,759.2415188001469,0.08,-0.08,0.4,0.0,0.12,0.08,0.08,0.08,-0.08,754.0080470000394,754.0080470000394,754.0080470000394,754.0080470000394,754.0080470000394,754.0080470000394,754.0080470000394,754.0080470000394,754.0017495097127,3.7889547999948263,return,3.662855800241232,,,,,,,,,,,,,,,,,,,,,,,,,,,,,,,,,VZEEM3,train_y,blue_star,top_left,2025-02-17_16h04.54.564,HideSeek_v1,2022.2.5,60.46501211678796,
,4,6,4,6,0,0,61,,train_dim1_1,28,30,,,,2,0,2,0,,,,,,,,,0,0,0,0,0,27,27,27,1,0,1,0,,,,,,,,,,,,,,,,,,,,,,,,,,,,,,,,,,,,,,,,,,,,,,,,,,,,,,,,,,,,,,,,30,,,,,,,,761.2041819998994,761.2041819998994,761.2041819998994,761.2041819998994,761.2041819998994,up,1.2435171999968588,9,0,0,99,0.16,0.08,up,1.1590549000538886,,,,,,,,,,,,,,,,,,,,,,,,,,,,,,,,,,,,,,,,,,,,,,,,,,,,,,,,,,,,VZEEM3,train_y,blue_star,top_left,2025-02-17_16h04.54.564,HideSeek_v1,2022.2.5,60.46501211678796,
,4,6,4,6,0,0,61,,train_dim1_1,28,30,,,,2,0,2,0,,,,,,,,,0,0,0,0,0,27,27,27,2,0,2,0,,,,,,,,,,,,,,,,,,,,,,,,,,,,,,,,,,,,,,,,,,,,,,,,,,,,,,,,,,,,,,,,30,,,,,,,,762.4550789999776,762.4550789999776,762.4550789999776,762.4550789999776,762.4550789999776,down,1.1270697000436485,9,0,0,99,0.16,0.0,down,1.0413657003082335,,,,,,,,,,,,,,,,,,,,,,,,,,,,,,,,,,,,,,,,,,,,,,,,,,,,,,,,,,,,VZEEM3,train_y,blue_star,top_left,2025-02-17_16h04.54.564,HideSeek_v1,2022.2.5,60.46501211678796,
,4,6,4,6,0,0,61,,train_dim1_1,28,30,,,,2,0,2,0,,,,,,,,,0,0,0,0,0,27,27,27,3,0,3,0,,,,,,,,,,,,,,,,,,,,,,,,,,,,,,,,,,,,,,,,,,,,,,,,,,,,,,,,,,,,,,,,30,,,,,,,,763.5904704001732,763.5904704001732,763.5904704001732,763.5904704001732,763.5904704001732,return,0.4085255996324122,9,1,0,0,0.16,0.0,return,0.329562199767679,-65,14,0.16,0.0,,,,,,,,,,,,,,,,,,,,,,,,,,,,,,,,,,,,,,,,,,,,,,,,,,,,,,,,VZEEM3,train_y,blue_star,top_left,2025-02-17_16h04.54.564,HideSeek_v1,2022.2.5,60.46501211678796,
,2,7,2,6,0,-1,62,,train_dim1_1,29,30,,,,2,0,2,0,,,,,,,,,0,0,0,0,0,28,28,28,0,0,0,0,,,,,,,,,,,,,,,,,,,,,,,,,stimuli/alien_stimuli/62.png,,,,,,,,,,,,,,,,,,,,,,,,,,,,,stimuli/alien_stimuli/61.png,61,4,30,,,,,,,30,,,,,,,,771.734732999932,771.734732999932,771.734732999932,771.734732999932,771.734732999932,down,1.4891098998486996,9,1,0,99,0,0.08,down,1.4008205002173781,,,,,770.1815832001157,771.734732999932,0.16,0.08,0.0,0.0,0.08,0.16,0.16,0.16,0.08,765.5710976999253,765.5710976999253,765.5710976999253,765.5710976999253,765.5710976999253,765.5710976999253,765.5710976999253,765.5710976999253,765.5614144101273,4.722480299882591,return,4.57914869999513,,,,,,,,,,,,,,,,,,,,,,,,,,,,,,,,,VZEEM3,train_y,blue_star,top_left,2025-02-17_16h04.54.564,HideSeek_v1,2022.2.5,60.46501211678796,
,2,7,2,6,0,-1,62,,train_dim1_1,29,30,,,,2,0,2,0,,,,,,,,,0,0,0,0,0,28,28,28,1,0,1,0,,,,,,,,,,,,,,,,,,,,,,,,,,,,,,,,,,,,,,,,,,,,,,,,,,,,,,,,,,,,,,,,30,,,,,,,,773.2311124000698,773.2311124000698,773.2311124000698,773.2311124000698,773.2311124000698,return,0.49297810019925237,10,0,0,1,0,0.08,return,0.41349599976092577,-66,14,0,0.08,,,,,,,,,,,,,,,,,,,,,,,,,,,,,,,,,,,,,,,,,,,,,,,,,,,,,,,,VZEEM3,train_y,blue_star,top_left,2025-02-17_16h04.54.564,HideSeek_v1,2022.2.5,60.46501211678796,
,0,6,0,2,0,-4,65,,train_dim1_1,30,30,,,,2,0,2,0,,,,,,,,,0,0,0,0,0,29,29,29,0,0,0,0,,,,,,,,,,,,,,,,,,,,,,,,,stimuli/alien_stimuli/65.png,,,,,,,,,,,,,,,,,,,,,,,,,,,,,stimuli/alien_stimuli/62.png,62,2,31,,,,,,,30,,,,,,,,779.0897115999833,779.0897115999833,779.0897115999833,779.0897115999833,779.0897115999833,down,4.14125939970836,10,0,0,99,-0.16,0.0,down,4.065794500056654,,,,,777.5376603999175,779.0897115999833,0,0.08,0.08,0.0,0.12,0,0.0,0,0.08,775.2739972998388,775.2739972998388,775.2739972998388,775.2739972998388,775.2739972998388,775.2739972998388,775.2739972998388,775.2739972998388,775.2693810798228,2.3542630998417735,return,2.237316899932921,,,,,,,,,,,,,,,,,,,,,,,,,,,,,,,,,VZEEM3,train_y,blue_star,top_left,2025-02-17_16h04.54.564,HideSeek_v1,2022.2.5,60.46501211678796,
,0,6,0,2,0,-4,65,,train_dim1_1,30,30,,,,2,0,2,0,,,,,,,,,0,0,0,0,0,29,29,29,1,0,1,0,,,,,,,,,,,,,,,,,,,,,,,,,,,,,,,,,,,,,,,,,,,,,,,,,,,,,,,,,,,,,,,,30,,,,,,,,783.241519600153,783.241519600153,783.241519600153,783.241519600153,783.241519600153,down,0.59065099991858,10,0,0,99,-0.16,-0.08,down,0.5044480999931693,,,,,,,,,,,,,,,,,,,,,,,,,,,,,,,,,,,,,,,,,,,,,,,,,,,,,,,,,,,,VZEEM3,train_y,blue_star,top_left,2025-02-17_16h04.54.564,HideSeek_v1,2022.2.5,60.46501211678796,
