trialInstr,x_fixStart,y_fixStart,x_corrSteps,y_corrSteps,x_nrSteps,y_nrSteps,alienID,trialLength,version,trialTrain,praclen,testlen,trial_label,break_on_off,beforeExpLoop.thisRepN,beforeExpLoop.thisTrialN,beforeExpLoop.thisN,beforeExpLoop.thisIndex,mini_instr_trials.thisRepN,mini_instr_trials.thisTrialN,mini_instr_trials.thisN,mini_instr_trials.thisIndex,instrLoop.thisRepN,instrLoop.thisTrialN,instrLoop.thisN,instrLoop.thisIndex,repeat_prac.thisRepN,repeat_prac.thisTrialN,repeat_prac.thisN,repeat_prac.thisIndex,trainLoop.thisRepN,trainLoop.thisTrialN,trainLoop.thisN,trainLoop.thisIndex,moveLoop_train.thisRepN,moveLoop_train.thisTrialN,moveLoop_train.thisN,moveLoop_train.thisIndex,experiment.thisRepN,experiment.thisTrialN,experiment.thisN,experiment.thisIndex,moveLoop_test.thisRepN,moveLoop_test.thisTrialN,moveLoop_test.thisN,moveLoop_test.thisIndex,mini_instr2_trials.thisRepN,mini_instr2_trials.thisTrialN,mini_instr2_trials.thisN,mini_instr2_trials.thisIndex,start_all_time,url,slideStim,audioStim,slides.started,sounds.started,nextButton.numClicks,nextButton.timesOn,nextButton.timesOff,prev_but.numClicks,prev_but.timesOn,prev_but.timesOff,alienStim,instrFile,alienStim_instr,gridImage_instr.started,startPos_3.started,key_instr.started,alienImage_3.started,sounds_1.started,key_instr.keys,key_instr.rt,all_x,all_y,FBy_corrSteps,FBy_fixStart,FBx_corrSteps,FBx_fixStart,FBy_pathSize_check,FBx_pathSize_check,gridImage_9.started,alienImageFB_3.started,startPosFB_3.started,keyFB_3.started,pathLine_ydir_2.started,pathLine_xdir_2.started,alienFace_3.started,sounds_2.started,RTFB_instr,keyFB_3.keys,keyFB_3.rt,draw_alienStim,draw_alienID,test_x,nrepcount,perfthres,percthres,earlierperf,earlystop,nextPrac,fileidx,praclen,saveACC_train,pracFile,nextPrac_train,addNrep,fileidx_endr,repExp,showearly,gridImage_4.started,startPos.started,movePos.started,key_resp.started,alienImage.started,buttonPress_train,RTchoice_train,cumAcctrain,aCorr,saveACC_choice,corrAns,x_movePos_end,y_movePos_end,key_resp.keys,key_resp.rt,wLy_dir,wLx_dir,x_movePos,y_movePos,text_2.started,text_2.stopped,aft_x_corrPos,aft_y_corrPos,y_pathSize_check,x_pathSize_check,y_pathdirY,x_pathdirY,x_pathdirX,x_corrPos,y_corrPos,gridImage_6.started,alienImageFB_2.started,startPosFB_2.started,movePosFB_2.started,keyFB_2.started,pathLine_xdir.started,pathLine_ydir.started,alienFace.started,sounds_4.started,RT_FBtrain,keyFB_2.keys,keyFB_2.rt,saveACC_pre,ACC,within_saveACC_train,earlystop_wloop,cumAcctrain_check,gridImage_3.started,alienImage_test.started,startPos_test.started,movePos_test.started,key_resp_test.started,wLy_dir_test,wLx_dir_test,buttonPress_test,RTchoice_test,cumAcctest,corrAns_test,key_resp_test.keys,key_resp_test.rt,text_3.started,text_3.stopped,total_time,end_all_time,key_resp_3.keys,slides_2.started,sounds_3.started,nextButton_2.numClicks,nextButton_2.timesOn,nextButton_2.timesOff,prev_but_2.numClicks,prev_but_2.timesOn,prev_but_2.timesOff,bye.started,participant,train_first,00_coordinate,starting corner,date,expName,psychopyVersion,frameRate,
,,,,,,,,,,,,,,,0,0,0,0,0,0,0,0,,,,,,,,,,,,,,,,,,,,,,,,,,,,,start_all_time,testround,conditions/schedules/train_y_first/blue_star_00/bottom_left/instructions/Slide1.png,conditions/schedules/train_y_first/blue_star_00/bottom_left/instructions/Audio1.wav,1221.0545308000874,1220.9963203255088,1,[7.02072130003944],[7.020750100025907],0,,,,,,,,,,,,,,,,,,,,,,,,,,,,,,,,,,,,,,,,,,,,,,,,,,,,,,,,,,,,,,,,,,,,,,,,,,,,,,,,,,,,,,,,,,,,,,,,,,,,,,,,,,,,,,,,,,,,,,,,,,,,W7FJ2V,train_y,blue_star,bottom_left,2025-08-28_16h30.51.234,HideSeek_v1,2022.2.5,59.95376366832856,
,,,,,,,,,,,,,,,0,0,0,0,1,0,1,0,,,,,,,,,,,,,,,,,,,,,,,,,,,,,,,conditions/schedules/train_y_first/blue_star_00/bottom_left/instructions/Slide2.png,conditions/schedules/train_y_first/blue_star_00/bottom_left/instructions/Audio2.wav,1228.093439300079,1228.0906161500607,2,"[7.02072130003944, 18.327493699966]","[0.014438699930906296, 18.327500799903646]",0,,,,,,,,,,,,,,,,,,,,,,,,,,,,,,,,,,,,,,,,,,,,,,,,,,,,,,,,,,,,,,,,,,,,,,,,,,,,,,,,,,,,,,,,,,,,,,,,,,,,,,,,,,,,,,,,,,,,,,,,,,,,W7FJ2V,train_y,blue_star,bottom_left,2025-08-28_16h30.51.234,HideSeek_v1,2022.2.5,59.95376366832856,
,,,,,,,,,,,,,,,0,0,0,0,2,0,2,0,,,,,,,,,,,,,,,,,,,,,,,,,,,,,,,conditions/schedules/train_y_first/blue_star_00/bottom_left/instructions/Slide3.png,conditions/schedules/train_y_first/blue_star_00/bottom_left/instructions/Audio3.wav,1246.4905534000136,1246.4896104501095,3,"[7.02072130003944, 18.327493699966, 16.495254199951887]","[0.014438699930906296, 0.000224800081923604, 16.49526200001128]",0,,,,,,,,,,,,,,,,,,,,,,,,,,,,,,,,,,,,,,,,,,,,,,,,,,,,,,,,,,,,,,,,,,,,,,,,,,,,,,,,,,,,,,,,,,,,,,,,,,,,,,,,,,,,,,,,,,,,,,,,,,,,W7FJ2V,train_y,blue_star,bottom_left,2025-08-28_16h30.51.234,HideSeek_v1,2022.2.5,59.95376366832856,
,,,,,,,,,,,,,,,0,0,0,0,3,0,3,0,,,,,,,,,,,,,,,,,,,,,,,,,,,,,,,conditions/schedules/train_y_first/blue_star_00/bottom_left/instructions/Slide4.png,conditions/schedules/train_y_first/blue_star_00/bottom_left/instructions/Audio4.wav,1263.0637264000252,1263.0534021500498,4,"[7.02072130003944, 18.327493699966, 16.495254199951887, 19.486483399989083]","[0.014438699930906296, 0.000224800081923604, 0.03719279984943569, 19.48649049992673]",0,,,,,,,,,,,,,,,,,,,,,,,,,,,,,,,,,,,,,,,,,,,,,,,,,,,,,,,,,,,,,,,,,,,,,,,,,,,,,,,,,,,,,,,,,,,,,,,,,,,,,,,,,,,,,,,,,,,,,,,,,,,,W7FJ2V,train_y,blue_star,bottom_left,2025-08-28_16h30.51.234,HideSeek_v1,2022.2.5,59.95376366832856,
,,,,,,,,,,,,,,,0,0,0,0,4,0,4,0,,,,,,,,,,,,,,,,,,,,,,,,,,,,,,,conditions/schedules/train_y_first/blue_star_00/bottom_left/instructions/Slide5.png,conditions/schedules/train_y_first/blue_star_00/bottom_left/instructions/Audio5.wav,1282.6172736999579,1282.619219750166,5,"[7.02072130003944, 18.327493699966, 16.495254199951887, 19.486483399989083, 4.470663300016895]","[0.014438699930906296, 0.000224800081923604, 0.03719279984943569, 0.01484140008687973, 4.470670500071719]",0,,,,,,,,,,,,,,,,,,,,,,,,,,,,,,,,,,,,,,,,,,,,,,,,,,,,,,,,,,,,,,,,,,,,,,,,,,,,,,,,,,,,,,,,,,,,,,,,,,,,,,,,,,,,,,,,,,,,,,,,,,,,W7FJ2V,train_y,blue_star,bottom_left,2025-08-28_16h30.51.234,HideSeek_v1,2022.2.5,59.95376366832856,
,,,,,,,,,,,,,,,0,0,0,0,5,0,5,0,,,,,,,,,,,,,,,,,,,,,,,,,,,,,,,conditions/schedules/train_y_first/blue_star_00/bottom_left/instructions/Slide6.png,conditions/schedules/train_y_first/blue_star_00/bottom_left/instructions/Audio6.wav,1287.13803989999,1287.1397602801678,6,"[7.02072130003944, 18.327493699966, 16.495254199951887, 19.486483399989083, 4.470663300016895, 5.504083999898285]","[0.014438699930906296, 0.000224800081923604, 0.03719279984943569, 0.01484140008687973, 0.03239629999734461, 5.504091300070286]",0,,,,,,,,,,,,,,,,,,,,,,,,,,,,,,,,,,,,,,,,,,,,,,,,,,,,,,,,,,,,,,,,,,,,,,,,,,,,,,,,,,,,,,,,,,,,,,,,,,,,,,,,,,,,,,,,,,,,,,,,,,,,W7FJ2V,train_y,blue_star,bottom_left,2025-08-28_16h30.51.234,HideSeek_v1,2022.2.5,59.95376366832856,
,,,,,,,,,,,,,,,0,0,0,0,6,0,6,0,,,,,,,,,,,,,,,,,,,,,,,,,,,,,,,conditions/schedules/train_y_first/blue_star_00/bottom_left/instructions/Slide7.png,conditions/schedules/train_y_first/blue_star_00/bottom_left/instructions/Audio7.wav,1292.6939757000655,1292.6944972801955,7,"[7.02072130003944, 18.327493699966, 16.495254199951887, 19.486483399989083, 4.470663300016895, 5.504083999898285, 6.070495499996468]","[0.014438699930906296, 0.000224800081923604, 0.03719279984943569, 0.01484140008687973, 0.03239629999734461, 0.04893149994313717, 6.070502200163901]",0,,,,,,,,,,,,,,,,,,,,,,,,,,,,,,,,,,,,,,,,,,,,,,,,,,,,,,,,,,,,,,,,,,,,,,,,,,,,,,,,,,,,,,,,,,,,,,,,,,,,,,,,,,,,,,,,,,,,,,,,,,,,W7FJ2V,train_y,blue_star,bottom_left,2025-08-28_16h30.51.234,HideSeek_v1,2022.2.5,59.95376366832856,
,,,,,,,,,,,,,,,0,0,0,0,7,0,7,0,,,,,,,,,,,,,,,,,,,,,,,,,,,,,,,conditions/schedules/train_y_first/blue_star_00/bottom_left/instructions/Slide8.png,conditions/schedules/train_y_first/blue_star_00/bottom_left/instructions/Audio8.wav,1298.8167344001122,1298.816335680103,8,"[7.02072130003944, 18.327493699966, 16.495254199951887, 19.486483399989083, 4.470663300016895, 5.504083999898285, 6.070495499996468, 11.97393500013277]","[0.014438699930906296, 0.000224800081923604, 0.03719279984943569, 0.01484140008687973, 0.03239629999734461, 0.04893149994313717, 0.030837099999189377, 11.973941600183025]",0,,,,,,,,,,,,,,,,,,,,,,,,,,,,,,,,,,,,,,,,,,,,,,,,,,,,,,,,,,,,,,,,,,,,,,,,,,,,,,,,,,,,,,,,,,,,,,,,,,,,,,,,,,,,,,,,,,,,,,,,,,,,W7FJ2V,train_y,blue_star,bottom_left,2025-08-28_16h30.51.234,HideSeek_v1,2022.2.5,59.95376366832856,
,,,,,,,,,,,,,,,0,0,0,0,8,0,8,0,,,,,,,,,,,,,,,,,,,,,,,,,,,,,,,conditions/schedules/train_y_first/blue_star_00/bottom_left/instructions/Slide9.png,conditions/schedules/train_y_first/blue_star_00/bottom_left/instructions/Audio9.wav,1310.8582022001501,1310.859493550146,9,"[7.02072130003944, 18.327493699966, 16.495254199951887, 19.486483399989083, 4.470663300016895, 5.504083999898285, 6.070495499996468, 11.97393500013277, 6.271000399952754]","[0.014438699930906296, 0.000224800081923604, 0.03719279984943569, 0.01484140008687973, 0.03239629999734461, 0.04893149994313717, 0.030837099999189377, 11.973941600183025, 6.271007899893448]",0,,,,,,,,,,,,,,,,,,,,,,,,,,,,,,,,,,,,,,,,,,,,,,,,,,,,,,,,,,,,,,,,,,,,,,,,,,,,,,,,,,,,,,,,,,,,,,,,,,,,,,,,,,,,,,,,,,,,,,,,,,,,W7FJ2V,train_y,blue_star,bottom_left,2025-08-28_16h30.51.234,HideSeek_v1,2022.2.5,59.95376366832856,
,,,,,,,,,,,,,,,0,0,0,0,9,0,9,0,,,,,,,,,,,,,,,,,,,,,,,,,,,,,,,conditions/schedules/train_y_first/blue_star_00/bottom_left/instructions/Slide10.png,conditions/schedules/train_y_first/blue_star_00/bottom_left/instructions/Audio10.wav,1317.1709966999479,1317.1647645100486,10,"[7.02072130003944, 18.327493699966, 16.495254199951887, 19.486483399989083, 4.470663300016895, 5.504083999898285, 6.070495499996468, 11.97393500013277, 6.271000399952754, 7.082823500037193]","[0.014438699930906296, 0.000224800081923604, 0.03719279984943569, 0.01484140008687973, 0.03239629999734461, 0.04893149994313717, 0.030837099999189377, 11.973941600183025, 0.03323230007663369, 7.082830799976364]",0,,,,,,,,,,,,,,,,,,,,,,,,,,,,,,,,,,,,,,,,,,,,,,,,,,,,,,,,,,,,,,,,,,,,,,,,,,,,,,,,,,,,,,,,,,,,,,,,,,,,,,,,,,,,,,,,,,,,,,,,,,,,W7FJ2V,train_y,blue_star,bottom_left,2025-08-28_16h30.51.234,HideSeek_v1,2022.2.5,59.95376366832856,
,,,,,,,,,,,,,,,0,0,0,0,10,0,10,0,,,,,,,,,,,,,,,,,,,,,,,,,,,,,,,conditions/schedules/train_y_first/blue_star_00/bottom_left/instructions/Slide11.png,conditions/schedules/train_y_first/blue_star_00/bottom_left/instructions/Audio11.wav,1324.2902510999702,1324.2872721101623,11,"[7.02072130003944, 18.327493699966, 16.495254199951887, 19.486483399989083, 4.470663300016895, 5.504083999898285, 6.070495499996468, 11.97393500013277, 6.271000399952754, 7.082823500037193, 10.703569800127298]","[0.014438699930906296, 0.000224800081923604, 0.03719279984943569, 0.01484140008687973, 0.03239629999734461, 0.04893149994313717, 0.030837099999189377, 11.973941600183025, 0.03323230007663369, 0.11268220003694296, 10.703576999949291]",0,,,,,,,,,,,,,,,,,,,,,,,,,,,,,,,,,,,,,,,,,,,,,,,,,,,,,,,,,,,,,,,,,,,,,,,,,,,,,,,,,,,,,,,,,,,,,,,,,,,,,,,,,,,,,,,,,,,,,,,,,,,,W7FJ2V,train_y,blue_star,bottom_left,2025-08-28_16h30.51.234,HideSeek_v1,2022.2.5,59.95376366832856,
,,,,,,,,,,,,,,,0,0,0,0,11,0,11,0,,,,,,,,,,,,,,,,,,,,,,,,,,,,,,,conditions/schedules/train_y_first/blue_star_00/bottom_left/instructions/Slide12.png,conditions/schedules/train_y_first/blue_star_00/bottom_left/instructions/Audio12.wav,1335.0721593000926,1335.0630166500341,12,"[7.02072130003944, 18.327493699966, 16.495254199951887, 19.486483399989083, 4.470663300016895, 5.504083999898285, 6.070495499996468, 11.97393500013277, 6.271000399952754, 7.082823500037193, 10.703569800127298, 14.05027629993856]","[0.014438699930906296, 0.000224800081923604, 0.03719279984943569, 0.01484140008687973, 0.03239629999734461, 0.04893149994313717, 0.030837099999189377, 11.973941600183025, 0.03323230007663369, 0.11268220003694296, 0.00022559985518455505, 14.050283399876207]",0,,,,,,,,,,,,,,,,,,,,,,,,,,,,,,,,,,,,,,,,,,,,,,,,,,,,,,,,,,,,,,,,,,,,,,,,,,,,,,,,,,,,,,,,,,,,,,,,,,,,,,,,,,,,,,,,,,,,,,,,,,,,W7FJ2V,train_y,blue_star,bottom_left,2025-08-28_16h30.51.234,HideSeek_v1,2022.2.5,59.95376366832856,
1,0,3,0,8,0,5,66,2,instr_dim1_1,,,,,,0,0,0,0,,,,,0,0,0,0,,,,,,,,,,,,,,,,,,,,,,,,,,,,,,,,,,,,,stimuli/alien_stimuli/66.png,conditions/schedules/train_y_first/blue_star_00/bottom_left/inputInstr_1.xlsx,stimuli/alien_stimuli/66.png,1349.2243172000162,1349.2243172000162,1349.2243172000162,1349.2243172000162,1349.2246196900496,return,8.96980610000901,"[-0.16, -0.08, 0, 0.08, 0.16, 0.24, 0.32, 0.4, 0.48, 0.56]","[-0.4, -0.32, -0.24, -0.16, -0.08, 0, 0.08, 0.16, 0.24, 0.32]",8,3,0,0,0.4,0.0,1358.3356185001321,1358.3356185001321,1358.3356185001321,1358.3356185001321,1358.3356185001321,1358.3356185001321,1358.3356185001321,1358.3321996601765,6.009621699806303,return,5.862676700111479,stimuli/alien_stimuli/66.png,66,0,1,,,,,,,,,,,,,,,,,,,,,,,,,,,,,,,,,,,,,,,,,,,,,,,,,,,,,,,,,,,,,,,,,,,,,,,,,,,,,,,,,,,,,,,,,W7FJ2V,train_y,blue_star,bottom_left,2025-08-28_16h30.51.234,HideSeek_v1,2022.2.5,59.95376366832856,
,,,,,,,,,,,30,,,,0,0,0,0,,,,,,,,,,,,,,,,,,,,,,,,,,,,,,,,,,,,,,,,,,,,,,,,,,,,,,,,,,,,,,,,,,,,,,,,,,,,,,21,0.7,0,0,99,1,30,0,conditions/schedules/train_y_first/blue_star_00/bottom_left/inputTrain_1.1.xlsx,99,1,1,1,0,,,,,,,,,,,,,,,,,,,,,,,,,,,,,,,,,,,,,,,,,,,,,,,,,,,,,,,,,,,,,,,,,,,,,,,,,,,W7FJ2V,train_y,blue_star,bottom_left,2025-08-28_16h30.51.234,HideSeek_v1,2022.2.5,59.95376366832856,
,,,,,,,,,,,,,,,1,0,1,0,0,0,0,0,,,,,,,,,,,,,,,,,,,,,,,,,,,,,,,conditions/schedules/train_y_first/blue_star_00/bottom_left/instructions/Slide13.png,conditions/schedules/train_y_first/blue_star_00/bottom_left/instructions/Audio13.wav,1364.3928871001117,1364.389541370189,13,"[7.02072130003944, 18.327493699966, 16.495254199951887, 19.486483399989083, 4.470663300016895, 5.504083999898285, 6.070495499996468, 11.97393500013277, 6.271000399952754, 7.082823500037193, 10.703569800127298, 14.05027629993856, 17.022568099899217]","[0.014438699930906296, 0.000224800081923604, 0.03719279984943569, 0.01484140008687973, 0.03239629999734461, 0.04893149994313717, 0.030837099999189377, 11.973941600183025, 0.03323230007663369, 0.11268220003694296, 0.00022559985518455505, 14.050283399876207, 17.022579199867323]",0,,,,,,,,,,,,,,,,,,,,,,,,,,,,,,,,,,,,,,,,,,,,,,,,,,,,,,,,,,,,,,,,,,,,,,,,,,,,,,,,,,,,,,,,,,,,,,,,,,,,,,,,,,,,,,,,,,,,,,,,,,,,W7FJ2V,train_y,blue_star,bottom_left,2025-08-28_16h30.51.234,HideSeek_v1,2022.2.5,59.95376366832856,
,,,,,,,,,,,,,,,1,0,1,0,1,0,1,0,,,,,,,,,,,,,,,,,,,,,,,,,,,,,,,conditions/schedules/train_y_first/blue_star_00/bottom_left/instructions/Slide14.png,conditions/schedules/train_y_first/blue_star_00/bottom_left/instructions/Audio14.wav,1381.4803437001538,1381.4683805800976,14,"[7.02072130003944, 18.327493699966, 16.495254199951887, 19.486483399989083, 4.470663300016895, 5.504083999898285, 6.070495499996468, 11.97393500013277, 6.271000399952754, 7.082823500037193, 10.703569800127298, 14.05027629993856, 17.022568099899217, 16.8996671999339]","[0.014438699930906296, 0.000224800081923604, 0.03719279984943569, 0.01484140008687973, 0.03239629999734461, 0.04893149994313717, 0.030837099999189377, 11.973941600183025, 0.03323230007663369, 0.11268220003694296, 0.00022559985518455505, 14.050283399876207, 0.03581300005316734, 16.899674399988726]",0,,,,,,,,,,,,,,,,,,,,,,,,,,,,,,,,,,,,,,,,,,,,,,,,,,,,,,,,,,,,,,,,,,,,,,,,,,,,,,,,,,,,,,,,,,,,,,,,,,,,,,,,,,,,,,,,,,,,,,,,,,,,W7FJ2V,train_y,blue_star,bottom_left,2025-08-28_16h30.51.234,HideSeek_v1,2022.2.5,59.95376366832856,
2,2,3,2,3,0,0,61,2,instr_dim1_1,,,,,,1,0,1,0,,,,,0,0,0,0,,,,,,,,,,,,,,,,,,,,,,,,,,,,,,,,,,,,,stimuli/alien_stimuli/61.png,conditions/schedules/train_y_first/blue_star_00/bottom_left/inputInstr_1.xlsx,stimuli/alien_stimuli/61.png,1398.4765564999543,1398.4765564999543,1398.4765564999543,1398.4765564999543,1398.465697920043,return,7.752476899884641,"[-0.16, -0.08, 0, 0.08, 0.16, 0.24, 0.32, 0.4, 0.48, 0.56]","[-0.4, -0.32, -0.24, -0.16, -0.08, 0, 0.08, 0.16, 0.24, 0.32]",3,3,2,2,0.0,0.0,1406.3790015999693,1406.3790015999693,1406.3790015999693,1406.3790015999693,1406.3790015999693,1406.3790015999693,1406.3790015999693,1406.3721107601189,6.439816200174391,return,6.2950438999105245,stimuli/alien_stimuli/61.png,61,2,2,,,,,,,,,,,,,,,,,,,,,,,,,,,,,,,,,,,,,,,,,,,,,,,,,,,,,,,,,,,,,,,,,,,,,,,,,,,,,,,,,,,,,,,,,W7FJ2V,train_y,blue_star,bottom_left,2025-08-28_16h30.51.234,HideSeek_v1,2022.2.5,59.95376366832856,
,,,,,,,,,,,30,,,,1,0,1,0,,,,,,,,,,,,,,,,,,,,,,,,,,,,,,,,,,,,,,,,,,,,,,,,,,,,,,,,,,,,,,,,,,,,,,,,,,,,,,21,0.7,0,0,99,1,30,0,conditions/schedules/train_y_first/blue_star_00/bottom_left/inputTrain_1.1.xlsx,99,1,1,1,0,,,,,,,,,,,,,,,,,,,,,,,,,,,,,,,,,,,,,,,,,,,,,,,,,,,,,,,,,,,,,,,,,,,,,,,,,,,W7FJ2V,train_y,blue_star,bottom_left,2025-08-28_16h30.51.234,HideSeek_v1,2022.2.5,59.95376366832856,
,,,,,,,,,,,,,,,2,0,2,0,0,0,0,0,,,,,,,,,,,,,,,,,,,,,,,,,,,,,,,conditions/schedules/train_y_first/blue_star_00/bottom_left/instructions/Slide15.png,conditions/schedules/train_y_first/blue_star_00/bottom_left/instructions/Audio15.wav,1412.8501341999508,1412.844107300276,15,"[7.02072130003944, 18.327493699966, 16.495254199951887, 19.486483399989083, 4.470663300016895, 5.504083999898285, 6.070495499996468, 11.97393500013277, 6.271000399952754, 7.082823500037193, 10.703569800127298, 14.05027629993856, 17.022568099899217, 16.8996671999339, 42.893721599830315]","[0.014438699930906296, 0.000224800081923604, 0.03719279984943569, 0.01484140008687973, 0.03239629999734461, 0.04893149994313717, 0.030837099999189377, 11.973941600183025, 0.03323230007663369, 0.11268220003694296, 0.00022559985518455505, 14.050283399876207, 0.03581300005316734, 16.899674399988726, 42.89372879988514]",0,,,,,,,,,,,,,,,,,,,,,,,,,,,,,,,,,,,,,,,,,,,,,,,,,,,,,,,,,,,,,,,,,,,,,,,,,,,,,,,,,,,,,,,,,,,,,,,,,,,,,,,,,,,,,,,,,,,,,,,,,,,,W7FJ2V,train_y,blue_star,bottom_left,2025-08-28_16h30.51.234,HideSeek_v1,2022.2.5,59.95376366832856,
,,,,,,,,,,,,,,,2,0,2,0,1,0,1,0,,,,,,,,,,,,,,,,,,,,,,,,,,,,,,,conditions/schedules/train_y_first/blue_star_00/bottom_left/instructions/Slide16.png,conditions/schedules/train_y_first/blue_star_00/bottom_left/instructions/Audio16.wav,1455.8244024000596,1455.8129717500415,16,"[7.02072130003944, 18.327493699966, 16.495254199951887, 19.486483399989083, 4.470663300016895, 5.504083999898285, 6.070495499996468, 11.97393500013277, 6.271000399952754, 7.082823500037193, 10.703569800127298, 14.05027629993856, 17.022568099899217, 16.8996671999339, 42.893721599830315, 21.704600600060076]","[0.014438699930906296, 0.000224800081923604, 0.03719279984943569, 0.01484140008687973, 0.03239629999734461, 0.04893149994313717, 0.030837099999189377, 11.973941600183025, 0.03323230007663369, 0.11268220003694296, 0.00022559985518455505, 14.050283399876207, 0.03581300005316734, 16.899674399988726, 0.014051700010895729, 21.704607699997723]",0,,,,,,,,,,,,,,,,,,,,,,,,,,,,,,,,,,,,,,,,,,,,,,,,,,,,,,,,,,,,,,,,,,,,,,,,,,,,,,,,,,,,,,,,,,,,,,,,,,,,,,,,,,,,,,,,,,,,,,,,,,,,W7FJ2V,train_y,blue_star,bottom_left,2025-08-28_16h30.51.234,HideSeek_v1,2022.2.5,59.95376366832856,
,0,0,0,4,0,4,65,,train_dim1_1,1,30,,,,2,0,2,0,,,,,,,,,0,0,0,0,0,0,0,0,0,0,0,0,,,,,,,,,,,,,,,,,,,,,,,,,stimuli/alien_stimuli/65.png,,,,,,,,,,,,,,,,,,,,,,,,,,,,,,,,,,,,,,,30,,,,,,,,1477.6369801000692,1477.6369801000692,1477.6369801000692,1477.6369801000692,1477.6369801000692,up,5.948539600009099,0,0,0,99,-0.16,-0.32,up,5.838359799934551,,,,,,,,,,,,,,,,,,,,,,,,,,,,,,,,,,,,,,,,,,,,,,,,,,,,,,,,,,,,W7FJ2V,train_y,blue_star,bottom_left,2025-08-28_16h30.51.234,HideSeek_v1,2022.2.5,59.95376366832856,
,0,0,0,4,0,4,65,,train_dim1_1,1,30,,,,2,0,2,0,,,,,,,,,0,0,0,0,0,0,0,0,1,0,1,0,,,,,,,,,,,,,,,,,,,,,,,,,,,,,,,,,,,,,,,,,,,,,,,,,,,,,,,,,,,,,,,,30,,,,,,,,1483.5712391000707,1483.5712391000707,1483.5712391000707,1483.5712391000707,1483.5712391000707,up,2.877359899925068,0,0,0,99,-0.16,-0.24,up,2.7853828999213874,,,,,,,,,,,,,,,,,,,,,,,,,,,,,,,,,,,,,,,,,,,,,,,,,,,,,,,,,,,,W7FJ2V,train_y,blue_star,bottom_left,2025-08-28_16h30.51.234,HideSeek_v1,2022.2.5,59.95376366832856,
,0,0,0,4,0,4,65,,train_dim1_1,1,30,,,,2,0,2,0,,,,,,,,,0,0,0,0,0,0,0,0,2,0,2,0,,,,,,,,,,,,,,,,,,,,,,,,,,,,,,,,,,,,,,,,,,,,,,,,,,,,,,,,,,,,,,,,30,,,,,,,,1486.454027300002,1486.454027300002,1486.454027300002,1486.454027300002,1486.454027300002,right,0.5263509000651538,0,0,0,99,-0.08,-0.24,right,0.4387198998592794,,,,,,,,,,,,,,,,,,,,,,,,,,,,,,,,,,,,,,,,,,,,,,,,,,,,,,,,,,,,W7FJ2V,train_y,blue_star,bottom_left,2025-08-28_16h30.51.234,HideSeek_v1,2022.2.5,59.95376366832856,
,0,0,0,4,0,4,65,,train_dim1_1,1,30,,,,2,0,2,0,,,,,,,,,0,0,0,0,0,0,0,0,3,0,3,0,,,,,,,,,,,,,,,,,,,,,,,,,,,,,,,,,,,,,,,,,,,,,,,,,,,,,,,,,,,,,,,,30,,,,,,,,1486.987601700006,1486.987601700006,1486.987601700006,1486.987601700006,1486.987601700006,right,2.445011400151998,0,0,0,99,0.0,-0.24,right,2.3601765998173505,,,,,,,,,,,,,,,,,,,,,,,,,,,,,,,,,,,,,,,,,,,,,,,,,,,,,,,,,,,,W7FJ2V,train_y,blue_star,bottom_left,2025-08-28_16h30.51.234,HideSeek_v1,2022.2.5,59.95376366832856,
,0,0,0,4,0,4,65,,train_dim1_1,1,30,,,,2,0,2,0,,,,,,,,,0,0,0,0,0,0,0,0,4,0,4,0,,,,,,,,,,,,,,,,,,,,,,,,,,,,,,,,,,,,,,,,,,,,,,,,,,,,,,,,,,,,,,,,30,,,,,,,,1489.438649600139,1489.438649600139,1489.438649600139,1489.438649600139,1489.438649600139,return,1.1439861999824643,0,0,0,0,0.0,-0.24,return,1.0690961999353021,2,2,0.0,-0.24,,,,,,,,,,,,,,,,,,,,,,,,,,,,,,,,,,,,,,,,,,,,,,,,,,,,,,,,W7FJ2V,train_y,blue_star,bottom_left,2025-08-28_16h30.51.234,HideSeek_v1,2022.2.5,59.95376366832856,
,3,2,3,7,0,5,66,,train_dim1_1,2,30,,,,2,0,2,0,,,,,,,,,0,0,0,0,0,1,1,1,0,0,0,0,,,,,,,,,,,,,,,,,,,,,,,,,stimuli/alien_stimuli/66.png,,,,,,,,,,,,,,,,,,,,,,,,,,,,,stimuli/alien_stimuli/65.png,65,0,3,,,,,,,30,,,,,,,,1503.7758136999328,1503.7758136999328,1503.7758136999328,1503.7758136999328,1503.7758136999328,left,7.943784200120717,0,0,0,99,0.0,-0.24,left,7.8372839000076056,,,,,1502.2018321000505,1503.7758136999328,-0.16,-0.08,0.32,0.0,-0.24000000000000002,-0.16,-0.16,-0.16,-0.08,1492.167712799972,1492.167712799972,1492.167712799972,1492.167712799972,1492.167712799972,1492.167712799972,1492.167712799972,1492.167712799972,1492.16015086025,10.160252099856734,return,10.012693699914962,,,,,,,,,,,,,,,,,,,,,,,,,,,,,,,,,W7FJ2V,train_y,blue_star,bottom_left,2025-08-28_16h30.51.234,HideSeek_v1,2022.2.5,59.95376366832856,
,3,2,3,7,0,5,66,,train_dim1_1,2,30,,,,2,0,2,0,,,,,,,,,0,0,0,0,0,1,1,1,1,0,1,0,,,,,,,,,,,,,,,,,,,,,,,,,,,,,,,,,,,,,,,,,,,,,,,,,,,,,,,,,,,,,,,,30,,,,,,,,1511.710221900139,1511.710221900139,1511.710221900139,1511.710221900139,1511.710221900139,left,1.0429717001970857,0,0,0,99,-0.08,-0.24,left,0.9550161000806838,,,,,,,,,,,,,,,,,,,,,,,,,,,,,,,,,,,,,,,,,,,,,,,,,,,,,,,,,,,,W7FJ2V,train_y,blue_star,bottom_left,2025-08-28_16h30.51.234,HideSeek_v1,2022.2.5,59.95376366832856,
,3,2,3,7,0,5,66,,train_dim1_1,2,30,,,,2,0,2,0,,,,,,,,,0,0,0,0,0,1,1,1,2,0,2,0,,,,,,,,,,,,,,,,,,,,,,,,,,,,,,,,,,,,,,,,,,,,,,,,,,,,,,,,,,,,,,,,30,,,,,,,,1512.758482000092,1512.758482000092,1512.758482000092,1512.758482000092,1512.758482000092,up,2.461283199954778,0,0,0,99,-0.08,-0.15999999999999998,up,2.386355400085449,,,,,,,,,,,,,,,,,,,,,,,,,,,,,,,,,,,,,,,,,,,,,,,,,,,,,,,,,,,,W7FJ2V,train_y,blue_star,bottom_left,2025-08-28_16h30.51.234,HideSeek_v1,2022.2.5,59.95376366832856,
,3,2,3,7,0,5,66,,train_dim1_1,2,30,,,,2,0,2,0,,,,,,,,,0,0,0,0,0,1,1,1,3,0,3,0,,,,,,,,,,,,,,,,,,,,,,,,,,,,,,,,,,,,,,,,,,,,,,,,,,,,,,,,,,,,,,,,30,,,,,,,,1515.2272088001482,1515.2272088001482,1515.2272088001482,1515.2272088001482,1515.2272088001482,up,0.5095735001377761,0,0,0,99,-0.08,-0.07999999999999997,up,0.43503399984911084,,,,,,,,,,,,,,,,,,,,,,,,,,,,,,,,,,,,,,,,,,,,,,,,,,,,,,,,,,,,W7FJ2V,train_y,blue_star,bottom_left,2025-08-28_16h30.51.234,HideSeek_v1,2022.2.5,59.95376366832856,
,3,2,3,7,0,5,66,,train_dim1_1,2,30,,,,2,0,2,0,,,,,,,,,0,0,0,0,0,1,1,1,4,0,4,0,,,,,,,,,,,,,,,,,,,,,,,,,,,,,,,,,,,,,,,,,,,,,,,,,,,,,,,,,,,,,,,,30,,,,,,,,1515.746851200005,1515.746851200005,1515.746851200005,1515.746851200005,1515.746851200005,left,1.1601598002016544,0,0,0,99,-0.16,-0.07999999999999997,left,1.0713117001578212,,,,,,,,,,,,,,,,,,,,,,,,,,,,,,,,,,,,,,,,,,,,,,,,,,,,,,,,,,,,W7FJ2V,train_y,blue_star,bottom_left,2025-08-28_16h30.51.234,HideSeek_v1,2022.2.5,59.95376366832856,
,3,2,3,7,0,5,66,,train_dim1_1,2,30,,,,2,0,2,0,,,,,,,,,0,0,0,0,0,1,1,1,5,0,5,0,,,,,,,,,,,,,,,,,,,,,,,,,,,,,,,,,,,,,,,,,,,,,,,,,,,,,,,,,,,,,,,,30,,,,,,,,1516.9120734001044,1516.9120734001044,1516.9120734001044,1516.9120734001044,1516.9120734001044,return,0.5593840000219643,0,0,0,0,-0.16,-0.07999999999999997,return,0.47174450010061264,4,-1,-0.16,-0.07999999999999997,,,,,,,,,,,,,,,,,,,,,,,,,,,,,,,,,,,,,,,,,,,,,,,,,,,,,,,,W7FJ2V,train_y,blue_star,bottom_left,2025-08-28_16h30.51.234,HideSeek_v1,2022.2.5,59.95376366832856,
,2,3,2,6,0,3,64,,train_dim1_1,3,30,,,,2,0,2,0,,,,,,,,,0,0,0,0,0,2,2,2,0,0,0,0,,,,,,,,,,,,,,,,,,,,,,,,,stimuli/alien_stimuli/64.png,,,,,,,,,,,,,,,,,,,,,,,,,,,,,stimuli/alien_stimuli/66.png,66,3,4,,,,,,,30,,,,,,,,1523.6482379999943,1523.6482379999943,1523.6482379999943,1523.6482379999943,1523.6482379999943,right,4.2725861999206245,0,0,0,99,0.08,-0.16,right,4.182400300167501,,,,,1522.0850198999979,1523.6482379999943,0.08,0.16,0.4,0.0,-0.039999999999999994,0.08,0.08,0.08,0.16,1519.0435152000282,1519.0435152000282,1519.0435152000282,1519.0435152000282,1519.0435152000282,1519.0435152000282,1519.0435152000282,1519.0435152000282,1519.0323463901414,3.154702699976042,return,3.0137033998034894,,,,,,,,,,,,,,,,,,,,,,,,,,,,,,,,,W7FJ2V,train_y,blue_star,bottom_left,2025-08-28_16h30.51.234,HideSeek_v1,2022.2.5,59.95376366832856,
,2,3,2,6,0,3,64,,train_dim1_1,3,30,,,,2,0,2,0,,,,,,,,,0,0,0,0,0,2,2,2,1,0,1,0,,,,,,,,,,,,,,,,,,,,,,,,,,,,,,,,,,,,,,,,,,,,,,,,,,,,,,,,,,,,,,,,30,,,,,,,,1527.9230738000479,1527.9230738000479,1527.9230738000479,1527.9230738000479,1527.9230738000479,right,2.026160200126469,0,0,0,99,0.16,-0.16,right,1.9513623998500407,,,,,,,,,,,,,,,,,,,,,,,,,,,,,,,,,,,,,,,,,,,,,,,,,,,,,,,,,,,,W7FJ2V,train_y,blue_star,bottom_left,2025-08-28_16h30.51.234,HideSeek_v1,2022.2.5,59.95376366832856,
,2,3,2,6,0,3,64,,train_dim1_1,3,30,,,,2,0,2,0,,,,,,,,,0,0,0,0,0,2,2,2,2,0,2,0,,,,,,,,,,,,,,,,,,,,,,,,,,,,,,,,,,,,,,,,,,,,,,,,,,,,,,,,,,,,,,,,30,,,,,,,,1529.957700100029,1529.957700100029,1529.957700100029,1529.957700100029,1529.957700100029,return,2.8620201000012457,0,0,0,0,0.16,-0.16,return,2.7717784999404103,4,1,0.16,-0.16,,,,,,,,,,,,,,,,,,,,,,,,,,,,,,,,,,,,,,,,,,,,,,,,,,,,,,,,W7FJ2V,train_y,blue_star,bottom_left,2025-08-28_16h30.51.234,HideSeek_v1,2022.2.5,59.95376366832856,
,0,1,0,2,0,1,62,,train_dim1_1,4,30,,,,2,0,2,0,,,,,,,,,0,0,0,0,0,3,3,3,0,0,0,0,,,,,,,,,,,,,,,,,,,,,,,,,stimuli/alien_stimuli/62.png,,,,,,,,,,,,,,,,,,,,,,,,,,,,,stimuli/alien_stimuli/64.png,64,2,5,,,,,,,30,,,,,,,,1539.946654499974,1539.946654499974,1539.946654499974,1539.946654499974,1539.946654499974,right,2.483509900048375,0,0,0,99,-0.08,-0.32,right,2.402238299837336,,,,,1538.381775100017,1539.946654499974,0,0.08,0.24,0.0,-0.04,0,0.0,0,0.08,1534.3906271001324,1534.3906271001324,1534.3906271001324,1534.3906271001324,1534.3906271001324,1534.3906271001324,1534.3906271001324,1534.3906271001324,1534.3786433902105,4.105844999896362,return,3.9676383999176323,,,,,,,,,,,,,,,,,,,,,,,,,,,,,,,,,W7FJ2V,train_y,blue_star,bottom_left,2025-08-28_16h30.51.234,HideSeek_v1,2022.2.5,59.95376366832856,
,0,1,0,2,0,1,62,,train_dim1_1,4,30,,,,2,0,2,0,,,,,,,,,0,0,0,0,0,3,3,3,1,0,1,0,,,,,,,,,,,,,,,,,,,,,,,,,,,,,,,,,,,,,,,,,,,,,,,,,,,,,,,,,,,,,,,,30,,,,,,,,1542.4333122000098,1542.4333122000098,1542.4333122000098,1542.4333122000098,1542.4333122000098,return,1.8943272999022156,0,0,0,0,-0.08,-0.32,return,1.8151255000848323,4,2,-0.08,-0.32,,,,,,,,,,,,,,,,,,,,,,,,,,,,,,,,,,,,,,,,,,,,,,,,,,,,,,,,W7FJ2V,train_y,blue_star,bottom_left,2025-08-28_16h30.51.234,HideSeek_v1,2022.2.5,59.95376366832856,
,3,3,3,3,0,0,61,,train_dim1_1,5,30,,,,2,0,2,0,,,,,,,,,0,0,0,0,0,4,4,4,0,0,0,0,,,,,,,,,,,,,,,,,,,,,,,,,stimuli/alien_stimuli/61.png,,,,,,,,,,,,,,,,,,,,,,,,,,,,,stimuli/alien_stimuli/62.png,62,0,6,,,,,,,30,,,,,,,,1549.1304004001431,1549.1304004001431,1549.1304004001431,1549.1304004001431,1549.1304004001431,up,5.855702899862081,0,0,0,99,0.08,-0.08,up,5.771090799942613,,,,,1547.5729460001457,1549.1304004001431,-0.16,-0.24,0.08,0.0,-0.28,-0.16,-0.16,-0.16,-0.24,1545.9044824000448,1545.9044824000448,1545.9044824000448,1545.9044824000448,1545.9044824000448,1545.9044824000448,1545.9044824000448,1545.9044824000448,1545.904828360118,1.7868214000482112,return,1.6440457999706268,,,,,,,,,,,,,,,,,,,,,,,,,,,,,,,,,W7FJ2V,train_y,blue_star,bottom_left,2025-08-28_16h30.51.234,HideSeek_v1,2022.2.5,59.95376366832856,
,3,3,3,3,0,0,61,,train_dim1_1,5,30,,,,2,0,2,0,,,,,,,,,0,0,0,0,0,4,4,4,1,0,1,0,,,,,,,,,,,,,,,,,,,,,,,,,,,,,,,,,,,,,,,,,,,,,,,,,,,,,,,,,,,,,,,,30,,,,,,,,1555.007387000136,1555.007387000136,1555.007387000136,1555.007387000136,1555.007387000136,return,1.0392972000408918,0,1,0,0,0.08,-0.08,return,0.9510162000078708,5,2,0.08,-0.08,,,,,,,,,,,,,,,,,,,,,,,,,,,,,,,,,,,,,,,,,,,,,,,,,,,,,,,,W7FJ2V,train_y,blue_star,bottom_left,2025-08-28_16h30.51.234,HideSeek_v1,2022.2.5,59.95376366832856,
,1,4,1,5,0,1,62,,train_dim1_1,6,30,,,,2,0,2,0,,,,,,,,,0,0,0,0,0,5,5,5,0,0,0,0,,,,,,,,,,,,,,,,,,,,,,,,,stimuli/alien_stimuli/62.png,,,,,,,,,,,,,,,,,,,,,,,,,,,,,stimuli/alien_stimuli/61.png,61,3,7,,,,,,,30,,,,,,,,1567.7625895000529,1567.7625895000529,1567.7625895000529,1567.7625895000529,1567.7625895000529,right,4.007451900048181,0,1,0,99,0.0,-0.08,right,3.898190600099042,,,,,1566.1883879001252,1567.7625895000529,0.08,-0.16,0.0,0.0,-0.16,0.08,0.08,0.08,-0.16,1557.611921200063,1557.611921200063,1557.611921200063,1557.611921200063,1557.611921200063,1557.611921200063,1557.611921200063,1557.611921200063,1557.5976266902408,8.692776100011542,return,8.557856099912897,,,,,,,,,,,,,,,,,,,,,,,,,,,,,,,,,W7FJ2V,train_y,blue_star,bottom_left,2025-08-28_16h30.51.234,HideSeek_v1,2022.2.5,59.95376366832856,
,1,4,1,5,0,1,62,,train_dim1_1,6,30,,,,2,0,2,0,,,,,,,,,0,0,0,0,0,5,5,5,1,0,1,0,,,,,,,,,,,,,,,,,,,,,,,,,,,,,,,,,,,,,,,,,,,,,,,,,,,,,,,,,,,,,,,,30,,,,,,,,1571.7594077999238,1571.7594077999238,1571.7594077999238,1571.7594077999238,1571.7594077999238,return,0.6097329000476748,0,0,0,0,0.0,-0.08,return,0.5235781997907907,5,3,0.0,-0.08,,,,,,,,,,,,,,,,,,,,,,,,,,,,,,,,,,,,,,,,,,,,,,,,,,,,,,,,W7FJ2V,train_y,blue_star,bottom_left,2025-08-28_16h30.51.234,HideSeek_v1,2022.2.5,59.95376366832856,
,1,3,1,6,0,3,64,,train_dim1_1,7,30,,,,2,0,2,0,,,,,,,,,0,0,0,0,0,6,6,6,0,0,0,0,,,,,,,,,,,,,,,,,,,,,,,,,stimuli/alien_stimuli/64.png,,,,,,,,,,,,,,,,,,,,,,,,,,,,,stimuli/alien_stimuli/62.png,62,1,8,,,,,,,30,,,,,,,,1576.7141317001078,1576.7141317001078,1576.7141317001078,1576.7141317001078,1576.7141317001078,down,5.744298100005835,0,0,0,99,-0.08,-0.24,down,5.661049099871889,,,,,1575.1624263999984,1576.7141317001078,-0.08,0,0.08,0.0,-0.04,-0.08,-0.08,-0.08,0,1573.9497966000345,1573.9497966000345,1573.9497966000345,1573.9497966000345,1573.9497966000345,1573.9497966000345,1573.9497966000345,1573.9497966000345,1573.9447386602872,1.3363929002080113,return,1.1804713001474738,,,,,,,,,,,,,,,,,,,,,,,,,,,,,,,,,W7FJ2V,train_y,blue_star,bottom_left,2025-08-28_16h30.51.234,HideSeek_v1,2022.2.5,59.95376366832856,
,1,3,1,6,0,3,64,,train_dim1_1,7,30,,,,2,0,2,0,,,,,,,,,0,0,0,0,0,6,6,6,1,0,1,0,,,,,,,,,,,,,,,,,,,,,,,,,,,,,,,,,,,,,,,,,,,,,,,,,,,,,,,,,,,,,,,,30,,,,,,,,1582.4655440000352,1582.4655440000352,1582.4655440000352,1582.4655440000352,1582.4655440000352,down,0.8598788999952376,0,0,0,99,-0.08,-0.32,down,0.7794183997903019,,,,,,,,,,,,,,,,,,,,,,,,,,,,,,,,,,,,,,,,,,,,,,,,,,,,,,,,,,,,W7FJ2V,train_y,blue_star,bottom_left,2025-08-28_16h30.51.234,HideSeek_v1,2022.2.5,59.95376366832856,
,1,3,1,6,0,3,64,,train_dim1_1,7,30,,,,2,0,2,0,,,,,,,,,0,0,0,0,0,6,6,6,2,0,2,0,,,,,,,,,,,,,,,,,,,,,,,,,,,,,,,,,,,,,,,,,,,,,,,,,,,,,,,,,,,,,,,,30,,,,,,,,1583.3394810999744,1583.3394810999744,1583.3394810999744,1583.3394810999744,1583.3394810999744,down,0.7764622999820858,0,0,0,99,-0.08,-0.4,down,0.6860827000346035,,,,,,,,,,,,,,,,,,,,,,,,,,,,,,,,,,,,,,,,,,,,,,,,,,,,,,,,,,,,W7FJ2V,train_y,blue_star,bottom_left,2025-08-28_16h30.51.234,HideSeek_v1,2022.2.5,59.95376366832856,
,1,3,1,6,0,3,64,,train_dim1_1,7,30,,,,2,0,2,0,,,,,,,,,0,0,0,0,0,6,6,6,3,0,3,0,,,,,,,,,,,,,,,,,,,,,,,,,,,,,,,,,,,,,,,,,,,,,,,,,,,,,,,,,,,,,,,,30,,,,,,,,1584.1303604000714,1584.1303604000714,1584.1303604000714,1584.1303604000714,1584.1303604000714,right,0.38206230010837317,0,0,0,99,0.0,-0.4,right,0.30441339989192784,,,,,,,,,,,,,,,,,,,,,,,,,,,,,,,,,,,,,,,,,,,,,,,,,,,,,,,,,,,,W7FJ2V,train_y,blue_star,bottom_left,2025-08-28_16h30.51.234,HideSeek_v1,2022.2.5,59.95376366832856,
,1,3,1,6,0,3,64,,train_dim1_1,7,30,,,,2,0,2,0,,,,,,,,,0,0,0,0,0,6,6,6,4,0,4,0,,,,,,,,,,,,,,,,,,,,,,,,,,,,,,,,,,,,,,,,,,,,,,,,,,,,,,,,,,,,,,,,30,,,,,,,,1584.518982599955,1584.518982599955,1584.518982599955,1584.518982599955,1584.518982599955,return,0.3930141001474112,0,0,0,0,0.0,-0.4,return,0.31846230011433363,2,4,0.0,-0.4,,,,,,,,,,,,,,,,,,,,,,,,,,,,,,,,,,,,,,,,,,,,,,,,,,,,,,,,W7FJ2V,train_y,blue_star,bottom_left,2025-08-28_16h30.51.234,HideSeek_v1,2022.2.5,59.95376366832856,
,4,2,4,2,0,0,61,,train_dim1_1,8,30,,,,2,0,2,0,,,,,,,,,0,0,0,0,0,7,7,7,0,0,0,0,,,,,,,,,,,,,,,,,,,,,,,,,stimuli/alien_stimuli/61.png,,,,,,,,,,,,,,,,,,,,,,,,,,,,,stimuli/alien_stimuli/64.png,64,1,9,,,,,,,30,,,,,,,,1589.2127311001532,1589.2127311001532,1589.2127311001532,1589.2127311001532,1589.2127311001532,return,2.905823800014332,1,0,0,1,0.16,-0.24,return,2.827747199917212,2,4,0.16,-0.24,1587.6561086999718,1589.2127311001532,-0.08,0.08,0.24,0.0,-0.04,-0.08,-0.08,-0.08,0.08,1586.4808898000047,1586.4808898000047,1586.4808898000047,1586.4808898000047,1586.4808898000047,1586.4808898000047,1586.4808898000047,1586.4808898000047,1586.4717205902098,1.2872354998253286,return,1.1440101999323815,,,,,,,,,,,,,,,,,,,,,,,,,,,,,,,,,W7FJ2V,train_y,blue_star,bottom_left,2025-08-28_16h30.51.234,HideSeek_v1,2022.2.5,59.95376366832856,
,4,3,4,7,0,4,65,,train_dim1_1,9,30,,,,2,0,2,0,,,,,,,,,0,0,0,0,0,8,8,8,0,0,0,0,,,,,,,,,,,,,,,,,,,,,,,,,stimuli/alien_stimuli/65.png,,,,,,,,,,,,,,,,,,,,,,,,,,,,,stimuli/alien_stimuli/61.png,61,4,10,,,,,,,30,,,,,,,,1597.3686327999458,1597.3686327999458,1597.3686327999458,1597.3686327999458,1597.3686327999458,left,2.270738899940625,1,0,0,99,0.08,-0.16,left,2.1891010000836104,,,,,1595.8128913000692,1597.3686327999458,0.16,-0.24,0.0,0.0,-0.24,0.16,0.16,0.16,-0.24,1593.6743133999407,1593.6743133999407,1593.6743133999407,1593.6743133999407,1593.6743133999407,1593.6743133999407,1593.6743133999407,1593.6743133999407,1593.6610949201045,2.236962500028312,return,2.1165560998488218,,,,,,,,,,,,,,,,,,,,,,,,,,,,,,,,,W7FJ2V,train_y,blue_star,bottom_left,2025-08-28_16h30.51.234,HideSeek_v1,2022.2.5,59.95376366832856,
,4,3,4,7,0,4,65,,train_dim1_1,9,30,,,,2,0,2,0,,,,,,,,,0,0,0,0,0,8,8,8,1,0,1,0,,,,,,,,,,,,,,,,,,,,,,,,,,,,,,,,,,,,,,,,,,,,,,,,,,,,,,,,,,,,,,,,30,,,,,,,,1599.647709300043,1599.647709300043,1599.647709300043,1599.647709300043,1599.647709300043,left,1.3269972999114543,1,0,0,99,0.0,-0.16,left,1.244463900104165,,,,,,,,,,,,,,,,,,,,,,,,,,,,,,,,,,,,,,,,,,,,,,,,,,,,,,,,,,,,W7FJ2V,train_y,blue_star,bottom_left,2025-08-28_16h30.51.234,HideSeek_v1,2022.2.5,59.95376366832856,
,4,3,4,7,0,4,65,,train_dim1_1,9,30,,,,2,0,2,0,,,,,,,,,0,0,0,0,0,8,8,8,2,0,2,0,,,,,,,,,,,,,,,,,,,,,,,,,,,,,,,,,,,,,,,,,,,,,,,,,,,,,,,,,,,,,,,,30,,,,,,,,1600.9814671000931,1600.9814671000931,1600.9814671000931,1600.9814671000931,1600.9814671000931,up,3.5962251001037657,1,0,0,99,0.0,-0.08,up,3.5232687999960035,,,,,,,,,,,,,,,,,,,,,,,,,,,,,,,,,,,,,,,,,,,,,,,,,,,,,,,,,,,,W7FJ2V,train_y,blue_star,bottom_left,2025-08-28_16h30.51.234,HideSeek_v1,2022.2.5,59.95376366832856,
,4,3,4,7,0,4,65,,train_dim1_1,9,30,,,,2,0,2,0,,,,,,,,,0,0,0,0,0,8,8,8,3,0,3,0,,,,,,,,,,,,,,,,,,,,,,,,,,,,,,,,,,,,,,,,,,,,,,,,,,,,,,,,,,,,,,,,30,,,,,,,,1604.5846113001462,1604.5846113001462,1604.5846113001462,1604.5846113001462,1604.5846113001462,up,2.6617519001010805,1,0,0,99,0.0,0.0,up,2.576953100040555,,,,,,,,,,,,,,,,,,,,,,,,,,,,,,,,,,,,,,,,,,,,,,,,,,,,,,,,,,,,W7FJ2V,train_y,blue_star,bottom_left,2025-08-28_16h30.51.234,HideSeek_v1,2022.2.5,59.95376366832856,
,4,3,4,7,0,4,65,,train_dim1_1,9,30,,,,2,0,2,0,,,,,,,,,0,0,0,0,0,8,8,8,4,0,4,0,,,,,,,,,,,,,,,,,,,,,,,,,,,,,,,,,,,,,,,,,,,,,,,,,,,,,,,,,,,,,,,,30,,,,,,,,1607.2531938001048,1607.2531938001048,1607.2531938001048,1607.2531938001048,1607.2531938001048,up,3.7795246001333,1,0,0,99,0.0,0.08,up,3.701181299984455,,,,,,,,,,,,,,,,,,,,,,,,,,,,,,,,,,,,,,,,,,,,,,,,,,,,,,,,,,,,W7FJ2V,train_y,blue_star,bottom_left,2025-08-28_16h30.51.234,HideSeek_v1,2022.2.5,59.95376366832856,
,4,3,4,7,0,4,65,,train_dim1_1,9,30,,,,2,0,2,0,,,,,,,,,0,0,0,0,0,8,8,8,5,0,5,0,,,,,,,,,,,,,,,,,,,,,,,,,,,,,,,,,,,,,,,,,,,,,,,,,,,,,,,,,,,,,,,,30,,,,,,,,1611.0395214001182,1611.0395214001182,1611.0395214001182,1611.0395214001182,1611.0395214001182,return,0.8604989000596106,1,0,0,0,0.0,0.08,return,0.7851741998456419,5,2,0.0,0.08,,,,,,,,,,,,,,,,,,,,,,,,,,,,,,,,,,,,,,,,,,,,,,,,,,,,,,,,W7FJ2V,train_y,blue_star,bottom_left,2025-08-28_16h30.51.234,HideSeek_v1,2022.2.5,59.95376366832856,
,2,2,2,7,0,5,66,,train_dim1_1,10,30,,,,2,0,2,0,,,,,,,,,0,0,0,0,0,9,9,9,0,0,0,0,,,,,,,,,,,,,,,,,,,,,,,,,stimuli/alien_stimuli/66.png,,,,,,,,,,,,,,,,,,,,,,,,,,,,,stimuli/alien_stimuli/65.png,65,4,11,,,,,,,30,,,,,,,,1616.019821099937,1616.019821099937,1616.019821099937,1616.019821099937,1616.019821099937,up,2.619203499983996,1,0,0,99,0,-0.15999999999999998,up,2.5445995000191033,,,,,1614.461891700048,1616.019821099937,0.16,0.16,0.32,0.0,0.0,0.16,0.16,0.16,0.16,1613.47496900009,1613.47496900009,1613.47496900009,1613.47496900009,1613.47496900009,1613.47496900009,1613.47496900009,1613.47496900009,1613.4611483902672,1.1027319999411702,return,0.9583455000538379,,,,,,,,,,,,,,,,,,,,,,,,,,,,,,,,,W7FJ2V,train_y,blue_star,bottom_left,2025-08-28_16h30.51.234,HideSeek_v1,2022.2.5,59.95376366832856,
,2,2,2,7,0,5,66,,train_dim1_1,10,30,,,,2,0,2,0,,,,,,,,,0,0,0,0,0,9,9,9,1,0,1,0,,,,,,,,,,,,,,,,,,,,,,,,,,,,,,,,,,,,,,,,,,,,,,,,,,,,,,,,,,,,,,,,30,,,,,,,,1618.645807400113,1618.645807400113,1618.645807400113,1618.645807400113,1618.645807400113,up,0.8937375999521464,1,0,0,99,0,-0.07999999999999997,up,0.8078495000954717,,,,,,,,,,,,,,,,,,,,,,,,,,,,,,,,,,,,,,,,,,,,,,,,,,,,,,,,,,,,W7FJ2V,train_y,blue_star,bottom_left,2025-08-28_16h30.51.234,HideSeek_v1,2022.2.5,59.95376366832856,
,2,2,2,7,0,5,66,,train_dim1_1,10,30,,,,2,0,2,0,,,,,,,,,0,0,0,0,0,9,9,9,2,0,2,0,,,,,,,,,,,,,,,,,,,,,,,,,,,,,,,,,,,,,,,,,,,,,,,,,,,,,,,,,,,,,,,,30,,,,,,,,1619.547613899922,1619.547613899922,1619.547613899922,1619.547613899922,1619.547613899922,up,1.0768651999533176,1,0,0,99,0,2.7755575615628914e-17,up,1.0001924999523908,,,,,,,,,,,,,,,,,,,,,,,,,,,,,,,,,,,,,,,,,,,,,,,,,,,,,,,,,,,,W7FJ2V,train_y,blue_star,bottom_left,2025-08-28_16h30.51.234,HideSeek_v1,2022.2.5,59.95376366832856,
,2,2,2,7,0,5,66,,train_dim1_1,10,30,,,,2,0,2,0,,,,,,,,,0,0,0,0,0,9,9,9,3,0,3,0,,,,,,,,,,,,,,,,,,,,,,,,,,,,,,,,,,,,,,,,,,,,,,,,,,,,,,,,,,,,,,,,30,,,,,,,,1620.630743500078,1620.630743500078,1620.630743500078,1620.630743500078,1620.630743500078,up,0.34308370016515255,1,0,0,99,0,0.08000000000000003,up,0.25563469994813204,,,,,,,,,,,,,,,,,,,,,,,,,,,,,,,,,,,,,,,,,,,,,,,,,,,,,,,,,,,,W7FJ2V,train_y,blue_star,bottom_left,2025-08-28_16h30.51.234,HideSeek_v1,2022.2.5,59.95376366832856,
,2,2,2,7,0,5,66,,train_dim1_1,10,30,,,,2,0,2,0,,,,,,,,,0,0,0,0,0,9,9,9,4,0,4,0,,,,,,,,,,,,,,,,,,,,,,,,,,,,,,,,,,,,,,,,,,,,,,,,,,,,,,,,,,,,,,,,30,,,,,,,,1620.9819734001067,1620.9819734001067,1620.9819734001067,1620.9819734001067,1620.9819734001067,up,1.8444759999401867,1,0,0,99,0,0.16000000000000003,up,1.7677273000590503,,,,,,,,,,,,,,,,,,,,,,,,,,,,,,,,,,,,,,,,,,,,,,,,,,,,,,,,,,,,W7FJ2V,train_y,blue_star,bottom_left,2025-08-28_16h30.51.234,HideSeek_v1,2022.2.5,59.95376366832856,
,2,2,2,7,0,5,66,,train_dim1_1,10,30,,,,2,0,2,0,,,,,,,,,0,0,0,0,0,9,9,9,5,0,5,0,,,,,,,,,,,,,,,,,,,,,,,,,,,,,,,,,,,,,,,,,,,,,,,,,,,,,,,,,,,,,,,,30,,,,,,,,1622.8342172000557,1622.8342172000557,1622.8342172000557,1622.8342172000557,1622.8342172000557,return,1.6257654000073671,2,0,0,1,0,0.16000000000000003,return,1.5382216998841614,10,2,0,0.16000000000000003,,,,,,,,,,,,,,,,,,,,,,,,,,,,,,,,,,,,,,,,,,,,,,,,,,,,,,,,W7FJ2V,train_y,blue_star,bottom_left,2025-08-28_16h30.51.234,HideSeek_v1,2022.2.5,59.95376366832856,
,4,1,4,5,0,4,65,,train_dim1_1,11,30,,,,2,0,2,0,,,,,,,,,0,0,0,0,0,10,10,10,0,0,0,0,,,,,,,,,,,,,,,,,,,,,,,,,stimuli/alien_stimuli/65.png,,,,,,,,,,,,,,,,,,,,,,,,,,,,,stimuli/alien_stimuli/66.png,66,2,12,,,,,,,30,,,,,,,,1628.6447976001073,1628.6447976001073,1628.6447976001073,1628.6447976001073,1628.6447976001073,left,2.8379774000495672,2,0,0,99,0.08,-0.32,left,2.7568089000415057,,,,,1627.0887756000739,1628.6447976001073,0,0.16,0.4,0.0,-0.039999999999999994,0,0.0,0,0.16,1626.0296468001325,1626.0296468001325,1626.0296468001325,1626.0296468001325,1626.0296468001325,1626.0296468001325,1626.0296468001325,1626.0296468001325,1626.0212217901835,1.1696439001243562,return,1.0320794000290334,,,,,,,,,,,,,,,,,,,,,,,,,,,,,,,,,W7FJ2V,train_y,blue_star,bottom_left,2025-08-28_16h30.51.234,HideSeek_v1,2022.2.5,59.95376366832856,
,4,1,4,5,0,4,65,,train_dim1_1,11,30,,,,2,0,2,0,,,,,,,,,0,0,0,0,0,10,10,10,1,0,1,0,,,,,,,,,,,,,,,,,,,,,,,,,,,,,,,,,,,,,,,,,,,,,,,,,,,,,,,,,,,,,,,,30,,,,,,,,1631.4906576999929,1631.4906576999929,1631.4906576999929,1631.4906576999929,1631.4906576999929,right,1.193646299885586,2,0,0,99,0.16,-0.32,right,1.1047460997942835,,,,,,,,,,,,,,,,,,,,,,,,,,,,,,,,,,,,,,,,,,,,,,,,,,,,,,,,,,,,W7FJ2V,train_y,blue_star,bottom_left,2025-08-28_16h30.51.234,HideSeek_v1,2022.2.5,59.95376366832856,
,4,1,4,5,0,4,65,,train_dim1_1,11,30,,,,2,0,2,0,,,,,,,,,0,0,0,0,0,10,10,10,2,0,2,0,,,,,,,,,,,,,,,,,,,,,,,,,,,,,,,,,,,,,,,,,,,,,,,,,,,,,,,,,,,,,,,,30,,,,,,,,1632.6892222000752,1632.6892222000752,1632.6892222000752,1632.6892222000752,1632.6892222000752,up,0.34357689996249974,2,0,0,99,0.16,-0.24,up,0.27223440003581345,,,,,,,,,,,,,,,,,,,,,,,,,,,,,,,,,,,,,,,,,,,,,,,,,,,,,,,,,,,,W7FJ2V,train_y,blue_star,bottom_left,2025-08-28_16h30.51.234,HideSeek_v1,2022.2.5,59.95376366832856,
,4,1,4,5,0,4,65,,train_dim1_1,11,30,,,,2,0,2,0,,,,,,,,,0,0,0,0,0,10,10,10,3,0,3,0,,,,,,,,,,,,,,,,,,,,,,,,,,,,,,,,,,,,,,,,,,,,,,,,,,,,,,,,,,,,,,,,30,,,,,,,,1633.0420500999317,1633.0420500999317,1633.0420500999317,1633.0420500999317,1633.0420500999317,up,0.42649149987846613,2,0,0,99,0.16,-0.15999999999999998,up,0.34058180009014904,,,,,,,,,,,,,,,,,,,,,,,,,,,,,,,,,,,,,,,,,,,,,,,,,,,,,,,,,,,,W7FJ2V,train_y,blue_star,bottom_left,2025-08-28_16h30.51.234,HideSeek_v1,2022.2.5,59.95376366832856,
,4,1,4,5,0,4,65,,train_dim1_1,11,30,,,,2,0,2,0,,,,,,,,,0,0,0,0,0,10,10,10,4,0,4,0,,,,,,,,,,,,,,,,,,,,,,,,,,,,,,,,,,,,,,,,,,,,,,,,,,,,,,,,,,,,,,,,30,,,,,,,,1633.4802181001287,1633.4802181001287,1633.4802181001287,1633.4802181001287,1633.4802181001287,up,0.4599764000158757,2,0,0,99,0.16,-0.07999999999999997,up,0.37611750001087785,,,,,,,,,,,,,,,,,,,,,,,,,,,,,,,,,,,,,,,,,,,,,,,,,,,,,,,,,,,,W7FJ2V,train_y,blue_star,bottom_left,2025-08-28_16h30.51.234,HideSeek_v1,2022.2.5,59.95376366832856,
,4,1,4,5,0,4,65,,train_dim1_1,11,30,,,,2,0,2,0,,,,,,,,,0,0,0,0,0,10,10,10,5,0,5,0,,,,,,,,,,,,,,,,,,,,,,,,,,,,,,,,,,,,,,,,,,,,,,,,,,,,,,,,,,,,,,,,30,,,,,,,,1633.942737299949,1633.942737299949,1633.942737299949,1633.942737299949,1633.942737299949,up,0.3096724001225084,2,0,0,99,0.16,2.7755575615628914e-17,up,0.22864399990066886,,,,,,,,,,,,,,,,,,,,,,,,,,,,,,,,,,,,,,,,,,,,,,,,,,,,,,,,,,,,W7FJ2V,train_y,blue_star,bottom_left,2025-08-28_16h30.51.234,HideSeek_v1,2022.2.5,59.95376366832856,
,4,1,4,5,0,4,65,,train_dim1_1,11,30,,,,2,0,2,0,,,,,,,,,0,0,0,0,0,10,10,10,6,0,6,0,,,,,,,,,,,,,,,,,,,,,,,,,,,,,,,,,,,,,,,,,,,,,,,,,,,,,,,,,,,,,,,,30,,,,,,,,1634.2597539999988,1634.2597539999988,1634.2597539999988,1634.2597539999988,1634.2597539999988,return,0.7600995001848787,3,0,0,1,0.16,2.7755575615628914e-17,return,0.6837754999287426,14,2,0.16,2.7755575615628914e-17,,,,,,,,,,,,,,,,,,,,,,,,,,,,,,,,,,,,,,,,,,,,,,,,,,,,,,,,W7FJ2V,train_y,blue_star,bottom_left,2025-08-28_16h30.51.234,HideSeek_v1,2022.2.5,59.95376366832856,
,0,0,0,0,0,0,61,,train_dim1_1,12,30,,,,2,0,2,0,,,,,,,,,0,0,0,0,0,11,11,11,0,0,0,0,,,,,,,,,,,,,,,,,,,,,,,,,stimuli/alien_stimuli/61.png,,,,,,,,,,,,,,,,,,,,,,,,,,,,,stimuli/alien_stimuli/65.png,65,4,13,,,,,,,30,,,,,,,,1638.9940560001414,1638.9940560001414,1638.9940560001414,1638.9940560001414,1638.9940560001414,return,1.336640999885276,4,0,0,1,-0.16,-0.4,return,1.2441378000658005,14,2,-0.16,-0.4,1637.4309098999947,1638.9940560001414,0.16,0,0.32,0.0,-0.16,0.16,0.16,0.16,0,1636.5922179000918,1636.5922179000918,1636.5922179000918,1636.5922179000918,1636.5922179000918,1636.5922179000918,1636.5922179000918,1636.5922179000918,1636.580235390179,0.952383300056681,return,0.8063157999422401,,,,,,,,,,,,,,,,,,,,,,,,,,,,,,,,,W7FJ2V,train_y,blue_star,bottom_left,2025-08-28_16h30.51.234,HideSeek_v1,2022.2.5,59.95376366832856,
,4,3,4,4,0,1,62,,train_dim1_1,13,30,,,,2,0,2,0,,,,,,,,,0,0,0,0,0,12,12,12,0,0,0,0,,,,,,,,,,,,,,,,,,,,,,,,,stimuli/alien_stimuli/62.png,,,,,,,,,,,,,,,,,,,,,,,,,,,,,stimuli/alien_stimuli/61.png,61,0,14,,,,,,,30,,,,,,,,1644.2569265000056,1644.2569265000056,1644.2569265000056,1644.2569265000056,1644.2569265000056,left,1.887582499999553,4,0,0,99,0.08,-0.16,left,1.808515400160104,,,,,1642.7018345000688,1644.2569265000056,-0.16,-0.4,0.0,0.0,-0.4,-0.16,-0.16,-0.16,-0.4,1641.8777024000883,1641.8777024000883,1641.8777024000883,1641.8777024000883,1641.8777024000883,1641.8777024000883,1641.8777024000883,1641.8777024000883,1641.867835720163,0.9195992001332343,return,0.8026033998467028,,,,,,,,,,,,,,,,,,,,,,,,,,,,,,,,,W7FJ2V,train_y,blue_star,bottom_left,2025-08-28_16h30.51.234,HideSeek_v1,2022.2.5,59.95376366832856,
,4,3,4,4,0,1,62,,train_dim1_1,13,30,,,,2,0,2,0,,,,,,,,,0,0,0,0,0,12,12,12,1,0,1,0,,,,,,,,,,,,,,,,,,,,,,,,,,,,,,,,,,,,,,,,,,,,,,,,,,,,,,,,,,,,,,,,30,,,,,,,,1646.1520724999718,1646.1520724999718,1646.1520724999718,1646.1520724999718,1646.1520724999718,left,0.24310760013759136,4,0,0,99,0.0,-0.16,left,0.15903460001572967,,,,,,,,,,,,,,,,,,,,,,,,,,,,,,,,,,,,,,,,,,,,,,,,,,,,,,,,,,,,W7FJ2V,train_y,blue_star,bottom_left,2025-08-28_16h30.51.234,HideSeek_v1,2022.2.5,59.95376366832856,
,4,3,4,4,0,1,62,,train_dim1_1,13,30,,,,2,0,2,0,,,,,,,,,0,0,0,0,0,12,12,12,2,0,2,0,,,,,,,,,,,,,,,,,,,,,,,,,,,,,,,,,,,,,,,,,,,,,,,,,,,,,,,,,,,,,,,,30,,,,,,,,1646.4036809999961,1646.4036809999961,1646.4036809999961,1646.4036809999961,1646.4036809999961,return,1.0271431999281049,4,0,0,0,0.0,-0.16,return,0.9436182000208646,14,0,0.0,-0.16,,,,,,,,,,,,,,,,,,,,,,,,,,,,,,,,,,,,,,,,,,,,,,,,,,,,,,,,W7FJ2V,train_y,blue_star,bottom_left,2025-08-28_16h30.51.234,HideSeek_v1,2022.2.5,59.95376366832856,
,2,2,2,7,0,5,66,,train_dim1_1,14,30,,,,2,0,2,0,,,,,,,,,0,0,0,0,0,13,13,13,0,0,0,0,,,,,,,,,,,,,,,,,,,,,,,,,stimuli/alien_stimuli/66.png,,,,,,,,,,,,,,,,,,,,,,,,,,,,,stimuli/alien_stimuli/62.png,62,4,15,,,,,,,30,,,,,,,,1651.8278793999925,1651.8278793999925,1651.8278793999925,1651.8278793999925,1651.8278793999925,up,2.339295699959621,4,0,0,99,0,-0.15999999999999998,up,2.2535392998252064,,,,,1650.2747079001274,1651.8278793999925,0.16,-0.08,0.08,0.0,-0.12,0.16,0.16,0.16,-0.08,1648.9843719000928,1648.9843719000928,1648.9843719000928,1648.9843719000928,1648.9843719000928,1648.9843719000928,1648.9843719000928,1648.9843719000928,1648.9738750202582,1.3868328998796642,return,1.2736958998721093,,,,,,,,,,,,,,,,,,,,,,,,,,,,,,,,,W7FJ2V,train_y,blue_star,bottom_left,2025-08-28_16h30.51.234,HideSeek_v1,2022.2.5,59.95376366832856,
,2,2,2,7,0,5,66,,train_dim1_1,14,30,,,,2,0,2,0,,,,,,,,,0,0,0,0,0,13,13,13,1,0,1,0,,,,,,,,,,,,,,,,,,,,,,,,,,,,,,,,,,,,,,,,,,,,,,,,,,,,,,,,,,,,,,,,30,,,,,,,,1654.1745519000106,1654.1745519000106,1654.1745519000106,1654.1745519000106,1654.1745519000106,up,1.177061599912122,4,0,0,99,0,-0.07999999999999997,up,1.1001571000088006,,,,,,,,,,,,,,,,,,,,,,,,,,,,,,,,,,,,,,,,,,,,,,,,,,,,,,,,,,,,W7FJ2V,train_y,blue_star,bottom_left,2025-08-28_16h30.51.234,HideSeek_v1,2022.2.5,59.95376366832856,
,2,2,2,7,0,5,66,,train_dim1_1,14,30,,,,2,0,2,0,,,,,,,,,0,0,0,0,0,13,13,13,2,0,2,0,,,,,,,,,,,,,,,,,,,,,,,,,,,,,,,,,,,,,,,,,,,,,,,,,,,,,,,,,,,,,,,,30,,,,,,,,1655.3590253000148,1655.3590253000148,1655.3590253000148,1655.3590253000148,1655.3590253000148,up,0.7269674998242408,4,0,0,99,0,2.7755575615628914e-17,up,0.645330399973318,,,,,,,,,,,,,,,,,,,,,,,,,,,,,,,,,,,,,,,,,,,,,,,,,,,,,,,,,,,,W7FJ2V,train_y,blue_star,bottom_left,2025-08-28_16h30.51.234,HideSeek_v1,2022.2.5,59.95376366832856,
,2,2,2,7,0,5,66,,train_dim1_1,14,30,,,,2,0,2,0,,,,,,,,,0,0,0,0,0,13,13,13,3,0,3,0,,,,,,,,,,,,,,,,,,,,,,,,,,,,,,,,,,,,,,,,,,,,,,,,,,,,,,,,,,,,,,,,30,,,,,,,,1656.0928478999995,1656.0928478999995,1656.0928478999995,1656.0928478999995,1656.0928478999995,up,1.6944243998732418,4,0,0,99,0,0.08000000000000003,up,1.6133067000191659,,,,,,,,,,,,,,,,,,,,,,,,,,,,,,,,,,,,,,,,,,,,,,,,,,,,,,,,,,,,W7FJ2V,train_y,blue_star,bottom_left,2025-08-28_16h30.51.234,HideSeek_v1,2022.2.5,59.95376366832856,
,2,2,2,7,0,5,66,,train_dim1_1,14,30,,,,2,0,2,0,,,,,,,,,0,0,0,0,0,13,13,13,4,0,4,0,,,,,,,,,,,,,,,,,,,,,,,,,,,,,,,,,,,,,,,,,,,,,,,,,,,,,,,,,,,,,,,,30,,,,,,,,1657.7945626999717,1657.7945626999717,1657.7945626999717,1657.7945626999717,1657.7945626999717,up,0.4767856001853943,4,0,0,99,0,0.16000000000000003,up,0.38903189986012876,,,,,,,,,,,,,,,,,,,,,,,,,,,,,,,,,,,,,,,,,,,,,,,,,,,,,,,,,,,,W7FJ2V,train_y,blue_star,bottom_left,2025-08-28_16h30.51.234,HideSeek_v1,2022.2.5,59.95376366832856,
,2,2,2,7,0,5,66,,train_dim1_1,14,30,,,,2,0,2,0,,,,,,,,,0,0,0,0,0,13,13,13,5,0,5,0,,,,,,,,,,,,,,,,,,,,,,,,,,,,,,,,,,,,,,,,,,,,,,,,,,,,,,,,,,,,,,,,30,,,,,,,,1658.279537800001,1658.279537800001,1658.279537800001,1658.279537800001,1658.279537800001,return,0.47674859990365803,5,0,0,1,0,0.16000000000000003,return,0.39157110010273755,19,0,0,0.16000000000000003,,,,,,,,,,,,,,,,,,,,,,,,,,,,,,,,,,,,,,,,,,,,,,,,,,,,,,,,W7FJ2V,train_y,blue_star,bottom_left,2025-08-28_16h30.51.234,HideSeek_v1,2022.2.5,59.95376366832856,
,1,4,1,7,0,3,64,,train_dim1_1,15,30,,,,2,0,2,0,,,,,,,,,0,0,0,0,0,14,14,14,0,0,0,0,,,,,,,,,,,,,,,,,,,,,,,,,stimuli/alien_stimuli/64.png,,,,,,,,,,,,,,,,,,,,,,,,,,,,,stimuli/alien_stimuli/66.png,66,2,16,,,,,,,30,,,,,,,,1662.5361971999519,1662.5361971999519,1662.5361971999519,1662.5361971999519,1662.5361971999519,right,2.856826800154522,5,0,0,99,0.0,-0.08,right,2.7809636001475155,,,,,1660.983847900061,1662.5361971999519,0,0.16,0.4,0.0,-0.039999999999999994,0,0.0,0,0.16,1660.3085568000097,1660.3085568000097,1660.3085568000097,1660.3085568000097,1660.3085568000097,1660.3085568000097,1660.3085568000097,1660.3085568000097,1660.2996146202554,0.769507700111717,return,0.6560953001026064,,,,,,,,,,,,,,,,,,,,,,,,,,,,,,,,,W7FJ2V,train_y,blue_star,bottom_left,2025-08-28_16h30.51.234,HideSeek_v1,2022.2.5,59.95376366832856,
,1,4,1,7,0,3,64,,train_dim1_1,15,30,,,,2,0,2,0,,,,,,,,,0,0,0,0,0,14,14,14,1,0,1,0,,,,,,,,,,,,,,,,,,,,,,,,,,,,,,,,,,,,,,,,,,,,,,,,,,,,,,,,,,,,,,,,30,,,,,,,,1665.4007133000996,1665.4007133000996,1665.4007133000996,1665.4007133000996,1665.4007133000996,right,0.32613339996896684,5,0,0,99,0.08,-0.08,right,0.25453499983996153,,,,,,,,,,,,,,,,,,,,,,,,,,,,,,,,,,,,,,,,,,,,,,,,,,,,,,,,,,,,W7FJ2V,train_y,blue_star,bottom_left,2025-08-28_16h30.51.234,HideSeek_v1,2022.2.5,59.95376366832856,
,1,4,1,7,0,3,64,,train_dim1_1,15,30,,,,2,0,2,0,,,,,,,,,0,0,0,0,0,14,14,14,2,0,2,0,,,,,,,,,,,,,,,,,,,,,,,,,,,,,,,,,,,,,,,,,,,,,,,,,,,,,,,,,,,,,,,,30,,,,,,,,1665.7346833001357,1665.7346833001357,1665.7346833001357,1665.7346833001357,1665.7346833001357,right,0.9940269999206066,5,0,0,99,0.16,-0.08,right,0.9094952999148518,,,,,,,,,,,,,,,,,,,,,,,,,,,,,,,,,,,,,,,,,,,,,,,,,,,,,,,,,,,,W7FJ2V,train_y,blue_star,bottom_left,2025-08-28_16h30.51.234,HideSeek_v1,2022.2.5,59.95376366832856,
,1,4,1,7,0,3,64,,train_dim1_1,15,30,,,,2,0,2,0,,,,,,,,,0,0,0,0,0,14,14,14,3,0,3,0,,,,,,,,,,,,,,,,,,,,,,,,,,,,,,,,,,,,,,,,,,,,,,,,,,,,,,,,,,,,,,,,30,,,,,,,,1666.736376099987,1666.736376099987,1666.736376099987,1666.736376099987,1666.736376099987,return,0.40880790003575385,5,0,0,0,0.16,-0.08,return,0.33096159994602203,19,3,0.16,-0.08,,,,,,,,,,,,,,,,,,,,,,,,,,,,,,,,,,,,,,,,,,,,,,,,,,,,,,,,W7FJ2V,train_y,blue_star,bottom_left,2025-08-28_16h30.51.234,HideSeek_v1,2022.2.5,59.95376366832856,
,4,0,4,4,0,4,65,,train_dim1_1,16,30,,,,2,0,2,0,,,,,,,,,0,0,0,0,0,15,15,15,0,0,0,0,,,,,,,,,,,,,,,,,,,,,,,,,stimuli/alien_stimuli/65.png,,,,,,,,,,,,,,,,,,,,,,,,,,,,,stimuli/alien_stimuli/64.png,64,1,17,,,,,,,30,,,,,,,,1671.0976340000052,1671.0976340000052,1671.0976340000052,1671.0976340000052,1671.0976340000052,up,1.1181747000664473,5,0,0,99,0.16,-0.32,up,1.0465597999282181,,,,,1669.5406752000563,1671.0976340000052,-0.08,0.16,0.24,0.0,0.04,-0.08,-0.08,-0.08,0.16,1668.7018671999685,1668.7018671999685,1668.7018671999685,1668.7018671999685,1668.7018671999685,1668.7018671999685,1668.7018671999685,1668.7018671999685,1668.6900208202192,0.9363438999280334,return,0.8141187999863178,,,,,,,,,,,,,,,,,,,,,,,,,,,,,,,,,W7FJ2V,train_y,blue_star,bottom_left,2025-08-28_16h30.51.234,HideSeek_v1,2022.2.5,59.95376366832856,
,4,0,4,4,0,4,65,,train_dim1_1,16,30,,,,2,0,2,0,,,,,,,,,0,0,0,0,0,15,15,15,1,0,1,0,,,,,,,,,,,,,,,,,,,,,,,,,,,,,,,,,,,,,,,,,,,,,,,,,,,,,,,,,,,,,,,,30,,,,,,,,1672.223533899989,1672.223533899989,1672.223533899989,1672.223533899989,1672.223533899989,up,0.40872780000790954,5,0,0,99,0.16,-0.24,up,0.3318028999492526,,,,,,,,,,,,,,,,,,,,,,,,,,,,,,,,,,,,,,,,,,,,,,,,,,,,,,,,,,,,W7FJ2V,train_y,blue_star,bottom_left,2025-08-28_16h30.51.234,HideSeek_v1,2022.2.5,59.95376366832856,
,4,0,4,4,0,4,65,,train_dim1_1,16,30,,,,2,0,2,0,,,,,,,,,0,0,0,0,0,15,15,15,2,0,2,0,,,,,,,,,,,,,,,,,,,,,,,,,,,,,,,,,,,,,,,,,,,,,,,,,,,,,,,,,,,,,,,,30,,,,,,,,1672.6387525999453,1672.6387525999453,1672.6387525999453,1672.6387525999453,1672.6387525999453,up,0.37705580005422235,5,0,0,99,0.16,-0.15999999999999998,up,0.29582219989970326,,,,,,,,,,,,,,,,,,,,,,,,,,,,,,,,,,,,,,,,,,,,,,,,,,,,,,,,,,,,W7FJ2V,train_y,blue_star,bottom_left,2025-08-28_16h30.51.234,HideSeek_v1,2022.2.5,59.95376366832856,
,4,0,4,4,0,4,65,,train_dim1_1,16,30,,,,2,0,2,0,,,,,,,,,0,0,0,0,0,15,15,15,3,0,3,0,,,,,,,,,,,,,,,,,,,,,,,,,,,,,,,,,,,,,,,,,,,,,,,,,,,,,,,,,,,,,,,,30,,,,,,,,1673.0230938000605,1673.0230938000605,1673.0230938000605,1673.0230938000605,1673.0230938000605,up,0.39334750012494624,5,0,0,99,0.16,-0.07999999999999997,up,0.3094909999053925,,,,,,,,,,,,,,,,,,,,,,,,,,,,,,,,,,,,,,,,,,,,,,,,,,,,,,,,,,,,W7FJ2V,train_y,blue_star,bottom_left,2025-08-28_16h30.51.234,HideSeek_v1,2022.2.5,59.95376366832856,
,4,0,4,4,0,4,65,,train_dim1_1,16,30,,,,2,0,2,0,,,,,,,,,0,0,0,0,0,15,15,15,4,0,4,0,,,,,,,,,,,,,,,,,,,,,,,,,,,,,,,,,,,,,,,,,,,,,,,,,,,,,,,,,,,,,,,,30,,,,,,,,1673.4245380000211,1673.4245380000211,1673.4245380000211,1673.4245380000211,1673.4245380000211,up,1.093810300109908,5,0,0,99,0.16,2.7755575615628914e-17,up,1.0180057999677956,,,,,,,,,,,,,,,,,,,,,,,,,,,,,,,,,,,,,,,,,,,,,,,,,,,,,,,,,,,,W7FJ2V,train_y,blue_star,bottom_left,2025-08-28_16h30.51.234,HideSeek_v1,2022.2.5,59.95376366832856,
,4,0,4,4,0,4,65,,train_dim1_1,16,30,,,,2,0,2,0,,,,,,,,,0,0,0,0,0,15,15,15,5,0,5,0,,,,,,,,,,,,,,,,,,,,,,,,,,,,,,,,,,,,,,,,,,,,,,,,,,,,,,,,,,,,,,,,30,,,,,,,,1674.5304412001278,1674.5304412001278,1674.5304412001278,1674.5304412001278,1674.5304412001278,return,1.2102374997921288,5,1,0,0,0.16,2.7755575615628914e-17,return,1.1205079001374543,24,3,0.16,2.7755575615628914e-17,,,,,,,,,,,,,,,,,,,,,,,,,,,,,,,,,,,,,,,,,,,,,,,,,,,,,,,,W7FJ2V,train_y,blue_star,bottom_left,2025-08-28_16h30.51.234,HideSeek_v1,2022.2.5,59.95376366832856,
,3,3,3,6,0,3,64,,train_dim1_1,17,30,,,,2,0,2,0,,,,,,,,,0,0,0,0,0,16,16,16,0,0,0,0,,,,,,,,,,,,,,,,,,,,,,,,,stimuli/alien_stimuli/64.png,,,,,,,,,,,,,,,,,,,,,,,,,,,,,stimuli/alien_stimuli/65.png,65,4,18,,,,,,,30,,,,,,,,1679.901614600094,1679.901614600094,1679.901614600094,1679.901614600094,1679.901614600094,up,2.539128900039941,5,1,0,99,0.08,-0.08,up,2.459413400152698,,,,,1678.3482781001367,1679.901614600094,0.16,-0.08,0.32,0.0,-0.24000000000000002,0.16,0.16,0.16,-0.08,1677.288879300002,1677.288879300002,1677.288879300002,1677.288879300002,1677.288879300002,1677.288879300002,1677.288879300002,1677.288879300002,1677.2805176201277,1.153455700026825,return,1.0422793999314308,,,,,,,,,,,,,,,,,,,,,,,,,,,,,,,,,W7FJ2V,train_y,blue_star,bottom_left,2025-08-28_16h30.51.234,HideSeek_v1,2022.2.5,59.95376366832856,
,3,3,3,6,0,3,64,,train_dim1_1,17,30,,,,2,0,2,0,,,,,,,,,0,0,0,0,0,16,16,16,1,0,1,0,,,,,,,,,,,,,,,,,,,,,,,,,,,,,,,,,,,,,,,,,,,,,,,,,,,,,,,,,,,,,,,,30,,,,,,,,1682.448523200117,1682.448523200117,1682.448523200117,1682.448523200117,1682.448523200117,up,0.34219620004296303,5,1,0,99,0.08,0.0,up,0.2569682998582721,,,,,,,,,,,,,,,,,,,,,,,,,,,,,,,,,,,,,,,,,,,,,,,,,,,,,,,,,,,,W7FJ2V,train_y,blue_star,bottom_left,2025-08-28_16h30.51.234,HideSeek_v1,2022.2.5,59.95376366832856,
,3,3,3,6,0,3,64,,train_dim1_1,17,30,,,,2,0,2,0,,,,,,,,,0,0,0,0,0,16,16,16,2,0,2,0,,,,,,,,,,,,,,,,,,,,,,,,,,,,,,,,,,,,,,,,,,,,,,,,,,,,,,,,,,,,,,,,30,,,,,,,,1682.7983174999245,1682.7983174999245,1682.7983174999245,1682.7983174999245,1682.7983174999245,up,1.0772205998655409,5,1,0,99,0.08,0.08,up,1.004270999925211,,,,,,,,,,,,,,,,,,,,,,,,,,,,,,,,,,,,,,,,,,,,,,,,,,,,,,,,,,,,W7FJ2V,train_y,blue_star,bottom_left,2025-08-28_16h30.51.234,HideSeek_v1,2022.2.5,59.95376366832856,
,3,3,3,6,0,3,64,,train_dim1_1,17,30,,,,2,0,2,0,,,,,,,,,0,0,0,0,0,16,16,16,3,0,3,0,,,,,,,,,,,,,,,,,,,,,,,,,,,,,,,,,,,,,,,,,,,,,,,,,,,,,,,,,,,,,,,,30,,,,,,,,1683.8818783001043,1683.8818783001043,1683.8818783001043,1683.8818783001043,1683.8818783001043,return,1.0938040998298675,6,0,0,1,0.08,0.08,return,1.0135118998587132,27,3,0.08,0.08,,,,,,,,,,,,,,,,,,,,,,,,,,,,,,,,,,,,,,,,,,,,,,,,,,,,,,,,W7FJ2V,train_y,blue_star,bottom_left,2025-08-28_16h30.51.234,HideSeek_v1,2022.2.5,59.95376366832856,
,2,1,2,1,0,0,61,,train_dim1_1,18,30,,,,2,0,2,0,,,,,,,,,0,0,0,0,0,17,17,17,0,0,0,0,,,,,,,,,,,,,,,,,,,,,,,,,stimuli/alien_stimuli/61.png,,,,,,,,,,,,,,,,,,,,,,,,,,,,,stimuli/alien_stimuli/64.png,64,3,19,,,,,,,30,,,,,,,,1688.8078342999797,1688.8078342999797,1688.8078342999797,1688.8078342999797,1688.8078342999797,return,1.8897333000786602,7,0,0,1,0,-0.32,return,1.8123812000267208,27,3,0,-0.32,1687.2556084999815,1688.8078342999797,0.08,0.08,0.24,0.0,-0.04,0.08,0.08,0.08,0.08,1686.5285780001432,1686.5285780001432,1686.5285780001432,1686.5285780001432,1686.5285780001432,1686.5285780001432,1686.5285780001432,1686.5285780001432,1686.5214994201438,0.8194444999098778,return,0.7029103999957442,,,,,,,,,,,,,,,,,,,,,,,,,,,,,,,,,W7FJ2V,train_y,blue_star,bottom_left,2025-08-28_16h30.51.234,HideSeek_v1,2022.2.5,59.95376366832856,
,0,4,0,5,0,1,62,,train_dim1_1,19,30,,,,2,0,2,0,,,,,,,,,0,0,0,0,0,18,18,18,0,0,0,0,,,,,,,,,,,,,,,,,,,,,,,,,stimuli/alien_stimuli/62.png,,,,,,,,,,,,,,,,,,,,,,,,,,,,,stimuli/alien_stimuli/61.png,61,2,20,,,,,,,30,,,,,,,,1694.5782461001072,1694.5782461001072,1694.5782461001072,1694.5782461001072,1694.5782461001072,down,3.9426608001813293,7,0,0,99,-0.16,-0.16,down,3.856318200007081,,,,,1693.0280454999302,1694.5782461001072,0,-0.32,0.0,0.0,-0.32,0,0.0,0,-0.32,1692.2525249000173,1692.2525249000173,1692.2525249000173,1692.2525249000173,1692.2525249000173,1692.2525249000173,1692.2525249000173,1692.2525249000173,1692.243228520127,0.8718250000383705,return,0.7436542001087219,,,,,,,,,,,,,,,,,,,,,,,,,,,,,,,,,W7FJ2V,train_y,blue_star,bottom_left,2025-08-28_16h30.51.234,HideSeek_v1,2022.2.5,59.95376366832856,
,0,4,0,5,0,1,62,,train_dim1_1,19,30,,,,2,0,2,0,,,,,,,,,0,0,0,0,0,18,18,18,1,0,1,0,,,,,,,,,,,,,,,,,,,,,,,,,,,,,,,,,,,,,,,,,,,,,,,,,,,,,,,,,,,,,,,,30,,,,,,,,1698.5287371999584,1698.5287371999584,1698.5287371999584,1698.5287371999584,1698.5287371999584,return,0.743284699972719,7,0,0,0,-0.16,-0.16,return,0.6618926001247019,26,3,-0.16,-0.16,,,,,,,,,,,,,,,,,,,,,,,,,,,,,,,,,,,,,,,,,,,,,,,,,,,,,,,,W7FJ2V,train_y,blue_star,bottom_left,2025-08-28_16h30.51.234,HideSeek_v1,2022.2.5,59.95376366832856,
,2,0,2,5,0,5,66,,train_dim1_1,20,30,,,,2,0,2,0,,,,,,,,,0,0,0,0,0,19,19,19,0,0,0,0,,,,,,,,,,,,,,,,,,,,,,,,,stimuli/alien_stimuli/66.png,,,,,,,,,,,,,,,,,,,,,,,,,,,,,stimuli/alien_stimuli/62.png,62,0,21,,,,,,,30,,,,,,,,1703.4420390999876,1703.4420390999876,1703.4420390999876,1703.4420390999876,1703.4420390999876,up,1.2517812999431044,7,0,0,99,0,-0.32,up,1.1789959999732673,,,,,1701.8845059000887,1703.4420390999876,-0.16,0,0.08,0.0,-0.04,-0.16,-0.16,-0.16,0,1700.8243347001262,1700.8243347001262,1700.8243347001262,1700.8243347001262,1700.8243347001262,1700.8243347001262,1700.8243347001262,1700.8243347001262,1700.816843220126,1.1529032997786999,return,1.0390507001429796,,,,,,,,,,,,,,,,,,,,,,,,,,,,,,,,,W7FJ2V,train_y,blue_star,bottom_left,2025-08-28_16h30.51.234,HideSeek_v1,2022.2.5,59.95376366832856,
,2,0,2,5,0,5,66,,train_dim1_1,20,30,,,,2,0,2,0,,,,,,,,,0,0,0,0,0,19,19,19,1,0,1,0,,,,,,,,,,,,,,,,,,,,,,,,,,,,,,,,,,,,,,,,,,,,,,,,,,,,,,,,,,,,,,,,30,,,,,,,,1704.7014627000317,1704.7014627000317,1704.7014627000317,1704.7014627000317,1704.7014627000317,up,0.4096211001742631,7,0,0,99,0,-0.24,up,0.3323758998885751,,,,,,,,,,,,,,,,,,,,,,,,,,,,,,,,,,,,,,,,,,,,,,,,,,,,,,,,,,,,W7FJ2V,train_y,blue_star,bottom_left,2025-08-28_16h30.51.234,HideSeek_v1,2022.2.5,59.95376366832856,
,2,0,2,5,0,5,66,,train_dim1_1,20,30,,,,2,0,2,0,,,,,,,,,0,0,0,0,0,19,19,19,2,0,2,0,,,,,,,,,,,,,,,,,,,,,,,,,,,,,,,,,,,,,,,,,,,,,,,,,,,,,,,,,,,,,,,,30,,,,,,,,1705.117495500017,1705.117495500017,1705.117495500017,1705.117495500017,1705.117495500017,up,1.1104514000471681,7,0,0,99,0,-0.15999999999999998,up,1.032281099818647,,,,,,,,,,,,,,,,,,,,,,,,,,,,,,,,,,,,,,,,,,,,,,,,,,,,,,,,,,,,W7FJ2V,train_y,blue_star,bottom_left,2025-08-28_16h30.51.234,HideSeek_v1,2022.2.5,59.95376366832856,
,2,0,2,5,0,5,66,,train_dim1_1,20,30,,,,2,0,2,0,,,,,,,,,0,0,0,0,0,19,19,19,3,0,3,0,,,,,,,,,,,,,,,,,,,,,,,,,,,,,,,,,,,,,,,,,,,,,,,,,,,,,,,,,,,,,,,,30,,,,,,,,1706.2350532000419,1706.2350532000419,1706.2350532000419,1706.2350532000419,1706.2350532000419,up,0.42619699984788895,7,0,0,99,0,-0.07999999999999997,up,0.34140080003999174,,,,,,,,,,,,,,,,,,,,,,,,,,,,,,,,,,,,,,,,,,,,,,,,,,,,,,,,,,,,W7FJ2V,train_y,blue_star,bottom_left,2025-08-28_16h30.51.234,HideSeek_v1,2022.2.5,59.95376366832856,
,2,0,2,5,0,5,66,,train_dim1_1,20,30,,,,2,0,2,0,,,,,,,,,0,0,0,0,0,19,19,19,4,0,4,0,,,,,,,,,,,,,,,,,,,,,,,,,,,,,,,,,,,,,,,,,,,,,,,,,,,,,,,,,,,,,,,,30,,,,,,,,1706.6713589001447,1706.6713589001447,1706.6713589001447,1706.6713589001447,1706.6713589001447,up,0.5769154999870807,7,0,0,99,0,2.7755575615628914e-17,up,0.4890749999321997,,,,,,,,,,,,,,,,,,,,,,,,,,,,,,,,,,,,,,,,,,,,,,,,,,,,,,,,,,,,W7FJ2V,train_y,blue_star,bottom_left,2025-08-28_16h30.51.234,HideSeek_v1,2022.2.5,59.95376366832856,
,2,0,2,5,0,5,66,,train_dim1_1,20,30,,,,2,0,2,0,,,,,,,,,0,0,0,0,0,19,19,19,5,0,5,0,,,,,,,,,,,,,,,,,,,,,,,,,,,,,,,,,,,,,,,,,,,,,,,,,,,,,,,,,,,,,,,,30,,,,,,,,1707.2526704999618,1707.2526704999618,1707.2526704999618,1707.2526704999618,1707.2526704999618,return,0.6602181000635028,8,0,0,1,0,2.7755575615628914e-17,return,0.582731599919498,31,3,0,2.7755575615628914e-17,,,,,,,,,,,,,,,,,,,,,,,,,,,,,,,,,,,,,,,,,,,,,,,,,,,,,,,,W7FJ2V,train_y,blue_star,bottom_left,2025-08-28_16h30.51.234,HideSeek_v1,2022.2.5,59.95376366832856,
,2,4,2,8,0,4,65,,train_dim1_1,21,30,,,,2,0,2,0,,,,,,,,,0,0,0,0,0,20,20,20,0,0,0,0,,,,,,,,,,,,,,,,,,,,,,,,,stimuli/alien_stimuli/65.png,,,,,,,,,,,,,,,,,,,,,,,,,,,,,stimuli/alien_stimuli/66.png,66,2,22,,,,,,,30,,,,,,,,1712.043459000066,1712.043459000066,1712.043459000066,1712.043459000066,1712.043459000066,up,1.807128299959004,8,0,0,99,0,0.0,up,1.730514199938625,,,,,1710.4914820000995,1712.043459000066,0,0,0.4,0.0,-0.2,0,0.0,0,0,1709.464423000114,1709.464423000114,1709.464423000114,1709.464423000114,1709.464423000114,1709.464423000114,1709.464423000114,1709.464423000114,1709.4572916201782,1.1198958000168204,return,1.0057431999593973,,,,,,,,,,,,,,,,,,,,,,,,,,,,,,,,,W7FJ2V,train_y,blue_star,bottom_left,2025-08-28_16h30.51.234,HideSeek_v1,2022.2.5,59.95376366832856,
,2,4,2,8,0,4,65,,train_dim1_1,21,30,,,,2,0,2,0,,,,,,,,,0,0,0,0,0,20,20,20,1,0,1,0,,,,,,,,,,,,,,,,,,,,,,,,,,,,,,,,,,,,,,,,,,,,,,,,,,,,,,,,,,,,,,,,30,,,,,,,,1713.8628428000957,1713.8628428000957,1713.8628428000957,1713.8628428000957,1713.8628428000957,up,0.3760082998778671,8,0,0,99,0,0.08,up,0.2829747998621315,,,,,,,,,,,,,,,,,,,,,,,,,,,,,,,,,,,,,,,,,,,,,,,,,,,,,,,,,,,,W7FJ2V,train_y,blue_star,bottom_left,2025-08-28_16h30.51.234,HideSeek_v1,2022.2.5,59.95376366832856,
,2,4,2,8,0,4,65,,train_dim1_1,21,30,,,,2,0,2,0,,,,,,,,,0,0,0,0,0,20,20,20,2,0,2,0,,,,,,,,,,,,,,,,,,,,,,,,,,,,,,,,,,,,,,,,,,,,,,,,,,,,,,,,,,,,,,,,30,,,,,,,,1714.2412495999597,1714.2412495999597,1714.2412495999597,1714.2412495999597,1714.2412495999597,up,0.3933214000426233,8,0,0,99,0,0.16,up,0.3123147999867797,,,,,,,,,,,,,,,,,,,,,,,,,,,,,,,,,,,,,,,,,,,,,,,,,,,,,,,,,,,,W7FJ2V,train_y,blue_star,bottom_left,2025-08-28_16h30.51.234,HideSeek_v1,2022.2.5,59.95376366832856,
,2,4,2,8,0,4,65,,train_dim1_1,21,30,,,,2,0,2,0,,,,,,,,,0,0,0,0,0,20,20,20,3,0,3,0,,,,,,,,,,,,,,,,,,,,,,,,,,,,,,,,,,,,,,,,,,,,,,,,,,,,,,,,,,,,,,,,30,,,,,,,,1714.6416406000499,1714.6416406000499,1714.6416406000499,1714.6416406000499,1714.6416406000499,up,0.5599471998866647,8,0,0,99,0,0.24,up,0.4738660999573767,,,,,,,,,,,,,,,,,,,,,,,,,,,,,,,,,,,,,,,,,,,,,,,,,,,,,,,,,,,,W7FJ2V,train_y,blue_star,bottom_left,2025-08-28_16h30.51.234,HideSeek_v1,2022.2.5,59.95376366832856,
,2,4,2,8,0,4,65,,train_dim1_1,21,30,,,,2,0,2,0,,,,,,,,,0,0,0,0,0,20,20,20,4,0,4,0,,,,,,,,,,,,,,,,,,,,,,,,,,,,,,,,,,,,,,,,,,,,,,,,,,,,,,,,,,,,,,,,30,,,,,,,,1715.2085470000748,1715.2085470000748,1715.2085470000748,1715.2085470000748,1715.2085470000748,up,0.8937488000374287,8,0,0,99,0,0.32,up,0.8062557000666857,,,,,,,,,,,,,,,,,,,,,,,,,,,,,,,,,,,,,,,,,,,,,,,,,,,,,,,,,,,,W7FJ2V,train_y,blue_star,bottom_left,2025-08-28_16h30.51.234,HideSeek_v1,2022.2.5,59.95376366832856,
,2,4,2,8,0,4,65,,train_dim1_1,21,30,,,,2,0,2,0,,,,,,,,,0,0,0,0,0,20,20,20,5,0,5,0,,,,,,,,,,,,,,,,,,,,,,,,,,,,,,,,,,,,,,,,,,,,,,,,,,,,,,,,,,,,,,,,30,,,,,,,,1716.1098736999556,1716.1098736999556,1716.1098736999556,1716.1098736999556,1716.1098736999556,return,0.5096934998873621,8,1,0,0,0,0.32,return,0.43577699991874397,36,3,0,0.32,,,,,,,,,,,,,,,,,,,,,,,,,,,,,,,,,,,,,,,,,,,,,,,,,,,,,,,,W7FJ2V,train_y,blue_star,bottom_left,2025-08-28_16h30.51.234,HideSeek_v1,2022.2.5,59.95376366832856,
,0,2,0,5,0,3,64,,train_dim1_1,22,30,,,,2,0,2,0,,,,,,,,,0,0,0,0,0,21,21,21,0,0,0,0,,,,,,,,,,,,,,,,,,,,,,,,,stimuli/alien_stimuli/64.png,,,,,,,,,,,,,,,,,,,,,,,,,,,,,stimuli/alien_stimuli/65.png,65,2,23,,,,,,,30,,,,,,,,1720.8524712999351,1720.8524712999351,1720.8524712999351,1720.8524712999351,1720.8524712999351,up,1.422016599914059,8,1,0,99,-0.16,-0.15999999999999998,up,1.3495904998853803,,,,,1719.2990753001068,1720.8524712999351,0,0.24,0.32,0.0,0.07999999999999999,0,0.0,0,0.24,1718.189202999929,1718.189202999929,1718.189202999929,1718.189202999929,1718.189202999929,1718.189202999929,1718.189202999929,1718.189202999929,1718.1813022901306,1.2199013999197632,return,1.0785102001391351,,,,,,,,,,,,,,,,,,,,,,,,,,,,,,,,,W7FJ2V,train_y,blue_star,bottom_left,2025-08-28_16h30.51.234,HideSeek_v1,2022.2.5,59.95376366832856,
,0,2,0,5,0,3,64,,train_dim1_1,22,30,,,,2,0,2,0,,,,,,,,,0,0,0,0,0,21,21,21,1,0,1,0,,,,,,,,,,,,,,,,,,,,,,,,,,,,,,,,,,,,,,,,,,,,,,,,,,,,,,,,,,,,,,,,30,,,,,,,,1722.2832625000738,1722.2832625000738,1722.2832625000738,1722.2832625000738,1722.2832625000738,up,0.5754720000550151,8,1,0,99,-0.16,-0.07999999999999997,up,0.4969551998656243,,,,,,,,,,,,,,,,,,,,,,,,,,,,,,,,,,,,,,,,,,,,,,,,,,,,,,,,,,,,W7FJ2V,train_y,blue_star,bottom_left,2025-08-28_16h30.51.234,HideSeek_v1,2022.2.5,59.95376366832856,
,0,2,0,5,0,3,64,,train_dim1_1,22,30,,,,2,0,2,0,,,,,,,,,0,0,0,0,0,21,21,21,2,0,2,0,,,,,,,,,,,,,,,,,,,,,,,,,,,,,,,,,,,,,,,,,,,,,,,,,,,,,,,,,,,,,,,,30,,,,,,,,1722.864459299948,1722.864459299948,1722.864459299948,1722.864459299948,1722.864459299948,up,1.8277404999826103,8,1,0,99,-0.16,2.7755575615628914e-17,up,1.7551985001191497,,,,,,,,,,,,,,,,,,,,,,,,,,,,,,,,,,,,,,,,,,,,,,,,,,,,,,,,,,,,W7FJ2V,train_y,blue_star,bottom_left,2025-08-28_16h30.51.234,HideSeek_v1,2022.2.5,59.95376366832856,
,0,2,0,5,0,3,64,,train_dim1_1,22,30,,,,2,0,2,0,,,,,,,,,0,0,0,0,0,21,21,21,3,0,3,0,,,,,,,,,,,,,,,,,,,,,,,,,,,,,,,,,,,,,,,,,,,,,,,,,,,,,,,,,,,,,,,,30,,,,,,,,1724.7011251000222,1724.7011251000222,1724.7011251000222,1724.7011251000222,1724.7011251000222,return,1.125735400011763,9,0,0,1,-0.16,2.7755575615628914e-17,return,1.0395444000605494,39,3,-0.16,2.7755575615628914e-17,,,,,,,,,,,,,,,,,,,,,,,,,,,,,,,,,,,,,,,,,,,,,,,,,,,,,,,,W7FJ2V,train_y,blue_star,bottom_left,2025-08-28_16h30.51.234,HideSeek_v1,2022.2.5,59.95376366832856,
,0,3,0,3,0,0,61,,train_dim1_1,23,30,,,,2,0,2,0,,,,,,,,,0,0,0,0,0,22,22,22,0,0,0,0,,,,,,,,,,,,,,,,,,,,,,,,,stimuli/alien_stimuli/61.png,,,,,,,,,,,,,,,,,,,,,,,,,,,,,stimuli/alien_stimuli/64.png,64,0,24,,,,,,,30,,,,,,,,1729.7285853000358,1729.7285853000358,1729.7285853000358,1729.7285853000358,1729.7285853000358,return,3.0717694000341,10,0,0,1,-0.16,-0.16,return,2.9947827998548746,39,3,-0.16,-0.16,1728.173074600054,1729.7285853000358,-0.16,0,0.24,0.0,-0.12,-0.16,-0.16,-0.16,0,1727.3803888999391,1727.3803888999391,1727.3803888999391,1727.3803888999391,1727.3803888999391,1727.3803888999391,1727.3803888999391,1727.3803888999391,1727.372332220059,0.8857948000077158,return,0.7712731999345124,,,,,,,,,,,,,,,,,,,,,,,,,,,,,,,,,W7FJ2V,train_y,blue_star,bottom_left,2025-08-28_16h30.51.234,HideSeek_v1,2022.2.5,59.95376366832856,
,3,2,3,7,0,5,66,,train_dim1_1,24,30,,,,2,0,2,0,,,,,,,,,0,0,0,0,0,23,23,23,0,0,0,0,,,,,,,,,,,,,,,,,,,,,,,,,stimuli/alien_stimuli/66.png,,,,,,,,,,,,,,,,,,,,,,,,,,,,,stimuli/alien_stimuli/61.png,61,0,25,,,,,,,30,,,,,,,,1736.5960260999855,1736.5960260999855,1736.5960260999855,1736.5960260999855,1736.5960260999855,up,2.4440929999109358,10,0,0,99,0.08,-0.15999999999999998,up,2.366764400154352,,,,,1735.0286119999364,1736.5960260999855,-0.16,-0.16,0.0,0.0,-0.16,-0.16,-0.16,-0.16,-0.16,1734.3536286000162,1734.3536286000162,1734.3536286000162,1734.3536286000162,1734.3536286000162,1734.3536286000162,1734.3536286000162,1734.3536286000162,1734.3447434202303,0.7692041001282632,return,0.6534156000707299,,,,,,,,,,,,,,,,,,,,,,,,,,,,,,,,,W7FJ2V,train_y,blue_star,bottom_left,2025-08-28_16h30.51.234,HideSeek_v1,2022.2.5,59.95376366832856,
,3,2,3,7,0,5,66,,train_dim1_1,24,30,,,,2,0,2,0,,,,,,,,,0,0,0,0,0,23,23,23,1,0,1,0,,,,,,,,,,,,,,,,,,,,,,,,,,,,,,,,,,,,,,,,,,,,,,,,,,,,,,,,,,,,,,,,30,,,,,,,,1739.0508449999616,1739.0508449999616,1739.0508449999616,1739.0508449999616,1739.0508449999616,up,1.1268939001020044,10,0,0,99,0.08,-0.07999999999999997,up,1.0386691000312567,,,,,,,,,,,,,,,,,,,,,,,,,,,,,,,,,,,,,,,,,,,,,,,,,,,,,,,,,,,,W7FJ2V,train_y,blue_star,bottom_left,2025-08-28_16h30.51.234,HideSeek_v1,2022.2.5,59.95376366832856,
,3,2,3,7,0,5,66,,train_dim1_1,24,30,,,,2,0,2,0,,,,,,,,,0,0,0,0,0,23,23,23,2,0,2,0,,,,,,,,,,,,,,,,,,,,,,,,,,,,,,,,,,,,,,,,,,,,,,,,,,,,,,,,,,,,,,,,30,,,,,,,,1740.1788717999589,1740.1788717999589,1740.1788717999589,1740.1788717999589,1740.1788717999589,up,0.8937484000343829,10,0,0,99,0.08,2.7755575615628914e-17,up,0.8063317001797259,,,,,,,,,,,,,,,,,,,,,,,,,,,,,,,,,,,,,,,,,,,,,,,,,,,,,,,,,,,,W7FJ2V,train_y,blue_star,bottom_left,2025-08-28_16h30.51.234,HideSeek_v1,2022.2.5,59.95376366832856,
,3,2,3,7,0,5,66,,train_dim1_1,24,30,,,,2,0,2,0,,,,,,,,,0,0,0,0,0,23,23,23,3,0,3,0,,,,,,,,,,,,,,,,,,,,,,,,,,,,,,,,,,,,,,,,,,,,,,,,,,,,,,,,,,,,,,,,30,,,,,,,,1741.0811833001208,1741.0811833001208,1741.0811833001208,1741.0811833001208,1741.0811833001208,up,0.4929680998902768,10,0,0,99,0.08,0.08000000000000003,up,0.40491700009442866,,,,,,,,,,,,,,,,,,,,,,,,,,,,,,,,,,,,,,,,,,,,,,,,,,,,,,,,,,,,W7FJ2V,train_y,blue_star,bottom_left,2025-08-28_16h30.51.234,HideSeek_v1,2022.2.5,59.95376366832856,
,3,2,3,7,0,5,66,,train_dim1_1,24,30,,,,2,0,2,0,,,,,,,,,0,0,0,0,0,23,23,23,4,0,4,0,,,,,,,,,,,,,,,,,,,,,,,,,,,,,,,,,,,,,,,,,,,,,,,,,,,,,,,,,,,,,,,,30,,,,,,,,1741.5811377000064,1741.5811377000064,1741.5811377000064,1741.5811377000064,1741.5811377000064,up,0.2933317001443356,10,0,0,99,0.08,0.16000000000000003,up,0.21956669981591403,,,,,,,,,,,,,,,,,,,,,,,,,,,,,,,,,,,,,,,,,,,,,,,,,,,,,,,,,,,,W7FJ2V,train_y,blue_star,bottom_left,2025-08-28_16h30.51.234,HideSeek_v1,2022.2.5,59.95376366832856,
,3,2,3,7,0,5,66,,train_dim1_1,24,30,,,,2,0,2,0,,,,,,,,,0,0,0,0,0,23,23,23,5,0,5,0,,,,,,,,,,,,,,,,,,,,,,,,,,,,,,,,,,,,,,,,,,,,,,,,,,,,,,,,,,,,,,,,30,,,,,,,,1741.880827800138,1741.880827800138,1741.880827800138,1741.880827800138,1741.880827800138,return,0.4931662001181394,11,0,0,1,0.08,0.16000000000000003,return,0.4182796999812126,44,3,0.08,0.16000000000000003,,,,,,,,,,,,,,,,,,,,,,,,,,,,,,,,,,,,,,,,,,,,,,,,,,,,,,,,W7FJ2V,train_y,blue_star,bottom_left,2025-08-28_16h30.51.234,HideSeek_v1,2022.2.5,59.95376366832856,
,3,3,3,4,0,1,62,,train_dim1_1,25,30,,,,2,0,2,0,,,,,,,,,0,0,0,0,0,24,24,24,0,0,0,0,,,,,,,,,,,,,,,,,,,,,,,,,stimuli/alien_stimuli/62.png,,,,,,,,,,,,,,,,,,,,,,,,,,,,,stimuli/alien_stimuli/66.png,66,3,26,,,,,,,30,,,,,,,,1746.3437721000519,1746.3437721000519,1746.3437721000519,1746.3437721000519,1746.3437721000519,up,2.3698332998901606,11,0,0,99,0.08,-0.08,up,2.2894528000615537,,,,,1744.786902599968,1746.3437721000519,0.08,0.16,0.4,0.0,-0.039999999999999994,0.08,0.08,0.08,0.16,1743.9297820001375,1743.9297820001375,1743.9297820001375,1743.9297820001375,1743.9297820001375,1743.9297820001375,1743.9297820001375,1743.9297820001375,1743.9192059201655,0.9529277000110596,return,0.8397741001099348,,,,,,,,,,,,,,,,,,,,,,,,,,,,,,,,,W7FJ2V,train_y,blue_star,bottom_left,2025-08-28_16h30.51.234,HideSeek_v1,2022.2.5,59.95376366832856,
,3,3,3,4,0,1,62,,train_dim1_1,25,30,,,,2,0,2,0,,,,,,,,,0,0,0,0,0,24,24,24,1,0,1,0,,,,,,,,,,,,,,,,,,,,,,,,,,,,,,,,,,,,,,,,,,,,,,,,,,,,,,,,,,,,,,,,30,,,,,,,,1748.7207677001134,1748.7207677001134,1748.7207677001134,1748.7207677001134,1748.7207677001134,return,0.4925148000475019,12,0,0,1,0.08,-0.08,return,0.40588340000249445,45,3,0.08,-0.08,,,,,,,,,,,,,,,,,,,,,,,,,,,,,,,,,,,,,,,,,,,,,,,,,,,,,,,,W7FJ2V,train_y,blue_star,bottom_left,2025-08-28_16h30.51.234,HideSeek_v1,2022.2.5,59.95376366832856,
,4,4,4,7,0,3,64,,train_dim1_1,26,30,,,,2,0,2,0,,,,,,,,,0,0,0,0,0,25,25,25,0,0,0,0,,,,,,,,,,,,,,,,,,,,,,,,,stimuli/alien_stimuli/64.png,,,,,,,,,,,,,,,,,,,,,,,,,,,,,stimuli/alien_stimuli/62.png,62,3,27,,,,,,,30,,,,,,,,1752.9974309999961,1752.9974309999961,1752.9974309999961,1752.9974309999961,1752.9974309999961,up,1.4369917998556048,12,0,0,99,0.16,0.0,up,1.3638800999615341,,,,,1751.4421984001528,1752.9974309999961,0.08,-0.08,0.08,0.0,-0.12,0.08,0.08,0.08,-0.08,1750.7686952999793,1750.7686952999793,1750.7686952999793,1750.7686952999793,1750.7686952999793,1750.7686952999793,1750.7686952999793,1750.7686952999793,1750.7584112201353,0.7689368999563158,return,0.6476249999832362,,,,,,,,,,,,,,,,,,,,,,,,,,,,,,,,,W7FJ2V,train_y,blue_star,bottom_left,2025-08-28_16h30.51.234,HideSeek_v1,2022.2.5,59.95376366832856,
,4,4,4,7,0,3,64,,train_dim1_1,26,30,,,,2,0,2,0,,,,,,,,,0,0,0,0,0,25,25,25,1,0,1,0,,,,,,,,,,,,,,,,,,,,,,,,,,,,,,,,,,,,,,,,,,,,,,,,,,,,,,,,,,,,,,,,30,,,,,,,,1754.4426498000976,1754.4426498000976,1754.4426498000976,1754.4426498000976,1754.4426498000976,up,0.9428599998354912,12,0,0,99,0.16,0.08,up,0.8604518000502139,,,,,,,,,,,,,,,,,,,,,,,,,,,,,,,,,,,,,,,,,,,,,,,,,,,,,,,,,,,,W7FJ2V,train_y,blue_star,bottom_left,2025-08-28_16h30.51.234,HideSeek_v1,2022.2.5,59.95376366832856,
,4,4,4,7,0,3,64,,train_dim1_1,26,30,,,,2,0,2,0,,,,,,,,,0,0,0,0,0,25,25,25,2,0,2,0,,,,,,,,,,,,,,,,,,,,,,,,,,,,,,,,,,,,,,,,,,,,,,,,,,,,,,,,,,,,,,,,30,,,,,,,,1755.3929439999629,1755.3929439999629,1755.3929439999629,1755.3929439999629,1755.3929439999629,up,1.3941450000274926,12,0,0,99,0.16,0.16,up,1.3055465000215918,,,,,,,,,,,,,,,,,,,,,,,,,,,,,,,,,,,,,,,,,,,,,,,,,,,,,,,,,,,,W7FJ2V,train_y,blue_star,bottom_left,2025-08-28_16h30.51.234,HideSeek_v1,2022.2.5,59.95376366832856,
,4,4,4,7,0,3,64,,train_dim1_1,26,30,,,,2,0,2,0,,,,,,,,,0,0,0,0,0,25,25,25,3,0,3,0,,,,,,,,,,,,,,,,,,,,,,,,,,,,,,,,,,,,,,,,,,,,,,,,,,,,,,,,,,,,,,,,30,,,,,,,,1756.7926287001465,1756.7926287001465,1756.7926287001465,1756.7926287001465,1756.7926287001465,return,0.44346460001543164,13,0,0,1,0.16,0.16,return,0.36584230000153184,48,3,0.16,0.16,,,,,,,,,,,,,,,,,,,,,,,,,,,,,,,,,,,,,,,,,,,,,,,,,,,,,,,,W7FJ2V,train_y,blue_star,bottom_left,2025-08-28_16h30.51.234,HideSeek_v1,2022.2.5,59.95376366832856,
,3,4,3,9,0,5,66,,train_dim1_1,27,30,,,,2,0,2,0,,,,,,,,,0,0,0,0,0,26,26,26,0,0,0,0,,,,,,,,,,,,,,,,,,,,,,,,,stimuli/alien_stimuli/66.png,,,,,,,,,,,,,,,,,,,,,,,,,,,,,stimuli/alien_stimuli/64.png,64,4,28,,,,,,,30,,,,,,,,1760.972023700131,1760.972023700131,1760.972023700131,1760.972023700131,1760.972023700131,up,2.803356899879873,13,0,0,99,0.08,0.0,up,2.7255729001481086,,,,,1759.4024265999906,1758.7871336000971,0.16,0.16,0.24,0.0,0.04,0.16,0.16,0.16,0.16,1758.7871336000971,1758.7871336000971,1758.7871336000971,1758.7871336000971,1758.7871336000971,1758.7871336000971,1758.7871336000971,1758.7871336000971,1758.7816686200445,0.7071636999025941,return,0.5875031999312341,,,,,,,,,,,,,,,,,,,,,,,,,,,,,,,,,W7FJ2V,train_y,blue_star,bottom_left,2025-08-28_16h30.51.234,HideSeek_v1,2022.2.5,59.95376366832856,
,3,4,3,9,0,5,66,,train_dim1_1,27,30,,,,2,0,2,0,,,,,,,,,0,0,0,0,0,26,26,26,1,0,1,0,,,,,,,,,,,,,,,,,,,,,,,,,,,,,,,,,,,,,,,,,,,,,,,,,,,,,,,,,,,,,,,,30,,,,,,,,1763.7859859000891,1763.7859859000891,1763.7859859000891,1763.7859859000891,1763.7859859000891,up,0.842922099865973,13,0,0,99,0.08,0.08,up,0.7646197001449764,,,,,,,,,,,,,,,,,,,,,,,,,,,,,,,,,,,,,,,,,,,,,,,,,,,,,,,,,,,,W7FJ2V,train_y,blue_star,bottom_left,2025-08-28_16h30.51.234,HideSeek_v1,2022.2.5,59.95376366832856,
,3,4,3,9,0,5,66,,train_dim1_1,27,30,,,,2,0,2,0,,,,,,,,,0,0,0,0,0,26,26,26,2,0,2,0,,,,,,,,,,,,,,,,,,,,,,,,,,,,,,,,,,,,,,,,,,,,,,,,,,,,,,,,,,,,,,,,30,,,,,,,,1764.6349768000655,1764.6349768000655,1764.6349768000655,1764.6349768000655,1764.6349768000655,up,1.5605856999754906,13,0,0,99,0.08,0.16,up,1.4721788000315428,,,,,,,,,,,,,,,,,,,,,,,,,,,,,,,,,,,,,,,,,,,,,,,,,,,,,,,,,,,,W7FJ2V,train_y,blue_star,bottom_left,2025-08-28_16h30.51.234,HideSeek_v1,2022.2.5,59.95376366832856,
,3,4,3,9,0,5,66,,train_dim1_1,27,30,,,,2,0,2,0,,,,,,,,,0,0,0,0,0,26,26,26,3,0,3,0,,,,,,,,,,,,,,,,,,,,,,,,,,,,,,,,,,,,,,,,,,,,,,,,,,,,,,,,,,,,,,,,30,,,,,,,,1766.201170100132,1766.201170100132,1766.201170100132,1766.201170100132,1766.201170100132,up,0.3934015999548137,13,0,0,99,0.08,0.24,up,0.31046750000678003,,,,,,,,,,,,,,,,,,,,,,,,,,,,,,,,,,,,,,,,,,,,,,,,,,,,,,,,,,,,W7FJ2V,train_y,blue_star,bottom_left,2025-08-28_16h30.51.234,HideSeek_v1,2022.2.5,59.95376366832856,
,3,4,3,9,0,5,66,,train_dim1_1,27,30,,,,2,0,2,0,,,,,,,,,0,0,0,0,0,26,26,26,4,0,4,0,,,,,,,,,,,,,,,,,,,,,,,,,,,,,,,,,,,,,,,,,,,,,,,,,,,,,,,,,,,,,,,,30,,,,,,,,1766.6013950000051,1766.6013950000051,1766.6013950000051,1766.6013950000051,1766.6013950000051,up,0.37637669988907874,13,0,0,99,0.08,0.32,up,0.2927143999841064,,,,,,,,,,,,,,,,,,,,,,,,,,,,,,,,,,,,,,,,,,,,,,,,,,,,,,,,,,,,W7FJ2V,train_y,blue_star,bottom_left,2025-08-28_16h30.51.234,HideSeek_v1,2022.2.5,59.95376366832856,
,3,4,3,9,0,5,66,,train_dim1_1,27,30,,,,2,0,2,0,,,,,,,,,0,0,0,0,0,26,26,26,5,0,5,0,,,,,,,,,,,,,,,,,,,,,,,,,,,,,,,,,,,,,,,,,,,,,,,,,,,,,,,,,,,,,,,,30,,,,,,,,1766.9854367000517,1766.9854367000517,1766.9854367000517,1766.9854367000517,1766.9854367000517,return,0.610146899940446,14,0,0,1,0.08,0.32,return,0.535961200017482,53,3,0.08,0.32,,,,,,,,,,,,,,,,,,,,,,,,,,,,,,,,,,,,,,,,,,,,,,,,,,,,,,,,W7FJ2V,train_y,blue_star,bottom_left,2025-08-28_16h30.51.234,HideSeek_v1,2022.2.5,59.95376366832856,
,4,1,4,1,0,0,61,,train_dim1_1,28,30,,,,2,0,2,0,,,,,,,,,0,0,0,0,0,27,27,27,0,0,0,0,,,,,,,,,,,,,,,,,,,,,,,,,stimuli/alien_stimuli/61.png,,,,,,,,,,,,,,,,,,,,,,,,,,,,,stimuli/alien_stimuli/66.png,66,3,29,,,,,,,30,,,,,,,,1771.5987036000006,1771.5987036000006,1771.5987036000006,1771.5987036000006,1771.5987036000006,return,2.7369263998698443,15,0,0,1,0.16,-0.32,return,2.649267500033602,53,3,0.16,-0.32,1770.0283324001357,1769.1724461000413,0.08,0.32,0.4,0.0,0.12,0.08,0.08,0.08,0.32,1769.1724461000413,1769.1724461000413,1769.1724461000413,1769.1724461000413,1769.1724461000413,1769.1724461000413,1769.1724461000413,1769.1724461000413,1769.1735295602587,0.9741722999606282,return,0.8282974001485854,,,,,,,,,,,,,,,,,,,,,,,,,,,,,,,,,W7FJ2V,train_y,blue_star,bottom_left,2025-08-28_16h30.51.234,HideSeek_v1,2022.2.5,59.95376366832856,
,2,2,2,3,0,1,62,,train_dim1_1,29,30,,,,2,0,2,0,,,,,,,,,0,0,0,0,0,28,28,28,0,0,0,0,,,,,,,,,,,,,,,,,,,,,,,,,stimuli/alien_stimuli/62.png,,,,,,,,,,,,,,,,,,,,,,,,,,,,,stimuli/alien_stimuli/61.png,61,4,30,,,,,,,30,,,,,,,,1778.1510453000665,1778.1510453000665,1778.1510453000665,1778.1510453000665,1778.1510453000665,up,1.7054993000347167,15,0,0,99,0,-0.15999999999999998,up,1.6270192000083625,,,,,1776.5964379000943,1778.1510453000665,0.16,-0.32,0.0,0.0,-0.32,0.16,0.16,0.16,-0.32,1775.8910658000968,1775.8910658000968,1775.8910658000968,1775.8910658000968,1775.8910658000968,1775.8910658000968,1775.8910658000968,1775.8910658000968,1775.8792167202105,0.8031564000993967,return,0.6877452998887748,,,,,,,,,,,,,,,,,,,,,,,,,,,,,,,,,W7FJ2V,train_y,blue_star,bottom_left,2025-08-28_16h30.51.234,HideSeek_v1,2022.2.5,59.95376366832856,
,2,2,2,3,0,1,62,,train_dim1_1,29,30,,,,2,0,2,0,,,,,,,,,0,0,0,0,0,28,28,28,1,0,1,0,,,,,,,,,,,,,,,,,,,,,,,,,,,,,,,,,,,,,,,,,,,,,,,,,,,,,,,,,,,,,,,,30,,,,,,,,1779.8633163000923,1779.8633163000923,1779.8633163000923,1779.8633163000923,1779.8633163000923,return,0.5429968000389636,16,0,0,1,0,-0.15999999999999998,return,0.4707309000659734,54,3,0,-0.15999999999999998,,,,,,,,,,,,,,,,,,,,,,,,,,,,,,,,,,,,,,,,,,,,,,,,,,,,,,,,W7FJ2V,train_y,blue_star,bottom_left,2025-08-28_16h30.51.234,HideSeek_v1,2022.2.5,59.95376366832856,
,0,1,0,5,0,4,65,,train_dim1_1,30,30,,,,2,0,2,0,,,,,,,,,0,0,0,0,0,29,29,29,0,0,0,0,,,,,,,,,,,,,,,,,,,,,,,,,stimuli/alien_stimuli/65.png,,,,,,,,,,,,,,,,,,,,,,,,,,,,,stimuli/alien_stimuli/62.png,62,2,31,,,,,,,30,,,,,,,,1784.3502182001248,1784.3502182001248,1784.3502182001248,1784.3502182001248,1784.3502182001248,up,1.5623221001587808,16,0,0,99,-0.16,-0.24,up,1.4869371000677347,,,,,1782.7848400000948,1784.3502182001248,0,-0.16,0.08,0.0,-0.2,0,0.0,0,-0.16,1781.960913100047,1781.960913100047,1781.960913100047,1781.960913100047,1781.960913100047,1781.960913100047,1781.960913100047,1781.960913100047,1781.9510414200836,0.919254899956286,return,0.795573600102216,,,,,,,,,,,,,,,,,,,,,,,,,,,,,,,,,W7FJ2V,train_y,blue_star,bottom_left,2025-08-28_16h30.51.234,HideSeek_v1,2022.2.5,59.95376366832856,
,0,1,0,5,0,4,65,,train_dim1_1,30,30,,,,2,0,2,0,,,,,,,,,0,0,0,0,0,29,29,29,1,0,1,0,,,,,,,,,,,,,,,,,,,,,,,,,,,,,,,,,,,,,,,,,,,,,,,,,,,,,,,,,,,,,,,,30,,,,,,,,1785.917297200067,1785.917297200067,1785.917297200067,1785.917297200067,1785.917297200067,up,1.1766792999114841,16,0,0,99,-0.16,-0.15999999999999998,up,1.0943434999790043,,,,,,,,,,,,,,,,,,,,,,,,,,,,,,,,,,,,,,,,,,,,,,,,,,,,,,,,,,,,W7FJ2V,train_y,blue_star,bottom_left,2025-08-28_16h30.51.234,HideSeek_v1,2022.2.5,59.95376366832856,
,0,1,0,5,0,4,65,,train_dim1_1,30,30,,,,2,0,2,0,,,,,,,,,0,0,0,0,0,29,29,29,2,0,2,0,,,,,,,,,,,,,,,,,,,,,,,,,,,,,,,,,,,,,,,,,,,,,,,,,,,,,,,,,,,,,,,,30,,,,,,,,1787.10169270006,1787.10169270006,1787.10169270006,1787.10169270006,1787.10169270006,up,0.8267697999253869,16,0,0,99,-0.16,-0.07999999999999997,up,0.7399002998135984,,,,,,,,,,,,,,,,,,,,,,,,,,,,,,,,,,,,,,,,,,,,,,,,,,,,,,,,,,,,W7FJ2V,train_y,blue_star,bottom_left,2025-08-28_16h30.51.234,HideSeek_v1,2022.2.5,59.95376366832856,
,0,1,0,5,0,4,65,,train_dim1_1,30,30,,,,2,0,2,0,,,,,,,,,0,0,0,0,0,29,29,29,3,0,3,0,,,,,,,,,,,,,,,,,,,,,,,,,,,,,,,,,,,,,,,,,,,,,,,,,,,,,,,,,,,,,,,,30,,,,,,,,1787.9361707000062,1787.9361707000062,1787.9361707000062,1787.9361707000062,1787.9361707000062,up,0.32662380021065474,16,0,0,99,-0.16,2.7755575615628914e-17,up,0.24765140004456043,,,,,,,,,,,,,,,,,,,,,,,,,,,,,,,,,,,,,,,,,,,,,,,,,,,,,,,,,,,,W7FJ2V,train_y,blue_star,bottom_left,2025-08-28_16h30.51.234,HideSeek_v1,2022.2.5,59.95376366832856,
,0,1,0,5,0,4,65,,train_dim1_1,30,30,,,,2,0,2,0,,,,,,,,,0,0,0,0,0,29,29,29,4,0,4,0,,,,,,,,,,,,,,,,,,,,,,,,,,,,,,,,,,,,,,,,,,,,,,,,,,,,,,,,,,,,,,,,30,,,,,,,,1788.268797100056,1788.268797100056,1788.268797100056,1788.268797100056,1788.268797100056,up,0.32668380020186305,16,0,0,99,-0.16,0.08000000000000003,up,0.25258199987001717,,,,,,,,,,,,,,,,,,,,,,,,,,,,,,,,,,,,,,,,,,,,,,,,,,,,,,,,,,,,W7FJ2V,train_y,blue_star,bottom_left,2025-08-28_16h30.51.234,HideSeek_v1,2022.2.5,59.95376366832856,
,0,1,0,5,0,4,65,,train_dim1_1,30,30,,,,2,0,2,0,,,,,,,,,0,0,0,0,0,29,29,29,5,0,5,0,,,,,,,,,,,,,,,,,,,,,,,,,,,,,,,,,,,,,,,,,,,,,,,,,,,,,,,,,,,,,,,,30,,,,,,,,1788.6028529999312,1788.6028529999312,1788.6028529999312,1788.6028529999312,1788.6028529999312,return,0.6269431000109762,16,1,0,0,-0.16,0.08000000000000003,return,0.5469497002195567,59,3,-0.16,0.08000000000000003,,,,,,,,,,,,,,,,,,,,,,,,,,,,,,,,,,,,,,,,,,,,,,,,,,,,,,,,W7FJ2V,train_y,blue_star,bottom_left,2025-08-28_16h30.51.234,HideSeek_v1,2022.2.5,59.95376366832856,
,,,,,,,,,,,30,,,,2,0,2,0,,,,,,,,,,,,,,,,,,,,,,,,,,,,,,,,,,,,,,,,,,,,,,,,,,,,,,,,,,,,,,,,,,,,,,,,,,stimuli/alien_stimuli/65.png,65,0,32,21,0.7,0.6666666666666667,1,1,1,30,0,conditions/schedules/train_y_first/blue_star_00/bottom_left/inputTrain_2.1.xlsx,99,1,2,1,0,,,,,,,,,,,0,,,,,,,,,1792.0758998000529,1793.6343245001044,-0.16,0,0.32,0.0,-0.16,-0.16,-0.16,-0.16,0,1790.7844829999376,1790.7844829999376,1790.7844829999376,1790.7844829999376,1790.7844829999376,1790.7844829999376,1790.7844829999376,1790.7844829999376,1790.774830420129,1.3870489001274109,return,1.264121999964118,0,0.9,0,1,16,,,,,,,,,,,,,,,,,,,,,,,,,,,,W7FJ2V,train_y,blue_star,bottom_left,2025-08-28_16h30.51.234,HideSeek_v1,2022.2.5,59.95376366832856,
,,,,,,,,,,,,,,,3,0,3,0,0,0,0,0,,,,,,,,,,,,,,,,,,,,,,,,,,,,,,,conditions/schedules/train_y_first/blue_star_00/bottom_left/instructions/Slide17.png,conditions/schedules/train_y_first/blue_star_00/bottom_left/instructions/Audio17.wav,1793.6343245001044,1793.6272030800117,17,"[7.02072130003944, 18.327493699966, 16.495254199951887, 19.486483399989083, 4.470663300016895, 5.504083999898285, 6.070495499996468, 11.97393500013277, 6.271000399952754, 7.082823500037193, 10.703569800127298, 14.05027629993856, 17.022568099899217, 16.8996671999339, 42.893721599830315, 21.704600600060076, 34.98787260008976]","[0.014438699930906296, 0.000224800081923604, 0.03719279984943569, 0.01484140008687973, 0.03239629999734461, 0.04893149994313717, 0.030837099999189377, 11.973941600183025, 0.03323230007663369, 0.11268220003694296, 0.00022559985518455505, 14.050283399876207, 0.03581300005316734, 16.899674399988726, 0.014051700010895729, 21.704607699997723, 34.987901400076225]",0,,,,,,,,,,,,,,,,,,,,,,,,,,,,,,,,,,,,,,,,,,,,,,,,,,,,,,,,,,,,,,,,,,,,,,,,,,,,,,,,,,,,,,,,,,,,,,,,,,,,,,,,,,,,,,,,,,,,,,,,,,,,W7FJ2V,train_y,blue_star,bottom_left,2025-08-28_16h30.51.234,HideSeek_v1,2022.2.5,59.95376366832856,
,,,,,,,,,,,,,,,3,0,3,0,1,0,1,0,,,,,,,,,,,,,,,,,,,,,,,,,,,,,,,conditions/schedules/train_y_first/blue_star_00/bottom_left/instructions/Slide18.png,conditions/schedules/train_y_first/blue_star_00/bottom_left/instructions/Audio18.wav,1828.7077792999335,1828.7073933201377,18,"[7.02072130003944, 18.327493699966, 16.495254199951887, 19.486483399989083, 4.470663300016895, 5.504083999898285, 6.070495499996468, 11.97393500013277, 6.271000399952754, 7.082823500037193, 10.703569800127298, 14.05027629993856, 17.022568099899217, 16.8996671999339, 42.893721599830315, 21.704600600060076, 34.98787260008976, 6.734723899979144]","[0.014438699930906296, 0.000224800081923604, 0.03719279984943569, 0.01484140008687973, 0.03239629999734461, 0.04893149994313717, 0.030837099999189377, 11.973941600183025, 0.03323230007663369, 0.11268220003694296, 0.00022559985518455505, 14.050283399876207, 0.03581300005316734, 16.899674399988726, 0.014051700010895729, 21.704607699997723, 34.987901400076225, 6.734733199933544]",0,,,,,,,,,,,,,,,,,,,,,,,,,,,,,,,,,,,,,,,,,,,,,,,,,,,,,,,,,,,,,,,,,,,,,,,,,,,,,,,,,,,,,,,,,,,,,,,,,,,,,,,,,,,,,,,,,,,,,,,,,,,,W7FJ2V,train_y,blue_star,bottom_left,2025-08-28_16h30.51.234,HideSeek_v1,2022.2.5,59.95376366832856,
,,,,,,,,,,,,,,,3,0,3,0,2,0,2,0,,,,,,,,,,,,,,,,,,,,,,,,,,,,,,,conditions/schedules/train_y_first/blue_star_00/bottom_left/instructions/Slide19.png,conditions/schedules/train_y_first/blue_star_00/bottom_left/instructions/Audio19.wav,1835.5132528000977,1835.5119576500729,19,"[7.02072130003944, 18.327493699966, 16.495254199951887, 19.486483399989083, 4.470663300016895, 5.504083999898285, 6.070495499996468, 11.97393500013277, 6.271000399952754, 7.082823500037193, 10.703569800127298, 14.05027629993856, 17.022568099899217, 16.8996671999339, 42.893721599830315, 21.704600600060076, 34.98787260008976, 6.734723899979144, 10.171544400043786]","[0.014438699930906296, 0.000224800081923604, 0.03719279984943569, 0.01484140008687973, 0.03239629999734461, 0.04893149994313717, 0.030837099999189377, 11.973941600183025, 0.03323230007663369, 0.11268220003694296, 0.00022559985518455505, 14.050283399876207, 0.03581300005316734, 16.899674399988726, 0.014051700010895729, 21.704607699997723, 34.987901400076225, 6.734733199933544, 10.171551200095564]",0,,,,,,,,,,,,,,,,,,,,,,,,,,,,,,,,,,,,,,,,,,,,,,,,,,,,,,,,,,,,,,,,,,,,,,,,,,,,,,,,,,,,,,,,,,,,,,,,,,,,,,,,,,,,,,,,,,,,,,,,,,,,W7FJ2V,train_y,blue_star,bottom_left,2025-08-28_16h30.51.234,HideSeek_v1,2022.2.5,59.95376366832856,
,,,,,,,,,,,,,,,3,0,3,0,3,0,3,0,,,,,,,,,,,,,,,,,,,,,,,,,,,,,,,conditions/schedules/train_y_first/blue_star_00/bottom_left/instructions/Slide20.png,conditions/schedules/train_y_first/blue_star_00/bottom_left/instructions/Audio20.wav,1845.7556758001447,1845.7537327501923,20,"[7.02072130003944, 18.327493699966, 16.495254199951887, 19.486483399989083, 4.470663300016895, 5.504083999898285, 6.070495499996468, 11.97393500013277, 6.271000399952754, 7.082823500037193, 10.703569800127298, 14.05027629993856, 17.022568099899217, 16.8996671999339, 42.893721599830315, 21.704600600060076, 34.98787260008976, 6.734723899979144, 10.171544400043786, 12.940237199887633]","[0.014438699930906296, 0.000224800081923604, 0.03719279984943569, 0.01484140008687973, 0.03239629999734461, 0.04893149994313717, 0.030837099999189377, 11.973941600183025, 0.03323230007663369, 0.11268220003694296, 0.00022559985518455505, 14.050283399876207, 0.03581300005316734, 16.899674399988726, 0.014051700010895729, 21.704607699997723, 34.987901400076225, 6.734733199933544, 0.01442810008302331, 12.940244399942458]",0,,,,,,,,,,,,,,,,,,,,,,,,,,,,,,,,,,,,,,,,,,,,,,,,,,,,,,,,,,,,,,,,,,,,,,,,,,,,,,,,,,,,,,,,,,,,,,,,,,,,,,,,,,,,,,,,,,,,,,,,,,,,W7FJ2V,train_y,blue_star,bottom_left,2025-08-28_16h30.51.234,HideSeek_v1,2022.2.5,59.95376366832856,
1,4,0,9,0,5,0,11,2,instr_dim1_2,,,,,,3,0,3,0,,,,,0,0,0,0,,,,,,,,,,,,,,,,,,,,,,,,,,,,,,,,,,,,,stimuli/alien_stimuli/11.png,conditions/schedules/train_y_first/blue_star_00/bottom_left/inputInstr_2.xlsx,stimuli/alien_stimuli/11.png,1858.8070827999618,1858.8070827999618,1858.8070827999618,1858.8070827999618,1858.7979067901151,return,10.783960900036618,"[-0.16, -0.08, 0, 0.08, 0.16, 0.24, 0.32, 0.4, 0.48, 0.56]","[-0.4, -0.32, -0.24, -0.16, -0.08, 0, 0.08, 0.16, 0.24, 0.32]",0,0,9,4,0.0,0.4,1869.7924186999444,1869.7924186999444,1869.7924186999444,1869.7924186999444,1869.7924186999444,1869.7924186999444,1869.7924186999444,1869.773636800237,5.739196900045499,return,5.55120399990119,stimuli/alien_stimuli/11.png,11,4,1,,,,,,,,,,,,,,,,,,,,,,,,,,,,,,,,,,,,,,,,,,,,,,,,,,,,,,,,,,,,,,,,,,,,,,,,,,,,,,,,,,,,,,,,,W7FJ2V,train_y,blue_star,bottom_left,2025-08-28_16h30.51.234,HideSeek_v1,2022.2.5,59.95376366832856,
,,,,,,,,,,,30,,,,3,0,3,0,,,,,,,,,,,,,,,,,,,,,,,,,,,,,,,,,,,,,,,,,,,,,,,,,,,,,,,,,,,,,,,,,,,,,,,,,,,,,,21,0.7,0.6666666666666667,1,99,2,30,0,conditions/schedules/train_y_first/blue_star_00/bottom_left/inputTrain_2.1.xlsx,99,1,2,1,0,,,,,,,,,,,,,,,,,,,,,,,,,,,,,,,,,,,,,,,,,,,,,,,,,,,,,,,,,,,,,,,,,,,,,,,,,,,W7FJ2V,train_y,blue_star,bottom_left,2025-08-28_16h30.51.234,HideSeek_v1,2022.2.5,59.95376366832856,
,,,,,,,,,,,,,,,4,0,4,0,0,0,0,0,,,,,,,,,,,,,,,,,,,,,,,,,,,,,,,conditions/schedules/train_y_first/blue_star_00/bottom_left/instructions/Slide21.png,conditions/schedules/train_y_first/blue_star_00/bottom_left/instructions/Audio21.wav,1875.4930829999503,1875.494976430107,21,"[7.02072130003944, 18.327493699966, 16.495254199951887, 19.486483399989083, 4.470663300016895, 5.504083999898285, 6.070495499996468, 11.97393500013277, 6.271000399952754, 7.082823500037193, 10.703569800127298, 14.05027629993856, 17.022568099899217, 16.8996671999339, 42.893721599830315, 21.704600600060076, 34.98787260008976, 6.734723899979144, 10.171544400043786, 12.940237199887633, 13.19474340020679]","[0.014438699930906296, 0.000224800081923604, 0.03719279984943569, 0.01484140008687973, 0.03239629999734461, 0.04893149994313717, 0.030837099999189377, 11.973941600183025, 0.03323230007663369, 0.11268220003694296, 0.00022559985518455505, 14.050283399876207, 0.03581300005316734, 16.899674399988726, 0.014051700010895729, 21.704607699997723, 34.987901400076225, 6.734733199933544, 0.01442810008302331, 12.940244399942458, 13.194752200040966]",0,,,,,,,,,,,,,,,,,,,,,,,,,,,,,,,,,,,,,,,,,,,,,,,,,,,,,,,,,,,,,,,,,,,,,,,,,,,,,,,,,,,,,,,,,,,,,,,,,,,,,,,,,,,,,,,,,,,,,,,,,,,,W7FJ2V,train_y,blue_star,bottom_left,2025-08-28_16h30.51.234,HideSeek_v1,2022.2.5,59.95376366832856,
2,3,2,3,2,0,0,61,2,instr_dim1_2,,,,,,4,0,4,0,,,,,0,0,0,0,,,,,,,,,,,,,,,,,,,,,,,,,,,,,,,,,,,,,stimuli/alien_stimuli/61.png,conditions/schedules/train_y_first/blue_star_00/bottom_left/inputInstr_2.xlsx,stimuli/alien_stimuli/61.png,1888.7793845999986,1888.7793845999986,1888.7793845999986,1888.7793845999986,1888.7729847201613,return,6.437212799908593,"[-0.16, -0.08, 0, 0.08, 0.16, 0.24, 0.32, 0.4, 0.48, 0.56]","[-0.4, -0.32, -0.24, -0.16, -0.08, 0, 0.08, 0.16, 0.24, 0.32]",2,2,3,3,0.0,0.0,1895.384654100053,1895.384654100053,1895.384654100053,1895.384654100053,1895.384654100053,1895.384654100053,1895.384654100053,1895.3616038600915,5.57217159983702,return,5.4006369998678565,stimuli/alien_stimuli/61.png,61,3,2,,,,,,,,,,,,,,,,,,,,,,,,,,,,,,,,,,,,,,,,,,,,,,,,,,,,,,,,,,,,,,,,,,,,,,,,,,,,,,,,,,,,,,,,,W7FJ2V,train_y,blue_star,bottom_left,2025-08-28_16h30.51.234,HideSeek_v1,2022.2.5,59.95376366832856,
,,,,,,,,,,,30,,,,4,0,4,0,,,,,,,,,,,,,,,,,,,,,,,,,,,,,,,,,,,,,,,,,,,,,,,,,,,,,,,,,,,,,,,,,,,,,,,,,,,,,,21,0.7,0.6666666666666667,1,99,2,30,0,conditions/schedules/train_y_first/blue_star_00/bottom_left/inputTrain_2.1.xlsx,99,1,2,1,0,,,,,,,,,,,,,,,,,,,,,,,,,,,,,,,,,,,,,,,,,,,,,,,,,,,,,,,,,,,,,,,,,,,,,,,,,,,W7FJ2V,train_y,blue_star,bottom_left,2025-08-28_16h30.51.234,HideSeek_v1,2022.2.5,59.95376366832856,
,,,,,,,,,,,,,,,5,0,5,0,0,0,0,0,,,,,,,,,,,,,,,,,,,,,,,,,,,,,,,conditions/schedules/train_y_first/blue_star_00/bottom_left/instructions/Slide22.png,conditions/schedules/train_y_first/blue_star_00/bottom_left/instructions/Audio22.wav,1900.9544347000774,1900.9495653301944,22,"[7.02072130003944, 18.327493699966, 16.495254199951887, 19.486483399989083, 4.470663300016895, 5.504083999898285, 6.070495499996468, 11.97393500013277, 6.271000399952754, 7.082823500037193, 10.703569800127298, 14.05027629993856, 17.022568099899217, 16.8996671999339, 42.893721599830315, 21.704600600060076, 34.98787260008976, 6.734723899979144, 10.171544400043786, 12.940237199887633, 13.19474340020679, 30.551245900103822]","[0.014438699930906296, 0.000224800081923604, 0.03719279984943569, 0.01484140008687973, 0.03239629999734461, 0.04893149994313717, 0.030837099999189377, 11.973941600183025, 0.03323230007663369, 0.11268220003694296, 0.00022559985518455505, 14.050283399876207, 0.03581300005316734, 16.899674399988726, 0.014051700010895729, 21.704607699997723, 34.987901400076225, 6.734733199933544, 0.01442810008302331, 12.940244399942458, 13.194752200040966, 30.55125300004147]",0,,,,,,,,,,,,,,,,,,,,,,,,,,,,,,,,,,,,,,,,,,,,,,,,,,,,,,,,,,,,,,,,,,,,,,,,,,,,,,,,,,,,,,,,,,,,,,,,,,,,,,,,,,,,,,,,,,,,,,,,,,,,W7FJ2V,train_y,blue_star,bottom_left,2025-08-28_16h30.51.234,HideSeek_v1,2022.2.5,59.95376366832856,
,2,1,5,1,3,0,31,,train_dim1_2,1,30,,,,5,0,5,0,,,,,,,,,0,0,0,0,0,0,0,0,0,0,0,0,,,,,,,,,,,,,,,,,,,,,,,,,stimuli/alien_stimuli/31.png,,,,,,,,,,,,,,,,,,,,,,,,,,,,,,,,,,,,,,,30,,,,,,,,1931.6094492999837,1931.6094492999837,1931.6094492999837,1931.6094492999837,1931.6094492999837,right,3.5131973999086767,0,1,0,99,0.08,-0.32,right,3.404878000030294,,,,,,,,,,,,,,,,,,,,,,,,,,,,,,,,,,,,,,,,,,,,,,,,,,,,,,,,,,,,W7FJ2V,train_y,blue_star,bottom_left,2025-08-28_16h30.51.234,HideSeek_v1,2022.2.5,59.95376366832856,
,2,1,5,1,3,0,31,,train_dim1_2,1,30,,,,5,0,5,0,,,,,,,,,0,0,0,0,0,0,0,0,1,0,1,0,,,,,,,,,,,,,,,,,,,,,,,,,,,,,,,,,,,,,,,,,,,,,,,,,,,,,,,,,,,,,,,,30,,,,,,,,1935.1146516001318,1935.1146516001318,1935.1146516001318,1935.1146516001318,1935.1146516001318,right,2.578064299887046,0,1,0,99,0.16,-0.32,right,2.4948231999296695,,,,,,,,,,,,,,,,,,,,,,,,,,,,,,,,,,,,,,,,,,,,,,,,,,,,,,,,,,,,W7FJ2V,train_y,blue_star,bottom_left,2025-08-28_16h30.51.234,HideSeek_v1,2022.2.5,59.95376366832856,
,2,1,5,1,3,0,31,,train_dim1_2,1,30,,,,5,0,5,0,,,,,,,,,0,0,0,0,0,0,0,0,2,0,2,0,,,,,,,,,,,,,,,,,,,,,,,,,,,,,,,,,,,,,,,,,,,,,,,,,,,,,,,,,,,,,,,,30,,,,,,,,1937.6957717000041,1937.6957717000041,1937.6957717000041,1937.6957717000041,1937.6957717000041,right,0.44274039985612035,0,1,0,99,0.24,-0.32,right,0.3531732999254018,,,,,,,,,,,,,,,,,,,,,,,,,,,,,,,,,,,,,,,,,,,,,,,,,,,,,,,,,,,,W7FJ2V,train_y,blue_star,bottom_left,2025-08-28_16h30.51.234,HideSeek_v1,2022.2.5,59.95376366832856,
,2,1,5,1,3,0,31,,train_dim1_2,1,30,,,,5,0,5,0,,,,,,,,,0,0,0,0,0,0,0,0,3,0,3,0,,,,,,,,,,,,,,,,,,,,,,,,,,,,,,,,,,,,,,,,,,,,,,,,,,,,,,,,,,,,,,,,30,,,,,,,,1938.1523990000132,1938.1523990000132,1938.1523990000132,1938.1523990000132,1938.1523990000132,return,2.261644799960777,1,0,0,1,0.24,-0.32,return,2.1811132000293583,59,6,0.24,-0.32,,,,,,,,,,,,,,,,,,,,,,,,,,,,,,,,,,,,,,,,,,,,,,,,,,,,,,,,W7FJ2V,train_y,blue_star,bottom_left,2025-08-28_16h30.51.234,HideSeek_v1,2022.2.5,59.95376366832856,
,2,4,7,4,5,0,11,,train_dim1_2,2,30,,,,5,0,5,0,,,,,,,,,0,0,0,0,0,1,1,1,0,0,0,0,,,,,,,,,,,,,,,,,,,,,,,,,stimuli/alien_stimuli/11.png,,,,,,,,,,,,,,,,,,,,,,,,,,,,,stimuli/alien_stimuli/31.png,31,2,3,,,,,,,30,,,,,,,,1944.62435920001,1944.62435920001,1944.62435920001,1944.62435920001,1944.62435920001,right,1.9016028998885304,1,0,0,99,0.08,-0.08,right,1.792236999841407,,,,,1943.0347236001398,1944.62435920001,0.24,-0.32,0.0,0.24,-0.32,0.24,0.12,0.24,-0.32,1942.0117914001457,1942.0117914001457,1942.0117914001457,1942.0117914001457,1942.0117914001457,1942.0117914001457,1942.0117914001457,1942.0117914001457,1942.0007239302156,1.1695575001649559,return,0.9995236999820918,,,,,,,,,,,,,,,,,,,,,,,,,,,,,,,,,W7FJ2V,train_y,blue_star,bottom_left,2025-08-28_16h30.51.234,HideSeek_v1,2022.2.5,59.95376366832856,
,2,4,7,4,5,0,11,,train_dim1_2,2,30,,,,5,0,5,0,,,,,,,,,0,0,0,0,0,1,1,1,1,0,1,0,,,,,,,,,,,,,,,,,,,,,,,,,,,,,,,,,,,,,,,,,,,,,,,,,,,,,,,,,,,,,,,,30,,,,,,,,1946.507103699958,1946.507103699958,1946.507103699958,1946.507103699958,1946.507103699958,right,1.227055200142786,1,0,0,99,0.16,-0.08,right,1.1414443000685424,,,,,,,,,,,,,,,,,,,,,,,,,,,,,,,,,,,,,,,,,,,,,,,,,,,,,,,,,,,,W7FJ2V,train_y,blue_star,bottom_left,2025-08-28_16h30.51.234,HideSeek_v1,2022.2.5,59.95376366832856,
,2,4,7,4,5,0,11,,train_dim1_2,2,30,,,,5,0,5,0,,,,,,,,,0,0,0,0,0,1,1,1,2,0,2,0,,,,,,,,,,,,,,,,,,,,,,,,,,,,,,,,,,,,,,,,,,,,,,,,,,,,,,,,,,,,,,,,30,,,,,,,,1947.742421100149,1947.742421100149,1947.742421100149,1947.742421100149,1947.742421100149,right,0.5927511001937091,1,0,0,99,0.24,-0.08,right,0.5035099000670016,,,,,,,,,,,,,,,,,,,,,,,,,,,,,,,,,,,,,,,,,,,,,,,,,,,,,,,,,,,,W7FJ2V,train_y,blue_star,bottom_left,2025-08-28_16h30.51.234,HideSeek_v1,2022.2.5,59.95376366832856,
