trialInstr,x_fixStart,y_fixStart,x_corrSteps,y_corrSteps,x_nrSteps,y_nrSteps,alienID,trialLength,version,trialTrain,praclen,testlen,trial_label,break_on_off,beforeExpLoop.thisRepN,beforeExpLoop.thisTrialN,beforeExpLoop.thisN,beforeExpLoop.thisIndex,mini_instr_trials.thisRepN,mini_instr_trials.thisTrialN,mini_instr_trials.thisN,mini_instr_trials.thisIndex,instrLoop.thisRepN,instrLoop.thisTrialN,instrLoop.thisN,instrLoop.thisIndex,repeat_prac.thisRepN,repeat_prac.thisTrialN,repeat_prac.thisN,repeat_prac.thisIndex,trainLoop.thisRepN,trainLoop.thisTrialN,trainLoop.thisN,trainLoop.thisIndex,moveLoop_train.thisRepN,moveLoop_train.thisTrialN,moveLoop_train.thisN,moveLoop_train.thisIndex,experiment.thisRepN,experiment.thisTrialN,experiment.thisN,experiment.thisIndex,moveLoop_test.thisRepN,moveLoop_test.thisTrialN,moveLoop_test.thisN,moveLoop_test.thisIndex,mini_instr2_trials.thisRepN,mini_instr2_trials.thisTrialN,mini_instr2_trials.thisN,mini_instr2_trials.thisIndex,start_all_time,url,slideStim,audioStim,slides.started,sounds.started,nextButton.numClicks,nextButton.timesOn,nextButton.timesOff,prev_but.numClicks,prev_but.timesOn,prev_but.timesOff,alienStim,instrFile,alienStim_instr,gridImage_instr.started,startPos_3.started,key_instr.started,alienImage_3.started,sounds_1.started,key_instr.keys,key_instr.rt,all_x,all_y,FBy_corrSteps,FBy_fixStart,FBx_corrSteps,FBx_fixStart,FBy_pathSize_check,FBx_pathSize_check,gridImage_9.started,alienImageFB_3.started,startPosFB_3.started,keyFB_3.started,pathLine_ydir_2.started,pathLine_xdir_2.started,alienFace_3.started,sounds_2.started,RTFB_instr,keyFB_3.keys,keyFB_3.rt,draw_alienStim,draw_alienID,test_x,nrepcount,perfthres,percthres,earlierperf,earlystop,nextPrac,fileidx,praclen,saveACC_train,pracFile,nextPrac_train,addNrep,fileidx_endr,repExp,showearly,gridImage_4.started,startPos.started,movePos.started,key_resp.started,alienImage.started,buttonPress_train,RTchoice_train,cumAcctrain,aCorr,saveACC_choice,corrAns,x_movePos_end,y_movePos_end,key_resp.keys,key_resp.rt,wLy_dir,wLx_dir,x_movePos,y_movePos,text_2.started,text_2.stopped,aft_x_corrPos,aft_y_corrPos,y_pathSize_check,x_pathSize_check,y_pathdirY,x_pathdirY,x_pathdirX,x_corrPos,y_corrPos,gridImage_6.started,alienImageFB_2.started,startPosFB_2.started,movePosFB_2.started,keyFB_2.started,pathLine_xdir.started,pathLine_ydir.started,alienFace.started,sounds_4.started,RT_FBtrain,keyFB_2.keys,keyFB_2.rt,saveACC_pre,ACC,within_saveACC_train,earlystop_wloop,cumAcctrain_check,gridImage_3.started,alienImage_test.started,startPos_test.started,movePos_test.started,key_resp_test.started,wLy_dir_test,wLx_dir_test,buttonPress_test,RTchoice_test,cumAcctest,corrAns_test,key_resp_test.keys,key_resp_test.rt,text_3.started,text_3.stopped,total_time,end_all_time,key_resp_3.keys,slides_2.started,sounds_3.started,nextButton_2.numClicks,nextButton_2.timesOn,nextButton_2.timesOff,prev_but_2.numClicks,prev_but_2.timesOn,prev_but_2.timesOff,bye.started,participant,train_first,00_coordinate,starting corner,date,expName,psychopyVersion,frameRate,
,,,,,,,,,,,,,,,0,0,0,0,0,0,0,0,,,,,,,,,,,,,,,,,,,,,,,,,,,,,start_all_time,testround,conditions/schedules/train_x_first/blue_star_00/bottom_right/instructions/Slide1.png,conditions/schedules/train_x_first/blue_star_00/bottom_right/instructions/Audio1.wav,56.00905839999905,55.94868784953724,1,[7.1061202000128105],[7.106131500040647],0,,,,,,,,,,,,,,,,,,,,,,,,,,,,,,,,,,,,,,,,,,,,,,,,,,,,,,,,,,,,,,,,,,,,,,,,,,,,,,,,,,,,,,,,,,,,,,,,,,,,,,,,,,,,,,,,,,,,,,,,,,,,WGC8YL,train_x,blue_star,bottom_right,2025-10-01_15h03.26.387,HideSeek_v1,2022.2.5,59.928864447394076,
,,,,,,,,,,,,,,,0,0,0,0,1,0,1,0,,,,,,,,,,,,,,,,,,,,,,,,,,,,,,,conditions/schedules/train_x_first/blue_star_00/bottom_right/instructions/Slide2.png,conditions/schedules/train_x_first/blue_star_00/bottom_right/instructions/Audio2.wav,63.13283269997919,63.133776749979006,2,"[7.1061202000128105, 18.881091699993704]","[0.00022330001229420304, 18.88109879998956]",0,,,,,,,,,,,,,,,,,,,,,,,,,,,,,,,,,,,,,,,,,,,,,,,,,,,,,,,,,,,,,,,,,,,,,,,,,,,,,,,,,,,,,,,,,,,,,,,,,,,,,,,,,,,,,,,,,,,,,,,,,,,,WGC8YL,train_x,blue_star,bottom_right,2025-10-01_15h03.26.387,HideSeek_v1,2022.2.5,59.928864447394076,
,,,,,,,,,,,,,,,0,0,0,0,2,0,2,0,,,,,,,,,,,,,,,,,,,,,,,,,,,,,,,conditions/schedules/train_x_first/blue_star_00/bottom_right/instructions/Slide3.png,conditions/schedules/train_x_first/blue_star_00/bottom_right/instructions/Audio3.wav,82.09890789998462,82.09954724002164,3,"[7.1061202000128105, 18.881091699993704, 16.728341899986845]","[0.00022330001229420304, 0.01425020000897348, 16.72834839997813]",0,,,,,,,,,,,,,,,,,,,,,,,,,,,,,,,,,,,,,,,,,,,,,,,,,,,,,,,,,,,,,,,,,,,,,,,,,,,,,,,,,,,,,,,,,,,,,,,,,,,,,,,,,,,,,,,,,,,,,,,,,,,,WGC8YL,train_x,blue_star,bottom_right,2025-10-01_15h03.26.387,HideSeek_v1,2022.2.5,59.928864447394076,
,,,,,,,,,,,,,,,0,0,0,0,3,0,3,0,,,,,,,,,,,,,,,,,,,,,,,,,,,,,,,conditions/schedules/train_x_first/blue_star_00/bottom_right/instructions/Slide4.png,conditions/schedules/train_x_first/blue_star_00/bottom_right/instructions/Audio4.wav,98.91219910001382,98.91293433996616,4,"[7.1061202000128105, 18.881091699993704, 16.728341899986845, 19.58174130000407]","[0.00022330001229420304, 0.01425020000897348, 16.72834839997813, 19.581747699994594]",0,,,,,,,,,,,,,,,,,,,,,,,,,,,,,,,,,,,,,,,,,,,,,,,,,,,,,,,,,,,,,,,,,,,,,,,,,,,,,,,,,,,,,,,,,,,,,,,,,,,,,,,,,,,,,,,,,,,,,,,,,,,,WGC8YL,train_x,blue_star,bottom_right,2025-10-01_15h03.26.387,HideSeek_v1,2022.2.5,59.928864447394076,
,,,,,,,,,,,,,,,0,0,0,0,4,0,4,0,,,,,,,,,,,,,,,,,,,,,,,,,,,,,,,conditions/schedules/train_x_first/blue_star_00/bottom_right/instructions/Slide5.png,conditions/schedules/train_x_first/blue_star_00/bottom_right/instructions/Audio5.wav,118.55506610003067,118.54628086001613,5,"[7.1061202000128105, 18.881091699993704, 16.728341899986845, 19.58174130000407, 5.5769153000437655]","[0.00022330001229420304, 0.01425020000897348, 16.72834839997813, 0.0002099000266753137, 5.576922200038098]",0,,,,,,,,,,,,,,,,,,,,,,,,,,,,,,,,,,,,,,,,,,,,,,,,,,,,,,,,,,,,,,,,,,,,,,,,,,,,,,,,,,,,,,,,,,,,,,,,,,,,,,,,,,,,,,,,,,,,,,,,,,,,WGC8YL,train_x,blue_star,bottom_right,2025-10-01_15h03.26.387,HideSeek_v1,2022.2.5,59.928864447394076,
,,,,,,,,,,,,,,,0,0,0,0,5,0,5,0,,,,,,,,,,,,,,,,,,,,,,,,,,,,,,,conditions/schedules/train_x_first/blue_star_00/bottom_right/instructions/Slide6.png,conditions/schedules/train_x_first/blue_star_00/bottom_right/instructions/Audio6.wav,124.1844222000218,124.18428055999102,6,"[7.1061202000128105, 18.881091699993704, 16.728341899986845, 19.58174130000407, 5.5769153000437655, 5.5360087000299245]","[0.00022330001229420304, 0.01425020000897348, 16.72834839997813, 0.0002099000266753137, 0.03139380004722625, 5.536016800033394]",0,,,,,,,,,,,,,,,,,,,,,,,,,,,,,,,,,,,,,,,,,,,,,,,,,,,,,,,,,,,,,,,,,,,,,,,,,,,,,,,,,,,,,,,,,,,,,,,,,,,,,,,,,,,,,,,,,,,,,,,,,,,,WGC8YL,train_x,blue_star,bottom_right,2025-10-01_15h03.26.387,HideSeek_v1,2022.2.5,59.928864447394076,
,,,,,,,,,,,,,,,0,0,0,0,6,0,6,0,,,,,,,,,,,,,,,,,,,,,,,,,,,,,,,conditions/schedules/train_x_first/blue_star_00/bottom_right/instructions/Slide7.png,conditions/schedules/train_x_first/blue_star_00/bottom_right/instructions/Audio7.wav,129.79266919998918,129.78876014999696,7,"[7.1061202000128105, 18.881091699993704, 16.728341899986845, 19.58174130000407, 5.5769153000437655, 5.5360087000299245, 5.9824249999946915]","[0.00022330001229420304, 0.01425020000897348, 16.72834839997813, 0.0002099000266753137, 0.03139380004722625, 0.03146000002743676, 5.9824315999867395]",0,,,,,,,,,,,,,,,,,,,,,,,,,,,,,,,,,,,,,,,,,,,,,,,,,,,,,,,,,,,,,,,,,,,,,,,,,,,,,,,,,,,,,,,,,,,,,,,,,,,,,,,,,,,,,,,,,,,,,,,,,,,,WGC8YL,train_x,blue_star,bottom_right,2025-10-01_15h03.26.387,HideSeek_v1,2022.2.5,59.928864447394076,
,,,,,,,,,,,,,,,0,0,0,0,7,0,7,0,,,,,,,,,,,,,,,,,,,,,,,,,,,,,,,conditions/schedules/train_x_first/blue_star_00/bottom_right/instructions/Slide8.png,conditions/schedules/train_x_first/blue_star_00/bottom_right/instructions/Audio8.wav,135.82723090000218,135.827275559993,8,"[7.1061202000128105, 18.881091699993704, 16.728341899986845, 19.58174130000407, 5.5769153000437655, 5.5360087000299245, 5.9824249999946915, 12.091149699990638]","[0.00022330001229420304, 0.01425020000897348, 16.72834839997813, 0.0002099000266753137, 0.03139380004722625, 0.03146000002743676, 0.014630199992097914, 12.091156299982686]",0,,,,,,,,,,,,,,,,,,,,,,,,,,,,,,,,,,,,,,,,,,,,,,,,,,,,,,,,,,,,,,,,,,,,,,,,,,,,,,,,,,,,,,,,,,,,,,,,,,,,,,,,,,,,,,,,,,,,,,,,,,,,WGC8YL,train_x,blue_star,bottom_right,2025-10-01_15h03.26.387,HideSeek_v1,2022.2.5,59.928864447394076,
,,,,,,,,,,,,,,,0,0,0,0,8,0,8,0,,,,,,,,,,,,,,,,,,,,,,,,,,,,,,,conditions/schedules/train_x_first/blue_star_00/bottom_right/instructions/Slide9.png,conditions/schedules/train_x_first/blue_star_00/bottom_right/instructions/Audio9.wav,147.98884170001838,147.98742814999423,9,"[7.1061202000128105, 18.881091699993704, 16.728341899986845, 19.58174130000407, 5.5769153000437655, 5.5360087000299245, 5.9824249999946915, 12.091149699990638, 6.2681765999877825]","[0.00022330001229420304, 0.01425020000897348, 16.72834839997813, 0.0002099000266753137, 0.03139380004722625, 0.03146000002743676, 0.014630199992097914, 0.047192800033371896, 6.268183899985161]",0,,,,,,,,,,,,,,,,,,,,,,,,,,,,,,,,,,,,,,,,,,,,,,,,,,,,,,,,,,,,,,,,,,,,,,,,,,,,,,,,,,,,,,,,,,,,,,,,,,,,,,,,,,,,,,,,,,,,,,,,,,,,WGC8YL,train_x,blue_star,bottom_right,2025-10-01_15h03.26.387,HideSeek_v1,2022.2.5,59.928864447394076,
,,,,,,,,,,,,,,,0,0,0,0,9,0,9,0,,,,,,,,,,,,,,,,,,,,,,,,,,,,,,,conditions/schedules/train_x_first/blue_star_00/bottom_right/instructions/Slide10.png,conditions/schedules/train_x_first/blue_star_00/bottom_right/instructions/Audio10.wav,154.31148779997602,154.3092348599923,10,"[7.1061202000128105, 18.881091699993704, 16.728341899986845, 19.58174130000407, 5.5769153000437655, 5.5360087000299245, 5.9824249999946915, 12.091149699990638, 6.2681765999877825, 7.034604299988132]","[0.00022330001229420304, 0.01425020000897348, 16.72834839997813, 0.0002099000266753137, 0.03139380004722625, 0.03146000002743676, 0.014630199992097914, 0.047192800033371896, 0.030844799999613315, 7.034610500035342]",0,,,,,,,,,,,,,,,,,,,,,,,,,,,,,,,,,,,,,,,,,,,,,,,,,,,,,,,,,,,,,,,,,,,,,,,,,,,,,,,,,,,,,,,,,,,,,,,,,,,,,,,,,,,,,,,,,,,,,,,,,,,,WGC8YL,train_x,blue_star,bottom_right,2025-10-01_15h03.26.387,HideSeek_v1,2022.2.5,59.928864447394076,
,,,,,,,,,,,,,,,0,0,0,0,10,0,10,0,,,,,,,,,,,,,,,,,,,,,,,,,,,,,,,conditions/schedules/train_x_first/blue_star_00/bottom_right/instructions/Slide11.png,conditions/schedules/train_x_first/blue_star_00/bottom_right/instructions/Audio11.wav,161.40095300000394,161.39863166002326,11,"[7.1061202000128105, 18.881091699993704, 16.728341899986845, 19.58174130000407, 5.5769153000437655, 5.5360087000299245, 5.9824249999946915, 12.091149699990638, 6.2681765999877825, 7.034604299988132, 10.187189500022214]","[0.00022330001229420304, 0.01425020000897348, 16.72834839997813, 0.0002099000266753137, 0.03139380004722625, 0.03146000002743676, 0.014630199992097914, 0.047192800033371896, 0.030844799999613315, 0.06268099998123944, 10.1871960000135]",0,,,,,,,,,,,,,,,,,,,,,,,,,,,,,,,,,,,,,,,,,,,,,,,,,,,,,,,,,,,,,,,,,,,,,,,,,,,,,,,,,,,,,,,,,,,,,,,,,,,,,,,,,,,,,,,,,,,,,,,,,,,,WGC8YL,train_x,blue_star,bottom_right,2025-10-01_15h03.26.387,HideSeek_v1,2022.2.5,59.928864447394076,
,,,,,,,,,,,,,,,0,0,0,0,11,0,11,0,,,,,,,,,,,,,,,,,,,,,,,,,,,,,,,conditions/schedules/train_x_first/blue_star_00/bottom_right/instructions/Slide12.png,conditions/schedules/train_x_first/blue_star_00/bottom_right/instructions/Audio12.wav,171.66309119999642,171.65704754999024,12,"[7.1061202000128105, 18.881091699993704, 16.728341899986845, 19.58174130000407, 5.5769153000437655, 5.5360087000299245, 5.9824249999946915, 12.091149699990638, 6.2681765999877825, 7.034604299988132, 10.187189500022214, 13.053546099981759]","[0.00022330001229420304, 0.01425020000897348, 16.72834839997813, 0.0002099000266753137, 0.03139380004722625, 0.03146000002743676, 0.014630199992097914, 0.047192800033371896, 0.030844799999613315, 0.06268099998123944, 0.03831879998324439, 13.053553799982183]",0,,,,,,,,,,,,,,,,,,,,,,,,,,,,,,,,,,,,,,,,,,,,,,,,,,,,,,,,,,,,,,,,,,,,,,,,,,,,,,,,,,,,,,,,,,,,,,,,,,,,,,,,,,,,,,,,,,,,,,,,,,,,WGC8YL,train_x,blue_star,bottom_right,2025-10-01_15h03.26.387,HideSeek_v1,2022.2.5,59.928864447394076,
1,9,0,4,0,-5,0,11,2,instr_dim1_1,,,,,,0,0,0,0,,,,,0,0,0,0,,,,,,,,,,,,,,,,,,,,,,,,,,,,,,,,,,,,,stimuli/alien_stimuli/11.png,conditions/schedules/train_x_first/blue_star_00/bottom_right/inputInstr_1.xlsx,stimuli/alien_stimuli/11.png,184.82283239997923,184.82283239997923,184.82283239997923,184.82283239997923,184.81802132998712,return,8.469539699959569,"[-0.16, -0.08, 0, 0.08, 0.16, 0.24, 0.32, 0.4, 0.48, 0.56]","[-0.4, -0.32, -0.24, -0.16, -0.08, 0, 0.08, 0.16, 0.24, 0.32]",0,0,4,9,0.0,0.4,193.46153809997486,193.46153809997486,193.46153809997486,193.46153809997486,193.46153809997486,193.46153809997486,193.46153809997486,193.45842890996138,7.373734700027853,return,7.213302899966948,stimuli/alien_stimuli/11.png,11,9,1,,,,,,,,,,,,,,,,,,,,,,,,,,,,,,,,,,,,,,,,,,,,,,,,,,,,,,,,,,,,,,,,,,,,,,,,,,,,,,,,,,,,,,,,,WGC8YL,train_x,blue_star,bottom_right,2025-10-01_15h03.26.387,HideSeek_v1,2022.2.5,59.928864447394076,
,,,,,,,,,,,30,,,,0,0,0,0,,,,,,,,,,,,,,,,,,,,,,,,,,,,,,,,,,,,,,,,,,,,,,,,,,,,,,,,,,,,,,,,,,,,,,,,,,,,,,21,0.7,0,0,99,1,30,0,conditions/schedules/train_x_first/blue_star_00/bottom_right/inputTrain_1.1.xlsx,99,1,1,1,0,,,,,,,,,,,,,,,,,,,,,,,,,,,,,,,,,,,,,,,,,,,,,,,,,,,,,,,,,,,,,,,,,,,,,,,,,,,WGC8YL,train_x,blue_star,bottom_right,2025-10-01_15h03.26.387,HideSeek_v1,2022.2.5,59.928864447394076,
,,,,,,,,,,,,,,,1,0,1,0,0,0,0,0,,,,,,,,,,,,,,,,,,,,,,,,,,,,,,,conditions/schedules/train_x_first/blue_star_00/bottom_right/instructions/Slide13.png,conditions/schedules/train_x_first/blue_star_00/bottom_right/instructions/Audio13.wav,200.8695507000084,200.86462108998677,13,"[7.1061202000128105, 18.881091699993704, 16.728341899986845, 19.58174130000407, 5.5769153000437655, 5.5360087000299245, 5.9824249999946915, 12.091149699990638, 6.2681765999877825, 7.034604299988132, 10.187189500022214, 13.053546099981759, 16.84001799998805]","[0.00022330001229420304, 0.01425020000897348, 16.72834839997813, 0.0002099000266753137, 0.03139380004722625, 0.03146000002743676, 0.014630199992097914, 0.047192800033371896, 0.030844799999613315, 0.06268099998123944, 0.03831879998324439, 13.053553799982183, 16.840026399993803]",0,,,,,,,,,,,,,,,,,,,,,,,,,,,,,,,,,,,,,,,,,,,,,,,,,,,,,,,,,,,,,,,,,,,,,,,,,,,,,,,,,,,,,,,,,,,,,,,,,,,,,,,,,,,,,,,,,,,,,,,,,,,,WGC8YL,train_x,blue_star,bottom_right,2025-10-01_15h03.26.387,HideSeek_v1,2022.2.5,59.928864447394076,
,,,,,,,,,,,,,,,1,0,1,0,1,0,1,0,,,,,,,,,,,,,,,,,,,,,,,,,,,,,,,conditions/schedules/train_x_first/blue_star_00/bottom_right/instructions/Slide14.png,conditions/schedules/train_x_first/blue_star_00/bottom_right/instructions/Audio14.wav,217.78341099998215,217.77869034998002,14,"[7.1061202000128105, 18.881091699993704, 16.728341899986845, 19.58174130000407, 5.5769153000437655, 5.5360087000299245, 5.9824249999946915, 12.091149699990638, 6.2681765999877825, 7.034604299988132, 10.187189500022214, 13.053546099981759, 16.84001799998805, 13.354030600050464]","[0.00022330001229420304, 0.01425020000897348, 16.72834839997813, 0.0002099000266753137, 0.03139380004722625, 0.03146000002743676, 0.014630199992097914, 0.047192800033371896, 0.030844799999613315, 0.06268099998123944, 0.03831879998324439, 13.053553799982183, 0.00020450004376471043, 13.354036600037944]",0,,,,,,,,,,,,,,,,,,,,,,,,,,,,,,,,,,,,,,,,,,,,,,,,,,,,,,,,,,,,,,,,,,,,,,,,,,,,,,,,,,,,,,,,,,,,,,,,,,,,,,,,,,,,,,,,,,,,,,,,,,,,WGC8YL,train_x,blue_star,bottom_right,2025-10-01_15h03.26.387,HideSeek_v1,2022.2.5,59.928864447394076,
2,8,2,8,2,0,0,61,2,instr_dim1_1,,,,,,1,0,1,0,,,,,0,0,0,0,,,,,,,,,,,,,,,,,,,,,,,,,,,,,,,,,,,,,stimuli/alien_stimuli/61.png,conditions/schedules/train_x_first/blue_star_00/bottom_right/inputInstr_1.xlsx,stimuli/alien_stimuli/61.png,231.24615459999768,231.24615459999768,231.24615459999768,231.24615459999768,231.2400143300125,return,6.150175899965689,"[-0.16, -0.08, 0, 0.08, 0.16, 0.24, 0.32, 0.4, 0.48, 0.56]","[-0.4, -0.32, -0.24, -0.16, -0.08, 0, 0.08, 0.16, 0.24, 0.32]",2,2,8,8,0.0,0.0,237.56607960001566,237.56607960001566,237.56607960001566,237.56607960001566,237.56607960001566,237.56607960001566,237.56607960001566,237.5451507199672,6.4396733999601565,return,6.283388899988495,stimuli/alien_stimuli/61.png,61,8,2,,,,,,,,,,,,,,,,,,,,,,,,,,,,,,,,,,,,,,,,,,,,,,,,,,,,,,,,,,,,,,,,,,,,,,,,,,,,,,,,,,,,,,,,,WGC8YL,train_x,blue_star,bottom_right,2025-10-01_15h03.26.387,HideSeek_v1,2022.2.5,59.928864447394076,
,,,,,,,,,,,30,,,,1,0,1,0,,,,,,,,,,,,,,,,,,,,,,,,,,,,,,,,,,,,,,,,,,,,,,,,,,,,,,,,,,,,,,,,,,,,,,,,,,,,,,21,0.7,0,0,99,1,30,0,conditions/schedules/train_x_first/blue_star_00/bottom_right/inputTrain_1.1.xlsx,99,1,1,1,0,,,,,,,,,,,,,,,,,,,,,,,,,,,,,,,,,,,,,,,,,,,,,,,,,,,,,,,,,,,,,,,,,,,,,,,,,,,WGC8YL,train_x,blue_star,bottom_right,2025-10-01_15h03.26.387,HideSeek_v1,2022.2.5,59.928864447394076,
,,,,,,,,,,,,,,,2,0,2,0,0,0,0,0,,,,,,,,,,,,,,,,,,,,,,,,,,,,,,,conditions/schedules/train_x_first/blue_star_00/bottom_right/instructions/Slide15.png,conditions/schedules/train_x_first/blue_star_00/bottom_right/instructions/Audio15.wav,244.01187879999634,244.00057290996776,15,"[7.1061202000128105, 18.881091699993704, 16.728341899986845, 19.58174130000407, 5.5769153000437655, 5.5360087000299245, 5.9824249999946915, 12.091149699990638, 6.2681765999877825, 7.034604299988132, 10.187189500022214, 13.053546099981759, 16.84001799998805, 13.354030600050464, 30.378051700012293]","[0.00022330001229420304, 0.01425020000897348, 16.72834839997813, 0.0002099000266753137, 0.03139380004722625, 0.03146000002743676, 0.014630199992097914, 0.047192800033371896, 0.030844799999613315, 0.06268099998123944, 0.03831879998324439, 13.053553799982183, 0.00020450004376471043, 13.354036600037944, 30.37805900000967]",0,,,,,,,,,,,,,,,,,,,,,,,,,,,,,,,,,,,,,,,,,,,,,,,,,,,,,,,,,,,,,,,,,,,,,,,,,,,,,,,,,,,,,,,,,,,,,,,,,,,,,,,,,,,,,,,,,,,,,,,,,,,,WGC8YL,train_x,blue_star,bottom_right,2025-10-01_15h03.26.387,HideSeek_v1,2022.2.5,59.928864447394076,
,,,,,,,,,,,,,,,2,0,2,0,1,0,1,0,,,,,,,,,,,,,,,,,,,,,,,,,,,,,,,conditions/schedules/train_x_first/blue_star_00/bottom_right/instructions/Slide16.png,conditions/schedules/train_x_first/blue_star_00/bottom_right/instructions/Audio16.wav,274.4638644999941,274.45909734998713,16,"[7.1061202000128105, 18.881091699993704, 16.728341899986845, 19.58174130000407, 5.5769153000437655, 5.5360087000299245, 5.9824249999946915, 12.091149699990638, 6.2681765999877825, 7.034604299988132, 10.187189500022214, 13.053546099981759, 16.84001799998805, 13.354030600050464, 30.378051700012293, 21.093015099992044]","[0.00022330001229420304, 0.01425020000897348, 16.72834839997813, 0.0002099000266753137, 0.03139380004722625, 0.03146000002743676, 0.014630199992097914, 0.047192800033371896, 0.030844799999613315, 0.06268099998123944, 0.03831879998324439, 13.053553799982183, 0.00020450004376471043, 13.354036600037944, 30.37805900000967, 21.093021299981046]",0,,,,,,,,,,,,,,,,,,,,,,,,,,,,,,,,,,,,,,,,,,,,,,,,,,,,,,,,,,,,,,,,,,,,,,,,,,,,,,,,,,,,,,,,,,,,,,,,,,,,,,,,,,,,,,,,,,,,,,,,,,,,WGC8YL,train_x,blue_star,bottom_right,2025-10-01_15h03.26.387,HideSeek_v1,2022.2.5,59.928864447394076,
,7,1,4,1,-3,0,31,,train_dim1_1,1,30,,,,2,0,2,0,,,,,,,,,0,0,0,0,0,0,0,0,0,0,0,0,,,,,,,,,,,,,,,,,,,,,,,,,stimuli/alien_stimuli/31.png,,,,,,,,,,,,,,,,,,,,,,,,,,,,,,,,,,,,,,,30,,,,,,,,295.6566677999799,295.6566677999799,295.6566677999799,295.6566677999799,295.6566677999799,left,6.817201900004875,0,0,0,99,0.32,-0.32,left,6.715457600017544,,,,,,,,,,,,,,,,,,,,,,,,,,,,,,,,,,,,,,,,,,,,,,,,,,,,,,,,,,,,WGC8YL,train_x,blue_star,bottom_right,2025-10-01_15h03.26.387,HideSeek_v1,2022.2.5,59.928864447394076,
,7,1,4,1,-3,0,31,,train_dim1_1,1,30,,,,2,0,2,0,,,,,,,,,0,0,0,0,0,0,0,0,1,0,1,0,,,,,,,,,,,,,,,,,,,,,,,,,,,,,,,,,,,,,,,,,,,,,,,,,,,,,,,,,,,,,,,,30,,,,,,,,302.4646026000264,302.4646026000264,302.4646026000264,302.4646026000264,302.4646026000264,left,1.2597057999810204,0,0,0,99,0.24,-0.32,left,1.1841765999561176,,,,,,,,,,,,,,,,,,,,,,,,,,,,,,,,,,,,,,,,,,,,,,,,,,,,,,,,,,,,WGC8YL,train_x,blue_star,bottom_right,2025-10-01_15h03.26.387,HideSeek_v1,2022.2.5,59.928864447394076,
,7,1,4,1,-3,0,31,,train_dim1_1,1,30,,,,2,0,2,0,,,,,,,,,0,0,0,0,0,0,0,0,2,0,2,0,,,,,,,,,,,,,,,,,,,,,,,,,,,,,,,,,,,,,,,,,,,,,,,,,,,,,,,,,,,,,,,,30,,,,,,,,303.7305397000164,303.7305397000164,303.7305397000164,303.7305397000164,303.7305397000164,return,5.814843599975575,0,1,0,0,0.24,-0.32,return,5.728774000017438,0,-2,0.24,-0.32,,,,,,,,,,,,,,,,,,,,,,,,,,,,,,,,,,,,,,,,,,,,,,,,,,,,,,,,WGC8YL,train_x,blue_star,bottom_right,2025-10-01_15h03.26.387,HideSeek_v1,2022.2.5,59.928864447394076,
,7,4,2,4,-5,0,11,,train_dim1_1,2,30,,,,2,0,2,0,,,,,,,,,0,0,0,0,0,1,1,1,0,0,0,0,,,,,,,,,,,,,,,,,,,,,,,,,stimuli/alien_stimuli/11.png,,,,,,,,,,,,,,,,,,,,,,,,,,,,,stimuli/alien_stimuli/31.png,31,7,3,,,,,,,30,,,,,,,,319.71312390000094,319.71312390000094,319.71312390000094,319.71312390000094,319.71312390000094,left,2.9527230999665335,0,1,0,99,0.32,-0.08,left,2.852280899998732,,,,,318.12864349997835,319.71312390000094,0.16,-0.32,0.0,0.24,-0.32,0.16,0.28,0.16,-0.32,311.1274946000194,311.1274946000194,311.1274946000194,311.1274946000194,311.1274946000194,311.1274946000194,311.1274946000194,311.1274946000194,311.1231102199876,7.124500199977774,return,6.980318899964914,,,,,,,,,,,,,,,,,,,,,,,,,,,,,,,,,WGC8YL,train_x,blue_star,bottom_right,2025-10-01_15h03.26.387,HideSeek_v1,2022.2.5,59.928864447394076,
,7,4,2,4,-5,0,11,,train_dim1_1,2,30,,,,2,0,2,0,,,,,,,,,0,0,0,0,0,1,1,1,1,0,1,0,,,,,,,,,,,,,,,,,,,,,,,,,,,,,,,,,,,,,,,,,,,,,,,,,,,,,,,,,,,,,,,,30,,,,,,,,322.6564361000201,322.6564361000201,322.6564361000201,322.6564361000201,322.6564361000201,left,0.6888596000499092,0,1,0,99,0.24,-0.08,left,0.6040058999788016,,,,,,,,,,,,,,,,,,,,,,,,,,,,,,,,,,,,,,,,,,,,,,,,,,,,,,,,,,,,WGC8YL,train_x,blue_star,bottom_right,2025-10-01_15h03.26.387,HideSeek_v1,2022.2.5,59.928864447394076,
,7,4,2,4,-5,0,11,,train_dim1_1,2,30,,,,2,0,2,0,,,,,,,,,0,0,0,0,0,1,1,1,2,0,2,0,,,,,,,,,,,,,,,,,,,,,,,,,,,,,,,,,,,,,,,,,,,,,,,,,,,,,,,,,,,,,,,,30,,,,,,,,323.3499305000296,323.3499305000296,323.3499305000296,323.3499305000296,323.3499305000296,left,0.8270802000188269,0,1,0,99,0.15999999999999998,-0.08,left,0.7401266999659128,,,,,,,,,,,,,,,,,,,,,,,,,,,,,,,,,,,,,,,,,,,,,,,,,,,,,,,,,,,,WGC8YL,train_x,blue_star,bottom_right,2025-10-01_15h03.26.387,HideSeek_v1,2022.2.5,59.928864447394076,
,7,4,2,4,-5,0,11,,train_dim1_1,2,30,,,,2,0,2,0,,,,,,,,,0,0,0,0,0,1,1,1,3,0,3,0,,,,,,,,,,,,,,,,,,,,,,,,,,,,,,,,,,,,,,,,,,,,,,,,,,,,,,,,,,,,,,,,30,,,,,,,,324.18836269999156,324.18836269999156,324.18836269999156,324.18836269999156,324.18836269999156,left,0.8240502999979071,0,1,0,99,0.07999999999999997,-0.08,left,0.7394385999650694,,,,,,,,,,,,,,,,,,,,,,,,,,,,,,,,,,,,,,,,,,,,,,,,,,,,,,,,,,,,WGC8YL,train_x,blue_star,bottom_right,2025-10-01_15h03.26.387,HideSeek_v1,2022.2.5,59.928864447394076,
,7,4,2,4,-5,0,11,,train_dim1_1,2,30,,,,2,0,2,0,,,,,,,,,0,0,0,0,0,1,1,1,4,0,4,0,,,,,,,,,,,,,,,,,,,,,,,,,,,,,,,,,,,,,,,,,,,,,,,,,,,,,,,,,,,,,,,,30,,,,,,,,325.0262374000158,325.0262374000158,325.0262374000158,325.0262374000158,325.0262374000158,return,0.9366855999687687,0,1,0,0,0.07999999999999997,-0.08,return,0.8493563999654725,0,-6,0.07999999999999997,-0.08,,,,,,,,,,,,,,,,,,,,,,,,,,,,,,,,,,,,,,,,,,,,,,,,,,,,,,,,WGC8YL,train_x,blue_star,bottom_right,2025-10-01_15h03.26.387,HideSeek_v1,2022.2.5,59.928864447394076,
,9,4,5,4,-4,0,21,,train_dim1_1,3,30,,,,2,0,2,0,,,,,,,,,0,0,0,0,0,2,2,2,0,0,0,0,,,,,,,,,,,,,,,,,,,,,,,,,stimuli/alien_stimuli/21.png,,,,,,,,,,,,,,,,,,,,,,,,,,,,,stimuli/alien_stimuli/11.png,11,7,4,,,,,,,30,,,,,,,,331.93749799998477,331.93749799998477,331.93749799998477,331.93749799998477,331.93749799998477,left,2.9571989999967627,0,1,0,99,0.48000000000000004,-0.08,left,2.862999300006777,,,,,330.37214950000634,331.93749799998477,0,-0.08,0.0,0.4,-0.08,0,0.2,0,-0.08,327.54990610003006,327.54990610003006,327.54990610003006,327.54990610003006,327.54990610003006,327.54990610003006,327.54990610003006,327.54990610003006,327.5364353200188,2.954645599995274,return,2.8013305999920703,,,,,,,,,,,,,,,,,,,,,,,,,,,,,,,,,WGC8YL,train_x,blue_star,bottom_right,2025-10-01_15h03.26.387,HideSeek_v1,2022.2.5,59.928864447394076,
,9,4,5,4,-4,0,21,,train_dim1_1,3,30,,,,2,0,2,0,,,,,,,,,0,0,0,0,0,2,2,2,1,0,1,0,,,,,,,,,,,,,,,,,,,,,,,,,,,,,,,,,,,,,,,,,,,,,,,,,,,,,,,,,,,,,,,,30,,,,,,,,334.8942838999792,334.8942838999792,334.8942838999792,334.8942838999792,334.8942838999792,left,0.6426039999932982,0,1,0,99,0.4,-0.08,left,0.5605820999480784,,,,,,,,,,,,,,,,,,,,,,,,,,,,,,,,,,,,,,,,,,,,,,,,,,,,,,,,,,,,WGC8YL,train_x,blue_star,bottom_right,2025-10-01_15h03.26.387,HideSeek_v1,2022.2.5,59.928864447394076,
,9,4,5,4,-4,0,21,,train_dim1_1,3,30,,,,2,0,2,0,,,,,,,,,0,0,0,0,0,2,2,2,2,0,2,0,,,,,,,,,,,,,,,,,,,,,,,,,,,,,,,,,,,,,,,,,,,,,,,,,,,,,,,,,,,,,,,,30,,,,,,,,335.54385090002324,335.54385090002324,335.54385090002324,335.54385090002324,335.54385090002324,left,0.6599183999933302,0,1,0,99,0.32,-0.08,left,0.5785521999932826,,,,,,,,,,,,,,,,,,,,,,,,,,,,,,,,,,,,,,,,,,,,,,,,,,,,,,,,,,,,WGC8YL,train_x,blue_star,bottom_right,2025-10-01_15h03.26.387,HideSeek_v1,2022.2.5,59.928864447394076,
,9,4,5,4,-4,0,21,,train_dim1_1,3,30,,,,2,0,2,0,,,,,,,,,0,0,0,0,0,2,2,2,3,0,3,0,,,,,,,,,,,,,,,,,,,,,,,,,,,,,,,,,,,,,,,,,,,,,,,,,,,,,,,,,,,,,,,,30,,,,,,,,336.2134608000051,336.2134608000051,336.2134608000051,336.2134608000051,336.2134608000051,left,0.6405525999725796,0,1,0,99,0.24,-0.08,left,0.5565869000274688,,,,,,,,,,,,,,,,,,,,,,,,,,,,,,,,,,,,,,,,,,,,,,,,,,,,,,,,,,,,WGC8YL,train_x,blue_star,bottom_right,2025-10-01_15h03.26.387,HideSeek_v1,2022.2.5,59.928864447394076,
,9,4,5,4,-4,0,21,,train_dim1_1,3,30,,,,2,0,2,0,,,,,,,,,0,0,0,0,0,2,2,2,4,0,4,0,,,,,,,,,,,,,,,,,,,,,,,,,,,,,,,,,,,,,,,,,,,,,,,,,,,,,,,,,,,,,,,,30,,,,,,,,336.8646453000256,336.8646453000256,336.8646453000256,336.8646453000256,336.8646453000256,return,0.9240716999629512,1,0,0,1,0.24,-0.08,return,0.838302299962379,0,-10,0.24,-0.08,,,,,,,,,,,,,,,,,,,,,,,,,,,,,,,,,,,,,,,,,,,,,,,,,,,,,,,,WGC8YL,train_x,blue_star,bottom_right,2025-10-01_15h03.26.387,HideSeek_v1,2022.2.5,59.928864447394076,
,7,3,6,3,-1,0,51,,train_dim1_1,4,30,,,,2,0,2,0,,,,,,,,,0,0,0,0,0,3,3,3,0,0,0,0,,,,,,,,,,,,,,,,,,,,,,,,,stimuli/alien_stimuli/51.png,,,,,,,,,,,,,,,,,,,,,,,,,,,,,stimuli/alien_stimuli/21.png,21,9,5,,,,,,,30,,,,,,,,344.58075889997417,344.58075889997417,344.58075889997417,344.58075889997417,344.58075889997417,left,3.924267599999439,1,0,0,99,0.32,-0.16,left,3.8358382000005804,,,,,343.0156736000208,344.58075889997417,0.24,-0.08,0.0,0.32,-0.08,0.24,0.4,0.24,-0.08,339.3765636999742,339.3765636999742,339.3765636999742,339.3765636999742,339.3765636999742,339.3765636999742,339.3765636999742,339.3765636999742,339.363053620013,3.7720611999975517,return,3.6184052000171505,,,,,,,,,,,,,,,,,,,,,,,,,,,,,,,,,WGC8YL,train_x,blue_star,bottom_right,2025-10-01_15h03.26.387,HideSeek_v1,2022.2.5,59.928864447394076,
,7,3,6,3,-1,0,51,,train_dim1_1,4,30,,,,2,0,2,0,,,,,,,,,0,0,0,0,0,3,3,3,1,0,1,0,,,,,,,,,,,,,,,,,,,,,,,,,,,,,,,,,,,,,,,,,,,,,,,,,,,,,,,,,,,,,,,,30,,,,,,,,348.5040875999839,348.5040875999839,348.5040875999839,348.5040875999839,348.5040875999839,return,0.8091866999748163,2,0,0,1,0.32,-0.16,return,0.726333300000988,0,-11,0.32,-0.16,,,,,,,,,,,,,,,,,,,,,,,,,,,,,,,,,,,,,,,,,,,,,,,,,,,,,,,,WGC8YL,train_x,blue_star,bottom_right,2025-10-01_15h03.26.387,HideSeek_v1,2022.2.5,59.928864447394076,
,5,2,5,2,0,0,61,,train_dim1_1,5,30,,,,2,0,2,0,,,,,,,,,0,0,0,0,0,4,4,4,0,0,0,0,,,,,,,,,,,,,,,,,,,,,,,,,stimuli/alien_stimuli/61.png,,,,,,,,,,,,,,,,,,,,,,,,,,,,,stimuli/alien_stimuli/51.png,51,7,6,,,,,,,30,,,,,,,,357.15467890002765,357.15467890002765,357.15467890002765,357.15467890002765,357.15467890002765,return,2.170552299998235,3,0,0,1,0.24,-0.24,return,2.080981500039343,0,-11,0.24,-0.24,355.59297160001006,357.15467890002765,0.32,-0.16,0.0,0.08,-0.16,0.32,0.36,0.32,-0.16,350.8958061999874,350.8958061999874,350.8958061999874,350.8958061999874,350.8958061999874,350.8958061999874,350.8958061999874,350.8958061999874,350.88902621999154,4.823471500014421,return,4.6659061999525875,,,,,,,,,,,,,,,,,,,,,,,,,,,,,,,,,WGC8YL,train_x,blue_star,bottom_right,2025-10-01_15h03.26.387,HideSeek_v1,2022.2.5,59.928864447394076,
,5,0,1,0,-4,0,21,,train_dim1_1,6,30,,,,2,0,2,0,,,,,,,,,0,0,0,0,0,5,5,5,0,0,0,0,,,,,,,,,,,,,,,,,,,,,,,,,stimuli/alien_stimuli/21.png,,,,,,,,,,,,,,,,,,,,,,,,,,,,,stimuli/alien_stimuli/61.png,61,5,7,,,,,,,30,,,,,,,,366.28746710001724,366.28746710001724,366.28746710001724,366.28746710001724,366.28746710001724,left,2.4834721999941394,3,0,0,99,0.15999999999999998,-0.4,left,2.3908533000503667,,,,,364.7170915000024,366.28746710001724,0.24,-0.24,0.0,0.0,-0.24,0.24,0.24,0.24,-0.24,360.8966234999825,360.8966234999825,360.8966234999825,360.8966234999825,360.8966234999825,360.8966234999825,360.8966234999825,360.8966234999825,360.8807139299985,3.9387914999970235,return,3.798428900016006,,,,,,,,,,,,,,,,,,,,,,,,,,,,,,,,,WGC8YL,train_x,blue_star,bottom_right,2025-10-01_15h03.26.387,HideSeek_v1,2022.2.5,59.928864447394076,
,5,0,1,0,-4,0,21,,train_dim1_1,6,30,,,,2,0,2,0,,,,,,,,,0,0,0,0,0,5,5,5,1,0,1,0,,,,,,,,,,,,,,,,,,,,,,,,,,,,,,,,,,,,,,,,,,,,,,,,,,,,,,,,,,,,,,,,30,,,,,,,,368.7709793000249,368.7709793000249,368.7709793000249,368.7709793000249,368.7709793000249,left,0.5766395999817178,3,0,0,99,0.07999999999999997,-0.4,left,0.48939429997699335,,,,,,,,,,,,,,,,,,,,,,,,,,,,,,,,,,,,,,,,,,,,,,,,,,,,,,,,,,,,WGC8YL,train_x,blue_star,bottom_right,2025-10-01_15h03.26.387,HideSeek_v1,2022.2.5,59.928864447394076,
,5,0,1,0,-4,0,21,,train_dim1_1,6,30,,,,2,0,2,0,,,,,,,,,0,0,0,0,0,5,5,5,2,0,2,0,,,,,,,,,,,,,,,,,,,,,,,,,,,,,,,,,,,,,,,,,,,,,,,,,,,,,,,,,,,,,,,,30,,,,,,,,369.35474630002864,369.35474630002864,369.35474630002864,369.35474630002864,369.35474630002864,left,0.5935086999670602,3,0,0,99,-2.7755575615628914e-17,-0.4,left,0.5034505999647081,,,,,,,,,,,,,,,,,,,,,,,,,,,,,,,,,,,,,,,,,,,,,,,,,,,,,,,,,,,,WGC8YL,train_x,blue_star,bottom_right,2025-10-01_15h03.26.387,HideSeek_v1,2022.2.5,59.928864447394076,
,5,0,1,0,-4,0,21,,train_dim1_1,6,30,,,,2,0,2,0,,,,,,,,,0,0,0,0,0,5,5,5,3,0,3,0,,,,,,,,,,,,,,,,,,,,,,,,,,,,,,,,,,,,,,,,,,,,,,,,,,,,,,,,,,,,,,,,30,,,,,,,,369.9550976000028,369.9550976000028,369.9550976000028,369.9550976000028,369.9550976000028,left,0.5437680999748409,3,0,0,99,-0.08000000000000003,-0.4,left,0.4602949999971315,,,,,,,,,,,,,,,,,,,,,,,,,,,,,,,,,,,,,,,,,,,,,,,,,,,,,,,,,,,,WGC8YL,train_x,blue_star,bottom_right,2025-10-01_15h03.26.387,HideSeek_v1,2022.2.5,59.928864447394076,
,5,0,1,0,-4,0,21,,train_dim1_1,6,30,,,,2,0,2,0,,,,,,,,,0,0,0,0,0,5,5,5,4,0,4,0,,,,,,,,,,,,,,,,,,,,,,,,,,,,,,,,,,,,,,,,,,,,,,,,,,,,,,,,,,,,,,,,30,,,,,,,,370.50653950002743,370.50653950002743,370.50653950002743,370.50653950002743,370.50653950002743,left,0.7263919999822974,3,0,0,99,-0.16000000000000003,-0.4,left,0.6369807000155561,,,,,,,,,,,,,,,,,,,,,,,,,,,,,,,,,,,,,,,,,,,,,,,,,,,,,,,,,,,,WGC8YL,train_x,blue_star,bottom_right,2025-10-01_15h03.26.387,HideSeek_v1,2022.2.5,59.928864447394076,
,5,0,1,0,-4,0,21,,train_dim1_1,6,30,,,,2,0,2,0,,,,,,,,,0,0,0,0,0,5,5,5,5,0,5,0,,,,,,,,,,,,,,,,,,,,,,,,,,,,,,,,,,,,,,,,,,,,,,,,,,,,,,,,,,,,,,,,30,,,,,,,,371.23990960000083,371.23990960000083,371.23990960000083,371.23990960000083,371.23990960000083,return,0.9437034000293352,3,1,0,0,-0.16000000000000003,-0.4,return,0.8514078999869525,0,-16,-0.16000000000000003,-0.4,,,,,,,,,,,,,,,,,,,,,,,,,,,,,,,,,,,,,,,,,,,,,,,,,,,,,,,,WGC8YL,train_x,blue_star,bottom_right,2025-10-01_15h03.26.387,HideSeek_v1,2022.2.5,59.928864447394076,
,8,0,8,0,0,0,61,,train_dim1_1,7,30,,,,2,0,2,0,,,,,,,,,0,0,0,0,0,6,6,6,0,0,0,0,,,,,,,,,,,,,,,,,,,,,,,,,stimuli/alien_stimuli/61.png,,,,,,,,,,,,,,,,,,,,,,,,,,,,,stimuli/alien_stimuli/21.png,21,5,8,,,,,,,30,,,,,,,,377.69659150001826,377.69659150001826,377.69659150001826,377.69659150001826,377.69659150001826,return,3.1721183999907225,4,0,0,1,0.48,-0.4,return,3.0795488999574445,0,-16,0.48,-0.4,376.12669429997914,377.69659150001826,-0.08,-0.4,0.0,0.32,-0.4,-0.08,0.07999999999999999,-0.08,-0.4,373.77060899999924,373.77060899999924,373.77060899999924,373.77060899999924,373.77060899999924,373.77060899999924,373.77060899999924,373.77060899999924,373.7580859199865,2.487894900026731,return,2.330148499982897,,,,,,,,,,,,,,,,,,,,,,,,,,,,,,,,,WGC8YL,train_x,blue_star,bottom_right,2025-10-01_15h03.26.387,HideSeek_v1,2022.2.5,59.928864447394076,
,5,4,2,4,-3,0,31,,train_dim1_1,8,30,,,,2,0,2,0,,,,,,,,,0,0,0,0,0,7,7,7,0,0,0,0,,,,,,,,,,,,,,,,,,,,,,,,,stimuli/alien_stimuli/31.png,,,,,,,,,,,,,,,,,,,,,,,,,,,,,stimuli/alien_stimuli/61.png,61,8,9,,,,,,,30,,,,,,,,386.88695249997545,386.88695249997545,386.88695249997545,386.88695249997545,386.88695249997545,left,2.348564699990675,4,0,0,99,0.15999999999999998,-0.08,left,2.265708699997049,,,,,385.3173893999774,386.88695249997545,0.48,-0.4,0.0,0.0,-0.4,0.48,0.48,0.48,-0.4,382.41955689998576,382.41955689998576,382.41955689998576,382.41955689998576,382.41955689998576,382.41955689998576,382.41955689998576,382.41955689998576,382.39870213997784,3.0040934999706224,return,2.8695550999836996,,,,,,,,,,,,,,,,,,,,,,,,,,,,,,,,,WGC8YL,train_x,blue_star,bottom_right,2025-10-01_15h03.26.387,HideSeek_v1,2022.2.5,59.928864447394076,
,5,4,2,4,-3,0,31,,train_dim1_1,8,30,,,,2,0,2,0,,,,,,,,,0,0,0,0,0,7,7,7,1,0,1,0,,,,,,,,,,,,,,,,,,,,,,,,,,,,,,,,,,,,,,,,,,,,,,,,,,,,,,,,,,,,,,,,30,,,,,,,,389.23414459999185,389.23414459999185,389.23414459999185,389.23414459999185,389.23414459999185,left,0.5264850000385195,4,0,0,99,0.07999999999999997,-0.08,left,0.44665370002621785,,,,,,,,,,,,,,,,,,,,,,,,,,,,,,,,,,,,,,,,,,,,,,,,,,,,,,,,,,,,WGC8YL,train_x,blue_star,bottom_right,2025-10-01_15h03.26.387,HideSeek_v1,2022.2.5,59.928864447394076,
,5,4,2,4,-3,0,31,,train_dim1_1,8,30,,,,2,0,2,0,,,,,,,,,0,0,0,0,0,7,7,7,2,0,2,0,,,,,,,,,,,,,,,,,,,,,,,,,,,,,,,,,,,,,,,,,,,,,,,,,,,,,,,,,,,,,,,,30,,,,,,,,389.7709491000278,389.7709491000278,389.7709491000278,389.7709491000278,389.7709491000278,left,0.5267659000237472,4,0,0,99,-2.7755575615628914e-17,-0.08,left,0.43570750002982095,,,,,,,,,,,,,,,,,,,,,,,,,,,,,,,,,,,,,,,,,,,,,,,,,,,,,,,,,,,,WGC8YL,train_x,blue_star,bottom_right,2025-10-01_15h03.26.387,HideSeek_v1,2022.2.5,59.928864447394076,
,5,4,2,4,-3,0,31,,train_dim1_1,8,30,,,,2,0,2,0,,,,,,,,,0,0,0,0,0,7,7,7,3,0,3,0,,,,,,,,,,,,,,,,,,,,,,,,,,,,,,,,,,,,,,,,,,,,,,,,,,,,,,,,,,,,,,,,30,,,,,,,,390.30178989999695,390.30178989999695,390.30178989999695,390.30178989999695,390.30178989999695,return,1.3281642000074498,5,0,0,1,-2.7755575615628914e-17,-0.08,return,1.244772300007753,0,-19,-2.7755575615628914e-17,-0.08,,,,,,,,,,,,,,,,,,,,,,,,,,,,,,,,,,,,,,,,,,,,,,,,,,,,,,,,WGC8YL,train_x,blue_star,bottom_right,2025-10-01_15h03.26.387,HideSeek_v1,2022.2.5,59.928864447394076,
,6,0,5,0,-1,0,51,,train_dim1_1,9,30,,,,2,0,2,0,,,,,,,,,0,0,0,0,0,8,8,8,0,0,0,0,,,,,,,,,,,,,,,,,,,,,,,,,stimuli/alien_stimuli/51.png,,,,,,,,,,,,,,,,,,,,,,,,,,,,,stimuli/alien_stimuli/31.png,31,5,10,,,,,,,30,,,,,,,,397.0666663000011,397.0666663000011,397.0666663000011,397.0666663000011,397.0666663000011,left,2.23732390004443,5,0,0,99,0.24,-0.4,left,2.1321833999827504,,,,,395.49258140003076,397.0666663000011,0,-0.08,0.0,0.24,-0.08,0,0.12,0,-0.08,393.2046444999869,393.2046444999869,393.2046444999869,393.2046444999869,393.2046444999869,393.2046444999869,393.2046444999869,393.2046444999869,393.19070302997136,2.4043708000099286,return,2.2619546999922022,,,,,,,,,,,,,,,,,,,,,,,,,,,,,,,,,WGC8YL,train_x,blue_star,bottom_right,2025-10-01_15h03.26.387,HideSeek_v1,2022.2.5,59.928864447394076,
,6,0,5,0,-1,0,51,,train_dim1_1,9,30,,,,2,0,2,0,,,,,,,,,0,0,0,0,0,8,8,8,1,0,1,0,,,,,,,,,,,,,,,,,,,,,,,,,,,,,,,,,,,,,,,,,,,,,,,,,,,,,,,,,,,,,,,,30,,,,,,,,399.3004119999823,399.3004119999823,399.3004119999823,399.3004119999823,399.3004119999823,return,0.8566137999878265,6,0,0,1,0.24,-0.4,return,0.7643608000362292,0,-20,0.24,-0.4,,,,,,,,,,,,,,,,,,,,,,,,,,,,,,,,,,,,,,,,,,,,,,,,,,,,,,,,WGC8YL,train_x,blue_star,bottom_right,2025-10-01_15h03.26.387,HideSeek_v1,2022.2.5,59.928864447394076,
,5,3,0,3,-5,0,11,,train_dim1_1,10,30,,,,2,0,2,0,,,,,,,,,0,0,0,0,0,9,9,9,0,0,0,0,,,,,,,,,,,,,,,,,,,,,,,,,stimuli/alien_stimuli/11.png,,,,,,,,,,,,,,,,,,,,,,,,,,,,,stimuli/alien_stimuli/51.png,51,6,11,,,,,,,30,,,,,,,,405.2332363000023,405.2332363000023,405.2332363000023,405.2332363000023,405.2332363000023,left,1.7396332999924198,6,0,0,99,0.15999999999999998,-0.16,left,1.6371765999938361,,,,,403.6498369000037,405.2332363000023,0.24,-0.4,0.0,0.08,-0.4,0.24,0.28,0.24,-0.4,401.7215825000312,401.7215825000312,401.7215825000312,401.7215825000312,401.7215825000312,401.7215825000312,401.7215825000312,401.7215825000312,401.71483503002094,2.0373977999552153,return,1.9074404000421055,,,,,,,,,,,,,,,,,,,,,,,,,,,,,,,,,WGC8YL,train_x,blue_star,bottom_right,2025-10-01_15h03.26.387,HideSeek_v1,2022.2.5,59.928864447394076,
,5,3,0,3,-5,0,11,,train_dim1_1,10,30,,,,2,0,2,0,,,,,,,,,0,0,0,0,0,9,9,9,1,0,1,0,,,,,,,,,,,,,,,,,,,,,,,,,,,,,,,,,,,,,,,,,,,,,,,,,,,,,,,,,,,,,,,,30,,,,,,,,406.9626578000025,406.9626578000025,406.9626578000025,406.9626578000025,406.9626578000025,left,0.4032572000287473,6,0,0,99,0.07999999999999997,-0.16,left,0.3237345999805257,,,,,,,,,,,,,,,,,,,,,,,,,,,,,,,,,,,,,,,,,,,,,,,,,,,,,,,,,,,,WGC8YL,train_x,blue_star,bottom_right,2025-10-01_15h03.26.387,HideSeek_v1,2022.2.5,59.928864447394076,
,5,3,0,3,-5,0,11,,train_dim1_1,10,30,,,,2,0,2,0,,,,,,,,,0,0,0,0,0,9,9,9,2,0,2,0,,,,,,,,,,,,,,,,,,,,,,,,,,,,,,,,,,,,,,,,,,,,,,,,,,,,,,,,,,,,,,,,30,,,,,,,,407.37074490002124,407.37074490002124,407.37074490002124,407.37074490002124,407.37074490002124,left,0.3934575999737717,6,0,0,99,-2.7755575615628914e-17,-0.16,left,0.3119837999693118,,,,,,,,,,,,,,,,,,,,,,,,,,,,,,,,,,,,,,,,,,,,,,,,,,,,,,,,,,,,WGC8YL,train_x,blue_star,bottom_right,2025-10-01_15h03.26.387,HideSeek_v1,2022.2.5,59.928864447394076,
,5,3,0,3,-5,0,11,,train_dim1_1,10,30,,,,2,0,2,0,,,,,,,,,0,0,0,0,0,9,9,9,3,0,3,0,,,,,,,,,,,,,,,,,,,,,,,,,,,,,,,,,,,,,,,,,,,,,,,,,,,,,,,,,,,,,,,,30,,,,,,,,407.77026050002314,407.77026050002314,407.77026050002314,407.77026050002314,407.77026050002314,left,0.3936011999612674,6,0,0,99,-0.08000000000000003,-0.16,left,0.31138909998117015,,,,,,,,,,,,,,,,,,,,,,,,,,,,,,,,,,,,,,,,,,,,,,,,,,,,,,,,,,,,WGC8YL,train_x,blue_star,bottom_right,2025-10-01_15h03.26.387,HideSeek_v1,2022.2.5,59.928864447394076,
,5,3,0,3,-5,0,11,,train_dim1_1,10,30,,,,2,0,2,0,,,,,,,,,0,0,0,0,0,9,9,9,4,0,4,0,,,,,,,,,,,,,,,,,,,,,,,,,,,,,,,,,,,,,,,,,,,,,,,,,,,,,,,,,,,,,,,,30,,,,,,,,408.1707435999997,408.1707435999997,408.1707435999997,408.1707435999997,408.1707435999997,left,1.5943326999549754,6,0,0,99,-0.16000000000000003,-0.16,left,1.5126834000111558,,,,,,,,,,,,,,,,,,,,,,,,,,,,,,,,,,,,,,,,,,,,,,,,,,,,,,,,,,,,WGC8YL,train_x,blue_star,bottom_right,2025-10-01_15h03.26.387,HideSeek_v1,2022.2.5,59.928864447394076,
,5,3,0,3,-5,0,11,,train_dim1_1,10,30,,,,2,0,2,0,,,,,,,,,0,0,0,0,0,9,9,9,5,0,5,0,,,,,,,,,,,,,,,,,,,,,,,,,,,,,,,,,,,,,,,,,,,,,,,,,,,,,,,,,,,,,,,,30,,,,,,,,409.77169199998025,409.77169199998025,409.77169199998025,409.77169199998025,409.77169199998025,return,0.8439616999821737,7,0,0,1,-0.16000000000000003,-0.16,return,0.7531109999981709,0,-25,-0.16000000000000003,-0.16,,,,,,,,,,,,,,,,,,,,,,,,,,,,,,,,,,,,,,,,,,,,,,,,,,,,,,,,WGC8YL,train_x,blue_star,bottom_right,2025-10-01_15h03.26.387,HideSeek_v1,2022.2.5,59.928864447394076,
,7,2,4,2,-3,0,31,,train_dim1_1,11,30,,,,2,0,2,0,,,,,,,,,0,0,0,0,0,10,10,10,0,0,0,0,,,,,,,,,,,,,,,,,,,,,,,,,stimuli/alien_stimuli/31.png,,,,,,,,,,,,,,,,,,,,,,,,,,,,,stimuli/alien_stimuli/11.png,11,5,12,,,,,,,30,,,,,,,,415.6175546000013,415.6175546000013,415.6175546000013,415.6175546000013,415.6175546000013,left,1.9381546000367962,7,0,0,99,0.32,-0.24,left,1.8414679000270553,,,,,414.0416045000311,415.6175546000013,-0.16,-0.16,0.0,0.4,-0.16,-0.16,0.039999999999999994,-0.16,-0.16,412.18874850001885,412.18874850001885,412.18874850001885,412.18874850001885,412.18874850001885,412.18874850001885,412.18874850001885,412.18874850001885,412.17341753001676,1.9704549000016414,return,1.8289298999588937,,,,,,,,,,,,,,,,,,,,,,,,,,,,,,,,,WGC8YL,train_x,blue_star,bottom_right,2025-10-01_15h03.26.387,HideSeek_v1,2022.2.5,59.928864447394076,
,7,2,4,2,-3,0,31,,train_dim1_1,11,30,,,,2,0,2,0,,,,,,,,,0,0,0,0,0,10,10,10,1,0,1,0,,,,,,,,,,,,,,,,,,,,,,,,,,,,,,,,,,,,,,,,,,,,,,,,,,,,,,,,,,,,,,,,30,,,,,,,,417.54261210002005,417.54261210002005,417.54261210002005,417.54261210002005,417.54261210002005,left,0.45969279995188117,7,0,0,99,0.24,-0.24,left,0.3748285999754444,,,,,,,,,,,,,,,,,,,,,,,,,,,,,,,,,,,,,,,,,,,,,,,,,,,,,,,,,,,,WGC8YL,train_x,blue_star,bottom_right,2025-10-01_15h03.26.387,HideSeek_v1,2022.2.5,59.928864447394076,
,7,2,4,2,-3,0,31,,train_dim1_1,11,30,,,,2,0,2,0,,,,,,,,,0,0,0,0,0,10,10,10,2,0,2,0,,,,,,,,,,,,,,,,,,,,,,,,,,,,,,,,,,,,,,,,,,,,,,,,,,,,,,,,,,,,,,,,30,,,,,,,,418.0096294999821,418.0096294999821,418.0096294999821,418.0096294999821,418.0096294999821,left,0.4604570000083186,7,0,0,99,0.15999999999999998,-0.24,left,0.37520929996389896,,,,,,,,,,,,,,,,,,,,,,,,,,,,,,,,,,,,,,,,,,,,,,,,,,,,,,,,,,,,WGC8YL,train_x,blue_star,bottom_right,2025-10-01_15h03.26.387,HideSeek_v1,2022.2.5,59.928864447394076,
,7,2,4,2,-3,0,31,,train_dim1_1,11,30,,,,2,0,2,0,,,,,,,,,0,0,0,0,0,10,10,10,3,0,3,0,,,,,,,,,,,,,,,,,,,,,,,,,,,,,,,,,,,,,,,,,,,,,,,,,,,,,,,,,,,,,,,,30,,,,,,,,418.4760633999831,418.4760633999831,418.4760633999831,418.4760633999831,418.4760633999831,return,1.2772357999929227,8,0,0,1,0.15999999999999998,-0.24,return,1.1963522000005469,0,-28,0.15999999999999998,-0.24,,,,,,,,,,,,,,,,,,,,,,,,,,,,,,,,,,,,,,,,,,,,,,,,,,,,,,,,WGC8YL,train_x,blue_star,bottom_right,2025-10-01_15h03.26.387,HideSeek_v1,2022.2.5,59.928864447394076,
,5,0,1,0,-4,0,21,,train_dim1_1,12,30,,,,2,0,2,0,,,,,,,,,0,0,0,0,0,11,11,11,0,0,0,0,,,,,,,,,,,,,,,,,,,,,,,,,stimuli/alien_stimuli/21.png,,,,,,,,,,,,,,,,,,,,,,,,,,,,,stimuli/alien_stimuli/31.png,31,7,13,,,,,,,30,,,,,,,,424.59782530000666,424.59782530000666,424.59782530000666,424.59782530000666,424.59782530000666,left,2.0216414000024088,8,0,0,99,0.15999999999999998,-0.4,left,1.9173539000330493,,,,,423.01561810000567,424.59782530000666,0.16,-0.24,0.0,0.24,-0.24,0.16,0.28,0.16,-0.24,421.3191361000063,421.3191361000063,421.3191361000063,421.3191361000063,421.3191361000063,421.3191361000063,421.3191361000063,421.3191361000063,421.29766304000515,1.8039721000241116,return,1.6809235999826342,,,,,,,,,,,,,,,,,,,,,,,,,,,,,,,,,WGC8YL,train_x,blue_star,bottom_right,2025-10-01_15h03.26.387,HideSeek_v1,2022.2.5,59.928864447394076,
,5,0,1,0,-4,0,21,,train_dim1_1,12,30,,,,2,0,2,0,,,,,,,,,0,0,0,0,0,11,11,11,1,0,1,0,,,,,,,,,,,,,,,,,,,,,,,,,,,,,,,,,,,,,,,,,,,,,,,,,,,,,,,,,,,,,,,,30,,,,,,,,426.6043496999773,426.6043496999773,426.6043496999773,426.6043496999773,426.6043496999773,left,0.42606139997951686,8,0,0,99,0.07999999999999997,-0.4,left,0.33871280000312254,,,,,,,,,,,,,,,,,,,,,,,,,,,,,,,,,,,,,,,,,,,,,,,,,,,,,,,,,,,,WGC8YL,train_x,blue_star,bottom_right,2025-10-01_15h03.26.387,HideSeek_v1,2022.2.5,59.928864447394076,
,5,0,1,0,-4,0,21,,train_dim1_1,12,30,,,,2,0,2,0,,,,,,,,,0,0,0,0,0,11,11,11,2,0,2,0,,,,,,,,,,,,,,,,,,,,,,,,,,,,,,,,,,,,,,,,,,,,,,,,,,,,,,,,,,,,,,,,30,,,,,,,,427.03597369999625,427.03597369999625,427.03597369999625,427.03597369999625,427.03597369999625,left,0.40961889998288825,8,0,0,99,-2.7755575615628914e-17,-0.4,left,0.3224033000296913,,,,,,,,,,,,,,,,,,,,,,,,,,,,,,,,,,,,,,,,,,,,,,,,,,,,,,,,,,,,WGC8YL,train_x,blue_star,bottom_right,2025-10-01_15h03.26.387,HideSeek_v1,2022.2.5,59.928864447394076,
,5,0,1,0,-4,0,21,,train_dim1_1,12,30,,,,2,0,2,0,,,,,,,,,0,0,0,0,0,11,11,11,3,0,3,0,,,,,,,,,,,,,,,,,,,,,,,,,,,,,,,,,,,,,,,,,,,,,,,,,,,,,,,,,,,,,,,,30,,,,,,,,427.4536986000021,427.4536986000021,427.4536986000021,427.4536986000021,427.4536986000021,left,0.4433819999685511,8,0,0,99,-0.08000000000000003,-0.4,left,0.35706750000827014,,,,,,,,,,,,,,,,,,,,,,,,,,,,,,,,,,,,,,,,,,,,,,,,,,,,,,,,,,,,WGC8YL,train_x,blue_star,bottom_right,2025-10-01_15h03.26.387,HideSeek_v1,2022.2.5,59.928864447394076,
,5,0,1,0,-4,0,21,,train_dim1_1,12,30,,,,2,0,2,0,,,,,,,,,0,0,0,0,0,11,11,11,4,0,4,0,,,,,,,,,,,,,,,,,,,,,,,,,,,,,,,,,,,,,,,,,,,,,,,,,,,,,,,,,,,,,,,,30,,,,,,,,427.9034550000215,427.9034550000215,427.9034550000215,427.9034550000215,427.9034550000215,return,0.676931300025899,9,0,0,1,-0.08000000000000003,-0.4,return,0.5932814999832772,0,-32,-0.08000000000000003,-0.4,,,,,,,,,,,,,,,,,,,,,,,,,,,,,,,,,,,,,,,,,,,,,,,,,,,,,,,,WGC8YL,train_x,blue_star,bottom_right,2025-10-01_15h03.26.387,HideSeek_v1,2022.2.5,59.928864447394076,
,5,4,4,4,-1,0,51,,train_dim1_1,13,30,,,,2,0,2,0,,,,,,,,,0,0,0,0,0,12,12,12,0,0,0,0,,,,,,,,,,,,,,,,,,,,,,,,,stimuli/alien_stimuli/51.png,,,,,,,,,,,,,,,,,,,,,,,,,,,,,stimuli/alien_stimuli/21.png,21,5,14,,,,,,,30,,,,,,,,433.383103900007,433.383103900007,433.383103900007,433.383103900007,433.383103900007,left,1.472111200040672,9,0,0,99,0.15999999999999998,-0.08,left,1.3648320999927819,,,,,431.80664650001563,433.383103900007,-0.08,-0.4,0.0,0.32,-0.4,-0.08,0.07999999999999999,-0.08,-0.4,430.14685090002604,430.14685090002604,430.14685090002604,430.14685090002604,430.14685090002604,430.14685090002604,430.14685090002604,430.14685090002604,430.1381978299993,1.7713617000263184,return,1.6442216000286862,,,,,,,,,,,,,,,,,,,,,,,,,,,,,,,,,WGC8YL,train_x,blue_star,bottom_right,2025-10-01_15h03.26.387,HideSeek_v1,2022.2.5,59.928864447394076,
,5,4,4,4,-1,0,51,,train_dim1_1,13,30,,,,2,0,2,0,,,,,,,,,0,0,0,0,0,12,12,12,1,0,1,0,,,,,,,,,,,,,,,,,,,,,,,,,,,,,,,,,,,,,,,,,,,,,,,,,,,,,,,,,,,,,,,,30,,,,,,,,434.8418241000036,434.8418241000036,434.8418241000036,434.8418241000036,434.8418241000036,return,0.4427037999848835,10,0,0,1,0.15999999999999998,-0.08,return,0.35169839998707175,0,-33,0.15999999999999998,-0.08,,,,,,,,,,,,,,,,,,,,,,,,,,,,,,,,,,,,,,,,,,,,,,,,,,,,,,,,WGC8YL,train_x,blue_star,bottom_right,2025-10-01_15h03.26.387,HideSeek_v1,2022.2.5,59.928864447394076,
,9,3,4,3,-5,0,11,,train_dim1_1,14,30,,,,2,0,2,0,,,,,,,,,0,0,0,0,0,13,13,13,0,0,0,0,,,,,,,,,,,,,,,,,,,,,,,,,stimuli/alien_stimuli/11.png,,,,,,,,,,,,,,,,,,,,,,,,,,,,,stimuli/alien_stimuli/51.png,51,5,15,,,,,,,30,,,,,,,,439.8936486999737,439.8936486999737,439.8936486999737,439.8936486999737,439.8936486999737,left,1.7876273000147194,10,0,0,99,0.48000000000000004,-0.16,left,1.6886445999844,,,,,438.31152320001274,439.8936486999737,0.16,-0.08,0.0,0.08,-0.08,0.16,0.2,0.16,-0.08,436.84974330000114,436.84974330000114,436.84974330000114,436.84974330000114,436.84974330000114,436.84974330000114,436.84974330000114,436.84974330000114,436.8274264399777,1.5700556000228971,return,1.4455092999851331,,,,,,,,,,,,,,,,,,,,,,,,,,,,,,,,,WGC8YL,train_x,blue_star,bottom_right,2025-10-01_15h03.26.387,HideSeek_v1,2022.2.5,59.928864447394076,
,9,3,4,3,-5,0,11,,train_dim1_1,14,30,,,,2,0,2,0,,,,,,,,,0,0,0,0,0,13,13,13,1,0,1,0,,,,,,,,,,,,,,,,,,,,,,,,,,,,,,,,,,,,,,,,,,,,,,,,,,,,,,,,,,,,,,,,30,,,,,,,,441.68282430002,441.68282430002,441.68282430002,441.68282430002,441.68282430002,left,0.3759848000481725,10,0,0,99,0.4,-0.16,left,0.28837829997064546,,,,,,,,,,,,,,,,,,,,,,,,,,,,,,,,,,,,,,,,,,,,,,,,,,,,,,,,,,,,WGC8YL,train_x,blue_star,bottom_right,2025-10-01_15h03.26.387,HideSeek_v1,2022.2.5,59.928864447394076,
,9,3,4,3,-5,0,11,,train_dim1_1,14,30,,,,2,0,2,0,,,,,,,,,0,0,0,0,0,13,13,13,2,0,2,0,,,,,,,,,,,,,,,,,,,,,,,,,,,,,,,,,,,,,,,,,,,,,,,,,,,,,,,,,,,,,,,,30,,,,,,,,442.06485820002854,442.06485820002854,442.06485820002854,442.06485820002854,442.06485820002854,left,0.3934245000127703,10,0,0,99,0.32,-0.16,left,0.3016730000381358,,,,,,,,,,,,,,,,,,,,,,,,,,,,,,,,,,,,,,,,,,,,,,,,,,,,,,,,,,,,WGC8YL,train_x,blue_star,bottom_right,2025-10-01_15h03.26.387,HideSeek_v1,2022.2.5,59.928864447394076,
,9,3,4,3,-5,0,11,,train_dim1_1,14,30,,,,2,0,2,0,,,,,,,,,0,0,0,0,0,13,13,13,3,0,3,0,,,,,,,,,,,,,,,,,,,,,,,,,,,,,,,,,,,,,,,,,,,,,,,,,,,,,,,,,,,,,,,,30,,,,,,,,442.4662846000283,442.4662846000283,442.4662846000283,442.4662846000283,442.4662846000283,left,0.41015760001027957,10,0,0,99,0.24,-0.16,left,0.3252523999544792,,,,,,,,,,,,,,,,,,,,,,,,,,,,,,,,,,,,,,,,,,,,,,,,,,,,,,,,,,,,WGC8YL,train_x,blue_star,bottom_right,2025-10-01_15h03.26.387,HideSeek_v1,2022.2.5,59.928864447394076,
,9,3,4,3,-5,0,11,,train_dim1_1,14,30,,,,2,0,2,0,,,,,,,,,0,0,0,0,0,13,13,13,4,0,4,0,,,,,,,,,,,,,,,,,,,,,,,,,,,,,,,,,,,,,,,,,,,,,,,,,,,,,,,,,,,,,,,,30,,,,,,,,442.8856370000285,442.8856370000285,442.8856370000285,442.8856370000285,442.8856370000285,left,0.49061659997096285,10,0,0,99,0.15999999999999998,-0.16,left,0.41039229999296367,,,,,,,,,,,,,,,,,,,,,,,,,,,,,,,,,,,,,,,,,,,,,,,,,,,,,,,,,,,,WGC8YL,train_x,blue_star,bottom_right,2025-10-01_15h03.26.387,HideSeek_v1,2022.2.5,59.928864447394076,
,9,3,4,3,-5,0,11,,train_dim1_1,14,30,,,,2,0,2,0,,,,,,,,,0,0,0,0,0,13,13,13,5,0,5,0,,,,,,,,,,,,,,,,,,,,,,,,,,,,,,,,,,,,,,,,,,,,,,,,,,,,,,,,,,,,,,,,30,,,,,,,,443.38345790002495,443.38345790002495,443.38345790002495,443.38345790002495,443.38345790002495,return,0.8104946000385098,11,0,0,1,0.15999999999999998,-0.16,return,0.7281553999637254,0,-38,0.15999999999999998,-0.16,,,,,,,,,,,,,,,,,,,,,,,,,,,,,,,,,,,,,,,,,,,,,,,,,,,,,,,,WGC8YL,train_x,blue_star,bottom_right,2025-10-01_15h03.26.387,HideSeek_v1,2022.2.5,59.928864447394076,
,9,2,9,2,0,0,61,,train_dim1_1,15,30,,,,2,0,2,0,,,,,,,,,0,0,0,0,0,14,14,14,0,0,0,0,,,,,,,,,,,,,,,,,,,,,,,,,stimuli/alien_stimuli/61.png,,,,,,,,,,,,,,,,,,,,,,,,,,,,,stimuli/alien_stimuli/11.png,11,9,16,,,,,,,30,,,,,,,,448.950302799989,448.950302799989,448.950302799989,448.950302799989,448.950302799989,return,1.570539899985306,12,0,0,1,0.56,-0.24,return,1.4697408000356518,0,-38,0.56,-0.24,447.36915629997384,448.950302799989,0.16,-0.16,0.0,0.4,-0.16,0.16,0.36000000000000004,0.16,-0.16,445.7589588999981,445.7589588999981,445.7589588999981,445.7589588999981,445.7589588999981,445.7589588999981,445.7589588999981,445.7589588999981,445.7513504300092,1.720115500036627,return,1.5876163999782875,,,,,,,,,,,,,,,,,,,,,,,,,,,,,,,,,WGC8YL,train_x,blue_star,bottom_right,2025-10-01_15h03.26.387,HideSeek_v1,2022.2.5,59.928864447394076,
,8,3,7,3,-1,0,51,,train_dim1_1,16,30,,,,2,0,2,0,,,,,,,,,0,0,0,0,0,15,15,15,0,0,0,0,,,,,,,,,,,,,,,,,,,,,,,,,stimuli/alien_stimuli/51.png,,,,,,,,,,,,,,,,,,,,,,,,,,,,,stimuli/alien_stimuli/61.png,61,9,17,,,,,,,30,,,,,,,,455.03814419999253,455.03814419999253,455.03814419999253,455.03814419999253,455.03814419999253,left,1.6069210999994539,12,0,0,99,0.39999999999999997,-0.16,left,1.5217980000306852,,,,,453.47438229998806,455.03814419999253,0.56,-0.24,0.0,0.0,-0.24,0.56,0.56,0.56,-0.24,452.0604084000224,452.0604084000224,452.0604084000224,452.0604084000224,452.0604084000224,452.0604084000224,452.0604084000224,452.0604084000224,452.0399539399776,1.5196722999680787,return,1.3817721999948844,,,,,,,,,,,,,,,,,,,,,,,,,,,,,,,,,WGC8YL,train_x,blue_star,bottom_right,2025-10-01_15h03.26.387,HideSeek_v1,2022.2.5,59.928864447394076,
,8,3,7,3,-1,0,51,,train_dim1_1,16,30,,,,2,0,2,0,,,,,,,,,0,0,0,0,0,15,15,15,1,0,1,0,,,,,,,,,,,,,,,,,,,,,,,,,,,,,,,,,,,,,,,,,,,,,,,,,,,,,,,,,,,,,,,,30,,,,,,,,456.6436167000211,456.6436167000211,456.6436167000211,456.6436167000211,456.6436167000211,return,0.6934246000018902,13,0,0,1,0.39999999999999997,-0.16,return,0.6048891000100411,0,-39,0.39999999999999997,-0.16,,,,,,,,,,,,,,,,,,,,,,,,,,,,,,,,,,,,,,,,,,,,,,,,,,,,,,,,WGC8YL,train_x,blue_star,bottom_right,2025-10-01_15h03.26.387,HideSeek_v1,2022.2.5,59.928864447394076,
,7,4,3,4,-4,0,21,,train_dim1_1,17,30,,,,2,0,2,0,,,,,,,,,0,0,0,0,0,16,16,16,0,0,0,0,,,,,,,,,,,,,,,,,,,,,,,,,stimuli/alien_stimuli/21.png,,,,,,,,,,,,,,,,,,,,,,,,,,,,,stimuli/alien_stimuli/51.png,51,8,18,,,,,,,30,,,,,,,,462.17838729999494,462.17838729999494,462.17838729999494,462.17838729999494,462.17838729999494,left,1.8377315999823622,13,0,0,99,0.32,-0.08,left,1.7289960000198334,,,,,460.59677439997904,462.17838729999494,0.4,-0.16,0.0,0.08,-0.16,0.4,0.44,0.4,-0.16,458.90505579998717,458.90505579998717,458.90505579998717,458.90505579998717,458.90505579998717,458.90505579998717,458.90505579998717,458.90505579998717,458.8953795299691,1.8038644000189379,return,1.6598571999929845,,,,,,,,,,,,,,,,,,,,,,,,,,,,,,,,,WGC8YL,train_x,blue_star,bottom_right,2025-10-01_15h03.26.387,HideSeek_v1,2022.2.5,59.928864447394076,
,7,4,3,4,-4,0,21,,train_dim1_1,17,30,,,,2,0,2,0,,,,,,,,,0,0,0,0,0,16,16,16,1,0,1,0,,,,,,,,,,,,,,,,,,,,,,,,,,,,,,,,,,,,,,,,,,,,,,,,,,,,,,,,,,,,,,,,30,,,,,,,,464.00150459998986,464.00150459998986,464.00150459998986,464.00150459998986,464.00150459998986,left,0.3600172000005841,13,0,0,99,0.24,-0.08,left,0.27446560002863407,,,,,,,,,,,,,,,,,,,,,,,,,,,,,,,,,,,,,,,,,,,,,,,,,,,,,,,,,,,,WGC8YL,train_x,blue_star,bottom_right,2025-10-01_15h03.26.387,HideSeek_v1,2022.2.5,59.928864447394076,
,7,4,3,4,-4,0,21,,train_dim1_1,17,30,,,,2,0,2,0,,,,,,,,,0,0,0,0,0,16,16,16,2,0,2,0,,,,,,,,,,,,,,,,,,,,,,,,,,,,,,,,,,,,,,,,,,,,,,,,,,,,,,,,,,,,,,,,30,,,,,,,,464.3684233999811,464.3684233999811,464.3684233999811,464.3684233999811,464.3684233999811,left,0.3928813000093214,13,0,0,99,0.15999999999999998,-0.08,left,0.31297769997036085,,,,,,,,,,,,,,,,,,,,,,,,,,,,,,,,,,,,,,,,,,,,,,,,,,,,,,,,,,,,WGC8YL,train_x,blue_star,bottom_right,2025-10-01_15h03.26.387,HideSeek_v1,2022.2.5,59.928864447394076,
,7,4,3,4,-4,0,21,,train_dim1_1,17,30,,,,2,0,2,0,,,,,,,,,0,0,0,0,0,16,16,16,3,0,3,0,,,,,,,,,,,,,,,,,,,,,,,,,,,,,,,,,,,,,,,,,,,,,,,,,,,,,,,,,,,,,,,,30,,,,,,,,464.76784470002167,464.76784470002167,464.76784470002167,464.76784470002167,464.76784470002167,left,0.4438082000124268,13,0,0,99,0.07999999999999997,-0.08,left,0.3669738000025973,,,,,,,,,,,,,,,,,,,,,,,,,,,,,,,,,,,,,,,,,,,,,,,,,,,,,,,,,,,,WGC8YL,train_x,blue_star,bottom_right,2025-10-01_15h03.26.387,HideSeek_v1,2022.2.5,59.928864447394076,
,7,4,3,4,-4,0,21,,train_dim1_1,17,30,,,,2,0,2,0,,,,,,,,,0,0,0,0,0,16,16,16,4,0,4,0,,,,,,,,,,,,,,,,,,,,,,,,,,,,,,,,,,,,,,,,,,,,,,,,,,,,,,,,,,,,,,,,30,,,,,,,,465.21825700002955,465.21825700002955,465.21825700002955,465.21825700002955,465.21825700002955,return,0.5937182999914512,14,0,0,1,0.07999999999999997,-0.08,return,0.5076021999702789,0,-43,0.07999999999999997,-0.08,,,,,,,,,,,,,,,,,,,,,,,,,,,,,,,,,,,,,,,,,,,,,,,,,,,,,,,,WGC8YL,train_x,blue_star,bottom_right,2025-10-01_15h03.26.387,HideSeek_v1,2022.2.5,59.928864447394076,
,7,1,7,1,0,0,61,,train_dim1_1,18,30,,,,2,0,2,0,,,,,,,,,0,0,0,0,0,17,17,17,0,0,0,0,,,,,,,,,,,,,,,,,,,,,,,,,stimuli/alien_stimuli/61.png,,,,,,,,,,,,,,,,,,,,,,,,,,,,,stimuli/alien_stimuli/21.png,21,7,19,,,,,,,30,,,,,,,,470.3842188999988,470.3842188999988,470.3842188999988,470.3842188999988,470.3842188999988,return,1.9388480999623425,15,0,0,1,0.4,-0.32,return,1.8281451999791898,0,-43,0.4,-0.32,468.80382269999245,470.3842188999988,0.08,-0.08,0.0,0.32,-0.08,0.08,0.24000000000000002,0.08,-0.08,467.3771030000062,467.3771030000062,467.3771030000062,467.3771030000062,467.3771030000062,467.3771030000062,467.3771030000062,467.3771030000062,467.3689708299877,1.5367511000367813,return,1.3950456999591552,,,,,,,,,,,,,,,,,,,,,,,,,,,,,,,,,WGC8YL,train_x,blue_star,bottom_right,2025-10-01_15h03.26.387,HideSeek_v1,2022.2.5,59.928864447394076,
,5,3,2,3,-3,0,31,,train_dim1_1,19,30,,,,2,0,2,0,,,,,,,,,0,0,0,0,0,18,18,18,0,0,0,0,,,,,,,,,,,,,,,,,,,,,,,,,stimuli/alien_stimuli/31.png,,,,,,,,,,,,,,,,,,,,,,,,,,,,,stimuli/alien_stimuli/61.png,61,7,20,,,,,,,30,,,,,,,,476.87322369997855,476.87322369997855,476.87322369997855,476.87322369997855,476.87322369997855,left,1.7179262000136077,15,0,0,99,0.15999999999999998,-0.16,left,1.628662799950689,,,,,475.3088413000223,476.87322369997855,0.4,-0.32,0.0,0.0,-0.32,0.4,0.4,0.4,-0.32,473.8609758000239,473.8609758000239,473.8609758000239,473.8609758000239,473.8609758000239,473.8609758000239,473.8609758000239,473.8609758000239,473.84133963998175,1.5533472999813966,return,1.4262983999797143,,,,,,,,,,,,,,,,,,,,,,,,,,,,,,,,,WGC8YL,train_x,blue_star,bottom_right,2025-10-01_15h03.26.387,HideSeek_v1,2022.2.5,59.928864447394076,
,5,3,2,3,-3,0,31,,train_dim1_1,19,30,,,,2,0,2,0,,,,,,,,,0,0,0,0,0,18,18,18,1,0,1,0,,,,,,,,,,,,,,,,,,,,,,,,,,,,,,,,,,,,,,,,,,,,,,,,,,,,,,,,,,,,,,,,30,,,,,,,,478.5921557000256,478.5921557000256,478.5921557000256,478.5921557000256,478.5921557000256,left,0.45994460000656545,15,0,0,99,0.07999999999999997,-0.16,left,0.38602540001738816,,,,,,,,,,,,,,,,,,,,,,,,,,,,,,,,,,,,,,,,,,,,,,,,,,,,,,,,,,,,WGC8YL,train_x,blue_star,bottom_right,2025-10-01_15h03.26.387,HideSeek_v1,2022.2.5,59.928864447394076,
,5,3,2,3,-3,0,31,,train_dim1_1,19,30,,,,2,0,2,0,,,,,,,,,0,0,0,0,0,18,18,18,2,0,2,0,,,,,,,,,,,,,,,,,,,,,,,,,,,,,,,,,,,,,,,,,,,,,,,,,,,,,,,,,,,,,,,,30,,,,,,,,479.0599854000029,479.0599854000029,479.0599854000029,479.0599854000029,479.0599854000029,left,0.45903719996567816,15,0,0,99,-2.7755575615628914e-17,-0.16,left,0.38314220000756904,,,,,,,,,,,,,,,,,,,,,,,,,,,,,,,,,,,,,,,,,,,,,,,,,,,,,,,,,,,,WGC8YL,train_x,blue_star,bottom_right,2025-10-01_15h03.26.387,HideSeek_v1,2022.2.5,59.928864447394076,
,5,3,2,3,-3,0,31,,train_dim1_1,19,30,,,,2,0,2,0,,,,,,,,,0,0,0,0,0,18,18,18,3,0,3,0,,,,,,,,,,,,,,,,,,,,,,,,,,,,,,,,,,,,,,,,,,,,,,,,,,,,,,,,,,,,,,,,30,,,,,,,,479.5259774000151,479.5259774000151,479.5259774000151,479.5259774000151,479.5259774000151,return,0.6605551999527961,16,0,0,1,-2.7755575615628914e-17,-0.16,return,0.578832599974703,0,-46,-2.7755575615628914e-17,-0.16,,,,,,,,,,,,,,,,,,,,,,,,,,,,,,,,,,,,,,,,,,,,,,,,,,,,,,,,WGC8YL,train_x,blue_star,bottom_right,2025-10-01_15h03.26.387,HideSeek_v1,2022.2.5,59.928864447394076,
,5,1,0,1,-5,0,11,,train_dim1_1,20,30,,,,2,0,2,0,,,,,,,,,0,0,0,0,0,19,19,19,0,0,0,0,,,,,,,,,,,,,,,,,,,,,,,,,stimuli/alien_stimuli/11.png,,,,,,,,,,,,,,,,,,,,,,,,,,,,,stimuli/alien_stimuli/31.png,31,5,21,,,,,,,30,,,,,,,,484.8602174000116,484.8602174000116,484.8602174000116,484.8602174000116,484.8602174000116,left,1.539853700029198,16,0,0,99,0.15999999999999998,-0.32,left,1.4266810999833979,,,,,483.2825304000289,484.8602174000116,0,-0.16,0.0,0.24,-0.16,0,0.12,0,-0.16,481.7515016000252,481.7515016000252,481.7515016000252,481.7515016000252,481.7515016000252,481.7515016000252,481.7515016000252,481.7515016000252,481.730981440004,1.637414800003171,return,1.5059811999672092,,,,,,,,,,,,,,,,,,,,,,,,,,,,,,,,,WGC8YL,train_x,blue_star,bottom_right,2025-10-01_15h03.26.387,HideSeek_v1,2022.2.5,59.928864447394076,
,5,1,0,1,-5,0,11,,train_dim1_1,20,30,,,,2,0,2,0,,,,,,,,,0,0,0,0,0,19,19,19,1,0,1,0,,,,,,,,,,,,,,,,,,,,,,,,,,,,,,,,,,,,,,,,,,,,,,,,,,,,,,,,,,,,,,,,30,,,,,,,,486.39668549998896,486.39668549998896,486.39668549998896,486.39668549998896,486.39668549998896,left,0.3835346999694593,16,0,0,99,0.07999999999999997,-0.32,left,0.30263099999865517,,,,,,,,,,,,,,,,,,,,,,,,,,,,,,,,,,,,,,,,,,,,,,,,,,,,,,,,,,,,WGC8YL,train_x,blue_star,bottom_right,2025-10-01_15h03.26.387,HideSeek_v1,2022.2.5,59.928864447394076,
,5,1,0,1,-5,0,11,,train_dim1_1,20,30,,,,2,0,2,0,,,,,,,,,0,0,0,0,0,19,19,19,2,0,2,0,,,,,,,,,,,,,,,,,,,,,,,,,,,,,,,,,,,,,,,,,,,,,,,,,,,,,,,,,,,,,,,,30,,,,,,,,486.7862462999765,486.7862462999765,486.7862462999765,486.7862462999765,486.7862462999765,left,0.3934990999987349,16,0,0,99,-2.7755575615628914e-17,-0.32,left,0.3015951000270434,,,,,,,,,,,,,,,,,,,,,,,,,,,,,,,,,,,,,,,,,,,,,,,,,,,,,,,,,,,,WGC8YL,train_x,blue_star,bottom_right,2025-10-01_15h03.26.387,HideSeek_v1,2022.2.5,59.928864447394076,
,5,1,0,1,-5,0,11,,train_dim1_1,20,30,,,,2,0,2,0,,,,,,,,,0,0,0,0,0,19,19,19,3,0,3,0,,,,,,,,,,,,,,,,,,,,,,,,,,,,,,,,,,,,,,,,,,,,,,,,,,,,,,,,,,,,,,,,30,,,,,,,,487.18738110002596,487.18738110002596,487.18738110002596,487.18738110002596,487.18738110002596,left,0.4097308999625966,16,0,0,99,-0.08000000000000003,-0.32,left,0.33248849998926744,,,,,,,,,,,,,,,,,,,,,,,,,,,,,,,,,,,,,,,,,,,,,,,,,,,,,,,,,,,,WGC8YL,train_x,blue_star,bottom_right,2025-10-01_15h03.26.387,HideSeek_v1,2022.2.5,59.928864447394076,
,5,1,0,1,-5,0,11,,train_dim1_1,20,30,,,,2,0,2,0,,,,,,,,,0,0,0,0,0,19,19,19,4,0,4,0,,,,,,,,,,,,,,,,,,,,,,,,,,,,,,,,,,,,,,,,,,,,,,,,,,,,,,,,,,,,,,,,30,,,,,,,,487.602799699991,487.602799699991,487.602799699991,487.602799699991,487.602799699991,left,0.42694550001760945,16,0,0,99,-0.16000000000000003,-0.32,left,0.34480889997212216,,,,,,,,,,,,,,,,,,,,,,,,,,,,,,,,,,,,,,,,,,,,,,,,,,,,,,,,,,,,WGC8YL,train_x,blue_star,bottom_right,2025-10-01_15h03.26.387,HideSeek_v1,2022.2.5,59.928864447394076,
,5,1,0,1,-5,0,11,,train_dim1_1,20,30,,,,2,0,2,0,,,,,,,,,0,0,0,0,0,19,19,19,5,0,5,0,,,,,,,,,,,,,,,,,,,,,,,,,,,,,,,,,,,,,,,,,,,,,,,,,,,,,,,,,,,,,,,,30,,,,,,,,488.03918010002235,488.03918010002235,488.03918010002235,488.03918010002235,488.03918010002235,return,0.625007499998901,17,0,0,1,-0.16000000000000003,-0.32,return,0.5415688999928534,0,-51,-0.16000000000000003,-0.32,,,,,,,,,,,,,,,,,,,,,,,,,,,,,,,,,,,,,,,,,,,,,,,,,,,,,,,,WGC8YL,train_x,blue_star,bottom_right,2025-10-01_15h03.26.387,HideSeek_v1,2022.2.5,59.928864447394076,
,9,2,6,2,-3,0,31,,train_dim1_1,21,30,,,,2,0,2,0,,,,,,,,,0,0,0,0,0,20,20,20,0,0,0,0,,,,,,,,,,,,,,,,,,,,,,,,,stimuli/alien_stimuli/31.png,,,,,,,,,,,,,,,,,,,,,,,,,,,,,stimuli/alien_stimuli/11.png,11,5,22,,,,,,,30,,,,,,,,493.1850631000125,493.1850631000125,493.1850631000125,493.1850631000125,493.1850631000125,left,1.8860156000009738,17,0,0,99,0.48000000000000004,-0.24,left,1.7891178000136279,,,,,491.6060279000085,493.1850631000125,-0.16,-0.32,0.0,0.4,-0.32,-0.16,0.039999999999999994,-0.16,-0.32,490.2305156000075,490.2305156000075,490.2305156000075,490.2305156000075,490.2305156000075,490.2305156000075,490.2305156000075,490.2305156000075,490.22162813000034,1.4864929000032134,return,1.3468042999738827,,,,,,,,,,,,,,,,,,,,,,,,,,,,,,,,,WGC8YL,train_x,blue_star,bottom_right,2025-10-01_15h03.26.387,HideSeek_v1,2022.2.5,59.928864447394076,
,9,2,6,2,-3,0,31,,train_dim1_1,21,30,,,,2,0,2,0,,,,,,,,,0,0,0,0,0,20,20,20,1,0,1,0,,,,,,,,,,,,,,,,,,,,,,,,,,,,,,,,,,,,,,,,,,,,,,,,,,,,,,,,,,,,,,,,30,,,,,,,,495.0563737999764,495.0563737999764,495.0563737999764,495.0563737999764,495.0563737999764,left,0.47614169999724254,17,0,0,99,0.4,-0.24,left,0.38770839996868744,,,,,,,,,,,,,,,,,,,,,,,,,,,,,,,,,,,,,,,,,,,,,,,,,,,,,,,,,,,,WGC8YL,train_x,blue_star,bottom_right,2025-10-01_15h03.26.387,HideSeek_v1,2022.2.5,59.928864447394076,
,9,2,6,2,-3,0,31,,train_dim1_1,21,30,,,,2,0,2,0,,,,,,,,,0,0,0,0,0,20,20,20,2,0,2,0,,,,,,,,,,,,,,,,,,,,,,,,,,,,,,,,,,,,,,,,,,,,,,,,,,,,,,,,,,,,,,,,30,,,,,,,,495.5378781000036,495.5378781000036,495.5378781000036,495.5378781000036,495.5378781000036,left,0.5101916000130586,17,0,0,99,0.32,-0.24,left,0.43005030002677813,,,,,,,,,,,,,,,,,,,,,,,,,,,,,,,,,,,,,,,,,,,,,,,,,,,,,,,,,,,,WGC8YL,train_x,blue_star,bottom_right,2025-10-01_15h03.26.387,HideSeek_v1,2022.2.5,59.928864447394076,
,9,2,6,2,-3,0,31,,train_dim1_1,21,30,,,,2,0,2,0,,,,,,,,,0,0,0,0,0,20,20,20,3,0,3,0,,,,,,,,,,,,,,,,,,,,,,,,,,,,,,,,,,,,,,,,,,,,,,,,,,,,,,,,,,,,,,,,30,,,,,,,,496.05600119999144,496.05600119999144,496.05600119999144,496.05600119999144,496.05600119999144,left,0.5272943000309169,17,0,0,99,0.24,-0.24,left,0.4427412000368349,,,,,,,,,,,,,,,,,,,,,,,,,,,,,,,,,,,,,,,,,,,,,,,,,,,,,,,,,,,,WGC8YL,train_x,blue_star,bottom_right,2025-10-01_15h03.26.387,HideSeek_v1,2022.2.5,59.928864447394076,
,9,2,6,2,-3,0,31,,train_dim1_1,21,30,,,,2,0,2,0,,,,,,,,,0,0,0,0,0,20,20,20,4,0,4,0,,,,,,,,,,,,,,,,,,,,,,,,,,,,,,,,,,,,,,,,,,,,,,,,,,,,,,,,,,,,,,,,30,,,,,,,,496.58991139999125,496.58991139999125,496.58991139999125,496.58991139999125,496.58991139999125,return,1.1272879000171088,17,1,0,0,0.24,-0.24,return,1.0493823999422602,0,-55,0.24,-0.24,,,,,,,,,,,,,,,,,,,,,,,,,,,,,,,,,,,,,,,,,,,,,,,,,,,,,,,,WGC8YL,train_x,blue_star,bottom_right,2025-10-01_15h03.26.387,HideSeek_v1,2022.2.5,59.928864447394076,
,6,0,2,0,-4,0,21,,train_dim1_1,22,30,,,,2,0,2,0,,,,,,,,,0,0,0,0,0,21,21,21,0,0,0,0,,,,,,,,,,,,,,,,,,,,,,,,,stimuli/alien_stimuli/21.png,,,,,,,,,,,,,,,,,,,,,,,,,,,,,stimuli/alien_stimuli/31.png,31,9,23,,,,,,,30,,,,,,,,503.4315650999779,503.4315650999779,503.4315650999779,503.4315650999779,503.4315650999779,left,2.523197899980005,17,1,0,99,0.24,-0.4,left,2.422607499989681,,,,,501.86450050002895,503.4315650999779,0.32,-0.24,0.0,0.24,-0.24,0.32,0.44000000000000006,0.32,-0.24,499.2838569000014,499.2838569000014,499.2838569000014,499.2838569000014,499.2838569000014,499.2838569000014,499.2838569000014,499.2838569000014,499.2621395400027,2.6881159999757074,return,2.563959099992644,,,,,,,,,,,,,,,,,,,,,,,,,,,,,,,,,WGC8YL,train_x,blue_star,bottom_right,2025-10-01_15h03.26.387,HideSeek_v1,2022.2.5,59.928864447394076,
,6,0,2,0,-4,0,21,,train_dim1_1,22,30,,,,2,0,2,0,,,,,,,,,0,0,0,0,0,21,21,21,1,0,1,0,,,,,,,,,,,,,,,,,,,,,,,,,,,,,,,,,,,,,,,,,,,,,,,,,,,,,,,,,,,,,,,,30,,,,,,,,505.9579952000058,505.9579952000058,505.9579952000058,505.9579952000058,505.9579952000058,left,0.4887853999971412,17,1,0,99,0.15999999999999998,-0.4,left,0.3980989999836311,,,,,,,,,,,,,,,,,,,,,,,,,,,,,,,,,,,,,,,,,,,,,,,,,,,,,,,,,,,,WGC8YL,train_x,blue_star,bottom_right,2025-10-01_15h03.26.387,HideSeek_v1,2022.2.5,59.928864447394076,
,6,0,2,0,-4,0,21,,train_dim1_1,22,30,,,,2,0,2,0,,,,,,,,,0,0,0,0,0,21,21,21,2,0,2,0,,,,,,,,,,,,,,,,,,,,,,,,,,,,,,,,,,,,,,,,,,,,,,,,,,,,,,,,,,,,,,,,30,,,,,,,,506.45444280002266,506.45444280002266,506.45444280002266,506.45444280002266,506.45444280002266,left,0.45758039999054745,17,1,0,99,0.07999999999999997,-0.4,left,0.3759052999666892,,,,,,,,,,,,,,,,,,,,,,,,,,,,,,,,,,,,,,,,,,,,,,,,,,,,,,,,,,,,WGC8YL,train_x,blue_star,bottom_right,2025-10-01_15h03.26.387,HideSeek_v1,2022.2.5,59.928864447394076,
,6,0,2,0,-4,0,21,,train_dim1_1,22,30,,,,2,0,2,0,,,,,,,,,0,0,0,0,0,21,21,21,3,0,3,0,,,,,,,,,,,,,,,,,,,,,,,,,,,,,,,,,,,,,,,,,,,,,,,,,,,,,,,,,,,,,,,,30,,,,,,,,506.91853780002566,506.91853780002566,506.91853780002566,506.91853780002566,506.91853780002566,return,1.377800300018862,17,1,0,0,0.07999999999999997,-0.4,return,1.293960099981632,0,-58,0.07999999999999997,-0.4,,,,,,,,,,,,,,,,,,,,,,,,,,,,,,,,,,,,,,,,,,,,,,,,,,,,,,,,WGC8YL,train_x,blue_star,bottom_right,2025-10-01_15h03.26.387,HideSeek_v1,2022.2.5,59.928864447394076,
,7,1,7,1,0,0,61,,train_dim1_1,23,30,,,,2,0,2,0,,,,,,,,,0,0,0,0,0,22,22,22,0,0,0,0,,,,,,,,,,,,,,,,,,,,,,,,,stimuli/alien_stimuli/61.png,,,,,,,,,,,,,,,,,,,,,,,,,,,,,stimuli/alien_stimuli/21.png,21,6,24,,,,,,,30,,,,,,,,513.1158844999736,513.1158844999736,513.1158844999736,513.1158844999736,513.1158844999736,return,1.2529018999775872,18,0,0,1,0.4,-0.32,return,1.1531076999963261,0,-58,0.4,-0.32,511.5390989999869,513.1158844999736,0,-0.4,0.0,0.32,-0.4,0,0.16,0,-0.4,509.87863990000915,509.87863990000915,509.87863990000915,509.87863990000915,509.87863990000915,509.87863990000915,509.87863990000915,509.87863990000915,509.87136942000365,1.7866617999970913,return,1.6387786000268534,,,,,,,,,,,,,,,,,,,,,,,,,,,,,,,,,WGC8YL,train_x,blue_star,bottom_right,2025-10-01_15h03.26.387,HideSeek_v1,2022.2.5,59.928864447394076,
,9,4,8,4,-1,0,51,,train_dim1_1,24,30,,,,2,0,2,0,,,,,,,,,0,0,0,0,0,23,23,23,0,0,0,0,,,,,,,,,,,,,,,,,,,,,,,,,stimuli/alien_stimuli/51.png,,,,,,,,,,,,,,,,,,,,,,,,,,,,,stimuli/alien_stimuli/61.png,61,7,25,,,,,,,30,,,,,,,,518.6609196999925,518.6609196999925,518.6609196999925,518.6609196999925,518.6609196999925,left,1.5005316999740899,18,0,0,99,0.48000000000000004,-0.08,left,1.4074679000186734,,,,,517.0937069000211,518.6609196999925,0.4,-0.32,0.0,0.0,-0.32,0.4,0.4,0.4,-0.32,515.9144519999973,515.9144519999973,515.9144519999973,515.9144519999973,515.9144519999973,515.9144519999973,515.9144519999973,515.9144519999973,515.8927573399967,1.2865815999684855,return,1.1610562999849208,,,,,,,,,,,,,,,,,,,,,,,,,,,,,,,,,WGC8YL,train_x,blue_star,bottom_right,2025-10-01_15h03.26.387,HideSeek_v1,2022.2.5,59.928864447394076,
,9,4,8,4,-1,0,51,,train_dim1_1,24,30,,,,2,0,2,0,,,,,,,,,0,0,0,0,0,23,23,23,1,0,1,0,,,,,,,,,,,,,,,,,,,,,,,,,,,,,,,,,,,,,,,,,,,,,,,,,,,,,,,,,,,,,,,,30,,,,,,,,520.162307200022,520.162307200022,520.162307200022,520.162307200022,520.162307200022,return,0.4931633999804035,19,0,0,1,0.48000000000000004,-0.08,return,0.40278169995872304,0,-59,0.48000000000000004,-0.08,,,,,,,,,,,,,,,,,,,,,,,,,,,,,,,,,,,,,,,,,,,,,,,,,,,,,,,,WGC8YL,train_x,blue_star,bottom_right,2025-10-01_15h03.26.387,HideSeek_v1,2022.2.5,59.928864447394076,
,8,0,3,0,-5,0,11,,train_dim1_1,25,30,,,,2,0,2,0,,,,,,,,,0,0,0,0,0,24,24,24,0,0,0,0,,,,,,,,,,,,,,,,,,,,,,,,,stimuli/alien_stimuli/11.png,,,,,,,,,,,,,,,,,,,,,,,,,,,,,stimuli/alien_stimuli/51.png,51,9,26,,,,,,,30,,,,,,,,525.1972785000107,525.1972785000107,525.1972785000107,525.1972785000107,525.1972785000107,left,1.5542760000098497,19,0,0,99,0.39999999999999997,-0.4,left,1.4594404000090435,,,,,523.6322836999898,525.1972785000107,0.48,-0.08,0.0,0.08,-0.08,0.48,0.52,0.48,-0.08,522.222253600019,522.222253600019,522.222253600019,522.222253600019,522.222253600019,522.222253600019,522.222253600019,522.222253600019,522.2148941300052,1.519672599970363,return,1.3851466999622062,,,,,,,,,,,,,,,,,,,,,,,,,,,,,,,,,WGC8YL,train_x,blue_star,bottom_right,2025-10-01_15h03.26.387,HideSeek_v1,2022.2.5,59.928864447394076,
,8,0,3,0,-5,0,11,,train_dim1_1,25,30,,,,2,0,2,0,,,,,,,,,0,0,0,0,0,24,24,24,1,0,1,0,,,,,,,,,,,,,,,,,,,,,,,,,,,,,,,,,,,,,,,,,,,,,,,,,,,,,,,,,,,,,,,,30,,,,,,,,526.7531949999975,526.7531949999975,526.7531949999975,526.7531949999975,526.7531949999975,left,0.4429709000396542,19,0,0,99,0.31999999999999995,-0.4,left,0.3543265000334941,,,,,,,,,,,,,,,,,,,,,,,,,,,,,,,,,,,,,,,,,,,,,,,,,,,,,,,,,,,,WGC8YL,train_x,blue_star,bottom_right,2025-10-01_15h03.26.387,HideSeek_v1,2022.2.5,59.928864447394076,
,8,0,3,0,-5,0,11,,train_dim1_1,25,30,,,,2,0,2,0,,,,,,,,,0,0,0,0,0,24,24,24,2,0,2,0,,,,,,,,,,,,,,,,,,,,,,,,,,,,,,,,,,,,,,,,,,,,,,,,,,,,,,,,,,,,,,,,30,,,,,,,,527.20391630003,527.20391630003,527.20391630003,527.20391630003,527.20391630003,left,0.44365460000699386,19,0,0,99,0.23999999999999994,-0.4,left,0.3664204999804497,,,,,,,,,,,,,,,,,,,,,,,,,,,,,,,,,,,,,,,,,,,,,,,,,,,,,,,,,,,,WGC8YL,train_x,blue_star,bottom_right,2025-10-01_15h03.26.387,HideSeek_v1,2022.2.5,59.928864447394076,
,8,0,3,0,-5,0,11,,train_dim1_1,25,30,,,,2,0,2,0,,,,,,,,,0,0,0,0,0,24,24,24,3,0,3,0,,,,,,,,,,,,,,,,,,,,,,,,,,,,,,,,,,,,,,,,,,,,,,,,,,,,,,,,,,,,,,,,30,,,,,,,,527.6549132000073,527.6549132000073,527.6549132000073,527.6549132000073,527.6549132000073,left,0.5090269999927841,19,0,0,99,0.15999999999999992,-0.4,left,0.4270035999943502,,,,,,,,,,,,,,,,,,,,,,,,,,,,,,,,,,,,,,,,,,,,,,,,,,,,,,,,,,,,WGC8YL,train_x,blue_star,bottom_right,2025-10-01_15h03.26.387,HideSeek_v1,2022.2.5,59.928864447394076,
,8,0,3,0,-5,0,11,,train_dim1_1,25,30,,,,2,0,2,0,,,,,,,,,0,0,0,0,0,24,24,24,4,0,4,0,,,,,,,,,,,,,,,,,,,,,,,,,,,,,,,,,,,,,,,,,,,,,,,,,,,,,,,,,,,,,,,,30,,,,,,,,528.1695239000255,528.1695239000255,528.1695239000255,528.1695239000255,528.1695239000255,left,1.5947192999883555,19,0,0,99,0.07999999999999992,-0.4,left,1.5082996999844909,,,,,,,,,,,,,,,,,,,,,,,,,,,,,,,,,,,,,,,,,,,,,,,,,,,,,,,,,,,,WGC8YL,train_x,blue_star,bottom_right,2025-10-01_15h03.26.387,HideSeek_v1,2022.2.5,59.928864447394076,
,8,0,3,0,-5,0,11,,train_dim1_1,25,30,,,,2,0,2,0,,,,,,,,,0,0,0,0,0,24,24,24,5,0,5,0,,,,,,,,,,,,,,,,,,,,,,,,,,,,,,,,,,,,,,,,,,,,,,,,,,,,,,,,,,,,,,,,30,,,,,,,,529.7770289999899,529.7770289999899,529.7770289999899,529.7770289999899,529.7770289999899,return,0.6221806000103243,20,0,0,1,0.07999999999999992,-0.4,return,0.5446973000071011,0,-64,0.07999999999999992,-0.4,,,,,,,,,,,,,,,,,,,,,,,,,,,,,,,,,,,,,,,,,,,,,,,,,,,,,,,,WGC8YL,train_x,blue_star,bottom_right,2025-10-01_15h03.26.387,HideSeek_v1,2022.2.5,59.928864447394076,
,6,1,6,1,0,0,61,,train_dim1_1,26,30,,,,2,0,2,0,,,,,,,,,0,0,0,0,0,25,25,25,0,0,0,0,,,,,,,,,,,,,,,,,,,,,,,,,stimuli/alien_stimuli/61.png,,,,,,,,,,,,,,,,,,,,,,,,,,,,,stimuli/alien_stimuli/11.png,11,8,27,,,,,,,30,,,,,,,,535.0167180999997,535.0167180999997,535.0167180999997,535.0167180999997,535.0167180999997,return,1.5201516000088304,21,0,0,1,0.32,-0.32,return,1.4190026000142097,0,-64,0.32,-0.32,533.4408906000317,535.0167180999997,0.08,-0.4,0.0,0.4,-0.4,0.08,0.27999999999999997,0.08,-0.4,531.9644633000134,531.9644633000134,531.9644633000134,531.9644633000134,531.9644633000134,531.9644633000134,531.9644633000134,531.9644633000134,531.9562153299862,1.5875921999686398,return,1.4573722000350244,,,,,,,,,,,,,,,,,,,,,,,,,,,,,,,,,WGC8YL,train_x,blue_star,bottom_right,2025-10-01_15h03.26.387,HideSeek_v1,2022.2.5,59.928864447394076,
,5,1,2,1,-3,0,31,,train_dim1_1,27,30,,,,2,0,2,0,,,,,,,,,0,0,0,0,0,26,26,26,0,0,0,0,,,,,,,,,,,,,,,,,,,,,,,,,stimuli/alien_stimuli/31.png,,,,,,,,,,,,,,,,,,,,,,,,,,,,,stimuli/alien_stimuli/61.png,61,6,28,,,,,,,30,,,,,,,,540.6556339000235,540.6556339000235,540.6556339000235,540.6556339000235,540.6556339000235,left,2.2399566999520175,21,0,0,99,0.15999999999999998,-0.32,left,2.148486399964895,,,,,539.0952949000057,540.6556339000235,0.32,-0.32,0.0,0.0,-0.32,0.32,0.32,0.32,-0.32,538.0778603000217,538.0778603000217,538.0778603000217,538.0778603000217,538.0778603000217,538.0778603000217,538.0778603000217,538.0778603000217,538.0613174400175,1.1197799999499694,return,0.9857497000484727,,,,,,,,,,,,,,,,,,,,,,,,,,,,,,,,,WGC8YL,train_x,blue_star,bottom_right,2025-10-01_15h03.26.387,HideSeek_v1,2022.2.5,59.928864447394076,
,5,1,2,1,-3,0,31,,train_dim1_1,27,30,,,,2,0,2,0,,,,,,,,,0,0,0,0,0,26,26,26,1,0,1,0,,,,,,,,,,,,,,,,,,,,,,,,,,,,,,,,,,,,,,,,,,,,,,,,,,,,,,,,,,,,,,,,30,,,,,,,,542.8953295000247,542.8953295000247,542.8953295000247,542.8953295000247,542.8953295000247,left,0.4758596000028774,21,0,0,99,0.07999999999999997,-0.32,left,0.38844389998121187,,,,,,,,,,,,,,,,,,,,,,,,,,,,,,,,,,,,,,,,,,,,,,,,,,,,,,,,,,,,WGC8YL,train_x,blue_star,bottom_right,2025-10-01_15h03.26.387,HideSeek_v1,2022.2.5,59.928864447394076,
,5,1,2,1,-3,0,31,,train_dim1_1,27,30,,,,2,0,2,0,,,,,,,,,0,0,0,0,0,26,26,26,2,0,2,0,,,,,,,,,,,,,,,,,,,,,,,,,,,,,,,,,,,,,,,,,,,,,,,,,,,,,,,,,,,,,,,,30,,,,,,,,543.3795656000148,543.3795656000148,543.3795656000148,543.3795656000148,543.3795656000148,return,1.060675899963826,21,1,0,0,0.07999999999999997,-0.32,return,0.986264500010293,0,-66,0.07999999999999997,-0.32,,,,,,,,,,,,,,,,,,,,,,,,,,,,,,,,,,,,,,,,,,,,,,,,,,,,,,,,WGC8YL,train_x,blue_star,bottom_right,2025-10-01_15h03.26.387,HideSeek_v1,2022.2.5,59.928864447394076,
,8,1,4,1,-4,0,21,,train_dim1_1,28,30,,,,2,0,2,0,,,,,,,,,0,0,0,0,0,27,27,27,0,0,0,0,,,,,,,,,,,,,,,,,,,,,,,,,stimuli/alien_stimuli/21.png,,,,,,,,,,,,,,,,,,,,,,,,,,,,,stimuli/alien_stimuli/31.png,31,5,29,,,,,,,30,,,,,,,,549.0012159000034,549.0012159000034,549.0012159000034,549.0012159000034,549.0012159000034,left,1.5057795000029728,21,1,0,99,0.39999999999999997,-0.32,left,1.396777399990242,,,,,547.418897000025,549.0012159000034,0,-0.32,0.0,0.24,-0.32,0,0.12,0,-0.32,546.0047844999935,546.0047844999935,546.0047844999935,546.0047844999935,546.0047844999935,546.0047844999935,546.0047844999935,546.0047844999935,545.9843898399965,1.5201933999778703,return,1.3820387000450864,,,,,,,,,,,,,,,,,,,,,,,,,,,,,,,,,WGC8YL,train_x,blue_star,bottom_right,2025-10-01_15h03.26.387,HideSeek_v1,2022.2.5,59.928864447394076,
,8,1,4,1,-4,0,21,,train_dim1_1,28,30,,,,2,0,2,0,,,,,,,,,0,0,0,0,0,27,27,27,1,0,1,0,,,,,,,,,,,,,,,,,,,,,,,,,,,,,,,,,,,,,,,,,,,,,,,,,,,,,,,,,,,,,,,,30,,,,,,,,550.4909246999887,550.4909246999887,550.4909246999887,550.4909246999887,550.4909246999887,left,0.42502159997820854,21,1,0,99,0.31999999999999995,-0.32,left,0.3463148000300862,,,,,,,,,,,,,,,,,,,,,,,,,,,,,,,,,,,,,,,,,,,,,,,,,,,,,,,,,,,,WGC8YL,train_x,blue_star,bottom_right,2025-10-01_15h03.26.387,HideSeek_v1,2022.2.5,59.928864447394076,
,8,1,4,1,-4,0,21,,train_dim1_1,28,30,,,,2,0,2,0,,,,,,,,,0,0,0,0,0,27,27,27,2,0,2,0,,,,,,,,,,,,,,,,,,,,,,,,,,,,,,,,,,,,,,,,,,,,,,,,,,,,,,,,,,,,,,,,30,,,,,,,,550.9226090000011,550.9226090000011,550.9226090000011,550.9226090000011,550.9226090000011,left,0.4263665000326,21,1,0,99,0.23999999999999994,-0.32,left,0.3490597000345588,,,,,,,,,,,,,,,,,,,,,,,,,,,,,,,,,,,,,,,,,,,,,,,,,,,,,,,,,,,,WGC8YL,train_x,blue_star,bottom_right,2025-10-01_15h03.26.387,HideSeek_v1,2022.2.5,59.928864447394076,
,8,1,4,1,-4,0,21,,train_dim1_1,28,30,,,,2,0,2,0,,,,,,,,,0,0,0,0,0,27,27,27,3,0,3,0,,,,,,,,,,,,,,,,,,,,,,,,,,,,,,,,,,,,,,,,,,,,,,,,,,,,,,,,,,,,,,,,30,,,,,,,,551.3553794000181,551.3553794000181,551.3553794000181,551.3553794000181,551.3553794000181,left,0.4602998999762349,21,1,0,99,0.15999999999999992,-0.32,left,0.37381449999520555,,,,,,,,,,,,,,,,,,,,,,,,,,,,,,,,,,,,,,,,,,,,,,,,,,,,,,,,,,,,WGC8YL,train_x,blue_star,bottom_right,2025-10-01_15h03.26.387,HideSeek_v1,2022.2.5,59.928864447394076,
,8,1,4,1,-4,0,21,,train_dim1_1,28,30,,,,2,0,2,0,,,,,,,,,0,0,0,0,0,27,27,27,4,0,4,0,,,,,,,,,,,,,,,,,,,,,,,,,,,,,,,,,,,,,,,,,,,,,,,,,,,,,,,,,,,,,,,,30,,,,,,,,551.8232470999938,551.8232470999938,551.8232470999938,551.8232470999938,551.8232470999938,return,0.6102571999654174,22,0,0,1,0.15999999999999992,-0.32,return,0.5298941000364721,0,-70,0.15999999999999992,-0.32,,,,,,,,,,,,,,,,,,,,,,,,,,,,,,,,,,,,,,,,,,,,,,,,,,,,,,,,WGC8YL,train_x,blue_star,bottom_right,2025-10-01_15h03.26.387,HideSeek_v1,2022.2.5,59.928864447394076,
,9,0,8,0,-1,0,51,,train_dim1_1,29,30,,,,2,0,2,0,,,,,,,,,0,0,0,0,0,28,28,28,0,0,0,0,,,,,,,,,,,,,,,,,,,,,,,,,stimuli/alien_stimuli/51.png,,,,,,,,,,,,,,,,,,,,,,,,,,,,,stimuli/alien_stimuli/21.png,21,8,30,,,,,,,30,,,,,,,,556.7487561000162,556.7487561000162,556.7487561000162,556.7487561000162,556.7487561000162,left,1.2221186000388116,22,0,0,99,0.48000000000000004,-0.4,left,1.1185107000055723,,,,,555.1753803999745,556.7487561000162,0.16,-0.32,0.0,0.32,-0.32,0.16,0.32,0.16,-0.32,554.0048560000141,554.0048560000141,554.0048560000141,554.0048560000141,554.0048560000141,554.0048560000141,554.0048560000141,554.0048560000141,553.9911585299938,1.2863122999551706,return,1.1458201999776065,,,,,,,,,,,,,,,,,,,,,,,,,,,,,,,,,WGC8YL,train_x,blue_star,bottom_right,2025-10-01_15h03.26.387,HideSeek_v1,2022.2.5,59.928864447394076,
,9,0,8,0,-1,0,51,,train_dim1_1,29,30,,,,2,0,2,0,,,,,,,,,0,0,0,0,0,28,28,28,1,0,1,0,,,,,,,,,,,,,,,,,,,,,,,,,,,,,,,,,,,,,,,,,,,,,,,,,,,,,,,,,,,,,,,,30,,,,,,,,557.9627871999983,557.9627871999983,557.9627871999983,557.9627871999983,557.9627871999983,return,0.7437046999693848,23,0,0,1,0.48000000000000004,-0.4,return,0.6561932000331581,0,-71,0.48000000000000004,-0.4,,,,,,,,,,,,,,,,,,,,,,,,,,,,,,,,,,,,,,,,,,,,,,,,,,,,,,,,WGC8YL,train_x,blue_star,bottom_right,2025-10-01_15h03.26.387,HideSeek_v1,2022.2.5,59.928864447394076,
,7,2,2,2,-5,0,11,,train_dim1_1,30,30,,,,2,0,2,0,,,,,,,,,0,0,0,0,0,29,29,29,0,0,0,0,,,,,,,,,,,,,,,,,,,,,,,,,stimuli/alien_stimuli/11.png,,,,,,,,,,,,,,,,,,,,,,,,,,,,,stimuli/alien_stimuli/51.png,51,9,31,,,,,,,30,,,,,,,,562.9830029000295,562.9830029000295,562.9830029000295,562.9830029000295,562.9830029000295,left,1.3670909000211395,23,0,0,99,0.32,-0.24,left,1.2795743000460789,,,,,561.4145136000006,562.9830029000295,0.48,-0.4,0.0,0.08,-0.4,0.48,0.52,0.48,-0.4,560.2688987000147,560.2688987000147,560.2688987000147,560.2688987000147,560.2688987000147,560.2688987000147,560.2688987000147,560.2688987000147,560.2465057399938,1.2535363000351936,return,1.1139841000549495,,,,,,,,,,,,,,,,,,,,,,,,,,,,,,,,,WGC8YL,train_x,blue_star,bottom_right,2025-10-01_15h03.26.387,HideSeek_v1,2022.2.5,59.928864447394076,
,7,2,2,2,-5,0,11,,train_dim1_1,30,30,,,,2,0,2,0,,,,,,,,,0,0,0,0,0,29,29,29,1,0,1,0,,,,,,,,,,,,,,,,,,,,,,,,,,,,,,,,,,,,,,,,,,,,,,,,,,,,,,,,,,,,,,,,30,,,,,,,,564.3507597999997,564.3507597999997,564.3507597999997,564.3507597999997,564.3507597999997,left,0.4098818000056781,23,0,0,99,0.24,-0.24,left,0.3321155000012368,,,,,,,,,,,,,,,,,,,,,,,,,,,,,,,,,,,,,,,,,,,,,,,,,,,,,,,,,,,,WGC8YL,train_x,blue_star,bottom_right,2025-10-01_15h03.26.387,HideSeek_v1,2022.2.5,59.928864447394076,
,7,2,2,2,-5,0,11,,train_dim1_1,30,30,,,,2,0,2,0,,,,,,,,,0,0,0,0,0,29,29,29,2,0,2,0,,,,,,,,,,,,,,,,,,,,,,,,,,,,,,,,,,,,,,,,,,,,,,,,,,,,,,,,,,,,,,,,30,,,,,,,,564.767457799986,564.767457799986,564.767457799986,564.767457799986,564.767457799986,left,0.40995289996499196,23,0,0,99,0.15999999999999998,-0.24,left,0.33065439999336377,,,,,,,,,,,,,,,,,,,,,,,,,,,,,,,,,,,,,,,,,,,,,,,,,,,,,,,,,,,,WGC8YL,train_x,blue_star,bottom_right,2025-10-01_15h03.26.387,HideSeek_v1,2022.2.5,59.928864447394076,
,7,2,2,2,-5,0,11,,train_dim1_1,30,30,,,,2,0,2,0,,,,,,,,,0,0,0,0,0,29,29,29,3,0,3,0,,,,,,,,,,,,,,,,,,,,,,,,,,,,,,,,,,,,,,,,,,,,,,,,,,,,,,,,,,,,,,,,30,,,,,,,,565.1836994999903,565.1836994999903,565.1836994999903,565.1836994999903,565.1836994999903,left,0.44336730003124103,23,0,0,99,0.07999999999999997,-0.24,left,0.35189779999200255,,,,,,,,,,,,,,,,,,,,,,,,,,,,,,,,,,,,,,,,,,,,,,,,,,,,,,,,,,,,WGC8YL,train_x,blue_star,bottom_right,2025-10-01_15h03.26.387,HideSeek_v1,2022.2.5,59.928864447394076,
,7,2,2,2,-5,0,11,,train_dim1_1,30,30,,,,2,0,2,0,,,,,,,,,0,0,0,0,0,29,29,29,4,0,4,0,,,,,,,,,,,,,,,,,,,,,,,,,,,,,,,,,,,,,,,,,,,,,,,,,,,,,,,,,,,,,,,,30,,,,,,,,565.6346420000191,565.6346420000191,565.6346420000191,565.6346420000191,565.6346420000191,left,0.4435821000370197,23,0,0,99,-2.7755575615628914e-17,-0.24,left,0.35890390002168715,,,,,,,,,,,,,,,,,,,,,,,,,,,,,,,,,,,,,,,,,,,,,,,,,,,,,,,,,,,,WGC8YL,train_x,blue_star,bottom_right,2025-10-01_15h03.26.387,HideSeek_v1,2022.2.5,59.928864447394076,
,7,2,2,2,-5,0,11,,train_dim1_1,30,30,,,,2,0,2,0,,,,,,,,,0,0,0,0,0,29,29,29,5,0,5,0,,,,,,,,,,,,,,,,,,,,,,,,,,,,,,,,,,,,,,,,,,,,,,,,,,,,,,,,,,,,,,,,30,,,,,,,,566.0847359999898,566.0847359999898,566.0847359999898,566.0847359999898,566.0847359999898,return,0.7771619000122882,24,0,0,1,-2.7755575615628914e-17,-0.24,return,0.6915397000266239,0,-76,-2.7755575615628914e-17,-0.24,,,,,,,,,,,,,,,,,,,,,,,,,,,,,,,,,,,,,,,,,,,,,,,,,,,,,,,,WGC8YL,train_x,blue_star,bottom_right,2025-10-01_15h03.26.387,HideSeek_v1,2022.2.5,59.928864447394076,
,,,,,,,,,,,30,,,,2,0,2,0,,,,,,,,,,,,,,,,,,,,,,,,,,,,,,,,,,,,,,,,,,,,,,,,,,,,,,,,,,,,,,,,,,,,,,,,,,stimuli/alien_stimuli/11.png,11,7,32,21,0.7,1.0,1,1,1,30,0,conditions/schedules/train_x_first/blue_star_00/bottom_right/inputTrain_2.1.xlsx,99,1,2,1,0,,,,,,,,,,,1,,,,,,,,,569.6542974999757,571.2106183000142,0,-0.24,0.0,0.4,-0.24,0,0.2,0,-0.24,568.4293699000264,568.4293699000264,568.4293699000264,568.4293699000264,568.4293699000264,568.4293699000264,568.4293699000264,568.4293699000264,568.4195593299751,1.3364125000080094,return,1.2026678000111133,0,0.9,0,1,24,,,,,,,,,,,,,,,,,,,,,,,,,,,,WGC8YL,train_x,blue_star,bottom_right,2025-10-01_15h03.26.387,HideSeek_v1,2022.2.5,59.928864447394076,
,,,,,,,,,,,,,,,3,0,3,0,0,0,0,0,,,,,,,,,,,,,,,,,,,,,,,,,,,,,,,conditions/schedules/train_x_first/blue_star_00/bottom_right/instructions/Slide17.png,conditions/schedules/train_x_first/blue_star_00/bottom_right/instructions/Audio17.wav,571.2106183000142,571.2054402599925,17,"[7.1061202000128105, 18.881091699993704, 16.728341899986845, 19.58174130000407, 5.5769153000437655, 5.5360087000299245, 5.9824249999946915, 12.091149699990638, 6.2681765999877825, 7.034604299988132, 10.187189500022214, 13.053546099981759, 16.84001799998805, 13.354030600050464, 30.378051700012293, 21.093015099992044, 36.189327400003094]","[0.00022330001229420304, 0.01425020000897348, 16.72834839997813, 0.0002099000266753137, 0.03139380004722625, 0.03146000002743676, 0.014630199992097914, 0.047192800033371896, 0.030844799999613315, 0.06268099998123944, 0.03831879998324439, 13.053553799982183, 0.00020450004376471043, 13.354036600037944, 30.37805900000967, 21.093021299981046, 36.189335600007325]",0,,,,,,,,,,,,,,,,,,,,,,,,,,,,,,,,,,,,,,,,,,,,,,,,,,,,,,,,,,,,,,,,,,,,,,,,,,,,,,,,,,,,,,,,,,,,,,,,,,,,,,,,,,,,,,,,,,,,,,,,,,,,WGC8YL,train_x,blue_star,bottom_right,2025-10-01_15h03.26.387,HideSeek_v1,2022.2.5,59.928864447394076,
,,,,,,,,,,,,,,,3,0,3,0,1,0,1,0,,,,,,,,,,,,,,,,,,,,,,,,,,,,,,,conditions/schedules/train_x_first/blue_star_00/bottom_right/instructions/Slide18.png,conditions/schedules/train_x_first/blue_star_00/bottom_right/instructions/Audio18.wav,607.4702955000103,607.4689378500043,18,"[7.1061202000128105, 18.881091699993704, 16.728341899986845, 19.58174130000407, 5.5769153000437655, 5.5360087000299245, 5.9824249999946915, 12.091149699990638, 6.2681765999877825, 7.034604299988132, 10.187189500022214, 13.053546099981759, 16.84001799998805, 13.354030600050464, 30.378051700012293, 21.093015099992044, 36.189327400003094, 6.585138300026301]","[0.00022330001229420304, 0.01425020000897348, 16.72834839997813, 0.0002099000266753137, 0.03139380004722625, 0.03146000002743676, 0.014630199992097914, 0.047192800033371896, 0.030844799999613315, 0.06268099998123944, 0.03831879998324439, 13.053553799982183, 0.00020450004376471043, 13.354036600037944, 30.37805900000967, 21.093021299981046, 36.189335600007325, 6.585145200020634]",0,,,,,,,,,,,,,,,,,,,,,,,,,,,,,,,,,,,,,,,,,,,,,,,,,,,,,,,,,,,,,,,,,,,,,,,,,,,,,,,,,,,,,,,,,,,,,,,,,,,,,,,,,,,,,,,,,,,,,,,,,,,,WGC8YL,train_x,blue_star,bottom_right,2025-10-01_15h03.26.387,HideSeek_v1,2022.2.5,59.928864447394076,
,,,,,,,,,,,,,,,3,0,3,0,2,0,2,0,,,,,,,,,,,,,,,,,,,,,,,,,,,,,,,conditions/schedules/train_x_first/blue_star_00/bottom_right/instructions/Slide19.png,conditions/schedules/train_x_first/blue_star_00/bottom_right/instructions/Audio19.wav,614.0936402999796,614.0909696699877,19,"[7.1061202000128105, 18.881091699993704, 16.728341899986845, 19.58174130000407, 5.5769153000437655, 5.5360087000299245, 5.9824249999946915, 12.091149699990638, 6.2681765999877825, 7.034604299988132, 10.187189500022214, 13.053546099981759, 16.84001799998805, 13.354030600050464, 30.378051700012293, 21.093015099992044, 36.189327400003094, 6.585138300026301, 10.622317200002726]","[0.00022330001229420304, 0.01425020000897348, 16.72834839997813, 0.0002099000266753137, 0.03139380004722625, 0.03146000002743676, 0.014630199992097914, 0.047192800033371896, 0.030844799999613315, 0.06268099998123944, 0.03831879998324439, 13.053553799982183, 0.00020450004376471043, 13.354036600037944, 30.37805900000967, 21.093021299981046, 36.189335600007325, 0.047263899992685765, 10.622328000026755]",0,,,,,,,,,,,,,,,,,,,,,,,,,,,,,,,,,,,,,,,,,,,,,,,,,,,,,,,,,,,,,,,,,,,,,,,,,,,,,,,,,,,,,,,,,,,,,,,,,,,,,,,,,,,,,,,,,,,,,,,,,,,,WGC8YL,train_x,blue_star,bottom_right,2025-10-01_15h03.26.387,HideSeek_v1,2022.2.5,59.928864447394076,
,,,,,,,,,,,,,,,3,0,3,0,3,0,3,0,,,,,,,,,,,,,,,,,,,,,,,,,,,,,,,conditions/schedules/train_x_first/blue_star_00/bottom_right/instructions/Slide20.png,conditions/schedules/train_x_first/blue_star_00/bottom_right/instructions/Audio20.wav,624.7937604999752,624.7832998499798,20,"[7.1061202000128105, 18.881091699993704, 16.728341899986845, 19.58174130000407, 5.5769153000437655, 5.5360087000299245, 5.9824249999946915, 12.091149699990638, 6.2681765999877825, 7.034604299988132, 10.187189500022214, 13.053546099981759, 16.84001799998805, 13.354030600050464, 30.378051700012293, 21.093015099992044, 36.189327400003094, 6.585138300026301, 10.622317200002726, 14.115218199964147]","[0.00022330001229420304, 0.01425020000897348, 16.72834839997813, 0.0002099000266753137, 0.03139380004722625, 0.03146000002743676, 0.014630199992097914, 0.047192800033371896, 0.030844799999613315, 0.06268099998123944, 0.03831879998324439, 13.053553799982183, 0.00020450004376471043, 13.354036600037944, 30.37805900000967, 21.093021299981046, 36.189335600007325, 0.047263899992685765, 10.622328000026755, 14.115225499961525]",0,,,,,,,,,,,,,,,,,,,,,,,,,,,,,,,,,,,,,,,,,,,,,,,,,,,,,,,,,,,,,,,,,,,,,,,,,,,,,,,,,,,,,,,,,,,,,,,,,,,,,,,,,,,,,,,,,,,,,,,,,,,,WGC8YL,train_x,blue_star,bottom_right,2025-10-01_15h03.26.387,HideSeek_v1,2022.2.5,59.928864447394076,
1,5,3,5,8,0,5,66,2,instr_dim1_2,,,,,,3,0,3,0,,,,,0,0,0,0,,,,,,,,,,,,,,,,,,,,,,,,,,,,,,,,,,,,,stimuli/alien_stimuli/66.png,conditions/schedules/train_x_first/blue_star_00/bottom_right/inputInstr_2.xlsx,stimuli/alien_stimuli/66.png,639.0026528000017,639.0026528000017,639.0026528000017,639.0026528000017,638.994926540018,return,6.388929300010204,"[-0.16, -0.08, 0, 0.08, 0.16, 0.24, 0.32, 0.4, 0.48, 0.56]","[-0.4, -0.32, -0.24, -0.16, -0.08, 0, 0.08, 0.16, 0.24, 0.32]",8,3,5,5,0.4,0.0,645.5385253999848,645.5385253999848,645.5385253999848,645.5385253999848,645.5385253999848,645.5385253999848,645.5385253999848,645.5337586200097,6.706695000000764,return,6.551683199999388,stimuli/alien_stimuli/66.png,66,5,1,,,,,,,,,,,,,,,,,,,,,,,,,,,,,,,,,,,,,,,,,,,,,,,,,,,,,,,,,,,,,,,,,,,,,,,,,,,,,,,,,,,,,,,,,WGC8YL,train_x,blue_star,bottom_right,2025-10-01_15h03.26.387,HideSeek_v1,2022.2.5,59.928864447394076,
,,,,,,,,,,,30,,,,3,0,3,0,,,,,,,,,,,,,,,,,,,,,,,,,,,,,,,,,,,,,,,,,,,,,,,,,,,,,,,,,,,,,,,,,,,,,,,,,,,,,,21,0.7,1.0,1,99,2,30,0,conditions/schedules/train_x_first/blue_star_00/bottom_right/inputTrain_2.1.xlsx,99,1,2,1,0,,,,,,,,,,,,,,,,,,,,,,,,,,,,,,,,,,,,,,,,,,,,,,,,,,,,,,,,,,,,,,,,,,,,,,,,,,,WGC8YL,train_x,blue_star,bottom_right,2025-10-01_15h03.26.387,HideSeek_v1,2022.2.5,59.928864447394076,
,,,,,,,,,,,,,,,4,0,4,0,0,0,0,0,,,,,,,,,,,,,,,,,,,,,,,,,,,,,,,conditions/schedules/train_x_first/blue_star_00/bottom_right/instructions/Slide21.png,conditions/schedules/train_x_first/blue_star_00/bottom_right/instructions/Audio21.wav,652.2817179000122,652.2727523999638,21,"[7.1061202000128105, 18.881091699993704, 16.728341899986845, 19.58174130000407, 5.5769153000437655, 5.5360087000299245, 5.9824249999946915, 12.091149699990638, 6.2681765999877825, 7.034604299988132, 10.187189500022214, 13.053546099981759, 16.84001799998805, 13.354030600050464, 30.378051700012293, 21.093015099992044, 36.189327400003094, 6.585138300026301, 10.622317200002726, 14.115218199964147, 17.019680699973833]","[0.00022330001229420304, 0.01425020000897348, 16.72834839997813, 0.0002099000266753137, 0.03139380004722625, 0.03146000002743676, 0.014630199992097914, 0.047192800033371896, 0.030844799999613315, 0.06268099998123944, 0.03831879998324439, 13.053553799982183, 0.00020450004376471043, 13.354036600037944, 30.37805900000967, 21.093021299981046, 36.189335600007325, 0.047263899992685765, 10.622328000026755, 14.115225499961525, 17.01968799997121]",0,,,,,,,,,,,,,,,,,,,,,,,,,,,,,,,,,,,,,,,,,,,,,,,,,,,,,,,,,,,,,,,,,,,,,,,,,,,,,,,,,,,,,,,,,,,,,,,,,,,,,,,,,,,,,,,,,,,,,,,,,,,,WGC8YL,train_x,blue_star,bottom_right,2025-10-01_15h03.26.387,HideSeek_v1,2022.2.5,59.928864447394076,
2,7,3,7,3,0,0,61,2,instr_dim1_2,,,,,,4,0,4,0,,,,,0,0,0,0,,,,,,,,,,,,,,,,,,,,,,,,,,,,,,,,,,,,,stimuli/alien_stimuli/61.png,conditions/schedules/train_x_first/blue_star_00/bottom_right/inputInstr_2.xlsx,stimuli/alien_stimuli/61.png,669.3984784000204,669.3984784000204,669.3984784000204,669.3984784000204,669.4036707300052,return,5.810132700018585,"[-0.16, -0.08, 0, 0.08, 0.16, 0.24, 0.32, 0.4, 0.48, 0.56]","[-0.4, -0.32, -0.24, -0.16, -0.08, 0, 0.08, 0.16, 0.24, 0.32]",3,3,7,7,0.0,0.0,675.3423754000105,675.3423754000105,675.3423754000105,675.3423754000105,675.3423754000105,675.3423754000105,675.3423754000105,675.3418887199717,7.00668950000545,return,6.871234599966556,stimuli/alien_stimuli/61.png,61,7,2,,,,,,,,,,,,,,,,,,,,,,,,,,,,,,,,,,,,,,,,,,,,,,,,,,,,,,,,,,,,,,,,,,,,,,,,,,,,,,,,,,,,,,,,,WGC8YL,train_x,blue_star,bottom_right,2025-10-01_15h03.26.387,HideSeek_v1,2022.2.5,59.928864447394076,
,,,,,,,,,,,30,,,,4,0,4,0,,,,,,,,,,,,,,,,,,,,,,,,,,,,,,,,,,,,,,,,,,,,,,,,,,,,,,,,,,,,,,,,,,,,,,,,,,,,,,21,0.7,1.0,1,99,2,30,0,conditions/schedules/train_x_first/blue_star_00/bottom_right/inputTrain_2.1.xlsx,99,1,2,1,0,,,,,,,,,,,,,,,,,,,,,,,,,,,,,,,,,,,,,,,,,,,,,,,,,,,,,,,,,,,,,,,,,,,,,,,,,,,WGC8YL,train_x,blue_star,bottom_right,2025-10-01_15h03.26.387,HideSeek_v1,2022.2.5,59.928864447394076,
,,,,,,,,,,,,,,,5,0,5,0,0,0,0,0,,,,,,,,,,,,,,,,,,,,,,,,,,,,,,,conditions/schedules/train_x_first/blue_star_00/bottom_right/instructions/Slide22.png,conditions/schedules/train_x_first/blue_star_00/bottom_right/instructions/Audio22.wav,682.4191781000118,682.41429817999,22,"[7.1061202000128105, 18.881091699993704, 16.728341899986845, 19.58174130000407, 5.5769153000437655, 5.5360087000299245, 5.9824249999946915, 12.091149699990638, 6.2681765999877825, 7.034604299988132, 10.187189500022214, 13.053546099981759, 16.84001799998805, 13.354030600050464, 30.378051700012293, 21.093015099992044, 36.189327400003094, 6.585138300026301, 10.622317200002726, 14.115218199964147, 17.019680699973833, 42.762278600013815]","[0.00022330001229420304, 0.01425020000897348, 16.72834839997813, 0.0002099000266753137, 0.03139380004722625, 0.03146000002743676, 0.014630199992097914, 0.047192800033371896, 0.030844799999613315, 0.06268099998123944, 0.03831879998324439, 13.053553799982183, 0.00020450004376471043, 13.354036600037944, 30.37805900000967, 21.093021299981046, 36.189335600007325, 0.047263899992685765, 10.622328000026755, 14.115225499961525, 17.01968799997121, 42.76228620001348]",0,,,,,,,,,,,,,,,,,,,,,,,,,,,,,,,,,,,,,,,,,,,,,,,,,,,,,,,,,,,,,,,,,,,,,,,,,,,,,,,,,,,,,,,,,,,,,,,,,,,,,,,,,,,,,,,,,,,,,,,,,,,,WGC8YL,train_x,blue_star,bottom_right,2025-10-01_15h03.26.387,HideSeek_v1,2022.2.5,59.928864447394076,
,5,0,5,4,0,4,65,,train_dim1_2,1,30,,,,5,0,5,0,,,,,,,,,0,0,0,0,0,0,0,0,0,0,0,0,,,,,,,,,,,,,,,,,,,,,,,,,stimuli/alien_stimuli/65.png,,,,,,,,,,,,,,,,,,,,,,,,,,,,,,,,,,,,,,,30,,,,,,,,725.2954409000231,725.2954409000231,725.2954409000231,725.2954409000231,725.2954409000231,up,3.872640300018247,0,0,0,99,0.24,-0.32,up,3.775363299995661,,,,,,,,,,,,,,,,,,,,,,,,,,,,,,,,,,,,,,,,,,,,,,,,,,,,,,,,,,,,WGC8YL,train_x,blue_star,bottom_right,2025-10-01_15h03.26.387,HideSeek_v1,2022.2.5,59.928864447394076,
,5,0,5,4,0,4,65,,train_dim1_2,1,30,,,,5,0,5,0,,,,,,,,,0,0,0,0,0,0,0,0,1,0,1,0,,,,,,,,,,,,,,,,,,,,,,,,,,,,,,,,,,,,,,,,,,,,,,,,,,,,,,,,,,,,,,,,30,,,,,,,,729.1495679999935,729.1495679999935,729.1495679999935,729.1495679999935,729.1495679999935,up,0.5092663999530487,0,0,0,99,0.24,-0.24,up,0.427343400020618,,,,,,,,,,,,,,,,,,,,,,,,,,,,,,,,,,,,,,,,,,,,,,,,,,,,,,,,,,,,WGC8YL,train_x,blue_star,bottom_right,2025-10-01_15h03.26.387,HideSeek_v1,2022.2.5,59.928864447394076,
,5,0,5,4,0,4,65,,train_dim1_2,1,30,,,,5,0,5,0,,,,,,,,,0,0,0,0,0,0,0,0,2,0,2,0,,,,,,,,,,,,,,,,,,,,,,,,,,,,,,,,,,,,,,,,,,,,,,,,,,,,,,,,,,,,,,,,30,,,,,,,,729.6660870999913,729.6660870999913,729.6660870999913,729.6660870999913,729.6660870999913,up,0.5105457999743521,0,0,0,99,0.24,-0.15999999999999998,up,0.4361935999477282,,,,,,,,,,,,,,,,,,,,,,,,,,,,,,,,,,,,,,,,,,,,,,,,,,,,,,,,,,,,WGC8YL,train_x,blue_star,bottom_right,2025-10-01_15h03.26.387,HideSeek_v1,2022.2.5,59.928864447394076,
,5,0,5,4,0,4,65,,train_dim1_2,1,30,,,,5,0,5,0,,,,,,,,,0,0,0,0,0,0,0,0,3,0,3,0,,,,,,,,,,,,,,,,,,,,,,,,,,,,,,,,,,,,,,,,,,,,,,,,,,,,,,,,,,,,,,,,30,,,,,,,,730.1844089999795,730.1844089999795,730.1844089999795,730.1844089999795,730.1844089999795,up,0.49193519999971613,0,0,0,99,0.24,-0.07999999999999997,up,0.41313659999286756,,,,,,,,,,,,,,,,,,,,,,,,,,,,,,,,,,,,,,,,,,,,,,,,,,,,,,,,,,,,WGC8YL,train_x,blue_star,bottom_right,2025-10-01_15h03.26.387,HideSeek_v1,2022.2.5,59.928864447394076,
,5,0,5,4,0,4,65,,train_dim1_2,1,30,,,,5,0,5,0,,,,,,,,,0,0,0,0,0,0,0,0,4,0,4,0,,,,,,,,,,,,,,,,,,,,,,,,,,,,,,,,,,,,,,,,,,,,,,,,,,,,,,,,,,,,,,,,30,,,,,,,,730.6855034999899,730.6855034999899,730.6855034999899,730.6855034999899,730.6855034999899,return,1.5261475999723189,1,0,0,1,0.24,-0.07999999999999997,return,1.4488204999943264,4,-76,0.24,-0.07999999999999997,,,,,,,,,,,,,,,,,,,,,,,,,,,,,,,,,,,,,,,,,,,,,,,,,,,,,,,,WGC8YL,train_x,blue_star,bottom_right,2025-10-01_15h03.26.387,HideSeek_v1,2022.2.5,59.928864447394076,
,8,2,8,7,0,5,66,,train_dim1_2,2,30,,,,5,0,5,0,,,,,,,,,0,0,0,0,0,1,1,1,0,0,0,0,,,,,,,,,,,,,,,,,,,,,,,,,stimuli/alien_stimuli/66.png,,,,,,,,,,,,,,,,,,,,,,,,,,,,,stimuli/alien_stimuli/65.png,65,5,3,,,,,,,30,,,,,,,,737.0627761000069,737.0627761000069,737.0627761000069,737.0627761000069,737.0627761000069,up,3.7899010000401177,1,0,0,99,0.48,-0.15999999999999998,up,3.709111700009089,,,,,735.5084488000139,737.0627761000069,0.24,-0.08,0.32,0.0,-0.24000000000000002,0.24,0.24,0.24,-0.08,733.7950159999891,733.7950159999891,733.7950159999891,733.7950159999891,733.7950159999891,733.7950159999891,733.7950159999891,733.7950159999891,733.7738736299739,1.8365935000474565,return,1.6903195000486448,,,,,,,,,,,,,,,,,,,,,,,,,,,,,,,,,WGC8YL,train_x,blue_star,bottom_right,2025-10-01_15h03.26.387,HideSeek_v1,2022.2.5,59.928864447394076,
,8,2,8,7,0,5,66,,train_dim1_2,2,30,,,,5,0,5,0,,,,,,,,,0,0,0,0,0,1,1,1,1,0,1,0,,,,,,,,,,,,,,,,,,,,,,,,,,,,,,,,,,,,,,,,,,,,,,,,,,,,,,,,,,,,,,,,30,,,,,,,,740.860068799986,740.860068799986,740.860068799986,740.860068799986,740.860068799986,up,0.42645680002169684,1,0,0,99,0.48,-0.07999999999999997,up,0.3426966000115499,,,,,,,,,,,,,,,,,,,,,,,,,,,,,,,,,,,,,,,,,,,,,,,,,,,,,,,,,,,,WGC8YL,train_x,blue_star,bottom_right,2025-10-01_15h03.26.387,HideSeek_v1,2022.2.5,59.928864447394076,
,8,2,8,7,0,5,66,,train_dim1_2,2,30,,,,5,0,5,0,,,,,,,,,0,0,0,0,0,1,1,1,2,0,2,0,,,,,,,,,,,,,,,,,,,,,,,,,,,,,,,,,,,,,,,,,,,,,,,,,,,,,,,,,,,,,,,,30,,,,,,,,741.292690399976,741.292690399976,741.292690399976,741.292690399976,741.292690399976,up,0.3935502999811433,1,0,0,99,0.48,2.7755575615628914e-17,up,0.30867830000352114,,,,,,,,,,,,,,,,,,,,,,,,,,,,,,,,,,,,,,,,,,,,,,,,,,,,,,,,,,,,WGC8YL,train_x,blue_star,bottom_right,2025-10-01_15h03.26.387,HideSeek_v1,2022.2.5,59.928864447394076,
,8,2,8,7,0,5,66,,train_dim1_2,2,30,,,,5,0,5,0,,,,,,,,,0,0,0,0,0,1,1,1,3,0,3,0,,,,,,,,,,,,,,,,,,,,,,,,,,,,,,,,,,,,,,,,,,,,,,,,,,,,,,,,,,,,,,,,30,,,,,,,,741.692935900006,741.692935900006,741.692935900006,741.692935900006,741.692935900006,up,0.426846599963028,1,0,0,99,0.48,0.08000000000000003,up,0.3399263999890536,,,,,,,,,,,,,,,,,,,,,,,,,,,,,,,,,,,,,,,,,,,,,,,,,,,,,,,,,,,,WGC8YL,train_x,blue_star,bottom_right,2025-10-01_15h03.26.387,HideSeek_v1,2022.2.5,59.928864447394076,
,8,2,8,7,0,5,66,,train_dim1_2,2,30,,,,5,0,5,0,,,,,,,,,0,0,0,0,0,1,1,1,4,0,4,0,,,,,,,,,,,,,,,,,,,,,,,,,,,,,,,,,,,,,,,,,,,,,,,,,,,,,,,,,,,,,,,,30,,,,,,,,742.1304502999992,742.1304502999992,742.1304502999992,742.1304502999992,742.1304502999992,return,0.9235651000053622,1,1,0,0,0.48,0.08000000000000003,return,0.8422836000099778,8,-76,0.48,0.08000000000000003,,,,,,,,,,,,,,,,,,,,,,,,,,,,,,,,,,,,,,,,,,,,,,,,,,,,,,,,WGC8YL,train_x,blue_star,bottom_right,2025-10-01_15h03.26.387,HideSeek_v1,2022.2.5,59.928864447394076,
,7,3,7,6,0,3,64,,train_dim1_2,3,30,,,,5,0,5,0,,,,,,,,,0,0,0,0,0,2,2,2,0,0,0,0,,,,,,,,,,,,,,,,,,,,,,,,,stimuli/alien_stimuli/64.png,,,,,,,,,,,,,,,,,,,,,,,,,,,,,stimuli/alien_stimuli/66.png,66,8,4,,,,,,,30,,,,,,,,748.0709136999794,748.0709136999794,748.0709136999794,748.0709136999794,748.0709136999794,up,2.123518700012937,1,1,0,99,0.4,-0.08,up,2.0458154999651015,,,,,746.5176787999808,748.0709136999794,0.48,0.16,0.4,0.0,-0.039999999999999994,0.48,0.48,0.48,0.16,744.6250986999949,744.6250986999949,744.6250986999949,744.6250986999949,744.6250986999949,744.6250986999949,744.6250986999949,744.6250986999949,744.6158472300099,2.004301899985876,return,1.8666121999849565,,,,,,,,,,,,,,,,,,,,,,,,,,,,,,,,,WGC8YL,train_x,blue_star,bottom_right,2025-10-01_15h03.26.387,HideSeek_v1,2022.2.5,59.928864447394076,
,7,3,7,6,0,3,64,,train_dim1_2,3,30,,,,5,0,5,0,,,,,,,,,0,0,0,0,0,2,2,2,1,0,1,0,,,,,,,,,,,,,,,,,,,,,,,,,,,,,,,,,,,,,,,,,,,,,,,,,,,,,,,,,,,,,,,,30,,,,,,,,750.2007165999967,750.2007165999967,750.2007165999967,750.2007165999967,750.2007165999967,up,0.4767987999948673,1,1,0,99,0.4,0.0,up,0.39413249999051914,,,,,,,,,,,,,,,,,,,,,,,,,,,,,,,,,,,,,,,,,,,,,,,,,,,,,,,,,,,,WGC8YL,train_x,blue_star,bottom_right,2025-10-01_15h03.26.387,HideSeek_v1,2022.2.5,59.928864447394076,
,7,3,7,6,0,3,64,,train_dim1_2,3,30,,,,5,0,5,0,,,,,,,,,0,0,0,0,0,2,2,2,2,0,2,0,,,,,,,,,,,,,,,,,,,,,,,,,,,,,,,,,,,,,,,,,,,,,,,,,,,,,,,,,,,,,,,,30,,,,,,,,750.684531899984,750.684531899984,750.684531899984,750.684531899984,750.684531899984,return,0.7096433999831788,1,1,0,0,0.4,0.0,return,0.6368637999985367,10,-76,0.4,0.0,,,,,,,,,,,,,,,,,,,,,,,,,,,,,,,,,,,,,,,,,,,,,,,,,,,,,,,,WGC8YL,train_x,blue_star,bottom_right,2025-10-01_15h03.26.387,HideSeek_v1,2022.2.5,59.928864447394076,
