trialInstr,x_fixStart,y_fixStart,x_corrSteps,y_corrSteps,x_nrSteps,y_nrSteps,alienID,trialLength,version,trialTrain,praclen,testlen,trial_label,break_on_off,beforeExpLoop.thisRepN,beforeExpLoop.thisTrialN,beforeExpLoop.thisN,beforeExpLoop.thisIndex,mini_instr_trials.thisRepN,mini_instr_trials.thisTrialN,mini_instr_trials.thisN,mini_instr_trials.thisIndex,instrLoop.thisRepN,instrLoop.thisTrialN,instrLoop.thisN,instrLoop.thisIndex,repeat_prac.thisRepN,repeat_prac.thisTrialN,repeat_prac.thisN,repeat_prac.thisIndex,trainLoop.thisRepN,trainLoop.thisTrialN,trainLoop.thisN,trainLoop.thisIndex,moveLoop_train.thisRepN,moveLoop_train.thisTrialN,moveLoop_train.thisN,moveLoop_train.thisIndex,experiment.thisRepN,experiment.thisTrialN,experiment.thisN,experiment.thisIndex,moveLoop_test.thisRepN,moveLoop_test.thisTrialN,moveLoop_test.thisN,moveLoop_test.thisIndex,mini_instr2_trials.thisRepN,mini_instr2_trials.thisTrialN,mini_instr2_trials.thisN,mini_instr2_trials.thisIndex,start_all_time,url,slideStim,audioStim,slides.started,sounds.started,nextButton.numClicks,nextButton.timesOn,nextButton.timesOff,prev_but.numClicks,prev_but.timesOn,prev_but.timesOff,alienStim,instrFile,alienStim_instr,gridImage_instr.started,startPos_3.started,key_instr.started,alienImage_3.started,sounds_1.started,key_instr.keys,key_instr.rt,all_x,all_y,FBy_corrSteps,FBy_fixStart,FBx_corrSteps,FBx_fixStart,FBy_pathSize_check,FBx_pathSize_check,gridImage_9.started,alienImageFB_3.started,startPosFB_3.started,keyFB_3.started,pathLine_ydir_2.started,pathLine_xdir_2.started,alienFace_3.started,sounds_2.started,RTFB_instr,keyFB_3.keys,keyFB_3.rt,draw_alienStim,draw_alienID,test_x,nrepcount,perfthres,percthres,earlierperf,earlystop,nextPrac,fileidx,praclen,saveACC_train,pracFile,nextPrac_train,addNrep,fileidx_endr,repExp,showearly,gridImage_4.started,startPos.started,movePos.started,key_resp.started,alienImage.started,buttonPress_train,RTchoice_train,cumAcctrain,aCorr,saveACC_choice,corrAns,x_movePos_end,y_movePos_end,key_resp.keys,key_resp.rt,wLy_dir,wLx_dir,x_movePos,y_movePos,text_2.started,text_2.stopped,aft_x_corrPos,aft_y_corrPos,y_pathSize_check,x_pathSize_check,y_pathdirY,x_pathdirY,x_pathdirX,x_corrPos,y_corrPos,gridImage_6.started,alienImageFB_2.started,startPosFB_2.started,movePosFB_2.started,keyFB_2.started,pathLine_xdir.started,pathLine_ydir.started,alienFace.started,sounds_4.started,RT_FBtrain,keyFB_2.keys,keyFB_2.rt,saveACC_pre,ACC,within_saveACC_train,earlystop_wloop,cumAcctrain_check,gridImage_3.started,alienImage_test.started,startPos_test.started,movePos_test.started,key_resp_test.started,wLy_dir_test,wLx_dir_test,buttonPress_test,RTchoice_test,cumAcctest,corrAns_test,key_resp_test.keys,key_resp_test.rt,text_3.started,text_3.stopped,total_time,end_all_time,key_resp_3.keys,slides_2.started,sounds_3.started,nextButton_2.numClicks,nextButton_2.timesOn,nextButton_2.timesOff,prev_but_2.numClicks,prev_but_2.timesOn,prev_but_2.timesOff,bye.started,participant,train_first,00_coordinate,starting corner,date,expName,psychopyVersion,frameRate,
,,,,,,,,,,,,,,,0,0,0,0,0,0,0,0,,,,,,,,,,,,,,,,,,,,,,,,,,,,,start_all_time,testround,conditions/schedules/train_y_first/red_square_00/bottom_right/instructions/Slide1.png,conditions/schedules/train_y_first/red_square_00/bottom_right/instructions/Audio1.wav,66.97257899981923,66.92483265597839,1,[7.5528216999955475],[7.552828300045803],0,,,,,,,,,,,,,,,,,,,,,,,,,,,,,,,,,,,,,,,,,,,,,,,,,,,,,,,,,,,,,,,,,,,,,,,,,,,,,,,,,,,,,,,,,,,,,,,,,,,,,,,,,,,,,,,,,,,,,,,,,,,,WJ4H18,train_y,red_square,bottom_right,2025-07-25_17h19.17.168,HideSeek_v1,2022.2.5,60.29893804520395,
,,,,,,,,,,,,,,,0,0,0,0,1,0,1,0,,,,,,,,,,,,,,,,,,,,,,,,,,,,,,,conditions/schedules/train_y_first/red_square_00/bottom_right/instructions/Slide2.png,conditions/schedules/train_y_first/red_square_00/bottom_right/instructions/Audio2.wav,74.5454414000269,74.53218895993196,2,"[7.5528216999955475, 18.250567800132558]","[0.07503960002213717, 18.250575000187382]",0,,,,,,,,,,,,,,,,,,,,,,,,,,,,,,,,,,,,,,,,,,,,,,,,,,,,,,,,,,,,,,,,,,,,,,,,,,,,,,,,,,,,,,,,,,,,,,,,,,,,,,,,,,,,,,,,,,,,,,,,,,,,WJ4H18,train_y,red_square,bottom_right,2025-07-25_17h19.17.168,HideSeek_v1,2022.2.5,60.29893804520395,
,,,,,,,,,,,,,,,0,0,0,0,2,0,2,0,,,,,,,,,,,,,,,,,,,,,,,,,,,,,,,conditions/schedules/train_y_first/red_square_00/bottom_right/instructions/Slide3.png,conditions/schedules/train_y_first/red_square_00/bottom_right/instructions/Audio3.wav,92.86616409989074,92.86484979989473,3,"[7.5528216999955475, 18.250567800132558, 17.124074100051075]","[0.07503960002213717, 0.03614090010523796, 17.124080799985677]",0,,,,,,,,,,,,,,,,,,,,,,,,,,,,,,,,,,,,,,,,,,,,,,,,,,,,,,,,,,,,,,,,,,,,,,,,,,,,,,,,,,,,,,,,,,,,,,,,,,,,,,,,,,,,,,,,,,,,,,,,,,,,WJ4H18,train_y,red_square,bottom_right,2025-07-25_17h19.17.168,HideSeek_v1,2022.2.5,60.29893804520395,
,,,,,,,,,,,,,,,0,0,0,0,3,0,3,0,,,,,,,,,,,,,,,,,,,,,,,,,,,,,,,conditions/schedules/train_y_first/red_square_00/bottom_right/instructions/Slide4.png,conditions/schedules/train_y_first/red_square_00/bottom_right/instructions/Audio4.wav,110.07310919999145,110.0591426998144,4,"[7.5528216999955475, 18.250567800132558, 17.124074100051075, 19.666161500150338]","[0.07503960002213717, 0.03614090010523796, 0.03324890020303428, 19.666168700205162]",0,,,,,,,,,,,,,,,,,,,,,,,,,,,,,,,,,,,,,,,,,,,,,,,,,,,,,,,,,,,,,,,,,,,,,,,,,,,,,,,,,,,,,,,,,,,,,,,,,,,,,,,,,,,,,,,,,,,,,,,,,,,,WJ4H18,train_y,red_square,bottom_right,2025-07-25_17h19.17.168,HideSeek_v1,2022.2.5,60.29893804520395,
,,,,,,,,,,,,,,,0,0,0,0,4,0,4,0,,,,,,,,,,,,,,,,,,,,,,,,,,,,,,,conditions/schedules/train_y_first/red_square_00/bottom_right/instructions/Slide5.png,conditions/schedules/train_y_first/red_square_00/bottom_right/instructions/Audio5.wav,129.8115480998531,129.8078836997738,5,"[7.5528216999955475, 18.250567800132558, 17.124074100051075, 19.666161500150338, 4.654204500140622]","[0.07503960002213717, 0.03614090010523796, 0.03324890020303428, 0.03234340017661452, 4.654211500193924]",0,,,,,,,,,,,,,,,,,,,,,,,,,,,,,,,,,,,,,,,,,,,,,,,,,,,,,,,,,,,,,,,,,,,,,,,,,,,,,,,,,,,,,,,,,,,,,,,,,,,,,,,,,,,,,,,,,,,,,,,,,,,,WJ4H18,train_y,red_square,bottom_right,2025-07-25_17h19.17.168,HideSeek_v1,2022.2.5,60.29893804520395,
,,,,,,,,,,,,,,,0,0,0,0,5,0,5,0,,,,,,,,,,,,,,,,,,,,,,,,,,,,,,,conditions/schedules/train_y_first/red_square_00/bottom_right/instructions/Slide6.png,conditions/schedules/train_y_first/red_square_00/bottom_right/instructions/Audio6.wav,134.5198605998885,134.5185785599053,6,"[7.5528216999955475, 18.250567800132558, 17.124074100051075, 19.666161500150338, 4.654204500140622, 4.9209064999595284]","[0.07503960002213717, 0.03614090010523796, 0.03324890020303428, 0.03234340017661452, 0.06332299998030066, 4.920919199939817]",0,,,,,,,,,,,,,,,,,,,,,,,,,,,,,,,,,,,,,,,,,,,,,,,,,,,,,,,,,,,,,,,,,,,,,,,,,,,,,,,,,,,,,,,,,,,,,,,,,,,,,,,,,,,,,,,,,,,,,,,,,,,,WJ4H18,train_y,red_square,bottom_right,2025-07-25_17h19.17.168,HideSeek_v1,2022.2.5,60.29893804520395,
,,,,,,,,,,,,,,,0,0,0,0,6,0,6,0,,,,,,,,,,,,,,,,,,,,,,,,,,,,,,,conditions/schedules/train_y_first/red_square_00/bottom_right/instructions/Slide7.png,conditions/schedules/train_y_first/red_square_00/bottom_right/instructions/Audio7.wav,139.50659819995053,139.4932029599324,7,"[7.5528216999955475, 18.250567800132558, 17.124074100051075, 19.666161500150338, 4.654204500140622, 4.9209064999595284, 6.451102499850094]","[0.07503960002213717, 0.03614090010523796, 0.03324890020303428, 0.03234340017661452, 0.06332299998030066, 0.03413399984128773, 6.451109800022095]",0,,,,,,,,,,,,,,,,,,,,,,,,,,,,,,,,,,,,,,,,,,,,,,,,,,,,,,,,,,,,,,,,,,,,,,,,,,,,,,,,,,,,,,,,,,,,,,,,,,,,,,,,,,,,,,,,,,,,,,,,,,,,WJ4H18,train_y,red_square,bottom_right,2025-07-25_17h19.17.168,HideSeek_v1,2022.2.5,60.29893804520395,
,,,,,,,,,,,,,,,0,0,0,0,7,0,7,0,,,,,,,,,,,,,,,,,,,,,,,,,,,,,,,conditions/schedules/train_y_first/red_square_00/bottom_right/instructions/Slide8.png,conditions/schedules/train_y_first/red_square_00/bottom_right/instructions/Audio8.wav,146.01060219993815,146.01030795979315,8,"[7.5528216999955475, 18.250567800132558, 17.124074100051075, 19.666161500150338, 4.654204500140622, 4.9209064999595284, 6.451102499850094, 12.54540569987148]","[0.07503960002213717, 0.03614090010523796, 0.03324890020303428, 0.03234340017661452, 0.06332299998030066, 0.03413399984128773, 0.07768709980882704, 12.545411999803036]",0,,,,,,,,,,,,,,,,,,,,,,,,,,,,,,,,,,,,,,,,,,,,,,,,,,,,,,,,,,,,,,,,,,,,,,,,,,,,,,,,,,,,,,,,,,,,,,,,,,,,,,,,,,,,,,,,,,,,,,,,,,,,WJ4H18,train_y,red_square,bottom_right,2025-07-25_17h19.17.168,HideSeek_v1,2022.2.5,60.29893804520395,
,,,,,,,,,,,,,,,0,0,0,0,8,0,8,0,,,,,,,,,,,,,,,,,,,,,,,,,,,,,,,conditions/schedules/train_y_first/red_square_00/bottom_right/instructions/Slide9.png,conditions/schedules/train_y_first/red_square_00/bottom_right/instructions/Audio9.wav,158.6269018999301,158.62596279976424,9,"[7.5528216999955475, 18.250567800132558, 17.124074100051075, 19.666161500150338, 4.654204500140622, 4.9209064999595284, 6.451102499850094, 12.54540569987148, 7.253063700161874]","[0.07503960002213717, 0.03614090010523796, 0.03324890020303428, 0.03234340017661452, 0.06332299998030066, 0.03413399984128773, 0.07768709980882704, 0.014345800038427114, 7.253072800114751]",0,,,,,,,,,,,,,,,,,,,,,,,,,,,,,,,,,,,,,,,,,,,,,,,,,,,,,,,,,,,,,,,,,,,,,,,,,,,,,,,,,,,,,,,,,,,,,,,,,,,,,,,,,,,,,,,,,,,,,,,,,,,,WJ4H18,train_y,red_square,bottom_right,2025-07-25_17h19.17.168,HideSeek_v1,2022.2.5,60.29893804520395,
,,,,,,,,,,,,,,,0,0,0,0,9,0,9,0,,,,,,,,,,,,,,,,,,,,,,,,,,,,,,,conditions/schedules/train_y_first/red_square_00/bottom_right/instructions/Slide10.png,conditions/schedules/train_y_first/red_square_00/bottom_right/instructions/Audio10.wav,165.91846139985137,165.91538981997874,10,"[7.5528216999955475, 18.250567800132558, 17.124074100051075, 19.666161500150338, 4.654204500140622, 4.9209064999595284, 6.451102499850094, 12.54540569987148, 7.253063700161874, 8.195420500123873]","[0.07503960002213717, 0.03614090010523796, 0.03324890020303428, 0.03234340017661452, 0.06332299998030066, 0.03413399984128773, 0.07768709980882704, 0.014345800038427114, 0.0901060001924634, 8.195427700178698]",0,,,,,,,,,,,,,,,,,,,,,,,,,,,,,,,,,,,,,,,,,,,,,,,,,,,,,,,,,,,,,,,,,,,,,,,,,,,,,,,,,,,,,,,,,,,,,,,,,,,,,,,,,,,,,,,,,,,,,,,,,,,,WJ4H18,train_y,red_square,bottom_right,2025-07-25_17h19.17.168,HideSeek_v1,2022.2.5,60.29893804520395,
,,,,,,,,,,,,,,,0,0,0,0,10,0,10,0,,,,,,,,,,,,,,,,,,,,,,,,,,,,,,,conditions/schedules/train_y_first/red_square_00/bottom_right/instructions/Slide11.png,conditions/schedules/train_y_first/red_square_00/bottom_right/instructions/Audio11.wav,174.1672292998992,174.16582855982708,11,"[7.5528216999955475, 18.250567800132558, 17.124074100051075, 19.666161500150338, 4.654204500140622, 4.9209064999595284, 6.451102499850094, 12.54540569987148, 7.253063700161874, 8.195420500123873, 11.256296399980783]","[0.07503960002213717, 0.03614090010523796, 0.03324890020303428, 0.03234340017661452, 0.06332299998030066, 0.03413399984128773, 0.07768709980882704, 0.014345800038427114, 0.0901060001924634, 0.05824869987554848, 11.256303299916908]",0,,,,,,,,,,,,,,,,,,,,,,,,,,,,,,,,,,,,,,,,,,,,,,,,,,,,,,,,,,,,,,,,,,,,,,,,,,,,,,,,,,,,,,,,,,,,,,,,,,,,,,,,,,,,,,,,,,,,,,,,,,,,WJ4H18,train_y,red_square,bottom_right,2025-07-25_17h19.17.168,HideSeek_v1,2022.2.5,60.29893804520395,
,,,,,,,,,,,,,,,0,0,0,0,11,0,11,0,,,,,,,,,,,,,,,,,,,,,,,,,,,,,,,conditions/schedules/train_y_first/red_square_00/bottom_right/instructions/Slide12.png,conditions/schedules/train_y_first/red_square_00/bottom_right/instructions/Audio12.wav,185.492671799846,185.4930274997605,12,"[7.5528216999955475, 18.250567800132558, 17.124074100051075, 19.666161500150338, 4.654204500140622, 4.9209064999595284, 6.451102499850094, 12.54540569987148, 7.253063700161874, 8.195420500123873, 11.256296399980783, 14.425631399964914]","[0.07503960002213717, 0.03614090010523796, 0.03324890020303428, 0.03234340017661452, 0.06332299998030066, 0.03413399984128773, 0.07768709980882704, 0.014345800038427114, 0.0901060001924634, 0.05824869987554848, 0.014158300124108791, 14.425638300133869]",0,,,,,,,,,,,,,,,,,,,,,,,,,,,,,,,,,,,,,,,,,,,,,,,,,,,,,,,,,,,,,,,,,,,,,,,,,,,,,,,,,,,,,,,,,,,,,,,,,,,,,,,,,,,,,,,,,,,,,,,,,,,,WJ4H18,train_y,red_square,bottom_right,2025-07-25_17h19.17.168,HideSeek_v1,2022.2.5,60.29893804520395,
1,7,3,7,8,0,5,11,2,instr_dim1_1,,,,,,0,0,0,0,,,,,0,0,0,0,,,,,,,,,,,,,,,,,,,,,,,,,,,,,,,,,,,,,stimuli/alien_stimuli/11.png,conditions/schedules/train_y_first/red_square_00/bottom_right/inputInstr_1.xlsx,stimuli/alien_stimuli/11.png,200.02195820002817,200.02195820002817,200.02195820002817,200.02195820002817,200.0203812797787,return,8.516347199911252,"[-0.16, -0.08, 0, 0.08, 0.16, 0.24, 0.32, 0.4, 0.48, 0.56]","[-0.4, -0.32, -0.24, -0.16, -0.08, 0, 0.08, 0.16, 0.24, 0.32]",8,3,7,7,0.4,0.0,208.69870419986546,208.69870419986546,208.69870419986546,208.69870419986546,208.69870419986546,208.69870419986546,208.69870419986546,208.69022785981653,7.712605900131166,return,7.543443100061268,stimuli/alien_stimuli/11.png,11,7,1,,,,,,,,,,,,,,,,,,,,,,,,,,,,,,,,,,,,,,,,,,,,,,,,,,,,,,,,,,,,,,,,,,,,,,,,,,,,,,,,,,,,,,,,,WJ4H18,train_y,red_square,bottom_right,2025-07-25_17h19.17.168,HideSeek_v1,2022.2.5,60.29893804520395,
,,,,,,,,,,,30,,,,0,0,0,0,,,,,,,,,,,,,,,,,,,,,,,,,,,,,,,,,,,,,,,,,,,,,,,,,,,,,,,,,,,,,,,,,,,,,,,,,,,,,,21,0.7,0,0,99,1,30,0,conditions/schedules/train_y_first/red_square_00/bottom_right/inputTrain_1.1.xlsx,99,1,1,1,0,,,,,,,,,,,,,,,,,,,,,,,,,,,,,,,,,,,,,,,,,,,,,,,,,,,,,,,,,,,,,,,,,,,,,,,,,,,WJ4H18,train_y,red_square,bottom_right,2025-07-25_17h19.17.168,HideSeek_v1,2022.2.5,60.29893804520395,
,,,,,,,,,,,,,,,1,0,1,0,0,0,0,0,,,,,,,,,,,,,,,,,,,,,,,,,,,,,,,conditions/schedules/train_y_first/red_square_00/bottom_right/instructions/Slide13.png,conditions/schedules/train_y_first/red_square_00/bottom_right/instructions/Audio13.wav,216.3996749999933,216.40228015992327,13,"[7.5528216999955475, 18.250567800132558, 17.124074100051075, 19.666161500150338, 4.654204500140622, 4.9209064999595284, 6.451102499850094, 12.54540569987148, 7.253063700161874, 8.195420500123873, 11.256296399980783, 14.425631399964914, 17.61129629984498]","[0.07503960002213717, 0.03614090010523796, 0.03324890020303428, 0.03234340017661452, 0.06332299998030066, 0.03413399984128773, 0.07768709980882704, 0.014345800038427114, 0.0901060001924634, 0.05824869987554848, 0.014158300124108791, 14.425638300133869, 17.611303699901327]",0,,,,,,,,,,,,,,,,,,,,,,,,,,,,,,,,,,,,,,,,,,,,,,,,,,,,,,,,,,,,,,,,,,,,,,,,,,,,,,,,,,,,,,,,,,,,,,,,,,,,,,,,,,,,,,,,,,,,,,,,,,,,WJ4H18,train_y,red_square,bottom_right,2025-07-25_17h19.17.168,HideSeek_v1,2022.2.5,60.29893804520395,
,,,,,,,,,,,,,,,1,0,1,0,1,0,1,0,,,,,,,,,,,,,,,,,,,,,,,,,,,,,,,conditions/schedules/train_y_first/red_square_00/bottom_right/instructions/Slide14.png,conditions/schedules/train_y_first/red_square_00/bottom_right/instructions/Audio14.wav,234.07453710003756,234.0632455598563,14,"[7.5528216999955475, 18.250567800132558, 17.124074100051075, 19.666161500150338, 4.654204500140622, 4.9209064999595284, 6.451102499850094, 12.54540569987148, 7.253063700161874, 8.195420500123873, 11.256296399980783, 14.425631399964914, 17.61129629984498, 17.15430079982616]","[0.07503960002213717, 0.03614090010523796, 0.03324890020303428, 0.03234340017661452, 0.06332299998030066, 0.03413399984128773, 0.07768709980882704, 0.014345800038427114, 0.0901060001924634, 0.05824869987554848, 0.014158300124108791, 14.425638300133869, 0.07147630001418293, 17.154308500001207]",0,,,,,,,,,,,,,,,,,,,,,,,,,,,,,,,,,,,,,,,,,,,,,,,,,,,,,,,,,,,,,,,,,,,,,,,,,,,,,,,,,,,,,,,,,,,,,,,,,,,,,,,,,,,,,,,,,,,,,,,,,,,,WJ4H18,train_y,red_square,bottom_right,2025-07-25_17h19.17.168,HideSeek_v1,2022.2.5,60.29893804520395,
2,5,3,5,3,0,0,16,2,instr_dim1_1,,,,,,1,0,1,0,,,,,0,0,0,0,,,,,,,,,,,,,,,,,,,,,,,,,,,,,,,,,,,,,stimuli/alien_stimuli/16.png,conditions/schedules/train_y_first/red_square_00/bottom_right/inputInstr_1.xlsx,stimuli/alien_stimuli/16.png,251.32744939997792,251.32744939997792,251.32744939997792,251.32744939997792,251.331035279925,return,6.220433000009507,"[-0.16, -0.08, 0, 0.08, 0.16, 0.24, 0.32, 0.4, 0.48, 0.56]","[-0.4, -0.32, -0.24, -0.16, -0.08, 0, 0.08, 0.16, 0.24, 0.32]",3,3,5,5,0.0,0.0,257.7140931999311,257.7140931999311,257.7140931999311,257.7140931999311,257.7140931999311,257.7140931999311,257.7140931999311,257.7143235998228,17.392655400093645,return,17.225114000029862,stimuli/alien_stimuli/16.png,16,5,2,,,,,,,,,,,,,,,,,,,,,,,,,,,,,,,,,,,,,,,,,,,,,,,,,,,,,,,,,,,,,,,,,,,,,,,,,,,,,,,,,,,,,,,,,WJ4H18,train_y,red_square,bottom_right,2025-07-25_17h19.17.168,HideSeek_v1,2022.2.5,60.29893804520395,
,,,,,,,,,,,30,,,,1,0,1,0,,,,,,,,,,,,,,,,,,,,,,,,,,,,,,,,,,,,,,,,,,,,,,,,,,,,,,,,,,,,,,,,,,,,,,,,,,,,,,21,0.7,0,0,99,1,30,0,conditions/schedules/train_y_first/red_square_00/bottom_right/inputTrain_1.1.xlsx,99,1,1,1,0,,,,,,,,,,,,,,,,,,,,,,,,,,,,,,,,,,,,,,,,,,,,,,,,,,,,,,,,,,,,,,,,,,,,,,,,,,,WJ4H18,train_y,red_square,bottom_right,2025-07-25_17h19.17.168,HideSeek_v1,2022.2.5,60.29893804520395,
,,,,,,,,,,,,,,,2,0,2,0,0,0,0,0,,,,,,,,,,,,,,,,,,,,,,,,,,,,,,,conditions/schedules/train_y_first/red_square_00/bottom_right/instructions/Slide15.png,conditions/schedules/train_y_first/red_square_00/bottom_right/instructions/Audio15.wav,275.10985399992205,275.10591229982674,15,"[7.5528216999955475, 18.250567800132558, 17.124074100051075, 19.666161500150338, 4.654204500140622, 4.9209064999595284, 6.451102499850094, 12.54540569987148, 7.253063700161874, 8.195420500123873, 11.256296399980783, 14.425631399964914, 17.61129629984498, 17.15430079982616, 45.55406740005128]","[0.07503960002213717, 0.03614090010523796, 0.03324890020303428, 0.03234340017661452, 0.06332299998030066, 0.03413399984128773, 0.07768709980882704, 0.014345800038427114, 0.0901060001924634, 0.05824869987554848, 0.014158300124108791, 14.425638300133869, 0.07147630001418293, 17.154308500001207, 45.55407620011829]",0,,,,,,,,,,,,,,,,,,,,,,,,,,,,,,,,,,,,,,,,,,,,,,,,,,,,,,,,,,,,,,,,,,,,,,,,,,,,,,,,,,,,,,,,,,,,,,,,,,,,,,,,,,,,,,,,,,,,,,,,,,,,WJ4H18,train_y,red_square,bottom_right,2025-07-25_17h19.17.168,HideSeek_v1,2022.2.5,60.29893804520395,
,,,,,,,,,,,,,,,2,0,2,0,1,0,1,0,,,,,,,,,,,,,,,,,,,,,,,,,,,,,,,conditions/schedules/train_y_first/red_square_00/bottom_right/instructions/Slide16.png,conditions/schedules/train_y_first/red_square_00/bottom_right/instructions/Audio16.wav,320.73724619997665,320.7335086999228,16,"[7.5528216999955475, 18.250567800132558, 17.124074100051075, 19.666161500150338, 4.654204500140622, 4.9209064999595284, 6.451102499850094, 12.54540569987148, 7.253063700161874, 8.195420500123873, 11.256296399980783, 14.425631399964914, 17.61129629984498, 17.15430079982616, 45.55406740005128, 21.939835199853405]","[0.07503960002213717, 0.03614090010523796, 0.03324890020303428, 0.03234340017661452, 0.06332299998030066, 0.03413399984128773, 0.07768709980882704, 0.014345800038427114, 0.0901060001924634, 0.05824869987554848, 0.014158300124108791, 14.425638300133869, 0.07147630001418293, 17.154308500001207, 0.014216499868780375, 21.939843100029975]",0,,,,,,,,,,,,,,,,,,,,,,,,,,,,,,,,,,,,,,,,,,,,,,,,,,,,,,,,,,,,,,,,,,,,,,,,,,,,,,,,,,,,,,,,,,,,,,,,,,,,,,,,,,,,,,,,,,,,,,,,,,,,WJ4H18,train_y,red_square,bottom_right,2025-07-25_17h19.17.168,HideSeek_v1,2022.2.5,60.29893804520395,
,5,0,5,1,0,1,15,,train_dim1_1,1,30,,,,2,0,2,0,,,,,,,,,0,0,0,0,0,0,0,0,0,0,0,0,,,,,,,,,,,,,,,,,,,,,,,,,stimuli/alien_stimuli/15.png,,,,,,,,,,,,,,,,,,,,,,,,,,,,,,,,,,,,,,,30,,,,,,,,342.7810253999196,342.7810253999196,342.7810253999196,342.7810253999196,342.7810253999196,up,9.558578400174156,0,0,0,99,0.24,-0.32,up,9.45191890001297,,,,,,,,,,,,,,,,,,,,,,,,,,,,,,,,,,,,,,,,,,,,,,,,,,,,,,,,,,,,WJ4H18,train_y,red_square,bottom_right,2025-07-25_17h19.17.168,HideSeek_v1,2022.2.5,60.29893804520395,
,5,0,5,1,0,1,15,,train_dim1_1,1,30,,,,2,0,2,0,,,,,,,,,0,0,0,0,0,0,0,0,1,0,1,0,,,,,,,,,,,,,,,,,,,,,,,,,,,,,,,,,,,,,,,,,,,,,,,,,,,,,,,,,,,,,,,,30,,,,,,,,352.3296911998186,352.3296911998186,352.3296911998186,352.3296911998186,352.3296911998186,up,4.078966900007799,0,0,0,99,0.24,-0.24,up,3.995260000228882,,,,,,,,,,,,,,,,,,,,,,,,,,,,,,,,,,,,,,,,,,,,,,,,,,,,,,,,,,,,WJ4H18,train_y,red_square,bottom_right,2025-07-25_17h19.17.168,HideSeek_v1,2022.2.5,60.29893804520395,
,5,0,5,1,0,1,15,,train_dim1_1,1,30,,,,2,0,2,0,,,,,,,,,0,0,0,0,0,0,0,0,2,0,2,0,,,,,,,,,,,,,,,,,,,,,,,,,,,,,,,,,,,,,,,,,,,,,,,,,,,,,,,,,,,,,,,,30,,,,,,,,356.41584090003744,356.41584090003744,356.41584090003744,356.41584090003744,356.41584090003744,up,2.077971799997613,0,0,0,99,0.24,-0.15999999999999998,up,1.9902425000909716,,,,,,,,,,,,,,,,,,,,,,,,,,,,,,,,,,,,,,,,,,,,,,,,,,,,,,,,,,,,WJ4H18,train_y,red_square,bottom_right,2025-07-25_17h19.17.168,HideSeek_v1,2022.2.5,60.29893804520395,
,5,0,5,1,0,1,15,,train_dim1_1,1,30,,,,2,0,2,0,,,,,,,,,0,0,0,0,0,0,0,0,3,0,3,0,,,,,,,,,,,,,,,,,,,,,,,,,,,,,,,,,,,,,,,,,,,,,,,,,,,,,,,,,,,,,,,,30,,,,,,,,358.5000087998342,358.5000087998342,358.5000087998342,358.5000087998342,358.5000087998342,up,0.8765966000501066,0,0,0,99,0.24,-0.07999999999999997,up,0.7875985000282526,,,,,,,,,,,,,,,,,,,,,,,,,,,,,,,,,,,,,,,,,,,,,,,,,,,,,,,,,,,,WJ4H18,train_y,red_square,bottom_right,2025-07-25_17h19.17.168,HideSeek_v1,2022.2.5,60.29893804520395,
,5,0,5,1,0,1,15,,train_dim1_1,1,30,,,,2,0,2,0,,,,,,,,,0,0,0,0,0,0,0,0,4,0,4,0,,,,,,,,,,,,,,,,,,,,,,,,,,,,,,,,,,,,,,,,,,,,,,,,,,,,,,,,,,,,,,,,30,,,,,,,,359.3839145998936,359.3839145998936,359.3839145998936,359.3839145998936,359.3839145998936,up,0.8149558000732213,0,0,0,99,0.24,2.7755575615628914e-17,up,0.7285269999410957,,,,,,,,,,,,,,,,,,,,,,,,,,,,,,,,,,,,,,,,,,,,,,,,,,,,,,,,,,,,WJ4H18,train_y,red_square,bottom_right,2025-07-25_17h19.17.168,HideSeek_v1,2022.2.5,60.29893804520395,
,5,0,5,1,0,1,15,,train_dim1_1,1,30,,,,2,0,2,0,,,,,,,,,0,0,0,0,0,0,0,0,5,0,5,0,,,,,,,,,,,,,,,,,,,,,,,,,,,,,,,,,,,,,,,,,,,,,,,,,,,,,,,,,,,,,,,,30,,,,,,,,360.21149619994685,360.21149619994685,360.21149619994685,360.21149619994685,360.21149619994685,up,1.1862749999854714,0,0,0,99,0.24,0.08000000000000003,up,1.0978870999533683,,,,,,,,,,,,,,,,,,,,,,,,,,,,,,,,,,,,,,,,,,,,,,,,,,,,,,,,,,,,WJ4H18,train_y,red_square,bottom_right,2025-07-25_17h19.17.168,HideSeek_v1,2022.2.5,60.29893804520395,
,5,0,5,1,0,1,15,,train_dim1_1,1,30,,,,2,0,2,0,,,,,,,,,0,0,0,0,0,0,0,0,6,0,6,0,,,,,,,,,,,,,,,,,,,,,,,,,,,,,,,,,,,,,,,,,,,,,,,,,,,,,,,,,,,,,,,,30,,,,,,,,361.40774739999324,361.40774739999324,361.40774739999324,361.40774739999324,361.40774739999324,up,0.6428907001391053,0,0,0,99,0.24,0.16000000000000003,up,0.553297400008887,,,,,,,,,,,,,,,,,,,,,,,,,,,,,,,,,,,,,,,,,,,,,,,,,,,,,,,,,,,,WJ4H18,train_y,red_square,bottom_right,2025-07-25_17h19.17.168,HideSeek_v1,2022.2.5,60.29893804520395,
,5,0,5,1,0,1,15,,train_dim1_1,1,30,,,,2,0,2,0,,,,,,,,,0,0,0,0,0,0,0,0,7,0,7,0,,,,,,,,,,,,,,,,,,,,,,,,,,,,,,,,,,,,,,,,,,,,,,,,,,,,,,,,,,,,,,,,30,,,,,,,,362.06079869996756,362.06079869996756,362.06079869996756,362.06079869996756,362.06079869996756,return,1.5440877999644727,0,0,0,0,0.24,0.16000000000000003,return,1.4448653000872582,7,0,0.24,0.16000000000000003,,,,,,,,,,,,,,,,,,,,,,,,,,,,,,,,,,,,,,,,,,,,,,,,,,,,,,,,WJ4H18,train_y,red_square,bottom_right,2025-07-25_17h19.17.168,HideSeek_v1,2022.2.5,60.29893804520395,
,8,2,8,2,0,0,16,,train_dim1_1,2,30,,,,2,0,2,0,,,,,,,,,0,0,0,0,0,1,1,1,0,0,0,0,,,,,,,,,,,,,,,,,,,,,,,,,stimuli/alien_stimuli/16.png,,,,,,,,,,,,,,,,,,,,,,,,,,,,,stimuli/alien_stimuli/15.png,15,5,3,,,,,,,30,,,,,,,,384.08740249997936,384.08740249997936,384.08740249997936,384.08740249997936,384.08740249997936,up,6.561720399884507,0,0,0,99,0.48,-0.15999999999999998,up,6.464905499946326,,,,,382.505397999892,365.18471909989603,0.24,-0.32,0.08,0.0,-0.36,0.24,0.24,0.24,-0.32,365.18471909989603,365.18471909989603,365.18471909989603,365.18471909989603,365.18471909989603,365.18471909989603,365.18471909989603,365.18471909989603,365.170735019818,17.452594300033525,return,17.28625959996134,,,,,,,,,,,,,,,,,,,,,,,,,,,,,,,,,WJ4H18,train_y,red_square,bottom_right,2025-07-25_17h19.17.168,HideSeek_v1,2022.2.5,60.29893804520395,
,8,2,8,2,0,0,16,,train_dim1_1,2,30,,,,2,0,2,0,,,,,,,,,0,0,0,0,0,1,1,1,1,0,1,0,,,,,,,,,,,,,,,,,,,,,,,,,,,,,,,,,,,,,,,,,,,,,,,,,,,,,,,,,,,,,,,,30,,,,,,,,390.64412459987216,390.64412459987216,390.64412459987216,390.64412459987216,390.64412459987216,return,2.0611390999983996,0,1,0,0,0.48,-0.15999999999999998,return,1.983839499996975,8,0,0.48,-0.15999999999999998,,,,,,,,,,,,,,,,,,,,,,,,,,,,,,,,,,,,,,,,,,,,,,,,,,,,,,,,WJ4H18,train_y,red_square,bottom_right,2025-07-25_17h19.17.168,HideSeek_v1,2022.2.5,60.29893804520395,
,7,3,7,6,0,3,13,,train_dim1_1,3,30,,,,2,0,2,0,,,,,,,,,0,0,0,0,0,2,2,2,0,0,0,0,,,,,,,,,,,,,,,,,,,,,,,,,stimuli/alien_stimuli/13.png,,,,,,,,,,,,,,,,,,,,,,,,,,,,,stimuli/alien_stimuli/16.png,16,8,4,,,,,,,30,,,,,,,,413.16802449990064,413.16802449990064,413.16802449990064,413.16802449990064,413.16802449990064,left,3.6749833000358194,0,1,0,99,0.32,-0.16,left,3.565641700057313,,,,,411.59423749987036,413.16802449990064,0.48,-0.24,0.0,0.0,-0.24,0.48,0.48,0.48,-0.24,394.2749220998958,394.2749220998958,394.2749220998958,394.2749220998958,394.2749220998958,394.2749220998958,394.2749220998958,394.2749220998958,394.2612499797484,17.4345350000076,return,17.289347000187263,,,,,,,,,,,,,,,,,,,,,,,,,,,,,,,,,WJ4H18,train_y,red_square,bottom_right,2025-07-25_17h19.17.168,HideSeek_v1,2022.2.5,60.29893804520395,
,7,3,7,6,0,3,13,,train_dim1_1,3,30,,,,2,0,2,0,,,,,,,,,0,0,0,0,0,2,2,2,1,0,1,0,,,,,,,,,,,,,,,,,,,,,,,,,,,,,,,,,,,,,,,,,,,,,,,,,,,,,,,,,,,,,,,,30,,,,,,,,416.83116229996085,416.83116229996085,416.83116229996085,416.83116229996085,416.83116229996085,down,1.5271195999812335,0,1,0,99,0.32,-0.24,down,1.4502032999880612,,,,,,,,,,,,,,,,,,,,,,,,,,,,,,,,,,,,,,,,,,,,,,,,,,,,,,,,,,,,WJ4H18,train_y,red_square,bottom_right,2025-07-25_17h19.17.168,HideSeek_v1,2022.2.5,60.29893804520395,
,7,3,7,6,0,3,13,,train_dim1_1,3,30,,,,2,0,2,0,,,,,,,,,0,0,0,0,0,2,2,2,2,0,2,0,,,,,,,,,,,,,,,,,,,,,,,,,,,,,,,,,,,,,,,,,,,,,,,,,,,,,,,,,,,,,,,,30,,,,,,,,418.37471989984624,418.37471989984624,418.37471989984624,418.37471989984624,418.37471989984624,return,1.0269040002021939,0,0,0,0,0.32,-0.24,return,0.9263933000620455,7,-1,0.32,-0.24,,,,,,,,,,,,,,,,,,,,,,,,,,,,,,,,,,,,,,,,,,,,,,,,,,,,,,,,WJ4H18,train_y,red_square,bottom_right,2025-07-25_17h19.17.168,HideSeek_v1,2022.2.5,60.29893804520395,
,5,1,5,5,0,4,12,,train_dim1_1,4,30,,,,2,0,2,0,,,,,,,,,0,0,0,0,0,3,3,3,0,0,0,0,,,,,,,,,,,,,,,,,,,,,,,,,stimuli/alien_stimuli/12.png,,,,,,,,,,,,,,,,,,,,,,,,,,,,,stimuli/alien_stimuli/13.png,13,7,5,,,,,,,30,,,,,,,,426.51085940003395,426.51085940003395,426.51085940003395,426.51085940003395,426.51085940003395,return,5.810614800080657,0,0,0,0,0.24,-0.32,return,5.728152299998328,7,-1,0.24,-0.32,424.9552988000214,426.51085940003395,0.4,0.08,0.24,0.0,-0.04,0.4,0.4,0.4,0.08,420.96807719999924,420.96807719999924,420.96807719999924,420.96807719999924,420.96807719999924,420.96807719999924,420.96807719999924,420.96807719999924,420.96665901979435,4.106740700080991,return,3.9617815997917205,,,,,,,,,,,,,,,,,,,,,,,,,,,,,,,,,WJ4H18,train_y,red_square,bottom_right,2025-07-25_17h19.17.168,HideSeek_v1,2022.2.5,60.29893804520395,
,8,3,8,8,0,5,11,,train_dim1_1,5,30,,,,2,0,2,0,,,,,,,,,0,0,0,0,0,4,4,4,0,0,0,0,,,,,,,,,,,,,,,,,,,,,,,,,stimuli/alien_stimuli/11.png,,,,,,,,,,,,,,,,,,,,,,,,,,,,,stimuli/alien_stimuli/12.png,12,5,6,,,,,,,30,,,,,,,,439.7548577999696,439.7548577999696,439.7548577999696,439.7548577999696,439.7548577999696,down,6.11123409983702,0,0,0,99,0.48,-0.24,down,6.032506900141016,,,,,438.18648099992424,,0.24,0,0.32,0.0,-0.16,0.24,0.24,0.24,0,433.90938719990663,433.90938719990663,433.90938719990663,433.90938719990663,433.90938719990663,433.90938719990663,433.90938719990663,433.90938719990663,433.91097731990743,4.395456700120121,return,4.259646799881011,,,,,,,,,,,,,,,,,,,,,,,,,,,,,,,,,WJ4H18,train_y,red_square,bottom_right,2025-07-25_17h19.17.168,HideSeek_v1,2022.2.5,60.29893804520395,
,8,3,8,8,0,5,11,,train_dim1_1,5,30,,,,2,0,2,0,,,,,,,,,0,0,0,0,0,4,4,4,1,0,1,0,,,,,,,,,,,,,,,,,,,,,,,,,,,,,,,,,,,,,,,,,,,,,,,,,,,,,,,,,,,,,,,,30,,,,,,,,445.8739026999101,445.8739026999101,445.8739026999101,445.8739026999101,445.8739026999101,return,2.7620446998625994,0,0,0,0,0.48,-0.24,return,2.6713197000790387,6,-1,0.48,-0.24,,,,,,,,,,,,,,,,,,,,,,,,,,,,,,,,,,,,,,,,,,,,,,,,,,,,,,,,WJ4H18,train_y,red_square,bottom_right,2025-07-25_17h19.17.168,HideSeek_v1,2022.2.5,60.29893804520395,
,6,4,6,8,0,4,12,,train_dim1_1,6,30,,,,2,0,2,0,,,,,,,,,0,0,0,0,0,5,5,5,0,0,0,0,,,,,,,,,,,,,,,,,,,,,,,,,stimuli/alien_stimuli/12.png,,,,,,,,,,,,,,,,,,,,,,,,,,,,,stimuli/alien_stimuli/11.png,11,8,7,,,,,,,30,,,,,,,,454.95127730001695,454.95127730001695,454.95127730001695,454.95127730001695,454.95127730001695,left,2.707179000135511,0,0,0,99,0.24,-0.08,left,2.6262399000115693,,,,,453.3947450998239,454.95127730001695,0.48,0.24,0.4,0.0,0.039999999999999994,0.48,0.48,0.48,0.24,450.2221430998761,450.2221430998761,450.2221430998761,450.2221430998761,450.2221430998761,450.2221430998761,450.2221430998761,450.2221430998761,450.2078478797572,3.2887717001140118,return,3.147532799979672,,,,,,,,,,,,,,,,,,,,,,,,,,,,,,,,,WJ4H18,train_y,red_square,bottom_right,2025-07-25_17h19.17.168,HideSeek_v1,2022.2.5,60.29893804520395,
,6,4,6,8,0,4,12,,train_dim1_1,6,30,,,,2,0,2,0,,,,,,,,,0,0,0,0,0,5,5,5,1,0,1,0,,,,,,,,,,,,,,,,,,,,,,,,,,,,,,,,,,,,,,,,,,,,,,,,,,,,,,,,,,,,,,,,30,,,,,,,,457.6824027998373,457.6824027998373,457.6824027998373,457.6824027998373,457.6824027998373,left,0.6598675998393446,0,0,0,99,0.15999999999999998,-0.08,left,0.5535432000178844,,,,,,,,,,,,,,,,,,,,,,,,,,,,,,,,,,,,,,,,,,,,,,,,,,,,,,,,,,,,WJ4H18,train_y,red_square,bottom_right,2025-07-25_17h19.17.168,HideSeek_v1,2022.2.5,60.29893804520395,
,6,4,6,8,0,4,12,,train_dim1_1,6,30,,,,2,0,2,0,,,,,,,,,0,0,0,0,0,5,5,5,2,0,2,0,,,,,,,,,,,,,,,,,,,,,,,,,,,,,,,,,,,,,,,,,,,,,,,,,,,,,,,,,,,,,,,,30,,,,,,,,458.3330379000399,458.3330379000399,458.3330379000399,458.3330379000399,458.3330379000399,up,1.9110656999982893,0,0,0,99,0.15999999999999998,0.0,up,1.8324033000972122,,,,,,,,,,,,,,,,,,,,,,,,,,,,,,,,,,,,,,,,,,,,,,,,,,,,,,,,,,,,WJ4H18,train_y,red_square,bottom_right,2025-07-25_17h19.17.168,HideSeek_v1,2022.2.5,60.29893804520395,
,6,4,6,8,0,4,12,,train_dim1_1,6,30,,,,2,0,2,0,,,,,,,,,0,0,0,0,0,5,5,5,3,0,3,0,,,,,,,,,,,,,,,,,,,,,,,,,,,,,,,,,,,,,,,,,,,,,,,,,,,,,,,,,,,,,,,,30,,,,,,,,460.2504989998415,460.2504989998415,460.2504989998415,460.2504989998415,460.2504989998415,up,0.6102809000294656,0,0,0,99,0.15999999999999998,0.08,up,0.5303429001942277,,,,,,,,,,,,,,,,,,,,,,,,,,,,,,,,,,,,,,,,,,,,,,,,,,,,,,,,,,,,WJ4H18,train_y,red_square,bottom_right,2025-07-25_17h19.17.168,HideSeek_v1,2022.2.5,60.29893804520395,
,6,4,6,8,0,4,12,,train_dim1_1,6,30,,,,2,0,2,0,,,,,,,,,0,0,0,0,0,5,5,5,4,0,4,0,,,,,,,,,,,,,,,,,,,,,,,,,,,,,,,,,,,,,,,,,,,,,,,,,,,,,,,,,,,,,,,,30,,,,,,,,460.86933150002733,460.86933150002733,460.86933150002733,460.86933150002733,460.86933150002733,return,1.2437422999646515,0,0,0,0,0.15999999999999998,0.08,return,1.1621989000122994,8,-3,0.15999999999999998,0.08,,,,,,,,,,,,,,,,,,,,,,,,,,,,,,,,,,,,,,,,,,,,,,,,,,,,,,,,WJ4H18,train_y,red_square,bottom_right,2025-07-25_17h19.17.168,HideSeek_v1,2022.2.5,60.29893804520395,
,6,3,6,6,0,3,13,,train_dim1_1,7,30,,,,2,0,2,0,,,,,,,,,0,0,0,0,0,6,6,6,0,0,0,0,,,,,,,,,,,,,,,,,,,,,,,,,stimuli/alien_stimuli/13.png,,,,,,,,,,,,,,,,,,,,,,,,,,,,,stimuli/alien_stimuli/12.png,12,6,8,,,,,,,30,,,,,,,,469.16231359983794,469.16231359983794,469.16231359983794,469.16231359983794,469.16231359983794,up,3.808927700156346,0,0,0,99,0.32,-0.08,up,3.7274022998753935,,,,,467.5943671998102,463.6825514000375,0.32,0.24,0.32,0.0,0.07999999999999999,0.32,0.32,0.32,0.24,463.6825514000375,463.6825514000375,463.6825514000375,463.6825514000375,463.6825514000375,463.6825514000375,463.6825514000375,463.6825514000375,463.6690655797953,4.026710300007835,return,3.8828636000398546,,,,,,,,,,,,,,,,,,,,,,,,,,,,,,,,,WJ4H18,train_y,red_square,bottom_right,2025-07-25_17h19.17.168,HideSeek_v1,2022.2.5,60.29893804520395,
,6,3,6,6,0,3,13,,train_dim1_1,7,30,,,,2,0,2,0,,,,,,,,,0,0,0,0,0,6,6,6,1,0,1,0,,,,,,,,,,,,,,,,,,,,,,,,,,,,,,,,,,,,,,,,,,,,,,,,,,,,,,,,,,,,,,,,30,,,,,,,,472.9785786999855,472.9785786999855,472.9785786999855,472.9785786999855,472.9785786999855,up,0.7925763998646289,0,0,0,99,0.32,0.0,up,0.7111116999294609,,,,,,,,,,,,,,,,,,,,,,,,,,,,,,,,,,,,,,,,,,,,,,,,,,,,,,,,,,,,WJ4H18,train_y,red_square,bottom_right,2025-07-25_17h19.17.168,HideSeek_v1,2022.2.5,60.29893804520395,
,6,3,6,6,0,3,13,,train_dim1_1,7,30,,,,2,0,2,0,,,,,,,,,0,0,0,0,0,6,6,6,2,0,2,0,,,,,,,,,,,,,,,,,,,,,,,,,,,,,,,,,,,,,,,,,,,,,,,,,,,,,,,,,,,,,,,,30,,,,,,,,473.78124309983104,473.78124309983104,473.78124309983104,473.78124309983104,473.78124309983104,up,0.5787488999776542,0,0,0,99,0.32,0.08,up,0.49871170008555055,,,,,,,,,,,,,,,,,,,,,,,,,,,,,,,,,,,,,,,,,,,,,,,,,,,,,,,,,,,,WJ4H18,train_y,red_square,bottom_right,2025-07-25_17h19.17.168,HideSeek_v1,2022.2.5,60.29893804520395,
,6,3,6,6,0,3,13,,train_dim1_1,7,30,,,,2,0,2,0,,,,,,,,,0,0,0,0,0,6,6,6,3,0,3,0,,,,,,,,,,,,,,,,,,,,,,,,,,,,,,,,,,,,,,,,,,,,,,,,,,,,,,,,,,,,,,,,30,,,,,,,,474.3672321999911,474.3672321999911,474.3672321999911,474.3672321999911,474.3672321999911,up,0.5714302000124007,0,0,0,99,0.32,0.16,up,0.4907858001533896,,,,,,,,,,,,,,,,,,,,,,,,,,,,,,,,,,,,,,,,,,,,,,,,,,,,,,,,,,,,WJ4H18,train_y,red_square,bottom_right,2025-07-25_17h19.17.168,HideSeek_v1,2022.2.5,60.29893804520395,
,6,3,6,6,0,3,13,,train_dim1_1,7,30,,,,2,0,2,0,,,,,,,,,0,0,0,0,0,6,6,6,4,0,4,0,,,,,,,,,,,,,,,,,,,,,,,,,,,,,,,,,,,,,,,,,,,,,,,,,,,,,,,,,,,,,,,,30,,,,,,,,474.9460373998154,474.9460373998154,474.9460373998154,474.9460373998154,474.9460373998154,return,0.9772600000724196,0,1,0,0,0.32,0.16,return,0.8881719999480993,12,-3,0.32,0.16,,,,,,,,,,,,,,,,,,,,,,,,,,,,,,,,,,,,,,,,,,,,,,,,,,,,,,,,WJ4H18,train_y,red_square,bottom_right,2025-07-25_17h19.17.168,HideSeek_v1,2022.2.5,60.29893804520395,
,9,2,9,7,0,5,11,,train_dim1_1,8,30,,,,2,0,2,0,,,,,,,,,0,0,0,0,0,7,7,7,0,0,0,0,,,,,,,,,,,,,,,,,,,,,,,,,stimuli/alien_stimuli/11.png,,,,,,,,,,,,,,,,,,,,,,,,,,,,,stimuli/alien_stimuli/13.png,13,6,9,,,,,,,30,,,,,,,,483.3118673998397,483.3118673998397,483.3118673998397,483.3118673998397,483.3118673998397,left,2.740412199869752,0,1,0,99,0.48000000000000004,-0.24,left,2.6446507000364363,,,,,481.75297489995137,483.3118673998397,0.32,0.08,0.24,0.0,-0.04,0.32,0.32,0.32,0.08,477.49731659982353,477.49731659982353,477.49731659982353,477.49731659982353,477.49731659982353,477.49731659982353,477.49731659982353,477.49731659982353,477.4972405197099,4.373775199986994,return,4.229473800165579,,,,,,,,,,,,,,,,,,,,,,,,,,,,,,,,,WJ4H18,train_y,red_square,bottom_right,2025-07-25_17h19.17.168,HideSeek_v1,2022.2.5,60.29893804520395,
,9,2,9,7,0,5,11,,train_dim1_1,8,30,,,,2,0,2,0,,,,,,,,,0,0,0,0,0,7,7,7,1,0,1,0,,,,,,,,,,,,,,,,,,,,,,,,,,,,,,,,,,,,,,,,,,,,,,,,,,,,,,,,,,,,,,,,30,,,,,,,,486.0564737999812,486.0564737999812,486.0564737999812,486.0564737999812,486.0564737999812,left,0.5599789000116289,0,1,0,99,0.4,-0.24,left,0.4781645000912249,,,,,,,,,,,,,,,,,,,,,,,,,,,,,,,,,,,,,,,,,,,,,,,,,,,,,,,,,,,,WJ4H18,train_y,red_square,bottom_right,2025-07-25_17h19.17.168,HideSeek_v1,2022.2.5,60.29893804520395,
,9,2,9,7,0,5,11,,train_dim1_1,8,30,,,,2,0,2,0,,,,,,,,,0,0,0,0,0,7,7,7,2,0,2,0,,,,,,,,,,,,,,,,,,,,,,,,,,,,,,,,,,,,,,,,,,,,,,,,,,,,,,,,,,,,,,,,30,,,,,,,,486.62217139988206,486.62217139988206,486.62217139988206,486.62217139988206,486.62217139988206,left,0.5432520001195371,0,1,0,99,0.32,-0.24,left,0.4663031999953091,,,,,,,,,,,,,,,,,,,,,,,,,,,,,,,,,,,,,,,,,,,,,,,,,,,,,,,,,,,,WJ4H18,train_y,red_square,bottom_right,2025-07-25_17h19.17.168,HideSeek_v1,2022.2.5,60.29893804520395,
,9,2,9,7,0,5,11,,train_dim1_1,8,30,,,,2,0,2,0,,,,,,,,,0,0,0,0,0,7,7,7,3,0,3,0,,,,,,,,,,,,,,,,,,,,,,,,,,,,,,,,,,,,,,,,,,,,,,,,,,,,,,,,,,,,,,,,30,,,,,,,,487.1737157998141,487.1737157998141,487.1737157998141,487.1737157998141,487.1737157998141,return,1.4942633998580277,0,0,0,0,0.32,-0.24,return,1.4090848001651466,12,-6,0.32,-0.24,,,,,,,,,,,,,,,,,,,,,,,,,,,,,,,,,,,,,,,,,,,,,,,,,,,,,,,,WJ4H18,train_y,red_square,bottom_right,2025-07-25_17h19.17.168,HideSeek_v1,2022.2.5,60.29893804520395,
,9,3,9,4,0,1,15,,train_dim1_1,9,30,,,,2,0,2,0,,,,,,,,,0,0,0,0,0,8,8,8,0,0,0,0,,,,,,,,,,,,,,,,,,,,,,,,,stimuli/alien_stimuli/15.png,,,,,,,,,,,,,,,,,,,,,,,,,,,,,stimuli/alien_stimuli/11.png,11,9,10,,,,,,,30,,,,,,,,494.2997876999434,494.2997876999434,494.2997876999434,494.2997876999434,494.2997876999434,left,2.441400400130078,0,0,0,99,0.48000000000000004,-0.16,left,2.357340999878943,,,,,492.73172449995764,490.2378024000209,0.56,0.16,0.4,0.0,-0.039999999999999994,0.56,0.56,0.56,0.16,490.2378024000209,490.2378024000209,490.2378024000209,490.2378024000209,490.2378024000209,490.2378024000209,490.2378024000209,490.2378024000209,490.22441997986755,2.6102228998206556,return,2.4663130999542773,,,,,,,,,,,,,,,,,,,,,,,,,,,,,,,,,WJ4H18,train_y,red_square,bottom_right,2025-07-25_17h19.17.168,HideSeek_v1,2022.2.5,60.29893804520395,
,9,3,9,4,0,1,15,,train_dim1_1,9,30,,,,2,0,2,0,,,,,,,,,0,0,0,0,0,8,8,8,1,0,1,0,,,,,,,,,,,,,,,,,,,,,,,,,,,,,,,,,,,,,,,,,,,,,,,,,,,,,,,,,,,,,,,,30,,,,,,,,496.7488651999738,496.7488651999738,496.7488651999738,496.7488651999738,496.7488651999738,left,0.5600055998656899,0,0,0,99,0.4,-0.16,left,0.46796400006860495,,,,,,,,,,,,,,,,,,,,,,,,,,,,,,,,,,,,,,,,,,,,,,,,,,,,,,,,,,,,WJ4H18,train_y,red_square,bottom_right,2025-07-25_17h19.17.168,HideSeek_v1,2022.2.5,60.29893804520395,
,9,3,9,4,0,1,15,,train_dim1_1,9,30,,,,2,0,2,0,,,,,,,,,0,0,0,0,0,8,8,8,2,0,2,0,,,,,,,,,,,,,,,,,,,,,,,,,,,,,,,,,,,,,,,,,,,,,,,,,,,,,,,,,,,,,,,,30,,,,,,,,497.33309890003875,497.33309890003875,497.33309890003875,497.33309890003875,497.33309890003875,left,0.493242499884218,0,0,0,99,0.32,-0.16,left,0.3962313998490572,,,,,,,,,,,,,,,,,,,,,,,,,,,,,,,,,,,,,,,,,,,,,,,,,,,,,,,,,,,,WJ4H18,train_y,red_square,bottom_right,2025-07-25_17h19.17.168,HideSeek_v1,2022.2.5,60.29893804520395,
,9,3,9,4,0,1,15,,train_dim1_1,9,30,,,,2,0,2,0,,,,,,,,,0,0,0,0,0,8,8,8,3,0,3,0,,,,,,,,,,,,,,,,,,,,,,,,,,,,,,,,,,,,,,,,,,,,,,,,,,,,,,,,,,,,,,,,30,,,,,,,,497.81639679986984,497.81639679986984,497.81639679986984,497.81639679986984,497.81639679986984,left,0.5765151001978666,0,0,0,99,0.24,-0.16,left,0.49386789998970926,,,,,,,,,,,,,,,,,,,,,,,,,,,,,,,,,,,,,,,,,,,,,,,,,,,,,,,,,,,,WJ4H18,train_y,red_square,bottom_right,2025-07-25_17h19.17.168,HideSeek_v1,2022.2.5,60.29893804520395,
,9,3,9,4,0,1,15,,train_dim1_1,9,30,,,,2,0,2,0,,,,,,,,,0,0,0,0,0,8,8,8,4,0,4,0,,,,,,,,,,,,,,,,,,,,,,,,,,,,,,,,,,,,,,,,,,,,,,,,,,,,,,,,,,,,,,,,30,,,,,,,,498.40023439982906,498.40023439982906,498.40023439982906,498.40023439982906,498.40023439982906,return,0.8270064000971615,0,0,0,0,0.24,-0.16,return,0.7403460000641644,12,-10,0.24,-0.16,,,,,,,,,,,,,,,,,,,,,,,,,,,,,,,,,,,,,,,,,,,,,,,,,,,,,,,,WJ4H18,train_y,red_square,bottom_right,2025-07-25_17h19.17.168,HideSeek_v1,2022.2.5,60.29893804520395,
,7,2,7,2,0,0,16,,train_dim1_1,10,30,,,,2,0,2,0,,,,,,,,,0,0,0,0,0,9,9,9,0,0,0,0,,,,,,,,,,,,,,,,,,,,,,,,,stimuli/alien_stimuli/16.png,,,,,,,,,,,,,,,,,,,,,,,,,,,,,stimuli/alien_stimuli/15.png,15,9,11,,,,,,,30,,,,,,,,504.9798034999985,504.9798034999985,504.9798034999985,504.9798034999985,504.9798034999985,up,2.791444000089541,0,0,0,99,0.4,-0.15999999999999998,up,2.6944327999372035,,,,,503.4130921999458,500.7977636998985,0.56,-0.08,0.08,0.0,-0.12,0.56,0.56,0.56,-0.08,500.7977636998985,500.7977636998985,500.7977636998985,500.7977636998985,500.7977636998985,500.7977636998985,500.7977636998985,500.7977636998985,500.783191579883,2.7266361999791116,return,2.5781121999025345,,,,,,,,,,,,,,,,,,,,,,,,,,,,,,,,,WJ4H18,train_y,red_square,bottom_right,2025-07-25_17h19.17.168,HideSeek_v1,2022.2.5,60.29893804520395,
,7,2,7,2,0,0,16,,train_dim1_1,10,30,,,,2,0,2,0,,,,,,,,,0,0,0,0,0,9,9,9,1,0,1,0,,,,,,,,,,,,,,,,,,,,,,,,,,,,,,,,,,,,,,,,,,,,,,,,,,,,,,,,,,,,,,,,30,,,,,,,,507.7750696998555,507.7750696998555,507.7750696998555,507.7750696998555,507.7750696998555,up,0.5595758999697864,0,0,0,99,0.4,-0.07999999999999997,up,0.4668672999832779,,,,,,,,,,,,,,,,,,,,,,,,,,,,,,,,,,,,,,,,,,,,,,,,,,,,,,,,,,,,WJ4H18,train_y,red_square,bottom_right,2025-07-25_17h19.17.168,HideSeek_v1,2022.2.5,60.29893804520395,
,7,2,7,2,0,0,16,,train_dim1_1,10,30,,,,2,0,2,0,,,,,,,,,0,0,0,0,0,9,9,9,2,0,2,0,,,,,,,,,,,,,,,,,,,,,,,,,,,,,,,,,,,,,,,,,,,,,,,,,,,,,,,,,,,,,,,,30,,,,,,,,508.3422232000157,508.3422232000157,508.3422232000157,508.3422232000157,508.3422232000157,up,0.5272138000000268,0,0,0,99,0.4,2.7755575615628914e-17,up,0.4452846001368016,,,,,,,,,,,,,,,,,,,,,,,,,,,,,,,,,,,,,,,,,,,,,,,,,,,,,,,,,,,,WJ4H18,train_y,red_square,bottom_right,2025-07-25_17h19.17.168,HideSeek_v1,2022.2.5,60.29893804520395,
,7,2,7,2,0,0,16,,train_dim1_1,10,30,,,,2,0,2,0,,,,,,,,,0,0,0,0,0,9,9,9,3,0,3,0,,,,,,,,,,,,,,,,,,,,,,,,,,,,,,,,,,,,,,,,,,,,,,,,,,,,,,,,,,,,,,,,30,,,,,,,,508.87497009988874,508.87497009988874,508.87497009988874,508.87497009988874,508.87497009988874,up,0.5433444001246244,0,0,0,99,0.4,0.08000000000000003,up,0.45944290002807975,,,,,,,,,,,,,,,,,,,,,,,,,,,,,,,,,,,,,,,,,,,,,,,,,,,,,,,,,,,,WJ4H18,train_y,red_square,bottom_right,2025-07-25_17h19.17.168,HideSeek_v1,2022.2.5,60.29893804520395,
,7,2,7,2,0,0,16,,train_dim1_1,10,30,,,,2,0,2,0,,,,,,,,,0,0,0,0,0,9,9,9,4,0,4,0,,,,,,,,,,,,,,,,,,,,,,,,,,,,,,,,,,,,,,,,,,,,,,,,,,,,,,,,,,,,,,,,30,,,,,,,,509.42539709992707,509.42539709992707,509.42539709992707,509.42539709992707,509.42539709992707,up,0.5933566000312567,0,0,0,99,0.4,0.16000000000000003,up,0.5039016001392156,,,,,,,,,,,,,,,,,,,,,,,,,,,,,,,,,,,,,,,,,,,,,,,,,,,,,,,,,,,,WJ4H18,train_y,red_square,bottom_right,2025-07-25_17h19.17.168,HideSeek_v1,2022.2.5,60.29893804520395,
,7,2,7,2,0,0,16,,train_dim1_1,10,30,,,,2,0,2,0,,,,,,,,,0,0,0,0,0,9,9,9,5,0,5,0,,,,,,,,,,,,,,,,,,,,,,,,,,,,,,,,,,,,,,,,,,,,,,,,,,,,,,,,,,,,,,,,30,,,,,,,,510.0254073999822,510.0254073999822,510.0254073999822,510.0254073999822,510.0254073999822,return,0.9443129999563098,0,0,0,0,0.4,0.16000000000000003,return,0.8564945999532938,17,-10,0.4,0.16000000000000003,,,,,,,,,,,,,,,,,,,,,,,,,,,,,,,,,,,,,,,,,,,,,,,,,,,,,,,,WJ4H18,train_y,red_square,bottom_right,2025-07-25_17h19.17.168,HideSeek_v1,2022.2.5,60.29893804520395,
,9,1,9,2,0,1,15,,train_dim1_1,11,30,,,,2,0,2,0,,,,,,,,,0,0,0,0,0,10,10,10,0,0,0,0,,,,,,,,,,,,,,,,,,,,,,,,,stimuli/alien_stimuli/15.png,,,,,,,,,,,,,,,,,,,,,,,,,,,,,stimuli/alien_stimuli/16.png,16,7,12,,,,,,,30,,,,,,,,517.2866644000169,517.2866644000169,517.2866644000169,517.2866644000169,517.2866644000169,up,3.0584850998129696,0,0,0,99,0.56,-0.24,up,2.974527500104159,,,,,515.7231397998985,,0.4,-0.24,0.0,0.0,-0.24,0.4,0.4,0.4,-0.24,512.5561005999334,512.5561005999334,512.5561005999334,512.5561005999334,512.5561005999334,512.5561005999334,512.5561005999334,512.5561005999334,512.5429605797631,3.2771473000757396,return,3.136389800114557,,,,,,,,,,,,,,,,,,,,,,,,,,,,,,,,,WJ4H18,train_y,red_square,bottom_right,2025-07-25_17h19.17.168,HideSeek_v1,2022.2.5,60.29893804520395,
,9,1,9,2,0,1,15,,train_dim1_1,11,30,,,,2,0,2,0,,,,,,,,,0,0,0,0,0,10,10,10,1,0,1,0,,,,,,,,,,,,,,,,,,,,,,,,,,,,,,,,,,,,,,,,,,,,,,,,,,,,,,,,,,,,,,,,30,,,,,,,,520.3518756998237,520.3518756998237,520.3518756998237,520.3518756998237,520.3518756998237,return,1.227057500043884,1,0,0,1,0.56,-0.24,return,1.1354158001486212,18,-10,0.56,-0.24,,,,,,,,,,,,,,,,,,,,,,,,,,,,,,,,,,,,,,,,,,,,,,,,,,,,,,,,WJ4H18,train_y,red_square,bottom_right,2025-07-25_17h19.17.168,HideSeek_v1,2022.2.5,60.29893804520395,
,5,0,5,5,0,5,11,,train_dim1_1,12,30,,,,2,0,2,0,,,,,,,,,0,0,0,0,0,11,11,11,0,0,0,0,,,,,,,,,,,,,,,,,,,,,,,,,stimuli/alien_stimuli/11.png,,,,,,,,,,,,,,,,,,,,,,,,,,,,,stimuli/alien_stimuli/15.png,15,9,13,,,,,,,30,,,,,,,,529.4467676999047,529.4467676999047,529.4467676999047,529.4467676999047,529.4467676999047,up,3.5914898000191897,1,0,0,99,0.24,-0.32,up,3.5103959999978542,,,,,527.8763770000078,,0.56,-0.24,0.08,0.0,-0.28,0.56,0.56,0.56,-0.24,523.167308599921,523.167308599921,523.167308599921,523.167308599921,523.167308599921,523.167308599921,523.167308599921,523.167308599921,523.1680693198927,4.826640299987048,return,4.681581400102004,,,,,,,,,,,,,,,,,,,,,,,,,,,,,,,,,WJ4H18,train_y,red_square,bottom_right,2025-07-25_17h19.17.168,HideSeek_v1,2022.2.5,60.29893804520395,
,5,0,5,5,0,5,11,,train_dim1_1,12,30,,,,2,0,2,0,,,,,,,,,0,0,0,0,0,11,11,11,1,0,1,0,,,,,,,,,,,,,,,,,,,,,,,,,,,,,,,,,,,,,,,,,,,,,,,,,,,,,,,,,,,,,,,,30,,,,,,,,533.045618099859,533.045618099859,533.045618099859,533.045618099859,533.045618099859,up,0.7100704000331461,1,0,0,99,0.24,-0.24,up,0.6301470999605954,,,,,,,,,,,,,,,,,,,,,,,,,,,,,,,,,,,,,,,,,,,,,,,,,,,,,,,,,,,,WJ4H18,train_y,red_square,bottom_right,2025-07-25_17h19.17.168,HideSeek_v1,2022.2.5,60.29893804520395,
,5,0,5,5,0,5,11,,train_dim1_1,12,30,,,,2,0,2,0,,,,,,,,,0,0,0,0,0,11,11,11,2,0,2,0,,,,,,,,,,,,,,,,,,,,,,,,,,,,,,,,,,,,,,,,,,,,,,,,,,,,,,,,,,,,,,,,30,,,,,,,,533.7623504998628,533.7623504998628,533.7623504998628,533.7623504998628,533.7623504998628,return,0.6434390000067651,1,0,0,0,0.24,-0.24,return,0.558572500012815,20,-10,0.24,-0.24,,,,,,,,,,,,,,,,,,,,,,,,,,,,,,,,,,,,,,,,,,,,,,,,,,,,,,,,WJ4H18,train_y,red_square,bottom_right,2025-07-25_17h19.17.168,HideSeek_v1,2022.2.5,60.29893804520395,
,9,3,9,7,0,4,12,,train_dim1_1,13,30,,,,2,0,2,0,,,,,,,,,0,0,0,0,0,12,12,12,0,0,0,0,,,,,,,,,,,,,,,,,,,,,,,,,stimuli/alien_stimuli/12.png,,,,,,,,,,,,,,,,,,,,,,,,,,,,,stimuli/alien_stimuli/11.png,11,5,14,,,,,,,30,,,,,,,,539.5546619000379,539.5546619000379,539.5546619000379,539.5546619000379,539.5546619000379,up,2.4612899001222104,1,0,0,99,0.56,-0.08,up,2.3759229998104274,,,,,537.9836399999913,535.9756932000164,0.24,0,0.4,0.0,-0.2,0.24,0.24,0.24,0,535.9756932000164,535.9756932000164,535.9756932000164,535.9756932000164,535.9756932000164,535.9756932000164,535.9756932000164,535.9756932000164,535.9624712798045,2.1225872000213712,return,1.9823709998745471,,,,,,,,,,,,,,,,,,,,,,,,,,,,,,,,,WJ4H18,train_y,red_square,bottom_right,2025-07-25_17h19.17.168,HideSeek_v1,2022.2.5,60.29893804520395,
,9,3,9,7,0,4,12,,train_dim1_1,13,30,,,,2,0,2,0,,,,,,,,,0,0,0,0,0,12,12,12,1,0,1,0,,,,,,,,,,,,,,,,,,,,,,,,,,,,,,,,,,,,,,,,,,,,,,,,,,,,,,,,,,,,,,,,30,,,,,,,,542.0290055999067,542.0290055999067,542.0290055999067,542.0290055999067,542.0290055999067,up,0.6020831998903304,1,0,0,99,0.56,0.0,up,0.5125580998137593,,,,,,,,,,,,,,,,,,,,,,,,,,,,,,,,,,,,,,,,,,,,,,,,,,,,,,,,,,,,WJ4H18,train_y,red_square,bottom_right,2025-07-25_17h19.17.168,HideSeek_v1,2022.2.5,60.29893804520395,
,9,3,9,7,0,4,12,,train_dim1_1,13,30,,,,2,0,2,0,,,,,,,,,0,0,0,0,0,12,12,12,2,0,2,0,,,,,,,,,,,,,,,,,,,,,,,,,,,,,,,,,,,,,,,,,,,,,,,,,,,,,,,,,,,,,,,,30,,,,,,,,542.6366003998555,542.6366003998555,542.6366003998555,542.6366003998555,542.6366003998555,up,0.4804511000402272,1,0,0,99,0.56,0.08,up,0.3872448999900371,,,,,,,,,,,,,,,,,,,,,,,,,,,,,,,,,,,,,,,,,,,,,,,,,,,,,,,,,,,,WJ4H18,train_y,red_square,bottom_right,2025-07-25_17h19.17.168,HideSeek_v1,2022.2.5,60.29893804520395,
,9,3,9,7,0,4,12,,train_dim1_1,13,30,,,,2,0,2,0,,,,,,,,,0,0,0,0,0,12,12,12,3,0,3,0,,,,,,,,,,,,,,,,,,,,,,,,,,,,,,,,,,,,,,,,,,,,,,,,,,,,,,,,,,,,,,,,30,,,,,,,,543.1240927998442,543.1240927998442,543.1240927998442,543.1240927998442,543.1240927998442,return,0.9731399999000132,1,1,0,0,0.56,0.08,return,0.8962077000178397,23,-10,0.56,0.08,,,,,,,,,,,,,,,,,,,,,,,,,,,,,,,,,,,,,,,,,,,,,,,,,,,,,,,,WJ4H18,train_y,red_square,bottom_right,2025-07-25_17h19.17.168,HideSeek_v1,2022.2.5,60.29893804520395,
,7,2,7,2,0,0,16,,train_dim1_1,14,30,,,,2,0,2,0,,,,,,,,,0,0,0,0,0,13,13,13,0,0,0,0,,,,,,,,,,,,,,,,,,,,,,,,,stimuli/alien_stimuli/16.png,,,,,,,,,,,,,,,,,,,,,,,,,,,,,stimuli/alien_stimuli/12.png,12,9,15,,,,,,,30,,,,,,,,551.397983700037,551.397983700037,551.397983700037,551.397983700037,551.397983700037,up,1.8741128998808563,1,1,0,99,0.4,-0.15999999999999998,up,1.7895923000760376,,,,,549.8411979000084,551.397983700037,0.56,0.16,0.32,0.0,0.0,0.56,0.56,0.56,0.16,545.6670824999455,545.6670824999455,545.6670824999455,545.6670824999455,545.6670824999455,545.6670824999455,545.6670824999455,545.6670824999455,545.6539147799135,4.288890500087291,return,4.1356261998880655,,,,,,,,,,,,,,,,,,,,,,,,,,,,,,,,,WJ4H18,train_y,red_square,bottom_right,2025-07-25_17h19.17.168,HideSeek_v1,2022.2.5,60.29893804520395,
,7,2,7,2,0,0,16,,train_dim1_1,14,30,,,,2,0,2,0,,,,,,,,,0,0,0,0,0,13,13,13,1,0,1,0,,,,,,,,,,,,,,,,,,,,,,,,,,,,,,,,,,,,,,,,,,,,,,,,,,,,,,,,,,,,,,,,30,,,,,,,,553.2790065000299,553.2790065000299,553.2790065000299,553.2790065000299,553.2790065000299,up,0.3261646998580545,1,1,0,99,0.4,-0.07999999999999997,up,0.24943269998766482,,,,,,,,,,,,,,,,,,,,,,,,,,,,,,,,,,,,,,,,,,,,,,,,,,,,,,,,,,,,WJ4H18,train_y,red_square,bottom_right,2025-07-25_17h19.17.168,HideSeek_v1,2022.2.5,60.29893804520395,
,7,2,7,2,0,0,16,,train_dim1_1,14,30,,,,2,0,2,0,,,,,,,,,0,0,0,0,0,13,13,13,2,0,2,0,,,,,,,,,,,,,,,,,,,,,,,,,,,,,,,,,,,,,,,,,,,,,,,,,,,,,,,,,,,,,,,,30,,,,,,,,553.612082199892,553.612082199892,553.612082199892,553.612082199892,553.612082199892,up,0.359631999861449,1,1,0,99,0.4,2.7755575615628914e-17,up,0.2668802000116557,,,,,,,,,,,,,,,,,,,,,,,,,,,,,,,,,,,,,,,,,,,,,,,,,,,,,,,,,,,,WJ4H18,train_y,red_square,bottom_right,2025-07-25_17h19.17.168,HideSeek_v1,2022.2.5,60.29893804520395,
,7,2,7,2,0,0,16,,train_dim1_1,14,30,,,,2,0,2,0,,,,,,,,,0,0,0,0,0,13,13,13,3,0,3,0,,,,,,,,,,,,,,,,,,,,,,,,,,,,,,,,,,,,,,,,,,,,,,,,,,,,,,,,,,,,,,,,30,,,,,,,,553.97902349988,553.97902349988,553.97902349988,553.97902349988,553.97902349988,up,0.3769345998298377,1,1,0,99,0.4,0.08000000000000003,up,0.2849038001149893,,,,,,,,,,,,,,,,,,,,,,,,,,,,,,,,,,,,,,,,,,,,,,,,,,,,,,,,,,,,WJ4H18,train_y,red_square,bottom_right,2025-07-25_17h19.17.168,HideSeek_v1,2022.2.5,60.29893804520395,
,7,2,7,2,0,0,16,,train_dim1_1,14,30,,,,2,0,2,0,,,,,,,,,0,0,0,0,0,13,13,13,4,0,4,0,,,,,,,,,,,,,,,,,,,,,,,,,,,,,,,,,,,,,,,,,,,,,,,,,,,,,,,,,,,,,,,,30,,,,,,,,554.3615089999512,554.3615089999512,554.3615089999512,554.3615089999512,554.3615089999512,return,1.4777053999714553,1,0,0,0,0.4,0.08000000000000003,return,1.401456099934876,27,-10,0.4,0.08000000000000003,,,,,,,,,,,,,,,,,,,,,,,,,,,,,,,,,,,,,,,,,,,,,,,,,,,,,,,,WJ4H18,train_y,red_square,bottom_right,2025-07-25_17h19.17.168,HideSeek_v1,2022.2.5,60.29893804520395,
,6,4,6,7,0,3,13,,train_dim1_1,15,30,,,,2,0,2,0,,,,,,,,,0,0,0,0,0,14,14,14,0,0,0,0,,,,,,,,,,,,,,,,,,,,,,,,,stimuli/alien_stimuli/13.png,,,,,,,,,,,,,,,,,,,,,,,,,,,,,stimuli/alien_stimuli/16.png,16,7,16,,,,,,,30,,,,,,,,561.1408331999555,561.1408331999555,561.1408331999555,561.1408331999555,561.1408331999555,up,2.35689439997077,1,0,0,99,0.32,0.0,up,2.2661252000834793,,,,,559.5827999999747,561.1408331999555,0.4,-0.24,0.0,0.0,-0.24,0.4,0.4,0.4,-0.24,557.4112923999783,557.4112923999783,557.4112923999783,557.4112923999783,557.4112923999783,557.4112923999783,557.4112923999783,557.4112923999783,557.3971893799257,2.2873706000391394,return,2.1385977999307215,,,,,,,,,,,,,,,,,,,,,,,,,,,,,,,,,WJ4H18,train_y,red_square,bottom_right,2025-07-25_17h19.17.168,HideSeek_v1,2022.2.5,60.29893804520395,
,6,4,6,7,0,3,13,,train_dim1_1,15,30,,,,2,0,2,0,,,,,,,,,0,0,0,0,0,14,14,14,1,0,1,0,,,,,,,,,,,,,,,,,,,,,,,,,,,,,,,,,,,,,,,,,,,,,,,,,,,,,,,,,,,,,,,,30,,,,,,,,563.503862899961,563.503862899961,563.503862899961,563.503862899961,563.503862899961,up,0.42588189989328384,1,0,0,99,0.32,0.08,up,0.3375265998765826,,,,,,,,,,,,,,,,,,,,,,,,,,,,,,,,,,,,,,,,,,,,,,,,,,,,,,,,,,,,WJ4H18,train_y,red_square,bottom_right,2025-07-25_17h19.17.168,HideSeek_v1,2022.2.5,60.29893804520395,
,6,4,6,7,0,3,13,,train_dim1_1,15,30,,,,2,0,2,0,,,,,,,,,0,0,0,0,0,14,14,14,2,0,2,0,,,,,,,,,,,,,,,,,,,,,,,,,,,,,,,,,,,,,,,,,,,,,,,,,,,,,,,,,,,,,,,,30,,,,,,,,563.9366508999374,563.9366508999374,563.9366508999374,563.9366508999374,563.9366508999374,up,0.4934563999995589,1,0,0,99,0.32,0.16,up,0.4098898000083864,,,,,,,,,,,,,,,,,,,,,,,,,,,,,,,,,,,,,,,,,,,,,,,,,,,,,,,,,,,,WJ4H18,train_y,red_square,bottom_right,2025-07-25_17h19.17.168,HideSeek_v1,2022.2.5,60.29893804520395,
,6,4,6,7,0,3,13,,train_dim1_1,15,30,,,,2,0,2,0,,,,,,,,,0,0,0,0,0,14,14,14,3,0,3,0,,,,,,,,,,,,,,,,,,,,,,,,,,,,,,,,,,,,,,,,,,,,,,,,,,,,,,,,,,,,,,,,30,,,,,,,,564.4360652000178,564.4360652000178,564.4360652000178,564.4360652000178,564.4360652000178,return,0.660090799909085,2,0,0,1,0.32,0.16,return,0.5815898000728339,30,-10,0.32,0.16,,,,,,,,,,,,,,,,,,,,,,,,,,,,,,,,,,,,,,,,,,,,,,,,,,,,,,,,WJ4H18,train_y,red_square,bottom_right,2025-07-25_17h19.17.168,HideSeek_v1,2022.2.5,60.29893804520395,
,9,0,9,1,0,1,15,,train_dim1_1,16,30,,,,2,0,2,0,,,,,,,,,0,0,0,0,0,15,15,15,0,0,0,0,,,,,,,,,,,,,,,,,,,,,,,,,stimuli/alien_stimuli/15.png,,,,,,,,,,,,,,,,,,,,,,,,,,,,,stimuli/alien_stimuli/13.png,13,6,17,,,,,,,30,,,,,,,,571.631449899869,571.631449899869,571.631449899869,571.631449899869,571.631449899869,return,1.9247785999905318,2,1,0,0,0.56,-0.4,return,1.8431510999798775,30,-10,0.56,-0.4,570.0745651000179,566.6526883998886,0.32,0.16,0.24,0.0,0.04,0.32,0.32,0.32,0.16,566.6526883998886,566.6526883998886,566.6526883998886,566.6526883998886,566.6526883998886,566.6526883998886,566.6526883998886,566.6526883998886,566.6381324398797,3.515851599862799,return,3.393891599960625,,,,,,,,,,,,,,,,,,,,,,,,,,,,,,,,,WJ4H18,train_y,red_square,bottom_right,2025-07-25_17h19.17.168,HideSeek_v1,2022.2.5,60.29893804520395,
,8,3,8,6,0,3,13,,train_dim1_1,17,30,,,,2,0,2,0,,,,,,,,,0,0,0,0,0,16,16,16,0,0,0,0,,,,,,,,,,,,,,,,,,,,,,,,,stimuli/alien_stimuli/13.png,,,,,,,,,,,,,,,,,,,,,,,,,,,,,stimuli/alien_stimuli/15.png,15,9,18,,,,,,,30,,,,,,,,579.9717774000019,579.9717774000019,579.9717774000019,579.9717774000019,579.9717774000019,left,1.6895061999093741,2,1,0,99,0.39999999999999997,-0.16,left,1.6033627998549491,,,,,578.4164575999603,579.9717774000019,0.56,-0.32,0.08,0.0,-0.36,0.56,0.56,0.56,-0.32,575.1477826999035,575.1477826999035,575.1477826999035,575.1477826999035,575.1477826999035,575.1477826999035,575.1477826999035,575.1477826999035,575.1450763199012,3.389879700029269,return,3.2493268998805434,,,,,,,,,,,,,,,,,,,,,,,,,,,,,,,,,WJ4H18,train_y,red_square,bottom_right,2025-07-25_17h19.17.168,HideSeek_v1,2022.2.5,60.29893804520395,
,8,3,8,6,0,3,13,,train_dim1_1,17,30,,,,2,0,2,0,,,,,,,,,0,0,0,0,0,16,16,16,1,0,1,0,,,,,,,,,,,,,,,,,,,,,,,,,,,,,,,,,,,,,,,,,,,,,,,,,,,,,,,,,,,,,,,,30,,,,,,,,581.6681168000214,581.6681168000214,581.6681168000214,581.6681168000214,581.6681168000214,right,4.029447099892423,2,1,0,99,0.48,-0.16,right,3.9405610000249,,,,,,,,,,,,,,,,,,,,,,,,,,,,,,,,,,,,,,,,,,,,,,,,,,,,,,,,,,,,WJ4H18,train_y,red_square,bottom_right,2025-07-25_17h19.17.168,HideSeek_v1,2022.2.5,60.29893804520395,
,8,3,8,6,0,3,13,,train_dim1_1,17,30,,,,2,0,2,0,,,,,,,,,0,0,0,0,0,16,16,16,2,0,2,0,,,,,,,,,,,,,,,,,,,,,,,,,,,,,,,,,,,,,,,,,,,,,,,,,,,,,,,,,,,,,,,,30,,,,,,,,585.7050387999043,585.7050387999043,585.7050387999043,585.7050387999043,585.7050387999043,up,1.5942939000669867,2,1,0,99,0.48,-0.08,up,1.5153186998795718,,,,,,,,,,,,,,,,,,,,,,,,,,,,,,,,,,,,,,,,,,,,,,,,,,,,,,,,,,,,WJ4H18,train_y,red_square,bottom_right,2025-07-25_17h19.17.168,HideSeek_v1,2022.2.5,60.29893804520395,
,8,3,8,6,0,3,13,,train_dim1_1,17,30,,,,2,0,2,0,,,,,,,,,0,0,0,0,0,16,16,16,3,0,3,0,,,,,,,,,,,,,,,,,,,,,,,,,,,,,,,,,,,,,,,,,,,,,,,,,,,,,,,,,,,,,,,,30,,,,,,,,587.3063854000065,587.3063854000065,587.3063854000065,587.3063854000065,587.3063854000065,up,1.0107220001518726,2,1,0,99,0.48,0.0,up,0.9243421999271959,,,,,,,,,,,,,,,,,,,,,,,,,,,,,,,,,,,,,,,,,,,,,,,,,,,,,,,,,,,,WJ4H18,train_y,red_square,bottom_right,2025-07-25_17h19.17.168,HideSeek_v1,2022.2.5,60.29893804520395,
,8,3,8,6,0,3,13,,train_dim1_1,17,30,,,,2,0,2,0,,,,,,,,,0,0,0,0,0,16,16,16,4,0,4,0,,,,,,,,,,,,,,,,,,,,,,,,,,,,,,,,,,,,,,,,,,,,,,,,,,,,,,,,,,,,,,,,30,,,,,,,,588.3289720998146,588.3289720998146,588.3289720998146,588.3289720998146,588.3289720998146,up,0.3936940000858158,2,1,0,99,0.48,0.08,up,0.3108185001183301,,,,,,,,,,,,,,,,,,,,,,,,,,,,,,,,,,,,,,,,,,,,,,,,,,,,,,,,,,,,WJ4H18,train_y,red_square,bottom_right,2025-07-25_17h19.17.168,HideSeek_v1,2022.2.5,60.29893804520395,
,8,3,8,6,0,3,13,,train_dim1_1,17,30,,,,2,0,2,0,,,,,,,,,0,0,0,0,0,16,16,16,5,0,5,0,,,,,,,,,,,,,,,,,,,,,,,,,,,,,,,,,,,,,,,,,,,,,,,,,,,,,,,,,,,,,,,,30,,,,,,,,588.7240534999873,588.7240534999873,588.7240534999873,588.7240534999873,588.7240534999873,return,0.7096221998799592,3,0,0,1,0.48,0.08,return,0.6191352000460029,33,-10,0.48,0.08,,,,,,,,,,,,,,,,,,,,,,,,,,,,,,,,,,,,,,,,,,,,,,,,,,,,,,,,WJ4H18,train_y,red_square,bottom_right,2025-07-25_17h19.17.168,HideSeek_v1,2022.2.5,60.29893804520395,
,7,1,7,6,0,5,11,,train_dim1_1,18,30,,,,2,0,2,0,,,,,,,,,0,0,0,0,0,17,17,17,0,0,0,0,,,,,,,,,,,,,,,,,,,,,,,,,stimuli/alien_stimuli/11.png,,,,,,,,,,,,,,,,,,,,,,,,,,,,,stimuli/alien_stimuli/13.png,13,8,19,,,,,,,30,,,,,,,,595.450429999968,595.450429999968,595.450429999968,595.450429999968,595.450429999968,up,1.9409694999922067,3,0,0,99,0.4,-0.24,up,1.8539571999572217,,,,,593.8959898999892,595.450429999968,0.48,0.08,0.24,0.0,-0.04,0.48,0.48,0.48,0.08,591.0123668999877,591.0123668999877,591.0123668999877,591.0123668999877,591.0123668999877,591.0123668999877,591.0123668999877,591.0123668999877,591.0082863197662,3.0051509998738766,return,2.861054299864918,,,,,,,,,,,,,,,,,,,,,,,,,,,,,,,,,WJ4H18,train_y,red_square,bottom_right,2025-07-25_17h19.17.168,HideSeek_v1,2022.2.5,60.29893804520395,
,7,1,7,6,0,5,11,,train_dim1_1,18,30,,,,2,0,2,0,,,,,,,,,0,0,0,0,0,17,17,17,1,0,1,0,,,,,,,,,,,,,,,,,,,,,,,,,,,,,,,,,,,,,,,,,,,,,,,,,,,,,,,,,,,,,,,,30,,,,,,,,597.3987988999579,597.3987988999579,597.3987988999579,597.3987988999579,597.3987988999579,up,0.47626539994962513,3,0,0,99,0.4,-0.15999999999999998,up,0.388202799949795,,,,,,,,,,,,,,,,,,,,,,,,,,,,,,,,,,,,,,,,,,,,,,,,,,,,,,,,,,,,WJ4H18,train_y,red_square,bottom_right,2025-07-25_17h19.17.168,HideSeek_v1,2022.2.5,60.29893804520395,
,7,1,7,6,0,5,11,,train_dim1_1,18,30,,,,2,0,2,0,,,,,,,,,0,0,0,0,0,17,17,17,2,0,2,0,,,,,,,,,,,,,,,,,,,,,,,,,,,,,,,,,,,,,,,,,,,,,,,,,,,,,,,,,,,,,,,,30,,,,,,,,597.8824727998581,597.8824727998581,597.8824727998581,597.8824727998581,597.8824727998581,up,0.443391100037843,3,0,0,99,0.4,-0.07999999999999997,up,0.35635749995708466,,,,,,,,,,,,,,,,,,,,,,,,,,,,,,,,,,,,,,,,,,,,,,,,,,,,,,,,,,,,WJ4H18,train_y,red_square,bottom_right,2025-07-25_17h19.17.168,HideSeek_v1,2022.2.5,60.29893804520395,
,7,1,7,6,0,5,11,,train_dim1_1,18,30,,,,2,0,2,0,,,,,,,,,0,0,0,0,0,17,17,17,3,0,3,0,,,,,,,,,,,,,,,,,,,,,,,,,,,,,,,,,,,,,,,,,,,,,,,,,,,,,,,,,,,,,,,,30,,,,,,,,598.3320444999263,598.3320444999263,598.3320444999263,598.3320444999263,598.3320444999263,up,0.477061599958688,3,0,0,99,0.4,2.7755575615628914e-17,up,0.3940135999582708,,,,,,,,,,,,,,,,,,,,,,,,,,,,,,,,,,,,,,,,,,,,,,,,,,,,,,,,,,,,WJ4H18,train_y,red_square,bottom_right,2025-07-25_17h19.17.168,HideSeek_v1,2022.2.5,60.29893804520395,
,7,1,7,6,0,5,11,,train_dim1_1,18,30,,,,2,0,2,0,,,,,,,,,0,0,0,0,0,17,17,17,4,0,4,0,,,,,,,,,,,,,,,,,,,,,,,,,,,,,,,,,,,,,,,,,,,,,,,,,,,,,,,,,,,,,,,,30,,,,,,,,598.816113299923,598.816113299923,598.816113299923,598.816113299923,598.816113299923,return,0.5766207000706345,3,1,0,0,0.4,2.7755575615628914e-17,return,0.49786979984492064,37,-10,0.4,2.7755575615628914e-17,,,,,,,,,,,,,,,,,,,,,,,,,,,,,,,,,,,,,,,,,,,,,,,,,,,,,,,,WJ4H18,train_y,red_square,bottom_right,2025-07-25_17h19.17.168,HideSeek_v1,2022.2.5,60.29893804520395,
,5,4,5,8,0,4,12,,train_dim1_1,19,30,,,,2,0,2,0,,,,,,,,,0,0,0,0,0,18,18,18,0,0,0,0,,,,,,,,,,,,,,,,,,,,,,,,,stimuli/alien_stimuli/12.png,,,,,,,,,,,,,,,,,,,,,,,,,,,,,stimuli/alien_stimuli/11.png,11,7,20,,,,,,,30,,,,,,,,605.2093079998158,605.2093079998158,605.2093079998158,605.2093079998158,605.2093079998158,return,3.643451999872923,3,0,0,0,0.24,-0.08,return,3.56287520006299,37,-10,0.24,-0.08,603.6394468999933,600.9496559998952,0.4,0.08,0.4,0.0,-0.12,0.4,0.4,0.4,0.08,600.9496559998952,600.9496559998952,600.9496559998952,600.9496559998952,600.9496559998952,600.9496559998952,600.9496559998952,600.9496559998952,600.9502389799104,2.7905180000234395,return,2.6628537999931723,,,,,,,,,,,,,,,,,,,,,,,,,,,,,,,,,WJ4H18,train_y,red_square,bottom_right,2025-07-25_17h19.17.168,HideSeek_v1,2022.2.5,60.29893804520395,
,7,0,7,0,0,0,16,,train_dim1_1,20,30,,,,2,0,2,0,,,,,,,,,0,0,0,0,0,19,19,19,0,0,0,0,,,,,,,,,,,,,,,,,,,,,,,,,stimuli/alien_stimuli/16.png,,,,,,,,,,,,,,,,,,,,,,,,,,,,,stimuli/alien_stimuli/12.png,12,5,21,,,,,,,30,,,,,,,,614.1823537999298,614.1823537999298,614.1823537999298,614.1823537999298,614.1823537999298,up,1.390772799961269,3,0,0,99,0.4,-0.32,up,1.3047919000964612,,,,,612.6141579998657,,0.24,0.24,0.32,0.0,0.07999999999999999,0.24,0.24,0.24,0.24,610.4376909998246,610.4376909998246,610.4376909998246,610.4376909998246,610.4376909998246,610.4376909998246,610.4376909998246,610.4376909998246,610.4243768798419,2.2918795000296086,return,2.142380999866873,,,,,,,,,,,,,,,,,,,,,,,,,,,,,,,,,WJ4H18,train_y,red_square,bottom_right,2025-07-25_17h19.17.168,HideSeek_v1,2022.2.5,60.29893804520395,
,7,0,7,0,0,0,16,,train_dim1_1,20,30,,,,2,0,2,0,,,,,,,,,0,0,0,0,0,19,19,19,1,0,1,0,,,,,,,,,,,,,,,,,,,,,,,,,,,,,,,,,,,,,,,,,,,,,,,,,,,,,,,,,,,,,,,,30,,,,,,,,615.5803850998636,615.5803850998636,615.5803850998636,615.5803850998636,615.5803850998636,up,0.3930009000468999,3,0,0,99,0.4,-0.24,up,0.30401089997030795,,,,,,,,,,,,,,,,,,,,,,,,,,,,,,,,,,,,,,,,,,,,,,,,,,,,,,,,,,,,WJ4H18,train_y,red_square,bottom_right,2025-07-25_17h19.17.168,HideSeek_v1,2022.2.5,60.29893804520395,
,7,0,7,0,0,0,16,,train_dim1_1,20,30,,,,2,0,2,0,,,,,,,,,0,0,0,0,0,19,19,19,2,0,2,0,,,,,,,,,,,,,,,,,,,,,,,,,,,,,,,,,,,,,,,,,,,,,,,,,,,,,,,,,,,,,,,,30,,,,,,,,615.9804875999689,615.9804875999689,615.9804875999689,615.9804875999689,615.9804875999689,up,0.39334940002299845,3,0,0,99,0.4,-0.15999999999999998,up,0.31406269990839064,,,,,,,,,,,,,,,,,,,,,,,,,,,,,,,,,,,,,,,,,,,,,,,,,,,,,,,,,,,,WJ4H18,train_y,red_square,bottom_right,2025-07-25_17h19.17.168,HideSeek_v1,2022.2.5,60.29893804520395,
,7,0,7,0,0,0,16,,train_dim1_1,20,30,,,,2,0,2,0,,,,,,,,,0,0,0,0,0,19,19,19,3,0,3,0,,,,,,,,,,,,,,,,,,,,,,,,,,,,,,,,,,,,,,,,,,,,,,,,,,,,,,,,,,,,,,,,30,,,,,,,,616.3808583999053,616.3808583999053,616.3808583999053,616.3808583999053,616.3808583999053,up,0.3599150001537055,3,0,0,99,0.4,-0.07999999999999997,up,0.2667942999396473,,,,,,,,,,,,,,,,,,,,,,,,,,,,,,,,,,,,,,,,,,,,,,,,,,,,,,,,,,,,WJ4H18,train_y,red_square,bottom_right,2025-07-25_17h19.17.168,HideSeek_v1,2022.2.5,60.29893804520395,
,7,0,7,0,0,0,16,,train_dim1_1,20,30,,,,2,0,2,0,,,,,,,,,0,0,0,0,0,19,19,19,4,0,4,0,,,,,,,,,,,,,,,,,,,,,,,,,,,,,,,,,,,,,,,,,,,,,,,,,,,,,,,,,,,,,,,,30,,,,,,,,616.7472337998915,616.7472337998915,616.7472337998915,616.7472337998915,616.7472337998915,up,0.4268207000568509,3,0,0,99,0.4,2.7755575615628914e-17,up,0.3366847999859601,,,,,,,,,,,,,,,,,,,,,,,,,,,,,,,,,,,,,,,,,,,,,,,,,,,,,,,,,,,,WJ4H18,train_y,red_square,bottom_right,2025-07-25_17h19.17.168,HideSeek_v1,2022.2.5,60.29893804520395,
,7,0,7,0,0,0,16,,train_dim1_1,20,30,,,,2,0,2,0,,,,,,,,,0,0,0,0,0,19,19,19,5,0,5,0,,,,,,,,,,,,,,,,,,,,,,,,,,,,,,,,,,,,,,,,,,,,,,,,,,,,,,,,,,,,,,,,30,,,,,,,,617.1807148000225,617.1807148000225,617.1807148000225,617.1807148000225,617.1807148000225,return,0.8779064000118524,3,0,0,0,0.4,2.7755575615628914e-17,return,0.7892837000545114,42,-10,0.4,2.7755575615628914e-17,,,,,,,,,,,,,,,,,,,,,,,,,,,,,,,,,,,,,,,,,,,,,,,,,,,,,,,,WJ4H18,train_y,red_square,bottom_right,2025-07-25_17h19.17.168,HideSeek_v1,2022.2.5,60.29893804520395,
,7,4,7,5,0,1,15,,train_dim1_1,21,30,,,,2,0,2,0,,,,,,,,,0,0,0,0,0,20,20,20,0,0,0,0,,,,,,,,,,,,,,,,,,,,,,,,,stimuli/alien_stimuli/15.png,,,,,,,,,,,,,,,,,,,,,,,,,,,,,stimuli/alien_stimuli/16.png,16,7,22,,,,,,,30,,,,,,,,623.8907172000036,623.8907172000036,623.8907172000036,623.8907172000036,623.8907172000036,return,1.391328299883753,3,1,0,0,0.4,-0.08,return,1.294935000129044,42,-10,0.4,-0.08,622.3211188998539,,0.4,-0.4,0.0,0.0,-0.4,0.4,0.4,0.4,-0.4,619.6301940998528,619.6301940998528,619.6301940998528,619.6301940998528,619.6301940998528,619.6301940998528,619.6301940998528,619.6301940998528,619.6155737398192,2.7905623000115156,return,2.6715947999618948,,,,,,,,,,,,,,,,,,,,,,,,,,,,,,,,,WJ4H18,train_y,red_square,bottom_right,2025-07-25_17h19.17.168,HideSeek_v1,2022.2.5,60.29893804520395,
,5,2,5,5,0,3,13,,train_dim1_1,22,30,,,,2,0,2,0,,,,,,,,,0,0,0,0,0,21,21,21,0,0,0,0,,,,,,,,,,,,,,,,,,,,,,,,,stimuli/alien_stimuli/13.png,,,,,,,,,,,,,,,,,,,,,,,,,,,,,stimuli/alien_stimuli/15.png,15,7,23,,,,,,,30,,,,,,,,630.2578775000293,630.2578775000293,630.2578775000293,630.2578775000293,630.2578775000293,up,1.4873556999955326,3,1,0,99,0.24,-0.15999999999999998,up,1.3890641999896616,,,,,628.6916608000174,630.2578775000293,0.4,0,0.08,0.0,-0.04,0.4,0.4,0.4,0,626.8573441999033,626.8573441999033,626.8573441999033,626.8573441999033,626.8573441999033,626.8573441999033,626.8573441999033,626.8573441999033,626.8548656797734,1.938791299937293,return,1.8157899999059737,,,,,,,,,,,,,,,,,,,,,,,,,,,,,,,,,WJ4H18,train_y,red_square,bottom_right,2025-07-25_17h19.17.168,HideSeek_v1,2022.2.5,60.29893804520395,
,5,2,5,5,0,3,13,,train_dim1_1,22,30,,,,2,0,2,0,,,,,,,,,0,0,0,0,0,21,21,21,1,0,1,0,,,,,,,,,,,,,,,,,,,,,,,,,,,,,,,,,,,,,,,,,,,,,,,,,,,,,,,,,,,,,,,,30,,,,,,,,631.7449192998465,631.7449192998465,631.7449192998465,631.7449192998465,631.7449192998465,up,0.29517240007407963,3,1,0,99,0.24,-0.07999999999999997,up,0.21715639997273684,,,,,,,,,,,,,,,,,,,,,,,,,,,,,,,,,,,,,,,,,,,,,,,,,,,,,,,,,,,,WJ4H18,train_y,red_square,bottom_right,2025-07-25_17h19.17.168,HideSeek_v1,2022.2.5,60.29893804520395,
,5,2,5,5,0,3,13,,train_dim1_1,22,30,,,,2,0,2,0,,,,,,,,,0,0,0,0,0,21,21,21,2,0,2,0,,,,,,,,,,,,,,,,,,,,,,,,,,,,,,,,,,,,,,,,,,,,,,,,,,,,,,,,,,,,,,,,30,,,,,,,,632.0466014000122,632.0466014000122,632.0466014000122,632.0466014000122,632.0466014000122,up,0.295387800084427,3,1,0,99,0.24,2.7755575615628914e-17,up,0.21582620008848608,,,,,,,,,,,,,,,,,,,,,,,,,,,,,,,,,,,,,,,,,,,,,,,,,,,,,,,,,,,,WJ4H18,train_y,red_square,bottom_right,2025-07-25_17h19.17.168,HideSeek_v1,2022.2.5,60.29893804520395,
,5,2,5,5,0,3,13,,train_dim1_1,22,30,,,,2,0,2,0,,,,,,,,,0,0,0,0,0,21,21,21,3,0,3,0,,,,,,,,,,,,,,,,,,,,,,,,,,,,,,,,,,,,,,,,,,,,,,,,,,,,,,,,,,,,,,,,30,,,,,,,,632.3490251998883,632.3490251998883,632.3490251998883,632.3490251998883,632.3490251998883,up,0.3151116000954062,3,1,0,99,0.24,0.08000000000000003,up,0.2331301998347044,,,,,,,,,,,,,,,,,,,,,,,,,,,,,,,,,,,,,,,,,,,,,,,,,,,,,,,,,,,,WJ4H18,train_y,red_square,bottom_right,2025-07-25_17h19.17.168,HideSeek_v1,2022.2.5,60.29893804520395,
,5,2,5,5,0,3,13,,train_dim1_1,22,30,,,,2,0,2,0,,,,,,,,,0,0,0,0,0,21,21,21,4,0,4,0,,,,,,,,,,,,,,,,,,,,,,,,,,,,,,,,,,,,,,,,,,,,,,,,,,,,,,,,,,,,,,,,30,,,,,,,,632.6714418998454,632.6714418998454,632.6714418998454,632.6714418998454,632.6714418998454,return,0.9165403000079095,3,1,0,0,0.24,0.08000000000000003,return,0.8301985000725836,46,-10,0.24,0.08000000000000003,,,,,,,,,,,,,,,,,,,,,,,,,,,,,,,,,,,,,,,,,,,,,,,,,,,,,,,,WJ4H18,train_y,red_square,bottom_right,2025-07-25_17h19.17.168,HideSeek_v1,2022.2.5,60.29893804520395,
,5,3,5,8,0,5,11,,train_dim1_1,23,30,,,,2,0,2,0,,,,,,,,,0,0,0,0,0,22,22,22,0,0,0,0,,,,,,,,,,,,,,,,,,,,,,,,,stimuli/alien_stimuli/11.png,,,,,,,,,,,,,,,,,,,,,,,,,,,,,stimuli/alien_stimuli/13.png,13,5,24,,,,,,,30,,,,,,,,638.3696876999456,638.3696876999456,638.3696876999456,638.3696876999456,638.3696876999456,return,1.8910022000782192,3,0,0,0,0.24,-0.16,return,1.8020564999897033,46,-10,0.24,-0.16,636.8007111998741,635.1423648998607,0.24,0,0.24,0.0,-0.12,0.24,0.24,0.24,0,635.1423648998607,635.1423648998607,635.1423648998607,635.1423648998607,635.1423648998607,635.1423648998607,635.1423648998607,635.1423648998607,635.128380039893,1.7570814001373947,return,1.6417626000475138,,,,,,,,,,,,,,,,,,,,,,,,,,,,,,,,,WJ4H18,train_y,red_square,bottom_right,2025-07-25_17h19.17.168,HideSeek_v1,2022.2.5,60.29893804520395,
,8,2,8,2,0,0,16,,train_dim1_1,24,30,,,,2,0,2,0,,,,,,,,,0,0,0,0,0,23,23,23,0,0,0,0,,,,,,,,,,,,,,,,,,,,,,,,,stimuli/alien_stimuli/16.png,,,,,,,,,,,,,,,,,,,,,,,,,,,,,stimuli/alien_stimuli/11.png,11,5,25,,,,,,,30,,,,,,,,645.9769073999487,645.9769073999487,645.9769073999487,645.9769073999487,645.9769073999487,up,2.425057099899277,3,0,0,99,0.48,-0.15999999999999998,up,2.331771899946034,,,,,644.4084089999087,,0.24,0.24,0.4,0.0,0.039999999999999994,0.24,0.24,0.24,0.24,641.8324491998646,641.8324491998646,641.8324491998646,641.8324491998646,641.8324491998646,641.8324491998646,641.8324491998646,641.8324491998646,641.8340673798461,2.675954599864781,return,2.5543676998931915,,,,,,,,,,,,,,,,,,,,,,,,,,,,,,,,,WJ4H18,train_y,red_square,bottom_right,2025-07-25_17h19.17.168,HideSeek_v1,2022.2.5,60.29893804520395,
,8,2,8,2,0,0,16,,train_dim1_1,24,30,,,,2,0,2,0,,,,,,,,,0,0,0,0,0,23,23,23,1,0,1,0,,,,,,,,,,,,,,,,,,,,,,,,,,,,,,,,,,,,,,,,,,,,,,,,,,,,,,,,,,,,,,,,30,,,,,,,,648.4088367999066,648.4088367999066,648.4088367999066,648.4088367999066,648.4088367999066,up,0.3426876999437809,3,0,0,99,0.48,-0.07999999999999997,up,0.2653593998402357,,,,,,,,,,,,,,,,,,,,,,,,,,,,,,,,,,,,,,,,,,,,,,,,,,,,,,,,,,,,WJ4H18,train_y,red_square,bottom_right,2025-07-25_17h19.17.168,HideSeek_v1,2022.2.5,60.29893804520395,
,8,2,8,2,0,0,16,,train_dim1_1,24,30,,,,2,0,2,0,,,,,,,,,0,0,0,0,0,23,23,23,2,0,2,0,,,,,,,,,,,,,,,,,,,,,,,,,,,,,,,,,,,,,,,,,,,,,,,,,,,,,,,,,,,,,,,,30,,,,,,,,648.7587217998225,648.7587217998225,648.7587217998225,648.7587217998225,648.7587217998225,up,0.30983959999866784,3,0,0,99,0.48,2.7755575615628914e-17,up,0.224285600008443,,,,,,,,,,,,,,,,,,,,,,,,,,,,,,,,,,,,,,,,,,,,,,,,,,,,,,,,,,,,WJ4H18,train_y,red_square,bottom_right,2025-07-25_17h19.17.168,HideSeek_v1,2022.2.5,60.29893804520395,
,8,2,8,2,0,0,16,,train_dim1_1,24,30,,,,2,0,2,0,,,,,,,,,0,0,0,0,0,23,23,23,3,0,3,0,,,,,,,,,,,,,,,,,,,,,,,,,,,,,,,,,,,,,,,,,,,,,,,,,,,,,,,,,,,,,,,,30,,,,,,,,649.0749387999531,649.0749387999531,649.0749387999531,649.0749387999531,649.0749387999531,up,0.34335199999623,3,0,0,99,0.48,0.08000000000000003,up,0.2543261998798698,,,,,,,,,,,,,,,,,,,,,,,,,,,,,,,,,,,,,,,,,,,,,,,,,,,,,,,,,,,,WJ4H18,train_y,red_square,bottom_right,2025-07-25_17h19.17.168,HideSeek_v1,2022.2.5,60.29893804520395,
,8,2,8,2,0,0,16,,train_dim1_1,24,30,,,,2,0,2,0,,,,,,,,,0,0,0,0,0,23,23,23,4,0,4,0,,,,,,,,,,,,,,,,,,,,,,,,,,,,,,,,,,,,,,,,,,,,,,,,,,,,,,,,,,,,,,,,30,,,,,,,,649.4313220998738,649.4313220998738,649.4313220998738,649.4313220998738,649.4313220998738,return,0.4266540000680834,3,0,0,0,0.48,0.08000000000000003,return,0.33862040005624294,50,-10,0.48,0.08000000000000003,,,,,,,,,,,,,,,,,,,,,,,,,,,,,,,,,,,,,,,,,,,,,,,,,,,,,,,,WJ4H18,train_y,red_square,bottom_right,2025-07-25_17h19.17.168,HideSeek_v1,2022.2.5,60.29893804520395,
,8,3,8,7,0,4,12,,train_dim1_1,25,30,,,,2,0,2,0,,,,,,,,,0,0,0,0,0,24,24,24,0,0,0,0,,,,,,,,,,,,,,,,,,,,,,,,,stimuli/alien_stimuli/12.png,,,,,,,,,,,,,,,,,,,,,,,,,,,,,stimuli/alien_stimuli/16.png,16,8,26,,,,,,,30,,,,,,,,654.8012143999804,654.8012143999804,654.8012143999804,654.8012143999804,654.8012143999804,left,1.9733676000032574,3,0,0,99,0.39999999999999997,-0.16,left,1.8859566999599338,,,,,653.2310742998961,651.4058359998744,0.48,-0.24,0.0,0.0,-0.24,0.48,0.48,0.48,-0.24,651.4058359998744,651.4058359998744,651.4058359998744,651.4058359998744,651.4058359998744,651.4058359998744,651.4058359998744,651.4058359998744,651.3916757397353,1.9238573999609798,return,1.8076406999025494,,,,,,,,,,,,,,,,,,,,,,,,,,,,,,,,,WJ4H18,train_y,red_square,bottom_right,2025-07-25_17h19.17.168,HideSeek_v1,2022.2.5,60.29893804520395,
,8,3,8,7,0,4,12,,train_dim1_1,25,30,,,,2,0,2,0,,,,,,,,,0,0,0,0,0,24,24,24,1,0,1,0,,,,,,,,,,,,,,,,,,,,,,,,,,,,,,,,,,,,,,,,,,,,,,,,,,,,,,,,,,,,,,,,30,,,,,,,,656.7810927999672,656.7810927999672,656.7810927999672,656.7810927999672,656.7810927999672,left,0.22676420002244413,3,0,0,99,0.31999999999999995,-0.16,left,0.14857640000991523,,,,,,,,,,,,,,,,,,,,,,,,,,,,,,,,,,,,,,,,,,,,,,,,,,,,,,,,,,,,WJ4H18,train_y,red_square,bottom_right,2025-07-25_17h19.17.168,HideSeek_v1,2022.2.5,60.29893804520395,
,8,3,8,7,0,4,12,,train_dim1_1,25,30,,,,2,0,2,0,,,,,,,,,0,0,0,0,0,24,24,24,2,0,2,0,,,,,,,,,,,,,,,,,,,,,,,,,,,,,,,,,,,,,,,,,,,,,,,,,,,,,,,,,,,,,,,,30,,,,,,,,657.0159712999593,657.0159712999593,657.0159712999593,657.0159712999593,657.0159712999593,left,0.21073450008407235,3,0,0,99,0.23999999999999994,-0.16,left,0.11822420009411871,,,,,,,,,,,,,,,,,,,,,,,,,,,,,,,,,,,,,,,,,,,,,,,,,,,,,,,,,,,,WJ4H18,train_y,red_square,bottom_right,2025-07-25_17h19.17.168,HideSeek_v1,2022.2.5,60.29893804520395,
,8,3,8,7,0,4,12,,train_dim1_1,25,30,,,,2,0,2,0,,,,,,,,,0,0,0,0,0,24,24,24,3,0,3,0,,,,,,,,,,,,,,,,,,,,,,,,,,,,,,,,,,,,,,,,,,,,,,,,,,,,,,,,,,,,,,,,30,,,,,,,,657.2328494000249,657.2328494000249,657.2328494000249,657.2328494000249,657.2328494000249,left,0.2618342998903245,3,0,0,99,0.15999999999999992,-0.16,left,0.1793086000252515,,,,,,,,,,,,,,,,,,,,,,,,,,,,,,,,,,,,,,,,,,,,,,,,,,,,,,,,,,,,WJ4H18,train_y,red_square,bottom_right,2025-07-25_17h19.17.168,HideSeek_v1,2022.2.5,60.29893804520395,
,8,3,8,7,0,4,12,,train_dim1_1,25,30,,,,2,0,2,0,,,,,,,,,0,0,0,0,0,24,24,24,4,0,4,0,,,,,,,,,,,,,,,,,,,,,,,,,,,,,,,,,,,,,,,,,,,,,,,,,,,,,,,,,,,,,,,,30,,,,,,,,657.5025498999748,657.5025498999748,657.5025498999748,657.5025498999748,657.5025498999748,right,0.7727959000039846,3,0,0,99,0.23999999999999994,-0.16,right,0.690049999859184,,,,,,,,,,,,,,,,,,,,,,,,,,,,,,,,,,,,,,,,,,,,,,,,,,,,,,,,,,,,WJ4H18,train_y,red_square,bottom_right,2025-07-25_17h19.17.168,HideSeek_v1,2022.2.5,60.29893804520395,
,8,3,8,7,0,4,12,,train_dim1_1,25,30,,,,2,0,2,0,,,,,,,,,0,0,0,0,0,24,24,24,5,0,5,0,,,,,,,,,,,,,,,,,,,,,,,,,,,,,,,,,,,,,,,,,,,,,,,,,,,,,,,,,,,,,,,,30,,,,,,,,658.2831874999683,658.2831874999683,658.2831874999683,658.2831874999683,658.2831874999683,right,0.309798400150612,3,0,0,99,0.31999999999999995,-0.16,right,0.22231659991666675,,,,,,,,,,,,,,,,,,,,,,,,,,,,,,,,,,,,,,,,,,,,,,,,,,,,,,,,,,,,WJ4H18,train_y,red_square,bottom_right,2025-07-25_17h19.17.168,HideSeek_v1,2022.2.5,60.29893804520395,
,8,3,8,7,0,4,12,,train_dim1_1,25,30,,,,2,0,2,0,,,,,,,,,0,0,0,0,0,24,24,24,6,0,6,0,,,,,,,,,,,,,,,,,,,,,,,,,,,,,,,,,,,,,,,,,,,,,,,,,,,,,,,,,,,,,,,,30,,,,,,,,658.608579199994,658.608579199994,658.608579199994,658.608579199994,658.608579199994,right,0.3097828000318259,3,0,0,99,0.39999999999999997,-0.16,right,0.21897820010781288,,,,,,,,,,,,,,,,,,,,,,,,,,,,,,,,,,,,,,,,,,,,,,,,,,,,,,,,,,,,WJ4H18,train_y,red_square,bottom_right,2025-07-25_17h19.17.168,HideSeek_v1,2022.2.5,60.29893804520395,
,8,3,8,7,0,4,12,,train_dim1_1,25,30,,,,2,0,2,0,,,,,,,,,0,0,0,0,0,24,24,24,7,0,7,0,,,,,,,,,,,,,,,,,,,,,,,,,,,,,,,,,,,,,,,,,,,,,,,,,,,,,,,,,,,,,,,,30,,,,,,,,658.9168381998315,658.9168381998315,658.9168381998315,658.9168381998315,658.9168381998315,right,0.5767844999209046,3,0,0,99,0.48,-0.16,right,0.4887200000230223,,,,,,,,,,,,,,,,,,,,,,,,,,,,,,,,,,,,,,,,,,,,,,,,,,,,,,,,,,,,WJ4H18,train_y,red_square,bottom_right,2025-07-25_17h19.17.168,HideSeek_v1,2022.2.5,60.29893804520395,
,8,3,8,7,0,4,12,,train_dim1_1,25,30,,,,2,0,2,0,,,,,,,,,0,0,0,0,0,24,24,24,8,0,8,0,,,,,,,,,,,,,,,,,,,,,,,,,,,,,,,,,,,,,,,,,,,,,,,,,,,,,,,,,,,,,,,,30,,,,,,,,659.5016116998158,659.5016116998158,659.5016116998158,659.5016116998158,659.5016116998158,up,0.9108036998659372,3,0,0,99,0.48,-0.08,up,0.8291056999005377,,,,,,,,,,,,,,,,,,,,,,,,,,,,,,,,,,,,,,,,,,,,,,,,,,,,,,,,,,,,WJ4H18,train_y,red_square,bottom_right,2025-07-25_17h19.17.168,HideSeek_v1,2022.2.5,60.29893804520395,
,8,3,8,7,0,4,12,,train_dim1_1,25,30,,,,2,0,2,0,,,,,,,,,0,0,0,0,0,24,24,24,9,0,9,0,,,,,,,,,,,,,,,,,,,,,,,,,,,,,,,,,,,,,,,,,,,,,,,,,,,,,,,,,,,,,,,,30,,,,,,,,660.4190395998303,660.4190395998303,660.4190395998303,660.4190395998303,660.4190395998303,up,0.5432708999142051,3,0,0,99,0.48,0.0,up,0.46541160019114614,,,,,,,,,,,,,,,,,,,,,,,,,,,,,,,,,,,,,,,,,,,,,,,,,,,,,,,,,,,,WJ4H18,train_y,red_square,bottom_right,2025-07-25_17h19.17.168,HideSeek_v1,2022.2.5,60.29893804520395,
,8,3,8,7,0,4,12,,train_dim1_1,25,30,,,,2,0,2,0,,,,,,,,,0,0,0,0,0,24,24,24,10,0,10,0,,,,,,,,,,,,,,,,,,,,,,,,,,,,,,,,,,,,,,,,,,,,,,,,,,,,,,,,,,,,,,,,30,,,,,,,,660.9704334998969,660.9704334998969,660.9704334998969,660.9704334998969,660.9704334998969,up,0.4431648999452591,3,0,0,99,0.48,0.08,up,0.3565198997966945,,,,,,,,,,,,,,,,,,,,,,,,,,,,,,,,,,,,,,,,,,,,,,,,,,,,,,,,,,,,WJ4H18,train_y,red_square,bottom_right,2025-07-25_17h19.17.168,HideSeek_v1,2022.2.5,60.29893804520395,
,8,3,8,7,0,4,12,,train_dim1_1,25,30,,,,2,0,2,0,,,,,,,,,0,0,0,0,0,24,24,24,11,0,11,0,,,,,,,,,,,,,,,,,,,,,,,,,,,,,,,,,,,,,,,,,,,,,,,,,,,,,,,,,,,,,,,,30,,,,,,,,661.4186573999468,661.4186573999468,661.4186573999468,661.4186573999468,661.4186573999468,up,0.26083240006119013,3,0,0,99,0.48,0.16,up,0.18271129997447133,,,,,,,,,,,,,,,,,,,,,,,,,,,,,,,,,,,,,,,,,,,,,,,,,,,,,,,,,,,,WJ4H18,train_y,red_square,bottom_right,2025-07-25_17h19.17.168,HideSeek_v1,2022.2.5,60.29893804520395,
,8,3,8,7,0,4,12,,train_dim1_1,25,30,,,,2,0,2,0,,,,,,,,,0,0,0,0,0,24,24,24,12,0,12,0,,,,,,,,,,,,,,,,,,,,,,,,,,,,,,,,,,,,,,,,,,,,,,,,,,,,,,,,,,,,,,,,30,,,,,,,,661.6869295998476,661.6869295998476,661.6869295998476,661.6869295998476,661.6869295998476,return,0.8094493001699448,4,0,0,1,0.48,0.16,return,0.7308825000654906,54,-10,0.48,0.16,,,,,,,,,,,,,,,,,,,,,,,,,,,,,,,,,,,,,,,,,,,,,,,,,,,,,,,,WJ4H18,train_y,red_square,bottom_right,2025-07-25_17h19.17.168,HideSeek_v1,2022.2.5,60.29893804520395,
,9,4,9,7,0,3,13,,train_dim1_1,26,30,,,,2,0,2,0,,,,,,,,,0,0,0,0,0,25,25,25,0,0,0,0,,,,,,,,,,,,,,,,,,,,,,,,,stimuli/alien_stimuli/13.png,,,,,,,,,,,,,,,,,,,,,,,,,,,,,stimuli/alien_stimuli/12.png,12,8,27,,,,,,,30,,,,,,,,667.6093368998263,667.6093368998263,667.6093368998263,667.6093368998263,667.6093368998263,left,1.8076843000017107,4,0,0,99,0.48000000000000004,-0.08,left,1.7169892000965774,,,,,666.0548783999402,667.6093368998263,0.48,0.16,0.32,0.0,0.0,0.48,0.48,0.48,0.16,664.0713249000255,664.0713249000255,664.0713249000255,664.0713249000255,664.0713249000255,664.0713249000255,664.0713249000255,664.0713249000255,664.0690503198188,2.1040227999910712,return,1.9513130001723766,,,,,,,,,,,,,,,,,,,,,,,,,,,,,,,,,WJ4H18,train_y,red_square,bottom_right,2025-07-25_17h19.17.168,HideSeek_v1,2022.2.5,60.29893804520395,
,9,4,9,7,0,3,13,,train_dim1_1,26,30,,,,2,0,2,0,,,,,,,,,0,0,0,0,0,25,25,25,1,0,1,0,,,,,,,,,,,,,,,,,,,,,,,,,,,,,,,,,,,,,,,,,,,,,,,,,,,,,,,,,,,,,,,,30,,,,,,,,669.4361921998207,669.4361921998207,669.4361921998207,669.4361921998207,669.4361921998207,right,1.5935047999955714,4,0,0,99,0.56,-0.08,right,1.505212299991399,,,,,,,,,,,,,,,,,,,,,,,,,,,,,,,,,,,,,,,,,,,,,,,,,,,,,,,,,,,,WJ4H18,train_y,red_square,bottom_right,2025-07-25_17h19.17.168,HideSeek_v1,2022.2.5,60.29893804520395,
,9,4,9,7,0,3,13,,train_dim1_1,26,30,,,,2,0,2,0,,,,,,,,,0,0,0,0,0,25,25,25,2,0,2,0,,,,,,,,,,,,,,,,,,,,,,,,,,,,,,,,,,,,,,,,,,,,,,,,,,,,,,,,,,,,,,,,30,,,,,,,,671.0255913999863,671.0255913999863,671.0255913999863,671.0255913999863,671.0255913999863,up,1.1440464998595417,4,0,0,99,0.56,0.0,up,1.0613518999889493,,,,,,,,,,,,,,,,,,,,,,,,,,,,,,,,,,,,,,,,,,,,,,,,,,,,,,,,,,,,WJ4H18,train_y,red_square,bottom_right,2025-07-25_17h19.17.168,HideSeek_v1,2022.2.5,60.29893804520395,
,9,4,9,7,0,3,13,,train_dim1_1,26,30,,,,2,0,2,0,,,,,,,,,0,0,0,0,0,25,25,25,3,0,3,0,,,,,,,,,,,,,,,,,,,,,,,,,,,,,,,,,,,,,,,,,,,,,,,,,,,,,,,,,,,,,,,,30,,,,,,,,672.1771181998774,672.1771181998774,672.1771181998774,672.1771181998774,672.1771181998774,up,0.46025789994746447,4,0,0,99,0.56,0.08,up,0.37373530003242195,,,,,,,,,,,,,,,,,,,,,,,,,,,,,,,,,,,,,,,,,,,,,,,,,,,,,,,,,,,,WJ4H18,train_y,red_square,bottom_right,2025-07-25_17h19.17.168,HideSeek_v1,2022.2.5,60.29893804520395,
,9,4,9,7,0,3,13,,train_dim1_1,26,30,,,,2,0,2,0,,,,,,,,,0,0,0,0,0,25,25,25,4,0,4,0,,,,,,,,,,,,,,,,,,,,,,,,,,,,,,,,,,,,,,,,,,,,,,,,,,,,,,,,,,,,,,,,30,,,,,,,,672.6437774999067,672.6437774999067,672.6437774999067,672.6437774999067,672.6437774999067,up,0.3264496000483632,4,0,0,99,0.56,0.16,up,0.24789689993485808,,,,,,,,,,,,,,,,,,,,,,,,,,,,,,,,,,,,,,,,,,,,,,,,,,,,,,,,,,,,WJ4H18,train_y,red_square,bottom_right,2025-07-25_17h19.17.168,HideSeek_v1,2022.2.5,60.29893804520395,
,9,4,9,7,0,3,13,,train_dim1_1,26,30,,,,2,0,2,0,,,,,,,,,0,0,0,0,0,25,25,25,5,0,5,0,,,,,,,,,,,,,,,,,,,,,,,,,,,,,,,,,,,,,,,,,,,,,,,,,,,,,,,,,,,,,,,,30,,,,,,,,672.9769766998943,672.9769766998943,672.9769766998943,672.9769766998943,672.9769766998943,up,0.2934794998727739,4,0,0,99,0.56,0.24,up,0.20376279996708035,,,,,,,,,,,,,,,,,,,,,,,,,,,,,,,,,,,,,,,,,,,,,,,,,,,,,,,,,,,,WJ4H18,train_y,red_square,bottom_right,2025-07-25_17h19.17.168,HideSeek_v1,2022.2.5,60.29893804520395,
,9,4,9,7,0,3,13,,train_dim1_1,26,30,,,,2,0,2,0,,,,,,,,,0,0,0,0,0,25,25,25,6,0,6,0,,,,,,,,,,,,,,,,,,,,,,,,,,,,,,,,,,,,,,,,,,,,,,,,,,,,,,,,,,,,,,,,30,,,,,,,,673.278412599815,673.278412599815,673.278412599815,673.278412599815,673.278412599815,return,0.9601344000548124,4,1,0,0,0.56,0.24,return,0.8744232999160886,58,-10,0.56,0.24,,,,,,,,,,,,,,,,,,,,,,,,,,,,,,,,,,,,,,,,,,,,,,,,,,,,,,,,WJ4H18,train_y,red_square,bottom_right,2025-07-25_17h19.17.168,HideSeek_v1,2022.2.5,60.29893804520395,
,8,4,8,4,0,0,16,,train_dim1_1,27,30,,,,2,0,2,0,,,,,,,,,0,0,0,0,0,26,26,26,0,0,0,0,,,,,,,,,,,,,,,,,,,,,,,,,stimuli/alien_stimuli/16.png,,,,,,,,,,,,,,,,,,,,,,,,,,,,,stimuli/alien_stimuli/13.png,13,9,28,,,,,,,30,,,,,,,,680.2042983998545,680.2042983998545,680.2042983998545,680.2042983998545,680.2042983998545,return,1.2734117999207228,5,0,0,1,0.48,-0.08,return,1.1825578999705613,58,-10,0.48,-0.08,678.6348825998139,675.8105945999268,0.56,0.16,0.24,0.0,0.04,0.56,0.56,0.56,0.16,675.8105945999268,675.8105945999268,675.8105945999268,675.8105945999268,675.8105945999268,675.8105945999268,675.8105945999268,675.8105945999268,675.7953921798849,2.9405275001190603,return,2.803851699922234,,,,,,,,,,,,,,,,,,,,,,,,,,,,,,,,,WJ4H18,train_y,red_square,bottom_right,2025-07-25_17h19.17.168,HideSeek_v1,2022.2.5,60.29893804520395,
,9,1,9,6,0,5,11,,train_dim1_1,28,30,,,,2,0,2,0,,,,,,,,,0,0,0,0,0,27,27,27,0,0,0,0,,,,,,,,,,,,,,,,,,,,,,,,,stimuli/alien_stimuli/11.png,,,,,,,,,,,,,,,,,,,,,,,,,,,,,stimuli/alien_stimuli/16.png,16,8,29,,,,,,,30,,,,,,,,686.1095201999415,686.1095201999415,686.1095201999415,686.1095201999415,686.1095201999415,up,4.042148899985477,5,0,0,99,0.56,-0.24,up,3.964846800081432,,,,,684.5393991998862,683.0331269998569,0.48,-0.08,0.0,0.0,-0.08,0.48,0.48,0.48,-0.08,683.0331269998569,683.0331269998569,683.0331269998569,683.0331269998569,683.0331269998569,683.0331269998569,683.0331269998569,683.0331269998569,683.0182806397322,1.6061036998871714,return,1.4824200000148267,,,,,,,,,,,,,,,,,,,,,,,,,,,,,,,,,WJ4H18,train_y,red_square,bottom_right,2025-07-25_17h19.17.168,HideSeek_v1,2022.2.5,60.29893804520395,
,9,1,9,6,0,5,11,,train_dim1_1,28,30,,,,2,0,2,0,,,,,,,,,0,0,0,0,0,27,27,27,1,0,1,0,,,,,,,,,,,,,,,,,,,,,,,,,,,,,,,,,,,,,,,,,,,,,,,,,,,,,,,,,,,,,,,,30,,,,,,,,690.1623591999523,690.1623591999523,690.1623591999523,690.1623591999523,690.1623591999523,up,0.2900863999966532,5,0,0,99,0.56,-0.15999999999999998,up,0.2119746000971645,,,,,,,,,,,,,,,,,,,,,,,,,,,,,,,,,,,,,,,,,,,,,,,,,,,,,,,,,,,,WJ4H18,train_y,red_square,bottom_right,2025-07-25_17h19.17.168,HideSeek_v1,2022.2.5,60.29893804520395,
,9,1,9,6,0,5,11,,train_dim1_1,28,30,,,,2,0,2,0,,,,,,,,,0,0,0,0,0,27,27,27,2,0,2,0,,,,,,,,,,,,,,,,,,,,,,,,,,,,,,,,,,,,,,,,,,,,,,,,,,,,,,,,,,,,,,,,30,,,,,,,,690.4588172999211,690.4588172999211,690.4588172999211,690.4588172999211,690.4588172999211,up,0.2930878000333905,5,0,0,99,0.56,-0.07999999999999997,up,0.20503580011427402,,,,,,,,,,,,,,,,,,,,,,,,,,,,,,,,,,,,,,,,,,,,,,,,,,,,,,,,,,,,WJ4H18,train_y,red_square,bottom_right,2025-07-25_17h19.17.168,HideSeek_v1,2022.2.5,60.29893804520395,
,9,1,9,6,0,5,11,,train_dim1_1,28,30,,,,2,0,2,0,,,,,,,,,0,0,0,0,0,27,27,27,3,0,3,0,,,,,,,,,,,,,,,,,,,,,,,,,,,,,,,,,,,,,,,,,,,,,,,,,,,,,,,,,,,,,,,,30,,,,,,,,690.7604851999786,690.7604851999786,690.7604851999786,690.7604851999786,690.7604851999786,up,0.2782002999447286,5,0,0,99,0.56,2.7755575615628914e-17,up,0.1847665999084711,,,,,,,,,,,,,,,,,,,,,,,,,,,,,,,,,,,,,,,,,,,,,,,,,,,,,,,,,,,,WJ4H18,train_y,red_square,bottom_right,2025-07-25_17h19.17.168,HideSeek_v1,2022.2.5,60.29893804520395,
,9,1,9,6,0,5,11,,train_dim1_1,28,30,,,,2,0,2,0,,,,,,,,,0,0,0,0,0,27,27,27,4,0,4,0,,,,,,,,,,,,,,,,,,,,,,,,,,,,,,,,,,,,,,,,,,,,,,,,,,,,,,,,,,,,,,,,30,,,,,,,,691.0462215999141,691.0462215999141,691.0462215999141,691.0462215999141,691.0462215999141,up,0.351182600017637,5,0,0,99,0.56,0.08000000000000003,up,0.26129799988120794,,,,,,,,,,,,,,,,,,,,,,,,,,,,,,,,,,,,,,,,,,,,,,,,,,,,,,,,,,,,WJ4H18,train_y,red_square,bottom_right,2025-07-25_17h19.17.168,HideSeek_v1,2022.2.5,60.29893804520395,
,9,1,9,6,0,5,11,,train_dim1_1,28,30,,,,2,0,2,0,,,,,,,,,0,0,0,0,0,27,27,27,5,0,5,0,,,,,,,,,,,,,,,,,,,,,,,,,,,,,,,,,,,,,,,,,,,,,,,,,,,,,,,,,,,,,,,,30,,,,,,,,691.4133321000263,691.4133321000263,691.4133321000263,691.4133321000263,691.4133321000263,return,0.5546770999208093,6,0,0,1,0.56,0.08000000000000003,return,0.46577759995125234,63,-10,0.56,0.08000000000000003,,,,,,,,,,,,,,,,,,,,,,,,,,,,,,,,,,,,,,,,,,,,,,,,,,,,,,,,WJ4H18,train_y,red_square,bottom_right,2025-07-25_17h19.17.168,HideSeek_v1,2022.2.5,60.29893804520395,
,7,2,7,6,0,4,12,,train_dim1_1,29,30,,,,2,0,2,0,,,,,,,,,0,0,0,0,0,28,28,28,0,0,0,0,,,,,,,,,,,,,,,,,,,,,,,,,stimuli/alien_stimuli/12.png,,,,,,,,,,,,,,,,,,,,,,,,,,,,,stimuli/alien_stimuli/11.png,11,9,30,,,,,,,30,,,,,,,,696.5682679000311,696.5682679000311,696.5682679000311,696.5682679000311,696.5682679000311,up,3.8584460001438856,6,0,0,99,0.4,-0.15999999999999998,up,3.7809035000391304,,,,,695.0118221000303,,0.56,0.08,0.4,0.0,-0.12,0.56,0.56,0.56,0.08,693.5397177999839,693.5397177999839,693.5397177999839,693.5397177999839,693.5397177999839,693.5397177999839,693.5397177999839,693.5397177999839,693.5269651797366,1.5813161998521537,return,1.4343824998941272,,,,,,,,,,,,,,,,,,,,,,,,,,,,,,,,,WJ4H18,train_y,red_square,bottom_right,2025-07-25_17h19.17.168,HideSeek_v1,2022.2.5,60.29893804520395,
,7,2,7,6,0,4,12,,train_dim1_1,29,30,,,,2,0,2,0,,,,,,,,,0,0,0,0,0,28,28,28,1,0,1,0,,,,,,,,,,,,,,,,,,,,,,,,,,,,,,,,,,,,,,,,,,,,,,,,,,,,,,,,,,,,,,,,30,,,,,,,,700.4458512000274,700.4458512000274,700.4458512000274,700.4458512000274,700.4458512000274,up,0.27624400006607175,6,0,0,99,0.4,-0.07999999999999997,up,0.1882493000011891,,,,,,,,,,,,,,,,,,,,,,,,,,,,,,,,,,,,,,,,,,,,,,,,,,,,,,,,,,,,WJ4H18,train_y,red_square,bottom_right,2025-07-25_17h19.17.168,HideSeek_v1,2022.2.5,60.29893804520395,
,7,2,7,6,0,4,12,,train_dim1_1,29,30,,,,2,0,2,0,,,,,,,,,0,0,0,0,0,28,28,28,2,0,2,0,,,,,,,,,,,,,,,,,,,,,,,,,,,,,,,,,,,,,,,,,,,,,,,,,,,,,,,,,,,,,,,,30,,,,,,,,700.7190246998798,700.7190246998798,700.7190246998798,700.7190246998798,700.7190246998798,up,0.24326999997720122,6,0,0,99,0.4,2.7755575615628914e-17,up,0.15508610010147095,,,,,,,,,,,,,,,,,,,,,,,,,,,,,,,,,,,,,,,,,,,,,,,,,,,,,,,,,,,,WJ4H18,train_y,red_square,bottom_right,2025-07-25_17h19.17.168,HideSeek_v1,2022.2.5,60.29893804520395,
,7,2,7,6,0,4,12,,train_dim1_1,29,30,,,,2,0,2,0,,,,,,,,,0,0,0,0,0,28,28,28,3,0,3,0,,,,,,,,,,,,,,,,,,,,,,,,,,,,,,,,,,,,,,,,,,,,,,,,,,,,,,,,,,,,,,,,30,,,,,,,,700.96856259997,700.96856259997,700.96856259997,700.96856259997,700.96856259997,up,0.24737929995171726,6,0,0,99,0.4,0.08000000000000003,up,0.1567122999113053,,,,,,,,,,,,,,,,,,,,,,,,,,,,,,,,,,,,,,,,,,,,,,,,,,,,,,,,,,,,WJ4H18,train_y,red_square,bottom_right,2025-07-25_17h19.17.168,HideSeek_v1,2022.2.5,60.29893804520395,
,7,2,7,6,0,4,12,,train_dim1_1,29,30,,,,2,0,2,0,,,,,,,,,0,0,0,0,0,28,28,28,4,0,4,0,,,,,,,,,,,,,,,,,,,,,,,,,,,,,,,,,,,,,,,,,,,,,,,,,,,,,,,,,,,,,,,,30,,,,,,,,701.2225794999395,701.2225794999395,701.2225794999395,701.2225794999395,701.2225794999395,return,0.6555059000384063,7,0,0,1,0.4,0.08000000000000003,return,0.5758477000053972,67,-10,0.4,0.08000000000000003,,,,,,,,,,,,,,,,,,,,,,,,,,,,,,,,,,,,,,,,,,,,,,,,,,,,,,,,WJ4H18,train_y,red_square,bottom_right,2025-07-25_17h19.17.168,HideSeek_v1,2022.2.5,60.29893804520395,
,5,1,5,2,0,1,15,,train_dim1_1,30,30,,,,2,0,2,0,,,,,,,,,0,0,0,0,0,29,29,29,0,0,0,0,,,,,,,,,,,,,,,,,,,,,,,,,stimuli/alien_stimuli/15.png,,,,,,,,,,,,,,,,,,,,,,,,,,,,,stimuli/alien_stimuli/12.png,12,7,31,,,,,,,30,,,,,,,,706.4156851998996,706.4156851998996,706.4156851998996,706.4156851998996,706.4156851998996,return,0.9566589000169188,7,1,0,0,0.24,-0.32,return,0.8698309999890625,67,-10,0.24,-0.32,704.8474067000207,703.434406499844,0.4,0.08,0.32,0.0,-0.07999999999999999,0.4,0.4,0.4,0.08,703.434406499844,703.434406499844,703.434406499844,703.434406499844,703.434406499844,703.434406499844,703.434406499844,703.434406499844,703.4347384798107,1.5091026998125017,return,1.3816927999723703,,,,,,,,,,,,,,,,,,,,,,,,,,,,,,,,,WJ4H18,train_y,red_square,bottom_right,2025-07-25_17h19.17.168,HideSeek_v1,2022.2.5,60.29893804520395,
,,,,,,,,,,,30,,,,2,0,2,0,,,,,,,,,,,,,,,,,,,,,,,,,,,,,,,,,,,,,,,,,,,,,,,,,,,,,,,,,,,,,,,,,,,,,,,,,,stimuli/alien_stimuli/15.png,15,5,32,21,0.7,0.2916666666666667,1,1,1,30,0,conditions/schedules/train_y_first/red_square_00/bottom_right/inputTrain_2.1.xlsx,99,1,2,1,0,,,,,,,,,,,0,,,,,,,,,710.7422193998937,712.3025234998204,0.24,-0.24,0.08,0.0,-0.28,0.24,0.24,0.24,-0.24,708.9372466998175,708.9372466998175,708.9372466998175,708.9372466998175,708.9372466998175,708.9372466998175,708.9372466998175,708.9372466998175,708.9230940397363,1.904355499893427,return,1.7729664999060333,0,0.9,0,1,7,,,,,,,,,,,,,,,,,,,,,,,,,,,,WJ4H18,train_y,red_square,bottom_right,2025-07-25_17h19.17.168,HideSeek_v1,2022.2.5,60.29893804520395,
,,,,,,,,,,,,,,,3,0,3,0,0,0,0,0,,,,,,,,,,,,,,,,,,,,,,,,,,,,,,,conditions/schedules/train_y_first/red_square_00/bottom_right/instructions/Slide17.png,conditions/schedules/train_y_first/red_square_00/bottom_right/instructions/Audio17.wav,712.3025234998204,712.292713659862,17,"[7.5528216999955475, 18.250567800132558, 17.124074100051075, 19.666161500150338, 4.654204500140622, 4.9209064999595284, 6.451102499850094, 12.54540569987148, 7.253063700161874, 8.195420500123873, 11.256296399980783, 14.425631399964914, 17.61129629984498, 17.15430079982616, 45.55406740005128, 21.939835199853405, 40.60640179994516]","[0.07503960002213717, 0.03614090010523796, 0.03324890020303428, 0.03234340017661452, 0.06332299998030066, 0.03413399984128773, 0.07768709980882704, 0.014345800038427114, 0.0901060001924634, 0.05824869987554848, 0.014158300124108791, 14.425638300133869, 0.07147630001418293, 17.154308500001207, 0.014216499868780375, 21.939843100029975, 40.60641029989347]",0,,,,,,,,,,,,,,,,,,,,,,,,,,,,,,,,,,,,,,,,,,,,,,,,,,,,,,,,,,,,,,,,,,,,,,,,,,,,,,,,,,,,,,,,,,,,,,,,,,,,,,,,,,,,,,,,,,,,,,,,,,,,WJ4H18,train_y,red_square,bottom_right,2025-07-25_17h19.17.168,HideSeek_v1,2022.2.5,60.29893804520395,
,,,,,,,,,,,,,,,3,0,3,0,1,0,1,0,,,,,,,,,,,,,,,,,,,,,,,,,,,,,,,conditions/schedules/train_y_first/red_square_00/bottom_right/instructions/Slide18.png,conditions/schedules/train_y_first/red_square_00/bottom_right/instructions/Audio18.wav,752.9773815998342,752.9778123999713,18,"[7.5528216999955475, 18.250567800132558, 17.124074100051075, 19.666161500150338, 4.654204500140622, 4.9209064999595284, 6.451102499850094, 12.54540569987148, 7.253063700161874, 8.195420500123873, 11.256296399980783, 14.425631399964914, 17.61129629984498, 17.15430079982616, 45.55406740005128, 21.939835199853405, 40.60640179994516, 7.725496900035068]","[0.07503960002213717, 0.03614090010523796, 0.03324890020303428, 0.03234340017661452, 0.06332299998030066, 0.03413399984128773, 0.07768709980882704, 0.014345800038427114, 0.0901060001924634, 0.05824869987554848, 0.014158300124108791, 14.425638300133869, 0.07147630001418293, 17.154308500001207, 0.014216499868780375, 21.939843100029975, 0.07395690004341304, 7.725504199974239]",0,,,,,,,,,,,,,,,,,,,,,,,,,,,,,,,,,,,,,,,,,,,,,,,,,,,,,,,,,,,,,,,,,,,,,,,,,,,,,,,,,,,,,,,,,,,,,,,,,,,,,,,,,,,,,,,,,,,,,,,,,,,,WJ4H18,train_y,red_square,bottom_right,2025-07-25_17h19.17.168,HideSeek_v1,2022.2.5,60.29893804520395,
,,,,,,,,,,,,,,,3,0,3,0,2,0,2,0,,,,,,,,,,,,,,,,,,,,,,,,,,,,,,,conditions/schedules/train_y_first/red_square_00/bottom_right/instructions/Slide19.png,conditions/schedules/train_y_first/red_square_00/bottom_right/instructions/Audio19.wav,760.7649172998499,760.7552768597844,19,"[7.5528216999955475, 18.250567800132558, 17.124074100051075, 19.666161500150338, 4.654204500140622, 4.9209064999595284, 6.451102499850094, 12.54540569987148, 7.253063700161874, 8.195420500123873, 11.256296399980783, 14.425631399964914, 17.61129629984498, 17.15430079982616, 45.55406740005128, 21.939835199853405, 40.60640179994516, 7.725496900035068, 10.568806400056928]","[0.07503960002213717, 0.03614090010523796, 0.03324890020303428, 0.03234340017661452, 0.06332299998030066, 0.03413399984128773, 0.07768709980882704, 0.014345800038427114, 0.0901060001924634, 0.05824869987554848, 0.014158300124108791, 14.425638300133869, 0.07147630001418293, 17.154308500001207, 0.014216499868780375, 21.939843100029975, 0.07395690004341304, 0.0508992001414299, 10.568813299993053]",0,,,,,,,,,,,,,,,,,,,,,,,,,,,,,,,,,,,,,,,,,,,,,,,,,,,,,,,,,,,,,,,,,,,,,,,,,,,,,,,,,,,,,,,,,,,,,,,,,,,,,,,,,,,,,,,,,,,,,,,,,,,,WJ4H18,train_y,red_square,bottom_right,2025-07-25_17h19.17.168,HideSeek_v1,2022.2.5,60.29893804520395,
,,,,,,,,,,,,,,,3,0,3,0,3,0,3,0,,,,,,,,,,,,,,,,,,,,,,,,,,,,,,,conditions/schedules/train_y_first/red_square_00/bottom_right/instructions/Slide20.png,conditions/schedules/train_y_first/red_square_00/bottom_right/instructions/Audio20.wav,771.4114286999684,771.4024050998269,20,"[7.5528216999955475, 18.250567800132558, 17.124074100051075, 19.666161500150338, 4.654204500140622, 4.9209064999595284, 6.451102499850094, 12.54540569987148, 7.253063700161874, 8.195420500123873, 11.256296399980783, 14.425631399964914, 17.61129629984498, 17.15430079982616, 45.55406740005128, 21.939835199853405, 40.60640179994516, 7.725496900035068, 10.568806400056928, 13.942099299980327]","[0.07503960002213717, 0.03614090010523796, 0.03324890020303428, 0.03234340017661452, 0.06332299998030066, 0.03413399984128773, 0.07768709980882704, 0.014345800038427114, 0.0901060001924634, 0.05824869987554848, 0.014158300124108791, 14.425638300133869, 0.07147630001418293, 17.154308500001207, 0.014216499868780375, 21.939843100029975, 0.07395690004341304, 0.0508992001414299, 0.00021309987641870975, 13.942107199924067]",0,,,,,,,,,,,,,,,,,,,,,,,,,,,,,,,,,,,,,,,,,,,,,,,,,,,,,,,,,,,,,,,,,,,,,,,,,,,,,,,,,,,,,,,,,,,,,,,,,,,,,,,,,,,,,,,,,,,,,,,,,,,,WJ4H18,train_y,red_square,bottom_right,2025-07-25_17h19.17.168,HideSeek_v1,2022.2.5,60.29893804520395,
1,8,2,3,2,-5,0,66,2,instr_dim1_2,,,,,,3,0,3,0,,,,,0,0,0,0,,,,,,,,,,,,,,,,,,,,,,,,,,,,,,,,,,,,,stimuli/alien_stimuli/66.png,conditions/schedules/train_y_first/red_square_00/bottom_right/inputInstr_2.xlsx,stimuli/alien_stimuli/66.png,785.4577150999103,785.4577150999103,785.4577150999103,785.4577150999103,785.4557651798473,return,6.455293199978769,"[-0.16, -0.08, 0, 0.08, 0.16, 0.24, 0.32, 0.4, 0.48, 0.56]","[-0.4, -0.32, -0.24, -0.16, -0.08, 0, 0.08, 0.16, 0.24, 0.32]",2,2,3,8,0.0,0.4,792.0821709998418,792.0821709998418,792.0821709998418,792.0821709998418,792.0821709998418,792.0821709998418,792.0821709998418,792.0586988198105,6.907491100020707,return,6.741181600140408,stimuli/alien_stimuli/66.png,66,8,1,,,,,,,,,,,,,,,,,,,,,,,,,,,,,,,,,,,,,,,,,,,,,,,,,,,,,,,,,,,,,,,,,,,,,,,,,,,,,,,,,,,,,,,,,WJ4H18,train_y,red_square,bottom_right,2025-07-25_17h19.17.168,HideSeek_v1,2022.2.5,60.29893804520395,
,,,,,,,,,,,30,,,,3,0,3,0,,,,,,,,,,,,,,,,,,,,,,,,,,,,,,,,,,,,,,,,,,,,,,,,,,,,,,,,,,,,,,,,,,,,,,,,,,,,,,21,0.7,0.2916666666666667,1,99,2,30,0,conditions/schedules/train_y_first/red_square_00/bottom_right/inputTrain_2.1.xlsx,99,1,2,1,0,,,,,,,,,,,,,,,,,,,,,,,,,,,,,,,,,,,,,,,,,,,,,,,,,,,,,,,,,,,,,,,,,,,,,,,,,,,WJ4H18,train_y,red_square,bottom_right,2025-07-25_17h19.17.168,HideSeek_v1,2022.2.5,60.29893804520395,
,,,,,,,,,,,,,,,4,0,4,0,0,0,0,0,,,,,,,,,,,,,,,,,,,,,,,,,,,,,,,conditions/schedules/train_y_first/red_square_00/bottom_right/instructions/Slide21.png,conditions/schedules/train_y_first/red_square_00/bottom_right/instructions/Audio21.wav,798.9800460999832,798.9816858597798,21,"[7.5528216999955475, 18.250567800132558, 17.124074100051075, 19.666161500150338, 4.654204500140622, 4.9209064999595284, 6.451102499850094, 12.54540569987148, 7.253063700161874, 8.195420500123873, 11.256296399980783, 14.425631399964914, 17.61129629984498, 17.15430079982616, 45.55406740005128, 21.939835199853405, 40.60640179994516, 7.725496900035068, 10.568806400056928, 13.942099299980327, 13.76099650003016]","[0.07503960002213717, 0.03614090010523796, 0.03324890020303428, 0.03234340017661452, 0.06332299998030066, 0.03413399984128773, 0.07768709980882704, 0.014345800038427114, 0.0901060001924634, 0.05824869987554848, 0.014158300124108791, 14.425638300133869, 0.07147630001418293, 17.154308500001207, 0.014216499868780375, 21.939843100029975, 0.07395690004341304, 0.0508992001414299, 0.00021309987641870975, 13.942107199924067, 13.761004599975422]",0,,,,,,,,,,,,,,,,,,,,,,,,,,,,,,,,,,,,,,,,,,,,,,,,,,,,,,,,,,,,,,,,,,,,,,,,,,,,,,,,,,,,,,,,,,,,,,,,,,,,,,,,,,,,,,,,,,,,,,,,,,,,WJ4H18,train_y,red_square,bottom_right,2025-07-25_17h19.17.168,HideSeek_v1,2022.2.5,60.29893804520395,
2,9,0,9,0,0,0,16,2,instr_dim1_2,,,,,,4,0,4,0,,,,,0,0,0,0,,,,,,,,,,,,,,,,,,,,,,,,,,,,,,,,,,,,,stimuli/alien_stimuli/16.png,conditions/schedules/train_y_first/red_square_00/bottom_right/inputInstr_2.xlsx,stimuli/alien_stimuli/16.png,812.8350285999477,812.8350285999477,812.8350285999477,812.8350285999477,812.8265082397963,return,5.471226199995726,"[-0.16, -0.08, 0, 0.08, 0.16, 0.24, 0.32, 0.4, 0.48, 0.56]","[-0.4, -0.32, -0.24, -0.16, -0.08, 0, 0.08, 0.16, 0.24, 0.32]",0,0,9,9,0.0,0.0,818.4763128999621,818.4763128999621,818.4763128999621,818.4763128999621,818.4763128999621,818.4763128999621,818.4763128999621,818.4640564598841,6.857184999855235,return,6.685008100001141,stimuli/alien_stimuli/16.png,16,9,2,,,,,,,,,,,,,,,,,,,,,,,,,,,,,,,,,,,,,,,,,,,,,,,,,,,,,,,,,,,,,,,,,,,,,,,,,,,,,,,,,,,,,,,,,WJ4H18,train_y,red_square,bottom_right,2025-07-25_17h19.17.168,HideSeek_v1,2022.2.5,60.29893804520395,
,,,,,,,,,,,30,,,,4,0,4,0,,,,,,,,,,,,,,,,,,,,,,,,,,,,,,,,,,,,,,,,,,,,,,,,,,,,,,,,,,,,,,,,,,,,,,,,,,,,,,21,0.7,0.2916666666666667,1,99,2,30,0,conditions/schedules/train_y_first/red_square_00/bottom_right/inputTrain_2.1.xlsx,99,1,2,1,0,,,,,,,,,,,,,,,,,,,,,,,,,,,,,,,,,,,,,,,,,,,,,,,,,,,,,,,,,,,,,,,,,,,,,,,,,,,WJ4H18,train_y,red_square,bottom_right,2025-07-25_17h19.17.168,HideSeek_v1,2022.2.5,60.29893804520395,
,,,,,,,,,,,,,,,5,0,5,0,0,0,0,0,,,,,,,,,,,,,,,,,,,,,,,,,,,,,,,conditions/schedules/train_y_first/red_square_00/bottom_right/instructions/Slide22.png,conditions/schedules/train_y_first/red_square_00/bottom_right/instructions/Audio22.wav,825.3307393998839,825.3205065598478,22,"[7.5528216999955475, 18.250567800132558, 17.124074100051075, 19.666161500150338, 4.654204500140622, 4.9209064999595284, 6.451102499850094, 12.54540569987148, 7.253063700161874, 8.195420500123873, 11.256296399980783, 14.425631399964914, 17.61129629984498, 17.15430079982616, 45.55406740005128, 21.939835199853405, 40.60640179994516, 7.725496900035068, 10.568806400056928, 13.942099299980327, 13.76099650003016, 30.314660500036553]","[0.07503960002213717, 0.03614090010523796, 0.03324890020303428, 0.03234340017661452, 0.06332299998030066, 0.03413399984128773, 0.07768709980882704, 0.014345800038427114, 0.0901060001924634, 0.05824869987554848, 0.014158300124108791, 14.425638300133869, 0.07147630001418293, 17.154308500001207, 0.014216499868780375, 21.939843100029975, 0.07395690004341304, 0.0508992001414299, 0.00021309987641870975, 13.942107199924067, 13.761004599975422, 30.314669099869207]",0,,,,,,,,,,,,,,,,,,,,,,,,,,,,,,,,,,,,,,,,,,,,,,,,,,,,,,,,,,,,,,,,,,,,,,,,,,,,,,,,,,,,,,,,,,,,,,,,,,,,,,,,,,,,,,,,,,,,,,,,,,,,WJ4H18,train_y,red_square,bottom_right,2025-07-25_17h19.17.168,HideSeek_v1,2022.2.5,60.29893804520395,
,7,1,4,1,-3,0,46,,train_dim1_2,1,30,,,,5,0,5,0,,,,,,,,,0,0,0,0,0,0,0,0,0,0,0,0,,,,,,,,,,,,,,,,,,,,,,,,,stimuli/alien_stimuli/46.png,,,,,,,,,,,,,,,,,,,,,,,,,,,,,,,,,,,,,,,30,,,,,,,,855.7482139999047,855.7482139999047,855.7482139999047,855.7482139999047,855.7482139999047,left,3.6279375997837633,0,1,0,99,0.32,-0.32,left,3.5328434000257403,,,,,,,,,,,,,,,,,,,,,,,,,,,,,,,,,,,,,,,,,,,,,,,,,,,,,,,,,,,,WJ4H18,train_y,red_square,bottom_right,2025-07-25_17h19.17.168,HideSeek_v1,2022.2.5,60.29893804520395,
