trialInstr,x_fixStart,y_fixStart,x_corrSteps,y_corrSteps,x_nrSteps,y_nrSteps,alienID,trialLength,version,trialTrain,praclen,testlen,trial_label,break_on_off,beforeExpLoop.thisRepN,beforeExpLoop.thisTrialN,beforeExpLoop.thisN,beforeExpLoop.thisIndex,mini_instr_trials.thisRepN,mini_instr_trials.thisTrialN,mini_instr_trials.thisN,mini_instr_trials.thisIndex,instrLoop.thisRepN,instrLoop.thisTrialN,instrLoop.thisN,instrLoop.thisIndex,repeat_prac.thisRepN,repeat_prac.thisTrialN,repeat_prac.thisN,repeat_prac.thisIndex,trainLoop.thisRepN,trainLoop.thisTrialN,trainLoop.thisN,trainLoop.thisIndex,moveLoop_train.thisRepN,moveLoop_train.thisTrialN,moveLoop_train.thisN,moveLoop_train.thisIndex,experiment.thisRepN,experiment.thisTrialN,experiment.thisN,experiment.thisIndex,moveLoop_test.thisRepN,moveLoop_test.thisTrialN,moveLoop_test.thisN,moveLoop_test.thisIndex,mini_instr2_trials.thisRepN,mini_instr2_trials.thisTrialN,mini_instr2_trials.thisN,mini_instr2_trials.thisIndex,start_all_time,url,slideStim,audioStim,slides.started,sounds.started,nextButton.numClicks,nextButton.timesOn,nextButton.timesOff,prev_but.numClicks,prev_but.timesOn,prev_but.timesOff,alienStim,instrFile,alienStim_instr,gridImage_instr.started,startPos_3.started,key_instr.started,alienImage_3.started,sounds_1.started,key_instr.keys,key_instr.rt,all_x,all_y,FBy_corrSteps,FBy_fixStart,FBx_corrSteps,FBx_fixStart,FBy_pathSize_check,FBx_pathSize_check,gridImage_9.started,alienImageFB_3.started,startPosFB_3.started,keyFB_3.started,pathLine_ydir_2.started,pathLine_xdir_2.started,alienFace_3.started,sounds_2.started,RTFB_instr,keyFB_3.keys,keyFB_3.rt,draw_alienStim,draw_alienID,test_x,nrepcount,perfthres,percthres,earlierperf,earlystop,nextPrac,fileidx,praclen,saveACC_train,pracFile,nextPrac_train,addNrep,fileidx_endr,repExp,showearly,gridImage_4.started,startPos.started,movePos.started,key_resp.started,alienImage.started,buttonPress_train,RTchoice_train,cumAcctrain,aCorr,saveACC_choice,corrAns,x_movePos_end,y_movePos_end,key_resp.keys,key_resp.rt,wLy_dir,wLx_dir,x_movePos,y_movePos,text_2.started,text_2.stopped,aft_x_corrPos,aft_y_corrPos,y_pathSize_check,x_pathSize_check,y_pathdirY,x_pathdirY,x_pathdirX,x_corrPos,y_corrPos,gridImage_6.started,alienImageFB_2.started,startPosFB_2.started,movePosFB_2.started,keyFB_2.started,pathLine_xdir.started,pathLine_ydir.started,alienFace.started,sounds_4.started,RT_FBtrain,keyFB_2.keys,keyFB_2.rt,saveACC_pre,ACC,within_saveACC_train,earlystop_wloop,cumAcctrain_check,gridImage_3.started,alienImage_test.started,startPos_test.started,movePos_test.started,key_resp_test.started,wLy_dir_test,wLx_dir_test,buttonPress_test,RTchoice_test,cumAcctest,corrAns_test,key_resp_test.keys,key_resp_test.rt,text_3.started,text_3.stopped,total_time,end_all_time,key_resp_3.keys,slides_2.started,sounds_3.started,nextButton_2.numClicks,nextButton_2.timesOn,nextButton_2.timesOff,prev_but_2.numClicks,prev_but_2.timesOn,prev_but_2.timesOff,bye.started,participant,train_first,00_coordinate,starting corner,date,expName,psychopyVersion,frameRate,
,,,,,,,,,,,,,,,0,0,0,0,0,0,0,0,,,,,,,,,,,,,,,,,,,,,,,,,,,,,start_all_time,testround,conditions/schedules/train_x_first/blue_star_00/bottom_left/instructions/Slide1.png,conditions/schedules/train_x_first/blue_star_00/bottom_left/instructions/Audio1.wav,704.6534150000662,704.5930008382652,1,[4.5559330999385566],[4.555942600010894],0,,,,,,,,,,,,,,,,,,,,,,,,,,,,,,,,,,,,,,,,,,,,,,,,,,,,,,,,,,,,,,,,,,,,,,,,,,,,,,,,,,,,,,,,,,,,,,,,,,,,,,,,,,,,,,,,,,,,,,,,,,,,WJGE99,train_x,blue_star,bottom_left,2025-03-27_15h40.31.103,HideSeek_v1,2022.2.5,59.958257064663,
,,,,,,,,,,,,,,,0,0,0,0,1,0,1,0,,,,,,,,,,,,,,,,,,,,,,,,,,,,,,,conditions/schedules/train_x_first/blue_star_00/bottom_left/instructions/Slide2.png,conditions/schedules/train_x_first/blue_star_00/bottom_left/instructions/Audio2.wav,709.2261613000883,709.2264245000551,2,"[4.5559330999385566, 18.34616159996949]","[4.555942600010894, 18.346169400028884]",0,,,,,,,,,,,,,,,,,,,,,,,,,,,,,,,,,,,,,,,,,,,,,,,,,,,,,,,,,,,,,,,,,,,,,,,,,,,,,,,,,,,,,,,,,,,,,,,,,,,,,,,,,,,,,,,,,,,,,,,,,,,,WJGE99,train_x,blue_star,bottom_left,2025-03-27_15h40.31.103,HideSeek_v1,2022.2.5,59.958257064663,
,,,,,,,,,,,,,,,0,0,0,0,2,0,2,0,,,,,,,,,,,,,,,,,,,,,,,,,,,,,,,conditions/schedules/train_x_first/blue_star_00/bottom_left/instructions/Slide3.png,conditions/schedules/train_x_first/blue_star_00/bottom_left/instructions/Audio3.wav,727.6402702000923,727.6414054000634,3,"[4.5559330999385566, 18.34616159996949, 16.696364299976267]","[4.555942600010894, 0.014382399967871606, 16.696371800033376]",0,,,,,,,,,,,,,,,,,,,,,,,,,,,,,,,,,,,,,,,,,,,,,,,,,,,,,,,,,,,,,,,,,,,,,,,,,,,,,,,,,,,,,,,,,,,,,,,,,,,,,,,,,,,,,,,,,,,,,,,,,,,,WJGE99,train_x,blue_star,bottom_left,2025-03-27_15h40.31.103,HideSeek_v1,2022.2.5,59.958257064663,
,,,,,,,,,,,,,,,0,0,0,0,3,0,3,0,,,,,,,,,,,,,,,,,,,,,,,,,,,,,,,conditions/schedules/train_x_first/blue_star_00/bottom_left/instructions/Slide4.png,conditions/schedules/train_x_first/blue_star_00/bottom_left/instructions/Audio4.wav,744.4056554000126,744.4054919999908,4,"[4.5559330999385566, 18.34616159996949, 16.696364299976267, 19.380004800041206]","[4.555942600010894, 0.014382399967871606, 0.06399600009899586, 19.38001190009527]",0,,,,,,,,,,,,,,,,,,,,,,,,,,,,,,,,,,,,,,,,,,,,,,,,,,,,,,,,,,,,,,,,,,,,,,,,,,,,,,,,,,,,,,,,,,,,,,,,,,,,,,,,,,,,,,,,,,,,,,,,,,,,WJGE99,train_x,blue_star,bottom_left,2025-03-27_15h40.31.103,HideSeek_v1,2022.2.5,59.958257064663,
,,,,,,,,,,,,,,,0,0,0,0,4,0,4,0,,,,,,,,,,,,,,,,,,,,,,,,,,,,,,,conditions/schedules/train_x_first/blue_star_00/bottom_left/instructions/Slide5.png,conditions/schedules/train_x_first/blue_star_00/bottom_left/instructions/Audio5.wav,763.8414222000865,763.838392379973,5,"[4.5559330999385566, 18.34616159996949, 16.696364299976267, 19.380004800041206, 4.23098889994435]","[4.555942600010894, 0.014382399967871606, 0.06399600009899586, 0.04714429995510727, 4.230996600002982]",0,,,,,,,,,,,,,,,,,,,,,,,,,,,,,,,,,,,,,,,,,,,,,,,,,,,,,,,,,,,,,,,,,,,,,,,,,,,,,,,,,,,,,,,,,,,,,,,,,,,,,,,,,,,,,,,,,,,,,,,,,,,,WJGE99,train_x,blue_star,bottom_left,2025-03-27_15h40.31.103,HideSeek_v1,2022.2.5,59.958257064663,
,,,,,,,,,,,,,,,0,0,0,0,5,0,5,0,,,,,,,,,,,,,,,,,,,,,,,,,,,,,,,conditions/schedules/train_x_first/blue_star_00/bottom_left/instructions/Slide6.png,conditions/schedules/train_x_first/blue_star_00/bottom_left/instructions/Audio6.wav,768.1226994000608,768.1250552799785,6,"[4.5559330999385566, 18.34616159996949, 16.696364299976267, 19.380004800041206, 4.23098889994435, 4.469745200010948]","[4.555942600010894, 0.014382399967871606, 0.06399600009899586, 0.04714429995510727, 0.03323229996021837, 4.469752399949357]",0,,,,,,,,,,,,,,,,,,,,,,,,,,,,,,,,,,,,,,,,,,,,,,,,,,,,,,,,,,,,,,,,,,,,,,,,,,,,,,,,,,,,,,,,,,,,,,,,,,,,,,,,,,,,,,,,,,,,,,,,,,,,WJGE99,train_x,blue_star,bottom_left,2025-03-27_15h40.31.103,HideSeek_v1,2022.2.5,59.958257064663,
,,,,,,,,,,,,,,,0,0,0,0,6,0,6,0,,,,,,,,,,,,,,,,,,,,,,,,,,,,,,,conditions/schedules/train_x_first/blue_star_00/bottom_left/instructions/Slide7.png,conditions/schedules/train_x_first/blue_star_00/bottom_left/instructions/Audio7.wav,772.6432740000309,772.6453055800404,7,"[4.5559330999385566, 18.34616159996949, 16.696364299976267, 19.380004800041206, 4.23098889994435, 4.469745200010948, 5.271061800071038]","[4.555942600010894, 0.014382399967871606, 0.06399600009899586, 0.04714429995510727, 0.03323229996021837, 0.0337446000194177, 5.271068900008686]",0,,,,,,,,,,,,,,,,,,,,,,,,,,,,,,,,,,,,,,,,,,,,,,,,,,,,,,,,,,,,,,,,,,,,,,,,,,,,,,,,,,,,,,,,,,,,,,,,,,,,,,,,,,,,,,,,,,,,,,,,,,,,WJGE99,train_x,blue_star,bottom_left,2025-03-27_15h40.31.103,HideSeek_v1,2022.2.5,59.958257064663,
,,,,,,,,,,,,,,,0,0,0,0,7,0,7,0,,,,,,,,,,,,,,,,,,,,,,,,,,,,,,,conditions/schedules/train_x_first/blue_star_00/bottom_left/instructions/Slide8.png,conditions/schedules/train_x_first/blue_star_00/bottom_left/instructions/Audio8.wav,777.9824019999942,777.9833868999849,8,"[4.5559330999385566, 18.34616159996949, 16.696364299976267, 19.380004800041206, 4.23098889994435, 4.469745200010948, 5.271061800071038, 11.724655999918468]","[4.555942600010894, 0.014382399967871606, 0.06399600009899586, 0.04714429995510727, 0.03323229996021837, 0.0337446000194177, 5.271068900008686, 11.724662799970247]",0,,,,,,,,,,,,,,,,,,,,,,,,,,,,,,,,,,,,,,,,,,,,,,,,,,,,,,,,,,,,,,,,,,,,,,,,,,,,,,,,,,,,,,,,,,,,,,,,,,,,,,,,,,,,,,,,,,,,,,,,,,,,WJGE99,train_x,blue_star,bottom_left,2025-03-27_15h40.31.103,HideSeek_v1,2022.2.5,59.958257064663,
,,,,,,,,,,,,,,,0,0,0,0,8,0,8,0,,,,,,,,,,,,,,,,,,,,,,,,,,,,,,,conditions/schedules/train_x_first/blue_star_00/bottom_left/instructions/Slide9.png,conditions/schedules/train_x_first/blue_star_00/bottom_left/instructions/Audio9.wav,789.7621930000605,789.7595580800436,9,"[4.5559330999385566, 18.34616159996949, 16.696364299976267, 19.380004800041206, 4.23098889994435, 4.469745200010948, 5.271061800071038, 11.724655999918468, 5.999847700004466]","[4.555942600010894, 0.014382399967871606, 0.06399600009899586, 0.04714429995510727, 0.03323229996021837, 0.0337446000194177, 5.271068900008686, 0.04728709999471903, 5.999855000060052]",0,,,,,,,,,,,,,,,,,,,,,,,,,,,,,,,,,,,,,,,,,,,,,,,,,,,,,,,,,,,,,,,,,,,,,,,,,,,,,,,,,,,,,,,,,,,,,,,,,,,,,,,,,,,,,,,,,,,,,,,,,,,,WJGE99,train_x,blue_star,bottom_left,2025-03-27_15h40.31.103,HideSeek_v1,2022.2.5,59.958257064663,
,,,,,,,,,,,,,,,0,0,0,0,9,0,9,0,,,,,,,,,,,,,,,,,,,,,,,,,,,,,,,conditions/schedules/train_x_first/blue_star_00/bottom_left/instructions/Slide10.png,conditions/schedules/train_x_first/blue_star_00/bottom_left/instructions/Audio10.wav,795.799319999991,795.79803715999,10,"[4.5559330999385566, 18.34616159996949, 16.696364299976267, 19.380004800041206, 4.23098889994435, 4.469745200010948, 5.271061800071038, 11.724655999918468, 5.999847700004466, 6.385152700007893]","[4.555942600010894, 0.014382399967871606, 0.06399600009899586, 0.04714429995510727, 0.03323229996021837, 0.0337446000194177, 5.271068900008686, 0.04728709999471903, 0.04622300004120916, 6.385160899953917]",0,,,,,,,,,,,,,,,,,,,,,,,,,,,,,,,,,,,,,,,,,,,,,,,,,,,,,,,,,,,,,,,,,,,,,,,,,,,,,,,,,,,,,,,,,,,,,,,,,,,,,,,,,,,,,,,,,,,,,,,,,,,,WJGE99,train_x,blue_star,bottom_left,2025-03-27_15h40.31.103,HideSeek_v1,2022.2.5,59.958257064663,
,,,,,,,,,,,,,,,0,0,0,0,10,0,10,0,,,,,,,,,,,,,,,,,,,,,,,,,,,,,,,conditions/schedules/train_x_first/blue_star_00/bottom_left/instructions/Slide11.png,conditions/schedules/train_x_first/blue_star_00/bottom_left/instructions/Audio11.wav,802.2382922000252,802.2367223799694,11,"[4.5559330999385566, 18.34616159996949, 16.696364299976267, 19.380004800041206, 4.23098889994435, 4.469745200010948, 5.271061800071038, 11.724655999918468, 5.999847700004466, 6.385152700007893, 10.320891199982725]","[4.555942600010894, 0.014382399967871606, 0.06399600009899586, 0.04714429995510727, 0.03323229996021837, 0.0337446000194177, 5.271068900008686, 0.04728709999471903, 0.04622300004120916, 0.06241649994626641, 10.320898699923418]",0,,,,,,,,,,,,,,,,,,,,,,,,,,,,,,,,,,,,,,,,,,,,,,,,,,,,,,,,,,,,,,,,,,,,,,,,,,,,,,,,,,,,,,,,,,,,,,,,,,,,,,,,,,,,,,,,,,,,,,,,,,,,WJGE99,train_x,blue_star,bottom_left,2025-03-27_15h40.31.103,HideSeek_v1,2022.2.5,59.958257064663,
,,,,,,,,,,,,,,,0,0,0,0,11,0,11,0,,,,,,,,,,,,,,,,,,,,,,,,,,,,,,,conditions/schedules/train_x_first/blue_star_00/bottom_left/instructions/Slide12.png,conditions/schedules/train_x_first/blue_star_00/bottom_left/instructions/Audio12.wav,812.6282153000357,812.6286854000646,12,"[4.5559330999385566, 18.34616159996949, 16.696364299976267, 19.380004800041206, 4.23098889994435, 4.469745200010948, 5.271061800071038, 11.724655999918468, 5.999847700004466, 6.385152700007893, 10.320891199982725, 12.408167000045069]","[4.555942600010894, 0.014382399967871606, 0.06399600009899586, 0.04714429995510727, 0.03323229996021837, 0.0337446000194177, 5.271068900008686, 0.04728709999471903, 0.04622300004120916, 0.06241649994626641, 0.047997400048188865, 12.408174399985]",0,,,,,,,,,,,,,,,,,,,,,,,,,,,,,,,,,,,,,,,,,,,,,,,,,,,,,,,,,,,,,,,,,,,,,,,,,,,,,,,,,,,,,,,,,,,,,,,,,,,,,,,,,,,,,,,,,,,,,,,,,,,,WJGE99,train_x,blue_star,bottom_left,2025-03-27_15h40.31.103,HideSeek_v1,2022.2.5,59.958257064663,
1,4,0,9,0,5,0,11,2,instr_dim1_1,,,,,,0,0,0,0,,,,,0,0,0,0,,,,,,,,,,,,,,,,,,,,,,,,,,,,,,,,,,,,,stimuli/alien_stimuli/11.png,conditions/schedules/train_x_first/blue_star_00/bottom_left/inputInstr_1.xlsx,stimuli/alien_stimuli/11.png,825.1385837000562,825.1385837000562,825.1385837000562,825.1385837000562,825.1390729399513,return,8.677041599992663,"[-0.16, -0.08, 0, 0.08, 0.16, 0.24, 0.32, 0.4, 0.48, 0.56]","[-0.4, -0.32, -0.24, -0.16, -0.08, 0, 0.08, 0.16, 0.24, 0.32]",0,0,9,4,0.0,0.4,833.9720941000851,833.9720941000851,833.9720941000851,833.9720941000851,833.9720941000851,833.9720941000851,833.9720941000851,833.9632023599464,11.160006299964152,return,11.014350699959323,stimuli/alien_stimuli/11.png,11,4,1,,,,,,,,,,,,,,,,,,,,,,,,,,,,,,,,,,,,,,,,,,,,,,,,,,,,,,,,,,,,,,,,,,,,,,,,,,,,,,,,,,,,,,,,,WJGE99,train_x,blue_star,bottom_left,2025-03-27_15h40.31.103,HideSeek_v1,2022.2.5,59.958257064663,
,,,,,,,,,,,30,,,,0,0,0,0,,,,,,,,,,,,,,,,,,,,,,,,,,,,,,,,,,,,,,,,,,,,,,,,,,,,,,,,,,,,,,,,,,,,,,,,,,,,,,21,0.7,0,0,99,1,30,0,conditions/schedules/train_x_first/blue_star_00/bottom_left/inputTrain_1.1.xlsx,99,1,1,1,0,,,,,,,,,,,,,,,,,,,,,,,,,,,,,,,,,,,,,,,,,,,,,,,,,,,,,,,,,,,,,,,,,,,,,,,,,,,WJGE99,train_x,blue_star,bottom_left,2025-03-27_15h40.31.103,HideSeek_v1,2022.2.5,59.958257064663,
,,,,,,,,,,,,,,,1,0,1,0,0,0,0,0,,,,,,,,,,,,,,,,,,,,,,,,,,,,,,,conditions/schedules/train_x_first/blue_star_00/bottom_left/instructions/Slide13.png,conditions/schedules/train_x_first/blue_star_00/bottom_left/instructions/Audio13.wav,845.1397498000879,845.1389176800031,13,"[4.5559330999385566, 18.34616159996949, 16.696364299976267, 19.380004800041206, 4.23098889994435, 4.469745200010948, 5.271061800071038, 11.724655999918468, 5.999847700004466, 6.385152700007893, 10.320891199982725, 12.408167000045069, 17.47798690001946]","[4.555942600010894, 0.014382399967871606, 0.06399600009899586, 0.04714429995510727, 0.03323229996021837, 0.0337446000194177, 5.271068900008686, 0.04728709999471903, 0.04622300004120916, 0.06241649994626641, 0.047997400048188865, 12.408174399985, 17.477994000073522]",0,,,,,,,,,,,,,,,,,,,,,,,,,,,,,,,,,,,,,,,,,,,,,,,,,,,,,,,,,,,,,,,,,,,,,,,,,,,,,,,,,,,,,,,,,,,,,,,,,,,,,,,,,,,,,,,,,,,,,,,,,,,,WJGE99,train_x,blue_star,bottom_left,2025-03-27_15h40.31.103,HideSeek_v1,2022.2.5,59.958257064663,
,,,,,,,,,,,,,,,1,0,1,0,1,0,1,0,,,,,,,,,,,,,,,,,,,,,,,,,,,,,,,conditions/schedules/train_x_first/blue_star_00/bottom_left/instructions/Slide14.png,conditions/schedules/train_x_first/blue_star_00/bottom_left/instructions/Audio14.wav,862.6927975000581,862.6868889000616,14,"[4.5559330999385566, 18.34616159996949, 16.696364299976267, 19.380004800041206, 4.23098889994435, 4.469745200010948, 5.271061800071038, 11.724655999918468, 5.999847700004466, 6.385152700007893, 10.320891199982725, 12.408167000045069, 17.47798690001946, 12.653013200033456]","[4.555942600010894, 0.014382399967871606, 0.06399600009899586, 0.04714429995510727, 0.03323229996021837, 0.0337446000194177, 5.271068900008686, 0.04728709999471903, 0.04622300004120916, 0.06241649994626641, 0.047997400048188865, 12.408174399985, 0.0002484000287950039, 12.65302349999547]",0,,,,,,,,,,,,,,,,,,,,,,,,,,,,,,,,,,,,,,,,,,,,,,,,,,,,,,,,,,,,,,,,,,,,,,,,,,,,,,,,,,,,,,,,,,,,,,,,,,,,,,,,,,,,,,,,,,,,,,,,,,,,WJGE99,train_x,blue_star,bottom_left,2025-03-27_15h40.31.103,HideSeek_v1,2022.2.5,59.958257064663,
2,3,2,3,2,0,0,61,2,instr_dim1_1,,,,,,1,0,1,0,,,,,0,0,0,0,,,,,,,,,,,,,,,,,,,,,,,,,,,,,,,,,,,,,stimuli/alien_stimuli/61.png,conditions/schedules/train_x_first/blue_star_00/bottom_left/inputInstr_1.xlsx,stimuli/alien_stimuli/61.png,875.4318124999991,875.4318124999991,875.4318124999991,875.4318124999991,875.4313850199803,return,6.314792299992405,"[-0.16, -0.08, 0, 0.08, 0.16, 0.24, 0.32, 0.4, 0.48, 0.56]","[-0.4, -0.32, -0.24, -0.16, -0.08, 0, 0.08, 0.16, 0.24, 0.32]",2,2,3,3,0.0,0.0,881.9010187000968,881.9010187000968,881.9010187000968,881.9010187000968,881.9010187000968,881.9010187000968,881.9010187000968,881.8864570599748,12.227548600058071,return,12.063736199983396,stimuli/alien_stimuli/61.png,61,3,2,,,,,,,,,,,,,,,,,,,,,,,,,,,,,,,,,,,,,,,,,,,,,,,,,,,,,,,,,,,,,,,,,,,,,,,,,,,,,,,,,,,,,,,,,WJGE99,train_x,blue_star,bottom_left,2025-03-27_15h40.31.103,HideSeek_v1,2022.2.5,59.958257064663,
,,,,,,,,,,,30,,,,1,0,1,0,,,,,,,,,,,,,,,,,,,,,,,,,,,,,,,,,,,,,,,,,,,,,,,,,,,,,,,,,,,,,,,,,,,,,,,,,,,,,,21,0.7,0,0,99,1,30,0,conditions/schedules/train_x_first/blue_star_00/bottom_left/inputTrain_1.1.xlsx,99,1,1,1,0,,,,,,,,,,,,,,,,,,,,,,,,,,,,,,,,,,,,,,,,,,,,,,,,,,,,,,,,,,,,,,,,,,,,,,,,,,,WJGE99,train_x,blue_star,bottom_left,2025-03-27_15h40.31.103,HideSeek_v1,2022.2.5,59.958257064663,
,,,,,,,,,,,,,,,2,0,2,0,0,0,0,0,,,,,,,,,,,,,,,,,,,,,,,,,,,,,,,conditions/schedules/train_x_first/blue_star_00/bottom_left/instructions/Slide15.png,conditions/schedules/train_x_first/blue_star_00/bottom_left/instructions/Audio15.wav,894.1365535000805,894.1297872799797,15,"[4.5559330999385566, 18.34616159996949, 16.696364299976267, 19.380004800041206, 4.23098889994435, 4.469745200010948, 5.271061800071038, 11.724655999918468, 5.999847700004466, 6.385152700007893, 10.320891199982725, 12.408167000045069, 17.47798690001946, 12.653013200033456, 31.499329500016756]","[4.555942600010894, 0.014382399967871606, 0.06399600009899586, 0.04714429995510727, 0.03323229996021837, 0.0337446000194177, 5.271068900008686, 0.04728709999471903, 0.04622300004120916, 0.06241649994626641, 0.047997400048188865, 12.408174399985, 0.0002484000287950039, 12.65302349999547, 31.49933989997953]",0,,,,,,,,,,,,,,,,,,,,,,,,,,,,,,,,,,,,,,,,,,,,,,,,,,,,,,,,,,,,,,,,,,,,,,,,,,,,,,,,,,,,,,,,,,,,,,,,,,,,,,,,,,,,,,,,,,,,,,,,,,,,WJGE99,train_x,blue_star,bottom_left,2025-03-27_15h40.31.103,HideSeek_v1,2022.2.5,59.958257064663,
,,,,,,,,,,,,,,,2,0,2,0,1,0,1,0,,,,,,,,,,,,,,,,,,,,,,,,,,,,,,,conditions/schedules/train_x_first/blue_star_00/bottom_left/instructions/Slide16.png,conditions/schedules/train_x_first/blue_star_00/bottom_left/instructions/Audio16.wav,925.6983795000706,925.6893450799863,16,"[4.5559330999385566, 18.34616159996949, 16.696364299976267, 19.380004800041206, 4.23098889994435, 4.469745200010948, 5.271061800071038, 11.724655999918468, 5.999847700004466, 6.385152700007893, 10.320891199982725, 12.408167000045069, 17.47798690001946, 12.653013200033456, 31.499329500016756, 21.70613899989985]","[4.555942600010894, 0.014382399967871606, 0.06399600009899586, 0.04714429995510727, 0.03323229996021837, 0.0337446000194177, 5.271068900008686, 0.04728709999471903, 0.04622300004120916, 0.06241649994626641, 0.047997400048188865, 12.408174399985, 0.0002484000287950039, 12.65302349999547, 0.05484019999857992, 21.706147099961527]",0,,,,,,,,,,,,,,,,,,,,,,,,,,,,,,,,,,,,,,,,,,,,,,,,,,,,,,,,,,,,,,,,,,,,,,,,,,,,,,,,,,,,,,,,,,,,,,,,,,,,,,,,,,,,,,,,,,,,,,,,,,,,WJGE99,train_x,blue_star,bottom_left,2025-03-27_15h40.31.103,HideSeek_v1,2022.2.5,59.958257064663,
,2,1,5,1,3,0,31,,train_dim1_1,1,30,,,,2,0,2,0,,,,,,,,,0,0,0,0,0,0,0,0,0,0,0,0,,,,,,,,,,,,,,,,,,,,,,,,,stimuli/alien_stimuli/31.png,,,,,,,,,,,,,,,,,,,,,,,,,,,,,,,,,,,,,,,30,,,,,,,,947.5048493000213,947.5048493000213,947.5048493000213,947.5048493000213,947.5048493000213,up,4.698724000016227,0,0,0,99,0,-0.24,up,4.599692399962805,,,,,,,,,,,,,,,,,,,,,,,,,,,,,,,,,,,,,,,,,,,,,,,,,,,,,,,,,,,,WJGE99,train_x,blue_star,bottom_left,2025-03-27_15h40.31.103,HideSeek_v1,2022.2.5,59.958257064663,
,2,1,5,1,3,0,31,,train_dim1_1,1,30,,,,2,0,2,0,,,,,,,,,0,0,0,0,0,0,0,0,1,0,1,0,,,,,,,,,,,,,,,,,,,,,,,,,,,,,,,,,,,,,,,,,,,,,,,,,,,,,,,,,,,,,,,,30,,,,,,,,952.1916419999907,952.1916419999907,952.1916419999907,952.1916419999907,952.1916419999907,up,1.6274379999376833,0,0,0,99,0,-0.15999999999999998,up,1.551052000024356,,,,,,,,,,,,,,,,,,,,,,,,,,,,,,,,,,,,,,,,,,,,,,,,,,,,,,,,,,,,WJGE99,train_x,blue_star,bottom_left,2025-03-27_15h40.31.103,HideSeek_v1,2022.2.5,59.958257064663,
,2,1,5,1,3,0,31,,train_dim1_1,1,30,,,,2,0,2,0,,,,,,,,,0,0,0,0,0,0,0,0,2,0,2,0,,,,,,,,,,,,,,,,,,,,,,,,,,,,,,,,,,,,,,,,,,,,,,,,,,,,,,,,,,,,,,,,30,,,,,,,,953.8260330000194,953.8260330000194,953.8260330000194,953.8260330000194,953.8260330000194,up,1.2930737999267876,0,0,0,99,0,-0.07999999999999997,up,1.2167357000289485,,,,,,,,,,,,,,,,,,,,,,,,,,,,,,,,,,,,,,,,,,,,,,,,,,,,,,,,,,,,WJGE99,train_x,blue_star,bottom_left,2025-03-27_15h40.31.103,HideSeek_v1,2022.2.5,59.958257064663,
,2,1,5,1,3,0,31,,train_dim1_1,1,30,,,,2,0,2,0,,,,,,,,,0,0,0,0,0,0,0,0,3,0,3,0,,,,,,,,,,,,,,,,,,,,,,,,,,,,,,,,,,,,,,,,,,,,,,,,,,,,,,,,,,,,,,,,30,,,,,,,,955.1257963000098,955.1257963000098,955.1257963000098,955.1257963000098,955.1257963000098,up,0.9769900999963284,0,0,0,99,0,2.7755575615628914e-17,up,0.8902261999901384,,,,,,,,,,,,,,,,,,,,,,,,,,,,,,,,,,,,,,,,,,,,,,,,,,,,,,,,,,,,WJGE99,train_x,blue_star,bottom_left,2025-03-27_15h40.31.103,HideSeek_v1,2022.2.5,59.958257064663,
,2,1,5,1,3,0,31,,train_dim1_1,1,30,,,,2,0,2,0,,,,,,,,,0,0,0,0,0,0,0,0,4,0,4,0,,,,,,,,,,,,,,,,,,,,,,,,,,,,,,,,,,,,,,,,,,,,,,,,,,,,,,,,,,,,,,,,30,,,,,,,,956.110791800078,956.110791800078,956.110791800078,956.110791800078,956.110791800078,return,1.1107792999828234,0,0,0,0,0,2.7755575615628914e-17,return,1.0388007999863476,4,0,0,2.7755575615628914e-17,,,,,,,,,,,,,,,,,,,,,,,,,,,,,,,,,,,,,,,,,,,,,,,,,,,,,,,,WJGE99,train_x,blue_star,bottom_left,2025-03-27_15h40.31.103,HideSeek_v1,2022.2.5,59.958257064663,
,2,4,7,4,5,0,11,,train_dim1_1,2,30,,,,2,0,2,0,,,,,,,,,0,0,0,0,0,1,1,1,0,0,0,0,,,,,,,,,,,,,,,,,,,,,,,,,stimuli/alien_stimuli/11.png,,,,,,,,,,,,,,,,,,,,,,,,,,,,,stimuli/alien_stimuli/31.png,31,2,3,,,,,,,30,,,,,,,,981.7447986000916,981.7447986000916,981.7447986000916,981.7447986000916,981.7447986000916,right,4.368489300017245,0,0,0,99,0.08,-0.08,right,4.268099999986589,,,,,980.1679477000143,981.7447986000916,0.24,-0.32,0.0,0.24,-0.32,0.24,0.12,0.24,-0.32,958.7937184000621,958.7937184000621,958.7937184000621,958.7937184000621,958.7937184000621,958.7937184000621,958.7937184000621,958.7937184000621,958.7836484399973,21.486658600042574,return,21.356472600018606,,,,,,,,,,,,,,,,,,,,,,,,,,,,,,,,,WJGE99,train_x,blue_star,bottom_left,2025-03-27_15h40.31.103,HideSeek_v1,2022.2.5,59.958257064663,
,2,4,7,4,5,0,11,,train_dim1_1,2,30,,,,2,0,2,0,,,,,,,,,0,0,0,0,0,1,1,1,1,0,1,0,,,,,,,,,,,,,,,,,,,,,,,,,,,,,,,,,,,,,,,,,,,,,,,,,,,,,,,,,,,,,,,,30,,,,,,,,986.1073038000613,986.1073038000613,986.1073038000613,986.1073038000613,986.1073038000613,right,1.0593894999474287,0,0,0,99,0.16,-0.08,right,0.9681849000044167,,,,,,,,,,,,,,,,,,,,,,,,,,,,,,,,,,,,,,,,,,,,,,,,,,,,,,,,,,,,WJGE99,train_x,blue_star,bottom_left,2025-03-27_15h40.31.103,HideSeek_v1,2022.2.5,59.958257064663,
,2,4,7,4,5,0,11,,train_dim1_1,2,30,,,,2,0,2,0,,,,,,,,,0,0,0,0,0,1,1,1,2,0,2,0,,,,,,,,,,,,,,,,,,,,,,,,,,,,,,,,,,,,,,,,,,,,,,,,,,,,,,,,,,,,,,,,30,,,,,,,,987.1736566000618,987.1736566000618,987.1736566000618,987.1736566000618,987.1736566000618,right,1.57792980002705,0,0,0,99,0.24,-0.08,right,1.4934068000875413,,,,,,,,,,,,,,,,,,,,,,,,,,,,,,,,,,,,,,,,,,,,,,,,,,,,,,,,,,,,WJGE99,train_x,blue_star,bottom_left,2025-03-27_15h40.31.103,HideSeek_v1,2022.2.5,59.958257064663,
,2,4,7,4,5,0,11,,train_dim1_1,2,30,,,,2,0,2,0,,,,,,,,,0,0,0,0,0,1,1,1,3,0,3,0,,,,,,,,,,,,,,,,,,,,,,,,,,,,,,,,,,,,,,,,,,,,,,,,,,,,,,,,,,,,,,,,30,,,,,,,,988.762347000069,988.762347000069,988.762347000069,988.762347000069,988.762347000069,right,2.274661000003107,0,0,0,99,0.32,-0.08,right,2.1829326999140903,,,,,,,,,,,,,,,,,,,,,,,,,,,,,,,,,,,,,,,,,,,,,,,,,,,,,,,,,,,,WJGE99,train_x,blue_star,bottom_left,2025-03-27_15h40.31.103,HideSeek_v1,2022.2.5,59.958257064663,
,2,4,7,4,5,0,11,,train_dim1_1,2,30,,,,2,0,2,0,,,,,,,,,0,0,0,0,0,1,1,1,4,0,4,0,,,,,,,,,,,,,,,,,,,,,,,,,,,,,,,,,,,,,,,,,,,,,,,,,,,,,,,,,,,,,,,,30,,,,,,,,991.0452677001012,991.0452677001012,991.0452677001012,991.0452677001012,991.0452677001012,return,2.110051600029692,0,1,0,0,0.32,-0.08,return,2.025012700003572,4,4,0.32,-0.08,,,,,,,,,,,,,,,,,,,,,,,,,,,,,,,,,,,,,,,,,,,,,,,,,,,,,,,,WJGE99,train_x,blue_star,bottom_left,2025-03-27_15h40.31.103,HideSeek_v1,2022.2.5,59.958257064663,
,4,4,8,4,4,0,21,,train_dim1_1,3,30,,,,2,0,2,0,,,,,,,,,0,0,0,0,0,2,2,2,0,0,0,0,,,,,,,,,,,,,,,,,,,,,,,,,stimuli/alien_stimuli/21.png,,,,,,,,,,,,,,,,,,,,,,,,,,,,,stimuli/alien_stimuli/11.png,11,2,4,,,,,,,30,,,,,,,,1016.0218541000504,1016.0218541000504,1016.0218541000504,1016.0218541000504,1016.0218541000504,right,3.0883484999649227,0,1,0,99,0.24,-0.08,right,2.988533499999903,,,,,1014.4463666999945,1016.0218541000504,0.4,-0.08,0.0,0.4,-0.08,0.4,0.2,0.4,-0.08,994.7466773000779,994.7466773000779,994.7466773000779,994.7466773000779,994.7466773000779,994.7466773000779,994.7466773000779,994.7466773000779,994.7300642600516,19.835551400086842,return,19.679933300008997,,,,,,,,,,,,,,,,,,,,,,,,,,,,,,,,,WJGE99,train_x,blue_star,bottom_left,2025-03-27_15h40.31.103,HideSeek_v1,2022.2.5,59.958257064663,
,4,4,8,4,4,0,21,,train_dim1_1,3,30,,,,2,0,2,0,,,,,,,,,0,0,0,0,0,2,2,2,1,0,1,0,,,,,,,,,,,,,,,,,,,,,,,,,,,,,,,,,,,,,,,,,,,,,,,,,,,,,,,,,,,,,,,,30,,,,,,,,1019.1015691000503,1019.1015691000503,1019.1015691000503,1019.1015691000503,1019.1015691000503,right,0.9092908999882638,0,1,0,99,0.32,-0.08,right,0.8221240000566468,,,,,,,,,,,,,,,,,,,,,,,,,,,,,,,,,,,,,,,,,,,,,,,,,,,,,,,,,,,,WJGE99,train_x,blue_star,bottom_left,2025-03-27_15h40.31.103,HideSeek_v1,2022.2.5,59.958257064663,
,4,4,8,4,4,0,21,,train_dim1_1,3,30,,,,2,0,2,0,,,,,,,,,0,0,0,0,0,2,2,2,2,0,2,0,,,,,,,,,,,,,,,,,,,,,,,,,,,,,,,,,,,,,,,,,,,,,,,,,,,,,,,,,,,,,,,,30,,,,,,,,1020.0179890000727,1020.0179890000727,1020.0179890000727,1020.0179890000727,1020.0179890000727,right,2.3279033999424428,0,1,0,99,0.4,-0.08,right,2.2408342000562698,,,,,,,,,,,,,,,,,,,,,,,,,,,,,,,,,,,,,,,,,,,,,,,,,,,,,,,,,,,,WJGE99,train_x,blue_star,bottom_left,2025-03-27_15h40.31.103,HideSeek_v1,2022.2.5,59.958257064663,
,4,4,8,4,4,0,21,,train_dim1_1,3,30,,,,2,0,2,0,,,,,,,,,0,0,0,0,0,2,2,2,3,0,3,0,,,,,,,,,,,,,,,,,,,,,,,,,,,,,,,,,,,,,,,,,,,,,,,,,,,,,,,,,,,,,,,,30,,,,,,,,1022.3540247000055,1022.3540247000055,1022.3540247000055,1022.3540247000055,1022.3540247000055,right,0.7266165999462828,0,1,0,99,0.48000000000000004,-0.08,right,0.6395413000136614,,,,,,,,,,,,,,,,,,,,,,,,,,,,,,,,,,,,,,,,,,,,,,,,,,,,,,,,,,,,WJGE99,train_x,blue_star,bottom_left,2025-03-27_15h40.31.103,HideSeek_v1,2022.2.5,59.958257064663,
,4,4,8,4,4,0,21,,train_dim1_1,3,30,,,,2,0,2,0,,,,,,,,,0,0,0,0,0,2,2,2,4,0,4,0,,,,,,,,,,,,,,,,,,,,,,,,,,,,,,,,,,,,,,,,,,,,,,,,,,,,,,,,,,,,,,,,30,,,,,,,,1023.086533099995,1023.086533099995,1023.086533099995,1023.086533099995,1023.086533099995,return,0.8434676000615582,1,0,0,1,0.48000000000000004,-0.08,return,0.7522597999777645,4,8,0.48000000000000004,-0.08,,,,,,,,,,,,,,,,,,,,,,,,,,,,,,,,,,,,,,,,,,,,,,,,,,,,,,,,WJGE99,train_x,blue_star,bottom_left,2025-03-27_15h40.31.103,HideSeek_v1,2022.2.5,59.958257064663,
,2,3,3,3,1,0,51,,train_dim1_1,4,30,,,,2,0,2,0,,,,,,,,,0,0,0,0,0,3,3,3,0,0,0,0,,,,,,,,,,,,,,,,,,,,,,,,,stimuli/alien_stimuli/51.png,,,,,,,,,,,,,,,,,,,,,,,,,,,,,stimuli/alien_stimuli/21.png,21,4,5,,,,,,,30,,,,,,,,1038.4928820000496,1038.4928820000496,1038.4928820000496,1038.4928820000496,1038.4928820000496,right,5.172059399890713,1,0,0,99,0.08,-0.16,right,5.0647143999813125,,,,,1036.9149837000296,1038.4928820000496,0.48,-0.08,0.0,0.32,-0.08,0.48,0.32,0.48,-0.08,1025.5063709000824,1025.5063709000824,1025.5063709000824,1025.5063709000824,1025.5063709000824,1025.5063709000824,1025.5063709000824,1025.5063709000824,1025.4890866400324,11.528302400023676,return,11.387378600076772,,,,,,,,,,,,,,,,,,,,,,,,,,,,,,,,,WJGE99,train_x,blue_star,bottom_left,2025-03-27_15h40.31.103,HideSeek_v1,2022.2.5,59.958257064663,
,2,3,3,3,1,0,51,,train_dim1_1,4,30,,,,2,0,2,0,,,,,,,,,0,0,0,0,0,3,3,3,1,0,1,0,,,,,,,,,,,,,,,,,,,,,,,,,,,,,,,,,,,,,,,,,,,,,,,,,,,,,,,,,,,,,,,,30,,,,,,,,1043.654555200017,1043.654555200017,1043.654555200017,1043.654555200017,1043.654555200017,right,1.0426533999852836,1,0,0,99,0.16,-0.16,right,0.9562968000536785,,,,,,,,,,,,,,,,,,,,,,,,,,,,,,,,,,,,,,,,,,,,,,,,,,,,,,,,,,,,WJGE99,train_x,blue_star,bottom_left,2025-03-27_15h40.31.103,HideSeek_v1,2022.2.5,59.958257064663,
,2,3,3,3,1,0,51,,train_dim1_1,4,30,,,,2,0,2,0,,,,,,,,,0,0,0,0,0,3,3,3,2,0,2,0,,,,,,,,,,,,,,,,,,,,,,,,,,,,,,,,,,,,,,,,,,,,,,,,,,,,,,,,,,,,,,,,30,,,,,,,,1044.7037988000084,1044.7037988000084,1044.7037988000084,1044.7037988000084,1044.7037988000084,right,0.9100716999964789,1,0,0,99,0.24,-0.16,right,0.8256459000986069,,,,,,,,,,,,,,,,,,,,,,,,,,,,,,,,,,,,,,,,,,,,,,,,,,,,,,,,,,,,WJGE99,train_x,blue_star,bottom_left,2025-03-27_15h40.31.103,HideSeek_v1,2022.2.5,59.958257064663,
,2,3,3,3,1,0,51,,train_dim1_1,4,30,,,,2,0,2,0,,,,,,,,,0,0,0,0,0,3,3,3,3,0,3,0,,,,,,,,,,,,,,,,,,,,,,,,,,,,,,,,,,,,,,,,,,,,,,,,,,,,,,,,,,,,,,,,30,,,,,,,,1045.6210614000447,1045.6210614000447,1045.6210614000447,1045.6210614000447,1045.6210614000447,return,0.8269519000314176,1,0,0,0,0.24,-0.16,return,0.7474801999051124,4,11,0.24,-0.16,,,,,,,,,,,,,,,,,,,,,,,,,,,,,,,,,,,,,,,,,,,,,,,,,,,,,,,,WJGE99,train_x,blue_star,bottom_left,2025-03-27_15h40.31.103,HideSeek_v1,2022.2.5,59.958257064663,
,0,2,0,2,0,0,61,,train_dim1_1,5,30,,,,2,0,2,0,,,,,,,,,0,0,0,0,0,4,4,4,0,0,0,0,,,,,,,,,,,,,,,,,,,,,,,,,stimuli/alien_stimuli/61.png,,,,,,,,,,,,,,,,,,,,,,,,,,,,,stimuli/alien_stimuli/51.png,51,2,6,,,,,,,30,,,,,,,,1054.6935894000344,1054.6935894000344,1054.6935894000344,1054.6935894000344,1054.6935894000344,right,1.668348699924536,1,0,0,99,-0.08,-0.24,right,1.5796548000071198,,,,,1053.1283538000425,1054.6935894000344,0.08,-0.16,0.0,0.08,-0.16,0.08,0.04,0.08,-0.16,1048.0134554000106,1048.0134554000106,1048.0134554000106,1048.0134554000106,1048.0134554000106,1048.0134554000106,1048.0134554000106,1048.0134554000106,1047.9909976199967,5.222976199933328,return,5.093702899990603,,,,,,,,,,,,,,,,,,,,,,,,,,,,,,,,,WJGE99,train_x,blue_star,bottom_left,2025-03-27_15h40.31.103,HideSeek_v1,2022.2.5,59.958257064663,
,0,2,0,2,0,0,61,,train_dim1_1,5,30,,,,2,0,2,0,,,,,,,,,0,0,0,0,0,4,4,4,1,0,1,0,,,,,,,,,,,,,,,,,,,,,,,,,,,,,,,,,,,,,,,,,,,,,,,,,,,,,,,,,,,,,,,,30,,,,,,,,1056.3618793000933,1056.3618793000933,1056.3618793000933,1056.3618793000933,1056.3618793000933,return,0.44268120010383427,1,1,0,0,-0.08,-0.24,return,0.35907060001045465,4,12,-0.08,-0.24,,,,,,,,,,,,,,,,,,,,,,,,,,,,,,,,,,,,,,,,,,,,,,,,,,,,,,,,WJGE99,train_x,blue_star,bottom_left,2025-03-27_15h40.31.103,HideSeek_v1,2022.2.5,59.958257064663,
,0,0,4,0,4,0,21,,train_dim1_1,6,30,,,,2,0,2,0,,,,,,,,,0,0,0,0,0,5,5,5,0,0,0,0,,,,,,,,,,,,,,,,,,,,,,,,,stimuli/alien_stimuli/21.png,,,,,,,,,,,,,,,,,,,,,,,,,,,,,stimuli/alien_stimuli/61.png,61,0,7,,,,,,,30,,,,,,,,1068.120655200095,1068.120655200095,1068.120655200095,1068.120655200095,1068.120655200095,right,2.2887048000702634,1,1,0,99,-0.08,-0.4,right,2.193813699996099,,,,,1066.5563121000305,1068.120655200095,-0.16,-0.24,0.0,0.0,-0.24,-0.16,-0.16,-0.16,-0.24,1058.3880276000127,1058.3880276000127,1058.3880276000127,1058.3880276000127,1058.3880276000127,1058.3880276000127,1058.3880276000127,1058.3880276000127,1058.3663425399805,8.292430900037289,return,8.144754000008106,,,,,,,,,,,,,,,,,,,,,,,,,,,,,,,,,WJGE99,train_x,blue_star,bottom_left,2025-03-27_15h40.31.103,HideSeek_v1,2022.2.5,59.958257064663,
,0,0,4,0,4,0,21,,train_dim1_1,6,30,,,,2,0,2,0,,,,,,,,,0,0,0,0,0,5,5,5,1,0,1,0,,,,,,,,,,,,,,,,,,,,,,,,,,,,,,,,,,,,,,,,,,,,,,,,,,,,,,,,,,,,,,,,30,,,,,,,,1070.4152325000614,1070.4152325000614,1070.4152325000614,1070.4152325000614,1070.4152325000614,right,0.5890717000002041,1,1,0,99,0.0,-0.4,right,0.4968597999541089,,,,,,,,,,,,,,,,,,,,,,,,,,,,,,,,,,,,,,,,,,,,,,,,,,,,,,,,,,,,WJGE99,train_x,blue_star,bottom_left,2025-03-27_15h40.31.103,HideSeek_v1,2022.2.5,59.958257064663,
,0,0,4,0,4,0,21,,train_dim1_1,6,30,,,,2,0,2,0,,,,,,,,,0,0,0,0,0,5,5,5,2,0,2,0,,,,,,,,,,,,,,,,,,,,,,,,,,,,,,,,,,,,,,,,,,,,,,,,,,,,,,,,,,,,,,,,30,,,,,,,,1071.0095636000624,1071.0095636000624,1071.0095636000624,1071.0095636000624,1071.0095636000624,right,0.6607286999933422,1,1,0,99,0.08,-0.4,right,0.5807280000299215,,,,,,,,,,,,,,,,,,,,,,,,,,,,,,,,,,,,,,,,,,,,,,,,,,,,,,,,,,,,WJGE99,train_x,blue_star,bottom_left,2025-03-27_15h40.31.103,HideSeek_v1,2022.2.5,59.958257064663,
,0,0,4,0,4,0,21,,train_dim1_1,6,30,,,,2,0,2,0,,,,,,,,,0,0,0,0,0,5,5,5,3,0,3,0,,,,,,,,,,,,,,,,,,,,,,,,,,,,,,,,,,,,,,,,,,,,,,,,,,,,,,,,,,,,,,,,30,,,,,,,,1071.6773353000171,1071.6773353000171,1071.6773353000171,1071.6773353000171,1071.6773353000171,right,0.6432864000089467,1,1,0,99,0.16,-0.4,right,0.5638391000684351,,,,,,,,,,,,,,,,,,,,,,,,,,,,,,,,,,,,,,,,,,,,,,,,,,,,,,,,,,,,WJGE99,train_x,blue_star,bottom_left,2025-03-27_15h40.31.103,HideSeek_v1,2022.2.5,59.958257064663,
,0,0,4,0,4,0,21,,train_dim1_1,6,30,,,,2,0,2,0,,,,,,,,,0,0,0,0,0,5,5,5,4,0,4,0,,,,,,,,,,,,,,,,,,,,,,,,,,,,,,,,,,,,,,,,,,,,,,,,,,,,,,,,,,,,,,,,30,,,,,,,,1072.3281204000814,1072.3281204000814,1072.3281204000814,1072.3281204000814,1072.3281204000814,right,0.6433494999073446,1,1,0,99,0.24,-0.4,right,0.5667041999986395,,,,,,,,,,,,,,,,,,,,,,,,,,,,,,,,,,,,,,,,,,,,,,,,,,,,,,,,,,,,WJGE99,train_x,blue_star,bottom_left,2025-03-27_15h40.31.103,HideSeek_v1,2022.2.5,59.958257064663,
,0,0,4,0,4,0,21,,train_dim1_1,6,30,,,,2,0,2,0,,,,,,,,,0,0,0,0,0,5,5,5,5,0,5,0,,,,,,,,,,,,,,,,,,,,,,,,,,,,,,,,,,,,,,,,,,,,,,,,,,,,,,,,,,,,,,,,30,,,,,,,,1072.9772466000868,1072.9772466000868,1072.9772466000868,1072.9772466000868,1072.9772466000868,return,0.6611359999515116,1,1,0,0,0.24,-0.4,return,0.5769558000611141,4,17,0.24,-0.4,,,,,,,,,,,,,,,,,,,,,,,,,,,,,,,,,,,,,,,,,,,,,,,,,,,,,,,,WJGE99,train_x,blue_star,bottom_left,2025-03-27_15h40.31.103,HideSeek_v1,2022.2.5,59.958257064663,
,3,0,3,0,0,0,61,,train_dim1_1,7,30,,,,2,0,2,0,,,,,,,,,0,0,0,0,0,6,6,6,0,0,0,0,,,,,,,,,,,,,,,,,,,,,,,,,stimuli/alien_stimuli/61.png,,,,,,,,,,,,,,,,,,,,,,,,,,,,,stimuli/alien_stimuli/21.png,21,0,8,,,,,,,30,,,,,,,,1085.3158552000532,1085.3158552000532,1085.3158552000532,1085.3158552000532,1085.3158552000532,up,3.1214153000619262,1,1,0,99,0.08,-0.32,up,3.0428895000368357,,,,,1083.753833200084,1085.3158552000532,0.16,-0.4,0.0,0.32,-0.4,0.16,0.0,0.16,-0.4,1075.220330900047,1075.220330900047,1075.220330900047,1075.220330900047,1075.220330900047,1075.220330900047,1075.220330900047,1075.220330900047,1075.2133739599724,8.659234100021422,return,8.507175200036727,,,,,,,,,,,,,,,,,,,,,,,,,,,,,,,,,WJGE99,train_x,blue_star,bottom_left,2025-03-27_15h40.31.103,HideSeek_v1,2022.2.5,59.958257064663,
,3,0,3,0,0,0,61,,train_dim1_1,7,30,,,,2,0,2,0,,,,,,,,,0,0,0,0,0,6,6,6,1,0,1,0,,,,,,,,,,,,,,,,,,,,,,,,,,,,,,,,,,,,,,,,,,,,,,,,,,,,,,,,,,,,,,,,30,,,,,,,,1088.4388831000542,1088.4388831000542,1088.4388831000542,1088.4388831000542,1088.4388831000542,up,0.7086016000248492,1,1,0,99,0.08,-0.24,up,0.6336428000358865,,,,,,,,,,,,,,,,,,,,,,,,,,,,,,,,,,,,,,,,,,,,,,,,,,,,,,,,,,,,WJGE99,train_x,blue_star,bottom_left,2025-03-27_15h40.31.103,HideSeek_v1,2022.2.5,59.958257064663,
,3,0,3,0,0,0,61,,train_dim1_1,7,30,,,,2,0,2,0,,,,,,,,,0,0,0,0,0,6,6,6,2,0,2,0,,,,,,,,,,,,,,,,,,,,,,,,,,,,,,,,,,,,,,,,,,,,,,,,,,,,,,,,,,,,,,,,30,,,,,,,,1089.1543196000857,1089.1543196000857,1089.1543196000857,1089.1543196000857,1089.1543196000857,up,1.9943933000322431,1,1,0,99,0.08,-0.15999999999999998,up,1.9074311999138445,,,,,,,,,,,,,,,,,,,,,,,,,,,,,,,,,,,,,,,,,,,,,,,,,,,,,,,,,,,,WJGE99,train_x,blue_star,bottom_left,2025-03-27_15h40.31.103,HideSeek_v1,2022.2.5,59.958257064663,
,3,0,3,0,0,0,61,,train_dim1_1,7,30,,,,2,0,2,0,,,,,,,,,0,0,0,0,0,6,6,6,3,0,3,0,,,,,,,,,,,,,,,,,,,,,,,,,,,,,,,,,,,,,,,,,,,,,,,,,,,,,,,,,,,,,,,,30,,,,,,,,1091.155745199998,1091.155745199998,1091.155745199998,1091.155745199998,1091.155745199998,return,0.7104379000375047,1,0,0,0,0.08,-0.15999999999999998,return,0.6225082000019029,7,17,0.08,-0.15999999999999998,,,,,,,,,,,,,,,,,,,,,,,,,,,,,,,,,,,,,,,,,,,,,,,,,,,,,,,,WJGE99,train_x,blue_star,bottom_left,2025-03-27_15h40.31.103,HideSeek_v1,2022.2.5,59.958257064663,
,0,4,3,4,3,0,31,,train_dim1_1,8,30,,,,2,0,2,0,,,,,,,,,0,0,0,0,0,7,7,7,0,0,0,0,,,,,,,,,,,,,,,,,,,,,,,,,stimuli/alien_stimuli/31.png,,,,,,,,,,,,,,,,,,,,,,,,,,,,,stimuli/alien_stimuli/61.png,61,3,9,,,,,,,30,,,,,,,,1097.906203599996,1097.906203599996,1097.906203599996,1097.906203599996,1097.906203599996,right,1.405274000018835,1,0,0,99,-0.08,-0.08,right,1.3138914000010118,,,,,1096.347774600028,1097.906203599996,0.08,-0.4,0.0,0.0,-0.4,0.08,0.08,0.08,-0.4,1093.4503898000112,1093.4503898000112,1093.4503898000112,1093.4503898000112,1093.4503898000112,1093.4503898000112,1093.4503898000112,1093.4503898000112,1093.4288184400298,3.0211032000370324,return,2.8757435999577865,,,,,,,,,,,,,,,,,,,,,,,,,,,,,,,,,WJGE99,train_x,blue_star,bottom_left,2025-03-27_15h40.31.103,HideSeek_v1,2022.2.5,59.958257064663,
,0,4,3,4,3,0,31,,train_dim1_1,8,30,,,,2,0,2,0,,,,,,,,,0,0,0,0,0,7,7,7,1,0,1,0,,,,,,,,,,,,,,,,,,,,,,,,,,,,,,,,,,,,,,,,,,,,,,,,,,,,,,,,,,,,,,,,30,,,,,,,,1099.3138116000919,1099.3138116000919,1099.3138116000919,1099.3138116000919,1099.3138116000919,right,1.0265621000435203,1,0,0,99,0.0,-0.08,right,0.9522490999661386,,,,,,,,,,,,,,,,,,,,,,,,,,,,,,,,,,,,,,,,,,,,,,,,,,,,,,,,,,,,WJGE99,train_x,blue_star,bottom_left,2025-03-27_15h40.31.103,HideSeek_v1,2022.2.5,59.958257064663,
,0,4,3,4,3,0,31,,train_dim1_1,8,30,,,,2,0,2,0,,,,,,,,,0,0,0,0,0,7,7,7,2,0,2,0,,,,,,,,,,,,,,,,,,,,,,,,,,,,,,,,,,,,,,,,,,,,,,,,,,,,,,,,,,,,,,,,30,,,,,,,,1100.3463512000162,1100.3463512000162,1100.3463512000162,1100.3463512000162,1100.3463512000162,right,1.2275219999719411,1,0,0,99,0.08,-0.08,right,1.142168000107631,,,,,,,,,,,,,,,,,,,,,,,,,,,,,,,,,,,,,,,,,,,,,,,,,,,,,,,,,,,,WJGE99,train_x,blue_star,bottom_left,2025-03-27_15h40.31.103,HideSeek_v1,2022.2.5,59.958257064663,
,0,4,3,4,3,0,31,,train_dim1_1,8,30,,,,2,0,2,0,,,,,,,,,0,0,0,0,0,7,7,7,3,0,3,0,,,,,,,,,,,,,,,,,,,,,,,,,,,,,,,,,,,,,,,,,,,,,,,,,,,,,,,,,,,,,,,,30,,,,,,,,1101.5808119000867,1101.5808119000867,1101.5808119000867,1101.5808119000867,1101.5808119000867,return,1.3440223999787122,2,0,0,1,0.08,-0.08,return,1.2720832999330014,7,20,0.08,-0.08,,,,,,,,,,,,,,,,,,,,,,,,,,,,,,,,,,,,,,,,,,,,,,,,,,,,,,,,WJGE99,train_x,blue_star,bottom_left,2025-03-27_15h40.31.103,HideSeek_v1,2022.2.5,59.958257064663,
,1,0,2,0,1,0,51,,train_dim1_1,9,30,,,,2,0,2,0,,,,,,,,,0,0,0,0,0,8,8,8,0,0,0,0,,,,,,,,,,,,,,,,,,,,,,,,,stimuli/alien_stimuli/51.png,,,,,,,,,,,,,,,,,,,,,,,,,,,,,stimuli/alien_stimuli/31.png,31,0,10,,,,,,,30,,,,,,,,1108.4835690000327,1108.4835690000327,1108.4835690000327,1108.4835690000327,1108.4835690000327,up,1.6868988000787795,2,0,0,99,-0.08,-0.32,up,1.584545399993658,,,,,1106.9064535000362,1108.4835690000327,0.08,-0.08,0.0,0.24,-0.08,0.08,-0.04,0.08,-0.08,1104.509812500095,1104.509812500095,1104.509812500095,1104.509812500095,1104.509812500095,1104.509812500095,1104.509812500095,1104.509812500095,1104.48799033995,2.520594500005245,return,2.365272399969399,,,,,,,,,,,,,,,,,,,,,,,,,,,,,,,,,WJGE99,train_x,blue_star,bottom_left,2025-03-27_15h40.31.103,HideSeek_v1,2022.2.5,59.958257064663,
,1,0,2,0,1,0,51,,train_dim1_1,9,30,,,,2,0,2,0,,,,,,,,,0,0,0,0,0,8,8,8,1,0,1,0,,,,,,,,,,,,,,,,,,,,,,,,,,,,,,,,,,,,,,,,,,,,,,,,,,,,,,,,,,,,,,,,30,,,,,,,,1110.1580703000072,1110.1580703000072,1110.1580703000072,1110.1580703000072,1110.1580703000072,up,0.7098248000256717,2,0,0,99,-0.08,-0.24,up,0.6196437999606133,,,,,,,,,,,,,,,,,,,,,,,,,,,,,,,,,,,,,,,,,,,,,,,,,,,,,,,,,,,,WJGE99,train_x,blue_star,bottom_left,2025-03-27_15h40.31.103,HideSeek_v1,2022.2.5,59.958257064663,
,1,0,2,0,1,0,51,,train_dim1_1,9,30,,,,2,0,2,0,,,,,,,,,0,0,0,0,0,8,8,8,2,0,2,0,,,,,,,,,,,,,,,,,,,,,,,,,,,,,,,,,,,,,,,,,,,,,,,,,,,,,,,,,,,,,,,,30,,,,,,,,1110.8755661000032,1110.8755661000032,1110.8755661000032,1110.8755661000032,1110.8755661000032,up,0.9268885999917984,2,0,0,99,-0.08,-0.15999999999999998,up,0.836581000010483,,,,,,,,,,,,,,,,,,,,,,,,,,,,,,,,,,,,,,,,,,,,,,,,,,,,,,,,,,,,WJGE99,train_x,blue_star,bottom_left,2025-03-27_15h40.31.103,HideSeek_v1,2022.2.5,59.958257064663,
,1,0,2,0,1,0,51,,train_dim1_1,9,30,,,,2,0,2,0,,,,,,,,,0,0,0,0,0,8,8,8,3,0,3,0,,,,,,,,,,,,,,,,,,,,,,,,,,,,,,,,,,,,,,,,,,,,,,,,,,,,,,,,,,,,,,,,30,,,,,,,,1111.8092868000967,1111.8092868000967,1111.8092868000967,1111.8092868000967,1111.8092868000967,up,0.7264073999831453,2,0,0,99,-0.08,-0.07999999999999997,up,0.6448601000010967,,,,,,,,,,,,,,,,,,,,,,,,,,,,,,,,,,,,,,,,,,,,,,,,,,,,,,,,,,,,WJGE99,train_x,blue_star,bottom_left,2025-03-27_15h40.31.103,HideSeek_v1,2022.2.5,59.958257064663,
,1,0,2,0,1,0,51,,train_dim1_1,9,30,,,,2,0,2,0,,,,,,,,,0,0,0,0,0,8,8,8,4,0,4,0,,,,,,,,,,,,,,,,,,,,,,,,,,,,,,,,,,,,,,,,,,,,,,,,,,,,,,,,,,,,,,,,30,,,,,,,,1112.544469100074,1112.544469100074,1112.544469100074,1112.544469100074,1112.544469100074,return,0.6759756000246853,2,0,0,0,-0.08,-0.07999999999999997,return,0.5862747000064701,11,20,-0.08,-0.07999999999999997,,,,,,,,,,,,,,,,,,,,,,,,,,,,,,,,,,,,,,,,,,,,,,,,,,,,,,,,WJGE99,train_x,blue_star,bottom_left,2025-03-27_15h40.31.103,HideSeek_v1,2022.2.5,59.958257064663,
,0,3,5,3,5,0,11,,train_dim1_1,10,30,,,,2,0,2,0,,,,,,,,,0,0,0,0,0,9,9,9,0,0,0,0,,,,,,,,,,,,,,,,,,,,,,,,,stimuli/alien_stimuli/11.png,,,,,,,,,,,,,,,,,,,,,,,,,,,,,stimuli/alien_stimuli/51.png,51,1,11,,,,,,,30,,,,,,,,1118.7116185000632,1118.7116185000632,1118.7116185000632,1118.7116185000632,1118.7116185000632,right,1.2036429999861866,2,0,0,99,-0.08,-0.16,right,1.1066225999966264,,,,,1117.1316010000883,1118.7116185000632,0,-0.4,0.0,0.08,-0.4,0,-0.04,0,-0.4,1114.8020716001047,1114.8020716001047,1114.8020716001047,1114.8020716001047,1114.8020716001047,1114.8020716001047,1114.8020716001047,1114.8020716001047,1114.7965610599842,2.4540680999634787,return,2.2979409000836313,,,,,,,,,,,,,,,,,,,,,,,,,,,,,,,,,WJGE99,train_x,blue_star,bottom_left,2025-03-27_15h40.31.103,HideSeek_v1,2022.2.5,59.958257064663,
,0,3,5,3,5,0,11,,train_dim1_1,10,30,,,,2,0,2,0,,,,,,,,,0,0,0,0,0,9,9,9,1,0,1,0,,,,,,,,,,,,,,,,,,,,,,,,,,,,,,,,,,,,,,,,,,,,,,,,,,,,,,,,,,,,,,,,30,,,,,,,,1119.904285500059,1119.904285500059,1119.904285500059,1119.904285500059,1119.904285500059,right,0.8578340000240132,2,0,0,99,0.0,-0.16,right,0.7678834999678656,,,,,,,,,,,,,,,,,,,,,,,,,,,,,,,,,,,,,,,,,,,,,,,,,,,,,,,,,,,,WJGE99,train_x,blue_star,bottom_left,2025-03-27_15h40.31.103,HideSeek_v1,2022.2.5,59.958257064663,
,0,3,5,3,5,0,11,,train_dim1_1,10,30,,,,2,0,2,0,,,,,,,,,0,0,0,0,0,9,9,9,2,0,2,0,,,,,,,,,,,,,,,,,,,,,,,,,,,,,,,,,,,,,,,,,,,,,,,,,,,,,,,,,,,,,,,,30,,,,,,,,1120.7675629000878,1120.7675629000878,1120.7675629000878,1120.7675629000878,1120.7675629000878,right,0.760399500024505,2,0,0,99,0.08,-0.16,right,0.6777905999915674,,,,,,,,,,,,,,,,,,,,,,,,,,,,,,,,,,,,,,,,,,,,,,,,,,,,,,,,,,,,WJGE99,train_x,blue_star,bottom_left,2025-03-27_15h40.31.103,HideSeek_v1,2022.2.5,59.958257064663,
,0,3,5,3,5,0,11,,train_dim1_1,10,30,,,,2,0,2,0,,,,,,,,,0,0,0,0,0,9,9,9,3,0,3,0,,,,,,,,,,,,,,,,,,,,,,,,,,,,,,,,,,,,,,,,,,,,,,,,,,,,,,,,,,,,,,,,30,,,,,,,,1121.534796699998,1121.534796699998,1121.534796699998,1121.534796699998,1121.534796699998,right,0.8270766999339685,2,0,0,99,0.16,-0.16,right,0.73850149998907,,,,,,,,,,,,,,,,,,,,,,,,,,,,,,,,,,,,,,,,,,,,,,,,,,,,,,,,,,,,WJGE99,train_x,blue_star,bottom_left,2025-03-27_15h40.31.103,HideSeek_v1,2022.2.5,59.958257064663,
,0,3,5,3,5,0,11,,train_dim1_1,10,30,,,,2,0,2,0,,,,,,,,,0,0,0,0,0,9,9,9,4,0,4,0,,,,,,,,,,,,,,,,,,,,,,,,,,,,,,,,,,,,,,,,,,,,,,,,,,,,,,,,,,,,,,,,30,,,,,,,,1122.3694459000835,1122.3694459000835,1122.3694459000835,1122.3694459000835,1122.3694459000835,return,0.9767815000377595,2,1,0,0,0.16,-0.16,return,0.9004204999655485,11,24,0.16,-0.16,,,,,,,,,,,,,,,,,,,,,,,,,,,,,,,,,,,,,,,,,,,,,,,,,,,,,,,,WJGE99,train_x,blue_star,bottom_left,2025-03-27_15h40.31.103,HideSeek_v1,2022.2.5,59.958257064663,
,2,2,5,2,3,0,31,,train_dim1_1,11,30,,,,2,0,2,0,,,,,,,,,0,0,0,0,0,10,10,10,0,0,0,0,,,,,,,,,,,,,,,,,,,,,,,,,stimuli/alien_stimuli/31.png,,,,,,,,,,,,,,,,,,,,,,,,,,,,,stimuli/alien_stimuli/11.png,11,0,12,,,,,,,30,,,,,,,,1128.1113497000188,1128.1113497000188,1128.1113497000188,1128.1113497000188,1128.1113497000188,right,1.0693587999558076,2,1,0,99,0.08,-0.24,right,0.9790467000566423,,,,,1126.5393885000376,1128.1113497000188,0.24,-0.16,0.0,0.4,-0.16,0.24,0.039999999999999994,0.24,-0.16,1124.9097157000797,1124.9097157000797,1124.9097157000797,1124.9097157000797,1124.9097157000797,1124.9097157000797,1124.9097157000797,1124.9097157000797,1124.904919040005,1.737170199980028,return,1.6081765999551862,,,,,,,,,,,,,,,,,,,,,,,,,,,,,,,,,WJGE99,train_x,blue_star,bottom_left,2025-03-27_15h40.31.103,HideSeek_v1,2022.2.5,59.958257064663,
,2,2,5,2,3,0,31,,train_dim1_1,11,30,,,,2,0,2,0,,,,,,,,,0,0,0,0,0,10,10,10,1,0,1,0,,,,,,,,,,,,,,,,,,,,,,,,,,,,,,,,,,,,,,,,,,,,,,,,,,,,,,,,,,,,,,,,30,,,,,,,,1129.1717086000135,1129.1717086000135,1129.1717086000135,1129.1717086000135,1129.1717086000135,right,0.8267437999602407,2,1,0,99,0.16,-0.24,right,0.7548076999373734,,,,,,,,,,,,,,,,,,,,,,,,,,,,,,,,,,,,,,,,,,,,,,,,,,,,,,,,,,,,WJGE99,train_x,blue_star,bottom_left,2025-03-27_15h40.31.103,HideSeek_v1,2022.2.5,59.958257064663,
,2,2,5,2,3,0,31,,train_dim1_1,11,30,,,,2,0,2,0,,,,,,,,,0,0,0,0,0,10,10,10,2,0,2,0,,,,,,,,,,,,,,,,,,,,,,,,,,,,,,,,,,,,,,,,,,,,,,,,,,,,,,,,,,,,,,,,30,,,,,,,,1130.004924400011,1130.004924400011,1130.004924400011,1130.004924400011,1130.004924400011,right,0.7269798000343144,2,1,0,99,0.24,-0.24,right,0.6548695000819862,,,,,,,,,,,,,,,,,,,,,,,,,,,,,,,,,,,,,,,,,,,,,,,,,,,,,,,,,,,,WJGE99,train_x,blue_star,bottom_left,2025-03-27_15h40.31.103,HideSeek_v1,2022.2.5,59.958257064663,
,2,2,5,2,3,0,31,,train_dim1_1,11,30,,,,2,0,2,0,,,,,,,,,0,0,0,0,0,10,10,10,3,0,3,0,,,,,,,,,,,,,,,,,,,,,,,,,,,,,,,,,,,,,,,,,,,,,,,,,,,,,,,,,,,,,,,,30,,,,,,,,1130.7382230000803,1130.7382230000803,1130.7382230000803,1130.7382230000803,1130.7382230000803,right,0.6937603000551462,2,1,0,99,0.32,-0.24,right,0.6182506000623107,,,,,,,,,,,,,,,,,,,,,,,,,,,,,,,,,,,,,,,,,,,,,,,,,,,,,,,,,,,,WJGE99,train_x,blue_star,bottom_left,2025-03-27_15h40.31.103,HideSeek_v1,2022.2.5,59.958257064663,
,2,2,5,2,3,0,31,,train_dim1_1,11,30,,,,2,0,2,0,,,,,,,,,0,0,0,0,0,10,10,10,4,0,4,0,,,,,,,,,,,,,,,,,,,,,,,,,,,,,,,,,,,,,,,,,,,,,,,,,,,,,,,,,,,,,,,,30,,,,,,,,1131.4392605000176,1131.4392605000176,1131.4392605000176,1131.4392605000176,1131.4392605000176,right,0.5098212000448257,2,1,0,99,0.4,-0.24,right,0.4363939000759274,,,,,,,,,,,,,,,,,,,,,,,,,,,,,,,,,,,,,,,,,,,,,,,,,,,,,,,,,,,,WJGE99,train_x,blue_star,bottom_left,2025-03-27_15h40.31.103,HideSeek_v1,2022.2.5,59.958257064663,
,2,2,5,2,3,0,31,,train_dim1_1,11,30,,,,2,0,2,0,,,,,,,,,0,0,0,0,0,10,10,10,5,0,5,0,,,,,,,,,,,,,,,,,,,,,,,,,,,,,,,,,,,,,,,,,,,,,,,,,,,,,,,,,,,,,,,,30,,,,,,,,1131.956131300074,1131.956131300074,1131.956131300074,1131.956131300074,1131.956131300074,return,0.5770141000393778,2,0,0,0,0.4,-0.24,return,0.49376420001499355,11,29,0.4,-0.24,,,,,,,,,,,,,,,,,,,,,,,,,,,,,,,,,,,,,,,,,,,,,,,,,,,,,,,,WJGE99,train_x,blue_star,bottom_left,2025-03-27_15h40.31.103,HideSeek_v1,2022.2.5,59.958257064663,
,0,0,4,0,4,0,21,,train_dim1_1,12,30,,,,2,0,2,0,,,,,,,,,0,0,0,0,0,11,11,11,0,0,0,0,,,,,,,,,,,,,,,,,,,,,,,,,stimuli/alien_stimuli/21.png,,,,,,,,,,,,,,,,,,,,,,,,,,,,,stimuli/alien_stimuli/31.png,31,2,13,,,,,,,30,,,,,,,,1140.3475623000413,1140.3475623000413,1140.3475623000413,1140.3475623000413,1140.3475623000413,right,1.5038018999621272,2,0,0,99,-0.08,-0.4,right,1.4188534000422806,,,,,1138.7829123000847,1140.3475623000413,0.24,-0.24,0.0,0.24,-0.24,0.24,0.12,0.24,-0.24,1134.0974036999978,1134.0974036999978,1134.0974036999978,1134.0974036999978,1134.0974036999978,1134.0974036999978,1134.0974036999978,1134.0974036999978,1134.0789782199543,4.78980769996997,return,4.667233600048348,,,,,,,,,,,,,,,,,,,,,,,,,,,,,,,,,WJGE99,train_x,blue_star,bottom_left,2025-03-27_15h40.31.103,HideSeek_v1,2022.2.5,59.958257064663,
,0,0,4,0,4,0,21,,train_dim1_1,12,30,,,,2,0,2,0,,,,,,,,,0,0,0,0,0,11,11,11,1,0,1,0,,,,,,,,,,,,,,,,,,,,,,,,,,,,,,,,,,,,,,,,,,,,,,,,,,,,,,,,,,,,,,,,30,,,,,,,,1141.8517928000074,1141.8517928000074,1141.8517928000074,1141.8517928000074,1141.8517928000074,right,0.7766941000008956,2,0,0,99,0.0,-0.4,right,0.6978440000675619,,,,,,,,,,,,,,,,,,,,,,,,,,,,,,,,,,,,,,,,,,,,,,,,,,,,,,,,,,,,WJGE99,train_x,blue_star,bottom_left,2025-03-27_15h40.31.103,HideSeek_v1,2022.2.5,59.958257064663,
,0,0,4,0,4,0,21,,train_dim1_1,12,30,,,,2,0,2,0,,,,,,,,,0,0,0,0,0,11,11,11,2,0,2,0,,,,,,,,,,,,,,,,,,,,,,,,,,,,,,,,,,,,,,,,,,,,,,,,,,,,,,,,,,,,,,,,30,,,,,,,,1142.6351551000262,1142.6351551000262,1142.6351551000262,1142.6351551000262,1142.6351551000262,right,0.7602687000762671,2,0,0,99,0.08,-0.4,right,0.6754071000032127,,,,,,,,,,,,,,,,,,,,,,,,,,,,,,,,,,,,,,,,,,,,,,,,,,,,,,,,,,,,WJGE99,train_x,blue_star,bottom_left,2025-03-27_15h40.31.103,HideSeek_v1,2022.2.5,59.958257064663,
,0,0,4,0,4,0,21,,train_dim1_1,12,30,,,,2,0,2,0,,,,,,,,,0,0,0,0,0,11,11,11,3,0,3,0,,,,,,,,,,,,,,,,,,,,,,,,,,,,,,,,,,,,,,,,,,,,,,,,,,,,,,,,,,,,,,,,30,,,,,,,,1143.404267600039,1143.404267600039,1143.404267600039,1143.404267600039,1143.404267600039,right,0.6939475000835955,2,0,0,99,0.16,-0.4,right,0.6128190000308678,,,,,,,,,,,,,,,,,,,,,,,,,,,,,,,,,,,,,,,,,,,,,,,,,,,,,,,,,,,,WJGE99,train_x,blue_star,bottom_left,2025-03-27_15h40.31.103,HideSeek_v1,2022.2.5,59.958257064663,
,0,0,4,0,4,0,21,,train_dim1_1,12,30,,,,2,0,2,0,,,,,,,,,0,0,0,0,0,11,11,11,4,0,4,0,,,,,,,,,,,,,,,,,,,,,,,,,,,,,,,,,,,,,,,,,,,,,,,,,,,,,,,,,,,,,,,,30,,,,,,,,1144.1043782000197,1144.1043782000197,1144.1043782000197,1144.1043782000197,1144.1043782000197,right,0.8936329999705777,2,0,0,99,0.24,-0.4,right,0.809782600030303,,,,,,,,,,,,,,,,,,,,,,,,,,,,,,,,,,,,,,,,,,,,,,,,,,,,,,,,,,,,WJGE99,train_x,blue_star,bottom_left,2025-03-27_15h40.31.103,HideSeek_v1,2022.2.5,59.958257064663,
,0,0,4,0,4,0,21,,train_dim1_1,12,30,,,,2,0,2,0,,,,,,,,,0,0,0,0,0,11,11,11,5,0,5,0,,,,,,,,,,,,,,,,,,,,,,,,,,,,,,,,,,,,,,,,,,,,,,,,,,,,,,,,,,,,,,,,30,,,,,,,,1145.0040010000812,1145.0040010000812,1145.0040010000812,1145.0040010000812,1145.0040010000812,right,1.2443969999440014,2,0,0,99,0.32,-0.4,right,1.1606550000142306,,,,,,,,,,,,,,,,,,,,,,,,,,,,,,,,,,,,,,,,,,,,,,,,,,,,,,,,,,,,WJGE99,train_x,blue_star,bottom_left,2025-03-27_15h40.31.103,HideSeek_v1,2022.2.5,59.958257064663,
,0,0,4,0,4,0,21,,train_dim1_1,12,30,,,,2,0,2,0,,,,,,,,,0,0,0,0,0,11,11,11,6,0,6,0,,,,,,,,,,,,,,,,,,,,,,,,,,,,,,,,,,,,,,,,,,,,,,,,,,,,,,,,,,,,,,,,30,,,,,,,,1146.2588475000812,1146.2588475000812,1146.2588475000812,1146.2588475000812,1146.2588475000812,return,0.8576198000228032,2,0,0,0,0.32,-0.4,return,0.7786839000182226,11,35,0.32,-0.4,,,,,,,,,,,,,,,,,,,,,,,,,,,,,,,,,,,,,,,,,,,,,,,,,,,,,,,,WJGE99,train_x,blue_star,bottom_left,2025-03-27_15h40.31.103,HideSeek_v1,2022.2.5,59.958257064663,
,0,4,1,4,1,0,51,,train_dim1_1,13,30,,,,2,0,2,0,,,,,,,,,0,0,0,0,0,12,12,12,0,0,0,0,,,,,,,,,,,,,,,,,,,,,,,,,stimuli/alien_stimuli/51.png,,,,,,,,,,,,,,,,,,,,,,,,,,,,,stimuli/alien_stimuli/21.png,21,0,14,,,,,,,30,,,,,,,,1151.9390918000136,1151.9390918000136,1151.9390918000136,1151.9390918000136,1151.9390918000136,right,1.303145800018683,2,0,0,99,-0.08,-0.08,right,1.1990337000461295,,,,,1150.359058800037,1151.9390918000136,0.16,-0.4,0.0,0.32,-0.4,0.16,0.0,0.16,-0.4,1148.6994750000304,1148.6994750000304,1148.6994750000304,1148.6994750000304,1148.6994750000304,1148.6994750000304,1148.6994750000304,1148.6994750000304,1148.6913178600137,1.7868433000985533,return,1.6428141000214964,,,,,,,,,,,,,,,,,,,,,,,,,,,,,,,,,WJGE99,train_x,blue_star,bottom_left,2025-03-27_15h40.31.103,HideSeek_v1,2022.2.5,59.958257064663,
,0,4,1,4,1,0,51,,train_dim1_1,13,30,,,,2,0,2,0,,,,,,,,,0,0,0,0,0,12,12,12,1,0,1,0,,,,,,,,,,,,,,,,,,,,,,,,,,,,,,,,,,,,,,,,,,,,,,,,,,,,,,,,,,,,,,,,30,,,,,,,,1153.227031400078,1153.227031400078,1153.227031400078,1153.227031400078,1153.227031400078,right,1.1099188999505714,2,0,0,99,0.0,-0.08,right,1.0255403999472037,,,,,,,,,,,,,,,,,,,,,,,,,,,,,,,,,,,,,,,,,,,,,,,,,,,,,,,,,,,,WJGE99,train_x,blue_star,bottom_left,2025-03-27_15h40.31.103,HideSeek_v1,2022.2.5,59.958257064663,
,0,4,1,4,1,0,51,,train_dim1_1,13,30,,,,2,0,2,0,,,,,,,,,0,0,0,0,0,12,12,12,2,0,2,0,,,,,,,,,,,,,,,,,,,,,,,,,,,,,,,,,,,,,,,,,,,,,,,,,,,,,,,,,,,,,,,,30,,,,,,,,1154.3439414000604,1154.3439414000604,1154.3439414000604,1154.3439414000604,1154.3439414000604,return,0.7106038000201806,2,1,0,0,0.0,-0.08,return,0.6218527000164613,11,37,0.0,-0.08,,,,,,,,,,,,,,,,,,,,,,,,,,,,,,,,,,,,,,,,,,,,,,,,,,,,,,,,WJGE99,train_x,blue_star,bottom_left,2025-03-27_15h40.31.103,HideSeek_v1,2022.2.5,59.958257064663,
,4,3,9,3,5,0,11,,train_dim1_1,14,30,,,,2,0,2,0,,,,,,,,,0,0,0,0,0,13,13,13,0,0,0,0,,,,,,,,,,,,,,,,,,,,,,,,,stimuli/alien_stimuli/11.png,,,,,,,,,,,,,,,,,,,,,,,,,,,,,stimuli/alien_stimuli/51.png,51,0,15,,,,,,,30,,,,,,,,1161.4462536000647,1161.4462536000647,1161.4462536000647,1161.4462536000647,1161.4462536000647,down,1.255281399935484,2,1,0,99,0.16,-0.24,down,1.1692956000333652,,,,,1159.8838365999982,1161.4462536000647,-0.08,-0.08,0.0,0.08,-0.08,-0.08,-0.12,-0.08,-0.08,1156.6230387000833,1156.6230387000833,1156.6230387000833,1156.6230387000833,1156.6230387000833,1156.6230387000833,1156.6230387000833,1156.6230387000833,1156.614534339949,3.3714589999290183,return,3.22859569999855,,,,,,,,,,,,,,,,,,,,,,,,,,,,,,,,,WJGE99,train_x,blue_star,bottom_left,2025-03-27_15h40.31.103,HideSeek_v1,2022.2.5,59.958257064663,
,4,3,9,3,5,0,11,,train_dim1_1,14,30,,,,2,0,2,0,,,,,,,,,0,0,0,0,0,13,13,13,1,0,1,0,,,,,,,,,,,,,,,,,,,,,,,,,,,,,,,,,,,,,,,,,,,,,,,,,,,,,,,,,,,,,,,,30,,,,,,,,1162.7052080000285,1162.7052080000285,1162.7052080000285,1162.7052080000285,1162.7052080000285,down,0.8746220999164507,2,1,0,99,0.16,-0.32,down,0.7870557999704033,,,,,,,,,,,,,,,,,,,,,,,,,,,,,,,,,,,,,,,,,,,,,,,,,,,,,,,,,,,,WJGE99,train_x,blue_star,bottom_left,2025-03-27_15h40.31.103,HideSeek_v1,2022.2.5,59.958257064663,
,4,3,9,3,5,0,11,,train_dim1_1,14,30,,,,2,0,2,0,,,,,,,,,0,0,0,0,0,13,13,13,2,0,2,0,,,,,,,,,,,,,,,,,,,,,,,,,,,,,,,,,,,,,,,,,,,,,,,,,,,,,,,,,,,,,,,,30,,,,,,,,1163.5888670000713,1163.5888670000713,1163.5888670000713,1163.5888670000713,1163.5888670000713,down,0.8270616000518203,2,1,0,99,0.16,-0.4,down,0.7416325000813231,,,,,,,,,,,,,,,,,,,,,,,,,,,,,,,,,,,,,,,,,,,,,,,,,,,,,,,,,,,,WJGE99,train_x,blue_star,bottom_left,2025-03-27_15h40.31.103,HideSeek_v1,2022.2.5,59.958257064663,
,4,3,9,3,5,0,11,,train_dim1_1,14,30,,,,2,0,2,0,,,,,,,,,0,0,0,0,0,13,13,13,3,0,3,0,,,,,,,,,,,,,,,,,,,,,,,,,,,,,,,,,,,,,,,,,,,,,,,,,,,,,,,,,,,,,,,,30,,,,,,,,1164.4205472000176,1164.4205472000176,1164.4205472000176,1164.4205472000176,1164.4205472000176,return,0.9606418999610469,2,0,0,0,0.16,-0.4,return,0.8834097000071779,8,37,0.16,-0.4,,,,,,,,,,,,,,,,,,,,,,,,,,,,,,,,,,,,,,,,,,,,,,,,,,,,,,,,WJGE99,train_x,blue_star,bottom_left,2025-03-27_15h40.31.103,HideSeek_v1,2022.2.5,59.958257064663,
,4,2,4,2,0,0,61,,train_dim1_1,15,30,,,,2,0,2,0,,,,,,,,,0,0,0,0,0,14,14,14,0,0,0,0,,,,,,,,,,,,,,,,,,,,,,,,,stimuli/alien_stimuli/61.png,,,,,,,,,,,,,,,,,,,,,,,,,,,,,stimuli/alien_stimuli/11.png,11,4,16,,,,,,,30,,,,,,,,1170.484450399992,1170.484450399992,1170.484450399992,1170.484450399992,1170.484450399992,right,0.9322455000365153,2,0,0,99,0.24,-0.24,right,0.837862899992615,,,,,1168.9079392000567,1170.484450399992,0.56,-0.16,0.0,0.4,-0.16,0.56,0.36000000000000004,0.56,-0.16,1166.9638282000087,1166.9638282000087,1166.9638282000087,1166.9638282000087,1166.9638282000087,1166.9638282000087,1166.9638282000087,1166.9638282000087,1166.9566759599604,2.0704451999627054,return,1.9268935000291094,,,,,,,,,,,,,,,,,,,,,,,,,,,,,,,,,WJGE99,train_x,blue_star,bottom_left,2025-03-27_15h40.31.103,HideSeek_v1,2022.2.5,59.958257064663,
,4,2,4,2,0,0,61,,train_dim1_1,15,30,,,,2,0,2,0,,,,,,,,,0,0,0,0,0,14,14,14,1,0,1,0,,,,,,,,,,,,,,,,,,,,,,,,,,,,,,,,,,,,,,,,,,,,,,,,,,,,,,,,,,,,,,,,30,,,,,,,,1171.4069872000255,1171.4069872000255,1171.4069872000255,1171.4069872000255,1171.4069872000255,right,0.826736000017263,2,0,0,99,0.32,-0.24,right,0.7515979000600055,,,,,,,,,,,,,,,,,,,,,,,,,,,,,,,,,,,,,,,,,,,,,,,,,,,,,,,,,,,,WJGE99,train_x,blue_star,bottom_left,2025-03-27_15h40.31.103,HideSeek_v1,2022.2.5,59.958257064663,
,4,2,4,2,0,0,61,,train_dim1_1,15,30,,,,2,0,2,0,,,,,,,,,0,0,0,0,0,14,14,14,2,0,2,0,,,,,,,,,,,,,,,,,,,,,,,,,,,,,,,,,,,,,,,,,,,,,,,,,,,,,,,,,,,,,,,,30,,,,,,,,1172.2402798000257,1172.2402798000257,1172.2402798000257,1172.2402798000257,1172.2402798000257,return,0.8098623999394476,2,0,0,0,0.32,-0.24,return,0.7363071000436321,8,39,0.32,-0.24,,,,,,,,,,,,,,,,,,,,,,,,,,,,,,,,,,,,,,,,,,,,,,,,,,,,,,,,WJGE99,train_x,blue_star,bottom_left,2025-03-27_15h40.31.103,HideSeek_v1,2022.2.5,59.958257064663,
,3,3,4,3,1,0,51,,train_dim1_1,16,30,,,,2,0,2,0,,,,,,,,,0,0,0,0,0,15,15,15,0,0,0,0,,,,,,,,,,,,,,,,,,,,,,,,,stimuli/alien_stimuli/51.png,,,,,,,,,,,,,,,,,,,,,,,,,,,,,stimuli/alien_stimuli/61.png,61,4,17,,,,,,,30,,,,,,,,1178.1330660000676,1178.1330660000676,1178.1330660000676,1178.1330660000676,1178.1330660000676,return,1.0933785000815988,2,1,0,0,0.08,-0.16,return,0.9967246999731287,8,39,0.08,-0.16,1176.5476756000426,1178.1330660000676,0.16,-0.24,0.0,0.0,-0.24,0.16,0.16,0.16,-0.24,1174.620466900058,1174.620466900058,1174.620466900058,1174.620466900058,1174.620466900058,1174.620466900058,1174.620466900058,1174.620466900058,1174.6129780399729,2.037105099996552,return,1.9070819999324158,,,,,,,,,,,,,,,,,,,,,,,,,,,,,,,,,WJGE99,train_x,blue_star,bottom_left,2025-03-27_15h40.31.103,HideSeek_v1,2022.2.5,59.958257064663,
,2,4,6,4,4,0,21,,train_dim1_1,17,30,,,,2,0,2,0,,,,,,,,,0,0,0,0,0,16,16,16,0,0,0,0,,,,,,,,,,,,,,,,,,,,,,,,,stimuli/alien_stimuli/21.png,,,,,,,,,,,,,,,,,,,,,,,,,,,,,stimuli/alien_stimuli/51.png,51,3,18,,,,,,,30,,,,,,,,1184.5352770000463,1184.5352770000463,1184.5352770000463,1184.5352770000463,1184.5352770000463,right,0.9684755000052974,2,1,0,99,0.08,-0.08,right,0.8818676000228152,,,,,1182.9697177000344,1184.5352770000463,0.16,-0.16,0.0,0.08,-0.16,0.16,0.12,0.16,-0.16,1180.775358700077,1180.775358700077,1180.775358700077,1180.775358700077,1180.775358700077,1180.775358700077,1180.775358700077,1180.775358700077,1180.7679002399905,2.304078499902971,return,2.1752617000602186,,,,,,,,,,,,,,,,,,,,,,,,,,,,,,,,,WJGE99,train_x,blue_star,bottom_left,2025-03-27_15h40.31.103,HideSeek_v1,2022.2.5,59.958257064663,
,2,4,6,4,4,0,21,,train_dim1_1,17,30,,,,2,0,2,0,,,,,,,,,0,0,0,0,0,16,16,16,1,0,1,0,,,,,,,,,,,,,,,,,,,,,,,,,,,,,,,,,,,,,,,,,,,,,,,,,,,,,,,,,,,,,,,,30,,,,,,,,1185.5045085001038,1185.5045085001038,1185.5045085001038,1185.5045085001038,1185.5045085001038,return,1.193553699995391,2,0,0,0,0.08,-0.08,return,1.1138414000160992,8,40,0.08,-0.08,,,,,,,,,,,,,,,,,,,,,,,,,,,,,,,,,,,,,,,,,,,,,,,,,,,,,,,,WJGE99,train_x,blue_star,bottom_left,2025-03-27_15h40.31.103,HideSeek_v1,2022.2.5,59.958257064663,
,2,1,2,1,0,0,61,,train_dim1_1,18,30,,,,2,0,2,0,,,,,,,,,0,0,0,0,0,17,17,17,0,0,0,0,,,,,,,,,,,,,,,,,,,,,,,,,stimuli/alien_stimuli/61.png,,,,,,,,,,,,,,,,,,,,,,,,,,,,,stimuli/alien_stimuli/21.png,21,2,19,,,,,,,30,,,,,,,,1191.1963346000994,1191.1963346000994,1191.1963346000994,1191.1963346000994,1191.1963346000994,right,1.0776903999503702,2,0,0,99,0.08,-0.32,right,0.9975364999845624,,,,,1189.625080500031,1191.1963346000994,0.32,-0.08,0.0,0.32,-0.08,0.32,0.16,0.32,-0.08,1188.269575900049,1188.269575900049,1188.269575900049,1188.269575900049,1188.269575900049,1188.269575900049,1188.269575900049,1188.269575900049,1188.2575494399875,1.4696177000878379,return,1.3287121000466868,,,,,,,,,,,,,,,,,,,,,,,,,,,,,,,,,WJGE99,train_x,blue_star,bottom_left,2025-03-27_15h40.31.103,HideSeek_v1,2022.2.5,59.958257064663,
,2,1,2,1,0,0,61,,train_dim1_1,18,30,,,,2,0,2,0,,,,,,,,,0,0,0,0,0,17,17,17,1,0,1,0,,,,,,,,,,,,,,,,,,,,,,,,,,,,,,,,,,,,,,,,,,,,,,,,,,,,,,,,,,,,,,,,30,,,,,,,,1192.2755165999988,1192.2755165999988,1192.2755165999988,1192.2755165999988,1192.2755165999988,right,0.6593782000709325,2,0,0,99,0.16,-0.32,right,0.574843299924396,,,,,,,,,,,,,,,,,,,,,,,,,,,,,,,,,,,,,,,,,,,,,,,,,,,,,,,,,,,,WJGE99,train_x,blue_star,bottom_left,2025-03-27_15h40.31.103,HideSeek_v1,2022.2.5,59.958257064663,
,2,1,2,1,0,0,61,,train_dim1_1,18,30,,,,2,0,2,0,,,,,,,,,0,0,0,0,0,17,17,17,2,0,2,0,,,,,,,,,,,,,,,,,,,,,,,,,,,,,,,,,,,,,,,,,,,,,,,,,,,,,,,,,,,,,,,,30,,,,,,,,1192.9412333000218,1192.9412333000218,1192.9412333000218,1192.9412333000218,1192.9412333000218,right,0.6757556999800727,2,0,0,99,0.24,-0.32,right,0.5966512000886723,,,,,,,,,,,,,,,,,,,,,,,,,,,,,,,,,,,,,,,,,,,,,,,,,,,,,,,,,,,,WJGE99,train_x,blue_star,bottom_left,2025-03-27_15h40.31.103,HideSeek_v1,2022.2.5,59.958257064663,
,2,1,2,1,0,0,61,,train_dim1_1,18,30,,,,2,0,2,0,,,,,,,,,0,0,0,0,0,17,17,17,3,0,3,0,,,,,,,,,,,,,,,,,,,,,,,,,,,,,,,,,,,,,,,,,,,,,,,,,,,,,,,,,,,,,,,,30,,,,,,,,1193.6243565999903,1193.6243565999903,1193.6243565999903,1193.6243565999903,1193.6243565999903,return,0.5762520000571385,2,0,0,0,0.24,-0.32,return,0.504928799928166,8,43,0.24,-0.32,,,,,,,,,,,,,,,,,,,,,,,,,,,,,,,,,,,,,,,,,,,,,,,,,,,,,,,,WJGE99,train_x,blue_star,bottom_left,2025-03-27_15h40.31.103,HideSeek_v1,2022.2.5,59.958257064663,
,0,3,3,3,3,0,31,,train_dim1_1,19,30,,,,2,0,2,0,,,,,,,,,0,0,0,0,0,18,18,18,0,0,0,0,,,,,,,,,,,,,,,,,,,,,,,,,stimuli/alien_stimuli/31.png,,,,,,,,,,,,,,,,,,,,,,,,,,,,,stimuli/alien_stimuli/61.png,61,2,20,,,,,,,30,,,,,,,,1198.6930462000892,1198.6930462000892,1198.6930462000892,1198.6930462000892,1198.6930462000892,right,0.7848121999995783,2,0,0,99,-0.08,-0.16,right,0.6790243000723422,,,,,1197.1146246000426,1198.6930462000892,0,-0.32,0.0,0.0,-0.32,0,0.0,0,-0.32,1195.7654921000358,1195.7654921000358,1195.7654921000358,1195.7654921000358,1195.7654921000358,1195.7654921000358,1195.7654921000358,1195.7654921000358,1195.7470454200636,1.453644399996847,return,1.3279246999882162,,,,,,,,,,,,,,,,,,,,,,,,,,,,,,,,,WJGE99,train_x,blue_star,bottom_left,2025-03-27_15h40.31.103,HideSeek_v1,2022.2.5,59.958257064663,
,0,3,3,3,3,0,31,,train_dim1_1,19,30,,,,2,0,2,0,,,,,,,,,0,0,0,0,0,18,18,18,1,0,1,0,,,,,,,,,,,,,,,,,,,,,,,,,,,,,,,,,,,,,,,,,,,,,,,,,,,,,,,,,,,,,,,,30,,,,,,,,1199.4637558000395,1199.4637558000395,1199.4637558000395,1199.4637558000395,1199.4637558000395,right,0.6263579999795184,2,0,0,99,0.0,-0.16,right,0.5433737999992445,,,,,,,,,,,,,,,,,,,,,,,,,,,,,,,,,,,,,,,,,,,,,,,,,,,,,,,,,,,,WJGE99,train_x,blue_star,bottom_left,2025-03-27_15h40.31.103,HideSeek_v1,2022.2.5,59.958257064663,
,0,3,3,3,3,0,31,,train_dim1_1,19,30,,,,2,0,2,0,,,,,,,,,0,0,0,0,0,18,18,18,2,0,2,0,,,,,,,,,,,,,,,,,,,,,,,,,,,,,,,,,,,,,,,,,,,,,,,,,,,,,,,,,,,,,,,,30,,,,,,,,1200.0961003000848,1200.0961003000848,1200.0961003000848,1200.0961003000848,1200.0961003000848,right,0.7939617999363691,2,0,0,99,0.08,-0.16,right,0.7179272000212222,,,,,,,,,,,,,,,,,,,,,,,,,,,,,,,,,,,,,,,,,,,,,,,,,,,,,,,,,,,,WJGE99,train_x,blue_star,bottom_left,2025-03-27_15h40.31.103,HideSeek_v1,2022.2.5,59.958257064663,
,0,3,3,3,3,0,31,,train_dim1_1,19,30,,,,2,0,2,0,,,,,,,,,0,0,0,0,0,18,18,18,3,0,3,0,,,,,,,,,,,,,,,,,,,,,,,,,,,,,,,,,,,,,,,,,,,,,,,,,,,,,,,,,,,,,,,,30,,,,,,,,1200.8971790000796,1200.8971790000796,1200.8971790000796,1200.8971790000796,1200.8971790000796,right,0.7268269000342116,2,0,0,99,0.16,-0.16,right,0.6491846999851987,,,,,,,,,,,,,,,,,,,,,,,,,,,,,,,,,,,,,,,,,,,,,,,,,,,,,,,,,,,,WJGE99,train_x,blue_star,bottom_left,2025-03-27_15h40.31.103,HideSeek_v1,2022.2.5,59.958257064663,
,0,3,3,3,3,0,31,,train_dim1_1,19,30,,,,2,0,2,0,,,,,,,,,0,0,0,0,0,18,18,18,4,0,4,0,,,,,,,,,,,,,,,,,,,,,,,,,,,,,,,,,,,,,,,,,,,,,,,,,,,,,,,,,,,,,,,,30,,,,,,,,1201.632768200012,1201.632768200012,1201.632768200012,1201.632768200012,1201.632768200012,right,1.0760848000645638,2,0,0,99,0.24,-0.16,right,0.9995547001017258,,,,,,,,,,,,,,,,,,,,,,,,,,,,,,,,,,,,,,,,,,,,,,,,,,,,,,,,,,,,WJGE99,train_x,blue_star,bottom_left,2025-03-27_15h40.31.103,HideSeek_v1,2022.2.5,59.958257064663,
,0,3,3,3,3,0,31,,train_dim1_1,19,30,,,,2,0,2,0,,,,,,,,,0,0,0,0,0,18,18,18,5,0,5,0,,,,,,,,,,,,,,,,,,,,,,,,,,,,,,,,,,,,,,,,,,,,,,,,,,,,,,,,,,,,,,,,30,,,,,,,,1202.7154889000813,1202.7154889000813,1202.7154889000813,1202.7154889000813,1202.7154889000813,return,1.6608833000063896,2,0,0,0,0.24,-0.16,return,1.5893680000444874,8,48,0.24,-0.16,,,,,,,,,,,,,,,,,,,,,,,,,,,,,,,,,,,,,,,,,,,,,,,,,,,,,,,,WJGE99,train_x,blue_star,bottom_left,2025-03-27_15h40.31.103,HideSeek_v1,2022.2.5,59.958257064663,
,0,1,5,1,5,0,11,,train_dim1_1,20,30,,,,2,0,2,0,,,,,,,,,0,0,0,0,0,19,19,19,0,0,0,0,,,,,,,,,,,,,,,,,,,,,,,,,stimuli/alien_stimuli/11.png,,,,,,,,,,,,,,,,,,,,,,,,,,,,,stimuli/alien_stimuli/31.png,31,0,21,,,,,,,30,,,,,,,,1209.8026163000613,1209.8026163000613,1209.8026163000613,1209.8026163000613,1209.8026163000613,up,0.8543385000666603,2,0,0,99,-0.16,-0.24,up,0.7576777000213042,,,,,1208.223836200079,1209.8026163000613,0.08,-0.16,0.0,0.24,-0.16,0.08,-0.04,0.08,-0.16,1205.9410573000787,1205.9410573000787,1205.9410573000787,1205.9410573000787,1205.9410573000787,1205.9410573000787,1205.9410573000787,1205.9410573000787,1205.9222235200693,2.387667200062424,return,2.2613724999828264,,,,,,,,,,,,,,,,,,,,,,,,,,,,,,,,,WJGE99,train_x,blue_star,bottom_left,2025-03-27_15h40.31.103,HideSeek_v1,2022.2.5,59.958257064663,
,0,1,5,1,5,0,11,,train_dim1_1,20,30,,,,2,0,2,0,,,,,,,,,0,0,0,0,0,19,19,19,1,0,1,0,,,,,,,,,,,,,,,,,,,,,,,,,,,,,,,,,,,,,,,,,,,,,,,,,,,,,,,,,,,,,,,,30,,,,,,,,1210.643175000092,1210.643175000092,1210.643175000092,1210.643175000092,1210.643175000092,up,0.759800500003621,2,0,0,99,-0.16,-0.15999999999999998,up,0.6843827000120655,,,,,,,,,,,,,,,,,,,,,,,,,,,,,,,,,,,,,,,,,,,,,,,,,,,,,,,,,,,,WJGE99,train_x,blue_star,bottom_left,2025-03-27_15h40.31.103,HideSeek_v1,2022.2.5,59.958257064663,
,0,1,5,1,5,0,11,,train_dim1_1,20,30,,,,2,0,2,0,,,,,,,,,0,0,0,0,0,19,19,19,2,0,2,0,,,,,,,,,,,,,,,,,,,,,,,,,,,,,,,,,,,,,,,,,,,,,,,,,,,,,,,,,,,,,,,,30,,,,,,,,1211.4110107000452,1211.4110107000452,1211.4110107000452,1211.4110107000452,1211.4110107000452,right,0.8264009000267833,2,0,0,99,-0.08,-0.15999999999999998,right,0.7447537999833003,,,,,,,,,,,,,,,,,,,,,,,,,,,,,,,,,,,,,,,,,,,,,,,,,,,,,,,,,,,,WJGE99,train_x,blue_star,bottom_left,2025-03-27_15h40.31.103,HideSeek_v1,2022.2.5,59.958257064663,
,0,1,5,1,5,0,11,,train_dim1_1,20,30,,,,2,0,2,0,,,,,,,,,0,0,0,0,0,19,19,19,3,0,3,0,,,,,,,,,,,,,,,,,,,,,,,,,,,,,,,,,,,,,,,,,,,,,,,,,,,,,,,,,,,,,,,,30,,,,,,,,1212.2436170000583,1212.2436170000583,1212.2436170000583,1212.2436170000583,1212.2436170000583,right,0.9107927000150084,2,0,0,99,0.0,-0.15999999999999998,right,0.8332014000043273,,,,,,,,,,,,,,,,,,,,,,,,,,,,,,,,,,,,,,,,,,,,,,,,,,,,,,,,,,,,WJGE99,train_x,blue_star,bottom_left,2025-03-27_15h40.31.103,HideSeek_v1,2022.2.5,59.958257064663,
,0,1,5,1,5,0,11,,train_dim1_1,20,30,,,,2,0,2,0,,,,,,,,,0,0,0,0,0,19,19,19,4,0,4,0,,,,,,,,,,,,,,,,,,,,,,,,,,,,,,,,,,,,,,,,,,,,,,,,,,,,,,,,,,,,,,,,30,,,,,,,,1213.162436200073,1213.162436200073,1213.162436200073,1213.162436200073,1213.162436200073,return,0.8102917999494821,2,0,0,0,0.0,-0.15999999999999998,return,0.7306374000618234,10,50,0.0,-0.15999999999999998,,,,,,,,,,,,,,,,,,,,,,,,,,,,,,,,,,,,,,,,,,,,,,,,,,,,,,,,WJGE99,train_x,blue_star,bottom_left,2025-03-27_15h40.31.103,HideSeek_v1,2022.2.5,59.958257064663,
,4,2,7,2,3,0,31,,train_dim1_1,21,30,,,,2,0,2,0,,,,,,,,,0,0,0,0,0,20,20,20,0,0,0,0,,,,,,,,,,,,,,,,,,,,,,,,,stimuli/alien_stimuli/31.png,,,,,,,,,,,,,,,,,,,,,,,,,,,,,stimuli/alien_stimuli/11.png,11,0,22,,,,,,,30,,,,,,,,1219.7267837000545,1219.7267837000545,1219.7267837000545,1219.7267837000545,1219.7267837000545,right,0.9017088999971747,2,0,0,99,0.24,-0.24,right,0.8144791000522673,,,,,1218.165438600001,1219.7267837000545,0.24,-0.32,0.0,0.4,-0.32,0.24,0.039999999999999994,0.24,-0.32,1215.5405781000154,1215.5405781000154,1215.5405781000154,1215.5405781000154,1215.5405781000154,1215.5405781000154,1215.5405781000154,1215.5405781000154,1215.5303620400023,2.7373628000495955,return,2.59978770010639,,,,,,,,,,,,,,,,,,,,,,,,,,,,,,,,,WJGE99,train_x,blue_star,bottom_left,2025-03-27_15h40.31.103,HideSeek_v1,2022.2.5,59.958257064663,
,4,2,7,2,3,0,31,,train_dim1_1,21,30,,,,2,0,2,0,,,,,,,,,0,0,0,0,0,20,20,20,1,0,1,0,,,,,,,,,,,,,,,,,,,,,,,,,,,,,,,,,,,,,,,,,,,,,,,,,,,,,,,,,,,,,,,,30,,,,,,,,1220.6315149000147,1220.6315149000147,1220.6315149000147,1220.6315149000147,1220.6315149000147,right,0.8601583000272512,2,0,0,99,0.32,-0.24,right,0.7777707000495866,,,,,,,,,,,,,,,,,,,,,,,,,,,,,,,,,,,,,,,,,,,,,,,,,,,,,,,,,,,,WJGE99,train_x,blue_star,bottom_left,2025-03-27_15h40.31.103,HideSeek_v1,2022.2.5,59.958257064663,
,4,2,7,2,3,0,31,,train_dim1_1,21,30,,,,2,0,2,0,,,,,,,,,0,0,0,0,0,20,20,20,2,0,2,0,,,,,,,,,,,,,,,,,,,,,,,,,,,,,,,,,,,,,,,,,,,,,,,,,,,,,,,,,,,,,,,,30,,,,,,,,1221.497320500086,1221.497320500086,1221.497320500086,1221.497320500086,1221.497320500086,right,0.9436812000349164,2,0,0,99,0.4,-0.24,right,0.8568602999439463,,,,,,,,,,,,,,,,,,,,,,,,,,,,,,,,,,,,,,,,,,,,,,,,,,,,,,,,,,,,WJGE99,train_x,blue_star,bottom_left,2025-03-27_15h40.31.103,HideSeek_v1,2022.2.5,59.958257064663,
,4,2,7,2,3,0,31,,train_dim1_1,21,30,,,,2,0,2,0,,,,,,,,,0,0,0,0,0,20,20,20,3,0,3,0,,,,,,,,,,,,,,,,,,,,,,,,,,,,,,,,,,,,,,,,,,,,,,,,,,,,,,,,,,,,,,,,30,,,,,,,,1222.4490411001025,1222.4490411001025,1222.4490411001025,1222.4490411001025,1222.4490411001025,return,0.8770255000563338,3,0,0,1,0.4,-0.24,return,0.7897366000106558,10,53,0.4,-0.24,,,,,,,,,,,,,,,,,,,,,,,,,,,,,,,,,,,,,,,,,,,,,,,,,,,,,,,,WJGE99,train_x,blue_star,bottom_left,2025-03-27_15h40.31.103,HideSeek_v1,2022.2.5,59.958257064663,
,1,0,5,0,4,0,21,,train_dim1_1,22,30,,,,2,0,2,0,,,,,,,,,0,0,0,0,0,21,21,21,0,0,0,0,,,,,,,,,,,,,,,,,,,,,,,,,stimuli/alien_stimuli/21.png,,,,,,,,,,,,,,,,,,,,,,,,,,,,,stimuli/alien_stimuli/31.png,31,4,23,,,,,,,30,,,,,,,,1227.9198878000025,1227.9198878000025,1227.9198878000025,1227.9198878000025,1227.9198878000025,return,0.8682568999938667,3,0,0,0,-0.08,-0.4,return,0.7704598000273108,10,53,-0.08,-0.4,1226.3388218000764,1227.9198878000025,0.4,-0.24,0.0,0.24,-0.24,0.4,0.28,0.4,-0.24,1224.8921554000117,1224.8921554000117,1224.8921554000117,1224.8921554000117,1224.8921554000117,1224.8921554000117,1224.8921554000117,1224.8921554000117,1224.8711484199855,1.5533308999147266,return,1.4166923000011593,,,,,,,,,,,,,,,,,,,,,,,,,,,,,,,,,WJGE99,train_x,blue_star,bottom_left,2025-03-27_15h40.31.103,HideSeek_v1,2022.2.5,59.958257064663,
,2,1,2,1,0,0,61,,train_dim1_1,23,30,,,,2,0,2,0,,,,,,,,,0,0,0,0,0,22,22,22,0,0,0,0,,,,,,,,,,,,,,,,,,,,,,,,,stimuli/alien_stimuli/61.png,,,,,,,,,,,,,,,,,,,,,,,,,,,,,stimuli/alien_stimuli/21.png,21,1,24,,,,,,,30,,,,,,,,1233.4557265000185,1233.4557265000185,1233.4557265000185,1233.4557265000185,1233.4557265000185,right,1.0850996999070048,3,0,0,99,0.08,-0.32,right,0.9916493999771774,,,,,1231.8935904999962,1233.4557265000185,0.24,-0.4,0.0,0.32,-0.4,0.24,0.07999999999999999,0.24,-0.4,1230.3346288000466,1230.3346288000466,1230.3346288000466,1230.3346288000466,1230.3346288000466,1230.3346288000466,1230.3346288000466,1230.3346288000466,1230.3256848400574,1.6704474000725895,return,1.5379249000689015,,,,,,,,,,,,,,,,,,,,,,,,,,,,,,,,,WJGE99,train_x,blue_star,bottom_left,2025-03-27_15h40.31.103,HideSeek_v1,2022.2.5,59.958257064663,
,2,1,2,1,0,0,61,,train_dim1_1,23,30,,,,2,0,2,0,,,,,,,,,0,0,0,0,0,22,22,22,1,0,1,0,,,,,,,,,,,,,,,,,,,,,,,,,,,,,,,,,,,,,,,,,,,,,,,,,,,,,,,,,,,,,,,,30,,,,,,,,1234.5417553000152,1234.5417553000152,1234.5417553000152,1234.5417553000152,1234.5417553000152,right,0.7095027999021113,3,0,0,99,0.16,-0.32,right,0.6231140000745654,,,,,,,,,,,,,,,,,,,,,,,,,,,,,,,,,,,,,,,,,,,,,,,,,,,,,,,,,,,,WJGE99,train_x,blue_star,bottom_left,2025-03-27_15h40.31.103,HideSeek_v1,2022.2.5,59.958257064663,
,2,1,2,1,0,0,61,,train_dim1_1,23,30,,,,2,0,2,0,,,,,,,,,0,0,0,0,0,22,22,22,2,0,2,0,,,,,,,,,,,,,,,,,,,,,,,,,,,,,,,,,,,,,,,,,,,,,,,,,,,,,,,,,,,,,,,,30,,,,,,,,1235.2591138000134,1235.2591138000134,1235.2591138000134,1235.2591138000134,1235.2591138000134,return,0.743726700078696,3,0,0,0,0.16,-0.32,return,0.6642763001145795,10,55,0.16,-0.32,,,,,,,,,,,,,,,,,,,,,,,,,,,,,,,,,,,,,,,,,,,,,,,,,,,,,,,,WJGE99,train_x,blue_star,bottom_left,2025-03-27_15h40.31.103,HideSeek_v1,2022.2.5,59.958257064663,
,4,4,5,4,1,0,51,,train_dim1_1,24,30,,,,2,0,2,0,,,,,,,,,0,0,0,0,0,23,23,23,0,0,0,0,,,,,,,,,,,,,,,,,,,,,,,,,stimuli/alien_stimuli/51.png,,,,,,,,,,,,,,,,,,,,,,,,,,,,,stimuli/alien_stimuli/61.png,61,2,25,,,,,,,30,,,,,,,,1240.6082604000112,1240.6082604000112,1240.6082604000112,1240.6082604000112,1240.6082604000112,up,0.7530482999281958,3,0,0,99,0.16,0.0,up,0.6465491999406368,,,,,1239.0328585000243,1240.6082604000112,0,-0.32,0.0,0.0,-0.32,0,0.0,0,-0.32,1237.5659323000582,1237.5659323000582,1237.5659323000582,1237.5659323000582,1237.5659323000582,1237.5659323000582,1237.5659323000582,1237.5659323000582,1237.548445920064,1.5703404999803752,return,1.4496435000328347,,,,,,,,,,,,,,,,,,,,,,,,,,,,,,,,,WJGE99,train_x,blue_star,bottom_left,2025-03-27_15h40.31.103,HideSeek_v1,2022.2.5,59.958257064663,
,4,4,5,4,1,0,51,,train_dim1_1,24,30,,,,2,0,2,0,,,,,,,,,0,0,0,0,0,23,23,23,1,0,1,0,,,,,,,,,,,,,,,,,,,,,,,,,,,,,,,,,,,,,,,,,,,,,,,,,,,,,,,,,,,,,,,,30,,,,,,,,1241.3500944999978,1241.3500944999978,1241.3500944999978,1241.3500944999978,1241.3500944999978,up,0.5761776999570429,3,0,0,99,0.16,0.08,up,0.4880809000460431,,,,,,,,,,,,,,,,,,,,,,,,,,,,,,,,,,,,,,,,,,,,,,,,,,,,,,,,,,,,WJGE99,train_x,blue_star,bottom_left,2025-03-27_15h40.31.103,HideSeek_v1,2022.2.5,59.958257064663,
,4,4,5,4,1,0,51,,train_dim1_1,24,30,,,,2,0,2,0,,,,,,,,,0,0,0,0,0,23,23,23,2,0,2,0,,,,,,,,,,,,,,,,,,,,,,,,,,,,,,,,,,,,,,,,,,,,,,,,,,,,,,,,,,,,,,,,30,,,,,,,,1241.933219700004,1241.933219700004,1241.933219700004,1241.933219700004,1241.933219700004,up,0.544077800004743,3,0,0,99,0.16,0.16,up,0.45931710000149906,,,,,,,,,,,,,,,,,,,,,,,,,,,,,,,,,,,,,,,,,,,,,,,,,,,,,,,,,,,,WJGE99,train_x,blue_star,bottom_left,2025-03-27_15h40.31.103,HideSeek_v1,2022.2.5,59.958257064663,
,4,4,5,4,1,0,51,,train_dim1_1,24,30,,,,2,0,2,0,,,,,,,,,0,0,0,0,0,23,23,23,3,0,3,0,,,,,,,,,,,,,,,,,,,,,,,,,,,,,,,,,,,,,,,,,,,,,,,,,,,,,,,,,,,,,,,,30,,,,,,,,1242.4840392000042,1242.4840392000042,1242.4840392000042,1242.4840392000042,1242.4840392000042,up,0.5097730000270531,3,0,0,99,0.16,0.24,up,0.43166549992747605,,,,,,,,,,,,,,,,,,,,,,,,,,,,,,,,,,,,,,,,,,,,,,,,,,,,,,,,,,,,WJGE99,train_x,blue_star,bottom_left,2025-03-27_15h40.31.103,HideSeek_v1,2022.2.5,59.958257064663,
,4,4,5,4,1,0,51,,train_dim1_1,24,30,,,,2,0,2,0,,,,,,,,,0,0,0,0,0,23,23,23,4,0,4,0,,,,,,,,,,,,,,,,,,,,,,,,,,,,,,,,,,,,,,,,,,,,,,,,,,,,,,,,,,,,,,,,30,,,,,,,,1243.0021323000547,1243.0021323000547,1243.0021323000547,1243.0021323000547,1243.0021323000547,return,0.610273199970834,3,0,0,0,0.16,0.24,return,0.5265403999947011,14,55,0.16,0.24,,,,,,,,,,,,,,,,,,,,,,,,,,,,,,,,,,,,,,,,,,,,,,,,,,,,,,,,WJGE99,train_x,blue_star,bottom_left,2025-03-27_15h40.31.103,HideSeek_v1,2022.2.5,59.958257064663,
,3,0,8,0,5,0,11,,train_dim1_1,25,30,,,,2,0,2,0,,,,,,,,,0,0,0,0,0,24,24,24,0,0,0,0,,,,,,,,,,,,,,,,,,,,,,,,,stimuli/alien_stimuli/11.png,,,,,,,,,,,,,,,,,,,,,,,,,,,,,stimuli/alien_stimuli/51.png,51,4,26,,,,,,,30,,,,,,,,1248.1228367000585,1248.1228367000585,1248.1228367000585,1248.1228367000585,1248.1228367000585,right,1.5023720000172034,3,0,0,99,0.16,-0.4,right,1.3920999000547454,,,,,1246.5389985000947,1248.1228367000585,0.24,-0.08,0.0,0.08,-0.08,0.24,0.2,0.24,-0.08,1245.1812260000734,1245.1812260000734,1245.1812260000734,1245.1812260000734,1245.1812260000734,1245.1812260000734,1245.1812260000734,1245.1812260000734,1245.1713725400273,1.4700187999987975,return,1.3364824000746012,,,,,,,,,,,,,,,,,,,,,,,,,,,,,,,,,WJGE99,train_x,blue_star,bottom_left,2025-03-27_15h40.31.103,HideSeek_v1,2022.2.5,59.958257064663,
,3,0,8,0,5,0,11,,train_dim1_1,25,30,,,,2,0,2,0,,,,,,,,,0,0,0,0,0,24,24,24,1,0,1,0,,,,,,,,,,,,,,,,,,,,,,,,,,,,,,,,,,,,,,,,,,,,,,,,,,,,,,,,,,,,,,,,30,,,,,,,,1249.6088452000404,1249.6088452000404,1249.6088452000404,1249.6088452000404,1249.6088452000404,right,0.625985199934803,3,0,0,99,0.24,-0.4,right,0.5508287999546155,,,,,,,,,,,,,,,,,,,,,,,,,,,,,,,,,,,,,,,,,,,,,,,,,,,,,,,,,,,,WJGE99,train_x,blue_star,bottom_left,2025-03-27_15h40.31.103,HideSeek_v1,2022.2.5,59.958257064663,
,3,0,8,0,5,0,11,,train_dim1_1,25,30,,,,2,0,2,0,,,,,,,,,0,0,0,0,0,24,24,24,2,0,2,0,,,,,,,,,,,,,,,,,,,,,,,,,,,,,,,,,,,,,,,,,,,,,,,,,,,,,,,,,,,,,,,,30,,,,,,,,1250.2413014000049,1250.2413014000049,1250.2413014000049,1250.2413014000049,1250.2413014000049,right,0.5770308000501245,3,0,0,99,0.32,-0.4,right,0.48944889998529106,,,,,,,,,,,,,,,,,,,,,,,,,,,,,,,,,,,,,,,,,,,,,,,,,,,,,,,,,,,,WJGE99,train_x,blue_star,bottom_left,2025-03-27_15h40.31.103,HideSeek_v1,2022.2.5,59.958257064663,
,3,0,8,0,5,0,11,,train_dim1_1,25,30,,,,2,0,2,0,,,,,,,,,0,0,0,0,0,24,24,24,3,0,3,0,,,,,,,,,,,,,,,,,,,,,,,,,,,,,,,,,,,,,,,,,,,,,,,,,,,,,,,,,,,,,,,,30,,,,,,,,1250.8252550000325,1250.8252550000325,1250.8252550000325,1250.8252550000325,1250.8252550000325,right,0.5435365999583155,3,0,0,99,0.4,-0.4,right,0.4669189000269398,,,,,,,,,,,,,,,,,,,,,,,,,,,,,,,,,,,,,,,,,,,,,,,,,,,,,,,,,,,,WJGE99,train_x,blue_star,bottom_left,2025-03-27_15h40.31.103,HideSeek_v1,2022.2.5,59.958257064663,
,3,0,8,0,5,0,11,,train_dim1_1,25,30,,,,2,0,2,0,,,,,,,,,0,0,0,0,0,24,24,24,4,0,4,0,,,,,,,,,,,,,,,,,,,,,,,,,,,,,,,,,,,,,,,,,,,,,,,,,,,,,,,,,,,,,,,,30,,,,,,,,1251.3763323000167,1251.3763323000167,1251.3763323000167,1251.3763323000167,1251.3763323000167,right,0.5267761000432074,3,0,0,99,0.48000000000000004,-0.4,right,0.439003000035882,,,,,,,,,,,,,,,,,,,,,,,,,,,,,,,,,,,,,,,,,,,,,,,,,,,,,,,,,,,,WJGE99,train_x,blue_star,bottom_left,2025-03-27_15h40.31.103,HideSeek_v1,2022.2.5,59.958257064663,
,3,0,8,0,5,0,11,,train_dim1_1,25,30,,,,2,0,2,0,,,,,,,,,0,0,0,0,0,24,24,24,5,0,5,0,,,,,,,,,,,,,,,,,,,,,,,,,,,,,,,,,,,,,,,,,,,,,,,,,,,,,,,,,,,,,,,,30,,,,,,,,1251.9096059000585,1251.9096059000585,1251.9096059000585,1251.9096059000585,1251.9096059000585,return,0.6271544999908656,4,0,0,1,0.48000000000000004,-0.4,return,0.5414645998971537,14,60,0.48000000000000004,-0.4,,,,,,,,,,,,,,,,,,,,,,,,,,,,,,,,,,,,,,,,,,,,,,,,,,,,,,,,WJGE99,train_x,blue_star,bottom_left,2025-03-27_15h40.31.103,HideSeek_v1,2022.2.5,59.958257064663,
,1,1,1,1,0,0,61,,train_dim1_1,26,30,,,,2,0,2,0,,,,,,,,,0,0,0,0,0,25,25,25,0,0,0,0,,,,,,,,,,,,,,,,,,,,,,,,,stimuli/alien_stimuli/61.png,,,,,,,,,,,,,,,,,,,,,,,,,,,,,stimuli/alien_stimuli/11.png,11,3,27,,,,,,,30,,,,,,,,1257.3155483000446,1257.3155483000446,1257.3155483000446,1257.3155483000446,1257.3155483000446,return,1.4536679000593722,5,0,0,1,-0.08,-0.32,return,1.3667397999670357,14,60,-0.08,-0.32,1255.74668500002,1257.3155483000446,0.48,-0.4,0.0,0.4,-0.4,0.48,0.27999999999999997,0.48,-0.4,1254.1014571000123,1254.1014571000123,1254.1014571000123,1254.1014571000123,1254.1014571000123,1254.1014571000123,1254.1014571000123,1254.1014571000123,1254.0954342400305,1.7534092999994755,return,1.619325099978596,,,,,,,,,,,,,,,,,,,,,,,,,,,,,,,,,WJGE99,train_x,blue_star,bottom_left,2025-03-27_15h40.31.103,HideSeek_v1,2022.2.5,59.958257064663,
,0,1,3,1,3,0,31,,train_dim1_1,27,30,,,,2,0,2,0,,,,,,,,,0,0,0,0,0,26,26,26,0,0,0,0,,,,,,,,,,,,,,,,,,,,,,,,,stimuli/alien_stimuli/31.png,,,,,,,,,,,,,,,,,,,,,,,,,,,,,stimuli/alien_stimuli/61.png,61,1,28,,,,,,,30,,,,,,,,1263.0468503000448,1263.0468503000448,1263.0468503000448,1263.0468503000448,1263.0468503000448,right,1.503760699997656,5,0,0,99,-0.08,-0.32,right,1.4198185000568628,,,,,1261.484689700068,1263.0468503000448,-0.08,-0.32,0.0,0.0,-0.32,-0.08,-0.08,-0.08,-0.32,1260.3193835000275,1260.3193835000275,1260.3193835000275,1260.3193835000275,1260.3193835000275,1260.3193835000275,1260.3193835000275,1260.3193835000275,1260.300584620051,1.2696970000397414,return,1.1349627999588847,,,,,,,,,,,,,,,,,,,,,,,,,,,,,,,,,WJGE99,train_x,blue_star,bottom_left,2025-03-27_15h40.31.103,HideSeek_v1,2022.2.5,59.958257064663,
,0,1,3,1,3,0,31,,train_dim1_1,27,30,,,,2,0,2,0,,,,,,,,,0,0,0,0,0,26,26,26,1,0,1,0,,,,,,,,,,,,,,,,,,,,,,,,,,,,,,,,,,,,,,,,,,,,,,,,,,,,,,,,,,,,,,,,30,,,,,,,,1264.5527862000745,1264.5527862000745,1264.5527862000745,1264.5527862000745,1264.5527862000745,right,0.7084695000667125,5,0,0,99,0.0,-0.32,right,0.6203273000428453,,,,,,,,,,,,,,,,,,,,,,,,,,,,,,,,,,,,,,,,,,,,,,,,,,,,,,,,,,,,WJGE99,train_x,blue_star,bottom_left,2025-03-27_15h40.31.103,HideSeek_v1,2022.2.5,59.958257064663,
,0,1,3,1,3,0,31,,train_dim1_1,27,30,,,,2,0,2,0,,,,,,,,,0,0,0,0,0,26,26,26,2,0,2,0,,,,,,,,,,,,,,,,,,,,,,,,,,,,,,,,,,,,,,,,,,,,,,,,,,,,,,,,,,,,,,,,30,,,,,,,,1265.2683410000755,1265.2683410000755,1265.2683410000755,1265.2683410000755,1265.2683410000755,right,0.7096572000300512,5,0,0,99,0.08,-0.32,right,0.6302187999244779,,,,,,,,,,,,,,,,,,,,,,,,,,,,,,,,,,,,,,,,,,,,,,,,,,,,,,,,,,,,WJGE99,train_x,blue_star,bottom_left,2025-03-27_15h40.31.103,HideSeek_v1,2022.2.5,59.958257064663,
,0,1,3,1,3,0,31,,train_dim1_1,27,30,,,,2,0,2,0,,,,,,,,,0,0,0,0,0,26,26,26,3,0,3,0,,,,,,,,,,,,,,,,,,,,,,,,,,,,,,,,,,,,,,,,,,,,,,,,,,,,,,,,,,,,,,,,30,,,,,,,,1265.984463400091,1265.984463400091,1265.984463400091,1265.984463400091,1265.984463400091,return,0.8936852000188082,6,0,0,1,0.08,-0.32,return,0.8172504999674857,14,63,0.08,-0.32,,,,,,,,,,,,,,,,,,,,,,,,,,,,,,,,,,,,,,,,,,,,,,,,,,,,,,,,WJGE99,train_x,blue_star,bottom_left,2025-03-27_15h40.31.103,HideSeek_v1,2022.2.5,59.958257064663,
,3,1,7,1,4,0,21,,train_dim1_1,28,30,,,,2,0,2,0,,,,,,,,,0,0,0,0,0,27,27,27,0,0,0,0,,,,,,,,,,,,,,,,,,,,,,,,,stimuli/alien_stimuli/21.png,,,,,,,,,,,,,,,,,,,,,,,,,,,,,stimuli/alien_stimuli/31.png,31,0,29,,,,,,,30,,,,,,,,1271.2551381000085,1271.2551381000085,1271.2551381000085,1271.2551381000085,1271.2551381000085,right,1.7533745999680832,6,0,0,99,0.16,-0.32,right,1.6538314000936225,,,,,1269.674762000097,1271.2551381000085,0.08,-0.32,0.0,0.24,-0.32,0.08,-0.04,0.08,-0.32,1268.4428090000292,1268.4428090000292,1268.4428090000292,1268.4428090000292,1268.4428090000292,1268.4428090000292,1268.4428090000292,1268.4428090000292,1268.4239742200123,1.3365243000444025,return,1.2001718999817967,,,,,,,,,,,,,,,,,,,,,,,,,,,,,,,,,WJGE99,train_x,blue_star,bottom_left,2025-03-27_15h40.31.103,HideSeek_v1,2022.2.5,59.958257064663,
,3,1,7,1,4,0,21,,train_dim1_1,28,30,,,,2,0,2,0,,,,,,,,,0,0,0,0,0,27,27,27,1,0,1,0,,,,,,,,,,,,,,,,,,,,,,,,,,,,,,,,,,,,,,,,,,,,,,,,,,,,,,,,,,,,,,,,30,,,,,,,,1272.994615200092,1272.994615200092,1272.994615200092,1272.994615200092,1272.994615200092,right,1.2272421999368817,6,0,0,99,0.24,-0.32,right,1.146184099954553,,,,,,,,,,,,,,,,,,,,,,,,,,,,,,,,,,,,,,,,,,,,,,,,,,,,,,,,,,,,WJGE99,train_x,blue_star,bottom_left,2025-03-27_15h40.31.103,HideSeek_v1,2022.2.5,59.958257064663,
,3,1,7,1,4,0,21,,train_dim1_1,28,30,,,,2,0,2,0,,,,,,,,,0,0,0,0,0,27,27,27,2,0,2,0,,,,,,,,,,,,,,,,,,,,,,,,,,,,,,,,,,,,,,,,,,,,,,,,,,,,,,,,,,,,,,,,30,,,,,,,,1274.2290085999994,1274.2290085999994,1274.2290085999994,1274.2290085999994,1274.2290085999994,right,0.9602179999928921,6,0,0,99,0.32,-0.32,right,0.8685712999431416,,,,,,,,,,,,,,,,,,,,,,,,,,,,,,,,,,,,,,,,,,,,,,,,,,,,,,,,,,,,WJGE99,train_x,blue_star,bottom_left,2025-03-27_15h40.31.103,HideSeek_v1,2022.2.5,59.958257064663,
,3,1,7,1,4,0,21,,train_dim1_1,28,30,,,,2,0,2,0,,,,,,,,,0,0,0,0,0,27,27,27,3,0,3,0,,,,,,,,,,,,,,,,,,,,,,,,,,,,,,,,,,,,,,,,,,,,,,,,,,,,,,,,,,,,,,,,30,,,,,,,,1275.1957676000893,1275.1957676000893,1275.1957676000893,1275.1957676000893,1275.1957676000893,right,0.7936877999454737,6,0,0,99,0.4,-0.32,right,0.713425200083293,,,,,,,,,,,,,,,,,,,,,,,,,,,,,,,,,,,,,,,,,,,,,,,,,,,,,,,,,,,,WJGE99,train_x,blue_star,bottom_left,2025-03-27_15h40.31.103,HideSeek_v1,2022.2.5,59.958257064663,
,3,1,7,1,4,0,21,,train_dim1_1,28,30,,,,2,0,2,0,,,,,,,,,0,0,0,0,0,27,27,27,4,0,4,0,,,,,,,,,,,,,,,,,,,,,,,,,,,,,,,,,,,,,,,,,,,,,,,,,,,,,,,,,,,,,,,,30,,,,,,,,1275.9964711000212,1275.9964711000212,1275.9964711000212,1275.9964711000212,1275.9964711000212,right,1.5278141000308096,6,0,0,99,0.48000000000000004,-0.32,right,1.4455828999634832,,,,,,,,,,,,,,,,,,,,,,,,,,,,,,,,,,,,,,,,,,,,,,,,,,,,,,,,,,,,WJGE99,train_x,blue_star,bottom_left,2025-03-27_15h40.31.103,HideSeek_v1,2022.2.5,59.958257064663,
,3,1,7,1,4,0,21,,train_dim1_1,28,30,,,,2,0,2,0,,,,,,,,,0,0,0,0,0,27,27,27,5,0,5,0,,,,,,,,,,,,,,,,,,,,,,,,,,,,,,,,,,,,,,,,,,,,,,,,,,,,,,,,,,,,,,,,30,,,,,,,,1277.5327885000734,1277.5327885000734,1277.5327885000734,1277.5327885000734,1277.5327885000734,return,0.6424781000241637,6,1,0,0,0.48000000000000004,-0.32,return,0.5633504999568686,14,68,0.48000000000000004,-0.32,,,,,,,,,,,,,,,,,,,,,,,,,,,,,,,,,,,,,,,,,,,,,,,,,,,,,,,,WJGE99,train_x,blue_star,bottom_left,2025-03-27_15h40.31.103,HideSeek_v1,2022.2.5,59.958257064663,
,4,0,5,0,1,0,51,,train_dim1_1,29,30,,,,2,0,2,0,,,,,,,,,0,0,0,0,0,28,28,28,0,0,0,0,,,,,,,,,,,,,,,,,,,,,,,,,stimuli/alien_stimuli/51.png,,,,,,,,,,,,,,,,,,,,,,,,,,,,,stimuli/alien_stimuli/21.png,21,3,30,,,,,,,30,,,,,,,,1283.0247978999978,1283.0247978999978,1283.0247978999978,1283.0247978999978,1283.0247978999978,right,1.8051138001028448,6,1,0,99,0.24,-0.4,right,1.6978285000659525,,,,,1281.4514480000362,1283.0247978999978,0.4,-0.32,0.0,0.32,-0.32,0.4,0.24000000000000002,0.4,-0.32,1279.7399831000948,1279.7399831000948,1279.7399831000948,1279.7399831000948,1279.7399831000948,1279.7399831000948,1279.7399831000948,1279.7399831000948,1279.7334839399787,1.8204200000036508,return,1.6932102999417111,,,,,,,,,,,,,,,,,,,,,,,,,,,,,,,,,WJGE99,train_x,blue_star,bottom_left,2025-03-27_15h40.31.103,HideSeek_v1,2022.2.5,59.958257064663,
,4,0,5,0,1,0,51,,train_dim1_1,29,30,,,,2,0,2,0,,,,,,,,,0,0,0,0,0,28,28,28,1,0,1,0,,,,,,,,,,,,,,,,,,,,,,,,,,,,,,,,,,,,,,,,,,,,,,,,,,,,,,,,,,,,,,,,30,,,,,,,,1284.8191159000853,1284.8191159000853,1284.8191159000853,1284.8191159000853,1284.8191159000853,right,0.6934332000091672,6,1,0,99,0.32,-0.4,right,0.6187858000630513,,,,,,,,,,,,,,,,,,,,,,,,,,,,,,,,,,,,,,,,,,,,,,,,,,,,,,,,,,,,WJGE99,train_x,blue_star,bottom_left,2025-03-27_15h40.31.103,HideSeek_v1,2022.2.5,59.958257064663,
,4,0,5,0,1,0,51,,train_dim1_1,29,30,,,,2,0,2,0,,,,,,,,,0,0,0,0,0,28,28,28,2,0,2,0,,,,,,,,,,,,,,,,,,,,,,,,,,,,,,,,,,,,,,,,,,,,,,,,,,,,,,,,,,,,,,,,30,,,,,,,,1285.5198057000525,1285.5198057000525,1285.5198057000525,1285.5198057000525,1285.5198057000525,right,1.127329200040549,6,1,0,99,0.4,-0.4,right,1.053864200017415,,,,,,,,,,,,,,,,,,,,,,,,,,,,,,,,,,,,,,,,,,,,,,,,,,,,,,,,,,,,WJGE99,train_x,blue_star,bottom_left,2025-03-27_15h40.31.103,HideSeek_v1,2022.2.5,59.958257064663,
,4,0,5,0,1,0,51,,train_dim1_1,29,30,,,,2,0,2,0,,,,,,,,,0,0,0,0,0,28,28,28,3,0,3,0,,,,,,,,,,,,,,,,,,,,,,,,,,,,,,,,,,,,,,,,,,,,,,,,,,,,,,,,,,,,,,,,30,,,,,,,,1286.6550469000358,1286.6550469000358,1286.6550469000358,1286.6550469000358,1286.6550469000358,return,0.6256993999704719,6,0,0,0,0.4,-0.4,return,0.5406381000066176,14,71,0.4,-0.4,,,,,,,,,,,,,,,,,,,,,,,,,,,,,,,,,,,,,,,,,,,,,,,,,,,,,,,,WJGE99,train_x,blue_star,bottom_left,2025-03-27_15h40.31.103,HideSeek_v1,2022.2.5,59.958257064663,
,2,2,7,2,5,0,11,,train_dim1_1,30,30,,,,2,0,2,0,,,,,,,,,0,0,0,0,0,29,29,29,0,0,0,0,,,,,,,,,,,,,,,,,,,,,,,,,stimuli/alien_stimuli/11.png,,,,,,,,,,,,,,,,,,,,,,,,,,,,,stimuli/alien_stimuli/51.png,51,4,31,,,,,,,30,,,,,,,,1291.8221359000308,1291.8221359000308,1291.8221359000308,1291.8221359000308,1291.8221359000308,right,1.270353400032036,6,0,0,99,0.08,-0.24,right,1.1652599000371993,,,,,1290.2420926000923,1291.8221359000308,0.24,-0.4,0.0,0.08,-0.4,0.24,0.2,0.24,-0.4,1288.849890200072,1288.849890200072,1288.849890200072,1288.849890200072,1288.849890200072,1288.849890200072,1288.849890200072,1288.849890200072,1288.841108940041,1.5032157000387087,return,1.368628800031729,,,,,,,,,,,,,,,,,,,,,,,,,,,,,,,,,WJGE99,train_x,blue_star,bottom_left,2025-03-27_15h40.31.103,HideSeek_v1,2022.2.5,59.958257064663,
,2,2,7,2,5,0,11,,train_dim1_1,30,30,,,,2,0,2,0,,,,,,,,,0,0,0,0,0,29,29,29,1,0,1,0,,,,,,,,,,,,,,,,,,,,,,,,,,,,,,,,,,,,,,,,,,,,,,,,,,,,,,,,,,,,,,,,30,,,,,,,,1293.078306700103,1293.078306700103,1293.078306700103,1293.078306700103,1293.078306700103,right,1.0431394999613985,6,0,0,99,0.16,-0.24,right,0.9660372000653297,,,,,,,,,,,,,,,,,,,,,,,,,,,,,,,,,,,,,,,,,,,,,,,,,,,,,,,,,,,,WJGE99,train_x,blue_star,bottom_left,2025-03-27_15h40.31.103,HideSeek_v1,2022.2.5,59.958257064663,
,2,2,7,2,5,0,11,,train_dim1_1,30,30,,,,2,0,2,0,,,,,,,,,0,0,0,0,0,29,29,29,2,0,2,0,,,,,,,,,,,,,,,,,,,,,,,,,,,,,,,,,,,,,,,,,,,,,,,,,,,,,,,,,,,,,,,,30,,,,,,,,1294.1284606000409,1294.1284606000409,1294.1284606000409,1294.1284606000409,1294.1284606000409,right,1.1273973999777809,6,0,0,99,0.24,-0.24,right,1.0393316000699997,,,,,,,,,,,,,,,,,,,,,,,,,,,,,,,,,,,,,,,,,,,,,,,,,,,,,,,,,,,,WJGE99,train_x,blue_star,bottom_left,2025-03-27_15h40.31.103,HideSeek_v1,2022.2.5,59.958257064663,
,2,2,7,2,5,0,11,,train_dim1_1,30,30,,,,2,0,2,0,,,,,,,,,0,0,0,0,0,29,29,29,3,0,3,0,,,,,,,,,,,,,,,,,,,,,,,,,,,,,,,,,,,,,,,,,,,,,,,,,,,,,,,,,,,,,,,,30,,,,,,,,1295.2649240000173,1295.2649240000173,1295.2649240000173,1295.2649240000173,1295.2649240000173,right,0.8755123000591993,6,0,0,99,0.32,-0.24,right,0.7874131000135094,,,,,,,,,,,,,,,,,,,,,,,,,,,,,,,,,,,,,,,,,,,,,,,,,,,,,,,,,,,,WJGE99,train_x,blue_star,bottom_left,2025-03-27_15h40.31.103,HideSeek_v1,2022.2.5,59.958257064663,
,2,2,7,2,5,0,11,,train_dim1_1,30,30,,,,2,0,2,0,,,,,,,,,0,0,0,0,0,29,29,29,4,0,4,0,,,,,,,,,,,,,,,,,,,,,,,,,,,,,,,,,,,,,,,,,,,,,,,,,,,,,,,,,,,,,,,,30,,,,,,,,1296.1472740001045,1296.1472740001045,1296.1472740001045,1296.1472740001045,1296.1472740001045,right,0.543212000047788,6,0,0,99,0.4,-0.24,right,0.4665700000477955,,,,,,,,,,,,,,,,,,,,,,,,,,,,,,,,,,,,,,,,,,,,,,,,,,,,,,,,,,,,WJGE99,train_x,blue_star,bottom_left,2025-03-27_15h40.31.103,HideSeek_v1,2022.2.5,59.958257064663,
,2,2,7,2,5,0,11,,train_dim1_1,30,30,,,,2,0,2,0,,,,,,,,,0,0,0,0,0,29,29,29,5,0,5,0,,,,,,,,,,,,,,,,,,,,,,,,,,,,,,,,,,,,,,,,,,,,,,,,,,,,,,,,,,,,,,,,30,,,,,,,,1296.6974813000998,1296.6974813000998,1296.6974813000998,1296.6974813000998,1296.6974813000998,return,0.4765659000258893,7,0,0,1,0.4,-0.24,return,0.3898771000094712,14,76,0.4,-0.24,,,,,,,,,,,,,,,,,,,,,,,,,,,,,,,,,,,,,,,,,,,,,,,,,,,,,,,,WJGE99,train_x,blue_star,bottom_left,2025-03-27_15h40.31.103,HideSeek_v1,2022.2.5,59.958257064663,
,,,,,,,,,,,30,,,,2,0,2,0,,,,,,,,,,,,,,,,,,,,,,,,,,,,,,,,,,,,,,,,,,,,,,,,,,,,,,,,,,,,,,,,,,,,,,,,,,stimuli/alien_stimuli/11.png,11,2,32,21,0.7,0.2916666666666667,1,1,1,30,0,conditions/schedules/train_x_first/blue_star_00/bottom_left/inputTrain_2.1.xlsx,99,1,2,1,0,,,,,,,,,,,1,,,,,,,,,1299.9333505000686,1301.4835410000524,0.4,-0.24,0.0,0.4,-0.24,0.4,0.2,0.4,-0.24,1298.7378739000997,1298.7378739000997,1298.7378739000997,1298.7378739000997,1298.7378739000997,1298.7378739000997,1298.7378739000997,1298.7378739000997,1298.716016920004,1.3028826999943703,return,1.1742475000210106,0,0.9,0,1,7,,,,,,,,,,,,,,,,,,,,,,,,,,,,WJGE99,train_x,blue_star,bottom_left,2025-03-27_15h40.31.103,HideSeek_v1,2022.2.5,59.958257064663,
,,,,,,,,,,,,,,,3,0,3,0,0,0,0,0,,,,,,,,,,,,,,,,,,,,,,,,,,,,,,,conditions/schedules/train_x_first/blue_star_00/bottom_left/instructions/Slide17.png,conditions/schedules/train_x_first/blue_star_00/bottom_left/instructions/Audio17.wav,1301.4835410000524,1301.4847864800133,17,"[4.5559330999385566, 18.34616159996949, 16.696364299976267, 19.380004800041206, 4.23098889994435, 4.469745200010948, 5.271061800071038, 11.724655999918468, 5.999847700004466, 6.385152700007893, 10.320891199982725, 12.408167000045069, 17.47798690001946, 12.653013200033456, 31.499329500016756, 21.70613899989985, 30.640101499971934]","[4.555942600010894, 0.014382399967871606, 0.06399600009899586, 0.04714429995510727, 0.03323229996021837, 0.0337446000194177, 5.271068900008686, 0.04728709999471903, 0.04622300004120916, 0.06241649994626641, 0.047997400048188865, 12.408174399985, 0.0002484000287950039, 12.65302349999547, 0.05484019999857992, 21.706147099961527, 30.64010999992024]",0,,,,,,,,,,,,,,,,,,,,,,,,,,,,,,,,,,,,,,,,,,,,,,,,,,,,,,,,,,,,,,,,,,,,,,,,,,,,,,,,,,,,,,,,,,,,,,,,,,,,,,,,,,,,,,,,,,,,,,,,,,,,WJGE99,train_x,blue_star,bottom_left,2025-03-27_15h40.31.103,HideSeek_v1,2022.2.5,59.958257064663,
,,,,,,,,,,,,,,,3,0,3,0,1,0,1,0,,,,,,,,,,,,,,,,,,,,,,,,,,,,,,,conditions/schedules/train_x_first/blue_star_00/bottom_left/instructions/Slide18.png,conditions/schedules/train_x_first/blue_star_00/bottom_left/instructions/Audio18.wav,1332.1854608000722,1332.1767909799703,18,"[4.5559330999385566, 18.34616159996949, 16.696364299976267, 19.380004800041206, 4.23098889994435, 4.469745200010948, 5.271061800071038, 11.724655999918468, 5.999847700004466, 6.385152700007893, 10.320891199982725, 12.408167000045069, 17.47798690001946, 12.653013200033456, 31.499329500016756, 21.70613899989985, 30.640101499971934, 6.44369009998627]","[4.555942600010894, 0.014382399967871606, 0.06399600009899586, 0.04714429995510727, 0.03323229996021837, 0.0337446000194177, 5.271068900008686, 0.04728709999471903, 0.04622300004120916, 0.06241649994626641, 0.047997400048188865, 12.408174399985, 0.0002484000287950039, 12.65302349999547, 0.05484019999857992, 21.706147099961527, 30.64010999992024, 6.443696900038049]",0,,,,,,,,,,,,,,,,,,,,,,,,,,,,,,,,,,,,,,,,,,,,,,,,,,,,,,,,,,,,,,,,,,,,,,,,,,,,,,,,,,,,,,,,,,,,,,,,,,,,,,,,,,,,,,,,,,,,,,,,,,,,WJGE99,train_x,blue_star,bottom_left,2025-03-27_15h40.31.103,HideSeek_v1,2022.2.5,59.958257064663,
,,,,,,,,,,,,,,,3,0,3,0,2,0,2,0,,,,,,,,,,,,,,,,,,,,,,,,,,,,,,,conditions/schedules/train_x_first/blue_star_00/bottom_left/instructions/Slide19.png,conditions/schedules/train_x_first/blue_star_00/bottom_left/instructions/Audio19.wav,1338.6669915000675,1338.6655577600816,19,"[4.5559330999385566, 18.34616159996949, 16.696364299976267, 19.380004800041206, 4.23098889994435, 4.469745200010948, 5.271061800071038, 11.724655999918468, 5.999847700004466, 6.385152700007893, 10.320891199982725, 12.408167000045069, 17.47798690001946, 12.653013200033456, 31.499329500016756, 21.70613899989985, 30.640101499971934, 6.44369009998627, 10.337768099969253]","[4.555942600010894, 0.014382399967871606, 0.06399600009899586, 0.04714429995510727, 0.03323229996021837, 0.0337446000194177, 5.271068900008686, 0.04728709999471903, 0.04622300004120916, 0.06241649994626641, 0.047997400048188865, 12.408174399985, 0.0002484000287950039, 12.65302349999547, 0.05484019999857992, 21.706147099961527, 30.64010999992024, 0.030030200025066733, 10.337775300024077]",0,,,,,,,,,,,,,,,,,,,,,,,,,,,,,,,,,,,,,,,,,,,,,,,,,,,,,,,,,,,,,,,,,,,,,,,,,,,,,,,,,,,,,,,,,,,,,,,,,,,,,,,,,,,,,,,,,,,,,,,,,,,,WJGE99,train_x,blue_star,bottom_left,2025-03-27_15h40.31.103,HideSeek_v1,2022.2.5,59.958257064663,
,,,,,,,,,,,,,,,3,0,3,0,3,0,3,0,,,,,,,,,,,,,,,,,,,,,,,,,,,,,,,conditions/schedules/train_x_first/blue_star_00/bottom_left/instructions/Slide20.png,conditions/schedules/train_x_first/blue_star_00/bottom_left/instructions/Audio20.wav,1349.074796400033,1349.0743774000439,20,"[4.5559330999385566, 18.34616159996949, 16.696364299976267, 19.380004800041206, 4.23098889994435, 4.469745200010948, 5.271061800071038, 11.724655999918468, 5.999847700004466, 6.385152700007893, 10.320891199982725, 12.408167000045069, 17.47798690001946, 12.653013200033456, 31.499329500016756, 21.70613899989985, 30.640101499971934, 6.44369009998627, 10.337768099969253, 14.075783899985254]","[4.555942600010894, 0.014382399967871606, 0.06399600009899586, 0.04714429995510727, 0.03323229996021837, 0.0337446000194177, 5.271068900008686, 0.04728709999471903, 0.04622300004120916, 0.06241649994626641, 0.047997400048188865, 12.408174399985, 0.0002484000287950039, 12.65302349999547, 0.05484019999857992, 21.706147099961527, 30.64010999992024, 0.030030200025066733, 0.014313100022263825, 14.075791600043885]",0,,,,,,,,,,,,,,,,,,,,,,,,,,,,,,,,,,,,,,,,,,,,,,,,,,,,,,,,,,,,,,,,,,,,,,,,,,,,,,,,,,,,,,,,,,,,,,,,,,,,,,,,,,,,,,,,,,,,,,,,,,,,WJGE99,train_x,blue_star,bottom_left,2025-03-27_15h40.31.103,HideSeek_v1,2022.2.5,59.958257064663,
1,0,3,0,8,0,5,66,2,instr_dim1_2,,,,,,3,0,3,0,,,,,0,0,0,0,,,,,,,,,,,,,,,,,,,,,,,,,,,,,,,,,,,,,stimuli/alien_stimuli/66.png,conditions/schedules/train_x_first/blue_star_00/bottom_left/inputInstr_2.xlsx,stimuli/alien_stimuli/66.png,1363.2422779999906,1363.2422779999906,1363.2422779999906,1363.2422779999906,1363.236185020022,return,6.631018099957146,"[-0.16, -0.08, 0, 0.08, 0.16, 0.24, 0.32, 0.4, 0.48, 0.56]","[-0.4, -0.32, -0.24, -0.16, -0.08, 0, 0.08, 0.16, 0.24, 0.32]",8,3,0,0,0.4,0.0,1370.0067253001034,1370.0067253001034,1370.0067253001034,1370.0067253001034,1370.0067253001034,1370.0067253001034,1370.0067253001034,1370.0084130599628,6.555927100009285,return,6.417844100040384,stimuli/alien_stimuli/66.png,66,0,1,,,,,,,,,,,,,,,,,,,,,,,,,,,,,,,,,,,,,,,,,,,,,,,,,,,,,,,,,,,,,,,,,,,,,,,,,,,,,,,,,,,,,,,,,WJGE99,train_x,blue_star,bottom_left,2025-03-27_15h40.31.103,HideSeek_v1,2022.2.5,59.958257064663,
,,,,,,,,,,,30,,,,3,0,3,0,,,,,,,,,,,,,,,,,,,,,,,,,,,,,,,,,,,,,,,,,,,,,,,,,,,,,,,,,,,,,,,,,,,,,,,,,,,,,,21,0.7,0.2916666666666667,1,99,2,30,0,conditions/schedules/train_x_first/blue_star_00/bottom_left/inputTrain_2.1.xlsx,99,1,2,1,0,,,,,,,,,,,,,,,,,,,,,,,,,,,,,,,,,,,,,,,,,,,,,,,,,,,,,,,,,,,,,,,,,,,,,,,,,,,WJGE99,train_x,blue_star,bottom_left,2025-03-27_15h40.31.103,HideSeek_v1,2022.2.5,59.958257064663,
,,,,,,,,,,,,,,,4,0,4,0,0,0,0,0,,,,,,,,,,,,,,,,,,,,,,,,,,,,,,,conditions/schedules/train_x_first/blue_star_00/bottom_left/instructions/Slide21.png,conditions/schedules/train_x_first/blue_star_00/bottom_left/instructions/Audio21.wav,1376.595525200013,1376.597182999947,21,"[4.5559330999385566, 18.34616159996949, 16.696364299976267, 19.380004800041206, 4.23098889994435, 4.469745200010948, 5.271061800071038, 11.724655999918468, 5.999847700004466, 6.385152700007893, 10.320891199982725, 12.408167000045069, 17.47798690001946, 12.653013200033456, 31.499329500016756, 21.70613899989985, 30.640101499971934, 6.44369009998627, 10.337768099969253, 14.075783899985254, 16.73044920002576]","[4.555942600010894, 0.014382399967871606, 0.06399600009899586, 0.04714429995510727, 0.03323229996021837, 0.0337446000194177, 5.271068900008686, 0.04728709999471903, 0.04622300004120916, 0.06241649994626641, 0.047997400048188865, 12.408174399985, 0.0002484000287950039, 12.65302349999547, 0.05484019999857992, 21.706147099961527, 30.64010999992024, 0.030030200025066733, 0.014313100022263825, 14.075791600043885, 16.730456500081345]",0,,,,,,,,,,,,,,,,,,,,,,,,,,,,,,,,,,,,,,,,,,,,,,,,,,,,,,,,,,,,,,,,,,,,,,,,,,,,,,,,,,,,,,,,,,,,,,,,,,,,,,,,,,,,,,,,,,,,,,,,,,,,WJGE99,train_x,blue_star,bottom_left,2025-03-27_15h40.31.103,HideSeek_v1,2022.2.5,59.958257064663,
2,2,3,2,3,0,0,61,2,instr_dim1_2,,,,,,4,0,4,0,,,,,0,0,0,0,,,,,,,,,,,,,,,,,,,,,,,,,,,,,,,,,,,,,stimuli/alien_stimuli/61.png,conditions/schedules/train_x_first/blue_star_00/bottom_left/inputInstr_2.xlsx,stimuli/alien_stimuli/61.png,1393.41785540001,1393.41785540001,1393.41785540001,1393.41785540001,1393.411891419976,return,6.281631899997592,"[-0.16, -0.08, 0, 0.08, 0.16, 0.24, 0.32, 0.4, 0.48, 0.56]","[-0.4, -0.32, -0.24, -0.16, -0.08, 0, 0.08, 0.16, 0.24, 0.32]",3,3,2,2,0.0,0.0,1399.8381038000807,1399.8381038000807,1399.8381038000807,1399.8381038000807,1399.8381038000807,1399.8381038000807,1399.8381038000807,1399.8331810600123,8.257474399986677,return,8.11472000007052,stimuli/alien_stimuli/61.png,61,2,2,,,,,,,,,,,,,,,,,,,,,,,,,,,,,,,,,,,,,,,,,,,,,,,,,,,,,,,,,,,,,,,,,,,,,,,,,,,,,,,,,,,,,,,,,WJGE99,train_x,blue_star,bottom_left,2025-03-27_15h40.31.103,HideSeek_v1,2022.2.5,59.958257064663,
,,,,,,,,,,,30,,,,4,0,4,0,,,,,,,,,,,,,,,,,,,,,,,,,,,,,,,,,,,,,,,,,,,,,,,,,,,,,,,,,,,,,,,,,,,,,,,,,,,,,,21,0.7,0.2916666666666667,1,99,2,30,0,conditions/schedules/train_x_first/blue_star_00/bottom_left/inputTrain_2.1.xlsx,99,1,2,1,0,,,,,,,,,,,,,,,,,,,,,,,,,,,,,,,,,,,,,,,,,,,,,,,,,,,,,,,,,,,,,,,,,,,,,,,,,,,WJGE99,train_x,blue_star,bottom_left,2025-03-27_15h40.31.103,HideSeek_v1,2022.2.5,59.958257064663,
