trialInstr,x_fixStart,y_fixStart,x_corrSteps,y_corrSteps,x_nrSteps,y_nrSteps,alienID,trialLength,version,trialTrain,praclen,testlen,trial_label,break_on_off,beforeExpLoop.thisRepN,beforeExpLoop.thisTrialN,beforeExpLoop.thisN,beforeExpLoop.thisIndex,mini_instr_trials.thisRepN,mini_instr_trials.thisTrialN,mini_instr_trials.thisN,mini_instr_trials.thisIndex,instrLoop.thisRepN,instrLoop.thisTrialN,instrLoop.thisN,instrLoop.thisIndex,repeat_prac.thisRepN,repeat_prac.thisTrialN,repeat_prac.thisN,repeat_prac.thisIndex,trainLoop.thisRepN,trainLoop.thisTrialN,trainLoop.thisN,trainLoop.thisIndex,moveLoop_train.thisRepN,moveLoop_train.thisTrialN,moveLoop_train.thisN,moveLoop_train.thisIndex,experiment.thisRepN,experiment.thisTrialN,experiment.thisN,experiment.thisIndex,moveLoop_test.thisRepN,moveLoop_test.thisTrialN,moveLoop_test.thisN,moveLoop_test.thisIndex,mini_instr2_trials.thisRepN,mini_instr2_trials.thisTrialN,mini_instr2_trials.thisN,mini_instr2_trials.thisIndex,start_all_time,url,slideStim,audioStim,slides.started,sounds.started,nextButton.numClicks,nextButton.timesOn,nextButton.timesOff,prev_but.numClicks,prev_but.timesOn,prev_but.timesOff,alienStim,instrFile,alienStim_instr,gridImage_instr.started,startPos_3.started,key_instr.started,alienImage_3.started,sounds_1.started,key_instr.keys,key_instr.rt,all_x,all_y,FBy_corrSteps,FBy_fixStart,FBx_corrSteps,FBx_fixStart,FBy_pathSize_check,FBx_pathSize_check,gridImage_9.started,alienImageFB_3.started,startPosFB_3.started,keyFB_3.started,pathLine_ydir_2.started,pathLine_xdir_2.started,alienFace_3.started,sounds_2.started,RTFB_instr,keyFB_3.keys,keyFB_3.rt,draw_alienStim,draw_alienID,test_x,nrepcount,perfthres,percthres,earlierperf,earlystop,nextPrac,fileidx,praclen,saveACC_train,pracFile,nextPrac_train,addNrep,fileidx_endr,repExp,showearly,gridImage_4.started,startPos.started,movePos.started,key_resp.started,alienImage.started,buttonPress_train,RTchoice_train,cumAcctrain,aCorr,saveACC_choice,corrAns,x_movePos_end,y_movePos_end,key_resp.keys,key_resp.rt,wLy_dir,wLx_dir,x_movePos,y_movePos,text_2.started,text_2.stopped,aft_x_corrPos,aft_y_corrPos,y_pathSize_check,x_pathSize_check,y_pathdirY,x_pathdirY,x_pathdirX,x_corrPos,y_corrPos,gridImage_6.started,alienImageFB_2.started,startPosFB_2.started,movePosFB_2.started,keyFB_2.started,pathLine_xdir.started,pathLine_ydir.started,alienFace.started,sounds_4.started,RT_FBtrain,keyFB_2.keys,keyFB_2.rt,saveACC_pre,ACC,within_saveACC_train,earlystop_wloop,cumAcctrain_check,gridImage_3.started,alienImage_test.started,startPos_test.started,movePos_test.started,key_resp_test.started,wLy_dir_test,wLx_dir_test,buttonPress_test,RTchoice_test,cumAcctest,corrAns_test,key_resp_test.keys,key_resp_test.rt,text_3.started,text_3.stopped,total_time,end_all_time,key_resp_3.keys,slides_2.started,sounds_3.started,nextButton_2.numClicks,nextButton_2.timesOn,nextButton_2.timesOff,prev_but_2.numClicks,prev_but_2.timesOn,prev_but_2.timesOff,bye.started,participant,train_first,00_coordinate,starting corner,date,expName,psychopyVersion,frameRate,
,,,,,,,,,,,,,,,0,0,0,0,0,0,0,0,,,,,,,,,,,,,,,,,,,,,,,,,,,,,start_all_time,testround,conditions/schedules/train_y_first/blue_star_00/bottom_right/instructions/Slide1.png,conditions/schedules/train_y_first/blue_star_00/bottom_right/instructions/Audio1.wav,1013.0023484000001,1012.9404567400043,1,[7.522023600000011],[7.522030399999949],0,,,,,,,,,,,,,,,,,,,,,,,,,,,,,,,,,,,,,,,,,,,,,,,,,,,,,,,,,,,,,,,,,,,,,,,,,,,,,,,,,,,,,,,,,,,,,,,,,,,,,,,,,,,,,,,,,,,,,,,,,,,,WK78XU,train_y,blue_star,bottom_right,2025-08-29_10h02.09.178,HideSeek_v1,2022.2.5,59.94079048715227,
,,,,,,,,,,,,,,,0,0,0,0,1,0,1,0,,,,,,,,,,,,,,,,,,,,,,,,,,,,,,,conditions/schedules/train_y_first/blue_star_00/bottom_right/instructions/Slide2.png,conditions/schedules/train_y_first/blue_star_00/bottom_right/instructions/Audio2.wav,1020.5428994000001,1020.5451761500001,2,"[7.522023600000011, 18.28192910000007]","[0.014261699999678967, 18.28193620000002]",0,,,,,,,,,,,,,,,,,,,,,,,,,,,,,,,,,,,,,,,,,,,,,,,,,,,,,,,,,,,,,,,,,,,,,,,,,,,,,,,,,,,,,,,,,,,,,,,,,,,,,,,,,,,,,,,,,,,,,,,,,,,,WK78XU,train_y,blue_star,bottom_right,2025-08-29_10h02.09.178,HideSeek_v1,2022.2.5,59.94079048715227,
,,,,,,,,,,,,,,,0,0,0,0,2,0,2,0,,,,,,,,,,,,,,,,,,,,,,,,,,,,,,,conditions/schedules/train_y_first/blue_star_00/bottom_right/instructions/Slide3.png,conditions/schedules/train_y_first/blue_star_00/bottom_right/instructions/Audio3.wav,1038.9057163999998,1038.89381075,3,"[7.522023600000011, 18.28192910000007, 16.66558709999981]","[0.014261699999678967, 0.013824000000113301, 16.665593900000204]",0,,,,,,,,,,,,,,,,,,,,,,,,,,,,,,,,,,,,,,,,,,,,,,,,,,,,,,,,,,,,,,,,,,,,,,,,,,,,,,,,,,,,,,,,,,,,,,,,,,,,,,,,,,,,,,,,,,,,,,,,,,,,WK78XU,train_y,blue_star,bottom_right,2025-08-29_10h02.09.178,HideSeek_v1,2022.2.5,59.94079048715227,
,,,,,,,,,,,,,,,0,0,0,0,3,0,3,0,,,,,,,,,,,,,,,,,,,,,,,,,,,,,,,conditions/schedules/train_y_first/blue_star_00/bottom_right/instructions/Slide4.png,conditions/schedules/train_y_first/blue_star_00/bottom_right/instructions/Audio4.wav,1055.6539031999998,1055.64109335,4,"[7.522023600000011, 18.28192910000007, 16.66558709999981, 20.13461750000033]","[0.014261699999678967, 0.013824000000113301, 0.0142971000000216, 20.134623700000247]",0,,,,,,,,,,,,,,,,,,,,,,,,,,,,,,,,,,,,,,,,,,,,,,,,,,,,,,,,,,,,,,,,,,,,,,,,,,,,,,,,,,,,,,,,,,,,,,,,,,,,,,,,,,,,,,,,,,,,,,,,,,,,WK78XU,train_y,blue_star,bottom_right,2025-08-29_10h02.09.178,HideSeek_v1,2022.2.5,59.94079048715227,
,,,,,,,,,,,,,,,0,0,0,0,4,0,4,0,,,,,,,,,,,,,,,,,,,,,,,,,,,,,,,conditions/schedules/train_y_first/blue_star_00/bottom_right/instructions/Slide5.png,conditions/schedules/train_y_first/blue_star_00/bottom_right/instructions/Audio5.wav,1075.8531374000002,1075.84102918,5,"[7.522023600000011, 18.28192910000007, 16.66558709999981, 20.13461750000033, 4.9567543999996815]","[0.014261699999678967, 0.013824000000113301, 0.0142971000000216, 0.00021779999997306732, 4.956761599999936]",0,,,,,,,,,,,,,,,,,,,,,,,,,,,,,,,,,,,,,,,,,,,,,,,,,,,,,,,,,,,,,,,,,,,,,,,,,,,,,,,,,,,,,,,,,,,,,,,,,,,,,,,,,,,,,,,,,,,,,,,,,,,,WK78XU,train_y,blue_star,bottom_right,2025-08-29_10h02.09.178,HideSeek_v1,2022.2.5,59.94079048715227,
,,,,,,,,,,,,,,,0,0,0,0,5,0,5,0,,,,,,,,,,,,,,,,,,,,,,,,,,,,,,,conditions/schedules/train_y_first/blue_star_00/bottom_right/instructions/Slide6.png,conditions/schedules/train_y_first/blue_star_00/bottom_right/instructions/Audio6.wav,1080.8645586999999,1080.8620169800001,6,"[7.522023600000011, 18.28192910000007, 16.66558709999981, 20.13461750000033, 4.9567543999996815, 5.432968600000095]","[0.014261699999678967, 0.013824000000113301, 0.0142971000000216, 0.00021779999997306732, 0.04815310000003592, 5.432975700000043]",0,,,,,,,,,,,,,,,,,,,,,,,,,,,,,,,,,,,,,,,,,,,,,,,,,,,,,,,,,,,,,,,,,,,,,,,,,,,,,,,,,,,,,,,,,,,,,,,,,,,,,,,,,,,,,,,,,,,,,,,,,,,,WK78XU,train_y,blue_star,bottom_right,2025-08-29_10h02.09.178,HideSeek_v1,2022.2.5,59.94079048715227,
,,,,,,,,,,,,,,,0,0,0,0,6,0,6,0,,,,,,,,,,,,,,,,,,,,,,,,,,,,,,,conditions/schedules/train_y_first/blue_star_00/bottom_right/instructions/Slide7.png,conditions/schedules/train_y_first/blue_star_00/bottom_right/instructions/Audio7.wav,1086.3674518,1086.3666262499999,7,"[7.522023600000011, 18.28192910000007, 16.66558709999981, 20.13461750000033, 4.9567543999996815, 5.432968600000095, 6.418789400000151]","[0.014261699999678967, 0.013824000000113301, 0.0142971000000216, 0.00021779999997306732, 0.04815310000003592, 0.0002106000001731445, 6.418795999999929]",0,,,,,,,,,,,,,,,,,,,,,,,,,,,,,,,,,,,,,,,,,,,,,,,,,,,,,,,,,,,,,,,,,,,,,,,,,,,,,,,,,,,,,,,,,,,,,,,,,,,,,,,,,,,,,,,,,,,,,,,,,,,,WK78XU,train_y,blue_star,bottom_right,2025-08-29_10h02.09.178,HideSeek_v1,2022.2.5,59.94079048715227,
,,,,,,,,,,,,,,,0,0,0,0,7,0,7,0,,,,,,,,,,,,,,,,,,,,,,,,,,,,,,,conditions/schedules/train_y_first/blue_star_00/bottom_right/instructions/Slide8.png,conditions/schedules/train_y_first/blue_star_00/bottom_right/instructions/Audio8.wav,1092.8398377,1092.8385759800003,8,"[7.522023600000011, 18.28192910000007, 16.66558709999981, 20.13461750000033, 4.9567543999996815, 5.432968600000095, 6.418789400000151, 11.98920360000011]","[0.014261699999678967, 0.013824000000113301, 0.0142971000000216, 0.00021779999997306732, 0.04815310000003592, 0.0002106000001731445, 0.03003579999995054, 11.989210300000195]",0,,,,,,,,,,,,,,,,,,,,,,,,,,,,,,,,,,,,,,,,,,,,,,,,,,,,,,,,,,,,,,,,,,,,,,,,,,,,,,,,,,,,,,,,,,,,,,,,,,,,,,,,,,,,,,,,,,,,,,,,,,,,WK78XU,train_y,blue_star,bottom_right,2025-08-29_10h02.09.178,HideSeek_v1,2022.2.5,59.94079048715227,
,,,,,,,,,,,,,,,0,0,0,0,8,0,8,0,,,,,,,,,,,,,,,,,,,,,,,,,,,,,,,conditions/schedules/train_y_first/blue_star_00/bottom_right/instructions/Slide9.png,conditions/schedules/train_y_first/blue_star_00/bottom_right/instructions/Audio9.wav,1104.8922147,1104.8819741800003,9,"[7.522023600000011, 18.28192910000007, 16.66558709999981, 20.13461750000033, 4.9567543999996815, 5.432968600000095, 6.418789400000151, 11.98920360000011, 6.743268100000023]","[0.014261699999678967, 0.013824000000113301, 0.0142971000000216, 0.00021779999997306732, 0.04815310000003592, 0.0002106000001731445, 0.03003579999995054, 0.03378579999980502, 6.743274800000108]",0,,,,,,,,,,,,,,,,,,,,,,,,,,,,,,,,,,,,,,,,,,,,,,,,,,,,,,,,,,,,,,,,,,,,,,,,,,,,,,,,,,,,,,,,,,,,,,,,,,,,,,,,,,,,,,,,,,,,,,,,,,,,WK78XU,train_y,blue_star,bottom_right,2025-08-29_10h02.09.178,HideSeek_v1,2022.2.5,59.94079048715227,
,,,,,,,,,,,,,,,0,0,0,0,9,0,9,0,,,,,,,,,,,,,,,,,,,,,,,,,,,,,,,conditions/schedules/train_y_first/blue_star_00/bottom_right/instructions/Slide10.png,conditions/schedules/train_y_first/blue_star_00/bottom_right/instructions/Audio10.wav,1111.6901138,1111.68748538,10,"[7.522023600000011, 18.28192910000007, 16.66558709999981, 20.13461750000033, 4.9567543999996815, 5.432968600000095, 6.418789400000151, 11.98920360000011, 6.743268100000023, 7.367403299999751]","[0.014261699999678967, 0.013824000000113301, 0.0142971000000216, 0.00021779999997306732, 0.04815310000003592, 0.0002106000001731445, 0.03003579999995054, 0.03378579999980502, 0.030711800000062794, 7.367412499999773]",0,,,,,,,,,,,,,,,,,,,,,,,,,,,,,,,,,,,,,,,,,,,,,,,,,,,,,,,,,,,,,,,,,,,,,,,,,,,,,,,,,,,,,,,,,,,,,,,,,,,,,,,,,,,,,,,,,,,,,,,,,,,,WK78XU,train_y,blue_star,bottom_right,2025-08-29_10h02.09.178,HideSeek_v1,2022.2.5,59.94079048715227,
,,,,,,,,,,,,,,,0,0,0,0,10,0,10,0,,,,,,,,,,,,,,,,,,,,,,,,,,,,,,,conditions/schedules/train_y_first/blue_star_00/bottom_right/instructions/Slide11.png,conditions/schedules/train_y_first/blue_star_00/bottom_right/instructions/Audio11.wav,1119.0976242999998,1119.09364391,11,"[7.522023600000011, 18.28192910000007, 16.66558709999981, 20.13461750000033, 4.9567543999996815, 5.432968600000095, 6.418789400000151, 11.98920360000011, 6.743268100000023, 7.367403299999751, 10.752387500000168]","[0.014261699999678967, 0.013824000000113301, 0.0142971000000216, 0.00021779999997306732, 0.04815310000003592, 0.0002106000001731445, 0.03003579999995054, 0.03378579999980502, 0.030711800000062794, 0.06437670000013895, 10.752394199999799]",0,,,,,,,,,,,,,,,,,,,,,,,,,,,,,,,,,,,,,,,,,,,,,,,,,,,,,,,,,,,,,,,,,,,,,,,,,,,,,,,,,,,,,,,,,,,,,,,,,,,,,,,,,,,,,,,,,,,,,,,,,,,,WK78XU,train_y,blue_star,bottom_right,2025-08-29_10h02.09.178,HideSeek_v1,2022.2.5,59.94079048715227,
,,,,,,,,,,,,,,,0,0,0,0,11,0,11,0,,,,,,,,,,,,,,,,,,,,,,,,,,,,,,,conditions/schedules/train_y_first/blue_star_00/bottom_right/instructions/Slide12.png,conditions/schedules/train_y_first/blue_star_00/bottom_right/instructions/Audio12.wav,1129.9206785,1129.9193276499998,12,"[7.522023600000011, 18.28192910000007, 16.66558709999981, 20.13461750000033, 4.9567543999996815, 5.432968600000095, 6.418789400000151, 11.98920360000011, 6.743268100000023, 7.367403299999751, 10.752387500000168, 14.524993099999847]","[0.014261699999678967, 0.013824000000113301, 0.0142971000000216, 0.00021779999997306732, 0.04815310000003592, 0.0002106000001731445, 0.03003579999995054, 0.03378579999980502, 0.030711800000062794, 0.06437670000013895, 0.047844899999745394, 14.524999999999636]",0,,,,,,,,,,,,,,,,,,,,,,,,,,,,,,,,,,,,,,,,,,,,,,,,,,,,,,,,,,,,,,,,,,,,,,,,,,,,,,,,,,,,,,,,,,,,,,,,,,,,,,,,,,,,,,,,,,,,,,,,,,,,WK78XU,train_y,blue_star,bottom_right,2025-08-29_10h02.09.178,HideSeek_v1,2022.2.5,59.94079048715227,
1,5,3,5,8,0,5,66,2,instr_dim1_1,,,,,,0,0,0,0,,,,,0,0,0,0,,,,,,,,,,,,,,,,,,,,,,,,,,,,,,,,,,,,,stimuli/alien_stimuli/66.png,conditions/schedules/train_y_first/blue_star_00/bottom_right/inputInstr_1.xlsx,stimuli/alien_stimuli/66.png,1144.5568627,1144.5568627,1144.5568627,1144.5568627,1144.5481021900002,return,10.892209399999956,"[-0.16, -0.08, 0, 0.08, 0.16, 0.24, 0.32, 0.4, 0.48, 0.56]","[-0.4, -0.32, -0.24, -0.16, -0.08, 0, 0.08, 0.16, 0.24, 0.32]",8,3,5,5,0.4,0.0,1155.6202901,1155.6202901,1155.6202901,1155.6202901,1155.6202901,1155.6202901,1155.6202901,1155.60719603,7.474207100000058,return,7.309602400000131,stimuli/alien_stimuli/66.png,66,5,1,,,,,,,,,,,,,,,,,,,,,,,,,,,,,,,,,,,,,,,,,,,,,,,,,,,,,,,,,,,,,,,,,,,,,,,,,,,,,,,,,,,,,,,,,WK78XU,train_y,blue_star,bottom_right,2025-08-29_10h02.09.178,HideSeek_v1,2022.2.5,59.94079048715227,
,,,,,,,,,,,30,,,,0,0,0,0,,,,,,,,,,,,,,,,,,,,,,,,,,,,,,,,,,,,,,,,,,,,,,,,,,,,,,,,,,,,,,,,,,,,,,,,,,,,,,21,0.7,0,0,99,1,30,0,conditions/schedules/train_y_first/blue_star_00/bottom_right/inputTrain_1.1.xlsx,99,1,1,1,0,,,,,,,,,,,,,,,,,,,,,,,,,,,,,,,,,,,,,,,,,,,,,,,,,,,,,,,,,,,,,,,,,,,,,,,,,,,WK78XU,train_y,blue_star,bottom_right,2025-08-29_10h02.09.178,HideSeek_v1,2022.2.5,59.94079048715227,
,,,,,,,,,,,,,,,1,0,1,0,0,0,0,0,,,,,,,,,,,,,,,,,,,,,,,,,,,,,,,conditions/schedules/train_y_first/blue_star_00/bottom_right/instructions/Slide13.png,conditions/schedules/train_y_first/blue_star_00/bottom_right/instructions/Audio13.wav,1163.1133028000002,1163.1134580700002,13,"[7.522023600000011, 18.28192910000007, 16.66558709999981, 20.13461750000033, 4.9567543999996815, 5.432968600000095, 6.418789400000151, 11.98920360000011, 6.743268100000023, 7.367403299999751, 10.752387500000168, 14.524993099999847, 17.26201469999978]","[0.014261699999678967, 0.013824000000113301, 0.0142971000000216, 0.00021779999997306732, 0.04815310000003592, 0.0002106000001731445, 0.03003579999995054, 0.03378579999980502, 0.030711800000062794, 0.06437670000013895, 0.047844899999745394, 14.524999999999636, 17.262022499999603]",0,,,,,,,,,,,,,,,,,,,,,,,,,,,,,,,,,,,,,,,,,,,,,,,,,,,,,,,,,,,,,,,,,,,,,,,,,,,,,,,,,,,,,,,,,,,,,,,,,,,,,,,,,,,,,,,,,,,,,,,,,,,,WK78XU,train_y,blue_star,bottom_right,2025-08-29_10h02.09.178,HideSeek_v1,2022.2.5,59.94079048715227,
,,,,,,,,,,,,,,,1,0,1,0,1,0,1,0,,,,,,,,,,,,,,,,,,,,,,,,,,,,,,,conditions/schedules/train_y_first/blue_star_00/bottom_right/instructions/Slide14.png,conditions/schedules/train_y_first/blue_star_00/bottom_right/instructions/Audio14.wav,1180.4540494999999,1180.4443639499998,14,"[7.522023600000011, 18.28192910000007, 16.66558709999981, 20.13461750000033, 4.9567543999996815, 5.432968600000095, 6.418789400000151, 11.98920360000011, 6.743268100000023, 7.367403299999751, 10.752387500000168, 14.524993099999847, 17.26201469999978, 17.55243369999971]","[0.014261699999678967, 0.013824000000113301, 0.0142971000000216, 0.00021779999997306732, 0.04815310000003592, 0.0002106000001731445, 0.03003579999995054, 0.03378579999980502, 0.030711800000062794, 0.06437670000013895, 0.047844899999745394, 14.524999999999636, 17.262022499999603, 17.552440699999806]",0,,,,,,,,,,,,,,,,,,,,,,,,,,,,,,,,,,,,,,,,,,,,,,,,,,,,,,,,,,,,,,,,,,,,,,,,,,,,,,,,,,,,,,,,,,,,,,,,,,,,,,,,,,,,,,,,,,,,,,,,,,,,WK78XU,train_y,blue_star,bottom_right,2025-08-29_10h02.09.178,HideSeek_v1,2022.2.5,59.94079048715227,
2,7,3,7,3,0,0,61,2,instr_dim1_1,,,,,,1,0,1,0,,,,,0,0,0,0,,,,,,,,,,,,,,,,,,,,,,,,,,,,,,,,,,,,,stimuli/alien_stimuli/61.png,conditions/schedules/train_y_first/blue_star_00/bottom_right/inputInstr_1.xlsx,stimuli/alien_stimuli/61.png,1198.106101,1198.106101,1198.106101,1198.106101,1198.1090853900002,return,6.411133400000381,"[-0.16, -0.08, 0, 0.08, 0.16, 0.24, 0.32, 0.4, 0.48, 0.56]","[-0.4, -0.32, -0.24, -0.16, -0.08, 0, 0.08, 0.16, 0.24, 0.32]",3,3,7,7,0.0,0.0,1204.6707527,1204.6707527,1204.6707527,1204.6707527,1204.6707527,1204.6707527,1204.6707527,1204.6647269600003,8.340795300000082,return,8.190308000000186,stimuli/alien_stimuli/61.png,61,7,2,,,,,,,,,,,,,,,,,,,,,,,,,,,,,,,,,,,,,,,,,,,,,,,,,,,,,,,,,,,,,,,,,,,,,,,,,,,,,,,,,,,,,,,,,WK78XU,train_y,blue_star,bottom_right,2025-08-29_10h02.09.178,HideSeek_v1,2022.2.5,59.94079048715227,
,,,,,,,,,,,30,,,,1,0,1,0,,,,,,,,,,,,,,,,,,,,,,,,,,,,,,,,,,,,,,,,,,,,,,,,,,,,,,,,,,,,,,,,,,,,,,,,,,,,,,21,0.7,0,0,99,1,30,0,conditions/schedules/train_y_first/blue_star_00/bottom_right/inputTrain_1.1.xlsx,99,1,1,1,0,,,,,,,,,,,,,,,,,,,,,,,,,,,,,,,,,,,,,,,,,,,,,,,,,,,,,,,,,,,,,,,,,,,,,,,,,,,WK78XU,train_y,blue_star,bottom_right,2025-08-29_10h02.09.178,HideSeek_v1,2022.2.5,59.94079048715227,
,,,,,,,,,,,,,,,2,0,2,0,0,0,0,0,,,,,,,,,,,,,,,,,,,,,,,,,,,,,,,conditions/schedules/train_y_first/blue_star_00/bottom_right/instructions/Slide15.png,conditions/schedules/train_y_first/blue_star_00/bottom_right/instructions/Audio15.wav,1213.0758503999998,1213.0713888400003,15,"[7.522023600000011, 18.28192910000007, 16.66558709999981, 20.13461750000033, 4.9567543999996815, 5.432968600000095, 6.418789400000151, 11.98920360000011, 6.743268100000023, 7.367403299999751, 10.752387500000168, 14.524993099999847, 17.26201469999978, 17.55243369999971, 42.61176590000014]","[0.014261699999678967, 0.013824000000113301, 0.0142971000000216, 0.00021779999997306732, 0.04815310000003592, 0.0002106000001731445, 0.03003579999995054, 0.03378579999980502, 0.030711800000062794, 0.06437670000013895, 0.047844899999745394, 14.524999999999636, 17.262022499999603, 17.552440699999806, 42.61177260000022]",0,,,,,,,,,,,,,,,,,,,,,,,,,,,,,,,,,,,,,,,,,,,,,,,,,,,,,,,,,,,,,,,,,,,,,,,,,,,,,,,,,,,,,,,,,,,,,,,,,,,,,,,,,,,,,,,,,,,,,,,,,,,,WK78XU,train_y,blue_star,bottom_right,2025-08-29_10h02.09.178,HideSeek_v1,2022.2.5,59.94079048715227,
,,,,,,,,,,,,,,,2,0,2,0,1,0,1,0,,,,,,,,,,,,,,,,,,,,,,,,,,,,,,,conditions/schedules/train_y_first/blue_star_00/bottom_right/instructions/Slide16.png,conditions/schedules/train_y_first/blue_star_00/bottom_right/instructions/Audio16.wav,1255.7649264999998,1255.7568547499998,16,"[7.522023600000011, 18.28192910000007, 16.66558709999981, 20.13461750000033, 4.9567543999996815, 5.432968600000095, 6.418789400000151, 11.98920360000011, 6.743268100000023, 7.367403299999751, 10.752387500000168, 14.524993099999847, 17.26201469999978, 17.55243369999971, 42.61176590000014, 22.741815099999712]","[0.014261699999678967, 0.013824000000113301, 0.0142971000000216, 0.00021779999997306732, 0.04815310000003592, 0.0002106000001731445, 0.03003579999995054, 0.03378579999980502, 0.030711800000062794, 0.06437670000013895, 0.047844899999745394, 14.524999999999636, 17.262022499999603, 17.552440699999806, 0.056612399999721674, 22.74182189999965]",0,,,,,,,,,,,,,,,,,,,,,,,,,,,,,,,,,,,,,,,,,,,,,,,,,,,,,,,,,,,,,,,,,,,,,,,,,,,,,,,,,,,,,,,,,,,,,,,,,,,,,,,,,,,,,,,,,,,,,,,,,,,,WK78XU,train_y,blue_star,bottom_right,2025-08-29_10h02.09.178,HideSeek_v1,2022.2.5,59.94079048715227,
,5,0,5,4,0,4,65,,train_dim1_1,1,30,,,,2,0,2,0,,,,,,,,,0,0,0,0,0,0,0,0,0,0,0,0,,,,,,,,,,,,,,,,,,,,,,,,,stimuli/alien_stimuli/65.png,,,,,,,,,,,,,,,,,,,,,,,,,,,,,,,,,,,,,,,30,,,,,,,,1278.6209351999998,1278.6209351999998,1278.6209351999998,1278.6209351999998,1278.6209351999998,up,4.738538500000232,0,0,0,99,0.24,-0.32,up,4.627335300000141,,,,,,,,,,,,,,,,,,,,,,,,,,,,,,,,,,,,,,,,,,,,,,,,,,,,,,,,,,,,WK78XU,train_y,blue_star,bottom_right,2025-08-29_10h02.09.178,HideSeek_v1,2022.2.5,59.94079048715227,
,5,0,5,4,0,4,65,,train_dim1_1,1,30,,,,2,0,2,0,,,,,,,,,0,0,0,0,0,0,0,0,1,0,1,0,,,,,,,,,,,,,,,,,,,,,,,,,,,,,,,,,,,,,,,,,,,,,,,,,,,,,,,,,,,,,,,,30,,,,,,,,1283.3446249,1283.3446249,1283.3446249,1283.3446249,1283.3446249,up,4.312839100000019,0,0,0,99,0.24,-0.24,up,4.2250574000004235,,,,,,,,,,,,,,,,,,,,,,,,,,,,,,,,,,,,,,,,,,,,,,,,,,,,,,,,,,,,WK78XU,train_y,blue_star,bottom_right,2025-08-29_10h02.09.178,HideSeek_v1,2022.2.5,59.94079048715227,
,5,0,5,4,0,4,65,,train_dim1_1,1,30,,,,2,0,2,0,,,,,,,,,0,0,0,0,0,0,0,0,2,0,2,0,,,,,,,,,,,,,,,,,,,,,,,,,,,,,,,,,,,,,,,,,,,,,,,,,,,,,,,,,,,,,,,,30,,,,,,,,1287.6669378,1287.6669378,1287.6669378,1287.6669378,1287.6669378,up,6.629196400000183,0,0,0,99,0.24,-0.15999999999999998,up,6.545039699999961,,,,,,,,,,,,,,,,,,,,,,,,,,,,,,,,,,,,,,,,,,,,,,,,,,,,,,,,,,,,WK78XU,train_y,blue_star,bottom_right,2025-08-29_10h02.09.178,HideSeek_v1,2022.2.5,59.94079048715227,
,5,0,5,4,0,4,65,,train_dim1_1,1,30,,,,2,0,2,0,,,,,,,,,0,0,0,0,0,0,0,0,3,0,3,0,,,,,,,,,,,,,,,,,,,,,,,,,,,,,,,,,,,,,,,,,,,,,,,,,,,,,,,,,,,,,,,,30,,,,,,,,1294.3045825000002,1294.3045825000002,1294.3045825000002,1294.3045825000002,1294.3045825000002,up,1.5108769999997094,0,0,0,99,0.24,-0.07999999999999997,up,1.4211380000001554,,,,,,,,,,,,,,,,,,,,,,,,,,,,,,,,,,,,,,,,,,,,,,,,,,,,,,,,,,,,WK78XU,train_y,blue_star,bottom_right,2025-08-29_10h02.09.178,HideSeek_v1,2022.2.5,59.94079048715227,
,5,0,5,4,0,4,65,,train_dim1_1,1,30,,,,2,0,2,0,,,,,,,,,0,0,0,0,0,0,0,0,4,0,4,0,,,,,,,,,,,,,,,,,,,,,,,,,,,,,,,,,,,,,,,,,,,,,,,,,,,,,,,,,,,,,,,,30,,,,,,,,1295.8197576999999,1295.8197576999999,1295.8197576999999,1295.8197576999999,1295.8197576999999,return,1.6278114000001551,1,0,0,1,0.24,-0.07999999999999997,return,1.540443200000027,4,0,0.24,-0.07999999999999997,,,,,,,,,,,,,,,,,,,,,,,,,,,,,,,,,,,,,,,,,,,,,,,,,,,,,,,,WK78XU,train_y,blue_star,bottom_right,2025-08-29_10h02.09.178,HideSeek_v1,2022.2.5,59.94079048715227,
,8,2,8,7,0,5,66,,train_dim1_1,2,30,,,,2,0,2,0,,,,,,,,,0,0,0,0,0,1,1,1,0,0,0,0,,,,,,,,,,,,,,,,,,,,,,,,,stimuli/alien_stimuli/66.png,,,,,,,,,,,,,,,,,,,,,,,,,,,,,stimuli/alien_stimuli/65.png,65,5,3,,,,,,,30,,,,,,,,1310.5414248,1310.5414248,1310.5414248,1310.5414248,1310.5414248,left,9.060991400000148,1,0,0,99,0.39999999999999997,-0.24,left,8.959676999999829,,,,,1308.9676060999998,1310.5414248,0.24,-0.08,0.32,0.0,-0.24000000000000002,0.24,0.24,0.24,-0.08,1299.0271258999999,1299.0271258999999,1299.0271258999999,1299.0271258999999,1299.0271258999999,1299.0271258999999,1299.0271258999999,1299.0271258999999,1299.0093760900002,10.060738399999991,return,9.908623400000124,,,,,,,,,,,,,,,,,,,,,,,,,,,,,,,,,WK78XU,train_y,blue_star,bottom_right,2025-08-29_10h02.09.178,HideSeek_v1,2022.2.5,59.94079048715227,
,8,2,8,7,0,5,66,,train_dim1_1,2,30,,,,2,0,2,0,,,,,,,,,0,0,0,0,0,1,1,1,1,0,1,0,,,,,,,,,,,,,,,,,,,,,,,,,,,,,,,,,,,,,,,,,,,,,,,,,,,,,,,,,,,,,,,,30,,,,,,,,1319.5910001,1319.5910001,1319.5910001,1319.5910001,1319.5910001,left,1.8774381999996876,1,0,0,99,0.31999999999999995,-0.24,left,1.7987481000004664,,,,,,,,,,,,,,,,,,,,,,,,,,,,,,,,,,,,,,,,,,,,,,,,,,,,,,,,,,,,WK78XU,train_y,blue_star,bottom_right,2025-08-29_10h02.09.178,HideSeek_v1,2022.2.5,59.94079048715227,
,8,2,8,7,0,5,66,,train_dim1_1,2,30,,,,2,0,2,0,,,,,,,,,0,0,0,0,0,1,1,1,2,0,2,0,,,,,,,,,,,,,,,,,,,,,,,,,,,,,,,,,,,,,,,,,,,,,,,,,,,,,,,,,,,,,,,,30,,,,,,,,1321.4749252,1321.4749252,1321.4749252,1321.4749252,1321.4749252,return,3.6292333999999755,1,0,0,0,0.31999999999999995,-0.24,return,3.551723000000038,4,-2,0.31999999999999995,-0.24,,,,,,,,,,,,,,,,,,,,,,,,,,,,,,,,,,,,,,,,,,,,,,,,,,,,,,,,WK78XU,train_y,blue_star,bottom_right,2025-08-29_10h02.09.178,HideSeek_v1,2022.2.5,59.94079048715227,
,7,3,7,6,0,3,64,,train_dim1_1,3,30,,,,2,0,2,0,,,,,,,,,0,0,0,0,0,2,2,2,0,0,0,0,,,,,,,,,,,,,,,,,,,,,,,,,stimuli/alien_stimuli/64.png,,,,,,,,,,,,,,,,,,,,,,,,,,,,,stimuli/alien_stimuli/66.png,66,8,4,,,,,,,30,,,,,,,,1339.5251946,1339.5251946,1339.5251946,1339.5251946,1339.5251946,up,4.926890399999593,1,0,0,99,0.4,-0.08,up,4.830666400000155,,,,,1337.9581468,1339.5251946,0.48,0.16,0.4,0.0,-0.039999999999999994,0.48,0.48,0.48,0.16,1326.6971934,1326.6971934,1326.6971934,1326.6971934,1326.6971934,1326.6971934,1326.6971934,1326.6971934,1326.68247346,11.395131100000071,return,11.238564600000245,,,,,,,,,,,,,,,,,,,,,,,,,,,,,,,,,WK78XU,train_y,blue_star,bottom_right,2025-08-29_10h02.09.178,HideSeek_v1,2022.2.5,59.94079048715227,
,7,3,7,6,0,3,64,,train_dim1_1,3,30,,,,2,0,2,0,,,,,,,,,0,0,0,0,0,2,2,2,1,0,1,0,,,,,,,,,,,,,,,,,,,,,,,,,,,,,,,,,,,,,,,,,,,,,,,,,,,,,,,,,,,,,,,,30,,,,,,,,1344.4450676999998,1344.4450676999998,1344.4450676999998,1344.4450676999998,1344.4450676999998,up,1.3935191000000486,1,0,0,99,0.4,0.0,up,1.315779499999735,,,,,,,,,,,,,,,,,,,,,,,,,,,,,,,,,,,,,,,,,,,,,,,,,,,,,,,,,,,,WK78XU,train_y,blue_star,bottom_right,2025-08-29_10h02.09.178,HideSeek_v1,2022.2.5,59.94079048715227,
,7,3,7,6,0,3,64,,train_dim1_1,3,30,,,,2,0,2,0,,,,,,,,,0,0,0,0,0,2,2,2,2,0,2,0,,,,,,,,,,,,,,,,,,,,,,,,,,,,,,,,,,,,,,,,,,,,,,,,,,,,,,,,,,,,,,,,30,,,,,,,,1345.8440927,1345.8440927,1345.8440927,1345.8440927,1345.8440927,up,1.277589600000283,1,0,0,99,0.4,0.08,up,1.1937809000000925,,,,,,,,,,,,,,,,,,,,,,,,,,,,,,,,,,,,,,,,,,,,,,,,,,,,,,,,,,,,WK78XU,train_y,blue_star,bottom_right,2025-08-29_10h02.09.178,HideSeek_v1,2022.2.5,59.94079048715227,
,7,3,7,6,0,3,64,,train_dim1_1,3,30,,,,2,0,2,0,,,,,,,,,0,0,0,0,0,2,2,2,3,0,3,0,,,,,,,,,,,,,,,,,,,,,,,,,,,,,,,,,,,,,,,,,,,,,,,,,,,,,,,,,,,,,,,,30,,,,,,,,1347.1312053999998,1347.1312053999998,1347.1312053999998,1347.1312053999998,1347.1312053999998,up,2.126191800000015,1,0,0,99,0.4,0.16,up,2.0419493000003968,,,,,,,,,,,,,,,,,,,,,,,,,,,,,,,,,,,,,,,,,,,,,,,,,,,,,,,,,,,,WK78XU,train_y,blue_star,bottom_right,2025-08-29_10h02.09.178,HideSeek_v1,2022.2.5,59.94079048715227,
,7,3,7,6,0,3,64,,train_dim1_1,3,30,,,,2,0,2,0,,,,,,,,,0,0,0,0,0,2,2,2,4,0,4,0,,,,,,,,,,,,,,,,,,,,,,,,,,,,,,,,,,,,,,,,,,,,,,,,,,,,,,,,,,,,,,,,30,,,,,,,,1349.2646011999998,1349.2646011999998,1349.2646011999998,1349.2646011999998,1349.2646011999998,up,0.22527769999987868,1,0,0,99,0.4,0.24,up,0.1383126999999149,,,,,,,,,,,,,,,,,,,,,,,,,,,,,,,,,,,,,,,,,,,,,,,,,,,,,,,,,,,,WK78XU,train_y,blue_star,bottom_right,2025-08-29_10h02.09.178,HideSeek_v1,2022.2.5,59.94079048715227,
,7,3,7,6,0,3,64,,train_dim1_1,3,30,,,,2,0,2,0,,,,,,,,,0,0,0,0,0,2,2,2,5,0,5,0,,,,,,,,,,,,,,,,,,,,,,,,,,,,,,,,,,,,,,,,,,,,,,,,,,,,,,,,,,,,,,,,30,,,,,,,,1349.4976037,1349.4976037,1349.4976037,1349.4976037,1349.4976037,return,1.1107209000001603,1,0,0,0,0.4,0.24,return,1.0268590000000586,9,-2,0.4,0.24,,,,,,,,,,,,,,,,,,,,,,,,,,,,,,,,,,,,,,,,,,,,,,,,,,,,,,,,WK78XU,train_y,blue_star,bottom_right,2025-08-29_10h02.09.178,HideSeek_v1,2022.2.5,59.94079048715227,
,5,1,5,2,0,1,62,,train_dim1_1,4,30,,,,2,0,2,0,,,,,,,,,0,0,0,0,0,3,3,3,0,0,0,0,,,,,,,,,,,,,,,,,,,,,,,,,stimuli/alien_stimuli/62.png,,,,,,,,,,,,,,,,,,,,,,,,,,,,,stimuli/alien_stimuli/64.png,64,7,5,,,,,,,30,,,,,,,,1362.3003210999998,1362.3003210999998,1362.3003210999998,1362.3003210999998,1362.3003210999998,up,2.4219514000001254,1,0,0,99,0.24,-0.24,up,2.344041200000447,,,,,1360.7440724,1362.3003210999998,0.4,0.08,0.24,0.0,-0.04,0.4,0.4,0.4,0.08,1352.1783279999997,1352.1783279999997,1352.1783279999997,1352.1783279999997,1352.1783279999997,1352.1783279999997,1352.1783279999997,1352.1783279999997,1352.1700669900004,8.676210699999956,return,8.539784100000361,,,,,,,,,,,,,,,,,,,,,,,,,,,,,,,,,WK78XU,train_y,blue_star,bottom_right,2025-08-29_10h02.09.178,HideSeek_v1,2022.2.5,59.94079048715227,
,5,1,5,2,0,1,62,,train_dim1_1,4,30,,,,2,0,2,0,,,,,,,,,0,0,0,0,0,3,3,3,1,0,1,0,,,,,,,,,,,,,,,,,,,,,,,,,,,,,,,,,,,,,,,,,,,,,,,,,,,,,,,,,,,,,,,,30,,,,,,,,1364.7289528,1364.7289528,1364.7289528,1364.7289528,1364.7289528,up,0.9265301999998883,1,0,0,99,0.24,-0.15999999999999998,up,0.8368821999997635,,,,,,,,,,,,,,,,,,,,,,,,,,,,,,,,,,,,,,,,,,,,,,,,,,,,,,,,,,,,WK78XU,train_y,blue_star,bottom_right,2025-08-29_10h02.09.178,HideSeek_v1,2022.2.5,59.94079048715227,
,5,1,5,2,0,1,62,,train_dim1_1,4,30,,,,2,0,2,0,,,,,,,,,0,0,0,0,0,3,3,3,2,0,2,0,,,,,,,,,,,,,,,,,,,,,,,,,,,,,,,,,,,,,,,,,,,,,,,,,,,,,,,,,,,,,,,,30,,,,,,,,1365.6619942999998,1365.6619942999998,1365.6619942999998,1365.6619942999998,1365.6619942999998,up,0.99409390000028,1,0,0,99,0.24,-0.07999999999999997,up,0.9098496999999952,,,,,,,,,,,,,,,,,,,,,,,,,,,,,,,,,,,,,,,,,,,,,,,,,,,,,,,,,,,,WK78XU,train_y,blue_star,bottom_right,2025-08-29_10h02.09.178,HideSeek_v1,2022.2.5,59.94079048715227,
,5,1,5,2,0,1,62,,train_dim1_1,4,30,,,,2,0,2,0,,,,,,,,,0,0,0,0,0,3,3,3,3,0,3,0,,,,,,,,,,,,,,,,,,,,,,,,,,,,,,,,,,,,,,,,,,,,,,,,,,,,,,,,,,,,,,,,30,,,,,,,,1366.6660467,1366.6660467,1366.6660467,1366.6660467,1366.6660467,up,1.291865400000006,1,0,0,99,0.24,2.7755575615628914e-17,up,1.2026916000004348,,,,,,,,,,,,,,,,,,,,,,,,,,,,,,,,,,,,,,,,,,,,,,,,,,,,,,,,,,,,WK78XU,train_y,blue_star,bottom_right,2025-08-29_10h02.09.178,HideSeek_v1,2022.2.5,59.94079048715227,
,5,1,5,2,0,1,62,,train_dim1_1,4,30,,,,2,0,2,0,,,,,,,,,0,0,0,0,0,3,3,3,4,0,4,0,,,,,,,,,,,,,,,,,,,,,,,,,,,,,,,,,,,,,,,,,,,,,,,,,,,,,,,,,,,,,,,,30,,,,,,,,1367.9630602,1367.9630602,1367.9630602,1367.9630602,1367.9630602,return,4.6134375000001455,1,0,0,0,0.24,2.7755575615628914e-17,return,4.527124900000217,13,-2,0.24,2.7755575615628914e-17,,,,,,,,,,,,,,,,,,,,,,,,,,,,,,,,,,,,,,,,,,,,,,,,,,,,,,,,WK78XU,train_y,blue_star,bottom_right,2025-08-29_10h02.09.178,HideSeek_v1,2022.2.5,59.94079048715227,
,8,3,8,3,0,0,61,,train_dim1_1,5,30,,,,2,0,2,0,,,,,,,,,0,0,0,0,0,4,4,4,0,0,0,0,,,,,,,,,,,,,,,,,,,,,,,,,stimuli/alien_stimuli/61.png,,,,,,,,,,,,,,,,,,,,,,,,,,,,,stimuli/alien_stimuli/62.png,62,5,6,,,,,,,30,,,,,,,,1384.3595944,1384.3595944,1384.3595944,1384.3595944,1384.3595944,up,4.62654479999992,1,0,0,99,0.48,-0.08,up,4.536398499999905,,,,,1382.7958121,1384.3595944,0.24,-0.24,0.08,0.0,-0.28,0.24,0.24,0.24,-0.24,1374.1491282999998,1374.1491282999998,1374.1491282999998,1374.1491282999998,1374.1491282999998,1374.1491282999998,1374.1491282999998,1374.1491282999998,1374.1383884900004,8.759612199999992,return,8.625679199999922,,,,,,,,,,,,,,,,,,,,,,,,,,,,,,,,,WK78XU,train_y,blue_star,bottom_right,2025-08-29_10h02.09.178,HideSeek_v1,2022.2.5,59.94079048715227,
,8,3,8,3,0,0,61,,train_dim1_1,5,30,,,,2,0,2,0,,,,,,,,,0,0,0,0,0,4,4,4,1,0,1,0,,,,,,,,,,,,,,,,,,,,,,,,,,,,,,,,,,,,,,,,,,,,,,,,,,,,,,,,,,,,,,,,30,,,,,,,,1388.9832886000002,1388.9832886000002,1388.9832886000002,1388.9832886000002,1388.9832886000002,return,1.2422950000000128,1,1,0,0,0.48,-0.08,return,1.1580592999998771,14,-2,0.48,-0.08,,,,,,,,,,,,,,,,,,,,,,,,,,,,,,,,,,,,,,,,,,,,,,,,,,,,,,,,WK78XU,train_y,blue_star,bottom_right,2025-08-29_10h02.09.178,HideSeek_v1,2022.2.5,59.94079048715227,
,6,4,6,5,0,1,62,,train_dim1_1,6,30,,,,2,0,2,0,,,,,,,,,0,0,0,0,0,5,5,5,0,0,0,0,,,,,,,,,,,,,,,,,,,,,,,,,stimuli/alien_stimuli/62.png,,,,,,,,,,,,,,,,,,,,,,,,,,,,,stimuli/alien_stimuli/61.png,61,8,7,,,,,,,30,,,,,,,,1405.1463648000001,1405.1463648000001,1405.1463648000001,1405.1463648000001,1405.1463648000001,return,4.508765600000061,1,1,0,0,0.32,-0.08,return,4.406216800000493,14,-2,0.32,-0.08,1403.5794577,1405.1463648000001,0.48,-0.16,0.0,0.0,-0.16,0.48,0.48,0.48,-0.16,1391.7950982999998,1391.7950982999998,1391.7950982999998,1391.7950982999998,1391.7950982999998,1391.7950982999998,1391.7950982999998,1391.7950982999998,1391.7863587900003,11.895401700000093,return,11.756304600000476,,,,,,,,,,,,,,,,,,,,,,,,,,,,,,,,,WK78XU,train_y,blue_star,bottom_right,2025-08-29_10h02.09.178,HideSeek_v1,2022.2.5,59.94079048715227,
,6,3,6,6,0,3,64,,train_dim1_1,7,30,,,,2,0,2,0,,,,,,,,,0,0,0,0,0,6,6,6,0,0,0,0,,,,,,,,,,,,,,,,,,,,,,,,,stimuli/alien_stimuli/64.png,,,,,,,,,,,,,,,,,,,,,,,,,,,,,stimuli/alien_stimuli/62.png,62,6,8,,,,,,,30,,,,,,,,1422.1649713,1422.1649713,1422.1649713,1422.1649713,1422.1649713,up,3.4580535000000054,1,1,0,99,0.32,-0.08,up,3.3587532000001374,,,,,1420.5936447000001,1422.1649713,0.32,0,0.08,0.0,-0.04,0.32,0.32,0.32,0,1411.2114027,1411.2114027,1411.2114027,1411.2114027,1411.2114027,1411.2114027,1411.2114027,1411.2114027,1411.2025623900001,9.49354699999958,return,9.364711300000181,,,,,,,,,,,,,,,,,,,,,,,,,,,,,,,,,WK78XU,train_y,blue_star,bottom_right,2025-08-29_10h02.09.178,HideSeek_v1,2022.2.5,59.94079048715227,
,6,3,6,6,0,3,64,,train_dim1_1,7,30,,,,2,0,2,0,,,,,,,,,0,0,0,0,0,6,6,6,1,0,1,0,,,,,,,,,,,,,,,,,,,,,,,,,,,,,,,,,,,,,,,,,,,,,,,,,,,,,,,,,,,,,,,,30,,,,,,,,1425.6116645,1425.6116645,1425.6116645,1425.6116645,1425.6116645,up,1.7604279000001952,1,1,0,99,0.32,0.0,up,1.6867216000000553,,,,,,,,,,,,,,,,,,,,,,,,,,,,,,,,,,,,,,,,,,,,,,,,,,,,,,,,,,,,WK78XU,train_y,blue_star,bottom_right,2025-08-29_10h02.09.178,HideSeek_v1,2022.2.5,59.94079048715227,
,6,3,6,6,0,3,64,,train_dim1_1,7,30,,,,2,0,2,0,,,,,,,,,0,0,0,0,0,6,6,6,2,0,2,0,,,,,,,,,,,,,,,,,,,,,,,,,,,,,,,,,,,,,,,,,,,,,,,,,,,,,,,,,,,,,,,,30,,,,,,,,1427.3786275999998,1427.3786275999998,1427.3786275999998,1427.3786275999998,1427.3786275999998,up,0.9274808000000121,1,1,0,99,0.32,0.08,up,0.839856100000361,,,,,,,,,,,,,,,,,,,,,,,,,,,,,,,,,,,,,,,,,,,,,,,,,,,,,,,,,,,,WK78XU,train_y,blue_star,bottom_right,2025-08-29_10h02.09.178,HideSeek_v1,2022.2.5,59.94079048715227,
,6,3,6,6,0,3,64,,train_dim1_1,7,30,,,,2,0,2,0,,,,,,,,,0,0,0,0,0,6,6,6,3,0,3,0,,,,,,,,,,,,,,,,,,,,,,,,,,,,,,,,,,,,,,,,,,,,,,,,,,,,,,,,,,,,,,,,30,,,,,,,,1428.3169514999997,1428.3169514999997,1428.3169514999997,1428.3169514999997,1428.3169514999997,up,0.756546999999955,1,1,0,99,0.32,0.16,up,0.6816331999998511,,,,,,,,,,,,,,,,,,,,,,,,,,,,,,,,,,,,,,,,,,,,,,,,,,,,,,,,,,,,WK78XU,train_y,blue_star,bottom_right,2025-08-29_10h02.09.178,HideSeek_v1,2022.2.5,59.94079048715227,
,6,3,6,6,0,3,64,,train_dim1_1,7,30,,,,2,0,2,0,,,,,,,,,0,0,0,0,0,6,6,6,4,0,4,0,,,,,,,,,,,,,,,,,,,,,,,,,,,,,,,,,,,,,,,,,,,,,,,,,,,,,,,,,,,,,,,,30,,,,,,,,1429.0833555000002,1429.0833555000002,1429.0833555000002,1429.0833555000002,1429.0833555000002,return,2.3600052000001597,1,1,0,0,0.32,0.16,return,2.279914100000042,18,-2,0.32,0.16,,,,,,,,,,,,,,,,,,,,,,,,,,,,,,,,,,,,,,,,,,,,,,,,,,,,,,,,WK78XU,train_y,blue_star,bottom_right,2025-08-29_10h02.09.178,HideSeek_v1,2022.2.5,59.94079048715227,
,9,2,9,2,0,0,61,,train_dim1_1,8,30,,,,2,0,2,0,,,,,,,,,0,0,0,0,0,7,7,7,0,0,0,0,,,,,,,,,,,,,,,,,,,,,,,,,stimuli/alien_stimuli/61.png,,,,,,,,,,,,,,,,,,,,,,,,,,,,,stimuli/alien_stimuli/64.png,64,6,9,,,,,,,30,,,,,,,,1439.3790250999998,1439.3790250999998,1439.3790250999998,1439.3790250999998,1439.3790250999998,left,5.759734599999774,1,1,0,99,0.48000000000000004,-0.24,left,5.680776199999855,,,,,1437.8246123000001,1439.3790250999998,0.32,0.08,0.24,0.0,-0.04,0.32,0.32,0.32,0.08,1433.010979,1433.010979,1433.010979,1433.010979,1433.010979,1433.010979,1433.010979,1433.010979,1433.0040752900002,4.922694500000034,return,4.785825299999942,,,,,,,,,,,,,,,,,,,,,,,,,,,,,,,,,WK78XU,train_y,blue_star,bottom_right,2025-08-29_10h02.09.178,HideSeek_v1,2022.2.5,59.94079048715227,
,9,2,9,2,0,0,61,,train_dim1_1,8,30,,,,2,0,2,0,,,,,,,,,0,0,0,0,0,7,7,7,1,0,1,0,,,,,,,,,,,,,,,,,,,,,,,,,,,,,,,,,,,,,,,,,,,,,,,,,,,,,,,,,,,,,,,,30,,,,,,,,1445.1461972,1445.1461972,1445.1461972,1445.1461972,1445.1461972,return,1.0096122999998443,1,1,0,0,0.48000000000000004,-0.24,return,0.9306156000002375,18,-3,0.48000000000000004,-0.24,,,,,,,,,,,,,,,,,,,,,,,,,,,,,,,,,,,,,,,,,,,,,,,,,,,,,,,,WK78XU,train_y,blue_star,bottom_right,2025-08-29_10h02.09.178,HideSeek_v1,2022.2.5,59.94079048715227,
,9,3,9,7,0,4,65,,train_dim1_1,9,30,,,,2,0,2,0,,,,,,,,,0,0,0,0,0,8,8,8,0,0,0,0,,,,,,,,,,,,,,,,,,,,,,,,,stimuli/alien_stimuli/65.png,,,,,,,,,,,,,,,,,,,,,,,,,,,,,stimuli/alien_stimuli/61.png,61,9,10,,,,,,,30,,,,,,,,1455.0633832,1455.0633832,1455.0633832,1455.0633832,1455.0633832,up,6.738520000000335,1,1,0,99,0.56,-0.08,up,6.6567730000001575,,,,,1453.5043969,1455.0633832,0.56,-0.24,0.0,0.0,-0.24,0.56,0.56,0.56,-0.24,1447.7227568,1447.7227568,1447.7227568,1447.7227568,1447.7227568,1447.7227568,1447.7227568,1447.7227568,1447.71609499,5.890356800000063,return,5.753640599999926,,,,,,,,,,,,,,,,,,,,,,,,,,,,,,,,,WK78XU,train_y,blue_star,bottom_right,2025-08-29_10h02.09.178,HideSeek_v1,2022.2.5,59.94079048715227,
,9,3,9,7,0,4,65,,train_dim1_1,9,30,,,,2,0,2,0,,,,,,,,,0,0,0,0,0,8,8,8,1,0,1,0,,,,,,,,,,,,,,,,,,,,,,,,,,,,,,,,,,,,,,,,,,,,,,,,,,,,,,,,,,,,,,,,30,,,,,,,,1461.8131419999997,1461.8131419999997,1461.8131419999997,1461.8131419999997,1461.8131419999997,up,0.9228567000000112,1,1,0,99,0.56,0.0,up,0.8384628000003431,,,,,,,,,,,,,,,,,,,,,,,,,,,,,,,,,,,,,,,,,,,,,,,,,,,,,,,,,,,,WK78XU,train_y,blue_star,bottom_right,2025-08-29_10h02.09.178,HideSeek_v1,2022.2.5,59.94079048715227,
,9,3,9,7,0,4,65,,train_dim1_1,9,30,,,,2,0,2,0,,,,,,,,,0,0,0,0,0,8,8,8,2,0,2,0,,,,,,,,,,,,,,,,,,,,,,,,,,,,,,,,,,,,,,,,,,,,,,,,,,,,,,,,,,,,,,,,30,,,,,,,,1462.7420390999998,1462.7420390999998,1462.7420390999998,1462.7420390999998,1462.7420390999998,up,1.343930300000011,1,1,0,99,0.56,0.08,up,1.2645619000004444,,,,,,,,,,,,,,,,,,,,,,,,,,,,,,,,,,,,,,,,,,,,,,,,,,,,,,,,,,,,WK78XU,train_y,blue_star,bottom_right,2025-08-29_10h02.09.178,HideSeek_v1,2022.2.5,59.94079048715227,
,9,3,9,7,0,4,65,,train_dim1_1,9,30,,,,2,0,2,0,,,,,,,,,0,0,0,0,0,8,8,8,3,0,3,0,,,,,,,,,,,,,,,,,,,,,,,,,,,,,,,,,,,,,,,,,,,,,,,,,,,,,,,,,,,,,,,,30,,,,,,,,1464.0936358000001,1464.0936358000001,1464.0936358000001,1464.0936358000001,1464.0936358000001,return,1.060277799999767,1,1,0,0,0.56,0.08,return,0.9847608000000037,21,-3,0.56,0.08,,,,,,,,,,,,,,,,,,,,,,,,,,,,,,,,,,,,,,,,,,,,,,,,,,,,,,,,WK78XU,train_y,blue_star,bottom_right,2025-08-29_10h02.09.178,HideSeek_v1,2022.2.5,59.94079048715227,
,7,2,7,7,0,5,66,,train_dim1_1,10,30,,,,2,0,2,0,,,,,,,,,0,0,0,0,0,9,9,9,0,0,0,0,,,,,,,,,,,,,,,,,,,,,,,,,stimuli/alien_stimuli/66.png,,,,,,,,,,,,,,,,,,,,,,,,,,,,,stimuli/alien_stimuli/65.png,65,9,11,,,,,,,30,,,,,,,,1472.2235693999999,1472.2235693999999,1472.2235693999999,1472.2235693999999,1472.2235693999999,return,5.009913800000049,1,0,0,0,0.4,-0.24,return,4.921515399999862,21,-3,0.4,-0.24,1470.6682557000001,1472.2235693999999,0.56,0.16,0.32,0.0,0.0,0.56,0.56,0.56,0.16,1466.720356,1466.720356,1466.720356,1466.720356,1466.720356,1466.720356,1466.720356,1466.720356,1466.7151475900002,4.056104400000095,return,3.9252785000003314,,,,,,,,,,,,,,,,,,,,,,,,,,,,,,,,,WK78XU,train_y,blue_star,bottom_right,2025-08-29_10h02.09.178,HideSeek_v1,2022.2.5,59.94079048715227,
,9,1,9,5,0,4,65,,train_dim1_1,11,30,,,,2,0,2,0,,,,,,,,,0,0,0,0,0,10,10,10,0,0,0,0,,,,,,,,,,,,,,,,,,,,,,,,,stimuli/alien_stimuli/65.png,,,,,,,,,,,,,,,,,,,,,,,,,,,,,stimuli/alien_stimuli/66.png,66,7,12,,,,,,,30,,,,,,,,1484.8990686,1484.8990686,1484.8990686,1484.8990686,1484.8990686,up,2.9245585000003302,1,0,0,99,0.56,-0.24,up,2.840962000000218,,,,,1483.3458693,1484.8990686,0.4,0.16,0.4,0.0,-0.039999999999999994,0.4,0.4,0.4,0.16,1478.7969007,1478.7969007,1478.7969007,1478.7969007,1478.7969007,1478.7969007,1478.7969007,1478.7969007,1478.79206989,4.656104700000014,return,4.531964100000096,,,,,,,,,,,,,,,,,,,,,,,,,,,,,,,,,WK78XU,train_y,blue_star,bottom_right,2025-08-29_10h02.09.178,HideSeek_v1,2022.2.5,59.94079048715227,
,9,1,9,5,0,4,65,,train_dim1_1,11,30,,,,2,0,2,0,,,,,,,,,0,0,0,0,0,10,10,10,1,0,1,0,,,,,,,,,,,,,,,,,,,,,,,,,,,,,,,,,,,,,,,,,,,,,,,,,,,,,,,,,,,,,,,,30,,,,,,,,1487.8293508,1487.8293508,1487.8293508,1487.8293508,1487.8293508,up,0.5764523000002555,1,0,0,99,0.56,-0.15999999999999998,up,0.4987687000002552,,,,,,,,,,,,,,,,,,,,,,,,,,,,,,,,,,,,,,,,,,,,,,,,,,,,,,,,,,,,WK78XU,train_y,blue_star,bottom_right,2025-08-29_10h02.09.178,HideSeek_v1,2022.2.5,59.94079048715227,
,9,1,9,5,0,4,65,,train_dim1_1,11,30,,,,2,0,2,0,,,,,,,,,0,0,0,0,0,10,10,10,2,0,2,0,,,,,,,,,,,,,,,,,,,,,,,,,,,,,,,,,,,,,,,,,,,,,,,,,,,,,,,,,,,,,,,,30,,,,,,,,1488.4130733,1488.4130733,1488.4130733,1488.4130733,1488.4130733,up,0.7100826999999299,1,0,0,99,0.56,-0.07999999999999997,up,0.6251633000001675,,,,,,,,,,,,,,,,,,,,,,,,,,,,,,,,,,,,,,,,,,,,,,,,,,,,,,,,,,,,WK78XU,train_y,blue_star,bottom_right,2025-08-29_10h02.09.178,HideSeek_v1,2022.2.5,59.94079048715227,
,9,1,9,5,0,4,65,,train_dim1_1,11,30,,,,2,0,2,0,,,,,,,,,0,0,0,0,0,10,10,10,3,0,3,0,,,,,,,,,,,,,,,,,,,,,,,,,,,,,,,,,,,,,,,,,,,,,,,,,,,,,,,,,,,,,,,,30,,,,,,,,1489.1307857999998,1489.1307857999998,1489.1307857999998,1489.1307857999998,1489.1307857999998,up,1.0606364999998732,1,0,0,99,0.56,2.7755575615628914e-17,up,0.9749742999997579,,,,,,,,,,,,,,,,,,,,,,,,,,,,,,,,,,,,,,,,,,,,,,,,,,,,,,,,,,,,WK78XU,train_y,blue_star,bottom_right,2025-08-29_10h02.09.178,HideSeek_v1,2022.2.5,59.94079048715227,
,9,1,9,5,0,4,65,,train_dim1_1,11,30,,,,2,0,2,0,,,,,,,,,0,0,0,0,0,10,10,10,4,0,4,0,,,,,,,,,,,,,,,,,,,,,,,,,,,,,,,,,,,,,,,,,,,,,,,,,,,,,,,,,,,,,,,,30,,,,,,,,1490.1981035000001,1490.1981035000001,1490.1981035000001,1490.1981035000001,1490.1981035000001,up,1.026843099999951,1,0,0,99,0.56,0.08000000000000003,up,0.9539301000004343,,,,,,,,,,,,,,,,,,,,,,,,,,,,,,,,,,,,,,,,,,,,,,,,,,,,,,,,,,,,WK78XU,train_y,blue_star,bottom_right,2025-08-29_10h02.09.178,HideSeek_v1,2022.2.5,59.94079048715227,
,9,1,9,5,0,4,65,,train_dim1_1,11,30,,,,2,0,2,0,,,,,,,,,0,0,0,0,0,10,10,10,5,0,5,0,,,,,,,,,,,,,,,,,,,,,,,,,,,,,,,,,,,,,,,,,,,,,,,,,,,,,,,,,,,,,,,,30,,,,,,,,1491.2326526,1491.2326526,1491.2326526,1491.2326526,1491.2326526,return,1.2935655999999653,1,1,0,0,0.56,0.08000000000000003,return,1.213561600000503,26,-3,0.56,0.08000000000000003,,,,,,,,,,,,,,,,,,,,,,,,,,,,,,,,,,,,,,,,,,,,,,,,,,,,,,,,WK78XU,train_y,blue_star,bottom_right,2025-08-29_10h02.09.178,HideSeek_v1,2022.2.5,59.94079048715227,
,5,0,5,0,0,0,61,,train_dim1_1,12,30,,,,2,0,2,0,,,,,,,,,0,0,0,0,0,11,11,11,0,0,0,0,,,,,,,,,,,,,,,,,,,,,,,,,stimuli/alien_stimuli/61.png,,,,,,,,,,,,,,,,,,,,,,,,,,,,,stimuli/alien_stimuli/65.png,65,9,13,,,,,,,30,,,,,,,,1504.1167801,1504.1167801,1504.1167801,1504.1167801,1504.1167801,up,4.207835000000159,1,1,0,99,0.24,-0.32,up,4.121310999999878,,,,,1502.5616776999998,1504.1167801,0.56,0,0.32,0.0,-0.16,0.56,0.56,0.56,0,1494.0964201999998,1494.0964201999998,1494.0964201999998,1494.0964201999998,1494.0964201999998,1494.0964201999998,1494.0964201999998,1494.0964201999998,1494.0876673900004,8.576541400000224,return,8.446658000000298,,,,,,,,,,,,,,,,,,,,,,,,,,,,,,,,,WK78XU,train_y,blue_star,bottom_right,2025-08-29_10h02.09.178,HideSeek_v1,2022.2.5,59.94079048715227,
,5,0,5,0,0,0,61,,train_dim1_1,12,30,,,,2,0,2,0,,,,,,,,,0,0,0,0,0,11,11,11,1,0,1,0,,,,,,,,,,,,,,,,,,,,,,,,,,,,,,,,,,,,,,,,,,,,,,,,,,,,,,,,,,,,,,,,30,,,,,,,,1508.3309941,1508.3309941,1508.3309941,1508.3309941,1508.3309941,return,0.7764588000000003,1,1,0,0,0.24,-0.32,return,0.7009688000002825,27,-3,0.24,-0.32,,,,,,,,,,,,,,,,,,,,,,,,,,,,,,,,,,,,,,,,,,,,,,,,,,,,,,,,WK78XU,train_y,blue_star,bottom_right,2025-08-29_10h02.09.178,HideSeek_v1,2022.2.5,59.94079048715227,
,9,3,9,4,0,1,62,,train_dim1_1,13,30,,,,2,0,2,0,,,,,,,,,0,0,0,0,0,12,12,12,0,0,0,0,,,,,,,,,,,,,,,,,,,,,,,,,stimuli/alien_stimuli/62.png,,,,,,,,,,,,,,,,,,,,,,,,,,,,,stimuli/alien_stimuli/61.png,61,5,14,,,,,,,30,,,,,,,,1515.0274238,1515.0274238,1515.0274238,1515.0274238,1515.0274238,return,1.8693315999998958,1,1,0,0,0.56,-0.16,return,1.7879735000001347,27,-3,0.56,-0.16,1513.4708125,1515.0274238,0.24,-0.4,0.0,0.0,-0.4,0.24,0.24,0.24,-0.4,1510.6785684,1510.6785684,1510.6785684,1510.6785684,1510.6785684,1510.6785684,1510.6785684,1510.6785684,1510.66829239,2.9044521000000714,return,2.768992799999978,,,,,,,,,,,,,,,,,,,,,,,,,,,,,,,,,WK78XU,train_y,blue_star,bottom_right,2025-08-29_10h02.09.178,HideSeek_v1,2022.2.5,59.94079048715227,
,7,2,7,7,0,5,66,,train_dim1_1,14,30,,,,2,0,2,0,,,,,,,,,0,0,0,0,0,13,13,13,0,0,0,0,,,,,,,,,,,,,,,,,,,,,,,,,stimuli/alien_stimuli/66.png,,,,,,,,,,,,,,,,,,,,,,,,,,,,,stimuli/alien_stimuli/62.png,62,9,15,,,,,,,30,,,,,,,,1524.7472089,1524.7472089,1524.7472089,1524.7472089,1524.7472089,up,3.34255660000008,1,1,0,99,0.4,-0.15999999999999998,return,3.2770752000001266,,,,,1523.1954643000001,1524.7472089,0.56,-0.08,0.08,0.0,-0.12,0.56,0.56,0.56,-0.08,1518.4488331,1518.4488331,1518.4488331,1518.4488331,1518.4488331,1518.4488331,1518.4488331,1518.4488331,1518.4417430199999,4.839438500000142,return,4.72419360000049,,,,,,,,,,,,,,,,,,,,,,,,,,,,,,,,,WK78XU,train_y,blue_star,bottom_right,2025-08-29_10h02.09.178,HideSeek_v1,2022.2.5,59.94079048715227,
,7,2,7,7,0,5,66,,train_dim1_1,14,30,,,,2,0,2,0,,,,,,,,,0,0,0,0,0,13,13,13,1,0,1,0,,,,,,,,,,,,,,,,,,,,,,,,,,,,,,,,,,,,,,,,,,,,,,,,,,,,,,,,,,,,,,,,30,,,,,,,,1528.0964176999998,1528.0964176999998,1528.0964176999998,1528.0964176999998,1528.0964176999998,up,0.8100217999999586,1,1,0,99,0.4,-0.07999999999999997,up,0.7246202999999696,,,,,,,,,,,,,,,,,,,,,,,,,,,,,,,,,,,,,,,,,,,,,,,,,,,,,,,,,,,,WK78XU,train_y,blue_star,bottom_right,2025-08-29_10h02.09.178,HideSeek_v1,2022.2.5,59.94079048715227,
,7,2,7,7,0,5,66,,train_dim1_1,14,30,,,,2,0,2,0,,,,,,,,,0,0,0,0,0,13,13,13,2,0,2,0,,,,,,,,,,,,,,,,,,,,,,,,,,,,,,,,,,,,,,,,,,,,,,,,,,,,,,,,,,,,,,,,30,,,,,,,,1528.9150008999998,1528.9150008999998,1528.9150008999998,1528.9150008999998,1528.9150008999998,up,0.6764572000001863,1,1,0,99,0.4,2.7755575615628914e-17,up,0.5921704000002137,,,,,,,,,,,,,,,,,,,,,,,,,,,,,,,,,,,,,,,,,,,,,,,,,,,,,,,,,,,,WK78XU,train_y,blue_star,bottom_right,2025-08-29_10h02.09.178,HideSeek_v1,2022.2.5,59.94079048715227,
,7,2,7,7,0,5,66,,train_dim1_1,14,30,,,,2,0,2,0,,,,,,,,,0,0,0,0,0,13,13,13,3,0,3,0,,,,,,,,,,,,,,,,,,,,,,,,,,,,,,,,,,,,,,,,,,,,,,,,,,,,,,,,,,,,,,,,30,,,,,,,,1529.6008623,1529.6008623,1529.6008623,1529.6008623,1529.6008623,up,1.8745975999995608,1,1,0,99,0.4,0.08000000000000003,up,1.7966173000004346,,,,,,,,,,,,,,,,,,,,,,,,,,,,,,,,,,,,,,,,,,,,,,,,,,,,,,,,,,,,WK78XU,train_y,blue_star,bottom_right,2025-08-29_10h02.09.178,HideSeek_v1,2022.2.5,59.94079048715227,
,7,2,7,7,0,5,66,,train_dim1_1,14,30,,,,2,0,2,0,,,,,,,,,0,0,0,0,0,13,13,13,4,0,4,0,,,,,,,,,,,,,,,,,,,,,,,,,,,,,,,,,,,,,,,,,,,,,,,,,,,,,,,,,,,,,,,,30,,,,,,,,1531.4821304999998,1531.4821304999998,1531.4821304999998,1531.4821304999998,1531.4821304999998,return,1.9110451000001376,1,1,0,0,0.4,0.08000000000000003,return,1.8325649000003068,31,-3,0.4,0.08000000000000003,,,,,,,,,,,,,,,,,,,,,,,,,,,,,,,,,,,,,,,,,,,,,,,,,,,,,,,,WK78XU,train_y,blue_star,bottom_right,2025-08-29_10h02.09.178,HideSeek_v1,2022.2.5,59.94079048715227,
,6,4,6,7,0,3,64,,train_dim1_1,15,30,,,,2,0,2,0,,,,,,,,,0,0,0,0,0,14,14,14,0,0,0,0,,,,,,,,,,,,,,,,,,,,,,,,,stimuli/alien_stimuli/64.png,,,,,,,,,,,,,,,,,,,,,,,,,,,,,stimuli/alien_stimuli/66.png,66,7,16,,,,,,,30,,,,,,,,1544.7815167,1544.7815167,1544.7815167,1544.7815167,1544.7815167,down,2.8242826000000605,1,1,0,99,0.32,-0.16,down,2.744595300000128,,,,,1543.228691,1544.7815167,0.4,0.16,0.4,0.0,-0.039999999999999994,0.4,0.4,0.4,0.16,1534.9583596,1534.9583596,1534.9583596,1534.9583596,1534.9583596,1534.9583596,1534.9583596,1534.9583596,1534.9549872900004,8.376167500000065,return,8.248581400000148,,,,,,,,,,,,,,,,,,,,,,,,,,,,,,,,,WK78XU,train_y,blue_star,bottom_right,2025-08-29_10h02.09.178,HideSeek_v1,2022.2.5,59.94079048715227,
,6,4,6,7,0,3,64,,train_dim1_1,15,30,,,,2,0,2,0,,,,,,,,,0,0,0,0,0,14,14,14,1,0,1,0,,,,,,,,,,,,,,,,,,,,,,,,,,,,,,,,,,,,,,,,,,,,,,,,,,,,,,,,,,,,,,,,30,,,,,,,,1547.6126900000002,1547.6126900000002,1547.6126900000002,1547.6126900000002,1547.6126900000002,down,0.5759874000000309,1,1,0,99,0.32,-0.24,down,0.4880361000000448,,,,,,,,,,,,,,,,,,,,,,,,,,,,,,,,,,,,,,,,,,,,,,,,,,,,,,,,,,,,WK78XU,train_y,blue_star,bottom_right,2025-08-29_10h02.09.178,HideSeek_v1,2022.2.5,59.94079048715227,
,6,4,6,7,0,3,64,,train_dim1_1,15,30,,,,2,0,2,0,,,,,,,,,0,0,0,0,0,14,14,14,2,0,2,0,,,,,,,,,,,,,,,,,,,,,,,,,,,,,,,,,,,,,,,,,,,,,,,,,,,,,,,,,,,,,,,,30,,,,,,,,1548.1954331,1548.1954331,1548.1954331,1548.1954331,1548.1954331,down,0.5604395000000295,1,1,0,99,0.32,-0.32,down,0.4761223999998947,,,,,,,,,,,,,,,,,,,,,,,,,,,,,,,,,,,,,,,,,,,,,,,,,,,,,,,,,,,,WK78XU,train_y,blue_star,bottom_right,2025-08-29_10h02.09.178,HideSeek_v1,2022.2.5,59.94079048715227,
,6,4,6,7,0,3,64,,train_dim1_1,15,30,,,,2,0,2,0,,,,,,,,,0,0,0,0,0,14,14,14,3,0,3,0,,,,,,,,,,,,,,,,,,,,,,,,,,,,,,,,,,,,,,,,,,,,,,,,,,,,,,,,,,,,,,,,30,,,,,,,,1548.7639040000001,1548.7639040000001,1548.7639040000001,1548.7639040000001,1548.7639040000001,return,1.177259900000081,1,0,0,0,0.32,-0.32,return,1.093707699999868,28,-3,0.32,-0.32,,,,,,,,,,,,,,,,,,,,,,,,,,,,,,,,,,,,,,,,,,,,,,,,,,,,,,,,WK78XU,train_y,blue_star,bottom_right,2025-08-29_10h02.09.178,HideSeek_v1,2022.2.5,59.94079048715227,
,9,0,9,4,0,4,65,,train_dim1_1,16,30,,,,2,0,2,0,,,,,,,,,0,0,0,0,0,15,15,15,0,0,0,0,,,,,,,,,,,,,,,,,,,,,,,,,stimuli/alien_stimuli/65.png,,,,,,,,,,,,,,,,,,,,,,,,,,,,,stimuli/alien_stimuli/64.png,64,6,17,,,,,,,30,,,,,,,,1558.7957248,1558.7957248,1558.7957248,1558.7957248,1558.7957248,return,3.1730007000001024,1,0,0,0,0.56,-0.4,return,3.097062800000458,28,-3,0.56,-0.4,1557.2402206999998,1558.7957248,0.32,0.16,0.24,0.0,0.04,0.32,0.32,0.32,0.16,1551.5054518999998,1551.5054518999998,1551.5054518999998,1551.5054518999998,1551.5054518999998,1551.5054518999998,1551.5054518999998,1551.5054518999998,1551.5022205900002,5.840823999999884,return,5.710761600000296,,,,,,,,,,,,,,,,,,,,,,,,,,,,,,,,,WK78XU,train_y,blue_star,bottom_right,2025-08-29_10h02.09.178,HideSeek_v1,2022.2.5,59.94079048715227,
,8,3,8,6,0,3,64,,train_dim1_1,17,30,,,,2,0,2,0,,,,,,,,,0,0,0,0,0,16,16,16,0,0,0,0,,,,,,,,,,,,,,,,,,,,,,,,,stimuli/alien_stimuli/64.png,,,,,,,,,,,,,,,,,,,,,,,,,,,,,stimuli/alien_stimuli/65.png,65,9,18,,,,,,,30,,,,,,,,1568.8710352,1568.8710352,1568.8710352,1568.8710352,1568.8710352,up,2.587174100000084,1,0,0,99,0.48,-0.08,up,2.5056499000002077,,,,,1567.3155135999998,1568.8710352,0.56,-0.08,0.32,0.0,-0.24000000000000002,0.56,0.56,0.56,-0.08,1563.5365620999999,1563.5365620999999,1563.5365620999999,1563.5365620999999,1563.5365620999999,1563.5365620999999,1563.5365620999999,1563.5365620999999,1563.5286743900003,3.88926070000025,return,3.762360400000034,,,,,,,,,,,,,,,,,,,,,,,,,,,,,,,,,WK78XU,train_y,blue_star,bottom_right,2025-08-29_10h02.09.178,HideSeek_v1,2022.2.5,59.94079048715227,
,8,3,8,6,0,3,64,,train_dim1_1,17,30,,,,2,0,2,0,,,,,,,,,0,0,0,0,0,16,16,16,1,0,1,0,,,,,,,,,,,,,,,,,,,,,,,,,,,,,,,,,,,,,,,,,,,,,,,,,,,,,,,,,,,,,,,,30,,,,,,,,1571.4672832999997,1571.4672832999997,1571.4672832999997,1571.4672832999997,1571.4672832999997,up,0.7090385999999853,1,0,0,99,0.48,0.0,up,0.6321921000003385,,,,,,,,,,,,,,,,,,,,,,,,,,,,,,,,,,,,,,,,,,,,,,,,,,,,,,,,,,,,WK78XU,train_y,blue_star,bottom_right,2025-08-29_10h02.09.178,HideSeek_v1,2022.2.5,59.94079048715227,
,8,3,8,6,0,3,64,,train_dim1_1,17,30,,,,2,0,2,0,,,,,,,,,0,0,0,0,0,16,16,16,2,0,2,0,,,,,,,,,,,,,,,,,,,,,,,,,,,,,,,,,,,,,,,,,,,,,,,,,,,,,,,,,,,,,,,,30,,,,,,,,1572.1820593,1572.1820593,1572.1820593,1572.1820593,1572.1820593,up,1.628047599999718,1,0,0,99,0.48,0.08,up,1.5529849000004106,,,,,,,,,,,,,,,,,,,,,,,,,,,,,,,,,,,,,,,,,,,,,,,,,,,,,,,,,,,,WK78XU,train_y,blue_star,bottom_right,2025-08-29_10h02.09.178,HideSeek_v1,2022.2.5,59.94079048715227,
,8,3,8,6,0,3,64,,train_dim1_1,17,30,,,,2,0,2,0,,,,,,,,,0,0,0,0,0,16,16,16,3,0,3,0,,,,,,,,,,,,,,,,,,,,,,,,,,,,,,,,,,,,,,,,,,,,,,,,,,,,,,,,,,,,,,,,30,,,,,,,,1573.8171455,1573.8171455,1573.8171455,1573.8171455,1573.8171455,up,1.277165700000296,1,0,0,99,0.48,0.16,up,1.200351700000283,,,,,,,,,,,,,,,,,,,,,,,,,,,,,,,,,,,,,,,,,,,,,,,,,,,,,,,,,,,,WK78XU,train_y,blue_star,bottom_right,2025-08-29_10h02.09.178,HideSeek_v1,2022.2.5,59.94079048715227,
,8,3,8,6,0,3,64,,train_dim1_1,17,30,,,,2,0,2,0,,,,,,,,,0,0,0,0,0,16,16,16,4,0,4,0,,,,,,,,,,,,,,,,,,,,,,,,,,,,,,,,,,,,,,,,,,,,,,,,,,,,,,,,,,,,,,,,30,,,,,,,,1575.1019668000001,1575.1019668000001,1575.1019668000001,1575.1019668000001,1575.1019668000001,return,3.0284576999997626,1,1,0,0,0.48,0.16,return,2.95150810000041,32,-3,0.48,0.16,,,,,,,,,,,,,,,,,,,,,,,,,,,,,,,,,,,,,,,,,,,,,,,,,,,,,,,,WK78XU,train_y,blue_star,bottom_right,2025-08-29_10h02.09.178,HideSeek_v1,2022.2.5,59.94079048715227,
,7,1,7,1,0,0,61,,train_dim1_1,18,30,,,,2,0,2,0,,,,,,,,,0,0,0,0,0,17,17,17,0,0,0,0,,,,,,,,,,,,,,,,,,,,,,,,,stimuli/alien_stimuli/61.png,,,,,,,,,,,,,,,,,,,,,,,,,,,,,stimuli/alien_stimuli/64.png,64,8,19,,,,,,,30,,,,,,,,1584.6826199,1584.6826199,1584.6826199,1584.6826199,1584.6826199,return,3.324139500000001,2,0,0,1,0.4,-0.32,return,3.2360717999999906,32,-3,0.4,-0.32,1583.1282746,1584.6826199,0.48,0.08,0.24,0.0,-0.04,0.48,0.48,0.48,0.08,1579.6986663,1579.6986663,1579.6986663,1579.6986663,1579.6986663,1579.6986663,1579.6986663,1579.6986663,1579.6923022900003,3.539007400000173,return,3.413043700000344,,,,,,,,,,,,,,,,,,,,,,,,,,,,,,,,,WK78XU,train_y,blue_star,bottom_right,2025-08-29_10h02.09.178,HideSeek_v1,2022.2.5,59.94079048715227,
,5,4,5,5,0,1,62,,train_dim1_1,19,30,,,,2,0,2,0,,,,,,,,,0,0,0,0,0,18,18,18,0,0,0,0,,,,,,,,,,,,,,,,,,,,,,,,,stimuli/alien_stimuli/62.png,,,,,,,,,,,,,,,,,,,,,,,,,,,,,stimuli/alien_stimuli/61.png,61,7,20,,,,,,,30,,,,,,,,1594.5430491999998,1594.5430491999998,1594.5430491999998,1594.5430491999998,1594.5430491999998,return,2.236415400000169,2,1,0,0,0.24,-0.08,return,2.161490500000127,32,-3,0.24,-0.08,1592.9867373999998,1594.5430491999998,0.4,-0.32,0.0,0.0,-0.32,0.4,0.4,0.4,-0.32,1589.5565681,1589.5565681,1589.5565681,1589.5565681,1589.5565681,1589.5565681,1589.5565681,1589.5565681,1589.55035892,3.5220429999999396,return,3.4128672000001643,,,,,,,,,,,,,,,,,,,,,,,,,,,,,,,,,WK78XU,train_y,blue_star,bottom_right,2025-08-29_10h02.09.178,HideSeek_v1,2022.2.5,59.94079048715227,
,7,0,7,5,0,5,66,,train_dim1_1,20,30,,,,2,0,2,0,,,,,,,,,0,0,0,0,0,19,19,19,0,0,0,0,,,,,,,,,,,,,,,,,,,,,,,,,stimuli/alien_stimuli/66.png,,,,,,,,,,,,,,,,,,,,,,,,,,,,,stimuli/alien_stimuli/62.png,62,5,21,,,,,,,30,,,,,,,,1603.3969657999999,1603.3969657999999,1603.3969657999999,1603.3969657999999,1603.3969657999999,up,2.2229598999997506,2,1,0,99,0.4,-0.32,up,2.140987000000223,,,,,1601.8440723,1603.3969657999999,0.24,0,0.08,0.0,-0.04,0.24,0.24,0.24,0,1598.3331376999997,1598.3331376999997,1598.3331376999997,1598.3331376999997,1598.3331376999997,1598.3331376999997,1598.3331376999997,1598.3331376999997,1598.3244422200003,3.605240800000047,return,3.4792962999999872,,,,,,,,,,,,,,,,,,,,,,,,,,,,,,,,,WK78XU,train_y,blue_star,bottom_right,2025-08-29_10h02.09.178,HideSeek_v1,2022.2.5,59.94079048715227,
,7,0,7,5,0,5,66,,train_dim1_1,20,30,,,,2,0,2,0,,,,,,,,,0,0,0,0,0,19,19,19,1,0,1,0,,,,,,,,,,,,,,,,,,,,,,,,,,,,,,,,,,,,,,,,,,,,,,,,,,,,,,,,,,,,,,,,30,,,,,,,,1605.6282116,1605.6282116,1605.6282116,1605.6282116,1605.6282116,up,0.5593250000001717,2,1,0,99,0.4,-0.24,up,0.4869807000000037,,,,,,,,,,,,,,,,,,,,,,,,,,,,,,,,,,,,,,,,,,,,,,,,,,,,,,,,,,,,WK78XU,train_y,blue_star,bottom_right,2025-08-29_10h02.09.178,HideSeek_v1,2022.2.5,59.94079048715227,
,7,0,7,5,0,5,66,,train_dim1_1,20,30,,,,2,0,2,0,,,,,,,,,0,0,0,0,0,19,19,19,2,0,2,0,,,,,,,,,,,,,,,,,,,,,,,,,,,,,,,,,,,,,,,,,,,,,,,,,,,,,,,,,,,,,,,,30,,,,,,,,1606.1983754999999,1606.1983754999999,1606.1983754999999,1606.1983754999999,1606.1983754999999,up,0.8233746999999312,2,1,0,99,0.4,-0.15999999999999998,up,0.7432063000001108,,,,,,,,,,,,,,,,,,,,,,,,,,,,,,,,,,,,,,,,,,,,,,,,,,,,,,,,,,,,WK78XU,train_y,blue_star,bottom_right,2025-08-29_10h02.09.178,HideSeek_v1,2022.2.5,59.94079048715227,
,7,0,7,5,0,5,66,,train_dim1_1,20,30,,,,2,0,2,0,,,,,,,,,0,0,0,0,0,19,19,19,3,0,3,0,,,,,,,,,,,,,,,,,,,,,,,,,,,,,,,,,,,,,,,,,,,,,,,,,,,,,,,,,,,,,,,,30,,,,,,,,1607.0284412999997,1607.0284412999997,1607.0284412999997,1607.0284412999997,1607.0284412999997,up,0.6268893000001299,2,1,0,99,0.4,-0.07999999999999997,up,0.5512891000003037,,,,,,,,,,,,,,,,,,,,,,,,,,,,,,,,,,,,,,,,,,,,,,,,,,,,,,,,,,,,WK78XU,train_y,blue_star,bottom_right,2025-08-29_10h02.09.178,HideSeek_v1,2022.2.5,59.94079048715227,
,7,0,7,5,0,5,66,,train_dim1_1,20,30,,,,2,0,2,0,,,,,,,,,0,0,0,0,0,19,19,19,4,0,4,0,,,,,,,,,,,,,,,,,,,,,,,,,,,,,,,,,,,,,,,,,,,,,,,,,,,,,,,,,,,,,,,,30,,,,,,,,1607.6619952999997,1607.6619952999997,1607.6619952999997,1607.6619952999997,1607.6619952999997,up,0.8101920999997674,2,1,0,99,0.4,2.7755575615628914e-17,up,0.7361762000000454,,,,,,,,,,,,,,,,,,,,,,,,,,,,,,,,,,,,,,,,,,,,,,,,,,,,,,,,,,,,WK78XU,train_y,blue_star,bottom_right,2025-08-29_10h02.09.178,HideSeek_v1,2022.2.5,59.94079048715227,
,7,0,7,5,0,5,66,,train_dim1_1,20,30,,,,2,0,2,0,,,,,,,,,0,0,0,0,0,19,19,19,5,0,5,0,,,,,,,,,,,,,,,,,,,,,,,,,,,,,,,,,,,,,,,,,,,,,,,,,,,,,,,,,,,,,,,,30,,,,,,,,1608.4796358,1608.4796358,1608.4796358,1608.4796358,1608.4796358,return,0.7269612999998571,3,0,0,1,0.4,2.7755575615628914e-17,return,0.6548129000002518,37,-3,0.4,2.7755575615628914e-17,,,,,,,,,,,,,,,,,,,,,,,,,,,,,,,,,,,,,,,,,,,,,,,,,,,,,,,,WK78XU,train_y,blue_star,bottom_right,2025-08-29_10h02.09.178,HideSeek_v1,2022.2.5,59.94079048715227,
,7,4,7,8,0,4,65,,train_dim1_1,21,30,,,,2,0,2,0,,,,,,,,,0,0,0,0,0,20,20,20,0,0,0,0,,,,,,,,,,,,,,,,,,,,,,,,,stimuli/alien_stimuli/65.png,,,,,,,,,,,,,,,,,,,,,,,,,,,,,stimuli/alien_stimuli/66.png,66,7,22,,,,,,,30,,,,,,,,1617.5741474,1617.5741474,1617.5741474,1617.5741474,1617.5741474,up,3.025081599999794,3,0,0,99,0.4,0.0,up,2.9401969000000463,,,,,1616.0224479,1617.5741474,0.4,0,0.4,0.0,-0.2,0.4,0.4,0.4,0,1610.7771142999998,1610.7771142999998,1610.7771142999998,1610.7771142999998,1610.7771142999998,1610.7771142999998,1610.7771142999998,1610.7771142999998,1610.76801769,5.356679500000155,return,5.22408680000035,,,,,,,,,,,,,,,,,,,,,,,,,,,,,,,,,WK78XU,train_y,blue_star,bottom_right,2025-08-29_10h02.09.178,HideSeek_v1,2022.2.5,59.94079048715227,
,7,4,7,8,0,4,65,,train_dim1_1,21,30,,,,2,0,2,0,,,,,,,,,0,0,0,0,0,20,20,20,1,0,1,0,,,,,,,,,,,,,,,,,,,,,,,,,,,,,,,,,,,,,,,,,,,,,,,,,,,,,,,,,,,,,,,,30,,,,,,,,1620.6062019999997,1620.6062019999997,1620.6062019999997,1620.6062019999997,1620.6062019999997,up,0.5429493999999977,3,0,0,99,0.4,0.08,up,0.4570883999999751,,,,,,,,,,,,,,,,,,,,,,,,,,,,,,,,,,,,,,,,,,,,,,,,,,,,,,,,,,,,WK78XU,train_y,blue_star,bottom_right,2025-08-29_10h02.09.178,HideSeek_v1,2022.2.5,59.94079048715227,
,7,4,7,8,0,4,65,,train_dim1_1,21,30,,,,2,0,2,0,,,,,,,,,0,0,0,0,0,20,20,20,2,0,2,0,,,,,,,,,,,,,,,,,,,,,,,,,,,,,,,,,,,,,,,,,,,,,,,,,,,,,,,,,,,,,,,,30,,,,,,,,1621.1563098999998,1621.1563098999998,1621.1563098999998,1621.1563098999998,1621.1563098999998,up,0.5439527999997154,3,0,0,99,0.4,0.16,up,0.4690267999999378,,,,,,,,,,,,,,,,,,,,,,,,,,,,,,,,,,,,,,,,,,,,,,,,,,,,,,,,,,,,WK78XU,train_y,blue_star,bottom_right,2025-08-29_10h02.09.178,HideSeek_v1,2022.2.5,59.94079048715227,
,7,4,7,8,0,4,65,,train_dim1_1,21,30,,,,2,0,2,0,,,,,,,,,0,0,0,0,0,20,20,20,3,0,3,0,,,,,,,,,,,,,,,,,,,,,,,,,,,,,,,,,,,,,,,,,,,,,,,,,,,,,,,,,,,,,,,,30,,,,,,,,1621.7081104000001,1621.7081104000001,1621.7081104000001,1621.7081104000001,1621.7081104000001,up,0.6096012999996674,3,0,0,99,0.4,0.24,up,0.5215901000001395,,,,,,,,,,,,,,,,,,,,,,,,,,,,,,,,,,,,,,,,,,,,,,,,,,,,,,,,,,,,WK78XU,train_y,blue_star,bottom_right,2025-08-29_10h02.09.178,HideSeek_v1,2022.2.5,59.94079048715227,
,7,4,7,8,0,4,65,,train_dim1_1,21,30,,,,2,0,2,0,,,,,,,,,0,0,0,0,0,20,20,20,4,0,4,0,,,,,,,,,,,,,,,,,,,,,,,,,,,,,,,,,,,,,,,,,,,,,,,,,,,,,,,,,,,,,,,,30,,,,,,,,1622.3241372999998,1622.3241372999998,1622.3241372999998,1622.3241372999998,1622.3241372999998,return,3.128881099999944,4,0,0,1,0.4,0.24,return,3.048342600000069,41,-3,0.4,0.24,,,,,,,,,,,,,,,,,,,,,,,,,,,,,,,,,,,,,,,,,,,,,,,,,,,,,,,,WK78XU,train_y,blue_star,bottom_right,2025-08-29_10h02.09.178,HideSeek_v1,2022.2.5,59.94079048715227,
,5,2,5,5,0,3,64,,train_dim1_1,22,30,,,,2,0,2,0,,,,,,,,,0,0,0,0,0,21,21,21,0,0,0,0,,,,,,,,,,,,,,,,,,,,,,,,,stimuli/alien_stimuli/64.png,,,,,,,,,,,,,,,,,,,,,,,,,,,,,stimuli/alien_stimuli/65.png,65,7,23,,,,,,,30,,,,,,,,1631.3717012999998,1631.3717012999998,1631.3717012999998,1631.3717012999998,1631.3717012999998,left,2.3892092999999477,4,0,0,99,0.15999999999999998,-0.24,left,2.310210100000404,,,,,1629.8171344999998,1631.3717012999998,0.4,0.24,0.32,0.0,0.07999999999999999,0.4,0.4,0.4,0.24,1627.0235559999999,1627.0235559999999,1627.0235559999999,1627.0235559999999,1627.0235559999999,1627.0235559999999,1627.0235559999999,1627.0235559999999,1627.0149540900004,2.904530099999647,return,2.761629300000095,,,,,,,,,,,,,,,,,,,,,,,,,,,,,,,,,WK78XU,train_y,blue_star,bottom_right,2025-08-29_10h02.09.178,HideSeek_v1,2022.2.5,59.94079048715227,
,5,2,5,5,0,3,64,,train_dim1_1,22,30,,,,2,0,2,0,,,,,,,,,0,0,0,0,0,21,21,21,1,0,1,0,,,,,,,,,,,,,,,,,,,,,,,,,,,,,,,,,,,,,,,,,,,,,,,,,,,,,,,,,,,,,,,,30,,,,,,,,1633.7670173,1633.7670173,1633.7670173,1633.7670173,1633.7670173,left,0.6431585000000268,4,0,0,99,0.07999999999999997,-0.24,left,0.5584463000004689,,,,,,,,,,,,,,,,,,,,,,,,,,,,,,,,,,,,,,,,,,,,,,,,,,,,,,,,,,,,WK78XU,train_y,blue_star,bottom_right,2025-08-29_10h02.09.178,HideSeek_v1,2022.2.5,59.94079048715227,
,5,2,5,5,0,3,64,,train_dim1_1,22,30,,,,2,0,2,0,,,,,,,,,0,0,0,0,0,21,21,21,2,0,2,0,,,,,,,,,,,,,,,,,,,,,,,,,,,,,,,,,,,,,,,,,,,,,,,,,,,,,,,,,,,,,,,,30,,,,,,,,1634.4177296,1634.4177296,1634.4177296,1634.4177296,1634.4177296,left,0.5262155000000348,4,0,0,99,-2.7755575615628914e-17,-0.24,left,0.44319769999992786,,,,,,,,,,,,,,,,,,,,,,,,,,,,,,,,,,,,,,,,,,,,,,,,,,,,,,,,,,,,WK78XU,train_y,blue_star,bottom_right,2025-08-29_10h02.09.178,HideSeek_v1,2022.2.5,59.94079048715227,
,5,2,5,5,0,3,64,,train_dim1_1,22,30,,,,2,0,2,0,,,,,,,,,0,0,0,0,0,21,21,21,3,0,3,0,,,,,,,,,,,,,,,,,,,,,,,,,,,,,,,,,,,,,,,,,,,,,,,,,,,,,,,,,,,,,,,,30,,,,,,,,1634.9512051,1634.9512051,1634.9512051,1634.9512051,1634.9512051,up,0.9438644000001659,4,0,0,99,-2.7755575615628914e-17,-0.15999999999999998,up,0.8683549000002131,,,,,,,,,,,,,,,,,,,,,,,,,,,,,,,,,,,,,,,,,,,,,,,,,,,,,,,,,,,,WK78XU,train_y,blue_star,bottom_right,2025-08-29_10h02.09.178,HideSeek_v1,2022.2.5,59.94079048715227,
,5,2,5,5,0,3,64,,train_dim1_1,22,30,,,,2,0,2,0,,,,,,,,,0,0,0,0,0,21,21,21,4,0,4,0,,,,,,,,,,,,,,,,,,,,,,,,,,,,,,,,,,,,,,,,,,,,,,,,,,,,,,,,,,,,,,,,30,,,,,,,,1635.9017016999999,1635.9017016999999,1635.9017016999999,1635.9017016999999,1635.9017016999999,return,1.1437330000003385,4,0,0,0,-2.7755575615628914e-17,-0.15999999999999998,return,1.0647785999999542,42,-6,-2.7755575615628914e-17,-0.15999999999999998,,,,,,,,,,,,,,,,,,,,,,,,,,,,,,,,,,,,,,,,,,,,,,,,,,,,,,,,WK78XU,train_y,blue_star,bottom_right,2025-08-29_10h02.09.178,HideSeek_v1,2022.2.5,59.94079048715227,
,5,3,5,3,0,0,61,,train_dim1_1,23,30,,,,2,0,2,0,,,,,,,,,0,0,0,0,0,22,22,22,0,0,0,0,,,,,,,,,,,,,,,,,,,,,,,,,stimuli/alien_stimuli/61.png,,,,,,,,,,,,,,,,,,,,,,,,,,,,,stimuli/alien_stimuli/64.png,64,5,24,,,,,,,30,,,,,,,,1643.0164152,1643.0164152,1643.0164152,1643.0164152,1643.0164152,return,2.637792399999853,5,0,0,1,0.24,-0.16,return,2.5527893000003132,42,-6,0.24,-0.16,1641.4602963,1643.0164152,0.24,0,0.24,0.0,-0.12,0.24,0.24,0.24,0,1638.6152697999999,1638.6152697999999,1638.6152697999999,1638.6152697999999,1638.6152697999999,1638.6152697999999,1638.6152697999999,1638.6152697999999,1638.6076763900003,2.9551383000002716,return,2.827232600000116,,,,,,,,,,,,,,,,,,,,,,,,,,,,,,,,,WK78XU,train_y,blue_star,bottom_right,2025-08-29_10h02.09.178,HideSeek_v1,2022.2.5,59.94079048715227,
,8,2,8,7,0,5,66,,train_dim1_1,24,30,,,,2,0,2,0,,,,,,,,,0,0,0,0,0,23,23,23,0,0,0,0,,,,,,,,,,,,,,,,,,,,,,,,,stimuli/alien_stimuli/66.png,,,,,,,,,,,,,,,,,,,,,,,,,,,,,stimuli/alien_stimuli/61.png,61,5,25,,,,,,,30,,,,,,,,1652.0740769000001,1652.0740769000001,1652.0740769000001,1652.0740769000001,1652.0740769000001,up,2.4540640000000167,5,0,0,99,0.48,-0.15999999999999998,up,2.372554200000195,,,,,1650.5177637999998,1652.0740769000001,0.24,-0.16,0.0,0.0,-0.16,0.24,0.24,0.24,-0.16,1647.2036333999997,1647.2036333999997,1647.2036333999997,1647.2036333999997,1647.2036333999997,1647.2036333999997,1647.2036333999997,1647.2036333999997,1647.19828102,3.4051729999996496,return,3.2968610000002627,,,,,,,,,,,,,,,,,,,,,,,,,,,,,,,,,WK78XU,train_y,blue_star,bottom_right,2025-08-29_10h02.09.178,HideSeek_v1,2022.2.5,59.94079048715227,
,8,2,8,7,0,5,66,,train_dim1_1,24,30,,,,2,0,2,0,,,,,,,,,0,0,0,0,0,23,23,23,1,0,1,0,,,,,,,,,,,,,,,,,,,,,,,,,,,,,,,,,,,,,,,,,,,,,,,,,,,,,,,,,,,,,,,,30,,,,,,,,1654.5343655999998,1654.5343655999998,1654.5343655999998,1654.5343655999998,1654.5343655999998,up,0.5261170999997375,5,0,0,99,0.48,-0.07999999999999997,up,0.44490910000013173,,,,,,,,,,,,,,,,,,,,,,,,,,,,,,,,,,,,,,,,,,,,,,,,,,,,,,,,,,,,WK78XU,train_y,blue_star,bottom_right,2025-08-29_10h02.09.178,HideSeek_v1,2022.2.5,59.94079048715227,
,8,2,8,7,0,5,66,,train_dim1_1,24,30,,,,2,0,2,0,,,,,,,,,0,0,0,0,0,23,23,23,2,0,2,0,,,,,,,,,,,,,,,,,,,,,,,,,,,,,,,,,,,,,,,,,,,,,,,,,,,,,,,,,,,,,,,,30,,,,,,,,1655.0682989999998,1655.0682989999998,1655.0682989999998,1655.0682989999998,1655.0682989999998,up,1.2439595999999256,5,0,0,99,0.48,2.7755575615628914e-17,up,1.1572146000003158,,,,,,,,,,,,,,,,,,,,,,,,,,,,,,,,,,,,,,,,,,,,,,,,,,,,,,,,,,,,WK78XU,train_y,blue_star,bottom_right,2025-08-29_10h02.09.178,HideSeek_v1,2022.2.5,59.94079048715227,
,8,2,8,7,0,5,66,,train_dim1_1,24,30,,,,2,0,2,0,,,,,,,,,0,0,0,0,0,23,23,23,3,0,3,0,,,,,,,,,,,,,,,,,,,,,,,,,,,,,,,,,,,,,,,,,,,,,,,,,,,,,,,,,,,,,,,,30,,,,,,,,1656.3188830000001,1656.3188830000001,1656.3188830000001,1656.3188830000001,1656.3188830000001,up,0.8604552999995576,5,0,0,99,0.48,0.08000000000000003,up,0.7844901000003119,,,,,,,,,,,,,,,,,,,,,,,,,,,,,,,,,,,,,,,,,,,,,,,,,,,,,,,,,,,,WK78XU,train_y,blue_star,bottom_right,2025-08-29_10h02.09.178,HideSeek_v1,2022.2.5,59.94079048715227,
,8,2,8,7,0,5,66,,train_dim1_1,24,30,,,,2,0,2,0,,,,,,,,,0,0,0,0,0,23,23,23,4,0,4,0,,,,,,,,,,,,,,,,,,,,,,,,,,,,,,,,,,,,,,,,,,,,,,,,,,,,,,,,,,,,,,,,30,,,,,,,,1657.1864607999998,1657.1864607999998,1657.1864607999998,1657.1864607999998,1657.1864607999998,up,0.7268151999996917,5,0,0,99,0.48,0.16000000000000003,up,0.6472226000000774,,,,,,,,,,,,,,,,,,,,,,,,,,,,,,,,,,,,,,,,,,,,,,,,,,,,,,,,,,,,WK78XU,train_y,blue_star,bottom_right,2025-08-29_10h02.09.178,HideSeek_v1,2022.2.5,59.94079048715227,
,8,2,8,7,0,5,66,,train_dim1_1,24,30,,,,2,0,2,0,,,,,,,,,0,0,0,0,0,23,23,23,5,0,5,0,,,,,,,,,,,,,,,,,,,,,,,,,,,,,,,,,,,,,,,,,,,,,,,,,,,,,,,,,,,,,,,,30,,,,,,,,1657.9201394,1657.9201394,1657.9201394,1657.9201394,1657.9201394,return,2.3450874000000113,6,0,0,1,0.48,0.16000000000000003,return,2.2571075000000747,47,-6,0.48,0.16000000000000003,,,,,,,,,,,,,,,,,,,,,,,,,,,,,,,,,,,,,,,,,,,,,,,,,,,,,,,,WK78XU,train_y,blue_star,bottom_right,2025-08-29_10h02.09.178,HideSeek_v1,2022.2.5,59.94079048715227,
,8,3,8,4,0,1,62,,train_dim1_1,25,30,,,,2,0,2,0,,,,,,,,,0,0,0,0,0,24,24,24,0,0,0,0,,,,,,,,,,,,,,,,,,,,,,,,,stimuli/alien_stimuli/62.png,,,,,,,,,,,,,,,,,,,,,,,,,,,,,stimuli/alien_stimuli/66.png,66,8,26,,,,,,,30,,,,,,,,1668.6041635999998,1668.6041635999998,1668.6041635999998,1668.6041635999998,1668.6041635999998,return,1.9040562999998656,6,1,0,0,0.48,-0.16,return,1.8199393999998392,47,-6,0.48,-0.16,1667.0479827000001,1668.6041635999998,0.48,0.16,0.4,0.0,-0.039999999999999994,0.48,0.48,0.48,0.16,1661.8369028,1661.8369028,1661.8369028,1661.8369028,1661.8369028,1661.8369028,1661.8369028,1661.8369028,1661.8270074900004,5.323721600000226,return,5.192448200000399,,,,,,,,,,,,,,,,,,,,,,,,,,,,,,,,,WK78XU,train_y,blue_star,bottom_right,2025-08-29_10h02.09.178,HideSeek_v1,2022.2.5,59.94079048715227,
,9,4,9,7,0,3,64,,train_dim1_1,26,30,,,,2,0,2,0,,,,,,,,,0,0,0,0,0,25,25,25,0,0,0,0,,,,,,,,,,,,,,,,,,,,,,,,,stimuli/alien_stimuli/64.png,,,,,,,,,,,,,,,,,,,,,,,,,,,,,stimuli/alien_stimuli/62.png,62,8,27,,,,,,,30,,,,,,,,1676.7257028000001,1676.7257028000001,1676.7257028000001,1676.7257028000001,1676.7257028000001,up,3.308247200000096,6,1,0,99,0.56,0.0,up,3.2205383000004986,,,,,1675.1711493999999,1676.7257028000001,0.48,-0.08,0.08,0.0,-0.12,0.48,0.48,0.48,-0.08,1672.0783788,1672.0783788,1672.0783788,1672.0783788,1672.0783788,1672.0783788,1672.0783788,1672.0783788,1672.0688392900004,3.2050961999998435,return,3.076185600000372,,,,,,,,,,,,,,,,,,,,,,,,,,,,,,,,,WK78XU,train_y,blue_star,bottom_right,2025-08-29_10h02.09.178,HideSeek_v1,2022.2.5,59.94079048715227,
,9,4,9,7,0,3,64,,train_dim1_1,26,30,,,,2,0,2,0,,,,,,,,,0,0,0,0,0,25,25,25,1,0,1,0,,,,,,,,,,,,,,,,,,,,,,,,,,,,,,,,,,,,,,,,,,,,,,,,,,,,,,,,,,,,,,,,30,,,,,,,,1680.0391257999997,1680.0391257999997,1680.0391257999997,1680.0391257999997,1680.0391257999997,up,0.40936169999986305,6,1,0,99,0.56,0.08,up,0.3324635000003582,,,,,,,,,,,,,,,,,,,,,,,,,,,,,,,,,,,,,,,,,,,,,,,,,,,,,,,,,,,,WK78XU,train_y,blue_star,bottom_right,2025-08-29_10h02.09.178,HideSeek_v1,2022.2.5,59.94079048715227,
,9,4,9,7,0,3,64,,train_dim1_1,26,30,,,,2,0,2,0,,,,,,,,,0,0,0,0,0,25,25,25,2,0,2,0,,,,,,,,,,,,,,,,,,,,,,,,,,,,,,,,,,,,,,,,,,,,,,,,,,,,,,,,,,,,,,,,30,,,,,,,,1680.4559444,1680.4559444,1680.4559444,1680.4559444,1680.4559444,down,2.4452633000000787,6,1,0,99,0.56,0.0,down,2.3596934000001966,,,,,,,,,,,,,,,,,,,,,,,,,,,,,,,,,,,,,,,,,,,,,,,,,,,,,,,,,,,,WK78XU,train_y,blue_star,bottom_right,2025-08-29_10h02.09.178,HideSeek_v1,2022.2.5,59.94079048715227,
,9,4,9,7,0,3,64,,train_dim1_1,26,30,,,,2,0,2,0,,,,,,,,,0,0,0,0,0,25,25,25,3,0,3,0,,,,,,,,,,,,,,,,,,,,,,,,,,,,,,,,,,,,,,,,,,,,,,,,,,,,,,,,,,,,,,,,30,,,,,,,,1682.9109357999998,1682.9109357999998,1682.9109357999998,1682.9109357999998,1682.9109357999998,down,1.0068093999998382,6,1,0,99,0.56,-0.08,down,0.9328009000000748,,,,,,,,,,,,,,,,,,,,,,,,,,,,,,,,,,,,,,,,,,,,,,,,,,,,,,,,,,,,WK78XU,train_y,blue_star,bottom_right,2025-08-29_10h02.09.178,HideSeek_v1,2022.2.5,59.94079048715227,
,9,4,9,7,0,3,64,,train_dim1_1,26,30,,,,2,0,2,0,,,,,,,,,0,0,0,0,0,25,25,25,4,0,4,0,,,,,,,,,,,,,,,,,,,,,,,,,,,,,,,,,,,,,,,,,,,,,,,,,,,,,,,,,,,,,,,,30,,,,,,,,1683.9247809,1683.9247809,1683.9247809,1683.9247809,1683.9247809,return,1.5275409000000764,6,0,0,0,0.56,-0.08,return,1.4536379000001034,47,-6,0.56,-0.08,,,,,,,,,,,,,,,,,,,,,,,,,,,,,,,,,,,,,,,,,,,,,,,,,,,,,,,,WK78XU,train_y,blue_star,bottom_right,2025-08-29_10h02.09.178,HideSeek_v1,2022.2.5,59.94079048715227,
,8,4,8,9,0,5,66,,train_dim1_1,27,30,,,,2,0,2,0,,,,,,,,,0,0,0,0,0,26,26,26,0,0,0,0,,,,,,,,,,,,,,,,,,,,,,,,,stimuli/alien_stimuli/66.png,,,,,,,,,,,,,,,,,,,,,,,,,,,,,stimuli/alien_stimuli/64.png,64,9,28,,,,,,,30,,,,,,,,1693.8219437,1693.8219437,1693.8219437,1693.8219437,1693.8219437,up,3.2243702999999186,6,0,0,99,0.48,0.0,up,3.146633599999859,,,,,1692.2689520000001,1693.8219437,0.56,0.16,0.24,0.0,0.04,0.56,0.56,0.56,0.16,1687.0230187,1687.0230187,1687.0230187,1687.0230187,1687.0230187,1687.0230187,1687.0230187,1687.0230187,1687.0147689900002,5.356983499999842,return,5.228743900000154,,,,,,,,,,,,,,,,,,,,,,,,,,,,,,,,,WK78XU,train_y,blue_star,bottom_right,2025-08-29_10h02.09.178,HideSeek_v1,2022.2.5,59.94079048715227,
,8,4,8,9,0,5,66,,train_dim1_1,27,30,,,,2,0,2,0,,,,,,,,,0,0,0,0,0,26,26,26,1,0,1,0,,,,,,,,,,,,,,,,,,,,,,,,,,,,,,,,,,,,,,,,,,,,,,,,,,,,,,,,,,,,,,,,30,,,,,,,,1697.0559265999998,1697.0559265999998,1697.0559265999998,1697.0559265999998,1697.0559265999998,up,0.8071826999998848,6,0,0,99,0.48,0.08,up,0.7295799000003171,,,,,,,,,,,,,,,,,,,,,,,,,,,,,,,,,,,,,,,,,,,,,,,,,,,,,,,,,,,,WK78XU,train_y,blue_star,bottom_right,2025-08-29_10h02.09.178,HideSeek_v1,2022.2.5,59.94079048715227,
,8,4,8,9,0,5,66,,train_dim1_1,27,30,,,,2,0,2,0,,,,,,,,,0,0,0,0,0,26,26,26,2,0,2,0,,,,,,,,,,,,,,,,,,,,,,,,,,,,,,,,,,,,,,,,,,,,,,,,,,,,,,,,,,,,,,,,30,,,,,,,,1697.8745591,1697.8745591,1697.8745591,1697.8745591,1697.8745591,up,2.325570399999833,6,0,0,99,0.48,0.16,up,2.2357114999999794,,,,,,,,,,,,,,,,,,,,,,,,,,,,,,,,,,,,,,,,,,,,,,,,,,,,,,,,,,,,WK78XU,train_y,blue_star,bottom_right,2025-08-29_10h02.09.178,HideSeek_v1,2022.2.5,59.94079048715227,
,8,4,8,9,0,5,66,,train_dim1_1,27,30,,,,2,0,2,0,,,,,,,,,0,0,0,0,0,26,26,26,3,0,3,0,,,,,,,,,,,,,,,,,,,,,,,,,,,,,,,,,,,,,,,,,,,,,,,,,,,,,,,,,,,,,,,,30,,,,,,,,1700.2056560999997,1700.2056560999997,1700.2056560999997,1700.2056560999997,1700.2056560999997,return,1.1440431999999419,6,0,0,0,0.48,0.16,return,1.0586512000004404,50,-6,0.48,0.16,,,,,,,,,,,,,,,,,,,,,,,,,,,,,,,,,,,,,,,,,,,,,,,,,,,,,,,,WK78XU,train_y,blue_star,bottom_right,2025-08-29_10h02.09.178,HideSeek_v1,2022.2.5,59.94079048715227,
,9,1,9,1,0,0,61,,train_dim1_1,28,30,,,,2,0,2,0,,,,,,,,,0,0,0,0,0,27,27,27,0,0,0,0,,,,,,,,,,,,,,,,,,,,,,,,,stimuli/alien_stimuli/61.png,,,,,,,,,,,,,,,,,,,,,,,,,,,,,stimuli/alien_stimuli/66.png,66,8,29,,,,,,,30,,,,,,,,1707.6159974999998,1707.6159974999998,1707.6159974999998,1707.6159974999998,1707.6159974999998,return,1.8743961000000127,7,0,0,1,0.56,-0.32,return,1.8014977000002546,50,-6,0.56,-0.32,1706.0638056999999,1707.6159974999998,0.48,0.32,0.4,0.0,0.12,0.48,0.48,0.48,0.32,1702.920718,1702.920718,1702.920718,1702.920718,1702.920718,1702.920718,1702.920718,1702.920718,1702.9110513900002,3.255377899999985,return,3.1213576999998622,,,,,,,,,,,,,,,,,,,,,,,,,,,,,,,,,WK78XU,train_y,blue_star,bottom_right,2025-08-29_10h02.09.178,HideSeek_v1,2022.2.5,59.94079048715227,
,7,2,7,3,0,1,62,,train_dim1_1,29,30,,,,2,0,2,0,,,,,,,,,0,0,0,0,0,28,28,28,0,0,0,0,,,,,,,,,,,,,,,,,,,,,,,,,stimuli/alien_stimuli/62.png,,,,,,,,,,,,,,,,,,,,,,,,,,,,,stimuli/alien_stimuli/61.png,61,9,30,,,,,,,30,,,,,,,,1714.8765652999998,1714.8765652999998,1714.8765652999998,1714.8765652999998,1714.8765652999998,up,1.5692684000000554,7,0,0,99,0.4,-0.15999999999999998,up,1.4861488000001373,,,,,1713.3197910000001,1714.8765652999998,0.56,-0.32,0.0,0.0,-0.32,0.56,0.56,0.56,-0.32,1711.0425781000001,1711.0425781000001,1711.0425781000001,1711.0425781000001,1711.0425781000001,1711.0425781000001,1711.0425781000001,1711.0425781000001,1711.03434232,2.370904099999734,return,2.2601027000000613,,,,,,,,,,,,,,,,,,,,,,,,,,,,,,,,,WK78XU,train_y,blue_star,bottom_right,2025-08-29_10h02.09.178,HideSeek_v1,2022.2.5,59.94079048715227,
,7,2,7,3,0,1,62,,train_dim1_1,29,30,,,,2,0,2,0,,,,,,,,,0,0,0,0,0,28,28,28,1,0,1,0,,,,,,,,,,,,,,,,,,,,,,,,,,,,,,,,,,,,,,,,,,,,,,,,,,,,,,,,,,,,,,,,30,,,,,,,,1716.4542461999997,1716.4542461999997,1716.4542461999997,1716.4542461999997,1716.4542461999997,return,0.8596938000000591,8,0,0,1,0.4,-0.15999999999999998,return,0.7807485000002998,51,-6,0.4,-0.15999999999999998,,,,,,,,,,,,,,,,,,,,,,,,,,,,,,,,,,,,,,,,,,,,,,,,,,,,,,,,WK78XU,train_y,blue_star,bottom_right,2025-08-29_10h02.09.178,HideSeek_v1,2022.2.5,59.94079048715227,
,5,1,5,5,0,4,65,,train_dim1_1,30,30,,,,2,0,2,0,,,,,,,,,0,0,0,0,0,29,29,29,0,0,0,0,,,,,,,,,,,,,,,,,,,,,,,,,stimuli/alien_stimuli/65.png,,,,,,,,,,,,,,,,,,,,,,,,,,,,,stimuli/alien_stimuli/62.png,62,7,31,,,,,,,30,,,,,,,,1723.3469444999998,1723.3469444999998,1723.3469444999998,1723.3469444999998,1723.3469444999998,up,2.1729113999999754,8,0,0,99,0.24,-0.24,up,2.0905336000000716,,,,,1721.7936185,1723.3469444999998,0.4,-0.16,0.08,0.0,-0.2,0.4,0.4,0.4,-0.16,1718.8634117999998,1718.8634117999998,1718.8634117999998,1718.8634117999998,1718.8634117999998,1718.8634117999998,1718.8634117999998,1718.8634117999998,1718.85748012,3.021730800000114,return,2.9073440000001938,,,,,,,,,,,,,,,,,,,,,,,,,,,,,,,,,WK78XU,train_y,blue_star,bottom_right,2025-08-29_10h02.09.178,HideSeek_v1,2022.2.5,59.94079048715227,
,5,1,5,5,0,4,65,,train_dim1_1,30,30,,,,2,0,2,0,,,,,,,,,0,0,0,0,0,29,29,29,1,0,1,0,,,,,,,,,,,,,,,,,,,,,,,,,,,,,,,,,,,,,,,,,,,,,,,,,,,,,,,,,,,,,,,,30,,,,,,,,1725.5297558,1725.5297558,1725.5297558,1725.5297558,1725.5297558,up,0.42308589999993274,8,0,0,99,0.24,-0.15999999999999998,up,0.34609450000016295,,,,,,,,,,,,,,,,,,,,,,,,,,,,,,,,,,,,,,,,,,,,,,,,,,,,,,,,,,,,WK78XU,train_y,blue_star,bottom_right,2025-08-29_10h02.09.178,HideSeek_v1,2022.2.5,59.94079048715227,
,5,1,5,5,0,4,65,,train_dim1_1,30,30,,,,2,0,2,0,,,,,,,,,0,0,0,0,0,29,29,29,2,0,2,0,,,,,,,,,,,,,,,,,,,,,,,,,,,,,,,,,,,,,,,,,,,,,,,,,,,,,,,,,,,,,,,,30,,,,,,,,1725.9645491999997,1725.9645491999997,1725.9645491999997,1725.9645491999997,1725.9645491999997,up,0.8406159999999545,8,0,0,99,0.24,-0.07999999999999997,up,0.7596817000003284,,,,,,,,,,,,,,,,,,,,,,,,,,,,,,,,,,,,,,,,,,,,,,,,,,,,,,,,,,,,WK78XU,train_y,blue_star,bottom_right,2025-08-29_10h02.09.178,HideSeek_v1,2022.2.5,59.94079048715227,
,5,1,5,5,0,4,65,,train_dim1_1,30,30,,,,2,0,2,0,,,,,,,,,0,0,0,0,0,29,29,29,3,0,3,0,,,,,,,,,,,,,,,,,,,,,,,,,,,,,,,,,,,,,,,,,,,,,,,,,,,,,,,,,,,,,,,,30,,,,,,,,1726.8100681999997,1726.8100681999997,1726.8100681999997,1726.8100681999997,1726.8100681999997,up,0.7602735999998913,8,0,0,99,0.24,2.7755575615628914e-17,up,0.6866020000002209,,,,,,,,,,,,,,,,,,,,,,,,,,,,,,,,,,,,,,,,,,,,,,,,,,,,,,,,,,,,WK78XU,train_y,blue_star,bottom_right,2025-08-29_10h02.09.178,HideSeek_v1,2022.2.5,59.94079048715227,
,5,1,5,5,0,4,65,,train_dim1_1,30,30,,,,2,0,2,0,,,,,,,,,0,0,0,0,0,29,29,29,4,0,4,0,,,,,,,,,,,,,,,,,,,,,,,,,,,,,,,,,,,,,,,,,,,,,,,,,,,,,,,,,,,,,,,,30,,,,,,,,1727.5789045,1727.5789045,1727.5789045,1727.5789045,1727.5789045,up,0.5600957999999991,8,0,0,99,0.24,0.08000000000000003,up,0.4754149000000325,,,,,,,,,,,,,,,,,,,,,,,,,,,,,,,,,,,,,,,,,,,,,,,,,,,,,,,,,,,,WK78XU,train_y,blue_star,bottom_right,2025-08-29_10h02.09.178,HideSeek_v1,2022.2.5,59.94079048715227,
,5,1,5,5,0,4,65,,train_dim1_1,30,30,,,,2,0,2,0,,,,,,,,,0,0,0,0,0,29,29,29,5,0,5,0,,,,,,,,,,,,,,,,,,,,,,,,,,,,,,,,,,,,,,,,,,,,,,,,,,,,,,,,,,,,,,,,30,,,,,,,,1728.1485308999997,1728.1485308999997,1728.1485308999997,1728.1485308999997,1728.1485308999997,return,2.808737700000165,8,1,0,0,0.24,0.08000000000000003,return,2.7230500000000575,56,-6,0.24,0.08000000000000003,,,,,,,,,,,,,,,,,,,,,,,,,,,,,,,,,,,,,,,,,,,,,,,,,,,,,,,,WK78XU,train_y,blue_star,bottom_right,2025-08-29_10h02.09.178,HideSeek_v1,2022.2.5,59.94079048715227,
,,,,,,,,,,,30,,,,2,0,2,0,,,,,,,,,,,,,,,,,,,,,,,,,,,,,,,,,,,,,,,,,,,,,,,,,,,,,,,,,,,,,,,,,,,,,,,,,,stimuli/alien_stimuli/65.png,65,5,32,21,0.7,0.33333333333333337,1,1,1,30,0,conditions/schedules/train_y_first/blue_star_00/bottom_right/inputTrain_2.1.xlsx,99,1,2,1,0,,,,,,,,,,,0,,,,,,,,,1736.5723990999998,1738.1154798999999,0.24,0,0.32,0.0,-0.16,0.24,0.24,0.24,0,1732.5283907,1732.5283907,1732.5283907,1732.5283907,1732.5283907,1732.5283907,1732.5283907,1732.5283907,1732.5191934900001,4.155396900000142,return,4.01807830000007,0,0.9,0,1,8,,,,,,,,,,,,,,,,,,,,,,,,,,,,WK78XU,train_y,blue_star,bottom_right,2025-08-29_10h02.09.178,HideSeek_v1,2022.2.5,59.94079048715227,
,,,,,,,,,,,,,,,3,0,3,0,0,0,0,0,,,,,,,,,,,,,,,,,,,,,,,,,,,,,,,conditions/schedules/train_y_first/blue_star_00/bottom_right/instructions/Slide17.png,conditions/schedules/train_y_first/blue_star_00/bottom_right/instructions/Audio17.wav,1738.1154798999999,1738.10692801,17,"[7.522023600000011, 18.28192910000007, 16.66558709999981, 20.13461750000033, 4.9567543999996815, 5.432968600000095, 6.418789400000151, 11.98920360000011, 6.743268100000023, 7.367403299999751, 10.752387500000168, 14.524993099999847, 17.26201469999978, 17.55243369999971, 42.61176590000014, 22.741815099999712, 30.064004000000295]","[0.014261699999678967, 0.013824000000113301, 0.0142971000000216, 0.00021779999997306732, 0.04815310000003592, 0.0002106000001731445, 0.03003579999995054, 0.03378579999980502, 0.030711800000062794, 0.06437670000013895, 0.047844899999745394, 14.524999999999636, 17.262022499999603, 17.552440699999806, 0.056612399999721674, 22.74182189999965, 30.064011100000243]",0,,,,,,,,,,,,,,,,,,,,,,,,,,,,,,,,,,,,,,,,,,,,,,,,,,,,,,,,,,,,,,,,,,,,,,,,,,,,,,,,,,,,,,,,,,,,,,,,,,,,,,,,,,,,,,,,,,,,,,,,,,,,WK78XU,train_y,blue_star,bottom_right,2025-08-29_10h02.09.178,HideSeek_v1,2022.2.5,59.94079048715227,
,,,,,,,,,,,,,,,3,0,3,0,1,0,1,0,,,,,,,,,,,,,,,,,,,,,,,,,,,,,,,conditions/schedules/train_y_first/blue_star_00/bottom_right/instructions/Slide18.png,conditions/schedules/train_y_first/blue_star_00/bottom_right/instructions/Audio18.wav,1768.2572991,1768.2488923499998,18,"[7.522023600000011, 18.28192910000007, 16.66558709999981, 20.13461750000033, 4.9567543999996815, 5.432968600000095, 6.418789400000151, 11.98920360000011, 6.743268100000023, 7.367403299999751, 10.752387500000168, 14.524993099999847, 17.26201469999978, 17.55243369999971, 42.61176590000014, 22.741815099999712, 30.064004000000295, 6.42781049999985]","[0.014261699999678967, 0.013824000000113301, 0.0142971000000216, 0.00021779999997306732, 0.04815310000003592, 0.0002106000001731445, 0.03003579999995054, 0.03378579999980502, 0.030711800000062794, 0.06437670000013895, 0.047844899999745394, 14.524999999999636, 17.262022499999603, 17.552440699999806, 0.056612399999721674, 22.74182189999965, 0.014056699999855482, 6.427817600000253]",0,,,,,,,,,,,,,,,,,,,,,,,,,,,,,,,,,,,,,,,,,,,,,,,,,,,,,,,,,,,,,,,,,,,,,,,,,,,,,,,,,,,,,,,,,,,,,,,,,,,,,,,,,,,,,,,,,,,,,,,,,,,,WK78XU,train_y,blue_star,bottom_right,2025-08-29_10h02.09.178,HideSeek_v1,2022.2.5,59.94079048715227,
,,,,,,,,,,,,,,,3,0,3,0,2,0,2,0,,,,,,,,,,,,,,,,,,,,,,,,,,,,,,,conditions/schedules/train_y_first/blue_star_00/bottom_right/instructions/Slide19.png,conditions/schedules/train_y_first/blue_star_00/bottom_right/instructions/Audio19.wav,1774.7467149000001,1774.73756228,19,"[7.522023600000011, 18.28192910000007, 16.66558709999981, 20.13461750000033, 4.9567543999996815, 5.432968600000095, 6.418789400000151, 11.98920360000011, 6.743268100000023, 7.367403299999751, 10.752387500000168, 14.524993099999847, 17.26201469999978, 17.55243369999971, 42.61176590000014, 22.741815099999712, 30.064004000000295, 6.42781049999985, 10.147107999999662]","[0.014261699999678967, 0.013824000000113301, 0.0142971000000216, 0.00021779999997306732, 0.04815310000003592, 0.0002106000001731445, 0.03003579999995054, 0.03378579999980502, 0.030711800000062794, 0.06437670000013895, 0.047844899999745394, 14.524999999999636, 17.262022499999603, 17.552440699999806, 0.056612399999721674, 22.74182189999965, 0.014056699999855482, 0.0002164999996239203, 10.147114200000033]",0,,,,,,,,,,,,,,,,,,,,,,,,,,,,,,,,,,,,,,,,,,,,,,,,,,,,,,,,,,,,,,,,,,,,,,,,,,,,,,,,,,,,,,,,,,,,,,,,,,,,,,,,,,,,,,,,,,,,,,,,,,,,WK78XU,train_y,blue_star,bottom_right,2025-08-29_10h02.09.178,HideSeek_v1,2022.2.5,59.94079048715227,
,,,,,,,,,,,,,,,3,0,3,0,3,0,3,0,,,,,,,,,,,,,,,,,,,,,,,,,,,,,,,conditions/schedules/train_y_first/blue_star_00/bottom_right/instructions/Slide20.png,conditions/schedules/train_y_first/blue_star_00/bottom_right/instructions/Audio20.wav,1784.9605786,1784.9625565499998,20,"[7.522023600000011, 18.28192910000007, 16.66558709999981, 20.13461750000033, 4.9567543999996815, 5.432968600000095, 6.418789400000151, 11.98920360000011, 6.743268100000023, 7.367403299999751, 10.752387500000168, 14.524993099999847, 17.26201469999978, 17.55243369999971, 42.61176590000014, 22.741815099999712, 30.064004000000295, 6.42781049999985, 10.147107999999662, 12.859931999999844]","[0.014261699999678967, 0.013824000000113301, 0.0142971000000216, 0.00021779999997306732, 0.04815310000003592, 0.0002106000001731445, 0.03003579999995054, 0.03378579999980502, 0.030711800000062794, 0.06437670000013895, 0.047844899999745394, 14.524999999999636, 17.262022499999603, 17.552440699999806, 0.056612399999721674, 22.74182189999965, 0.014056699999855482, 0.0002164999996239203, 0.00021289999995133257, 12.859938099999908]",0,,,,,,,,,,,,,,,,,,,,,,,,,,,,,,,,,,,,,,,,,,,,,,,,,,,,,,,,,,,,,,,,,,,,,,,,,,,,,,,,,,,,,,,,,,,,,,,,,,,,,,,,,,,,,,,,,,,,,,,,,,,,WK78XU,train_y,blue_star,bottom_right,2025-08-29_10h02.09.178,HideSeek_v1,2022.2.5,59.94079048715227,
1,9,0,4,0,-5,0,11,2,instr_dim1_2,,,,,,3,0,3,0,,,,,0,0,0,0,,,,,,,,,,,,,,,,,,,,,,,,,,,,,,,,,,,,,stimuli/alien_stimuli/11.png,conditions/schedules/train_y_first/blue_star_00/bottom_right/inputInstr_2.xlsx,stimuli/alien_stimuli/11.png,1797.9264354999998,1797.9264354999998,1797.9264354999998,1797.9264354999998,1797.9233226900003,return,8.80894810000018,"[-0.16, -0.08, 0, 0.08, 0.16, 0.24, 0.32, 0.4, 0.48, 0.56]","[-0.4, -0.32, -0.24, -0.16, -0.08, 0, 0.08, 0.16, 0.24, 0.32]",0,0,4,9,0.0,0.4,1806.9048148999998,1806.9048148999998,1806.9048148999998,1806.9048148999998,1806.9048148999998,1806.9048148999998,1806.9048148999998,1806.89728173,6.756813599999987,return,6.582505800000035,stimuli/alien_stimuli/11.png,11,9,1,,,,,,,,,,,,,,,,,,,,,,,,,,,,,,,,,,,,,,,,,,,,,,,,,,,,,,,,,,,,,,,,,,,,,,,,,,,,,,,,,,,,,,,,,WK78XU,train_y,blue_star,bottom_right,2025-08-29_10h02.09.178,HideSeek_v1,2022.2.5,59.94079048715227,
,,,,,,,,,,,30,,,,3,0,3,0,,,,,,,,,,,,,,,,,,,,,,,,,,,,,,,,,,,,,,,,,,,,,,,,,,,,,,,,,,,,,,,,,,,,,,,,,,,,,,21,0.7,0.33333333333333337,1,99,2,30,0,conditions/schedules/train_y_first/blue_star_00/bottom_right/inputTrain_2.1.xlsx,99,1,2,1,0,,,,,,,,,,,,,,,,,,,,,,,,,,,,,,,,,,,,,,,,,,,,,,,,,,,,,,,,,,,,,,,,,,,,,,,,,,,WK78XU,train_y,blue_star,bottom_right,2025-08-29_10h02.09.178,HideSeek_v1,2022.2.5,59.94079048715227,
,,,,,,,,,,,,,,,4,0,4,0,0,0,0,0,,,,,,,,,,,,,,,,,,,,,,,,,,,,,,,conditions/schedules/train_y_first/blue_star_00/bottom_right/instructions/Slide21.png,conditions/schedules/train_y_first/blue_star_00/bottom_right/instructions/Audio21.wav,1813.6571194,1813.6530952300004,21,"[7.522023600000011, 18.28192910000007, 16.66558709999981, 20.13461750000033, 4.9567543999996815, 5.432968600000095, 6.418789400000151, 11.98920360000011, 6.743268100000023, 7.367403299999751, 10.752387500000168, 14.524993099999847, 17.26201469999978, 17.55243369999971, 42.61176590000014, 22.741815099999712, 30.064004000000295, 6.42781049999985, 10.147107999999662, 12.859931999999844, 13.487905999999839]","[0.014261699999678967, 0.013824000000113301, 0.0142971000000216, 0.00021779999997306732, 0.04815310000003592, 0.0002106000001731445, 0.03003579999995054, 0.03378579999980502, 0.030711800000062794, 0.06437670000013895, 0.047844899999745394, 14.524999999999636, 17.262022499999603, 17.552440699999806, 0.056612399999721674, 22.74182189999965, 0.014056699999855482, 0.0002164999996239203, 0.00021289999995133257, 12.859938099999908, 13.487912899999628]",0,,,,,,,,,,,,,,,,,,,,,,,,,,,,,,,,,,,,,,,,,,,,,,,,,,,,,,,,,,,,,,,,,,,,,,,,,,,,,,,,,,,,,,,,,,,,,,,,,,,,,,,,,,,,,,,,,,,,,,,,,,,,WK78XU,train_y,blue_star,bottom_right,2025-08-29_10h02.09.178,HideSeek_v1,2022.2.5,59.94079048715227,
2,8,2,8,2,0,0,61,2,instr_dim1_2,,,,,,4,0,4,0,,,,,0,0,0,0,,,,,,,,,,,,,,,,,,,,,,,,,,,,,,,,,,,,,stimuli/alien_stimuli/61.png,conditions/schedules/train_y_first/blue_star_00/bottom_right/inputInstr_2.xlsx,stimuli/alien_stimuli/61.png,1827.2507356999997,1827.2507356999997,1827.2507356999997,1827.2507356999997,1827.2481265900003,return,5.9086740000002465,"[-0.16, -0.08, 0, 0.08, 0.16, 0.24, 0.32, 0.4, 0.48, 0.56]","[-0.4, -0.32, -0.24, -0.16, -0.08, 0, 0.08, 0.16, 0.24, 0.32]",2,2,8,8,0.0,0.0,1833.3179060999998,1833.3179060999998,1833.3179060999998,1833.3179060999998,1833.3179060999998,1833.3179060999998,1833.3179060999998,1833.30263396,5.205711999999949,return,5.0545946000002,stimuli/alien_stimuli/61.png,61,8,2,,,,,,,,,,,,,,,,,,,,,,,,,,,,,,,,,,,,,,,,,,,,,,,,,,,,,,,,,,,,,,,,,,,,,,,,,,,,,,,,,,,,,,,,,WK78XU,train_y,blue_star,bottom_right,2025-08-29_10h02.09.178,HideSeek_v1,2022.2.5,59.94079048715227,
,,,,,,,,,,,30,,,,4,0,4,0,,,,,,,,,,,,,,,,,,,,,,,,,,,,,,,,,,,,,,,,,,,,,,,,,,,,,,,,,,,,,,,,,,,,,,,,,,,,,,21,0.7,0.33333333333333337,1,99,2,30,0,conditions/schedules/train_y_first/blue_star_00/bottom_right/inputTrain_2.1.xlsx,99,1,2,1,0,,,,,,,,,,,,,,,,,,,,,,,,,,,,,,,,,,,,,,,,,,,,,,,,,,,,,,,,,,,,,,,,,,,,,,,,,,,WK78XU,train_y,blue_star,bottom_right,2025-08-29_10h02.09.178,HideSeek_v1,2022.2.5,59.94079048715227,
,,,,,,,,,,,,,,,5,0,5,0,0,0,0,0,,,,,,,,,,,,,,,,,,,,,,,,,,,,,,,conditions/schedules/train_y_first/blue_star_00/bottom_right/instructions/Slide22.png,conditions/schedules/train_y_first/blue_star_00/bottom_right/instructions/Audio22.wav,1838.5585275,1838.5569790700004,22,"[7.522023600000011, 18.28192910000007, 16.66558709999981, 20.13461750000033, 4.9567543999996815, 5.432968600000095, 6.418789400000151, 11.98920360000011, 6.743268100000023, 7.367403299999751, 10.752387500000168, 14.524993099999847, 17.26201469999978, 17.55243369999971, 42.61176590000014, 22.741815099999712, 30.064004000000295, 6.42781049999985, 10.147107999999662, 12.859931999999844, 13.487905999999839, 30.454355899999882]","[0.014261699999678967, 0.013824000000113301, 0.0142971000000216, 0.00021779999997306732, 0.04815310000003592, 0.0002106000001731445, 0.03003579999995054, 0.03378579999980502, 0.030711800000062794, 0.06437670000013895, 0.047844899999745394, 14.524999999999636, 17.262022499999603, 17.552440699999806, 0.056612399999721674, 22.74182189999965, 0.014056699999855482, 0.0002164999996239203, 0.00021289999995133257, 12.859938099999908, 13.487912899999628, 30.45436269999982]",0,,,,,,,,,,,,,,,,,,,,,,,,,,,,,,,,,,,,,,,,,,,,,,,,,,,,,,,,,,,,,,,,,,,,,,,,,,,,,,,,,,,,,,,,,,,,,,,,,,,,,,,,,,,,,,,,,,,,,,,,,,,,WK78XU,train_y,blue_star,bottom_right,2025-08-29_10h02.09.178,HideSeek_v1,2022.2.5,59.94079048715227,
,7,1,4,1,-3,0,31,,train_dim1_2,1,30,,,,5,0,5,0,,,,,,,,,0,0,0,0,0,0,0,0,0,0,0,0,,,,,,,,,,,,,,,,,,,,,,,,,stimuli/alien_stimuli/31.png,,,,,,,,,,,,,,,,,,,,,,,,,,,,,,,,,,,,,,,30,,,,,,,,1869.1192892000001,1869.1192892000001,1869.1192892000001,1869.1192892000001,1869.1192892000001,left,5.348232499999995,0,1,0,99,0.32,-0.32,left,5.235265000000254,,,,,,,,,,,,,,,,,,,,,,,,,,,,,,,,,,,,,,,,,,,,,,,,,,,,,,,,,,,,WK78XU,train_y,blue_star,bottom_right,2025-08-29_10h02.09.178,HideSeek_v1,2022.2.5,59.94079048715227,
,7,1,4,1,-3,0,31,,train_dim1_2,1,30,,,,5,0,5,0,,,,,,,,,0,0,0,0,0,0,0,0,1,0,1,0,,,,,,,,,,,,,,,,,,,,,,,,,,,,,,,,,,,,,,,,,,,,,,,,,,,,,,,,,,,,,,,,30,,,,,,,,1874.4513104999999,1874.4513104999999,1874.4513104999999,1874.4513104999999,1874.4513104999999,return,1.760722199999691,0,0,0,0,0.32,-0.32,return,1.6822065999999722,56,-7,0.32,-0.32,,,,,,,,,,,,,,,,,,,,,,,,,,,,,,,,,,,,,,,,,,,,,,,,,,,,,,,,WK78XU,train_y,blue_star,bottom_right,2025-08-29_10h02.09.178,HideSeek_v1,2022.2.5,59.94079048715227,
,7,4,2,4,-5,0,11,,train_dim1_2,2,30,,,,5,0,5,0,,,,,,,,,0,0,0,0,0,1,1,1,0,0,0,0,,,,,,,,,,,,,,,,,,,,,,,,,stimuli/alien_stimuli/11.png,,,,,,,,,,,,,,,,,,,,,,,,,,,,,stimuli/alien_stimuli/31.png,31,7,3,,,,,,,30,,,,,,,,1882.2564384999998,1882.2564384999998,1882.2564384999998,1882.2564384999998,1882.2564384999998,left,2.5564104000000043,0,0,0,99,0.32,-0.08,left,2.4650954000003367,,,,,1880.6919197999998,1882.2564384999998,0.16,-0.32,0.0,0.24,-0.32,0.16,0.28,0.16,-0.32,1877.7765256999999,1877.7765256999999,1877.7765256999999,1877.7765256999999,1877.7765256999999,1877.7765256999999,1877.7765256999999,1877.7765256999999,1877.7560293200002,3.0215510999996695,return,2.8836787000000186,,,,,,,,,,,,,,,,,,,,,,,,,,,,,,,,,WK78XU,train_y,blue_star,bottom_right,2025-08-29_10h02.09.178,HideSeek_v1,2022.2.5,59.94079048715227,
,7,4,2,4,-5,0,11,,train_dim1_2,2,30,,,,5,0,5,0,,,,,,,,,0,0,0,0,0,1,1,1,1,0,1,0,,,,,,,,,,,,,,,,,,,,,,,,,,,,,,,,,,,,,,,,,,,,,,,,,,,,,,,,,,,,,,,,30,,,,,,,,1884.8139691999997,1884.8139691999997,1884.8139691999997,1884.8139691999997,1884.8139691999997,left,0.6762158999999883,0,0,0,99,0.24,-0.08,left,0.5832596000000194,,,,,,,,,,,,,,,,,,,,,,,,,,,,,,,,,,,,,,,,,,,,,,,,,,,,,,,,,,,,WK78XU,train_y,blue_star,bottom_right,2025-08-29_10h02.09.178,HideSeek_v1,2022.2.5,59.94079048715227,
,7,4,2,4,-5,0,11,,train_dim1_2,2,30,,,,5,0,5,0,,,,,,,,,0,0,0,0,0,1,1,1,2,0,2,0,,,,,,,,,,,,,,,,,,,,,,,,,,,,,,,,,,,,,,,,,,,,,,,,,,,,,,,,,,,,,,,,30,,,,,,,,1885.4965784999997,1885.4965784999997,1885.4965784999997,1885.4965784999997,1885.4965784999997,left,2.7286220000000867,0,0,0,99,0.15999999999999998,-0.08,left,2.640960200000336,,,,,,,,,,,,,,,,,,,,,,,,,,,,,,,,,,,,,,,,,,,,,,,,,,,,,,,,,,,,WK78XU,train_y,blue_star,bottom_right,2025-08-29_10h02.09.178,HideSeek_v1,2022.2.5,59.94079048715227,
,7,4,2,4,-5,0,11,,train_dim1_2,2,30,,,,5,0,5,0,,,,,,,,,0,0,0,0,0,1,1,1,3,0,3,0,,,,,,,,,,,,,,,,,,,,,,,,,,,,,,,,,,,,,,,,,,,,,,,,,,,,,,,,,,,,,,,,30,,,,,,,,1888.2330080999998,1888.2330080999998,1888.2330080999998,1888.2330080999998,1888.2330080999998,left,2.0612394000004315,0,0,0,99,0.07999999999999997,-0.08,left,1.9691067000003386,,,,,,,,,,,,,,,,,,,,,,,,,,,,,,,,,,,,,,,,,,,,,,,,,,,,,,,,,,,,WK78XU,train_y,blue_star,bottom_right,2025-08-29_10h02.09.178,HideSeek_v1,2022.2.5,59.94079048715227,
,7,4,2,4,-5,0,11,,train_dim1_2,2,30,,,,5,0,5,0,,,,,,,,,0,0,0,0,0,1,1,1,4,0,4,0,,,,,,,,,,,,,,,,,,,,,,,,,,,,,,,,,,,,,,,,,,,,,,,,,,,,,,,,,,,,,,,,30,,,,,,,,1890.3034756,1890.3034756,1890.3034756,1890.3034756,1890.3034756,return,1.3273559000003843,0,1,0,0,0.07999999999999997,-0.08,return,1.2360134000000471,56,-11,0.07999999999999997,-0.08,,,,,,,,,,,,,,,,,,,,,,,,,,,,,,,,,,,,,,,,,,,,,,,,,,,,,,,,WK78XU,train_y,blue_star,bottom_right,2025-08-29_10h02.09.178,HideSeek_v1,2022.2.5,59.94079048715227,
,9,4,5,4,-4,0,21,,train_dim1_2,3,30,,,,5,0,5,0,,,,,,,,,0,0,0,0,0,2,2,2,0,0,0,0,,,,,,,,,,,,,,,,,,,,,,,,,stimuli/alien_stimuli/21.png,,,,,,,,,,,,,,,,,,,,,,,,,,,,,stimuli/alien_stimuli/11.png,11,7,4,,,,,,,30,,,,,,,,1897.5261947000001,1897.5261947000001,1897.5261947000001,1897.5261947000001,1897.5261947000001,left,2.5694462999999814,0,1,0,99,0.48000000000000004,-0.08,left,2.474243699999988,,,,,1895.9546158,1897.5261947000001,0,-0.08,0.0,0.4,-0.08,0,0.2,0,-0.08,1893.2177116,1893.2177116,1893.2177116,1893.2177116,1893.2177116,1893.2177116,1893.2177116,1893.2177116,1893.20235276,2.871046700000079,return,2.705446700000266,,,,,,,,,,,,,,,,,,,,,,,,,,,,,,,,,WK78XU,train_y,blue_star,bottom_right,2025-08-29_10h02.09.178,HideSeek_v1,2022.2.5,59.94079048715227,
,9,4,5,4,-4,0,21,,train_dim1_2,3,30,,,,5,0,5,0,,,,,,,,,0,0,0,0,0,2,2,2,1,0,1,0,,,,,,,,,,,,,,,,,,,,,,,,,,,,,,,,,,,,,,,,,,,,,,,,,,,,,,,,,,,,,,,,30,,,,,,,,1900.0929542000001,1900.0929542000001,1900.0929542000001,1900.0929542000001,1900.0929542000001,left,0.5095819000002848,0,1,0,99,0.4,-0.08,left,0.4274478000002091,,,,,,,,,,,,,,,,,,,,,,,,,,,,,,,,,,,,,,,,,,,,,,,,,,,,,,,,,,,,WK78XU,train_y,blue_star,bottom_right,2025-08-29_10h02.09.178,HideSeek_v1,2022.2.5,59.94079048715227,
,9,4,5,4,-4,0,21,,train_dim1_2,3,30,,,,5,0,5,0,,,,,,,,,0,0,0,0,0,2,2,2,2,0,2,0,,,,,,,,,,,,,,,,,,,,,,,,,,,,,,,,,,,,,,,,,,,,,,,,,,,,,,,,,,,,,,,,30,,,,,,,,1900.6098147,1900.6098147,1900.6098147,1900.6098147,1900.6098147,left,0.5101398000001609,0,1,0,99,0.32,-0.08,left,0.4322208000003229,,,,,,,,,,,,,,,,,,,,,,,,,,,,,,,,,,,,,,,,,,,,,,,,,,,,,,,,,,,,WK78XU,train_y,blue_star,bottom_right,2025-08-29_10h02.09.178,HideSeek_v1,2022.2.5,59.94079048715227,
,9,4,5,4,-4,0,21,,train_dim1_2,3,30,,,,5,0,5,0,,,,,,,,,0,0,0,0,0,2,2,2,3,0,3,0,,,,,,,,,,,,,,,,,,,,,,,,,,,,,,,,,,,,,,,,,,,,,,,,,,,,,,,,,,,,,,,,30,,,,,,,,1901.1273915999998,1901.1273915999998,1901.1273915999998,1901.1273915999998,1901.1273915999998,left,0.5934535999999753,0,1,0,99,0.24,-0.08,left,0.5082591000004868,,,,,,,,,,,,,,,,,,,,,,,,,,,,,,,,,,,,,,,,,,,,,,,,,,,,,,,,,,,,WK78XU,train_y,blue_star,bottom_right,2025-08-29_10h02.09.178,HideSeek_v1,2022.2.5,59.94079048715227,
,9,4,5,4,-4,0,21,,train_dim1_2,3,30,,,,5,0,5,0,,,,,,,,,0,0,0,0,0,2,2,2,4,0,4,0,,,,,,,,,,,,,,,,,,,,,,,,,,,,,,,,,,,,,,,,,,,,,,,,,,,,,,,,,,,,,,,,30,,,,,,,,1901.7276000999998,1901.7276000999998,1901.7276000999998,1901.7276000999998,1901.7276000999998,left,1.2104755000000296,0,1,0,99,0.15999999999999998,-0.08,left,1.1294062000001759,,,,,,,,,,,,,,,,,,,,,,,,,,,,,,,,,,,,,,,,,,,,,,,,,,,,,,,,,,,,WK78XU,train_y,blue_star,bottom_right,2025-08-29_10h02.09.178,HideSeek_v1,2022.2.5,59.94079048715227,
,9,4,5,4,-4,0,21,,train_dim1_2,3,30,,,,5,0,5,0,,,,,,,,,0,0,0,0,0,2,2,2,5,0,5,0,,,,,,,,,,,,,,,,,,,,,,,,,,,,,,,,,,,,,,,,,,,,,,,,,,,,,,,,,,,,,,,,30,,,,,,,,1902.9442984,1902.9442984,1902.9442984,1902.9442984,1902.9442984,left,0.36015299999962735,0,1,0,99,0.07999999999999997,-0.08,left,0.2759856000002401,,,,,,,,,,,,,,,,,,,,,,,,,,,,,,,,,,,,,,,,,,,,,,,,,,,,,,,,,,,,WK78XU,train_y,blue_star,bottom_right,2025-08-29_10h02.09.178,HideSeek_v1,2022.2.5,59.94079048715227,
,9,4,5,4,-4,0,21,,train_dim1_2,3,30,,,,5,0,5,0,,,,,,,,,0,0,0,0,0,2,2,2,6,0,6,0,,,,,,,,,,,,,,,,,,,,,,,,,,,,,,,,,,,,,,,,,,,,,,,,,,,,,,,,,,,,,,,,30,,,,,,,,1903.3120680999998,1903.3120680999998,1903.3120680999998,1903.3120680999998,1903.3120680999998,right,1.2269485000001623,0,1,0,99,0.15999999999999998,-0.08,right,1.139074900000196,,,,,,,,,,,,,,,,,,,,,,,,,,,,,,,,,,,,,,,,,,,,,,,,,,,,,,,,,,,,WK78XU,train_y,blue_star,bottom_right,2025-08-29_10h02.09.178,HideSeek_v1,2022.2.5,59.94079048715227,
,9,4,5,4,-4,0,21,,train_dim1_2,3,30,,,,5,0,5,0,,,,,,,,,0,0,0,0,0,2,2,2,7,0,7,0,,,,,,,,,,,,,,,,,,,,,,,,,,,,,,,,,,,,,,,,,,,,,,,,,,,,,,,,,,,,,,,,30,,,,,,,,1904.5478704,1904.5478704,1904.5478704,1904.5478704,1904.5478704,return,1.2107931000000463,0,1,0,0,0.15999999999999998,-0.08,return,1.1179338000001735,56,-16,0.15999999999999998,-0.08,,,,,,,,,,,,,,,,,,,,,,,,,,,,,,,,,,,,,,,,,,,,,,,,,,,,,,,,WK78XU,train_y,blue_star,bottom_right,2025-08-29_10h02.09.178,HideSeek_v1,2022.2.5,59.94079048715227,
,7,3,6,3,-1,0,51,,train_dim1_2,4,30,,,,5,0,5,0,,,,,,,,,0,0,0,0,0,3,3,3,0,0,0,0,,,,,,,,,,,,,,,,,,,,,,,,,stimuli/alien_stimuli/51.png,,,,,,,,,,,,,,,,,,,,,,,,,,,,,stimuli/alien_stimuli/21.png,21,9,5,,,,,,,30,,,,,,,,1913.9656220999998,1913.9656220999998,1913.9656220999998,1913.9656220999998,1913.9656220999998,return,4.007792600000357,0,1,0,0,0.4,-0.16,return,3.9130873000003703,56,-16,0.4,-0.16,1912.4014905000001,1913.9656220999998,0.24,-0.08,0.0,0.32,-0.08,0.24,0.4,0.24,-0.08,1907.3401978999998,1907.3401978999998,1907.3401978999998,1907.3401978999998,1907.3401978999998,1907.3401978999998,1907.3401978999998,1907.3401978999998,1907.33064316,5.190270200000214,return,5.042815200000405,,,,,,,,,,,,,,,,,,,,,,,,,,,,,,,,,WK78XU,train_y,blue_star,bottom_right,2025-08-29_10h02.09.178,HideSeek_v1,2022.2.5,59.94079048715227,
,5,2,5,2,0,0,61,,train_dim1_2,5,30,,,,5,0,5,0,,,,,,,,,0,0,0,0,0,4,4,4,0,0,0,0,,,,,,,,,,,,,,,,,,,,,,,,,stimuli/alien_stimuli/61.png,,,,,,,,,,,,,,,,,,,,,,,,,,,,,stimuli/alien_stimuli/51.png,51,7,6,,,,,,,30,,,,,,,,1924.5705688,1924.5705688,1924.5705688,1924.5705688,1924.5705688,return,2.639975400000367,1,0,0,1,0.24,-0.24,return,2.5448240000000624,56,-16,0.24,-0.24,1923.0103434999999,1924.5705688,0.32,-0.16,0.0,0.08,-0.16,0.32,0.36,0.32,-0.16,1919.5323336999998,1919.5323336999998,1919.5323336999998,1919.5323336999998,1919.5323336999998,1919.5323336999998,1919.5323336999998,1919.5323336999998,1919.5242229900002,3.5883621000002677,return,3.451011400000425,,,,,,,,,,,,,,,,,,,,,,,,,,,,,,,,,WK78XU,train_y,blue_star,bottom_right,2025-08-29_10h02.09.178,HideSeek_v1,2022.2.5,59.94079048715227,
,5,0,1,0,-4,0,21,,train_dim1_2,6,30,,,,5,0,5,0,,,,,,,,,0,0,0,0,0,5,5,5,0,0,0,0,,,,,,,,,,,,,,,,,,,,,,,,,stimuli/alien_stimuli/21.png,,,,,,,,,,,,,,,,,,,,,,,,,,,,,stimuli/alien_stimuli/61.png,61,5,7,,,,,,,30,,,,,,,,1933.6018972,1933.6018972,1933.6018972,1933.6018972,1933.6018972,left,2.8895556000002216,1,0,0,99,0.15999999999999998,-0.4,left,2.7987144000003354,,,,,1932.0346754,1933.6018972,0.24,-0.24,0.0,0.0,-0.24,0.24,0.24,0.24,-0.24,1928.7820239999999,1928.7820239999999,1928.7820239999999,1928.7820239999999,1928.7820239999999,1928.7820239999999,1928.7820239999999,1928.7820239999999,1928.7652102900004,3.371719799999937,return,3.234686600000259,,,,,,,,,,,,,,,,,,,,,,,,,,,,,,,,,WK78XU,train_y,blue_star,bottom_right,2025-08-29_10h02.09.178,HideSeek_v1,2022.2.5,59.94079048715227,
,5,0,1,0,-4,0,21,,train_dim1_2,6,30,,,,5,0,5,0,,,,,,,,,0,0,0,0,0,5,5,5,1,0,1,0,,,,,,,,,,,,,,,,,,,,,,,,,,,,,,,,,,,,,,,,,,,,,,,,,,,,,,,,,,,,,,,,30,,,,,,,,1936.4903071,1936.4903071,1936.4903071,1936.4903071,1936.4903071,left,0.6597562000001744,1,0,0,99,0.07999999999999997,-0.4,left,0.5806815999999344,,,,,,,,,,,,,,,,,,,,,,,,,,,,,,,,,,,,,,,,,,,,,,,,,,,,,,,,,,,,WK78XU,train_y,blue_star,bottom_right,2025-08-29_10h02.09.178,HideSeek_v1,2022.2.5,59.94079048715227,
,5,0,1,0,-4,0,21,,train_dim1_2,6,30,,,,5,0,5,0,,,,,,,,,0,0,0,0,0,5,5,5,2,0,2,0,,,,,,,,,,,,,,,,,,,,,,,,,,,,,,,,,,,,,,,,,,,,,,,,,,,,,,,,,,,,,,,,30,,,,,,,,1937.1590092,1937.1590092,1937.1590092,1937.1590092,1937.1590092,left,0.6913463000000775,1,0,0,99,-2.7755575615628914e-17,-0.4,left,0.6035335999999916,,,,,,,,,,,,,,,,,,,,,,,,,,,,,,,,,,,,,,,,,,,,,,,,,,,,,,,,,,,,WK78XU,train_y,blue_star,bottom_right,2025-08-29_10h02.09.178,HideSeek_v1,2022.2.5,59.94079048715227,
,5,0,1,0,-4,0,21,,train_dim1_2,6,30,,,,5,0,5,0,,,,,,,,,0,0,0,0,0,5,5,5,3,0,3,0,,,,,,,,,,,,,,,,,,,,,,,,,,,,,,,,,,,,,,,,,,,,,,,,,,,,,,,,,,,,,,,,30,,,,,,,,1937.8570936999997,1937.8570936999997,1937.8570936999997,1937.8570936999997,1937.8570936999997,left,1.2439739000001282,1,0,0,99,-0.08000000000000003,-0.4,left,1.1519501000002492,,,,,,,,,,,,,,,,,,,,,,,,,,,,,,,,,,,,,,,,,,,,,,,,,,,,,,,,,,,,WK78XU,train_y,blue_star,bottom_right,2025-08-29_10h02.09.178,HideSeek_v1,2022.2.5,59.94079048715227,
,5,0,1,0,-4,0,21,,train_dim1_2,6,30,,,,5,0,5,0,,,,,,,,,0,0,0,0,0,5,5,5,4,0,4,0,,,,,,,,,,,,,,,,,,,,,,,,,,,,,,,,,,,,,,,,,,,,,,,,,,,,,,,,,,,,,,,,30,,,,,,,,1939.113154,1939.113154,1939.113154,1939.113154,1939.113154,return,1.2569594000001416,2,0,0,1,-0.08000000000000003,-0.4,return,1.1774460999999974,56,-20,-0.08000000000000003,-0.4,,,,,,,,,,,,,,,,,,,,,,,,,,,,,,,,,,,,,,,,,,,,,,,,,,,,,,,,WK78XU,train_y,blue_star,bottom_right,2025-08-29_10h02.09.178,HideSeek_v1,2022.2.5,59.94079048715227,
