trialInstr,x_fixStart,y_fixStart,x_corrSteps,y_corrSteps,x_nrSteps,y_nrSteps,alienID,trialLength,version,trialTrain,praclen,testlen,trial_label,break_on_off,beforeExpLoop.thisRepN,beforeExpLoop.thisTrialN,beforeExpLoop.thisN,beforeExpLoop.thisIndex,mini_instr_trials.thisRepN,mini_instr_trials.thisTrialN,mini_instr_trials.thisN,mini_instr_trials.thisIndex,instrLoop.thisRepN,instrLoop.thisTrialN,instrLoop.thisN,instrLoop.thisIndex,repeat_prac.thisRepN,repeat_prac.thisTrialN,repeat_prac.thisN,repeat_prac.thisIndex,trainLoop.thisRepN,trainLoop.thisTrialN,trainLoop.thisN,trainLoop.thisIndex,moveLoop_train.thisRepN,moveLoop_train.thisTrialN,moveLoop_train.thisN,moveLoop_train.thisIndex,experiment.thisRepN,experiment.thisTrialN,experiment.thisN,experiment.thisIndex,moveLoop_test.thisRepN,moveLoop_test.thisTrialN,moveLoop_test.thisN,moveLoop_test.thisIndex,mini_instr2_trials.thisRepN,mini_instr2_trials.thisTrialN,mini_instr2_trials.thisN,mini_instr2_trials.thisIndex,start_all_time,url,slideStim,audioStim,slides.started,sounds.started,nextButton.numClicks,nextButton.timesOn,nextButton.timesOff,prev_but.numClicks,prev_but.timesOn,prev_but.timesOff,alienStim,instrFile,alienStim_instr,gridImage_instr.started,startPos_3.started,key_instr.started,alienImage_3.started,sounds_1.started,key_instr.keys,key_instr.rt,all_x,all_y,FBy_corrSteps,FBy_fixStart,FBx_corrSteps,FBx_fixStart,FBy_pathSize_check,FBx_pathSize_check,gridImage_9.started,alienImageFB_3.started,startPosFB_3.started,keyFB_3.started,pathLine_ydir_2.started,pathLine_xdir_2.started,alienFace_3.started,sounds_2.started,RTFB_instr,keyFB_3.keys,keyFB_3.rt,draw_alienStim,draw_alienID,test_x,nrepcount,perfthres,percthres,earlierperf,earlystop,nextPrac,fileidx,praclen,saveACC_train,pracFile,nextPrac_train,addNrep,fileidx_endr,repExp,showearly,gridImage_4.started,startPos.started,movePos.started,key_resp.started,alienImage.started,buttonPress_train,RTchoice_train,cumAcctrain,aCorr,saveACC_choice,corrAns,x_movePos_end,y_movePos_end,key_resp.keys,key_resp.rt,wLy_dir,wLx_dir,x_movePos,y_movePos,text_2.started,text_2.stopped,aft_x_corrPos,aft_y_corrPos,y_pathSize_check,x_pathSize_check,y_pathdirY,x_pathdirY,x_pathdirX,x_corrPos,y_corrPos,gridImage_6.started,alienImageFB_2.started,startPosFB_2.started,movePosFB_2.started,keyFB_2.started,pathLine_xdir.started,pathLine_ydir.started,alienFace.started,sounds_4.started,RT_FBtrain,keyFB_2.keys,keyFB_2.rt,saveACC_pre,ACC,within_saveACC_train,earlystop_wloop,cumAcctrain_check,gridImage_3.started,alienImage_test.started,startPos_test.started,movePos_test.started,key_resp_test.started,wLy_dir_test,wLx_dir_test,buttonPress_test,RTchoice_test,cumAcctest,corrAns_test,key_resp_test.keys,key_resp_test.rt,text_3.started,text_3.stopped,total_time,end_all_time,key_resp_3.keys,slides_2.started,sounds_3.started,nextButton_2.numClicks,nextButton_2.timesOn,nextButton_2.timesOff,prev_but_2.numClicks,prev_but_2.timesOn,prev_but_2.timesOff,bye.started,participant,train_first,00_coordinate,starting corner,date,expName,psychopyVersion,frameRate,
,,,,,,,,,,,,,,,0,0,0,0,0,0,0,0,,,,,,,,,,,,,,,,,,,,,,,,,,,,,start_all_time,testround,conditions/schedules/train_y_first/red_square_00/bottom_left/instructions/Slide1.png,conditions/schedules/train_y_first/red_square_00/bottom_left/instructions/Audio1.wav,567.8974218999501,567.8359186585061,1,[3.6143865000922233],[3.6144006000831723],0,,,,,,,,,,,,,,,,,,,,,,,,,,,,,,,,,,,,,,,,,,,,,,,,,,,,,,,,,,,,,,,,,,,,,,,,,,,,,,,,,,,,,,,,,,,,,,,,,,,,,,,,,,,,,,,,,,,,,,,,,,,,X07AFH,train_y,red_square,bottom_left,2025-06-27_15h00.43.384,HideSeek_v1,2022.2.5,59.92161052423131,
,,,,,,,,,,,,,,,0,0,0,0,1,0,1,0,,,,,,,,,,,,,,,,,,,,,,,,,,,,,,,conditions/schedules/train_y_first/red_square_00/bottom_left/instructions/Slide2.png,conditions/schedules/train_y_first/red_square_00/bottom_left/instructions/Audio2.wav,571.5278674999718,571.5296748001128,2,"[3.6143865000922233, 38.18169180001132]","[0.014203300001099706, 38.18169839982875]",0,,,,,,,,,,,,,,,,,,,,,,,,,,,,,,,,,,,,,,,,,,,,,,,,,,,,,,,,,,,,,,,,,,,,,,,,,,,,,,,,,,,,,,,,,,,,,,,,,,,,,,,,,,,,,,,,,,,,,,,,,,,,X07AFH,train_y,red_square,bottom_left,2025-06-27_15h00.43.384,HideSeek_v1,2022.2.5,59.92161052423131,
,,,,,,,,,,,,,,,0,0,0,0,2,0,2,0,,,,,,,,,,,,,,,,,,,,,,,,,,,,,,,conditions/schedules/train_y_first/red_square_00/bottom_left/instructions/Slide3.png,conditions/schedules/train_y_first/red_square_00/bottom_left/instructions/Audio3.wav,609.7864079000428,609.7785247999709,3,"[3.6143865000922233, 38.18169180001132, 16.503282299963757]","[0.014203300001099706, 38.18169839982875, 16.503289100015536]",0,,,,,,,,,,,,,,,,,,,,,,,,,,,,,,,,,,,,,,,,,,,,,,,,,,,,,,,,,,,,,,,,,,,,,,,,,,,,,,,,,,,,,,,,,,,,,,,,,,,,,,,,,,,,,,,,,,,,,,,,,,,,X07AFH,train_y,red_square,bottom_left,2025-06-27_15h00.43.384,HideSeek_v1,2022.2.5,59.92161052423131,
,,,,,,,,,,,,,,,0,0,0,0,3,0,3,0,,,,,,,,,,,,,,,,,,,,,,,,,,,,,,,conditions/schedules/train_y_first/red_square_00/bottom_left/instructions/Slide4.png,conditions/schedules/train_y_first/red_square_00/bottom_left/instructions/Audio4.wav,626.3651537001133,626.3583402000368,4,"[3.6143865000922233, 38.18169180001132, 16.503282299963757, 19.62351300008595]","[0.014203300001099706, 38.18169839982875, 0.037110500037670135, 19.623519600136206]",0,,,,,,,,,,,,,,,,,,,,,,,,,,,,,,,,,,,,,,,,,,,,,,,,,,,,,,,,,,,,,,,,,,,,,,,,,,,,,,,,,,,,,,,,,,,,,,,,,,,,,,,,,,,,,,,,,,,,,,,,,,,,X07AFH,train_y,red_square,bottom_left,2025-06-27_15h00.43.384,HideSeek_v1,2022.2.5,59.92161052423131,
,,,,,,,,,,,,,,,0,0,0,0,4,0,4,0,,,,,,,,,,,,,,,,,,,,,,,,,,,,,,,conditions/schedules/train_y_first/red_square_00/bottom_left/instructions/Slide5.png,conditions/schedules/train_y_first/red_square_00/bottom_left/instructions/Audio5.wav,646.051661600126,646.0412104800808,5,"[3.6143865000922233, 38.18169180001132, 16.503282299963757, 19.62351300008595, 4.680568100186065]","[0.014203300001099706, 38.18169839982875, 0.037110500037670135, 0.0002133999951183796, 4.680577100021765]",0,,,,,,,,,,,,,,,,,,,,,,,,,,,,,,,,,,,,,,,,,,,,,,,,,,,,,,,,,,,,,,,,,,,,,,,,,,,,,,,,,,,,,,,,,,,,,,,,,,,,,,,,,,,,,,,,,,,,,,,,,,,,X07AFH,train_y,red_square,bottom_left,2025-06-27_15h00.43.384,HideSeek_v1,2022.2.5,59.92161052423131,
,,,,,,,,,,,,,,,0,0,0,0,5,0,5,0,,,,,,,,,,,,,,,,,,,,,,,,,,,,,,,conditions/schedules/train_y_first/red_square_00/bottom_left/instructions/Slide6.png,conditions/schedules/train_y_first/red_square_00/bottom_left/instructions/Audio6.wav,650.8020566999912,650.8008215001319,6,"[3.6143865000922233, 38.18169180001132, 16.503282299963757, 19.62351300008595, 4.680568100186065, 4.429968500044197]","[0.014203300001099706, 38.18169839982875, 0.037110500037670135, 0.0002133999951183796, 0.038844099966809154, 4.429975199978799]",0,,,,,,,,,,,,,,,,,,,,,,,,,,,,,,,,,,,,,,,,,,,,,,,,,,,,,,,,,,,,,,,,,,,,,,,,,,,,,,,,,,,,,,,,,,,,,,,,,,,,,,,,,,,,,,,,,,,,,,,,,,,,X07AFH,train_y,red_square,bottom_left,2025-06-27_15h00.43.384,HideSeek_v1,2022.2.5,59.92161052423131,
,,,,,,,,,,,,,,,0,0,0,0,6,0,6,0,,,,,,,,,,,,,,,,,,,,,,,,,,,,,,,conditions/schedules/train_y_first/red_square_00/bottom_left/instructions/Slide7.png,conditions/schedules/train_y_first/red_square_00/bottom_left/instructions/Audio7.wav,655.2808324999642,655.2821791801135,7,"[3.6143865000922233, 38.18169180001132, 16.503282299963757, 19.62351300008595, 4.680568100186065, 4.429968500044197, 5.803825699957088]","[0.014203300001099706, 38.18169839982875, 0.037110500037670135, 0.0002133999951183796, 0.038844099966809154, 0.04930619988590479, 5.803834599908441]",0,,,,,,,,,,,,,,,,,,,,,,,,,,,,,,,,,,,,,,,,,,,,,,,,,,,,,,,,,,,,,,,,,,,,,,,,,,,,,,,,,,,,,,,,,,,,,,,,,,,,,,,,,,,,,,,,,,,,,,,,,,,,X07AFH,train_y,red_square,bottom_left,2025-06-27_15h00.43.384,HideSeek_v1,2022.2.5,59.92161052423131,
,,,,,,,,,,,,,,,0,0,0,0,7,0,7,0,,,,,,,,,,,,,,,,,,,,,,,,,,,,,,,conditions/schedules/train_y_first/red_square_00/bottom_left/instructions/Slide8.png,conditions/schedules/train_y_first/red_square_00/bottom_left/instructions/Audio8.wav,661.1571989001241,661.153938600095,8,"[3.6143865000922233, 38.18169180001132, 16.503282299963757, 19.62351300008595, 4.680568100186065, 4.429968500044197, 5.803825699957088, 11.888050700072199]","[0.014203300001099706, 38.18169839982875, 0.037110500037670135, 0.0002133999951183796, 0.038844099966809154, 0.04930619988590479, 0.00024790014140307903, 11.888057800009847]",0,,,,,,,,,,,,,,,,,,,,,,,,,,,,,,,,,,,,,,,,,,,,,,,,,,,,,,,,,,,,,,,,,,,,,,,,,,,,,,,,,,,,,,,,,,,,,,,,,,,,,,,,,,,,,,,,,,,,,,,,,,,,X07AFH,train_y,red_square,bottom_left,2025-06-27_15h00.43.384,HideSeek_v1,2022.2.5,59.92161052423131,
,,,,,,,,,,,,,,,0,0,0,0,8,0,8,0,,,,,,,,,,,,,,,,,,,,,,,,,,,,,,,conditions/schedules/train_y_first/red_square_00/bottom_left/instructions/Slide9.png,conditions/schedules/train_y_first/red_square_00/bottom_left/instructions/Audio9.wav,673.1092690001242,673.0971596800256,9,"[3.6143865000922233, 38.18169180001132, 16.503282299963757, 19.62351300008595, 4.680568100186065, 4.429968500044197, 5.803825699957088, 11.888050700072199, 5.757020600140095]","[0.014203300001099706, 38.18169839982875, 0.037110500037670135, 0.0002133999951183796, 0.038844099966809154, 0.04930619988590479, 0.00024790014140307903, 0.035876600071787834, 5.757027400191873]",0,,,,,,,,,,,,,,,,,,,,,,,,,,,,,,,,,,,,,,,,,,,,,,,,,,,,,,,,,,,,,,,,,,,,,,,,,,,,,,,,,,,,,,,,,,,,,,,,,,,,,,,,,,,,,,,,,,,,,,,,,,,,X07AFH,train_y,red_square,bottom_left,2025-06-27_15h00.43.384,HideSeek_v1,2022.2.5,59.92161052423131,
,,,,,,,,,,,,,,,0,0,0,0,9,0,9,0,,,,,,,,,,,,,,,,,,,,,,,,,,,,,,,conditions/schedules/train_y_first/red_square_00/bottom_left/instructions/Slide10.png,conditions/schedules/train_y_first/red_square_00/bottom_left/instructions/Audio10.wav,678.9033830000553,678.9018390601035,10,"[3.6143865000922233, 38.18169180001132, 16.503282299963757, 19.62351300008595, 4.680568100186065, 4.429968500044197, 5.803825699957088, 11.888050700072199, 5.757020600140095, 6.818513799924403]","[0.014203300001099706, 38.18169839982875, 0.037110500037670135, 0.0002133999951183796, 0.038844099966809154, 0.04930619988590479, 0.00024790014140307903, 0.035876600071787834, 0.046738999895751476, 6.818520700093359]",0,,,,,,,,,,,,,,,,,,,,,,,,,,,,,,,,,,,,,,,,,,,,,,,,,,,,,,,,,,,,,,,,,,,,,,,,,,,,,,,,,,,,,,,,,,,,,,,,,,,,,,,,,,,,,,,,,,,,,,,,,,,,X07AFH,train_y,red_square,bottom_left,2025-06-27_15h00.43.384,HideSeek_v1,2022.2.5,59.92161052423131,
,,,,,,,,,,,,,,,0,0,0,0,10,0,10,0,,,,,,,,,,,,,,,,,,,,,,,,,,,,,,,conditions/schedules/train_y_first/red_square_00/bottom_left/instructions/Slide11.png,conditions/schedules/train_y_first/red_square_00/bottom_left/instructions/Audio11.wav,685.7601660999935,685.7577170600183,11,"[3.6143865000922233, 38.18169180001132, 16.503282299963757, 19.62351300008595, 4.680568100186065, 4.429968500044197, 5.803825699957088, 11.888050700072199, 5.757020600140095, 6.818513799924403, 18.86111510009505]","[0.014203300001099706, 38.18169839982875, 0.037110500037670135, 0.0002133999951183796, 0.038844099966809154, 0.04930619988590479, 0.00024790014140307903, 0.035876600071787834, 0.046738999895751476, 0.07857890008017421, 18.861123100155964]",0,,,,,,,,,,,,,,,,,,,,,,,,,,,,,,,,,,,,,,,,,,,,,,,,,,,,,,,,,,,,,,,,,,,,,,,,,,,,,,,,,,,,,,,,,,,,,,,,,,,,,,,,,,,,,,,,,,,,,,,,,,,,X07AFH,train_y,red_square,bottom_left,2025-06-27_15h00.43.384,HideSeek_v1,2022.2.5,59.92161052423131,
,,,,,,,,,,,,,,,0,0,0,0,11,0,11,0,,,,,,,,,,,,,,,,,,,,,,,,,,,,,,,conditions/schedules/train_y_first/red_square_00/bottom_left/instructions/Slide12.png,conditions/schedules/train_y_first/red_square_00/bottom_left/instructions/Audio12.wav,704.6928419999313,704.6901158001274,12,"[3.6143865000922233, 38.18169180001132, 16.503282299963757, 19.62351300008595, 4.680568100186065, 4.429968500044197, 5.803825699957088, 11.888050700072199, 5.757020600140095, 6.818513799924403, 18.86111510009505, 13.572669599903747]","[0.014203300001099706, 38.18169839982875, 0.037110500037670135, 0.0002133999951183796, 0.038844099966809154, 0.04930619988590479, 0.00024790014140307903, 0.035876600071787834, 0.046738999895751476, 0.07857890008017421, 0.00023239990696310997, 13.572676399955526]",0,,,,,,,,,,,,,,,,,,,,,,,,,,,,,,,,,,,,,,,,,,,,,,,,,,,,,,,,,,,,,,,,,,,,,,,,,,,,,,,,,,,,,,,,,,,,,,,,,,,,,,,,,,,,,,,,,,,,,,,,,,,,X07AFH,train_y,red_square,bottom_left,2025-06-27_15h00.43.384,HideSeek_v1,2022.2.5,59.92161052423131,
1,2,3,2,8,0,5,11,2,instr_dim1_1,,,,,,0,0,0,0,,,,,0,0,0,0,,,,,,,,,,,,,,,,,,,,,,,,,,,,,,,,,,,,,stimuli/alien_stimuli/11.png,conditions/schedules/train_y_first/red_square_00/bottom_left/inputInstr_1.xlsx,stimuli/alien_stimuli/11.png,718.3708649000619,718.3708649000619,718.3708649000619,718.3708649000619,718.3678540400228,return,8.448419999796897,"[-0.16, -0.08, 0, 0.08, 0.16, 0.24, 0.32, 0.4, 0.48, 0.56]","[-0.4, -0.32, -0.24, -0.16, -0.08, 0, 0.08, 0.16, 0.24, 0.32]",8,3,2,2,0.4,0.0,726.9928929000162,726.9928929000162,726.9928929000162,726.9928929000162,726.9928929000162,726.9928929000162,726.9928929000162,726.9915948999114,11.893594299908727,return,11.710162499919534,stimuli/alien_stimuli/11.png,11,2,1,,,,,,,,,,,,,,,,,,,,,,,,,,,,,,,,,,,,,,,,,,,,,,,,,,,,,,,,,,,,,,,,,,,,,,,,,,,,,,,,,,,,,,,,,X07AFH,train_y,red_square,bottom_left,2025-06-27_15h00.43.384,HideSeek_v1,2022.2.5,59.92161052423131,
,,,,,,,,,,,30,,,,0,0,0,0,,,,,,,,,,,,,,,,,,,,,,,,,,,,,,,,,,,,,,,,,,,,,,,,,,,,,,,,,,,,,,,,,,,,,,,,,,,,,,21,0.7,0,0,99,1,30,0,conditions/schedules/train_y_first/red_square_00/bottom_left/inputTrain_1.1.xlsx,99,1,1,1,0,,,,,,,,,,,,,,,,,,,,,,,,,,,,,,,,,,,,,,,,,,,,,,,,,,,,,,,,,,,,,,,,,,,,,,,,,,,X07AFH,train_y,red_square,bottom_left,2025-06-27_15h00.43.384,HideSeek_v1,2022.2.5,59.92161052423131,
,,,,,,,,,,,,,,,1,0,1,0,0,0,0,0,,,,,,,,,,,,,,,,,,,,,,,,,,,,,,,conditions/schedules/train_y_first/red_square_00/bottom_left/instructions/Slide13.png,conditions/schedules/train_y_first/red_square_00/bottom_left/instructions/Audio13.wav,738.879615599988,738.8680411798879,13,"[3.6143865000922233, 38.18169180001132, 16.503282299963757, 19.62351300008595, 4.680568100186065, 4.429968500044197, 5.803825699957088, 11.888050700072199, 5.757020600140095, 6.818513799924403, 18.86111510009505, 13.572669599903747, 17.55071510002017]","[0.014203300001099706, 38.18169839982875, 0.037110500037670135, 0.0002133999951183796, 0.038844099966809154, 0.04930619988590479, 0.00024790014140307903, 0.035876600071787834, 0.046738999895751476, 0.07857890008017421, 0.00023239990696310997, 13.572676399955526, 17.550722499843687]",0,,,,,,,,,,,,,,,,,,,,,,,,,,,,,,,,,,,,,,,,,,,,,,,,,,,,,,,,,,,,,,,,,,,,,,,,,,,,,,,,,,,,,,,,,,,,,,,,,,,,,,,,,,,,,,,,,,,,,,,,,,,,X07AFH,train_y,red_square,bottom_left,2025-06-27_15h00.43.384,HideSeek_v1,2022.2.5,59.92161052423131,
,,,,,,,,,,,,,,,1,0,1,0,1,0,1,0,,,,,,,,,,,,,,,,,,,,,,,,,,,,,,,conditions/schedules/train_y_first/red_square_00/bottom_left/instructions/Slide14.png,conditions/schedules/train_y_first/red_square_00/bottom_left/instructions/Audio14.wav,756.4962973999791,756.4828518799505,14,"[3.6143865000922233, 38.18169180001132, 16.503282299963757, 19.62351300008595, 4.680568100186065, 4.429968500044197, 5.803825699957088, 11.888050700072199, 5.757020600140095, 6.818513799924403, 18.86111510009505, 13.572669599903747, 17.55071510002017, 16.514915300067514]","[0.014203300001099706, 38.18169839982875, 0.037110500037670135, 0.0002133999951183796, 0.038844099966809154, 0.04930619988590479, 0.00024790014140307903, 0.035876600071787834, 0.046738999895751476, 0.07857890008017421, 0.00023239990696310997, 13.572676399955526, 0.05118170008063316, 16.51492240000516]",0,,,,,,,,,,,,,,,,,,,,,,,,,,,,,,,,,,,,,,,,,,,,,,,,,,,,,,,,,,,,,,,,,,,,,,,,,,,,,,,,,,,,,,,,,,,,,,,,,,,,,,,,,,,,,,,,,,,,,,,,,,,,X07AFH,train_y,red_square,bottom_left,2025-06-27_15h00.43.384,HideSeek_v1,2022.2.5,59.92161052423131,
2,0,3,0,3,0,0,16,2,instr_dim1_1,,,,,,1,0,1,0,,,,,0,0,0,0,,,,,,,,,,,,,,,,,,,,,,,,,,,,,,,,,,,,,stimuli/alien_stimuli/16.png,conditions/schedules/train_y_first/red_square_00/bottom_left/inputInstr_1.xlsx,stimuli/alien_stimuli/16.png,773.1084894000087,773.1084894000087,773.1084894000087,773.1084894000087,773.1135512400883,return,6.387291599996388,"[-0.16, -0.08, 0, 0.08, 0.16, 0.24, 0.32, 0.4, 0.48, 0.56]","[-0.4, -0.32, -0.24, -0.16, -0.08, 0, 0.08, 0.16, 0.24, 0.32]",3,3,0,0,0.0,0.0,779.6535341001581,779.6535341001581,779.6535341001581,779.6535341001581,779.6535341001581,779.6535341001581,779.6535341001581,779.6520808800589,5.10612739995122,return,4.948758800048381,stimuli/alien_stimuli/16.png,16,0,2,,,,,,,,,,,,,,,,,,,,,,,,,,,,,,,,,,,,,,,,,,,,,,,,,,,,,,,,,,,,,,,,,,,,,,,,,,,,,,,,,,,,,,,,,X07AFH,train_y,red_square,bottom_left,2025-06-27_15h00.43.384,HideSeek_v1,2022.2.5,59.92161052423131,
,,,,,,,,,,,30,,,,1,0,1,0,,,,,,,,,,,,,,,,,,,,,,,,,,,,,,,,,,,,,,,,,,,,,,,,,,,,,,,,,,,,,,,,,,,,,,,,,,,,,,21,0.7,0,0,99,1,30,0,conditions/schedules/train_y_first/red_square_00/bottom_left/inputTrain_1.1.xlsx,99,1,1,1,0,,,,,,,,,,,,,,,,,,,,,,,,,,,,,,,,,,,,,,,,,,,,,,,,,,,,,,,,,,,,,,,,,,,,,,,,,,,X07AFH,train_y,red_square,bottom_left,2025-06-27_15h00.43.384,HideSeek_v1,2022.2.5,59.92161052423131,
,,,,,,,,,,,,,,,2,0,2,0,0,0,0,0,,,,,,,,,,,,,,,,,,,,,,,,,,,,,,,conditions/schedules/train_y_first/red_square_00/bottom_left/instructions/Slide15.png,conditions/schedules/train_y_first/red_square_00/bottom_left/instructions/Audio15.wav,784.775533700129,784.7736841998994,14,"[3.6143865000922233, 38.18169180001132, 16.503282299963757, 19.62351300008595, 4.680568100186065, 4.429968500044197, 5.803825699957088, 11.888050700072199, 5.757020600140095, 6.818513799924403, 18.86111510009505, 13.572669599903747, 17.55071510002017, 16.514915300067514]","[0.014203300001099706, 38.18169839982875, 0.037110500037670135, 0.0002133999951183796, 0.038844099966809154, 0.04930619988590479, 0.00024790014140307903, 0.035876600071787834, 0.046738999895751476, 0.07857890008017421, 0.00023239990696310997, 13.572676399955526, 0.05118170008063316, 16.51492240000516]",1,[42.930713899899274],[42.93072169995867],,,,,,,,,,,,,,,,,,,,,,,,,,,,,,,,,,,,,,,,,,,,,,,,,,,,,,,,,,,,,,,,,,,,,,,,,,,,,,,,,,,,,,,,,,,,,,,,,,,,,,,,,,,,,,,,,,,,,,,,,,X07AFH,train_y,red_square,bottom_left,2025-06-27_15h00.43.384,HideSeek_v1,2022.2.5,59.92161052423131,
,,,,,,,,,,,,,,,2,0,2,0,1,0,1,0,,,,,,,,,,,,,,,,,,,,,,,,,,,,,,,conditions/schedules/train_y_first/red_square_00/bottom_left/instructions/Slide14.png,conditions/schedules/train_y_first/red_square_00/bottom_left/instructions/Audio14.wav,827.7750059000682,827.7756636000704,15,"[3.6143865000922233, 38.18169180001132, 16.503282299963757, 19.62351300008595, 4.680568100186065, 4.429968500044197, 5.803825699957088, 11.888050700072199, 5.757020600140095, 6.818513799924403, 18.86111510009505, 13.572669599903747, 17.55071510002017, 16.514915300067514, 6.038117100019008]","[0.014203300001099706, 38.18169839982875, 0.037110500037670135, 0.0002133999951183796, 0.038844099966809154, 0.04930619988590479, 0.00024790014140307903, 0.035876600071787834, 0.046738999895751476, 0.07857890008017421, 0.00023239990696310997, 13.572676399955526, 0.05118170008063316, 16.51492240000516, 6.038142400095239]",1,[42.930713899899274],[0.014109699986875057],,,,,,,,,,,,,,,,,,,,,,,,,,,,,,,,,,,,,,,,,,,,,,,,,,,,,,,,,,,,,,,,,,,,,,,,,,,,,,,,,,,,,,,,,,,,,,,,,,,,,,,,,,,,,,,,,,,,,,,,,,X07AFH,train_y,red_square,bottom_left,2025-06-27_15h00.43.384,HideSeek_v1,2022.2.5,59.92161052423131,
,,,,,,,,,,,,,,,2,0,2,0,2,0,2,0,,,,,,,,,,,,,,,,,,,,,,,,,,,,,,,conditions/schedules/train_y_first/red_square_00/bottom_left/instructions/Slide15.png,conditions/schedules/train_y_first/red_square_00/bottom_left/instructions/Audio15.wav,833.8905464999843,833.8815470999107,16,"[3.6143865000922233, 38.18169180001132, 16.503282299963757, 19.62351300008595, 4.680568100186065, 4.429968500044197, 5.803825699957088, 11.888050700072199, 5.757020600140095, 6.818513799924403, 18.86111510009505, 13.572669599903747, 17.55071510002017, 16.514915300067514, 6.038117100019008, 28.528133699903265]","[0.014203300001099706, 38.18169839982875, 0.037110500037670135, 0.0002133999951183796, 0.038844099966809154, 0.04930619988590479, 0.00024790014140307903, 0.035876600071787834, 0.046738999895751476, 0.07857890008017421, 0.00023239990696310997, 13.572676399955526, 0.05118170008063316, 16.51492240000516, 6.038142400095239, 28.528140200069174]",1,[42.930713899899274],[0.014109699986875057],,,,,,,,,,,,,,,,,,,,,,,,,,,,,,,,,,,,,,,,,,,,,,,,,,,,,,,,,,,,,,,,,,,,,,,,,,,,,,,,,,,,,,,,,,,,,,,,,,,,,,,,,,,,,,,,,,,,,,,,,,X07AFH,train_y,red_square,bottom_left,2025-06-27_15h00.43.384,HideSeek_v1,2022.2.5,59.92161052423131,
,,,,,,,,,,,,,,,2,0,2,0,3,0,3,0,,,,,,,,,,,,,,,,,,,,,,,,,,,,,,,conditions/schedules/train_y_first/red_square_00/bottom_left/instructions/Slide16.png,conditions/schedules/train_y_first/red_square_00/bottom_left/instructions/Audio16.wav,862.4900907000992,862.4876735999715,17,"[3.6143865000922233, 38.18169180001132, 16.503282299963757, 19.62351300008595, 4.680568100186065, 4.429968500044197, 5.803825699957088, 11.888050700072199, 5.757020600140095, 6.818513799924403, 18.86111510009505, 13.572669599903747, 17.55071510002017, 16.514915300067514, 6.038117100019008, 28.528133699903265, 23.04739429987967]","[0.014203300001099706, 38.18169839982875, 0.037110500037670135, 0.0002133999951183796, 0.038844099966809154, 0.04930619988590479, 0.00024790014140307903, 0.035876600071787834, 0.046738999895751476, 0.07857890008017421, 0.00023239990696310997, 13.572676399955526, 0.05118170008063316, 16.51492240000516, 6.038142400095239, 28.528140200069174, 23.047401699936017]",1,[42.930713899899274],[0.014109699986875057],,,,,,,,,,,,,,,,,,,,,,,,,,,,,,,,,,,,,,,,,,,,,,,,,,,,,,,,,,,,,,,,,,,,,,,,,,,,,,,,,,,,,,,,,,,,,,,,,,,,,,,,,,,,,,,,,,,,,,,,,,X07AFH,train_y,red_square,bottom_left,2025-06-27_15h00.43.384,HideSeek_v1,2022.2.5,59.92161052423131,
,0,0,0,1,0,1,15,,train_dim1_1,1,30,,,,2,0,2,0,,,,,,,,,0,0,0,0,0,0,0,0,0,0,0,0,,,,,,,,,,,,,,,,,,,,,,,,,stimuli/alien_stimuli/15.png,,,,,,,,,,,,,,,,,,,,,,,,,,,,,,,,,,,,,,,30,,,,,,,,885.6442748999689,885.6442748999689,885.6442748999689,885.6442748999689,885.6442748999689,right,3.780765599803999,0,0,0,99,-0.08,-0.4,right,3.6751329998951405,,,,,,,,,,,,,,,,,,,,,,,,,,,,,,,,,,,,,,,,,,,,,,,,,,,,,,,,,,,,X07AFH,train_y,red_square,bottom_left,2025-06-27_15h00.43.384,HideSeek_v1,2022.2.5,59.92161052423131,
,0,0,0,1,0,1,15,,train_dim1_1,1,30,,,,2,0,2,0,,,,,,,,,0,0,0,0,0,0,0,0,1,0,1,0,,,,,,,,,,,,,,,,,,,,,,,,,,,,,,,,,,,,,,,,,,,,,,,,,,,,,,,,,,,,,,,,30,,,,,,,,889.4122411999851,889.4122411999851,889.4122411999851,889.4122411999851,889.4122411999851,left,0.992850000038743,0,0,0,99,-0.16,-0.4,left,0.9113916999194771,,,,,,,,,,,,,,,,,,,,,,,,,,,,,,,,,,,,,,,,,,,,,,,,,,,,,,,,,,,,X07AFH,train_y,red_square,bottom_left,2025-06-27_15h00.43.384,HideSeek_v1,2022.2.5,59.92161052423131,
,0,0,0,1,0,1,15,,train_dim1_1,1,30,,,,2,0,2,0,,,,,,,,,0,0,0,0,0,0,0,0,2,0,2,0,,,,,,,,,,,,,,,,,,,,,,,,,,,,,,,,,,,,,,,,,,,,,,,,,,,,,,,,,,,,,,,,30,,,,,,,,890.4134774999693,890.4134774999693,890.4134774999693,890.4134774999693,890.4134774999693,return,0.7092962998431176,0,1,0,0,-0.16,-0.4,return,0.6248993996996433,0,0,-0.16,-0.4,,,,,,,,,,,,,,,,,,,,,,,,,,,,,,,,,,,,,,,,,,,,,,,,,,,,,,,,X07AFH,train_y,red_square,bottom_left,2025-06-27_15h00.43.384,HideSeek_v1,2022.2.5,59.92161052423131,
,3,2,3,2,0,0,16,,train_dim1_1,2,30,,,,2,0,2,0,,,,,,,,,0,0,0,0,0,1,1,1,0,0,0,0,,,,,,,,,,,,,,,,,,,,,,,,,stimuli/alien_stimuli/16.png,,,,,,,,,,,,,,,,,,,,,,,,,,,,,stimuli/alien_stimuli/15.png,15,0,3,,,,,,,30,,,,,,,,911.9568791000638,911.9568791000638,911.9568791000638,911.9568791000638,911.9568791000638,right,2.1204371999483556,0,1,0,99,0.16,-0.24,right,2.0158440999221057,,,,,910.3773291001562,911.9568791000638,-0.16,-0.32,0.08,0.0,-0.36,-0.16,-0.16,-0.16,-0.32,892.705588700017,892.705588700017,892.705588700017,892.705588700017,892.705588700017,892.705588700017,892.705588700017,892.705588700017,892.695671560103,17.800483600003645,return,17.65587389981374,,,,,,,,,,,,,,,,,,,,,,,,,,,,,,,,,X07AFH,train_y,red_square,bottom_left,2025-06-27_15h00.43.384,HideSeek_v1,2022.2.5,59.92161052423131,
,3,2,3,2,0,0,16,,train_dim1_1,2,30,,,,2,0,2,0,,,,,,,,,0,0,0,0,0,1,1,1,1,0,1,0,,,,,,,,,,,,,,,,,,,,,,,,,,,,,,,,,,,,,,,,,,,,,,,,,,,,,,,,,,,,,,,,30,,,,,,,,914.0647700000554,914.0647700000554,914.0647700000554,914.0647700000554,914.0647700000554,left,1.210191500140354,0,1,0,99,0.08,-0.24,left,1.1328739998862147,,,,,,,,,,,,,,,,,,,,,,,,,,,,,,,,,,,,,,,,,,,,,,,,,,,,,,,,,,,,X07AFH,train_y,red_square,bottom_left,2025-06-27_15h00.43.384,HideSeek_v1,2022.2.5,59.92161052423131,
,3,2,3,2,0,0,16,,train_dim1_1,2,30,,,,2,0,2,0,,,,,,,,,0,0,0,0,0,1,1,1,2,0,2,0,,,,,,,,,,,,,,,,,,,,,,,,,,,,,,,,,,,,,,,,,,,,,,,,,,,,,,,,,,,,,,,,30,,,,,,,,915.281582799973,915.281582799973,915.281582799973,915.281582799973,915.281582799973,up,0.677250900072977,0,1,0,99,0.08,-0.15999999999999998,up,0.5876697998028249,,,,,,,,,,,,,,,,,,,,,,,,,,,,,,,,,,,,,,,,,,,,,,,,,,,,,,,,,,,,X07AFH,train_y,red_square,bottom_left,2025-06-27_15h00.43.384,HideSeek_v1,2022.2.5,59.92161052423131,
,3,2,3,2,0,0,16,,train_dim1_1,2,30,,,,2,0,2,0,,,,,,,,,0,0,0,0,0,1,1,1,3,0,3,0,,,,,,,,,,,,,,,,,,,,,,,,,,,,,,,,,,,,,,,,,,,,,,,,,,,,,,,,,,,,,,,,30,,,,,,,,915.9657575001474,915.9657575001474,915.9657575001474,915.9657575001474,915.9657575001474,down,0.7935796999372542,0,1,0,99,0.08,-0.24,down,0.7113906999584287,,,,,,,,,,,,,,,,,,,,,,,,,,,,,,,,,,,,,,,,,,,,,,,,,,,,,,,,,,,,X07AFH,train_y,red_square,bottom_left,2025-06-27_15h00.43.384,HideSeek_v1,2022.2.5,59.92161052423131,
,3,2,3,2,0,0,16,,train_dim1_1,2,30,,,,2,0,2,0,,,,,,,,,0,0,0,0,0,1,1,1,4,0,4,0,,,,,,,,,,,,,,,,,,,,,,,,,,,,,,,,,,,,,,,,,,,,,,,,,,,,,,,,,,,,,,,,30,,,,,,,,916.7659922000021,916.7659922000021,916.7659922000021,916.7659922000021,916.7659922000021,down,0.3259617001749575,0,1,0,99,0.08,-0.32,down,0.23884999984875321,,,,,,,,,,,,,,,,,,,,,,,,,,,,,,,,,,,,,,,,,,,,,,,,,,,,,,,,,,,,X07AFH,train_y,red_square,bottom_left,2025-06-27_15h00.43.384,HideSeek_v1,2022.2.5,59.92161052423131,
,3,2,3,2,0,0,16,,train_dim1_1,2,30,,,,2,0,2,0,,,,,,,,,0,0,0,0,0,1,1,1,5,0,5,0,,,,,,,,,,,,,,,,,,,,,,,,,,,,,,,,,,,,,,,,,,,,,,,,,,,,,,,,,,,,,,,,30,,,,,,,,917.0996459999587,917.0996459999587,917.0996459999587,917.0996459999587,917.0996459999587,return,0.3601251000072807,0,1,0,0,0.08,-0.32,return,0.2684214999899268,-1,0,0.08,-0.32,,,,,,,,,,,,,,,,,,,,,,,,,,,,,,,,,,,,,,,,,,,,,,,,,,,,,,,,X07AFH,train_y,red_square,bottom_left,2025-06-27_15h00.43.384,HideSeek_v1,2022.2.5,59.92161052423131,
,2,3,2,6,0,3,13,,train_dim1_1,3,30,,,,2,0,2,0,,,,,,,,,0,0,0,0,0,2,2,2,0,0,0,0,,,,,,,,,,,,,,,,,,,,,,,,,stimuli/alien_stimuli/13.png,,,,,,,,,,,,,,,,,,,,,,,,,,,,,stimuli/alien_stimuli/16.png,16,3,4,,,,,,,30,,,,,,,,934.1382021999452,934.1382021999452,934.1382021999452,934.1382021999452,934.1382021999452,up,4.672218899941072,0,1,0,99,0,-0.08,up,4.572980099823326,,,,,932.5623294999823,934.1382021999452,0.08,-0.24,0.0,0.0,-0.24,0.08,0.08,0.08,-0.24,919.035292699933,919.035292699933,919.035292699933,919.035292699933,919.035292699933,919.035292699933,919.035292699933,919.035292699933,919.0343164599966,13.646446699975058,return,13.495744100073352,,,,,,,,,,,,,,,,,,,,,,,,,,,,,,,,,X07AFH,train_y,red_square,bottom_left,2025-06-27_15h00.43.384,HideSeek_v1,2022.2.5,59.92161052423131,
,2,3,2,6,0,3,13,,train_dim1_1,3,30,,,,2,0,2,0,,,,,,,,,0,0,0,0,0,2,2,2,1,0,1,0,,,,,,,,,,,,,,,,,,,,,,,,,,,,,,,,,,,,,,,,,,,,,,,,,,,,,,,,,,,,,,,,30,,,,,,,,938.8062166001182,938.8062166001182,938.8062166001182,938.8062166001182,938.8062166001182,up,0.4070039999205619,0,1,0,99,0,0.0,up,0.3242286997847259,,,,,,,,,,,,,,,,,,,,,,,,,,,,,,,,,,,,,,,,,,,,,,,,,,,,,,,,,,,,X07AFH,train_y,red_square,bottom_left,2025-06-27_15h00.43.384,HideSeek_v1,2022.2.5,59.92161052423131,
,2,3,2,6,0,3,13,,train_dim1_1,3,30,,,,2,0,2,0,,,,,,,,,0,0,0,0,0,2,2,2,2,0,2,0,,,,,,,,,,,,,,,,,,,,,,,,,,,,,,,,,,,,,,,,,,,,,,,,,,,,,,,,,,,,,,,,30,,,,,,,,939.2182676000521,939.2182676000521,939.2182676000521,939.2182676000521,939.2182676000521,up,0.4100277000106871,0,1,0,99,0,0.08,up,0.3313245000317693,,,,,,,,,,,,,,,,,,,,,,,,,,,,,,,,,,,,,,,,,,,,,,,,,,,,,,,,,,,,X07AFH,train_y,red_square,bottom_left,2025-06-27_15h00.43.384,HideSeek_v1,2022.2.5,59.92161052423131,
,2,3,2,6,0,3,13,,train_dim1_1,3,30,,,,2,0,2,0,,,,,,,,,0,0,0,0,0,2,2,2,3,0,3,0,,,,,,,,,,,,,,,,,,,,,,,,,,,,,,,,,,,,,,,,,,,,,,,,,,,,,,,,,,,,,,,,30,,,,,,,,939.6341779001523,939.6341779001523,939.6341779001523,939.6341779001523,939.6341779001523,up,0.5433592998888344,0,1,0,99,0,0.16,up,0.4630766997579485,,,,,,,,,,,,,,,,,,,,,,,,,,,,,,,,,,,,,,,,,,,,,,,,,,,,,,,,,,,,X07AFH,train_y,red_square,bottom_left,2025-06-27_15h00.43.384,HideSeek_v1,2022.2.5,59.92161052423131,
,2,3,2,6,0,3,13,,train_dim1_1,3,30,,,,2,0,2,0,,,,,,,,,0,0,0,0,0,2,2,2,4,0,4,0,,,,,,,,,,,,,,,,,,,,,,,,,,,,,,,,,,,,,,,,,,,,,,,,,,,,,,,,,,,,,,,,30,,,,,,,,940.1850006999448,940.1850006999448,940.1850006999448,940.1850006999448,940.1850006999448,up,3.9130468000657856,0,1,0,99,0,0.24,up,3.8347672997042537,,,,,,,,,,,,,,,,,,,,,,,,,,,,,,,,,,,,,,,,,,,,,,,,,,,,,,,,,,,,X07AFH,train_y,red_square,bottom_left,2025-06-27_15h00.43.384,HideSeek_v1,2022.2.5,59.92161052423131,
,2,3,2,6,0,3,13,,train_dim1_1,3,30,,,,2,0,2,0,,,,,,,,,0,0,0,0,0,2,2,2,5,0,5,0,,,,,,,,,,,,,,,,,,,,,,,,,,,,,,,,,,,,,,,,,,,,,,,,,,,,,,,,,,,,,,,,30,,,,,,,,944.1065746999811,944.1065746999811,944.1065746999811,944.1065746999811,944.1065746999811,return,1.1430974998511374,0,0,0,0,0,0.24,return,1.0561940998304635,4,0,0,0.24,,,,,,,,,,,,,,,,,,,,,,,,,,,,,,,,,,,,,,,,,,,,,,,,,,,,,,,,X07AFH,train_y,red_square,bottom_left,2025-06-27_15h00.43.384,HideSeek_v1,2022.2.5,59.92161052423131,
,0,1,0,5,0,4,12,,train_dim1_1,4,30,,,,2,0,2,0,,,,,,,,,0,0,0,0,0,3,3,3,0,0,0,0,,,,,,,,,,,,,,,,,,,,,,,,,stimuli/alien_stimuli/12.png,,,,,,,,,,,,,,,,,,,,,,,,,,,,,stimuli/alien_stimuli/13.png,13,2,5,,,,,,,30,,,,,,,,964.7948668000754,964.7948668000754,964.7948668000754,964.7948668000754,964.7948668000754,up,2.7060878998599946,0,0,0,99,-0.16,-0.24,up,2.6090777998324484,,,,,963.2211456000805,964.7948668000754,0,0.08,0.24,0.0,-0.04,0,0.0,0,0.08,946.8295591999777,946.8295591999777,946.8295591999777,946.8295591999777,946.8295591999777,946.8295591999777,946.8295591999777,946.8295591999777,946.8242682598997,16.515829999931157,return,16.37367589981295,,,,,,,,,,,,,,,,,,,,,,,,,,,,,,,,,X07AFH,train_y,red_square,bottom_left,2025-06-27_15h00.43.384,HideSeek_v1,2022.2.5,59.92161052423131,
,0,1,0,5,0,4,12,,train_dim1_1,4,30,,,,2,0,2,0,,,,,,,,,0,0,0,0,0,3,3,3,1,0,1,0,,,,,,,,,,,,,,,,,,,,,,,,,,,,,,,,,,,,,,,,,,,,,,,,,,,,,,,,,,,,,,,,30,,,,,,,,967.4958675000817,967.4958675000817,967.4958675000817,967.4958675000817,967.4958675000817,up,0.607542100129649,0,0,0,99,-0.16,-0.15999999999999998,up,0.5185923997778445,,,,,,,,,,,,,,,,,,,,,,,,,,,,,,,,,,,,,,,,,,,,,,,,,,,,,,,,,,,,X07AFH,train_y,red_square,bottom_left,2025-06-27_15h00.43.384,HideSeek_v1,2022.2.5,59.92161052423131,
,0,1,0,5,0,4,12,,train_dim1_1,4,30,,,,2,0,2,0,,,,,,,,,0,0,0,0,0,3,3,3,2,0,2,0,,,,,,,,,,,,,,,,,,,,,,,,,,,,,,,,,,,,,,,,,,,,,,,,,,,,,,,,,,,,,,,,30,,,,,,,,968.1091509000398,968.1091509000398,968.1091509000398,968.1091509000398,968.1091509000398,up,0.5936279001180083,0,0,0,99,-0.16,-0.07999999999999997,up,0.5154255998786539,,,,,,,,,,,,,,,,,,,,,,,,,,,,,,,,,,,,,,,,,,,,,,,,,,,,,,,,,,,,X07AFH,train_y,red_square,bottom_left,2025-06-27_15h00.43.384,HideSeek_v1,2022.2.5,59.92161052423131,
,0,1,0,5,0,4,12,,train_dim1_1,4,30,,,,2,0,2,0,,,,,,,,,0,0,0,0,0,3,3,3,3,0,3,0,,,,,,,,,,,,,,,,,,,,,,,,,,,,,,,,,,,,,,,,,,,,,,,,,,,,,,,,,,,,,,,,30,,,,,,,,968.7099401999731,968.7099401999731,968.7099401999731,968.7099401999731,968.7099401999731,up,0.5767737000714988,0,0,0,99,-0.16,2.7755575615628914e-17,up,0.4856951998081058,,,,,,,,,,,,,,,,,,,,,,,,,,,,,,,,,,,,,,,,,,,,,,,,,,,,,,,,,,,,X07AFH,train_y,red_square,bottom_left,2025-06-27_15h00.43.384,HideSeek_v1,2022.2.5,59.92161052423131,
,0,1,0,5,0,4,12,,train_dim1_1,4,30,,,,2,0,2,0,,,,,,,,,0,0,0,0,0,3,3,3,4,0,4,0,,,,,,,,,,,,,,,,,,,,,,,,,,,,,,,,,,,,,,,,,,,,,,,,,,,,,,,,,,,,,,,,30,,,,,,,,969.2932835000101,969.2932835000101,969.2932835000101,969.2932835000101,969.2932835000101,up,0.5601929000113159,0,0,0,99,-0.16,0.08000000000000003,up,0.46926789986900985,,,,,,,,,,,,,,,,,,,,,,,,,,,,,,,,,,,,,,,,,,,,,,,,,,,,,,,,,,,,X07AFH,train_y,red_square,bottom_left,2025-06-27_15h00.43.384,HideSeek_v1,2022.2.5,59.92161052423131,
,0,1,0,5,0,4,12,,train_dim1_1,4,30,,,,2,0,2,0,,,,,,,,,0,0,0,0,0,3,3,3,5,0,5,0,,,,,,,,,,,,,,,,,,,,,,,,,,,,,,,,,,,,,,,,,,,,,,,,,,,,,,,,,,,,,,,,30,,,,,,,,969.8607805001084,969.8607805001084,969.8607805001084,969.8607805001084,969.8607805001084,return,0.7269053000491112,0,1,0,0,-0.16,0.08000000000000003,return,0.639094099868089,9,0,-0.16,0.08000000000000003,,,,,,,,,,,,,,,,,,,,,,,,,,,,,,,,,,,,,,,,,,,,,,,,,,,,,,,,X07AFH,train_y,red_square,bottom_left,2025-06-27_15h00.43.384,HideSeek_v1,2022.2.5,59.92161052423131,
,3,3,3,8,0,5,11,,train_dim1_1,5,30,,,,2,0,2,0,,,,,,,,,0,0,0,0,0,4,4,4,0,0,0,0,,,,,,,,,,,,,,,,,,,,,,,,,stimuli/alien_stimuli/11.png,,,,,,,,,,,,,,,,,,,,,,,,,,,,,stimuli/alien_stimuli/12.png,12,0,6,,,,,,,30,,,,,,,,986.8874141999986,986.8874141999986,986.8874141999986,986.8874141999986,986.8874141999986,up,2.586327999830246,0,1,0,99,0.08,-0.08,up,2.475314599927515,,,,,985.3059841999784,986.8874141999986,-0.16,0,0.32,0.0,-0.16,-0.16,-0.16,-0.16,0,972.1635714999866,972.1635714999866,972.1635714999866,972.1635714999866,972.1635714999866,972.1635714999866,972.1635714999866,972.1635714999866,972.1616672599688,13.262855699984357,return,13.114500599913299,,,,,,,,,,,,,,,,,,,,,,,,,,,,,,,,,X07AFH,train_y,red_square,bottom_left,2025-06-27_15h00.43.384,HideSeek_v1,2022.2.5,59.92161052423131,
,3,3,3,8,0,5,11,,train_dim1_1,5,30,,,,2,0,2,0,,,,,,,,,0,0,0,0,0,4,4,4,1,0,1,0,,,,,,,,,,,,,,,,,,,,,,,,,,,,,,,,,,,,,,,,,,,,,,,,,,,,,,,,,,,,,,,,30,,,,,,,,989.4630237999372,989.4630237999372,989.4630237999372,989.4630237999372,989.4630237999372,up,0.4579072999767959,0,1,0,99,0.08,0.0,up,0.3677246000152081,,,,,,,,,,,,,,,,,,,,,,,,,,,,,,,,,,,,,,,,,,,,,,,,,,,,,,,,,,,,X07AFH,train_y,red_square,bottom_left,2025-06-27_15h00.43.384,HideSeek_v1,2022.2.5,59.92161052423131,
,3,3,3,8,0,5,11,,train_dim1_1,5,30,,,,2,0,2,0,,,,,,,,,0,0,0,0,0,4,4,4,2,0,2,0,,,,,,,,,,,,,,,,,,,,,,,,,,,,,,,,,,,,,,,,,,,,,,,,,,,,,,,,,,,,,,,,30,,,,,,,,989.9269441999495,989.9269441999495,989.9269441999495,989.9269441999495,989.9269441999495,up,0.4435431999154389,0,1,0,99,0.08,0.08,up,0.36169059993699193,,,,,,,,,,,,,,,,,,,,,,,,,,,,,,,,,,,,,,,,,,,,,,,,,,,,,,,,,,,,X07AFH,train_y,red_square,bottom_left,2025-06-27_15h00.43.384,HideSeek_v1,2022.2.5,59.92161052423131,
,3,3,3,8,0,5,11,,train_dim1_1,5,30,,,,2,0,2,0,,,,,,,,,0,0,0,0,0,4,4,4,3,0,3,0,,,,,,,,,,,,,,,,,,,,,,,,,,,,,,,,,,,,,,,,,,,,,,,,,,,,,,,,,,,,,,,,30,,,,,,,,990.3804154000245,990.3804154000245,990.3804154000245,990.3804154000245,990.3804154000245,return,0.9247122998349369,0,0,0,0,0.08,0.08,return,0.8471245998516679,12,0,0.08,0.08,,,,,,,,,,,,,,,,,,,,,,,,,,,,,,,,,,,,,,,,,,,,,,,,,,,,,,,,X07AFH,train_y,red_square,bottom_left,2025-06-27_15h00.43.384,HideSeek_v1,2022.2.5,59.92161052423131,
,1,4,1,8,0,4,12,,train_dim1_1,6,30,,,,2,0,2,0,,,,,,,,,0,0,0,0,0,5,5,5,0,0,0,0,,,,,,,,,,,,,,,,,,,,,,,,,stimuli/alien_stimuli/12.png,,,,,,,,,,,,,,,,,,,,,,,,,,,,,stimuli/alien_stimuli/11.png,11,3,7,,,,,,,30,,,,,,,,1001.844665300101,1001.844665300101,1001.844665300101,1001.844665300101,1001.844665300101,up,1.7377333000767976,0,0,0,99,-0.08,0.0,up,1.650696599856019,,,,,1000.285183200147,1001.844665300101,0.08,0.24,0.4,0.0,0.039999999999999994,0.08,0.08,0.08,0.24,992.8840626000892,992.8840626000892,992.8840626000892,992.8840626000892,992.8840626000892,992.8840626000892,992.8840626000892,992.8840626000892,992.8788894599769,7.524876999901608,return,7.3767227998469025,,,,,,,,,,,,,,,,,,,,,,,,,,,,,,,,,X07AFH,train_y,red_square,bottom_left,2025-06-27_15h00.43.384,HideSeek_v1,2022.2.5,59.92161052423131,
,1,4,1,8,0,4,12,,train_dim1_1,6,30,,,,2,0,2,0,,,,,,,,,0,0,0,0,0,5,5,5,1,0,1,0,,,,,,,,,,,,,,,,,,,,,,,,,,,,,,,,,,,,,,,,,,,,,,,,,,,,,,,,,,,,,,,,30,,,,,,,,1003.5884690999519,1003.5884690999519,1003.5884690999519,1003.5884690999519,1003.5884690999519,up,0.40940960007719696,0,0,0,99,-0.08,0.08,up,0.31927770003676414,,,,,,,,,,,,,,,,,,,,,,,,,,,,,,,,,,,,,,,,,,,,,,,,,,,,,,,,,,,,X07AFH,train_y,red_square,bottom_left,2025-06-27_15h00.43.384,HideSeek_v1,2022.2.5,59.92161052423131,
,1,4,1,8,0,4,12,,train_dim1_1,6,30,,,,2,0,2,0,,,,,,,,,0,0,0,0,0,5,5,5,2,0,2,0,,,,,,,,,,,,,,,,,,,,,,,,,,,,,,,,,,,,,,,,,,,,,,,,,,,,,,,,,,,,,,,,30,,,,,,,,1004.0052486001514,1004.0052486001514,1004.0052486001514,1004.0052486001514,1004.0052486001514,up,0.3934001000598073,0,0,0,99,-0.08,0.16,up,0.31334619992412627,,,,,,,,,,,,,,,,,,,,,,,,,,,,,,,,,,,,,,,,,,,,,,,,,,,,,,,,,,,,X07AFH,train_y,red_square,bottom_left,2025-06-27_15h00.43.384,HideSeek_v1,2022.2.5,59.92161052423131,
,1,4,1,8,0,4,12,,train_dim1_1,6,30,,,,2,0,2,0,,,,,,,,,0,0,0,0,0,5,5,5,3,0,3,0,,,,,,,,,,,,,,,,,,,,,,,,,,,,,,,,,,,,,,,,,,,,,,,,,,,,,,,,,,,,,,,,30,,,,,,,,1004.4057553999592,1004.4057553999592,1004.4057553999592,1004.4057553999592,1004.4057553999592,up,0.39341529994271696,0,0,0,99,-0.08,0.24,up,0.30996829993091524,,,,,,,,,,,,,,,,,,,,,,,,,,,,,,,,,,,,,,,,,,,,,,,,,,,,,,,,,,,,X07AFH,train_y,red_square,bottom_left,2025-06-27_15h00.43.384,HideSeek_v1,2022.2.5,59.92161052423131,
,1,4,1,8,0,4,12,,train_dim1_1,6,30,,,,2,0,2,0,,,,,,,,,0,0,0,0,0,5,5,5,4,0,4,0,,,,,,,,,,,,,,,,,,,,,,,,,,,,,,,,,,,,,,,,,,,,,,,,,,,,,,,,,,,,,,,,30,,,,,,,,1004.8059606000315,1004.8059606000315,1004.8059606000315,1004.8059606000315,1004.8059606000315,return,0.6768202998209745,1,0,0,1,-0.08,0.24,return,0.6013340998906642,16,0,-0.08,0.24,,,,,,,,,,,,,,,,,,,,,,,,,,,,,,,,,,,,,,,,,,,,,,,,,,,,,,,,X07AFH,train_y,red_square,bottom_left,2025-06-27_15h00.43.384,HideSeek_v1,2022.2.5,59.92161052423131,
,1,3,1,6,0,3,13,,train_dim1_1,7,30,,,,2,0,2,0,,,,,,,,,0,0,0,0,0,6,6,6,0,0,0,0,,,,,,,,,,,,,,,,,,,,,,,,,stimuli/alien_stimuli/13.png,,,,,,,,,,,,,,,,,,,,,,,,,,,,,stimuli/alien_stimuli/12.png,12,1,8,,,,,,,30,,,,,,,,1013.5215756001417,1013.5215756001417,1013.5215756001417,1013.5215756001417,1013.5215756001417,up,2.5375638001132756,1,0,0,99,-0.08,-0.08,up,2.45517409988679,,,,,1011.9615939001087,1013.5215756001417,-0.08,0.24,0.32,0.0,0.07999999999999999,-0.08,-0.08,-0.08,0.24,1007.0626163000707,1007.0626163000707,1007.0626163000707,1007.0626163000707,1007.0626163000707,1007.0626163000707,1007.0626163000707,1007.0626163000707,1007.057469759928,5.022816100157797,return,4.8821022000629455,,,,,,,,,,,,,,,,,,,,,,,,,,,,,,,,,X07AFH,train_y,red_square,bottom_left,2025-06-27_15h00.43.384,HideSeek_v1,2022.2.5,59.92161052423131,
,1,3,1,6,0,3,13,,train_dim1_1,7,30,,,,2,0,2,0,,,,,,,,,0,0,0,0,0,6,6,6,1,0,1,0,,,,,,,,,,,,,,,,,,,,,,,,,,,,,,,,,,,,,,,,,,,,,,,,,,,,,,,,,,,,,,,,30,,,,,,,,1016.0665454999544,1016.0665454999544,1016.0665454999544,1016.0665454999544,1016.0665454999544,up,0.37533999979496,1,0,0,99,-0.08,0.0,up,0.290860400069505,,,,,,,,,,,,,,,,,,,,,,,,,,,,,,,,,,,,,,,,,,,,,,,,,,,,,,,,,,,,X07AFH,train_y,red_square,bottom_left,2025-06-27_15h00.43.384,HideSeek_v1,2022.2.5,59.92161052423131,
,1,3,1,6,0,3,13,,train_dim1_1,7,30,,,,2,0,2,0,,,,,,,,,0,0,0,0,0,6,6,6,2,0,2,0,,,,,,,,,,,,,,,,,,,,,,,,,,,,,,,,,,,,,,,,,,,,,,,,,,,,,,,,,,,,,,,,30,,,,,,,,1016.4491304999683,1016.4491304999683,1016.4491304999683,1016.4491304999683,1016.4491304999683,up,0.41008609998971224,1,0,0,99,-0.08,0.08,up,0.32578559988178313,,,,,,,,,,,,,,,,,,,,,,,,,,,,,,,,,,,,,,,,,,,,,,,,,,,,,,,,,,,,X07AFH,train_y,red_square,bottom_left,2025-06-27_15h00.43.384,HideSeek_v1,2022.2.5,59.92161052423131,
,1,3,1,6,0,3,13,,train_dim1_1,7,30,,,,2,0,2,0,,,,,,,,,0,0,0,0,0,6,6,6,3,0,3,0,,,,,,,,,,,,,,,,,,,,,,,,,,,,,,,,,,,,,,,,,,,,,,,,,,,,,,,,,,,,,,,,30,,,,,,,,1016.8665106000844,1016.8665106000844,1016.8665106000844,1016.8665106000844,1016.8665106000844,return,0.6433115999680012,2,0,0,1,-0.08,0.08,return,0.5665814999956638,19,0,-0.08,0.08,,,,,,,,,,,,,,,,,,,,,,,,,,,,,,,,,,,,,,,,,,,,,,,,,,,,,,,,X07AFH,train_y,red_square,bottom_left,2025-06-27_15h00.43.384,HideSeek_v1,2022.2.5,59.92161052423131,
,4,2,4,7,0,5,11,,train_dim1_1,8,30,,,,2,0,2,0,,,,,,,,,0,0,0,0,0,7,7,7,0,0,0,0,,,,,,,,,,,,,,,,,,,,,,,,,stimuli/alien_stimuli/11.png,,,,,,,,,,,,,,,,,,,,,,,,,,,,,stimuli/alien_stimuli/13.png,13,1,9,,,,,,,30,,,,,,,,1024.1962739001028,1024.1962739001028,1024.1962739001028,1024.1962739001028,1024.1962739001028,up,2.1880673998966813,2,0,0,99,0.16,-0.15999999999999998,up,2.1022218998987228,,,,,1022.6369996001013,1024.1962739001028,-0.08,0.08,0.24,0.0,-0.04,-0.08,-0.08,-0.08,0.08,1019.0827220999636,1019.0827220999636,1019.0827220999636,1019.0827220999636,1019.0827220999636,1019.0827220999636,1019.0827220999636,1019.0827220999636,1019.0839096599724,3.672058600001037,return,3.5315620999317616,,,,,,,,,,,,,,,,,,,,,,,,,,,,,,,,,X07AFH,train_y,red_square,bottom_left,2025-06-27_15h00.43.384,HideSeek_v1,2022.2.5,59.92161052423131,
,4,2,4,7,0,5,11,,train_dim1_1,8,30,,,,2,0,2,0,,,,,,,,,0,0,0,0,0,7,7,7,1,0,1,0,,,,,,,,,,,,,,,,,,,,,,,,,,,,,,,,,,,,,,,,,,,,,,,,,,,,,,,,,,,,,,,,30,,,,,,,,1026.3907202000264,1026.3907202000264,1026.3907202000264,1026.3907202000264,1026.3907202000264,up,0.392455100081861,2,0,0,99,0.16,-0.07999999999999997,up,0.313861999893561,,,,,,,,,,,,,,,,,,,,,,,,,,,,,,,,,,,,,,,,,,,,,,,,,,,,,,,,,,,,X07AFH,train_y,red_square,bottom_left,2025-06-27_15h00.43.384,HideSeek_v1,2022.2.5,59.92161052423131,
,4,2,4,7,0,5,11,,train_dim1_1,8,30,,,,2,0,2,0,,,,,,,,,0,0,0,0,0,7,7,7,2,0,2,0,,,,,,,,,,,,,,,,,,,,,,,,,,,,,,,,,,,,,,,,,,,,,,,,,,,,,,,,,,,,,,,,30,,,,,,,,1026.7909814000595,1026.7909814000595,1026.7909814000595,1026.7909814000595,1026.7909814000595,up,0.4269019002094865,2,0,0,99,0.16,2.7755575615628914e-17,up,0.3414129999000579,,,,,,,,,,,,,,,,,,,,,,,,,,,,,,,,,,,,,,,,,,,,,,,,,,,,,,,,,,,,X07AFH,train_y,red_square,bottom_left,2025-06-27_15h00.43.384,HideSeek_v1,2022.2.5,59.92161052423131,
,4,2,4,7,0,5,11,,train_dim1_1,8,30,,,,2,0,2,0,,,,,,,,,0,0,0,0,0,7,7,7,3,0,3,0,,,,,,,,,,,,,,,,,,,,,,,,,,,,,,,,,,,,,,,,,,,,,,,,,,,,,,,,,,,,,,,,30,,,,,,,,1027.2245386000723,1027.2245386000723,1027.2245386000723,1027.2245386000723,1027.2245386000723,up,0.9771736999973655,2,0,0,99,0.16,0.08000000000000003,up,0.8878744998946786,,,,,,,,,,,,,,,,,,,,,,,,,,,,,,,,,,,,,,,,,,,,,,,,,,,,,,,,,,,,X07AFH,train_y,red_square,bottom_left,2025-06-27_15h00.43.384,HideSeek_v1,2022.2.5,59.92161052423131,
,4,2,4,7,0,5,11,,train_dim1_1,8,30,,,,2,0,2,0,,,,,,,,,0,0,0,0,0,7,7,7,4,0,4,0,,,,,,,,,,,,,,,,,,,,,,,,,,,,,,,,,,,,,,,,,,,,,,,,,,,,,,,,,,,,,,,,30,,,,,,,,1028.2088377000764,1028.2088377000764,1028.2088377000764,1028.2088377000764,1028.2088377000764,return,0.4932552999816835,2,1,0,0,0.16,0.08000000000000003,return,0.41551660001277924,23,0,0.16,0.08000000000000003,,,,,,,,,,,,,,,,,,,,,,,,,,,,,,,,,,,,,,,,,,,,,,,,,,,,,,,,X07AFH,train_y,red_square,bottom_left,2025-06-27_15h00.43.384,HideSeek_v1,2022.2.5,59.92161052423131,
,4,3,4,4,0,1,15,,train_dim1_1,9,30,,,,2,0,2,0,,,,,,,,,0,0,0,0,0,8,8,8,0,0,0,0,,,,,,,,,,,,,,,,,,,,,,,,,stimuli/alien_stimuli/15.png,,,,,,,,,,,,,,,,,,,,,,,,,,,,,stimuli/alien_stimuli/11.png,11,4,10,,,,,,,30,,,,,,,,1034.5921851000749,1034.5921851000749,1034.5921851000749,1034.5921851000749,1034.5921851000749,return,3.0863324999809265,2,1,0,0,0.16,-0.16,return,2.991783899953589,23,0,0.16,-0.16,1033.029031299986,1034.5921851000749,0.16,0.16,0.4,0.0,-0.039999999999999994,0.16,0.16,0.16,0.16,1030.2779002001043,1030.2779002001043,1030.2779002001043,1030.2779002001043,1030.2779002001043,1030.2779002001043,1030.2779002001043,1030.2779002001043,1030.276630459912,2.870815800037235,return,2.727926099905744,,,,,,,,,,,,,,,,,,,,,,,,,,,,,,,,,X07AFH,train_y,red_square,bottom_left,2025-06-27_15h00.43.384,HideSeek_v1,2022.2.5,59.92161052423131,
,2,2,2,2,0,0,16,,train_dim1_1,10,30,,,,2,0,2,0,,,,,,,,,0,0,0,0,0,9,9,9,0,0,0,0,,,,,,,,,,,,,,,,,,,,,,,,,stimuli/alien_stimuli/16.png,,,,,,,,,,,,,,,,,,,,,,,,,,,,,stimuli/alien_stimuli/15.png,15,4,11,,,,,,,30,,,,,,,,1044.7488987999968,1044.7488987999968,1044.7488987999968,1044.7488987999968,1044.7488987999968,up,1.7696811999194324,2,1,0,99,0,-0.15999999999999998,up,1.685253599891439,,,,,1043.1873804000206,1044.7488987999968,0.16,-0.08,0.08,0.0,-0.12,0.16,0.16,0.16,-0.08,1039.2572437000927,1039.2572437000927,1039.2572437000927,1039.2572437000927,1039.2572437000927,1039.2572437000927,1039.2572437000927,1039.2572437000927,1039.2506869599222,4.055211100028828,return,3.898569599725306,,,,,,,,,,,,,,,,,,,,,,,,,,,,,,,,,X07AFH,train_y,red_square,bottom_left,2025-06-27_15h00.43.384,HideSeek_v1,2022.2.5,59.92161052423131,
,2,2,2,2,0,0,16,,train_dim1_1,10,30,,,,2,0,2,0,,,,,,,,,0,0,0,0,0,9,9,9,1,0,1,0,,,,,,,,,,,,,,,,,,,,,,,,,,,,,,,,,,,,,,,,,,,,,,,,,,,,,,,,,,,,,,,,30,,,,,,,,1046.5246379999444,1046.5246379999444,1046.5246379999444,1046.5246379999444,1046.5246379999444,up,0.309214600129053,2,1,0,99,0,-0.07999999999999997,up,0.22365259984508157,,,,,,,,,,,,,,,,,,,,,,,,,,,,,,,,,,,,,,,,,,,,,,,,,,,,,,,,,,,,X07AFH,train_y,red_square,bottom_left,2025-06-27_15h00.43.384,HideSeek_v1,2022.2.5,59.92161052423131,
,2,2,2,2,0,0,16,,train_dim1_1,10,30,,,,2,0,2,0,,,,,,,,,0,0,0,0,0,9,9,9,2,0,2,0,,,,,,,,,,,,,,,,,,,,,,,,,,,,,,,,,,,,,,,,,,,,,,,,,,,,,,,,,,,,,,,,30,,,,,,,,1046.8412131001242,1046.8412131001242,1046.8412131001242,1046.8412131001242,1046.8412131001242,return,0.6435186001472175,2,0,0,0,0,-0.07999999999999997,return,0.5535342998337001,25,0,0,-0.07999999999999997,,,,,,,,,,,,,,,,,,,,,,,,,,,,,,,,,,,,,,,,,,,,,,,,,,,,,,,,X07AFH,train_y,red_square,bottom_left,2025-06-27_15h00.43.384,HideSeek_v1,2022.2.5,59.92161052423131,
,4,1,4,2,0,1,15,,train_dim1_1,11,30,,,,2,0,2,0,,,,,,,,,0,0,0,0,0,10,10,10,0,0,0,0,,,,,,,,,,,,,,,,,,,,,,,,,stimuli/alien_stimuli/15.png,,,,,,,,,,,,,,,,,,,,,,,,,,,,,stimuli/alien_stimuli/16.png,16,2,12,,,,,,,30,,,,,,,,1052.9557145000435,1052.9557145000435,1052.9557145000435,1052.9557145000435,1052.9557145000435,up,2.519174999790266,2,0,0,99,0.16,-0.24,up,2.4381462996825576,,,,,1051.3942367001437,1052.9557145000435,0,-0.24,0.0,0.0,-0.24,0,0.0,0,-0.24,1049.0419292999431,1049.0419292999431,1049.0419292999431,1049.0419292999431,1049.0419292999431,1049.0419292999431,1049.0419292999431,1049.0419292999431,1049.0420075400266,2.4541303999722004,return,2.3291078999172896,,,,,,,,,,,,,,,,,,,,,,,,,,,,,,,,,X07AFH,train_y,red_square,bottom_left,2025-06-27_15h00.43.384,HideSeek_v1,2022.2.5,59.92161052423131,
,4,1,4,2,0,1,15,,train_dim1_1,11,30,,,,2,0,2,0,,,,,,,,,0,0,0,0,0,10,10,10,1,0,1,0,,,,,,,,,,,,,,,,,,,,,,,,,,,,,,,,,,,,,,,,,,,,,,,,,,,,,,,,,,,,,,,,30,,,,,,,,1055.4840702000074,1055.4840702000074,1055.4840702000074,1055.4840702000074,1055.4840702000074,return,0.45779290003702044,3,0,0,1,0.16,-0.24,return,0.37098689982667565,26,0,0.16,-0.24,,,,,,,,,,,,,,,,,,,,,,,,,,,,,,,,,,,,,,,,,,,,,,,,,,,,,,,,X07AFH,train_y,red_square,bottom_left,2025-06-27_15h00.43.384,HideSeek_v1,2022.2.5,59.92161052423131,
,0,0,0,5,0,5,11,,train_dim1_1,12,30,,,,2,0,2,0,,,,,,,,,0,0,0,0,0,11,11,11,0,0,0,0,,,,,,,,,,,,,,,,,,,,,,,,,stimuli/alien_stimuli/11.png,,,,,,,,,,,,,,,,,,,,,,,,,,,,,stimuli/alien_stimuli/15.png,15,4,13,,,,,,,30,,,,,,,,1060.930848200107,1060.930848200107,1060.930848200107,1060.930848200107,1060.930848200107,up,2.8681524000130594,3,0,0,99,-0.16,-0.32,up,2.7788574998266995,,,,,1059.3676140001044,1060.930848200107,0.16,-0.24,0.08,0.0,-0.28,0.16,0.16,0.16,-0.24,1057.5169426000211,1057.5169426000211,1057.5169426000211,1057.5169426000211,1057.5169426000211,1057.5169426000211,1057.5169426000211,1057.5169426000211,1057.5159872598945,1.9700569999404252,return,1.823751199990511,,,,,,,,,,,,,,,,,,,,,,,,,,,,,,,,,X07AFH,train_y,red_square,bottom_left,2025-06-27_15h00.43.384,HideSeek_v1,2022.2.5,59.92161052423131,
,0,0,0,5,0,5,11,,train_dim1_1,12,30,,,,2,0,2,0,,,,,,,,,0,0,0,0,0,11,11,11,1,0,1,0,,,,,,,,,,,,,,,,,,,,,,,,,,,,,,,,,,,,,,,,,,,,,,,,,,,,,,,,,,,,,,,,30,,,,,,,,1063.80593329994,1063.80593329994,1063.80593329994,1063.80593329994,1063.80593329994,up,0.32631939998827875,3,0,0,99,-0.16,-0.24,up,0.23680799966678023,,,,,,,,,,,,,,,,,,,,,,,,,,,,,,,,,,,,,,,,,,,,,,,,,,,,,,,,,,,,X07AFH,train_y,red_square,bottom_left,2025-06-27_15h00.43.384,HideSeek_v1,2022.2.5,59.92161052423131,
,0,0,0,5,0,5,11,,train_dim1_1,12,30,,,,2,0,2,0,,,,,,,,,0,0,0,0,0,11,11,11,2,0,2,0,,,,,,,,,,,,,,,,,,,,,,,,,,,,,,,,,,,,,,,,,,,,,,,,,,,,,,,,,,,,,,,,30,,,,,,,,1064.1393021999393,1064.1393021999393,1064.1393021999393,1064.1393021999393,1064.1393021999393,up,0.25960029987618327,3,0,0,99,-0.16,-0.15999999999999998,up,0.17309479974210262,,,,,,,,,,,,,,,,,,,,,,,,,,,,,,,,,,,,,,,,,,,,,,,,,,,,,,,,,,,,X07AFH,train_y,red_square,bottom_left,2025-06-27_15h00.43.384,HideSeek_v1,2022.2.5,59.92161052423131,
,0,0,0,5,0,5,11,,train_dim1_1,12,30,,,,2,0,2,0,,,,,,,,,0,0,0,0,0,11,11,11,3,0,3,0,,,,,,,,,,,,,,,,,,,,,,,,,,,,,,,,,,,,,,,,,,,,,,,,,,,,,,,,,,,,,,,,30,,,,,,,,1064.4050730001181,1064.4050730001181,1064.4050730001181,1064.4050730001181,1064.4050730001181,up,0.293405800126493,3,0,0,99,-0.16,-0.07999999999999997,up,0.2016744997818023,,,,,,,,,,,,,,,,,,,,,,,,,,,,,,,,,,,,,,,,,,,,,,,,,,,,,,,,,,,,X07AFH,train_y,red_square,bottom_left,2025-06-27_15h00.43.384,HideSeek_v1,2022.2.5,59.92161052423131,
,0,0,0,5,0,5,11,,train_dim1_1,12,30,,,,2,0,2,0,,,,,,,,,0,0,0,0,0,11,11,11,4,0,4,0,,,,,,,,,,,,,,,,,,,,,,,,,,,,,,,,,,,,,,,,,,,,,,,,,,,,,,,,,,,,,,,,30,,,,,,,,1064.7063134000637,1064.7063134000637,1064.7063134000637,1064.7063134000637,1064.7063134000637,up,0.30973679991438985,3,0,0,99,-0.16,2.7755575615628914e-17,up,0.2315836998168379,,,,,,,,,,,,,,,,,,,,,,,,,,,,,,,,,,,,,,,,,,,,,,,,,,,,,,,,,,,,X07AFH,train_y,red_square,bottom_left,2025-06-27_15h00.43.384,HideSeek_v1,2022.2.5,59.92161052423131,
,0,0,0,5,0,5,11,,train_dim1_1,12,30,,,,2,0,2,0,,,,,,,,,0,0,0,0,0,11,11,11,5,0,5,0,,,,,,,,,,,,,,,,,,,,,,,,,,,,,,,,,,,,,,,,,,,,,,,,,,,,,,,,,,,,,,,,30,,,,,,,,1065.0222163000144,1065.0222163000144,1065.0222163000144,1065.0222163000144,1065.0222163000144,return,0.5267541999928653,4,0,0,1,-0.16,2.7755575615628914e-17,return,0.44975199992768466,31,0,-0.16,2.7755575615628914e-17,,,,,,,,,,,,,,,,,,,,,,,,,,,,,,,,,,,,,,,,,,,,,,,,,,,,,,,,X07AFH,train_y,red_square,bottom_left,2025-06-27_15h00.43.384,HideSeek_v1,2022.2.5,59.92161052423131,
,4,3,4,7,0,4,12,,train_dim1_1,13,30,,,,2,0,2,0,,,,,,,,,0,0,0,0,0,12,12,12,0,0,0,0,,,,,,,,,,,,,,,,,,,,,,,,,stimuli/alien_stimuli/12.png,,,,,,,,,,,,,,,,,,,,,,,,,,,,,stimuli/alien_stimuli/11.png,11,0,14,,,,,,,30,,,,,,,,1070.020590600092,1070.020590600092,1070.020590600092,1070.020590600092,1070.020590600092,up,1.9017545999959111,4,0,0,99,0.16,-0.08,up,1.8220617999322712,,,,,1068.4582885999698,1070.020590600092,-0.16,0,0.4,0.0,-0.2,-0.16,-0.16,-0.16,0,1067.1251940999646,1067.1251940999646,1067.1251940999646,1067.1251940999646,1067.1251940999646,1067.1251940999646,1067.1251940999646,1067.1251940999646,1067.123764759954,1.4531487999483943,return,1.3087426000274718,,,,,,,,,,,,,,,,,,,,,,,,,,,,,,,,,X07AFH,train_y,red_square,bottom_left,2025-06-27_15h00.43.384,HideSeek_v1,2022.2.5,59.92161052423131,
,4,3,4,7,0,4,12,,train_dim1_1,13,30,,,,2,0,2,0,,,,,,,,,0,0,0,0,0,12,12,12,1,0,1,0,,,,,,,,,,,,,,,,,,,,,,,,,,,,,,,,,,,,,,,,,,,,,,,,,,,,,,,,,,,,,,,,30,,,,,,,,1071.9307891000062,1071.9307891000062,1071.9307891000062,1071.9307891000062,1071.9307891000062,up,0.2921360000036657,4,0,0,99,0.16,0.0,up,0.20940339984372258,,,,,,,,,,,,,,,,,,,,,,,,,,,,,,,,,,,,,,,,,,,,,,,,,,,,,,,,,,,,X07AFH,train_y,red_square,bottom_left,2025-06-27_15h00.43.384,HideSeek_v1,2022.2.5,59.92161052423131,
,4,3,4,7,0,4,12,,train_dim1_1,13,30,,,,2,0,2,0,,,,,,,,,0,0,0,0,0,12,12,12,2,0,2,0,,,,,,,,,,,,,,,,,,,,,,,,,,,,,,,,,,,,,,,,,,,,,,,,,,,,,,,,,,,,,,,,30,,,,,,,,1072.2361034001224,1072.2361034001224,1072.2361034001224,1072.2361034001224,1072.2361034001224,up,0.28633969998918474,4,0,0,99,0.16,0.08,up,0.20918479980900884,,,,,,,,,,,,,,,,,,,,,,,,,,,,,,,,,,,,,,,,,,,,,,,,,,,,,,,,,,,,X07AFH,train_y,red_square,bottom_left,2025-06-27_15h00.43.384,HideSeek_v1,2022.2.5,59.92161052423131,
,4,3,4,7,0,4,12,,train_dim1_1,13,30,,,,2,0,2,0,,,,,,,,,0,0,0,0,0,12,12,12,3,0,3,0,,,,,,,,,,,,,,,,,,,,,,,,,,,,,,,,,,,,,,,,,,,,,,,,,,,,,,,,,,,,,,,,30,,,,,,,,1072.5287790000439,1072.5287790000439,1072.5287790000439,1072.5287790000439,1072.5287790000439,up,0.9605870000086725,4,0,0,99,0.16,0.16,up,0.8728116999845952,,,,,,,,,,,,,,,,,,,,,,,,,,,,,,,,,,,,,,,,,,,,,,,,,,,,,,,,,,,,X07AFH,train_y,red_square,bottom_left,2025-06-27_15h00.43.384,HideSeek_v1,2022.2.5,59.92161052423131,
,4,3,4,7,0,4,12,,train_dim1_1,13,30,,,,2,0,2,0,,,,,,,,,0,0,0,0,0,12,12,12,4,0,4,0,,,,,,,,,,,,,,,,,,,,,,,,,,,,,,,,,,,,,,,,,,,,,,,,,,,,,,,,,,,,,,,,30,,,,,,,,1073.4964189000893,1073.4964189000893,1073.4964189000893,1073.4964189000893,1073.4964189000893,up,0.3934155001770705,4,0,0,99,0.16,0.24,up,0.3081217997241765,,,,,,,,,,,,,,,,,,,,,,,,,,,,,,,,,,,,,,,,,,,,,,,,,,,,,,,,,,,,X07AFH,train_y,red_square,bottom_left,2025-06-27_15h00.43.384,HideSeek_v1,2022.2.5,59.92161052423131,
,4,3,4,7,0,4,12,,train_dim1_1,13,30,,,,2,0,2,0,,,,,,,,,0,0,0,0,0,12,12,12,5,0,5,0,,,,,,,,,,,,,,,,,,,,,,,,,,,,,,,,,,,,,,,,,,,,,,,,,,,,,,,,,,,,,,,,30,,,,,,,,1073.8982728000265,1073.8982728000265,1073.8982728000265,1073.8982728000265,1073.8982728000265,return,0.6263627998996526,4,1,0,0,0.16,0.24,return,0.5488004998769611,36,0,0.16,0.24,,,,,,,,,,,,,,,,,,,,,,,,,,,,,,,,,,,,,,,,,,,,,,,,,,,,,,,,X07AFH,train_y,red_square,bottom_left,2025-06-27_15h00.43.384,HideSeek_v1,2022.2.5,59.92161052423131,
,2,2,2,2,0,0,16,,train_dim1_1,14,30,,,,2,0,2,0,,,,,,,,,0,0,0,0,0,13,13,13,0,0,0,0,,,,,,,,,,,,,,,,,,,,,,,,,stimuli/alien_stimuli/16.png,,,,,,,,,,,,,,,,,,,,,,,,,,,,,stimuli/alien_stimuli/12.png,12,4,15,,,,,,,30,,,,,,,,1079.2262844999786,1079.2262844999786,1079.2262844999786,1079.2262844999786,1079.2262844999786,up,1.5189330000430346,4,1,0,99,0,-0.15999999999999998,up,1.4410592999774963,,,,,1077.6660265000537,1079.2262844999786,0.16,0.16,0.32,0.0,0.0,0.16,0.16,0.16,0.16,1076.087971900124,1076.087971900124,1076.087971900124,1076.087971900124,1076.087971900124,1076.087971900124,1076.087971900124,1076.087971900124,1076.0812510400078,1.686770400032401,return,1.557407199870795,,,,,,,,,,,,,,,,,,,,,,,,,,,,,,,,,X07AFH,train_y,red_square,bottom_left,2025-06-27_15h00.43.384,HideSeek_v1,2022.2.5,59.92161052423131,
,2,2,2,2,0,0,16,,train_dim1_1,14,30,,,,2,0,2,0,,,,,,,,,0,0,0,0,0,13,13,13,1,0,1,0,,,,,,,,,,,,,,,,,,,,,,,,,,,,,,,,,,,,,,,,,,,,,,,,,,,,,,,,,,,,,,,,30,,,,,,,,1080.7523440001532,1080.7523440001532,1080.7523440001532,1080.7523440001532,1080.7523440001532,up,0.40960419992916286,4,1,0,99,0,-0.07999999999999997,up,0.32261390006169677,,,,,,,,,,,,,,,,,,,,,,,,,,,,,,,,,,,,,,,,,,,,,,,,,,,,,,,,,,,,X07AFH,train_y,red_square,bottom_left,2025-06-27_15h00.43.384,HideSeek_v1,2022.2.5,59.92161052423131,
,2,2,2,2,0,0,16,,train_dim1_1,14,30,,,,2,0,2,0,,,,,,,,,0,0,0,0,0,13,13,13,2,0,2,0,,,,,,,,,,,,,,,,,,,,,,,,,,,,,,,,,,,,,,,,,,,,,,,,,,,,,,,,,,,,,,,,30,,,,,,,,1081.1699864000548,1081.1699864000548,1081.1699864000548,1081.1699864000548,1081.1699864000548,down,1.8112533001694828,4,1,0,99,0,-0.15999999999999998,down,1.7238103998824954,,,,,,,,,,,,,,,,,,,,,,,,,,,,,,,,,,,,,,,,,,,,,,,,,,,,,,,,,,,,X07AFH,train_y,red_square,bottom_left,2025-06-27_15h00.43.384,HideSeek_v1,2022.2.5,59.92161052423131,
,2,2,2,2,0,0,16,,train_dim1_1,14,30,,,,2,0,2,0,,,,,,,,,0,0,0,0,0,13,13,13,3,0,3,0,,,,,,,,,,,,,,,,,,,,,,,,,,,,,,,,,,,,,,,,,,,,,,,,,,,,,,,,,,,,,,,,30,,,,,,,,1082.9891381999478,1082.9891381999478,1082.9891381999478,1082.9891381999478,1082.9891381999478,down,0.30914010014384985,4,1,0,99,0,-0.24,down,0.22929869988001883,,,,,,,,,,,,,,,,,,,,,,,,,,,,,,,,,,,,,,,,,,,,,,,,,,,,,,,,,,,,X07AFH,train_y,red_square,bottom_left,2025-06-27_15h00.43.384,HideSeek_v1,2022.2.5,59.92161052423131,
,2,2,2,2,0,0,16,,train_dim1_1,14,30,,,,2,0,2,0,,,,,,,,,0,0,0,0,0,13,13,13,4,0,4,0,,,,,,,,,,,,,,,,,,,,,,,,,,,,,,,,,,,,,,,,,,,,,,,,,,,,,,,,,,,,,,,,30,,,,,,,,1083.3053202000447,1083.3053202000447,1083.3053202000447,1083.3053202000447,1083.3053202000447,return,0.4762466000393033,5,0,0,1,0,-0.24,return,0.3871168999467045,36,0,0,-0.24,,,,,,,,,,,,,,,,,,,,,,,,,,,,,,,,,,,,,,,,,,,,,,,,,,,,,,,,X07AFH,train_y,red_square,bottom_left,2025-06-27_15h00.43.384,HideSeek_v1,2022.2.5,59.92161052423131,
,1,4,1,7,0,3,13,,train_dim1_1,15,30,,,,2,0,2,0,,,,,,,,,0,0,0,0,0,14,14,14,0,0,0,0,,,,,,,,,,,,,,,,,,,,,,,,,stimuli/alien_stimuli/13.png,,,,,,,,,,,,,,,,,,,,,,,,,,,,,stimuli/alien_stimuli/16.png,16,2,16,,,,,,,30,,,,,,,,1088.7826318999287,1088.7826318999287,1088.7826318999287,1088.7826318999287,1088.7826318999287,up,1.8368299000430852,5,0,0,99,-0.08,0.0,up,1.747686999849975,,,,,1087.223796900129,1088.7826318999287,0,-0.24,0.0,0.0,-0.24,0,0.0,0,-0.24,1085.3393105000723,1085.3393105000723,1085.3393105000723,1085.3393105000723,1085.3393105000723,1085.3393105000723,1085.3393105000723,1085.3393105000723,1085.3388343398924,1.9870138999540359,return,1.86083779996261,,,,,,,,,,,,,,,,,,,,,,,,,,,,,,,,,X07AFH,train_y,red_square,bottom_left,2025-06-27_15h00.43.384,HideSeek_v1,2022.2.5,59.92161052423131,
,1,4,1,7,0,3,13,,train_dim1_1,15,30,,,,2,0,2,0,,,,,,,,,0,0,0,0,0,14,14,14,1,0,1,0,,,,,,,,,,,,,,,,,,,,,,,,,,,,,,,,,,,,,,,,,,,,,,,,,,,,,,,,,,,,,,,,30,,,,,,,,1090.627431300003,1090.627431300003,1090.627431300003,1090.627431300003,1090.627431300003,up,0.8094069000799209,5,0,0,99,-0.08,0.08,up,0.7186463000252843,,,,,,,,,,,,,,,,,,,,,,,,,,,,,,,,,,,,,,,,,,,,,,,,,,,,,,,,,,,,X07AFH,train_y,red_square,bottom_left,2025-06-27_15h00.43.384,HideSeek_v1,2022.2.5,59.92161052423131,
,1,4,1,7,0,3,13,,train_dim1_1,15,30,,,,2,0,2,0,,,,,,,,,0,0,0,0,0,14,14,14,2,0,2,0,,,,,,,,,,,,,,,,,,,,,,,,,,,,,,,,,,,,,,,,,,,,,,,,,,,,,,,,,,,,,,,,30,,,,,,,,1091.4450159000698,1091.4450159000698,1091.4450159000698,1091.4450159000698,1091.4450159000698,up,0.4596603000536561,5,0,0,99,-0.08,0.16,up,0.37879829993471503,,,,,,,,,,,,,,,,,,,,,,,,,,,,,,,,,,,,,,,,,,,,,,,,,,,,,,,,,,,,X07AFH,train_y,red_square,bottom_left,2025-06-27_15h00.43.384,HideSeek_v1,2022.2.5,59.92161052423131,
,1,4,1,7,0,3,13,,train_dim1_1,15,30,,,,2,0,2,0,,,,,,,,,0,0,0,0,0,14,14,14,3,0,3,0,,,,,,,,,,,,,,,,,,,,,,,,,,,,,,,,,,,,,,,,,,,,,,,,,,,,,,,,,,,,,,,,30,,,,,,,,1091.9104212000966,1091.9104212000966,1091.9104212000966,1091.9104212000966,1091.9104212000966,return,0.9939071999397129,6,0,0,1,-0.08,0.16,return,0.914024599827826,39,0,-0.08,0.16,,,,,,,,,,,,,,,,,,,,,,,,,,,,,,,,,,,,,,,,,,,,,,,,,,,,,,,,X07AFH,train_y,red_square,bottom_left,2025-06-27_15h00.43.384,HideSeek_v1,2022.2.5,59.92161052423131,
,4,0,4,1,0,1,15,,train_dim1_1,16,30,,,,2,0,2,0,,,,,,,,,0,0,0,0,0,15,15,15,0,0,0,0,,,,,,,,,,,,,,,,,,,,,,,,,stimuli/alien_stimuli/15.png,,,,,,,,,,,,,,,,,,,,,,,,,,,,,stimuli/alien_stimuli/13.png,13,1,17,,,,,,,30,,,,,,,,1097.3917388999835,1097.3917388999835,1097.3917388999835,1097.3917388999835,1097.3917388999835,up,1.418644200079143,6,0,0,99,0.16,-0.32,up,1.33007250004448,,,,,1095.8310772001278,1097.3917388999835,-0.08,0.16,0.24,0.0,0.04,-0.08,-0.08,-0.08,0.16,1094.4650880000554,1094.4650880000554,1094.4650880000554,1094.4650880000554,1094.4650880000554,1094.4650880000554,1094.4650880000554,1094.4650880000554,1094.463277340075,1.4698717999272048,return,1.340537899872288,,,,,,,,,,,,,,,,,,,,,,,,,,,,,,,,,X07AFH,train_y,red_square,bottom_left,2025-06-27_15h00.43.384,HideSeek_v1,2022.2.5,59.92161052423131,
,4,0,4,1,0,1,15,,train_dim1_1,16,30,,,,2,0,2,0,,,,,,,,,0,0,0,0,0,15,15,15,1,0,1,0,,,,,,,,,,,,,,,,,,,,,,,,,,,,,,,,,,,,,,,,,,,,,,,,,,,,,,,,,,,,,,,,30,,,,,,,,1098.819950700039,1098.819950700039,1098.819950700039,1098.819950700039,1098.819950700039,up,0.4251223001629114,6,0,0,99,0.16,-0.24,up,0.34487529983744025,,,,,,,,,,,,,,,,,,,,,,,,,,,,,,,,,,,,,,,,,,,,,,,,,,,,,,,,,,,,X07AFH,train_y,red_square,bottom_left,2025-06-27_15h00.43.384,HideSeek_v1,2022.2.5,59.92161052423131,
,4,0,4,1,0,1,15,,train_dim1_1,16,30,,,,2,0,2,0,,,,,,,,,0,0,0,0,0,15,15,15,2,0,2,0,,,,,,,,,,,,,,,,,,,,,,,,,,,,,,,,,,,,,,,,,,,,,,,,,,,,,,,,,,,,,,,,30,,,,,,,,1099.2511247000657,1099.2511247000657,1099.2511247000657,1099.2511247000657,1099.2511247000657,up,0.360061899991706,6,0,0,99,0.16,-0.15999999999999998,up,0.2790680998004973,,,,,,,,,,,,,,,,,,,,,,,,,,,,,,,,,,,,,,,,,,,,,,,,,,,,,,,,,,,,X07AFH,train_y,red_square,bottom_left,2025-06-27_15h00.43.384,HideSeek_v1,2022.2.5,59.92161052423131,
,4,0,4,1,0,1,15,,train_dim1_1,16,30,,,,2,0,2,0,,,,,,,,,0,0,0,0,0,15,15,15,3,0,3,0,,,,,,,,,,,,,,,,,,,,,,,,,,,,,,,,,,,,,,,,,,,,,,,,,,,,,,,,,,,,,,,,30,,,,,,,,1099.618379499996,1099.618379499996,1099.618379499996,1099.618379499996,1099.618379499996,up,0.3933535001706332,6,0,0,99,0.16,-0.07999999999999997,up,0.3158682999201119,,,,,,,,,,,,,,,,,,,,,,,,,,,,,,,,,,,,,,,,,,,,,,,,,,,,,,,,,,,,X07AFH,train_y,red_square,bottom_left,2025-06-27_15h00.43.384,HideSeek_v1,2022.2.5,59.92161052423131,
,4,0,4,1,0,1,15,,train_dim1_1,16,30,,,,2,0,2,0,,,,,,,,,0,0,0,0,0,15,15,15,4,0,4,0,,,,,,,,,,,,,,,,,,,,,,,,,,,,,,,,,,,,,,,,,,,,,,,,,,,,,,,,,,,,,,,,30,,,,,,,,1100.018546400126,1100.018546400126,1100.018546400126,1100.018546400126,1100.018546400126,up,0.4103848000522703,6,0,0,99,0.16,2.7755575615628914e-17,up,0.32356829987838864,,,,,,,,,,,,,,,,,,,,,,,,,,,,,,,,,,,,,,,,,,,,,,,,,,,,,,,,,,,,X07AFH,train_y,red_square,bottom_left,2025-06-27_15h00.43.384,HideSeek_v1,2022.2.5,59.92161052423131,
,4,0,4,1,0,1,15,,train_dim1_1,16,30,,,,2,0,2,0,,,,,,,,,0,0,0,0,0,15,15,15,5,0,5,0,,,,,,,,,,,,,,,,,,,,,,,,,,,,,,,,,,,,,,,,,,,,,,,,,,,,,,,,,,,,,,,,30,,,,,,,,1100.4363568001427,1100.4363568001427,1100.4363568001427,1100.4363568001427,1100.4363568001427,return,0.6267671000678092,6,0,0,0,0.16,2.7755575615628914e-17,return,0.5409782999195158,44,0,0.16,2.7755575615628914e-17,,,,,,,,,,,,,,,,,,,,,,,,,,,,,,,,,,,,,,,,,,,,,,,,,,,,,,,,X07AFH,train_y,red_square,bottom_left,2025-06-27_15h00.43.384,HideSeek_v1,2022.2.5,59.92161052423131,
,3,3,3,6,0,3,13,,train_dim1_1,17,30,,,,2,0,2,0,,,,,,,,,0,0,0,0,0,16,16,16,0,0,0,0,,,,,,,,,,,,,,,,,,,,,,,,,stimuli/alien_stimuli/13.png,,,,,,,,,,,,,,,,,,,,,,,,,,,,,stimuli/alien_stimuli/15.png,15,4,18,,,,,,,30,,,,,,,,1106.445552200079,1106.445552200079,1106.445552200079,1106.445552200079,1106.445552200079,up,1.405153000028804,6,0,0,99,0.08,-0.08,up,1.3285980999935418,,,,,1104.8884517000988,1106.445552200079,0.16,-0.32,0.08,0.0,-0.36,0.16,0.16,0.16,-0.32,1102.6171498999465,1102.6171498999465,1102.6171498999465,1102.6171498999465,1102.6171498999465,1102.6171498999465,1102.6171498999465,1102.6171498999465,1102.6032258199527,2.3706591001246125,return,2.2461934997700155,,,,,,,,,,,,,,,,,,,,,,,,,,,,,,,,,X07AFH,train_y,red_square,bottom_left,2025-06-27_15h00.43.384,HideSeek_v1,2022.2.5,59.92161052423131,
,3,3,3,6,0,3,13,,train_dim1_1,17,30,,,,2,0,2,0,,,,,,,,,0,0,0,0,0,16,16,16,1,0,1,0,,,,,,,,,,,,,,,,,,,,,,,,,,,,,,,,,,,,,,,,,,,,,,,,,,,,,,,,,,,,,,,,30,,,,,,,,1107.85908500012,1107.85908500012,1107.85908500012,1107.85908500012,1107.85908500012,up,0.3757196001242846,6,0,0,99,0.08,0.0,up,0.29188659973442554,,,,,,,,,,,,,,,,,,,,,,,,,,,,,,,,,,,,,,,,,,,,,,,,,,,,,,,,,,,,X07AFH,train_y,red_square,bottom_left,2025-06-27_15h00.43.384,HideSeek_v1,2022.2.5,59.92161052423131,
,3,3,3,6,0,3,13,,train_dim1_1,17,30,,,,2,0,2,0,,,,,,,,,0,0,0,0,0,16,16,16,2,0,2,0,,,,,,,,,,,,,,,,,,,,,,,,,,,,,,,,,,,,,,,,,,,,,,,,,,,,,,,,,,,,,,,,30,,,,,,,,1108.242087499937,1108.242087499937,1108.242087499937,1108.242087499937,1108.242087499937,up,0.3926995999645442,6,0,0,99,0.08,0.08,up,0.30099179968237877,,,,,,,,,,,,,,,,,,,,,,,,,,,,,,,,,,,,,,,,,,,,,,,,,,,,,,,,,,,,X07AFH,train_y,red_square,bottom_left,2025-06-27_15h00.43.384,HideSeek_v1,2022.2.5,59.92161052423131,
,3,3,3,6,0,3,13,,train_dim1_1,17,30,,,,2,0,2,0,,,,,,,,,0,0,0,0,0,16,16,16,3,0,3,0,,,,,,,,,,,,,,,,,,,,,,,,,,,,,,,,,,,,,,,,,,,,,,,,,,,,,,,,,,,,,,,,30,,,,,,,,1108.6450277999975,1108.6450277999975,1108.6450277999975,1108.6450277999975,1108.6450277999975,return,0.493161000078544,7,0,0,1,0.08,0.08,return,0.3986436997074634,47,0,0.08,0.08,,,,,,,,,,,,,,,,,,,,,,,,,,,,,,,,,,,,,,,,,,,,,,,,,,,,,,,,X07AFH,train_y,red_square,bottom_left,2025-06-27_15h00.43.384,HideSeek_v1,2022.2.5,59.92161052423131,
,2,1,2,6,0,5,11,,train_dim1_1,18,30,,,,2,0,2,0,,,,,,,,,0,0,0,0,0,17,17,17,0,0,0,0,,,,,,,,,,,,,,,,,,,,,,,,,stimuli/alien_stimuli/11.png,,,,,,,,,,,,,,,,,,,,,,,,,,,,,stimuli/alien_stimuli/13.png,13,3,19,,,,,,,30,,,,,,,,1113.9717487001326,1113.9717487001326,1113.9717487001326,1113.9717487001326,1113.9717487001326,up,4.438683500047773,7,0,0,99,0,-0.24,up,4.356784199830145,,,,,1112.411485800054,1113.9717487001326,0.08,0.08,0.24,0.0,-0.04,0.08,0.08,0.08,0.08,1110.709041400114,1110.709041400114,1110.709041400114,1110.709041400114,1110.709041400114,1110.709041400114,1110.709041400114,1110.709041400114,1110.7099260600282,1.8201234999578446,return,1.6726930998265743,,,,,,,,,,,,,,,,,,,,,,,,,,,,,,,,,X07AFH,train_y,red_square,bottom_left,2025-06-27_15h00.43.384,HideSeek_v1,2022.2.5,59.92161052423131,
,2,1,2,6,0,5,11,,train_dim1_1,18,30,,,,2,0,2,0,,,,,,,,,0,0,0,0,0,17,17,17,1,0,1,0,,,,,,,,,,,,,,,,,,,,,,,,,,,,,,,,,,,,,,,,,,,,,,,,,,,,,,,,,,,,,,,,30,,,,,,,,1118.4174981000833,1118.4174981000833,1118.4174981000833,1118.4174981000833,1118.4174981000833,up,0.526526500005275,7,0,0,99,0,-0.15999999999999998,up,0.43998129991814494,,,,,,,,,,,,,,,,,,,,,,,,,,,,,,,,,,,,,,,,,,,,,,,,,,,,,,,,,,,,X07AFH,train_y,red_square,bottom_left,2025-06-27_15h00.43.384,HideSeek_v1,2022.2.5,59.92161052423131,
,2,1,2,6,0,5,11,,train_dim1_1,18,30,,,,2,0,2,0,,,,,,,,,0,0,0,0,0,17,17,17,2,0,2,0,,,,,,,,,,,,,,,,,,,,,,,,,,,,,,,,,,,,,,,,,,,,,,,,,,,,,,,,,,,,,,,,30,,,,,,,,1118.9519873000681,1118.9519873000681,1118.9519873000681,1118.9519873000681,1118.9519873000681,up,0.4756875999737531,7,0,0,99,0,-0.07999999999999997,up,0.39624099992215633,,,,,,,,,,,,,,,,,,,,,,,,,,,,,,,,,,,,,,,,,,,,,,,,,,,,,,,,,,,,X07AFH,train_y,red_square,bottom_left,2025-06-27_15h00.43.384,HideSeek_v1,2022.2.5,59.92161052423131,
,2,1,2,6,0,5,11,,train_dim1_1,18,30,,,,2,0,2,0,,,,,,,,,0,0,0,0,0,17,17,17,3,0,3,0,,,,,,,,,,,,,,,,,,,,,,,,,,,,,,,,,,,,,,,,,,,,,,,,,,,,,,,,,,,,,,,,30,,,,,,,,1119.4346032999456,1119.4346032999456,1119.4346032999456,1119.4346032999456,1119.4346032999456,return,0.6434296001680195,7,0,0,0,0,-0.07999999999999997,return,0.5629960997030139,50,0,0,-0.07999999999999997,,,,,,,,,,,,,,,,,,,,,,,,,,,,,,,,,,,,,,,,,,,,,,,,,,,,,,,,X07AFH,train_y,red_square,bottom_left,2025-06-27_15h00.43.384,HideSeek_v1,2022.2.5,59.92161052423131,
,0,4,0,8,0,4,12,,train_dim1_1,19,30,,,,2,0,2,0,,,,,,,,,0,0,0,0,0,18,18,18,0,0,0,0,,,,,,,,,,,,,,,,,,,,,,,,,stimuli/alien_stimuli/12.png,,,,,,,,,,,,,,,,,,,,,,,,,,,,,stimuli/alien_stimuli/11.png,11,2,20,,,,,,,30,,,,,,,,1124.8463666001335,1124.8463666001335,1124.8463666001335,1124.8463666001335,1124.8463666001335,up,0.9031522001605481,7,0,0,99,-0.16,0.0,up,0.8211533997673541,,,,,1123.2872411001008,1124.8463666001335,0,0.08,0.4,0.0,-0.12,0,0.0,0,0.08,1121.6609565999825,1121.6609565999825,1121.6609565999825,1121.6609565999825,1121.6609565999825,1121.6609565999825,1121.6609565999825,1121.6609565999825,1121.6524946599732,1.7535665000323206,return,1.6057918998412788,,,,,,,,,,,,,,,,,,,,,,,,,,,,,,,,,X07AFH,train_y,red_square,bottom_left,2025-06-27_15h00.43.384,HideSeek_v1,2022.2.5,59.92161052423131,
,0,4,0,8,0,4,12,,train_dim1_1,19,30,,,,2,0,2,0,,,,,,,,,0,0,0,0,0,18,18,18,1,0,1,0,,,,,,,,,,,,,,,,,,,,,,,,,,,,,,,,,,,,,,,,,,,,,,,,,,,,,,,,,,,,,,,,30,,,,,,,,1125.757913999958,1125.757913999958,1125.757913999958,1125.757913999958,1125.757913999958,up,1.0427282000891864,7,0,0,99,-0.16,0.08,up,0.9611048998776823,,,,,,,,,,,,,,,,,,,,,,,,,,,,,,,,,,,,,,,,,,,,,,,,,,,,,,,,,,,,X07AFH,train_y,red_square,bottom_left,2025-06-27_15h00.43.384,HideSeek_v1,2022.2.5,59.92161052423131,
,0,4,0,8,0,4,12,,train_dim1_1,19,30,,,,2,0,2,0,,,,,,,,,0,0,0,0,0,18,18,18,2,0,2,0,,,,,,,,,,,,,,,,,,,,,,,,,,,,,,,,,,,,,,,,,,,,,,,,,,,,,,,,,,,,,,,,30,,,,,,,,1126.8078976999968,1126.8078976999968,1126.8078976999968,1126.8078976999968,1126.8078976999968,up,0.34296060004271567,7,0,0,99,-0.16,0.16,up,0.26229869993403554,,,,,,,,,,,,,,,,,,,,,,,,,,,,,,,,,,,,,,,,,,,,,,,,,,,,,,,,,,,,X07AFH,train_y,red_square,bottom_left,2025-06-27_15h00.43.384,HideSeek_v1,2022.2.5,59.92161052423131,
,0,4,0,8,0,4,12,,train_dim1_1,19,30,,,,2,0,2,0,,,,,,,,,0,0,0,0,0,18,18,18,3,0,3,0,,,,,,,,,,,,,,,,,,,,,,,,,,,,,,,,,,,,,,,,,,,,,,,,,,,,,,,,,,,,,,,,30,,,,,,,,1127.1594787000213,1127.1594787000213,1127.1594787000213,1127.1594787000213,1127.1594787000213,up,0.34235320007428527,7,0,0,99,-0.16,0.24,up,0.2647132999263704,,,,,,,,,,,,,,,,,,,,,,,,,,,,,,,,,,,,,,,,,,,,,,,,,,,,,,,,,,,,X07AFH,train_y,red_square,bottom_left,2025-06-27_15h00.43.384,HideSeek_v1,2022.2.5,59.92161052423131,
,0,4,0,8,0,4,12,,train_dim1_1,19,30,,,,2,0,2,0,,,,,,,,,0,0,0,0,0,18,18,18,4,0,4,0,,,,,,,,,,,,,,,,,,,,,,,,,,,,,,,,,,,,,,,,,,,,,,,,,,,,,,,,,,,,,,,,30,,,,,,,,1127.508771599969,1127.508771599969,1127.508771599969,1127.508771599969,1127.508771599969,up,0.4100230000913143,7,0,0,99,-0.16,0.32,up,0.3199414999689907,,,,,,,,,,,,,,,,,,,,,,,,,,,,,,,,,,,,,,,,,,,,,,,,,,,,,,,,,,,,X07AFH,train_y,red_square,bottom_left,2025-06-27_15h00.43.384,HideSeek_v1,2022.2.5,59.92161052423131,
,0,4,0,8,0,4,12,,train_dim1_1,19,30,,,,2,0,2,0,,,,,,,,,0,0,0,0,0,18,18,18,5,0,5,0,,,,,,,,,,,,,,,,,,,,,,,,,,,,,,,,,,,,,,,,,,,,,,,,,,,,,,,,,,,,,,,,30,,,,,,,,1127.9252456999384,1127.9252456999384,1127.9252456999384,1127.9252456999384,1127.9252456999384,return,0.526645899983123,7,1,0,0,-0.16,0.32,return,0.4361219999846071,55,0,-0.16,0.32,,,,,,,,,,,,,,,,,,,,,,,,,,,,,,,,,,,,,,,,,,,,,,,,,,,,,,,,X07AFH,train_y,red_square,bottom_left,2025-06-27_15h00.43.384,HideSeek_v1,2022.2.5,59.92161052423131,
,2,0,2,0,0,0,16,,train_dim1_1,20,30,,,,2,0,2,0,,,,,,,,,0,0,0,0,0,19,19,19,0,0,0,0,,,,,,,,,,,,,,,,,,,,,,,,,stimuli/alien_stimuli/16.png,,,,,,,,,,,,,,,,,,,,,,,,,,,,,stimuli/alien_stimuli/12.png,12,0,21,,,,,,,30,,,,,,,,1133.0853178000543,1133.0853178000543,1133.0853178000543,1133.0853178000543,1133.0853178000543,return,1.4887159001082182,8,0,0,1,0,-0.4,return,1.4015583000145853,55,0,0,-0.4,1131.5274593001232,1133.0853178000543,-0.16,0.24,0.32,0.0,0.07999999999999999,-0.16,-0.16,-0.16,0.24,1130.008626300143,1130.008626300143,1130.008626300143,1130.008626300143,1130.008626300143,1130.008626300143,1130.008626300143,1130.008626300143,1130.0092048399615,1.6200951000209898,return,1.5018745998386294,,,,,,,,,,,,,,,,,,,,,,,,,,,,,,,,,X07AFH,train_y,red_square,bottom_left,2025-06-27_15h00.43.384,HideSeek_v1,2022.2.5,59.92161052423131,
,2,4,2,5,0,1,15,,train_dim1_1,21,30,,,,2,0,2,0,,,,,,,,,0,0,0,0,0,20,20,20,0,0,0,0,,,,,,,,,,,,,,,,,,,,,,,,,stimuli/alien_stimuli/15.png,,,,,,,,,,,,,,,,,,,,,,,,,,,,,stimuli/alien_stimuli/16.png,16,2,22,,,,,,,30,,,,,,,,1139.1441893000156,1139.1441893000156,1139.1441893000156,1139.1441893000156,1139.1441893000156,up,0.8345814000349492,8,0,0,99,0,0.0,up,0.7498153999913484,,,,,1137.5827021000441,1139.1441893000156,0,-0.4,0.0,0.0,-0.4,0,0.0,0,-0.4,1136.1325968001038,1136.1325968001038,1136.1325968001038,1136.1325968001038,1136.1325968001038,1136.1325968001038,1136.1325968001038,1136.1325968001038,1136.1310761400032,1.553666700143367,return,1.4299441997427493,,,,,,,,,,,,,,,,,,,,,,,,,,,,,,,,,X07AFH,train_y,red_square,bottom_left,2025-06-27_15h00.43.384,HideSeek_v1,2022.2.5,59.92161052423131,
,2,4,2,5,0,1,15,,train_dim1_1,21,30,,,,2,0,2,0,,,,,,,,,0,0,0,0,0,20,20,20,1,0,1,0,,,,,,,,,,,,,,,,,,,,,,,,,,,,,,,,,,,,,,,,,,,,,,,,,,,,,,,,,,,,,,,,30,,,,,,,,1139.9868457000703,1139.9868457000703,1139.9868457000703,1139.9868457000703,1139.9868457000703,return,0.7920067999511957,9,0,0,1,0,0.0,return,0.7059461998287588,56,0,0,0.0,,,,,,,,,,,,,,,,,,,,,,,,,,,,,,,,,,,,,,,,,,,,,,,,,,,,,,,,X07AFH,train_y,red_square,bottom_left,2025-06-27_15h00.43.384,HideSeek_v1,2022.2.5,59.92161052423131,
,0,2,0,5,0,3,13,,train_dim1_1,22,30,,,,2,0,2,0,,,,,,,,,0,0,0,0,0,21,21,21,0,0,0,0,,,,,,,,,,,,,,,,,,,,,,,,,stimuli/alien_stimuli/13.png,,,,,,,,,,,,,,,,,,,,,,,,,,,,,stimuli/alien_stimuli/15.png,15,2,23,,,,,,,30,,,,,,,,1145.0629728001077,1145.0629728001077,1145.0629728001077,1145.0629728001077,1145.0629728001077,up,0.7860848000273108,9,0,0,99,-0.16,-0.15999999999999998,up,0.6979615997988731,,,,,1143.5037875000853,1145.0629728001077,0,0,0.08,0.0,-0.04,0,0.0,0,0,1142.3383737001568,1142.3383737001568,1142.3383737001568,1142.3383737001568,1142.3383737001568,1142.3383737001568,1142.3383737001568,1142.3383737001568,1142.3361103401053,1.2694961000233889,return,1.1423051999881864,,,,,,,,,,,,,,,,,,,,,,,,,,,,,,,,,X07AFH,train_y,red_square,bottom_left,2025-06-27_15h00.43.384,HideSeek_v1,2022.2.5,59.92161052423131,
,0,2,0,5,0,3,13,,train_dim1_1,22,30,,,,2,0,2,0,,,,,,,,,0,0,0,0,0,21,21,21,1,0,1,0,,,,,,,,,,,,,,,,,,,,,,,,,,,,,,,,,,,,,,,,,,,,,,,,,,,,,,,,,,,,,,,,30,,,,,,,,1145.857093699975,1145.857093699975,1145.857093699975,1145.857093699975,1145.857093699975,up,0.32637770008295774,9,0,0,99,-0.16,-0.07999999999999997,up,0.2453279998153448,,,,,,,,,,,,,,,,,,,,,,,,,,,,,,,,,,,,,,,,,,,,,,,,,,,,,,,,,,,,X07AFH,train_y,red_square,bottom_left,2025-06-27_15h00.43.384,HideSeek_v1,2022.2.5,59.92161052423131,
,0,2,0,5,0,3,13,,train_dim1_1,22,30,,,,2,0,2,0,,,,,,,,,0,0,0,0,0,21,21,21,2,0,2,0,,,,,,,,,,,,,,,,,,,,,,,,,,,,,,,,,,,,,,,,,,,,,,,,,,,,,,,,,,,,,,,,30,,,,,,,,1146.18900270015,1146.18900270015,1146.18900270015,1146.18900270015,1146.18900270015,up,0.3434381999541074,9,0,0,99,-0.16,2.7755575615628914e-17,up,0.26056289998814464,,,,,,,,,,,,,,,,,,,,,,,,,,,,,,,,,,,,,,,,,,,,,,,,,,,,,,,,,,,,X07AFH,train_y,red_square,bottom_left,2025-06-27_15h00.43.384,HideSeek_v1,2022.2.5,59.92161052423131,
,0,2,0,5,0,3,13,,train_dim1_1,22,30,,,,2,0,2,0,,,,,,,,,0,0,0,0,0,21,21,21,3,0,3,0,,,,,,,,,,,,,,,,,,,,,,,,,,,,,,,,,,,,,,,,,,,,,,,,,,,,,,,,,,,,,,,,30,,,,,,,,1146.5398804999422,1146.5398804999422,1146.5398804999422,1146.5398804999422,1146.5398804999422,return,0.42664270009845495,10,0,0,1,-0.16,2.7755575615628914e-17,return,0.33718469995073974,59,0,-0.16,2.7755575615628914e-17,,,,,,,,,,,,,,,,,,,,,,,,,,,,,,,,,,,,,,,,,,,,,,,,,,,,,,,,X07AFH,train_y,red_square,bottom_left,2025-06-27_15h00.43.384,HideSeek_v1,2022.2.5,59.92161052423131,
,0,3,0,8,0,5,11,,train_dim1_1,23,30,,,,2,0,2,0,,,,,,,,,0,0,0,0,0,22,22,22,0,0,0,0,,,,,,,,,,,,,,,,,,,,,,,,,stimuli/alien_stimuli/11.png,,,,,,,,,,,,,,,,,,,,,,,,,,,,,stimuli/alien_stimuli/13.png,13,0,24,,,,,,,30,,,,,,,,1151.0852922000922,1151.0852922000922,1151.0852922000922,1151.0852922000922,1151.0852922000922,up,1.1867388999089599,10,0,0,99,-0.16,-0.08,up,1.1091922998894006,,,,,1149.525607699994,1151.0852922000922,-0.16,0,0.24,0.0,-0.12,-0.16,-0.16,-0.16,0,1148.5258820001036,1148.5258820001036,1148.5258820001036,1148.5258820001036,1148.5258820001036,1148.5258820001036,1148.5258820001036,1148.5258820001036,1148.5246153400744,1.1027633999474347,return,0.9715560998301953,,,,,,,,,,,,,,,,,,,,,,,,,,,,,,,,,X07AFH,train_y,red_square,bottom_left,2025-06-27_15h00.43.384,HideSeek_v1,2022.2.5,59.92161052423131,
,0,3,0,8,0,5,11,,train_dim1_1,23,30,,,,2,0,2,0,,,,,,,,,0,0,0,0,0,22,22,22,1,0,1,0,,,,,,,,,,,,,,,,,,,,,,,,,,,,,,,,,,,,,,,,,,,,,,,,,,,,,,,,,,,,,,,,30,,,,,,,,1152.2782819999848,1152.2782819999848,1152.2782819999848,1152.2782819999848,1152.2782819999848,up,0.3261591999325901,10,0,0,99,-0.16,0.0,up,0.2493596998974681,,,,,,,,,,,,,,,,,,,,,,,,,,,,,,,,,,,,,,,,,,,,,,,,,,,,,,,,,,,,X07AFH,train_y,red_square,bottom_left,2025-06-27_15h00.43.384,HideSeek_v1,2022.2.5,59.92161052423131,
,0,3,0,8,0,5,11,,train_dim1_1,23,30,,,,2,0,2,0,,,,,,,,,0,0,0,0,0,22,22,22,2,0,2,0,,,,,,,,,,,,,,,,,,,,,,,,,,,,,,,,,,,,,,,,,,,,,,,,,,,,,,,,,,,,,,,,30,,,,,,,,1152.6110283001326,1152.6110283001326,1152.6110283001326,1152.6110283001326,1152.6110283001326,up,0.34375920007005334,10,0,0,99,-0.16,0.08,up,0.2602450998965651,,,,,,,,,,,,,,,,,,,,,,,,,,,,,,,,,,,,,,,,,,,,,,,,,,,,,,,,,,,,X07AFH,train_y,red_square,bottom_left,2025-06-27_15h00.43.384,HideSeek_v1,2022.2.5,59.92161052423131,
,0,3,0,8,0,5,11,,train_dim1_1,23,30,,,,2,0,2,0,,,,,,,,,0,0,0,0,0,22,22,22,3,0,3,0,,,,,,,,,,,,,,,,,,,,,,,,,,,,,,,,,,,,,,,,,,,,,,,,,,,,,,,,,,,,,,,,30,,,,,,,,1152.962717599934,1152.962717599934,1152.962717599934,1152.962717599934,1152.962717599934,up,0.3597448000218719,10,0,0,99,-0.16,0.16,up,0.27583259996026754,,,,,,,,,,,,,,,,,,,,,,,,,,,,,,,,,,,,,,,,,,,,,,,,,,,,,,,,,,,,X07AFH,train_y,red_square,bottom_left,2025-06-27_15h00.43.384,HideSeek_v1,2022.2.5,59.92161052423131,
,0,3,0,8,0,5,11,,train_dim1_1,23,30,,,,2,0,2,0,,,,,,,,,0,0,0,0,0,22,22,22,4,0,4,0,,,,,,,,,,,,,,,,,,,,,,,,,,,,,,,,,,,,,,,,,,,,,,,,,,,,,,,,,,,,,,,,30,,,,,,,,1153.3293223001529,1153.3293223001529,1153.3293223001529,1153.3293223001529,1153.3293223001529,return,1.3773095000069588,10,1,0,0,-0.16,0.16,return,1.2967860999051481,63,0,-0.16,0.16,,,,,,,,,,,,,,,,,,,,,,,,,,,,,,,,,,,,,,,,,,,,,,,,,,,,,,,,X07AFH,train_y,red_square,bottom_left,2025-06-27_15h00.43.384,HideSeek_v1,2022.2.5,59.92161052423131,
,3,2,3,2,0,0,16,,train_dim1_1,24,30,,,,2,0,2,0,,,,,,,,,0,0,0,0,0,23,23,23,0,0,0,0,,,,,,,,,,,,,,,,,,,,,,,,,stimuli/alien_stimuli/16.png,,,,,,,,,,,,,,,,,,,,,,,,,,,,,stimuli/alien_stimuli/11.png,11,0,25,,,,,,,30,,,,,,,,1158.9707144000567,1158.9707144000567,1158.9707144000567,1158.9707144000567,1158.9707144000567,return,1.1402559000998735,11,0,0,1,0.08,-0.24,return,1.0516021999064833,63,0,0.08,-0.24,1157.4154839999974,1158.9707144000567,-0.16,0.24,0.4,0.0,0.039999999999999994,-0.16,-0.16,-0.16,0.24,1156.2671918999404,1156.2671918999404,1156.2671918999404,1156.2671918999404,1156.2671918999404,1156.2671918999404,1156.2671918999404,1156.2671918999404,1156.2642437400295,1.2532719001173973,return,1.1313078997191042,,,,,,,,,,,,,,,,,,,,,,,,,,,,,,,,,X07AFH,train_y,red_square,bottom_left,2025-06-27_15h00.43.384,HideSeek_v1,2022.2.5,59.92161052423131,
,3,3,3,7,0,4,12,,train_dim1_1,25,30,,,,2,0,2,0,,,,,,,,,0,0,0,0,0,24,24,24,0,0,0,0,,,,,,,,,,,,,,,,,,,,,,,,,stimuli/alien_stimuli/12.png,,,,,,,,,,,,,,,,,,,,,,,,,,,,,stimuli/alien_stimuli/16.png,16,3,26,,,,,,,30,,,,,,,,1164.2814937001094,1164.2814937001094,1164.2814937001094,1164.2814937001094,1164.2814937001094,up,0.851712099974975,11,0,0,99,0.08,-0.08,up,0.7617289999034256,,,,,1162.7199661999475,1164.2814937001094,0.08,-0.24,0.0,0.0,-0.24,0.08,0.08,0.08,-0.24,1161.6682478000876,1161.6682478000876,1161.6682478000876,1161.6682478000876,1161.6682478000876,1161.6682478000876,1161.6682478000876,1161.6682478000876,1161.6687972400337,1.152924400055781,return,1.0260232998989522,,,,,,,,,,,,,,,,,,,,,,,,,,,,,,,,,X07AFH,train_y,red_square,bottom_left,2025-06-27_15h00.43.384,HideSeek_v1,2022.2.5,59.92161052423131,
,3,3,3,7,0,4,12,,train_dim1_1,25,30,,,,2,0,2,0,,,,,,,,,0,0,0,0,0,24,24,24,1,0,1,0,,,,,,,,,,,,,,,,,,,,,,,,,,,,,,,,,,,,,,,,,,,,,,,,,,,,,,,,,,,,,,,,30,,,,,,,,1165.1427546001505,1165.1427546001505,1165.1427546001505,1165.1427546001505,1165.1427546001505,up,0.3571176000405103,11,0,0,99,0.08,0.0,up,0.26498449966311455,,,,,,,,,,,,,,,,,,,,,,,,,,,,,,,,,,,,,,,,,,,,,,,,,,,,,,,,,,,,X07AFH,train_y,red_square,bottom_left,2025-06-27_15h00.43.384,HideSeek_v1,2022.2.5,59.92161052423131,
,3,3,3,7,0,4,12,,train_dim1_1,25,30,,,,2,0,2,0,,,,,,,,,0,0,0,0,0,24,24,24,2,0,2,0,,,,,,,,,,,,,,,,,,,,,,,,,,,,,,,,,,,,,,,,,,,,,,,,,,,,,,,,,,,,,,,,30,,,,,,,,1165.50600760011,1165.50600760011,1165.50600760011,1165.50600760011,1165.50600760011,up,0.27668590005487204,11,0,0,99,0.08,0.08,up,0.20054639969021082,,,,,,,,,,,,,,,,,,,,,,,,,,,,,,,,,,,,,,,,,,,,,,,,,,,,,,,,,,,,X07AFH,train_y,red_square,bottom_left,2025-06-27_15h00.43.384,HideSeek_v1,2022.2.5,59.92161052423131,
,3,3,3,7,0,4,12,,train_dim1_1,25,30,,,,2,0,2,0,,,,,,,,,0,0,0,0,0,24,24,24,3,0,3,0,,,,,,,,,,,,,,,,,,,,,,,,,,,,,,,,,,,,,,,,,,,,,,,,,,,,,,,,,,,,,,,,30,,,,,,,,1165.7894804000389,1165.7894804000389,1165.7894804000389,1165.7894804000389,1165.7894804000389,up,0.3267830000258982,11,0,0,99,0.08,0.16,up,0.24972269986756146,,,,,,,,,,,,,,,,,,,,,,,,,,,,,,,,,,,,,,,,,,,,,,,,,,,,,,,,,,,,X07AFH,train_y,red_square,bottom_left,2025-06-27_15h00.43.384,HideSeek_v1,2022.2.5,59.92161052423131,
,3,3,3,7,0,4,12,,train_dim1_1,25,30,,,,2,0,2,0,,,,,,,,,0,0,0,0,0,24,24,24,4,0,4,0,,,,,,,,,,,,,,,,,,,,,,,,,,,,,,,,,,,,,,,,,,,,,,,,,,,,,,,,,,,,,,,,30,,,,,,,,1166.1240165000781,1166.1240165000781,1166.1240165000781,1166.1240165000781,1166.1240165000781,return,0.6266519001219422,12,0,0,1,0.08,0.16,return,0.5429624998942018,67,0,0.08,0.16,,,,,,,,,,,,,,,,,,,,,,,,,,,,,,,,,,,,,,,,,,,,,,,,,,,,,,,,X07AFH,train_y,red_square,bottom_left,2025-06-27_15h00.43.384,HideSeek_v1,2022.2.5,59.92161052423131,
,4,4,4,7,0,3,13,,train_dim1_1,26,30,,,,2,0,2,0,,,,,,,,,0,0,0,0,0,25,25,25,0,0,0,0,,,,,,,,,,,,,,,,,,,,,,,,,stimuli/alien_stimuli/13.png,,,,,,,,,,,,,,,,,,,,,,,,,,,,,stimuli/alien_stimuli/12.png,12,3,27,,,,,,,30,,,,,,,,1170.900366100017,1170.900366100017,1170.900366100017,1170.900366100017,1170.900366100017,up,0.9215442000422627,12,0,0,99,0.16,0.0,up,0.8431613000575453,,,,,1169.3420579000376,1170.900366100017,0.08,0.16,0.32,0.0,0.0,0.08,0.08,0.08,0.16,1168.3085803000722,1168.3085803000722,1168.3085803000722,1168.3085803000722,1168.3085803000722,1168.3085803000722,1168.3085803000722,1168.3085803000722,1168.3076766400131,1.1361578998621553,return,1.0063191000372171,,,,,,,,,,,,,,,,,,,,,,,,,,,,,,,,,X07AFH,train_y,red_square,bottom_left,2025-06-27_15h00.43.384,HideSeek_v1,2022.2.5,59.92161052423131,
,4,4,4,7,0,3,13,,train_dim1_1,26,30,,,,2,0,2,0,,,,,,,,,0,0,0,0,0,25,25,25,1,0,1,0,,,,,,,,,,,,,,,,,,,,,,,,,,,,,,,,,,,,,,,,,,,,,,,,,,,,,,,,,,,,,,,,30,,,,,,,,1171.8289014000911,1171.8289014000911,1171.8289014000911,1171.8289014000911,1171.8289014000911,up,0.2584210999775678,12,0,0,99,0.16,0.08,up,0.18088009976781905,,,,,,,,,,,,,,,,,,,,,,,,,,,,,,,,,,,,,,,,,,,,,,,,,,,,,,,,,,,,X07AFH,train_y,red_square,bottom_left,2025-06-27_15h00.43.384,HideSeek_v1,2022.2.5,59.92161052423131,
,4,4,4,7,0,3,13,,train_dim1_1,26,30,,,,2,0,2,0,,,,,,,,,0,0,0,0,0,25,25,25,2,0,2,0,,,,,,,,,,,,,,,,,,,,,,,,,,,,,,,,,,,,,,,,,,,,,,,,,,,,,,,,,,,,,,,,30,,,,,,,,1172.0936017001513,1172.0936017001513,1172.0936017001513,1172.0936017001513,1172.0936017001513,up,0.3265805998817086,12,0,0,99,0.16,0.16,up,0.24321239977143705,,,,,,,,,,,,,,,,,,,,,,,,,,,,,,,,,,,,,,,,,,,,,,,,,,,,,,,,,,,,X07AFH,train_y,red_square,bottom_left,2025-06-27_15h00.43.384,HideSeek_v1,2022.2.5,59.92161052423131,
,4,4,4,7,0,3,13,,train_dim1_1,26,30,,,,2,0,2,0,,,,,,,,,0,0,0,0,0,25,25,25,3,0,3,0,,,,,,,,,,,,,,,,,,,,,,,,,,,,,,,,,,,,,,,,,,,,,,,,,,,,,,,,,,,,,,,,30,,,,,,,,1172.4278486999683,1172.4278486999683,1172.4278486999683,1172.4278486999683,1172.4278486999683,return,0.46019130013883114,13,0,0,1,0.16,0.16,return,0.36868349998258054,70,0,0.16,0.16,,,,,,,,,,,,,,,,,,,,,,,,,,,,,,,,,,,,,,,,,,,,,,,,,,,,,,,,X07AFH,train_y,red_square,bottom_left,2025-06-27_15h00.43.384,HideSeek_v1,2022.2.5,59.92161052423131,
,3,4,3,4,0,0,16,,train_dim1_1,27,30,,,,2,0,2,0,,,,,,,,,0,0,0,0,0,26,26,26,0,0,0,0,,,,,,,,,,,,,,,,,,,,,,,,,stimuli/alien_stimuli/16.png,,,,,,,,,,,,,,,,,,,,,,,,,,,,,stimuli/alien_stimuli/13.png,13,4,28,,,,,,,30,,,,,,,,1176.9543813001364,1176.9543813001364,1176.9543813001364,1176.9543813001364,1176.9543813001364,return,1.42134500015527,14,0,0,1,0.08,-0.08,return,1.337548399809748,70,0,0.08,-0.08,1175.3975293000694,1176.9543813001364,0.16,0.16,0.24,0.0,0.04,0.16,0.16,0.16,0.16,1174.443355299998,1174.443355299998,1174.443355299998,1174.443355299998,1174.443355299998,1174.443355299998,1174.443355299998,1174.443355299998,1174.4295047199819,1.0526872999034822,return,0.9286695998162031,,,,,,,,,,,,,,,,,,,,,,,,,,,,,,,,,X07AFH,train_y,red_square,bottom_left,2025-06-27_15h00.43.384,HideSeek_v1,2022.2.5,59.92161052423131,
,4,1,4,6,0,5,11,,train_dim1_1,28,30,,,,2,0,2,0,,,,,,,,,0,0,0,0,0,27,27,27,0,0,0,0,,,,,,,,,,,,,,,,,,,,,,,,,stimuli/alien_stimuli/11.png,,,,,,,,,,,,,,,,,,,,,,,,,,,,,stimuli/alien_stimuli/16.png,16,3,29,,,,,,,30,,,,,,,,1182.7431316999719,1182.7431316999719,1182.7431316999719,1182.7431316999719,1182.7431316999719,up,0.8873695998918265,14,0,0,99,0.16,-0.24,up,0.8005877998657525,,,,,1181.185167599935,1182.7431316999719,0.08,-0.08,0.0,0.0,-0.08,0.08,0.08,0.08,-0.08,1179.9386591000948,1179.9386591000948,1179.9386591000948,1179.9386591000948,1179.9386591000948,1179.9386591000948,1179.9386591000948,1179.9386591000948,1179.9341260401065,1.3527363000903279,return,1.2145145998802036,,,,,,,,,,,,,,,,,,,,,,,,,,,,,,,,,X07AFH,train_y,red_square,bottom_left,2025-06-27_15h00.43.384,HideSeek_v1,2022.2.5,59.92161052423131,
,4,1,4,6,0,5,11,,train_dim1_1,28,30,,,,2,0,2,0,,,,,,,,,0,0,0,0,0,27,27,27,1,0,1,0,,,,,,,,,,,,,,,,,,,,,,,,,,,,,,,,,,,,,,,,,,,,,,,,,,,,,,,,,,,,,,,,30,,,,,,,,1183.6436871001497,1183.6436871001497,1183.6436871001497,1183.6436871001497,1183.6436871001497,up,1.0397004999686033,14,0,0,99,0.16,-0.15999999999999998,up,0.9518702998757362,,,,,,,,,,,,,,,,,,,,,,,,,,,,,,,,,,,,,,,,,,,,,,,,,,,,,,,,,,,,X07AFH,train_y,red_square,bottom_left,2025-06-27_15h00.43.384,HideSeek_v1,2022.2.5,59.92161052423131,
,4,1,4,6,0,5,11,,train_dim1_1,28,30,,,,2,0,2,0,,,,,,,,,0,0,0,0,0,27,27,27,2,0,2,0,,,,,,,,,,,,,,,,,,,,,,,,,,,,,,,,,,,,,,,,,,,,,,,,,,,,,,,,,,,,,,,,30,,,,,,,,1184.6885905000381,1184.6885905000381,1184.6885905000381,1184.6885905000381,1184.6885905000381,up,0.35969730000942945,14,0,0,99,0.16,-0.07999999999999997,up,0.2715966997202486,,,,,,,,,,,,,,,,,,,,,,,,,,,,,,,,,,,,,,,,,,,,,,,,,,,,,,,,,,,,X07AFH,train_y,red_square,bottom_left,2025-06-27_15h00.43.384,HideSeek_v1,2022.2.5,59.92161052423131,
,4,1,4,6,0,5,11,,train_dim1_1,28,30,,,,2,0,2,0,,,,,,,,,0,0,0,0,0,27,27,27,3,0,3,0,,,,,,,,,,,,,,,,,,,,,,,,,,,,,,,,,,,,,,,,,,,,,,,,,,,,,,,,,,,,,,,,30,,,,,,,,1185.0557160000317,1185.0557160000317,1185.0557160000317,1185.0557160000317,1185.0557160000317,up,0.3096976999659091,14,0,0,99,0.16,2.7755575615628914e-17,up,0.23230519983917475,,,,,,,,,,,,,,,,,,,,,,,,,,,,,,,,,,,,,,,,,,,,,,,,,,,,,,,,,,,,X07AFH,train_y,red_square,bottom_left,2025-06-27_15h00.43.384,HideSeek_v1,2022.2.5,59.92161052423131,
,4,1,4,6,0,5,11,,train_dim1_1,28,30,,,,2,0,2,0,,,,,,,,,0,0,0,0,0,27,27,27,4,0,4,0,,,,,,,,,,,,,,,,,,,,,,,,,,,,,,,,,,,,,,,,,,,,,,,,,,,,,,,,,,,,,,,,30,,,,,,,,1185.3722973000258,1185.3722973000258,1185.3722973000258,1185.3722973000258,1185.3722973000258,return,0.5268811001442373,14,1,0,0,0.16,2.7755575615628914e-17,return,0.4410697999410331,74,0,0.16,2.7755575615628914e-17,,,,,,,,,,,,,,,,,,,,,,,,,,,,,,,,,,,,,,,,,,,,,,,,,,,,,,,,X07AFH,train_y,red_square,bottom_left,2025-06-27_15h00.43.384,HideSeek_v1,2022.2.5,59.92161052423131,
,2,2,2,6,0,4,12,,train_dim1_1,29,30,,,,2,0,2,0,,,,,,,,,0,0,0,0,0,28,28,28,0,0,0,0,,,,,,,,,,,,,,,,,,,,,,,,,stimuli/alien_stimuli/12.png,,,,,,,,,,,,,,,,,,,,,,,,,,,,,stimuli/alien_stimuli/11.png,11,4,30,,,,,,,30,,,,,,,,1190.519922300009,1190.519922300009,1190.519922300009,1190.519922300009,1190.519922300009,up,1.2049279001075774,14,1,0,99,0,-0.15999999999999998,up,1.1165846998337656,,,,,1188.9582086999435,1190.519922300009,0.16,0.08,0.4,0.0,-0.12,0.16,0.16,0.16,0.08,1187.4625294001307,1187.4625294001307,1187.4625294001307,1187.4625294001307,1187.4625294001307,1187.4625294001307,1187.4625294001307,1187.4625294001307,1187.4568153399973,1.6032829999458045,return,1.4781485998537391,,,,,,,,,,,,,,,,,,,,,,,,,,,,,,,,,X07AFH,train_y,red_square,bottom_left,2025-06-27_15h00.43.384,HideSeek_v1,2022.2.5,59.92161052423131,
,2,2,2,6,0,4,12,,train_dim1_1,29,30,,,,2,0,2,0,,,,,,,,,0,0,0,0,0,28,28,28,1,0,1,0,,,,,,,,,,,,,,,,,,,,,,,,,,,,,,,,,,,,,,,,,,,,,,,,,,,,,,,,,,,,,,,,30,,,,,,,,1191.728736500023,1191.728736500023,1191.728736500023,1191.728736500023,1191.728736500023,up,0.2925657001323998,14,1,0,99,0,-0.07999999999999997,up,0.20155809982679784,,,,,,,,,,,,,,,,,,,,,,,,,,,,,,,,,,,,,,,,,,,,,,,,,,,,,,,,,,,,X07AFH,train_y,red_square,bottom_left,2025-06-27_15h00.43.384,HideSeek_v1,2022.2.5,59.92161052423131,
,2,2,2,6,0,4,12,,train_dim1_1,29,30,,,,2,0,2,0,,,,,,,,,0,0,0,0,0,28,28,28,2,0,2,0,,,,,,,,,,,,,,,,,,,,,,,,,,,,,,,,,,,,,,,,,,,,,,,,,,,,,,,,,,,,,,,,30,,,,,,,,1192.0290800000075,1192.0290800000075,1192.0290800000075,1192.0290800000075,1192.0290800000075,up,0.22660900000482798,14,1,0,99,0,2.7755575615628914e-17,up,0.1484442998189479,,,,,,,,,,,,,,,,,,,,,,,,,,,,,,,,,,,,,,,,,,,,,,,,,,,,,,,,,,,,X07AFH,train_y,red_square,bottom_left,2025-06-27_15h00.43.384,HideSeek_v1,2022.2.5,59.92161052423131,
,2,2,2,6,0,4,12,,train_dim1_1,29,30,,,,2,0,2,0,,,,,,,,,0,0,0,0,0,28,28,28,3,0,3,0,,,,,,,,,,,,,,,,,,,,,,,,,,,,,,,,,,,,,,,,,,,,,,,,,,,,,,,,,,,,,,,,30,,,,,,,,1192.262664400041,1192.262664400041,1192.262664400041,1192.262664400041,1192.262664400041,up,0.2598777001257986,14,1,0,99,0,0.08000000000000003,up,0.16771069983951747,,,,,,,,,,,,,,,,,,,,,,,,,,,,,,,,,,,,,,,,,,,,,,,,,,,,,,,,,,,,X07AFH,train_y,red_square,bottom_left,2025-06-27_15h00.43.384,HideSeek_v1,2022.2.5,59.92161052423131,
,2,2,2,6,0,4,12,,train_dim1_1,29,30,,,,2,0,2,0,,,,,,,,,0,0,0,0,0,28,28,28,4,0,4,0,,,,,,,,,,,,,,,,,,,,,,,,,,,,,,,,,,,,,,,,,,,,,,,,,,,,,,,,,,,,,,,,30,,,,,,,,1192.5292863999493,1192.5292863999493,1192.5292863999493,1192.5292863999493,1192.5292863999493,up,0.2436075999867171,14,1,0,99,0,0.16000000000000003,up,0.1587836998514831,,,,,,,,,,,,,,,,,,,,,,,,,,,,,,,,,,,,,,,,,,,,,,,,,,,,,,,,,,,,X07AFH,train_y,red_square,bottom_left,2025-06-27_15h00.43.384,HideSeek_v1,2022.2.5,59.92161052423131,
,2,2,2,6,0,4,12,,train_dim1_1,29,30,,,,2,0,2,0,,,,,,,,,0,0,0,0,0,28,28,28,5,0,5,0,,,,,,,,,,,,,,,,,,,,,,,,,,,,,,,,,,,,,,,,,,,,,,,,,,,,,,,,,,,,,,,,30,,,,,,,,1192.7815364999697,1192.7815364999697,1192.7815364999697,1192.7815364999697,1192.7815364999697,down,1.491528700105846,14,1,0,99,0,0.08000000000000003,down,1.406205500010401,,,,,,,,,,,,,,,,,,,,,,,,,,,,,,,,,,,,,,,,,,,,,,,,,,,,,,,,,,,,X07AFH,train_y,red_square,bottom_left,2025-06-27_15h00.43.384,HideSeek_v1,2022.2.5,59.92161052423131,
,2,2,2,6,0,4,12,,train_dim1_1,29,30,,,,2,0,2,0,,,,,,,,,0,0,0,0,0,28,28,28,6,0,6,0,,,,,,,,,,,,,,,,,,,,,,,,,,,,,,,,,,,,,,,,,,,,,,,,,,,,,,,,,,,,,,,,30,,,,,,,,1194.280414200155,1194.280414200155,1194.280414200155,1194.280414200155,1194.280414200155,return,0.5097181999590248,15,0,0,1,0,0.08000000000000003,return,0.423695599893108,78,0,0,0.08000000000000003,,,,,,,,,,,,,,,,,,,,,,,,,,,,,,,,,,,,,,,,,,,,,,,,,,,,,,,,X07AFH,train_y,red_square,bottom_left,2025-06-27_15h00.43.384,HideSeek_v1,2022.2.5,59.92161052423131,
,0,1,0,2,0,1,15,,train_dim1_1,30,30,,,,2,0,2,0,,,,,,,,,0,0,0,0,0,29,29,29,0,0,0,0,,,,,,,,,,,,,,,,,,,,,,,,,stimuli/alien_stimuli/15.png,,,,,,,,,,,,,,,,,,,,,,,,,,,,,stimuli/alien_stimuli/12.png,12,2,31,,,,,,,30,,,,,,,,1199.2580071000848,1199.2580071000848,1199.2580071000848,1199.2580071000848,1199.2580071000848,up,1.4375614998862147,15,0,0,99,-0.16,-0.24,up,1.353367299772799,,,,,1197.6988260999788,1199.2580071000848,0,0.08,0.32,0.0,-0.07999999999999999,0,0.0,0,0.08,1196.3498706000391,1196.3498706000391,1196.3498706000391,1196.3498706000391,1196.3498706000391,1196.3498706000391,1196.3498706000391,1196.3498706000391,1196.347637940105,1.4528556999284774,return,1.3216555998660624,,,,,,,,,,,,,,,,,,,,,,,,,,,,,,,,,X07AFH,train_y,red_square,bottom_left,2025-06-27_15h00.43.384,HideSeek_v1,2022.2.5,59.92161052423131,
,0,1,0,2,0,1,15,,train_dim1_1,30,30,,,,2,0,2,0,,,,,,,,,0,0,0,0,0,29,29,29,1,0,1,0,,,,,,,,,,,,,,,,,,,,,,,,,,,,,,,,,,,,,,,,,,,,,,,,,,,,,,,,,,,,,,,,30,,,,,,,,1200.703368500108,1200.703368500108,1200.703368500108,1200.703368500108,1200.703368500108,return,0.859389599878341,16,0,0,1,-0.16,-0.24,return,0.768086499767378,79,0,-0.16,-0.24,,,,,,,,,,,,,,,,,,,,,,,,,,,,,,,,,,,,,,,,,,,,,,,,,,,,,,,,X07AFH,train_y,red_square,bottom_left,2025-06-27_15h00.43.384,HideSeek_v1,2022.2.5,59.92161052423131,
,,,,,,,,,,,30,,,,2,0,2,0,,,,,,,,,,,,,,,,,,,,,,,,,,,,,,,,,,,,,,,,,,,,,,,,,,,,,,,,,,,,,,,,,,,,,,,,,,stimuli/alien_stimuli/15.png,15,0,32,21,0.7,0.6666666666666667,1,1,1,30,0,conditions/schedules/train_y_first/red_square_00/bottom_left/inputTrain_2.1.xlsx,99,1,2,1,0,,,,,,,,,,,1,,,,,,,,,1204.437647700077,1205.9982374999672,-0.16,-0.24,0.08,0.0,-0.28,-0.16,-0.16,-0.16,-0.24,1203.1231192999985,1203.1231192999985,1203.1231192999985,1203.1231192999985,1203.1231192999985,1203.1231192999985,1203.1231192999985,1203.1231192999985,1203.119905939931,1.4197904001921415,return,1.2840632998850197,0,0.9,0,1,16,,,,,,,,,,,,,,,,,,,,,,,,,,,,X07AFH,train_y,red_square,bottom_left,2025-06-27_15h00.43.384,HideSeek_v1,2022.2.5,59.92161052423131,
,,,,,,,,,,,,,,,3,0,3,0,0,0,0,0,,,,,,,,,,,,,,,,,,,,,,,,,,,,,,,conditions/schedules/train_y_first/red_square_00/bottom_left/instructions/Slide17.png,conditions/schedules/train_y_first/red_square_00/bottom_left/instructions/Audio17.wav,1205.9982374999672,1205.9889575799928,18,"[3.6143865000922233, 38.18169180001132, 16.503282299963757, 19.62351300008595, 4.680568100186065, 4.429968500044197, 5.803825699957088, 11.888050700072199, 5.757020600140095, 6.818513799924403, 18.86111510009505, 13.572669599903747, 17.55071510002017, 16.514915300067514, 6.038117100019008, 28.528133699903265, 23.04739429987967, 41.389691799879074]","[0.014203300001099706, 38.18169839982875, 0.037110500037670135, 0.0002133999951183796, 0.038844099966809154, 0.04930619988590479, 0.00024790014140307903, 0.035876600071787834, 0.046738999895751476, 0.07857890008017421, 0.00023239990696310997, 13.572676399955526, 0.05118170008063316, 16.51492240000516, 6.038142400095239, 28.528140200069174, 23.047401699936017, 41.38969979993999]",1,[42.930713899899274],[0.014109699986875057],,,,,,,,,,,,,,,,,,,,,,,,,,,,,,,,,,,,,,,,,,,,,,,,,,,,,,,,,,,,,,,,,,,,,,,,,,,,,,,,,,,,,,,,,,,,,,,,,,,,,,,,,,,,,,,,,,,,,,,,,,X07AFH,train_y,red_square,bottom_left,2025-06-27_15h00.43.384,HideSeek_v1,2022.2.5,59.92161052423131,
,,,,,,,,,,,,,,,3,0,3,0,1,0,1,0,,,,,,,,,,,,,,,,,,,,,,,,,,,,,,,conditions/schedules/train_y_first/red_square_00/bottom_left/instructions/Slide18.png,conditions/schedules/train_y_first/red_square_00/bottom_left/instructions/Audio18.wav,1247.4506737999618,1247.4403145800345,19,"[3.6143865000922233, 38.18169180001132, 16.503282299963757, 19.62351300008595, 4.680568100186065, 4.429968500044197, 5.803825699957088, 11.888050700072199, 5.757020600140095, 6.818513799924403, 18.86111510009505, 13.572669599903747, 17.55071510002017, 16.514915300067514, 6.038117100019008, 28.528133699903265, 23.04739429987967, 41.389691799879074, 6.441876100143418]","[0.014203300001099706, 38.18169839982875, 0.037110500037670135, 0.0002133999951183796, 0.038844099966809154, 0.04930619988590479, 0.00024790014140307903, 0.035876600071787834, 0.046738999895751476, 0.07857890008017421, 0.00023239990696310997, 13.572676399955526, 0.05118170008063316, 16.51492240000516, 6.038142400095239, 28.528140200069174, 23.047401699936017, 0.01382340001873672, 6.441882600076497]",1,[42.930713899899274],[0.014109699986875057],,,,,,,,,,,,,,,,,,,,,,,,,,,,,,,,,,,,,,,,,,,,,,,,,,,,,,,,,,,,,,,,,,,,,,,,,,,,,,,,,,,,,,,,,,,,,,,,,,,,,,,,,,,,,,,,,,,,,,,,,,X07AFH,train_y,red_square,bottom_left,2025-06-27_15h00.43.384,HideSeek_v1,2022.2.5,59.92161052423131,
,,,,,,,,,,,,,,,3,0,3,0,2,0,2,0,,,,,,,,,,,,,,,,,,,,,,,,,,,,,,,conditions/schedules/train_y_first/red_square_00/bottom_left/instructions/Slide19.png,conditions/schedules/train_y_first/red_square_00/bottom_left/instructions/Audio19.wav,1253.9489376000129,1253.9454976800364,20,"[3.6143865000922233, 38.18169180001132, 16.503282299963757, 19.62351300008595, 4.680568100186065, 4.429968500044197, 5.803825699957088, 11.888050700072199, 5.757020600140095, 6.818513799924403, 18.86111510009505, 13.572669599903747, 17.55071510002017, 16.514915300067514, 6.038117100019008, 28.528133699903265, 23.04739429987967, 41.389691799879074, 6.441876100143418, 9.969164100009948]","[0.014203300001099706, 38.18169839982875, 0.037110500037670135, 0.0002133999951183796, 0.038844099966809154, 0.04930619988590479, 0.00024790014140307903, 0.035876600071787834, 0.046738999895751476, 0.07857890008017421, 0.00023239990696310997, 13.572676399955526, 0.05118170008063316, 16.51492240000516, 6.038142400095239, 28.528140200069174, 23.047401699936017, 0.01382340001873672, 0.04648569994606078, 9.969170399941504]",1,[42.930713899899274],[0.014109699986875057],,,,,,,,,,,,,,,,,,,,,,,,,,,,,,,,,,,,,,,,,,,,,,,,,,,,,,,,,,,,,,,,,,,,,,,,,,,,,,,,,,,,,,,,,,,,,,,,,,,,,,,,,,,,,,,,,,,,,,,,,,X07AFH,train_y,red_square,bottom_left,2025-06-27_15h00.43.384,HideSeek_v1,2022.2.5,59.92161052423131,
,,,,,,,,,,,,,,,3,0,3,0,3,0,3,0,,,,,,,,,,,,,,,,,,,,,,,,,,,,,,,conditions/schedules/train_y_first/red_square_00/bottom_left/instructions/Slide20.png,conditions/schedules/train_y_first/red_square_00/bottom_left/instructions/Audio20.wav,1263.9917648001574,1263.9870323000941,21,"[3.6143865000922233, 38.18169180001132, 16.503282299963757, 19.62351300008595, 4.680568100186065, 4.429968500044197, 5.803825699957088, 11.888050700072199, 5.757020600140095, 6.818513799924403, 18.86111510009505, 13.572669599903747, 17.55071510002017, 16.514915300067514, 6.038117100019008, 28.528133699903265, 23.04739429987967, 41.389691799879074, 6.441876100143418, 9.969164100009948, 12.369937499985099]","[0.014203300001099706, 38.18169839982875, 0.037110500037670135, 0.0002133999951183796, 0.038844099966809154, 0.04930619988590479, 0.00024790014140307903, 0.035876600071787834, 0.046738999895751476, 0.07857890008017421, 0.00023239990696310997, 13.572676399955526, 0.05118170008063316, 16.51492240000516, 6.038142400095239, 28.528140200069174, 23.047401699936017, 0.01382340001873672, 0.04648569994606078, 0.030392599990591407, 12.369944300036877]",1,[42.930713899899274],[0.014109699986875057],,,,,,,,,,,,,,,,,,,,,,,,,,,,,,,,,,,,,,,,,,,,,,,,,,,,,,,,,,,,,,,,,,,,,,,,,,,,,,,,,,,,,,,,,,,,,,,,,,,,,,,,,,,,,,,,,,,,,,,,,,X07AFH,train_y,red_square,bottom_left,2025-06-27_15h00.43.384,HideSeek_v1,2022.2.5,59.92161052423131,
1,3,2,8,2,5,0,66,2,instr_dim1_2,,,,,,3,0,3,0,,,,,0,0,0,0,,,,,,,,,,,,,,,,,,,,,,,,,,,,,,,,,,,,,stimuli/alien_stimuli/66.png,conditions/schedules/train_y_first/red_square_00/bottom_left/inputInstr_2.xlsx,stimuli/alien_stimuli/66.png,1276.4749187000562,1276.4749187000562,1276.4749187000562,1276.4749187000562,1276.4640335400122,return,6.276163299800828,"[-0.16, -0.08, 0, 0.08, 0.16, 0.24, 0.32, 0.4, 0.48, 0.56]","[-0.4, -0.32, -0.24, -0.16, -0.08, 0, 0.08, 0.16, 0.24, 0.32]",2,2,8,3,0.0,0.4,1282.8993379999883,1282.8993379999883,1282.8993379999883,1282.8993379999883,1282.8993379999883,1282.8993379999883,1282.8993379999883,1282.8858637601136,7.373470699880272,return,7.2185227000154555,stimuli/alien_stimuli/66.png,66,3,1,,,,,,,,,,,,,,,,,,,,,,,,,,,,,,,,,,,,,,,,,,,,,,,,,,,,,,,,,,,,,,,,,,,,,,,,,,,,,,,,,,,,,,,,,X07AFH,train_y,red_square,bottom_left,2025-06-27_15h00.43.384,HideSeek_v1,2022.2.5,59.92161052423131,
,,,,,,,,,,,30,,,,3,0,3,0,,,,,,,,,,,,,,,,,,,,,,,,,,,,,,,,,,,,,,,,,,,,,,,,,,,,,,,,,,,,,,,,,,,,,,,,,,,,,,21,0.7,0.6666666666666667,1,99,2,30,0,conditions/schedules/train_y_first/red_square_00/bottom_left/inputTrain_2.1.xlsx,99,1,2,1,0,,,,,,,,,,,,,,,,,,,,,,,,,,,,,,,,,,,,,,,,,,,,,,,,,,,,,,,,,,,,,,,,,,,,,,,,,,,X07AFH,train_y,red_square,bottom_left,2025-06-27_15h00.43.384,HideSeek_v1,2022.2.5,59.92161052423131,
,,,,,,,,,,,,,,,4,0,4,0,0,0,0,0,,,,,,,,,,,,,,,,,,,,,,,,,,,,,,,conditions/schedules/train_y_first/red_square_00/bottom_left/instructions/Slide21.png,conditions/schedules/train_y_first/red_square_00/bottom_left/instructions/Audio21.wav,1290.2734384001233,1290.2752531799954,22,"[3.6143865000922233, 38.18169180001132, 16.503282299963757, 19.62351300008595, 4.680568100186065, 4.429968500044197, 5.803825699957088, 11.888050700072199, 5.757020600140095, 6.818513799924403, 18.86111510009505, 13.572669599903747, 17.55071510002017, 16.514915300067514, 6.038117100019008, 28.528133699903265, 23.04739429987967, 41.389691799879074, 6.441876100143418, 9.969164100009948, 12.369937499985099, 12.376322200056165]","[0.014203300001099706, 38.18169839982875, 0.037110500037670135, 0.0002133999951183796, 0.038844099966809154, 0.04930619988590479, 0.00024790014140307903, 0.035876600071787834, 0.046738999895751476, 0.07857890008017421, 0.00023239990696310997, 13.572676399955526, 0.05118170008063316, 16.51492240000516, 6.038142400095239, 28.528140200069174, 23.047401699936017, 0.01382340001873672, 0.04648569994606078, 0.030392599990591407, 12.369944300036877, 12.376331600127742]",1,[42.930713899899274],[0.014109699986875057],,,,,,,,,,,,,,,,,,,,,,,,,,,,,,,,,,,,,,,,,,,,,,,,,,,,,,,,,,,,,,,,,,,,,,,,,,,,,,,,,,,,,,,,,,,,,,,,,,,,,,,,,,,,,,,,,,,,,,,,,,X07AFH,train_y,red_square,bottom_left,2025-06-27_15h00.43.384,HideSeek_v1,2022.2.5,59.92161052423131,
