trialInstr,x_fixStart,y_fixStart,x_corrSteps,y_corrSteps,x_nrSteps,y_nrSteps,alienID,trialLength,version,trialTrain,praclen,testlen,trial_label,break_on_off,beforeExpLoop.thisRepN,beforeExpLoop.thisTrialN,beforeExpLoop.thisN,beforeExpLoop.thisIndex,mini_instr_trials.thisRepN,mini_instr_trials.thisTrialN,mini_instr_trials.thisN,mini_instr_trials.thisIndex,instrLoop.thisRepN,instrLoop.thisTrialN,instrLoop.thisN,instrLoop.thisIndex,repeat_prac.thisRepN,repeat_prac.thisTrialN,repeat_prac.thisN,repeat_prac.thisIndex,trainLoop.thisRepN,trainLoop.thisTrialN,trainLoop.thisN,trainLoop.thisIndex,moveLoop_train.thisRepN,moveLoop_train.thisTrialN,moveLoop_train.thisN,moveLoop_train.thisIndex,experiment.thisRepN,experiment.thisTrialN,experiment.thisN,experiment.thisIndex,moveLoop_test.thisRepN,moveLoop_test.thisTrialN,moveLoop_test.thisN,moveLoop_test.thisIndex,mini_instr2_trials.thisRepN,mini_instr2_trials.thisTrialN,mini_instr2_trials.thisN,mini_instr2_trials.thisIndex,start_all_time,url,slideStim,audioStim,slides.started,sounds.started,nextButton.numClicks,nextButton.timesOn,nextButton.timesOff,prev_but.numClicks,prev_but.timesOn,prev_but.timesOff,alienStim,instrFile,alienStim_instr,gridImage_instr.started,startPos_3.started,key_instr.started,alienImage_3.started,sounds_1.started,key_instr.keys,key_instr.rt,all_x,all_y,FBy_corrSteps,FBy_fixStart,FBx_corrSteps,FBx_fixStart,FBy_pathSize_check,FBx_pathSize_check,gridImage_9.started,alienImageFB_3.started,startPosFB_3.started,keyFB_3.started,pathLine_ydir_2.started,pathLine_xdir_2.started,alienFace_3.started,sounds_2.started,RTFB_instr,keyFB_3.keys,keyFB_3.rt,draw_alienStim,draw_alienID,test_x,nrepcount,perfthres,percthres,earlierperf,earlystop,nextPrac,fileidx,praclen,saveACC_train,pracFile,nextPrac_train,addNrep,fileidx_endr,repExp,showearly,gridImage_4.started,startPos.started,movePos.started,key_resp.started,alienImage.started,buttonPress_train,RTchoice_train,cumAcctrain,aCorr,saveACC_choice,corrAns,x_movePos_end,y_movePos_end,key_resp.keys,key_resp.rt,wLy_dir,wLx_dir,x_movePos,y_movePos,text_2.started,text_2.stopped,aft_x_corrPos,aft_y_corrPos,y_pathSize_check,x_pathSize_check,y_pathdirY,x_pathdirY,x_pathdirX,x_corrPos,y_corrPos,gridImage_6.started,alienImageFB_2.started,startPosFB_2.started,movePosFB_2.started,keyFB_2.started,pathLine_xdir.started,pathLine_ydir.started,alienFace.started,sounds_4.started,RT_FBtrain,keyFB_2.keys,keyFB_2.rt,saveACC_pre,ACC,within_saveACC_train,earlystop_wloop,cumAcctrain_check,gridImage_3.started,alienImage_test.started,startPos_test.started,movePos_test.started,key_resp_test.started,wLy_dir_test,wLx_dir_test,buttonPress_test,RTchoice_test,cumAcctest,corrAns_test,key_resp_test.keys,key_resp_test.rt,text_3.started,text_3.stopped,total_time,end_all_time,key_resp_3.keys,slides_2.started,sounds_3.started,nextButton_2.numClicks,nextButton_2.timesOn,nextButton_2.timesOff,prev_but_2.numClicks,prev_but_2.timesOn,prev_but_2.timesOff,bye.started,participant,train_first,00_coordinate,starting corner,date,expName,psychopyVersion,frameRate,
,,,,,,,,,,,,,,,0,0,0,0,0,0,0,0,,,,,,,,,,,,,,,,,,,,,,,,,,,,,start_all_time,testround,conditions/schedules/train_x_first/red_square_00/top_left/instructions/Slide1.png,conditions/schedules/train_x_first/red_square_00/top_left/instructions/Audio1.wav,1879.7780472000002,1879.7157365000057,1,[4.884585699999661],[4.884599499999695],0,,,,,,,,,,,,,,,,,,,,,,,,,,,,,,,,,,,,,,,,,,,,,,,,,,,,,,,,,,,,,,,,,,,,,,,,,,,,,,,,,,,,,,,,,,,,,,,,,,,,,,,,,,,,,,,,,,,,,,,,,,,,XMY9RR,train_x,red_square,top_left,2025-08-07_11h12.37.443,HideSeek_v1,2022.2.5,59.93924558067472,
,,,,,,,,,,,,,,,0,0,0,0,1,0,1,0,,,,,,,,,,,,,,,,,,,,,,,,,,,,,,,conditions/schedules/train_x_first/red_square_00/top_left/instructions/Slide2.png,conditions/schedules/train_x_first/red_square_00/top_left/instructions/Audio2.wav,1884.6801874999999,1884.6812903,2,"[4.884585699999661, 18.00114739999981]","[0.014339400000153546, 18.001153799999884]",0,,,,,,,,,,,,,,,,,,,,,,,,,,,,,,,,,,,,,,,,,,,,,,,,,,,,,,,,,,,,,,,,,,,,,,,,,,,,,,,,,,,,,,,,,,,,,,,,,,,,,,,,,,,,,,,,,,,,,,,,,,,,XMY9RR,train_x,red_square,top_left,2025-08-07_11h12.37.443,HideSeek_v1,2022.2.5,59.93924558067472,
,,,,,,,,,,,,,,,0,0,0,0,2,0,2,0,,,,,,,,,,,,,,,,,,,,,,,,,,,,,,,conditions/schedules/train_x_first/red_square_00/top_left/instructions/Slide3.png,conditions/schedules/train_x_first/red_square_00/top_left/instructions/Audio3.wav,1902.7613618000003,1902.7500661000004,3,"[4.884585699999661, 18.00114739999981, 16.884126699999797]","[0.014339400000153546, 0.03217259999973976, 16.884133399999882]",0,,,,,,,,,,,,,,,,,,,,,,,,,,,,,,,,,,,,,,,,,,,,,,,,,,,,,,,,,,,,,,,,,,,,,,,,,,,,,,,,,,,,,,,,,,,,,,,,,,,,,,,,,,,,,,,,,,,,,,,,,,,,XMY9RR,train_x,red_square,top_left,2025-08-07_11h12.37.443,HideSeek_v1,2022.2.5,59.93924558067472,
,,,,,,,,,,,,,,,0,0,0,0,3,0,3,0,,,,,,,,,,,,,,,,,,,,,,,,,,,,,,,conditions/schedules/train_x_first/red_square_00/top_left/instructions/Slide4.png,conditions/schedules/train_x_first/red_square_00/top_left/instructions/Audio4.wav,1919.727201,1919.7147807000001,4,"[4.884585699999661, 18.00114739999981, 16.884126699999797, 19.585566499999914]","[0.014339400000153546, 0.03217259999973976, 0.013693599999896833, 19.58557299999984]",0,,,,,,,,,,,,,,,,,,,,,,,,,,,,,,,,,,,,,,,,,,,,,,,,,,,,,,,,,,,,,,,,,,,,,,,,,,,,,,,,,,,,,,,,,,,,,,,,,,,,,,,,,,,,,,,,,,,,,,,,,,,,XMY9RR,train_x,red_square,top_left,2025-08-07_11h12.37.443,HideSeek_v1,2022.2.5,59.93924558067472,
,,,,,,,,,,,,,,,0,0,0,0,4,0,4,0,,,,,,,,,,,,,,,,,,,,,,,,,,,,,,,conditions/schedules/train_x_first/red_square_00/top_left/instructions/Slide5.png,conditions/schedules/train_x_first/red_square_00/top_left/instructions/Audio5.wav,1939.3785452,1939.3654288000002,5,"[4.884585699999661, 18.00114739999981, 16.884126699999797, 19.585566499999914, 5.132955199999742]","[0.014339400000153546, 0.03217259999973976, 0.013693599999896833, 0.01375789999974586, 5.132962799999859]",0,,,,,,,,,,,,,,,,,,,,,,,,,,,,,,,,,,,,,,,,,,,,,,,,,,,,,,,,,,,,,,,,,,,,,,,,,,,,,,,,,,,,,,,,,,,,,,,,,,,,,,,,,,,,,,,,,,,,,,,,,,,,XMY9RR,train_x,red_square,top_left,2025-08-07_11h12.37.443,HideSeek_v1,2022.2.5,59.93924558067472,
,,,,,,,,,,,,,,,0,0,0,0,5,0,5,0,,,,,,,,,,,,,,,,,,,,,,,,,,,,,,,conditions/schedules/train_x_first/red_square_00/top_left/instructions/Slide6.png,conditions/schedules/train_x_first/red_square_00/top_left/instructions/Audio6.wav,1944.564517,1944.5640773,6,"[4.884585699999661, 18.00114739999981, 16.884126699999797, 19.585566499999914, 5.132955199999742, 6.3219608999997945]","[0.014339400000153546, 0.03217259999973976, 0.013693599999896833, 0.01375789999974586, 0.050878999999895314, 6.321967500000028]",0,,,,,,,,,,,,,,,,,,,,,,,,,,,,,,,,,,,,,,,,,,,,,,,,,,,,,,,,,,,,,,,,,,,,,,,,,,,,,,,,,,,,,,,,,,,,,,,,,,,,,,,,,,,,,,,,,,,,,,,,,,,,XMY9RR,train_x,red_square,top_left,2025-08-07_11h12.37.443,HideSeek_v1,2022.2.5,59.93924558067472,
,,,,,,,,,,,,,,,0,0,0,0,6,0,6,0,,,,,,,,,,,,,,,,,,,,,,,,,,,,,,,conditions/schedules/train_x_first/red_square_00/top_left/instructions/Slide7.png,conditions/schedules/train_x_first/red_square_00/top_left/instructions/Audio7.wav,1950.9507823000001,1950.9390319000004,7,"[4.884585699999661, 18.00114739999981, 16.884126699999797, 19.585566499999914, 5.132955199999742, 6.3219608999997945, 5.910067000000254]","[0.014339400000153546, 0.03217259999973976, 0.013693599999896833, 0.01375789999974586, 0.050878999999895314, 0.05228910000005271, 5.9100734000003285]",0,,,,,,,,,,,,,,,,,,,,,,,,,,,,,,,,,,,,,,,,,,,,,,,,,,,,,,,,,,,,,,,,,,,,,,,,,,,,,,,,,,,,,,,,,,,,,,,,,,,,,,,,,,,,,,,,,,,,,,,,,,,,XMY9RR,train_x,red_square,top_left,2025-08-07_11h12.37.443,HideSeek_v1,2022.2.5,59.93924558067472,
,,,,,,,,,,,,,,,0,0,0,0,7,0,7,0,,,,,,,,,,,,,,,,,,,,,,,,,,,,,,,conditions/schedules/train_x_first/red_square_00/top_left/instructions/Slide8.png,conditions/schedules/train_x_first/red_square_00/top_left/instructions/Audio8.wav,1956.9139387000002,1956.9132788000002,8,"[4.884585699999661, 18.00114739999981, 16.884126699999797, 19.585566499999914, 5.132955199999742, 6.3219608999997945, 5.910067000000254, 12.219438199999786]","[0.014339400000153546, 0.03217259999973976, 0.013693599999896833, 0.01375789999974586, 0.050878999999895314, 0.05228910000005271, 0.035606100000222796, 12.219445000000178]",0,,,,,,,,,,,,,,,,,,,,,,,,,,,,,,,,,,,,,,,,,,,,,,,,,,,,,,,,,,,,,,,,,,,,,,,,,,,,,,,,,,,,,,,,,,,,,,,,,,,,,,,,,,,,,,,,,,,,,,,,,,,,XMY9RR,train_x,red_square,top_left,2025-08-07_11h12.37.443,HideSeek_v1,2022.2.5,59.93924558067472,
,,,,,,,,,,,,,,,0,0,0,0,8,0,8,0,,,,,,,,,,,,,,,,,,,,,,,,,,,,,,,conditions/schedules/train_x_first/red_square_00/top_left/instructions/Slide9.png,conditions/schedules/train_x_first/red_square_00/top_left/instructions/Audio9.wav,1969.1980237999999,1969.1859378000004,9,"[4.884585699999661, 18.00114739999981, 16.884126699999797, 19.585566499999914, 5.132955199999742, 6.3219608999997945, 5.910067000000254, 12.219438199999786, 16.108612200000152]","[0.014339400000153546, 0.03217259999973976, 0.013693599999896833, 0.01375789999974586, 0.050878999999895314, 0.05228910000005271, 0.035606100000222796, 0.035203299999921, 16.10861909999994]",0,,,,,,,,,,,,,,,,,,,,,,,,,,,,,,,,,,,,,,,,,,,,,,,,,,,,,,,,,,,,,,,,,,,,,,,,,,,,,,,,,,,,,,,,,,,,,,,,,,,,,,,,,,,,,,,,,,,,,,,,,,,,XMY9RR,train_x,red_square,top_left,2025-08-07_11h12.37.443,HideSeek_v1,2022.2.5,59.93924558067472,
,,,,,,,,,,,,,,,0,0,0,0,9,0,9,0,,,,,,,,,,,,,,,,,,,,,,,,,,,,,,,conditions/schedules/train_x_first/red_square_00/top_left/instructions/Slide10.png,conditions/schedules/train_x_first/red_square_00/top_left/instructions/Audio10.wav,1985.3650733000002,1985.3585915000003,10,"[4.884585699999661, 18.00114739999981, 16.884126699999797, 19.585566499999914, 5.132955199999742, 6.3219608999997945, 5.910067000000254, 12.219438199999786, 16.108612200000152, 7.155462499999885]","[0.014339400000153546, 0.03217259999973976, 0.013693599999896833, 0.01375789999974586, 0.050878999999895314, 0.05228910000005271, 0.035606100000222796, 0.035203299999921, 0.11350350000020626, 7.15546919999997]",0,,,,,,,,,,,,,,,,,,,,,,,,,,,,,,,,,,,,,,,,,,,,,,,,,,,,,,,,,,,,,,,,,,,,,,,,,,,,,,,,,,,,,,,,,,,,,,,,,,,,,,,,,,,,,,,,,,,,,,,,,,,,XMY9RR,train_x,red_square,top_left,2025-08-07_11h12.37.443,HideSeek_v1,2022.2.5,59.93924558067472,
,,,,,,,,,,,,,,,0,0,0,0,10,0,10,0,,,,,,,,,,,,,,,,,,,,,,,,,,,,,,,conditions/schedules/train_x_first/red_square_00/top_left/instructions/Slide11.png,conditions/schedules/train_x_first/red_square_00/top_left/instructions/Audio11.wav,1992.5900585000002,1992.5900199000002,11,"[4.884585699999661, 18.00114739999981, 16.884126699999797, 19.585566499999914, 5.132955199999742, 6.3219608999997945, 5.910067000000254, 12.219438199999786, 16.108612200000152, 7.155462499999885, 10.49762950000013]","[0.014339400000153546, 0.03217259999973976, 0.013693599999896833, 0.01375789999974586, 0.050878999999895314, 0.05228910000005271, 0.035606100000222796, 0.035203299999921, 0.11350350000020626, 0.05121640000015759, 10.497635900000205]",0,,,,,,,,,,,,,,,,,,,,,,,,,,,,,,,,,,,,,,,,,,,,,,,,,,,,,,,,,,,,,,,,,,,,,,,,,,,,,,,,,,,,,,,,,,,,,,,,,,,,,,,,,,,,,,,,,,,,,,,,,,,,XMY9RR,train_x,red_square,top_left,2025-08-07_11h12.37.443,HideSeek_v1,2022.2.5,59.93924558067472,
,,,,,,,,,,,,,,,0,0,0,0,11,0,11,0,,,,,,,,,,,,,,,,,,,,,,,,,,,,,,,conditions/schedules/train_x_first/red_square_00/top_left/instructions/Slide12.png,conditions/schedules/train_x_first/red_square_00/top_left/instructions/Audio12.wav,2003.1605329000001,2003.1567961,12,"[4.884585699999661, 18.00114739999981, 16.884126699999797, 19.585566499999914, 5.132955199999742, 6.3219608999997945, 5.910067000000254, 12.219438199999786, 16.108612200000152, 7.155462499999885, 10.49762950000013, 12.997466599999825]","[0.014339400000153546, 0.03217259999973976, 0.013693599999896833, 0.01375789999974586, 0.050878999999895314, 0.05228910000005271, 0.035606100000222796, 0.035203299999921, 0.11350350000020626, 0.05121640000015759, 0.03363970000009431, 12.997472799999741]",0,,,,,,,,,,,,,,,,,,,,,,,,,,,,,,,,,,,,,,,,,,,,,,,,,,,,,,,,,,,,,,,,,,,,,,,,,,,,,,,,,,,,,,,,,,,,,,,,,,,,,,,,,,,,,,,,,,,,,,,,,,,,XMY9RR,train_x,red_square,top_left,2025-08-07_11h12.37.443,HideSeek_v1,2022.2.5,59.93924558067472,
1,3,7,8,7,5,0,66,2,instr_dim1_1,,,,,,0,0,0,0,,,,,0,0,0,0,,,,,,,,,,,,,,,,,,,,,,,,,,,,,,,,,,,,,stimuli/alien_stimuli/66.png,conditions/schedules/train_x_first/red_square_00/top_left/inputInstr_1.xlsx,stimuli/alien_stimuli/66.png,2016.2617265000001,2016.2617265000001,2016.2617265000001,2016.2617265000001,2016.2605545000001,return,12.813924900000075,"[-0.16, -0.08, 0, 0.08, 0.16, 0.24, 0.32, 0.4, 0.48, 0.56]","[-0.4, -0.32, -0.24, -0.16, -0.08, 0, 0.08, 0.16, 0.24, 0.32]",7,7,8,3,0.0,0.4,2029.2427106000002,2029.2427106000002,2029.2427106000002,2029.2427106000002,2029.2427106000002,2029.2427106000002,2029.2427106000002,2029.2343703000004,7.141640800000005,return,6.966744600000311,stimuli/alien_stimuli/66.png,66,3,1,,,,,,,,,,,,,,,,,,,,,,,,,,,,,,,,,,,,,,,,,,,,,,,,,,,,,,,,,,,,,,,,,,,,,,,,,,,,,,,,,,,,,,,,,XMY9RR,train_x,red_square,top_left,2025-08-07_11h12.37.443,HideSeek_v1,2022.2.5,59.93924558067472,
,,,,,,,,,,,30,,,,0,0,0,0,,,,,,,,,,,,,,,,,,,,,,,,,,,,,,,,,,,,,,,,,,,,,,,,,,,,,,,,,,,,,,,,,,,,,,,,,,,,,,21,0.7,0,0,99,1,30,0,conditions/schedules/train_x_first/red_square_00/top_left/inputTrain_1.1.xlsx,99,1,1,1,0,,,,,,,,,,,,,,,,,,,,,,,,,,,,,,,,,,,,,,,,,,,,,,,,,,,,,,,,,,,,,,,,,,,,,,,,,,,XMY9RR,train_x,red_square,top_left,2025-08-07_11h12.37.443,HideSeek_v1,2022.2.5,59.93924558067472,
,,,,,,,,,,,,,,,1,0,1,0,0,0,0,0,,,,,,,,,,,,,,,,,,,,,,,,,,,,,,,conditions/schedules/train_x_first/red_square_00/top_left/instructions/Slide13.png,conditions/schedules/train_x_first/red_square_00/top_left/instructions/Audio13.wav,2036.3736516000001,2036.3751377,13,"[4.884585699999661, 18.00114739999981, 16.884126699999797, 19.585566499999914, 5.132955199999742, 6.3219608999997945, 5.910067000000254, 12.219438199999786, 16.108612200000152, 7.155462499999885, 10.49762950000013, 12.997466599999825, 17.330099599999812]","[0.014339400000153546, 0.03217259999973976, 0.013693599999896833, 0.01375789999974586, 0.050878999999895314, 0.05228910000005271, 0.035606100000222796, 0.035203299999921, 0.11350350000020626, 0.05121640000015759, 0.03363970000009431, 12.997472799999741, 17.330106200000046]",0,,,,,,,,,,,,,,,,,,,,,,,,,,,,,,,,,,,,,,,,,,,,,,,,,,,,,,,,,,,,,,,,,,,,,,,,,,,,,,,,,,,,,,,,,,,,,,,,,,,,,,,,,,,,,,,,,,,,,,,,,,,,XMY9RR,train_x,red_square,top_left,2025-08-07_11h12.37.443,HideSeek_v1,2022.2.5,59.93924558067472,
,,,,,,,,,,,,,,,1,0,1,0,1,0,1,0,,,,,,,,,,,,,,,,,,,,,,,,,,,,,,,conditions/schedules/train_x_first/red_square_00/top_left/instructions/Slide14.png,conditions/schedules/train_x_first/red_square_00/top_left/instructions/Audio14.wav,2053.7715878999998,2053.7725493999997,14,"[4.884585699999661, 18.00114739999981, 16.884126699999797, 19.585566499999914, 5.132955199999742, 6.3219608999997945, 5.910067000000254, 12.219438199999786, 16.108612200000152, 7.155462499999885, 10.49762950000013, 12.997466599999825, 17.330099599999812, 13.479098599999816]","[0.014339400000153546, 0.03217259999973976, 0.013693599999896833, 0.01375789999974586, 0.050878999999895314, 0.05228910000005271, 0.035606100000222796, 0.035203299999921, 0.11350350000020626, 0.05121640000015759, 0.03363970000009431, 12.997472799999741, 0.06856749999997191, 13.479106399999637]",0,,,,,,,,,,,,,,,,,,,,,,,,,,,,,,,,,,,,,,,,,,,,,,,,,,,,,,,,,,,,,,,,,,,,,,,,,,,,,,,,,,,,,,,,,,,,,,,,,,,,,,,,,,,,,,,,,,,,,,,,,,,,XMY9RR,train_x,red_square,top_left,2025-08-07_11h12.37.443,HideSeek_v1,2022.2.5,59.93924558067472,
2,4,5,4,5,0,0,16,2,instr_dim1_1,,,,,,1,0,1,0,,,,,0,0,0,0,,,,,,,,,,,,,,,,,,,,,,,,,,,,,,,,,,,,,stimuli/alien_stimuli/16.png,conditions/schedules/train_x_first/red_square_00/top_left/inputInstr_1.xlsx,stimuli/alien_stimuli/16.png,2067.3585013,2067.3585013,2067.3585013,2067.3585013,2067.3531953000006,return,6.9999906000000465,"[-0.16, -0.08, 0, 0.08, 0.16, 0.24, 0.32, 0.4, 0.48, 0.56]","[-0.4, -0.32, -0.24, -0.16, -0.08, 0, 0.08, 0.16, 0.24, 0.32]",5,5,4,4,0.0,0.0,2074.5373148999997,2074.5373148999997,2074.5373148999997,2074.5373148999997,2074.5373148999997,2074.5373148999997,2074.5373148999997,2074.5219541,12.016615900000033,return,11.839878400000316,stimuli/alien_stimuli/16.png,16,4,2,,,,,,,,,,,,,,,,,,,,,,,,,,,,,,,,,,,,,,,,,,,,,,,,,,,,,,,,,,,,,,,,,,,,,,,,,,,,,,,,,,,,,,,,,XMY9RR,train_x,red_square,top_left,2025-08-07_11h12.37.443,HideSeek_v1,2022.2.5,59.93924558067472,
,,,,,,,,,,,30,,,,1,0,1,0,,,,,,,,,,,,,,,,,,,,,,,,,,,,,,,,,,,,,,,,,,,,,,,,,,,,,,,,,,,,,,,,,,,,,,,,,,,,,,21,0.7,0,0,99,1,30,0,conditions/schedules/train_x_first/red_square_00/top_left/inputTrain_1.1.xlsx,99,1,1,1,0,,,,,,,,,,,,,,,,,,,,,,,,,,,,,,,,,,,,,,,,,,,,,,,,,,,,,,,,,,,,,,,,,,,,,,,,,,,XMY9RR,train_x,red_square,top_left,2025-08-07_11h12.37.443,HideSeek_v1,2022.2.5,59.93924558067472,
,,,,,,,,,,,,,,,2,0,2,0,0,0,0,0,,,,,,,,,,,,,,,,,,,,,,,,,,,,,,,conditions/schedules/train_x_first/red_square_00/top_left/instructions/Slide15.png,conditions/schedules/train_x_first/red_square_00/top_left/instructions/Audio15.wav,2086.5536475999997,2086.5542851000005,15,"[4.884585699999661, 18.00114739999981, 16.884126699999797, 19.585566499999914, 5.132955199999742, 6.3219608999997945, 5.910067000000254, 12.219438199999786, 16.108612200000152, 7.155462499999885, 10.49762950000013, 12.997466599999825, 17.330099599999812, 13.479098599999816, 36.39475880000009]","[0.014339400000153546, 0.03217259999973976, 0.013693599999896833, 0.01375789999974586, 0.050878999999895314, 0.05228910000005271, 0.035606100000222796, 0.035203299999921, 0.11350350000020626, 0.05121640000015759, 0.03363970000009431, 12.997472799999741, 0.06856749999997191, 13.479106399999637, 36.394767599999795]",0,,,,,,,,,,,,,,,,,,,,,,,,,,,,,,,,,,,,,,,,,,,,,,,,,,,,,,,,,,,,,,,,,,,,,,,,,,,,,,,,,,,,,,,,,,,,,,,,,,,,,,,,,,,,,,,,,,,,,,,,,,,,XMY9RR,train_x,red_square,top_left,2025-08-07_11h12.37.443,HideSeek_v1,2022.2.5,59.93924558067472,
,,,,,,,,,,,,,,,2,0,2,0,1,0,1,0,,,,,,,,,,,,,,,,,,,,,,,,,,,,,,,conditions/schedules/train_x_first/red_square_00/top_left/instructions/Slide16.png,conditions/schedules/train_x_first/red_square_00/top_left/instructions/Audio16.wav,2123.0183802,2123.0176660999996,16,"[4.884585699999661, 18.00114739999981, 16.884126699999797, 19.585566499999914, 5.132955199999742, 6.3219608999997945, 5.910067000000254, 12.219438199999786, 16.108612200000152, 7.155462499999885, 10.49762950000013, 12.997466599999825, 17.330099599999812, 13.479098599999816, 36.39475880000009, 22.633606099999724]","[0.014339400000153546, 0.03217259999973976, 0.013693599999896833, 0.01375789999974586, 0.050878999999895314, 0.05228910000005271, 0.035606100000222796, 0.035203299999921, 0.11350350000020626, 0.05121640000015759, 0.03363970000009431, 12.997472799999741, 0.06856749999997191, 13.479106399999637, 0.05843849999973827, 22.63361369999984]",0,,,,,,,,,,,,,,,,,,,,,,,,,,,,,,,,,,,,,,,,,,,,,,,,,,,,,,,,,,,,,,,,,,,,,,,,,,,,,,,,,,,,,,,,,,,,,,,,,,,,,,,,,,,,,,,,,,,,,,,,,,,,XMY9RR,train_x,red_square,top_left,2025-08-07_11h12.37.443,HideSeek_v1,2022.2.5,59.93924558067472,
,2,6,5,6,3,0,46,,train_dim1_1,1,30,,,,2,0,2,0,,,,,,,,,0,0,0,0,0,0,0,0,0,0,0,0,,,,,,,,,,,,,,,,,,,,,,,,,stimuli/alien_stimuli/46.png,,,,,,,,,,,,,,,,,,,,,,,,,,,,,,,,,,,,,,,30,,,,,,,,2145.753466,2145.753466,2145.753466,2145.753466,2145.753466,right,3.94154350000008,0,0,0,99,0.08,0.08,right,3.8336554000004526,,,,,,,,,,,,,,,,,,,,,,,,,,,,,,,,,,,,,,,,,,,,,,,,,,,,,,,,,,,,XMY9RR,train_x,red_square,top_left,2025-08-07_11h12.37.443,HideSeek_v1,2022.2.5,59.93924558067472,
,2,6,5,6,3,0,46,,train_dim1_1,1,30,,,,2,0,2,0,,,,,,,,,0,0,0,0,0,0,0,0,1,0,1,0,,,,,,,,,,,,,,,,,,,,,,,,,,,,,,,,,,,,,,,,,,,,,,,,,,,,,,,,,,,,,,,,30,,,,,,,,2149.6816062999997,2149.6816062999997,2149.6816062999997,2149.6816062999997,2149.6816062999997,left,1.9604573999999957,0,0,0,99,0.0,0.08,left,1.8825644999994893,,,,,,,,,,,,,,,,,,,,,,,,,,,,,,,,,,,,,,,,,,,,,,,,,,,,,,,,,,,,XMY9RR,train_x,red_square,top_left,2025-08-07_11h12.37.443,HideSeek_v1,2022.2.5,59.93924558067472,
,2,6,5,6,3,0,46,,train_dim1_1,1,30,,,,2,0,2,0,,,,,,,,,0,0,0,0,0,0,0,0,2,0,2,0,,,,,,,,,,,,,,,,,,,,,,,,,,,,,,,,,,,,,,,,,,,,,,,,,,,,,,,,,,,,,,,,30,,,,,,,,2151.6495643,2151.6495643,2151.6495643,2151.6495643,2151.6495643,up,0.42695729999968535,0,0,0,99,0.0,0.16,up,0.3522873000003983,,,,,,,,,,,,,,,,,,,,,,,,,,,,,,,,,,,,,,,,,,,,,,,,,,,,,,,,,,,,XMY9RR,train_x,red_square,top_left,2025-08-07_11h12.37.443,HideSeek_v1,2022.2.5,59.93924558067472,
,2,6,5,6,3,0,46,,train_dim1_1,1,30,,,,2,0,2,0,,,,,,,,,0,0,0,0,0,0,0,0,3,0,3,0,,,,,,,,,,,,,,,,,,,,,,,,,,,,,,,,,,,,,,,,,,,,,,,,,,,,,,,,,,,,,,,,30,,,,,,,,2152.0832665999997,2152.0832665999997,2152.0832665999997,2152.0832665999997,2152.0832665999997,down,0.8268591999999444,0,0,0,99,0.0,0.08,down,0.7410137000003942,,,,,,,,,,,,,,,,,,,,,,,,,,,,,,,,,,,,,,,,,,,,,,,,,,,,,,,,,,,,XMY9RR,train_x,red_square,top_left,2025-08-07_11h12.37.443,HideSeek_v1,2022.2.5,59.93924558067472,
,2,6,5,6,3,0,46,,train_dim1_1,1,30,,,,2,0,2,0,,,,,,,,,0,0,0,0,0,0,0,0,4,0,4,0,,,,,,,,,,,,,,,,,,,,,,,,,,,,,,,,,,,,,,,,,,,,,,,,,,,,,,,,,,,,,,,,30,,,,,,,,2152.9175973,2152.9175973,2152.9175973,2152.9175973,2152.9175973,down,6.414848900000379,0,0,0,99,0.0,0.0,down,6.32702280000035,,,,,,,,,,,,,,,,,,,,,,,,,,,,,,,,,,,,,,,,,,,,,,,,,,,,,,,,,,,,XMY9RR,train_x,red_square,top_left,2025-08-07_11h12.37.443,HideSeek_v1,2022.2.5,59.93924558067472,
,2,6,5,6,3,0,46,,train_dim1_1,1,30,,,,2,0,2,0,,,,,,,,,0,0,0,0,0,0,0,0,5,0,5,0,,,,,,,,,,,,,,,,,,,,,,,,,,,,,,,,,,,,,,,,,,,,,,,,,,,,,,,,,,,,,,,,30,,,,,,,,2159.340346,2159.340346,2159.340346,2159.340346,2159.340346,down,1.0607973999999558,0,0,0,99,0.0,-0.08,down,0.975009099999852,,,,,,,,,,,,,,,,,,,,,,,,,,,,,,,,,,,,,,,,,,,,,,,,,,,,,,,,,,,,XMY9RR,train_x,red_square,top_left,2025-08-07_11h12.37.443,HideSeek_v1,2022.2.5,59.93924558067472,
,2,6,5,6,3,0,46,,train_dim1_1,1,30,,,,2,0,2,0,,,,,,,,,0,0,0,0,0,0,0,0,6,0,6,0,,,,,,,,,,,,,,,,,,,,,,,,,,,,,,,,,,,,,,,,,,,,,,,,,,,,,,,,,,,,,,,,30,,,,,,,,2160.4070395999997,2160.4070395999997,2160.4070395999997,2160.4070395999997,2160.4070395999997,down,1.8777623999999378,0,0,0,99,0.0,-0.16,down,1.8016965999997865,,,,,,,,,,,,,,,,,,,,,,,,,,,,,,,,,,,,,,,,,,,,,,,,,,,,,,,,,,,,XMY9RR,train_x,red_square,top_left,2025-08-07_11h12.37.443,HideSeek_v1,2022.2.5,59.93924558067472,
,2,6,5,6,3,0,46,,train_dim1_1,1,30,,,,2,0,2,0,,,,,,,,,0,0,0,0,0,0,0,0,7,0,7,0,,,,,,,,,,,,,,,,,,,,,,,,,,,,,,,,,,,,,,,,,,,,,,,,,,,,,,,,,,,,,,,,30,,,,,,,,2162.2920976000005,2162.2920976000005,2162.2920976000005,2162.2920976000005,2162.2920976000005,return,0.6935692000001836,0,0,0,0,0.0,-0.16,return,0.6104766999994808,-3,0,0.0,-0.16,,,,,,,,,,,,,,,,,,,,,,,,,,,,,,,,,,,,,,,,,,,,,,,,,,,,,,,,XMY9RR,train_x,red_square,top_left,2025-08-07_11h12.37.443,HideSeek_v1,2022.2.5,59.93924558067472,
,2,9,2,9,0,0,16,,train_dim1_1,2,30,,,,2,0,2,0,,,,,,,,,0,0,0,0,0,1,1,1,0,0,0,0,,,,,,,,,,,,,,,,,,,,,,,,,stimuli/alien_stimuli/16.png,,,,,,,,,,,,,,,,,,,,,,,,,,,,,stimuli/alien_stimuli/46.png,46,2,3,,,,,,,30,,,,,,,,2179.4096425999996,2179.4096425999996,2179.4096425999996,2179.4096425999996,2179.4096425999996,down,3.3588214999999764,0,0,0,99,0,0.24,down,3.253551899999593,,,,,2177.825092,2179.4096425999996,0.24,0.08,0.0,0.24,0.08,0.24,0.12,0.24,0.08,2164.5575940999997,2164.5575940999997,2164.5575940999997,2164.5575940999997,2164.5575940999997,2164.5575940999997,2164.5575940999997,2164.5575940999997,2164.5467415000007,13.379730899999686,return,13.238097300000163,,,,,,,,,,,,,,,,,,,,,,,,,,,,,,,,,XMY9RR,train_x,red_square,top_left,2025-08-07_11h12.37.443,HideSeek_v1,2022.2.5,59.93924558067472,
,2,9,2,9,0,0,16,,train_dim1_1,2,30,,,,2,0,2,0,,,,,,,,,0,0,0,0,0,1,1,1,1,0,1,0,,,,,,,,,,,,,,,,,,,,,,,,,,,,,,,,,,,,,,,,,,,,,,,,,,,,,,,,,,,,,,,,30,,,,,,,,2182.7491284,2182.7491284,2182.7491284,2182.7491284,2182.7491284,up,0.7578585000001112,0,0,0,99,0,0.32,up,0.6778804999996737,,,,,,,,,,,,,,,,,,,,,,,,,,,,,,,,,,,,,,,,,,,,,,,,,,,,,,,,,,,,XMY9RR,train_x,red_square,top_left,2025-08-07_11h12.37.443,HideSeek_v1,2022.2.5,59.93924558067472,
,2,9,2,9,0,0,16,,train_dim1_1,2,30,,,,2,0,2,0,,,,,,,,,0,0,0,0,0,1,1,1,2,0,2,0,,,,,,,,,,,,,,,,,,,,,,,,,,,,,,,,,,,,,,,,,,,,,,,,,,,,,,,,,,,,,,,,30,,,,,,,,2183.5135296,2183.5135296,2183.5135296,2183.5135296,2183.5135296,return,3.5956178000001273,1,0,0,1,0,0.32,return,3.5055141000004824,-3,0,0,0.32,,,,,,,,,,,,,,,,,,,,,,,,,,,,,,,,,,,,,,,,,,,,,,,,,,,,,,,,XMY9RR,train_x,red_square,top_left,2025-08-07_11h12.37.443,HideSeek_v1,2022.2.5,59.93924558067472,
,4,9,5,9,1,0,26,,train_dim1_1,3,30,,,,2,0,2,0,,,,,,,,,0,0,0,0,0,2,2,2,0,0,0,0,,,,,,,,,,,,,,,,,,,,,,,,,stimuli/alien_stimuli/26.png,,,,,,,,,,,,,,,,,,,,,,,,,,,,,stimuli/alien_stimuli/16.png,16,2,4,,,,,,,30,,,,,,,,2194.4692950999997,2194.4692950999997,2194.4692950999997,2194.4692950999997,2194.4692950999997,down,4.809271000000081,1,0,0,99,0.16,0.24,down,4.7147473000002265,,,,,2192.8922256999995,,0,0.32,0.0,0.0,0.32,0,0.0,0,0.32,2188.7148932,2188.7148932,2188.7148932,2188.7148932,2188.7148932,2188.7148932,2188.7148932,2188.7148932,2188.7001706000005,4.311879200000021,return,4.155505800000128,,,,,,,,,,,,,,,,,,,,,,,,,,,,,,,,,XMY9RR,train_x,red_square,top_left,2025-08-07_11h12.37.443,HideSeek_v1,2022.2.5,59.93924558067472,
,4,9,5,9,1,0,26,,train_dim1_1,3,30,,,,2,0,2,0,,,,,,,,,0,0,0,0,0,2,2,2,1,0,1,0,,,,,,,,,,,,,,,,,,,,,,,,,,,,,,,,,,,,,,,,,,,,,,,,,,,,,,,,,,,,,,,,30,,,,,,,,2199.2782521,2199.2782521,2199.2782521,2199.2782521,2199.2782521,return,5.09668369999963,1,0,0,0,0.16,0.24,return,5.004131599999482,-4,0,0.16,0.24,,,,,,,,,,,,,,,,,,,,,,,,,,,,,,,,,,,,,,,,,,,,,,,,,,,,,,,,XMY9RR,train_x,red_square,top_left,2025-08-07_11h12.37.443,HideSeek_v1,2022.2.5,59.93924558067472,
,2,8,6,8,4,0,56,,train_dim1_1,4,30,,,,2,0,2,0,,,,,,,,,0,0,0,0,0,3,3,3,0,0,0,0,,,,,,,,,,,,,,,,,,,,,,,,,stimuli/alien_stimuli/56.png,,,,,,,,,,,,,,,,,,,,,,,,,,,,,stimuli/alien_stimuli/26.png,26,4,5,,,,,,,30,,,,,,,,2211.9460809,2211.9460809,2211.9460809,2211.9460809,2211.9460809,right,3.158408700000109,1,0,0,99,0.08,0.24,right,3.0644318999991356,,,,,2210.3793306999996,2205.9576731999996,0.24,0.32,0.0,0.08,0.32,0.24,0.2,0.24,0.32,2205.9576731999996,2205.9576731999996,2205.9576731999996,2205.9576731999996,2205.9576731999996,2205.9576731999996,2205.9576731999996,2205.9576731999996,2205.9479306,4.544190999999955,return,4.399142099999835,,,,,,,,,,,,,,,,,,,,,,,,,,,,,,,,,XMY9RR,train_x,red_square,top_left,2025-08-07_11h12.37.443,HideSeek_v1,2022.2.5,59.93924558067472,
,2,8,6,8,4,0,56,,train_dim1_1,4,30,,,,2,0,2,0,,,,,,,,,0,0,0,0,0,3,3,3,1,0,1,0,,,,,,,,,,,,,,,,,,,,,,,,,,,,,,,,,,,,,,,,,,,,,,,,,,,,,,,,,,,,,,,,30,,,,,,,,2215.1053806,2215.1053806,2215.1053806,2215.1053806,2215.1053806,right,0.9262549000004583,1,0,0,99,0.16,0.24,right,0.8478302999999414,,,,,,,,,,,,,,,,,,,,,,,,,,,,,,,,,,,,,,,,,,,,,,,,,,,,,,,,,,,,XMY9RR,train_x,red_square,top_left,2025-08-07_11h12.37.443,HideSeek_v1,2022.2.5,59.93924558067472,
,2,8,6,8,4,0,56,,train_dim1_1,4,30,,,,2,0,2,0,,,,,,,,,0,0,0,0,0,3,3,3,2,0,2,0,,,,,,,,,,,,,,,,,,,,,,,,,,,,,,,,,,,,,,,,,,,,,,,,,,,,,,,,,,,,,,,,30,,,,,,,,2216.0385332999995,2216.0385332999995,2216.0385332999995,2216.0385332999995,2216.0385332999995,right,0.5765340999996624,1,0,0,99,0.24,0.24,right,0.4932468999993489,,,,,,,,,,,,,,,,,,,,,,,,,,,,,,,,,,,,,,,,,,,,,,,,,,,,,,,,,,,,XMY9RR,train_x,red_square,top_left,2025-08-07_11h12.37.443,HideSeek_v1,2022.2.5,59.93924558067472,
,2,8,6,8,4,0,56,,train_dim1_1,4,30,,,,2,0,2,0,,,,,,,,,0,0,0,0,0,3,3,3,3,0,3,0,,,,,,,,,,,,,,,,,,,,,,,,,,,,,,,,,,,,,,,,,,,,,,,,,,,,,,,,,,,,,,,,30,,,,,,,,2216.6232111,2216.6232111,2216.6232111,2216.6232111,2216.6232111,right,0.5434530000002269,1,0,0,99,0.32,0.24,right,0.4614282000000003,,,,,,,,,,,,,,,,,,,,,,,,,,,,,,,,,,,,,,,,,,,,,,,,,,,,,,,,,,,,XMY9RR,train_x,red_square,top_left,2025-08-07_11h12.37.443,HideSeek_v1,2022.2.5,59.93924558067472,
,2,8,6,8,4,0,56,,train_dim1_1,4,30,,,,2,0,2,0,,,,,,,,,0,0,0,0,0,3,3,3,4,0,4,0,,,,,,,,,,,,,,,,,,,,,,,,,,,,,,,,,,,,,,,,,,,,,,,,,,,,,,,,,,,,,,,,30,,,,,,,,2217.1740170000003,2217.1740170000003,2217.1740170000003,2217.1740170000003,2217.1740170000003,right,1.3109777999998187,1,0,0,99,0.4,0.24,right,1.2247181999998702,,,,,,,,,,,,,,,,,,,,,,,,,,,,,,,,,,,,,,,,,,,,,,,,,,,,,,,,,,,,XMY9RR,train_x,red_square,top_left,2025-08-07_11h12.37.443,HideSeek_v1,2022.2.5,59.93924558067472,
,2,8,6,8,4,0,56,,train_dim1_1,4,30,,,,2,0,2,0,,,,,,,,,0,0,0,0,0,3,3,3,5,0,5,0,,,,,,,,,,,,,,,,,,,,,,,,,,,,,,,,,,,,,,,,,,,,,,,,,,,,,,,,,,,,,,,,30,,,,,,,,2218.4907459999995,2218.4907459999995,2218.4907459999995,2218.4907459999995,2218.4907459999995,return,2.8621437000001606,1,1,0,0,0.4,0.24,return,2.775497599999426,-4,5,0.4,0.24,,,,,,,,,,,,,,,,,,,,,,,,,,,,,,,,,,,,,,,,,,,,,,,,,,,,,,,,XMY9RR,train_x,red_square,top_left,2025-08-07_11h12.37.443,HideSeek_v1,2022.2.5,59.93924558067472,
,0,7,5,7,5,0,66,,train_dim1_1,5,30,,,,2,0,2,0,,,,,,,,,0,0,0,0,0,4,4,4,0,0,0,0,,,,,,,,,,,,,,,,,,,,,,,,,stimuli/alien_stimuli/66.png,,,,,,,,,,,,,,,,,,,,,,,,,,,,,stimuli/alien_stimuli/56.png,56,2,6,,,,,,,30,,,,,,,,2234.7801309999995,2234.7801309999995,2234.7801309999995,2234.7801309999995,2234.7801309999995,right,2.5553627999997843,1,1,0,99,-0.08,0.16,right,2.4543135000001257,,,,,2233.1923089,,0.32,0.24,0.0,0.32,0.24,0.32,0.16,0.32,0.24,2222.9475131,2222.9475131,2222.9475131,2222.9475131,2222.9475131,2222.9475131,2222.9475131,2222.9475131,2222.9285418000004,10.36752979999983,return,10.223401999999396,,,,,,,,,,,,,,,,,,,,,,,,,,,,,,,,,XMY9RR,train_x,red_square,top_left,2025-08-07_11h12.37.443,HideSeek_v1,2022.2.5,59.93924558067472,
,0,7,5,7,5,0,66,,train_dim1_1,5,30,,,,2,0,2,0,,,,,,,,,0,0,0,0,0,4,4,4,1,0,1,0,,,,,,,,,,,,,,,,,,,,,,,,,,,,,,,,,,,,,,,,,,,,,,,,,,,,,,,,,,,,,,,,30,,,,,,,,2237.3216591,2237.3216591,2237.3216591,2237.3216591,2237.3216591,right,0.4765770000003613,1,1,0,99,0.0,0.16,right,0.4012601000001723,,,,,,,,,,,,,,,,,,,,,,,,,,,,,,,,,,,,,,,,,,,,,,,,,,,,,,,,,,,,XMY9RR,train_x,red_square,top_left,2025-08-07_11h12.37.443,HideSeek_v1,2022.2.5,59.93924558067472,
,0,7,5,7,5,0,66,,train_dim1_1,5,30,,,,2,0,2,0,,,,,,,,,0,0,0,0,0,4,4,4,2,0,2,0,,,,,,,,,,,,,,,,,,,,,,,,,,,,,,,,,,,,,,,,,,,,,,,,,,,,,,,,,,,,,,,,30,,,,,,,,2237.8044787999997,2237.8044787999997,2237.8044787999997,2237.8044787999997,2237.8044787999997,right,0.4266913999999815,1,1,0,99,0.08,0.16,right,0.34046359999933884,,,,,,,,,,,,,,,,,,,,,,,,,,,,,,,,,,,,,,,,,,,,,,,,,,,,,,,,,,,,XMY9RR,train_x,red_square,top_left,2025-08-07_11h12.37.443,HideSeek_v1,2022.2.5,59.93924558067472,
,0,7,5,7,5,0,66,,train_dim1_1,5,30,,,,2,0,2,0,,,,,,,,,0,0,0,0,0,4,4,4,3,0,3,0,,,,,,,,,,,,,,,,,,,,,,,,,,,,,,,,,,,,,,,,,,,,,,,,,,,,,,,,,,,,,,,,30,,,,,,,,2238.2383574999994,2238.2383574999994,2238.2383574999994,2238.2383574999994,2238.2383574999994,right,0.5099687000001722,1,1,0,99,0.16,0.16,right,0.42459889999986444,,,,,,,,,,,,,,,,,,,,,,,,,,,,,,,,,,,,,,,,,,,,,,,,,,,,,,,,,,,,XMY9RR,train_x,red_square,top_left,2025-08-07_11h12.37.443,HideSeek_v1,2022.2.5,59.93924558067472,
,0,7,5,7,5,0,66,,train_dim1_1,5,30,,,,2,0,2,0,,,,,,,,,0,0,0,0,0,4,4,4,4,0,4,0,,,,,,,,,,,,,,,,,,,,,,,,,,,,,,,,,,,,,,,,,,,,,,,,,,,,,,,,,,,,,,,,30,,,,,,,,2238.7562725,2238.7562725,2238.7562725,2238.7562725,2238.7562725,right,0.7597814999999173,1,1,0,99,0.24,0.16,right,0.6760705999993206,,,,,,,,,,,,,,,,,,,,,,,,,,,,,,,,,,,,,,,,,,,,,,,,,,,,,,,,,,,,XMY9RR,train_x,red_square,top_left,2025-08-07_11h12.37.443,HideSeek_v1,2022.2.5,59.93924558067472,
,0,7,5,7,5,0,66,,train_dim1_1,5,30,,,,2,0,2,0,,,,,,,,,0,0,0,0,0,4,4,4,5,0,5,0,,,,,,,,,,,,,,,,,,,,,,,,,,,,,,,,,,,,,,,,,,,,,,,,,,,,,,,,,,,,,,,,30,,,,,,,,2239.5227448999995,2239.5227448999995,2239.5227448999995,2239.5227448999995,2239.5227448999995,return,1.5442662999994354,2,0,0,1,0.24,0.16,return,1.4607889999995223,-4,10,0.24,0.16,,,,,,,,,,,,,,,,,,,,,,,,,,,,,,,,,,,,,,,,,,,,,,,,,,,,,,,,XMY9RR,train_x,red_square,top_left,2025-08-07_11h12.37.443,HideSeek_v1,2022.2.5,59.93924558067472,
,0,5,1,5,1,0,26,,train_dim1_1,6,30,,,,2,0,2,0,,,,,,,,,0,0,0,0,0,5,5,5,0,0,0,0,,,,,,,,,,,,,,,,,,,,,,,,,stimuli/alien_stimuli/26.png,,,,,,,,,,,,,,,,,,,,,,,,,,,,,stimuli/alien_stimuli/66.png,66,0,7,,,,,,,30,,,,,,,,2247.0602243000003,2247.0602243000003,2247.0602243000003,2247.0602243000003,2247.0602243000003,right,2.190421199999946,2,0,0,99,-0.08,0,right,2.0918108999992455,,,,,2245.4837318,2242.6449102999995,0.24,0.16,0.0,0.4,0.16,0.24,0.039999999999999994,0.24,0.16,2242.6449102999995,2242.6449102999995,2242.6449102999995,2242.6449102999995,2242.6449102999995,2242.6449102999995,2242.6449102999995,2242.6449102999995,2242.6281863,2.9569893999996566,return,2.8067855999995572,,,,,,,,,,,,,,,,,,,,,,,,,,,,,,,,,XMY9RR,train_x,red_square,top_left,2025-08-07_11h12.37.443,HideSeek_v1,2022.2.5,59.93924558067472,
,0,5,1,5,1,0,26,,train_dim1_1,6,30,,,,2,0,2,0,,,,,,,,,0,0,0,0,0,5,5,5,1,0,1,0,,,,,,,,,,,,,,,,,,,,,,,,,,,,,,,,,,,,,,,,,,,,,,,,,,,,,,,,,,,,,,,,30,,,,,,,,2249.2512795000002,2249.2512795000002,2249.2512795000002,2249.2512795000002,2249.2512795000002,left,0.8263649999998961,2,0,0,99,-0.16,0,left,0.742951499999208,,,,,,,,,,,,,,,,,,,,,,,,,,,,,,,,,,,,,,,,,,,,,,,,,,,,,,,,,,,,XMY9RR,train_x,red_square,top_left,2025-08-07_11h12.37.443,HideSeek_v1,2022.2.5,59.93924558067472,
,0,5,1,5,1,0,26,,train_dim1_1,6,30,,,,2,0,2,0,,,,,,,,,0,0,0,0,0,5,5,5,2,0,2,0,,,,,,,,,,,,,,,,,,,,,,,,,,,,,,,,,,,,,,,,,,,,,,,,,,,,,,,,,,,,,,,,30,,,,,,,,2250.0850601,2250.0850601,2250.0850601,2250.0850601,2250.0850601,right,2.1451435999997557,2,0,0,99,-0.08,0,right,2.0675994999999148,,,,,,,,,,,,,,,,,,,,,,,,,,,,,,,,,,,,,,,,,,,,,,,,,,,,,,,,,,,,XMY9RR,train_x,red_square,top_left,2025-08-07_11h12.37.443,HideSeek_v1,2022.2.5,59.93924558067472,
,0,5,1,5,1,0,26,,train_dim1_1,6,30,,,,2,0,2,0,,,,,,,,,0,0,0,0,0,5,5,5,3,0,3,0,,,,,,,,,,,,,,,,,,,,,,,,,,,,,,,,,,,,,,,,,,,,,,,,,,,,,,,,,,,,,,,,30,,,,,,,,2252.2375216,2252.2375216,2252.2375216,2252.2375216,2252.2375216,right,1.010386899999503,2,0,0,99,0.0,0,right,0.9306586999998672,,,,,,,,,,,,,,,,,,,,,,,,,,,,,,,,,,,,,,,,,,,,,,,,,,,,,,,,,,,,XMY9RR,train_x,red_square,top_left,2025-08-07_11h12.37.443,HideSeek_v1,2022.2.5,59.93924558067472,
,0,5,1,5,1,0,26,,train_dim1_1,6,30,,,,2,0,2,0,,,,,,,,,0,0,0,0,0,5,5,5,4,0,4,0,,,,,,,,,,,,,,,,,,,,,,,,,,,,,,,,,,,,,,,,,,,,,,,,,,,,,,,,,,,,,,,,30,,,,,,,,2253.2552705999997,2253.2552705999997,2253.2552705999997,2253.2552705999997,2253.2552705999997,return,3.2453568999999334,2,1,0,0,0.0,0,return,3.1628323000002183,-4,12,0.0,0,,,,,,,,,,,,,,,,,,,,,,,,,,,,,,,,,,,,,,,,,,,,,,,,,,,,,,,,XMY9RR,train_x,red_square,top_left,2025-08-07_11h12.37.443,HideSeek_v1,2022.2.5,59.93924558067472,
,3,5,8,5,5,0,66,,train_dim1_1,7,30,,,,2,0,2,0,,,,,,,,,0,0,0,0,0,6,6,6,0,0,0,0,,,,,,,,,,,,,,,,,,,,,,,,,stimuli/alien_stimuli/66.png,,,,,,,,,,,,,,,,,,,,,,,,,,,,,stimuli/alien_stimuli/26.png,26,0,8,,,,,,,30,,,,,,,,2262.5681918,2262.5681918,2262.5681918,2262.5681918,2262.5681918,right,3.2253161999997246,2,1,0,99,0.16,0,right,3.1305086999998366,,,,,2260.9986871,2258.078087,-0.08,0,0.0,0.08,0.0,-0.08,-0.12,-0.08,0,2258.078087,2258.078087,2258.078087,2258.078087,2258.078087,2258.078087,2258.078087,2258.078087,2258.0583602,3.0431883000001108,return,2.903750999999602,,,,,,,,,,,,,,,,,,,,,,,,,,,,,,,,,XMY9RR,train_x,red_square,top_left,2025-08-07_11h12.37.443,HideSeek_v1,2022.2.5,59.93924558067472,
,3,5,8,5,5,0,66,,train_dim1_1,7,30,,,,2,0,2,0,,,,,,,,,0,0,0,0,0,6,6,6,1,0,1,0,,,,,,,,,,,,,,,,,,,,,,,,,,,,,,,,,,,,,,,,,,,,,,,,,,,,,,,,,,,,,,,,30,,,,,,,,2265.7944468999995,2265.7944468999995,2265.7944468999995,2265.7944468999995,2265.7944468999995,right,0.47632530000009865,2,1,0,99,0.24,0,right,0.39438549999954375,,,,,,,,,,,,,,,,,,,,,,,,,,,,,,,,,,,,,,,,,,,,,,,,,,,,,,,,,,,,XMY9RR,train_x,red_square,top_left,2025-08-07_11h12.37.443,HideSeek_v1,2022.2.5,59.93924558067472,
,3,5,8,5,5,0,66,,train_dim1_1,7,30,,,,2,0,2,0,,,,,,,,,0,0,0,0,0,6,6,6,2,0,2,0,,,,,,,,,,,,,,,,,,,,,,,,,,,,,,,,,,,,,,,,,,,,,,,,,,,,,,,,,,,,,,,,30,,,,,,,,2266.2776501,2266.2776501,2266.2776501,2266.2776501,2266.2776501,right,0.6605532999992647,2,1,0,99,0.32,0,right,0.5782316000002083,,,,,,,,,,,,,,,,,,,,,,,,,,,,,,,,,,,,,,,,,,,,,,,,,,,,,,,,,,,,XMY9RR,train_x,red_square,top_left,2025-08-07_11h12.37.443,HideSeek_v1,2022.2.5,59.93924558067472,
,3,5,8,5,5,0,66,,train_dim1_1,7,30,,,,2,0,2,0,,,,,,,,,0,0,0,0,0,6,6,6,3,0,3,0,,,,,,,,,,,,,,,,,,,,,,,,,,,,,,,,,,,,,,,,,,,,,,,,,,,,,,,,,,,,,,,,30,,,,,,,,2266.9461135,2266.9461135,2266.9461135,2266.9461135,2266.9461135,right,0.4935872999994899,2,1,0,99,0.4,0,right,0.4193840999994336,,,,,,,,,,,,,,,,,,,,,,,,,,,,,,,,,,,,,,,,,,,,,,,,,,,,,,,,,,,,XMY9RR,train_x,red_square,top_left,2025-08-07_11h12.37.443,HideSeek_v1,2022.2.5,59.93924558067472,
,3,5,8,5,5,0,66,,train_dim1_1,7,30,,,,2,0,2,0,,,,,,,,,0,0,0,0,0,6,6,6,4,0,4,0,,,,,,,,,,,,,,,,,,,,,,,,,,,,,,,,,,,,,,,,,,,,,,,,,,,,,,,,,,,,,,,,30,,,,,,,,2267.4455290999995,2267.4455290999995,2267.4455290999995,2267.4455290999995,2267.4455290999995,right,0.8101082000002862,2,1,0,99,0.48000000000000004,0,right,0.722277499999791,,,,,,,,,,,,,,,,,,,,,,,,,,,,,,,,,,,,,,,,,,,,,,,,,,,,,,,,,,,,XMY9RR,train_x,red_square,top_left,2025-08-07_11h12.37.443,HideSeek_v1,2022.2.5,59.93924558067472,
,3,5,8,5,5,0,66,,train_dim1_1,7,30,,,,2,0,2,0,,,,,,,,,0,0,0,0,0,6,6,6,5,0,5,0,,,,,,,,,,,,,,,,,,,,,,,,,,,,,,,,,,,,,,,,,,,,,,,,,,,,,,,,,,,,,,,,30,,,,,,,,2268.2627651000003,2268.2627651000003,2268.2627651000003,2268.2627651000003,2268.2627651000003,return,1.1269410000004427,3,0,0,1,0.48000000000000004,0,return,1.0419153999998798,-4,17,0.48000000000000004,0,,,,,,,,,,,,,,,,,,,,,,,,,,,,,,,,,,,,,,,,,,,,,,,,,,,,,,,,XMY9RR,train_x,red_square,top_left,2025-08-07_11h12.37.443,HideSeek_v1,2022.2.5,59.93924558067472,
,0,9,3,9,3,0,46,,train_dim1_1,8,30,,,,2,0,2,0,,,,,,,,,0,0,0,0,0,7,7,7,0,0,0,0,,,,,,,,,,,,,,,,,,,,,,,,,stimuli/alien_stimuli/46.png,,,,,,,,,,,,,,,,,,,,,,,,,,,,,stimuli/alien_stimuli/66.png,66,3,9,,,,,,,30,,,,,,,,2275.9478371999994,2275.9478371999994,2275.9478371999994,2275.9478371999994,2275.9478371999994,down,3.974985800000468,3,0,0,99,-0.16,0.24,down,3.890950499999917,,,,,2274.3765069,2270.9747805999996,0.48,0,0.0,0.4,0.0,0.48,0.27999999999999997,0.48,0,2270.9747805999996,2270.9747805999996,2270.9747805999996,2270.9747805999996,2270.9747805999996,2270.9747805999996,2270.9747805999996,2270.9747805999996,2270.9521526000003,3.52544349999971,return,3.373323599999594,,,,,,,,,,,,,,,,,,,,,,,,,,,,,,,,,XMY9RR,train_x,red_square,top_left,2025-08-07_11h12.37.443,HideSeek_v1,2022.2.5,59.93924558067472,
,0,9,3,9,3,0,46,,train_dim1_1,8,30,,,,2,0,2,0,,,,,,,,,0,0,0,0,0,7,7,7,1,0,1,0,,,,,,,,,,,,,,,,,,,,,,,,,,,,,,,,,,,,,,,,,,,,,,,,,,,,,,,,,,,,,,,,30,,,,,,,,2279.9240076999995,2279.9240076999995,2279.9240076999995,2279.9240076999995,2279.9240076999995,down,0.6427085000004809,3,0,0,99,-0.16,0.15999999999999998,down,0.5599259999996775,,,,,,,,,,,,,,,,,,,,,,,,,,,,,,,,,,,,,,,,,,,,,,,,,,,,,,,,,,,,XMY9RR,train_x,red_square,top_left,2025-08-07_11h12.37.443,HideSeek_v1,2022.2.5,59.93924558067472,
,0,9,3,9,3,0,46,,train_dim1_1,8,30,,,,2,0,2,0,,,,,,,,,0,0,0,0,0,7,7,7,2,0,2,0,,,,,,,,,,,,,,,,,,,,,,,,,,,,,,,,,,,,,,,,,,,,,,,,,,,,,,,,,,,,,,,,30,,,,,,,,2280.5733795999995,2280.5733795999995,2280.5733795999995,2280.5733795999995,2280.5733795999995,down,1.4945103000000017,3,0,0,99,-0.16,0.07999999999999997,down,1.4144170999995822,,,,,,,,,,,,,,,,,,,,,,,,,,,,,,,,,,,,,,,,,,,,,,,,,,,,,,,,,,,,XMY9RR,train_x,red_square,top_left,2025-08-07_11h12.37.443,HideSeek_v1,2022.2.5,59.93924558067472,
,0,9,3,9,3,0,46,,train_dim1_1,8,30,,,,2,0,2,0,,,,,,,,,0,0,0,0,0,7,7,7,3,0,3,0,,,,,,,,,,,,,,,,,,,,,,,,,,,,,,,,,,,,,,,,,,,,,,,,,,,,,,,,,,,,,,,,30,,,,,,,,2282.0754699,2282.0754699,2282.0754699,2282.0754699,2282.0754699,return,0.5099300000001676,3,0,0,0,-0.16,0.07999999999999997,return,0.4359713000001193,-7,17,-0.16,0.07999999999999997,,,,,,,,,,,,,,,,,,,,,,,,,,,,,,,,,,,,,,,,,,,,,,,,,,,,,,,,XMY9RR,train_x,red_square,top_left,2025-08-07_11h12.37.443,HideSeek_v1,2022.2.5,59.93924558067472,
,1,5,5,5,4,0,56,,train_dim1_1,9,30,,,,2,0,2,0,,,,,,,,,0,0,0,0,0,8,8,8,0,0,0,0,,,,,,,,,,,,,,,,,,,,,,,,,stimuli/alien_stimuli/56.png,,,,,,,,,,,,,,,,,,,,,,,,,,,,,stimuli/alien_stimuli/46.png,46,0,10,,,,,,,30,,,,,,,,2288.1832403,2288.1832403,2288.1832403,2288.1832403,2288.1832403,right,3.0575499999995372,3,0,0,99,0.0,0,right,2.958150400000477,,,,,2286.6152617,2284.1614887999995,0.08,0.32,0.0,0.24,0.32,0.08,-0.04,0.08,0.32,2284.1614887999995,2284.1614887999995,2284.1614887999995,2284.1614887999995,2284.1614887999995,2284.1614887999995,2284.1614887999995,2284.1614887999995,2284.1460434000005,2.565026800000851,return,2.410105999999132,,,,,,,,,,,,,,,,,,,,,,,,,,,,,,,,,XMY9RR,train_x,red_square,top_left,2025-08-07_11h12.37.443,HideSeek_v1,2022.2.5,59.93924558067472,
,1,5,5,5,4,0,56,,train_dim1_1,9,30,,,,2,0,2,0,,,,,,,,,0,0,0,0,0,8,8,8,1,0,1,0,,,,,,,,,,,,,,,,,,,,,,,,,,,,,,,,,,,,,,,,,,,,,,,,,,,,,,,,,,,,,,,,30,,,,,,,,2291.2357498,2291.2357498,2291.2357498,2291.2357498,2291.2357498,right,0.37627429999974993,3,0,0,99,0.08,0,right,0.28740090000042073,,,,,,,,,,,,,,,,,,,,,,,,,,,,,,,,,,,,,,,,,,,,,,,,,,,,,,,,,,,,XMY9RR,train_x,red_square,top_left,2025-08-07_11h12.37.443,HideSeek_v1,2022.2.5,59.93924558067472,
,1,5,5,5,4,0,56,,train_dim1_1,9,30,,,,2,0,2,0,,,,,,,,,0,0,0,0,0,8,8,8,2,0,2,0,,,,,,,,,,,,,,,,,,,,,,,,,,,,,,,,,,,,,,,,,,,,,,,,,,,,,,,,,,,,,,,,30,,,,,,,,2291.6177015000003,2291.6177015000003,2291.6177015000003,2291.6177015000003,2291.6177015000003,right,0.37719749999996566,3,0,0,99,0.16,0,right,0.2930047999996077,,,,,,,,,,,,,,,,,,,,,,,,,,,,,,,,,,,,,,,,,,,,,,,,,,,,,,,,,,,,XMY9RR,train_x,red_square,top_left,2025-08-07_11h12.37.443,HideSeek_v1,2022.2.5,59.93924558067472,
,1,5,5,5,4,0,56,,train_dim1_1,9,30,,,,2,0,2,0,,,,,,,,,0,0,0,0,0,8,8,8,3,0,3,0,,,,,,,,,,,,,,,,,,,,,,,,,,,,,,,,,,,,,,,,,,,,,,,,,,,,,,,,,,,,,,,,30,,,,,,,,2292.0016214999996,2292.0016214999996,2292.0016214999996,2292.0016214999996,2292.0016214999996,right,0.39304470000024594,3,0,0,99,0.24,0,right,0.30608250000000226,,,,,,,,,,,,,,,,,,,,,,,,,,,,,,,,,,,,,,,,,,,,,,,,,,,,,,,,,,,,XMY9RR,train_x,red_square,top_left,2025-08-07_11h12.37.443,HideSeek_v1,2022.2.5,59.93924558067472,
,1,5,5,5,4,0,56,,train_dim1_1,9,30,,,,2,0,2,0,,,,,,,,,0,0,0,0,0,8,8,8,4,0,4,0,,,,,,,,,,,,,,,,,,,,,,,,,,,,,,,,,,,,,,,,,,,,,,,,,,,,,,,,,,,,,,,,30,,,,,,,,2292.4028281,2292.4028281,2292.4028281,2292.4028281,2292.4028281,return,2.177909600000021,4,0,0,1,0.24,0,return,2.0997443000003386,-7,21,0.24,0,,,,,,,,,,,,,,,,,,,,,,,,,,,,,,,,,,,,,,,,,,,,,,,,,,,,,,,,XMY9RR,train_x,red_square,top_left,2025-08-07_11h12.37.443,HideSeek_v1,2022.2.5,59.93924558067472,
,0,8,0,8,0,0,16,,train_dim1_1,10,30,,,,2,0,2,0,,,,,,,,,0,0,0,0,0,9,9,9,0,0,0,0,,,,,,,,,,,,,,,,,,,,,,,,,stimuli/alien_stimuli/16.png,,,,,,,,,,,,,,,,,,,,,,,,,,,,,stimuli/alien_stimuli/56.png,56,1,11,,,,,,,30,,,,,,,,2299.3029188,2299.3029188,2299.3029188,2299.3029188,2299.3029188,right,1.9906424999999217,4,0,0,99,-0.08,0.24,right,1.8888611999998375,,,,,2297.7126615999996,2296.1626747,0.24,0,0.0,0.32,0.0,0.24,0.07999999999999999,0.24,0,2296.1626747,2296.1626747,2296.1626747,2296.1626747,2296.1626747,2296.1626747,2296.1626747,2296.1626747,2296.1562368,1.6756309000002148,return,1.5281297999997605,,,,,,,,,,,,,,,,,,,,,,,,,,,,,,,,,XMY9RR,train_x,red_square,top_left,2025-08-07_11h12.37.443,HideSeek_v1,2022.2.5,59.93924558067472,
,0,8,0,8,0,0,16,,train_dim1_1,10,30,,,,2,0,2,0,,,,,,,,,0,0,0,0,0,9,9,9,1,0,1,0,,,,,,,,,,,,,,,,,,,,,,,,,,,,,,,,,,,,,,,,,,,,,,,,,,,,,,,,,,,,,,,,30,,,,,,,,2301.2788315,2301.2788315,2301.2788315,2301.2788315,2301.2788315,left,0.6431249999995998,4,0,0,99,-0.16,0.24,left,0.5541308999997909,,,,,,,,,,,,,,,,,,,,,,,,,,,,,,,,,,,,,,,,,,,,,,,,,,,,,,,,,,,,XMY9RR,train_x,red_square,top_left,2025-08-07_11h12.37.443,HideSeek_v1,2022.2.5,59.93924558067472,
,0,8,0,8,0,0,16,,train_dim1_1,10,30,,,,2,0,2,0,,,,,,,,,0,0,0,0,0,9,9,9,2,0,2,0,,,,,,,,,,,,,,,,,,,,,,,,,,,,,,,,,,,,,,,,,,,,,,,,,,,,,,,,,,,,,,,,30,,,,,,,,2301.9297421,2301.9297421,2301.9297421,2301.9297421,2301.9297421,return,0.9430498000001535,5,0,0,1,-0.16,0.24,return,0.8588403000001108,-7,21,-0.16,0.24,,,,,,,,,,,,,,,,,,,,,,,,,,,,,,,,,,,,,,,,,,,,,,,,,,,,,,,,XMY9RR,train_x,red_square,top_left,2025-08-07_11h12.37.443,HideSeek_v1,2022.2.5,59.93924558067472,
,2,7,5,7,3,0,46,,train_dim1_1,11,30,,,,2,0,2,0,,,,,,,,,0,0,0,0,0,10,10,10,0,0,0,0,,,,,,,,,,,,,,,,,,,,,,,,,stimuli/alien_stimuli/46.png,,,,,,,,,,,,,,,,,,,,,,,,,,,,,stimuli/alien_stimuli/16.png,16,0,12,,,,,,,30,,,,,,,,2307.4255175,2307.4255175,2307.4255175,2307.4255175,2307.4255175,right,4.12203320000026,5,0,0,99,0.08,0.16,right,4.0198630999991565,,,,,2305.8359425,2304.4358835000003,-0.16,0.24,0.0,0.0,0.24,-0.16,-0.16,-0.16,0.24,2304.4358835000003,2304.4358835000003,2304.4358835000003,2304.4358835000003,2304.4358835000003,2304.4358835000003,2304.4358835000003,2304.4358835000003,2304.4297269000003,1.5098040000002584,return,1.383189099999754,,,,,,,,,,,,,,,,,,,,,,,,,,,,,,,,,XMY9RR,train_x,red_square,top_left,2025-08-07_11h12.37.443,HideSeek_v1,2022.2.5,59.93924558067472,
,2,7,5,7,3,0,46,,train_dim1_1,11,30,,,,2,0,2,0,,,,,,,,,0,0,0,0,0,10,10,10,1,0,1,0,,,,,,,,,,,,,,,,,,,,,,,,,,,,,,,,,,,,,,,,,,,,,,,,,,,,,,,,,,,,,,,,30,,,,,,,,2311.5335912,2311.5335912,2311.5335912,2311.5335912,2311.5335912,right,0.3762980999999854,5,0,0,99,0.16,0.16,right,0.29422760000011294,,,,,,,,,,,,,,,,,,,,,,,,,,,,,,,,,,,,,,,,,,,,,,,,,,,,,,,,,,,,XMY9RR,train_x,red_square,top_left,2025-08-07_11h12.37.443,HideSeek_v1,2022.2.5,59.93924558067472,
,2,7,5,7,3,0,46,,train_dim1_1,11,30,,,,2,0,2,0,,,,,,,,,0,0,0,0,0,10,10,10,2,0,2,0,,,,,,,,,,,,,,,,,,,,,,,,,,,,,,,,,,,,,,,,,,,,,,,,,,,,,,,,,,,,,,,,30,,,,,,,,2311.9162521,2311.9162521,2311.9162521,2311.9162521,2311.9162521,right,0.4097318999993149,5,0,0,99,0.24,0.16,right,0.33630280000011226,,,,,,,,,,,,,,,,,,,,,,,,,,,,,,,,,,,,,,,,,,,,,,,,,,,,,,,,,,,,XMY9RR,train_x,red_square,top_left,2025-08-07_11h12.37.443,HideSeek_v1,2022.2.5,59.93924558067472,
,2,7,5,7,3,0,46,,train_dim1_1,11,30,,,,2,0,2,0,,,,,,,,,0,0,0,0,0,10,10,10,3,0,3,0,,,,,,,,,,,,,,,,,,,,,,,,,,,,,,,,,,,,,,,,,,,,,,,,,,,,,,,,,,,,,,,,30,,,,,,,,2312.3339471,2312.3339471,2312.3339471,2312.3339471,2312.3339471,return,0.7604138999995484,6,0,0,1,0.24,0.16,return,0.679415199999994,-7,24,0.24,0.16,,,,,,,,,,,,,,,,,,,,,,,,,,,,,,,,,,,,,,,,,,,,,,,,,,,,,,,,XMY9RR,train_x,red_square,top_left,2025-08-07_11h12.37.443,HideSeek_v1,2022.2.5,59.93924558067472,
,0,5,1,5,1,0,26,,train_dim1_1,12,30,,,,2,0,2,0,,,,,,,,,0,0,0,0,0,11,11,11,0,0,0,0,,,,,,,,,,,,,,,,,,,,,,,,,stimuli/alien_stimuli/26.png,,,,,,,,,,,,,,,,,,,,,,,,,,,,,stimuli/alien_stimuli/46.png,46,2,13,,,,,,,30,,,,,,,,2318.8043546999997,2318.8043546999997,2318.8043546999997,2318.8043546999997,2318.8043546999997,right,1.8727199000004475,6,0,0,99,-0.08,0,right,1.7623393000001215,,,,,2317.2180392,2314.656475,0.24,0.16,0.0,0.24,0.16,0.24,0.12,0.24,0.16,2314.656475,2314.656475,2314.656475,2314.656475,2314.656475,2314.656475,2314.656475,2314.656475,2314.6383257999996,2.6595542999993995,return,2.5341612999998233,,,,,,,,,,,,,,,,,,,,,,,,,,,,,,,,,XMY9RR,train_x,red_square,top_left,2025-08-07_11h12.37.443,HideSeek_v1,2022.2.5,59.93924558067472,
,0,5,1,5,1,0,26,,train_dim1_1,12,30,,,,2,0,2,0,,,,,,,,,0,0,0,0,0,11,11,11,1,0,1,0,,,,,,,,,,,,,,,,,,,,,,,,,,,,,,,,,,,,,,,,,,,,,,,,,,,,,,,,,,,,,,,,30,,,,,,,,2320.6617549000002,2320.6617549000002,2320.6617549000002,2320.6617549000002,2320.6617549000002,right,0.7595846000003803,6,0,0,99,0.0,0,right,0.6812776999993275,,,,,,,,,,,,,,,,,,,,,,,,,,,,,,,,,,,,,,,,,,,,,,,,,,,,,,,,,,,,XMY9RR,train_x,red_square,top_left,2025-08-07_11h12.37.443,HideSeek_v1,2022.2.5,59.93924558067472,
,0,5,1,5,1,0,26,,train_dim1_1,12,30,,,,2,0,2,0,,,,,,,,,0,0,0,0,0,11,11,11,2,0,2,0,,,,,,,,,,,,,,,,,,,,,,,,,,,,,,,,,,,,,,,,,,,,,,,,,,,,,,,,,,,,,,,,30,,,,,,,,2321.4285258,2321.4285258,2321.4285258,2321.4285258,2321.4285258,left,1.6106268999992608,6,0,0,99,-0.08,0,left,1.529082900000276,,,,,,,,,,,,,,,,,,,,,,,,,,,,,,,,,,,,,,,,,,,,,,,,,,,,,,,,,,,,XMY9RR,train_x,red_square,top_left,2025-08-07_11h12.37.443,HideSeek_v1,2022.2.5,59.93924558067472,
,0,5,1,5,1,0,26,,train_dim1_1,12,30,,,,2,0,2,0,,,,,,,,,0,0,0,0,0,11,11,11,3,0,3,0,,,,,,,,,,,,,,,,,,,,,,,,,,,,,,,,,,,,,,,,,,,,,,,,,,,,,,,,,,,,,,,,30,,,,,,,,2323.0462264,2323.0462264,2323.0462264,2323.0462264,2323.0462264,return,0.5934524000003876,7,0,0,1,-0.08,0,return,0.5042620000001534,-7,25,-0.08,0,,,,,,,,,,,,,,,,,,,,,,,,,,,,,,,,,,,,,,,,,,,,,,,,,,,,,,,,XMY9RR,train_x,red_square,top_left,2025-08-07_11h12.37.443,HideSeek_v1,2022.2.5,59.93924558067472,
,0,9,4,9,4,0,45,,train_dim1_1,13,30,,,,2,0,2,0,,,,,,,,,0,0,0,0,0,12,12,12,0,0,0,0,,,,,,,,,,,,,,,,,,,,,,,,,stimuli/alien_stimuli/45.png,,,,,,,,,,,,,,,,,,,,,,,,,,,,,stimuli/alien_stimuli/26.png,26,0,14,,,,,,,30,,,,,,,,2328.9517780999995,2328.9517780999995,2328.9517780999995,2328.9517780999995,2328.9517780999995,right,12.749469899999895,7,0,0,99,-0.08,0.32,right,12.648808700000473,,,,,2327.3709804,2325.2026887,-0.08,0,0.0,0.08,0.0,-0.08,-0.12,-0.08,0,2325.2026887,2325.2026887,2325.2026887,2325.2026887,2325.2026887,2325.2026887,2325.2026887,2325.2026887,2325.1969946000004,2.274908100000175,return,2.144701199999645,,,,,,,,,,,,,,,,,,,,,,,,,,,,,,,,,XMY9RR,train_x,red_square,top_left,2025-08-07_11h12.37.443,HideSeek_v1,2022.2.5,59.93924558067472,
,0,9,4,9,4,0,45,,train_dim1_1,13,30,,,,2,0,2,0,,,,,,,,,0,0,0,0,0,12,12,12,1,0,1,0,,,,,,,,,,,,,,,,,,,,,,,,,,,,,,,,,,,,,,,,,,,,,,,,,,,,,,,,,,,,,,,,30,,,,,,,,2341.7085546,2341.7085546,2341.7085546,2341.7085546,2341.7085546,right,0.5595026000000871,7,0,0,99,0.0,0.32,right,0.45733629999972436,,,,,,,,,,,,,,,,,,,,,,,,,,,,,,,,,,,,,,,,,,,,,,,,,,,,,,,,,,,,XMY9RR,train_x,red_square,top_left,2025-08-07_11h12.37.443,HideSeek_v1,2022.2.5,59.93924558067472,
,0,9,4,9,4,0,45,,train_dim1_1,13,30,,,,2,0,2,0,,,,,,,,,0,0,0,0,0,12,12,12,2,0,2,0,,,,,,,,,,,,,,,,,,,,,,,,,,,,,,,,,,,,,,,,,,,,,,,,,,,,,,,,,,,,,,,,30,,,,,,,,2342.2571234999996,2342.2571234999996,2342.2571234999996,2342.2571234999996,2342.2571234999996,right,1.0437223999997514,7,0,0,99,0.08,0.32,right,0.9574210999996922,,,,,,,,,,,,,,,,,,,,,,,,,,,,,,,,,,,,,,,,,,,,,,,,,,,,,,,,,,,,XMY9RR,train_x,red_square,top_left,2025-08-07_11h12.37.443,HideSeek_v1,2022.2.5,59.93924558067472,
,0,9,4,9,4,0,45,,train_dim1_1,13,30,,,,2,0,2,0,,,,,,,,,0,0,0,0,0,12,12,12,3,0,3,0,,,,,,,,,,,,,,,,,,,,,,,,,,,,,,,,,,,,,,,,,,,,,,,,,,,,,,,,,,,,,,,,30,,,,,,,,2343.3080154,2343.3080154,2343.3080154,2343.3080154,2343.3080154,return,1.0772008000003552,7,1,0,0,0.08,0.32,return,1.0020157999995263,-7,28,0.08,0.32,,,,,,,,,,,,,,,,,,,,,,,,,,,,,,,,,,,,,,,,,,,,,,,,,,,,,,,,XMY9RR,train_x,red_square,top_left,2025-08-07_11h12.37.443,HideSeek_v1,2022.2.5,59.93924558067472,
,4,8,4,8,0,0,16,,train_dim1_1,14,30,,,,2,0,2,0,,,,,,,,,0,0,0,0,0,13,13,13,0,0,0,0,,,,,,,,,,,,,,,,,,,,,,,,,stimuli/alien_stimuli/16.png,,,,,,,,,,,,,,,,,,,,,,,,,,,,,stimuli/alien_stimuli/45.png,45,0,15,,,,,,,30,,,,,,,,2349.6463625999995,2349.6463625999995,2349.6463625999995,2349.6463625999995,2349.6463625999995,right,1.6737975999994887,7,1,0,99,0.24,0.24,right,1.5705261000000519,,,,,2348.0677764,2349.6463625999995,0.16,0.32,0.0,0.32,0.32,0.16,0.0,0.16,0.32,2345.9747448999997,2345.9747448999997,2345.9747448999997,2345.9747448999997,2345.9747448999997,2345.9747448999997,2345.9747448999997,2345.9747448999997,2345.9642021000004,2.205479500000365,return,2.072127799999862,,,,,,,,,,,,,,,,,,,,,,,,,,,,,,,,,XMY9RR,train_x,red_square,top_left,2025-08-07_11h12.37.443,HideSeek_v1,2022.2.5,59.93924558067472,
,4,8,4,8,0,0,16,,train_dim1_1,14,30,,,,2,0,2,0,,,,,,,,,0,0,0,0,0,13,13,13,1,0,1,0,,,,,,,,,,,,,,,,,,,,,,,,,,,,,,,,,,,,,,,,,,,,,,,,,,,,,,,,,,,,,,,,30,,,,,,,,2351.3045272,2351.3045272,2351.3045272,2351.3045272,2351.3045272,left,0.7598593000002438,7,1,0,99,0.15999999999999998,0.24,left,0.6744581999989805,,,,,,,,,,,,,,,,,,,,,,,,,,,,,,,,,,,,,,,,,,,,,,,,,,,,,,,,,,,,XMY9RR,train_x,red_square,top_left,2025-08-07_11h12.37.443,HideSeek_v1,2022.2.5,59.93924558067472,
,4,8,4,8,0,0,16,,train_dim1_1,14,30,,,,2,0,2,0,,,,,,,,,0,0,0,0,0,13,13,13,2,0,2,0,,,,,,,,,,,,,,,,,,,,,,,,,,,,,,,,,,,,,,,,,,,,,,,,,,,,,,,,,,,,,,,,30,,,,,,,,2352.0703751,2352.0703751,2352.0703751,2352.0703751,2352.0703751,return,0.5766633000002912,8,0,0,1,0.15999999999999998,0.24,return,0.484788399999843,-7,28,0.15999999999999998,0.24,,,,,,,,,,,,,,,,,,,,,,,,,,,,,,,,,,,,,,,,,,,,,,,,,,,,,,,,XMY9RR,train_x,red_square,top_left,2025-08-07_11h12.37.443,HideSeek_v1,2022.2.5,59.93924558067472,
,4,7,9,7,5,0,66,,train_dim1_1,15,30,,,,2,0,2,0,,,,,,,,,0,0,0,0,0,14,14,14,0,0,0,0,,,,,,,,,,,,,,,,,,,,,,,,,stimuli/alien_stimuli/66.png,,,,,,,,,,,,,,,,,,,,,,,,,,,,,stimuli/alien_stimuli/16.png,16,4,16,,,,,,,30,,,,,,,,2357.1347447999997,2357.1347447999997,2357.1347447999997,2357.1347447999997,2357.1347447999997,right,2.273563599999761,8,0,0,99,0.24,0.16,right,2.1840073999999277,,,,,2355.5729811,2357.1347447999997,0.16,0.24,0.0,0.0,0.24,0.16,0.16,0.16,0.24,2354.2102520999997,2354.2102520999997,2354.2102520999997,2354.2102520999997,2354.2102520999997,2354.2102520999997,2354.2102520999997,2354.2102520999997,2354.2042968,1.4703485,return,1.3345699999997578,,,,,,,,,,,,,,,,,,,,,,,,,,,,,,,,,XMY9RR,train_x,red_square,top_left,2025-08-07_11h12.37.443,HideSeek_v1,2022.2.5,59.93924558067472,
,4,7,9,7,5,0,66,,train_dim1_1,15,30,,,,2,0,2,0,,,,,,,,,0,0,0,0,0,14,14,14,1,0,1,0,,,,,,,,,,,,,,,,,,,,,,,,,,,,,,,,,,,,,,,,,,,,,,,,,,,,,,,,,,,,,,,,30,,,,,,,,2359.4060850999995,2359.4060850999995,2359.4060850999995,2359.4060850999995,2359.4060850999995,right,0.3426811999997881,8,0,0,99,0.32,0.16,right,0.2629884999994374,,,,,,,,,,,,,,,,,,,,,,,,,,,,,,,,,,,,,,,,,,,,,,,,,,,,,,,,,,,,XMY9RR,train_x,red_square,top_left,2025-08-07_11h12.37.443,HideSeek_v1,2022.2.5,59.93924558067472,
,4,7,9,7,5,0,66,,train_dim1_1,15,30,,,,2,0,2,0,,,,,,,,,0,0,0,0,0,14,14,14,2,0,2,0,,,,,,,,,,,,,,,,,,,,,,,,,,,,,,,,,,,,,,,,,,,,,,,,,,,,,,,,,,,,,,,,30,,,,,,,,2359.7562579999994,2359.7562579999994,2359.7562579999994,2359.7562579999994,2359.7562579999994,right,0.34398460000011255,8,0,0,99,0.4,0.16,right,0.27003249999938816,,,,,,,,,,,,,,,,,,,,,,,,,,,,,,,,,,,,,,,,,,,,,,,,,,,,,,,,,,,,XMY9RR,train_x,red_square,top_left,2025-08-07_11h12.37.443,HideSeek_v1,2022.2.5,59.93924558067472,
,4,7,9,7,5,0,66,,train_dim1_1,15,30,,,,2,0,2,0,,,,,,,,,0,0,0,0,0,14,14,14,3,0,3,0,,,,,,,,,,,,,,,,,,,,,,,,,,,,,,,,,,,,,,,,,,,,,,,,,,,,,,,,,,,,,,,,30,,,,,,,,2360.1062604,2360.1062604,2360.1062604,2360.1062604,2360.1062604,right,0.32588619999933144,8,0,0,99,0.48000000000000004,0.16,right,0.25244569999972555,,,,,,,,,,,,,,,,,,,,,,,,,,,,,,,,,,,,,,,,,,,,,,,,,,,,,,,,,,,,XMY9RR,train_x,red_square,top_left,2025-08-07_11h12.37.443,HideSeek_v1,2022.2.5,59.93924558067472,
,4,7,9,7,5,0,66,,train_dim1_1,15,30,,,,2,0,2,0,,,,,,,,,0,0,0,0,0,14,14,14,4,0,4,0,,,,,,,,,,,,,,,,,,,,,,,,,,,,,,,,,,,,,,,,,,,,,,,,,,,,,,,,,,,,,,,,30,,,,,,,,2360.4397216999996,2360.4397216999996,2360.4397216999996,2360.4397216999996,2360.4397216999996,right,0.36026959999981045,8,0,0,99,0.56,0.16,right,0.27578890000017964,,,,,,,,,,,,,,,,,,,,,,,,,,,,,,,,,,,,,,,,,,,,,,,,,,,,,,,,,,,,XMY9RR,train_x,red_square,top_left,2025-08-07_11h12.37.443,HideSeek_v1,2022.2.5,59.93924558067472,
,4,7,9,7,5,0,66,,train_dim1_1,15,30,,,,2,0,2,0,,,,,,,,,0,0,0,0,0,14,14,14,5,0,5,0,,,,,,,,,,,,,,,,,,,,,,,,,,,,,,,,,,,,,,,,,,,,,,,,,,,,,,,,,,,,,,,,30,,,,,,,,2360.8075381999997,2360.8075381999997,2360.8075381999997,2360.8075381999997,2360.8075381999997,return,0.5601499999993393,9,0,0,1,0.56,0.16,return,0.4834312000000409,-7,33,0.56,0.16,,,,,,,,,,,,,,,,,,,,,,,,,,,,,,,,,,,,,,,,,,,,,,,,,,,,,,,,XMY9RR,train_x,red_square,top_left,2025-08-07_11h12.37.443,HideSeek_v1,2022.2.5,59.93924558067472,
,3,8,7,8,4,0,56,,train_dim1_1,16,30,,,,2,0,2,0,,,,,,,,,0,0,0,0,0,15,15,15,0,0,0,0,,,,,,,,,,,,,,,,,,,,,,,,,stimuli/alien_stimuli/56.png,,,,,,,,,,,,,,,,,,,,,,,,,,,,,stimuli/alien_stimuli/66.png,66,4,17,,,,,,,30,,,,,,,,2366.4526182,2366.4526182,2366.4526182,2366.4526182,2366.4526182,right,1.6075614000001224,9,0,0,99,0.16,0.24,right,1.5047712000002775,,,,,2364.8657955999997,2362.9312995,0.56,0.16,0.0,0.4,0.16,0.56,0.36000000000000004,0.56,0.16,2362.9312995,2362.9312995,2362.9312995,2362.9312995,2362.9312995,2362.9312995,2362.9312995,2362.9312995,2362.9116168,2.038952199999585,return,1.9005303999999796,,,,,,,,,,,,,,,,,,,,,,,,,,,,,,,,,XMY9RR,train_x,red_square,top_left,2025-08-07_11h12.37.443,HideSeek_v1,2022.2.5,59.93924558067472,
,3,8,7,8,4,0,56,,train_dim1_1,16,30,,,,2,0,2,0,,,,,,,,,0,0,0,0,0,15,15,15,1,0,1,0,,,,,,,,,,,,,,,,,,,,,,,,,,,,,,,,,,,,,,,,,,,,,,,,,,,,,,,,,,,,,,,,30,,,,,,,,2368.0493191999994,2368.0493191999994,2368.0493191999994,2368.0493191999994,2368.0493191999994,right,0.593155100000331,9,0,0,99,0.24,0.24,right,0.5095088000005035,,,,,,,,,,,,,,,,,,,,,,,,,,,,,,,,,,,,,,,,,,,,,,,,,,,,,,,,,,,,XMY9RR,train_x,red_square,top_left,2025-08-07_11h12.37.443,HideSeek_v1,2022.2.5,59.93924558067472,
,3,8,7,8,4,0,56,,train_dim1_1,16,30,,,,2,0,2,0,,,,,,,,,0,0,0,0,0,15,15,15,2,0,2,0,,,,,,,,,,,,,,,,,,,,,,,,,,,,,,,,,,,,,,,,,,,,,,,,,,,,,,,,,,,,,,,,30,,,,,,,,2368.6488429,2368.6488429,2368.6488429,2368.6488429,2368.6488429,right,0.4602224999998725,9,0,0,99,0.32,0.24,right,0.37869409999962045,,,,,,,,,,,,,,,,,,,,,,,,,,,,,,,,,,,,,,,,,,,,,,,,,,,,,,,,,,,,XMY9RR,train_x,red_square,top_left,2025-08-07_11h12.37.443,HideSeek_v1,2022.2.5,59.93924558067472,
,3,8,7,8,4,0,56,,train_dim1_1,16,30,,,,2,0,2,0,,,,,,,,,0,0,0,0,0,15,15,15,3,0,3,0,,,,,,,,,,,,,,,,,,,,,,,,,,,,,,,,,,,,,,,,,,,,,,,,,,,,,,,,,,,,,,,,30,,,,,,,,2369.1174500999996,2369.1174500999996,2369.1174500999996,2369.1174500999996,2369.1174500999996,right,0.4762047000003804,9,0,0,99,0.4,0.24,right,0.39791739999941456,,,,,,,,,,,,,,,,,,,,,,,,,,,,,,,,,,,,,,,,,,,,,,,,,,,,,,,,,,,,XMY9RR,train_x,red_square,top_left,2025-08-07_11h12.37.443,HideSeek_v1,2022.2.5,59.93924558067472,
,3,8,7,8,4,0,56,,train_dim1_1,16,30,,,,2,0,2,0,,,,,,,,,0,0,0,0,0,15,15,15,4,0,4,0,,,,,,,,,,,,,,,,,,,,,,,,,,,,,,,,,,,,,,,,,,,,,,,,,,,,,,,,,,,,,,,,30,,,,,,,,2369.5990795999996,2369.5990795999996,2369.5990795999996,2369.5990795999996,2369.5990795999996,return,0.8104943999996976,10,0,0,1,0.4,0.24,return,0.721122300000161,-7,37,0.4,0.24,,,,,,,,,,,,,,,,,,,,,,,,,,,,,,,,,,,,,,,,,,,,,,,,,,,,,,,,XMY9RR,train_x,red_square,top_left,2025-08-07_11h12.37.443,HideSeek_v1,2022.2.5,59.93924558067472,
,2,9,3,9,1,0,26,,train_dim1_1,17,30,,,,2,0,2,0,,,,,,,,,0,0,0,0,0,16,16,16,0,0,0,0,,,,,,,,,,,,,,,,,,,,,,,,,stimuli/alien_stimuli/26.png,,,,,,,,,,,,,,,,,,,,,,,,,,,,,stimuli/alien_stimuli/56.png,56,3,18,,,,,,,30,,,,,,,,2375.1173671999995,2375.1173671999995,2375.1173671999995,2375.1173671999995,2375.1173671999995,right,1.9074662000002718,10,0,0,99,0.08,0.32,right,1.793905099999165,,,,,2373.5393355999995,2375.1173671999995,0.4,0.24,0.0,0.32,0.24,0.4,0.24000000000000002,0.4,0.24,2371.9896314,2371.9896314,2371.9896314,2371.9896314,2371.9896314,2371.9896314,2371.9896314,2371.9896314,2371.9691487,1.6556071000004522,return,1.5230151000002934,,,,,,,,,,,,,,,,,,,,,,,,,,,,,,,,,XMY9RR,train_x,red_square,top_left,2025-08-07_11h12.37.443,HideSeek_v1,2022.2.5,59.93924558067472,
,2,9,3,9,1,0,26,,train_dim1_1,17,30,,,,2,0,2,0,,,,,,,,,0,0,0,0,0,16,16,16,1,0,1,0,,,,,,,,,,,,,,,,,,,,,,,,,,,,,,,,,,,,,,,,,,,,,,,,,,,,,,,,,,,,,,,,30,,,,,,,,2377.0164759,2377.0164759,2377.0164759,2377.0164759,2377.0164759,return,1.6212443000003987,11,0,0,1,0.08,0.32,return,1.5332348999997976,-7,38,0.08,0.32,,,,,,,,,,,,,,,,,,,,,,,,,,,,,,,,,,,,,,,,,,,,,,,,,,,,,,,,XMY9RR,train_x,red_square,top_left,2025-08-07_11h12.37.443,HideSeek_v1,2022.2.5,59.93924558067472,
,2,6,7,6,5,0,66,,train_dim1_1,18,30,,,,2,0,2,0,,,,,,,,,0,0,0,0,0,17,17,17,0,0,0,0,,,,,,,,,,,,,,,,,,,,,,,,,stimuli/alien_stimuli/66.png,,,,,,,,,,,,,,,,,,,,,,,,,,,,,stimuli/alien_stimuli/26.png,26,2,19,,,,,,,30,,,,,,,,2384.2811099,2384.2811099,2384.2811099,2384.2811099,2384.2811099,right,1.4070584000000963,11,0,0,99,0.08,0.08,right,1.3124780999994528,,,,,2382.697574,,0.08,0.32,0.0,0.08,0.32,0.08,0.04,0.08,0.32,2380.2181714999997,2380.2181714999997,2380.2181714999997,2380.2181714999997,2380.2181714999997,2380.2181714999997,2380.2181714999997,2380.2181714999997,2380.2093914,2.589844500000254,return,2.4569913000002543,,,,,,,,,,,,,,,,,,,,,,,,,,,,,,,,,XMY9RR,train_x,red_square,top_left,2025-08-07_11h12.37.443,HideSeek_v1,2022.2.5,59.93924558067472,
,2,6,7,6,5,0,66,,train_dim1_1,18,30,,,,2,0,2,0,,,,,,,,,0,0,0,0,0,17,17,17,1,0,1,0,,,,,,,,,,,,,,,,,,,,,,,,,,,,,,,,,,,,,,,,,,,,,,,,,,,,,,,,,,,,,,,,30,,,,,,,,2385.6791359,2385.6791359,2385.6791359,2385.6791359,2385.6791359,right,0.4257609999995111,11,0,0,99,0.16,0.08,right,0.3500743000001876,,,,,,,,,,,,,,,,,,,,,,,,,,,,,,,,,,,,,,,,,,,,,,,,,,,,,,,,,,,,XMY9RR,train_x,red_square,top_left,2025-08-07_11h12.37.443,HideSeek_v1,2022.2.5,59.93924558067472,
,2,6,7,6,5,0,66,,train_dim1_1,18,30,,,,2,0,2,0,,,,,,,,,0,0,0,0,0,17,17,17,2,0,2,0,,,,,,,,,,,,,,,,,,,,,,,,,,,,,,,,,,,,,,,,,,,,,,,,,,,,,,,,,,,,,,,,30,,,,,,,,2386.1109476,2386.1109476,2386.1109476,2386.1109476,2386.1109476,right,0.34347579999939626,11,0,0,99,0.24,0.08,right,0.270077199999605,,,,,,,,,,,,,,,,,,,,,,,,,,,,,,,,,,,,,,,,,,,,,,,,,,,,,,,,,,,,XMY9RR,train_x,red_square,top_left,2025-08-07_11h12.37.443,HideSeek_v1,2022.2.5,59.93924558067472,
,2,6,7,6,5,0,66,,train_dim1_1,18,30,,,,2,0,2,0,,,,,,,,,0,0,0,0,0,17,17,17,3,0,3,0,,,,,,,,,,,,,,,,,,,,,,,,,,,,,,,,,,,,,,,,,,,,,,,,,,,,,,,,,,,,,,,,30,,,,,,,,2386.4612571,2386.4612571,2386.4612571,2386.4612571,2386.4612571,right,0.30964229999972304,11,0,0,99,0.32,0.08,right,0.23650049999992007,,,,,,,,,,,,,,,,,,,,,,,,,,,,,,,,,,,,,,,,,,,,,,,,,,,,,,,,,,,,XMY9RR,train_x,red_square,top_left,2025-08-07_11h12.37.443,HideSeek_v1,2022.2.5,59.93924558067472,
,2,6,7,6,5,0,66,,train_dim1_1,18,30,,,,2,0,2,0,,,,,,,,,0,0,0,0,0,17,17,17,4,0,4,0,,,,,,,,,,,,,,,,,,,,,,,,,,,,,,,,,,,,,,,,,,,,,,,,,,,,,,,,,,,,,,,,30,,,,,,,,2386.7781432,2386.7781432,2386.7781432,2386.7781432,2386.7781432,right,0.32724379999945086,11,0,0,99,0.4,0.08,right,0.2526116999995338,,,,,,,,,,,,,,,,,,,,,,,,,,,,,,,,,,,,,,,,,,,,,,,,,,,,,,,,,,,,XMY9RR,train_x,red_square,top_left,2025-08-07_11h12.37.443,HideSeek_v1,2022.2.5,59.93924558067472,
,2,6,7,6,5,0,66,,train_dim1_1,18,30,,,,2,0,2,0,,,,,,,,,0,0,0,0,0,17,17,17,5,0,5,0,,,,,,,,,,,,,,,,,,,,,,,,,,,,,,,,,,,,,,,,,,,,,,,,,,,,,,,,,,,,,,,,30,,,,,,,,2387.1122329,2387.1122329,2387.1122329,2387.1122329,2387.1122329,return,0.49282989999937854,12,0,0,1,0.4,0.08,return,0.4201095999994777,-7,43,0.4,0.08,,,,,,,,,,,,,,,,,,,,,,,,,,,,,,,,,,,,,,,,,,,,,,,,,,,,,,,,XMY9RR,train_x,red_square,top_left,2025-08-07_11h12.37.443,HideSeek_v1,2022.2.5,59.93924558067472,
,0,8,3,8,3,0,46,,train_dim1_1,19,30,,,,2,0,2,0,,,,,,,,,0,0,0,0,0,18,18,18,0,0,0,0,,,,,,,,,,,,,,,,,,,,,,,,,stimuli/alien_stimuli/46.png,,,,,,,,,,,,,,,,,,,,,,,,,,,,,stimuli/alien_stimuli/66.png,66,2,20,,,,,,,30,,,,,,,,2393.0787474,2393.0787474,2393.0787474,2393.0787474,2393.0787474,right,1.5900167999998303,12,0,0,99,-0.08,0.24,right,1.47799370000007,,,,,2391.4964485,2389.1750937999996,0.4,0.08,0.0,0.4,0.08,0.4,0.2,0.4,0.08,2389.1750937999996,2389.1750937999996,2389.1750937999996,2389.1750937999996,2389.1750937999996,2389.1750937999996,2389.1750937999996,2389.1750937999996,2389.1670420000005,2.4261545999997907,return,2.2986261000003196,,,,,,,,,,,,,,,,,,,,,,,,,,,,,,,,,XMY9RR,train_x,red_square,top_left,2025-08-07_11h12.37.443,HideSeek_v1,2022.2.5,59.93924558067472,
,0,8,3,8,3,0,46,,train_dim1_1,19,30,,,,2,0,2,0,,,,,,,,,0,0,0,0,0,18,18,18,1,0,1,0,,,,,,,,,,,,,,,,,,,,,,,,,,,,,,,,,,,,,,,,,,,,,,,,,,,,,,,,,,,,,,,,30,,,,,,,,2394.6529668000003,2394.6529668000003,2394.6529668000003,2394.6529668000003,2394.6529668000003,right,0.4762433999994755,12,0,0,99,0.0,0.24,right,0.4016876000002867,,,,,,,,,,,,,,,,,,,,,,,,,,,,,,,,,,,,,,,,,,,,,,,,,,,,,,,,,,,,XMY9RR,train_x,red_square,top_left,2025-08-07_11h12.37.443,HideSeek_v1,2022.2.5,59.93924558067472,
,0,8,3,8,3,0,46,,train_dim1_1,19,30,,,,2,0,2,0,,,,,,,,,0,0,0,0,0,18,18,18,2,0,2,0,,,,,,,,,,,,,,,,,,,,,,,,,,,,,,,,,,,,,,,,,,,,,,,,,,,,,,,,,,,,,,,,30,,,,,,,,2395.1355582999995,2395.1355582999995,2395.1355582999995,2395.1355582999995,2395.1355582999995,right,0.7266589999999269,12,0,0,99,0.08,0.24,right,0.653588500000069,,,,,,,,,,,,,,,,,,,,,,,,,,,,,,,,,,,,,,,,,,,,,,,,,,,,,,,,,,,,XMY9RR,train_x,red_square,top_left,2025-08-07_11h12.37.443,HideSeek_v1,2022.2.5,59.93924558067472,
,0,8,3,8,3,0,46,,train_dim1_1,19,30,,,,2,0,2,0,,,,,,,,,0,0,0,0,0,18,18,18,3,0,3,0,,,,,,,,,,,,,,,,,,,,,,,,,,,,,,,,,,,,,,,,,,,,,,,,,,,,,,,,,,,,,,,,30,,,,,,,,2395.8695919,2395.8695919,2395.8695919,2395.8695919,2395.8695919,return,1.0274858000002496,13,0,0,1,0.08,0.24,return,0.9534014999996998,-7,46,0.08,0.24,,,,,,,,,,,,,,,,,,,,,,,,,,,,,,,,,,,,,,,,,,,,,,,,,,,,,,,,XMY9RR,train_x,red_square,top_left,2025-08-07_11h12.37.443,HideSeek_v1,2022.2.5,59.93924558067472,
,0,6,0,6,0,0,16,,train_dim1_1,20,30,,,,2,0,2,0,,,,,,,,,0,0,0,0,0,19,19,19,0,0,0,0,,,,,,,,,,,,,,,,,,,,,,,,,stimuli/alien_stimuli/16.png,,,,,,,,,,,,,,,,,,,,,,,,,,,,,stimuli/alien_stimuli/46.png,46,0,21,,,,,,,30,,,,,,,,2401.7686071,2401.7686071,2401.7686071,2401.7686071,2401.7686071,right,1.273968800000148,13,0,0,99,-0.08,0.08,right,1.1748401000002104,,,,,2400.1869209999995,,0.08,0.24,0.0,0.24,0.24,0.08,-0.04,0.08,0.24,2398.4745907999995,2398.4745907999995,2398.4745907999995,2398.4745907999995,2398.4745907999995,2398.4745907999995,2398.4745907999995,2398.4745907999995,2398.4578338,1.809693000000152,return,1.690085400000271,,,,,,,,,,,,,,,,,,,,,,,,,,,,,,,,,XMY9RR,train_x,red_square,top_left,2025-08-07_11h12.37.443,HideSeek_v1,2022.2.5,59.93924558067472,
,0,6,0,6,0,0,16,,train_dim1_1,20,30,,,,2,0,2,0,,,,,,,,,0,0,0,0,0,19,19,19,1,0,1,0,,,,,,,,,,,,,,,,,,,,,,,,,,,,,,,,,,,,,,,,,,,,,,,,,,,,,,,,,,,,,,,,30,,,,,,,,2403.0305867999996,2403.0305867999996,2403.0305867999996,2403.0305867999996,2403.0305867999996,left,0.3592436999997517,13,0,0,99,-0.16,0.08,left,0.2668692999993709,,,,,,,,,,,,,,,,,,,,,,,,,,,,,,,,,,,,,,,,,,,,,,,,,,,,,,,,,,,,XMY9RR,train_x,red_square,top_left,2025-08-07_11h12.37.443,HideSeek_v1,2022.2.5,59.93924558067472,
,0,6,0,6,0,0,16,,train_dim1_1,20,30,,,,2,0,2,0,,,,,,,,,0,0,0,0,0,19,19,19,2,0,2,0,,,,,,,,,,,,,,,,,,,,,,,,,,,,,,,,,,,,,,,,,,,,,,,,,,,,,,,,,,,,,,,,30,,,,,,,,2403.3972728999997,2403.3972728999997,2403.3972728999997,2403.3972728999997,2403.3972728999997,return,0.40939179999986663,14,0,0,1,-0.16,0.08,return,0.3163828999993257,-7,46,-0.16,0.08,,,,,,,,,,,,,,,,,,,,,,,,,,,,,,,,,,,,,,,,,,,,,,,,,,,,,,,,XMY9RR,train_x,red_square,top_left,2025-08-07_11h12.37.443,HideSeek_v1,2022.2.5,59.93924558067472,
,4,7,7,7,3,0,46,,train_dim1_1,21,30,,,,2,0,2,0,,,,,,,,,0,0,0,0,0,20,20,20,0,0,0,0,,,,,,,,,,,,,,,,,,,,,,,,,stimuli/alien_stimuli/46.png,,,,,,,,,,,,,,,,,,,,,,,,,,,,,stimuli/alien_stimuli/16.png,16,0,22,,,,,,,30,,,,,,,,2408.6587259,2408.6587259,2408.6587259,2408.6587259,2408.6587259,right,1.2550114000005124,14,0,0,99,0.24,0.16,right,1.1750036999999338,,,,,2407.0926183,2405.3712655,-0.16,0.08,0.0,0.0,0.08,-0.16,-0.16,-0.16,0.08,2405.3712655,2405.3712655,2405.3712655,2405.3712655,2405.3712655,2405.3712655,2405.3712655,2405.3712655,2405.3635947,1.8260191999997915,return,1.6917301999999381,,,,,,,,,,,,,,,,,,,,,,,,,,,,,,,,,XMY9RR,train_x,red_square,top_left,2025-08-07_11h12.37.443,HideSeek_v1,2022.2.5,59.93924558067472,
,4,7,7,7,3,0,46,,train_dim1_1,21,30,,,,2,0,2,0,,,,,,,,,0,0,0,0,0,20,20,20,1,0,1,0,,,,,,,,,,,,,,,,,,,,,,,,,,,,,,,,,,,,,,,,,,,,,,,,,,,,,,,,,,,,,,,,30,,,,,,,,2409.9147510000003,2409.9147510000003,2409.9147510000003,2409.9147510000003,2409.9147510000003,right,0.8598775999998907,14,0,0,99,0.32,0.16,right,0.7852820000005067,,,,,,,,,,,,,,,,,,,,,,,,,,,,,,,,,,,,,,,,,,,,,,,,,,,,,,,,,,,,XMY9RR,train_x,red_square,top_left,2025-08-07_11h12.37.443,HideSeek_v1,2022.2.5,59.93924558067472,
,4,7,7,7,3,0,46,,train_dim1_1,21,30,,,,2,0,2,0,,,,,,,,,0,0,0,0,0,20,20,20,2,0,2,0,,,,,,,,,,,,,,,,,,,,,,,,,,,,,,,,,,,,,,,,,,,,,,,,,,,,,,,,,,,,,,,,30,,,,,,,,2410.7820291,2410.7820291,2410.7820291,2410.7820291,2410.7820291,right,0.49313809999966907,14,0,0,99,0.4,0.16,right,0.4175910000001295,,,,,,,,,,,,,,,,,,,,,,,,,,,,,,,,,,,,,,,,,,,,,,,,,,,,,,,,,,,,XMY9RR,train_x,red_square,top_left,2025-08-07_11h12.37.443,HideSeek_v1,2022.2.5,59.93924558067472,
,4,7,7,7,3,0,46,,train_dim1_1,21,30,,,,2,0,2,0,,,,,,,,,0,0,0,0,0,20,20,20,3,0,3,0,,,,,,,,,,,,,,,,,,,,,,,,,,,,,,,,,,,,,,,,,,,,,,,,,,,,,,,,,,,,,,,,30,,,,,,,,2411.2819107999994,2411.2819107999994,2411.2819107999994,2411.2819107999994,2411.2819107999994,return,0.7267198999998072,15,0,0,1,0.4,0.16,return,0.6385483999999906,-7,49,0.4,0.16,,,,,,,,,,,,,,,,,,,,,,,,,,,,,,,,,,,,,,,,,,,,,,,,,,,,,,,,XMY9RR,train_x,red_square,top_left,2025-08-07_11h12.37.443,HideSeek_v1,2022.2.5,59.93924558067472,
,1,5,2,5,1,0,26,,train_dim1_1,22,30,,,,2,0,2,0,,,,,,,,,0,0,0,0,0,21,21,21,0,0,0,0,,,,,,,,,,,,,,,,,,,,,,,,,stimuli/alien_stimuli/26.png,,,,,,,,,,,,,,,,,,,,,,,,,,,,,stimuli/alien_stimuli/46.png,46,4,23,,,,,,,30,,,,,,,,2417.0250435,2417.0250435,2417.0250435,2417.0250435,2417.0250435,right,1.4403595000003406,15,0,0,99,0.0,0,right,1.3429256999995687,,,,,2415.4555693,2413.5716946000002,0.4,0.16,0.0,0.24,0.16,0.4,0.28,0.4,0.16,2413.5716946000002,2413.5716946000002,2413.5716946000002,2413.5716946000002,2413.5716946000002,2413.5716946000002,2413.5716946000002,2413.5716946000002,2413.5536486,1.9813065000007555,return,1.8471385000000282,,,,,,,,,,,,,,,,,,,,,,,,,,,,,,,,,XMY9RR,train_x,red_square,top_left,2025-08-07_11h12.37.443,HideSeek_v1,2022.2.5,59.93924558067472,
,1,5,2,5,1,0,26,,train_dim1_1,22,30,,,,2,0,2,0,,,,,,,,,0,0,0,0,0,21,21,21,1,0,1,0,,,,,,,,,,,,,,,,,,,,,,,,,,,,,,,,,,,,,,,,,,,,,,,,,,,,,,,,,,,,,,,,30,,,,,,,,2418.459626,2418.459626,2418.459626,2418.459626,2418.459626,return,0.6264333999997689,16,0,0,1,0.0,0,return,0.5486048999998729,-7,50,0.0,0,,,,,,,,,,,,,,,,,,,,,,,,,,,,,,,,,,,,,,,,,,,,,,,,,,,,,,,,XMY9RR,train_x,red_square,top_left,2025-08-07_11h12.37.443,HideSeek_v1,2022.2.5,59.93924558067472,
,2,6,7,6,5,0,66,,train_dim1_1,23,30,,,,2,0,2,0,,,,,,,,,0,0,0,0,0,22,22,22,0,0,0,0,,,,,,,,,,,,,,,,,,,,,,,,,stimuli/alien_stimuli/66.png,,,,,,,,,,,,,,,,,,,,,,,,,,,,,stimuli/alien_stimuli/26.png,26,1,24,,,,,,,30,,,,,,,,2425.2198977999997,2425.2198977999997,2425.2198977999997,2425.2198977999997,2425.2198977999997,right,1.256601099999898,16,0,0,99,0.08,0.08,right,1.1627770000002329,,,,,2423.6622860999996,2420.6500667,0,0,0.0,0.08,0.0,0,-0.04,0,0,2420.6500667,2420.6500667,2420.6500667,2420.6500667,2420.6500667,2420.6500667,2420.6500667,2420.6500667,2420.6429986999997,3.1155739999994694,return,2.9893657999998595,,,,,,,,,,,,,,,,,,,,,,,,,,,,,,,,,XMY9RR,train_x,red_square,top_left,2025-08-07_11h12.37.443,HideSeek_v1,2022.2.5,59.93924558067472,
,2,6,7,6,5,0,66,,train_dim1_1,23,30,,,,2,0,2,0,,,,,,,,,0,0,0,0,0,22,22,22,1,0,1,0,,,,,,,,,,,,,,,,,,,,,,,,,,,,,,,,,,,,,,,,,,,,,,,,,,,,,,,,,,,,,,,,30,,,,,,,,2426.4778017999997,2426.4778017999997,2426.4778017999997,2426.4778017999997,2426.4778017999997,right,0.3095669000003909,16,0,0,99,0.16,0.08,right,0.2353405000001203,,,,,,,,,,,,,,,,,,,,,,,,,,,,,,,,,,,,,,,,,,,,,,,,,,,,,,,,,,,,XMY9RR,train_x,red_square,top_left,2025-08-07_11h12.37.443,HideSeek_v1,2022.2.5,59.93924558067472,
,2,6,7,6,5,0,66,,train_dim1_1,23,30,,,,2,0,2,0,,,,,,,,,0,0,0,0,0,22,22,22,2,0,2,0,,,,,,,,,,,,,,,,,,,,,,,,,,,,,,,,,,,,,,,,,,,,,,,,,,,,,,,,,,,,,,,,30,,,,,,,,2426.7946653999998,2426.7946653999998,2426.7946653999998,2426.7946653999998,2426.7946653999998,right,0.3936896999994133,16,0,0,99,0.24,0.08,right,0.3065483999996559,,,,,,,,,,,,,,,,,,,,,,,,,,,,,,,,,,,,,,,,,,,,,,,,,,,,,,,,,,,,XMY9RR,train_x,red_square,top_left,2025-08-07_11h12.37.443,HideSeek_v1,2022.2.5,59.93924558067472,
,2,6,7,6,5,0,66,,train_dim1_1,23,30,,,,2,0,2,0,,,,,,,,,0,0,0,0,0,22,22,22,3,0,3,0,,,,,,,,,,,,,,,,,,,,,,,,,,,,,,,,,,,,,,,,,,,,,,,,,,,,,,,,,,,,,,,,30,,,,,,,,2427.1959140999998,2427.1959140999998,2427.1959140999998,2427.1959140999998,2427.1959140999998,right,0.44319259999974747,16,0,0,99,0.32,0.08,right,0.3596584000003986,,,,,,,,,,,,,,,,,,,,,,,,,,,,,,,,,,,,,,,,,,,,,,,,,,,,,,,,,,,,XMY9RR,train_x,red_square,top_left,2025-08-07_11h12.37.443,HideSeek_v1,2022.2.5,59.93924558067472,
,2,6,7,6,5,0,66,,train_dim1_1,23,30,,,,2,0,2,0,,,,,,,,,0,0,0,0,0,22,22,22,4,0,4,0,,,,,,,,,,,,,,,,,,,,,,,,,,,,,,,,,,,,,,,,,,,,,,,,,,,,,,,,,,,,,,,,30,,,,,,,,2427.6449377,2427.6449377,2427.6449377,2427.6449377,2427.6449377,right,0.41007969999918714,16,0,0,99,0.4,0.08,right,0.32566190000011375,,,,,,,,,,,,,,,,,,,,,,,,,,,,,,,,,,,,,,,,,,,,,,,,,,,,,,,,,,,,XMY9RR,train_x,red_square,top_left,2025-08-07_11h12.37.443,HideSeek_v1,2022.2.5,59.93924558067472,
,2,6,7,6,5,0,66,,train_dim1_1,23,30,,,,2,0,2,0,,,,,,,,,0,0,0,0,0,22,22,22,5,0,5,0,,,,,,,,,,,,,,,,,,,,,,,,,,,,,,,,,,,,,,,,,,,,,,,,,,,,,,,,,,,,,,,,30,,,,,,,,2428.0621544999995,2428.0621544999995,2428.0621544999995,2428.0621544999995,2428.0621544999995,return,0.41027779999967606,17,0,0,1,0.4,0.08,return,0.3383105999998861,-7,55,0.4,0.08,,,,,,,,,,,,,,,,,,,,,,,,,,,,,,,,,,,,,,,,,,,,,,,,,,,,,,,,XMY9RR,train_x,red_square,top_left,2025-08-07_11h12.37.443,HideSeek_v1,2022.2.5,59.93924558067472,
,4,9,8,9,4,0,56,,train_dim1_1,24,30,,,,2,0,2,0,,,,,,,,,0,0,0,0,0,23,23,23,0,0,0,0,,,,,,,,,,,,,,,,,,,,,,,,,stimuli/alien_stimuli/56.png,,,,,,,,,,,,,,,,,,,,,,,,,,,,,stimuli/alien_stimuli/66.png,66,2,25,,,,,,,30,,,,,,,,2432.6948899,2432.6948899,2432.6948899,2432.6948899,2432.6948899,right,2.6909687999996095,17,0,0,99,0.24,0.32,right,2.5935587999999825,,,,,2431.1052321999996,2430.034705,0.4,0.08,0.0,0.4,0.08,0.4,0.2,0.4,0.08,2430.034705,2430.034705,2430.034705,2430.034705,2430.034705,2430.034705,2430.034705,2430.034705,2430.0174112999994,1.1721514999999272,return,1.0495539999990342,,,,,,,,,,,,,,,,,,,,,,,,,,,,,,,,,XMY9RR,train_x,red_square,top_left,2025-08-07_11h12.37.443,HideSeek_v1,2022.2.5,59.93924558067472,
,4,9,8,9,4,0,56,,train_dim1_1,24,30,,,,2,0,2,0,,,,,,,,,0,0,0,0,0,23,23,23,1,0,1,0,,,,,,,,,,,,,,,,,,,,,,,,,,,,,,,,,,,,,,,,,,,,,,,,,,,,,,,,,,,,,,,,30,,,,,,,,2435.3714877,2435.3714877,2435.3714877,2435.3714877,2435.3714877,right,0.3762268000000404,17,0,0,99,0.32,0.32,right,0.2882541999995283,,,,,,,,,,,,,,,,,,,,,,,,,,,,,,,,,,,,,,,,,,,,,,,,,,,,,,,,,,,,XMY9RR,train_x,red_square,top_left,2025-08-07_11h12.37.443,HideSeek_v1,2022.2.5,59.93924558067472,
,4,9,8,9,4,0,56,,train_dim1_1,24,30,,,,2,0,2,0,,,,,,,,,0,0,0,0,0,23,23,23,2,0,2,0,,,,,,,,,,,,,,,,,,,,,,,,,,,,,,,,,,,,,,,,,,,,,,,,,,,,,,,,,,,,,,,,30,,,,,,,,2435.7551510000003,2435.7551510000003,2435.7551510000003,2435.7551510000003,2435.7551510000003,right,0.4594271000005392,17,0,0,99,0.4,0.32,right,0.38251130000003286,,,,,,,,,,,,,,,,,,,,,,,,,,,,,,,,,,,,,,,,,,,,,,,,,,,,,,,,,,,,XMY9RR,train_x,red_square,top_left,2025-08-07_11h12.37.443,HideSeek_v1,2022.2.5,59.93924558067472,
,4,9,8,9,4,0,56,,train_dim1_1,24,30,,,,2,0,2,0,,,,,,,,,0,0,0,0,0,23,23,23,3,0,3,0,,,,,,,,,,,,,,,,,,,,,,,,,,,,,,,,,,,,,,,,,,,,,,,,,,,,,,,,,,,,,,,,30,,,,,,,,2436.2218174,2436.2218174,2436.2218174,2436.2218174,2436.2218174,right,0.4932727999994313,17,0,0,99,0.48000000000000004,0.32,right,0.4070339999996122,,,,,,,,,,,,,,,,,,,,,,,,,,,,,,,,,,,,,,,,,,,,,,,,,,,,,,,,,,,,XMY9RR,train_x,red_square,top_left,2025-08-07_11h12.37.443,HideSeek_v1,2022.2.5,59.93924558067472,
,4,9,8,9,4,0,56,,train_dim1_1,24,30,,,,2,0,2,0,,,,,,,,,0,0,0,0,0,23,23,23,4,0,4,0,,,,,,,,,,,,,,,,,,,,,,,,,,,,,,,,,,,,,,,,,,,,,,,,,,,,,,,,,,,,,,,,30,,,,,,,,2436.7215891999995,2436.7215891999995,2436.7215891999995,2436.7215891999995,2436.7215891999995,return,0.44359150000036607,18,0,0,1,0.48000000000000004,0.32,return,0.36823489999983394,-7,59,0.48000000000000004,0.32,,,,,,,,,,,,,,,,,,,,,,,,,,,,,,,,,,,,,,,,,,,,,,,,,,,,,,,,XMY9RR,train_x,red_square,top_left,2025-08-07_11h12.37.443,HideSeek_v1,2022.2.5,59.93924558067472,
,3,5,3,5,0,0,16,,train_dim1_1,25,30,,,,2,0,2,0,,,,,,,,,0,0,0,0,0,24,24,24,0,0,0,0,,,,,,,,,,,,,,,,,,,,,,,,,stimuli/alien_stimuli/16.png,,,,,,,,,,,,,,,,,,,,,,,,,,,,,stimuli/alien_stimuli/56.png,56,4,26,,,,,,,30,,,,,,,,2442.2088691999998,2442.2088691999998,2442.2088691999998,2442.2088691999998,2442.2088691999998,right,1.4895380000007208,18,0,0,99,0.16,0,right,1.3795990999994956,,,,,2440.6206120999996,,0.48,0.32,0.0,0.32,0.32,0.48,0.32,0.48,0.32,2438.7458829999996,2438.7458829999996,2438.7458829999996,2438.7458829999996,2438.7458829999996,2438.7458829999996,2438.7458829999996,2438.7458829999996,2438.7247042999998,1.9763880999998946,return,1.8519507999997131,,,,,,,,,,,,,,,,,,,,,,,,,,,,,,,,,XMY9RR,train_x,red_square,top_left,2025-08-07_11h12.37.443,HideSeek_v1,2022.2.5,59.93924558067472,
,3,5,3,5,0,0,16,,train_dim1_1,25,30,,,,2,0,2,0,,,,,,,,,0,0,0,0,0,24,24,24,1,0,1,0,,,,,,,,,,,,,,,,,,,,,,,,,,,,,,,,,,,,,,,,,,,,,,,,,,,,,,,,,,,,,,,,30,,,,,,,,2443.6797222999994,2443.6797222999994,2443.6797222999994,2443.6797222999994,2443.6797222999994,left,0.359690799999953,18,0,0,99,0.08,0,left,0.2785585999997693,,,,,,,,,,,,,,,,,,,,,,,,,,,,,,,,,,,,,,,,,,,,,,,,,,,,,,,,,,,,XMY9RR,train_x,red_square,top_left,2025-08-07_11h12.37.443,HideSeek_v1,2022.2.5,59.93924558067472,
,3,5,3,5,0,0,16,,train_dim1_1,25,30,,,,2,0,2,0,,,,,,,,,0,0,0,0,0,24,24,24,2,0,2,0,,,,,,,,,,,,,,,,,,,,,,,,,,,,,,,,,,,,,,,,,,,,,,,,,,,,,,,,,,,,,,,,30,,,,,,,,2444.0473518999997,2444.0473518999997,2444.0473518999997,2444.0473518999997,2444.0473518999997,return,0.45986139999968145,19,0,0,1,0.08,0,return,0.37490390000016305,-7,59,0.08,0,,,,,,,,,,,,,,,,,,,,,,,,,,,,,,,,,,,,,,,,,,,,,,,,,,,,,,,,XMY9RR,train_x,red_square,top_left,2025-08-07_11h12.37.443,HideSeek_v1,2022.2.5,59.93924558067472,
,1,6,6,6,5,0,66,,train_dim1_1,26,30,,,,2,0,2,0,,,,,,,,,0,0,0,0,0,25,25,25,0,0,0,0,,,,,,,,,,,,,,,,,,,,,,,,,stimuli/alien_stimuli/66.png,,,,,,,,,,,,,,,,,,,,,,,,,,,,,stimuli/alien_stimuli/16.png,16,3,27,,,,,,,30,,,,,,,,2448.6790455,2448.6790455,2448.6790455,2448.6790455,2448.6790455,right,1.5115965999993932,19,0,0,99,0.0,0.08,right,1.3945631000003686,,,,,2447.0987307999994,2448.6790455,0.08,0,0.0,0.0,0.0,0.08,0.08,0.08,0,2446.07215,2446.07215,2446.07215,2446.07215,2446.07215,2446.07215,2446.07215,2446.07215,2446.0636172,1.1367129000000205,return,0.9887114999999085,,,,,,,,,,,,,,,,,,,,,,,,,,,,,,,,,XMY9RR,train_x,red_square,top_left,2025-08-07_11h12.37.443,HideSeek_v1,2022.2.5,59.93924558067472,
,1,6,6,6,5,0,66,,train_dim1_1,26,30,,,,2,0,2,0,,,,,,,,,0,0,0,0,0,25,25,25,1,0,1,0,,,,,,,,,,,,,,,,,,,,,,,,,,,,,,,,,,,,,,,,,,,,,,,,,,,,,,,,,,,,,,,,30,,,,,,,,2450.1709882999994,2450.1709882999994,2450.1709882999994,2450.1709882999994,2450.1709882999994,right,0.4361298000003444,19,0,0,99,0.08,0.08,right,0.3565550999999232,,,,,,,,,,,,,,,,,,,,,,,,,,,,,,,,,,,,,,,,,,,,,,,,,,,,,,,,,,,,XMY9RR,train_x,red_square,top_left,2025-08-07_11h12.37.443,HideSeek_v1,2022.2.5,59.93924558067472,
,1,6,6,6,5,0,66,,train_dim1_1,26,30,,,,2,0,2,0,,,,,,,,,0,0,0,0,0,25,25,25,2,0,2,0,,,,,,,,,,,,,,,,,,,,,,,,,,,,,,,,,,,,,,,,,,,,,,,,,,,,,,,,,,,,,,,,30,,,,,,,,2450.6155474999996,2450.6155474999996,2450.6155474999996,2450.6155474999996,2450.6155474999996,right,0.4766388000007282,19,0,0,99,0.16,0.08,right,0.39455249999969055,,,,,,,,,,,,,,,,,,,,,,,,,,,,,,,,,,,,,,,,,,,,,,,,,,,,,,,,,,,,XMY9RR,train_x,red_square,top_left,2025-08-07_11h12.37.443,HideSeek_v1,2022.2.5,59.93924558067472,
,1,6,6,6,5,0,66,,train_dim1_1,26,30,,,,2,0,2,0,,,,,,,,,0,0,0,0,0,25,25,25,3,0,3,0,,,,,,,,,,,,,,,,,,,,,,,,,,,,,,,,,,,,,,,,,,,,,,,,,,,,,,,,,,,,,,,,30,,,,,,,,2451.0988497,2451.0988497,2451.0988497,2451.0988497,2451.0988497,right,0.4441696999992928,19,0,0,99,0.24,0.08,right,0.3605162000001201,,,,,,,,,,,,,,,,,,,,,,,,,,,,,,,,,,,,,,,,,,,,,,,,,,,,,,,,,,,,XMY9RR,train_x,red_square,top_left,2025-08-07_11h12.37.443,HideSeek_v1,2022.2.5,59.93924558067472,
,1,6,6,6,5,0,66,,train_dim1_1,26,30,,,,2,0,2,0,,,,,,,,,0,0,0,0,0,25,25,25,4,0,4,0,,,,,,,,,,,,,,,,,,,,,,,,,,,,,,,,,,,,,,,,,,,,,,,,,,,,,,,,,,,,,,,,30,,,,,,,,2451.5489274,2451.5489274,2451.5489274,2451.5489274,2451.5489274,right,0.44246799999928044,19,0,0,99,0.32,0.08,right,0.35850639999966916,,,,,,,,,,,,,,,,,,,,,,,,,,,,,,,,,,,,,,,,,,,,,,,,,,,,,,,,,,,,XMY9RR,train_x,red_square,top_left,2025-08-07_11h12.37.443,HideSeek_v1,2022.2.5,59.93924558067472,
,1,6,6,6,5,0,66,,train_dim1_1,26,30,,,,2,0,2,0,,,,,,,,,0,0,0,0,0,25,25,25,5,0,5,0,,,,,,,,,,,,,,,,,,,,,,,,,,,,,,,,,,,,,,,,,,,,,,,,,,,,,,,,,,,,,,,,30,,,,,,,,2451.9994299,2451.9994299,2451.9994299,2451.9994299,2451.9994299,return,0.6602165000003879,20,0,0,1,0.32,0.08,return,0.5784369000000424,-7,64,0.32,0.08,,,,,,,,,,,,,,,,,,,,,,,,,,,,,,,,,,,,,,,,,,,,,,,,,,,,,,,,XMY9RR,train_x,red_square,top_left,2025-08-07_11h12.37.443,HideSeek_v1,2022.2.5,59.93924558067472,
,0,6,3,6,3,0,46,,train_dim1_1,27,30,,,,2,0,2,0,,,,,,,,,0,0,0,0,0,26,26,26,0,0,0,0,,,,,,,,,,,,,,,,,,,,,,,,,stimuli/alien_stimuli/46.png,,,,,,,,,,,,,,,,,,,,,,,,,,,,,stimuli/alien_stimuli/66.png,66,1,28,,,,,,,30,,,,,,,,2458.1148235,2458.1148235,2458.1148235,2458.1148235,2458.1148235,right,1.5403081000004022,20,0,0,99,-0.08,0.08,right,1.437722999999778,,,,,2456.5256001999996,,0.32,0.08,0.0,0.4,0.08,0.32,0.12,0.32,0.08,2454.2351965,2454.2351965,2454.2351965,2454.2351965,2454.2351965,2454.2351965,2454.2351965,2454.2351965,2454.2208229,2.390027800000098,return,2.2573335000004136,,,,,,,,,,,,,,,,,,,,,,,,,,,,,,,,,XMY9RR,train_x,red_square,top_left,2025-08-07_11h12.37.443,HideSeek_v1,2022.2.5,59.93924558067472,
,0,6,3,6,3,0,46,,train_dim1_1,27,30,,,,2,0,2,0,,,,,,,,,0,0,0,0,0,26,26,26,1,0,1,0,,,,,,,,,,,,,,,,,,,,,,,,,,,,,,,,,,,,,,,,,,,,,,,,,,,,,,,,,,,,,,,,30,,,,,,,,2459.6396513,2459.6396513,2459.6396513,2459.6396513,2459.6396513,right,0.42645829999946727,20,0,0,99,0.0,0.08,right,0.35417019999999866,,,,,,,,,,,,,,,,,,,,,,,,,,,,,,,,,,,,,,,,,,,,,,,,,,,,,,,,,,,,XMY9RR,train_x,red_square,top_left,2025-08-07_11h12.37.443,HideSeek_v1,2022.2.5,59.93924558067472,
,0,6,3,6,3,0,46,,train_dim1_1,27,30,,,,2,0,2,0,,,,,,,,,0,0,0,0,0,26,26,26,2,0,2,0,,,,,,,,,,,,,,,,,,,,,,,,,,,,,,,,,,,,,,,,,,,,,,,,,,,,,,,,,,,,,,,,30,,,,,,,,2460.0742012,2460.0742012,2460.0742012,2460.0742012,2460.0742012,right,0.7258787000000666,20,0,0,99,0.08,0.08,right,0.6502799999996114,,,,,,,,,,,,,,,,,,,,,,,,,,,,,,,,,,,,,,,,,,,,,,,,,,,,,,,,,,,,XMY9RR,train_x,red_square,top_left,2025-08-07_11h12.37.443,HideSeek_v1,2022.2.5,59.93924558067472,
,0,6,3,6,3,0,46,,train_dim1_1,27,30,,,,2,0,2,0,,,,,,,,,0,0,0,0,0,26,26,26,3,0,3,0,,,,,,,,,,,,,,,,,,,,,,,,,,,,,,,,,,,,,,,,,,,,,,,,,,,,,,,,,,,,,,,,30,,,,,,,,2460.8061771000002,2460.8061771000002,2460.8061771000002,2460.8061771000002,2460.8061771000002,return,0.42668440000034025,21,0,0,1,0.08,0.08,return,0.346645800000033,-7,67,0.08,0.08,,,,,,,,,,,,,,,,,,,,,,,,,,,,,,,,,,,,,,,,,,,,,,,,,,,,,,,,XMY9RR,train_x,red_square,top_left,2025-08-07_11h12.37.443,HideSeek_v1,2022.2.5,59.93924558067472,
,3,6,4,6,1,0,26,,train_dim1_1,28,30,,,,2,0,2,0,,,,,,,,,0,0,0,0,0,27,27,27,0,0,0,0,,,,,,,,,,,,,,,,,,,,,,,,,stimuli/alien_stimuli/26.png,,,,,,,,,,,,,,,,,,,,,,,,,,,,,stimuli/alien_stimuli/46.png,46,0,29,,,,,,,30,,,,,,,,2465.5231327,2465.5231327,2465.5231327,2465.5231327,2465.5231327,right,1.9228501999996297,21,0,0,99,0.16,0.08,right,1.8191950999996607,,,,,2463.9399799000003,2462.7946632000003,0.08,0.08,0.0,0.24,0.08,0.08,-0.04,0.08,0.08,2462.7946632000003,2462.7946632000003,2462.7946632000003,2462.7946632000003,2462.7946632000003,2462.7946632000003,2462.7946632000003,2462.7946632000003,2462.7779192999997,1.2426550999998653,return,1.1197888000003786,,,,,,,,,,,,,,,,,,,,,,,,,,,,,,,,,XMY9RR,train_x,red_square,top_left,2025-08-07_11h12.37.443,HideSeek_v1,2022.2.5,59.93924558067472,
,3,6,4,6,1,0,26,,train_dim1_1,28,30,,,,2,0,2,0,,,,,,,,,0,0,0,0,0,27,27,27,1,0,1,0,,,,,,,,,,,,,,,,,,,,,,,,,,,,,,,,,,,,,,,,,,,,,,,,,,,,,,,,,,,,,,,,30,,,,,,,,2467.4335798,2467.4335798,2467.4335798,2467.4335798,2467.4335798,return,0.5593704000002617,22,0,0,1,0.16,0.08,return,0.4763001999997414,-7,68,0.16,0.08,,,,,,,,,,,,,,,,,,,,,,,,,,,,,,,,,,,,,,,,,,,,,,,,,,,,,,,,XMY9RR,train_x,red_square,top_left,2025-08-07_11h12.37.443,HideSeek_v1,2022.2.5,59.93924558067472,
,4,5,8,5,4,0,56,,train_dim1_1,29,30,,,,2,0,2,0,,,,,,,,,0,0,0,0,0,28,28,28,0,0,0,0,,,,,,,,,,,,,,,,,,,,,,,,,stimuli/alien_stimuli/56.png,,,,,,,,,,,,,,,,,,,,,,,,,,,,,stimuli/alien_stimuli/26.png,26,3,30,,,,,,,30,,,,,,,,2472.3453312,2472.3453312,2472.3453312,2472.3453312,2472.3453312,right,1.5737526000002617,22,0,0,99,0.24,0,right,1.4770092000005661,,,,,2470.7789023999994,,0.16,0.08,0.0,0.08,0.08,0.16,0.12,0.16,0.08,2469.5735862,2469.5735862,2469.5735862,2469.5735862,2469.5735862,2469.5735862,2469.5735862,2469.5735862,2469.5669394,1.3095180999998774,return,1.180724199999304,,,,,,,,,,,,,,,,,,,,,,,,,,,,,,,,,XMY9RR,train_x,red_square,top_left,2025-08-07_11h12.37.443,HideSeek_v1,2022.2.5,59.93924558067472,
,4,5,8,5,4,0,56,,train_dim1_1,29,30,,,,2,0,2,0,,,,,,,,,0,0,0,0,0,28,28,28,1,0,1,0,,,,,,,,,,,,,,,,,,,,,,,,,,,,,,,,,,,,,,,,,,,,,,,,,,,,,,,,,,,,,,,,30,,,,,,,,2473.919868,2473.919868,2473.919868,2473.919868,2473.919868,right,0.543086200000289,22,0,0,99,0.32,0,right,0.45310379999932593,,,,,,,,,,,,,,,,,,,,,,,,,,,,,,,,,,,,,,,,,,,,,,,,,,,,,,,,,,,,XMY9RR,train_x,red_square,top_left,2025-08-07_11h12.37.443,HideSeek_v1,2022.2.5,59.93924558067472,
,4,5,8,5,4,0,56,,train_dim1_1,29,30,,,,2,0,2,0,,,,,,,,,0,0,0,0,0,28,28,28,2,0,2,0,,,,,,,,,,,,,,,,,,,,,,,,,,,,,,,,,,,,,,,,,,,,,,,,,,,,,,,,,,,,,,,,30,,,,,,,,2474.4696212,2474.4696212,2474.4696212,2474.4696212,2474.4696212,right,0.7102837000002182,22,0,0,99,0.4,0,right,0.6254146999997374,,,,,,,,,,,,,,,,,,,,,,,,,,,,,,,,,,,,,,,,,,,,,,,,,,,,,,,,,,,,XMY9RR,train_x,red_square,top_left,2025-08-07_11h12.37.443,HideSeek_v1,2022.2.5,59.93924558067472,
,4,5,8,5,4,0,56,,train_dim1_1,29,30,,,,2,0,2,0,,,,,,,,,0,0,0,0,0,28,28,28,3,0,3,0,,,,,,,,,,,,,,,,,,,,,,,,,,,,,,,,,,,,,,,,,,,,,,,,,,,,,,,,,,,,,,,,30,,,,,,,,2475.187761,2475.187761,2475.187761,2475.187761,2475.187761,right,0.609886700000061,22,0,0,99,0.48000000000000004,0,right,0.5301263999997445,,,,,,,,,,,,,,,,,,,,,,,,,,,,,,,,,,,,,,,,,,,,,,,,,,,,,,,,,,,,XMY9RR,train_x,red_square,top_left,2025-08-07_11h12.37.443,HideSeek_v1,2022.2.5,59.93924558067472,
,4,5,8,5,4,0,56,,train_dim1_1,29,30,,,,2,0,2,0,,,,,,,,,0,0,0,0,0,28,28,28,4,0,4,0,,,,,,,,,,,,,,,,,,,,,,,,,,,,,,,,,,,,,,,,,,,,,,,,,,,,,,,,,,,,,,,,30,,,,,,,,2475.8044408999995,2475.8044408999995,2475.8044408999995,2475.8044408999995,2475.8044408999995,return,0.7605753999996523,23,0,0,1,0.48000000000000004,0,return,0.672959100000071,-7,72,0.48000000000000004,0,,,,,,,,,,,,,,,,,,,,,,,,,,,,,,,,,,,,,,,,,,,,,,,,,,,,,,,,XMY9RR,train_x,red_square,top_left,2025-08-07_11h12.37.443,HideSeek_v1,2022.2.5,59.93924558067472,
,2,7,2,7,0,0,16,,train_dim1_1,30,30,,,,2,0,2,0,,,,,,,,,0,0,0,0,0,29,29,29,0,0,0,0,,,,,,,,,,,,,,,,,,,,,,,,,stimuli/alien_stimuli/16.png,,,,,,,,,,,,,,,,,,,,,,,,,,,,,stimuli/alien_stimuli/56.png,56,4,31,,,,,,,30,,,,,,,,2481.7042900999995,2481.7042900999995,2481.7042900999995,2481.7042900999995,2481.7042900999995,right,1.1897525999993377,23,0,0,99,0.08,0.16,right,1.086630899999136,,,,,2480.1274881,2481.7042900999995,0.48,0,0.0,0.32,0.0,0.48,0.32,0.48,0,2478.1282688,2478.1282688,2478.1282688,2478.1282688,2478.1282688,2478.1282688,2478.1282688,2478.1282688,2478.1074272999995,2.10473920000004,return,1.979341500000146,,,,,,,,,,,,,,,,,,,,,,,,,,,,,,,,,XMY9RR,train_x,red_square,top_left,2025-08-07_11h12.37.443,HideSeek_v1,2022.2.5,59.93924558067472,
,2,7,2,7,0,0,16,,train_dim1_1,30,30,,,,2,0,2,0,,,,,,,,,0,0,0,0,0,29,29,29,1,0,1,0,,,,,,,,,,,,,,,,,,,,,,,,,,,,,,,,,,,,,,,,,,,,,,,,,,,,,,,,,,,,,,,,30,,,,,,,,2482.8796173,2482.8796173,2482.8796173,2482.8796173,2482.8796173,left,0.3465603000004194,23,0,0,99,0.0,0.16,left,0.2550288999998429,,,,,,,,,,,,,,,,,,,,,,,,,,,,,,,,,,,,,,,,,,,,,,,,,,,,,,,,,,,,XMY9RR,train_x,red_square,top_left,2025-08-07_11h12.37.443,HideSeek_v1,2022.2.5,59.93924558067472,
,2,7,2,7,0,0,16,,train_dim1_1,30,30,,,,2,0,2,0,,,,,,,,,0,0,0,0,0,29,29,29,2,0,2,0,,,,,,,,,,,,,,,,,,,,,,,,,,,,,,,,,,,,,,,,,,,,,,,,,,,,,,,,,,,,,,,,30,,,,,,,,2483.2330597,2483.2330597,2483.2330597,2483.2330597,2483.2330597,return,0.4769863000001351,24,0,0,1,0.0,0.16,return,0.39984530000015184,-7,72,0.0,0.16,,,,,,,,,,,,,,,,,,,,,,,,,,,,,,,,,,,,,,,,,,,,,,,,,,,,,,,,XMY9RR,train_x,red_square,top_left,2025-08-07_11h12.37.443,HideSeek_v1,2022.2.5,59.93924558067472,
,,,,,,,,,,,30,,,,2,0,2,0,,,,,,,,,,,,,,,,,,,,,,,,,,,,,,,,,,,,,,,,,,,,,,,,,,,,,,,,,,,,,,,,,,,,,,,,,,stimuli/alien_stimuli/16.png,16,2,32,21,0.7,1.0,1,1,1,30,0,conditions/schedules/train_x_first/red_square_00/top_left/inputTrain_2.1.xlsx,99,1,2,1,0,,,,,,,,,,,1,,,,,,,,,2489.7019875999995,2491.2430328,0,0.16,0.0,0.0,0.16,0,0.0,0,0.16,2485.2863821,2485.2863821,2485.2863821,2485.2863821,2485.2863821,2485.2863821,2485.2863821,2485.2863821,2485.2798834,4.524212199999965,return,4.392265499999439,0,0.9,0,1,24,,,,,,,,,,,,,,,,,,,,,,,,,,,,XMY9RR,train_x,red_square,top_left,2025-08-07_11h12.37.443,HideSeek_v1,2022.2.5,59.93924558067472,
,,,,,,,,,,,,,,,3,0,3,0,0,0,0,0,,,,,,,,,,,,,,,,,,,,,,,,,,,,,,,conditions/schedules/train_x_first/red_square_00/top_left/instructions/Slide17.png,conditions/schedules/train_x_first/red_square_00/top_left/instructions/Audio17.wav,2491.2430328,2491.2352774,17,"[4.884585699999661, 18.00114739999981, 16.884126699999797, 19.585566499999914, 5.132955199999742, 6.3219608999997945, 5.910067000000254, 12.219438199999786, 16.108612200000152, 7.155462499999885, 10.49762950000013, 12.997466599999825, 17.330099599999812, 13.479098599999816, 36.39475880000009, 22.633606099999724, 43.14520959999936]","[0.014339400000153546, 0.03217259999973976, 0.013693599999896833, 0.01375789999974586, 0.050878999999895314, 0.05228910000005271, 0.035606100000222796, 0.035203299999921, 0.11350350000020626, 0.05121640000015759, 0.03363970000009431, 12.997472799999741, 0.06856749999997191, 13.479106399999637, 0.05843849999973827, 22.63361369999984, 43.14521640000021]",0,,,,,,,,,,,,,,,,,,,,,,,,,,,,,,,,,,,,,,,,,,,,,,,,,,,,,,,,,,,,,,,,,,,,,,,,,,,,,,,,,,,,,,,,,,,,,,,,,,,,,,,,,,,,,,,,,,,,,,,,,,,,XMY9RR,train_x,red_square,top_left,2025-08-07_11h12.37.443,HideSeek_v1,2022.2.5,59.93924558067472,
,,,,,,,,,,,,,,,3,0,3,0,1,0,1,0,,,,,,,,,,,,,,,,,,,,,,,,,,,,,,,conditions/schedules/train_x_first/red_square_00/top_left/instructions/Slide18.png,conditions/schedules/train_x_first/red_square_00/top_left/instructions/Audio18.wav,2534.4504871,2534.4411139999993,18,"[4.884585699999661, 18.00114739999981, 16.884126699999797, 19.585566499999914, 5.132955199999742, 6.3219608999997945, 5.910067000000254, 12.219438199999786, 16.108612200000152, 7.155462499999885, 10.49762950000013, 12.997466599999825, 17.330099599999812, 13.479098599999816, 36.39475880000009, 22.633606099999724, 43.14520959999936, 6.579179299999851]","[0.014339400000153546, 0.03217259999973976, 0.013693599999896833, 0.01375789999974586, 0.050878999999895314, 0.05228910000005271, 0.035606100000222796, 0.035203299999921, 0.11350350000020626, 0.05121640000015759, 0.03363970000009431, 12.997472799999741, 0.06856749999997191, 13.479106399999637, 0.05843849999973827, 22.63361369999984, 0.03514970000014728, 6.579185999999936]",0,,,,,,,,,,,,,,,,,,,,,,,,,,,,,,,,,,,,,,,,,,,,,,,,,,,,,,,,,,,,,,,,,,,,,,,,,,,,,,,,,,,,,,,,,,,,,,,,,,,,,,,,,,,,,,,,,,,,,,,,,,,,XMY9RR,train_x,red_square,top_left,2025-08-07_11h12.37.443,HideSeek_v1,2022.2.5,59.93924558067472,
,,,,,,,,,,,,,,,3,0,3,0,2,0,2,0,,,,,,,,,,,,,,,,,,,,,,,,,,,,,,,conditions/schedules/train_x_first/red_square_00/top_left/instructions/Slide19.png,conditions/schedules/train_x_first/red_square_00/top_left/instructions/Audio19.wav,2541.0684751999997,2541.0650185999993,19,"[4.884585699999661, 18.00114739999981, 16.884126699999797, 19.585566499999914, 5.132955199999742, 6.3219608999997945, 5.910067000000254, 12.219438199999786, 16.108612200000152, 7.155462499999885, 10.49762950000013, 12.997466599999825, 17.330099599999812, 13.479098599999816, 36.39475880000009, 22.633606099999724, 43.14520959999936, 6.579179299999851, 11.082868500000586]","[0.014339400000153546, 0.03217259999973976, 0.013693599999896833, 0.01375789999974586, 0.050878999999895314, 0.05228910000005271, 0.035606100000222796, 0.035203299999921, 0.11350350000020626, 0.05121640000015759, 0.03363970000009431, 12.997472799999741, 0.06856749999997191, 13.479106399999637, 0.05843849999973827, 22.63361369999984, 0.03514970000014728, 0.05605080000077578, 11.082875300000524]",0,,,,,,,,,,,,,,,,,,,,,,,,,,,,,,,,,,,,,,,,,,,,,,,,,,,,,,,,,,,,,,,,,,,,,,,,,,,,,,,,,,,,,,,,,,,,,,,,,,,,,,,,,,,,,,,,,,,,,,,,,,,,XMY9RR,train_x,red_square,top_left,2025-08-07_11h12.37.443,HideSeek_v1,2022.2.5,59.93924558067472,
,,,,,,,,,,,,,,,3,0,3,0,3,0,3,0,,,,,,,,,,,,,,,,,,,,,,,,,,,,,,,conditions/schedules/train_x_first/red_square_00/top_left/instructions/Slide20.png,conditions/schedules/train_x_first/red_square_00/top_left/instructions/Audio20.wav,2552.228924,2552.2203134,20,"[4.884585699999661, 18.00114739999981, 16.884126699999797, 19.585566499999914, 5.132955199999742, 6.3219608999997945, 5.910067000000254, 12.219438199999786, 16.108612200000152, 7.155462499999885, 10.49762950000013, 12.997466599999825, 17.330099599999812, 13.479098599999816, 36.39475880000009, 22.633606099999724, 43.14520959999936, 6.579179299999851, 11.082868500000586, 14.618457599999601]","[0.014339400000153546, 0.03217259999973976, 0.013693599999896833, 0.01375789999974586, 0.050878999999895314, 0.05228910000005271, 0.035606100000222796, 0.035203299999921, 0.11350350000020626, 0.05121640000015759, 0.03363970000009431, 12.997472799999741, 0.06856749999997191, 13.479106399999637, 0.05843849999973827, 22.63361369999984, 0.03514970000014728, 0.05605080000077578, 0.013849199999640405, 14.618464600000152]",0,,,,,,,,,,,,,,,,,,,,,,,,,,,,,,,,,,,,,,,,,,,,,,,,,,,,,,,,,,,,,,,,,,,,,,,,,,,,,,,,,,,,,,,,,,,,,,,,,,,,,,,,,,,,,,,,,,,,,,,,,,,,XMY9RR,train_x,red_square,top_left,2025-08-07_11h12.37.443,HideSeek_v1,2022.2.5,59.93924558067472,
1,2,8,2,3,0,-5,11,2,instr_dim1_2,,,,,,3,0,3,0,,,,,0,0,0,0,,,,,,,,,,,,,,,,,,,,,,,,,,,,,,,,,,,,,stimuli/alien_stimuli/11.png,conditions/schedules/train_x_first/red_square_00/top_left/inputInstr_2.xlsx,stimuli/alien_stimuli/11.png,2566.9481971999994,2566.9481971999994,2566.9481971999994,2566.9481971999994,2566.9498066,return,6.816089200000306,"[-0.16, -0.08, 0, 0.08, 0.16, 0.24, 0.32, 0.4, 0.48, 0.56]","[-0.4, -0.32, -0.24, -0.16, -0.08, 0, 0.08, 0.16, 0.24, 0.32]",3,8,2,2,0.4,0.0,2573.9358600999994,2573.9358600999994,2573.9358600999994,2573.9358600999994,2573.9358600999994,2573.9358600999994,2573.9358600999994,2573.9368683999996,6.840563400000065,return,6.669561299999941,stimuli/alien_stimuli/11.png,11,2,1,,,,,,,,,,,,,,,,,,,,,,,,,,,,,,,,,,,,,,,,,,,,,,,,,,,,,,,,,,,,,,,,,,,,,,,,,,,,,,,,,,,,,,,,,XMY9RR,train_x,red_square,top_left,2025-08-07_11h12.37.443,HideSeek_v1,2022.2.5,59.93924558067472,
,,,,,,,,,,,30,,,,3,0,3,0,,,,,,,,,,,,,,,,,,,,,,,,,,,,,,,,,,,,,,,,,,,,,,,,,,,,,,,,,,,,,,,,,,,,,,,,,,,,,,21,0.7,1.0,1,99,2,30,0,conditions/schedules/train_x_first/red_square_00/top_left/inputTrain_2.1.xlsx,99,1,2,1,0,,,,,,,,,,,,,,,,,,,,,,,,,,,,,,,,,,,,,,,,,,,,,,,,,,,,,,,,,,,,,,,,,,,,,,,,,,,XMY9RR,train_x,red_square,top_left,2025-08-07_11h12.37.443,HideSeek_v1,2022.2.5,59.93924558067472,
,,,,,,,,,,,,,,,4,0,4,0,0,0,0,0,,,,,,,,,,,,,,,,,,,,,,,,,,,,,,,conditions/schedules/train_x_first/red_square_00/top_left/instructions/Slide21.png,conditions/schedules/train_x_first/red_square_00/top_left/instructions/Audio21.wav,2580.7744875999997,2580.7763151000004,21,"[4.884585699999661, 18.00114739999981, 16.884126699999797, 19.585566499999914, 5.132955199999742, 6.3219608999997945, 5.910067000000254, 12.219438199999786, 16.108612200000152, 7.155462499999885, 10.49762950000013, 12.997466599999825, 17.330099599999812, 13.479098599999816, 36.39475880000009, 22.633606099999724, 43.14520959999936, 6.579179299999851, 11.082868500000586, 14.618457599999601, 16.970029500000237]","[0.014339400000153546, 0.03217259999973976, 0.013693599999896833, 0.01375789999974586, 0.050878999999895314, 0.05228910000005271, 0.035606100000222796, 0.035203299999921, 0.11350350000020626, 0.05121640000015759, 0.03363970000009431, 12.997472799999741, 0.06856749999997191, 13.479106399999637, 0.05843849999973827, 22.63361369999984, 0.03514970000014728, 0.05605080000077578, 0.013849199999640405, 14.618464600000152, 16.97003610000047]",0,,,,,,,,,,,,,,,,,,,,,,,,,,,,,,,,,,,,,,,,,,,,,,,,,,,,,,,,,,,,,,,,,,,,,,,,,,,,,,,,,,,,,,,,,,,,,,,,,,,,,,,,,,,,,,,,,,,,,,,,,,,,XMY9RR,train_x,red_square,top_left,2025-08-07_11h12.37.443,HideSeek_v1,2022.2.5,59.93924558067472,
2,0,8,0,8,0,0,16,2,instr_dim1_2,,,,,,4,0,4,0,,,,,0,0,0,0,,,,,,,,,,,,,,,,,,,,,,,,,,,,,,,,,,,,,stimuli/alien_stimuli/16.png,conditions/schedules/train_x_first/red_square_00/top_left/inputInstr_2.xlsx,stimuli/alien_stimuli/16.png,2597.8461528999997,2597.8461528999997,2597.8461528999997,2597.8461528999997,2597.8465706,return,7.517187499999409,"[-0.16, -0.08, 0, 0.08, 0.16, 0.24, 0.32, 0.4, 0.48, 0.56]","[-0.4, -0.32, -0.24, -0.16, -0.08, 0, 0.08, 0.16, 0.24, 0.32]",8,8,0,0,0.0,0.0,2605.5210587,2605.5210587,2605.5210587,2605.5210587,2605.5210587,2605.5210587,2605.5210587,2605.5131414,8.418468699999721,return,8.24660949999975,stimuli/alien_stimuli/16.png,16,0,2,,,,,,,,,,,,,,,,,,,,,,,,,,,,,,,,,,,,,,,,,,,,,,,,,,,,,,,,,,,,,,,,,,,,,,,,,,,,,,,,,,,,,,,,,XMY9RR,train_x,red_square,top_left,2025-08-07_11h12.37.443,HideSeek_v1,2022.2.5,59.93924558067472,
,,,,,,,,,,,30,,,,4,0,4,0,,,,,,,,,,,,,,,,,,,,,,,,,,,,,,,,,,,,,,,,,,,,,,,,,,,,,,,,,,,,,,,,,,,,,,,,,,,,,,21,0.7,1.0,1,99,2,30,0,conditions/schedules/train_x_first/red_square_00/top_left/inputTrain_2.1.xlsx,99,1,2,1,0,,,,,,,,,,,,,,,,,,,,,,,,,,,,,,,,,,,,,,,,,,,,,,,,,,,,,,,,,,,,,,,,,,,,,,,,,,,XMY9RR,train_x,red_square,top_left,2025-08-07_11h12.37.443,HideSeek_v1,2022.2.5,59.93924558067472,
,,,,,,,,,,,,,,,5,0,5,0,0,0,0,0,,,,,,,,,,,,,,,,,,,,,,,,,,,,,,,conditions/schedules/train_x_first/red_square_00/top_left/instructions/Slide22.png,conditions/schedules/train_x_first/red_square_00/top_left/instructions/Audio22.wav,2613.9577975,2613.9474607999996,22,"[4.884585699999661, 18.00114739999981, 16.884126699999797, 19.585566499999914, 5.132955199999742, 6.3219608999997945, 5.910067000000254, 12.219438199999786, 16.108612200000152, 7.155462499999885, 10.49762950000013, 12.997466599999825, 17.330099599999812, 13.479098599999816, 36.39475880000009, 22.633606099999724, 43.14520959999936, 6.579179299999851, 11.082868500000586, 14.618457599999601, 16.970029500000237, 45.16794729999947]","[0.014339400000153546, 0.03217259999973976, 0.013693599999896833, 0.01375789999974586, 0.050878999999895314, 0.05228910000005271, 0.035606100000222796, 0.035203299999921, 0.11350350000020626, 0.05121640000015759, 0.03363970000009431, 12.997472799999741, 0.06856749999997191, 13.479106399999637, 0.05843849999973827, 22.63361369999984, 0.03514970000014728, 0.05605080000077578, 0.013849199999640405, 14.618464600000152, 16.97003610000047, 45.16795490000004]",0,,,,,,,,,,,,,,,,,,,,,,,,,,,,,,,,,,,,,,,,,,,,,,,,,,,,,,,,,,,,,,,,,,,,,,,,,,,,,,,,,,,,,,,,,,,,,,,,,,,,,,,,,,,,,,,,,,,,,,,,,,,,XMY9RR,train_x,red_square,top_left,2025-08-07_11h12.37.443,HideSeek_v1,2022.2.5,59.93924558067472,
,0,5,0,4,0,-1,15,,train_dim1_2,1,30,,,,5,0,5,0,,,,,,,,,0,0,0,0,0,0,0,0,0,0,0,0,,,,,,,,,,,,,,,,,,,,,,,,,stimuli/alien_stimuli/15.png,,,,,,,,,,,,,,,,,,,,,,,,,,,,,,,,,,,,,,,30,,,,,,,,2659.2275909,2659.2275909,2659.2275909,2659.2275909,2659.2275909,right,3.5930342000001474,0,0,0,99,-0.08,0,right,3.48727920000033,,,,,,,,,,,,,,,,,,,,,,,,,,,,,,,,,,,,,,,,,,,,,,,,,,,,,,,,,,,,XMY9RR,train_x,red_square,top_left,2025-08-07_11h12.37.443,HideSeek_v1,2022.2.5,59.93924558067472,
,0,5,0,4,0,-1,15,,train_dim1_2,1,30,,,,5,0,5,0,,,,,,,,,0,0,0,0,0,0,0,0,1,0,1,0,,,,,,,,,,,,,,,,,,,,,,,,,,,,,,,,,,,,,,,,,,,,,,,,,,,,,,,,,,,,,,,,30,,,,,,,,2662.8129112999995,2662.8129112999995,2662.8129112999995,2662.8129112999995,2662.8129112999995,left,0.7764252999995733,0,0,0,99,-0.16,0,left,0.695385299999316,,,,,,,,,,,,,,,,,,,,,,,,,,,,,,,,,,,,,,,,,,,,,,,,,,,,,,,,,,,,XMY9RR,train_x,red_square,top_left,2025-08-07_11h12.37.443,HideSeek_v1,2022.2.5,59.93924558067472,
,0,5,0,4,0,-1,15,,train_dim1_2,1,30,,,,5,0,5,0,,,,,,,,,0,0,0,0,0,0,0,0,2,0,2,0,,,,,,,,,,,,,,,,,,,,,,,,,,,,,,,,,,,,,,,,,,,,,,,,,,,,,,,,,,,,,,,,30,,,,,,,,2663.5957012999997,2663.5957012999997,2663.5957012999997,2663.5957012999997,2663.5957012999997,return,0.6939412000001539,0,1,0,0,-0.16,0,return,0.6016462999994019,-7,72,-0.16,0,,,,,,,,,,,,,,,,,,,,,,,,,,,,,,,,,,,,,,,,,,,,,,,,,,,,,,,,XMY9RR,train_x,red_square,top_left,2025-08-07_11h12.37.443,HideSeek_v1,2022.2.5,59.93924558067472,
