trialInstr,x_fixStart,y_fixStart,x_corrSteps,y_corrSteps,x_nrSteps,y_nrSteps,alienID,trialLength,version,trialTrain,praclen,testlen,trial_label,break_on_off,beforeExpLoop.thisRepN,beforeExpLoop.thisTrialN,beforeExpLoop.thisN,beforeExpLoop.thisIndex,mini_instr_trials.thisRepN,mini_instr_trials.thisTrialN,mini_instr_trials.thisN,mini_instr_trials.thisIndex,instrLoop.thisRepN,instrLoop.thisTrialN,instrLoop.thisN,instrLoop.thisIndex,repeat_prac.thisRepN,repeat_prac.thisTrialN,repeat_prac.thisN,repeat_prac.thisIndex,trainLoop.thisRepN,trainLoop.thisTrialN,trainLoop.thisN,trainLoop.thisIndex,moveLoop_train.thisRepN,moveLoop_train.thisTrialN,moveLoop_train.thisN,moveLoop_train.thisIndex,experiment.thisRepN,experiment.thisTrialN,experiment.thisN,experiment.thisIndex,moveLoop_test.thisRepN,moveLoop_test.thisTrialN,moveLoop_test.thisN,moveLoop_test.thisIndex,mini_instr2_trials.thisRepN,mini_instr2_trials.thisTrialN,mini_instr2_trials.thisN,mini_instr2_trials.thisIndex,start_all_time,url,slideStim,audioStim,slides.started,sounds.started,nextButton.numClicks,nextButton.timesOn,nextButton.timesOff,prev_but.numClicks,prev_but.timesOn,prev_but.timesOff,alienStim,instrFile,alienStim_instr,gridImage_instr.started,startPos_3.started,key_instr.started,alienImage_3.started,sounds_1.started,key_instr.keys,key_instr.rt,all_x,all_y,FBy_corrSteps,FBy_fixStart,FBx_corrSteps,FBx_fixStart,FBy_pathSize_check,FBx_pathSize_check,gridImage_9.started,alienImageFB_3.started,startPosFB_3.started,keyFB_3.started,pathLine_ydir_2.started,pathLine_xdir_2.started,alienFace_3.started,sounds_2.started,RTFB_instr,keyFB_3.keys,keyFB_3.rt,draw_alienStim,draw_alienID,test_x,nrepcount,perfthres,percthres,earlierperf,earlystop,nextPrac,fileidx,praclen,saveACC_train,pracFile,nextPrac_train,addNrep,fileidx_endr,repExp,showearly,gridImage_4.started,startPos.started,movePos.started,key_resp.started,alienImage.started,buttonPress_train,RTchoice_train,cumAcctrain,aCorr,saveACC_choice,corrAns,x_movePos_end,y_movePos_end,key_resp.keys,key_resp.rt,wLy_dir,wLx_dir,x_movePos,y_movePos,text_2.started,text_2.stopped,aft_x_corrPos,aft_y_corrPos,y_pathSize_check,x_pathSize_check,y_pathdirY,x_pathdirY,x_pathdirX,x_corrPos,y_corrPos,gridImage_6.started,alienImageFB_2.started,startPosFB_2.started,movePosFB_2.started,keyFB_2.started,pathLine_xdir.started,pathLine_ydir.started,alienFace.started,sounds_4.started,RT_FBtrain,keyFB_2.keys,keyFB_2.rt,saveACC_pre,ACC,within_saveACC_train,earlystop_wloop,cumAcctrain_check,gridImage_3.started,alienImage_test.started,startPos_test.started,movePos_test.started,key_resp_test.started,wLy_dir_test,wLx_dir_test,buttonPress_test,RTchoice_test,cumAcctest,corrAns_test,key_resp_test.keys,key_resp_test.rt,text_3.started,text_3.stopped,total_time,end_all_time,key_resp_3.keys,slides_2.started,sounds_3.started,nextButton_2.numClicks,nextButton_2.timesOn,nextButton_2.timesOff,prev_but_2.numClicks,prev_but_2.timesOn,prev_but_2.timesOff,bye.started,participant,train_first,00_coordinate,starting corner,date,expName,psychopyVersion,frameRate,
,,,,,,,,,,,,,,,0,0,0,0,0,0,0,0,,,,,,,,,,,,,,,,,,,,,,,,,,,,,start_all_time,testround,conditions/schedules/Train_x_first/blue_star_00/bottom_left/instructions/Slide1.png,conditions/schedules/Train_x_first/blue_star_00/bottom_left/instructions/Audio1.wav,47.72883329999999,47.67532535999959,1,[3.477441700000014],[3.477452200000016],0,,,,,,,,,,,,,,,,,,,,,,,,,,,,,,,,,,,,,,,,,,,,,,,,,,,,,,,,,,,,,,,,,,,,,,,,,,,,,,,,,,,,,,,,,,,,,,,,,,,,,,,,,,,,,,,,,,,,,,,,,,,,M9DFQn,Train_x,blue_star,bottom_left,2025-05-07_14h55.26.120,HideSeek_v1,2022.2.5,59.95164300475722,
,,,,,,,,,,,,,,,0,0,0,0,1,0,1,0,,,,,,,,,,,,,,,,,,,,,,,,,,,,,,,conditions/schedules/Train_x_first/blue_star_00/bottom_left/instructions/Slide2.png,conditions/schedules/Train_x_first/blue_star_00/bottom_left/instructions/Audio2.wav,51.22649199999998,51.22716919999999,2,"[3.477441700000014, 11.174345899999992]","[0.032131099999986645, 11.174352400000004]",0,,,,,,,,,,,,,,,,,,,,,,,,,,,,,,,,,,,,,,,,,,,,,,,,,,,,,,,,,,,,,,,,,,,,,,,,,,,,,,,,,,,,,,,,,,,,,,,,,,,,,,,,,,,,,,,,,,,,,,,,,,,,M9DFQn,Train_x,blue_star,bottom_left,2025-05-07_14h55.26.120,HideSeek_v1,2022.2.5,59.95164300475722,
,,,,,,,,,,,,,,,0,0,0,0,2,0,2,0,,,,,,,,,,,,,,,,,,,,,,,,,,,,,,,conditions/schedules/Train_x_first/blue_star_00/bottom_left/instructions/Slide3.png,conditions/schedules/Train_x_first/blue_star_00/bottom_left/instructions/Audio3.wav,62.475838599999975,62.469808899999975,3,"[3.477441700000014, 11.174345899999992, 16.905463499999996]","[0.032131099999986645, 0.00022229999999012762, 16.905470399999984]",0,,,,,,,,,,,,,,,,,,,,,,,,,,,,,,,,,,,,,,,,,,,,,,,,,,,,,,,,,,,,,,,,,,,,,,,,,,,,,,,,,,,,,,,,,,,,,,,,,,,,,,,,,,,,,,,,,,,,,,,,,,,,M9DFQn,Train_x,blue_star,bottom_left,2025-05-07_14h55.26.120,HideSeek_v1,2022.2.5,59.95164300475722,
,,,,,,,,,,,,,,,0,0,0,0,3,0,3,0,,,,,,,,,,,,,,,,,,,,,,,,,,,,,,,conditions/schedules/Train_x_first/blue_star_00/bottom_left/instructions/Slide4.png,conditions/schedules/Train_x_first/blue_star_00/bottom_left/instructions/Audio4.wav,79.45243929999998,79.45025519999999,4,"[3.477441700000014, 11.174345899999992, 16.905463499999996, 19.629622599999976]","[0.032131099999986645, 0.00022229999999012762, 0.047239300000001094, 19.62962859999999]",0,,,,,,,,,,,,,,,,,,,,,,,,,,,,,,,,,,,,,,,,,,,,,,,,,,,,,,,,,,,,,,,,,,,,,,,,,,,,,,,,,,,,,,,,,,,,,,,,,,,,,,,,,,,,,,,,,,,,,,,,,,,,M9DFQn,Train_x,blue_star,bottom_left,2025-05-07_14h55.26.120,HideSeek_v1,2022.2.5,59.95164300475722,
,,,,,,,,,,,,,,,0,0,0,0,4,0,4,0,,,,,,,,,,,,,,,,,,,,,,,,,,,,,,,conditions/schedules/Train_x_first/blue_star_00/bottom_left/instructions/Slide5.png,conditions/schedules/Train_x_first/blue_star_00/bottom_left/instructions/Audio5.wav,99.13964429999999,99.13472413999997,5,"[3.477441700000014, 11.174345899999992, 16.905463499999996, 19.629622599999976, 4.261865]","[0.032131099999986645, 0.00022229999999012762, 0.047239300000001094, 0.0637313000000006, 4.261871900000017]",0,,,,,,,,,,,,,,,,,,,,,,,,,,,,,,,,,,,,,,,,,,,,,,,,,,,,,,,,,,,,,,,,,,,,,,,,,,,,,,,,,,,,,,,,,,,,,,,,,,,,,,,,,,,,,,,,,,,,,,,,,,,,M9DFQn,Train_x,blue_star,bottom_left,2025-05-07_14h55.26.120,HideSeek_v1,2022.2.5,59.95164300475722,
,,,,,,,,,,,,,,,0,0,0,0,5,0,5,0,,,,,,,,,,,,,,,,,,,,,,,,,,,,,,,conditions/schedules/Train_x_first/blue_star_00/bottom_left/instructions/Slide6.png,conditions/schedules/Train_x_first/blue_star_00/bottom_left/instructions/Audio6.wav,103.4518914,103.45387843999998,6,"[3.477441700000014, 11.174345899999992, 16.905463499999996, 19.629622599999976, 4.261865, 4.886705199999994]","[0.032131099999986645, 0.00022229999999012762, 0.047239300000001094, 0.0637313000000006, 0.04945769999997651, 4.886710999999991]",0,,,,,,,,,,,,,,,,,,,,,,,,,,,,,,,,,,,,,,,,,,,,,,,,,,,,,,,,,,,,,,,,,,,,,,,,,,,,,,,,,,,,,,,,,,,,,,,,,,,,,,,,,,,,,,,,,,,,,,,,,,,,M9DFQn,Train_x,blue_star,bottom_left,2025-05-07_14h55.26.120,HideSeek_v1,2022.2.5,59.95164300475722,
,,,,,,,,,,,,,,,0,0,0,0,6,0,6,0,,,,,,,,,,,,,,,,,,,,,,,,,,,,,,,conditions/schedules/Train_x_first/blue_star_00/bottom_left/instructions/Slide7.png,conditions/schedules/Train_x_first/blue_star_00/bottom_left/instructions/Audio7.wav,108.40356789999998,108.39136054,7,"[3.477441700000014, 11.174345899999992, 16.905463499999996, 19.629622599999976, 4.261865, 4.886705199999994, 5.74052549999999]","[0.032131099999986645, 0.00022229999999012762, 0.047239300000001094, 0.0637313000000006, 0.04945769999997651, 0.05279930000000377, 5.740532200000018]",0,,,,,,,,,,,,,,,,,,,,,,,,,,,,,,,,,,,,,,,,,,,,,,,,,,,,,,,,,,,,,,,,,,,,,,,,,,,,,,,,,,,,,,,,,,,,,,,,,,,,,,,,,,,,,,,,,,,,,,,,,,,,M9DFQn,Train_x,blue_star,bottom_left,2025-05-07_14h55.26.120,HideSeek_v1,2022.2.5,59.95164300475722,
,,,,,,,,,,,,,,,0,0,0,0,7,0,7,0,,,,,,,,,,,,,,,,,,,,,,,,,,,,,,,conditions/schedules/Train_x_first/blue_star_00/bottom_left/instructions/Slide8.png,conditions/schedules/Train_x_first/blue_star_00/bottom_left/instructions/Audio8.wav,114.19754549999999,114.19592843999999,8,"[3.477441700000014, 11.174345899999992, 16.905463499999996, 19.629622599999976, 4.261865, 4.886705199999994, 5.74052549999999, 11.57216790000001]","[0.032131099999986645, 0.00022229999999012762, 0.047239300000001094, 0.0637313000000006, 0.04945769999997651, 0.05279930000000377, 0.014294099999972332, 11.572174000000018]",0,,,,,,,,,,,,,,,,,,,,,,,,,,,,,,,,,,,,,,,,,,,,,,,,,,,,,,,,,,,,,,,,,,,,,,,,,,,,,,,,,,,,,,,,,,,,,,,,,,,,,,,,,,,,,,,,,,,,,,,,,,,,M9DFQn,Train_x,blue_star,bottom_left,2025-05-07_14h55.26.120,HideSeek_v1,2022.2.5,59.95164300475722,
,,,,,,,,,,,,,,,0,0,0,0,8,0,8,0,,,,,,,,,,,,,,,,,,,,,,,,,,,,,,,conditions/schedules/Train_x_first/blue_star_00/bottom_left/instructions/Slide9.png,conditions/schedules/Train_x_first/blue_star_00/bottom_left/instructions/Audio9.wav,125.83304989999999,125.82216213999999,9,"[3.477441700000014, 11.174345899999992, 16.905463499999996, 19.629622599999976, 4.261865, 4.886705199999994, 5.74052549999999, 11.57216790000001, 6.292364700000007]","[0.032131099999986645, 0.00022229999999012762, 0.047239300000001094, 0.0637313000000006, 0.04945769999997651, 0.05279930000000377, 0.014294099999972332, 0.07061630000004016, 6.292371400000036]",0,,,,,,,,,,,,,,,,,,,,,,,,,,,,,,,,,,,,,,,,,,,,,,,,,,,,,,,,,,,,,,,,,,,,,,,,,,,,,,,,,,,,,,,,,,,,,,,,,,,,,,,,,,,,,,,,,,,,,,,,,,,,M9DFQn,Train_x,blue_star,bottom_left,2025-05-07_14h55.26.120,HideSeek_v1,2022.2.5,59.95164300475722,
,,,,,,,,,,,,,,,0,0,0,0,9,0,9,0,,,,,,,,,,,,,,,,,,,,,,,,,,,,,,,conditions/schedules/Train_x_first/blue_star_00/bottom_left/instructions/Slide10.png,conditions/schedules/Train_x_first/blue_star_00/bottom_left/instructions/Audio10.wav,132.1618825,132.16084328,10,"[3.477441700000014, 11.174345899999992, 16.905463499999996, 19.629622599999976, 4.261865, 4.886705199999994, 5.74052549999999, 11.57216790000001, 6.292364700000007, 7.353695200000004]","[0.032131099999986645, 0.00022229999999012762, 0.047239300000001094, 0.0637313000000006, 0.04945769999997651, 0.05279930000000377, 0.014294099999972332, 0.07061630000004016, 0.11326390000004949, 7.35370260000002]",0,,,,,,,,,,,,,,,,,,,,,,,,,,,,,,,,,,,,,,,,,,,,,,,,,,,,,,,,,,,,,,,,,,,,,,,,,,,,,,,,,,,,,,,,,,,,,,,,,,,,,,,,,,,,,,,,,,,,,,,,,,,,M9DFQn,Train_x,blue_star,bottom_left,2025-05-07_14h55.26.120,HideSeek_v1,2022.2.5,59.95164300475722,
,,,,,,,,,,,,,,,0,0,0,0,10,0,10,0,,,,,,,,,,,,,,,,,,,,,,,,,,,,,,,conditions/schedules/Train_x_first/blue_star_00/bottom_left/instructions/Slide11.png,conditions/schedules/Train_x_first/blue_star_00/bottom_left/instructions/Audio11.wav,139.5778954,139.56702873999996,11,"[3.477441700000014, 11.174345899999992, 16.905463499999996, 19.629622599999976, 4.261865, 4.886705199999994, 5.74052549999999, 11.57216790000001, 6.292364700000007, 7.353695200000004, 9.66193480000004]","[0.032131099999986645, 0.00022229999999012762, 0.047239300000001094, 0.0637313000000006, 0.04945769999997651, 0.05279930000000377, 0.014294099999972332, 0.07061630000004016, 0.11326390000004949, 0.014561300000025312, 9.661941200000001]",0,,,,,,,,,,,,,,,,,,,,,,,,,,,,,,,,,,,,,,,,,,,,,,,,,,,,,,,,,,,,,,,,,,,,,,,,,,,,,,,,,,,,,,,,,,,,,,,,,,,,,,,,,,,,,,,,,,,,,,,,,,,,M9DFQn,Train_x,blue_star,bottom_left,2025-05-07_14h55.26.120,HideSeek_v1,2022.2.5,59.95164300475722,
,,,,,,,,,,,,,,,0,0,0,0,11,0,11,0,,,,,,,,,,,,,,,,,,,,,,,,,,,,,,,conditions/schedules/Train_x_first/blue_star_00/bottom_left/instructions/Slide12.png,conditions/schedules/Train_x_first/blue_star_00/bottom_left/instructions/Audio12.wav,149.29828599999996,149.29176223999997,12,"[3.477441700000014, 11.174345899999992, 16.905463499999996, 19.629622599999976, 4.261865, 4.886705199999994, 5.74052549999999, 11.57216790000001, 6.292364700000007, 7.353695200000004, 9.66193480000004, 12.767844400000001]","[0.032131099999986645, 0.00022229999999012762, 0.047239300000001094, 0.0637313000000006, 0.04945769999997651, 0.05279930000000377, 0.014294099999972332, 0.07061630000004016, 0.11326390000004949, 0.014561300000025312, 0.07392699999996921, 12.767850399999986]",0,,,,,,,,,,,,,,,,,,,,,,,,,,,,,,,,,,,,,,,,,,,,,,,,,,,,,,,,,,,,,,,,,,,,,,,,,,,,,,,,,,,,,,,,,,,,,,,,,,,,,,,,,,,,,,,,,,,,,,,,,,,,M9DFQn,Train_x,blue_star,bottom_left,2025-05-07_14h55.26.120,HideSeek_v1,2022.2.5,59.95164300475722,
1,4,0,9,0,5,0,11,2,instr_dim1_1,,,,,,0,0,0,0,,,,,0,0,0,0,,,,,,,,,,,,,,,,,,,,,,,,,,,,,,,,,,,,,stimuli/alien_stimuli/11.png,conditions/schedules/Train_x_first/blue_star_00/bottom_left/inputInstr_1.xlsx,stimuli/alien_stimuli/11.png,162.16382879999998,162.16382879999998,162.16382879999998,162.16382879999998,162.15239726,return,13.17492900000002,"[-0.16, -0.08, 0, 0.08, 0.16, 0.24, 0.32, 0.4, 0.48, 0.56]","[-0.4, -0.32, -0.24, -0.16, -0.08, 0, 0.08, 0.16, 0.24, 0.32]",0,0,9,4,0.0,0.4,175.5130535,175.5130535,175.5130535,175.5130535,175.5130535,175.5130535,175.5130535,175.49666123999998,7.190361999999993,return,7.012083000000018,stimuli/alien_stimuli/11.png,11,4,1,,,,,,,,,,,,,,,,,,,,,,,,,,,,,,,,,,,,,,,,,,,,,,,,,,,,,,,,,,,,,,,,,,,,,,,,,,,,,,,,,,,,,,,,,M9DFQn,Train_x,blue_star,bottom_left,2025-05-07_14h55.26.120,HideSeek_v1,2022.2.5,59.95164300475722,
,,,,,,,,,,,30,,,,0,0,0,0,,,,,,,,,,,,,,,,,,,,,,,,,,,,,,,,,,,,,,,,,,,,,,,,,,,,,,,,,,,,,,,,,,,,,,,,,,,,,,21,0.7,0,0,99,1,30,0,conditions/schedules/Train_x_first/blue_star_00/bottom_left/inputTrain_1.1.xlsx,99,1,1,1,0,,,,,,,,,,,,,,,,,,,,,,,,,,,,,,,,,,,,,,,,,,,,,,,,,,,,,,,,,,,,,,,,,,,,,,,,,,,M9DFQn,Train_x,blue_star,bottom_left,2025-05-07_14h55.26.120,HideSeek_v1,2022.2.5,59.95164300475722,
,,,,,,,,,,,,,,,1,0,1,0,0,0,0,0,,,,,,,,,,,,,,,,,,,,,,,,,,,,,,,conditions/schedules/Train_x_first/blue_star_00/bottom_left/instructions/Slide13.png,conditions/schedules/Train_x_first/blue_star_00/bottom_left/instructions/Audio13.wav,182.6818295,182.66947308,13,"[3.477441700000014, 11.174345899999992, 16.905463499999996, 19.629622599999976, 4.261865, 4.886705199999994, 5.74052549999999, 11.57216790000001, 6.292364700000007, 7.353695200000004, 9.66193480000004, 12.767844400000001, 17.199413899999968]","[0.032131099999986645, 0.00022229999999012762, 0.047239300000001094, 0.0637313000000006, 0.04945769999997651, 0.05279930000000377, 0.014294099999972332, 0.07061630000004016, 0.11326390000004949, 0.014561300000025312, 0.07392699999996921, 12.767850399999986, 17.199420799999984]",0,,,,,,,,,,,,,,,,,,,,,,,,,,,,,,,,,,,,,,,,,,,,,,,,,,,,,,,,,,,,,,,,,,,,,,,,,,,,,,,,,,,,,,,,,,,,,,,,,,,,,,,,,,,,,,,,,,,,,,,,,,,,M9DFQn,Train_x,blue_star,bottom_left,2025-05-07_14h55.26.120,HideSeek_v1,2022.2.5,59.95164300475722,
,,,,,,,,,,,,,,,1,0,1,0,1,0,1,0,,,,,,,,,,,,,,,,,,,,,,,,,,,,,,,conditions/schedules/Train_x_first/blue_star_00/bottom_left/instructions/Slide14.png,conditions/schedules/Train_x_first/blue_star_00/bottom_left/instructions/Audio14.wav,199.9502743,199.95045779999998,14,"[3.477441700000014, 11.174345899999992, 16.905463499999996, 19.629622599999976, 4.261865, 4.886705199999994, 5.74052549999999, 11.57216790000001, 6.292364700000007, 7.353695200000004, 9.66193480000004, 12.767844400000001, 17.199413899999968, 13.225142199999993]","[0.032131099999986645, 0.00022229999999012762, 0.047239300000001094, 0.0637313000000006, 0.04945769999997651, 0.05279930000000377, 0.014294099999972332, 0.07061630000004016, 0.11326390000004949, 0.014561300000025312, 0.07392699999996921, 12.767850399999986, 0.03092540000000099, 13.225148699999977]",0,,,,,,,,,,,,,,,,,,,,,,,,,,,,,,,,,,,,,,,,,,,,,,,,,,,,,,,,,,,,,,,,,,,,,,,,,,,,,,,,,,,,,,,,,,,,,,,,,,,,,,,,,,,,,,,,,,,,,,,,,,,,M9DFQn,Train_x,blue_star,bottom_left,2025-05-07_14h55.26.120,HideSeek_v1,2022.2.5,59.95164300475722,
2,3,2,3,2,0,0,61,2,instr_dim1_1,,,,,,1,0,1,0,,,,,0,0,0,0,,,,,,,,,,,,,,,,,,,,,,,,,,,,,,,,,,,,,stimuli/alien_stimuli/61.png,conditions/schedules/Train_x_first/blue_star_00/bottom_left/inputInstr_1.xlsx,stimuli/alien_stimuli/61.png,213.2819619,213.2819619,213.2819619,213.2819619,213.27766492,return,6.660671600000001,"[-0.16, -0.08, 0, 0.08, 0.16, 0.24, 0.32, 0.4, 0.48, 0.56]","[-0.4, -0.32, -0.24, -0.16, -0.08, 0, 0.08, 0.16, 0.24, 0.32]",2,2,3,3,0.0,0.0,220.10105929999997,220.10105929999997,220.10105929999997,220.10105929999997,220.10105929999997,220.10105929999997,220.10105929999997,220.08327287999998,6.50658100000004,return,6.3454294,stimuli/alien_stimuli/61.png,61,3,2,,,,,,,,,,,,,,,,,,,,,,,,,,,,,,,,,,,,,,,,,,,,,,,,,,,,,,,,,,,,,,,,,,,,,,,,,,,,,,,,,,,,,,,,,M9DFQn,Train_x,blue_star,bottom_left,2025-05-07_14h55.26.120,HideSeek_v1,2022.2.5,59.95164300475722,
,,,,,,,,,,,30,,,,1,0,1,0,,,,,,,,,,,,,,,,,,,,,,,,,,,,,,,,,,,,,,,,,,,,,,,,,,,,,,,,,,,,,,,,,,,,,,,,,,,,,,21,0.7,0,0,99,1,30,0,conditions/schedules/Train_x_first/blue_star_00/bottom_left/inputTrain_1.1.xlsx,99,1,1,1,0,,,,,,,,,,,,,,,,,,,,,,,,,,,,,,,,,,,,,,,,,,,,,,,,,,,,,,,,,,,,,,,,,,,,,,,,,,,M9DFQn,Train_x,blue_star,bottom_left,2025-05-07_14h55.26.120,HideSeek_v1,2022.2.5,59.95164300475722,
,,,,,,,,,,,,,,,2,0,2,0,0,0,0,0,,,,,,,,,,,,,,,,,,,,,,,,,,,,,,,conditions/schedules/Train_x_first/blue_star_00/bottom_left/instructions/Slide15.png,conditions/schedules/Train_x_first/blue_star_00/bottom_left/instructions/Audio15.wav,226.6098192,226.60573563999998,15,"[3.477441700000014, 11.174345899999992, 16.905463499999996, 19.629622599999976, 4.261865, 4.886705199999994, 5.74052549999999, 11.57216790000001, 6.292364700000007, 7.353695200000004, 9.66193480000004, 12.767844400000001, 17.199413899999968, 13.225142199999993, 30.637794299999996]","[0.032131099999986645, 0.00022229999999012762, 0.047239300000001094, 0.0637313000000006, 0.04945769999997651, 0.05279930000000377, 0.014294099999972332, 0.07061630000004016, 0.11326390000004949, 0.014561300000025312, 0.07392699999996921, 12.767850399999986, 0.03092540000000099, 13.225148699999977, 30.63780159999999]",0,,,,,,,,,,,,,,,,,,,,,,,,,,,,,,,,,,,,,,,,,,,,,,,,,,,,,,,,,,,,,,,,,,,,,,,,,,,,,,,,,,,,,,,,,,,,,,,,,,,,,,,,,,,,,,,,,,,,,,,,,,,,M9DFQn,Train_x,blue_star,bottom_left,2025-05-07_14h55.26.120,HideSeek_v1,2022.2.5,59.95164300475722,
,,,,,,,,,,,,,,,2,0,2,0,1,0,1,0,,,,,,,,,,,,,,,,,,,,,,,,,,,,,,,conditions/schedules/Train_x_first/blue_star_00/bottom_left/instructions/Slide16.png,conditions/schedules/Train_x_first/blue_star_00/bottom_left/instructions/Audio16.wav,257.3233449,257.31436879999995,16,"[3.477441700000014, 11.174345899999992, 16.905463499999996, 19.629622599999976, 4.261865, 4.886705199999994, 5.74052549999999, 11.57216790000001, 6.292364700000007, 7.353695200000004, 9.66193480000004, 12.767844400000001, 17.199413899999968, 13.225142199999993, 30.637794299999996, 21.67341590000001]","[0.032131099999986645, 0.00022229999999012762, 0.047239300000001094, 0.0637313000000006, 0.04945769999997651, 0.05279930000000377, 0.014294099999972332, 0.07061630000004016, 0.11326390000004949, 0.014561300000025312, 0.07392699999996921, 12.767850399999986, 0.03092540000000099, 13.225148699999977, 0.014017000000023927, 21.67342500000001]",0,,,,,,,,,,,,,,,,,,,,,,,,,,,,,,,,,,,,,,,,,,,,,,,,,,,,,,,,,,,,,,,,,,,,,,,,,,,,,,,,,,,,,,,,,,,,,,,,,,,,,,,,,,,,,,,,,,,,,,,,,,,,M9DFQn,Train_x,blue_star,bottom_left,2025-05-07_14h55.26.120,HideSeek_v1,2022.2.5,59.95164300475722,
,2,1,5,1,3,0,31,,train_dim1_1,1,30,,,,2,0,2,0,,,,,,,,,0,0,0,0,0,0,0,0,0,0,0,0,,,,,,,,,,,,,,,,,,,,,,,,,stimuli/alien_stimuli/31.png,,,,,,,,,,,,,,,,,,,,,,,,,,,,,,,,,,,,,,,30,,,,,,,,279.0920528,279.0920528,279.0920528,279.0920528,279.0920528,right,9.668483600000002,0,0,0,99,0.08,-0.32,right,9.577694800000017,,,,,,,,,,,,,,,,,,,,,,,,,,,,,,,,,,,,,,,,,,,,,,,,,,,,,,,,,,,,M9DFQn,Train_x,blue_star,bottom_left,2025-05-07_14h55.26.120,HideSeek_v1,2022.2.5,59.95164300475722,
,2,1,5,1,3,0,31,,train_dim1_1,1,30,,,,2,0,2,0,,,,,,,,,0,0,0,0,0,0,0,0,1,0,1,0,,,,,,,,,,,,,,,,,,,,,,,,,,,,,,,,,,,,,,,,,,,,,,,,,,,,,,,,,,,,,,,,30,,,,,,,,288.7548581,288.7548581,288.7548581,288.7548581,288.7548581,right,0.7269817999999759,0,0,0,99,0.16,-0.32,right,0.6380949000000555,,,,,,,,,,,,,,,,,,,,,,,,,,,,,,,,,,,,,,,,,,,,,,,,,,,,,,,,,,,,M9DFQn,Train_x,blue_star,bottom_left,2025-05-07_14h55.26.120,HideSeek_v1,2022.2.5,59.95164300475722,
,2,1,5,1,3,0,31,,train_dim1_1,1,30,,,,2,0,2,0,,,,,,,,,0,0,0,0,0,0,0,0,2,0,2,0,,,,,,,,,,,,,,,,,,,,,,,,,,,,,,,,,,,,,,,,,,,,,,,,,,,,,,,,,,,,,,,,30,,,,,,,,289.4892636,289.4892636,289.4892636,289.4892636,289.4892636,right,0.8600704000000405,0,0,0,99,0.24,-0.32,right,0.7843507000000045,,,,,,,,,,,,,,,,,,,,,,,,,,,,,,,,,,,,,,,,,,,,,,,,,,,,,,,,,,,,M9DFQn,Train_x,blue_star,bottom_left,2025-05-07_14h55.26.120,HideSeek_v1,2022.2.5,59.95164300475722,
,2,1,5,1,3,0,31,,train_dim1_1,1,30,,,,2,0,2,0,,,,,,,,,0,0,0,0,0,0,0,0,3,0,3,0,,,,,,,,,,,,,,,,,,,,,,,,,,,,,,,,,,,,,,,,,,,,,,,,,,,,,,,,,,,,,,,,30,,,,,,,,290.3544099,290.3544099,290.3544099,290.3544099,290.3544099,right,0.7269852000000014,0,0,0,99,0.32,-0.32,right,0.6395152000000053,,,,,,,,,,,,,,,,,,,,,,,,,,,,,,,,,,,,,,,,,,,,,,,,,,,,,,,,,,,,M9DFQn,Train_x,blue_star,bottom_left,2025-05-07_14h55.26.120,HideSeek_v1,2022.2.5,59.95164300475722,
,2,1,5,1,3,0,31,,train_dim1_1,1,30,,,,2,0,2,0,,,,,,,,,0,0,0,0,0,0,0,0,4,0,4,0,,,,,,,,,,,,,,,,,,,,,,,,,,,,,,,,,,,,,,,,,,,,,,,,,,,,,,,,,,,,,,,,30,,,,,,,,291.08908529999997,291.08908529999997,291.08908529999997,291.08908529999997,291.08908529999997,right,0.6602866000000063,0,0,0,99,0.4,-0.32,right,0.5735857000000237,,,,,,,,,,,,,,,,,,,,,,,,,,,,,,,,,,,,,,,,,,,,,,,,,,,,,,,,,,,,M9DFQn,Train_x,blue_star,bottom_left,2025-05-07_14h55.26.120,HideSeek_v1,2022.2.5,59.95164300475722,
,2,1,5,1,3,0,31,,train_dim1_1,1,30,,,,2,0,2,0,,,,,,,,,0,0,0,0,0,0,0,0,5,0,5,0,,,,,,,,,,,,,,,,,,,,,,,,,,,,,,,,,,,,,,,,,,,,,,,,,,,,,,,,,,,,,,,,30,,,,,,,,291.7575964,291.7575964,291.7575964,291.7575964,291.7575964,return,0.9270902000000092,0,0,0,0,0.4,-0.32,return,0.8398362000000361,0,5,0.4,-0.32,,,,,,,,,,,,,,,,,,,,,,,,,,,,,,,,,,,,,,,,,,,,,,,,,,,,,,,,M9DFQn,Train_x,blue_star,bottom_left,2025-05-07_14h55.26.120,HideSeek_v1,2022.2.5,59.95164300475722,
,2,4,7,4,5,0,11,,train_dim1_1,2,30,,,,2,0,2,0,,,,,,,,,0,0,0,0,0,1,1,1,0,0,0,0,,,,,,,,,,,,,,,,,,,,,,,,,stimuli/alien_stimuli/11.png,,,,,,,,,,,,,,,,,,,,,,,,,,,,,stimuli/alien_stimuli/31.png,31,2,3,,,,,,,30,,,,,,,,325.3426,325.3426,325.3426,325.3426,325.3426,up,38.452227300000004,0,0,0,99,0,0.0,up,38.34592530000003,,,,,323.76966089999996,325.3426,0.24,-0.32,0.0,0.24,-0.32,0.24,0.12,0.24,-0.32,294.25859299999996,294.25859299999996,294.25859299999996,294.25859299999996,294.25859299999996,294.25859299999996,294.25859299999996,294.25859299999996,294.24513981999996,29.62691749999999,return,29.494430600000044,,,,,,,,,,,,,,,,,,,,,,,,,,,,,,,,,M9DFQn,Train_x,blue_star,bottom_left,2025-05-07_14h55.26.120,HideSeek_v1,2022.2.5,59.95164300475722,
,2,4,7,4,5,0,11,,train_dim1_1,2,30,,,,2,0,2,0,,,,,,,,,0,0,0,0,0,1,1,1,1,0,1,0,,,,,,,,,,,,,,,,,,,,,,,,,,,,,,,,,,,,,,,,,,,,,,,,,,,,,,,,,,,,,,,,30,,,,,,,,363.7948199,363.7948199,363.7948199,363.7948199,363.7948199,up,0.7265284999999722,0,0,0,99,0,0.08,up,0.6377790000000232,,,,,,,,,,,,,,,,,,,,,,,,,,,,,,,,,,,,,,,,,,,,,,,,,,,,,,,,,,,,M9DFQn,Train_x,blue_star,bottom_left,2025-05-07_14h55.26.120,HideSeek_v1,2022.2.5,59.95164300475722,
,2,4,7,4,5,0,11,,train_dim1_1,2,30,,,,2,0,2,0,,,,,,,,,0,0,0,0,0,1,1,1,2,0,2,0,,,,,,,,,,,,,,,,,,,,,,,,,,,,,,,,,,,,,,,,,,,,,,,,,,,,,,,,,,,,,,,,30,,,,,,,,364.5209728,364.5209728,364.5209728,364.5209728,364.5209728,up,1.0605711000000042,0,0,0,99,0,0.16,up,0.9708584000000542,,,,,,,,,,,,,,,,,,,,,,,,,,,,,,,,,,,,,,,,,,,,,,,,,,,,,,,,,,,,M9DFQn,Train_x,blue_star,bottom_left,2025-05-07_14h55.26.120,HideSeek_v1,2022.2.5,59.95164300475722,
,2,4,7,4,5,0,11,,train_dim1_1,2,30,,,,2,0,2,0,,,,,,,,,0,0,0,0,0,1,1,1,3,0,3,0,,,,,,,,,,,,,,,,,,,,,,,,,,,,,,,,,,,,,,,,,,,,,,,,,,,,,,,,,,,,,,,,30,,,,,,,,365.58747869999996,365.58747869999996,365.58747869999996,365.58747869999996,365.58747869999996,up,0.9105248000000188,0,0,0,99,0,0.24,up,0.8222683000000188,,,,,,,,,,,,,,,,,,,,,,,,,,,,,,,,,,,,,,,,,,,,,,,,,,,,,,,,,,,,M9DFQn,Train_x,blue_star,bottom_left,2025-05-07_14h55.26.120,HideSeek_v1,2022.2.5,59.95164300475722,
,2,4,7,4,5,0,11,,train_dim1_1,2,30,,,,2,0,2,0,,,,,,,,,0,0,0,0,0,1,1,1,4,0,4,0,,,,,,,,,,,,,,,,,,,,,,,,,,,,,,,,,,,,,,,,,,,,,,,,,,,,,,,,,,,,,,,,30,,,,,,,,366.5062592,366.5062592,366.5062592,366.5062592,366.5062592,return,1.1766362000000186,0,0,0,0,0,0.24,return,1.0971981000000142,4,5,0,0.24,,,,,,,,,,,,,,,,,,,,,,,,,,,,,,,,,,,,,,,,,,,,,,,,,,,,,,,,M9DFQn,Train_x,blue_star,bottom_left,2025-05-07_14h55.26.120,HideSeek_v1,2022.2.5,59.95164300475722,
,4,4,8,4,4,0,21,,train_dim1_1,3,30,,,,2,0,2,0,,,,,,,,,0,0,0,0,0,2,2,2,0,0,0,0,,,,,,,,,,,,,,,,,,,,,,,,,stimuli/alien_stimuli/21.png,,,,,,,,,,,,,,,,,,,,,,,,,,,,,stimuli/alien_stimuli/11.png,11,2,4,,,,,,,30,,,,,,,,380.93825619999996,380.93825619999996,380.93825619999996,380.93825619999996,380.93825619999996,right,3.3745424999999614,0,0,0,99,0.24,-0.08,right,3.2764038000000255,,,,,379.3657472,380.93825619999996,0.4,-0.08,0.0,0.4,-0.08,0.4,0.2,0.4,-0.08,369.2691492,369.2691492,369.2691492,369.2691492,369.2691492,369.2691492,369.2691492,369.2691492,369.25731597999993,10.227581399999963,return,10.073834799999986,,,,,,,,,,,,,,,,,,,,,,,,,,,,,,,,,M9DFQn,Train_x,blue_star,bottom_left,2025-05-07_14h55.26.120,HideSeek_v1,2022.2.5,59.95164300475722,
,4,4,8,4,4,0,21,,train_dim1_1,3,30,,,,2,0,2,0,,,,,,,,,0,0,0,0,0,2,2,2,1,0,1,0,,,,,,,,,,,,,,,,,,,,,,,,,,,,,,,,,,,,,,,,,,,,,,,,,,,,,,,,,,,,,,,,30,,,,,,,,384.30415619999997,384.30415619999997,384.30415619999997,384.30415619999997,384.30415619999997,right,0.7762608000000455,0,0,0,99,0.32,-0.08,right,0.6930223000000524,,,,,,,,,,,,,,,,,,,,,,,,,,,,,,,,,,,,,,,,,,,,,,,,,,,,,,,,,,,,M9DFQn,Train_x,blue_star,bottom_left,2025-05-07_14h55.26.120,HideSeek_v1,2022.2.5,59.95164300475722,
,4,4,8,4,4,0,21,,train_dim1_1,3,30,,,,2,0,2,0,,,,,,,,,0,0,0,0,0,2,2,2,2,0,2,0,,,,,,,,,,,,,,,,,,,,,,,,,,,,,,,,,,,,,,,,,,,,,,,,,,,,,,,,,,,,,,,,30,,,,,,,,385.0874745,385.0874745,385.0874745,385.0874745,385.0874745,right,0.7935606999999436,0,0,0,99,0.4,-0.08,right,0.7044724999999517,,,,,,,,,,,,,,,,,,,,,,,,,,,,,,,,,,,,,,,,,,,,,,,,,,,,,,,,,,,,M9DFQn,Train_x,blue_star,bottom_left,2025-05-07_14h55.26.120,HideSeek_v1,2022.2.5,59.95164300475722,
,4,4,8,4,4,0,21,,train_dim1_1,3,30,,,,2,0,2,0,,,,,,,,,0,0,0,0,0,2,2,2,3,0,3,0,,,,,,,,,,,,,,,,,,,,,,,,,,,,,,,,,,,,,,,,,,,,,,,,,,,,,,,,,,,,,,,,30,,,,,,,,385.8875799,385.8875799,385.8875799,385.8875799,385.8875799,return,0.7437852999998995,0,1,0,0,0.4,-0.08,return,0.6566103000000112,4,8,0.4,-0.08,,,,,,,,,,,,,,,,,,,,,,,,,,,,,,,,,,,,,,,,,,,,,,,,,,,,,,,,M9DFQn,Train_x,blue_star,bottom_left,2025-05-07_14h55.26.120,HideSeek_v1,2022.2.5,59.95164300475722,
,2,3,3,3,1,0,51,,train_dim1_1,4,30,,,,2,0,2,0,,,,,,,,,0,0,0,0,0,3,3,3,0,0,0,0,,,,,,,,,,,,,,,,,,,,,,,,,stimuli/alien_stimuli/51.png,,,,,,,,,,,,,,,,,,,,,,,,,,,,,stimuli/alien_stimuli/21.png,21,4,5,,,,,,,30,,,,,,,,393.98889629999996,393.98889629999996,393.98889629999996,393.98889629999996,393.98889629999996,up,2.7573661999999786,0,1,0,99,0,-0.08,up,2.672217000000046,,,,,392.42650330000004,393.98889629999996,0.48,-0.08,0.0,0.32,-0.08,0.48,0.32,0.48,-0.08,388.2234191,388.2234191,388.2234191,388.2234191,388.2234191,388.2234191,388.2234191,388.2234191,388.20611648,4.339287200000058,return,4.178929100000005,,,,,,,,,,,,,,,,,,,,,,,,,,,,,,,,,M9DFQn,Train_x,blue_star,bottom_left,2025-05-07_14h55.26.120,HideSeek_v1,2022.2.5,59.95164300475722,
,2,3,3,3,1,0,51,,train_dim1_1,4,30,,,,2,0,2,0,,,,,,,,,0,0,0,0,0,3,3,3,1,0,1,0,,,,,,,,,,,,,,,,,,,,,,,,,,,,,,,,,,,,,,,,,,,,,,,,,,,,,,,,,,,,,,,,30,,,,,,,,396.74666679999996,396.74666679999996,396.74666679999996,396.74666679999996,396.74666679999996,up,0.6923001999999769,0,1,0,99,0,0.0,up,0.6037499000000253,,,,,,,,,,,,,,,,,,,,,,,,,,,,,,,,,,,,,,,,,,,,,,,,,,,,,,,,,,,,M9DFQn,Train_x,blue_star,bottom_left,2025-05-07_14h55.26.120,HideSeek_v1,2022.2.5,59.95164300475722,
,2,3,3,3,1,0,51,,train_dim1_1,4,30,,,,2,0,2,0,,,,,,,,,0,0,0,0,0,3,3,3,2,0,2,0,,,,,,,,,,,,,,,,,,,,,,,,,,,,,,,,,,,,,,,,,,,,,,,,,,,,,,,,,,,,,,,,30,,,,,,,,397.44660009999996,397.44660009999996,397.44660009999996,397.44660009999996,397.44660009999996,up,0.7269555999999966,0,1,0,99,0,0.08,up,0.6415940000000546,,,,,,,,,,,,,,,,,,,,,,,,,,,,,,,,,,,,,,,,,,,,,,,,,,,,,,,,,,,,M9DFQn,Train_x,blue_star,bottom_left,2025-05-07_14h55.26.120,HideSeek_v1,2022.2.5,59.95164300475722,
,2,3,3,3,1,0,51,,train_dim1_1,4,30,,,,2,0,2,0,,,,,,,,,0,0,0,0,0,3,3,3,3,0,3,0,,,,,,,,,,,,,,,,,,,,,,,,,,,,,,,,,,,,,,,,,,,,,,,,,,,,,,,,,,,,,,,,30,,,,,,,,398.1801822,398.1801822,398.1801822,398.1801822,398.1801822,up,0.6272973000000093,0,1,0,99,0,0.16,up,0.5469358000000284,,,,,,,,,,,,,,,,,,,,,,,,,,,,,,,,,,,,,,,,,,,,,,,,,,,,,,,,,,,,M9DFQn,Train_x,blue_star,bottom_left,2025-05-07_14h55.26.120,HideSeek_v1,2022.2.5,59.95164300475722,
,2,3,3,3,1,0,51,,train_dim1_1,4,30,,,,2,0,2,0,,,,,,,,,0,0,0,0,0,3,3,3,4,0,4,0,,,,,,,,,,,,,,,,,,,,,,,,,,,,,,,,,,,,,,,,,,,,,,,,,,,,,,,,,,,,,,,,30,,,,,,,,398.81491399999993,398.81491399999993,398.81491399999993,398.81491399999993,398.81491399999993,return,0.7769365999999991,0,0,0,0,0,0.16,return,0.6873162000000548,8,8,0,0.16,,,,,,,,,,,,,,,,,,,,,,,,,,,,,,,,,,,,,,,,,,,,,,,,,,,,,,,,M9DFQn,Train_x,blue_star,bottom_left,2025-05-07_14h55.26.120,HideSeek_v1,2022.2.5,59.95164300475722,
,0,2,0,2,0,0,61,,train_dim1_1,5,30,,,,2,0,2,0,,,,,,,,,0,0,0,0,0,4,4,4,0,0,0,0,,,,,,,,,,,,,,,,,,,,,,,,,stimuli/alien_stimuli/61.png,,,,,,,,,,,,,,,,,,,,,,,,,,,,,stimuli/alien_stimuli/51.png,51,2,6,,,,,,,30,,,,,,,,406.71317650000003,406.71317650000003,406.71317650000003,406.71317650000003,406.71317650000003,right,2.7903592000000117,0,0,0,99,-0.08,-0.24,right,2.6977198999999246,,,,,405.15365629999997,406.71317650000003,0.08,-0.16,0.0,0.08,-0.16,0.08,0.04,0.08,-0.16,401.1710296,401.1710296,401.1710296,401.1710296,401.1710296,401.1710296,401.1710296,401.1710296,401.15051282,4.105744299999969,return,3.962973600000055,,,,,,,,,,,,,,,,,,,,,,,,,,,,,,,,,M9DFQn,Train_x,blue_star,bottom_left,2025-05-07_14h55.26.120,HideSeek_v1,2022.2.5,59.95164300475722,
,0,2,0,2,0,0,61,,train_dim1_1,5,30,,,,2,0,2,0,,,,,,,,,0,0,0,0,0,4,4,4,1,0,1,0,,,,,,,,,,,,,,,,,,,,,,,,,,,,,,,,,,,,,,,,,,,,,,,,,,,,,,,,,,,,,,,,30,,,,,,,,409.5038555,409.5038555,409.5038555,409.5038555,409.5038555,return,2.7612446999999065,0,1,0,0,-0.08,-0.24,return,2.6891581999999516,8,9,-0.08,-0.24,,,,,,,,,,,,,,,,,,,,,,,,,,,,,,,,,,,,,,,,,,,,,,,,,,,,,,,,M9DFQn,Train_x,blue_star,bottom_left,2025-05-07_14h55.26.120,HideSeek_v1,2022.2.5,59.95164300475722,
,0,0,4,0,4,0,21,,train_dim1_1,6,30,,,,2,0,2,0,,,,,,,,,0,0,0,0,0,5,5,5,0,0,0,0,,,,,,,,,,,,,,,,,,,,,,,,,stimuli/alien_stimuli/21.png,,,,,,,,,,,,,,,,,,,,,,,,,,,,,stimuli/alien_stimuli/61.png,61,0,7,,,,,,,30,,,,,,,,418.6791461,418.6791461,418.6791461,418.6791461,418.6791461,right,14.799348200000054,0,1,0,99,-0.08,-0.4,right,14.702946400000087,,,,,417.11368219999997,418.6791461,-0.16,-0.24,0.0,0.0,-0.24,-0.16,-0.16,-0.16,-0.24,413.8458395,413.8458395,413.8458395,413.8458395,413.8458395,413.8458395,413.8458395,413.8458395,413.82733652,3.3884491000000025,return,3.250559599999974,,,,,,,,,,,,,,,,,,,,,,,,,,,,,,,,,M9DFQn,Train_x,blue_star,bottom_left,2025-05-07_14h55.26.120,HideSeek_v1,2022.2.5,59.95164300475722,
,0,0,4,0,4,0,21,,train_dim1_1,6,30,,,,2,0,2,0,,,,,,,,,0,0,0,0,0,5,5,5,1,0,1,0,,,,,,,,,,,,,,,,,,,,,,,,,,,,,,,,,,,,,,,,,,,,,,,,,,,,,,,,,,,,,,,,30,,,,,,,,433.48655640000004,433.48655640000004,433.48655640000004,433.48655640000004,433.48655640000004,left,4.529968199999985,0,1,0,99,-0.16,-0.4,left,4.438899399999968,,,,,,,,,,,,,,,,,,,,,,,,,,,,,,,,,,,,,,,,,,,,,,,,,,,,,,,,,,,,M9DFQn,Train_x,blue_star,bottom_left,2025-05-07_14h55.26.120,HideSeek_v1,2022.2.5,59.95164300475722,
,0,0,4,0,4,0,21,,train_dim1_1,6,30,,,,2,0,2,0,,,,,,,,,0,0,0,0,0,5,5,5,2,0,2,0,,,,,,,,,,,,,,,,,,,,,,,,,,,,,,,,,,,,,,,,,,,,,,,,,,,,,,,,,,,,,,,,30,,,,,,,,438.01414209999996,438.01414209999996,438.01414209999996,438.01414209999996,438.01414209999996,up,1.2615105999999514,0,1,0,99,-0.16,-0.32,up,1.1723591999999599,,,,,,,,,,,,,,,,,,,,,,,,,,,,,,,,,,,,,,,,,,,,,,,,,,,,,,,,,,,,M9DFQn,Train_x,blue_star,bottom_left,2025-05-07_14h55.26.120,HideSeek_v1,2022.2.5,59.95164300475722,
,0,0,4,0,4,0,21,,train_dim1_1,6,30,,,,2,0,2,0,,,,,,,,,0,0,0,0,0,5,5,5,3,0,3,0,,,,,,,,,,,,,,,,,,,,,,,,,,,,,,,,,,,,,,,,,,,,,,,,,,,,,,,,,,,,,,,,30,,,,,,,,439.2876563,439.2876563,439.2876563,439.2876563,439.2876563,up,1.8228895000000875,0,1,0,99,-0.16,-0.24,up,1.7442146000000776,,,,,,,,,,,,,,,,,,,,,,,,,,,,,,,,,,,,,,,,,,,,,,,,,,,,,,,,,,,,M9DFQn,Train_x,blue_star,bottom_left,2025-05-07_14h55.26.120,HideSeek_v1,2022.2.5,59.95164300475722,
,0,0,4,0,4,0,21,,train_dim1_1,6,30,,,,2,0,2,0,,,,,,,,,0,0,0,0,0,5,5,5,4,0,4,0,,,,,,,,,,,,,,,,,,,,,,,,,,,,,,,,,,,,,,,,,,,,,,,,,,,,,,,,,,,,,,,,30,,,,,,,,441.1159599,441.1159599,441.1159599,441.1159599,441.1159599,up,1.7946470000000545,0,1,0,99,-0.16,-0.15999999999999998,up,1.71839250000005,,,,,,,,,,,,,,,,,,,,,,,,,,,,,,,,,,,,,,,,,,,,,,,,,,,,,,,,,,,,M9DFQn,Train_x,blue_star,bottom_left,2025-05-07_14h55.26.120,HideSeek_v1,2022.2.5,59.95164300475722,
,0,0,4,0,4,0,21,,train_dim1_1,6,30,,,,2,0,2,0,,,,,,,,,0,0,0,0,0,5,5,5,5,0,5,0,,,,,,,,,,,,,,,,,,,,,,,,,,,,,,,,,,,,,,,,,,,,,,,,,,,,,,,,,,,,,,,,30,,,,,,,,442.9183381,442.9183381,442.9183381,442.9183381,442.9183381,down,4.313054800000032,0,1,0,99,-0.16,-0.24,down,4.231746000000044,,,,,,,,,,,,,,,,,,,,,,,,,,,,,,,,,,,,,,,,,,,,,,,,,,,,,,,,,,,,M9DFQn,Train_x,blue_star,bottom_left,2025-05-07_14h55.26.120,HideSeek_v1,2022.2.5,59.95164300475722,
,0,0,4,0,4,0,21,,train_dim1_1,6,30,,,,2,0,2,0,,,,,,,,,0,0,0,0,0,5,5,5,6,0,6,0,,,,,,,,,,,,,,,,,,,,,,,,,,,,,,,,,,,,,,,,,,,,,,,,,,,,,,,,,,,,,,,,30,,,,,,,,447.23905560000003,447.23905560000003,447.23905560000003,447.23905560000003,447.23905560000003,down,0.3266744000000017,0,1,0,99,-0.16,-0.32,down,0.24306930000000193,,,,,,,,,,,,,,,,,,,,,,,,,,,,,,,,,,,,,,,,,,,,,,,,,,,,,,,,,,,,M9DFQn,Train_x,blue_star,bottom_left,2025-05-07_14h55.26.120,HideSeek_v1,2022.2.5,59.95164300475722,
,0,0,4,0,4,0,21,,train_dim1_1,6,30,,,,2,0,2,0,,,,,,,,,0,0,0,0,0,5,5,5,7,0,7,0,,,,,,,,,,,,,,,,,,,,,,,,,,,,,,,,,,,,,,,,,,,,,,,,,,,,,,,,,,,,,,,,30,,,,,,,,447.57441069999993,447.57441069999993,447.57441069999993,447.57441069999993,447.57441069999993,down,0.34330979999992906,0,1,0,99,-0.16,-0.4,down,0.265558800000008,,,,,,,,,,,,,,,,,,,,,,,,,,,,,,,,,,,,,,,,,,,,,,,,,,,,,,,,,,,,M9DFQn,Train_x,blue_star,bottom_left,2025-05-07_14h55.26.120,HideSeek_v1,2022.2.5,59.95164300475722,
,0,0,4,0,4,0,21,,train_dim1_1,6,30,,,,2,0,2,0,,,,,,,,,0,0,0,0,0,5,5,5,8,0,8,0,,,,,,,,,,,,,,,,,,,,,,,,,,,,,,,,,,,,,,,,,,,,,,,,,,,,,,,,,,,,,,,,30,,,,,,,,447.9215005,447.9215005,447.9215005,447.9215005,447.9215005,right,1.0774157000000741,0,1,0,99,-0.08,-0.4,right,0.9912826000000905,,,,,,,,,,,,,,,,,,,,,,,,,,,,,,,,,,,,,,,,,,,,,,,,,,,,,,,,,,,,M9DFQn,Train_x,blue_star,bottom_left,2025-05-07_14h55.26.120,HideSeek_v1,2022.2.5,59.95164300475722,
,0,0,4,0,4,0,21,,train_dim1_1,6,30,,,,2,0,2,0,,,,,,,,,0,0,0,0,0,5,5,5,9,0,9,0,,,,,,,,,,,,,,,,,,,,,,,,,,,,,,,,,,,,,,,,,,,,,,,,,,,,,,,,,,,,,,,,30,,,,,,,,449.00555729999996,449.00555729999996,449.00555729999996,449.00555729999996,449.00555729999996,right,0.6771468000000596,0,1,0,99,0.0,-0.4,right,0.5939911000000393,,,,,,,,,,,,,,,,,,,,,,,,,,,,,,,,,,,,,,,,,,,,,,,,,,,,,,,,,,,,M9DFQn,Train_x,blue_star,bottom_left,2025-05-07_14h55.26.120,HideSeek_v1,2022.2.5,59.95164300475722,
,0,0,4,0,4,0,21,,train_dim1_1,6,30,,,,2,0,2,0,,,,,,,,,0,0,0,0,0,5,5,5,10,0,10,0,,,,,,,,,,,,,,,,,,,,,,,,,,,,,,,,,,,,,,,,,,,,,,,,,,,,,,,,,,,,,,,,30,,,,,,,,449.6901084,449.6901084,449.6901084,449.6901084,449.6901084,right,0.5599383999999645,0,1,0,99,0.08,-0.4,right,0.48367960000007315,,,,,,,,,,,,,,,,,,,,,,,,,,,,,,,,,,,,,,,,,,,,,,,,,,,,,,,,,,,,M9DFQn,Train_x,blue_star,bottom_left,2025-05-07_14h55.26.120,HideSeek_v1,2022.2.5,59.95164300475722,
,0,0,4,0,4,0,21,,train_dim1_1,6,30,,,,2,0,2,0,,,,,,,,,0,0,0,0,0,5,5,5,11,0,11,0,,,,,,,,,,,,,,,,,,,,,,,,,,,,,,,,,,,,,,,,,,,,,,,,,,,,,,,,,,,,,,,,30,,,,,,,,450.25849389999996,450.25849389999996,450.25849389999996,450.25849389999996,450.25849389999996,return,0.6936769999999797,0,1,0,0,0.08,-0.4,return,0.6071184999999559,8,12,0.08,-0.4,,,,,,,,,,,,,,,,,,,,,,,,,,,,,,,,,,,,,,,,,,,,,,,,,,,,,,,,M9DFQn,Train_x,blue_star,bottom_left,2025-05-07_14h55.26.120,HideSeek_v1,2022.2.5,59.95164300475722,
,3,0,3,0,0,0,61,,train_dim1_1,7,30,,,,2,0,2,0,,,,,,,,,0,0,0,0,0,6,6,6,0,0,0,0,,,,,,,,,,,,,,,,,,,,,,,,,stimuli/alien_stimuli/61.png,,,,,,,,,,,,,,,,,,,,,,,,,,,,,stimuli/alien_stimuli/21.png,21,0,8,,,,,,,30,,,,,,,,461.0755394,461.0755394,461.0755394,461.0755394,461.0755394,up,5.290839199999937,0,1,0,99,0.08,-0.32,up,5.209588999999937,,,,,459.51541469999995,461.0755394,0.16,-0.4,0.0,0.32,-0.4,0.16,0.0,0.16,-0.4,452.5385652,452.5385652,452.5385652,452.5385652,452.5385652,452.5385652,452.5385652,452.5385652,452.52610917999993,7.108316500000001,return,6.958457900000099,,,,,,,,,,,,,,,,,,,,,,,,,,,,,,,,,M9DFQn,Train_x,blue_star,bottom_left,2025-05-07_14h55.26.120,HideSeek_v1,2022.2.5,59.95164300475722,
,3,0,3,0,0,0,61,,train_dim1_1,7,30,,,,2,0,2,0,,,,,,,,,0,0,0,0,0,6,6,6,1,0,1,0,,,,,,,,,,,,,,,,,,,,,,,,,,,,,,,,,,,,,,,,,,,,,,,,,,,,,,,,,,,,,,,,30,,,,,,,,466.36825250000004,466.36825250000004,466.36825250000004,466.36825250000004,466.36825250000004,up,0.660062000000039,0,1,0,99,0.08,-0.24,up,0.5850689000000102,,,,,,,,,,,,,,,,,,,,,,,,,,,,,,,,,,,,,,,,,,,,,,,,,,,,,,,,,,,,M9DFQn,Train_x,blue_star,bottom_left,2025-05-07_14h55.26.120,HideSeek_v1,2022.2.5,59.95164300475722,
,3,0,3,0,0,0,61,,train_dim1_1,7,30,,,,2,0,2,0,,,,,,,,,0,0,0,0,0,6,6,6,2,0,2,0,,,,,,,,,,,,,,,,,,,,,,,,,,,,,,,,,,,,,,,,,,,,,,,,,,,,,,,,,,,,,,,,30,,,,,,,,467.0338581,467.0338581,467.0338581,467.0338581,467.0338581,down,3.8128686999999672,0,1,0,99,0.08,-0.32,down,3.73143570000002,,,,,,,,,,,,,,,,,,,,,,,,,,,,,,,,,,,,,,,,,,,,,,,,,,,,,,,,,,,,M9DFQn,Train_x,blue_star,bottom_left,2025-05-07_14h55.26.120,HideSeek_v1,2022.2.5,59.95164300475722,
,3,0,3,0,0,0,61,,train_dim1_1,7,30,,,,2,0,2,0,,,,,,,,,0,0,0,0,0,6,6,6,3,0,3,0,,,,,,,,,,,,,,,,,,,,,,,,,,,,,,,,,,,,,,,,,,,,,,,,,,,,,,,,,,,,,,,,30,,,,,,,,470.8535108,470.8535108,470.8535108,470.8535108,470.8535108,down,3.9795067999999674,0,1,0,99,0.08,-0.4,down,3.894552200000021,,,,,,,,,,,,,,,,,,,,,,,,,,,,,,,,,,,,,,,,,,,,,,,,,,,,,,,,,,,,M9DFQn,Train_x,blue_star,bottom_left,2025-05-07_14h55.26.120,HideSeek_v1,2022.2.5,59.95164300475722,
,3,0,3,0,0,0,61,,train_dim1_1,7,30,,,,2,0,2,0,,,,,,,,,0,0,0,0,0,6,6,6,4,0,4,0,,,,,,,,,,,,,,,,,,,,,,,,,,,,,,,,,,,,,,,,,,,,,,,,,,,,,,,,,,,,,,,,30,,,,,,,,474.83962710000003,474.83962710000003,474.83962710000003,474.83962710000003,474.83962710000003,right,0.7773219000000609,0,1,0,99,0.16,-0.4,right,0.7059747000000698,,,,,,,,,,,,,,,,,,,,,,,,,,,,,,,,,,,,,,,,,,,,,,,,,,,,,,,,,,,,M9DFQn,Train_x,blue_star,bottom_left,2025-05-07_14h55.26.120,HideSeek_v1,2022.2.5,59.95164300475722,
,3,0,3,0,0,0,61,,train_dim1_1,7,30,,,,2,0,2,0,,,,,,,,,0,0,0,0,0,6,6,6,5,0,5,0,,,,,,,,,,,,,,,,,,,,,,,,,,,,,,,,,,,,,,,,,,,,,,,,,,,,,,,,,,,,,,,,30,,,,,,,,475.62392339999997,475.62392339999997,475.62392339999997,475.62392339999997,475.62392339999997,return,0.8269860000000335,0,1,0,0,0.16,-0.4,return,0.7404470000000174,8,13,0.16,-0.4,,,,,,,,,,,,,,,,,,,,,,,,,,,,,,,,,,,,,,,,,,,,,,,,,,,,,,,,M9DFQn,Train_x,blue_star,bottom_left,2025-05-07_14h55.26.120,HideSeek_v1,2022.2.5,59.95164300475722,
,0,4,3,4,3,0,31,,train_dim1_1,8,30,,,,2,0,2,0,,,,,,,,,0,0,0,0,0,7,7,7,0,0,0,0,,,,,,,,,,,,,,,,,,,,,,,,,stimuli/alien_stimuli/31.png,,,,,,,,,,,,,,,,,,,,,,,,,,,,,stimuli/alien_stimuli/61.png,61,3,9,,,,,,,30,,,,,,,,484.2941294,484.2941294,484.2941294,484.2941294,484.2941294,right,4.807697200000007,0,1,0,99,-0.08,-0.08,right,4.727378000000044,,,,,482.7351717,484.2941294,0.08,-0.4,0.0,0.0,-0.4,0.08,0.08,0.08,-0.4,478.02559959999996,478.02559959999996,478.02559959999996,478.02559959999996,478.02559959999996,478.02559959999996,478.02559959999996,478.02559959999996,478.01397511999994,4.82357849999994,return,4.686080599999968,,,,,,,,,,,,,,,,,,,,,,,,,,,,,,,,,M9DFQn,Train_x,blue_star,bottom_left,2025-05-07_14h55.26.120,HideSeek_v1,2022.2.5,59.95164300475722,
,0,4,3,4,3,0,31,,train_dim1_1,8,30,,,,2,0,2,0,,,,,,,,,0,0,0,0,0,7,7,7,1,0,1,0,,,,,,,,,,,,,,,,,,,,,,,,,,,,,,,,,,,,,,,,,,,,,,,,,,,,,,,,,,,,,,,,30,,,,,,,,489.1112104,489.1112104,489.1112104,489.1112104,489.1112104,right,0.5761077000000796,0,1,0,99,0.0,-0.08,right,0.4868017000000009,,,,,,,,,,,,,,,,,,,,,,,,,,,,,,,,,,,,,,,,,,,,,,,,,,,,,,,,,,,,M9DFQn,Train_x,blue_star,bottom_left,2025-05-07_14h55.26.120,HideSeek_v1,2022.2.5,59.95164300475722,
,0,4,3,4,3,0,31,,train_dim1_1,8,30,,,,2,0,2,0,,,,,,,,,0,0,0,0,0,7,7,7,2,0,2,0,,,,,,,,,,,,,,,,,,,,,,,,,,,,,,,,,,,,,,,,,,,,,,,,,,,,,,,,,,,,,,,,30,,,,,,,,489.6867389,489.6867389,489.6867389,489.6867389,489.6867389,right,0.9604934000000185,0,1,0,99,0.08,-0.08,right,0.8801340000001119,,,,,,,,,,,,,,,,,,,,,,,,,,,,,,,,,,,,,,,,,,,,,,,,,,,,,,,,,,,,M9DFQn,Train_x,blue_star,bottom_left,2025-05-07_14h55.26.120,HideSeek_v1,2022.2.5,59.95164300475722,
,0,4,3,4,3,0,31,,train_dim1_1,8,30,,,,2,0,2,0,,,,,,,,,0,0,0,0,0,7,7,7,3,0,3,0,,,,,,,,,,,,,,,,,,,,,,,,,,,,,,,,,,,,,,,,,,,,,,,,,,,,,,,,,,,,,,,,30,,,,,,,,490.65558550000003,490.65558550000003,490.65558550000003,490.65558550000003,490.65558550000003,right,1.4603290000000015,0,1,0,99,0.16,-0.08,right,1.3850120000000743,,,,,,,,,,,,,,,,,,,,,,,,,,,,,,,,,,,,,,,,,,,,,,,,,,,,,,,,,,,,M9DFQn,Train_x,blue_star,bottom_left,2025-05-07_14h55.26.120,HideSeek_v1,2022.2.5,59.95164300475722,
,0,4,3,4,3,0,31,,train_dim1_1,8,30,,,,2,0,2,0,,,,,,,,,0,0,0,0,0,7,7,7,4,0,4,0,,,,,,,,,,,,,,,,,,,,,,,,,,,,,,,,,,,,,,,,,,,,,,,,,,,,,,,,,,,,,,,,30,,,,,,,,492.1236596,492.1236596,492.1236596,492.1236596,492.1236596,right,0.5603565000000117,0,1,0,99,0.24,-0.08,right,0.48083280000003015,,,,,,,,,,,,,,,,,,,,,,,,,,,,,,,,,,,,,,,,,,,,,,,,,,,,,,,,,,,,M9DFQn,Train_x,blue_star,bottom_left,2025-05-07_14h55.26.120,HideSeek_v1,2022.2.5,59.95164300475722,
,0,4,3,4,3,0,31,,train_dim1_1,8,30,,,,2,0,2,0,,,,,,,,,0,0,0,0,0,7,7,7,5,0,5,0,,,,,,,,,,,,,,,,,,,,,,,,,,,,,,,,,,,,,,,,,,,,,,,,,,,,,,,,,,,,,,,,30,,,,,,,,492.68925679999995,492.68925679999995,492.68925679999995,492.68925679999995,492.68925679999995,return,0.626963700000033,0,0,0,0,0.24,-0.08,return,0.5445519999999533,8,18,0.24,-0.08,,,,,,,,,,,,,,,,,,,,,,,,,,,,,,,,,,,,,,,,,,,,,,,,,,,,,,,,M9DFQn,Train_x,blue_star,bottom_left,2025-05-07_14h55.26.120,HideSeek_v1,2022.2.5,59.95164300475722,
,1,0,2,0,1,0,51,,train_dim1_1,9,30,,,,2,0,2,0,,,,,,,,,0,0,0,0,0,8,8,8,0,0,0,0,,,,,,,,,,,,,,,,,,,,,,,,,stimuli/alien_stimuli/51.png,,,,,,,,,,,,,,,,,,,,,,,,,,,,,stimuli/alien_stimuli/31.png,31,0,10,,,,,,,30,,,,,,,,498.99283460000004,498.99283460000004,498.99283460000004,498.99283460000004,498.99283460000004,up,3.8736173000000917,0,0,0,99,-0.08,-0.32,up,3.769925100000023,,,,,497.413409,498.99283460000004,0.08,-0.08,0.0,0.24,-0.08,0.08,-0.04,0.08,-0.08,494.88871159999997,494.88871159999997,494.88871159999997,494.88871159999997,494.88871159999997,494.88871159999997,494.88871159999997,494.88871159999997,494.87796561999994,2.6376285000000053,return,2.497873100000106,,,,,,,,,,,,,,,,,,,,,,,,,,,,,,,,,M9DFQn,Train_x,blue_star,bottom_left,2025-05-07_14h55.26.120,HideSeek_v1,2022.2.5,59.95164300475722,
,1,0,2,0,1,0,51,,train_dim1_1,9,30,,,,2,0,2,0,,,,,,,,,0,0,0,0,0,8,8,8,1,0,1,0,,,,,,,,,,,,,,,,,,,,,,,,,,,,,,,,,,,,,,,,,,,,,,,,,,,,,,,,,,,,,,,,30,,,,,,,,502.85024539999995,502.85024539999995,502.85024539999995,502.85024539999995,502.85024539999995,up,0.6766115000000354,0,0,0,99,-0.08,-0.24,up,0.5931756999999607,,,,,,,,,,,,,,,,,,,,,,,,,,,,,,,,,,,,,,,,,,,,,,,,,,,,,,,,,,,,M9DFQn,Train_x,blue_star,bottom_left,2025-05-07_14h55.26.120,HideSeek_v1,2022.2.5,59.95164300475722,
,1,0,2,0,1,0,51,,train_dim1_1,9,30,,,,2,0,2,0,,,,,,,,,0,0,0,0,0,8,8,8,2,0,2,0,,,,,,,,,,,,,,,,,,,,,,,,,,,,,,,,,,,,,,,,,,,,,,,,,,,,,,,,,,,,,,,,30,,,,,,,,503.53329740000004,503.53329740000004,503.53329740000004,503.53329740000004,503.53329740000004,up,0.6435071999999309,0,0,0,99,-0.08,-0.15999999999999998,up,0.5660933999999997,,,,,,,,,,,,,,,,,,,,,,,,,,,,,,,,,,,,,,,,,,,,,,,,,,,,,,,,,,,,M9DFQn,Train_x,blue_star,bottom_left,2025-05-07_14h55.26.120,HideSeek_v1,2022.2.5,59.95164300475722,
,1,0,2,0,1,0,51,,train_dim1_1,9,30,,,,2,0,2,0,,,,,,,,,0,0,0,0,0,8,8,8,3,0,3,0,,,,,,,,,,,,,,,,,,,,,,,,,,,,,,,,,,,,,,,,,,,,,,,,,,,,,,,,,,,,,,,,30,,,,,,,,504.18491059999997,504.18491059999997,504.18491059999997,504.18491059999997,504.18491059999997,up,2.1115983000000824,0,0,0,99,-0.08,-0.07999999999999997,up,2.0269365000000334,,,,,,,,,,,,,,,,,,,,,,,,,,,,,,,,,,,,,,,,,,,,,,,,,,,,,,,,,,,,M9DFQn,Train_x,blue_star,bottom_left,2025-05-07_14h55.26.120,HideSeek_v1,2022.2.5,59.95164300475722,
,1,0,2,0,1,0,51,,train_dim1_1,9,30,,,,2,0,2,0,,,,,,,,,0,0,0,0,0,8,8,8,4,0,4,0,,,,,,,,,,,,,,,,,,,,,,,,,,,,,,,,,,,,,,,,,,,,,,,,,,,,,,,,,,,,,,,,30,,,,,,,,506.30470130000003,506.30470130000003,506.30470130000003,506.30470130000003,506.30470130000003,return,1.8280902000000196,0,0,0,0,-0.08,-0.07999999999999997,return,1.7425197999999682,12,18,-0.08,-0.07999999999999997,,,,,,,,,,,,,,,,,,,,,,,,,,,,,,,,,,,,,,,,,,,,,,,,,,,,,,,,M9DFQn,Train_x,blue_star,bottom_left,2025-05-07_14h55.26.120,HideSeek_v1,2022.2.5,59.95164300475722,
,0,3,5,3,5,0,11,,train_dim1_1,10,30,,,,2,0,2,0,,,,,,,,,0,0,0,0,0,9,9,9,0,0,0,0,,,,,,,,,,,,,,,,,,,,,,,,,stimuli/alien_stimuli/11.png,,,,,,,,,,,,,,,,,,,,,,,,,,,,,stimuli/alien_stimuli/51.png,51,1,11,,,,,,,30,,,,,,,,515.4392052,515.4392052,515.4392052,515.4392052,515.4392052,right,3.0572273000000223,0,0,0,99,-0.08,-0.16,right,2.967398000000003,,,,,513.8770853,515.4392052,0,-0.4,0.0,0.08,-0.4,0,-0.04,0,-0.4,509.71596149999993,509.71596149999993,509.71596149999993,509.71596149999993,509.71596149999993,509.71596149999993,509.71596149999993,509.71596149999993,509.70701948,4.289124599999923,return,4.139778700000079,,,,,,,,,,,,,,,,,,,,,,,,,,,,,,,,,M9DFQn,Train_x,blue_star,bottom_left,2025-05-07_14h55.26.120,HideSeek_v1,2022.2.5,59.95164300475722,
,0,3,5,3,5,0,11,,train_dim1_1,10,30,,,,2,0,2,0,,,,,,,,,0,0,0,0,0,9,9,9,1,0,1,0,,,,,,,,,,,,,,,,,,,,,,,,,,,,,,,,,,,,,,,,,,,,,,,,,,,,,,,,,,,,,,,,30,,,,,,,,518.4978793,518.4978793,518.4978793,518.4978793,518.4978793,right,0.6932735999999977,0,0,0,99,0.0,-0.16,right,0.6020283999999947,,,,,,,,,,,,,,,,,,,,,,,,,,,,,,,,,,,,,,,,,,,,,,,,,,,,,,,,,,,,M9DFQn,Train_x,blue_star,bottom_left,2025-05-07_14h55.26.120,HideSeek_v1,2022.2.5,59.95164300475722,
,0,3,5,3,5,0,11,,train_dim1_1,10,30,,,,2,0,2,0,,,,,,,,,0,0,0,0,0,9,9,9,2,0,2,0,,,,,,,,,,,,,,,,,,,,,,,,,,,,,,,,,,,,,,,,,,,,,,,,,,,,,,,,,,,,,,,,30,,,,,,,,519.1989192,519.1989192,519.1989192,519.1989192,519.1989192,right,0.560002499999996,0,0,0,99,0.08,-0.16,right,0.47823879999998553,,,,,,,,,,,,,,,,,,,,,,,,,,,,,,,,,,,,,,,,,,,,,,,,,,,,,,,,,,,,M9DFQn,Train_x,blue_star,bottom_left,2025-05-07_14h55.26.120,HideSeek_v1,2022.2.5,59.95164300475722,
,0,3,5,3,5,0,11,,train_dim1_1,10,30,,,,2,0,2,0,,,,,,,,,0,0,0,0,0,9,9,9,3,0,3,0,,,,,,,,,,,,,,,,,,,,,,,,,,,,,,,,,,,,,,,,,,,,,,,,,,,,,,,,,,,,,,,,30,,,,,,,,519.7651419,519.7651419,519.7651419,519.7651419,519.7651419,return,0.793624799999975,0,0,0,0,0.08,-0.16,return,0.7079576000000998,12,21,0.08,-0.16,,,,,,,,,,,,,,,,,,,,,,,,,,,,,,,,,,,,,,,,,,,,,,,,,,,,,,,,M9DFQn,Train_x,blue_star,bottom_left,2025-05-07_14h55.26.120,HideSeek_v1,2022.2.5,59.95164300475722,
,2,2,5,2,3,0,31,,train_dim1_1,11,30,,,,2,0,2,0,,,,,,,,,0,0,0,0,0,10,10,10,0,0,0,0,,,,,,,,,,,,,,,,,,,,,,,,,stimuli/alien_stimuli/31.png,,,,,,,,,,,,,,,,,,,,,,,,,,,,,stimuli/alien_stimuli/11.png,11,0,12,,,,,,,30,,,,,,,,526.907497,526.907497,526.907497,526.907497,526.907497,right,2.6642616999999973,0,0,0,99,0.08,-0.24,right,2.582234500000027,,,,,525.3366576,526.907497,0.24,-0.16,0.0,0.4,-0.16,0.24,0.039999999999999994,0.24,-0.16,522.1418039,522.1418039,522.1418039,522.1418039,522.1418039,522.1418039,522.1418039,522.1418039,522.1340997799999,3.3218339000000014,return,3.175251199999934,,,,,,,,,,,,,,,,,,,,,,,,,,,,,,,,,M9DFQn,Train_x,blue_star,bottom_left,2025-05-07_14h55.26.120,HideSeek_v1,2022.2.5,59.95164300475722,
,2,2,5,2,3,0,31,,train_dim1_1,11,30,,,,2,0,2,0,,,,,,,,,0,0,0,0,0,10,10,10,1,0,1,0,,,,,,,,,,,,,,,,,,,,,,,,,,,,,,,,,,,,,,,,,,,,,,,,,,,,,,,,,,,,,,,,30,,,,,,,,529.5701744,529.5701744,529.5701744,529.5701744,529.5701744,right,0.49308140000005096,0,0,0,99,0.16,-0.24,right,0.4121718999999757,,,,,,,,,,,,,,,,,,,,,,,,,,,,,,,,,,,,,,,,,,,,,,,,,,,,,,,,,,,,M9DFQn,Train_x,blue_star,bottom_left,2025-05-07_14h55.26.120,HideSeek_v1,2022.2.5,59.95164300475722,
,2,2,5,2,3,0,31,,train_dim1_1,11,30,,,,2,0,2,0,,,,,,,,,0,0,0,0,0,10,10,10,2,0,2,0,,,,,,,,,,,,,,,,,,,,,,,,,,,,,,,,,,,,,,,,,,,,,,,,,,,,,,,,,,,,,,,,30,,,,,,,,530.0696908,530.0696908,530.0696908,530.0696908,530.0696908,right,0.5769275000000107,0,0,0,99,0.24,-0.24,right,0.49994260000005397,,,,,,,,,,,,,,,,,,,,,,,,,,,,,,,,,,,,,,,,,,,,,,,,,,,,,,,,,,,,M9DFQn,Train_x,blue_star,bottom_left,2025-05-07_14h55.26.120,HideSeek_v1,2022.2.5,59.95164300475722,
,2,2,5,2,3,0,31,,train_dim1_1,11,30,,,,2,0,2,0,,,,,,,,,0,0,0,0,0,10,10,10,3,0,3,0,,,,,,,,,,,,,,,,,,,,,,,,,,,,,,,,,,,,,,,,,,,,,,,,,,,,,,,,,,,,,,,,30,,,,,,,,530.6540163,530.6540163,530.6540163,530.6540163,530.6540163,return,2.711909300000002,1,0,0,1,0.24,-0.24,return,2.6314515999999912,12,24,0.24,-0.24,,,,,,,,,,,,,,,,,,,,,,,,,,,,,,,,,,,,,,,,,,,,,,,,,,,,,,,,M9DFQn,Train_x,blue_star,bottom_left,2025-05-07_14h55.26.120,HideSeek_v1,2022.2.5,59.95164300475722,
,0,0,4,0,4,0,21,,train_dim1_1,12,30,,,,2,0,2,0,,,,,,,,,0,0,0,0,0,11,11,11,0,0,0,0,,,,,,,,,,,,,,,,,,,,,,,,,stimuli/alien_stimuli/21.png,,,,,,,,,,,,,,,,,,,,,,,,,,,,,stimuli/alien_stimuli/31.png,31,2,13,,,,,,,30,,,,,,,,539.679592,539.679592,539.679592,539.679592,539.679592,right,8.292330799999945,1,0,0,99,-0.08,-0.4,right,8.194162199999937,,,,,538.113697,539.679592,0.24,-0.24,0.0,0.24,-0.24,0.24,0.12,0.24,-0.24,534.9507229,534.9507229,534.9507229,534.9507229,534.9507229,534.9507229,534.9507229,534.9507229,534.94441218,3.2881978000000345,return,3.145911200000114,,,,,,,,,,,,,,,,,,,,,,,,,,,,,,,,,M9DFQn,Train_x,blue_star,bottom_left,2025-05-07_14h55.26.120,HideSeek_v1,2022.2.5,59.95164300475722,
,0,0,4,0,4,0,21,,train_dim1_1,12,30,,,,2,0,2,0,,,,,,,,,0,0,0,0,0,11,11,11,1,0,1,0,,,,,,,,,,,,,,,,,,,,,,,,,,,,,,,,,,,,,,,,,,,,,,,,,,,,,,,,,,,,,,,,30,,,,,,,,547.9752404,547.9752404,547.9752404,547.9752404,547.9752404,right,0.709975600000007,1,0,0,99,0.0,-0.4,right,0.6154814000000215,,,,,,,,,,,,,,,,,,,,,,,,,,,,,,,,,,,,,,,,,,,,,,,,,,,,,,,,,,,,M9DFQn,Train_x,blue_star,bottom_left,2025-05-07_14h55.26.120,HideSeek_v1,2022.2.5,59.95164300475722,
,0,0,4,0,4,0,21,,train_dim1_1,12,30,,,,2,0,2,0,,,,,,,,,0,0,0,0,0,11,11,11,2,0,2,0,,,,,,,,,,,,,,,,,,,,,,,,,,,,,,,,,,,,,,,,,,,,,,,,,,,,,,,,,,,,,,,,30,,,,,,,,548.6911163,548.6911163,548.6911163,548.6911163,548.6911163,right,0.4936192000000119,1,0,0,99,0.08,-0.4,right,0.4052666000000045,,,,,,,,,,,,,,,,,,,,,,,,,,,,,,,,,,,,,,,,,,,,,,,,,,,,,,,,,,,,M9DFQn,Train_x,blue_star,bottom_left,2025-05-07_14h55.26.120,HideSeek_v1,2022.2.5,59.95164300475722,
,0,0,4,0,4,0,21,,train_dim1_1,12,30,,,,2,0,2,0,,,,,,,,,0,0,0,0,0,11,11,11,3,0,3,0,,,,,,,,,,,,,,,,,,,,,,,,,,,,,,,,,,,,,,,,,,,,,,,,,,,,,,,,,,,,,,,,30,,,,,,,,549.1900555,549.1900555,549.1900555,549.1900555,549.1900555,right,0.543563899999981,1,0,0,99,0.16,-0.4,right,0.4564811999999847,,,,,,,,,,,,,,,,,,,,,,,,,,,,,,,,,,,,,,,,,,,,,,,,,,,,,,,,,,,,M9DFQn,Train_x,blue_star,bottom_left,2025-05-07_14h55.26.120,HideSeek_v1,2022.2.5,59.95164300475722,
,0,0,4,0,4,0,21,,train_dim1_1,12,30,,,,2,0,2,0,,,,,,,,,0,0,0,0,0,11,11,11,4,0,4,0,,,,,,,,,,,,,,,,,,,,,,,,,,,,,,,,,,,,,,,,,,,,,,,,,,,,,,,,,,,,,,,,30,,,,,,,,549.7421993,549.7421993,549.7421993,549.7421993,549.7421993,right,0.6766816000000517,1,0,0,99,0.24,-0.4,right,0.599373900000046,,,,,,,,,,,,,,,,,,,,,,,,,,,,,,,,,,,,,,,,,,,,,,,,,,,,,,,,,,,,M9DFQn,Train_x,blue_star,bottom_left,2025-05-07_14h55.26.120,HideSeek_v1,2022.2.5,59.95164300475722,
,0,0,4,0,4,0,21,,train_dim1_1,12,30,,,,2,0,2,0,,,,,,,,,0,0,0,0,0,11,11,11,5,0,5,0,,,,,,,,,,,,,,,,,,,,,,,,,,,,,,,,,,,,,,,,,,,,,,,,,,,,,,,,,,,,,,,,30,,,,,,,,550.4247965,550.4247965,550.4247965,550.4247965,550.4247965,return,0.7436738000000105,1,1,0,0,0.24,-0.4,return,0.6512283000000707,12,29,0.24,-0.4,,,,,,,,,,,,,,,,,,,,,,,,,,,,,,,,,,,,,,,,,,,,,,,,,,,,,,,,M9DFQn,Train_x,blue_star,bottom_left,2025-05-07_14h55.26.120,HideSeek_v1,2022.2.5,59.95164300475722,
,0,4,1,4,1,0,51,,train_dim1_1,13,30,,,,2,0,2,0,,,,,,,,,0,0,0,0,0,12,12,12,0,0,0,0,,,,,,,,,,,,,,,,,,,,,,,,,stimuli/alien_stimuli/51.png,,,,,,,,,,,,,,,,,,,,,,,,,,,,,stimuli/alien_stimuli/21.png,21,0,14,,,,,,,30,,,,,,,,563.3316346,563.3316346,563.3316346,563.3316346,563.3316346,right,4.971097899999904,1,1,0,99,-0.08,-0.08,right,4.859762400000022,,,,,561.7500237,563.3316346,0.16,-0.4,0.0,0.32,-0.4,0.16,0.0,0.16,-0.4,552.7609803,552.7609803,552.7609803,552.7609803,552.7609803,552.7609803,552.7609803,552.7609803,552.7427057799999,9.12620550000014,return,8.956912400000078,,,,,,,,,,,,,,,,,,,,,,,,,,,,,,,,,M9DFQn,Train_x,blue_star,bottom_left,2025-05-07_14h55.26.120,HideSeek_v1,2022.2.5,59.95164300475722,
,0,4,1,4,1,0,51,,train_dim1_1,13,30,,,,2,0,2,0,,,,,,,,,0,0,0,0,0,12,12,12,1,0,1,0,,,,,,,,,,,,,,,,,,,,,,,,,,,,,,,,,,,,,,,,,,,,,,,,,,,,,,,,,,,,,,,,30,,,,,,,,568.2878106,568.2878106,568.2878106,568.2878106,568.2878106,return,0.7769317999998293,2,0,0,1,-0.08,-0.08,return,0.7001961999999367,12,30,-0.08,-0.08,,,,,,,,,,,,,,,,,,,,,,,,,,,,,,,,,,,,,,,,,,,,,,,,,,,,,,,,M9DFQn,Train_x,blue_star,bottom_left,2025-05-07_14h55.26.120,HideSeek_v1,2022.2.5,59.95164300475722,
,4,3,9,3,5,0,11,,train_dim1_1,14,30,,,,2,0,2,0,,,,,,,,,0,0,0,0,0,13,13,13,0,0,0,0,,,,,,,,,,,,,,,,,,,,,,,,,stimuli/alien_stimuli/11.png,,,,,,,,,,,,,,,,,,,,,,,,,,,,,stimuli/alien_stimuli/51.png,51,0,15,,,,,,,30,,,,,,,,574.7902636,574.7902636,574.7902636,574.7902636,574.7902636,right,3.2728036000000884,2,0,0,99,0.24,-0.16,right,3.168326499999921,,,,,573.2098784,574.7902636,-0.08,-0.08,0.0,0.08,-0.08,-0.08,-0.12,-0.08,-0.08,570.6322789,570.6322789,570.6322789,570.6322789,570.6322789,570.6322789,570.6322789,570.6322789,570.62413752,2.6879277999998976,return,2.5502720000000636,,,,,,,,,,,,,,,,,,,,,,,,,,,,,,,,,M9DFQn,Train_x,blue_star,bottom_left,2025-05-07_14h55.26.120,HideSeek_v1,2022.2.5,59.95164300475722,
,4,3,9,3,5,0,11,,train_dim1_1,14,30,,,,2,0,2,0,,,,,,,,,0,0,0,0,0,13,13,13,1,0,1,0,,,,,,,,,,,,,,,,,,,,,,,,,,,,,,,,,,,,,,,,,,,,,,,,,,,,,,,,,,,,,,,,30,,,,,,,,578.0477013,578.0477013,578.0477013,578.0477013,578.0477013,right,0.5599291000000903,2,0,0,99,0.32,-0.16,right,0.4782196999999542,,,,,,,,,,,,,,,,,,,,,,,,,,,,,,,,,,,,,,,,,,,,,,,,,,,,,,,,,,,,M9DFQn,Train_x,blue_star,bottom_left,2025-05-07_14h55.26.120,HideSeek_v1,2022.2.5,59.95164300475722,
,4,3,9,3,5,0,11,,train_dim1_1,14,30,,,,2,0,2,0,,,,,,,,,0,0,0,0,0,13,13,13,2,0,2,0,,,,,,,,,,,,,,,,,,,,,,,,,,,,,,,,,,,,,,,,,,,,,,,,,,,,,,,,,,,,,,,,30,,,,,,,,578.6134696,578.6134696,578.6134696,578.6134696,578.6134696,right,0.7440192999999908,2,0,0,99,0.4,-0.16,right,0.6612317000000303,,,,,,,,,,,,,,,,,,,,,,,,,,,,,,,,,,,,,,,,,,,,,,,,,,,,,,,,,,,,M9DFQn,Train_x,blue_star,bottom_left,2025-05-07_14h55.26.120,HideSeek_v1,2022.2.5,59.95164300475722,
,4,3,9,3,5,0,11,,train_dim1_1,14,30,,,,2,0,2,0,,,,,,,,,0,0,0,0,0,13,13,13,3,0,3,0,,,,,,,,,,,,,,,,,,,,,,,,,,,,,,,,,,,,,,,,,,,,,,,,,,,,,,,,,,,,,,,,30,,,,,,,,579.3638611,579.3638611,579.3638611,579.3638611,579.3638611,right,0.8100531999998566,2,0,0,99,0.48000000000000004,-0.16,right,0.7268004999999675,,,,,,,,,,,,,,,,,,,,,,,,,,,,,,,,,,,,,,,,,,,,,,,,,,,,,,,,,,,,M9DFQn,Train_x,blue_star,bottom_left,2025-05-07_14h55.26.120,HideSeek_v1,2022.2.5,59.95164300475722,
,4,3,9,3,5,0,11,,train_dim1_1,14,30,,,,2,0,2,0,,,,,,,,,0,0,0,0,0,13,13,13,4,0,4,0,,,,,,,,,,,,,,,,,,,,,,,,,,,,,,,,,,,,,,,,,,,,,,,,,,,,,,,,,,,,,,,,30,,,,,,,,580.1834628,580.1834628,580.1834628,580.1834628,580.1834628,right,0.8106265999999778,2,0,0,99,0.56,-0.16,right,0.730065800000034,,,,,,,,,,,,,,,,,,,,,,,,,,,,,,,,,,,,,,,,,,,,,,,,,,,,,,,,,,,,M9DFQn,Train_x,blue_star,bottom_left,2025-05-07_14h55.26.120,HideSeek_v1,2022.2.5,59.95164300475722,
,4,3,9,3,5,0,11,,train_dim1_1,14,30,,,,2,0,2,0,,,,,,,,,0,0,0,0,0,13,13,13,5,0,5,0,,,,,,,,,,,,,,,,,,,,,,,,,,,,,,,,,,,,,,,,,,,,,,,,,,,,,,,,,,,,,,,,30,,,,,,,,581.0014438,581.0014438,581.0014438,581.0014438,581.0014438,return,1.5773386000000755,3,0,0,1,0.56,-0.16,return,1.4911041999999952,12,35,0.56,-0.16,,,,,,,,,,,,,,,,,,,,,,,,,,,,,,,,,,,,,,,,,,,,,,,,,,,,,,,,M9DFQn,Train_x,blue_star,bottom_left,2025-05-07_14h55.26.120,HideSeek_v1,2022.2.5,59.95164300475722,
,4,2,4,2,0,0,61,,train_dim1_1,15,30,,,,2,0,2,0,,,,,,,,,0,0,0,0,0,14,14,14,0,0,0,0,,,,,,,,,,,,,,,,,,,,,,,,,stimuli/alien_stimuli/61.png,,,,,,,,,,,,,,,,,,,,,,,,,,,,,stimuli/alien_stimuli/11.png,11,4,16,,,,,,,30,,,,,,,,589.198012,589.198012,589.198012,589.198012,589.198012,up,3.589870000000019,3,0,0,99,0.16,-0.15999999999999998,up,3.5120664999999462,,,,,587.6385200999999,589.198012,0.56,-0.16,0.0,0.4,-0.16,0.56,0.36000000000000004,0.56,-0.16,584.1662586,584.1662586,584.1662586,584.1662586,584.1662586,584.1662586,584.1662586,584.1662586,584.15204368,3.6052713000001404,return,3.4503799999999956,,,,,,,,,,,,,,,,,,,,,,,,,,,,,,,,,M9DFQn,Train_x,blue_star,bottom_left,2025-05-07_14h55.26.120,HideSeek_v1,2022.2.5,59.95164300475722,
,4,2,4,2,0,0,61,,train_dim1_1,15,30,,,,2,0,2,0,,,,,,,,,0,0,0,0,0,14,14,14,1,0,1,0,,,,,,,,,,,,,,,,,,,,,,,,,,,,,,,,,,,,,,,,,,,,,,,,,,,,,,,,,,,,,,,,30,,,,,,,,592.7886962,592.7886962,592.7886962,592.7886962,592.7886962,return,1.9778687000000446,3,1,0,0,0.16,-0.15999999999999998,return,1.8900724000000082,13,35,0.16,-0.15999999999999998,,,,,,,,,,,,,,,,,,,,,,,,,,,,,,,,,,,,,,,,,,,,,,,,,,,,,,,,M9DFQn,Train_x,blue_star,bottom_left,2025-05-07_14h55.26.120,HideSeek_v1,2022.2.5,59.95164300475722,
,3,3,4,3,1,0,51,,train_dim1_1,16,30,,,,2,0,2,0,,,,,,,,,0,0,0,0,0,15,15,15,0,0,0,0,,,,,,,,,,,,,,,,,,,,,,,,,stimuli/alien_stimuli/51.png,,,,,,,,,,,,,,,,,,,,,,,,,,,,,stimuli/alien_stimuli/61.png,61,4,17,,,,,,,30,,,,,,,,601.8791198,601.8791198,601.8791198,601.8791198,601.8791198,right,2.1707208999998784,3,1,0,99,0.16,-0.16,right,2.081433700000048,,,,,600.315354,601.8791198,0.16,-0.24,0.0,0.0,-0.24,0.16,0.16,0.16,-0.24,596.3419673,596.3419673,596.3419673,596.3419673,596.3419673,596.3419673,596.3419673,596.3419673,596.32858992,4.089182800000117,return,3.9541324000000486,,,,,,,,,,,,,,,,,,,,,,,,,,,,,,,,,M9DFQn,Train_x,blue_star,bottom_left,2025-05-07_14h55.26.120,HideSeek_v1,2022.2.5,59.95164300475722,
,3,3,4,3,1,0,51,,train_dim1_1,16,30,,,,2,0,2,0,,,,,,,,,0,0,0,0,0,15,15,15,1,0,1,0,,,,,,,,,,,,,,,,,,,,,,,,,,,,,,,,,,,,,,,,,,,,,,,,,,,,,,,,,,,,,,,,30,,,,,,,,604.0502606,604.0502606,604.0502606,604.0502606,604.0502606,return,0.7432545000001483,4,0,0,1,0.16,-0.16,return,0.6622613000000683,13,36,0.16,-0.16,,,,,,,,,,,,,,,,,,,,,,,,,,,,,,,,,,,,,,,,,,,,,,,,,,,,,,,,M9DFQn,Train_x,blue_star,bottom_left,2025-05-07_14h55.26.120,HideSeek_v1,2022.2.5,59.95164300475722,
,2,4,6,4,4,0,21,,train_dim1_1,17,30,,,,2,0,2,0,,,,,,,,,0,0,0,0,0,16,16,16,0,0,0,0,,,,,,,,,,,,,,,,,,,,,,,,,stimuli/alien_stimuli/21.png,,,,,,,,,,,,,,,,,,,,,,,,,,,,,stimuli/alien_stimuli/51.png,51,3,18,,,,,,,30,,,,,,,,609.9667608,609.9667608,609.9667608,609.9667608,609.9667608,right,1.8214437999999973,4,0,0,99,0.08,-0.08,right,1.7125962000000072,,,,,608.3887963999999,609.9667608,0.16,-0.16,0.0,0.08,-0.16,0.16,0.12,0.16,-0.16,606.3612952,606.3612952,606.3612952,606.3612952,606.3612952,606.3612952,606.3612952,606.3612952,606.3537330199999,2.137207399999852,return,1.9959694000000354,,,,,,,,,,,,,,,,,,,,,,,,,,,,,,,,,M9DFQn,Train_x,blue_star,bottom_left,2025-05-07_14h55.26.120,HideSeek_v1,2022.2.5,59.95164300475722,
,2,4,6,4,4,0,21,,train_dim1_1,17,30,,,,2,0,2,0,,,,,,,,,0,0,0,0,0,16,16,16,1,0,1,0,,,,,,,,,,,,,,,,,,,,,,,,,,,,,,,,,,,,,,,,,,,,,,,,,,,,,,,,,,,,,,,,30,,,,,,,,611.7761874,611.7761874,611.7761874,611.7761874,611.7761874,right,0.5597014999998464,4,0,0,99,0.16,-0.08,right,0.46764120000000275,,,,,,,,,,,,,,,,,,,,,,,,,,,,,,,,,,,,,,,,,,,,,,,,,,,,,,,,,,,,M9DFQn,Train_x,blue_star,bottom_left,2025-05-07_14h55.26.120,HideSeek_v1,2022.2.5,59.95164300475722,
,2,4,6,4,4,0,21,,train_dim1_1,17,30,,,,2,0,2,0,,,,,,,,,0,0,0,0,0,16,16,16,2,0,2,0,,,,,,,,,,,,,,,,,,,,,,,,,,,,,,,,,,,,,,,,,,,,,,,,,,,,,,,,,,,,,,,,30,,,,,,,,612.3435446,612.3435446,612.3435446,612.3435446,612.3435446,right,0.6270739999999932,4,0,0,99,0.24,-0.08,right,0.5454483000000891,,,,,,,,,,,,,,,,,,,,,,,,,,,,,,,,,,,,,,,,,,,,,,,,,,,,,,,,,,,,M9DFQn,Train_x,blue_star,bottom_left,2025-05-07_14h55.26.120,HideSeek_v1,2022.2.5,59.95164300475722,
,2,4,6,4,4,0,21,,train_dim1_1,17,30,,,,2,0,2,0,,,,,,,,,0,0,0,0,0,16,16,16,3,0,3,0,,,,,,,,,,,,,,,,,,,,,,,,,,,,,,,,,,,,,,,,,,,,,,,,,,,,,,,,,,,,,,,,30,,,,,,,,612.976124,612.976124,612.976124,612.976124,612.976124,right,1.310742499999833,4,0,0,99,0.32,-0.08,right,1.2289603000000398,,,,,,,,,,,,,,,,,,,,,,,,,,,,,,,,,,,,,,,,,,,,,,,,,,,,,,,,,,,,M9DFQn,Train_x,blue_star,bottom_left,2025-05-07_14h55.26.120,HideSeek_v1,2022.2.5,59.95164300475722,
,2,4,6,4,4,0,21,,train_dim1_1,17,30,,,,2,0,2,0,,,,,,,,,0,0,0,0,0,16,16,16,4,0,4,0,,,,,,,,,,,,,,,,,,,,,,,,,,,,,,,,,,,,,,,,,,,,,,,,,,,,,,,,,,,,,,,,30,,,,,,,,614.293247,614.293247,614.293247,614.293247,614.293247,right,0.5267762999999377,4,0,0,99,0.4,-0.08,right,0.4352731000000176,,,,,,,,,,,,,,,,,,,,,,,,,,,,,,,,,,,,,,,,,,,,,,,,,,,,,,,,,,,,M9DFQn,Train_x,blue_star,bottom_left,2025-05-07_14h55.26.120,HideSeek_v1,2022.2.5,59.95164300475722,
,2,4,6,4,4,0,21,,train_dim1_1,17,30,,,,2,0,2,0,,,,,,,,,0,0,0,0,0,16,16,16,5,0,5,0,,,,,,,,,,,,,,,,,,,,,,,,,,,,,,,,,,,,,,,,,,,,,,,,,,,,,,,,,,,,,,,,30,,,,,,,,614.8268999,614.8268999,614.8268999,614.8268999,614.8268999,return,1.060669100000041,4,1,0,0,0.4,-0.08,return,0.9853448000000071,13,41,0.4,-0.08,,,,,,,,,,,,,,,,,,,,,,,,,,,,,,,,,,,,,,,,,,,,,,,,,,,,,,,,M9DFQn,Train_x,blue_star,bottom_left,2025-05-07_14h55.26.120,HideSeek_v1,2022.2.5,59.95164300475722,
,2,1,2,1,0,0,61,,train_dim1_1,18,30,,,,2,0,2,0,,,,,,,,,0,0,0,0,0,17,17,17,0,0,0,0,,,,,,,,,,,,,,,,,,,,,,,,,stimuli/alien_stimuli/61.png,,,,,,,,,,,,,,,,,,,,,,,,,,,,,stimuli/alien_stimuli/21.png,21,2,19,,,,,,,30,,,,,,,,622.3927952,622.3927952,622.3927952,622.3927952,622.3927952,up,4.807956999999988,4,1,0,99,0,-0.24,up,4.722301700000003,,,,,620.8323635,622.3927952,0.32,-0.08,0.0,0.32,-0.08,0.32,0.16,0.32,-0.08,617.4577783,617.4577783,617.4577783,617.4577783,617.4577783,617.4577783,617.4577783,617.4577783,617.44634142,3.488115099999959,return,3.344227200000091,,,,,,,,,,,,,,,,,,,,,,,,,,,,,,,,,M9DFQn,Train_x,blue_star,bottom_left,2025-05-07_14h55.26.120,HideSeek_v1,2022.2.5,59.95164300475722,
,2,1,2,1,0,0,61,,train_dim1_1,18,30,,,,2,0,2,0,,,,,,,,,0,0,0,0,0,17,17,17,1,0,1,0,,,,,,,,,,,,,,,,,,,,,,,,,,,,,,,,,,,,,,,,,,,,,,,,,,,,,,,,,,,,,,,,30,,,,,,,,627.2013892,627.2013892,627.2013892,627.2013892,627.2013892,return,1.1101286999999047,4,1,0,0,0,-0.24,return,1.0256884000000355,14,41,0,-0.24,,,,,,,,,,,,,,,,,,,,,,,,,,,,,,,,,,,,,,,,,,,,,,,,,,,,,,,,M9DFQn,Train_x,blue_star,bottom_left,2025-05-07_14h55.26.120,HideSeek_v1,2022.2.5,59.95164300475722,
,0,3,3,3,3,0,31,,train_dim1_1,19,30,,,,2,0,2,0,,,,,,,,,0,0,0,0,0,18,18,18,0,0,0,0,,,,,,,,,,,,,,,,,,,,,,,,,stimuli/alien_stimuli/31.png,,,,,,,,,,,,,,,,,,,,,,,,,,,,,stimuli/alien_stimuli/61.png,61,2,20,,,,,,,30,,,,,,,,634.4832964,634.4832964,634.4832964,634.4832964,634.4832964,right,6.194263200000023,4,1,0,99,-0.08,-0.16,right,6.108327900000063,,,,,632.9258819,634.4832964,0,-0.32,0.0,0.0,-0.32,0,0.0,0,-0.32,629.8767687,629.8767687,629.8767687,629.8767687,629.8767687,629.8767687,629.8767687,629.8767687,629.8565420599999,3.154870800000026,return,3.019143299999996,,,,,,,,,,,,,,,,,,,,,,,,,,,,,,,,,M9DFQn,Train_x,blue_star,bottom_left,2025-05-07_14h55.26.120,HideSeek_v1,2022.2.5,59.95164300475722,
,0,3,3,3,3,0,31,,train_dim1_1,19,30,,,,2,0,2,0,,,,,,,,,0,0,0,0,0,18,18,18,1,0,1,0,,,,,,,,,,,,,,,,,,,,,,,,,,,,,,,,,,,,,,,,,,,,,,,,,,,,,,,,,,,,,,,,30,,,,,,,,640.6813921,640.6813921,640.6813921,640.6813921,640.6813921,right,0.47655839999993077,4,1,0,99,0.0,-0.16,right,0.4003969999999981,,,,,,,,,,,,,,,,,,,,,,,,,,,,,,,,,,,,,,,,,,,,,,,,,,,,,,,,,,,,M9DFQn,Train_x,blue_star,bottom_left,2025-05-07_14h55.26.120,HideSeek_v1,2022.2.5,59.95164300475722,
,0,3,3,3,3,0,31,,train_dim1_1,19,30,,,,2,0,2,0,,,,,,,,,0,0,0,0,0,18,18,18,2,0,2,0,,,,,,,,,,,,,,,,,,,,,,,,,,,,,,,,,,,,,,,,,,,,,,,,,,,,,,,,,,,,,,,,30,,,,,,,,641.1637087,641.1637087,641.1637087,641.1637087,641.1637087,right,0.47603989999993246,4,1,0,99,0.08,-0.16,right,0.3975186999999778,,,,,,,,,,,,,,,,,,,,,,,,,,,,,,,,,,,,,,,,,,,,,,,,,,,,,,,,,,,,M9DFQn,Train_x,blue_star,bottom_left,2025-05-07_14h55.26.120,HideSeek_v1,2022.2.5,59.95164300475722,
,0,3,3,3,3,0,31,,train_dim1_1,19,30,,,,2,0,2,0,,,,,,,,,0,0,0,0,0,18,18,18,3,0,3,0,,,,,,,,,,,,,,,,,,,,,,,,,,,,,,,,,,,,,,,,,,,,,,,,,,,,,,,,,,,,,,,,30,,,,,,,,641.6485563,641.6485563,641.6485563,641.6485563,641.6485563,return,0.9435891999999058,5,0,0,1,0.08,-0.16,return,0.8609930999999733,14,44,0.08,-0.16,,,,,,,,,,,,,,,,,,,,,,,,,,,,,,,,,,,,,,,,,,,,,,,,,,,,,,,,M9DFQn,Train_x,blue_star,bottom_left,2025-05-07_14h55.26.120,HideSeek_v1,2022.2.5,59.95164300475722,
,0,1,5,1,5,0,11,,train_dim1_1,20,30,,,,2,0,2,0,,,,,,,,,0,0,0,0,0,19,19,19,0,0,0,0,,,,,,,,,,,,,,,,,,,,,,,,,stimuli/alien_stimuli/11.png,,,,,,,,,,,,,,,,,,,,,,,,,,,,,stimuli/alien_stimuli/31.png,31,0,21,,,,,,,30,,,,,,,,649.1538326,649.1538326,649.1538326,649.1538326,649.1538326,right,2.4874187000000347,5,0,0,99,-0.08,-0.32,right,2.3924493999999186,,,,,647.5879786,649.1538326,0.08,-0.16,0.0,0.24,-0.16,0.08,-0.04,0.08,-0.16,644.1568697,644.1568697,644.1568697,644.1568697,644.1568697,644.1568697,644.1568697,644.1568697,644.13509026,3.538131900000053,return,3.4028343000001087,,,,,,,,,,,,,,,,,,,,,,,,,,,,,,,,,M9DFQn,Train_x,blue_star,bottom_left,2025-05-07_14h55.26.120,HideSeek_v1,2022.2.5,59.95164300475722,
,0,1,5,1,5,0,11,,train_dim1_1,20,30,,,,2,0,2,0,,,,,,,,,0,0,0,0,0,19,19,19,1,0,1,0,,,,,,,,,,,,,,,,,,,,,,,,,,,,,,,,,,,,,,,,,,,,,,,,,,,,,,,,,,,,,,,,30,,,,,,,,651.6421666,651.6421666,651.6421666,651.6421666,651.6421666,right,0.45954889999984516,5,0,0,99,0.0,-0.32,right,0.3678499999999758,,,,,,,,,,,,,,,,,,,,,,,,,,,,,,,,,,,,,,,,,,,,,,,,,,,,,,,,,,,,M9DFQn,Train_x,blue_star,bottom_left,2025-05-07_14h55.26.120,HideSeek_v1,2022.2.5,59.95164300475722,
,0,1,5,1,5,0,11,,train_dim1_1,20,30,,,,2,0,2,0,,,,,,,,,0,0,0,0,0,19,19,19,2,0,2,0,,,,,,,,,,,,,,,,,,,,,,,,,,,,,,,,,,,,,,,,,,,,,,,,,,,,,,,,,,,,,,,,30,,,,,,,,652.1103819,652.1103819,652.1103819,652.1103819,652.1103819,right,0.4433348999998543,5,0,0,99,0.08,-0.32,right,0.3514588000000458,,,,,,,,,,,,,,,,,,,,,,,,,,,,,,,,,,,,,,,,,,,,,,,,,,,,,,,,,,,,M9DFQn,Train_x,blue_star,bottom_left,2025-05-07_14h55.26.120,HideSeek_v1,2022.2.5,59.95164300475722,
,0,1,5,1,5,0,11,,train_dim1_1,20,30,,,,2,0,2,0,,,,,,,,,0,0,0,0,0,19,19,19,3,0,3,0,,,,,,,,,,,,,,,,,,,,,,,,,,,,,,,,,,,,,,,,,,,,,,,,,,,,,,,,,,,,,,,,30,,,,,,,,652.5588928,652.5588928,652.5588928,652.5588928,652.5588928,right,0.6267814000000271,5,0,0,99,0.16,-0.32,right,0.5460783000000902,,,,,,,,,,,,,,,,,,,,,,,,,,,,,,,,,,,,,,,,,,,,,,,,,,,,,,,,,,,,M9DFQn,Train_x,blue_star,bottom_left,2025-05-07_14h55.26.120,HideSeek_v1,2022.2.5,59.95164300475722,
,0,1,5,1,5,0,11,,train_dim1_1,20,30,,,,2,0,2,0,,,,,,,,,0,0,0,0,0,19,19,19,4,0,4,0,,,,,,,,,,,,,,,,,,,,,,,,,,,,,,,,,,,,,,,,,,,,,,,,,,,,,,,,,,,,,,,,30,,,,,,,,653.1936962,653.1936962,653.1936962,653.1936962,653.1936962,right,0.5934770000001208,5,0,0,99,0.24,-0.32,right,0.5107769999999618,,,,,,,,,,,,,,,,,,,,,,,,,,,,,,,,,,,,,,,,,,,,,,,,,,,,,,,,,,,,M9DFQn,Train_x,blue_star,bottom_left,2025-05-07_14h55.26.120,HideSeek_v1,2022.2.5,59.95164300475722,
,0,1,5,1,5,0,11,,train_dim1_1,20,30,,,,2,0,2,0,,,,,,,,,0,0,0,0,0,19,19,19,5,0,5,0,,,,,,,,,,,,,,,,,,,,,,,,,,,,,,,,,,,,,,,,,,,,,,,,,,,,,,,,,,,,,,,,30,,,,,,,,653.7934981,653.7934981,653.7934981,653.7934981,653.7934981,right,1.6273473999999624,5,0,0,99,0.32,-0.32,right,1.5476393000000144,,,,,,,,,,,,,,,,,,,,,,,,,,,,,,,,,,,,,,,,,,,,,,,,,,,,,,,,,,,,M9DFQn,Train_x,blue_star,bottom_left,2025-05-07_14h55.26.120,HideSeek_v1,2022.2.5,59.95164300475722,
,0,1,5,1,5,0,11,,train_dim1_1,20,30,,,,2,0,2,0,,,,,,,,,0,0,0,0,0,19,19,19,6,0,6,0,,,,,,,,,,,,,,,,,,,,,,,,,,,,,,,,,,,,,,,,,,,,,,,,,,,,,,,,,,,,,,,,30,,,,,,,,655.4287006,655.4287006,655.4287006,655.4287006,655.4287006,return,0.5273961000000327,5,1,0,0,0.32,-0.32,return,0.4423754000000599,14,50,0.32,-0.32,,,,,,,,,,,,,,,,,,,,,,,,,,,,,,,,,,,,,,,,,,,,,,,,,,,,,,,,M9DFQn,Train_x,blue_star,bottom_left,2025-05-07_14h55.26.120,HideSeek_v1,2022.2.5,59.95164300475722,
,4,2,7,2,3,0,31,,train_dim1_1,21,30,,,,2,0,2,0,,,,,,,,,0,0,0,0,0,20,20,20,0,0,0,0,,,,,,,,,,,,,,,,,,,,,,,,,stimuli/alien_stimuli/31.png,,,,,,,,,,,,,,,,,,,,,,,,,,,,,stimuli/alien_stimuli/11.png,11,0,22,,,,,,,30,,,,,,,,662.3938174,662.3938174,662.3938174,662.3938174,662.3938174,right,1.7706041999999798,5,1,0,99,0.24,-0.24,right,1.6910530999999764,,,,,660.8322197,662.3938174,0.24,-0.32,0.0,0.4,-0.32,0.24,0.039999999999999994,0.24,-0.32,657.5433998999999,657.5433998999999,657.5433998999999,657.5433998999999,657.5433998999999,657.5433998999999,657.5433998999999,657.5433998999999,657.52969908,3.4213200000001507,return,3.2669373999999607,,,,,,,,,,,,,,,,,,,,,,,,,,,,,,,,,M9DFQn,Train_x,blue_star,bottom_left,2025-05-07_14h55.26.120,HideSeek_v1,2022.2.5,59.95164300475722,
,4,2,7,2,3,0,31,,train_dim1_1,21,30,,,,2,0,2,0,,,,,,,,,0,0,0,0,0,20,20,20,1,0,1,0,,,,,,,,,,,,,,,,,,,,,,,,,,,,,,,,,,,,,,,,,,,,,,,,,,,,,,,,,,,,,,,,30,,,,,,,,664.1674702,664.1674702,664.1674702,664.1674702,664.1674702,right,0.6912992000000031,5,1,0,99,0.32,-0.24,right,0.6090801000000283,,,,,,,,,,,,,,,,,,,,,,,,,,,,,,,,,,,,,,,,,,,,,,,,,,,,,,,,,,,,M9DFQn,Train_x,blue_star,bottom_left,2025-05-07_14h55.26.120,HideSeek_v1,2022.2.5,59.95164300475722,
,4,2,7,2,3,0,31,,train_dim1_1,21,30,,,,2,0,2,0,,,,,,,,,0,0,0,0,0,20,20,20,2,0,2,0,,,,,,,,,,,,,,,,,,,,,,,,,,,,,,,,,,,,,,,,,,,,,,,,,,,,,,,,,,,,,,,,30,,,,,,,,664.8643469,664.8643469,664.8643469,664.8643469,664.8643469,right,0.5436059999999543,5,1,0,99,0.4,-0.24,right,0.46416740000006484,,,,,,,,,,,,,,,,,,,,,,,,,,,,,,,,,,,,,,,,,,,,,,,,,,,,,,,,,,,,M9DFQn,Train_x,blue_star,bottom_left,2025-05-07_14h55.26.120,HideSeek_v1,2022.2.5,59.95164300475722,
,4,2,7,2,3,0,31,,train_dim1_1,21,30,,,,2,0,2,0,,,,,,,,,0,0,0,0,0,20,20,20,3,0,3,0,,,,,,,,,,,,,,,,,,,,,,,,,,,,,,,,,,,,,,,,,,,,,,,,,,,,,,,,,,,,,,,,30,,,,,,,,665.4173399,665.4173399,665.4173399,665.4173399,665.4173399,right,0.6933561000000736,5,1,0,99,0.48000000000000004,-0.24,right,0.6043425000000298,,,,,,,,,,,,,,,,,,,,,,,,,,,,,,,,,,,,,,,,,,,,,,,,,,,,,,,,,,,,M9DFQn,Train_x,blue_star,bottom_left,2025-05-07_14h55.26.120,HideSeek_v1,2022.2.5,59.95164300475722,
,4,2,7,2,3,0,31,,train_dim1_1,21,30,,,,2,0,2,0,,,,,,,,,0,0,0,0,0,20,20,20,4,0,4,0,,,,,,,,,,,,,,,,,,,,,,,,,,,,,,,,,,,,,,,,,,,,,,,,,,,,,,,,,,,,,,,,30,,,,,,,,666.1164061,666.1164061,666.1164061,666.1164061,666.1164061,right,0.8936876000000211,5,1,0,99,0.56,-0.24,right,0.8063965000000053,,,,,,,,,,,,,,,,,,,,,,,,,,,,,,,,,,,,,,,,,,,,,,,,,,,,,,,,,,,,M9DFQn,Train_x,blue_star,bottom_left,2025-05-07_14h55.26.120,HideSeek_v1,2022.2.5,59.95164300475722,
,4,2,7,2,3,0,31,,train_dim1_1,21,30,,,,2,0,2,0,,,,,,,,,0,0,0,0,0,20,20,20,5,0,5,0,,,,,,,,,,,,,,,,,,,,,,,,,,,,,,,,,,,,,,,,,,,,,,,,,,,,,,,,,,,,,,,,30,,,,,,,,667.0168216,667.0168216,667.0168216,667.0168216,667.0168216,left,1.2104159999998956,5,1,0,99,0.48000000000000004,-0.24,left,1.1346381000000747,,,,,,,,,,,,,,,,,,,,,,,,,,,,,,,,,,,,,,,,,,,,,,,,,,,,,,,,,,,,M9DFQn,Train_x,blue_star,bottom_left,2025-05-07_14h55.26.120,HideSeek_v1,2022.2.5,59.95164300475722,
,4,2,7,2,3,0,31,,train_dim1_1,21,30,,,,2,0,2,0,,,,,,,,,0,0,0,0,0,20,20,20,6,0,6,0,,,,,,,,,,,,,,,,,,,,,,,,,,,,,,,,,,,,,,,,,,,,,,,,,,,,,,,,,,,,,,,,30,,,,,,,,668.2347679,668.2347679,668.2347679,668.2347679,668.2347679,left,0.36125369999990653,5,1,0,99,0.4,-0.24,left,0.2715498000000025,,,,,,,,,,,,,,,,,,,,,,,,,,,,,,,,,,,,,,,,,,,,,,,,,,,,,,,,,,,,M9DFQn,Train_x,blue_star,bottom_left,2025-05-07_14h55.26.120,HideSeek_v1,2022.2.5,59.95164300475722,
,4,2,7,2,3,0,31,,train_dim1_1,21,30,,,,2,0,2,0,,,,,,,,,0,0,0,0,0,20,20,20,7,0,7,0,,,,,,,,,,,,,,,,,,,,,,,,,,,,,,,,,,,,,,,,,,,,,,,,,,,,,,,,,,,,,,,,30,,,,,,,,668.6034031,668.6034031,668.6034031,668.6034031,668.6034031,left,0.32557939999992414,5,1,0,99,0.32,-0.24,left,0.2515090000000555,,,,,,,,,,,,,,,,,,,,,,,,,,,,,,,,,,,,,,,,,,,,,,,,,,,,,,,,,,,,M9DFQn,Train_x,blue_star,bottom_left,2025-05-07_14h55.26.120,HideSeek_v1,2022.2.5,59.95164300475722,
,4,2,7,2,3,0,31,,train_dim1_1,21,30,,,,2,0,2,0,,,,,,,,,0,0,0,0,0,20,20,20,8,0,8,0,,,,,,,,,,,,,,,,,,,,,,,,,,,,,,,,,,,,,,,,,,,,,,,,,,,,,,,,,,,,,,,,30,,,,,,,,668.9370504999999,668.9370504999999,668.9370504999999,668.9370504999999,668.9370504999999,left,0.3100028999999722,5,1,0,99,0.24,-0.24,left,0.23286090000010518,,,,,,,,,,,,,,,,,,,,,,,,,,,,,,,,,,,,,,,,,,,,,,,,,,,,,,,,,,,,M9DFQn,Train_x,blue_star,bottom_left,2025-05-07_14h55.26.120,HideSeek_v1,2022.2.5,59.95164300475722,
,4,2,7,2,3,0,31,,train_dim1_1,21,30,,,,2,0,2,0,,,,,,,,,0,0,0,0,0,20,20,20,9,0,9,0,,,,,,,,,,,,,,,,,,,,,,,,,,,,,,,,,,,,,,,,,,,,,,,,,,,,,,,,,,,,,,,,30,,,,,,,,669.2525072999999,669.2525072999999,669.2525072999999,669.2525072999999,669.2525072999999,right,4.346835800000008,5,1,0,99,0.32,-0.24,right,4.269307499999968,,,,,,,,,,,,,,,,,,,,,,,,,,,,,,,,,,,,,,,,,,,,,,,,,,,,,,,,,,,,M9DFQn,Train_x,blue_star,bottom_left,2025-05-07_14h55.26.120,HideSeek_v1,2022.2.5,59.95164300475722,
,4,2,7,2,3,0,31,,train_dim1_1,21,30,,,,2,0,2,0,,,,,,,,,0,0,0,0,0,20,20,20,10,0,10,0,,,,,,,,,,,,,,,,,,,,,,,,,,,,,,,,,,,,,,,,,,,,,,,,,,,,,,,,,,,,,,,,30,,,,,,,,673.6077797,673.6077797,673.6077797,673.6077797,673.6077797,right,0.5102008999999725,5,1,0,99,0.4,-0.24,right,0.42015900000012607,,,,,,,,,,,,,,,,,,,,,,,,,,,,,,,,,,,,,,,,,,,,,,,,,,,,,,,,,,,,M9DFQn,Train_x,blue_star,bottom_left,2025-05-07_14h55.26.120,HideSeek_v1,2022.2.5,59.95164300475722,
,4,2,7,2,3,0,31,,train_dim1_1,21,30,,,,2,0,2,0,,,,,,,,,0,0,0,0,0,20,20,20,11,0,11,0,,,,,,,,,,,,,,,,,,,,,,,,,,,,,,,,,,,,,,,,,,,,,,,,,,,,,,,,,,,,,,,,30,,,,,,,,674.1233056,674.1233056,674.1233056,674.1233056,674.1233056,return,0.7101390000000265,6,0,0,1,0.4,-0.24,return,0.6307893000000604,14,53,0.4,-0.24,,,,,,,,,,,,,,,,,,,,,,,,,,,,,,,,,,,,,,,,,,,,,,,,,,,,,,,,M9DFQn,Train_x,blue_star,bottom_left,2025-05-07_14h55.26.120,HideSeek_v1,2022.2.5,59.95164300475722,
,1,0,5,0,4,0,21,,train_dim1_1,22,30,,,,2,0,2,0,,,,,,,,,0,0,0,0,0,21,21,21,0,0,0,0,,,,,,,,,,,,,,,,,,,,,,,,,stimuli/alien_stimuli/21.png,,,,,,,,,,,,,,,,,,,,,,,,,,,,,stimuli/alien_stimuli/31.png,31,4,23,,,,,,,30,,,,,,,,680.9263713,680.9263713,680.9263713,680.9263713,680.9263713,right,1.939522499999839,6,0,0,99,0.0,-0.4,right,1.8503012000001036,,,,,679.3645316,680.9263713,0.4,-0.24,0.0,0.24,-0.24,0.4,0.28,0.4,-0.24,676.4202021,676.4202021,676.4202021,676.4202021,676.4202021,676.4202021,676.4202021,676.4202021,676.4118218799999,3.071474599999874,return,2.924940300000003,,,,,,,,,,,,,,,,,,,,,,,,,,,,,,,,,M9DFQn,Train_x,blue_star,bottom_left,2025-05-07_14h55.26.120,HideSeek_v1,2022.2.5,59.95164300475722,
,1,0,5,0,4,0,21,,train_dim1_1,22,30,,,,2,0,2,0,,,,,,,,,0,0,0,0,0,21,21,21,1,0,1,0,,,,,,,,,,,,,,,,,,,,,,,,,,,,,,,,,,,,,,,,,,,,,,,,,,,,,,,,,,,,,,,,30,,,,,,,,682.868285,682.868285,682.868285,682.868285,682.868285,right,0.4430981000000429,6,0,0,99,0.08,-0.4,right,0.35802319999993415,,,,,,,,,,,,,,,,,,,,,,,,,,,,,,,,,,,,,,,,,,,,,,,,,,,,,,,,,,,,M9DFQn,Train_x,blue_star,bottom_left,2025-05-07_14h55.26.120,HideSeek_v1,2022.2.5,59.95164300475722,
,1,0,5,0,4,0,21,,train_dim1_1,22,30,,,,2,0,2,0,,,,,,,,,0,0,0,0,0,21,21,21,2,0,2,0,,,,,,,,,,,,,,,,,,,,,,,,,,,,,,,,,,,,,,,,,,,,,,,,,,,,,,,,,,,,,,,,30,,,,,,,,683.3187826,683.3187826,683.3187826,683.3187826,683.3187826,right,0.4610677000000578,6,0,0,99,0.16,-0.4,right,0.3833415999999943,,,,,,,,,,,,,,,,,,,,,,,,,,,,,,,,,,,,,,,,,,,,,,,,,,,,,,,,,,,,M9DFQn,Train_x,blue_star,bottom_left,2025-05-07_14h55.26.120,HideSeek_v1,2022.2.5,59.95164300475722,
,1,0,5,0,4,0,21,,train_dim1_1,22,30,,,,2,0,2,0,,,,,,,,,0,0,0,0,0,21,21,21,3,0,3,0,,,,,,,,,,,,,,,,,,,,,,,,,,,,,,,,,,,,,,,,,,,,,,,,,,,,,,,,,,,,,,,,30,,,,,,,,683.7849866,683.7849866,683.7849866,683.7849866,683.7849866,right,0.5094196000000011,6,0,0,99,0.24,-0.4,right,0.43264749999991636,,,,,,,,,,,,,,,,,,,,,,,,,,,,,,,,,,,,,,,,,,,,,,,,,,,,,,,,,,,,M9DFQn,Train_x,blue_star,bottom_left,2025-05-07_14h55.26.120,HideSeek_v1,2022.2.5,59.95164300475722,
,1,0,5,0,4,0,21,,train_dim1_1,22,30,,,,2,0,2,0,,,,,,,,,0,0,0,0,0,21,21,21,4,0,4,0,,,,,,,,,,,,,,,,,,,,,,,,,,,,,,,,,,,,,,,,,,,,,,,,,,,,,,,,,,,,,,,,30,,,,,,,,684.3021063,684.3021063,684.3021063,684.3021063,684.3021063,right,0.6270813999999518,6,0,0,99,0.32,-0.4,right,0.5464588000000958,,,,,,,,,,,,,,,,,,,,,,,,,,,,,,,,,,,,,,,,,,,,,,,,,,,,,,,,,,,,M9DFQn,Train_x,blue_star,bottom_left,2025-05-07_14h55.26.120,HideSeek_v1,2022.2.5,59.95164300475722,
,1,0,5,0,4,0,21,,train_dim1_1,22,30,,,,2,0,2,0,,,,,,,,,0,0,0,0,0,21,21,21,5,0,5,0,,,,,,,,,,,,,,,,,,,,,,,,,,,,,,,,,,,,,,,,,,,,,,,,,,,,,,,,,,,,,,,,30,,,,,,,,684.9348718,684.9348718,684.9348718,684.9348718,684.9348718,right,1.6944977000000563,6,0,0,99,0.4,-0.4,right,1.611565100000007,,,,,,,,,,,,,,,,,,,,,,,,,,,,,,,,,,,,,,,,,,,,,,,,,,,,,,,,,,,,M9DFQn,Train_x,blue_star,bottom_left,2025-05-07_14h55.26.120,HideSeek_v1,2022.2.5,59.95164300475722,
,1,0,5,0,4,0,21,,train_dim1_1,22,30,,,,2,0,2,0,,,,,,,,,0,0,0,0,0,21,21,21,6,0,6,0,,,,,,,,,,,,,,,,,,,,,,,,,,,,,,,,,,,,,,,,,,,,,,,,,,,,,,,,,,,,,,,,30,,,,,,,,686.6384037,686.6384037,686.6384037,686.6384037,686.6384037,left,2.7786186000000725,6,0,0,99,0.32,-0.4,left,2.6966498000000456,,,,,,,,,,,,,,,,,,,,,,,,,,,,,,,,,,,,,,,,,,,,,,,,,,,,,,,,,,,,M9DFQn,Train_x,blue_star,bottom_left,2025-05-07_14h55.26.120,HideSeek_v1,2022.2.5,59.95164300475722,
,1,0,5,0,4,0,21,,train_dim1_1,22,30,,,,2,0,2,0,,,,,,,,,0,0,0,0,0,21,21,21,7,0,7,0,,,,,,,,,,,,,,,,,,,,,,,,,,,,,,,,,,,,,,,,,,,,,,,,,,,,,,,,,,,,,,,,30,,,,,,,,689.4234600999999,689.4234600999999,689.4234600999999,689.4234600999999,689.4234600999999,return,0.47665600000004815,6,1,0,0,0.32,-0.4,return,0.3993443000000525,14,58,0.32,-0.4,,,,,,,,,,,,,,,,,,,,,,,,,,,,,,,,,,,,,,,,,,,,,,,,,,,,,,,,M9DFQn,Train_x,blue_star,bottom_left,2025-05-07_14h55.26.120,HideSeek_v1,2022.2.5,59.95164300475722,
,2,1,2,1,0,0,61,,train_dim1_1,23,30,,,,2,0,2,0,,,,,,,,,0,0,0,0,0,22,22,22,0,0,0,0,,,,,,,,,,,,,,,,,,,,,,,,,stimuli/alien_stimuli/61.png,,,,,,,,,,,,,,,,,,,,,,,,,,,,,stimuli/alien_stimuli/21.png,21,1,24,,,,,,,30,,,,,,,,696.0064872,696.0064872,696.0064872,696.0064872,696.0064872,up,2.0373012999998537,6,1,0,99,0,-0.24,up,1.9431707999999617,,,,,694.4434775,696.0064872,0.24,-0.4,0.0,0.32,-0.4,0.24,0.07999999999999999,0.24,-0.4,691.4714238,691.4714238,691.4714238,691.4714238,691.4714238,691.4714238,691.4714238,691.4714238,691.45760932,3.0879928000001655,return,2.942532599999936,,,,,,,,,,,,,,,,,,,,,,,,,,,,,,,,,M9DFQn,Train_x,blue_star,bottom_left,2025-05-07_14h55.26.120,HideSeek_v1,2022.2.5,59.95164300475722,
,2,1,2,1,0,0,61,,train_dim1_1,23,30,,,,2,0,2,0,,,,,,,,,0,0,0,0,0,22,22,22,1,0,1,0,,,,,,,,,,,,,,,,,,,,,,,,,,,,,,,,,,,,,,,,,,,,,,,,,,,,,,,,,,,,,,,,30,,,,,,,,698.0426826,698.0426826,698.0426826,698.0426826,698.0426826,return,1.0101939999999558,6,1,0,0,0,-0.24,return,0.9272267999999713,15,58,0,-0.24,,,,,,,,,,,,,,,,,,,,,,,,,,,,,,,,,,,,,,,,,,,,,,,,,,,,,,,,M9DFQn,Train_x,blue_star,bottom_left,2025-05-07_14h55.26.120,HideSeek_v1,2022.2.5,59.95164300475722,
,4,4,5,4,1,0,51,,train_dim1_1,24,30,,,,2,0,2,0,,,,,,,,,0,0,0,0,0,23,23,23,0,0,0,0,,,,,,,,,,,,,,,,,,,,,,,,,stimuli/alien_stimuli/51.png,,,,,,,,,,,,,,,,,,,,,,,,,,,,,stimuli/alien_stimuli/61.png,61,2,25,,,,,,,30,,,,,,,,704.7509186,704.7509186,704.7509186,704.7509186,704.7509186,right,2.5371440999999777,6,1,0,99,0.24,-0.08,right,2.445406700000035,,,,,703.1838731,704.7509186,0,-0.32,0.0,0.0,-0.32,0,0.0,0,-0.32,700.6201361999999,700.6201361999999,700.6201361999999,700.6201361999999,700.6201361999999,700.6201361999999,700.6201361999999,700.6201361999999,700.59852856,2.670806500000026,return,2.5393497000000025,,,,,,,,,,,,,,,,,,,,,,,,,,,,,,,,,M9DFQn,Train_x,blue_star,bottom_left,2025-05-07_14h55.26.120,HideSeek_v1,2022.2.5,59.95164300475722,
,4,4,5,4,1,0,51,,train_dim1_1,24,30,,,,2,0,2,0,,,,,,,,,0,0,0,0,0,23,23,23,1,0,1,0,,,,,,,,,,,,,,,,,,,,,,,,,,,,,,,,,,,,,,,,,,,,,,,,,,,,,,,,,,,,,,,,30,,,,,,,,707.2859284,707.2859284,707.2859284,707.2859284,707.2859284,return,1.5271889000000556,7,0,0,1,0.24,-0.08,return,1.44072790000007,15,59,0.24,-0.08,,,,,,,,,,,,,,,,,,,,,,,,,,,,,,,,,,,,,,,,,,,,,,,,,,,,,,,,M9DFQn,Train_x,blue_star,bottom_left,2025-05-07_14h55.26.120,HideSeek_v1,2022.2.5,59.95164300475722,
,3,0,8,0,5,0,11,,train_dim1_1,25,30,,,,2,0,2,0,,,,,,,,,0,0,0,0,0,24,24,24,0,0,0,0,,,,,,,,,,,,,,,,,,,,,,,,,stimuli/alien_stimuli/11.png,,,,,,,,,,,,,,,,,,,,,,,,,,,,,stimuli/alien_stimuli/51.png,51,4,26,,,,,,,30,,,,,,,,714.7405529,714.7405529,714.7405529,714.7405529,714.7405529,right,1.3880581999999322,7,0,0,99,0.16,-0.4,right,1.2916664000000537,,,,,713.1756062,714.7405529,0.24,-0.08,0.0,0.08,-0.08,0.24,0.2,0.24,-0.08,710.3819536,710.3819536,710.3819536,710.3819536,710.3819536,710.3819536,710.3819536,710.3819536,710.37338662,2.9045243000000482,return,2.7764346999999816,,,,,,,,,,,,,,,,,,,,,,,,,,,,,,,,,M9DFQn,Train_x,blue_star,bottom_left,2025-05-07_14h55.26.120,HideSeek_v1,2022.2.5,59.95164300475722,
,3,0,8,0,5,0,11,,train_dim1_1,25,30,,,,2,0,2,0,,,,,,,,,0,0,0,0,0,24,24,24,1,0,1,0,,,,,,,,,,,,,,,,,,,,,,,,,,,,,,,,,,,,,,,,,,,,,,,,,,,,,,,,,,,,,,,,30,,,,,,,,716.1286597,716.1286597,716.1286597,716.1286597,716.1286597,right,3.245759700000008,7,0,0,99,0.24,-0.4,right,3.1616679000001113,,,,,,,,,,,,,,,,,,,,,,,,,,,,,,,,,,,,,,,,,,,,,,,,,,,,,,,,,,,,M9DFQn,Train_x,blue_star,bottom_left,2025-05-07_14h55.26.120,HideSeek_v1,2022.2.5,59.95164300475722,
,3,0,8,0,5,0,11,,train_dim1_1,25,30,,,,2,0,2,0,,,,,,,,,0,0,0,0,0,24,24,24,2,0,2,0,,,,,,,,,,,,,,,,,,,,,,,,,,,,,,,,,,,,,,,,,,,,,,,,,,,,,,,,,,,,,,,,30,,,,,,,,719.3828253,719.3828253,719.3828253,719.3828253,719.3828253,right,0.8591761999998653,7,0,0,99,0.32,-0.4,right,0.7805716000000302,,,,,,,,,,,,,,,,,,,,,,,,,,,,,,,,,,,,,,,,,,,,,,,,,,,,,,,,,,,,M9DFQn,Train_x,blue_star,bottom_left,2025-05-07_14h55.26.120,HideSeek_v1,2022.2.5,59.95164300475722,
,3,0,8,0,5,0,11,,train_dim1_1,25,30,,,,2,0,2,0,,,,,,,,,0,0,0,0,0,24,24,24,3,0,3,0,,,,,,,,,,,,,,,,,,,,,,,,,,,,,,,,,,,,,,,,,,,,,,,,,,,,,,,,,,,,,,,,30,,,,,,,,720.2506331,720.2506331,720.2506331,720.2506331,720.2506331,right,0.6929543999999623,7,0,0,99,0.4,-0.4,right,0.6145865999999387,,,,,,,,,,,,,,,,,,,,,,,,,,,,,,,,,,,,,,,,,,,,,,,,,,,,,,,,,,,,M9DFQn,Train_x,blue_star,bottom_left,2025-05-07_14h55.26.120,HideSeek_v1,2022.2.5,59.95164300475722,
,3,0,8,0,5,0,11,,train_dim1_1,25,30,,,,2,0,2,0,,,,,,,,,0,0,0,0,0,24,24,24,4,0,4,0,,,,,,,,,,,,,,,,,,,,,,,,,,,,,,,,,,,,,,,,,,,,,,,,,,,,,,,,,,,,,,,,30,,,,,,,,720.950415,720.950415,720.950415,720.950415,720.950415,right,0.7440475000000788,7,0,0,99,0.48000000000000004,-0.4,right,0.6547533000000385,,,,,,,,,,,,,,,,,,,,,,,,,,,,,,,,,,,,,,,,,,,,,,,,,,,,,,,,,,,,M9DFQn,Train_x,blue_star,bottom_left,2025-05-07_14h55.26.120,HideSeek_v1,2022.2.5,59.95164300475722,
,3,0,8,0,5,0,11,,train_dim1_1,25,30,,,,2,0,2,0,,,,,,,,,0,0,0,0,0,24,24,24,5,0,5,0,,,,,,,,,,,,,,,,,,,,,,,,,,,,,,,,,,,,,,,,,,,,,,,,,,,,,,,,,,,,,,,,30,,,,,,,,721.6998868,721.6998868,721.6998868,721.6998868,721.6998868,return,0.9774144000000433,8,0,0,1,0.48000000000000004,-0.4,return,0.8927864000000909,15,64,0.48000000000000004,-0.4,,,,,,,,,,,,,,,,,,,,,,,,,,,,,,,,,,,,,,,,,,,,,,,,,,,,,,,,M9DFQn,Train_x,blue_star,bottom_left,2025-05-07_14h55.26.120,HideSeek_v1,2022.2.5,59.95164300475722,
,1,1,1,1,0,0,61,,train_dim1_1,26,30,,,,2,0,2,0,,,,,,,,,0,0,0,0,0,25,25,25,0,0,0,0,,,,,,,,,,,,,,,,,,,,,,,,,stimuli/alien_stimuli/61.png,,,,,,,,,,,,,,,,,,,,,,,,,,,,,stimuli/alien_stimuli/11.png,11,3,27,,,,,,,30,,,,,,,,728.0828177,728.0828177,728.0828177,728.0828177,728.0828177,up,1.8536162000000331,8,0,0,99,-0.08,-0.24,up,1.755111900000088,,,,,726.5032225,728.0828177,0.48,-0.4,0.0,0.4,-0.4,0.48,0.27999999999999997,0.48,-0.4,724.2425094,724.2425094,724.2425094,724.2425094,724.2425094,724.2425094,724.2425094,724.2425094,724.23471512,2.371146799999906,return,2.2422343000000637,,,,,,,,,,,,,,,,,,,,,,,,,,,,,,,,,M9DFQn,Train_x,blue_star,bottom_left,2025-05-07_14h55.26.120,HideSeek_v1,2022.2.5,59.95164300475722,
,1,1,1,1,0,0,61,,train_dim1_1,26,30,,,,2,0,2,0,,,,,,,,,0,0,0,0,0,25,25,25,1,0,1,0,,,,,,,,,,,,,,,,,,,,,,,,,,,,,,,,,,,,,,,,,,,,,,,,,,,,,,,,,,,,,,,,30,,,,,,,,729.9195444,729.9195444,729.9195444,729.9195444,729.9195444,up,0.4768583000000035,8,0,0,99,-0.08,-0.15999999999999998,up,0.3911626999999953,,,,,,,,,,,,,,,,,,,,,,,,,,,,,,,,,,,,,,,,,,,,,,,,,,,,,,,,,,,,M9DFQn,Train_x,blue_star,bottom_left,2025-05-07_14h55.26.120,HideSeek_v1,2022.2.5,59.95164300475722,
,1,1,1,1,0,0,61,,train_dim1_1,26,30,,,,2,0,2,0,,,,,,,,,0,0,0,0,0,25,25,25,2,0,2,0,,,,,,,,,,,,,,,,,,,,,,,,,,,,,,,,,,,,,,,,,,,,,,,,,,,,,,,,,,,,,,,,30,,,,,,,,730.403862,730.403862,730.403862,730.403862,730.403862,return,0.7096641999999065,8,0,0,0,-0.08,-0.15999999999999998,return,0.6341868000000659,17,64,-0.08,-0.15999999999999998,,,,,,,,,,,,,,,,,,,,,,,,,,,,,,,,,,,,,,,,,,,,,,,,,,,,,,,,M9DFQn,Train_x,blue_star,bottom_left,2025-05-07_14h55.26.120,HideSeek_v1,2022.2.5,59.95164300475722,
,0,1,3,1,3,0,31,,train_dim1_1,27,30,,,,2,0,2,0,,,,,,,,,0,0,0,0,0,26,26,26,0,0,0,0,,,,,,,,,,,,,,,,,,,,,,,,,stimuli/alien_stimuli/31.png,,,,,,,,,,,,,,,,,,,,,,,,,,,,,stimuli/alien_stimuli/61.png,61,1,28,,,,,,,30,,,,,,,,739.2901315,739.2901315,739.2901315,739.2901315,739.2901315,right,2.4564384999998765,8,0,0,99,-0.08,-0.32,right,2.3661467000000584,,,,,737.7294299,739.2901315,-0.08,-0.32,0.0,0.0,-0.32,-0.08,-0.08,-0.08,-0.32,732.6835645,732.6835645,732.6835645,732.6835645,732.6835645,732.6835645,732.6835645,732.6835645,732.67529452,5.155938999999989,return,5.0217625000000226,,,,,,,,,,,,,,,,,,,,,,,,,,,,,,,,,M9DFQn,Train_x,blue_star,bottom_left,2025-05-07_14h55.26.120,HideSeek_v1,2022.2.5,59.95164300475722,
,0,1,3,1,3,0,31,,train_dim1_1,27,30,,,,2,0,2,0,,,,,,,,,0,0,0,0,0,26,26,26,1,0,1,0,,,,,,,,,,,,,,,,,,,,,,,,,,,,,,,,,,,,,,,,,,,,,,,,,,,,,,,,,,,,,,,,30,,,,,,,,741.7449864,741.7449864,741.7449864,741.7449864,741.7449864,right,0.49310369999989234,8,0,0,99,0.0,-0.32,right,0.4216126000000031,,,,,,,,,,,,,,,,,,,,,,,,,,,,,,,,,,,,,,,,,,,,,,,,,,,,,,,,,,,,M9DFQn,Train_x,blue_star,bottom_left,2025-05-07_14h55.26.120,HideSeek_v1,2022.2.5,59.95164300475722,
,0,1,3,1,3,0,31,,train_dim1_1,27,30,,,,2,0,2,0,,,,,,,,,0,0,0,0,0,26,26,26,2,0,2,0,,,,,,,,,,,,,,,,,,,,,,,,,,,,,,,,,,,,,,,,,,,,,,,,,,,,,,,,,,,,,,,,30,,,,,,,,742.2474829,742.2474829,742.2474829,742.2474829,742.2474829,right,0.46036309999999503,8,0,0,99,0.08,-0.32,right,0.38091239999994286,,,,,,,,,,,,,,,,,,,,,,,,,,,,,,,,,,,,,,,,,,,,,,,,,,,,,,,,,,,,M9DFQn,Train_x,blue_star,bottom_left,2025-05-07_14h55.26.120,HideSeek_v1,2022.2.5,59.95164300475722,
,0,1,3,1,3,0,31,,train_dim1_1,27,30,,,,2,0,2,0,,,,,,,,,0,0,0,0,0,26,26,26,3,0,3,0,,,,,,,,,,,,,,,,,,,,,,,,,,,,,,,,,,,,,,,,,,,,,,,,,,,,,,,,,,,,,,,,30,,,,,,,,742.712719,742.712719,742.712719,742.712719,742.712719,return,1.3775625999999193,9,0,0,1,0.08,-0.32,return,1.2942509000000655,17,67,0.08,-0.32,,,,,,,,,,,,,,,,,,,,,,,,,,,,,,,,,,,,,,,,,,,,,,,,,,,,,,,,M9DFQn,Train_x,blue_star,bottom_left,2025-05-07_14h55.26.120,HideSeek_v1,2022.2.5,59.95164300475722,
,3,1,7,1,4,0,21,,train_dim1_1,28,30,,,,2,0,2,0,,,,,,,,,0,0,0,0,0,27,27,27,0,0,0,0,,,,,,,,,,,,,,,,,,,,,,,,,stimuli/alien_stimuli/21.png,,,,,,,,,,,,,,,,,,,,,,,,,,,,,stimuli/alien_stimuli/31.png,31,0,29,,,,,,,30,,,,,,,,749.5334404,749.5334404,749.5334404,749.5334404,749.5334404,right,1.3898348999998689,9,0,0,99,0.16,-0.32,right,1.288535300000035,,,,,747.9543777,749.5334404,0.08,-0.32,0.0,0.24,-0.32,0.08,-0.04,0.08,-0.32,745.675581,745.675581,745.675581,745.675581,745.675581,745.675581,745.675581,745.675581,745.66931358,2.403821999999991,return,2.253681799999981,,,,,,,,,,,,,,,,,,,,,,,,,,,,,,,,,M9DFQn,Train_x,blue_star,bottom_left,2025-05-07_14h55.26.120,HideSeek_v1,2022.2.5,59.95164300475722,
,3,1,7,1,4,0,21,,train_dim1_1,28,30,,,,2,0,2,0,,,,,,,,,0,0,0,0,0,27,27,27,1,0,1,0,,,,,,,,,,,,,,,,,,,,,,,,,,,,,,,,,,,,,,,,,,,,,,,,,,,,,,,,,,,,,,,,30,,,,,,,,750.9083603,750.9083603,750.9083603,750.9083603,750.9083603,right,0.5426872000000458,9,0,0,99,0.24,-0.32,right,0.4625654000000168,,,,,,,,,,,,,,,,,,,,,,,,,,,,,,,,,,,,,,,,,,,,,,,,,,,,,,,,,,,,M9DFQn,Train_x,blue_star,bottom_left,2025-05-07_14h55.26.120,HideSeek_v1,2022.2.5,59.95164300475722,
,3,1,7,1,4,0,21,,train_dim1_1,28,30,,,,2,0,2,0,,,,,,,,,0,0,0,0,0,27,27,27,2,0,2,0,,,,,,,,,,,,,,,,,,,,,,,,,,,,,,,,,,,,,,,,,,,,,,,,,,,,,,,,,,,,,,,,30,,,,,,,,751.4604588,751.4604588,751.4604588,751.4604588,751.4604588,right,0.8437349999999242,9,0,0,99,0.32,-0.32,right,0.753478399999949,,,,,,,,,,,,,,,,,,,,,,,,,,,,,,,,,,,,,,,,,,,,,,,,,,,,,,,,,,,,M9DFQn,Train_x,blue_star,bottom_left,2025-05-07_14h55.26.120,HideSeek_v1,2022.2.5,59.95164300475722,
,3,1,7,1,4,0,21,,train_dim1_1,28,30,,,,2,0,2,0,,,,,,,,,0,0,0,0,0,27,27,27,3,0,3,0,,,,,,,,,,,,,,,,,,,,,,,,,,,,,,,,,,,,,,,,,,,,,,,,,,,,,,,,,,,,,,,,30,,,,,,,,752.3087457,752.3087457,752.3087457,752.3087457,752.3087457,right,0.6769193999998606,9,0,0,99,0.4,-0.32,right,0.5930611000001136,,,,,,,,,,,,,,,,,,,,,,,,,,,,,,,,,,,,,,,,,,,,,,,,,,,,,,,,,,,,M9DFQn,Train_x,blue_star,bottom_left,2025-05-07_14h55.26.120,HideSeek_v1,2022.2.5,59.95164300475722,
,3,1,7,1,4,0,21,,train_dim1_1,28,30,,,,2,0,2,0,,,,,,,,,0,0,0,0,0,27,27,27,4,0,4,0,,,,,,,,,,,,,,,,,,,,,,,,,,,,,,,,,,,,,,,,,,,,,,,,,,,,,,,,,,,,,,,,30,,,,,,,,752.9925674,752.9925674,752.9925674,752.9925674,752.9925674,right,0.49348009999994247,9,0,0,99,0.48000000000000004,-0.32,right,0.41048799999998664,,,,,,,,,,,,,,,,,,,,,,,,,,,,,,,,,,,,,,,,,,,,,,,,,,,,,,,,,,,,M9DFQn,Train_x,blue_star,bottom_left,2025-05-07_14h55.26.120,HideSeek_v1,2022.2.5,59.95164300475722,
,3,1,7,1,4,0,21,,train_dim1_1,28,30,,,,2,0,2,0,,,,,,,,,0,0,0,0,0,27,27,27,5,0,5,0,,,,,,,,,,,,,,,,,,,,,,,,,,,,,,,,,,,,,,,,,,,,,,,,,,,,,,,,,,,,,,,,30,,,,,,,,753.4924654,753.4924654,753.4924654,753.4924654,753.4924654,right,0.5272555999999895,9,0,0,99,0.56,-0.32,right,0.44393780000007155,,,,,,,,,,,,,,,,,,,,,,,,,,,,,,,,,,,,,,,,,,,,,,,,,,,,,,,,,,,,M9DFQn,Train_x,blue_star,bottom_left,2025-05-07_14h55.26.120,HideSeek_v1,2022.2.5,59.95164300475722,
,3,1,7,1,4,0,21,,train_dim1_1,28,30,,,,2,0,2,0,,,,,,,,,0,0,0,0,0,27,27,27,6,0,6,0,,,,,,,,,,,,,,,,,,,,,,,,,,,,,,,,,,,,,,,,,,,,,,,,,,,,,,,,,,,,,,,,30,,,,,,,,754.0279462999999,754.0279462999999,754.0279462999999,754.0279462999999,754.0279462999999,return,0.5766746000001604,9,0,0,0,0.56,-0.32,return,0.489904499999966,17,73,0.56,-0.32,,,,,,,,,,,,,,,,,,,,,,,,,,,,,,,,,,,,,,,,,,,,,,,,,,,,,,,,M9DFQn,Train_x,blue_star,bottom_left,2025-05-07_14h55.26.120,HideSeek_v1,2022.2.5,59.95164300475722,
,4,0,5,0,1,0,51,,train_dim1_1,29,30,,,,2,0,2,0,,,,,,,,,0,0,0,0,0,28,28,28,0,0,0,0,,,,,,,,,,,,,,,,,,,,,,,,,stimuli/alien_stimuli/51.png,,,,,,,,,,,,,,,,,,,,,,,,,,,,,stimuli/alien_stimuli/21.png,21,3,30,,,,,,,30,,,,,,,,762.8448363,762.8448363,762.8448363,762.8448363,762.8448363,right,3.307175799999868,9,0,0,99,0.24,-0.4,right,3.214879700000097,,,,,761.2820499,762.8448363,0.4,-0.32,0.0,0.32,-0.32,0.4,0.24000000000000002,0.4,-0.32,756.1949062,756.1949062,756.1949062,756.1949062,756.1949062,756.1949062,756.1949062,756.1949062,756.17792788,5.2231177999999545,return,5.055603099999985,,,,,,,,,,,,,,,,,,,,,,,,,,,,,,,,,M9DFQn,Train_x,blue_star,bottom_left,2025-05-07_14h55.26.120,HideSeek_v1,2022.2.5,59.95164300475722,
,4,0,5,0,1,0,51,,train_dim1_1,29,30,,,,2,0,2,0,,,,,,,,,0,0,0,0,0,28,28,28,1,0,1,0,,,,,,,,,,,,,,,,,,,,,,,,,,,,,,,,,,,,,,,,,,,,,,,,,,,,,,,,,,,,,,,,30,,,,,,,,766.1522014999999,766.1522014999999,766.1522014999999,766.1522014999999,766.1522014999999,return,0.9759403999998995,10,0,0,1,0.24,-0.4,return,0.890246100000013,17,74,0.24,-0.4,,,,,,,,,,,,,,,,,,,,,,,,,,,,,,,,,,,,,,,,,,,,,,,,,,,,,,,,M9DFQn,Train_x,blue_star,bottom_left,2025-05-07_14h55.26.120,HideSeek_v1,2022.2.5,59.95164300475722,
,2,2,7,2,5,0,11,,train_dim1_1,30,30,,,,2,0,2,0,,,,,,,,,0,0,0,0,0,29,29,29,0,0,0,0,,,,,,,,,,,,,,,,,,,,,,,,,stimuli/alien_stimuli/11.png,,,,,,,,,,,,,,,,,,,,,,,,,,,,,stimuli/alien_stimuli/51.png,51,4,31,,,,,,,30,,,,,,,,773.0296446,773.0296446,773.0296446,773.0296446,773.0296446,right,1.523444199999858,10,0,0,99,0.08,-0.24,right,1.4278252000000293,,,,,771.4573237,773.0296446,0.24,-0.4,0.0,0.08,-0.4,0.24,0.2,0.24,-0.4,768.7083983,768.7083983,768.7083983,768.7083983,768.7083983,768.7083983,768.7083983,768.7083983,768.68818732,2.871408900000006,return,2.7241731999999956,,,,,,,,,,,,,,,,,,,,,,,,,,,,,,,,,M9DFQn,Train_x,blue_star,bottom_left,2025-05-07_14h55.26.120,HideSeek_v1,2022.2.5,59.95164300475722,
,2,2,7,2,5,0,11,,train_dim1_1,30,30,,,,2,0,2,0,,,,,,,,,0,0,0,0,0,29,29,29,1,0,1,0,,,,,,,,,,,,,,,,,,,,,,,,,,,,,,,,,,,,,,,,,,,,,,,,,,,,,,,,,,,,,,,,30,,,,,,,,774.5436147,774.5436147,774.5436147,774.5436147,774.5436147,right,0.6598550999999588,10,0,0,99,0.16,-0.24,right,0.5715078000000631,,,,,,,,,,,,,,,,,,,,,,,,,,,,,,,,,,,,,,,,,,,,,,,,,,,,,,,,,,,,M9DFQn,Train_x,blue_star,bottom_left,2025-05-07_14h55.26.120,HideSeek_v1,2022.2.5,59.95164300475722,
,2,2,7,2,5,0,11,,train_dim1_1,30,30,,,,2,0,2,0,,,,,,,,,0,0,0,0,0,29,29,29,2,0,2,0,,,,,,,,,,,,,,,,,,,,,,,,,,,,,,,,,,,,,,,,,,,,,,,,,,,,,,,,,,,,,,,,30,,,,,,,,775.2118419,775.2118419,775.2118419,775.2118419,775.2118419,right,0.7100798999999824,10,0,0,99,0.24,-0.24,right,0.6251402000000326,,,,,,,,,,,,,,,,,,,,,,,,,,,,,,,,,,,,,,,,,,,,,,,,,,,,,,,,,,,,M9DFQn,Train_x,blue_star,bottom_left,2025-05-07_14h55.26.120,HideSeek_v1,2022.2.5,59.95164300475722,
,2,2,7,2,5,0,11,,train_dim1_1,30,30,,,,2,0,2,0,,,,,,,,,0,0,0,0,0,29,29,29,3,0,3,0,,,,,,,,,,,,,,,,,,,,,,,,,,,,,,,,,,,,,,,,,,,,,,,,,,,,,,,,,,,,,,,,30,,,,,,,,775.9281755,775.9281755,775.9281755,775.9281755,775.9281755,right,0.7435284000000593,10,0,0,99,0.32,-0.24,right,0.6593771999999944,,,,,,,,,,,,,,,,,,,,,,,,,,,,,,,,,,,,,,,,,,,,,,,,,,,,,,,,,,,,M9DFQn,Train_x,blue_star,bottom_left,2025-05-07_14h55.26.120,HideSeek_v1,2022.2.5,59.95164300475722,
,2,2,7,2,5,0,11,,train_dim1_1,30,30,,,,2,0,2,0,,,,,,,,,0,0,0,0,0,29,29,29,4,0,4,0,,,,,,,,,,,,,,,,,,,,,,,,,,,,,,,,,,,,,,,,,,,,,,,,,,,,,,,,,,,,,,,,30,,,,,,,,776.6800336,776.6800336,776.6800336,776.6800336,776.6800336,right,0.6103599000000486,10,0,0,99,0.4,-0.24,right,0.5194513000000143,,,,,,,,,,,,,,,,,,,,,,,,,,,,,,,,,,,,,,,,,,,,,,,,,,,,,,,,,,,,M9DFQn,Train_x,blue_star,bottom_left,2025-05-07_14h55.26.120,HideSeek_v1,2022.2.5,59.95164300475722,
,2,2,7,2,5,0,11,,train_dim1_1,30,30,,,,2,0,2,0,,,,,,,,,0,0,0,0,0,29,29,29,5,0,5,0,,,,,,,,,,,,,,,,,,,,,,,,,,,,,,,,,,,,,,,,,,,,,,,,,,,,,,,,,,,,,,,,30,,,,,,,,777.2976492,777.2976492,777.2976492,777.2976492,777.2976492,return,1.0104287999999997,11,0,0,1,0.4,-0.24,return,0.9274644000000762,17,79,0.4,-0.24,,,,,,,,,,,,,,,,,,,,,,,,,,,,,,,,,,,,,,,,,,,,,,,,,,,,,,,,M9DFQn,Train_x,blue_star,bottom_left,2025-05-07_14h55.26.120,HideSeek_v1,2022.2.5,59.95164300475722,
,,,,,,,,,,,30,,,,2,0,2,0,,,,,,,,,,,,,,,,,,,,,,,,,,,,,,,,,,,,,,,,,,,,,,,,,,,,,,,,,,,,,,,,,,,,,,,,,,stimuli/alien_stimuli/11.png,11,2,32,21,0.7,0.45833333333333337,1,1,1,30,0,conditions/schedules/Train_x_first/blue_star_00/bottom_left/inputTrain_2.1.xlsx,99,1,2,1,0,,,,,,,,,,,1,,,,,,,,,782.9329829,784.4784375,0.4,-0.24,0.0,0.4,-0.24,0.4,0.2,0.4,-0.24,779.8928976999999,779.8928976999999,779.8928976999999,779.8928976999999,779.8928976999999,779.8928976999999,779.8928976999999,779.8928976999999,779.88086988,3.1713013999999475,return,3.0086405000000696,0,0.9,0,1,11,,,,,,,,,,,,,,,,,,,,,,,,,,,,M9DFQn,Train_x,blue_star,bottom_left,2025-05-07_14h55.26.120,HideSeek_v1,2022.2.5,59.95164300475722,
,,,,,,,,,,,,,,,3,0,3,0,0,0,0,0,,,,,,,,,,,,,,,,,,,,,,,,,,,,,,,conditions/schedules/Train_x_first/blue_star_00/bottom_left/instructions/Slide17.png,conditions/schedules/Train_x_first/blue_star_00/bottom_left/instructions/Audio17.wav,784.4784375,784.46812218,17,"[3.477441700000014, 11.174345899999992, 16.905463499999996, 19.629622599999976, 4.261865, 4.886705199999994, 5.74052549999999, 11.57216790000001, 6.292364700000007, 7.353695200000004, 9.66193480000004, 12.767844400000001, 17.199413899999968, 13.225142199999993, 30.637794299999996, 21.67341590000001, 56.919498100000055]","[0.032131099999986645, 0.00022229999999012762, 0.047239300000001094, 0.0637313000000006, 0.04945769999997651, 0.05279930000000377, 0.014294099999972332, 0.07061630000004016, 0.11326390000004949, 0.014561300000025312, 0.07392699999996921, 12.767850399999986, 0.03092540000000099, 13.225148699999977, 0.014017000000023927, 21.67342500000001, 56.91950560000009]",0,,,,,,,,,,,,,,,,,,,,,,,,,,,,,,,,,,,,,,,,,,,,,,,,,,,,,,,,,,,,,,,,,,,,,,,,,,,,,,,,,,,,,,,,,,,,,,,,,,,,,,,,,,,,,,,,,,,,,,,,,,,,M9DFQn,Train_x,blue_star,bottom_left,2025-05-07_14h55.26.120,HideSeek_v1,2022.2.5,59.95164300475722,
,,,,,,,,,,,,,,,3,0,3,0,1,0,1,0,,,,,,,,,,,,,,,,,,,,,,,,,,,,,,,conditions/schedules/Train_x_first/blue_star_00/bottom_left/instructions/Slide18.png,conditions/schedules/Train_x_first/blue_star_00/bottom_left/instructions/Audio18.wav,841.4700046,841.4650702,18,"[3.477441700000014, 11.174345899999992, 16.905463499999996, 19.629622599999976, 4.261865, 4.886705199999994, 5.74052549999999, 11.57216790000001, 6.292364700000007, 7.353695200000004, 9.66193480000004, 12.767844400000001, 17.199413899999968, 13.225142199999993, 30.637794299999996, 21.67341590000001, 56.919498100000055, 6.331339500000013]","[0.032131099999986645, 0.00022229999999012762, 0.047239300000001094, 0.0637313000000006, 0.04945769999997651, 0.05279930000000377, 0.014294099999972332, 0.07061630000004016, 0.11326390000004949, 0.014561300000025312, 0.07392699999996921, 12.767850399999986, 0.03092540000000099, 13.225148699999977, 0.014017000000023927, 21.67342500000001, 56.91950560000009, 6.331345800000008]",0,,,,,,,,,,,,,,,,,,,,,,,,,,,,,,,,,,,,,,,,,,,,,,,,,,,,,,,,,,,,,,,,,,,,,,,,,,,,,,,,,,,,,,,,,,,,,,,,,,,,,,,,,,,,,,,,,,,,,,,,,,,,M9DFQn,Train_x,blue_star,bottom_left,2025-05-07_14h55.26.120,HideSeek_v1,2022.2.5,59.95164300475722,
,,,,,,,,,,,,,,,3,0,3,0,2,0,2,0,,,,,,,,,,,,,,,,,,,,,,,,,,,,,,,conditions/schedules/Train_x_first/blue_star_00/bottom_left/instructions/Slide19.png,conditions/schedules/Train_x_first/blue_star_00/bottom_left/instructions/Audio19.wav,847.8396564,847.83706488,19,"[3.477441700000014, 11.174345899999992, 16.905463499999996, 19.629622599999976, 4.261865, 4.886705199999994, 5.74052549999999, 11.57216790000001, 6.292364700000007, 7.353695200000004, 9.66193480000004, 12.767844400000001, 17.199413899999968, 13.225142199999993, 30.637794299999996, 21.67341590000001, 56.919498100000055, 6.331339500000013, 10.319924799999967]","[0.032131099999986645, 0.00022229999999012762, 0.047239300000001094, 0.0637313000000006, 0.04945769999997651, 0.05279930000000377, 0.014294099999972332, 0.07061630000004016, 0.11326390000004949, 0.014561300000025312, 0.07392699999996921, 12.767850399999986, 0.03092540000000099, 13.225148699999977, 0.014017000000023927, 21.67342500000001, 56.91950560000009, 0.03118959999994786, 10.319930900000031]",0,,,,,,,,,,,,,,,,,,,,,,,,,,,,,,,,,,,,,,,,,,,,,,,,,,,,,,,,,,,,,,,,,,,,,,,,,,,,,,,,,,,,,,,,,,,,,,,,,,,,,,,,,,,,,,,,,,,,,,,,,,,,M9DFQn,Train_x,blue_star,bottom_left,2025-05-07_14h55.26.120,HideSeek_v1,2022.2.5,59.95164300475722,
,,,,,,,,,,,,,,,3,0,3,0,3,0,3,0,,,,,,,,,,,,,,,,,,,,,,,,,,,,,,,conditions/schedules/Train_x_first/blue_star_00/bottom_left/instructions/Slide20.png,conditions/schedules/Train_x_first/blue_star_00/bottom_left/instructions/Audio20.wav,858.2344174,858.2293058,20,"[3.477441700000014, 11.174345899999992, 16.905463499999996, 19.629622599999976, 4.261865, 4.886705199999994, 5.74052549999999, 11.57216790000001, 6.292364700000007, 7.353695200000004, 9.66193480000004, 12.767844400000001, 17.199413899999968, 13.225142199999993, 30.637794299999996, 21.67341590000001, 56.919498100000055, 6.331339500000013, 10.319924799999967, 14.05379890000006]","[0.032131099999986645, 0.00022229999999012762, 0.047239300000001094, 0.0637313000000006, 0.04945769999997651, 0.05279930000000377, 0.014294099999972332, 0.07061630000004016, 0.11326390000004949, 0.014561300000025312, 0.07392699999996921, 12.767850399999986, 0.03092540000000099, 13.225148699999977, 0.014017000000023927, 21.67342500000001, 56.91950560000009, 0.03118959999994786, 0.03057780000006005, 14.053805500000067]",0,,,,,,,,,,,,,,,,,,,,,,,,,,,,,,,,,,,,,,,,,,,,,,,,,,,,,,,,,,,,,,,,,,,,,,,,,,,,,,,,,,,,,,,,,,,,,,,,,,,,,,,,,,,,,,,,,,,,,,,,,,,,M9DFQn,Train_x,blue_star,bottom_left,2025-05-07_14h55.26.120,HideSeek_v1,2022.2.5,59.95164300475722,
