trialInstr,x_fixStart,y_fixStart,x_corrSteps,y_corrSteps,x_nrSteps,y_nrSteps,alienID,trialLength,version,trialTrain,praclen,testlen,trial_label,break_on_off,beforeExpLoop.thisRepN,beforeExpLoop.thisTrialN,beforeExpLoop.thisN,beforeExpLoop.thisIndex,mini_instr_trials.thisRepN,mini_instr_trials.thisTrialN,mini_instr_trials.thisN,mini_instr_trials.thisIndex,instrLoop.thisRepN,instrLoop.thisTrialN,instrLoop.thisN,instrLoop.thisIndex,repeat_prac.thisRepN,repeat_prac.thisTrialN,repeat_prac.thisN,repeat_prac.thisIndex,trainLoop.thisRepN,trainLoop.thisTrialN,trainLoop.thisN,trainLoop.thisIndex,moveLoop_train.thisRepN,moveLoop_train.thisTrialN,moveLoop_train.thisN,moveLoop_train.thisIndex,experiment.thisRepN,experiment.thisTrialN,experiment.thisN,experiment.thisIndex,moveLoop_test.thisRepN,moveLoop_test.thisTrialN,moveLoop_test.thisN,moveLoop_test.thisIndex,mini_instr2_trials.thisRepN,mini_instr2_trials.thisTrialN,mini_instr2_trials.thisN,mini_instr2_trials.thisIndex,start_all_time,url,slideStim,audioStim,slides.started,sounds.started,nextButton.numClicks,nextButton.timesOn,nextButton.timesOff,prev_but.numClicks,prev_but.timesOn,prev_but.timesOff,alienStim,instrFile,alienStim_instr,gridImage_instr.started,startPos_3.started,key_instr.started,alienImage_3.started,sounds_1.started,key_instr.keys,key_instr.rt,all_x,all_y,FBy_corrSteps,FBy_fixStart,FBx_corrSteps,FBx_fixStart,FBy_pathSize_check,FBx_pathSize_check,gridImage_9.started,alienImageFB_3.started,startPosFB_3.started,keyFB_3.started,pathLine_ydir_2.started,pathLine_xdir_2.started,alienFace_3.started,sounds_2.started,RTFB_instr,keyFB_3.keys,keyFB_3.rt,draw_alienStim,draw_alienID,test_x,nrepcount,perfthres,percthres,earlierperf,earlystop,nextPrac,fileidx,praclen,saveACC_train,pracFile,nextPrac_train,addNrep,fileidx_endr,repExp,showearly,gridImage_4.started,startPos.started,movePos.started,key_resp.started,alienImage.started,buttonPress_train,RTchoice_train,cumAcctrain,aCorr,saveACC_choice,corrAns,x_movePos_end,y_movePos_end,key_resp.keys,key_resp.rt,wLy_dir,wLx_dir,x_movePos,y_movePos,text_2.started,text_2.stopped,aft_x_corrPos,aft_y_corrPos,y_pathSize_check,x_pathSize_check,y_pathdirY,x_pathdirY,x_pathdirX,x_corrPos,y_corrPos,gridImage_6.started,alienImageFB_2.started,startPosFB_2.started,movePosFB_2.started,keyFB_2.started,pathLine_xdir.started,pathLine_ydir.started,alienFace.started,sounds_4.started,RT_FBtrain,keyFB_2.keys,keyFB_2.rt,saveACC_pre,ACC,within_saveACC_train,earlystop_wloop,cumAcctrain_check,gridImage_3.started,alienImage_test.started,startPos_test.started,movePos_test.started,key_resp_test.started,wLy_dir_test,wLx_dir_test,buttonPress_test,RTchoice_test,cumAcctest,corrAns_test,key_resp_test.keys,key_resp_test.rt,text_3.started,text_3.stopped,total_time,end_all_time,key_resp_3.keys,slides_2.started,sounds_3.started,nextButton_2.numClicks,nextButton_2.timesOn,nextButton_2.timesOff,prev_but_2.numClicks,prev_but_2.timesOn,prev_but_2.timesOff,bye.started,participant,train_first,00_coordinate,starting corner,date,expName,psychopyVersion,frameRate,
,,,,,,,,,,,,,,,0,0,0,0,0,0,0,0,,,,,,,,,,,,,,,,,,,,,,,,,,,,,start_all_time,testround,conditions/schedules/train_x_first/red_square_00/bottom_left/instructions/Slide1.png,conditions/schedules/train_x_first/red_square_00/bottom_left/instructions/Audio1.wav,2022.5993518000469,2022.547479229141,1,[3.195542700123042],[3.195549900177866],0,,,,,,,,,,,,,,,,,,,,,,,,,,,,,,,,,,,,,,,,,,,,,,,,,,,,,,,,,,,,,,,,,,,,,,,,,,,,,,,,,,,,,,,,,,,,,,,,,,,,,,,,,,,,,,,,,,,,,,,,,,,,XQ783R,train_x,red_square,bottom_left,2025-05-02_11h25.56.806,HideSeek_v1,2022.2.5,59.95113985376908,
,,,,,,,,,,,,,,,0,0,0,0,1,0,1,0,,,,,,,,,,,,,,,,,,,,,,,,,,,,,,,conditions/schedules/train_x_first/red_square_00/bottom_left/instructions/Slide2.png,conditions/schedules/train_x_first/red_square_00/bottom_left/instructions/Audio2.wav,2025.8171291002072,2025.803286479879,2,"[3.195542700123042, 17.665531999897212]","[0.014377499930560589, 17.66553909983486]",0,,,,,,,,,,,,,,,,,,,,,,,,,,,,,,,,,,,,,,,,,,,,,,,,,,,,,,,,,,,,,,,,,,,,,,,,,,,,,,,,,,,,,,,,,,,,,,,,,,,,,,,,,,,,,,,,,,,,,,,,,,,,XQ783R,train_x,red_square,bottom_left,2025-05-02_11h25.56.806,HideSeek_v1,2022.2.5,59.95113985376908,
,,,,,,,,,,,,,,,0,0,0,0,2,0,2,0,,,,,,,,,,,,,,,,,,,,,,,,,,,,,,,conditions/schedules/train_x_first/red_square_00/bottom_left/instructions/Slide3.png,conditions/schedules/train_x_first/red_square_00/bottom_left/instructions/Audio3.wav,2043.5496721002273,2043.5514639499597,3,"[3.195542700123042, 17.665531999897212, 16.26283030025661]","[0.014377499930560589, 0.08258859999477863, 16.262837200425565]",0,,,,,,,,,,,,,,,,,,,,,,,,,,,,,,,,,,,,,,,,,,,,,,,,,,,,,,,,,,,,,,,,,,,,,,,,,,,,,,,,,,,,,,,,,,,,,,,,,,,,,,,,,,,,,,,,,,,,,,,,,,,,XQ783R,train_x,red_square,bottom_left,2025-05-02_11h25.56.806,HideSeek_v1,2022.2.5,59.95113985376908,
,,,,,,,,,,,,,,,0,0,0,0,3,0,3,0,,,,,,,,,,,,,,,,,,,,,,,,,,,,,,,conditions/schedules/train_x_first/red_square_00/bottom_left/instructions/Slide4.png,conditions/schedules/train_x_first/red_square_00/bottom_left/instructions/Audio4.wav,2059.8934161001816,2059.881517350208,4,"[3.195542700123042, 17.665531999897212, 16.26283030025661, 19.118635800201446]","[0.014377499930560589, 0.08258859999477863, 0.03606799989938736, 19.11864269990474]",0,,,,,,,,,,,,,,,,,,,,,,,,,,,,,,,,,,,,,,,,,,,,,,,,,,,,,,,,,,,,,,,,,,,,,,,,,,,,,,,,,,,,,,,,,,,,,,,,,,,,,,,,,,,,,,,,,,,,,,,,,,,,XQ783R,train_x,red_square,bottom_left,2025-05-02_11h25.56.806,HideSeek_v1,2022.2.5,59.95113985376908,
,,,,,,,,,,,,,,,0,0,0,0,4,0,4,0,,,,,,,,,,,,,,,,,,,,,,,,,,,,,,,conditions/schedules/train_x_first/red_square_00/bottom_left/instructions/Slide5.png,conditions/schedules/train_x_first/red_square_00/bottom_left/instructions/Audio5.wav,2079.074719300028,2079.0643044799567,5,"[3.195542700123042, 17.665531999897212, 16.26283030025661, 19.118635800201446, 4.7241317997686565]","[0.014377499930560589, 0.08258859999477863, 0.03606799989938736, 0.0870563997887075, 4.724138899706304]",0,,,,,,,,,,,,,,,,,,,,,,,,,,,,,,,,,,,,,,,,,,,,,,,,,,,,,,,,,,,,,,,,,,,,,,,,,,,,,,,,,,,,,,,,,,,,,,,,,,,,,,,,,,,,,,,,,,,,,,,,,,,,XQ783R,train_x,red_square,bottom_left,2025-05-02_11h25.56.806,HideSeek_v1,2022.2.5,59.95113985376908,
,,,,,,,,,,,,,,,0,0,0,0,5,0,5,0,,,,,,,,,,,,,,,,,,,,,,,,,,,,,,,conditions/schedules/train_x_first/red_square_00/bottom_left/instructions/Slide6.png,conditions/schedules/train_x_first/red_square_00/bottom_left/instructions/Audio6.wav,2083.850484299939,2083.851601980254,6,"[3.195542700123042, 17.665531999897212, 16.26283030025661, 19.118635800201446, 4.7241317997686565, 4.7858904004096985]","[0.014377499930560589, 0.08258859999477863, 0.03606799989938736, 0.0870563997887075, 0.04870670009404421, 4.7858973001129925]",0,,,,,,,,,,,,,,,,,,,,,,,,,,,,,,,,,,,,,,,,,,,,,,,,,,,,,,,,,,,,,,,,,,,,,,,,,,,,,,,,,,,,,,,,,,,,,,,,,,,,,,,,,,,,,,,,,,,,,,,,,,,,XQ783R,train_x,red_square,bottom_left,2025-05-02_11h25.56.806,HideSeek_v1,2022.2.5,59.95113985376908,
,,,,,,,,,,,,,,,0,0,0,0,6,0,6,0,,,,,,,,,,,,,,,,,,,,,,,,,,,,,,,conditions/schedules/train_x_first/red_square_00/bottom_left/instructions/Slide7.png,conditions/schedules/train_x_first/red_square_00/bottom_left/instructions/Audio7.wav,2088.6875610002317,2088.688832180202,7,"[3.195542700123042, 17.665531999897212, 16.26283030025661, 19.118635800201446, 4.7241317997686565, 4.7858904004096985, 5.586743600200862]","[0.014377499930560589, 0.08258859999477863, 0.03606799989938736, 0.0870563997887075, 0.04870670009404421, 0.0983350002206862, 5.586751600261778]",0,,,,,,,,,,,,,,,,,,,,,,,,,,,,,,,,,,,,,,,,,,,,,,,,,,,,,,,,,,,,,,,,,,,,,,,,,,,,,,,,,,,,,,,,,,,,,,,,,,,,,,,,,,,,,,,,,,,,,,,,,,,,XQ783R,train_x,red_square,bottom_left,2025-05-02_11h25.56.806,HideSeek_v1,2022.2.5,59.95113985376908,
,,,,,,,,,,,,,,,0,0,0,0,7,0,7,0,,,,,,,,,,,,,,,,,,,,,,,,,,,,,,,conditions/schedules/train_x_first/red_square_00/bottom_left/instructions/Slide8.png,conditions/schedules/train_x_first/red_square_00/bottom_left/instructions/Audio8.wav,2094.3280499000102,2094.326791480277,8,"[3.195542700123042, 17.665531999897212, 16.26283030025661, 19.118635800201446, 4.7241317997686565, 4.7858904004096985, 5.586743600200862, 11.35577300004661]","[0.014377499930560589, 0.08258859999477863, 0.03606799989938736, 0.0870563997887075, 0.04870670009404421, 0.0983350002206862, 0.03127930033951998, 11.35577980009839]",0,,,,,,,,,,,,,,,,,,,,,,,,,,,,,,,,,,,,,,,,,,,,,,,,,,,,,,,,,,,,,,,,,,,,,,,,,,,,,,,,,,,,,,,,,,,,,,,,,,,,,,,,,,,,,,,,,,,,,,,,,,,,XQ783R,train_x,red_square,bottom_left,2025-05-02_11h25.56.806,HideSeek_v1,2022.2.5,59.95113985376908,
,,,,,,,,,,,,,,,0,0,0,0,8,0,8,0,,,,,,,,,,,,,,,,,,,,,,,,,,,,,,,conditions/schedules/train_x_first/red_square_00/bottom_left/instructions/Slide9.png,conditions/schedules/train_x_first/red_square_00/bottom_left/instructions/Audio9.wav,2105.752183200326,2105.752796649933,9,"[3.195542700123042, 17.665531999897212, 16.26283030025661, 19.118635800201446, 4.7241317997686565, 4.7858904004096985, 5.586743600200862, 11.35577300004661, 5.736142700072378]","[0.014377499930560589, 0.08258859999477863, 0.03606799989938736, 0.0870563997887075, 0.04870670009404421, 0.0983350002206862, 0.03127930033951998, 0.03192850016057491, 5.7361498000100255]",0,,,,,,,,,,,,,,,,,,,,,,,,,,,,,,,,,,,,,,,,,,,,,,,,,,,,,,,,,,,,,,,,,,,,,,,,,,,,,,,,,,,,,,,,,,,,,,,,,,,,,,,,,,,,,,,,,,,,,,,,,,,,XQ783R,train_x,red_square,bottom_left,2025-05-02_11h25.56.806,HideSeek_v1,2022.2.5,59.95113985376908,
,,,,,,,,,,,,,,,0,0,0,0,9,0,9,0,,,,,,,,,,,,,,,,,,,,,,,,,,,,,,,conditions/schedules/train_x_first/red_square_00/bottom_left/instructions/Slide10.png,conditions/schedules/train_x_first/red_square_00/bottom_left/instructions/Audio10.wav,2111.5270797000267,2111.5242325101976,10,"[3.195542700123042, 17.665531999897212, 16.26283030025661, 19.118635800201446, 4.7241317997686565, 4.7858904004096985, 5.586743600200862, 11.35577300004661, 5.736142700072378, 6.9005565997213125]","[0.014377499930560589, 0.08258859999477863, 0.03606799989938736, 0.0870563997887075, 0.04870670009404421, 0.0983350002206862, 0.03127930033951998, 0.03192850016057491, 0.06186030013486743, 6.900563700124621]",0,,,,,,,,,,,,,,,,,,,,,,,,,,,,,,,,,,,,,,,,,,,,,,,,,,,,,,,,,,,,,,,,,,,,,,,,,,,,,,,,,,,,,,,,,,,,,,,,,,,,,,,,,,,,,,,,,,,,,,,,,,,,XQ783R,train_x,red_square,bottom_left,2025-05-02_11h25.56.806,HideSeek_v1,2022.2.5,59.95113985376908,
,,,,,,,,,,,,,,,0,0,0,0,10,0,10,0,,,,,,,,,,,,,,,,,,,,,,,,,,,,,,,conditions/schedules/train_x_first/red_square_00/bottom_left/instructions/Slide11.png,conditions/schedules/train_x_first/red_square_00/bottom_left/instructions/Audio11.wav,2118.482378399931,2118.4802240800113,11,"[3.195542700123042, 17.665531999897212, 16.26283030025661, 19.118635800201446, 4.7241317997686565, 4.7858904004096985, 5.586743600200862, 11.35577300004661, 5.736142700072378, 6.9005565997213125, 9.51991040026769]","[0.014377499930560589, 0.08258859999477863, 0.03606799989938736, 0.0870563997887075, 0.04870670009404421, 0.0983350002206862, 0.03127930033951998, 0.03192850016057491, 0.06186030013486743, 0.030404200311750174, 9.519916500430554]",0,,,,,,,,,,,,,,,,,,,,,,,,,,,,,,,,,,,,,,,,,,,,,,,,,,,,,,,,,,,,,,,,,,,,,,,,,,,,,,,,,,,,,,,,,,,,,,,,,,,,,,,,,,,,,,,,,,,,,,,,,,,,XQ783R,train_x,red_square,bottom_left,2025-05-02_11h25.56.806,HideSeek_v1,2022.2.5,59.95113985376908,
,,,,,,,,,,,,,,,0,0,0,0,11,0,11,0,,,,,,,,,,,,,,,,,,,,,,,,,,,,,,,conditions/schedules/train_x_first/red_square_00/bottom_left/instructions/Slide12.png,conditions/schedules/train_x_first/red_square_00/bottom_left/instructions/Audio12.wav,2128.0584137002006,2128.0548473802396,12,"[3.195542700123042, 17.665531999897212, 16.26283030025661, 19.118635800201446, 4.7241317997686565, 4.7858904004096985, 5.586743600200862, 11.35577300004661, 5.736142700072378, 6.9005565997213125, 9.51991040026769, 12.55465540010482]","[0.014377499930560589, 0.08258859999477863, 0.03606799989938736, 0.0870563997887075, 0.04870670009404421, 0.0983350002206862, 0.03127930033951998, 0.03192850016057491, 0.06186030013486743, 0.030404200311750174, 0.046921299770474434, 12.55466269981116]",0,,,,,,,,,,,,,,,,,,,,,,,,,,,,,,,,,,,,,,,,,,,,,,,,,,,,,,,,,,,,,,,,,,,,,,,,,,,,,,,,,,,,,,,,,,,,,,,,,,,,,,,,,,,,,,,,,,,,,,,,,,,,XQ783R,train_x,red_square,bottom_left,2025-05-02_11h25.56.806,HideSeek_v1,2022.2.5,59.95113985376908,
1,3,2,8,2,5,0,66,2,instr_dim1_1,,,,,,0,0,0,0,,,,,0,0,0,0,,,,,,,,,,,,,,,,,,,,,,,,,,,,,,,,,,,,,stimuli/alien_stimuli/66.png,conditions/schedules/train_x_first/red_square_00/bottom_left/inputInstr_1.xlsx,stimuli/alien_stimuli/66.png,2140.7110995999537,2140.7110995999537,2140.7110995999537,2140.7110995999537,2140.6985055202617,return,8.20672870008275,"[-0.16, -0.08, 0, 0.08, 0.16, 0.24, 0.32, 0.4, 0.48, 0.56]","[-0.4, -0.32, -0.24, -0.16, -0.08, 0, 0.08, 0.16, 0.24, 0.32]",2,2,8,3,0.0,0.4,2149.0517529998906,2149.0517529998906,2149.0517529998906,2149.0517529998906,2149.0517529998906,2149.0517529998906,2149.0517529998906,2149.0387327902017,9.274964499752969,return,9.13858690019697,stimuli/alien_stimuli/66.png,66,3,1,,,,,,,,,,,,,,,,,,,,,,,,,,,,,,,,,,,,,,,,,,,,,,,,,,,,,,,,,,,,,,,,,,,,,,,,,,,,,,,,,,,,,,,,,XQ783R,train_x,red_square,bottom_left,2025-05-02_11h25.56.806,HideSeek_v1,2022.2.5,59.95113985376908,
,,,,,,,,,,,30,,,,0,0,0,0,,,,,,,,,,,,,,,,,,,,,,,,,,,,,,,,,,,,,,,,,,,,,,,,,,,,,,,,,,,,,,,,,,,,,,,,,,,,,,21,0.7,0,0,99,1,30,0,conditions/schedules/train_x_first/red_square_00/bottom_left/inputTrain_1.1.xlsx,99,1,1,1,0,,,,,,,,,,,,,,,,,,,,,,,,,,,,,,,,,,,,,,,,,,,,,,,,,,,,,,,,,,,,,,,,,,,,,,,,,,,XQ783R,train_x,red_square,bottom_left,2025-05-02_11h25.56.806,HideSeek_v1,2022.2.5,59.95113985376908,
,,,,,,,,,,,,,,,1,0,1,0,0,0,0,0,,,,,,,,,,,,,,,,,,,,,,,,,,,,,,,conditions/schedules/train_x_first/red_square_00/bottom_left/instructions/Slide13.png,conditions/schedules/train_x_first/red_square_00/bottom_left/instructions/Audio13.wav,2158.3446692000143,2158.3465358299204,13,"[3.195542700123042, 17.665531999897212, 16.26283030025661, 19.118635800201446, 4.7241317997686565, 4.7858904004096985, 5.586743600200862, 11.35577300004661, 5.736142700072378, 6.9005565997213125, 9.51991040026769, 12.55465540010482, 17.430994499940425]","[0.014377499930560589, 0.08258859999477863, 0.03606799989938736, 0.0870563997887075, 0.04870670009404421, 0.0983350002206862, 0.03127930033951998, 0.03192850016057491, 0.06186030013486743, 0.030404200311750174, 0.046921299770474434, 12.55466269981116, 17.431001199875027]",0,,,,,,,,,,,,,,,,,,,,,,,,,,,,,,,,,,,,,,,,,,,,,,,,,,,,,,,,,,,,,,,,,,,,,,,,,,,,,,,,,,,,,,,,,,,,,,,,,,,,,,,,,,,,,,,,,,,,,,,,,,,,XQ783R,train_x,red_square,bottom_left,2025-05-02_11h25.56.806,HideSeek_v1,2022.2.5,59.95113985376908,
,,,,,,,,,,,,,,,1,0,1,0,1,0,1,0,,,,,,,,,,,,,,,,,,,,,,,,,,,,,,,conditions/schedules/train_x_first/red_square_00/bottom_left/instructions/Slide14.png,conditions/schedules/train_x_first/red_square_00/bottom_left/instructions/Audio14.wav,2175.8437332999893,2175.844647150021,14,"[3.195542700123042, 17.665531999897212, 16.26283030025661, 19.118635800201446, 4.7241317997686565, 4.7858904004096985, 5.586743600200862, 11.35577300004661, 5.736142700072378, 6.9005565997213125, 9.51991040026769, 12.55465540010482, 17.430994499940425, 13.159508000127971]","[0.014377499930560589, 0.08258859999477863, 0.03606799989938736, 0.0870563997887075, 0.04870670009404421, 0.0983350002206862, 0.03127930033951998, 0.03192850016057491, 0.06186030013486743, 0.030404200311750174, 0.046921299770474434, 12.55466269981116, 17.431001199875027, 13.159518300089985]",0,,,,,,,,,,,,,,,,,,,,,,,,,,,,,,,,,,,,,,,,,,,,,,,,,,,,,,,,,,,,,,,,,,,,,,,,,,,,,,,,,,,,,,,,,,,,,,,,,,,,,,,,,,,,,,,,,,,,,,,,,,,,XQ783R,train_x,red_square,bottom_left,2025-05-02_11h25.56.806,HideSeek_v1,2022.2.5,59.95113985376908,
2,4,0,4,0,0,0,16,2,instr_dim1_1,,,,,,1,0,1,0,,,,,0,0,0,0,,,,,,,,,,,,,,,,,,,,,,,,,,,,,,,,,,,,,stimuli/alien_stimuli/16.png,conditions/schedules/train_x_first/red_square_00/bottom_left/inputInstr_1.xlsx,stimuli/alien_stimuli/16.png,2189.1110256002285,2189.1110256002285,2189.1110256002285,2189.1110256002285,2189.10546229016,return,6.300250899977982,"[-0.16, -0.08, 0, 0.08, 0.16, 0.24, 0.32, 0.4, 0.48, 0.56]","[-0.4, -0.32, -0.24, -0.16, -0.08, 0, 0.08, 0.16, 0.24, 0.32]",0,0,4,4,0.0,0.0,2195.5886953002773,2195.5886953002773,2195.5886953002773,2195.5886953002773,2195.5886953002773,2195.5886953002773,2195.5886953002773,2195.5771660302767,7.557937799952924,return,7.379918500315398,stimuli/alien_stimuli/16.png,16,4,2,,,,,,,,,,,,,,,,,,,,,,,,,,,,,,,,,,,,,,,,,,,,,,,,,,,,,,,,,,,,,,,,,,,,,,,,,,,,,,,,,,,,,,,,,XQ783R,train_x,red_square,bottom_left,2025-05-02_11h25.56.806,HideSeek_v1,2022.2.5,59.95113985376908,
,,,,,,,,,,,30,,,,1,0,1,0,,,,,,,,,,,,,,,,,,,,,,,,,,,,,,,,,,,,,,,,,,,,,,,,,,,,,,,,,,,,,,,,,,,,,,,,,,,,,,21,0.7,0,0,99,1,30,0,conditions/schedules/train_x_first/red_square_00/bottom_left/inputTrain_1.1.xlsx,99,1,1,1,0,,,,,,,,,,,,,,,,,,,,,,,,,,,,,,,,,,,,,,,,,,,,,,,,,,,,,,,,,,,,,,,,,,,,,,,,,,,XQ783R,train_x,red_square,bottom_left,2025-05-02_11h25.56.806,HideSeek_v1,2022.2.5,59.95113985376908,
,,,,,,,,,,,,,,,2,0,2,0,0,0,0,0,,,,,,,,,,,,,,,,,,,,,,,,,,,,,,,conditions/schedules/train_x_first/red_square_00/bottom_left/instructions/Slide15.png,conditions/schedules/train_x_first/red_square_00/bottom_left/instructions/Audio15.wav,2203.1363264000975,2203.134184429981,15,"[3.195542700123042, 17.665531999897212, 16.26283030025661, 19.118635800201446, 4.7241317997686565, 4.7858904004096985, 5.586743600200862, 11.35577300004661, 5.736142700072378, 6.9005565997213125, 9.51991040026769, 12.55465540010482, 17.430994499940425, 13.159508000127971, 30.353754700161517]","[0.014377499930560589, 0.08258859999477863, 0.03606799989938736, 0.0870563997887075, 0.04870670009404421, 0.0983350002206862, 0.03127930033951998, 0.03192850016057491, 0.06186030013486743, 0.030404200311750174, 0.046921299770474434, 12.55466269981116, 17.431001199875027, 13.159518300089985, 30.353761699981987]",0,,,,,,,,,,,,,,,,,,,,,,,,,,,,,,,,,,,,,,,,,,,,,,,,,,,,,,,,,,,,,,,,,,,,,,,,,,,,,,,,,,,,,,,,,,,,,,,,,,,,,,,,,,,,,,,,,,,,,,,,,,,,XQ783R,train_x,red_square,bottom_left,2025-05-02_11h25.56.806,HideSeek_v1,2022.2.5,59.95113985376908,
,,,,,,,,,,,,,,,2,0,2,0,1,0,1,0,,,,,,,,,,,,,,,,,,,,,,,,,,,,,,,conditions/schedules/train_x_first/red_square_00/bottom_left/instructions/Slide16.png,conditions/schedules/train_x_first/red_square_00/bottom_left/instructions/Audio16.wav,2233.5512467999943,2233.542455680296,16,"[3.195542700123042, 17.665531999897212, 16.26283030025661, 19.118635800201446, 4.7241317997686565, 4.7858904004096985, 5.586743600200862, 11.35577300004661, 5.736142700072378, 6.9005565997213125, 9.51991040026769, 12.55465540010482, 17.430994499940425, 13.159508000127971, 30.353754700161517, 20.855681600049138]","[0.014377499930560589, 0.08258859999477863, 0.03606799989938736, 0.0870563997887075, 0.04870670009404421, 0.0983350002206862, 0.03127930033951998, 0.03192850016057491, 0.06186030013486743, 0.030404200311750174, 0.046921299770474434, 12.55466269981116, 17.431001199875027, 13.159518300089985, 0.12174999993294477, 20.855688999872655]",0,,,,,,,,,,,,,,,,,,,,,,,,,,,,,,,,,,,,,,,,,,,,,,,,,,,,,,,,,,,,,,,,,,,,,,,,,,,,,,,,,,,,,,,,,,,,,,,,,,,,,,,,,,,,,,,,,,,,,,,,,,,,XQ783R,train_x,red_square,bottom_left,2025-05-02_11h25.56.806,HideSeek_v1,2022.2.5,59.95113985376908,
,2,1,5,1,3,0,46,,train_dim1_1,1,30,,,,2,0,2,0,,,,,,,,,0,0,0,0,0,0,0,0,0,0,0,0,,,,,,,,,,,,,,,,,,,,,,,,,stimuli/alien_stimuli/46.png,,,,,,,,,,,,,,,,,,,,,,,,,,,,,,,,,,,,,,,30,,,,,,,,2254.507520100102,2254.507520100102,2254.507520100102,2254.507520100102,2254.507520100102,right,10.620403199922293,0,0,0,99,0.08,-0.32,right,10.52323199994862,,,,,,,,,,,,,,,,,,,,,,,,,,,,,,,,,,,,,,,,,,,,,,,,,,,,,,,,,,,,XQ783R,train_x,red_square,bottom_left,2025-05-02_11h25.56.806,HideSeek_v1,2022.2.5,59.95113985376908,
,2,1,5,1,3,0,46,,train_dim1_1,1,30,,,,2,0,2,0,,,,,,,,,0,0,0,0,0,0,0,0,1,0,1,0,,,,,,,,,,,,,,,,,,,,,,,,,,,,,,,,,,,,,,,,,,,,,,,,,,,,,,,,,,,,,,,,30,,,,,,,,2265.128357599955,2265.128357599955,2265.128357599955,2265.128357599955,2265.128357599955,right,3.3123457999899983,0,0,0,99,0.16,-0.32,right,3.2238199999555945,,,,,,,,,,,,,,,,,,,,,,,,,,,,,,,,,,,,,,,,,,,,,,,,,,,,,,,,,,,,XQ783R,train_x,red_square,bottom_left,2025-05-02_11h25.56.806,HideSeek_v1,2022.2.5,59.95113985376908,
,2,1,5,1,3,0,46,,train_dim1_1,1,30,,,,2,0,2,0,,,,,,,,,0,0,0,0,0,0,0,0,2,0,2,0,,,,,,,,,,,,,,,,,,,,,,,,,,,,,,,,,,,,,,,,,,,,,,,,,,,,,,,,,,,,,,,,30,,,,,,,,2268.4361376999877,2268.4361376999877,2268.4361376999877,2268.4361376999877,2268.4361376999877,right,4.363323700148612,0,0,0,99,0.24,-0.32,right,4.279898599721491,,,,,,,,,,,,,,,,,,,,,,,,,,,,,,,,,,,,,,,,,,,,,,,,,,,,,,,,,,,,XQ783R,train_x,red_square,bottom_left,2025-05-02_11h25.56.806,HideSeek_v1,2022.2.5,59.95113985376908,
,2,1,5,1,3,0,46,,train_dim1_1,1,30,,,,2,0,2,0,,,,,,,,,0,0,0,0,0,0,0,0,3,0,3,0,,,,,,,,,,,,,,,,,,,,,,,,,,,,,,,,,,,,,,,,,,,,,,,,,,,,,,,,,,,,,,,,30,,,,,,,,2272.806410000194,2272.806410000194,2272.806410000194,2272.806410000194,2272.806410000194,return,7.299051700159907,1,0,0,1,0.24,-0.32,return,7.21742230001837,0,3,0.24,-0.32,,,,,,,,,,,,,,,,,,,,,,,,,,,,,,,,,,,,,,,,,,,,,,,,,,,,,,,,XQ783R,train_x,red_square,bottom_left,2025-05-02_11h25.56.806,HideSeek_v1,2022.2.5,59.95113985376908,
,2,4,2,4,0,0,16,,train_dim1_1,2,30,,,,2,0,2,0,,,,,,,,,0,0,0,0,0,1,1,1,0,0,0,0,,,,,,,,,,,,,,,,,,,,,,,,,stimuli/alien_stimuli/16.png,,,,,,,,,,,,,,,,,,,,,,,,,,,,,stimuli/alien_stimuli/46.png,46,2,3,,,,,,,30,,,,,,,,2296.274336799979,2296.274336799979,2296.274336799979,2296.274336799979,2296.274336799979,right,5.944392700213939,1,0,0,99,0.08,-0.08,right,5.836961100343615,,,,,2294.693553900346,2296.274336799979,0.24,-0.32,0.0,0.24,-0.32,0.24,0.12,0.24,-0.32,2281.677593300119,2281.677593300119,2281.677593300119,2281.677593300119,2281.677593300119,2281.677593300119,2281.677593300119,2281.677593300119,2281.665703890193,13.130194299854338,return,12.998021599836648,,,,,,,,,,,,,,,,,,,,,,,,,,,,,,,,,XQ783R,train_x,red_square,bottom_left,2025-05-02_11h25.56.806,HideSeek_v1,2022.2.5,59.95113985376908,
,2,4,2,4,0,0,16,,train_dim1_1,2,30,,,,2,0,2,0,,,,,,,,,0,0,0,0,0,1,1,1,1,0,1,0,,,,,,,,,,,,,,,,,,,,,,,,,,,,,,,,,,,,,,,,,,,,,,,,,,,,,,,,,,,,,,,,30,,,,,,,,2302.2011251999065,2302.2011251999065,2302.2011251999065,2302.2011251999065,2302.2011251999065,right,4.06277360022068,1,0,0,99,0.16,-0.08,right,3.9788135001435876,,,,,,,,,,,,,,,,,,,,,,,,,,,,,,,,,,,,,,,,,,,,,,,,,,,,,,,,,,,,XQ783R,train_x,red_square,bottom_left,2025-05-02_11h25.56.806,HideSeek_v1,2022.2.5,59.95113985376908,
,2,4,2,4,0,0,16,,train_dim1_1,2,30,,,,2,0,2,0,,,,,,,,,0,0,0,0,0,1,1,1,2,0,2,0,,,,,,,,,,,,,,,,,,,,,,,,,,,,,,,,,,,,,,,,,,,,,,,,,,,,,,,,,,,,,,,,30,,,,,,,,2306.270103600342,2306.270103600342,2306.270103600342,2306.270103600342,2306.270103600342,right,3.0954036000184715,1,0,0,99,0.24,-0.08,right,3.013605600222945,,,,,,,,,,,,,,,,,,,,,,,,,,,,,,,,,,,,,,,,,,,,,,,,,,,,,,,,,,,,XQ783R,train_x,red_square,bottom_left,2025-05-02_11h25.56.806,HideSeek_v1,2022.2.5,59.95113985376908,
,2,4,2,4,0,0,16,,train_dim1_1,2,30,,,,2,0,2,0,,,,,,,,,0,0,0,0,0,1,1,1,3,0,3,0,,,,,,,,,,,,,,,,,,,,,,,,,,,,,,,,,,,,,,,,,,,,,,,,,,,,,,,,,,,,,,,,30,,,,,,,,2309.372332900297,2309.372332900297,2309.372332900297,2309.372332900297,2309.372332900297,right,1.6779857999645174,1,0,0,99,0.32,-0.08,right,1.5879883002489805,,,,,,,,,,,,,,,,,,,,,,,,,,,,,,,,,,,,,,,,,,,,,,,,,,,,,,,,,,,,XQ783R,train_x,red_square,bottom_left,2025-05-02_11h25.56.806,HideSeek_v1,2022.2.5,59.95113985376908,
,2,4,2,4,0,0,16,,train_dim1_1,2,30,,,,2,0,2,0,,,,,,,,,0,0,0,0,0,1,1,1,4,0,4,0,,,,,,,,,,,,,,,,,,,,,,,,,,,,,,,,,,,,,,,,,,,,,,,,,,,,,,,,,,,,,,,,30,,,,,,,,2311.057247400284,2311.057247400284,2311.057247400284,2311.057247400284,2311.057247400284,return,1.1603761999867857,1,0,0,0,0.32,-0.08,return,1.080181300174445,0,7,0.32,-0.08,,,,,,,,,,,,,,,,,,,,,,,,,,,,,,,,,,,,,,,,,,,,,,,,,,,,,,,,XQ783R,train_x,red_square,bottom_left,2025-05-02_11h25.56.806,HideSeek_v1,2022.2.5,59.95113985376908,
,4,4,5,4,1,0,26,,train_dim1_1,3,30,,,,2,0,2,0,,,,,,,,,0,0,0,0,0,2,2,2,0,0,0,0,,,,,,,,,,,,,,,,,,,,,,,,,stimuli/alien_stimuli/26.png,,,,,,,,,,,,,,,,,,,,,,,,,,,,,stimuli/alien_stimuli/16.png,16,2,4,,,,,,,30,,,,,,,,2333.94417290017,2333.94417290017,2333.94417290017,2333.94417290017,2333.94417290017,right,6.027468099724501,1,0,0,99,0.24,-0.08,right,5.926332899834961,,,,,2332.3747543999925,2333.94417290017,0,-0.08,0.0,0.0,-0.08,0,0.0,0,-0.08,2313.8031378001906,2313.8031378001906,2313.8031378001906,2313.8031378001906,2313.8031378001906,2313.8031378001906,2313.8031378001906,2313.8031378001906,2313.7923251601865,18.70126730017364,return,18.543061799835414,,,,,,,,,,,,,,,,,,,,,,,,,,,,,,,,,XQ783R,train_x,red_square,bottom_left,2025-05-02_11h25.56.806,HideSeek_v1,2022.2.5,59.95113985376908,
,4,4,5,4,1,0,26,,train_dim1_1,3,30,,,,2,0,2,0,,,,,,,,,0,0,0,0,0,2,2,2,1,0,1,0,,,,,,,,,,,,,,,,,,,,,,,,,,,,,,,,,,,,,,,,,,,,,,,,,,,,,,,,,,,,,,,,30,,,,,,,,2339.965978800319,2339.965978800319,2339.965978800319,2339.965978800319,2339.965978800319,right,2.5617039003409445,1,0,0,99,0.32,-0.08,right,2.480319600086659,,,,,,,,,,,,,,,,,,,,,,,,,,,,,,,,,,,,,,,,,,,,,,,,,,,,,,,,,,,,XQ783R,train_x,red_square,bottom_left,2025-05-02_11h25.56.806,HideSeek_v1,2022.2.5,59.95113985376908,
,4,4,5,4,1,0,26,,train_dim1_1,3,30,,,,2,0,2,0,,,,,,,,,0,0,0,0,0,2,2,2,2,0,2,0,,,,,,,,,,,,,,,,,,,,,,,,,,,,,,,,,,,,,,,,,,,,,,,,,,,,,,,,,,,,,,,,30,,,,,,,,2342.5344539000653,2342.5344539000653,2342.5344539000653,2342.5344539000653,2342.5344539000653,right,2.1943588997237384,1,0,0,99,0.4,-0.08,right,2.1075969003140926,,,,,,,,,,,,,,,,,,,,,,,,,,,,,,,,,,,,,,,,,,,,,,,,,,,,,,,,,,,,XQ783R,train_x,red_square,bottom_left,2025-05-02_11h25.56.806,HideSeek_v1,2022.2.5,59.95113985376908,
,4,4,5,4,1,0,26,,train_dim1_1,3,30,,,,2,0,2,0,,,,,,,,,0,0,0,0,0,2,2,2,3,0,3,0,,,,,,,,,,,,,,,,,,,,,,,,,,,,,,,,,,,,,,,,,,,,,,,,,,,,,,,,,,,,,,,,30,,,,,,,,2344.7361457999796,2344.7361457999796,2344.7361457999796,2344.7361457999796,2344.7361457999796,return,7.399325199890882,1,0,0,0,0.4,-0.08,return,7.316445500124246,0,10,0.4,-0.08,,,,,,,,,,,,,,,,,,,,,,,,,,,,,,,,,,,,,,,,,,,,,,,,,,,,,,,,XQ783R,train_x,red_square,bottom_left,2025-05-02_11h25.56.806,HideSeek_v1,2022.2.5,59.95113985376908,
,2,3,6,3,4,0,56,,train_dim1_1,4,30,,,,2,0,2,0,,,,,,,,,0,0,0,0,0,3,3,3,0,0,0,0,,,,,,,,,,,,,,,,,,,,,,,,,stimuli/alien_stimuli/56.png,,,,,,,,,,,,,,,,,,,,,,,,,,,,,stimuli/alien_stimuli/26.png,26,4,5,,,,,,,30,,,,,,,,2364.716996300034,2364.716996300034,2364.716996300034,2364.716996300034,2364.716996300034,right,8.22921370016411,1,0,0,99,0.08,-0.16,right,8.137569300364703,,,,,2363.1503985002637,2364.716996300034,0.24,-0.08,0.0,0.08,-0.08,0.24,0.2,0.24,-0.08,2353.7258040001616,2353.7258040001616,2353.7258040001616,2353.7258040001616,2353.7258040001616,2353.7258040001616,2353.7258040001616,2353.7258040001616,2353.7088501599615,9.560174100100994,return,9.402842100244015,,,,,,,,,,,,,,,,,,,,,,,,,,,,,,,,,XQ783R,train_x,red_square,bottom_left,2025-05-02_11h25.56.806,HideSeek_v1,2022.2.5,59.95113985376908,
,2,3,6,3,4,0,56,,train_dim1_1,4,30,,,,2,0,2,0,,,,,,,,,0,0,0,0,0,3,3,3,1,0,1,0,,,,,,,,,,,,,,,,,,,,,,,,,,,,,,,,,,,,,,,,,,,,,,,,,,,,,,,,,,,,,,,,30,,,,,,,,2372.9412251003087,2372.9412251003087,2372.9412251003087,2372.9412251003087,2372.9412251003087,right,5.63051880011335,1,0,0,99,0.16,-0.16,right,5.54728649975732,,,,,,,,,,,,,,,,,,,,,,,,,,,,,,,,,,,,,,,,,,,,,,,,,,,,,,,,,,,,XQ783R,train_x,red_square,bottom_left,2025-05-02_11h25.56.806,HideSeek_v1,2022.2.5,59.95113985376908,
,2,3,6,3,4,0,56,,train_dim1_1,4,30,,,,2,0,2,0,,,,,,,,,0,0,0,0,0,3,3,3,2,0,2,0,,,,,,,,,,,,,,,,,,,,,,,,,,,,,,,,,,,,,,,,,,,,,,,,,,,,,,,,,,,,,,,,30,,,,,,,,2378.580286900047,2378.580286900047,2378.580286900047,2378.580286900047,2378.580286900047,return,3.8296004002913833,1,0,0,0,0.16,-0.16,return,3.7431896002963185,0,12,0.16,-0.16,,,,,,,,,,,,,,,,,,,,,,,,,,,,,,,,,,,,,,,,,,,,,,,,,,,,,,,,XQ783R,train_x,red_square,bottom_left,2025-05-02_11h25.56.806,HideSeek_v1,2022.2.5,59.95113985376908,
,0,2,5,2,5,0,66,,train_dim1_1,5,30,,,,2,0,2,0,,,,,,,,,0,0,0,0,0,4,4,4,0,0,0,0,,,,,,,,,,,,,,,,,,,,,,,,,stimuli/alien_stimuli/66.png,,,,,,,,,,,,,,,,,,,,,,,,,,,,,stimuli/alien_stimuli/56.png,56,2,6,,,,,,,30,,,,,,,,2405.1709581003524,2405.1709581003524,2405.1709581003524,2405.1709581003524,2405.1709581003524,right,6.094327999744564,1,0,0,99,-0.08,-0.24,right,6.002159999683499,,,,,2403.6006403001957,2405.1709581003524,0.32,-0.16,0.0,0.32,-0.16,0.32,0.16,0.32,-0.16,2383.9794749002904,2383.9794749002904,2383.9794749002904,2383.9794749002904,2383.9794749002904,2383.9794749002904,2383.9794749002904,2383.9794749002904,2383.9672553900627,19.73573590023443,return,19.596829700283706,,,,,,,,,,,,,,,,,,,,,,,,,,,,,,,,,XQ783R,train_x,red_square,bottom_left,2025-05-02_11h25.56.806,HideSeek_v1,2022.2.5,59.95113985376908,
,0,2,5,2,5,0,66,,train_dim1_1,5,30,,,,2,0,2,0,,,,,,,,,0,0,0,0,0,4,4,4,1,0,1,0,,,,,,,,,,,,,,,,,,,,,,,,,,,,,,,,,,,,,,,,,,,,,,,,,,,,,,,,,,,,,,,,30,,,,,,,,2411.2554516000673,2411.2554516000673,2411.2554516000673,2411.2554516000673,2411.2554516000673,right,1.1596437999978662,1,0,0,99,0.0,-0.24,right,1.0730957998894155,,,,,,,,,,,,,,,,,,,,,,,,,,,,,,,,,,,,,,,,,,,,,,,,,,,,,,,,,,,,XQ783R,train_x,red_square,bottom_left,2025-05-02_11h25.56.806,HideSeek_v1,2022.2.5,59.95113985376908,
,0,2,5,2,5,0,66,,train_dim1_1,5,30,,,,2,0,2,0,,,,,,,,,0,0,0,0,0,4,4,4,2,0,2,0,,,,,,,,,,,,,,,,,,,,,,,,,,,,,,,,,,,,,,,,,,,,,,,,,,,,,,,,,,,,,,,,30,,,,,,,,2412.420416400302,2412.420416400302,2412.420416400302,2412.420416400302,2412.420416400302,right,0.910712500102818,1,0,0,99,0.08,-0.24,right,0.8346883999183774,,,,,,,,,,,,,,,,,,,,,,,,,,,,,,,,,,,,,,,,,,,,,,,,,,,,,,,,,,,,XQ783R,train_x,red_square,bottom_left,2025-05-02_11h25.56.806,HideSeek_v1,2022.2.5,59.95113985376908,
,0,2,5,2,5,0,66,,train_dim1_1,5,30,,,,2,0,2,0,,,,,,,,,0,0,0,0,0,4,4,4,3,0,3,0,,,,,,,,,,,,,,,,,,,,,,,,,,,,,,,,,,,,,,,,,,,,,,,,,,,,,,,,,,,,,,,,30,,,,,,,,2413.338256600313,2413.338256600313,2413.338256600313,2413.338256600313,2413.338256600313,right,0.8436277997680008,1,0,0,99,0.16,-0.24,right,0.7623180001974106,,,,,,,,,,,,,,,,,,,,,,,,,,,,,,,,,,,,,,,,,,,,,,,,,,,,,,,,,,,,XQ783R,train_x,red_square,bottom_left,2025-05-02_11h25.56.806,HideSeek_v1,2022.2.5,59.95113985376908,
,0,2,5,2,5,0,66,,train_dim1_1,5,30,,,,2,0,2,0,,,,,,,,,0,0,0,0,0,4,4,4,4,0,4,0,,,,,,,,,,,,,,,,,,,,,,,,,,,,,,,,,,,,,,,,,,,,,,,,,,,,,,,,,,,,,,,,30,,,,,,,,2414.188444599975,2414.188444599975,2414.188444599975,2414.188444599975,2414.188444599975,right,0.7771928999572992,1,0,0,99,0.24,-0.24,right,0.6963196997530758,,,,,,,,,,,,,,,,,,,,,,,,,,,,,,,,,,,,,,,,,,,,,,,,,,,,,,,,,,,,XQ783R,train_x,red_square,bottom_left,2025-05-02_11h25.56.806,HideSeek_v1,2022.2.5,59.95113985376908,
,0,2,5,2,5,0,66,,train_dim1_1,5,30,,,,2,0,2,0,,,,,,,,,0,0,0,0,0,4,4,4,5,0,5,0,,,,,,,,,,,,,,,,,,,,,,,,,,,,,,,,,,,,,,,,,,,,,,,,,,,,,,,,,,,,,,,,30,,,,,,,,2414.973138799891,2414.973138799891,2414.973138799891,2414.973138799891,2414.973138799891,return,0.7606896995566785,2,0,0,1,0.24,-0.24,return,0.6823068996891379,0,17,0.24,-0.24,,,,,,,,,,,,,,,,,,,,,,,,,,,,,,,,,,,,,,,,,,,,,,,,,,,,,,,,XQ783R,train_x,red_square,bottom_left,2025-05-02_11h25.56.806,HideSeek_v1,2022.2.5,59.95113985376908,
,0,0,1,0,1,0,26,,train_dim1_1,6,30,,,,2,0,2,0,,,,,,,,,0,0,0,0,0,5,5,5,0,0,0,0,,,,,,,,,,,,,,,,,,,,,,,,,stimuli/alien_stimuli/26.png,,,,,,,,,,,,,,,,,,,,,,,,,,,,,stimuli/alien_stimuli/66.png,66,0,7,,,,,,,30,,,,,,,,2432.0863037002273,2432.0863037002273,2432.0863037002273,2432.0863037002273,2432.0863037002273,right,3.641218800097704,2,0,0,99,-0.08,-0.4,right,3.5262325000949204,,,,,2430.5063315001316,2432.0863037002273,0.24,-0.24,0.0,0.4,-0.24,0.24,0.039999999999999994,0.24,-0.24,2417.3164003002457,2417.3164003002457,2417.3164003002457,2417.3164003002457,2417.3164003002457,2417.3164003002457,2417.3164003002457,2417.3164003002457,2417.295042390283,13.313250600360334,return,13.164669299963862,,,,,,,,,,,,,,,,,,,,,,,,,,,,,,,,,XQ783R,train_x,red_square,bottom_left,2025-05-02_11h25.56.806,HideSeek_v1,2022.2.5,59.95113985376908,
,0,0,1,0,1,0,26,,train_dim1_1,6,30,,,,2,0,2,0,,,,,,,,,0,0,0,0,0,5,5,5,1,0,1,0,,,,,,,,,,,,,,,,,,,,,,,,,,,,,,,,,,,,,,,,,,,,,,,,,,,,,,,,,,,,,,,,30,,,,,,,,2435.7108487999067,2435.7108487999067,2435.7108487999067,2435.7108487999067,2435.7108487999067,return,1.0935313999652863,3,0,0,1,-0.08,-0.4,return,1.004071299917996,0,18,-0.08,-0.4,,,,,,,,,,,,,,,,,,,,,,,,,,,,,,,,,,,,,,,,,,,,,,,,,,,,,,,,XQ783R,train_x,red_square,bottom_left,2025-05-02_11h25.56.806,HideSeek_v1,2022.2.5,59.95113985376908,
,3,0,8,0,5,0,66,,train_dim1_1,7,30,,,,2,0,2,0,,,,,,,,,0,0,0,0,0,6,6,6,0,0,0,0,,,,,,,,,,,,,,,,,,,,,,,,,stimuli/alien_stimuli/66.png,,,,,,,,,,,,,,,,,,,,,,,,,,,,,stimuli/alien_stimuli/26.png,26,0,8,,,,,,,30,,,,,,,,2444.8908500000834,2444.8908500000834,2444.8908500000834,2444.8908500000834,2444.8908500000834,right,4.1593772997148335,3,0,0,99,0.16,-0.4,right,4.07947100000456,,,,,2443.333536500111,2444.8908500000834,-0.08,-0.4,0.0,0.08,-0.4,-0.08,-0.12,-0.08,-0.4,2438.393573900219,2438.393573900219,2438.393573900219,2438.393573900219,2438.393573900219,2438.393573900219,2438.393573900219,2438.393573900219,2438.3790283600797,5.0735246003605425,return,4.921089299954474,,,,,,,,,,,,,,,,,,,,,,,,,,,,,,,,,XQ783R,train_x,red_square,bottom_left,2025-05-02_11h25.56.806,HideSeek_v1,2022.2.5,59.95113985376908,
,3,0,8,0,5,0,66,,train_dim1_1,7,30,,,,2,0,2,0,,,,,,,,,0,0,0,0,0,6,6,6,1,0,1,0,,,,,,,,,,,,,,,,,,,,,,,,,,,,,,,,,,,,,,,,,,,,,,,,,,,,,,,,,,,,,,,,30,,,,,,,,2449.0515805003233,2449.0515805003233,2449.0515805003233,2449.0515805003233,2449.0515805003233,right,0.8432689998298883,3,0,0,99,0.24,-0.4,right,0.7601344003342092,,,,,,,,,,,,,,,,,,,,,,,,,,,,,,,,,,,,,,,,,,,,,,,,,,,,,,,,,,,,XQ783R,train_x,red_square,bottom_left,2025-05-02_11h25.56.806,HideSeek_v1,2022.2.5,59.95113985376908,
,3,0,8,0,5,0,66,,train_dim1_1,7,30,,,,2,0,2,0,,,,,,,,,0,0,0,0,0,6,6,6,2,0,2,0,,,,,,,,,,,,,,,,,,,,,,,,,,,,,,,,,,,,,,,,,,,,,,,,,,,,,,,,,,,,,,,,30,,,,,,,,2449.901800400112,2449.901800400112,2449.901800400112,2449.901800400112,2449.901800400112,right,1.0608518002554774,3,0,0,99,0.32,-0.4,right,0.9778156997635961,,,,,,,,,,,,,,,,,,,,,,,,,,,,,,,,,,,,,,,,,,,,,,,,,,,,,,,,,,,,XQ783R,train_x,red_square,bottom_left,2025-05-02_11h25.56.806,HideSeek_v1,2022.2.5,59.95113985376908,
,3,0,8,0,5,0,66,,train_dim1_1,7,30,,,,2,0,2,0,,,,,,,,,0,0,0,0,0,6,6,6,3,0,3,0,,,,,,,,,,,,,,,,,,,,,,,,,,,,,,,,,,,,,,,,,,,,,,,,,,,,,,,,,,,,,,,,30,,,,,,,,2450.969025700353,2450.969025700353,2450.969025700353,2450.969025700353,2450.969025700353,right,0.74369279993698,3,0,0,99,0.4,-0.4,right,0.6557188001461327,,,,,,,,,,,,,,,,,,,,,,,,,,,,,,,,,,,,,,,,,,,,,,,,,,,,,,,,,,,,XQ783R,train_x,red_square,bottom_left,2025-05-02_11h25.56.806,HideSeek_v1,2022.2.5,59.95113985376908,
,3,0,8,0,5,0,66,,train_dim1_1,7,30,,,,2,0,2,0,,,,,,,,,0,0,0,0,0,6,6,6,4,0,4,0,,,,,,,,,,,,,,,,,,,,,,,,,,,,,,,,,,,,,,,,,,,,,,,,,,,,,,,,,,,,,,,,30,,,,,,,,2451.7198358001187,2451.7198358001187,2451.7198358001187,2451.7198358001187,2451.7198358001187,right,1.0772410999052227,3,0,0,99,0.48000000000000004,-0.4,right,0.9951816000975668,,,,,,,,,,,,,,,,,,,,,,,,,,,,,,,,,,,,,,,,,,,,,,,,,,,,,,,,,,,,XQ783R,train_x,red_square,bottom_left,2025-05-02_11h25.56.806,HideSeek_v1,2022.2.5,59.95113985376908,
,3,0,8,0,5,0,66,,train_dim1_1,7,30,,,,2,0,2,0,,,,,,,,,0,0,0,0,0,6,6,6,5,0,5,0,,,,,,,,,,,,,,,,,,,,,,,,,,,,,,,,,,,,,,,,,,,,,,,,,,,,,,,,,,,,,,,,30,,,,,,,,2452.8043512003496,2452.8043512003496,2452.8043512003496,2452.8043512003496,2452.8043512003496,right,0.7605845001526177,3,0,0,99,0.56,-0.4,right,0.6827475996688008,,,,,,,,,,,,,,,,,,,,,,,,,,,,,,,,,,,,,,,,,,,,,,,,,,,,,,,,,,,,XQ783R,train_x,red_square,bottom_left,2025-05-02_11h25.56.806,HideSeek_v1,2022.2.5,59.95113985376908,
,3,0,8,0,5,0,66,,train_dim1_1,7,30,,,,2,0,2,0,,,,,,,,,0,0,0,0,0,6,6,6,6,0,6,0,,,,,,,,,,,,,,,,,,,,,,,,,,,,,,,,,,,,,,,,,,,,,,,,,,,,,,,,,,,,,,,,30,,,,,,,,2453.571335799992,2453.571335799992,2453.571335799992,2453.571335799992,2453.571335799992,return,1.4108584001660347,3,1,0,0,0.56,-0.4,return,1.3376619997434318,0,24,0.56,-0.4,,,,,,,,,,,,,,,,,,,,,,,,,,,,,,,,,,,,,,,,,,,,,,,,,,,,,,,,XQ783R,train_x,red_square,bottom_left,2025-05-02_11h25.56.806,HideSeek_v1,2022.2.5,59.95113985376908,
,0,4,3,4,3,0,46,,train_dim1_1,8,30,,,,2,0,2,0,,,,,,,,,0,0,0,0,0,7,7,7,0,0,0,0,,,,,,,,,,,,,,,,,,,,,,,,,stimuli/alien_stimuli/46.png,,,,,,,,,,,,,,,,,,,,,,,,,,,,,stimuli/alien_stimuli/66.png,66,3,9,,,,,,,30,,,,,,,,2464.473886300344,2464.473886300344,2464.473886300344,2464.473886300344,2464.473886300344,right,6.5109054003842175,3,1,0,99,-0.08,-0.08,right,6.429353800136596,,,,,2462.9166713999584,2464.473886300344,0.48,-0.4,0.0,0.4,-0.4,0.48,0.27999999999999997,0.48,-0.4,2456.565442299936,2456.565442299936,2456.565442299936,2456.565442299936,2456.565442299936,2456.565442299936,2456.565442299936,2456.565442299936,2456.5442654903045,6.474227600265294,return,6.319540800061077,,,,,,,,,,,,,,,,,,,,,,,,,,,,,,,,,XQ783R,train_x,red_square,bottom_left,2025-05-02_11h25.56.806,HideSeek_v1,2022.2.5,59.95113985376908,
,0,4,3,4,3,0,46,,train_dim1_1,8,30,,,,2,0,2,0,,,,,,,,,0,0,0,0,0,7,7,7,1,0,1,0,,,,,,,,,,,,,,,,,,,,,,,,,,,,,,,,,,,,,,,,,,,,,,,,,,,,,,,,,,,,,,,,30,,,,,,,,2470.9928870000876,2470.9928870000876,2470.9928870000876,2470.9928870000876,2470.9928870000876,right,0.6760690999217331,3,1,0,99,0.0,-0.08,right,0.5954904002137482,,,,,,,,,,,,,,,,,,,,,,,,,,,,,,,,,,,,,,,,,,,,,,,,,,,,,,,,,,,,XQ783R,train_x,red_square,bottom_left,2025-05-02_11h25.56.806,HideSeek_v1,2022.2.5,59.95113985376908,
,0,4,3,4,3,0,46,,train_dim1_1,8,30,,,,2,0,2,0,,,,,,,,,0,0,0,0,0,7,7,7,2,0,2,0,,,,,,,,,,,,,,,,,,,,,,,,,,,,,,,,,,,,,,,,,,,,,,,,,,,,,,,,,,,,,,,,30,,,,,,,,2471.669620099943,2471.669620099943,2471.669620099943,2471.669620099943,2471.669620099943,right,0.7438795999623835,3,1,0,99,0.08,-0.08,right,0.6621143999509513,,,,,,,,,,,,,,,,,,,,,,,,,,,,,,,,,,,,,,,,,,,,,,,,,,,,,,,,,,,,XQ783R,train_x,red_square,bottom_left,2025-05-02_11h25.56.806,HideSeek_v1,2022.2.5,59.95113985376908,
,0,4,3,4,3,0,46,,train_dim1_1,8,30,,,,2,0,2,0,,,,,,,,,0,0,0,0,0,7,7,7,3,0,3,0,,,,,,,,,,,,,,,,,,,,,,,,,,,,,,,,,,,,,,,,,,,,,,,,,,,,,,,,,,,,,,,,30,,,,,,,,2472.420258600265,2472.420258600265,2472.420258600265,2472.420258600265,2472.420258600265,return,0.9771644999273121,4,0,0,1,0.08,-0.08,return,0.901221000123769,0,27,0.08,-0.08,,,,,,,,,,,,,,,,,,,,,,,,,,,,,,,,,,,,,,,,,,,,,,,,,,,,,,,,XQ783R,train_x,red_square,bottom_left,2025-05-02_11h25.56.806,HideSeek_v1,2022.2.5,59.95113985376908,
,1,0,5,0,4,0,56,,train_dim1_1,9,30,,,,2,0,2,0,,,,,,,,,0,0,0,0,0,8,8,8,0,0,0,0,,,,,,,,,,,,,,,,,,,,,,,,,stimuli/alien_stimuli/56.png,,,,,,,,,,,,,,,,,,,,,,,,,,,,,stimuli/alien_stimuli/46.png,46,0,10,,,,,,,30,,,,,,,,2478.9239862998948,2478.9239862998948,2478.9239862998948,2478.9239862998948,2478.9239862998948,right,4.359483300242573,4,0,0,99,0.0,-0.4,right,4.260295000392944,,,,,2477.344995100051,2478.9239862998948,0.08,-0.08,0.0,0.24,-0.08,0.08,-0.04,0.08,-0.08,2474.9816275001504,2474.9816275001504,2474.9816275001504,2474.9816275001504,2474.9816275001504,2474.9816275001504,2474.9816275001504,2474.9816275001504,2474.959649389889,2.487781799864024,return,2.3391495998948812,,,,,,,,,,,,,,,,,,,,,,,,,,,,,,,,,XQ783R,train_x,red_square,bottom_left,2025-05-02_11h25.56.806,HideSeek_v1,2022.2.5,59.95113985376908,
,1,0,5,0,4,0,56,,train_dim1_1,9,30,,,,2,0,2,0,,,,,,,,,0,0,0,0,0,8,8,8,1,0,1,0,,,,,,,,,,,,,,,,,,,,,,,,,,,,,,,,,,,,,,,,,,,,,,,,,,,,,,,,,,,,,,,,30,,,,,,,,2483.2657050001435,2483.2657050001435,2483.2657050001435,2483.2657050001435,2483.2657050001435,right,0.5431931996718049,4,0,0,99,0.08,-0.4,right,0.46758189983665943,,,,,,,,,,,,,,,,,,,,,,,,,,,,,,,,,,,,,,,,,,,,,,,,,,,,,,,,,,,,XQ783R,train_x,red_square,bottom_left,2025-05-02_11h25.56.806,HideSeek_v1,2022.2.5,59.95113985376908,
,1,0,5,0,4,0,56,,train_dim1_1,9,30,,,,2,0,2,0,,,,,,,,,0,0,0,0,0,8,8,8,2,0,2,0,,,,,,,,,,,,,,,,,,,,,,,,,,,,,,,,,,,,,,,,,,,,,,,,,,,,,,,,,,,,,,,,30,,,,,,,,2483.816085800063,2483.816085800063,2483.816085800063,2483.816085800063,2483.816085800063,right,0.5762228998355567,4,0,0,99,0.16,-0.4,right,0.48607400013133883,,,,,,,,,,,,,,,,,,,,,,,,,,,,,,,,,,,,,,,,,,,,,,,,,,,,,,,,,,,,XQ783R,train_x,red_square,bottom_left,2025-05-02_11h25.56.806,HideSeek_v1,2022.2.5,59.95113985376908,
,1,0,5,0,4,0,56,,train_dim1_1,9,30,,,,2,0,2,0,,,,,,,,,0,0,0,0,0,8,8,8,3,0,3,0,,,,,,,,,,,,,,,,,,,,,,,,,,,,,,,,,,,,,,,,,,,,,,,,,,,,,,,,,,,,,,,,30,,,,,,,,2484.3997809002176,2484.3997809002176,2484.3997809002176,2484.3997809002176,2484.3997809002176,right,0.7270279000513256,4,0,0,99,0.24,-0.4,right,0.6422215001657605,,,,,,,,,,,,,,,,,,,,,,,,,,,,,,,,,,,,,,,,,,,,,,,,,,,,,,,,,,,,XQ783R,train_x,red_square,bottom_left,2025-05-02_11h25.56.806,HideSeek_v1,2022.2.5,59.95113985376908,
,1,0,5,0,4,0,56,,train_dim1_1,9,30,,,,2,0,2,0,,,,,,,,,0,0,0,0,0,8,8,8,4,0,4,0,,,,,,,,,,,,,,,,,,,,,,,,,,,,,,,,,,,,,,,,,,,,,,,,,,,,,,,,,,,,,,,,30,,,,,,,,2485.135172900278,2485.135172900278,2485.135172900278,2485.135172900278,2485.135172900278,left,1.8277298999018967,4,0,0,99,0.15999999999999998,-0.4,left,1.738143699709326,,,,,,,,,,,,,,,,,,,,,,,,,,,,,,,,,,,,,,,,,,,,,,,,,,,,,,,,,,,,XQ783R,train_x,red_square,bottom_left,2025-05-02_11h25.56.806,HideSeek_v1,2022.2.5,59.95113985376908,
,1,0,5,0,4,0,56,,train_dim1_1,9,30,,,,2,0,2,0,,,,,,,,,0,0,0,0,0,8,8,8,5,0,5,0,,,,,,,,,,,,,,,,,,,,,,,,,,,,,,,,,,,,,,,,,,,,,,,,,,,,,,,,,,,,,,,,30,,,,,,,,2486.9710764000192,2486.9710764000192,2486.9710764000192,2486.9710764000192,2486.9710764000192,left,0.49343250039964914,4,0,0,99,0.07999999999999997,-0.4,left,0.4041241998784244,,,,,,,,,,,,,,,,,,,,,,,,,,,,,,,,,,,,,,,,,,,,,,,,,,,,,,,,,,,,XQ783R,train_x,red_square,bottom_left,2025-05-02_11h25.56.806,HideSeek_v1,2022.2.5,59.95113985376908,
,1,0,5,0,4,0,56,,train_dim1_1,9,30,,,,2,0,2,0,,,,,,,,,0,0,0,0,0,8,8,8,6,0,6,0,,,,,,,,,,,,,,,,,,,,,,,,,,,,,,,,,,,,,,,,,,,,,,,,,,,,,,,,,,,,,,,,30,,,,,,,,2487.4692816003226,2487.4692816003226,2487.4692816003226,2487.4692816003226,2487.4692816003226,left,0.4433112000115216,4,0,0,99,-2.7755575615628914e-17,-0.4,left,0.3675103997811675,,,,,,,,,,,,,,,,,,,,,,,,,,,,,,,,,,,,,,,,,,,,,,,,,,,,,,,,,,,,XQ783R,train_x,red_square,bottom_left,2025-05-02_11h25.56.806,HideSeek_v1,2022.2.5,59.95113985376908,
,1,0,5,0,4,0,56,,train_dim1_1,9,30,,,,2,0,2,0,,,,,,,,,0,0,0,0,0,8,8,8,7,0,7,0,,,,,,,,,,,,,,,,,,,,,,,,,,,,,,,,,,,,,,,,,,,,,,,,,,,,,,,,,,,,,,,,30,,,,,,,,2487.9199498998933,2487.9199498998933,2487.9199498998933,2487.9199498998933,2487.9199498998933,right,2.2116255997680128,4,0,0,99,0.07999999999999997,-0.4,right,2.13201309973374,,,,,,,,,,,,,,,,,,,,,,,,,,,,,,,,,,,,,,,,,,,,,,,,,,,,,,,,,,,,XQ783R,train_x,red_square,bottom_left,2025-05-02_11h25.56.806,HideSeek_v1,2022.2.5,59.95113985376908,
,1,0,5,0,4,0,56,,train_dim1_1,9,30,,,,2,0,2,0,,,,,,,,,0,0,0,0,0,8,8,8,8,0,8,0,,,,,,,,,,,,,,,,,,,,,,,,,,,,,,,,,,,,,,,,,,,,,,,,,,,,,,,,,,,,,,,,30,,,,,,,,2490.138031099923,2490.138031099923,2490.138031099923,2490.138031099923,2490.138031099923,right,0.8772064996883273,4,0,0,99,0.15999999999999998,-0.4,right,0.7976059000939131,,,,,,,,,,,,,,,,,,,,,,,,,,,,,,,,,,,,,,,,,,,,,,,,,,,,,,,,,,,,XQ783R,train_x,red_square,bottom_left,2025-05-02_11h25.56.806,HideSeek_v1,2022.2.5,59.95113985376908,
,1,0,5,0,4,0,56,,train_dim1_1,9,30,,,,2,0,2,0,,,,,,,,,0,0,0,0,0,8,8,8,9,0,9,0,,,,,,,,,,,,,,,,,,,,,,,,,,,,,,,,,,,,,,,,,,,,,,,,,,,,,,,,,,,,,,,,30,,,,,,,,2491.0211324002594,2491.0211324002594,2491.0211324002594,2491.0211324002594,2491.0211324002594,right,0.7603993001393974,4,0,0,99,0.24,-0.4,right,0.6824002000503242,,,,,,,,,,,,,,,,,,,,,,,,,,,,,,,,,,,,,,,,,,,,,,,,,,,,,,,,,,,,XQ783R,train_x,red_square,bottom_left,2025-05-02_11h25.56.806,HideSeek_v1,2022.2.5,59.95113985376908,
,1,0,5,0,4,0,56,,train_dim1_1,9,30,,,,2,0,2,0,,,,,,,,,0,0,0,0,0,8,8,8,10,0,10,0,,,,,,,,,,,,,,,,,,,,,,,,,,,,,,,,,,,,,,,,,,,,,,,,,,,,,,,,,,,,,,,,30,,,,,,,,2491.789177000057,2491.789177000057,2491.789177000057,2491.789177000057,2491.789177000057,right,0.6435707998462021,4,0,0,99,0.32,-0.4,right,0.5666563999839127,,,,,,,,,,,,,,,,,,,,,,,,,,,,,,,,,,,,,,,,,,,,,,,,,,,,,,,,,,,,XQ783R,train_x,red_square,bottom_left,2025-05-02_11h25.56.806,HideSeek_v1,2022.2.5,59.95113985376908,
,1,0,5,0,4,0,56,,train_dim1_1,9,30,,,,2,0,2,0,,,,,,,,,0,0,0,0,0,8,8,8,11,0,11,0,,,,,,,,,,,,,,,,,,,,,,,,,,,,,,,,,,,,,,,,,,,,,,,,,,,,,,,,,,,,,,,,30,,,,,,,,2492.442590100225,2492.442590100225,2492.442590100225,2492.442590100225,2492.442590100225,return,0.6104425000958145,4,1,0,0,0.32,-0.4,return,0.5285861999727786,0,32,0.32,-0.4,,,,,,,,,,,,,,,,,,,,,,,,,,,,,,,,,,,,,,,,,,,,,,,,,,,,,,,,XQ783R,train_x,red_square,bottom_left,2025-05-02_11h25.56.806,HideSeek_v1,2022.2.5,59.95113985376908,
,0,3,0,3,0,0,16,,train_dim1_1,10,30,,,,2,0,2,0,,,,,,,,,0,0,0,0,0,9,9,9,0,0,0,0,,,,,,,,,,,,,,,,,,,,,,,,,stimuli/alien_stimuli/16.png,,,,,,,,,,,,,,,,,,,,,,,,,,,,,stimuli/alien_stimuli/56.png,56,1,11,,,,,,,30,,,,,,,,2514.184778000228,2514.184778000228,2514.184778000228,2514.184778000228,2514.184778000228,right,4.626340499613434,4,1,0,99,-0.08,-0.16,right,4.523464599624276,,,,,2512.6078717000782,2514.184778000228,0.24,-0.4,0.0,0.32,-0.4,0.24,0.07999999999999999,0.24,-0.4,2494.6205660002306,2494.6205660002306,2494.6205660002306,2494.6205660002306,2494.6205660002306,2494.6205660002306,2494.6205660002306,2494.6205660002306,2494.6091134900225,18.10076649999246,return,17.96614920021966,,,,,,,,,,,,,,,,,,,,,,,,,,,,,,,,,XQ783R,train_x,red_square,bottom_left,2025-05-02_11h25.56.806,HideSeek_v1,2022.2.5,59.95113985376908,
,0,3,0,3,0,0,16,,train_dim1_1,10,30,,,,2,0,2,0,,,,,,,,,0,0,0,0,0,9,9,9,1,0,1,0,,,,,,,,,,,,,,,,,,,,,,,,,,,,,,,,,,,,,,,,,,,,,,,,,,,,,,,,,,,,,,,,30,,,,,,,,2518.798449099995,2518.798449099995,2518.798449099995,2518.798449099995,2518.798449099995,return,0.8102782997302711,4,1,0,0,-0.08,-0.16,return,0.7181537002325058,0,33,-0.08,-0.16,,,,,,,,,,,,,,,,,,,,,,,,,,,,,,,,,,,,,,,,,,,,,,,,,,,,,,,,XQ783R,train_x,red_square,bottom_left,2025-05-02_11h25.56.806,HideSeek_v1,2022.2.5,59.95113985376908,
,2,2,5,2,3,0,46,,train_dim1_1,11,30,,,,2,0,2,0,,,,,,,,,0,0,0,0,0,10,10,10,0,0,0,0,,,,,,,,,,,,,,,,,,,,,,,,,stimuli/alien_stimuli/46.png,,,,,,,,,,,,,,,,,,,,,,,,,,,,,stimuli/alien_stimuli/16.png,16,0,12,,,,,,,30,,,,,,,,2525.974439600017,2525.974439600017,2525.974439600017,2525.974439600017,2525.974439600017,right,7.228656600229442,4,1,0,99,0.08,-0.24,right,7.149901899974793,,,,,2524.417647600174,2525.974439600017,-0.16,-0.16,0.0,0.0,-0.16,-0.16,-0.16,-0.16,-0.16,2521.1801364999264,2521.1801364999264,2521.1801364999264,2521.1801364999264,2521.1801364999264,2521.1801364999264,2521.1801364999264,2521.1801364999264,2521.164809889905,3.355215299874544,return,3.2191110998392105,,,,,,,,,,,,,,,,,,,,,,,,,,,,,,,,,XQ783R,train_x,red_square,bottom_left,2025-05-02_11h25.56.806,HideSeek_v1,2022.2.5,59.95113985376908,
,2,2,5,2,3,0,46,,train_dim1_1,11,30,,,,2,0,2,0,,,,,,,,,0,0,0,0,0,10,10,10,1,0,1,0,,,,,,,,,,,,,,,,,,,,,,,,,,,,,,,,,,,,,,,,,,,,,,,,,,,,,,,,,,,,,,,,30,,,,,,,,2533.2057592002675,2533.2057592002675,2533.2057592002675,2533.2057592002675,2533.2057592002675,right,1.6775462003424764,4,1,0,99,0.16,-0.24,right,1.5882692001760006,,,,,,,,,,,,,,,,,,,,,,,,,,,,,,,,,,,,,,,,,,,,,,,,,,,,,,,,,,,,XQ783R,train_x,red_square,bottom_left,2025-05-02_11h25.56.806,HideSeek_v1,2022.2.5,59.95113985376908,
,2,2,5,2,3,0,46,,train_dim1_1,11,30,,,,2,0,2,0,,,,,,,,,0,0,0,0,0,10,10,10,2,0,2,0,,,,,,,,,,,,,,,,,,,,,,,,,,,,,,,,,,,,,,,,,,,,,,,,,,,,,,,,,,,,,,,,30,,,,,,,,2534.889970799908,2534.889970799908,2534.889970799908,2534.889970799908,2534.889970799908,right,1.7942421003244817,4,1,0,99,0.24,-0.24,right,1.7060408000834286,,,,,,,,,,,,,,,,,,,,,,,,,,,,,,,,,,,,,,,,,,,,,,,,,,,,,,,,,,,,XQ783R,train_x,red_square,bottom_left,2025-05-02_11h25.56.806,HideSeek_v1,2022.2.5,59.95113985376908,
,2,2,5,2,3,0,46,,train_dim1_1,11,30,,,,2,0,2,0,,,,,,,,,0,0,0,0,0,10,10,10,3,0,3,0,,,,,,,,,,,,,,,,,,,,,,,,,,,,,,,,,,,,,,,,,,,,,,,,,,,,,,,,,,,,,,,,30,,,,,,,,2536.700750700198,2536.700750700198,2536.700750700198,2536.700750700198,2536.700750700198,right,6.665362299885601,4,1,0,99,0.32,-0.24,right,6.571818900294602,,,,,,,,,,,,,,,,,,,,,,,,,,,,,,,,,,,,,,,,,,,,,,,,,,,,,,,,,,,,XQ783R,train_x,red_square,bottom_left,2025-05-02_11h25.56.806,HideSeek_v1,2022.2.5,59.95113985376908,
,2,2,5,2,3,0,46,,train_dim1_1,11,30,,,,2,0,2,0,,,,,,,,,0,0,0,0,0,10,10,10,4,0,4,0,,,,,,,,,,,,,,,,,,,,,,,,,,,,,,,,,,,,,,,,,,,,,,,,,,,,,,,,,,,,,,,,30,,,,,,,,2543.364116600249,2543.364116600249,2543.364116600249,2543.364116600249,2543.364116600249,return,0.9936724002473056,4,1,0,0,0.32,-0.24,return,0.9193663001060486,0,37,0.32,-0.24,,,,,,,,,,,,,,,,,,,,,,,,,,,,,,,,,,,,,,,,,,,,,,,,,,,,,,,,XQ783R,train_x,red_square,bottom_left,2025-05-02_11h25.56.806,HideSeek_v1,2022.2.5,59.95113985376908,
,0,0,1,0,1,0,26,,train_dim1_1,12,30,,,,2,0,2,0,,,,,,,,,0,0,0,0,0,11,11,11,0,0,0,0,,,,,,,,,,,,,,,,,,,,,,,,,stimuli/alien_stimuli/26.png,,,,,,,,,,,,,,,,,,,,,,,,,,,,,stimuli/alien_stimuli/46.png,46,2,13,,,,,,,30,,,,,,,,2552.067519800272,2552.067519800272,2552.067519800272,2552.067519800272,2552.067519800272,return,7.878730800002813,4,1,0,0,-0.16,-0.4,return,7.792694000061601,0,37,-0.16,-0.4,2550.5059541999362,2552.067519800272,0.24,-0.24,0.0,0.24,-0.24,0.24,0.12,0.24,-0.24,2545.9400349003263,2545.9400349003263,2545.9400349003263,2545.9400349003263,2545.9400349003263,2545.9400349003263,2545.9400349003263,2545.9400349003263,2545.9183517902156,4.6895443997345865,return,4.5363739002496,,,,,,,,,,,,,,,,,,,,,,,,,,,,,,,,,XQ783R,train_x,red_square,bottom_left,2025-05-02_11h25.56.806,HideSeek_v1,2022.2.5,59.95113985376908,
,0,4,4,4,4,0,56,,train_dim1_1,13,30,,,,2,0,2,0,,,,,,,,,0,0,0,0,0,12,12,12,0,0,0,0,,,,,,,,,,,,,,,,,,,,,,,,,stimuli/alien_stimuli/56.png,,,,,,,,,,,,,,,,,,,,,,,,,,,,,stimuli/alien_stimuli/26.png,26,0,14,,,,,,,30,,,,,,,,2565.8931376999244,2565.8931376999244,2565.8931376999244,2565.8931376999244,2565.8931376999244,right,6.47776999976486,4,1,0,99,-0.08,-0.08,right,6.392706700135022,,,,,2564.334189500194,2565.8931376999244,-0.08,-0.4,0.0,0.08,-0.4,-0.08,-0.12,-0.08,-0.4,2561.5260542002507,2561.5260542002507,2561.5260542002507,2561.5260542002507,2561.5260542002507,2561.5260542002507,2561.5260542002507,2561.5260542002507,2561.5147235600275,2.9383294000290334,return,2.7921378002502024,,,,,,,,,,,,,,,,,,,,,,,,,,,,,,,,,XQ783R,train_x,red_square,bottom_left,2025-05-02_11h25.56.806,HideSeek_v1,2022.2.5,59.95113985376908,
,0,4,4,4,4,0,56,,train_dim1_1,13,30,,,,2,0,2,0,,,,,,,,,0,0,0,0,0,12,12,12,1,0,1,0,,,,,,,,,,,,,,,,,,,,,,,,,,,,,,,,,,,,,,,,,,,,,,,,,,,,,,,,,,,,,,,,30,,,,,,,,2572.374971400015,2572.374971400015,2572.374971400015,2572.374971400015,2572.374971400015,right,1.5273235002532601,4,1,0,99,0.0,-0.08,right,1.443567399866879,,,,,,,,,,,,,,,,,,,,,,,,,,,,,,,,,,,,,,,,,,,,,,,,,,,,,,,,,,,,XQ783R,train_x,red_square,bottom_left,2025-05-02_11h25.56.806,HideSeek_v1,2022.2.5,59.95113985376908,
,0,4,4,4,4,0,56,,train_dim1_1,13,30,,,,2,0,2,0,,,,,,,,,0,0,0,0,0,12,12,12,2,0,2,0,,,,,,,,,,,,,,,,,,,,,,,,,,,,,,,,,,,,,,,,,,,,,,,,,,,,,,,,,,,,,,,,30,,,,,,,,2573.906827200204,2573.906827200204,2573.906827200204,2573.906827200204,2573.906827200204,right,1.227689300198108,4,1,0,99,0.08,-0.08,right,1.1473305998370051,,,,,,,,,,,,,,,,,,,,,,,,,,,,,,,,,,,,,,,,,,,,,,,,,,,,,,,,,,,,XQ783R,train_x,red_square,bottom_left,2025-05-02_11h25.56.806,HideSeek_v1,2022.2.5,59.95113985376908,
,0,4,4,4,4,0,56,,train_dim1_1,13,30,,,,2,0,2,0,,,,,,,,,0,0,0,0,0,12,12,12,3,0,3,0,,,,,,,,,,,,,,,,,,,,,,,,,,,,,,,,,,,,,,,,,,,,,,,,,,,,,,,,,,,,,,,,30,,,,,,,,2575.150257000234,2575.150257000234,2575.150257000234,2575.150257000234,2575.150257000234,right,0.9437766000628471,4,1,0,99,0.16,-0.08,right,0.8465896002016962,,,,,,,,,,,,,,,,,,,,,,,,,,,,,,,,,,,,,,,,,,,,,,,,,,,,,,,,,,,,XQ783R,train_x,red_square,bottom_left,2025-05-02_11h25.56.806,HideSeek_v1,2022.2.5,59.95113985376908,
,0,4,4,4,4,0,56,,train_dim1_1,13,30,,,,2,0,2,0,,,,,,,,,0,0,0,0,0,12,12,12,4,0,4,0,,,,,,,,,,,,,,,,,,,,,,,,,,,,,,,,,,,,,,,,,,,,,,,,,,,,,,,,,,,,,,,,30,,,,,,,,2576.092077600304,2576.092077600304,2576.092077600304,2576.092077600304,2576.092077600304,right,7.215711100026965,4,1,0,99,0.24,-0.08,right,7.141759899910539,,,,,,,,,,,,,,,,,,,,,,,,,,,,,,,,,,,,,,,,,,,,,,,,,,,,,,,,,,,,XQ783R,train_x,red_square,bottom_left,2025-05-02_11h25.56.806,HideSeek_v1,2022.2.5,59.95113985376908,
,0,4,4,4,4,0,56,,train_dim1_1,13,30,,,,2,0,2,0,,,,,,,,,0,0,0,0,0,12,12,12,5,0,5,0,,,,,,,,,,,,,,,,,,,,,,,,,,,,,,,,,,,,,,,,,,,,,,,,,,,,,,,,,,,,,,,,30,,,,,,,,2583.318138200324,2583.318138200324,2583.318138200324,2583.318138200324,2583.318138200324,left,3.3958443999290466,4,1,0,99,0.15999999999999998,-0.08,left,3.3167093000374734,,,,,,,,,,,,,,,,,,,,,,,,,,,,,,,,,,,,,,,,,,,,,,,,,,,,,,,,,,,,XQ783R,train_x,red_square,bottom_left,2025-05-02_11h25.56.806,HideSeek_v1,2022.2.5,59.95113985376908,
,0,4,4,4,4,0,56,,train_dim1_1,13,30,,,,2,0,2,0,,,,,,,,,0,0,0,0,0,12,12,12,6,0,6,0,,,,,,,,,,,,,,,,,,,,,,,,,,,,,,,,,,,,,,,,,,,,,,,,,,,,,,,,,,,,,,,,30,,,,,,,,2586.7174311000854,2586.7174311000854,2586.7174311000854,2586.7174311000854,2586.7174311000854,return,1.2106932997703552,5,0,0,1,0.15999999999999998,-0.08,return,1.1265444997698069,0,41,0.15999999999999998,-0.08,,,,,,,,,,,,,,,,,,,,,,,,,,,,,,,,,,,,,,,,,,,,,,,,,,,,,,,,XQ783R,train_x,red_square,bottom_left,2025-05-02_11h25.56.806,HideSeek_v1,2022.2.5,59.95113985376908,
,4,3,4,3,0,0,16,,train_dim1_1,14,30,,,,2,0,2,0,,,,,,,,,0,0,0,0,0,13,13,13,0,0,0,0,,,,,,,,,,,,,,,,,,,,,,,,,stimuli/alien_stimuli/16.png,,,,,,,,,,,,,,,,,,,,,,,,,,,,,stimuli/alien_stimuli/56.png,56,0,15,,,,,,,30,,,,,,,,2593.685124400072,2593.685124400072,2593.685124400072,2593.685124400072,2593.685124400072,return,4.526416300330311,6,0,0,1,0.16,-0.16,return,4.4394638002850115,0,41,0.16,-0.16,2592.123653900344,2593.685124400072,0.16,-0.08,0.0,0.32,-0.08,0.16,0.0,0.16,-0.08,2589.5121543002315,2589.5121543002315,2589.5121543002315,2589.5121543002315,2589.5121543002315,2589.5121543002315,2589.5121543002315,2589.5121543002315,2589.504733360093,2.7377972998656332,return,2.583032399881631,,,,,,,,,,,,,,,,,,,,,,,,,,,,,,,,,XQ783R,train_x,red_square,bottom_left,2025-05-02_11h25.56.806,HideSeek_v1,2022.2.5,59.95113985376908,
,4,2,9,2,5,0,66,,train_dim1_1,15,30,,,,2,0,2,0,,,,,,,,,0,0,0,0,0,14,14,14,0,0,0,0,,,,,,,,,,,,,,,,,,,,,,,,,stimuli/alien_stimuli/66.png,,,,,,,,,,,,,,,,,,,,,,,,,,,,,stimuli/alien_stimuli/16.png,16,4,16,,,,,,,30,,,,,,,,2603.07346290024,2603.07346290024,2603.07346290024,2603.07346290024,2603.07346290024,right,3.942536599934101,6,0,0,99,0.24,-0.24,right,3.8315515001304448,,,,,2601.4981305003166,2603.07346290024,0.16,-0.16,0.0,0.0,-0.16,0.16,0.16,0.16,-0.16,2599.789997700136,2599.789997700136,2599.789997700136,2599.789997700136,2599.789997700136,2599.789997700136,2599.789997700136,2599.789997700136,2599.779994860012,1.8372082998976111,return,1.6805253000929952,,,,,,,,,,,,,,,,,,,,,,,,,,,,,,,,,XQ783R,train_x,red_square,bottom_left,2025-05-02_11h25.56.806,HideSeek_v1,2022.2.5,59.95113985376908,
,4,2,9,2,5,0,66,,train_dim1_1,15,30,,,,2,0,2,0,,,,,,,,,0,0,0,0,0,14,14,14,1,0,1,0,,,,,,,,,,,,,,,,,,,,,,,,,,,,,,,,,,,,,,,,,,,,,,,,,,,,,,,,,,,,,,,,30,,,,,,,,2606.9998364001513,2606.9998364001513,2606.9998364001513,2606.9998364001513,2606.9998364001513,right,0.5762729998677969,6,0,0,99,0.32,-0.24,right,0.4996853000484407,,,,,,,,,,,,,,,,,,,,,,,,,,,,,,,,,,,,,,,,,,,,,,,,,,,,,,,,,,,,XQ783R,train_x,red_square,bottom_left,2025-05-02_11h25.56.806,HideSeek_v1,2022.2.5,59.95113985376908,
,4,2,9,2,5,0,66,,train_dim1_1,15,30,,,,2,0,2,0,,,,,,,,,0,0,0,0,0,14,14,14,2,0,2,0,,,,,,,,,,,,,,,,,,,,,,,,,,,,,,,,,,,,,,,,,,,,,,,,,,,,,,,,,,,,,,,,30,,,,,,,,2607.5843572001904,2607.5843572001904,2607.5843572001904,2607.5843572001904,2607.5843572001904,right,0.6604545000009239,6,0,0,99,0.4,-0.24,right,0.5789462998509407,,,,,,,,,,,,,,,,,,,,,,,,,,,,,,,,,,,,,,,,,,,,,,,,,,,,,,,,,,,,XQ783R,train_x,red_square,bottom_left,2025-05-02_11h25.56.806,HideSeek_v1,2022.2.5,59.95113985376908,
,4,2,9,2,5,0,66,,train_dim1_1,15,30,,,,2,0,2,0,,,,,,,,,0,0,0,0,0,14,14,14,3,0,3,0,,,,,,,,,,,,,,,,,,,,,,,,,,,,,,,,,,,,,,,,,,,,,,,,,,,,,,,,,,,,,,,,30,,,,,,,,2608.250442500226,2608.250442500226,2608.250442500226,2608.250442500226,2608.250442500226,right,3.0622637001797557,6,0,0,99,0.48000000000000004,-0.24,right,2.980118100065738,,,,,,,,,,,,,,,,,,,,,,,,,,,,,,,,,,,,,,,,,,,,,,,,,,,,,,,,,,,,XQ783R,train_x,red_square,bottom_left,2025-05-02_11h25.56.806,HideSeek_v1,2022.2.5,59.95113985376908,
,4,2,9,2,5,0,66,,train_dim1_1,15,30,,,,2,0,2,0,,,,,,,,,0,0,0,0,0,14,14,14,4,0,4,0,,,,,,,,,,,,,,,,,,,,,,,,,,,,,,,,,,,,,,,,,,,,,,,,,,,,,,,,,,,,,,,,30,,,,,,,,2611.3256248999387,2611.3256248999387,2611.3256248999387,2611.3256248999387,2611.3256248999387,right,2.1446827002801,6,0,0,99,0.56,-0.24,right,2.0571106001734734,,,,,,,,,,,,,,,,,,,,,,,,,,,,,,,,,,,,,,,,,,,,,,,,,,,,,,,,,,,,XQ783R,train_x,red_square,bottom_left,2025-05-02_11h25.56.806,HideSeek_v1,2022.2.5,59.95113985376908,
,4,2,9,2,5,0,66,,train_dim1_1,15,30,,,,2,0,2,0,,,,,,,,,0,0,0,0,0,14,14,14,5,0,5,0,,,,,,,,,,,,,,,,,,,,,,,,,,,,,,,,,,,,,,,,,,,,,,,,,,,,,,,,,,,,,,,,30,,,,,,,,2613.472912200261,2613.472912200261,2613.472912200261,2613.472912200261,2613.472912200261,return,1.4940940998494625,7,0,0,1,0.56,-0.24,return,1.4080403000116348,0,46,0.56,-0.24,,,,,,,,,,,,,,,,,,,,,,,,,,,,,,,,,,,,,,,,,,,,,,,,,,,,,,,,XQ783R,train_x,red_square,bottom_left,2025-05-02_11h25.56.806,HideSeek_v1,2022.2.5,59.95113985376908,
,3,3,7,3,4,0,56,,train_dim1_1,16,30,,,,2,0,2,0,,,,,,,,,0,0,0,0,0,15,15,15,0,0,0,0,,,,,,,,,,,,,,,,,,,,,,,,,stimuli/alien_stimuli/56.png,,,,,,,,,,,,,,,,,,,,,,,,,,,,,stimuli/alien_stimuli/66.png,66,4,17,,,,,,,30,,,,,,,,2620.004134300165,2620.004134300165,2620.004134300165,2620.004134300165,2620.004134300165,right,7.379238199908286,7,0,0,99,0.16,-0.16,right,7.271282299887389,,,,,2618.428811199963,2620.004134300165,0.56,-0.24,0.0,0.4,-0.24,0.56,0.36000000000000004,0.56,-0.24,2616.5354778002948,2616.5354778002948,2616.5354778002948,2616.5354778002948,2616.5354778002948,2616.5354778002948,2616.5354778002948,2616.5354778002948,2616.526992889866,2.004265799652785,return,1.8639286998659372,,,,,,,,,,,,,,,,,,,,,,,,,,,,,,,,,XQ783R,train_x,red_square,bottom_left,2025-05-02_11h25.56.806,HideSeek_v1,2022.2.5,59.95113985376908,
,3,3,7,3,4,0,56,,train_dim1_1,16,30,,,,2,0,2,0,,,,,,,,,0,0,0,0,0,15,15,15,1,0,1,0,,,,,,,,,,,,,,,,,,,,,,,,,,,,,,,,,,,,,,,,,,,,,,,,,,,,,,,,,,,,,,,,30,,,,,,,,2627.370445600245,2627.370445600245,2627.370445600245,2627.370445600245,2627.370445600245,right,1.093101100064814,7,0,0,99,0.24,-0.16,right,1.0025173001922667,,,,,,,,,,,,,,,,,,,,,,,,,,,,,,,,,,,,,,,,,,,,,,,,,,,,,,,,,,,,XQ783R,train_x,red_square,bottom_left,2025-05-02_11h25.56.806,HideSeek_v1,2022.2.5,59.95113985376908,
,3,3,7,3,4,0,56,,train_dim1_1,16,30,,,,2,0,2,0,,,,,,,,,0,0,0,0,0,15,15,15,2,0,2,0,,,,,,,,,,,,,,,,,,,,,,,,,,,,,,,,,,,,,,,,,,,,,,,,,,,,,,,,,,,,,,,,30,,,,,,,,2628.4688307000324,2628.4688307000324,2628.4688307000324,2628.4688307000324,2628.4688307000324,right,1.2779358997941017,7,0,0,99,0.32,-0.16,right,1.1883301003836095,,,,,,,,,,,,,,,,,,,,,,,,,,,,,,,,,,,,,,,,,,,,,,,,,,,,,,,,,,,,XQ783R,train_x,red_square,bottom_left,2025-05-02_11h25.56.806,HideSeek_v1,2022.2.5,59.95113985376908,
,3,3,7,3,4,0,56,,train_dim1_1,16,30,,,,2,0,2,0,,,,,,,,,0,0,0,0,0,15,15,15,3,0,3,0,,,,,,,,,,,,,,,,,,,,,,,,,,,,,,,,,,,,,,,,,,,,,,,,,,,,,,,,,,,,,,,,30,,,,,,,,2629.7557223001495,2629.7557223001495,2629.7557223001495,2629.7557223001495,2629.7557223001495,return,1.942788400221616,7,1,0,0,0.32,-0.16,return,1.85279450006783,0,49,0.32,-0.16,,,,,,,,,,,,,,,,,,,,,,,,,,,,,,,,,,,,,,,,,,,,,,,,,,,,,,,,XQ783R,train_x,red_square,bottom_left,2025-05-02_11h25.56.806,HideSeek_v1,2022.2.5,59.95113985376908,
,2,4,3,4,1,0,26,,train_dim1_1,17,30,,,,2,0,2,0,,,,,,,,,0,0,0,0,0,16,16,16,0,0,0,0,,,,,,,,,,,,,,,,,,,,,,,,,stimuli/alien_stimuli/26.png,,,,,,,,,,,,,,,,,,,,,,,,,,,,,stimuli/alien_stimuli/56.png,56,3,18,,,,,,,30,,,,,,,,2637.5404555001296,2637.5404555001296,2637.5404555001296,2637.5404555001296,2637.5404555001296,right,2.924128199927509,7,1,0,99,0.08,-0.08,right,2.8394277999177575,,,,,2635.976715600118,2637.5404555001296,0.4,-0.16,0.0,0.32,-0.16,0.4,0.24000000000000002,0.4,-0.16,2633.268901800271,2633.268901800271,2633.268901800271,2633.268901800271,2633.268901800271,2633.268901800271,2633.268901800271,2633.268901800271,2633.257903890032,2.8210519002750516,return,2.682844099588692,,,,,,,,,,,,,,,,,,,,,,,,,,,,,,,,,XQ783R,train_x,red_square,bottom_left,2025-05-02_11h25.56.806,HideSeek_v1,2022.2.5,59.95113985376908,
,2,4,3,4,1,0,26,,train_dim1_1,17,30,,,,2,0,2,0,,,,,,,,,0,0,0,0,0,16,16,16,1,0,1,0,,,,,,,,,,,,,,,,,,,,,,,,,,,,,,,,,,,,,,,,,,,,,,,,,,,,,,,,,,,,,,,,30,,,,,,,,2640.4651124998927,2640.4651124998927,2640.4651124998927,2640.4651124998927,2640.4651124998927,return,0.4597344002686441,8,0,0,1,0.08,-0.08,return,0.3781720004044473,0,50,0.08,-0.08,,,,,,,,,,,,,,,,,,,,,,,,,,,,,,,,,,,,,,,,,,,,,,,,,,,,,,,,XQ783R,train_x,red_square,bottom_left,2025-05-02_11h25.56.806,HideSeek_v1,2022.2.5,59.95113985376908,
,2,1,7,1,5,0,66,,train_dim1_1,18,30,,,,2,0,2,0,,,,,,,,,0,0,0,0,0,17,17,17,0,0,0,0,,,,,,,,,,,,,,,,,,,,,,,,,stimuli/alien_stimuli/66.png,,,,,,,,,,,,,,,,,,,,,,,,,,,,,stimuli/alien_stimuli/26.png,26,2,19,,,,,,,30,,,,,,,,2646.0002220002934,2646.0002220002934,2646.0002220002934,2646.0002220002934,2646.0002220002934,right,4.759744399692863,8,0,0,99,0.08,-0.32,right,4.629224100150168,,,,,2644.4005666999146,2646.0002220002934,0.08,-0.08,0.0,0.08,-0.08,0.08,0.04,0.08,-0.08,2642.501207299996,2642.501207299996,2642.501207299996,2642.501207299996,2642.501207299996,2642.501207299996,2642.501207299996,2642.501207299996,2642.4820852901785,2.020524499937892,return,1.8772451998665929,,,,,,,,,,,,,,,,,,,,,,,,,,,,,,,,,XQ783R,train_x,red_square,bottom_left,2025-05-02_11h25.56.806,HideSeek_v1,2022.2.5,59.95113985376908,
,2,1,7,1,5,0,66,,train_dim1_1,18,30,,,,2,0,2,0,,,,,,,,,0,0,0,0,0,17,17,17,1,0,1,0,,,,,,,,,,,,,,,,,,,,,,,,,,,,,,,,,,,,,,,,,,,,,,,,,,,,,,,,,,,,,,,,30,,,,,,,,2650.7230597003363,2650.7230597003363,2650.7230597003363,2650.7230597003363,2650.7230597003363,right,0.7768898997455835,8,0,0,99,0.16,-0.32,right,0.6868865001015365,,,,,,,,,,,,,,,,,,,,,,,,,,,,,,,,,,,,,,,,,,,,,,,,,,,,,,,,,,,,XQ783R,train_x,red_square,bottom_left,2025-05-02_11h25.56.806,HideSeek_v1,2022.2.5,59.95113985376908,
,2,1,7,1,5,0,66,,train_dim1_1,18,30,,,,2,0,2,0,,,,,,,,,0,0,0,0,0,17,17,17,2,0,2,0,,,,,,,,,,,,,,,,,,,,,,,,,,,,,,,,,,,,,,,,,,,,,,,,,,,,,,,,,,,,,,,,30,,,,,,,,2651.502532800194,2651.502532800194,2651.502532800194,2651.502532800194,2651.502532800194,right,0.8603399996645749,8,0,0,99,0.24,-0.32,right,0.7800348997116089,,,,,,,,,,,,,,,,,,,,,,,,,,,,,,,,,,,,,,,,,,,,,,,,,,,,,,,,,,,,XQ783R,train_x,red_square,bottom_left,2025-05-02_11h25.56.806,HideSeek_v1,2022.2.5,59.95113985376908,
,2,1,7,1,5,0,66,,train_dim1_1,18,30,,,,2,0,2,0,,,,,,,,,0,0,0,0,0,17,17,17,3,0,3,0,,,,,,,,,,,,,,,,,,,,,,,,,,,,,,,,,,,,,,,,,,,,,,,,,,,,,,,,,,,,,,,,30,,,,,,,,2652.3700979999267,2652.3700979999267,2652.3700979999267,2652.3700979999267,2652.3700979999267,right,1.9114855001680553,8,0,0,99,0.32,-0.32,right,1.839862700086087,,,,,,,,,,,,,,,,,,,,,,,,,,,,,,,,,,,,,,,,,,,,,,,,,,,,,,,,,,,,XQ783R,train_x,red_square,bottom_left,2025-05-02_11h25.56.806,HideSeek_v1,2022.2.5,59.95113985376908,
,2,1,7,1,5,0,66,,train_dim1_1,18,30,,,,2,0,2,0,,,,,,,,,0,0,0,0,0,17,17,17,4,0,4,0,,,,,,,,,,,,,,,,,,,,,,,,,,,,,,,,,,,,,,,,,,,,,,,,,,,,,,,,,,,,,,,,30,,,,,,,,2654.2918241000734,2654.2918241000734,2654.2918241000734,2654.2918241000734,2654.2918241000734,right,0.7101253001019359,8,0,0,99,0.4,-0.32,right,0.6274496000260115,,,,,,,,,,,,,,,,,,,,,,,,,,,,,,,,,,,,,,,,,,,,,,,,,,,,,,,,,,,,XQ783R,train_x,red_square,bottom_left,2025-05-02_11h25.56.806,HideSeek_v1,2022.2.5,59.95113985376908,
,2,1,7,1,5,0,66,,train_dim1_1,18,30,,,,2,0,2,0,,,,,,,,,0,0,0,0,0,17,17,17,5,0,5,0,,,,,,,,,,,,,,,,,,,,,,,,,,,,,,,,,,,,,,,,,,,,,,,,,,,,,,,,,,,,,,,,30,,,,,,,,2655.0057001002133,2655.0057001002133,2655.0057001002133,2655.0057001002133,2655.0057001002133,right,1.2778679998591542,8,0,0,99,0.48000000000000004,-0.32,right,1.1944670998491347,,,,,,,,,,,,,,,,,,,,,,,,,,,,,,,,,,,,,,,,,,,,,,,,,,,,,,,,,,,,XQ783R,train_x,red_square,bottom_left,2025-05-02_11h25.56.806,HideSeek_v1,2022.2.5,59.95113985376908,
,2,1,7,1,5,0,66,,train_dim1_1,18,30,,,,2,0,2,0,,,,,,,,,0,0,0,0,0,17,17,17,6,0,6,0,,,,,,,,,,,,,,,,,,,,,,,,,,,,,,,,,,,,,,,,,,,,,,,,,,,,,,,,,,,,,,,,30,,,,,,,,2656.2897815001197,2656.2897815001197,2656.2897815001197,2656.2897815001197,2656.2897815001197,return,3.4459745003841817,8,1,0,0,0.48000000000000004,-0.32,return,3.364466200117022,0,56,0.48000000000000004,-0.32,,,,,,,,,,,,,,,,,,,,,,,,,,,,,,,,,,,,,,,,,,,,,,,,,,,,,,,,XQ783R,train_x,red_square,bottom_left,2025-05-02_11h25.56.806,HideSeek_v1,2022.2.5,59.95113985376908,
,0,3,3,3,3,0,46,,train_dim1_1,19,30,,,,2,0,2,0,,,,,,,,,0,0,0,0,0,18,18,18,0,0,0,0,,,,,,,,,,,,,,,,,,,,,,,,,stimuli/alien_stimuli/46.png,,,,,,,,,,,,,,,,,,,,,,,,,,,,,stimuli/alien_stimuli/66.png,66,2,20,,,,,,,30,,,,,,,,2665.0267399000004,2665.0267399000004,2665.0267399000004,2665.0267399000004,2665.0267399000004,right,7.327845599967986,8,1,0,99,-0.08,-0.16,right,7.224954400211573,,,,,2663.44971440034,2665.0267399000004,0.4,-0.32,0.0,0.4,-0.32,0.4,0.2,0.4,-0.32,2661.3083721003495,2661.3083721003495,2661.3083721003495,2661.3083721003495,2661.3083721003495,2661.3083721003495,2661.3083721003495,2661.3083721003495,2661.29766018996,2.2545972000807524,return,2.120988499838859,,,,,,,,,,,,,,,,,,,,,,,,,,,,,,,,,XQ783R,train_x,red_square,bottom_left,2025-05-02_11h25.56.806,HideSeek_v1,2022.2.5,59.95113985376908,
,0,3,3,3,3,0,46,,train_dim1_1,19,30,,,,2,0,2,0,,,,,,,,,0,0,0,0,0,18,18,18,1,0,1,0,,,,,,,,,,,,,,,,,,,,,,,,,,,,,,,,,,,,,,,,,,,,,,,,,,,,,,,,,,,,,,,,30,,,,,,,,2672.3408407000825,2672.3408407000825,2672.3408407000825,2672.3408407000825,2672.3408407000825,right,0.5765255000442266,8,1,0,99,0.0,-0.16,right,0.48497739993035793,,,,,,,,,,,,,,,,,,,,,,,,,,,,,,,,,,,,,,,,,,,,,,,,,,,,,,,,,,,,XQ783R,train_x,red_square,bottom_left,2025-05-02_11h25.56.806,HideSeek_v1,2022.2.5,59.95113985376908,
,0,3,3,3,3,0,46,,train_dim1_1,19,30,,,,2,0,2,0,,,,,,,,,0,0,0,0,0,18,18,18,2,0,2,0,,,,,,,,,,,,,,,,,,,,,,,,,,,,,,,,,,,,,,,,,,,,,,,,,,,,,,,,,,,,,,,,30,,,,,,,,2672.9233428002335,2672.9233428002335,2672.9233428002335,2672.9233428002335,2672.9233428002335,return,1.8943518004380167,8,1,0,0,0.0,-0.16,return,1.8101588999852538,0,58,0.0,-0.16,,,,,,,,,,,,,,,,,,,,,,,,,,,,,,,,,,,,,,,,,,,,,,,,,,,,,,,,XQ783R,train_x,red_square,bottom_left,2025-05-02_11h25.56.806,HideSeek_v1,2022.2.5,59.95113985376908,
,0,1,0,1,0,0,16,,train_dim1_1,20,30,,,,2,0,2,0,,,,,,,,,0,0,0,0,0,19,19,19,0,0,0,0,,,,,,,,,,,,,,,,,,,,,,,,,stimuli/alien_stimuli/16.png,,,,,,,,,,,,,,,,,,,,,,,,,,,,,stimuli/alien_stimuli/46.png,46,0,21,,,,,,,30,,,,,,,,2681.8275421001017,2681.8275421001017,2681.8275421001017,2681.8275421001017,2681.8275421001017,return,2.691661899909377,9,0,0,1,-0.16,-0.32,return,2.5962867001071572,0,58,-0.16,-0.32,2680.263663300313,2681.8275421001017,0.08,-0.16,0.0,0.24,-0.16,0.08,-0.04,0.08,-0.16,2676.3839475000277,2676.3839475000277,2676.3839475000277,2676.3839475000277,2676.3839475000277,2676.3839475000277,2676.3839475000277,2676.3839475000277,2676.3770773902534,3.9888615999370813,return,3.8580964002758265,,,,,,,,,,,,,,,,,,,,,,,,,,,,,,,,,XQ783R,train_x,red_square,bottom_left,2025-05-02_11h25.56.806,HideSeek_v1,2022.2.5,59.95113985376908,
,4,2,7,2,3,0,46,,train_dim1_1,21,30,,,,2,0,2,0,,,,,,,,,0,0,0,0,0,20,20,20,0,0,0,0,,,,,,,,,,,,,,,,,,,,,,,,,stimuli/alien_stimuli/46.png,,,,,,,,,,,,,,,,,,,,,,,,,,,,,stimuli/alien_stimuli/16.png,16,0,22,,,,,,,30,,,,,,,,2690.2454411000945,2690.2454411000945,2690.2454411000945,2690.2454411000945,2690.2454411000945,right,8.512829599902034,9,0,0,99,0.24,-0.24,right,8.42601660033688,,,,,2688.6874430002645,2690.2454411000945,-0.16,-0.32,0.0,0.0,-0.32,-0.16,-0.16,-0.16,-0.32,2686.0914078000933,2686.0914078000933,2686.0914078000933,2686.0914078000933,2686.0914078000933,2686.0914078000933,2686.0914078000933,2686.0914078000933,2686.085220560152,2.721271200105548,return,2.5757782999426126,,,,,,,,,,,,,,,,,,,,,,,,,,,,,,,,,XQ783R,train_x,red_square,bottom_left,2025-05-02_11h25.56.806,HideSeek_v1,2022.2.5,59.95113985376908,
,4,2,7,2,3,0,46,,train_dim1_1,21,30,,,,2,0,2,0,,,,,,,,,0,0,0,0,0,20,20,20,1,0,1,0,,,,,,,,,,,,,,,,,,,,,,,,,,,,,,,,,,,,,,,,,,,,,,,,,,,,,,,,,,,,,,,,30,,,,,,,,2698.7609810000286,2698.7609810000286,2698.7609810000286,2698.7609810000286,2698.7609810000286,right,1.2268098001368344,9,0,0,99,0.32,-0.24,right,1.136972100008279,,,,,,,,,,,,,,,,,,,,,,,,,,,,,,,,,,,,,,,,,,,,,,,,,,,,,,,,,,,,XQ783R,train_x,red_square,bottom_left,2025-05-02_11h25.56.806,HideSeek_v1,2022.2.5,59.95113985376908,
,4,2,7,2,3,0,46,,train_dim1_1,21,30,,,,2,0,2,0,,,,,,,,,0,0,0,0,0,20,20,20,2,0,2,0,,,,,,,,,,,,,,,,,,,,,,,,,,,,,,,,,,,,,,,,,,,,,,,,,,,,,,,,,,,,,,,,30,,,,,,,,2699.993969300296,2699.993969300296,2699.993969300296,2699.993969300296,2699.993969300296,right,0.9768052003346384,9,0,0,99,0.4,-0.24,right,0.8960210997611284,,,,,,,,,,,,,,,,,,,,,,,,,,,,,,,,,,,,,,,,,,,,,,,,,,,,,,,,,,,,XQ783R,train_x,red_square,bottom_left,2025-05-02_11h25.56.806,HideSeek_v1,2022.2.5,59.95113985376908,
,4,2,7,2,3,0,46,,train_dim1_1,21,30,,,,2,0,2,0,,,,,,,,,0,0,0,0,0,20,20,20,3,0,3,0,,,,,,,,,,,,,,,,,,,,,,,,,,,,,,,,,,,,,,,,,,,,,,,,,,,,,,,,,,,,,,,,30,,,,,,,,2700.986523200292,2700.986523200292,2700.986523200292,2700.986523200292,2700.986523200292,return,3.1958713000640273,10,0,0,1,0.4,-0.24,return,3.1078866003081203,0,61,0.4,-0.24,,,,,,,,,,,,,,,,,,,,,,,,,,,,,,,,,,,,,,,,,,,,,,,,,,,,,,,,XQ783R,train_x,red_square,bottom_left,2025-05-02_11h25.56.806,HideSeek_v1,2022.2.5,59.95113985376908,
,1,0,2,0,1,0,26,,train_dim1_1,22,30,,,,2,0,2,0,,,,,,,,,0,0,0,0,0,21,21,21,0,0,0,0,,,,,,,,,,,,,,,,,,,,,,,,,stimuli/alien_stimuli/26.png,,,,,,,,,,,,,,,,,,,,,,,,,,,,,stimuli/alien_stimuli/46.png,46,4,23,,,,,,,30,,,,,,,,2709.3809295999818,2709.3809295999818,2709.3809295999818,2709.3809295999818,2709.3809295999818,right,3.2752551999874413,10,0,0,99,0.0,-0.4,right,3.1680272999219596,,,,,2707.80315740034,2709.3809295999818,0.4,-0.24,0.0,0.24,-0.24,0.4,0.28,0.4,-0.24,2705.742204700131,2705.742204700131,2705.742204700131,2705.742204700131,2705.742204700131,2705.742204700131,2705.742204700131,2705.742204700131,2705.7346717899663,2.170969999860972,return,2.0408459999598563,,,,,,,,,,,,,,,,,,,,,,,,,,,,,,,,,XQ783R,train_x,red_square,bottom_left,2025-05-02_11h25.56.806,HideSeek_v1,2022.2.5,59.95113985376908,
,1,0,2,0,1,0,26,,train_dim1_1,22,30,,,,2,0,2,0,,,,,,,,,0,0,0,0,0,21,21,21,1,0,1,0,,,,,,,,,,,,,,,,,,,,,,,,,,,,,,,,,,,,,,,,,,,,,,,,,,,,,,,,,,,,,,,,30,,,,,,,,2712.6415258999914,2712.6415258999914,2712.6415258999914,2712.6415258999914,2712.6415258999914,return,1.6440485999919474,11,0,0,1,0.0,-0.4,return,1.5590634001418948,0,62,0.0,-0.4,,,,,,,,,,,,,,,,,,,,,,,,,,,,,,,,,,,,,,,,,,,,,,,,,,,,,,,,XQ783R,train_x,red_square,bottom_left,2025-05-02_11h25.56.806,HideSeek_v1,2022.2.5,59.95113985376908,
,2,1,7,1,5,0,66,,train_dim1_1,23,30,,,,2,0,2,0,,,,,,,,,0,0,0,0,0,22,22,22,0,0,0,0,,,,,,,,,,,,,,,,,,,,,,,,,stimuli/alien_stimuli/66.png,,,,,,,,,,,,,,,,,,,,,,,,,,,,,stimuli/alien_stimuli/26.png,26,1,24,,,,,,,30,,,,,,,,2719.239080199972,2719.239080199972,2719.239080199972,2719.239080199972,2719.239080199972,right,3.1238745003938675,11,0,0,99,0.08,-0.32,right,3.026851700153202,,,,,2717.6614626999944,2719.239080199972,0,-0.4,0.0,0.08,-0.4,0,-0.04,0,-0.4,2715.8539050002582,2715.8539050002582,2715.8539050002582,2715.8539050002582,2715.8539050002582,2715.8539050002582,2715.8539050002582,2715.8539050002582,2715.8429624902083,1.9208488003350794,return,1.7900594999082386,,,,,,,,,,,,,,,,,,,,,,,,,,,,,,,,,XQ783R,train_x,red_square,bottom_left,2025-05-02_11h25.56.806,HideSeek_v1,2022.2.5,59.95113985376908,
,2,1,7,1,5,0,66,,train_dim1_1,23,30,,,,2,0,2,0,,,,,,,,,0,0,0,0,0,22,22,22,1,0,1,0,,,,,,,,,,,,,,,,,,,,,,,,,,,,,,,,,,,,,,,,,,,,,,,,,,,,,,,,,,,,,,,,30,,,,,,,,2722.345619600266,2722.345619600266,2722.345619600266,2722.345619600266,2722.345619600266,right,1.7938037002459168,11,0,0,99,0.16,-0.32,right,1.7164827999658883,,,,,,,,,,,,,,,,,,,,,,,,,,,,,,,,,,,,,,,,,,,,,,,,,,,,,,,,,,,,XQ783R,train_x,red_square,bottom_left,2025-05-02_11h25.56.806,HideSeek_v1,2022.2.5,59.95113985376908,
,2,1,7,1,5,0,66,,train_dim1_1,23,30,,,,2,0,2,0,,,,,,,,,0,0,0,0,0,22,22,22,2,0,2,0,,,,,,,,,,,,,,,,,,,,,,,,,,,,,,,,,,,,,,,,,,,,,,,,,,,,,,,,,,,,,,,,30,,,,,,,,2724.1466085002758,2724.1466085002758,2724.1466085002758,2724.1466085002758,2724.1466085002758,right,1.1607063999399543,11,0,0,99,0.24,-0.32,right,1.0846496000885963,,,,,,,,,,,,,,,,,,,,,,,,,,,,,,,,,,,,,,,,,,,,,,,,,,,,,,,,,,,,XQ783R,train_x,red_square,bottom_left,2025-05-02_11h25.56.806,HideSeek_v1,2022.2.5,59.95113985376908,
,2,1,7,1,5,0,66,,train_dim1_1,23,30,,,,2,0,2,0,,,,,,,,,0,0,0,0,0,22,22,22,3,0,3,0,,,,,,,,,,,,,,,,,,,,,,,,,,,,,,,,,,,,,,,,,,,,,,,,,,,,,,,,,,,,,,,,30,,,,,,,,2725.3141797003336,2725.3141797003336,2725.3141797003336,2725.3141797003336,2725.3141797003336,right,2.1951603000052273,11,0,0,99,0.32,-0.32,right,2.1068504001013935,,,,,,,,,,,,,,,,,,,,,,,,,,,,,,,,,,,,,,,,,,,,,,,,,,,,,,,,,,,,XQ783R,train_x,red_square,bottom_left,2025-05-02_11h25.56.806,HideSeek_v1,2022.2.5,59.95113985376908,
,2,1,7,1,5,0,66,,train_dim1_1,23,30,,,,2,0,2,0,,,,,,,,,0,0,0,0,0,22,22,22,4,0,4,0,,,,,,,,,,,,,,,,,,,,,,,,,,,,,,,,,,,,,,,,,,,,,,,,,,,,,,,,,,,,,,,,30,,,,,,,,2727.51791039994,2727.51791039994,2727.51791039994,2727.51791039994,2727.51791039994,right,6.164452400058508,11,0,0,99,0.4,-0.32,right,6.085765699855983,,,,,,,,,,,,,,,,,,,,,,,,,,,,,,,,,,,,,,,,,,,,,,,,,,,,,,,,,,,,XQ783R,train_x,red_square,bottom_left,2025-05-02_11h25.56.806,HideSeek_v1,2022.2.5,59.95113985376908,
,2,1,7,1,5,0,66,,train_dim1_1,23,30,,,,2,0,2,0,,,,,,,,,0,0,0,0,0,22,22,22,5,0,5,0,,,,,,,,,,,,,,,,,,,,,,,,,,,,,,,,,,,,,,,,,,,,,,,,,,,,,,,,,,,,,,,,30,,,,,,,,2733.6884758002125,2733.6884758002125,2733.6884758002125,2733.6884758002125,2733.6884758002125,return,0.9940498000942171,12,0,0,1,0.4,-0.32,return,0.9156365999951959,0,67,0.4,-0.32,,,,,,,,,,,,,,,,,,,,,,,,,,,,,,,,,,,,,,,,,,,,,,,,,,,,,,,,XQ783R,train_x,red_square,bottom_left,2025-05-02_11h25.56.806,HideSeek_v1,2022.2.5,59.95113985376908,
,4,4,8,4,4,0,56,,train_dim1_1,24,30,,,,2,0,2,0,,,,,,,,,0,0,0,0,0,23,23,23,0,0,0,0,,,,,,,,,,,,,,,,,,,,,,,,,stimuli/alien_stimuli/56.png,,,,,,,,,,,,,,,,,,,,,,,,,,,,,stimuli/alien_stimuli/66.png,66,2,25,,,,,,,30,,,,,,,,2739.9035057001747,2739.9035057001747,2739.9035057001747,2739.9035057001747,2739.9035057001747,right,3.2583042001351714,12,0,0,99,0.24,-0.08,right,3.150842100381851,,,,,2738.32845130004,2739.9035057001747,0.4,-0.32,0.0,0.4,-0.32,0.4,0.2,0.4,-0.32,2736.2666763002053,2736.2666763002053,2736.2666763002053,2736.2666763002053,2736.2666763002053,2736.2666763002053,2736.2666763002053,2736.2666763002053,2736.243702790048,2.1871615001000464,return,2.0335471997968853,,,,,,,,,,,,,,,,,,,,,,,,,,,,,,,,,XQ783R,train_x,red_square,bottom_left,2025-05-02_11h25.56.806,HideSeek_v1,2022.2.5,59.95113985376908,
,4,4,8,4,4,0,56,,train_dim1_1,24,30,,,,2,0,2,0,,,,,,,,,0,0,0,0,0,23,23,23,1,0,1,0,,,,,,,,,,,,,,,,,,,,,,,,,,,,,,,,,,,,,,,,,,,,,,,,,,,,,,,,,,,,,,,,30,,,,,,,,2743.1484018000774,2743.1484018000774,2743.1484018000774,2743.1484018000774,2743.1484018000774,right,1.3438733001239598,12,0,0,99,0.32,-0.08,right,1.2612423999235034,,,,,,,,,,,,,,,,,,,,,,,,,,,,,,,,,,,,,,,,,,,,,,,,,,,,,,,,,,,,XQ783R,train_x,red_square,bottom_left,2025-05-02_11h25.56.806,HideSeek_v1,2022.2.5,59.95113985376908,
,4,4,8,4,4,0,56,,train_dim1_1,24,30,,,,2,0,2,0,,,,,,,,,0,0,0,0,0,23,23,23,2,0,2,0,,,,,,,,,,,,,,,,,,,,,,,,,,,,,,,,,,,,,,,,,,,,,,,,,,,,,,,,,,,,,,,,30,,,,,,,,2744.49892680021,2744.49892680021,2744.49892680021,2744.49892680021,2744.49892680021,right,1.4773412002250552,12,0,0,99,0.4,-0.08,right,1.3979427004233003,,,,,,,,,,,,,,,,,,,,,,,,,,,,,,,,,,,,,,,,,,,,,,,,,,,,,,,,,,,,XQ783R,train_x,red_square,bottom_left,2025-05-02_11h25.56.806,HideSeek_v1,2022.2.5,59.95113985376908,
,4,4,8,4,4,0,56,,train_dim1_1,24,30,,,,2,0,2,0,,,,,,,,,0,0,0,0,0,23,23,23,3,0,3,0,,,,,,,,,,,,,,,,,,,,,,,,,,,,,,,,,,,,,,,,,,,,,,,,,,,,,,,,,,,,,,,,30,,,,,,,,2745.982711300254,2745.982711300254,2745.982711300254,2745.982711300254,2745.982711300254,right,5.181376199703664,12,0,0,99,0.48000000000000004,-0.08,right,5.107287699822336,,,,,,,,,,,,,,,,,,,,,,,,,,,,,,,,,,,,,,,,,,,,,,,,,,,,,,,,,,,,XQ783R,train_x,red_square,bottom_left,2025-05-02_11h25.56.806,HideSeek_v1,2022.2.5,59.95113985376908,
,4,4,8,4,4,0,56,,train_dim1_1,24,30,,,,2,0,2,0,,,,,,,,,0,0,0,0,0,23,23,23,4,0,4,0,,,,,,,,,,,,,,,,,,,,,,,,,,,,,,,,,,,,,,,,,,,,,,,,,,,,,,,,,,,,,,,,30,,,,,,,,2751.1841653003357,2751.1841653003357,2751.1841653003357,2751.1841653003357,2751.1841653003357,return,0.4766623000614345,13,0,0,1,0.48000000000000004,-0.08,return,0.3746072999201715,0,71,0.48000000000000004,-0.08,,,,,,,,,,,,,,,,,,,,,,,,,,,,,,,,,,,,,,,,,,,,,,,,,,,,,,,,XQ783R,train_x,red_square,bottom_left,2025-05-02_11h25.56.806,HideSeek_v1,2022.2.5,59.95113985376908,
,3,0,3,0,0,0,16,,train_dim1_1,25,30,,,,2,0,2,0,,,,,,,,,0,0,0,0,0,24,24,24,0,0,0,0,,,,,,,,,,,,,,,,,,,,,,,,,stimuli/alien_stimuli/16.png,,,,,,,,,,,,,,,,,,,,,,,,,,,,,stimuli/alien_stimuli/56.png,56,4,26,,,,,,,30,,,,,,,,2756.608889900148,2756.608889900148,2756.608889900148,2756.608889900148,2756.608889900148,return,2.47425359999761,14,0,0,1,0.08,-0.4,return,2.3628348000347614,0,71,0.08,-0.4,2755.0259628999047,2756.608889900148,0.48,-0.08,0.0,0.32,-0.08,0.48,0.32,0.48,-0.08,2753.228942000307,2753.228942000307,2753.228942000307,2753.228942000307,2753.228942000307,2753.228942000307,2753.228942000307,2753.228942000307,2753.207591490168,1.92016869969666,return,1.7736491998657584,,,,,,,,,,,,,,,,,,,,,,,,,,,,,,,,,XQ783R,train_x,red_square,bottom_left,2025-05-02_11h25.56.806,HideSeek_v1,2022.2.5,59.95113985376908,
,1,1,6,1,5,0,66,,train_dim1_1,26,30,,,,2,0,2,0,,,,,,,,,0,0,0,0,0,25,25,25,0,0,0,0,,,,,,,,,,,,,,,,,,,,,,,,,stimuli/alien_stimuli/66.png,,,,,,,,,,,,,,,,,,,,,,,,,,,,,stimuli/alien_stimuli/16.png,16,3,27,,,,,,,30,,,,,,,,2764.1577792000026,2764.1577792000026,2764.1577792000026,2764.1577792000026,2764.1577792000026,right,4.158938399981707,14,0,0,99,0.0,-0.32,right,4.074857899919152,,,,,2762.5985572999343,2764.1577792000026,0.08,-0.4,0.0,0.0,-0.4,0.08,0.08,0.08,-0.4,2760.622454999946,2760.622454999946,2760.622454999946,2760.622454999946,2760.622454999946,2760.622454999946,2760.622454999946,2760.622454999946,2760.613547189906,2.0875470000319183,return,1.9512767996639013,,,,,,,,,,,,,,,,,,,,,,,,,,,,,,,,,XQ783R,train_x,red_square,bottom_left,2025-05-02_11h25.56.806,HideSeek_v1,2022.2.5,59.95113985376908,
,1,1,6,1,5,0,66,,train_dim1_1,26,30,,,,2,0,2,0,,,,,,,,,0,0,0,0,0,25,25,25,1,0,1,0,,,,,,,,,,,,,,,,,,,,,,,,,,,,,,,,,,,,,,,,,,,,,,,,,,,,,,,,,,,,,,,,30,,,,,,,,2768.319770100061,2768.319770100061,2768.319770100061,2768.319770100061,2768.319770100061,right,0.5098852999508381,14,0,0,99,0.08,-0.32,right,0.4245170997455716,,,,,,,,,,,,,,,,,,,,,,,,,,,,,,,,,,,,,,,,,,,,,,,,,,,,,,,,,,,,XQ783R,train_x,red_square,bottom_left,2025-05-02_11h25.56.806,HideSeek_v1,2022.2.5,59.95113985376908,
,1,1,6,1,5,0,66,,train_dim1_1,26,30,,,,2,0,2,0,,,,,,,,,0,0,0,0,0,25,25,25,2,0,2,0,,,,,,,,,,,,,,,,,,,,,,,,,,,,,,,,,,,,,,,,,,,,,,,,,,,,,,,,,,,,,,,,30,,,,,,,,2768.8326122001745,2768.8326122001745,2768.8326122001745,2768.8326122001745,2768.8326122001745,right,0.6434826999902725,14,0,0,99,0.16,-0.32,right,0.5576566997915506,,,,,,,,,,,,,,,,,,,,,,,,,,,,,,,,,,,,,,,,,,,,,,,,,,,,,,,,,,,,XQ783R,train_x,red_square,bottom_left,2025-05-02_11h25.56.806,HideSeek_v1,2022.2.5,59.95113985376908,
,1,1,6,1,5,0,66,,train_dim1_1,26,30,,,,2,0,2,0,,,,,,,,,0,0,0,0,0,25,25,25,3,0,3,0,,,,,,,,,,,,,,,,,,,,,,,,,,,,,,,,,,,,,,,,,,,,,,,,,,,,,,,,,,,,,,,,30,,,,,,,,2769.4840008001775,2769.4840008001775,2769.4840008001775,2769.4840008001775,2769.4840008001775,right,0.6603053002618253,14,0,0,99,0.24,-0.32,right,0.5759136001579463,,,,,,,,,,,,,,,,,,,,,,,,,,,,,,,,,,,,,,,,,,,,,,,,,,,,,,,,,,,,XQ783R,train_x,red_square,bottom_left,2025-05-02_11h25.56.806,HideSeek_v1,2022.2.5,59.95113985376908,
,1,1,6,1,5,0,66,,train_dim1_1,26,30,,,,2,0,2,0,,,,,,,,,0,0,0,0,0,25,25,25,4,0,4,0,,,,,,,,,,,,,,,,,,,,,,,,,,,,,,,,,,,,,,,,,,,,,,,,,,,,,,,,,,,,,,,,30,,,,,,,,2770.151223800145,2770.151223800145,2770.151223800145,2770.151223800145,2770.151223800145,return,1.1608230001293123,14,1,0,0,0.24,-0.32,return,1.0826750001870096,0,75,0.24,-0.32,,,,,,,,,,,,,,,,,,,,,,,,,,,,,,,,,,,,,,,,,,,,,,,,,,,,,,,,XQ783R,train_x,red_square,bottom_left,2025-05-02_11h25.56.806,HideSeek_v1,2022.2.5,59.95113985376908,
,0,1,3,1,3,0,46,,train_dim1_1,27,30,,,,2,0,2,0,,,,,,,,,0,0,0,0,0,26,26,26,0,0,0,0,,,,,,,,,,,,,,,,,,,,,,,,,stimuli/alien_stimuli/46.png,,,,,,,,,,,,,,,,,,,,,,,,,,,,,stimuli/alien_stimuli/66.png,66,1,28,,,,,,,30,,,,,,,,2776.6171888001263,2776.6171888001263,2776.6171888001263,2776.6171888001263,2776.6171888001263,right,4.976695300079882,14,1,0,99,-0.08,-0.32,right,4.867437299806625,,,,,2775.0422872002237,2776.6171888001263,0.32,-0.32,0.0,0.4,-0.32,0.32,0.12,0.32,-0.32,2772.89428650029,2772.89428650029,2772.89428650029,2772.89428650029,2772.89428650029,2772.89428650029,2772.89428650029,2772.89428650029,2772.8737903901374,2.270898299757391,return,2.1297553000040352,,,,,,,,,,,,,,,,,,,,,,,,,,,,,,,,,XQ783R,train_x,red_square,bottom_left,2025-05-02_11h25.56.806,HideSeek_v1,2022.2.5,59.95113985376908,
,0,1,3,1,3,0,46,,train_dim1_1,27,30,,,,2,0,2,0,,,,,,,,,0,0,0,0,0,26,26,26,1,0,1,0,,,,,,,,,,,,,,,,,,,,,,,,,,,,,,,,,,,,,,,,,,,,,,,,,,,,,,,,,,,,,,,,30,,,,,,,,2781.579112400301,2781.579112400301,2781.579112400301,2781.579112400301,2781.579112400301,right,0.7936645001173019,14,1,0,99,0.0,-0.32,right,0.7094032997265458,,,,,,,,,,,,,,,,,,,,,,,,,,,,,,,,,,,,,,,,,,,,,,,,,,,,,,,,,,,,XQ783R,train_x,red_square,bottom_left,2025-05-02_11h25.56.806,HideSeek_v1,2022.2.5,59.95113985376908,
,0,1,3,1,3,0,46,,train_dim1_1,27,30,,,,2,0,2,0,,,,,,,,,0,0,0,0,0,26,26,26,2,0,2,0,,,,,,,,,,,,,,,,,,,,,,,,,,,,,,,,,,,,,,,,,,,,,,,,,,,,,,,,,,,,,,,,30,,,,,,,,2782.3783690002747,2782.3783690002747,2782.3783690002747,2782.3783690002747,2782.3783690002747,right,1.4773676004260778,14,1,0,99,0.08,-0.32,right,1.4001214997842908,,,,,,,,,,,,,,,,,,,,,,,,,,,,,,,,,,,,,,,,,,,,,,,,,,,,,,,,,,,,XQ783R,train_x,red_square,bottom_left,2025-05-02_11h25.56.806,HideSeek_v1,2022.2.5,59.95113985376908,
,0,1,3,1,3,0,46,,train_dim1_1,27,30,,,,2,0,2,0,,,,,,,,,0,0,0,0,0,26,26,26,3,0,3,0,,,,,,,,,,,,,,,,,,,,,,,,,,,,,,,,,,,,,,,,,,,,,,,,,,,,,,,,,,,,,,,,30,,,,,,,,2783.865169700235,2783.865169700235,2783.865169700235,2783.865169700235,2783.865169700235,right,2.7454950003884733,14,1,0,99,0.16,-0.32,right,2.6592351999133825,,,,,,,,,,,,,,,,,,,,,,,,,,,,,,,,,,,,,,,,,,,,,,,,,,,,,,,,,,,,XQ783R,train_x,red_square,bottom_left,2025-05-02_11h25.56.806,HideSeek_v1,2022.2.5,59.95113985376908,
,0,1,3,1,3,0,46,,train_dim1_1,27,30,,,,2,0,2,0,,,,,,,,,0,0,0,0,0,26,26,26,4,0,4,0,,,,,,,,,,,,,,,,,,,,,,,,,,,,,,,,,,,,,,,,,,,,,,,,,,,,,,,,,,,,,,,,30,,,,,,,,2786.6171061000787,2786.6171061000787,2786.6171061000787,2786.6171061000787,2786.6171061000787,return,0.6270881001837552,14,1,0,0,0.16,-0.32,return,0.5524924998171628,0,79,0.16,-0.32,,,,,,,,,,,,,,,,,,,,,,,,,,,,,,,,,,,,,,,,,,,,,,,,,,,,,,,,XQ783R,train_x,red_square,bottom_left,2025-05-02_11h25.56.806,HideSeek_v1,2022.2.5,59.95113985376908,
,3,1,4,1,1,0,26,,train_dim1_1,28,30,,,,2,0,2,0,,,,,,,,,0,0,0,0,0,27,27,27,0,0,0,0,,,,,,,,,,,,,,,,,,,,,,,,,stimuli/alien_stimuli/26.png,,,,,,,,,,,,,,,,,,,,,,,,,,,,,stimuli/alien_stimuli/46.png,46,0,29,,,,,,,30,,,,,,,,2792.8679228001274,2792.8679228001274,2792.8679228001274,2792.8679228001274,2792.8679228001274,right,2.3911342001520097,14,1,0,99,0.16,-0.32,right,2.266731900162995,,,,,2791.2724431003444,2792.8679228001274,0.08,-0.32,0.0,0.24,-0.32,0.08,-0.04,0.08,-0.32,2788.8304369999096,2788.8304369999096,2788.8304369999096,2788.8304369999096,2788.8304369999096,2788.8304369999096,2788.8304369999096,2788.8304369999096,2788.820294460002,2.5714366999454796,return,2.4208370996639132,,,,,,,,,,,,,,,,,,,,,,,,,,,,,,,,,XQ783R,train_x,red_square,bottom_left,2025-05-02_11h25.56.806,HideSeek_v1,2022.2.5,59.95113985376908,
,3,1,4,1,1,0,26,,train_dim1_1,28,30,,,,2,0,2,0,,,,,,,,,0,0,0,0,0,27,27,27,1,0,1,0,,,,,,,,,,,,,,,,,,,,,,,,,,,,,,,,,,,,,,,,,,,,,,,,,,,,,,,,,,,,,,,,30,,,,,,,,2795.2462695003487,2795.2462695003487,2795.2462695003487,2795.2462695003487,2795.2462695003487,return,0.45946399960666895,15,0,0,1,0.16,-0.32,return,0.3506422000937164,0,80,0.16,-0.32,,,,,,,,,,,,,,,,,,,,,,,,,,,,,,,,,,,,,,,,,,,,,,,,,,,,,,,,XQ783R,train_x,red_square,bottom_left,2025-05-02_11h25.56.806,HideSeek_v1,2022.2.5,59.95113985376908,
,4,0,8,0,4,0,56,,train_dim1_1,29,30,,,,2,0,2,0,,,,,,,,,0,0,0,0,0,28,28,28,0,0,0,0,,,,,,,,,,,,,,,,,,,,,,,,,stimuli/alien_stimuli/56.png,,,,,,,,,,,,,,,,,,,,,,,,,,,,,stimuli/alien_stimuli/26.png,26,3,30,,,,,,,30,,,,,,,,2800.3411678001285,2800.3411678001285,2800.3411678001285,2800.3411678001285,2800.3411678001285,right,5.077018899843097,15,0,0,99,0.24,-0.4,right,4.976332700345665,,,,,2798.7616828000173,2800.3411678001285,0.16,-0.32,0.0,0.08,-0.32,0.16,0.12,0.16,-0.32,2797.2509075002745,2797.2509075002745,2797.2509075002745,2797.2509075002745,2797.2509075002745,2797.2509075002745,2797.2509075002745,2797.2509075002745,2797.244120490085,1.6200182996690273,return,1.4898152998648584,,,,,,,,,,,,,,,,,,,,,,,,,,,,,,,,,XQ783R,train_x,red_square,bottom_left,2025-05-02_11h25.56.806,HideSeek_v1,2022.2.5,59.95113985376908,
,4,0,8,0,4,0,56,,train_dim1_1,29,30,,,,2,0,2,0,,,,,,,,,0,0,0,0,0,28,28,28,1,0,1,0,,,,,,,,,,,,,,,,,,,,,,,,,,,,,,,,,,,,,,,,,,,,,,,,,,,,,,,,,,,,,,,,30,,,,,,,,2805.39987329999,2805.39987329999,2805.39987329999,2805.39987329999,2805.39987329999,right,1.0267466004006565,15,0,0,99,0.32,-0.4,right,0.9395766002126038,,,,,,,,,,,,,,,,,,,,,,,,,,,,,,,,,,,,,,,,,,,,,,,,,,,,,,,,,,,,XQ783R,train_x,red_square,bottom_left,2025-05-02_11h25.56.806,HideSeek_v1,2022.2.5,59.95113985376908,
,4,0,8,0,4,0,56,,train_dim1_1,29,30,,,,2,0,2,0,,,,,,,,,0,0,0,0,0,28,28,28,2,0,2,0,,,,,,,,,,,,,,,,,,,,,,,,,,,,,,,,,,,,,,,,,,,,,,,,,,,,,,,,,,,,,,,,30,,,,,,,,2806.435038200114,2806.435038200114,2806.435038200114,2806.435038200114,2806.435038200114,right,2.427572099957615,15,0,0,99,0.4,-0.4,right,2.3506184997968376,,,,,,,,,,,,,,,,,,,,,,,,,,,,,,,,,,,,,,,,,,,,,,,,,,,,,,,,,,,,XQ783R,train_x,red_square,bottom_left,2025-05-02_11h25.56.806,HideSeek_v1,2022.2.5,59.95113985376908,
,4,0,8,0,4,0,56,,train_dim1_1,29,30,,,,2,0,2,0,,,,,,,,,0,0,0,0,0,28,28,28,3,0,3,0,,,,,,,,,,,,,,,,,,,,,,,,,,,,,,,,,,,,,,,,,,,,,,,,,,,,,,,,,,,,,,,,30,,,,,,,,2808.8708553002216,2808.8708553002216,2808.8708553002216,2808.8708553002216,2808.8708553002216,right,3.2791245002299547,15,0,0,99,0.48000000000000004,-0.4,right,3.202553499955684,,,,,,,,,,,,,,,,,,,,,,,,,,,,,,,,,,,,,,,,,,,,,,,,,,,,,,,,,,,,XQ783R,train_x,red_square,bottom_left,2025-05-02_11h25.56.806,HideSeek_v1,2022.2.5,59.95113985376908,
,4,0,8,0,4,0,56,,train_dim1_1,29,30,,,,2,0,2,0,,,,,,,,,0,0,0,0,0,28,28,28,4,0,4,0,,,,,,,,,,,,,,,,,,,,,,,,,,,,,,,,,,,,,,,,,,,,,,,,,,,,,,,,,,,,,,,,30,,,,,,,,2812.1558276000433,2812.1558276000433,2812.1558276000433,2812.1558276000433,2812.1558276000433,return,0.8263449999503791,16,0,0,1,0.48000000000000004,-0.4,return,0.7452800003811717,0,84,0.48000000000000004,-0.4,,,,,,,,,,,,,,,,,,,,,,,,,,,,,,,,,,,,,,,,,,,,,,,,,,,,,,,,XQ783R,train_x,red_square,bottom_left,2025-05-02_11h25.56.806,HideSeek_v1,2022.2.5,59.95113985376908,
,2,2,2,2,0,0,16,,train_dim1_1,30,30,,,,2,0,2,0,,,,,,,,,0,0,0,0,0,29,29,29,0,0,0,0,,,,,,,,,,,,,,,,,,,,,,,,,stimuli/alien_stimuli/16.png,,,,,,,,,,,,,,,,,,,,,,,,,,,,,stimuli/alien_stimuli/56.png,56,4,31,,,,,,,30,,,,,,,,2818.171187700238,2818.171187700238,2818.171187700238,2818.171187700238,2818.171187700238,return,2.0408439999446273,17,0,0,1,0,-0.24,return,1.9351704996079206,0,84,0,-0.24,2816.5937590003014,2818.171187700238,0.48,-0.4,0.0,0.32,-0.4,0.48,0.32,0.48,-0.4,2814.560861899983,2814.560861899983,2814.560861899983,2814.560861899983,2814.560861899983,2814.560861899983,2814.560861899983,2814.560861899983,2814.5418810903093,2.1537007996812463,return,2.009725899901241,,,,,,,,,,,,,,,,,,,,,,,,,,,,,,,,,XQ783R,train_x,red_square,bottom_left,2025-05-02_11h25.56.806,HideSeek_v1,2022.2.5,59.95113985376908,
,,,,,,,,,,,30,,,,2,0,2,0,,,,,,,,,,,,,,,,,,,,,,,,,,,,,,,,,,,,,,,,,,,,,,,,,,,,,,,,,,,,,,,,,,,,,,,,,,stimuli/alien_stimuli/16.png,16,2,32,21,0.7,0.7083333333333335,1,1,1,30,0,conditions/schedules/train_x_first/red_square_00/bottom_left/inputTrain_2.1.xlsx,99,1,2,1,0,,,,,,,,,,,1,,,,,,,,,2823.2824125001207,2824.823633099906,0,-0.24,0.0,0.0,-0.24,0,0.0,0,-0.24,2821.7556344000623,2821.7556344000623,2821.7556344000623,2821.7556344000623,2821.7556344000623,2821.7556344000623,2821.7556344000623,2821.7556344000623,2821.7476568900047,1.6371944998390973,return,1.5052743996493518,0,0.9,0,1,17,,,,,,,,,,,,,,,,,,,,,,,,,,,,XQ783R,train_x,red_square,bottom_left,2025-05-02_11h25.56.806,HideSeek_v1,2022.2.5,59.95113985376908,
,,,,,,,,,,,,,,,3,0,3,0,0,0,0,0,,,,,,,,,,,,,,,,,,,,,,,,,,,,,,,conditions/schedules/train_x_first/red_square_00/bottom_left/instructions/Slide17.png,conditions/schedules/train_x_first/red_square_00/bottom_left/instructions/Audio17.wav,2824.823633099906,2824.8171796102074,17,"[3.195542700123042, 17.665531999897212, 16.26283030025661, 19.118635800201446, 4.7241317997686565, 4.7858904004096985, 5.586743600200862, 11.35577300004661, 5.736142700072378, 6.9005565997213125, 9.51991040026769, 12.55465540010482, 17.430994499940425, 13.159508000127971, 30.353754700161517, 20.855681600049138, 75.32023409986869]","[0.014377499930560589, 0.08258859999477863, 0.03606799989938736, 0.0870563997887075, 0.04870670009404421, 0.0983350002206862, 0.03127930033951998, 0.03192850016057491, 0.06186030013486743, 0.030404200311750174, 0.046921299770474434, 12.55466269981116, 17.431001199875027, 13.159518300089985, 0.12174999993294477, 20.855688999872655, 75.32024159980938]",0,,,,,,,,,,,,,,,,,,,,,,,,,,,,,,,,,,,,,,,,,,,,,,,,,,,,,,,,,,,,,,,,,,,,,,,,,,,,,,,,,,,,,,,,,,,,,,,,,,,,,,,,,,,,,,,,,,,,,,,,,,,,XQ783R,train_x,red_square,bottom_left,2025-05-02_11h25.56.806,HideSeek_v1,2022.2.5,59.95113985376908,
,,,,,,,,,,,,,,,3,0,3,0,1,0,1,0,,,,,,,,,,,,,,,,,,,,,,,,,,,,,,,conditions/schedules/train_x_first/red_square_00/bottom_left/instructions/Slide18.png,conditions/schedules/train_x_first/red_square_00/bottom_left/instructions/Audio18.wav,2900.202806300018,2900.196441580169,18,"[3.195542700123042, 17.665531999897212, 16.26283030025661, 19.118635800201446, 4.7241317997686565, 4.7858904004096985, 5.586743600200862, 11.35577300004661, 5.736142700072378, 6.9005565997213125, 9.51991040026769, 12.55465540010482, 17.430994499940425, 13.159508000127971, 30.353754700161517, 20.855681600049138, 75.32023409986869, 6.4288726998493075]","[0.014377499930560589, 0.08258859999477863, 0.03606799989938736, 0.0870563997887075, 0.04870670009404421, 0.0983350002206862, 0.03127930033951998, 0.03192850016057491, 0.06186030013486743, 0.030404200311750174, 0.046921299770474434, 12.55466269981116, 17.431001199875027, 13.159518300089985, 0.12174999993294477, 20.855688999872655, 0.00023589981719851494, 6.428879200015217]",0,,,,,,,,,,,,,,,,,,,,,,,,,,,,,,,,,,,,,,,,,,,,,,,,,,,,,,,,,,,,,,,,,,,,,,,,,,,,,,,,,,,,,,,,,,,,,,,,,,,,,,,,,,,,,,,,,,,,,,,,,,,,XQ783R,train_x,red_square,bottom_left,2025-05-02_11h25.56.806,HideSeek_v1,2022.2.5,59.95113985376908,
,,,,,,,,,,,,,,,3,0,3,0,2,0,2,0,,,,,,,,,,,,,,,,,,,,,,,,,,,,,,,conditions/schedules/train_x_first/red_square_00/bottom_left/instructions/Slide19.png,conditions/schedules/train_x_first/red_square_00/bottom_left/instructions/Audio19.wav,2906.6710703000426,2906.66846370995,19,"[3.195542700123042, 17.665531999897212, 16.26283030025661, 19.118635800201446, 4.7241317997686565, 4.7858904004096985, 5.586743600200862, 11.35577300004661, 5.736142700072378, 6.9005565997213125, 9.51991040026769, 12.55465540010482, 17.430994499940425, 13.159508000127971, 30.353754700161517, 20.855681600049138, 75.32023409986869, 6.4288726998493075, 10.086504300124943]","[0.014377499930560589, 0.08258859999477863, 0.03606799989938736, 0.0870563997887075, 0.04870670009404421, 0.0983350002206862, 0.03127930033951998, 0.03192850016057491, 0.06186030013486743, 0.030404200311750174, 0.046921299770474434, 12.55466269981116, 17.431001199875027, 13.159518300089985, 0.12174999993294477, 20.855688999872655, 0.00023589981719851494, 0.07938010012730956, 10.086511599831283]",0,,,,,,,,,,,,,,,,,,,,,,,,,,,,,,,,,,,,,,,,,,,,,,,,,,,,,,,,,,,,,,,,,,,,,,,,,,,,,,,,,,,,,,,,,,,,,,,,,,,,,,,,,,,,,,,,,,,,,,,,,,,,XQ783R,train_x,red_square,bottom_left,2025-05-02_11h25.56.806,HideSeek_v1,2022.2.5,59.95113985376908,
,,,,,,,,,,,,,,,3,0,3,0,3,0,3,0,,,,,,,,,,,,,,,,,,,,,,,,,,,,,,,conditions/schedules/train_x_first/red_square_00/bottom_left/instructions/Slide20.png,conditions/schedules/train_x_first/red_square_00/bottom_left/instructions/Audio20.wav,2916.826686100103,2916.826752050314,20,"[3.195542700123042, 17.665531999897212, 16.26283030025661, 19.118635800201446, 4.7241317997686565, 4.7858904004096985, 5.586743600200862, 11.35577300004661, 5.736142700072378, 6.9005565997213125, 9.51991040026769, 12.55465540010482, 17.430994499940425, 13.159508000127971, 30.353754700161517, 20.855681600049138, 75.32023409986869, 6.4288726998493075, 10.086504300124943, 13.725363400299102]","[0.014377499930560589, 0.08258859999477863, 0.03606799989938736, 0.0870563997887075, 0.04870670009404421, 0.0983350002206862, 0.03127930033951998, 0.03192850016057491, 0.06186030013486743, 0.030404200311750174, 0.046921299770474434, 12.55466269981116, 17.431001199875027, 13.159518300089985, 0.12174999993294477, 20.855688999872655, 0.00023589981719851494, 0.07938010012730956, 0.03095130017027259, 13.725370100233704]",0,,,,,,,,,,,,,,,,,,,,,,,,,,,,,,,,,,,,,,,,,,,,,,,,,,,,,,,,,,,,,,,,,,,,,,,,,,,,,,,,,,,,,,,,,,,,,,,,,,,,,,,,,,,,,,,,,,,,,,,,,,,,XQ783R,train_x,red_square,bottom_left,2025-05-02_11h25.56.806,HideSeek_v1,2022.2.5,59.95113985376908,
1,2,3,2,8,0,5,11,2,instr_dim1_2,,,,,,3,0,3,0,,,,,0,0,0,0,,,,,,,,,,,,,,,,,,,,,,,,,,,,,,,,,,,,,stimuli/alien_stimuli/11.png,conditions/schedules/train_x_first/red_square_00/bottom_left/inputInstr_2.xlsx,stimuli/alien_stimuli/11.png,2930.6510968999937,2930.6510968999937,2930.6510968999937,2930.6510968999937,2930.65481568994,return,6.774583199992776,"[-0.16, -0.08, 0, 0.08, 0.16, 0.24, 0.32, 0.4, 0.48, 0.56]","[-0.4, -0.32, -0.24, -0.16, -0.08, 0, 0.08, 0.16, 0.24, 0.32]",8,3,2,2,0.4,0.0,2937.5903660003096,2937.5903660003096,2937.5903660003096,2937.5903660003096,2937.5903660003096,2937.5903660003096,2937.5903660003096,2937.5774751301856,8.791465799789876,return,8.623921999707818,stimuli/alien_stimuli/11.png,11,2,1,,,,,,,,,,,,,,,,,,,,,,,,,,,,,,,,,,,,,,,,,,,,,,,,,,,,,,,,,,,,,,,,,,,,,,,,,,,,,,,,,,,,,,,,,XQ783R,train_x,red_square,bottom_left,2025-05-02_11h25.56.806,HideSeek_v1,2022.2.5,59.95113985376908,
,,,,,,,,,,,30,,,,3,0,3,0,,,,,,,,,,,,,,,,,,,,,,,,,,,,,,,,,,,,,,,,,,,,,,,,,,,,,,,,,,,,,,,,,,,,,,,,,,,,,,21,0.7,0.7083333333333335,1,99,2,30,0,conditions/schedules/train_x_first/red_square_00/bottom_left/inputTrain_2.1.xlsx,99,1,2,1,0,,,,,,,,,,,,,,,,,,,,,,,,,,,,,,,,,,,,,,,,,,,,,,,,,,,,,,,,,,,,,,,,,,,,,,,,,,,XQ783R,train_x,red_square,bottom_left,2025-05-02_11h25.56.806,HideSeek_v1,2022.2.5,59.95113985376908,
,,,,,,,,,,,,,,,4,0,4,0,0,0,0,0,,,,,,,,,,,,,,,,,,,,,,,,,,,,,,,conditions/schedules/train_x_first/red_square_00/bottom_left/instructions/Slide21.png,conditions/schedules/train_x_first/red_square_00/bottom_left/instructions/Audio21.wav,2946.369644300081,2946.368265230302,21,"[3.195542700123042, 17.665531999897212, 16.26283030025661, 19.118635800201446, 4.7241317997686565, 4.7858904004096985, 5.586743600200862, 11.35577300004661, 5.736142700072378, 6.9005565997213125, 9.51991040026769, 12.55465540010482, 17.430994499940425, 13.159508000127971, 30.353754700161517, 20.855681600049138, 75.32023409986869, 6.4288726998493075, 10.086504300124943, 13.725363400299102, 16.225856699980795]","[0.014377499930560589, 0.08258859999477863, 0.03606799989938736, 0.0870563997887075, 0.04870670009404421, 0.0983350002206862, 0.03127930033951998, 0.03192850016057491, 0.06186030013486743, 0.030404200311750174, 0.046921299770474434, 12.55466269981116, 17.431001199875027, 13.159518300089985, 0.12174999993294477, 20.855688999872655, 0.00023589981719851494, 0.07938010012730956, 0.03095130017027259, 13.725370100233704, 16.22586360014975]",0,,,,,,,,,,,,,,,,,,,,,,,,,,,,,,,,,,,,,,,,,,,,,,,,,,,,,,,,,,,,,,,,,,,,,,,,,,,,,,,,,,,,,,,,,,,,,,,,,,,,,,,,,,,,,,,,,,,,,,,,,,,,XQ783R,train_x,red_square,bottom_left,2025-05-02_11h25.56.806,HideSeek_v1,2022.2.5,59.95113985376908,
2,0,3,0,3,0,0,16,2,instr_dim1_2,,,,,,4,0,4,0,,,,,0,0,0,0,,,,,,,,,,,,,,,,,,,,,,,,,,,,,,,,,,,,,stimuli/alien_stimuli/16.png,conditions/schedules/train_x_first/red_square_00/bottom_left/inputInstr_2.xlsx,stimuli/alien_stimuli/16.png,2962.6941209998913,2962.6941209998913,2962.6941209998913,2962.6941209998913,2962.6982531899585,return,4.220216199755669,"[-0.16, -0.08, 0, 0.08, 0.16, 0.24, 0.32, 0.4, 0.48, 0.56]","[-0.4, -0.32, -0.24, -0.16, -0.08, 0, 0.08, 0.16, 0.24, 0.32]",3,3,0,0,0.0,0.0,2967.0610269000754,2967.0610269000754,2967.0610269000754,2967.0610269000754,2967.0610269000754,2967.0610269000754,2967.0610269000754,2967.0517682602626,9.375525000039488,return,9.231740599963814,stimuli/alien_stimuli/16.png,16,0,2,,,,,,,,,,,,,,,,,,,,,,,,,,,,,,,,,,,,,,,,,,,,,,,,,,,,,,,,,,,,,,,,,,,,,,,,,,,,,,,,,,,,,,,,,XQ783R,train_x,red_square,bottom_left,2025-05-02_11h25.56.806,HideSeek_v1,2022.2.5,59.95113985376908,
,,,,,,,,,,,30,,,,4,0,4,0,,,,,,,,,,,,,,,,,,,,,,,,,,,,,,,,,,,,,,,,,,,,,,,,,,,,,,,,,,,,,,,,,,,,,,,,,,,,,,21,0.7,0.7083333333333335,1,99,2,30,0,conditions/schedules/train_x_first/red_square_00/bottom_left/inputTrain_2.1.xlsx,99,1,2,1,0,,,,,,,,,,,,,,,,,,,,,,,,,,,,,,,,,,,,,,,,,,,,,,,,,,,,,,,,,,,,,,,,,,,,,,,,,,,XQ783R,train_x,red_square,bottom_left,2025-05-02_11h25.56.806,HideSeek_v1,2022.2.5,59.95113985376908,
,,,,,,,,,,,,,,,5,0,5,0,0,0,0,0,,,,,,,,,,,,,,,,,,,,,,,,,,,,,,,conditions/schedules/train_x_first/red_square_00/bottom_left/instructions/Slide22.png,conditions/schedules/train_x_first/red_square_00/bottom_left/instructions/Audio22.wav,2976.447388499975,2976.44294823017,22,"[3.195542700123042, 17.665531999897212, 16.26283030025661, 19.118635800201446, 4.7241317997686565, 4.7858904004096985, 5.586743600200862, 11.35577300004661, 5.736142700072378, 6.9005565997213125, 9.51991040026769, 12.55465540010482, 17.430994499940425, 13.159508000127971, 30.353754700161517, 20.855681600049138, 75.32023409986869, 6.4288726998493075, 10.086504300124943, 13.725363400299102, 16.225856699980795, 42.51171849993989]","[0.014377499930560589, 0.08258859999477863, 0.03606799989938736, 0.0870563997887075, 0.04870670009404421, 0.0983350002206862, 0.03127930033951998, 0.03192850016057491, 0.06186030013486743, 0.030404200311750174, 0.046921299770474434, 12.55466269981116, 17.431001199875027, 13.159518300089985, 0.12174999993294477, 20.855688999872655, 0.00023589981719851494, 0.07938010012730956, 0.03095130017027259, 13.725370100233704, 16.22586360014975, 42.51172580011189]",0,,,,,,,,,,,,,,,,,,,,,,,,,,,,,,,,,,,,,,,,,,,,,,,,,,,,,,,,,,,,,,,,,,,,,,,,,,,,,,,,,,,,,,,,,,,,,,,,,,,,,,,,,,,,,,,,,,,,,,,,,,,,XQ783R,train_x,red_square,bottom_left,2025-05-02_11h25.56.806,HideSeek_v1,2022.2.5,59.95113985376908,
,0,0,0,1,0,1,15,,train_dim1_2,1,30,,,,5,0,5,0,,,,,,,,,0,0,0,0,0,0,0,0,0,0,0,0,,,,,,,,,,,,,,,,,,,,,,,,,stimuli/alien_stimuli/15.png,,,,,,,,,,,,,,,,,,,,,,,,,,,,,,,,,,,,,,,30,,,,,,,,3019.0624887999147,3019.0624887999147,3019.0624887999147,3019.0624887999147,3019.0624887999147,right,6.299576399847865,0,0,0,99,-0.08,-0.4,right,6.192876600194722,,,,,,,,,,,,,,,,,,,,,,,,,,,,,,,,,,,,,,,,,,,,,,,,,,,,,,,,,,,,XQ783R,train_x,red_square,bottom_left,2025-05-02_11h25.56.806,HideSeek_v1,2022.2.5,59.95113985376908,
,0,0,0,1,0,1,15,,train_dim1_2,1,30,,,,5,0,5,0,,,,,,,,,0,0,0,0,0,0,0,0,1,0,1,0,,,,,,,,,,,,,,,,,,,,,,,,,,,,,,,,,,,,,,,,,,,,,,,,,,,,,,,,,,,,,,,,30,,,,,,,,3025.3543954999186,3025.3543954999186,3025.3543954999186,3025.3543954999186,3025.3543954999186,return,1.2433050996623933,0,0,0,0,-0.08,-0.4,return,1.14882169989869,0,85,-0.08,-0.4,,,,,,,,,,,,,,,,,,,,,,,,,,,,,,,,,,,,,,,,,,,,,,,,,,,,,,,,XQ783R,train_x,red_square,bottom_left,2025-05-02_11h25.56.806,HideSeek_v1,2022.2.5,59.95113985376908,
