trialInstr,x_fixStart,y_fixStart,x_corrSteps,y_corrSteps,x_nrSteps,y_nrSteps,alienID,trialLength,version,trialTrain,praclen,testlen,trial_label,break_on_off,beforeExpLoop.thisRepN,beforeExpLoop.thisTrialN,beforeExpLoop.thisN,beforeExpLoop.thisIndex,mini_instr_trials.thisRepN,mini_instr_trials.thisTrialN,mini_instr_trials.thisN,mini_instr_trials.thisIndex,instrLoop.thisRepN,instrLoop.thisTrialN,instrLoop.thisN,instrLoop.thisIndex,repeat_prac.thisRepN,repeat_prac.thisTrialN,repeat_prac.thisN,repeat_prac.thisIndex,trainLoop.thisRepN,trainLoop.thisTrialN,trainLoop.thisN,trainLoop.thisIndex,moveLoop_train.thisRepN,moveLoop_train.thisTrialN,moveLoop_train.thisN,moveLoop_train.thisIndex,experiment.thisRepN,experiment.thisTrialN,experiment.thisN,experiment.thisIndex,moveLoop_test.thisRepN,moveLoop_test.thisTrialN,moveLoop_test.thisN,moveLoop_test.thisIndex,mini_instr2_trials.thisRepN,mini_instr2_trials.thisTrialN,mini_instr2_trials.thisN,mini_instr2_trials.thisIndex,start_all_time,url,slideStim,audioStim,slides.started,sounds.started,nextButton.numClicks,nextButton.timesOn,nextButton.timesOff,prev_but.numClicks,prev_but.timesOn,prev_but.timesOff,alienStim,instrFile,alienStim_instr,gridImage_instr.started,startPos_3.started,key_instr.started,alienImage_3.started,sounds_1.started,key_instr.keys,key_instr.rt,all_x,all_y,FBy_corrSteps,FBy_fixStart,FBx_corrSteps,FBx_fixStart,FBy_pathSize_check,FBx_pathSize_check,gridImage_9.started,alienImageFB_3.started,startPosFB_3.started,keyFB_3.started,pathLine_ydir_2.started,pathLine_xdir_2.started,alienFace_3.started,sounds_2.started,RTFB_instr,keyFB_3.keys,keyFB_3.rt,draw_alienStim,draw_alienID,test_x,nrepcount,perfthres,percthres,earlierperf,earlystop,nextPrac,fileidx,praclen,saveACC_train,pracFile,nextPrac_train,addNrep,fileidx_endr,repExp,showearly,gridImage_4.started,startPos.started,movePos.started,key_resp.started,alienImage.started,wLy_dir,wLx_dir,x_movePos,y_movePos,buttonPress_train,RTchoice_train,cumAcctrain,aCorr,saveACC_choice,corrAns,x_movePos_end,y_movePos_end,key_resp.keys,key_resp.rt,text_2.started,text_2.stopped,aft_x_corrPos,aft_y_corrPos,y_pathSize_check,x_pathSize_check,y_pathdirY,x_pathdirY,x_pathdirX,x_corrPos,y_corrPos,gridImage_6.started,alienImageFB_2.started,startPosFB_2.started,movePosFB_2.started,keyFB_2.started,pathLine_xdir.started,pathLine_ydir.started,alienFace.started,sounds_4.started,RT_FBtrain,keyFB_2.keys,keyFB_2.rt,saveACC_pre,ACC,within_saveACC_train,earlystop_wloop,cumAcctrain_check,gridImage_3.started,alienImage_test.started,startPos_test.started,movePos_test.started,key_resp_test.started,wLy_dir_test,wLx_dir_test,buttonPress_test,RTchoice_test,cumAcctest,corrAns_test,key_resp_test.keys,key_resp_test.rt,text_3.started,text_3.stopped,total_time,end_all_time,key_resp_3.keys,slides_2.started,sounds_3.started,nextButton_2.numClicks,nextButton_2.timesOn,nextButton_2.timesOff,prev_but_2.numClicks,prev_but_2.timesOn,prev_but_2.timesOff,bye.started,participant,train_first,00_coordinate,starting corner,date,expName,psychopyVersion,frameRate,
,,,,,,,,,,,,,,,0,0,0,0,0,0,0,0,,,,,,,,,,,,,,,,,,,,,,,,,,,,,start_all_time,testround,conditions/schedules/train_x_first/blue_star_00/top_right/instructions/Slide1.png,conditions/schedules/train_x_first/blue_star_00/top_right/instructions/Audio1.wav,1179.73416729999,1179.675679650798,1,[7.564605899999151],[7.564615000010235],0,,,,,,,,,,,,,,,,,,,,,,,,,,,,,,,,,,,,,,,,,,,,,,,,,,,,,,,,,,,,,,,,,,,,,,,,,,,,,,,,,,,,,,,,,,,,,,,,,,,,,,,,,,,,,,,,,,,,,,,,,,,,XVMZCK,train_x,blue_star,top_right,2025-09-27_13h05.32.559,HideSeek_v1,2022.2.5,59.95218213834401,
,,,,,,,,,,,,,,,0,0,0,0,1,0,1,0,,,,,,,,,,,,,,,,,,,,,,,,,,,,,,,conditions/schedules/train_x_first/blue_star_00/top_right/instructions/Slide2.png,conditions/schedules/train_x_first/blue_star_00/top_right/instructions/Audio2.wav,1187.3168625000108,1187.3192579500028,2,"[7.564605899999151, 18.298363899986725]","[0.014240099990274757, 18.298370400007116]",0,,,,,,,,,,,,,,,,,,,,,,,,,,,,,,,,,,,,,,,,,,,,,,,,,,,,,,,,,,,,,,,,,,,,,,,,,,,,,,,,,,,,,,,,,,,,,,,,,,,,,,,,,,,,,,,,,,,,,,,,,,,,XVMZCK,train_x,blue_star,top_right,2025-09-27_13h05.32.559,HideSeek_v1,2022.2.5,59.95218213834401,
,,,,,,,,,,,,,,,0,0,0,0,2,0,2,0,,,,,,,,,,,,,,,,,,,,,,,,,,,,,,,conditions/schedules/train_x_first/blue_star_00/top_right/instructions/Slide3.png,conditions/schedules/train_x_first/blue_star_00/top_right/instructions/Audio3.wav,1205.6898729999957,1205.6841996500152,3,"[7.564605899999151, 18.298363899986725, 16.472503800003324]","[0.014240099990274757, 0.03155469999182969, 16.47251029999461]",0,,,,,,,,,,,,,,,,,,,,,,,,,,,,,,,,,,,,,,,,,,,,,,,,,,,,,,,,,,,,,,,,,,,,,,,,,,,,,,,,,,,,,,,,,,,,,,,,,,,,,,,,,,,,,,,,,,,,,,,,,,,,XVMZCK,train_x,blue_star,top_right,2025-09-27_13h05.32.559,HideSeek_v1,2022.2.5,59.95218213834401,
,,,,,,,,,,,,,,,0,0,0,0,3,0,3,0,,,,,,,,,,,,,,,,,,,,,,,,,,,,,,,conditions/schedules/train_x_first/blue_star_00/top_right/instructions/Slide4.png,conditions/schedules/train_x_first/blue_star_00/top_right/instructions/Audio4.wav,1222.2444480000122,1222.231268250005,4,"[7.564605899999151, 18.298363899986725, 16.472503800003324, 19.566950299980817]","[0.014240099990274757, 0.03155469999182969, 0.013602399994852021, 19.566956999973627]",0,,,,,,,,,,,,,,,,,,,,,,,,,,,,,,,,,,,,,,,,,,,,,,,,,,,,,,,,,,,,,,,,,,,,,,,,,,,,,,,,,,,,,,,,,,,,,,,,,,,,,,,,,,,,,,,,,,,,,,,,,,,,XVMZCK,train_x,blue_star,top_right,2025-09-27_13h05.32.559,HideSeek_v1,2022.2.5,59.95218213834401,
,,,,,,,,,,,,,,,0,0,0,0,4,0,4,0,,,,,,,,,,,,,,,,,,,,,,,,,,,,,,,conditions/schedules/train_x_first/blue_star_00/top_right/instructions/Slide5.png,conditions/schedules/train_x_first/blue_star_00/top_right/instructions/Audio5.wav,1241.8816674000118,1241.880914850015,5,"[7.564605899999151, 18.298363899986725, 16.472503800003324, 19.566950299980817, 4.984360500006005]","[0.014240099990274757, 0.03155469999182969, 0.013602399994852021, 0.030666800012113526, 4.9843670000263955]",0,,,,,,,,,,,,,,,,,,,,,,,,,,,,,,,,,,,,,,,,,,,,,,,,,,,,,,,,,,,,,,,,,,,,,,,,,,,,,,,,,,,,,,,,,,,,,,,,,,,,,,,,,,,,,,,,,,,,,,,,,,,,XVMZCK,train_x,blue_star,top_right,2025-09-27_13h05.32.559,HideSeek_v1,2022.2.5,59.95218213834401,
,,,,,,,,,,,,,,,0,0,0,0,5,0,5,0,,,,,,,,,,,,,,,,,,,,,,,,,,,,,,,conditions/schedules/train_x_first/blue_star_00/top_right/instructions/Slide6.png,conditions/schedules/train_x_first/blue_star_00/top_right/instructions/Audio6.wav,1246.91777,1246.9185168400056,6,"[7.564605899999151, 18.298363899986725, 16.472503800003324, 19.566950299980817, 4.984360500006005, 5.41943569999421]","[0.014240099990274757, 0.03155469999182969, 0.013602399994852021, 0.030666800012113526, 0.031880499998806044, 5.41944239998702]",0,,,,,,,,,,,,,,,,,,,,,,,,,,,,,,,,,,,,,,,,,,,,,,,,,,,,,,,,,,,,,,,,,,,,,,,,,,,,,,,,,,,,,,,,,,,,,,,,,,,,,,,,,,,,,,,,,,,,,,,,,,,,XVMZCK,train_x,blue_star,top_right,2025-09-27_13h05.32.559,HideSeek_v1,2022.2.5,59.95218213834401,
,,,,,,,,,,,,,,,0,0,0,0,6,0,6,0,,,,,,,,,,,,,,,,,,,,,,,,,,,,,,,conditions/schedules/train_x_first/blue_star_00/top_right/instructions/Slide7.png,conditions/schedules/train_x_first/blue_star_00/top_right/instructions/Audio7.wav,1252.3885755999945,1252.3896978400064,7,"[7.564605899999151, 18.298363899986725, 16.472503800003324, 19.566950299980817, 4.984360500006005, 5.41943569999421, 6.2376911000174005]","[0.014240099990274757, 0.03155469999182969, 0.013602399994852021, 0.030666800012113526, 0.031880499998806044, 0.04910289999679662, 6.2376977000094485]",0,,,,,,,,,,,,,,,,,,,,,,,,,,,,,,,,,,,,,,,,,,,,,,,,,,,,,,,,,,,,,,,,,,,,,,,,,,,,,,,,,,,,,,,,,,,,,,,,,,,,,,,,,,,,,,,,,,,,,,,,,,,,XVMZCK,train_x,blue_star,top_right,2025-09-27_13h05.32.559,HideSeek_v1,2022.2.5,59.95218213834401,
,,,,,,,,,,,,,,,0,0,0,0,7,0,7,0,,,,,,,,,,,,,,,,,,,,,,,,,,,,,,,conditions/schedules/train_x_first/blue_star_00/top_right/instructions/Slide8.png,conditions/schedules/train_x_first/blue_star_00/top_right/instructions/Audio8.wav,1258.678705600003,1258.678312840004,8,"[7.564605899999151, 18.298363899986725, 16.472503800003324, 19.566950299980817, 4.984360500006005, 5.41943569999421, 6.2376911000174005, 11.87334020002163]","[0.014240099990274757, 0.03155469999182969, 0.013602399994852021, 0.030666800012113526, 0.031880499998806044, 0.04910289999679662, 0.030419500020798296, 11.873346000007587]",0,,,,,,,,,,,,,,,,,,,,,,,,,,,,,,,,,,,,,,,,,,,,,,,,,,,,,,,,,,,,,,,,,,,,,,,,,,,,,,,,,,,,,,,,,,,,,,,,,,,,,,,,,,,,,,,,,,,,,,,,,,,,XVMZCK,train_x,blue_star,top_right,2025-09-27_13h05.32.559,HideSeek_v1,2022.2.5,59.95218213834401,
,,,,,,,,,,,,,,,0,0,0,0,8,0,8,0,,,,,,,,,,,,,,,,,,,,,,,,,,,,,,,conditions/schedules/train_x_first/blue_star_00/top_right/instructions/Slide9.png,conditions/schedules/train_x_first/blue_star_00/top_right/instructions/Audio9.wav,1270.620924399991,1270.6213799500256,9,"[7.564605899999151, 18.298363899986725, 16.472503800003324, 19.566950299980817, 4.984360500006005, 5.41943569999421, 6.2376911000174005, 11.87334020002163, 6.472116000019014]","[0.014240099990274757, 0.03155469999182969, 0.013602399994852021, 0.030666800012113526, 0.031880499998806044, 0.04910289999679662, 0.030419500020798296, 0.03274320001946762, 6.472123200015631]",0,,,,,,,,,,,,,,,,,,,,,,,,,,,,,,,,,,,,,,,,,,,,,,,,,,,,,,,,,,,,,,,,,,,,,,,,,,,,,,,,,,,,,,,,,,,,,,,,,,,,,,,,,,,,,,,,,,,,,,,,,,,,XVMZCK,train_x,blue_star,top_right,2025-09-27_13h05.32.559,HideSeek_v1,2022.2.5,59.95218213834401,
,,,,,,,,,,,,,,,0,0,0,0,9,0,9,0,,,,,,,,,,,,,,,,,,,,,,,,,,,,,,,conditions/schedules/train_x_first/blue_star_00/top_right/instructions/Slide10.png,conditions/schedules/train_x_first/blue_star_00/top_right/instructions/Audio10.wav,1277.1288063999964,1277.126976130018,10,"[7.564605899999151, 18.298363899986725, 16.472503800003324, 19.566950299980817, 4.984360500006005, 5.41943569999421, 6.2376911000174005, 11.87334020002163, 6.472116000019014, 7.1013734999869484]","[0.014240099990274757, 0.03155469999182969, 0.013602399994852021, 0.030666800012113526, 0.031880499998806044, 0.04910289999679662, 0.030419500020798296, 0.03274320001946762, 0.04560280000441708, 7.101379900006577]",0,,,,,,,,,,,,,,,,,,,,,,,,,,,,,,,,,,,,,,,,,,,,,,,,,,,,,,,,,,,,,,,,,,,,,,,,,,,,,,,,,,,,,,,,,,,,,,,,,,,,,,,,,,,,,,,,,,,,,,,,,,,,XVMZCK,train_x,blue_star,top_right,2025-09-27_13h05.32.559,HideSeek_v1,2022.2.5,59.95218213834401,
,,,,,,,,,,,,,,,0,0,0,0,10,0,10,0,,,,,,,,,,,,,,,,,,,,,,,,,,,,,,,conditions/schedules/train_x_first/blue_star_00/top_right/instructions/Slide11.png,conditions/schedules/train_x_first/blue_star_00/top_right/instructions/Audio11.wav,1284.2900359999912,1284.2828008400159,11,"[7.564605899999151, 18.298363899986725, 16.472503800003324, 19.566950299980817, 4.984360500006005, 5.41943569999421, 6.2376911000174005, 11.87334020002163, 6.472116000019014, 7.1013734999869484, 9.81530859999475]","[0.014240099990274757, 0.03155469999182969, 0.013602399994852021, 0.030666800012113526, 0.031880499998806044, 0.04910289999679662, 0.030419500020798296, 0.03274320001946762, 0.04560280000441708, 0.03667120001045987, 9.815315400017425]",0,,,,,,,,,,,,,,,,,,,,,,,,,,,,,,,,,,,,,,,,,,,,,,,,,,,,,,,,,,,,,,,,,,,,,,,,,,,,,,,,,,,,,,,,,,,,,,,,,,,,,,,,,,,,,,,,,,,,,,,,,,,,XVMZCK,train_x,blue_star,top_right,2025-09-27_13h05.32.559,HideSeek_v1,2022.2.5,59.95218213834401,
,,,,,,,,,,,,,,,0,0,0,0,11,0,11,0,,,,,,,,,,,,,,,,,,,,,,,,,,,,,,,conditions/schedules/train_x_first/blue_star_00/top_right/instructions/Slide12.png,conditions/schedules/train_x_first/blue_star_00/top_right/instructions/Audio12.wav,1294.162135999999,1294.1578199400158,12,"[7.564605899999151, 18.298363899986725, 16.472503800003324, 19.566950299980817, 4.984360500006005, 5.41943569999421, 6.2376911000174005, 11.87334020002163, 6.472116000019014, 7.1013734999869484, 9.81530859999475, 13.271121400000993]","[0.014240099990274757, 0.03155469999182969, 0.013602399994852021, 0.030666800012113526, 0.031880499998806044, 0.04910289999679662, 0.030419500020798296, 0.03274320001946762, 0.04560280000441708, 0.03667120001045987, 0.0640172999992501, 13.271128299995326]",0,,,,,,,,,,,,,,,,,,,,,,,,,,,,,,,,,,,,,,,,,,,,,,,,,,,,,,,,,,,,,,,,,,,,,,,,,,,,,,,,,,,,,,,,,,,,,,,,,,,,,,,,,,,,,,,,,,,,,,,,,,,,XVMZCK,train_x,blue_star,top_right,2025-09-27_13h05.32.559,HideSeek_v1,2022.2.5,59.95218213834401,
1,9,5,4,5,-5,0,11,2,instr_dim1_1,,,,,,0,0,0,0,,,,,0,0,0,0,,,,,,,,,,,,,,,,,,,,,,,,,,,,,,,,,,,,,stimuli/alien_stimuli/11.png,conditions/schedules/train_x_first/blue_star_00/top_right/inputInstr_1.xlsx,stimuli/alien_stimuli/11.png,1307.5396050999989,1307.5396050999989,1307.5396050999989,1307.5396050999989,1307.5355806700127,return,9.453918400016846,"[-0.16, -0.08, 0, 0.08, 0.16, 0.24, 0.32, 0.4, 0.48, 0.56]","[-0.4, -0.32, -0.24, -0.16, -0.08, 0, 0.08, 0.16, 0.24, 0.32]",5,5,4,9,0.0,0.4,1317.1459161000093,1317.1459161000093,1317.1459161000093,1317.1459161000093,1317.1459161000093,1317.1459161000093,1317.1459161000093,1317.1435297900227,7.723435700027039,return,7.569523099984508,stimuli/alien_stimuli/11.png,11,9,1,,,,,,,,,,,,,,,,,,,,,,,,,,,,,,,,,,,,,,,,,,,,,,,,,,,,,,,,,,,,,,,,,,,,,,,,,,,,,,,,,,,,,,,,,XVMZCK,train_x,blue_star,top_right,2025-09-27_13h05.32.559,HideSeek_v1,2022.2.5,59.95218213834401,
,,,,,,,,,,,30,,,,0,0,0,0,,,,,,,,,,,,,,,,,,,,,,,,,,,,,,,,,,,,,,,,,,,,,,,,,,,,,,,,,,,,,,,,,,,,,,,,,,,,,,21,0.7,0,0,99,1,30,0,conditions/schedules/train_x_first/blue_star_00/top_right/inputTrain_1.1.xlsx,99,1,1,1,0,,,,,,,,,,,,,,,,,,,,,,,,,,,,,,,,,,,,,,,,,,,,,,,,,,,,,,,,,,,,,,,,,,,,,,,,,,,XVMZCK,train_x,blue_star,top_right,2025-09-27_13h05.32.559,HideSeek_v1,2022.2.5,59.95218213834401,
,,,,,,,,,,,,,,,1,0,1,0,0,0,0,0,,,,,,,,,,,,,,,,,,,,,,,,,,,,,,,conditions/schedules/train_x_first/blue_star_00/top_right/instructions/Slide13.png,conditions/schedules/train_x_first/blue_star_00/top_right/instructions/Audio13.wav,1324.8905484999996,1324.882893800037,13,"[7.564605899999151, 18.298363899986725, 16.472503800003324, 19.566950299980817, 4.984360500006005, 5.41943569999421, 6.2376911000174005, 11.87334020002163, 6.472116000019014, 7.1013734999869484, 9.81530859999475, 13.271121400000993, 17.00523099998827]","[0.014240099990274757, 0.03155469999182969, 0.013602399994852021, 0.030666800012113526, 0.031880499998806044, 0.04910289999679662, 0.030419500020798296, 0.03274320001946762, 0.04560280000441708, 0.03667120001045987, 0.0640172999992501, 13.271128299995326, 17.00523839998641]",0,,,,,,,,,,,,,,,,,,,,,,,,,,,,,,,,,,,,,,,,,,,,,,,,,,,,,,,,,,,,,,,,,,,,,,,,,,,,,,,,,,,,,,,,,,,,,,,,,,,,,,,,,,,,,,,,,,,,,,,,,,,,XVMZCK,train_x,blue_star,top_right,2025-09-27_13h05.32.559,HideSeek_v1,2022.2.5,59.95218213834401,
,,,,,,,,,,,,,,,1,0,1,0,1,0,1,0,,,,,,,,,,,,,,,,,,,,,,,,,,,,,,,conditions/schedules/train_x_first/blue_star_00/top_right/instructions/Slide14.png,conditions/schedules/train_x_first/blue_star_00/top_right/instructions/Audio14.wav,1341.971370299987,1341.9643167500035,14,"[7.564605899999151, 18.298363899986725, 16.472503800003324, 19.566950299980817, 4.984360500006005, 5.41943569999421, 6.2376911000174005, 11.87334020002163, 6.472116000019014, 7.1013734999869484, 9.81530859999475, 13.271121400000993, 17.00523099998827, 13.151726100011729]","[0.014240099990274757, 0.03155469999182969, 0.013602399994852021, 0.030666800012113526, 0.031880499998806044, 0.04910289999679662, 0.030419500020798296, 0.03274320001946762, 0.04560280000441708, 0.03667120001045987, 0.0640172999992501, 13.271128299995326, 0.057411499990848824, 13.151733300008345]",0,,,,,,,,,,,,,,,,,,,,,,,,,,,,,,,,,,,,,,,,,,,,,,,,,,,,,,,,,,,,,,,,,,,,,,,,,,,,,,,,,,,,,,,,,,,,,,,,,,,,,,,,,,,,,,,,,,,,,,,,,,,,XVMZCK,train_x,blue_star,top_right,2025-09-27_13h05.32.559,HideSeek_v1,2022.2.5,59.95218213834401,
2,8,7,8,7,0,0,61,2,instr_dim1_1,,,,,,1,0,1,0,,,,,0,0,0,0,,,,,,,,,,,,,,,,,,,,,,,,,,,,,,,,,,,,,stimuli/alien_stimuli/61.png,conditions/schedules/train_x_first/blue_star_00/top_right/inputInstr_1.xlsx,stimuli/alien_stimuli/61.png,1355.2289580999932,1355.2289580999932,1355.2289580999932,1355.2289580999932,1355.225355570018,return,6.81436659998144,"[-0.16, -0.08, 0, 0.08, 0.16, 0.24, 0.32, 0.4, 0.48, 0.56]","[-0.4, -0.32, -0.24, -0.16, -0.08, 0, 0.08, 0.16, 0.24, 0.32]",7,7,8,8,0.0,0.0,1362.1998946999956,1362.1998946999956,1362.1998946999956,1362.1998946999956,1362.1998946999956,1362.1998946999956,1362.1998946999956,1362.1808881800214,8.05768449997413,return,7.898428499989677,stimuli/alien_stimuli/61.png,61,8,2,,,,,,,,,,,,,,,,,,,,,,,,,,,,,,,,,,,,,,,,,,,,,,,,,,,,,,,,,,,,,,,,,,,,,,,,,,,,,,,,,,,,,,,,,XVMZCK,train_x,blue_star,top_right,2025-09-27_13h05.32.559,HideSeek_v1,2022.2.5,59.95218213834401,
,,,,,,,,,,,30,,,,1,0,1,0,,,,,,,,,,,,,,,,,,,,,,,,,,,,,,,,,,,,,,,,,,,,,,,,,,,,,,,,,,,,,,,,,,,,,,,,,,,,,,21,0.7,0,0,99,1,30,0,conditions/schedules/train_x_first/blue_star_00/top_right/inputTrain_1.1.xlsx,99,1,1,1,0,,,,,,,,,,,,,,,,,,,,,,,,,,,,,,,,,,,,,,,,,,,,,,,,,,,,,,,,,,,,,,,,,,,,,,,,,,,XVMZCK,train_x,blue_star,top_right,2025-09-27_13h05.32.559,HideSeek_v1,2022.2.5,59.95218213834401,
,,,,,,,,,,,,,,,2,0,2,0,0,0,0,0,,,,,,,,,,,,,,,,,,,,,,,,,,,,,,,conditions/schedules/train_x_first/blue_star_00/top_right/instructions/Slide15.png,conditions/schedules/train_x_first/blue_star_00/top_right/instructions/Audio15.wav,1370.2804703000002,1370.271060500032,15,"[7.564605899999151, 18.298363899986725, 16.472503800003324, 19.566950299980817, 4.984360500006005, 5.41943569999421, 6.2376911000174005, 11.87334020002163, 6.472116000019014, 7.1013734999869484, 9.81530859999475, 13.271121400000993, 17.00523099998827, 13.151726100011729, 30.297091399988858]","[0.014240099990274757, 0.03155469999182969, 0.013602399994852021, 0.030666800012113526, 0.031880499998806044, 0.04910289999679662, 0.030419500020798296, 0.03274320001946762, 0.04560280000441708, 0.03667120001045987, 0.0640172999992501, 13.271128299995326, 0.057411499990848824, 13.151733300008345, 30.297098699986236]",0,,,,,,,,,,,,,,,,,,,,,,,,,,,,,,,,,,,,,,,,,,,,,,,,,,,,,,,,,,,,,,,,,,,,,,,,,,,,,,,,,,,,,,,,,,,,,,,,,,,,,,,,,,,,,,,,,,,,,,,,,,,,XVMZCK,train_x,blue_star,top_right,2025-09-27_13h05.32.559,HideSeek_v1,2022.2.5,59.95218213834401,
,,,,,,,,,,,,,,,2,0,2,0,1,0,1,0,,,,,,,,,,,,,,,,,,,,,,,,,,,,,,,conditions/schedules/train_x_first/blue_star_00/top_right/instructions/Slide16.png,conditions/schedules/train_x_first/blue_star_00/top_right/instructions/Audio16.wav,1400.6556980999885,1400.6461612500134,16,"[7.564605899999151, 18.298363899986725, 16.472503800003324, 19.566950299980817, 4.984360500006005, 5.41943569999421, 6.2376911000174005, 11.87334020002163, 6.472116000019014, 7.1013734999869484, 9.81530859999475, 13.271121400000993, 17.00523099998827, 13.151726100011729, 30.297091399988858, 21.32274309999775]","[0.014240099990274757, 0.03155469999182969, 0.013602399994852021, 0.030666800012113526, 0.031880499998806044, 0.04910289999679662, 0.030419500020798296, 0.03274320001946762, 0.04560280000441708, 0.03667120001045987, 0.0640172999992501, 13.271128299995326, 0.057411499990848824, 13.151733300008345, 0.014233299996703863, 21.322749899991322]",0,,,,,,,,,,,,,,,,,,,,,,,,,,,,,,,,,,,,,,,,,,,,,,,,,,,,,,,,,,,,,,,,,,,,,,,,,,,,,,,,,,,,,,,,,,,,,,,,,,,,,,,,,,,,,,,,,,,,,,,,,,,,XVMZCK,train_x,blue_star,top_right,2025-09-27_13h05.32.559,HideSeek_v1,2022.2.5,59.95218213834401,
,7,6,4,6,-3,0,31,,train_dim1_1,1,30,,,,2,0,2,0,,,,,,,,,0,0,0,0,0,0,0,0,0,0,0,0,,,,,,,,,,,,,,,,,,,,,,,,,stimuli/alien_stimuli/31.png,,,,,,,,,,,,,,,,,,,,,,,,,,,,,,,,,,,,,,,30,,,,,,,,1422.0805821999966,1422.0805821999966,1422.0805821999966,1422.0805821999966,1422.0805821999966,0,0,0.4,0.08,return,4.49695800000336,0,0,0,0,0.4,0.08,return,4.389112500008196,,,,,,,,,,,,,,,,,,,,,,,,,,,,,,,,,,,,,,,,,,,,,,,,,,,,,,,,XVMZCK,train_x,blue_star,top_right,2025-09-27_13h05.32.559,HideSeek_v1,2022.2.5,59.95218213834401,
,7,9,2,9,-5,0,11,,train_dim1_1,2,30,,,,2,0,2,0,,,,,,,,,0,0,0,0,0,1,1,1,0,0,0,0,,,,,,,,,,,,,,,,,,,,,,,,,stimuli/alien_stimuli/11.png,,,,,,,,,,,,,,,,,,,,,,,,,,,,,stimuli/alien_stimuli/31.png,31,7,3,,,,,,,30,,,,,,,,1440.7132548000081,1440.7132548000081,1440.7132548000081,1440.7132548000081,1440.7132548000081,,,,,down,11.561290799989365,0,0,0,99,0.4,0.24,down,11.451414900016971,1439.1281780999852,1440.7132548000081,0.16,0.08,0.0,0.24,0.08,0.16,0.28,0.16,0.08,1428.1341044,1428.1341044,1428.1341044,1428.1341044,1428.1341044,1428.1341044,1428.1341044,1428.1341044,1428.119382270018,11.11128009998356,return,10.972459800017532,,,,,,,,,,,,,,,,,,,,,,,,,,,,,,,,,XVMZCK,train_x,blue_star,top_right,2025-09-27_13h05.32.559,HideSeek_v1,2022.2.5,59.95218213834401,
,7,9,2,9,-5,0,11,,train_dim1_1,2,30,,,,2,0,2,0,,,,,,,,,0,0,0,0,0,1,1,1,1,0,1,0,,,,,,,,,,,,,,,,,,,,,,,,,,,,,,,,,,,,,,,,,,,,,,,,,,,,,,,,,,,,,,,,30,,,,,,,,1452.2708837999962,1452.2708837999962,1452.2708837999962,1452.2708837999962,1452.2708837999962,,,,,down,1.9778256000136025,0,0,0,99,0.4,0.15999999999999998,down,1.8874738000158686,,,,,,,,,,,,,,,,,,,,,,,,,,,,,,,,,,,,,,,,,,,,,,,,,,,,,,,,XVMZCK,train_x,blue_star,top_right,2025-09-27_13h05.32.559,HideSeek_v1,2022.2.5,59.95218213834401,
,7,9,2,9,-5,0,11,,train_dim1_1,2,30,,,,2,0,2,0,,,,,,,,,0,0,0,0,0,1,1,1,2,0,2,0,,,,,,,,,,,,,,,,,,,,,,,,,,,,,,,,,,,,,,,,,,,,,,,,,,,,,,,,,,,,,,,,30,,,,,,,,1454.245792200003,1454.245792200003,1454.245792200003,1454.245792200003,1454.245792200003,-2,0,0.4,0.15999999999999998,return,1.1071728999959305,0,0,0,0,0.4,0.15999999999999998,return,1.0247026000288315,,,,,,,,,,,,,,,,,,,,,,,,,,,,,,,,,,,,,,,,,,,,,,,,,,,,,,,,XVMZCK,train_x,blue_star,top_right,2025-09-27_13h05.32.559,HideSeek_v1,2022.2.5,59.95218213834401,
,9,9,5,9,-4,0,21,,train_dim1_1,3,30,,,,2,0,2,0,,,,,,,,,0,0,0,0,0,2,2,2,0,0,0,0,,,,,,,,,,,,,,,,,,,,,,,,,stimuli/alien_stimuli/21.png,,,,,,,,,,,,,,,,,,,,,,,,,,,,,stimuli/alien_stimuli/11.png,11,7,4,,,,,,,30,,,,,,,,1468.5709635000094,1468.5709635000094,1468.5709635000094,1468.5709635000094,1468.5709635000094,,,,,left,8.29018039998482,0,0,0,99,0.48000000000000004,0.32,left,8.18991059999098,1467.0012718999933,1468.5709635000094,0,0.32,0.0,0.4,0.32,0,0.2,0,0.32,1456.9432150000066,1456.9432150000066,1456.9432150000066,1456.9432150000066,1456.9432150000066,1456.9432150000066,1456.9432150000066,1456.9432150000066,1456.9261883800325,10.193809299991699,return,10.029940700012958,,,,,,,,,,,,,,,,,,,,,,,,,,,,,,,,,XVMZCK,train_x,blue_star,top_right,2025-09-27_13h05.32.559,HideSeek_v1,2022.2.5,59.95218213834401,
,9,9,5,9,-4,0,21,,train_dim1_1,3,30,,,,2,0,2,0,,,,,,,,,0,0,0,0,0,2,2,2,1,0,1,0,,,,,,,,,,,,,,,,,,,,,,,,,,,,,,,,,,,,,,,,,,,,,,,,,,,,,,,,,,,,,,,,30,,,,,,,,1476.8610191000043,1476.8610191000043,1476.8610191000043,1476.8610191000043,1476.8610191000043,,,,,left,0.49257159998524,0,0,0,99,0.4,0.32,left,0.40498870000010356,,,,,,,,,,,,,,,,,,,,,,,,,,,,,,,,,,,,,,,,,,,,,,,,,,,,,,,,XVMZCK,train_x,blue_star,top_right,2025-09-27_13h05.32.559,HideSeek_v1,2022.2.5,59.95218213834401,
,9,9,5,9,-4,0,21,,train_dim1_1,3,30,,,,2,0,2,0,,,,,,,,,0,0,0,0,0,2,2,2,2,0,2,0,,,,,,,,,,,,,,,,,,,,,,,,,,,,,,,,,,,,,,,,,,,,,,,,,,,,,,,,,,,,,,,,30,,,,,,,,1477.3607907000114,1477.3607907000114,1477.3607907000114,1477.3607907000114,1477.3607907000114,,,,,left,0.4268312999920454,0,0,0,99,0.32,0.32,left,0.33462939999299124,,,,,,,,,,,,,,,,,,,,,,,,,,,,,,,,,,,,,,,,,,,,,,,,,,,,,,,,XVMZCK,train_x,blue_star,top_right,2025-09-27_13h05.32.559,HideSeek_v1,2022.2.5,59.95218213834401,
,9,9,5,9,-4,0,21,,train_dim1_1,3,30,,,,2,0,2,0,,,,,,,,,0,0,0,0,0,2,2,2,3,0,3,0,,,,,,,,,,,,,,,,,,,,,,,,,,,,,,,,,,,,,,,,,,,,,,,,,,,,,,,,,,,,,,,,30,,,,,,,,1477.7945348999929,1477.7945348999929,1477.7945348999929,1477.7945348999929,1477.7945348999929,,,,,left,0.2599525999976322,0,0,0,99,0.24,0.32,left,0.17040040000574663,,,,,,,,,,,,,,,,,,,,,,,,,,,,,,,,,,,,,,,,,,,,,,,,,,,,,,,,XVMZCK,train_x,blue_star,top_right,2025-09-27_13h05.32.559,HideSeek_v1,2022.2.5,59.95218213834401,
,9,9,5,9,-4,0,21,,train_dim1_1,3,30,,,,2,0,2,0,,,,,,,,,0,0,0,0,0,2,2,2,4,0,4,0,,,,,,,,,,,,,,,,,,,,,,,,,,,,,,,,,,,,,,,,,,,,,,,,,,,,,,,,,,,,,,,,30,,,,,,,,1478.0612167000072,1478.0612167000072,1478.0612167000072,1478.0612167000072,1478.0612167000072,-2,-4,0.24,0.32,return,1.1272962000221014,1,0,0,1,0.24,0.32,return,1.0499708000279497,,,,,,,,,,,,,,,,,,,,,,,,,,,,,,,,,,,,,,,,,,,,,,,,,,,,,,,,XVMZCK,train_x,blue_star,top_right,2025-09-27_13h05.32.559,HideSeek_v1,2022.2.5,59.95218213834401,
,7,8,6,8,-1,0,51,,train_dim1_1,4,30,,,,2,0,2,0,,,,,,,,,0,0,0,0,0,3,3,3,0,0,0,0,,,,,,,,,,,,,,,,,,,,,,,,,stimuli/alien_stimuli/51.png,,,,,,,,,,,,,,,,,,,,,,,,,,,,,stimuli/alien_stimuli/21.png,21,9,5,,,,,,,30,,,,,,,,1485.581608700013,1485.581608700013,1485.581608700013,1485.581608700013,1485.581608700013,,,,,left,2.6872026000055484,1,0,0,99,0.32,0.24,left,2.59437939999043,1484.0157698999974,1485.581608700013,0.24,0.32,0.0,0.32,0.32,0.24,0.4,0.24,0.32,1480.7787292999856,1480.7787292999856,1480.7787292999856,1480.7787292999856,1480.7787292999856,1480.7787292999856,1480.7787292999856,1480.7787292999856,1480.7627086800173,3.371733800013317,return,3.206669100007275,,,,,,,,,,,,,,,,,,,,,,,,,,,,,,,,,XVMZCK,train_x,blue_star,top_right,2025-09-27_13h05.32.559,HideSeek_v1,2022.2.5,59.95218213834401,
,7,8,6,8,-1,0,51,,train_dim1_1,4,30,,,,2,0,2,0,,,,,,,,,0,0,0,0,0,3,3,3,1,0,1,0,,,,,,,,,,,,,,,,,,,,,,,,,,,,,,,,,,,,,,,,,,,,,,,,,,,,,,,,,,,,,,,,30,,,,,,,,1488.2691286999907,1488.2691286999907,1488.2691286999907,1488.2691286999907,1488.2691286999907,,,,,left,0.7263762000075076,1,0,0,99,0.24,0.24,left,0.6358525000105146,,,,,,,,,,,,,,,,,,,,,,,,,,,,,,,,,,,,,,,,,,,,,,,,,,,,,,,,XVMZCK,train_x,blue_star,top_right,2025-09-27_13h05.32.559,HideSeek_v1,2022.2.5,59.95218213834401,
,7,8,6,8,-1,0,51,,train_dim1_1,4,30,,,,2,0,2,0,,,,,,,,,0,0,0,0,0,3,3,3,2,0,2,0,,,,,,,,,,,,,,,,,,,,,,,,,,,,,,,,,,,,,,,,,,,,,,,,,,,,,,,,,,,,,,,,30,,,,,,,,1489.0040873000107,1489.0040873000107,1489.0040873000107,1489.0040873000107,1489.0040873000107,,,,,up,0.5081600999983493,1,0,0,99,0.24,0.32,up,0.42275709999375977,,,,,,,,,,,,,,,,,,,,,,,,,,,,,,,,,,,,,,,,,,,,,,,,,,,,,,,,XVMZCK,train_x,blue_star,top_right,2025-09-27_13h05.32.559,HideSeek_v1,2022.2.5,59.95218213834401,
,7,8,6,8,-1,0,51,,train_dim1_1,4,30,,,,2,0,2,0,,,,,,,,,0,0,0,0,0,3,3,3,3,0,3,0,,,,,,,,,,,,,,,,,,,,,,,,,,,,,,,,,,,,,,,,,,,,,,,,,,,,,,,,,,,,,,,,30,,,,,,,,1489.520626100013,1489.520626100013,1489.520626100013,1489.520626100013,1489.520626100013,-1,-6,0.24,0.32,return,0.8438792999950238,1,0,0,0,0.24,0.32,return,0.7525099999911617,,,,,,,,,,,,,,,,,,,,,,,,,,,,,,,,,,,,,,,,,,,,,,,,,,,,,,,,XVMZCK,train_x,blue_star,top_right,2025-09-27_13h05.32.559,HideSeek_v1,2022.2.5,59.95218213834401,
,5,7,5,7,0,0,61,,train_dim1_1,5,30,,,,2,0,2,0,,,,,,,,,0,0,0,0,0,4,4,4,0,0,0,0,,,,,,,,,,,,,,,,,,,,,,,,,stimuli/alien_stimuli/61.png,,,,,,,,,,,,,,,,,,,,,,,,,,,,,stimuli/alien_stimuli/51.png,51,7,6,,,,,,,30,,,,,,,,1499.0720639000065,1499.0720639000065,1499.0720639000065,1499.0720639000065,1499.0720639000065,,,,,down,1.670063300000038,1,0,0,99,0.24,0.08,down,1.5885758000076748,1497.5098510000098,1499.0720639000065,0.32,0.24,0.0,0.08,0.24,0.32,0.36,0.32,0.24,1491.939972399996,1491.939972399996,1491.939972399996,1491.939972399996,1491.939972399996,1491.939972399996,1491.939972399996,1491.939972399996,1491.9221845700113,5.689952399989124,return,5.53849530001753,,,,,,,,,,,,,,,,,,,,,,,,,,,,,,,,,XVMZCK,train_x,blue_star,top_right,2025-09-27_13h05.32.559,HideSeek_v1,2022.2.5,59.95218213834401,
,5,7,5,7,0,0,61,,train_dim1_1,5,30,,,,2,0,2,0,,,,,,,,,0,0,0,0,0,4,4,4,1,0,1,0,,,,,,,,,,,,,,,,,,,,,,,,,,,,,,,,,,,,,,,,,,,,,,,,,,,,,,,,,,,,,,,,30,,,,,,,,1500.743251899985,1500.743251899985,1500.743251899985,1500.743251899985,1500.743251899985,,,,,down,0.6762775999959558,1,0,0,99,0.24,0.0,down,0.5878296000009868,,,,,,,,,,,,,,,,,,,,,,,,,,,,,,,,,,,,,,,,,,,,,,,,,,,,,,,,XVMZCK,train_x,blue_star,top_right,2025-09-27_13h05.32.559,HideSeek_v1,2022.2.5,59.95218213834401,
,5,7,5,7,0,0,61,,train_dim1_1,5,30,,,,2,0,2,0,,,,,,,,,0,0,0,0,0,4,4,4,2,0,2,0,,,,,,,,,,,,,,,,,,,,,,,,,,,,,,,,,,,,,,,,,,,,,,,,,,,,,,,,,,,,,,,,30,,,,,,,,1501.4272228000045,1501.4272228000045,1501.4272228000045,1501.4272228000045,1501.4272228000045,-3,-6,0.24,0.0,return,0.7436346999893431,1,0,0,0,0.24,0.0,return,0.6573177000100259,,,,,,,,,,,,,,,,,,,,,,,,,,,,,,,,,,,,,,,,,,,,,,,,,,,,,,,,XVMZCK,train_x,blue_star,top_right,2025-09-27_13h05.32.559,HideSeek_v1,2022.2.5,59.95218213834401,
,5,5,1,5,-4,0,21,,train_dim1_1,6,30,,,,2,0,2,0,,,,,,,,,0,0,0,0,0,5,5,5,0,0,0,0,,,,,,,,,,,,,,,,,,,,,,,,,stimuli/alien_stimuli/21.png,,,,,,,,,,,,,,,,,,,,,,,,,,,,,stimuli/alien_stimuli/61.png,61,5,7,,,,,,,30,,,,,,,,1509.7371031999937,1509.7371031999937,1509.7371031999937,1509.7371031999937,1509.7371031999937,,,,,left,2.8871359000040684,1,0,0,99,0.15999999999999998,0,left,2.7903174000093713,1508.1688383999863,1509.7371031999937,0.24,0.16,0.0,0.0,0.16,0.24,0.24,0.24,0.16,1503.7481601999898,1503.7481601999898,1503.7481601999898,1503.7481601999898,1503.7481601999898,1503.7481601999898,1503.7481601999898,1503.7481601999898,1503.7319157700285,4.539162499975646,return,4.404113600001438,,,,,,,,,,,,,,,,,,,,,,,,,,,,,,,,,XVMZCK,train_x,blue_star,top_right,2025-09-27_13h05.32.559,HideSeek_v1,2022.2.5,59.95218213834401,
,5,5,1,5,-4,0,21,,train_dim1_1,6,30,,,,2,0,2,0,,,,,,,,,0,0,0,0,0,5,5,5,1,0,1,0,,,,,,,,,,,,,,,,,,,,,,,,,,,,,,,,,,,,,,,,,,,,,,,,,,,,,,,,,,,,,,,,30,,,,,,,,1512.6257822999905,1512.6257822999905,1512.6257822999905,1512.6257822999905,1512.6257822999905,-3,-7,0.15999999999999998,0,return,0.441286500019487,1,0,0,0,0.15999999999999998,0,return,0.35858239998924546,,,,,,,,,,,,,,,,,,,,,,,,,,,,,,,,,,,,,,,,,,,,,,,,,,,,,,,,XVMZCK,train_x,blue_star,top_right,2025-09-27_13h05.32.559,HideSeek_v1,2022.2.5,59.95218213834401,
,8,5,8,5,0,0,61,,train_dim1_1,7,30,,,,2,0,2,0,,,,,,,,,0,0,0,0,0,6,6,6,0,0,0,0,,,,,,,,,,,,,,,,,,,,,,,,,stimuli/alien_stimuli/61.png,,,,,,,,,,,,,,,,,,,,,,,,,,,,,stimuli/alien_stimuli/21.png,21,5,8,,,,,,,30,,,,,,,,1520.257888299995,1520.257888299995,1520.257888299995,1520.257888299995,1520.257888299995,-3,-7,0.48,0,return,1.803543299989542,2,0,0,1,0.48,0,return,1.7222938000049908,1518.6942470000067,1520.257888299995,-0.08,0,0.0,0.32,0.0,-0.08,0.07999999999999999,-0.08,0,1514.653994399996,1514.653994399996,1514.653994399996,1514.653994399996,1514.653994399996,1514.653994399996,1514.653994399996,1514.653994399996,1514.6409383800171,4.172386799997184,return,4.020730899996124,,,,,,,,,,,,,,,,,,,,,,,,,,,,,,,,,XVMZCK,train_x,blue_star,top_right,2025-09-27_13h05.32.559,HideSeek_v1,2022.2.5,59.95218213834401,
,5,9,2,9,-3,0,31,,train_dim1_1,8,30,,,,2,0,2,0,,,,,,,,,0,0,0,0,0,7,7,7,0,0,0,0,,,,,,,,,,,,,,,,,,,,,,,,,stimuli/alien_stimuli/31.png,,,,,,,,,,,,,,,,,,,,,,,,,,,,,stimuli/alien_stimuli/61.png,61,8,9,,,,,,,30,,,,,,,,1528.4982990999997,1528.4982990999997,1528.4982990999997,1528.4982990999997,1528.4982990999997,,,,,down,2.902703500003554,2,0,0,99,0.24,0.24,down,2.819819099997403,1526.9344073999964,1528.4982990999997,0.48,0,0.0,0.0,0.0,0.48,0.48,0.48,0,1523.6298483999853,1523.6298483999853,1523.6298483999853,1523.6298483999853,1523.6298483999853,1523.6298483999853,1523.6298483999853,1523.6298483999853,1523.6147646700147,3.421461599995382,return,3.2840954000130296,,,,,,,,,,,,,,,,,,,,,,,,,,,,,,,,,XVMZCK,train_x,blue_star,top_right,2025-09-27_13h05.32.559,HideSeek_v1,2022.2.5,59.95218213834401,
,5,9,2,9,-3,0,31,,train_dim1_1,8,30,,,,2,0,2,0,,,,,,,,,0,0,0,0,0,7,7,7,1,0,1,0,,,,,,,,,,,,,,,,,,,,,,,,,,,,,,,,,,,,,,,,,,,,,,,,,,,,,,,,,,,,,,,,30,,,,,,,,1531.40257440001,1531.40257440001,1531.40257440001,1531.40257440001,1531.40257440001,,,,,down,0.5428934000083245,2,0,0,99,0.24,0.15999999999999998,down,0.46497099997941405,,,,,,,,,,,,,,,,,,,,,,,,,,,,,,,,,,,,,,,,,,,,,,,,,,,,,,,,XVMZCK,train_x,blue_star,top_right,2025-09-27_13h05.32.559,HideSeek_v1,2022.2.5,59.95218213834401,
,5,9,2,9,-3,0,31,,train_dim1_1,8,30,,,,2,0,2,0,,,,,,,,,0,0,0,0,0,7,7,7,2,0,2,0,,,,,,,,,,,,,,,,,,,,,,,,,,,,,,,,,,,,,,,,,,,,,,,,,,,,,,,,,,,,,,,,30,,,,,,,,1531.9526476000028,1531.9526476000028,1531.9526476000028,1531.9526476000028,1531.9526476000028,,,,,down,0.6437446000054479,2,0,0,99,0.24,0.07999999999999997,down,0.5706133999919984,,,,,,,,,,,,,,,,,,,,,,,,,,,,,,,,,,,,,,,,,,,,,,,,,,,,,,,,XVMZCK,train_x,blue_star,top_right,2025-09-27_13h05.32.559,HideSeek_v1,2022.2.5,59.95218213834401,
,5,9,2,9,-3,0,31,,train_dim1_1,8,30,,,,2,0,2,0,,,,,,,,,0,0,0,0,0,7,7,7,3,0,3,0,,,,,,,,,,,,,,,,,,,,,,,,,,,,,,,,,,,,,,,,,,,,,,,,,,,,,,,,,,,,,,,,30,,,,,,,,1532.6034941000107,1532.6034941000107,1532.6034941000107,1532.6034941000107,1532.6034941000107,,,,,down,0.7602935000031721,2,0,0,99,0.24,-2.7755575615628914e-17,down,0.6848286000022199,,,,,,,,,,,,,,,,,,,,,,,,,,,,,,,,,,,,,,,,,,,,,,,,,,,,,,,,XVMZCK,train_x,blue_star,top_right,2025-09-27_13h05.32.559,HideSeek_v1,2022.2.5,59.95218213834401,
,5,9,2,9,-3,0,31,,train_dim1_1,8,30,,,,2,0,2,0,,,,,,,,,0,0,0,0,0,7,7,7,4,0,4,0,,,,,,,,,,,,,,,,,,,,,,,,,,,,,,,,,,,,,,,,,,,,,,,,,,,,,,,,,,,,,,,,30,,,,,,,,1533.3709616000124,1533.3709616000124,1533.3709616000124,1533.3709616000124,1533.3709616000124,,,,,down,0.5766621999791823,2,0,0,99,0.24,-0.08000000000000003,down,0.4920535999990534,,,,,,,,,,,,,,,,,,,,,,,,,,,,,,,,,,,,,,,,,,,,,,,,,,,,,,,,XVMZCK,train_x,blue_star,top_right,2025-09-27_13h05.32.559,HideSeek_v1,2022.2.5,59.95218213834401,
,5,9,2,9,-3,0,31,,train_dim1_1,8,30,,,,2,0,2,0,,,,,,,,,0,0,0,0,0,7,7,7,5,0,5,0,,,,,,,,,,,,,,,,,,,,,,,,,,,,,,,,,,,,,,,,,,,,,,,,,,,,,,,,,,,,,,,,30,,,,,,,,1533.9574316999933,1533.9574316999933,1533.9574316999933,1533.9574316999933,1533.9574316999933,-8,-7,0.24,-0.08000000000000003,return,0.7066138999944087,2,0,0,0,0.24,-0.08000000000000003,return,0.6238020999880973,,,,,,,,,,,,,,,,,,,,,,,,,,,,,,,,,,,,,,,,,,,,,,,,,,,,,,,,XVMZCK,train_x,blue_star,top_right,2025-09-27_13h05.32.559,HideSeek_v1,2022.2.5,59.95218213834401,
,6,5,5,5,-1,0,51,,train_dim1_1,9,30,,,,2,0,2,0,,,,,,,,,0,0,0,0,0,8,8,8,0,0,0,0,,,,,,,,,,,,,,,,,,,,,,,,,stimuli/alien_stimuli/51.png,,,,,,,,,,,,,,,,,,,,,,,,,,,,,stimuli/alien_stimuli/31.png,31,5,10,,,,,,,30,,,,,,,,1540.5798574000073,1540.5798574000073,1540.5798574000073,1540.5798574000073,1540.5798574000073,-8,-7,0.32,0,return,3.534523899987107,2,1,0,0,0.32,0,return,3.4453593000071123,1539.0111447999952,1540.5798574000073,0,0.32,0.0,0.24,0.32,0,0.12,0,0.32,1536.244664400001,1536.244664400001,1536.244664400001,1536.244664400001,1536.244664400001,1536.244664400001,1536.244664400001,1536.244664400001,1536.2250759700137,2.8880783999920823,return,2.7436370000068564,,,,,,,,,,,,,,,,,,,,,,,,,,,,,,,,,XVMZCK,train_x,blue_star,top_right,2025-09-27_13h05.32.559,HideSeek_v1,2022.2.5,59.95218213834401,
,5,8,0,8,-5,0,11,,train_dim1_1,10,30,,,,2,0,2,0,,,,,,,,,0,0,0,0,0,9,9,9,0,0,0,0,,,,,,,,,,,,,,,,,,,,,,,,,stimuli/alien_stimuli/11.png,,,,,,,,,,,,,,,,,,,,,,,,,,,,,stimuli/alien_stimuli/51.png,51,6,11,,,,,,,30,,,,,,,,1553.2386441999988,1553.2386441999988,1553.2386441999988,1553.2386441999988,1553.2386441999988,,,,,down,1.5693656000075862,2,1,0,99,0.24,0.15999999999999998,down,1.479399400006514,1551.6718660999904,1553.2386441999988,0.24,0,0.0,0.08,0.0,0.24,0.28,0.24,0,1545.6757443000097,1545.6757443000097,1545.6757443000097,1545.6757443000097,1545.6757443000097,1545.6757443000097,1545.6757443000097,1545.6757443000097,1545.6665127700135,6.107013500004541,return,5.963815900002373,,,,,,,,,,,,,,,,,,,,,,,,,,,,,,,,,XVMZCK,train_x,blue_star,top_right,2025-09-27_13h05.32.559,HideSeek_v1,2022.2.5,59.95218213834401,
,5,8,0,8,-5,0,11,,train_dim1_1,10,30,,,,2,0,2,0,,,,,,,,,0,0,0,0,0,9,9,9,1,0,1,0,,,,,,,,,,,,,,,,,,,,,,,,,,,,,,,,,,,,,,,,,,,,,,,,,,,,,,,,,,,,,,,,30,,,,,,,,1554.810183900001,1554.810183900001,1554.810183900001,1554.810183900001,1554.810183900001,,,,,down,0.4252056000113953,2,1,0,99,0.24,0.07999999999999997,down,0.3445539000094868,,,,,,,,,,,,,,,,,,,,,,,,,,,,,,,,,,,,,,,,,,,,,,,,,,,,,,,,XVMZCK,train_x,blue_star,top_right,2025-09-27_13h05.32.559,HideSeek_v1,2022.2.5,59.95218213834401,
,5,8,0,8,-5,0,11,,train_dim1_1,10,30,,,,2,0,2,0,,,,,,,,,0,0,0,0,0,9,9,9,2,0,2,0,,,,,,,,,,,,,,,,,,,,,,,,,,,,,,,,,,,,,,,,,,,,,,,,,,,,,,,,,,,,,,,,30,,,,,,,,1555.2463900999865,1555.2463900999865,1555.2463900999865,1555.2463900999865,1555.2463900999865,-10,-7,0.24,0.07999999999999997,return,0.5055879999999888,2,0,0,0,0.24,0.07999999999999997,return,0.42568429998937063,,,,,,,,,,,,,,,,,,,,,,,,,,,,,,,,,,,,,,,,,,,,,,,,,,,,,,,,XVMZCK,train_x,blue_star,top_right,2025-09-27_13h05.32.559,HideSeek_v1,2022.2.5,59.95218213834401,
,7,7,4,7,-3,0,31,,train_dim1_1,11,30,,,,2,0,2,0,,,,,,,,,0,0,0,0,0,10,10,10,0,0,0,0,,,,,,,,,,,,,,,,,,,,,,,,,stimuli/alien_stimuli/31.png,,,,,,,,,,,,,,,,,,,,,,,,,,,,,stimuli/alien_stimuli/11.png,11,5,12,,,,,,,30,,,,,,,,1563.342872899986,1563.342872899986,1563.342872899986,1563.342872899986,1563.342872899986,,,,,left,1.736245800013421,2,0,0,99,0.32,0.16,left,1.6559338999795727,1561.7800514000119,1563.342872899986,-0.16,0.24,0.0,0.4,0.24,-0.16,0.039999999999999994,-0.16,0.24,1557.3322000000044,1557.3322000000044,1557.3322000000044,1557.3322000000044,1557.3322000000044,1557.3322000000044,1557.3322000000044,1557.3322000000044,1557.3094588700214,4.5726163999934215,return,4.418166499992367,,,,,,,,,,,,,,,,,,,,,,,,,,,,,,,,,XVMZCK,train_x,blue_star,top_right,2025-09-27_13h05.32.559,HideSeek_v1,2022.2.5,59.95218213834401,
,7,7,4,7,-3,0,31,,train_dim1_1,11,30,,,,2,0,2,0,,,,,,,,,0,0,0,0,0,10,10,10,1,0,1,0,,,,,,,,,,,,,,,,,,,,,,,,,,,,,,,,,,,,,,,,,,,,,,,,,,,,,,,,,,,,,,,,30,,,,,,,,1565.0800730999908,1565.0800730999908,1565.0800730999908,1565.0800730999908,1565.0800730999908,,,,,left,0.5762318999913987,2,0,0,99,0.24,0.16,left,0.5024775000056252,,,,,,,,,,,,,,,,,,,,,,,,,,,,,,,,,,,,,,,,,,,,,,,,,,,,,,,,XVMZCK,train_x,blue_star,top_right,2025-09-27_13h05.32.559,HideSeek_v1,2022.2.5,59.95218213834401,
,7,7,4,7,-3,0,31,,train_dim1_1,11,30,,,,2,0,2,0,,,,,,,,,0,0,0,0,0,10,10,10,2,0,2,0,,,,,,,,,,,,,,,,,,,,,,,,,,,,,,,,,,,,,,,,,,,,,,,,,,,,,,,,,,,,,,,,30,,,,,,,,1565.666023800004,1565.666023800004,1565.666023800004,1565.666023800004,1565.666023800004,,,,,left,0.5755904999969061,2,0,0,99,0.15999999999999998,0.16,left,0.4955292000086047,,,,,,,,,,,,,,,,,,,,,,,,,,,,,,,,,,,,,,,,,,,,,,,,,,,,,,,,XVMZCK,train_x,blue_star,top_right,2025-09-27_13h05.32.559,HideSeek_v1,2022.2.5,59.95218213834401,
,7,7,4,7,-3,0,31,,train_dim1_1,11,30,,,,2,0,2,0,,,,,,,,,0,0,0,0,0,10,10,10,3,0,3,0,,,,,,,,,,,,,,,,,,,,,,,,,,,,,,,,,,,,,,,,,,,,,,,,,,,,,,,,,,,,,,,,30,,,,,,,,1566.247252400004,1566.247252400004,1566.247252400004,1566.247252400004,1566.247252400004,,,,,left,0.5600600000179838,2,0,0,99,0.07999999999999997,0.16,left,0.47736730001633987,,,,,,,,,,,,,,,,,,,,,,,,,,,,,,,,,,,,,,,,,,,,,,,,,,,,,,,,XVMZCK,train_x,blue_star,top_right,2025-09-27_13h05.32.559,HideSeek_v1,2022.2.5,59.95218213834401,
,7,7,4,7,-3,0,31,,train_dim1_1,11,30,,,,2,0,2,0,,,,,,,,,0,0,0,0,0,10,10,10,4,0,4,0,,,,,,,,,,,,,,,,,,,,,,,,,,,,,,,,,,,,,,,,,,,,,,,,,,,,,,,,,,,,,,,,30,,,,,,,,1566.815268700011,1566.815268700011,1566.815268700011,1566.815268700011,1566.815268700011,,,,,left,0.5771555000101216,2,0,0,99,-2.7755575615628914e-17,0.16,left,0.48845239999354817,,,,,,,,,,,,,,,,,,,,,,,,,,,,,,,,,,,,,,,,,,,,,,,,,,,,,,,,XVMZCK,train_x,blue_star,top_right,2025-09-27_13h05.32.559,HideSeek_v1,2022.2.5,59.95218213834401,
,7,7,4,7,-3,0,31,,train_dim1_1,11,30,,,,2,0,2,0,,,,,,,,,0,0,0,0,0,10,10,10,5,0,5,0,,,,,,,,,,,,,,,,,,,,,,,,,,,,,,,,,,,,,,,,,,,,,,,,,,,,,,,,,,,,,,,,30,,,,,,,,1567.3997138999985,1567.3997138999985,1567.3997138999985,1567.3997138999985,1567.3997138999985,-10,-12,-2.7755575615628914e-17,0.16,return,0.42673009997815825,2,0,0,0,-2.7755575615628914e-17,0.16,return,0.3478291000064928,,,,,,,,,,,,,,,,,,,,,,,,,,,,,,,,,,,,,,,,,,,,,,,,,,,,,,,,XVMZCK,train_x,blue_star,top_right,2025-09-27_13h05.32.559,HideSeek_v1,2022.2.5,59.95218213834401,
,5,5,1,5,-4,0,21,,train_dim1_1,12,30,,,,2,0,2,0,,,,,,,,,0,0,0,0,0,11,11,11,0,0,0,0,,,,,,,,,,,,,,,,,,,,,,,,,stimuli/alien_stimuli/21.png,,,,,,,,,,,,,,,,,,,,,,,,,,,,,stimuli/alien_stimuli/31.png,31,7,13,,,,,,,30,,,,,,,,1573.521648599999,1573.521648599999,1573.521648599999,1573.521648599999,1573.521648599999,,,,,left,1.6569065999938175,2,0,0,99,0.15999999999999998,0,left,1.5485956999764312,1571.9381318000087,1573.521648599999,0.16,0.16,0.0,0.24,0.16,0.16,0.28,0.16,0.16,1569.409313399985,1569.409313399985,1569.409313399985,1569.409313399985,1569.409313399985,1569.409313399985,1569.409313399985,1569.409313399985,1569.3861664700262,2.654527299979236,return,2.5022726000170223,,,,,,,,,,,,,,,,,,,,,,,,,,,,,,,,,XVMZCK,train_x,blue_star,top_right,2025-09-27_13h05.32.559,HideSeek_v1,2022.2.5,59.95218213834401,
,5,5,1,5,-4,0,21,,train_dim1_1,12,30,,,,2,0,2,0,,,,,,,,,0,0,0,0,0,11,11,11,1,0,1,0,,,,,,,,,,,,,,,,,,,,,,,,,,,,,,,,,,,,,,,,,,,,,,,,,,,,,,,,,,,,,,,,30,,,,,,,,1575.1593244000105,1575.1593244000105,1575.1593244000105,1575.1593244000105,1575.1593244000105,,,,,left,0.8089883999782614,2,0,0,99,0.07999999999999997,0,left,0.7241611999925226,,,,,,,,,,,,,,,,,,,,,,,,,,,,,,,,,,,,,,,,,,,,,,,,,,,,,,,,XVMZCK,train_x,blue_star,top_right,2025-09-27_13h05.32.559,HideSeek_v1,2022.2.5,59.95218213834401,
,5,5,1,5,-4,0,21,,train_dim1_1,12,30,,,,2,0,2,0,,,,,,,,,0,0,0,0,0,11,11,11,2,0,2,0,,,,,,,,,,,,,,,,,,,,,,,,,,,,,,,,,,,,,,,,,,,,,,,,,,,,,,,,,,,,,,,,30,,,,,,,,1575.9781180999998,1575.9781180999998,1575.9781180999998,1575.9781180999998,1575.9781180999998,-10,-14,0.07999999999999997,0,return,1.5417762999713887,2,0,0,0,0.07999999999999997,0,return,1.4517585999856237,,,,,,,,,,,,,,,,,,,,,,,,,,,,,,,,,,,,,,,,,,,,,,,,,,,,,,,,XVMZCK,train_x,blue_star,top_right,2025-09-27_13h05.32.559,HideSeek_v1,2022.2.5,59.95218213834401,
,5,9,4,9,-1,0,51,,train_dim1_1,13,30,,,,2,0,2,0,,,,,,,,,0,0,0,0,0,12,12,12,0,0,0,0,,,,,,,,,,,,,,,,,,,,,,,,,stimuli/alien_stimuli/51.png,,,,,,,,,,,,,,,,,,,,,,,,,,,,,stimuli/alien_stimuli/21.png,21,5,14,,,,,,,30,,,,,,,,1581.9918218000093,1581.9918218000093,1581.9918218000093,1581.9918218000093,1581.9918218000093,-10,-14,0.24,0.32,return,2.2503864000027534,2,1,0,0,0.24,0.32,return,2.1439889000030234,1580.412127299991,1581.9918218000093,-0.08,0,0.0,0.32,0.0,-0.08,0.07999999999999999,-0.08,0,1579.0888061999867,1579.0888061999867,1579.0888061999867,1579.0888061999867,1579.0888061999867,1579.0888061999867,1579.0888061999867,1579.0888061999867,1579.0779857700281,1.4366716999793425,return,1.2921046999981627,,,,,,,,,,,,,,,,,,,,,,,,,,,,,,,,,XVMZCK,train_x,blue_star,top_right,2025-09-27_13h05.32.559,HideSeek_v1,2022.2.5,59.95218213834401,
,9,8,4,8,-5,0,11,,train_dim1_1,14,30,,,,2,0,2,0,,,,,,,,,0,0,0,0,0,13,13,13,0,0,0,0,,,,,,,,,,,,,,,,,,,,,,,,,stimuli/alien_stimuli/11.png,,,,,,,,,,,,,,,,,,,,,,,,,,,,,stimuli/alien_stimuli/51.png,51,5,15,,,,,,,30,,,,,,,,1588.9458895999996,1588.9458895999996,1588.9458895999996,1588.9458895999996,1588.9458895999996,,,,,left,2.4578878000029363,2,1,0,99,0.48000000000000004,0.24,left,2.3674942000070587,1587.38479869999,1588.9458895999996,0.16,0.32,0.0,0.08,0.32,0.16,0.2,0.16,0.32,1585.7894705999934,1585.7894705999934,1585.7894705999934,1585.7894705999934,1585.7894705999934,1585.7894705999934,1585.7894705999934,1585.7894705999934,1585.76671236002,1.7034351000038441,return,1.5788644000131171,,,,,,,,,,,,,,,,,,,,,,,,,,,,,,,,,XVMZCK,train_x,blue_star,top_right,2025-09-27_13h05.32.559,HideSeek_v1,2022.2.5,59.95218213834401,
,9,8,4,8,-5,0,11,,train_dim1_1,14,30,,,,2,0,2,0,,,,,,,,,0,0,0,0,0,13,13,13,1,0,1,0,,,,,,,,,,,,,,,,,,,,,,,,,,,,,,,,,,,,,,,,,,,,,,,,,,,,,,,,,,,,,,,,30,,,,,,,,1591.4062622000056,1591.4062622000056,1591.4062622000056,1591.4062622000056,1591.4062622000056,,,,,left,0.4927849999803584,2,1,0,99,0.4,0.24,left,0.4052341999777127,,,,,,,,,,,,,,,,,,,,,,,,,,,,,,,,,,,,,,,,,,,,,,,,,,,,,,,,XVMZCK,train_x,blue_star,top_right,2025-09-27_13h05.32.559,HideSeek_v1,2022.2.5,59.95218213834401,
,9,8,4,8,-5,0,11,,train_dim1_1,14,30,,,,2,0,2,0,,,,,,,,,0,0,0,0,0,13,13,13,2,0,2,0,,,,,,,,,,,,,,,,,,,,,,,,,,,,,,,,,,,,,,,,,,,,,,,,,,,,,,,,,,,,,,,,30,,,,,,,,1591.9074684999941,1591.9074684999941,1591.9074684999941,1591.9074684999941,1591.9074684999941,,,,,left,0.5408731999923475,2,1,0,99,0.32,0.24,left,0.4556101000052877,,,,,,,,,,,,,,,,,,,,,,,,,,,,,,,,,,,,,,,,,,,,,,,,,,,,,,,,XVMZCK,train_x,blue_star,top_right,2025-09-27_13h05.32.559,HideSeek_v1,2022.2.5,59.95218213834401,
,9,8,4,8,-5,0,11,,train_dim1_1,14,30,,,,2,0,2,0,,,,,,,,,0,0,0,0,0,13,13,13,3,0,3,0,,,,,,,,,,,,,,,,,,,,,,,,,,,,,,,,,,,,,,,,,,,,,,,,,,,,,,,,,,,,,,,,30,,,,,,,,1592.4557491999876,1592.4557491999876,1592.4557491999876,1592.4557491999876,1592.4557491999876,,,,,left,0.5599813000007998,2,1,0,99,0.24,0.24,left,0.47899730000062846,,,,,,,,,,,,,,,,,,,,,,,,,,,,,,,,,,,,,,,,,,,,,,,,,,,,,,,,XVMZCK,train_x,blue_star,top_right,2025-09-27_13h05.32.559,HideSeek_v1,2022.2.5,59.95218213834401,
,9,8,4,8,-5,0,11,,train_dim1_1,14,30,,,,2,0,2,0,,,,,,,,,0,0,0,0,0,13,13,13,4,0,4,0,,,,,,,,,,,,,,,,,,,,,,,,,,,,,,,,,,,,,,,,,,,,,,,,,,,,,,,,,,,,,,,,30,,,,,,,,1593.02593850001,1593.02593850001,1593.02593850001,1593.02593850001,1593.02593850001,,,,,left,0.5573325000004843,2,1,0,99,0.15999999999999998,0.24,left,0.47006750002037734,,,,,,,,,,,,,,,,,,,,,,,,,,,,,,,,,,,,,,,,,,,,,,,,,,,,,,,,XVMZCK,train_x,blue_star,top_right,2025-09-27_13h05.32.559,HideSeek_v1,2022.2.5,59.95218213834401,
,9,8,4,8,-5,0,11,,train_dim1_1,14,30,,,,2,0,2,0,,,,,,,,,0,0,0,0,0,13,13,13,5,0,5,0,,,,,,,,,,,,,,,,,,,,,,,,,,,,,,,,,,,,,,,,,,,,,,,,,,,,,,,,,,,,,,,,30,,,,,,,,1593.5906178999867,1593.5906178999867,1593.5906178999867,1593.5906178999867,1593.5906178999867,-10,-19,0.15999999999999998,0.24,return,0.46029400001862086,3,0,0,1,0.15999999999999998,0.24,return,0.3732385999755934,,,,,,,,,,,,,,,,,,,,,,,,,,,,,,,,,,,,,,,,,,,,,,,,,,,,,,,,XVMZCK,train_x,blue_star,top_right,2025-09-27_13h05.32.559,HideSeek_v1,2022.2.5,59.95218213834401,
,9,7,9,7,0,0,61,,train_dim1_1,15,30,,,,2,0,2,0,,,,,,,,,0,0,0,0,0,14,14,14,0,0,0,0,,,,,,,,,,,,,,,,,,,,,,,,,stimuli/alien_stimuli/61.png,,,,,,,,,,,,,,,,,,,,,,,,,,,,,stimuli/alien_stimuli/11.png,11,9,16,,,,,,,30,,,,,,,,1598.8860018000123,1598.8860018000123,1598.8860018000123,1598.8860018000123,1598.8860018000123,-10,-19,0.56,0.16,return,1.9398309000243898,4,0,0,1,0.56,0.16,return,1.8326648999936879,1597.309294900013,1598.8860018000123,0.16,0.24,0.0,0.4,0.24,0.16,0.36000000000000004,0.16,0.24,1595.6160101999994,1595.6160101999994,1595.6160101999994,1595.6160101999994,1595.6160101999994,1595.6160101999994,1595.6160101999994,1595.6160101999994,1595.6080340700164,1.8039655000029597,return,1.6691143999923952,,,,,,,,,,,,,,,,,,,,,,,,,,,,,,,,,XVMZCK,train_x,blue_star,top_right,2025-09-27_13h05.32.559,HideSeek_v1,2022.2.5,59.95218213834401,
,8,8,7,8,-1,0,51,,train_dim1_1,16,30,,,,2,0,2,0,,,,,,,,,0,0,0,0,0,15,15,15,0,0,0,0,,,,,,,,,,,,,,,,,,,,,,,,,stimuli/alien_stimuli/51.png,,,,,,,,,,,,,,,,,,,,,,,,,,,,,stimuli/alien_stimuli/61.png,61,9,17,,,,,,,30,,,,,,,,1611.5135287999874,1611.5135287999874,1611.5135287999874,1611.5135287999874,1611.5135287999874,,,,,left,2.340766299981624,4,0,0,99,0.39999999999999997,0.24,left,2.2592684000264853,1609.9535414999991,1611.5135287999874,0.56,0.16,0.0,0.0,0.16,0.56,0.56,0.56,0.16,1602.3738057999872,1602.3738057999872,1602.3738057999872,1602.3738057999872,1602.3738057999872,1602.3738057999872,1602.3738057999872,1602.3738057999872,1602.3637901700158,7.691922199999681,return,7.562517500016838,,,,,,,,,,,,,,,,,,,,,,,,,,,,,,,,,XVMZCK,train_x,blue_star,top_right,2025-09-27_13h05.32.559,HideSeek_v1,2022.2.5,59.95218213834401,
,8,8,7,8,-1,0,51,,train_dim1_1,16,30,,,,2,0,2,0,,,,,,,,,0,0,0,0,0,15,15,15,1,0,1,0,,,,,,,,,,,,,,,,,,,,,,,,,,,,,,,,,,,,,,,,,,,,,,,,,,,,,,,,,,,,,,,,30,,,,,,,,1613.8568186000048,1613.8568186000048,1613.8568186000048,1613.8568186000048,1613.8568186000048,,,,,left,0.2587348000088241,4,0,0,99,0.31999999999999995,0.24,left,0.17443179999827407,,,,,,,,,,,,,,,,,,,,,,,,,,,,,,,,,,,,,,,,,,,,,,,,,,,,,,,,XVMZCK,train_x,blue_star,top_right,2025-09-27_13h05.32.559,HideSeek_v1,2022.2.5,59.95218213834401,
,8,8,7,8,-1,0,51,,train_dim1_1,16,30,,,,2,0,2,0,,,,,,,,,0,0,0,0,0,15,15,15,2,0,2,0,,,,,,,,,,,,,,,,,,,,,,,,,,,,,,,,,,,,,,,,,,,,,,,,,,,,,,,,,,,,,,,,30,,,,,,,,1614.122842599987,1614.122842599987,1614.122842599987,1614.122842599987,1614.122842599987,-10,-21,0.31999999999999995,0.24,return,0.6096585000050254,4,1,0,0,0.31999999999999995,0.24,return,0.5335859000042547,,,,,,,,,,,,,,,,,,,,,,,,,,,,,,,,,,,,,,,,,,,,,,,,,,,,,,,,XVMZCK,train_x,blue_star,top_right,2025-09-27_13h05.32.559,HideSeek_v1,2022.2.5,59.95218213834401,
,7,9,3,9,-4,0,21,,train_dim1_1,17,30,,,,2,0,2,0,,,,,,,,,0,0,0,0,0,16,16,16,0,0,0,0,,,,,,,,,,,,,,,,,,,,,,,,,stimuli/alien_stimuli/21.png,,,,,,,,,,,,,,,,,,,,,,,,,,,,,stimuli/alien_stimuli/51.png,51,8,18,,,,,,,30,,,,,,,,1620.960414000001,1620.960414000001,1620.960414000001,1620.960414000001,1620.960414000001,,,,,left,2.6711476999917068,4,1,0,99,0.32,0.32,left,2.574737200018717,1619.394378500001,1620.960414000001,0.4,0.24,0.0,0.08,0.24,0.4,0.44,0.4,0.24,1616.3108875000034,1616.3108875000034,1616.3108875000034,1616.3108875000034,1616.3108875000034,1616.3108875000034,1616.3108875000034,1616.3108875000034,1616.2918817700292,3.204583599988837,return,3.0541160000138916,,,,,,,,,,,,,,,,,,,,,,,,,,,,,,,,,XVMZCK,train_x,blue_star,top_right,2025-09-27_13h05.32.559,HideSeek_v1,2022.2.5,59.95218213834401,
,7,9,3,9,-4,0,21,,train_dim1_1,17,30,,,,2,0,2,0,,,,,,,,,0,0,0,0,0,16,16,16,1,0,1,0,,,,,,,,,,,,,,,,,,,,,,,,,,,,,,,,,,,,,,,,,,,,,,,,,,,,,,,,,,,,,,,,30,,,,,,,,1623.6324135999894,1623.6324135999894,1623.6324135999894,1623.6324135999894,1623.6324135999894,,,,,left,0.5595696999807842,4,1,0,99,0.24,0.32,left,0.47224280002410524,,,,,,,,,,,,,,,,,,,,,,,,,,,,,,,,,,,,,,,,,,,,,,,,,,,,,,,,XVMZCK,train_x,blue_star,top_right,2025-09-27_13h05.32.559,HideSeek_v1,2022.2.5,59.95218213834401,
,7,9,3,9,-4,0,21,,train_dim1_1,17,30,,,,2,0,2,0,,,,,,,,,0,0,0,0,0,16,16,16,2,0,2,0,,,,,,,,,,,,,,,,,,,,,,,,,,,,,,,,,,,,,,,,,,,,,,,,,,,,,,,,,,,,,,,,30,,,,,,,,1624.1992025999934,1624.1992025999934,1624.1992025999934,1624.1992025999934,1624.1992025999934,,,,,left,0.6434532999992371,4,1,0,99,0.15999999999999998,0.32,left,0.5635349999938626,,,,,,,,,,,,,,,,,,,,,,,,,,,,,,,,,,,,,,,,,,,,,,,,,,,,,,,,XVMZCK,train_x,blue_star,top_right,2025-09-27_13h05.32.559,HideSeek_v1,2022.2.5,59.95218213834401,
,7,9,3,9,-4,0,21,,train_dim1_1,17,30,,,,2,0,2,0,,,,,,,,,0,0,0,0,0,16,16,16,3,0,3,0,,,,,,,,,,,,,,,,,,,,,,,,,,,,,,,,,,,,,,,,,,,,,,,,,,,,,,,,,,,,,,,,30,,,,,,,,1624.8498442000127,1624.8498442000127,1624.8498442000127,1624.8498442000127,1624.8498442000127,-10,-24,0.15999999999999998,0.32,return,0.9939313999784645,4,1,0,0,0.15999999999999998,0.32,return,0.9118629999866243,,,,,,,,,,,,,,,,,,,,,,,,,,,,,,,,,,,,,,,,,,,,,,,,,,,,,,,,XVMZCK,train_x,blue_star,top_right,2025-09-27_13h05.32.559,HideSeek_v1,2022.2.5,59.95218213834401,
,7,6,7,6,0,0,61,,train_dim1_1,18,30,,,,2,0,2,0,,,,,,,,,0,0,0,0,0,17,17,17,0,0,0,0,,,,,,,,,,,,,,,,,,,,,,,,,stimuli/alien_stimuli/61.png,,,,,,,,,,,,,,,,,,,,,,,,,,,,,stimuli/alien_stimuli/21.png,21,7,19,,,,,,,30,,,,,,,,1630.9467994000006,1630.9467994000006,1630.9467994000006,1630.9467994000006,1630.9467994000006,-10,-24,0.4,0.08,return,1.1850858999823686,5,0,0,1,0.4,0.08,return,1.0905175999796484,1629.3694192999974,1630.9467994000006,0.08,0.32,0.0,0.32,0.32,0.08,0.24000000000000002,0.08,0.32,1627.426619100006,1627.426619100006,1627.426619100006,1627.426619100006,1627.426619100006,1627.426619100006,1627.426619100006,1627.426619100006,1627.4177563800301,2.0702309999905992,return,1.924517300009029,,,,,,,,,,,,,,,,,,,,,,,,,,,,,,,,,XVMZCK,train_x,blue_star,top_right,2025-09-27_13h05.32.559,HideSeek_v1,2022.2.5,59.95218213834401,
,5,8,2,8,-3,0,31,,train_dim1_1,19,30,,,,2,0,2,0,,,,,,,,,0,0,0,0,0,18,18,18,0,0,0,0,,,,,,,,,,,,,,,,,,,,,,,,,stimuli/alien_stimuli/31.png,,,,,,,,,,,,,,,,,,,,,,,,,,,,,stimuli/alien_stimuli/61.png,61,7,20,,,,,,,30,,,,,,,,1636.7204594000068,1636.7204594000068,1636.7204594000068,1636.7204594000068,1636.7204594000068,,,,,left,1.7035490999987815,5,0,0,99,0.15999999999999998,0.24,left,1.6141014999884646,1635.1574214999855,1636.7204594000068,0.4,0.08,0.0,0.0,0.08,0.4,0.4,0.4,0.08,1633.674878699996,1633.674878699996,1633.674878699996,1633.674878699996,1633.674878699996,1633.674878699996,1633.674878699996,1633.674878699996,1633.6561574600287,1.5868295000109356,return,1.4577024999889545,,,,,,,,,,,,,,,,,,,,,,,,,,,,,,,,,XVMZCK,train_x,blue_star,top_right,2025-09-27_13h05.32.559,HideSeek_v1,2022.2.5,59.95218213834401,
,5,8,2,8,-3,0,31,,train_dim1_1,19,30,,,,2,0,2,0,,,,,,,,,0,0,0,0,0,18,18,18,1,0,1,0,,,,,,,,,,,,,,,,,,,,,,,,,,,,,,,,,,,,,,,,,,,,,,,,,,,,,,,,,,,,,,,,30,,,,,,,,1638.4251480000094,1638.4251480000094,1638.4251480000094,1638.4251480000094,1638.4251480000094,,,,,left,0.6265091000241227,5,0,0,99,0.07999999999999997,0.24,left,0.5482131000026129,,,,,,,,,,,,,,,,,,,,,,,,,,,,,,,,,,,,,,,,,,,,,,,,,,,,,,,,XVMZCK,train_x,blue_star,top_right,2025-09-27_13h05.32.559,HideSeek_v1,2022.2.5,59.95218213834401,
,5,8,2,8,-3,0,31,,train_dim1_1,19,30,,,,2,0,2,0,,,,,,,,,0,0,0,0,0,18,18,18,2,0,2,0,,,,,,,,,,,,,,,,,,,,,,,,,,,,,,,,,,,,,,,,,,,,,,,,,,,,,,,,,,,,,,,,30,,,,,,,,1639.0593389999995,1639.0593389999995,1639.0593389999995,1639.0593389999995,1639.0593389999995,-10,-26,0.07999999999999997,0.24,return,0.7252596000034828,5,1,0,0,0.07999999999999997,0.24,return,0.6411434000183363,,,,,,,,,,,,,,,,,,,,,,,,,,,,,,,,,,,,,,,,,,,,,,,,,,,,,,,,XVMZCK,train_x,blue_star,top_right,2025-09-27_13h05.32.559,HideSeek_v1,2022.2.5,59.95218213834401,
,5,6,0,6,-5,0,11,,train_dim1_1,20,30,,,,2,0,2,0,,,,,,,,,0,0,0,0,0,19,19,19,0,0,0,0,,,,,,,,,,,,,,,,,,,,,,,,,stimuli/alien_stimuli/11.png,,,,,,,,,,,,,,,,,,,,,,,,,,,,,stimuli/alien_stimuli/31.png,31,5,21,,,,,,,30,,,,,,,,1644.613862600003,1644.613862600003,1644.613862600003,1644.613862600003,1644.613862600003,,,,,left,3.873374499991769,5,1,0,99,0.15999999999999998,0.08,left,3.76529360000859,1643.03087029999,1644.613862600003,0,0.24,0.0,0.24,0.24,0,0.12,0,0.24,1641.3484351999941,1641.3484351999941,1641.3484351999941,1641.3484351999941,1641.3484351999941,1641.3484351999941,1641.3484351999941,1641.3484351999941,1641.3292448600055,1.786958400014555,return,1.6550814999791328,,,,,,,,,,,,,,,,,,,,,,,,,,,,,,,,,XVMZCK,train_x,blue_star,top_right,2025-09-27_13h05.32.559,HideSeek_v1,2022.2.5,59.95218213834401,
,5,6,0,6,-5,0,11,,train_dim1_1,20,30,,,,2,0,2,0,,,,,,,,,0,0,0,0,0,19,19,19,1,0,1,0,,,,,,,,,,,,,,,,,,,,,,,,,,,,,,,,,,,,,,,,,,,,,,,,,,,,,,,,,,,,,,,,30,,,,,,,,1648.4718663000094,1648.4718663000094,1648.4718663000094,1648.4718663000094,1648.4718663000094,,,,,left,0.4746324000007007,5,1,0,99,0.07999999999999997,0.08,left,0.3834594000072684,,,,,,,,,,,,,,,,,,,,,,,,,,,,,,,,,,,,,,,,,,,,,,,,,,,,,,,,XVMZCK,train_x,blue_star,top_right,2025-09-27_13h05.32.559,HideSeek_v1,2022.2.5,59.95218213834401,
,5,6,0,6,-5,0,11,,train_dim1_1,20,30,,,,2,0,2,0,,,,,,,,,0,0,0,0,0,19,19,19,2,0,2,0,,,,,,,,,,,,,,,,,,,,,,,,,,,,,,,,,,,,,,,,,,,,,,,,,,,,,,,,,,,,,,,,30,,,,,,,,1648.9556668000005,1648.9556668000005,1648.9556668000005,1648.9556668000005,1648.9556668000005,,,,,left,0.37399269998422824,5,1,0,99,-2.7755575615628914e-17,0.08,left,0.28736280000885017,,,,,,,,,,,,,,,,,,,,,,,,,,,,,,,,,,,,,,,,,,,,,,,,,,,,,,,,XVMZCK,train_x,blue_star,top_right,2025-09-27_13h05.32.559,HideSeek_v1,2022.2.5,59.95218213834401,
,5,6,0,6,-5,0,11,,train_dim1_1,20,30,,,,2,0,2,0,,,,,,,,,0,0,0,0,0,19,19,19,3,0,3,0,,,,,,,,,,,,,,,,,,,,,,,,,,,,,,,,,,,,,,,,,,,,,,,,,,,,,,,,,,,,,,,,30,,,,,,,,1649.337016800011,1649.337016800011,1649.337016800011,1649.337016800011,1649.337016800011,,,,,left,0.44320099998731166,5,1,0,99,-0.08000000000000003,0.08,left,0.3612892999954056,,,,,,,,,,,,,,,,,,,,,,,,,,,,,,,,,,,,,,,,,,,,,,,,,,,,,,,,XVMZCK,train_x,blue_star,top_right,2025-09-27_13h05.32.559,HideSeek_v1,2022.2.5,59.95218213834401,
,5,6,0,6,-5,0,11,,train_dim1_1,20,30,,,,2,0,2,0,,,,,,,,,0,0,0,0,0,19,19,19,4,0,4,0,,,,,,,,,,,,,,,,,,,,,,,,,,,,,,,,,,,,,,,,,,,,,,,,,,,,,,,,,,,,,,,,30,,,,,,,,1649.786354300013,1649.786354300013,1649.786354300013,1649.786354300013,1649.786354300013,,,,,left,0.35998309997376055,5,1,0,99,-0.16000000000000003,0.08,left,0.28189270000439137,,,,,,,,,,,,,,,,,,,,,,,,,,,,,,,,,,,,,,,,,,,,,,,,,,,,,,,,XVMZCK,train_x,blue_star,top_right,2025-09-27_13h05.32.559,HideSeek_v1,2022.2.5,59.95218213834401,
,5,6,0,6,-5,0,11,,train_dim1_1,20,30,,,,2,0,2,0,,,,,,,,,0,0,0,0,0,19,19,19,5,0,5,0,,,,,,,,,,,,,,,,,,,,,,,,,,,,,,,,,,,,,,,,,,,,,,,,,,,,,,,,,,,,,,,,30,,,,,,,,1650.153810799995,1650.153810799995,1650.153810799995,1650.153810799995,1650.153810799995,-10,-31,-0.16000000000000003,0.08,return,0.5599982000130694,6,0,0,1,-0.16000000000000003,0.08,return,0.4734664999996312,,,,,,,,,,,,,,,,,,,,,,,,,,,,,,,,,,,,,,,,,,,,,,,,,,,,,,,,XVMZCK,train_x,blue_star,top_right,2025-09-27_13h05.32.559,HideSeek_v1,2022.2.5,59.95218213834401,
,9,7,6,7,-3,0,31,,train_dim1_1,21,30,,,,2,0,2,0,,,,,,,,,0,0,0,0,0,20,20,20,0,0,0,0,,,,,,,,,,,,,,,,,,,,,,,,,stimuli/alien_stimuli/31.png,,,,,,,,,,,,,,,,,,,,,,,,,,,,,stimuli/alien_stimuli/11.png,11,5,22,,,,,,,30,,,,,,,,1655.2797599000041,1655.2797599000041,1655.2797599000041,1655.2797599000041,1655.2797599000041,,,,,left,1.3494232000084594,6,0,0,99,0.48000000000000004,0.16,left,1.2576648000103887,1653.7064315000025,1655.2797599000041,-0.16,0.08,0.0,0.4,0.08,-0.16,0.039999999999999994,-0.16,0.08,1652.3020000999968,1652.3020000999968,1652.3020000999968,1652.3020000999968,1652.3020000999968,1652.3020000999968,1652.3020000999968,1652.3020000999968,1652.2889297800255,1.5366858000052162,return,1.3847456999938004,,,,,,,,,,,,,,,,,,,,,,,,,,,,,,,,,XVMZCK,train_x,blue_star,top_right,2025-09-27_13h05.32.559,HideSeek_v1,2022.2.5,59.95218213834401,
,9,7,6,7,-3,0,31,,train_dim1_1,21,30,,,,2,0,2,0,,,,,,,,,0,0,0,0,0,20,20,20,1,0,1,0,,,,,,,,,,,,,,,,,,,,,,,,,,,,,,,,,,,,,,,,,,,,,,,,,,,,,,,,,,,,,,,,30,,,,,,,,1656.6232480999897,1656.6232480999897,1656.6232480999897,1656.6232480999897,1656.6232480999897,,,,,left,0.47653849999187514,6,0,0,99,0.4,0.16,left,0.3956618000229355,,,,,,,,,,,,,,,,,,,,,,,,,,,,,,,,,,,,,,,,,,,,,,,,,,,,,,,,XVMZCK,train_x,blue_star,top_right,2025-09-27_13h05.32.559,HideSeek_v1,2022.2.5,59.95218213834401,
,9,7,6,7,-3,0,31,,train_dim1_1,21,30,,,,2,0,2,0,,,,,,,,,0,0,0,0,0,20,20,20,2,0,2,0,,,,,,,,,,,,,,,,,,,,,,,,,,,,,,,,,,,,,,,,,,,,,,,,,,,,,,,,,,,,,,,,30,,,,,,,,1657.1055873000005,1657.1055873000005,1657.1055873000005,1657.1055873000005,1657.1055873000005,,,,,left,0.40988769999239594,6,0,0,99,0.32,0.16,left,0.33675710001261905,,,,,,,,,,,,,,,,,,,,,,,,,,,,,,,,,,,,,,,,,,,,,,,,,,,,,,,,XVMZCK,train_x,blue_star,top_right,2025-09-27_13h05.32.559,HideSeek_v1,2022.2.5,59.95218213834401,
,9,7,6,7,-3,0,31,,train_dim1_1,21,30,,,,2,0,2,0,,,,,,,,,0,0,0,0,0,20,20,20,3,0,3,0,,,,,,,,,,,,,,,,,,,,,,,,,,,,,,,,,,,,,,,,,,,,,,,,,,,,,,,,,,,,,,,,30,,,,,,,,1657.5227291999909,1657.5227291999909,1657.5227291999909,1657.5227291999909,1657.5227291999909,-10,-34,0.32,0.16,return,0.39364260001457296,7,0,0,1,0.32,0.16,return,0.32034740000381134,,,,,,,,,,,,,,,,,,,,,,,,,,,,,,,,,,,,,,,,,,,,,,,,,,,,,,,,XVMZCK,train_x,blue_star,top_right,2025-09-27_13h05.32.559,HideSeek_v1,2022.2.5,59.95218213834401,
,6,5,2,5,-4,0,21,,train_dim1_1,22,30,,,,2,0,2,0,,,,,,,,,0,0,0,0,0,21,21,21,0,0,0,0,,,,,,,,,,,,,,,,,,,,,,,,,stimuli/alien_stimuli/21.png,,,,,,,,,,,,,,,,,,,,,,,,,,,,,stimuli/alien_stimuli/31.png,31,9,23,,,,,,,30,,,,,,,,1662.3106285000104,1662.3106285000104,1662.3106285000104,1662.3106285000104,1662.3106285000104,,,,,left,1.6874720999912824,7,0,0,99,0.24,0,left,1.5907165000098757,1660.7456731999991,1662.3106285000104,0.32,0.16,0.0,0.24,0.16,0.32,0.44000000000000006,0.32,0.16,1659.481371700007,1659.481371700007,1659.481371700007,1659.481371700007,1659.481371700007,1659.481371700007,1659.481371700007,1659.481371700007,1659.461326060025,1.369582299987087,return,1.234144899994135,,,,,,,,,,,,,,,,,,,,,,,,,,,,,,,,,XVMZCK,train_x,blue_star,top_right,2025-09-27_13h05.32.559,HideSeek_v1,2022.2.5,59.95218213834401,
,6,5,2,5,-4,0,21,,train_dim1_1,22,30,,,,2,0,2,0,,,,,,,,,0,0,0,0,0,21,21,21,1,0,1,0,,,,,,,,,,,,,,,,,,,,,,,,,,,,,,,,,,,,,,,,,,,,,,,,,,,,,,,,,,,,,,,,30,,,,,,,,1663.9995230000059,1663.9995230000059,1663.9995230000059,1663.9995230000059,1663.9995230000059,,,,,left,0.5091847000003327,7,0,0,99,0.15999999999999998,0,left,0.42221150000113994,,,,,,,,,,,,,,,,,,,,,,,,,,,,,,,,,,,,,,,,,,,,,,,,,,,,,,,,XVMZCK,train_x,blue_star,top_right,2025-09-27_13h05.32.559,HideSeek_v1,2022.2.5,59.95218213834401,
,6,5,2,5,-4,0,21,,train_dim1_1,22,30,,,,2,0,2,0,,,,,,,,,0,0,0,0,0,21,21,21,2,0,2,0,,,,,,,,,,,,,,,,,,,,,,,,,,,,,,,,,,,,,,,,,,,,,,,,,,,,,,,,,,,,,,,,30,,,,,,,,1664.5186768999847,1664.5186768999847,1664.5186768999847,1664.5186768999847,1664.5186768999847,,,,,left,0.390583800006425,7,0,0,99,0.07999999999999997,0,left,0.30561159999342635,,,,,,,,,,,,,,,,,,,,,,,,,,,,,,,,,,,,,,,,,,,,,,,,,,,,,,,,XVMZCK,train_x,blue_star,top_right,2025-09-27_13h05.32.559,HideSeek_v1,2022.2.5,59.95218213834401,
,6,5,2,5,-4,0,21,,train_dim1_1,22,30,,,,2,0,2,0,,,,,,,,,0,0,0,0,0,21,21,21,3,0,3,0,,,,,,,,,,,,,,,,,,,,,,,,,,,,,,,,,,,,,,,,,,,,,,,,,,,,,,,,,,,,,,,,30,,,,,,,,1664.9153749000106,1664.9153749000106,1664.9153749000106,1664.9153749000106,1664.9153749000106,,,,,left,0.3768015999812633,7,0,0,99,-2.7755575615628914e-17,0,left,0.3014642000198364,,,,,,,,,,,,,,,,,,,,,,,,,,,,,,,,,,,,,,,,,,,,,,,,,,,,,,,,XVMZCK,train_x,blue_star,top_right,2025-09-27_13h05.32.559,HideSeek_v1,2022.2.5,59.95218213834401,
,6,5,2,5,-4,0,21,,train_dim1_1,22,30,,,,2,0,2,0,,,,,,,,,0,0,0,0,0,21,21,21,4,0,4,0,,,,,,,,,,,,,,,,,,,,,,,,,,,,,,,,,,,,,,,,,,,,,,,,,,,,,,,,,,,,,,,,30,,,,,,,,1665.3022290999943,1665.3022290999943,1665.3022290999943,1665.3022290999943,1665.3022290999943,-10,-38,-2.7755575615628914e-17,0,return,0.40793819999089465,8,0,0,1,-2.7755575615628914e-17,0,return,0.3232152999844402,,,,,,,,,,,,,,,,,,,,,,,,,,,,,,,,,,,,,,,,,,,,,,,,,,,,,,,,XVMZCK,train_x,blue_star,top_right,2025-09-27_13h05.32.559,HideSeek_v1,2022.2.5,59.95218213834401,
,7,6,7,6,0,0,61,,train_dim1_1,23,30,,,,2,0,2,0,,,,,,,,,0,0,0,0,0,22,22,22,0,0,0,0,,,,,,,,,,,,,,,,,,,,,,,,,stimuli/alien_stimuli/61.png,,,,,,,,,,,,,,,,,,,,,,,,,,,,,stimuli/alien_stimuli/21.png,21,6,24,,,,,,,30,,,,,,,,1669.931699799985,1669.931699799985,1669.931699799985,1669.931699799985,1669.931699799985,-10,-38,0.4,0.08,return,1.2848252000112552,9,0,0,1,0.4,0.08,return,1.190651800017804,1668.3685870000045,1669.931699799985,0,0,0.0,0.32,0.0,0,0.16,0,0,1667.2778880000114,1667.2778880000114,1667.2778880000114,1667.2778880000114,1667.2778880000114,1667.2778880000114,1667.2778880000114,1667.2778880000114,1667.267817270028,1.2029488000262063,return,1.0583914000017103,,,,,,,,,,,,,,,,,,,,,,,,,,,,,,,,,XVMZCK,train_x,blue_star,top_right,2025-09-27_13h05.32.559,HideSeek_v1,2022.2.5,59.95218213834401,
,9,9,8,9,-1,0,51,,train_dim1_1,24,30,,,,2,0,2,0,,,,,,,,,0,0,0,0,0,23,23,23,0,0,0,0,,,,,,,,,,,,,,,,,,,,,,,,,stimuli/alien_stimuli/51.png,,,,,,,,,,,,,,,,,,,,,,,,,,,,,stimuli/alien_stimuli/61.png,61,7,25,,,,,,,30,,,,,,,,1675.7188095999882,1675.7188095999882,1675.7188095999882,1675.7188095999882,1675.7188095999882,,,,,left,1.5394117999821901,9,0,0,99,0.48000000000000004,0.32,left,1.4530626000196207,1674.156783000013,1675.7188095999882,0.4,0.08,0.0,0.0,0.08,0.4,0.4,0.4,0.08,1672.7723615999857,1672.7723615999857,1672.7723615999857,1672.7723615999857,1672.7723615999857,1672.7723615999857,1672.7723615999857,1672.7723615999857,1672.7554058600158,1.4868117999867536,return,1.356995400012238,,,,,,,,,,,,,,,,,,,,,,,,,,,,,,,,,XVMZCK,train_x,blue_star,top_right,2025-09-27_13h05.32.559,HideSeek_v1,2022.2.5,59.95218213834401,
,9,9,8,9,-1,0,51,,train_dim1_1,24,30,,,,2,0,2,0,,,,,,,,,0,0,0,0,0,23,23,23,1,0,1,0,,,,,,,,,,,,,,,,,,,,,,,,,,,,,,,,,,,,,,,,,,,,,,,,,,,,,,,,,,,,,,,,30,,,,,,,,1677.2603599999857,1677.2603599999857,1677.2603599999857,1677.2603599999857,1677.2603599999857,-10,-39,0.48000000000000004,0.32,return,0.5579535000142641,10,0,0,1,0.48000000000000004,0.32,return,0.4730811000044923,,,,,,,,,,,,,,,,,,,,,,,,,,,,,,,,,,,,,,,,,,,,,,,,,,,,,,,,XVMZCK,train_x,blue_star,top_right,2025-09-27_13h05.32.559,HideSeek_v1,2022.2.5,59.95218213834401,
,8,5,3,5,-5,0,11,,train_dim1_1,25,30,,,,2,0,2,0,,,,,,,,,0,0,0,0,0,24,24,24,0,0,0,0,,,,,,,,,,,,,,,,,,,,,,,,,stimuli/alien_stimuli/11.png,,,,,,,,,,,,,,,,,,,,,,,,,,,,,stimuli/alien_stimuli/51.png,51,9,26,,,,,,,30,,,,,,,,1682.0140833999903,1682.0140833999903,1682.0140833999903,1682.0140833999903,1682.0140833999903,,,,,left,1.3169115000055172,10,0,0,99,0.39999999999999997,0,left,1.231070300011197,1680.445427700004,1682.0140833999903,0.48,0.32,0.0,0.08,0.32,0.48,0.52,0.48,0.32,1679.3832417000085,1679.3832417000085,1679.3832417000085,1679.3832417000085,1679.3832417000085,1679.3832417000085,1679.3832417000085,1679.3832417000085,1679.3611493600124,1.1694515999988653,return,1.0304376000131015,,,,,,,,,,,,,,,,,,,,,,,,,,,,,,,,,XVMZCK,train_x,blue_star,top_right,2025-09-27_13h05.32.559,HideSeek_v1,2022.2.5,59.95218213834401,
,8,5,3,5,-5,0,11,,train_dim1_1,25,30,,,,2,0,2,0,,,,,,,,,0,0,0,0,0,24,24,24,1,0,1,0,,,,,,,,,,,,,,,,,,,,,,,,,,,,,,,,,,,,,,,,,,,,,,,,,,,,,,,,,,,,,,,,30,,,,,,,,1683.3344366000092,1683.3344366000092,1683.3344366000092,1683.3344366000092,1683.3344366000092,,,,,left,0.4574345999862999,10,0,0,99,0.31999999999999995,0,left,0.3709325999952853,,,,,,,,,,,,,,,,,,,,,,,,,,,,,,,,,,,,,,,,,,,,,,,,,,,,,,,,XVMZCK,train_x,blue_star,top_right,2025-09-27_13h05.32.559,HideSeek_v1,2022.2.5,59.95218213834401,
,8,5,3,5,-5,0,11,,train_dim1_1,25,30,,,,2,0,2,0,,,,,,,,,0,0,0,0,0,24,24,24,2,0,2,0,,,,,,,,,,,,,,,,,,,,,,,,,,,,,,,,,,,,,,,,,,,,,,,,,,,,,,,,,,,,,,,,30,,,,,,,,1683.7986906000006,1683.7986906000006,1683.7986906000006,1683.7986906000006,1683.7986906000006,,,,,left,0.560098999994807,10,0,0,99,0.23999999999999994,0,left,0.4829061000200454,,,,,,,,,,,,,,,,,,,,,,,,,,,,,,,,,,,,,,,,,,,,,,,,,,,,,,,,XVMZCK,train_x,blue_star,top_right,2025-09-27_13h05.32.559,HideSeek_v1,2022.2.5,59.95218213834401,
,8,5,3,5,-5,0,11,,train_dim1_1,25,30,,,,2,0,2,0,,,,,,,,,0,0,0,0,0,24,24,24,3,0,3,0,,,,,,,,,,,,,,,,,,,,,,,,,,,,,,,,,,,,,,,,,,,,,,,,,,,,,,,,,,,,,,,,30,,,,,,,,1684.3683010000095,1684.3683010000095,1684.3683010000095,1684.3683010000095,1684.3683010000095,,,,,left,0.5907408999919426,10,0,0,99,0.15999999999999992,0,left,0.5090812999987975,,,,,,,,,,,,,,,,,,,,,,,,,,,,,,,,,,,,,,,,,,,,,,,,,,,,,,,,XVMZCK,train_x,blue_star,top_right,2025-09-27_13h05.32.559,HideSeek_v1,2022.2.5,59.95218213834401,
,8,5,3,5,-5,0,11,,train_dim1_1,25,30,,,,2,0,2,0,,,,,,,,,0,0,0,0,0,24,24,24,4,0,4,0,,,,,,,,,,,,,,,,,,,,,,,,,,,,,,,,,,,,,,,,,,,,,,,,,,,,,,,,,,,,,,,,30,,,,,,,,1684.9663858999847,1684.9663858999847,1684.9663858999847,1684.9663858999847,1684.9663858999847,,,,,left,0.5262029999867082,10,0,0,99,0.07999999999999992,0,left,0.44336289999773726,,,,,,,,,,,,,,,,,,,,,,,,,,,,,,,,,,,,,,,,,,,,,,,,,,,,,,,,XVMZCK,train_x,blue_star,top_right,2025-09-27_13h05.32.559,HideSeek_v1,2022.2.5,59.95218213834401,
,8,5,3,5,-5,0,11,,train_dim1_1,25,30,,,,2,0,2,0,,,,,,,,,0,0,0,0,0,24,24,24,5,0,5,0,,,,,,,,,,,,,,,,,,,,,,,,,,,,,,,,,,,,,,,,,,,,,,,,,,,,,,,,,,,,,,,,30,,,,,,,,1685.5000349000038,1685.5000349000038,1685.5000349000038,1685.5000349000038,1685.5000349000038,-10,-44,0.07999999999999992,0,return,0.36000449999119155,11,0,0,1,0.07999999999999992,0,return,0.2731948999862652,,,,,,,,,,,,,,,,,,,,,,,,,,,,,,,,,,,,,,,,,,,,,,,,,,,,,,,,XVMZCK,train_x,blue_star,top_right,2025-09-27_13h05.32.559,HideSeek_v1,2022.2.5,59.95218213834401,
,6,6,6,6,0,0,61,,train_dim1_1,26,30,,,,2,0,2,0,,,,,,,,,0,0,0,0,0,25,25,25,0,0,0,0,,,,,,,,,,,,,,,,,,,,,,,,,stimuli/alien_stimuli/61.png,,,,,,,,,,,,,,,,,,,,,,,,,,,,,stimuli/alien_stimuli/11.png,11,8,27,,,,,,,30,,,,,,,,1691.2129776999936,1691.2129776999936,1691.2129776999936,1691.2129776999936,1691.2129776999936,-10,-44,0.32,0.08,return,1.384327999985544,12,0,0,1,0.32,0.08,return,1.2837198000052013,1689.636213299993,1691.2129776999936,0.08,0,0.0,0.4,0.0,0.08,0.27999999999999997,0.08,0,1687.4348172000027,1687.4348172000027,1687.4348172000027,1687.4348172000027,1687.4348172000027,1687.4348172000027,1687.4348172000027,1687.4348172000027,1687.417645370023,2.3202020000026096,return,2.1731637999764644,,,,,,,,,,,,,,,,,,,,,,,,,,,,,,,,,XVMZCK,train_x,blue_star,top_right,2025-09-27_13h05.32.559,HideSeek_v1,2022.2.5,59.95218213834401,
,5,6,2,6,-3,0,31,,train_dim1_1,27,30,,,,2,0,2,0,,,,,,,,,0,0,0,0,0,26,26,26,0,0,0,0,,,,,,,,,,,,,,,,,,,,,,,,,stimuli/alien_stimuli/31.png,,,,,,,,,,,,,,,,,,,,,,,,,,,,,stimuli/alien_stimuli/61.png,61,6,28,,,,,,,30,,,,,,,,1696.6083154999942,1696.6083154999942,1696.6083154999942,1696.6083154999942,1696.6083154999942,,,,,left,2.148395399999572,12,0,0,99,0.15999999999999998,0.08,left,2.0677268000144977,1695.040164200007,1696.6083154999942,0.32,0.08,0.0,0.0,0.08,0.32,0.32,0.32,0.08,1694.1419277999958,1694.1419277999958,1694.1419277999958,1694.1419277999958,1694.1419277999958,1694.1419277999958,1694.1419277999958,1694.1419277999958,1694.1231490600271,1.0028646000137087,return,0.8724647000199184,,,,,,,,,,,,,,,,,,,,,,,,,,,,,,,,,XVMZCK,train_x,blue_star,top_right,2025-09-27_13h05.32.559,HideSeek_v1,2022.2.5,59.95218213834401,
,5,6,2,6,-3,0,31,,train_dim1_1,27,30,,,,2,0,2,0,,,,,,,,,0,0,0,0,0,26,26,26,1,0,1,0,,,,,,,,,,,,,,,,,,,,,,,,,,,,,,,,,,,,,,,,,,,,,,,,,,,,,,,,,,,,,,,,30,,,,,,,,1698.7585013000062,1698.7585013000062,1698.7585013000062,1698.7585013000062,1698.7585013000062,,,,,left,0.44274669999140315,12,0,0,99,0.07999999999999997,0.08,left,0.35693300000275485,,,,,,,,,,,,,,,,,,,,,,,,,,,,,,,,,,,,,,,,,,,,,,,,,,,,,,,,XVMZCK,train_x,blue_star,top_right,2025-09-27_13h05.32.559,HideSeek_v1,2022.2.5,59.95218213834401,
,5,6,2,6,-3,0,31,,train_dim1_1,27,30,,,,2,0,2,0,,,,,,,,,0,0,0,0,0,26,26,26,2,0,2,0,,,,,,,,,,,,,,,,,,,,,,,,,,,,,,,,,,,,,,,,,,,,,,,,,,,,,,,,,,,,,,,,30,,,,,,,,1699.2080380000116,1699.2080380000116,1699.2080380000116,1699.2080380000116,1699.2080380000116,,,,,left,0.3601704999746289,12,0,0,99,-2.7755575615628914e-17,0.08,left,0.2730578000191599,,,,,,,,,,,,,,,,,,,,,,,,,,,,,,,,,,,,,,,,,,,,,,,,,,,,,,,,XVMZCK,train_x,blue_star,top_right,2025-09-27_13h05.32.559,HideSeek_v1,2022.2.5,59.95218213834401,
,5,6,2,6,-3,0,31,,train_dim1_1,27,30,,,,2,0,2,0,,,,,,,,,0,0,0,0,0,26,26,26,3,0,3,0,,,,,,,,,,,,,,,,,,,,,,,,,,,,,,,,,,,,,,,,,,,,,,,,,,,,,,,,,,,,,,,,30,,,,,,,,1699.576992599992,1699.576992599992,1699.576992599992,1699.576992599992,1699.576992599992,-10,-47,-2.7755575615628914e-17,0.08,return,0.2918026999977883,13,0,0,1,-2.7755575615628914e-17,0.08,return,0.2094931000028737,,,,,,,,,,,,,,,,,,,,,,,,,,,,,,,,,,,,,,,,,,,,,,,,,,,,,,,,XVMZCK,train_x,blue_star,top_right,2025-09-27_13h05.32.559,HideSeek_v1,2022.2.5,59.95218213834401,
,8,6,4,6,-4,0,21,,train_dim1_1,28,30,,,,2,0,2,0,,,,,,,,,0,0,0,0,0,27,27,27,0,0,0,0,,,,,,,,,,,,,,,,,,,,,,,,,stimuli/alien_stimuli/21.png,,,,,,,,,,,,,,,,,,,,,,,,,,,,,stimuli/alien_stimuli/31.png,31,5,29,,,,,,,30,,,,,,,,1704.015420300013,1704.015420300013,1704.015420300013,1704.015420300013,1704.015420300013,,,,,left,1.1399549999914598,13,0,0,99,0.39999999999999997,0.08,left,1.0351345000090078,1702.4467772000062,1704.015420300013,0,0.08,0.0,0.24,0.08,0,0.12,0,0.08,1701.4307879999978,1701.4307879999978,1701.4307879999978,1701.4307879999978,1701.4307879999978,1701.4307879999978,1701.4307879999978,1701.4307879999978,1701.4124177600256,1.1201244999829214,return,0.9959667999937665,,,,,,,,,,,,,,,,,,,,,,,,,,,,,,,,,XVMZCK,train_x,blue_star,top_right,2025-09-27_13h05.32.559,HideSeek_v1,2022.2.5,59.95218213834401,
,8,6,4,6,-4,0,21,,train_dim1_1,28,30,,,,2,0,2,0,,,,,,,,,0,0,0,0,0,27,27,27,1,0,1,0,,,,,,,,,,,,,,,,,,,,,,,,,,,,,,,,,,,,,,,,,,,,,,,,,,,,,,,,,,,,,,,,30,,,,,,,,1705.1526399999857,1705.1526399999857,1705.1526399999857,1705.1526399999857,1705.1526399999857,,,,,left,0.42639460001373664,13,0,0,99,0.31999999999999995,0.08,left,0.3426675999944564,,,,,,,,,,,,,,,,,,,,,,,,,,,,,,,,,,,,,,,,,,,,,,,,,,,,,,,,XVMZCK,train_x,blue_star,top_right,2025-09-27_13h05.32.559,HideSeek_v1,2022.2.5,59.95218213834401,
,8,6,4,6,-4,0,21,,train_dim1_1,28,30,,,,2,0,2,0,,,,,,,,,0,0,0,0,0,27,27,27,2,0,2,0,,,,,,,,,,,,,,,,,,,,,,,,,,,,,,,,,,,,,,,,,,,,,,,,,,,,,,,,,,,,,,,,30,,,,,,,,1705.587096000003,1705.587096000003,1705.587096000003,1705.587096000003,1705.587096000003,,,,,left,0.423709399998188,13,0,0,99,0.23999999999999994,0.08,left,0.3299276000179816,,,,,,,,,,,,,,,,,,,,,,,,,,,,,,,,,,,,,,,,,,,,,,,,,,,,,,,,XVMZCK,train_x,blue_star,top_right,2025-09-27_13h05.32.559,HideSeek_v1,2022.2.5,59.95218213834401,
,8,6,4,6,-4,0,21,,train_dim1_1,28,30,,,,2,0,2,0,,,,,,,,,0,0,0,0,0,27,27,27,3,0,3,0,,,,,,,,,,,,,,,,,,,,,,,,,,,,,,,,,,,,,,,,,,,,,,,,,,,,,,,,,,,,,,,,30,,,,,,,,1706.0222256999987,1706.0222256999987,1706.0222256999987,1706.0222256999987,1706.0222256999987,,,,,left,0.3572775000066031,13,0,0,99,0.15999999999999992,0.08,left,0.26242759998422116,,,,,,,,,,,,,,,,,,,,,,,,,,,,,,,,,,,,,,,,,,,,,,,,,,,,,,,,XVMZCK,train_x,blue_star,top_right,2025-09-27_13h05.32.559,HideSeek_v1,2022.2.5,59.95218213834401,
,8,6,4,6,-4,0,21,,train_dim1_1,28,30,,,,2,0,2,0,,,,,,,,,0,0,0,0,0,27,27,27,4,0,4,0,,,,,,,,,,,,,,,,,,,,,,,,,,,,,,,,,,,,,,,,,,,,,,,,,,,,,,,,,,,,,,,,30,,,,,,,,1706.3843242999865,1706.3843242999865,1706.3843242999865,1706.3843242999865,1706.3843242999865,-10,-51,0.15999999999999992,0.08,return,0.32599199999822304,14,0,0,1,0.15999999999999992,0.08,return,0.2493376999918837,,,,,,,,,,,,,,,,,,,,,,,,,,,,,,,,,,,,,,,,,,,,,,,,,,,,,,,,XVMZCK,train_x,blue_star,top_right,2025-09-27_13h05.32.559,HideSeek_v1,2022.2.5,59.95218213834401,
,9,5,8,5,-1,0,51,,train_dim1_1,29,30,,,,2,0,2,0,,,,,,,,,0,0,0,0,0,28,28,28,0,0,0,0,,,,,,,,,,,,,,,,,,,,,,,,,stimuli/alien_stimuli/51.png,,,,,,,,,,,,,,,,,,,,,,,,,,,,,stimuli/alien_stimuli/21.png,21,8,30,,,,,,,30,,,,,,,,1711.3158205999935,1711.3158205999935,1711.3158205999935,1711.3158205999935,1711.3158205999935,,,,,left,1.1375268999836408,14,0,0,99,0.48000000000000004,0,left,1.040479699993739,1709.7527432999923,1711.3158205999935,0.16,0.08,0.0,0.32,0.08,0.16,0.32,0.16,0.08,1708.2763307999994,1708.2763307999994,1708.2763307999994,1708.2763307999994,1708.2763307999994,1708.2763307999994,1708.2763307999994,1708.2763307999994,1708.2677515700225,1.5873076999851037,return,1.4581343999889214,,,,,,,,,,,,,,,,,,,,,,,,,,,,,,,,,XVMZCK,train_x,blue_star,top_right,2025-09-27_13h05.32.559,HideSeek_v1,2022.2.5,59.95218213834401,
,9,5,8,5,-1,0,51,,train_dim1_1,29,30,,,,2,0,2,0,,,,,,,,,0,0,0,0,0,28,28,28,1,0,1,0,,,,,,,,,,,,,,,,,,,,,,,,,,,,,,,,,,,,,,,,,,,,,,,,,,,,,,,,,,,,,,,,30,,,,,,,,1712.4552152999968,1712.4552152999968,1712.4552152999968,1712.4552152999968,1712.4552152999968,-10,-52,0.48000000000000004,0,return,0.3594618999923114,15,0,0,1,0.48000000000000004,0,return,0.27728969999589026,,,,,,,,,,,,,,,,,,,,,,,,,,,,,,,,,,,,,,,,,,,,,,,,,,,,,,,,XVMZCK,train_x,blue_star,top_right,2025-09-27_13h05.32.559,HideSeek_v1,2022.2.5,59.95218213834401,
,7,7,2,7,-5,0,11,,train_dim1_1,30,30,,,,2,0,2,0,,,,,,,,,0,0,0,0,0,29,29,29,0,0,0,0,,,,,,,,,,,,,,,,,,,,,,,,,stimuli/alien_stimuli/11.png,,,,,,,,,,,,,,,,,,,,,,,,,,,,,stimuli/alien_stimuli/51.png,51,9,31,,,,,,,30,,,,,,,,1716.8971783999878,1716.8971783999878,1716.8971783999878,1716.8971783999878,1716.8971783999878,,,,,left,1.2626077999884728,15,0,0,99,0.32,0.16,left,1.1684823999821674,1715.3242881000042,1716.8971783999878,0.48,0,0.0,0.08,0.0,0.48,0.52,0.48,0,1714.3815576999914,1714.3815576999914,1714.3815576999914,1714.3815576999914,1714.3815576999914,1714.3815576999914,1714.3815576999914,1714.3815576999914,1714.3731865700274,1.0528936999908183,return,0.9162855999893509,,,,,,,,,,,,,,,,,,,,,,,,,,,,,,,,,XVMZCK,train_x,blue_star,top_right,2025-09-27_13h05.32.559,HideSeek_v1,2022.2.5,59.95218213834401,
,7,7,2,7,-5,0,11,,train_dim1_1,30,30,,,,2,0,2,0,,,,,,,,,0,0,0,0,0,29,29,29,1,0,1,0,,,,,,,,,,,,,,,,,,,,,,,,,,,,,,,,,,,,,,,,,,,,,,,,,,,,,,,,,,,,,,,,30,,,,,,,,1718.1604179000133,1718.1604179000133,1718.1604179000133,1718.1604179000133,1718.1604179000133,,,,,left,0.49355159999686293,15,0,0,99,0.24,0.16,left,0.41681369999423623,,,,,,,,,,,,,,,,,,,,,,,,,,,,,,,,,,,,,,,,,,,,,,,,,,,,,,,,XVMZCK,train_x,blue_star,top_right,2025-09-27_13h05.32.559,HideSeek_v1,2022.2.5,59.95218213834401,
,7,7,2,7,-5,0,11,,train_dim1_1,30,30,,,,2,0,2,0,,,,,,,,,0,0,0,0,0,29,29,29,2,0,2,0,,,,,,,,,,,,,,,,,,,,,,,,,,,,,,,,,,,,,,,,,,,,,,,,,,,,,,,,,,,,,,,,30,,,,,,,,1718.6673687000002,1718.6673687000002,1718.6673687000002,1718.6673687000002,1718.6673687000002,,,,,left,0.5701057999976911,15,0,0,99,0.15999999999999998,0.16,left,0.49089139999705367,,,,,,,,,,,,,,,,,,,,,,,,,,,,,,,,,,,,,,,,,,,,,,,,,,,,,,,,XVMZCK,train_x,blue_star,top_right,2025-09-27_13h05.32.559,HideSeek_v1,2022.2.5,59.95218213834401,
,7,7,2,7,-5,0,11,,train_dim1_1,30,30,,,,2,0,2,0,,,,,,,,,0,0,0,0,0,29,29,29,3,0,3,0,,,,,,,,,,,,,,,,,,,,,,,,,,,,,,,,,,,,,,,,,,,,,,,,,,,,,,,,,,,,,,,,30,,,,,,,,1719.2446850000124,1719.2446850000124,1719.2446850000124,1719.2446850000124,1719.2446850000124,,,,,left,0.5600048000051174,15,0,0,99,0.07999999999999997,0.16,left,0.4735993999929633,,,,,,,,,,,,,,,,,,,,,,,,,,,,,,,,,,,,,,,,,,,,,,,,,,,,,,,,XVMZCK,train_x,blue_star,top_right,2025-09-27_13h05.32.559,HideSeek_v1,2022.2.5,59.95218213834401,
,7,7,2,7,-5,0,11,,train_dim1_1,30,30,,,,2,0,2,0,,,,,,,,,0,0,0,0,0,29,29,29,4,0,4,0,,,,,,,,,,,,,,,,,,,,,,,,,,,,,,,,,,,,,,,,,,,,,,,,,,,,,,,,,,,,,,,,30,,,,,,,,1719.8128778999962,1719.8128778999962,1719.8128778999962,1719.8128778999962,1719.8128778999962,,,,,left,0.41007789998548105,15,0,0,99,-2.7755575615628914e-17,0.16,left,0.3222877999942284,,,,,,,,,,,,,,,,,,,,,,,,,,,,,,,,,,,,,,,,,,,,,,,,,,,,,,,,XVMZCK,train_x,blue_star,top_right,2025-09-27_13h05.32.559,HideSeek_v1,2022.2.5,59.95218213834401,
,7,7,2,7,-5,0,11,,train_dim1_1,30,30,,,,2,0,2,0,,,,,,,,,0,0,0,0,0,29,29,29,5,0,5,0,,,,,,,,,,,,,,,,,,,,,,,,,,,,,,,,,,,,,,,,,,,,,,,,,,,,,,,,,,,,,,,,30,,,,,,,,1720.2289792000083,1720.2289792000083,1720.2289792000083,1720.2289792000083,1720.2289792000083,-10,-57,-2.7755575615628914e-17,0.16,return,0.3764725999790244,16,0,0,1,-2.7755575615628914e-17,0.16,return,0.28965140000218526,,,,,,,,,,,,,,,,,,,,,,,,,,,,,,,,,,,,,,,,,,,,,,,,,,,,,,,,XVMZCK,train_x,blue_star,top_right,2025-09-27_13h05.32.559,HideSeek_v1,2022.2.5,59.95218213834401,
,,,,,,,,,,,30,,,,2,0,2,0,,,,,,,,,,,,,,,,,,,,,,,,,,,,,,,,,,,,,,,,,,,,,,,,,,,,,,,,,,,,,,,,,,,,,,,,,,stimuli/alien_stimuli/11.png,11,7,32,21,0.7,0.6666666666666667,1,1,1,30,0,conditions/schedules/train_x_first/blue_star_00/top_right/inputTrain_2.1.xlsx,99,1,2,1,0,,,,,,,,,,,,,,,1,,,,,1723.402640699991,1722.1728521999903,0,0.16,0.0,0.4,0.16,0,0.2,0,0.16,1722.1728521999903,1722.1728521999903,1722.1728521999903,1722.1728521999903,1722.1728521999903,1722.1728521999903,1722.1728521999903,1722.1728521999903,1722.1630308700142,1.3425814000074752,return,1.2055724000092596,0,0.9,0,1,16,,,,,,,,,,,,,,,,,,,,,,,,,,,,XVMZCK,train_x,blue_star,top_right,2025-09-27_13h05.32.559,HideSeek_v1,2022.2.5,59.95218213834401,
,,,,,,,,,,,,,,,3,0,3,0,0,0,0,0,,,,,,,,,,,,,,,,,,,,,,,,,,,,,,,conditions/schedules/train_x_first/blue_star_00/top_right/instructions/Slide17.png,conditions/schedules/train_x_first/blue_star_00/top_right/instructions/Audio17.wav,1724.9693697000039,1724.9652386400032,17,"[7.564605899999151, 18.298363899986725, 16.472503800003324, 19.566950299980817, 4.984360500006005, 5.41943569999421, 6.2376911000174005, 11.87334020002163, 6.472116000019014, 7.1013734999869484, 9.81530859999475, 13.271121400000993, 17.00523099998827, 13.151726100011729, 30.297091399988858, 21.32274309999775, 24.097572900005616]","[0.014240099990274757, 0.03155469999182969, 0.013602399994852021, 0.030666800012113526, 0.031880499998806044, 0.04910289999679662, 0.030419500020798296, 0.03274320001946762, 0.04560280000441708, 0.03667120001045987, 0.0640172999992501, 13.271128299995326, 0.057411499990848824, 13.151733300008345, 0.014233299996703863, 21.322749899991322, 24.09758000000147]",0,,,,,,,,,,,,,,,,,,,,,,,,,,,,,,,,,,,,,,,,,,,,,,,,,,,,,,,,,,,,,,,,,,,,,,,,,,,,,,,,,,,,,,,,,,,,,,,,,,,,,,,,,,,,,,,,,,,,,,,,,,,,XVMZCK,train_x,blue_star,top_right,2025-09-27_13h05.32.559,HideSeek_v1,2022.2.5,59.95218213834401,
,,,,,,,,,,,,,,,3,0,3,0,1,0,1,0,,,,,,,,,,,,,,,,,,,,,,,,,,,,,,,conditions/schedules/train_x_first/blue_star_00/top_right/instructions/Slide18.png,conditions/schedules/train_x_first/blue_star_00/top_right/instructions/Audio18.wav,1749.138895799988,1749.1355485500244,18,"[7.564605899999151, 18.298363899986725, 16.472503800003324, 19.566950299980817, 4.984360500006005, 5.41943569999421, 6.2376911000174005, 11.87334020002163, 6.472116000019014, 7.1013734999869484, 9.81530859999475, 13.271121400000993, 17.00523099998827, 13.151726100011729, 30.297091399988858, 21.32274309999775, 24.097572900005616, 6.449515600019367]","[0.014240099990274757, 0.03155469999182969, 0.013602399994852021, 0.030666800012113526, 0.031880499998806044, 0.04910289999679662, 0.030419500020798296, 0.03274320001946762, 0.04560280000441708, 0.03667120001045987, 0.0640172999992501, 13.271128299995326, 0.057411499990848824, 13.151733300008345, 0.014233299996703863, 21.322749899991322, 0.030358999996678904, 6.449522100010654]",0,,,,,,,,,,,,,,,,,,,,,,,,,,,,,,,,,,,,,,,,,,,,,,,,,,,,,,,,,,,,,,,,,,,,,,,,,,,,,,,,,,,,,,,,,,,,,,,,,,,,,,,,,,,,,,,,,,,,,,,,,,,,XVMZCK,train_x,blue_star,top_right,2025-09-27_13h05.32.559,HideSeek_v1,2022.2.5,59.95218213834401,
,,,,,,,,,,,,,,,3,0,3,0,2,0,2,0,,,,,,,,,,,,,,,,,,,,,,,,,,,,,,,conditions/schedules/train_x_first/blue_star_00/top_right/instructions/Slide19.png,conditions/schedules/train_x_first/blue_star_00/top_right/instructions/Audio19.wav,1755.6415190999978,1755.6410393400058,19,"[7.564605899999151, 18.298363899986725, 16.472503800003324, 19.566950299980817, 4.984360500006005, 5.41943569999421, 6.2376911000174005, 11.87334020002163, 6.472116000019014, 7.1013734999869484, 9.81530859999475, 13.271121400000993, 17.00523099998827, 13.151726100011729, 30.297091399988858, 21.32274309999775, 24.097572900005616, 6.449515600019367, 10.439130100014154]","[0.014240099990274757, 0.03155469999182969, 0.013602399994852021, 0.030666800012113526, 0.031880499998806044, 0.04910289999679662, 0.030419500020798296, 0.03274320001946762, 0.04560280000441708, 0.03667120001045987, 0.0640172999992501, 13.271128299995326, 0.057411499990848824, 13.151733300008345, 0.014233299996703863, 21.322749899991322, 0.030358999996678904, 0.031356099992990494, 10.439136900007725]",0,,,,,,,,,,,,,,,,,,,,,,,,,,,,,,,,,,,,,,,,,,,,,,,,,,,,,,,,,,,,,,,,,,,,,,,,,,,,,,,,,,,,,,,,,,,,,,,,,,,,,,,,,,,,,,,,,,,,,,,,,,,,XVMZCK,train_x,blue_star,top_right,2025-09-27_13h05.32.559,HideSeek_v1,2022.2.5,59.95218213834401,
,,,,,,,,,,,,,,,3,0,3,0,3,0,3,0,,,,,,,,,,,,,,,,,,,,,,,,,,,,,,,conditions/schedules/train_x_first/blue_star_00/top_right/instructions/Slide20.png,conditions/schedules/train_x_first/blue_star_00/top_right/instructions/Audio20.wav,1766.1501443999878,1766.1497231500107,20,"[7.564605899999151, 18.298363899986725, 16.472503800003324, 19.566950299980817, 4.984360500006005, 5.41943569999421, 6.2376911000174005, 11.87334020002163, 6.472116000019014, 7.1013734999869484, 9.81530859999475, 13.271121400000993, 17.00523099998827, 13.151726100011729, 30.297091399988858, 21.32274309999775, 24.097572900005616, 6.449515600019367, 10.439130100014154, 13.875367800006643]","[0.014240099990274757, 0.03155469999182969, 0.013602399994852021, 0.030666800012113526, 0.031880499998806044, 0.04910289999679662, 0.030419500020798296, 0.03274320001946762, 0.04560280000441708, 0.03667120001045987, 0.0640172999992501, 13.271128299995326, 0.057411499990848824, 13.151733300008345, 0.014233299996703863, 21.322749899991322, 0.030358999996678904, 0.031356099992990494, 0.06370779999997467, 13.87537429999793]",0,,,,,,,,,,,,,,,,,,,,,,,,,,,,,,,,,,,,,,,,,,,,,,,,,,,,,,,,,,,,,,,,,,,,,,,,,,,,,,,,,,,,,,,,,,,,,,,,,,,,,,,,,,,,,,,,,,,,,,,,,,,,XVMZCK,train_x,blue_star,top_right,2025-09-27_13h05.32.559,HideSeek_v1,2022.2.5,59.95218213834401,
1,5,8,5,3,0,-5,66,2,instr_dim1_2,,,,,,3,0,3,0,,,,,0,0,0,0,,,,,,,,,,,,,,,,,,,,,,,,,,,,,,,,,,,,,stimuli/alien_stimuli/66.png,conditions/schedules/train_x_first/blue_star_00/top_right/inputInstr_2.xlsx,stimuli/alien_stimuli/66.png,1780.1223075999878,1780.1223075999878,1780.1223075999878,1780.1223075999878,1780.1279879700041,return,7.186213600012707,"[-0.16, -0.08, 0, 0.08, 0.16, 0.24, 0.32, 0.4, 0.48, 0.56]","[-0.4, -0.32, -0.24, -0.16, -0.08, 0, 0.08, 0.16, 0.24, 0.32]",3,8,5,5,0.4,0.0,1787.4683137999964,1787.4683137999964,1787.4683137999964,1787.4683137999964,1787.4683137999964,1787.4683137999964,1787.4683137999964,1787.4672166900184,7.140474700019695,return,6.9752537999884225,stimuli/alien_stimuli/66.png,66,5,1,,,,,,,,,,,,,,,,,,,,,,,,,,,,,,,,,,,,,,,,,,,,,,,,,,,,,,,,,,,,,,,,,,,,,,,,,,,,,,,,,,,,,,,,,XVMZCK,train_x,blue_star,top_right,2025-09-27_13h05.32.559,HideSeek_v1,2022.2.5,59.95218213834401,
,,,,,,,,,,,30,,,,3,0,3,0,,,,,,,,,,,,,,,,,,,,,,,,,,,,,,,,,,,,,,,,,,,,,,,,,,,,,,,,,,,,,,,,,,,,,,,,,,,,,,21,0.7,0.6666666666666667,1,99,2,30,0,conditions/schedules/train_x_first/blue_star_00/top_right/inputTrain_2.1.xlsx,99,1,2,1,0,,,,,,,,,,,,,,,,,,,,,,,,,,,,,,,,,,,,,,,,,,,,,,,,,,,,,,,,,,,,,,,,,,,,,,,,,,,XVMZCK,train_x,blue_star,top_right,2025-09-27_13h05.32.559,HideSeek_v1,2022.2.5,59.95218213834401,
,,,,,,,,,,,,,,,4,0,4,0,0,0,0,0,,,,,,,,,,,,,,,,,,,,,,,,,,,,,,,conditions/schedules/train_x_first/blue_star_00/top_right/instructions/Slide21.png,conditions/schedules/train_x_first/blue_star_00/top_right/instructions/Audio21.wav,1794.6384698000038,1794.6400121100246,21,"[7.564605899999151, 18.298363899986725, 16.472503800003324, 19.566950299980817, 4.984360500006005, 5.41943569999421, 6.2376911000174005, 11.87334020002163, 6.472116000019014, 7.1013734999869484, 9.81530859999475, 13.271121400000993, 17.00523099998827, 13.151726100011729, 30.297091399988858, 21.32274309999775, 24.097572900005616, 6.449515600019367, 10.439130100014154, 13.875367800006643, 16.763807700015604]","[0.014240099990274757, 0.03155469999182969, 0.013602399994852021, 0.030666800012113526, 0.031880499998806044, 0.04910289999679662, 0.030419500020798296, 0.03274320001946762, 0.04560280000441708, 0.03667120001045987, 0.0640172999992501, 13.271128299995326, 0.057411499990848824, 13.151733300008345, 0.014233299996703863, 21.322749899991322, 0.030358999996678904, 0.031356099992990494, 0.06370779999997467, 13.87537429999793, 16.763815300015267]",0,,,,,,,,,,,,,,,,,,,,,,,,,,,,,,,,,,,,,,,,,,,,,,,,,,,,,,,,,,,,,,,,,,,,,,,,,,,,,,,,,,,,,,,,,,,,,,,,,,,,,,,,,,,,,,,,,,,,,,,,,,,,XVMZCK,train_x,blue_star,top_right,2025-09-27_13h05.32.559,HideSeek_v1,2022.2.5,59.95218213834401,
2,7,8,7,8,0,0,61,2,instr_dim1_2,,,,,,4,0,4,0,,,,,0,0,0,0,,,,,,,,,,,,,,,,,,,,,,,,,,,,,,,,,,,,,stimuli/alien_stimuli/61.png,conditions/schedules/train_x_first/blue_star_00/top_right/inputInstr_2.xlsx,stimuli/alien_stimuli/61.png,1811.4998348999943,1811.4998348999943,1811.4998348999943,1811.4998348999943,1811.504088070028,return,7.127920200000517,"[-0.16, -0.08, 0, 0.08, 0.16, 0.24, 0.32, 0.4, 0.48, 0.56]","[-0.4, -0.32, -0.24, -0.16, -0.08, 0, 0.08, 0.16, 0.24, 0.32]",8,8,7,7,0.0,0.0,1818.7814350000117,1818.7814350000117,1818.7814350000117,1818.7814350000117,1818.7814350000117,1818.7814350000117,1818.7814350000117,1818.7765761800226,6.807366599998204,return,6.665394999989076,stimuli/alien_stimuli/61.png,61,7,2,,,,,,,,,,,,,,,,,,,,,,,,,,,,,,,,,,,,,,,,,,,,,,,,,,,,,,,,,,,,,,,,,,,,,,,,,,,,,,,,,,,,,,,,,XVMZCK,train_x,blue_star,top_right,2025-09-27_13h05.32.559,HideSeek_v1,2022.2.5,59.95218213834401,
,,,,,,,,,,,30,,,,4,0,4,0,,,,,,,,,,,,,,,,,,,,,,,,,,,,,,,,,,,,,,,,,,,,,,,,,,,,,,,,,,,,,,,,,,,,,,,,,,,,,,21,0.7,0.6666666666666667,1,99,2,30,0,conditions/schedules/train_x_first/blue_star_00/top_right/inputTrain_2.1.xlsx,99,1,2,1,0,,,,,,,,,,,,,,,,,,,,,,,,,,,,,,,,,,,,,,,,,,,,,,,,,,,,,,,,,,,,,,,,,,,,,,,,,,,XVMZCK,train_x,blue_star,top_right,2025-09-27_13h05.32.559,HideSeek_v1,2022.2.5,59.95218213834401,
,,,,,,,,,,,,,,,5,0,5,0,0,0,0,0,,,,,,,,,,,,,,,,,,,,,,,,,,,,,,,conditions/schedules/train_x_first/blue_star_00/top_right/instructions/Slide22.png,conditions/schedules/train_x_first/blue_star_00/top_right/instructions/Audio22.wav,1825.636911300011,1825.6327682100177,22,"[7.564605899999151, 18.298363899986725, 16.472503800003324, 19.566950299980817, 4.984360500006005, 5.41943569999421, 6.2376911000174005, 11.87334020002163, 6.472116000019014, 7.1013734999869484, 9.81530859999475, 13.271121400000993, 17.00523099998827, 13.151726100011729, 30.297091399988858, 21.32274309999775, 24.097572900005616, 6.449515600019367, 10.439130100014154, 13.875367800006643, 16.763807700015604, 42.6950247999921]","[0.014240099990274757, 0.03155469999182969, 0.013602399994852021, 0.030666800012113526, 0.031880499998806044, 0.04910289999679662, 0.030419500020798296, 0.03274320001946762, 0.04560280000441708, 0.03667120001045987, 0.0640172999992501, 13.271128299995326, 0.057411499990848824, 13.151733300008345, 0.014233299996703863, 21.322749899991322, 0.030358999996678904, 0.031356099992990494, 0.06370779999997467, 13.87537429999793, 16.763815300015267, 42.69503239999176]",0,,,,,,,,,,,,,,,,,,,,,,,,,,,,,,,,,,,,,,,,,,,,,,,,,,,,,,,,,,,,,,,,,,,,,,,,,,,,,,,,,,,,,,,,,,,,,,,,,,,,,,,,,,,,,,,,,,,,,,,,,,,,XVMZCK,train_x,blue_star,top_right,2025-09-27_13h05.32.559,HideSeek_v1,2022.2.5,59.95218213834401,
,5,5,5,1,0,-4,65,,train_dim1_2,1,30,,,,5,0,5,0,,,,,,,,,0,0,0,0,0,0,0,0,0,0,0,0,,,,,,,,,,,,,,,,,,,,,,,,,stimuli/alien_stimuli/65.png,,,,,,,,,,,,,,,,,,,,,,,,,,,,,,,,,,,,,,,30,,,,,,,,1868.4391767999914,1868.4391767999914,1868.4391767999914,1868.4391767999914,1868.4391767999914,-10,-57,0.24,0,return,4.1292605999915395,0,0,0,0,0.24,0,return,4.027859200024977,,,,,,,,,,,,,,,,,,,,,,,,,,,,,,,,,,,,,,,,,,,,,,,,,,,,,,,,XVMZCK,train_x,blue_star,top_right,2025-09-27_13h05.32.559,HideSeek_v1,2022.2.5,59.95218213834401,
,8,7,8,2,0,-5,66,,train_dim1_2,2,30,,,,5,0,5,0,,,,,,,,,0,0,0,0,0,1,1,1,0,0,0,0,,,,,,,,,,,,,,,,,,,,,,,,,stimuli/alien_stimuli/66.png,,,,,,,,,,,,,,,,,,,,,,,,,,,,,stimuli/alien_stimuli/65.png,65,5,3,,,,,,,30,,,,,,,,1878.1618739000114,1878.1618739000114,1878.1618739000114,1878.1618739000114,1878.1618739000114,,,,,down,2.2576131999958307,0,0,0,99,0.48,0.08,down,2.175369700009469,1876.5914233000076,1878.1618739000114,0.24,-0.32,0.32,0.0,-0.16,0.24,0.24,0.24,-0.32,1874.1207329999888,1874.1207329999888,1874.1207329999888,1874.1207329999888,1874.1207329999888,1874.1207329999888,1874.1207329999888,1874.1207329999888,1874.1056527700157,2.5885353999910876,return,2.4464059000019915,,,,,,,,,,,,,,,,,,,,,,,,,,,,,,,,,XVMZCK,train_x,blue_star,top_right,2025-09-27_13h05.32.559,HideSeek_v1,2022.2.5,59.95218213834401,
,8,7,8,2,0,-5,66,,train_dim1_2,2,30,,,,5,0,5,0,,,,,,,,,0,0,0,0,0,1,1,1,1,0,1,0,,,,,,,,,,,,,,,,,,,,,,,,,,,,,,,,,,,,,,,,,,,,,,,,,,,,,,,,,,,,,,,,30,,,,,,,,1880.425486299995,1880.425486299995,1880.425486299995,1880.425486299995,1880.425486299995,,,,,down,0.6090542000019923,0,0,0,99,0.48,0.0,down,0.5262011000013445,,,,,,,,,,,,,,,,,,,,,,,,,,,,,,,,,,,,,,,,,,,,,,,,,,,,,,,,XVMZCK,train_x,blue_star,top_right,2025-09-27_13h05.32.559,HideSeek_v1,2022.2.5,59.95218213834401,
,8,7,8,2,0,-5,66,,train_dim1_2,2,30,,,,5,0,5,0,,,,,,,,,0,0,0,0,0,1,1,1,2,0,2,0,,,,,,,,,,,,,,,,,,,,,,,,,,,,,,,,,,,,,,,,,,,,,,,,,,,,,,,,,,,,,,,,30,,,,,,,,1881.0421701000014,1881.0421701000014,1881.0421701000014,1881.0421701000014,1881.0421701000014,,,,,down,0.6936428000044543,0,0,0,99,0.48,-0.08,down,0.6195743000134826,,,,,,,,,,,,,,,,,,,,,,,,,,,,,,,,,,,,,,,,,,,,,,,,,,,,,,,,XVMZCK,train_x,blue_star,top_right,2025-09-27_13h05.32.559,HideSeek_v1,2022.2.5,59.95218213834401,
,8,7,8,2,0,-5,66,,train_dim1_2,2,30,,,,5,0,5,0,,,,,,,,,0,0,0,0,0,1,1,1,3,0,3,0,,,,,,,,,,,,,,,,,,,,,,,,,,,,,,,,,,,,,,,,,,,,,,,,,,,,,,,,,,,,,,,,30,,,,,,,,1881.7417876000109,1881.7417876000109,1881.7417876000109,1881.7417876000109,1881.7417876000109,,,,,down,0.460143500007689,0,0,0,99,0.48,-0.16,down,0.3876843999896664,,,,,,,,,,,,,,,,,,,,,,,,,,,,,,,,,,,,,,,,,,,,,,,,,,,,,,,,XVMZCK,train_x,blue_star,top_right,2025-09-27_13h05.32.559,HideSeek_v1,2022.2.5,59.95218213834401,
,8,7,8,2,0,-5,66,,train_dim1_2,2,30,,,,5,0,5,0,,,,,,,,,0,0,0,0,0,1,1,1,4,0,4,0,,,,,,,,,,,,,,,,,,,,,,,,,,,,,,,,,,,,,,,,,,,,,,,,,,,,,,,,,,,,,,,,30,,,,,,,,1882.2116327999975,1882.2116327999975,1882.2116327999975,1882.2116327999975,1882.2116327999975,-14,-57,0.48,-0.16,return,0.9408517999981996,0,1,0,0,0.48,-0.16,return,0.8671066999959294,,,,,,,,,,,,,,,,,,,,,,,,,,,,,,,,,,,,,,,,,,,,,,,,,,,,,,,,XVMZCK,train_x,blue_star,top_right,2025-09-27_13h05.32.559,HideSeek_v1,2022.2.5,59.95218213834401,
,7,8,7,5,0,-3,64,,train_dim1_2,3,30,,,,5,0,5,0,,,,,,,,,0,0,0,0,0,2,2,2,0,0,0,0,,,,,,,,,,,,,,,,,,,,,,,,,stimuli/alien_stimuli/64.png,,,,,,,,,,,,,,,,,,,,,,,,,,,,,stimuli/alien_stimuli/66.png,66,8,4,,,,,,,30,,,,,,,,1887.9756683000014,1887.9756683000014,1887.9756683000014,1887.9756683000014,1887.9756683000014,,,,,down,2.883759700023802,0,1,0,99,0.4,0.15999999999999998,down,2.8083359000156634,1886.416455300001,1887.9756683000014,0.48,-0.24,0.4,0.0,-0.039999999999999994,0.48,0.48,0.48,-0.24,1884.7056443000038,1884.7056443000038,1884.7056443000038,1884.7056443000038,1884.7056443000038,1884.7056443000038,1884.7056443000038,1884.7056443000038,1884.6980891600192,1.8038113999937195,return,1.686263700015843,,,,,,,,,,,,,,,,,,,,,,,,,,,,,,,,,XVMZCK,train_x,blue_star,top_right,2025-09-27_13h05.32.559,HideSeek_v1,2022.2.5,59.95218213834401,
,7,8,7,5,0,-3,64,,train_dim1_2,3,30,,,,5,0,5,0,,,,,,,,,0,0,0,0,0,2,2,2,1,0,1,0,,,,,,,,,,,,,,,,,,,,,,,,,,,,,,,,,,,,,,,,,,,,,,,,,,,,,,,,,,,,,,,,30,,,,,,,,1890.8657647999935,1890.8657647999935,1890.8657647999935,1890.8657647999935,1890.8657647999935,,,,,down,0.6265652000147384,0,1,0,99,0.4,0.07999999999999997,down,0.5418877999763936,,,,,,,,,,,,,,,,,,,,,,,,,,,,,,,,,,,,,,,,,,,,,,,,,,,,,,,,XVMZCK,train_x,blue_star,top_right,2025-09-27_13h05.32.559,HideSeek_v1,2022.2.5,59.95218213834401,
,7,8,7,5,0,-3,64,,train_dim1_2,3,30,,,,5,0,5,0,,,,,,,,,0,0,0,0,0,2,2,2,2,0,2,0,,,,,,,,,,,,,,,,,,,,,,,,,,,,,,,,,,,,,,,,,,,,,,,,,,,,,,,,,,,,,,,,30,,,,,,,,1891.5043121000053,1891.5043121000053,1891.5043121000053,1891.5043121000053,1891.5043121000053,,,,,down,0.5071877000154927,0,1,0,99,0.4,-2.7755575615628914e-17,down,0.4184217000147328,,,,,,,,,,,,,,,,,,,,,,,,,,,,,,,,,,,,,,,,,,,,,,,,,,,,,,,,XVMZCK,train_x,blue_star,top_right,2025-09-27_13h05.32.559,HideSeek_v1,2022.2.5,59.95218213834401,
,7,8,7,5,0,-3,64,,train_dim1_2,3,30,,,,5,0,5,0,,,,,,,,,0,0,0,0,0,2,2,2,3,0,3,0,,,,,,,,,,,,,,,,,,,,,,,,,,,,,,,,,,,,,,,,,,,,,,,,,,,,,,,,,,,,,,,,30,,,,,,,,1892.0196906999918,1892.0196906999918,1892.0196906999918,1892.0196906999918,1892.0196906999918,,,,,down,0.32367089999024756,0,1,0,99,0.4,-0.08000000000000003,down,0.24959639998269267,,,,,,,,,,,,,,,,,,,,,,,,,,,,,,,,,,,,,,,,,,,,,,,,,,,,,,,,XVMZCK,train_x,blue_star,top_right,2025-09-27_13h05.32.559,HideSeek_v1,2022.2.5,59.95218213834401,
,7,8,7,5,0,-3,64,,train_dim1_2,3,30,,,,5,0,5,0,,,,,,,,,0,0,0,0,0,2,2,2,4,0,4,0,,,,,,,,,,,,,,,,,,,,,,,,,,,,,,,,,,,,,,,,,,,,,,,,,,,,,,,,,,,,,,,,30,,,,,,,,1892.349786900013,1892.349786900013,1892.349786900013,1892.349786900013,1892.349786900013,-18,-57,0.4,-0.08000000000000003,return,0.32688509998843074,0,1,0,0,0.4,-0.08000000000000003,return,0.24151200000778772,,,,,,,,,,,,,,,,,,,,,,,,,,,,,,,,,,,,,,,,,,,,,,,,,,,,,,,,XVMZCK,train_x,blue_star,top_right,2025-09-27_13h05.32.559,HideSeek_v1,2022.2.5,59.95218213834401,
,5,6,5,5,0,-1,62,,train_dim1_2,4,30,,,,5,0,5,0,,,,,,,,,0,0,0,0,0,3,3,3,0,0,0,0,,,,,,,,,,,,,,,,,,,,,,,,,stimuli/alien_stimuli/62.png,,,,,,,,,,,,,,,,,,,,,,,,,,,,,stimuli/alien_stimuli/64.png,64,7,5,,,,,,,30,,,,,,,,1901.9519796000095,1901.9519796000095,1901.9519796000095,1901.9519796000095,1901.9519796000095,-18,-57,0.24,0.08,return,1.8702169999887701,0,1,0,0,0.24,0.08,return,1.7892279000079725,1900.3946419999993,1901.9519796000095,0.4,0,0.24,0.0,0.12,0.4,0.4,0.4,0,1894.2272375999892,1894.2272375999892,1894.2272375999892,1894.2272375999892,1894.2272375999892,1894.2272375999892,1894.2272375999892,1894.2272375999892,1894.222765660024,6.257481599983294,return,6.136860500002513,,,,,,,,,,,,,,,,,,,,,,,,,,,,,,,,,XVMZCK,train_x,blue_star,top_right,2025-09-27_13h05.32.559,HideSeek_v1,2022.2.5,59.95218213834401,
,8,8,8,8,0,0,61,,train_dim1_2,5,30,,,,5,0,5,0,,,,,,,,,0,0,0,0,0,4,4,4,0,0,0,0,,,,,,,,,,,,,,,,,,,,,,,,,stimuli/alien_stimuli/61.png,,,,,,,,,,,,,,,,,,,,,,,,,,,,,stimuli/alien_stimuli/62.png,62,5,6,,,,,,,30,,,,,,,,1909.4568659999932,1909.4568659999932,1909.4568659999932,1909.4568659999932,1909.4568659999932,,,,,down,2.5701659000187647,0,1,0,99,0.48,0.15999999999999998,down,2.48371010000119,1907.900805000012,1909.4568659999932,0.24,0,0.08,0.0,0.04,0.24,0.24,0.24,0,1905.3917077000078,1905.3917077000078,1905.3917077000078,1905.3917077000078,1905.3917077000078,1905.3917077000078,1905.3917077000078,1905.3917077000078,1905.381984470022,2.620943999994779,return,2.4917808000172954,,,,,,,,,,,,,,,,,,,,,,,,,,,,,,,,,XVMZCK,train_x,blue_star,top_right,2025-09-27_13h05.32.559,HideSeek_v1,2022.2.5,59.95218213834401,
,8,8,8,8,0,0,61,,train_dim1_2,5,30,,,,5,0,5,0,,,,,,,,,0,0,0,0,0,4,4,4,1,0,1,0,,,,,,,,,,,,,,,,,,,,,,,,,,,,,,,,,,,,,,,,,,,,,,,,,,,,,,,,,,,,,,,,30,,,,,,,,1912.0362404999905,1912.0362404999905,1912.0362404999905,1912.0362404999905,1912.0362404999905,-19,-57,0.48,0.15999999999999998,return,0.4412681999965571,0,1,0,0,0.48,0.15999999999999998,return,0.3566343999991659,,,,,,,,,,,,,,,,,,,,,,,,,,,,,,,,,,,,,,,,,,,,,,,,,,,,,,,,XVMZCK,train_x,blue_star,top_right,2025-09-27_13h05.32.559,HideSeek_v1,2022.2.5,59.95218213834401,
,6,9,6,8,0,-1,62,,train_dim1_2,6,30,,,,5,0,5,0,,,,,,,,,0,0,0,0,0,5,5,5,0,0,0,0,,,,,,,,,,,,,,,,,,,,,,,,,stimuli/alien_stimuli/62.png,,,,,,,,,,,,,,,,,,,,,,,,,,,,,stimuli/alien_stimuli/61.png,61,8,7,,,,,,,30,,,,,,,,1917.8863213000004,1917.8863213000004,1917.8863213000004,1917.8863213000004,1917.8863213000004,-19,-57,0.32,0.32,return,2.09745319999638,0,1,0,0,0.32,0.32,return,2.019324599998072,1916.3245229999884,1917.8863213000004,0.48,0.24,0.0,0.0,0.24,0.48,0.48,0.48,0.24,1914.0485925000103,1914.0485925000103,1914.0485925000103,1914.0485925000103,1914.0485925000103,1914.0485925000103,1914.0485925000103,1914.0485925000103,1914.0391186700317,2.3876906000077724,return,2.257522300002165,,,,,,,,,,,,,,,,,,,,,,,,,,,,,,,,,XVMZCK,train_x,blue_star,top_right,2025-09-27_13h05.32.559,HideSeek_v1,2022.2.5,59.95218213834401,
,6,8,6,5,0,-3,64,,train_dim1_2,7,30,,,,5,0,5,0,,,,,,,,,0,0,0,0,0,6,6,6,0,0,0,0,,,,,,,,,,,,,,,,,,,,,,,,,stimuli/alien_stimuli/64.png,,,,,,,,,,,,,,,,,,,,,,,,,,,,,stimuli/alien_stimuli/62.png,62,6,8,,,,,,,30,,,,,,,,1925.9817317000125,1925.9817317000125,1925.9817317000125,1925.9817317000125,1925.9817317000125,,,,,down,1.7252486000070348,0,1,0,99,0.32,0.15999999999999998,down,1.6368391999858432,1924.4144592999946,1925.9817317000125,0.32,0.24,0.08,0.0,0.28,0.32,0.32,0.32,0.24,1921.53592200001,1921.53592200001,1921.53592200001,1921.53592200001,1921.53592200001,1921.53592200001,1921.53592200001,1921.53592200001,1921.528660060017,2.971138399996562,return,2.85447920000297,,,,,,,,,,,,,,,,,,,,,,,,,,,,,,,,,XVMZCK,train_x,blue_star,top_right,2025-09-27_13h05.32.559,HideSeek_v1,2022.2.5,59.95218213834401,
,6,8,6,5,0,-3,64,,train_dim1_2,7,30,,,,5,0,5,0,,,,,,,,,0,0,0,0,0,6,6,6,1,0,1,0,,,,,,,,,,,,,,,,,,,,,,,,,,,,,,,,,,,,,,,,,,,,,,,,,,,,,,,,,,,,,,,,30,,,,,,,,1927.7134569000045,1927.7134569000045,1927.7134569000045,1927.7134569000045,1927.7134569000045,,,,,down,0.7099986000102945,0,1,0,99,0.32,0.07999999999999997,down,0.6348677000205498,,,,,,,,,,,,,,,,,,,,,,,,,,,,,,,,,,,,,,,,,,,,,,,,,,,,,,,,XVMZCK,train_x,blue_star,top_right,2025-09-27_13h05.32.559,HideSeek_v1,2022.2.5,59.95218213834401,
,6,8,6,5,0,-3,64,,train_dim1_2,7,30,,,,5,0,5,0,,,,,,,,,0,0,0,0,0,6,6,6,2,0,2,0,,,,,,,,,,,,,,,,,,,,,,,,,,,,,,,,,,,,,,,,,,,,,,,,,,,,,,,,,,,,,,,,30,,,,,,,,1928.4331606999913,1928.4331606999913,1928.4331606999913,1928.4331606999913,1928.4331606999913,,,,,down,0.5082845000142697,0,1,0,99,0.32,-2.7755575615628914e-17,down,0.4341238000197336,,,,,,,,,,,,,,,,,,,,,,,,,,,,,,,,,,,,,,,,,,,,,,,,,,,,,,,,XVMZCK,train_x,blue_star,top_right,2025-09-27_13h05.32.559,HideSeek_v1,2022.2.5,59.95218213834401,
,6,8,6,5,0,-3,64,,train_dim1_2,7,30,,,,5,0,5,0,,,,,,,,,0,0,0,0,0,6,6,6,3,0,3,0,,,,,,,,,,,,,,,,,,,,,,,,,,,,,,,,,,,,,,,,,,,,,,,,,,,,,,,,,,,,,,,,30,,,,,,,,1928.945850499993,1928.945850499993,1928.945850499993,1928.945850499993,1928.945850499993,,,,,down,0.3937465000199154,0,1,0,99,0.32,-0.08000000000000003,down,0.32301349999033846,,,,,,,,,,,,,,,,,,,,,,,,,,,,,,,,,,,,,,,,,,,,,,,,,,,,,,,,XVMZCK,train_x,blue_star,top_right,2025-09-27_13h05.32.559,HideSeek_v1,2022.2.5,59.95218213834401,
