trialInstr,x_fixStart,y_fixStart,x_corrSteps,y_corrSteps,x_nrSteps,y_nrSteps,alienID,trialLength,version,trialTrain,praclen,testlen,trial_label,break_on_off,beforeExpLoop.thisRepN,beforeExpLoop.thisTrialN,beforeExpLoop.thisN,beforeExpLoop.thisIndex,mini_instr_trials.thisRepN,mini_instr_trials.thisTrialN,mini_instr_trials.thisN,mini_instr_trials.thisIndex,instrLoop.thisRepN,instrLoop.thisTrialN,instrLoop.thisN,instrLoop.thisIndex,repeat_prac.thisRepN,repeat_prac.thisTrialN,repeat_prac.thisN,repeat_prac.thisIndex,trainLoop.thisRepN,trainLoop.thisTrialN,trainLoop.thisN,trainLoop.thisIndex,moveLoop_train.thisRepN,moveLoop_train.thisTrialN,moveLoop_train.thisN,moveLoop_train.thisIndex,experiment.thisRepN,experiment.thisTrialN,experiment.thisN,experiment.thisIndex,moveLoop_test.thisRepN,moveLoop_test.thisTrialN,moveLoop_test.thisN,moveLoop_test.thisIndex,mini_instr2_trials.thisRepN,mini_instr2_trials.thisTrialN,mini_instr2_trials.thisN,mini_instr2_trials.thisIndex,start_all_time,url,slideStim,audioStim,slides.started,sounds.started,nextButton.numClicks,nextButton.timesOn,nextButton.timesOff,prev_but.numClicks,prev_but.timesOn,prev_but.timesOff,alienStim,instrFile,alienStim_instr,gridImage_instr.started,startPos_3.started,key_instr.started,alienImage_3.started,sounds_1.started,key_instr.keys,key_instr.rt,all_x,all_y,FBy_corrSteps,FBy_fixStart,FBx_corrSteps,FBx_fixStart,FBy_pathSize_check,FBx_pathSize_check,gridImage_9.started,alienImageFB_3.started,startPosFB_3.started,keyFB_3.started,pathLine_ydir_2.started,pathLine_xdir_2.started,alienFace_3.started,sounds_2.started,RTFB_instr,keyFB_3.keys,keyFB_3.rt,draw_alienStim,draw_alienID,test_x,nrepcount,perfthres,percthres,earlierperf,earlystop,nextPrac,fileidx,praclen,saveACC_train,pracFile,nextPrac_train,addNrep,fileidx_endr,repExp,showearly,gridImage_4.started,startPos.started,movePos.started,key_resp.started,alienImage.started,wLy_dir,wLx_dir,x_movePos,y_movePos,buttonPress_train,RTchoice_train,cumAcctrain,aCorr,saveACC_choice,corrAns,x_movePos_end,y_movePos_end,key_resp.keys,key_resp.rt,text_2.started,text_2.stopped,aft_x_corrPos,aft_y_corrPos,y_pathSize_check,x_pathSize_check,y_pathdirY,x_pathdirY,x_pathdirX,x_corrPos,y_corrPos,gridImage_6.started,alienImageFB_2.started,startPosFB_2.started,movePosFB_2.started,keyFB_2.started,pathLine_xdir.started,pathLine_ydir.started,alienFace.started,sounds_4.started,RT_FBtrain,keyFB_2.keys,keyFB_2.rt,saveACC_pre,ACC,within_saveACC_train,earlystop_wloop,cumAcctrain_check,gridImage_3.started,alienImage_test.started,startPos_test.started,movePos_test.started,key_resp_test.started,wLy_dir_test,wLx_dir_test,buttonPress_test,RTchoice_test,cumAcctest,corrAns_test,key_resp_test.keys,key_resp_test.rt,text_3.started,text_3.stopped,total_time,end_all_time,key_resp_3.keys,slides_2.started,sounds_3.started,nextButton_2.numClicks,nextButton_2.timesOn,nextButton_2.timesOff,prev_but_2.numClicks,prev_but_2.timesOn,prev_but_2.timesOff,bye.started,participant,train_first,00_coordinate,starting corner,date,expName,psychopyVersion,frameRate,
,,,,,,,,,,,,,,,0,0,0,0,0,0,0,0,,,,,,,,,,,,,,,,,,,,,,,,,,,,,start_all_time,testround,conditions/schedules/train_x_first/red_square_00/top_left/instructions/Slide1.png,conditions/schedules/train_x_first/red_square_00/top_left/instructions/Audio1.wav,1288.4213529000117,1288.3664888499625,1,[3.925518700008979],[3.925534099995275],0,,,,,,,,,,,,,,,,,,,,,,,,,,,,,,,,,,,,,,,,,,,,,,,,,,,,,,,,,,,,,,,,,,,,,,,,,,,,,,,,,,,,,,,,,,,,,,,,,,,,,,,,,,,,,,,,,,,,,,,,,,,,Y2EEUW,train_x,red_square,top_left,2025-07-10_17h11.20.215,HideSeek_v1,2022.2.5,59.9732519266946,
,,,,,,,,,,,,,,,0,0,0,0,1,0,1,0,,,,,,,,,,,,,,,,,,,,,,,,,,,,,,,conditions/schedules/train_x_first/red_square_00/top_left/instructions/Slide2.png,conditions/schedules/train_x_first/red_square_00/top_left/instructions/Audio2.wav,1292.3655788000033,1292.3660336500034,2,"[3.925518700008979, 18.379872400008026]","[3.925534099995275, 18.379879300002358]",0,,,,,,,,,,,,,,,,,,,,,,,,,,,,,,,,,,,,,,,,,,,,,,,,,,,,,,,,,,,,,,,,,,,,,,,,,,,,,,,,,,,,,,,,,,,,,,,,,,,,,,,,,,,,,,,,,,,,,,,,,,,,Y2EEUW,train_x,red_square,top_left,2025-07-10_17h11.20.215,HideSeek_v1,2022.2.5,59.9732519266946,
,,,,,,,,,,,,,,,0,0,0,0,2,0,2,0,,,,,,,,,,,,,,,,,,,,,,,,,,,,,,,conditions/schedules/train_x_first/red_square_00/top_left/instructions/Slide3.png,conditions/schedules/train_x_first/red_square_00/top_left/instructions/Audio3.wav,1310.8141727000038,1310.8146181500051,3,"[3.925518700008979, 18.379872400008026, 16.24541339999996]","[3.925534099995275, 0.014419400002225302, 16.245420499995816]",0,,,,,,,,,,,,,,,,,,,,,,,,,,,,,,,,,,,,,,,,,,,,,,,,,,,,,,,,,,,,,,,,,,,,,,,,,,,,,,,,,,,,,,,,,,,,,,,,,,,,,,,,,,,,,,,,,,,,,,,,,,,,Y2EEUW,train_x,red_square,top_left,2025-07-10_17h11.20.215,HideSeek_v1,2022.2.5,59.9732519266946,
,,,,,,,,,,,,,,,0,0,0,0,3,0,3,0,,,,,,,,,,,,,,,,,,,,,,,,,,,,,,,conditions/schedules/train_x_first/red_square_00/top_left/instructions/Slide4.png,conditions/schedules/train_x_first/red_square_00/top_left/instructions/Audio4.wav,1327.1402192000096,1327.128429150005,4,"[3.925518700008979, 18.379872400008026, 16.24541339999996, 19.418223299988313]","[3.925534099995275, 0.014419400002225302, 0.0002023999986704439, 19.418229499991867]",0,,,,,,,,,,,,,,,,,,,,,,,,,,,,,,,,,,,,,,,,,,,,,,,,,,,,,,,,,,,,,,,,,,,,,,,,,,,,,,,,,,,,,,,,,,,,,,,,,,,,,,,,,,,,,,,,,,,,,,,,,,,,Y2EEUW,train_x,red_square,top_left,2025-07-10_17h11.20.215,HideSeek_v1,2022.2.5,59.9732519266946,
,,,,,,,,,,,,,,,0,0,0,0,4,0,4,0,,,,,,,,,,,,,,,,,,,,,,,,,,,,,,,conditions/schedules/train_x_first/red_square_00/top_left/instructions/Slide5.png,conditions/schedules/train_x_first/red_square_00/top_left/instructions/Audio5.wav,1346.6260242999997,1346.6277051500074,5,"[3.925518700008979, 18.379872400008026, 16.24541339999996, 19.418223299988313, 4.553512899990892]","[3.925534099995275, 0.014419400002225302, 0.0002023999986704439, 0.0664595999987796, 4.553519999986747]",0,,,,,,,,,,,,,,,,,,,,,,,,,,,,,,,,,,,,,,,,,,,,,,,,,,,,,,,,,,,,,,,,,,,,,,,,,,,,,,,,,,,,,,,,,,,,,,,,,,,,,,,,,,,,,,,,,,,,,,,,,,,,Y2EEUW,train_x,red_square,top_left,2025-07-10_17h11.20.215,HideSeek_v1,2022.2.5,59.9732519266946,
,,,,,,,,,,,,,,,0,0,0,0,5,0,5,0,,,,,,,,,,,,,,,,,,,,,,,,,,,,,,,conditions/schedules/train_x_first/red_square_00/top_left/instructions/Slide6.png,conditions/schedules/train_x_first/red_square_00/top_left/instructions/Audio6.wav,1351.2290942000109,1351.2316199000052,6,"[3.925518700008979, 18.379872400008026, 16.24541339999996, 19.418223299988313, 4.553512899990892, 4.837437900001532]","[3.925534099995275, 0.014419400002225302, 0.0002023999986704439, 0.0664595999987796, 0.05026720000023488, 4.837445400000433]",0,,,,,,,,,,,,,,,,,,,,,,,,,,,,,,,,,,,,,,,,,,,,,,,,,,,,,,,,,,,,,,,,,,,,,,,,,,,,,,,,,,,,,,,,,,,,,,,,,,,,,,,,,,,,,,,,,,,,,,,,,,,,Y2EEUW,train_x,red_square,top_left,2025-07-10_17h11.20.215,HideSeek_v1,2022.2.5,59.9732519266946,
,,,,,,,,,,,,,,,0,0,0,0,6,0,6,0,,,,,,,,,,,,,,,,,,,,,,,,,,,,,,,conditions/schedules/train_x_first/red_square_00/top_left/instructions/Slide7.png,conditions/schedules/train_x_first/red_square_00/top_left/instructions/Audio7.wav,1356.1174188000005,1356.1190511000023,7,"[3.925518700008979, 18.379872400008026, 16.24541339999996, 19.418223299988313, 4.553512899990892, 4.837437900001532, 5.403459699999075]","[3.925534099995275, 0.014419400002225302, 0.0002023999986704439, 0.0664595999987796, 0.05026720000023488, 0.06616159999975935, 5.403466300005675]",0,,,,,,,,,,,,,,,,,,,,,,,,,,,,,,,,,,,,,,,,,,,,,,,,,,,,,,,,,,,,,,,,,,,,,,,,,,,,,,,,,,,,,,,,,,,,,,,,,,,,,,,,,,,,,,,,,,,,,,,,,,,,Y2EEUW,train_x,red_square,top_left,2025-07-10_17h11.20.215,HideSeek_v1,2022.2.5,59.9732519266946,
,,,,,,,,,,,,,,,0,0,0,0,7,0,7,0,,,,,,,,,,,,,,,,,,,,,,,,,,,,,,,conditions/schedules/train_x_first/red_square_00/top_left/instructions/Slide8.png,conditions/schedules/train_x_first/red_square_00/top_left/instructions/Audio8.wav,1361.5750616000005,1361.5736079000053,8,"[3.925518700008979, 18.379872400008026, 16.24541339999996, 19.418223299988313, 4.553512899990892, 4.837437900001532, 5.403459699999075, 11.955670099996496]","[3.925534099995275, 0.014419400002225302, 0.0002023999986704439, 0.0664595999987796, 0.05026720000023488, 0.06616159999975935, 0.06363309999869671, 11.955676900004619]",0,,,,,,,,,,,,,,,,,,,,,,,,,,,,,,,,,,,,,,,,,,,,,,,,,,,,,,,,,,,,,,,,,,,,,,,,,,,,,,,,,,,,,,,,,,,,,,,,,,,,,,,,,,,,,,,,,,,,,,,,,,,,Y2EEUW,train_x,red_square,top_left,2025-07-10_17h11.20.215,HideSeek_v1,2022.2.5,59.9732519266946,
,,,,,,,,,,,,,,,0,0,0,0,8,0,8,0,,,,,,,,,,,,,,,,,,,,,,,,,,,,,,,conditions/schedules/train_x_first/red_square_00/top_left/instructions/Slide9.png,conditions/schedules/train_x_first/red_square_00/top_left/instructions/Audio9.wav,1373.6032412000059,1373.6001434500067,9,"[3.925518700008979, 18.379872400008026, 16.24541339999996, 19.418223299988313, 4.553512899990892, 4.837437900001532, 5.403459699999075, 11.955670099996496, 5.582708500005538]","[3.925534099995275, 0.014419400002225302, 0.0002023999986704439, 0.0664595999987796, 0.05026720000023488, 0.06616159999975935, 0.06363309999869671, 11.955676900004619, 5.5827152999991085]",0,,,,,,,,,,,,,,,,,,,,,,,,,,,,,,,,,,,,,,,,,,,,,,,,,,,,,,,,,,,,,,,,,,,,,,,,,,,,,,,,,,,,,,,,,,,,,,,,,,,,,,,,,,,,,,,,,,,,,,,,,,,,Y2EEUW,train_x,red_square,top_left,2025-07-10_17h11.20.215,HideSeek_v1,2022.2.5,59.9732519266946,
,,,,,,,,,,,,,,,0,0,0,0,9,0,9,0,,,,,,,,,,,,,,,,,,,,,,,,,,,,,,,conditions/schedules/train_x_first/red_square_00/top_left/instructions/Slide10.png,conditions/schedules/train_x_first/red_square_00/top_left/instructions/Audio10.wav,1379.2256429000117,1379.2216424500075,10,"[3.925518700008979, 18.379872400008026, 16.24541339999996, 19.418223299988313, 4.553512899990892, 4.837437900001532, 5.403459699999075, 11.955670099996496, 5.582708500005538, 6.649253099996713]","[3.925534099995275, 0.014419400002225302, 0.0002023999986704439, 0.0664595999987796, 0.05026720000023488, 0.06616159999975935, 0.06363309999869671, 11.955676900004619, 0.06419929998810403, 6.649260099991807]",0,,,,,,,,,,,,,,,,,,,,,,,,,,,,,,,,,,,,,,,,,,,,,,,,,,,,,,,,,,,,,,,,,,,,,,,,,,,,,,,,,,,,,,,,,,,,,,,,,,,,,,,,,,,,,,,,,,,,,,,,,,,,Y2EEUW,train_x,red_square,top_left,2025-07-10_17h11.20.215,HideSeek_v1,2022.2.5,59.9732519266946,
,,,,,,,,,,,,,,,0,0,0,0,10,0,10,0,,,,,,,,,,,,,,,,,,,,,,,,,,,,,,,conditions/schedules/train_x_first/red_square_00/top_left/instructions/Slide11.png,conditions/schedules/train_x_first/red_square_00/top_left/instructions/Audio11.wav,1385.9295554000128,1385.9272778000013,11,"[3.925518700008979, 18.379872400008026, 16.24541339999996, 19.418223299988313, 4.553512899990892, 4.837437900001532, 5.403459699999075, 11.955670099996496, 5.582708500005538, 6.649253099996713, 10.220389499998419]","[3.925534099995275, 0.014419400002225302, 0.0002023999986704439, 0.0664595999987796, 0.05026720000023488, 0.06616159999975935, 0.06363309999869671, 11.955676900004619, 0.06419929998810403, 0.04704960000526626, 10.22039620000578]",0,,,,,,,,,,,,,,,,,,,,,,,,,,,,,,,,,,,,,,,,,,,,,,,,,,,,,,,,,,,,,,,,,,,,,,,,,,,,,,,,,,,,,,,,,,,,,,,,,,,,,,,,,,,,,,,,,,,,,,,,,,,,Y2EEUW,train_x,red_square,top_left,2025-07-10_17h11.20.215,HideSeek_v1,2022.2.5,59.9732519266946,
,,,,,,,,,,,,,,,0,0,0,0,11,0,11,0,,,,,,,,,,,,,,,,,,,,,,,,,,,,,,,conditions/schedules/train_x_first/red_square_00/top_left/instructions/Slide12.png,conditions/schedules/train_x_first/red_square_00/top_left/instructions/Audio12.wav,1396.2185521000065,1396.219291750007,12,"[3.925518700008979, 18.379872400008026, 16.24541339999996, 19.418223299988313, 4.553512899990892, 4.837437900001532, 5.403459699999075, 11.955670099996496, 5.582708500005538, 6.649253099996713, 10.220389499998419, 12.55881319999753]","[3.925534099995275, 0.014419400002225302, 0.0002023999986704439, 0.0664595999987796, 0.05026720000023488, 0.06616159999975935, 0.06363309999869671, 11.955676900004619, 0.06419929998810403, 0.04704960000526626, 0.03149319998919964, 12.558820099991863]",0,,,,,,,,,,,,,,,,,,,,,,,,,,,,,,,,,,,,,,,,,,,,,,,,,,,,,,,,,,,,,,,,,,,,,,,,,,,,,,,,,,,,,,,,,,,,,,,,,,,,,,,,,,,,,,,,,,,,,,,,,,,,Y2EEUW,train_x,red_square,top_left,2025-07-10_17h11.20.215,HideSeek_v1,2022.2.5,59.9732519266946,
1,3,7,8,7,5,0,66,2,instr_dim1_1,,,,,,0,0,0,0,,,,,0,0,0,0,,,,,,,,,,,,,,,,,,,,,,,,,,,,,,,,,,,,,stimuli/alien_stimuli/66.png,conditions/schedules/train_x_first/red_square_00/top_left/inputInstr_1.xlsx,stimuli/alien_stimuli/66.png,1408.8756428000052,1408.8756428000052,1408.8756428000052,1408.8756428000052,1408.8629316000006,return,10.285929999998189,"[-0.16, -0.08, 0, 0.08, 0.16, 0.24, 0.32, 0.4, 0.48, 0.56]","[-0.4, -0.32, -0.24, -0.16, -0.08, 0, 0.08, 0.16, 0.24, 0.32]",7,7,8,3,0.0,0.4,1419.3216651000112,1419.3216651000112,1419.3216651000112,1419.3216651000112,1419.3216651000112,1419.3216651000112,1419.3216651000112,1419.3049865000066,9.575379199988674,return,9.423982099993736,stimuli/alien_stimuli/66.png,66,3,1,,,,,,,,,,,,,,,,,,,,,,,,,,,,,,,,,,,,,,,,,,,,,,,,,,,,,,,,,,,,,,,,,,,,,,,,,,,,,,,,,,,,,,,,,Y2EEUW,train_x,red_square,top_left,2025-07-10_17h11.20.215,HideSeek_v1,2022.2.5,59.9732519266946,
,,,,,,,,,,,30,,,,0,0,0,0,,,,,,,,,,,,,,,,,,,,,,,,,,,,,,,,,,,,,,,,,,,,,,,,,,,,,,,,,,,,,,,,,,,,,,,,,,,,,,21,0.7,0,0,99,1,30,0,conditions/schedules/train_x_first/red_square_00/top_left/inputTrain_1.1.xlsx,99,1,1,1,0,,,,,,,,,,,,,,,,,,,,,,,,,,,,,,,,,,,,,,,,,,,,,,,,,,,,,,,,,,,,,,,,,,,,,,,,,,,Y2EEUW,train_x,red_square,top_left,2025-07-10_17h11.20.215,HideSeek_v1,2022.2.5,59.9732519266946,
,,,,,,,,,,,,,,,1,0,1,0,0,0,0,0,,,,,,,,,,,,,,,,,,,,,,,,,,,,,,,conditions/schedules/train_x_first/red_square_00/top_left/instructions/Slide13.png,conditions/schedules/train_x_first/red_square_00/top_left/instructions/Audio13.wav,1428.8940419000137,1428.8960372500005,13,"[3.925518700008979, 18.379872400008026, 16.24541339999996, 19.418223299988313, 4.553512899990892, 4.837437900001532, 5.403459699999075, 11.955670099996496, 5.582708500005538, 6.649253099996713, 10.220389499998419, 12.55881319999753, 17.21422399999574]","[3.925534099995275, 0.014419400002225302, 0.0002023999986704439, 0.0664595999987796, 0.05026720000023488, 0.06616159999975935, 0.06363309999869671, 11.955676900004619, 0.06419929998810403, 0.04704960000526626, 0.03149319998919964, 12.558820099991863, 17.214231799996924]",0,,,,,,,,,,,,,,,,,,,,,,,,,,,,,,,,,,,,,,,,,,,,,,,,,,,,,,,,,,,,,,,,,,,,,,,,,,,,,,,,,,,,,,,,,,,,,,,,,,,,,,,,,,,,,,,,,,,,,,,,,,,,Y2EEUW,train_x,red_square,top_left,2025-07-10_17h11.20.215,HideSeek_v1,2022.2.5,59.9732519266946,
,,,,,,,,,,,,,,,1,0,1,0,1,0,1,0,,,,,,,,,,,,,,,,,,,,,,,,,,,,,,,conditions/schedules/train_x_first/red_square_00/top_left/instructions/Slide14.png,conditions/schedules/train_x_first/red_square_00/top_left/instructions/Audio14.wav,1446.1747646000003,1446.1606712000066,14,"[3.925518700008979, 18.379872400008026, 16.24541339999996, 19.418223299988313, 4.553512899990892, 4.837437900001532, 5.403459699999075, 11.955670099996496, 5.582708500005538, 6.649253099996713, 10.220389499998419, 12.55881319999753, 17.21422399999574, 12.878168600000208]","[3.925534099995275, 0.014419400002225302, 0.0002023999986704439, 0.0664595999987796, 0.05026720000023488, 0.06616159999975935, 0.06363309999869671, 11.955676900004619, 0.06419929998810403, 0.04704960000526626, 0.03149319998919964, 12.558820099991863, 0.05125259999476839, 12.87817619999987]",0,,,,,,,,,,,,,,,,,,,,,,,,,,,,,,,,,,,,,,,,,,,,,,,,,,,,,,,,,,,,,,,,,,,,,,,,,,,,,,,,,,,,,,,,,,,,,,,,,,,,,,,,,,,,,,,,,,,,,,,,,,,,Y2EEUW,train_x,red_square,top_left,2025-07-10_17h11.20.215,HideSeek_v1,2022.2.5,59.9732519266946,
2,4,5,4,5,0,0,16,2,instr_dim1_1,,,,,,1,0,1,0,,,,,0,0,0,0,,,,,,,,,,,,,,,,,,,,,,,,,,,,,,,,,,,,,stimuli/alien_stimuli/16.png,conditions/schedules/train_x_first/red_square_00/top_left/inputInstr_1.xlsx,stimuli/alien_stimuli/16.png,1459.1578675000055,1459.1578675000055,1459.1578675000055,1459.1578675000055,1459.1549855500052,return,3.401690500002587,"[-0.16, -0.08, 0, 0.08, 0.16, 0.24, 0.32, 0.4, 0.48, 0.56]","[-0.4, -0.32, -0.24, -0.16, -0.08, 0, 0.08, 0.16, 0.24, 0.32]",5,5,4,4,0.0,0.0,1462.7291836000077,1462.7291836000077,1462.7291836000077,1462.7291836000077,1462.7291836000077,1462.7291836000077,1462.7291836000077,1462.7076215999987,6.489881000001333,return,6.327215399986017,stimuli/alien_stimuli/16.png,16,4,2,,,,,,,,,,,,,,,,,,,,,,,,,,,,,,,,,,,,,,,,,,,,,,,,,,,,,,,,,,,,,,,,,,,,,,,,,,,,,,,,,,,,,,,,,Y2EEUW,train_x,red_square,top_left,2025-07-10_17h11.20.215,HideSeek_v1,2022.2.5,59.9732519266946,
,,,,,,,,,,,30,,,,1,0,1,0,,,,,,,,,,,,,,,,,,,,,,,,,,,,,,,,,,,,,,,,,,,,,,,,,,,,,,,,,,,,,,,,,,,,,,,,,,,,,,21,0.7,0,0,99,1,30,0,conditions/schedules/train_x_first/red_square_00/top_left/inputTrain_1.1.xlsx,99,1,1,1,0,,,,,,,,,,,,,,,,,,,,,,,,,,,,,,,,,,,,,,,,,,,,,,,,,,,,,,,,,,,,,,,,,,,,,,,,,,,Y2EEUW,train_x,red_square,top_left,2025-07-10_17h11.20.215,HideSeek_v1,2022.2.5,59.9732519266946,
,,,,,,,,,,,,,,,2,0,2,0,0,0,0,0,,,,,,,,,,,,,,,,,,,,,,,,,,,,,,,conditions/schedules/train_x_first/red_square_00/top_left/instructions/Slide15.png,conditions/schedules/train_x_first/red_square_00/top_left/instructions/Audio15.wav,1469.2256683000014,1469.213021250005,15,"[3.925518700008979, 18.379872400008026, 16.24541339999996, 19.418223299988313, 4.553512899990892, 4.837437900001532, 5.403459699999075, 11.955670099996496, 5.582708500005538, 6.649253099996713, 10.220389499998419, 12.55881319999753, 17.21422399999574, 12.878168600000208, 29.392333099996904]","[3.925534099995275, 0.014419400002225302, 0.0002023999986704439, 0.0664595999987796, 0.05026720000023488, 0.06616159999975935, 0.06363309999869671, 11.955676900004619, 0.06419929998810403, 0.04704960000526626, 0.03149319998919964, 12.558820099991863, 0.05125259999476839, 12.87817619999987, 29.392346299995552]",0,,,,,,,,,,,,,,,,,,,,,,,,,,,,,,,,,,,,,,,,,,,,,,,,,,,,,,,,,,,,,,,,,,,,,,,,,,,,,,,,,,,,,,,,,,,,,,,,,,,,,,,,,,,,,,,,,,,,,,,,,,,,Y2EEUW,train_x,red_square,top_left,2025-07-10_17h11.20.215,HideSeek_v1,2022.2.5,59.9732519266946,
,,,,,,,,,,,,,,,2,0,2,0,1,0,1,0,,,,,,,,,,,,,,,,,,,,,,,,,,,,,,,conditions/schedules/train_x_first/red_square_00/top_left/instructions/Slide16.png,conditions/schedules/train_x_first/red_square_00/top_left/instructions/Audio16.wav,1498.679128200005,1498.6707604000112,16,"[3.925518700008979, 18.379872400008026, 16.24541339999996, 19.418223299988313, 4.553512899990892, 4.837437900001532, 5.403459699999075, 11.955670099996496, 5.582708500005538, 6.649253099996713, 10.220389499998419, 12.55881319999753, 17.21422399999574, 12.878168600000208, 29.392333099996904, 21.857631199993193]","[3.925534099995275, 0.014419400002225302, 0.0002023999986704439, 0.0664595999987796, 0.05026720000023488, 0.06616159999975935, 0.06363309999869671, 11.955676900004619, 0.06419929998810403, 0.04704960000526626, 0.03149319998919964, 12.558820099991863, 0.05125259999476839, 12.87817619999987, 0.2064760000066599, 21.857638000001316]",0,,,,,,,,,,,,,,,,,,,,,,,,,,,,,,,,,,,,,,,,,,,,,,,,,,,,,,,,,,,,,,,,,,,,,,,,,,,,,,,,,,,,,,,,,,,,,,,,,,,,,,,,,,,,,,,,,,,,,,,,,,,,Y2EEUW,train_x,red_square,top_left,2025-07-10_17h11.20.215,HideSeek_v1,2022.2.5,59.9732519266946,
,2,6,5,6,3,0,46,,train_dim1_1,1,30,,,,2,0,2,0,,,,,,,,,0,0,0,0,0,0,0,0,0,0,0,0,,,,,,,,,,,,,,,,,,,,,,,,,stimuli/alien_stimuli/46.png,,,,,,,,,,,,,,,,,,,,,,,,,,,,,,,,,,,,,,,30,,,,,,,,1520.6390305000095,1520.6390305000095,1520.6390305000095,1520.6390305000095,1520.6390305000095,0,0,0,0.08,return,8.451424300001236,0,0,0,0,0,0.08,return,8.347904499998549,,,,,,,,,,,,,,,,,,,,,,,,,,,,,,,,,,,,,,,,,,,,,,,,,,,,,,,,Y2EEUW,train_x,red_square,top_left,2025-07-10_17h11.20.215,HideSeek_v1,2022.2.5,59.9732519266946,
,2,9,2,9,0,0,16,,train_dim1_1,2,30,,,,2,0,2,0,,,,,,,,,0,0,0,0,0,1,1,1,0,0,0,0,,,,,,,,,,,,,,,,,,,,,,,,,stimuli/alien_stimuli/16.png,,,,,,,,,,,,,,,,,,,,,,,,,,,,,stimuli/alien_stimuli/46.png,46,2,3,,,,,,,30,,,,,,,,1551.9467761000124,1551.9467761000124,1551.9467761000124,1551.9467761000124,1551.9467761000124,,,,,right,7.141784600011306,0,0,0,99,0.08,0.32,right,7.026478400002816,1550.3639191000111,1551.9467761000124,0.24,0.08,0.0,0.24,0.08,0.24,0.12,0.24,0.08,1530.6365955000074,1530.6365955000074,1530.6365955000074,1530.6365955000074,1530.6365955000074,1530.6365955000074,1530.6365955000074,1530.6365955000074,1530.6309160500095,19.83542679999664,return,19.706414300002507,,,,,,,,,,,,,,,,,,,,,,,,,,,,,,,,,Y2EEUW,train_x,red_square,top_left,2025-07-10_17h11.20.215,HideSeek_v1,2022.2.5,59.9732519266946,
,2,9,2,9,0,0,16,,train_dim1_1,2,30,,,,2,0,2,0,,,,,,,,,0,0,0,0,0,1,1,1,1,0,1,0,,,,,,,,,,,,,,,,,,,,,,,,,,,,,,,,,,,,,,,,,,,,,,,,,,,,,,,,,,,,,,,,30,,,,,,,,1559.0739708000037,1559.0739708000037,1559.0739708000037,1559.0739708000037,1559.0739708000037,,,,,right,0.9761760999972466,0,0,0,99,0.16,0.32,right,0.8857357999950182,,,,,,,,,,,,,,,,,,,,,,,,,,,,,,,,,,,,,,,,,,,,,,,,,,,,,,,,Y2EEUW,train_x,red_square,top_left,2025-07-10_17h11.20.215,HideSeek_v1,2022.2.5,59.9732519266946,
,2,9,2,9,0,0,16,,train_dim1_1,2,30,,,,2,0,2,0,,,,,,,,,0,0,0,0,0,1,1,1,2,0,2,0,,,,,,,,,,,,,,,,,,,,,,,,,,,,,,,,,,,,,,,,,,,,,,,,,,,,,,,,,,,,,,,,30,,,,,,,,1560.0573703000118,1560.0573703000118,1560.0573703000118,1560.0573703000118,1560.0573703000118,,,,,right,5.280036799988011,0,0,0,99,0.24,0.32,right,5.198178099992219,,,,,,,,,,,,,,,,,,,,,,,,,,,,,,,,,,,,,,,,,,,,,,,,,,,,,,,,Y2EEUW,train_x,red_square,top_left,2025-07-10_17h11.20.215,HideSeek_v1,2022.2.5,59.9732519266946,
,2,9,2,9,0,0,16,,train_dim1_1,2,30,,,,2,0,2,0,,,,,,,,,0,0,0,0,0,1,1,1,3,0,3,0,,,,,,,,,,,,,,,,,,,,,,,,,,,,,,,,,,,,,,,,,,,,,,,,,,,,,,,,,,,,,,,,30,,,,,,,,1565.3466112000024,1565.3466112000024,1565.3466112000024,1565.3466112000024,1565.3466112000024,0,3,0.24,0.32,return,1.0432790999911958,0,0,0,0,0.24,0.32,return,0.9589273999881698,,,,,,,,,,,,,,,,,,,,,,,,,,,,,,,,,,,,,,,,,,,,,,,,,,,,,,,,Y2EEUW,train_x,red_square,top_left,2025-07-10_17h11.20.215,HideSeek_v1,2022.2.5,59.9732519266946,
,4,9,5,9,1,0,26,,train_dim1_1,3,30,,,,2,0,2,0,,,,,,,,,0,0,0,0,0,2,2,2,0,0,0,0,,,,,,,,,,,,,,,,,,,,,,,,,stimuli/alien_stimuli/26.png,,,,,,,,,,,,,,,,,,,,,,,,,,,,,stimuli/alien_stimuli/16.png,16,2,4,,,,,,,30,,,,,,,,1581.651514000012,1581.651514000012,1581.651514000012,1581.651514000012,1581.651514000012,0,3,0.16,0.32,return,13.679179000013391,0,1,0,0,0.16,0.32,return,13.57892549999815,1580.071900400013,1581.651514000012,0,0.32,0.0,0.0,0.32,0,0.0,0,0.32,1567.97456100001,1567.97456100001,1567.97456100001,1567.97456100001,1567.97456100001,1567.97456100001,1567.97456100001,1567.97456100001,1567.9620331000042,12.228754499999923,return,12.065740300007747,,,,,,,,,,,,,,,,,,,,,,,,,,,,,,,,,Y2EEUW,train_x,red_square,top_left,2025-07-10_17h11.20.215,HideSeek_v1,2022.2.5,59.9732519266946,
,2,8,6,8,4,0,56,,train_dim1_1,4,30,,,,2,0,2,0,,,,,,,,,0,0,0,0,0,3,3,3,0,0,0,0,,,,,,,,,,,,,,,,,,,,,,,,,stimuli/alien_stimuli/56.png,,,,,,,,,,,,,,,,,,,,,,,,,,,,,stimuli/alien_stimuli/26.png,26,4,5,,,,,,,30,,,,,,,,1616.4523310000077,1616.4523310000077,1616.4523310000077,1616.4523310000077,1616.4523310000077,,,,,down,5.656881700007943,0,1,0,99,0,0.15999999999999998,down,5.566141099989181,1614.884285600012,1616.4523310000077,0.24,0.32,0.0,0.08,0.32,0.24,0.2,0.24,0.32,1596.9246857000107,1596.9246857000107,1596.9246857000107,1596.9246857000107,1596.9246857000107,1596.9246857000107,1596.9246857000107,1596.9246857000107,1596.9027707500063,18.116933500001323,return,17.92781300000206,,,,,,,,,,,,,,,,,,,,,,,,,,,,,,,,,Y2EEUW,train_x,red_square,top_left,2025-07-10_17h11.20.215,HideSeek_v1,2022.2.5,59.9732519266946,
,2,8,6,8,4,0,56,,train_dim1_1,4,30,,,,2,0,2,0,,,,,,,,,0,0,0,0,0,3,3,3,1,0,1,0,,,,,,,,,,,,,,,,,,,,,,,,,,,,,,,,,,,,,,,,,,,,,,,,,,,,,,,,,,,,,,,,30,,,,,,,,1622.107586500002,1622.107586500002,1622.107586500002,1622.107586500002,1622.107586500002,-1,3,0,0.15999999999999998,return,1.3267884999950184,0,0,0,0,0,0.15999999999999998,return,1.2455477000039537,,,,,,,,,,,,,,,,,,,,,,,,,,,,,,,,,,,,,,,,,,,,,,,,,,,,,,,,Y2EEUW,train_x,red_square,top_left,2025-07-10_17h11.20.215,HideSeek_v1,2022.2.5,59.9732519266946,
,0,7,5,7,5,0,66,,train_dim1_1,5,30,,,,2,0,2,0,,,,,,,,,0,0,0,0,0,4,4,4,0,0,0,0,,,,,,,,,,,,,,,,,,,,,,,,,stimuli/alien_stimuli/66.png,,,,,,,,,,,,,,,,,,,,,,,,,,,,,stimuli/alien_stimuli/56.png,56,2,6,,,,,,,30,,,,,,,,1635.3455205000064,1635.3455205000064,1635.3455205000064,1635.3455205000064,1635.3455205000064,,,,,right,5.776721699992777,0,0,0,99,-0.08,0.16,right,5.692024899995886,1633.7832603000134,1635.3455205000064,0.32,0.24,0.0,0.32,0.24,0.32,0.16,0.32,0.24,1625.0027179000026,1625.0027179000026,1625.0027179000026,1625.0027179000026,1625.0027179000026,1625.0027179000026,1625.0027179000026,1625.0027179000026,1624.992824550005,8.892513999991934,return,8.75574159999087,,,,,,,,,,,,,,,,,,,,,,,,,,,,,,,,,Y2EEUW,train_x,red_square,top_left,2025-07-10_17h11.20.215,HideSeek_v1,2022.2.5,59.9732519266946,
,0,7,5,7,5,0,66,,train_dim1_1,5,30,,,,2,0,2,0,,,,,,,,,0,0,0,0,0,4,4,4,1,0,1,0,,,,,,,,,,,,,,,,,,,,,,,,,,,,,,,,,,,,,,,,,,,,,,,,,,,,,,,,,,,,,,,,30,,,,,,,,1641.1217999000073,1641.1217999000073,1641.1217999000073,1641.1217999000073,1641.1217999000073,,,,,right,0.508648600007291,0,0,0,99,0.0,0.16,right,0.42818000000261236,,,,,,,,,,,,,,,,,,,,,,,,,,,,,,,,,,,,,,,,,,,,,,,,,,,,,,,,Y2EEUW,train_x,red_square,top_left,2025-07-10_17h11.20.215,HideSeek_v1,2022.2.5,59.9732519266946,
,0,7,5,7,5,0,66,,train_dim1_1,5,30,,,,2,0,2,0,,,,,,,,,0,0,0,0,0,4,4,4,2,0,2,0,,,,,,,,,,,,,,,,,,,,,,,,,,,,,,,,,,,,,,,,,,,,,,,,,,,,,,,,,,,,,,,,30,,,,,,,,1641.636430700004,1641.636430700004,1641.636430700004,1641.636430700004,1641.636430700004,,,,,right,0.47677750000730157,0,0,0,99,0.08,0.16,right,0.3972687999921618,,,,,,,,,,,,,,,,,,,,,,,,,,,,,,,,,,,,,,,,,,,,,,,,,,,,,,,,Y2EEUW,train_x,red_square,top_left,2025-07-10_17h11.20.215,HideSeek_v1,2022.2.5,59.9732519266946,
,0,7,5,7,5,0,66,,train_dim1_1,5,30,,,,2,0,2,0,,,,,,,,,0,0,0,0,0,4,4,4,3,0,3,0,,,,,,,,,,,,,,,,,,,,,,,,,,,,,,,,,,,,,,,,,,,,,,,,,,,,,,,,,,,,,,,,30,,,,,,,,1642.1202956000052,1642.1202956000052,1642.1202956000052,1642.1202956000052,1642.1202956000052,-1,6,0.08,0.16,return,2.6119540000072448,0,0,0,0,0.08,0.16,return,2.536831199991866,,,,,,,,,,,,,,,,,,,,,,,,,,,,,,,,,,,,,,,,,,,,,,,,,,,,,,,,Y2EEUW,train_x,red_square,top_left,2025-07-10_17h11.20.215,HideSeek_v1,2022.2.5,59.9732519266946,
,0,5,1,5,1,0,26,,train_dim1_1,6,30,,,,2,0,2,0,,,,,,,,,0,0,0,0,0,5,5,5,0,0,0,0,,,,,,,,,,,,,,,,,,,,,,,,,stimuli/alien_stimuli/26.png,,,,,,,,,,,,,,,,,,,,,,,,,,,,,stimuli/alien_stimuli/66.png,66,0,7,,,,,,,30,,,,,,,,1660.8336708000134,1660.8336708000134,1660.8336708000134,1660.8336708000134,1660.8336708000134,,,,,down,6.405804199996055,0,0,0,99,-0.16,-0.08,down,6.297648400010075,1659.254578100008,1660.8336708000134,0.24,0.16,0.0,0.4,0.16,0.24,0.039999999999999994,0.24,0.16,1646.3325177000079,1646.3325177000079,1646.3325177000079,1646.3325177000079,1646.3325177000079,1646.3325177000079,1646.3325177000079,1646.3325177000079,1646.3105020000075,13.063059799998882,return,12.9034629999951,,,,,,,,,,,,,,,,,,,,,,,,,,,,,,,,,Y2EEUW,train_x,red_square,top_left,2025-07-10_17h11.20.215,HideSeek_v1,2022.2.5,59.9732519266946,
,0,5,1,5,1,0,26,,train_dim1_1,6,30,,,,2,0,2,0,,,,,,,,,0,0,0,0,0,5,5,5,1,0,1,0,,,,,,,,,,,,,,,,,,,,,,,,,,,,,,,,,,,,,,,,,,,,,,,,,,,,,,,,,,,,,,,,30,,,,,,,,1667.2323931000137,1667.2323931000137,1667.2323931000137,1667.2323931000137,1667.2323931000137,-2,6,-0.16,-0.08,return,1.1244442999886815,0,0,0,0,-0.16,-0.08,return,1.0450615999870934,,,,,,,,,,,,,,,,,,,,,,,,,,,,,,,,,,,,,,,,,,,,,,,,,,,,,,,,Y2EEUW,train_x,red_square,top_left,2025-07-10_17h11.20.215,HideSeek_v1,2022.2.5,59.9732519266946,
,3,5,8,5,5,0,66,,train_dim1_1,7,30,,,,2,0,2,0,,,,,,,,,0,0,0,0,0,6,6,6,0,0,0,0,,,,,,,,,,,,,,,,,,,,,,,,,stimuli/alien_stimuli/66.png,,,,,,,,,,,,,,,,,,,,,,,,,,,,,stimuli/alien_stimuli/26.png,26,0,8,,,,,,,30,,,,,,,,1675.7800894000102,1675.7800894000102,1675.7800894000102,1675.7800894000102,1675.7800894000102,,,,,right,5.024654499997268,0,0,0,99,0.16,0,right,4.93316010000126,1674.2168647000071,1675.7800894000102,-0.08,0,0.0,0.08,0.0,-0.08,-0.12,-0.08,0,1669.9322732,1669.9322732,1669.9322732,1669.9322732,1669.9322732,1669.9322732,1669.9322732,1669.9322732,1669.9133237500064,4.405969300001743,return,4.2683376999921165,,,,,,,,,,,,,,,,,,,,,,,,,,,,,,,,,Y2EEUW,train_x,red_square,top_left,2025-07-10_17h11.20.215,HideSeek_v1,2022.2.5,59.9732519266946,
,3,5,8,5,5,0,66,,train_dim1_1,7,30,,,,2,0,2,0,,,,,,,,,0,0,0,0,0,6,6,6,1,0,1,0,,,,,,,,,,,,,,,,,,,,,,,,,,,,,,,,,,,,,,,,,,,,,,,,,,,,,,,,,,,,,,,,30,,,,,,,,1680.811793700006,1680.811793700006,1680.811793700006,1680.811793700006,1680.811793700006,,,,,left,3.4784699000010733,0,0,0,99,0.08,0,left,3.3935911000007764,,,,,,,,,,,,,,,,,,,,,,,,,,,,,,,,,,,,,,,,,,,,,,,,,,,,,,,,Y2EEUW,train_x,red_square,top_left,2025-07-10_17h11.20.215,HideSeek_v1,2022.2.5,59.9732519266946,
,3,5,8,5,5,0,66,,train_dim1_1,7,30,,,,2,0,2,0,,,,,,,,,0,0,0,0,0,6,6,6,2,0,2,0,,,,,,,,,,,,,,,,,,,,,,,,,,,,,,,,,,,,,,,,,,,,,,,,,,,,,,,,,,,,,,,,30,,,,,,,,1684.2887283000018,1684.2887283000018,1684.2887283000018,1684.2887283000018,1684.2887283000018,,,,,down,1.3439464000111911,0,0,0,99,0.08,-0.08,down,1.2662980999884894,,,,,,,,,,,,,,,,,,,,,,,,,,,,,,,,,,,,,,,,,,,,,,,,,,,,,,,,Y2EEUW,train_x,red_square,top_left,2025-07-10_17h11.20.215,HideSeek_v1,2022.2.5,59.9732519266946,
,3,5,8,5,5,0,66,,train_dim1_1,7,30,,,,2,0,2,0,,,,,,,,,0,0,0,0,0,6,6,6,3,0,3,0,,,,,,,,,,,,,,,,,,,,,,,,,,,,,,,,,,,,,,,,,,,,,,,,,,,,,,,,,,,,,,,,30,,,,,,,,1685.6394300000102,1685.6394300000102,1685.6394300000102,1685.6394300000102,1685.6394300000102,,,,,down,1.5946406000002753,0,0,0,99,0.08,-0.16,down,1.5059567999851424,,,,,,,,,,,,,,,,,,,,,,,,,,,,,,,,,,,,,,,,,,,,,,,,,,,,,,,,Y2EEUW,train_x,red_square,top_left,2025-07-10_17h11.20.215,HideSeek_v1,2022.2.5,59.9732519266946,
,3,5,8,5,5,0,66,,train_dim1_1,7,30,,,,2,0,2,0,,,,,,,,,0,0,0,0,0,6,6,6,4,0,4,0,,,,,,,,,,,,,,,,,,,,,,,,,,,,,,,,,,,,,,,,,,,,,,,,,,,,,,,,,,,,,,,,30,,,,,,,,1687.2422684000048,1687.2422684000048,1687.2422684000048,1687.2422684000048,1687.2422684000048,,,,,up,5.380818999998155,0,0,0,99,0.08,-0.08,up,5.304841399993165,,,,,,,,,,,,,,,,,,,,,,,,,,,,,,,,,,,,,,,,,,,,,,,,,,,,,,,,Y2EEUW,train_x,red_square,top_left,2025-07-10_17h11.20.215,HideSeek_v1,2022.2.5,59.9732519266946,
,3,5,8,5,5,0,66,,train_dim1_1,7,30,,,,2,0,2,0,,,,,,,,,0,0,0,0,0,6,6,6,5,0,5,0,,,,,,,,,,,,,,,,,,,,,,,,,,,,,,,,,,,,,,,,,,,,,,,,,,,,,,,,,,,,,,,,30,,,,,,,,1692.6327555000025,1692.6327555000025,1692.6327555000025,1692.6327555000025,1692.6327555000025,,,,,up,0.4576537999964785,0,0,0,99,0.08,0.0,up,0.38112739998905454,,,,,,,,,,,,,,,,,,,,,,,,,,,,,,,,,,,,,,,,,,,,,,,,,,,,,,,,Y2EEUW,train_x,red_square,top_left,2025-07-10_17h11.20.215,HideSeek_v1,2022.2.5,59.9732519266946,
,3,5,8,5,5,0,66,,train_dim1_1,7,30,,,,2,0,2,0,,,,,,,,,0,0,0,0,0,6,6,6,6,0,6,0,,,,,,,,,,,,,,,,,,,,,,,,,,,,,,,,,,,,,,,,,,,,,,,,,,,,,,,,,,,,,,,,30,,,,,,,,1693.0958318000048,1693.0958318000048,1693.0958318000048,1693.0958318000048,1693.0958318000048,,,,,right,1.144190000006347,0,0,0,99,0.16,0.0,right,1.0660806999949273,,,,,,,,,,,,,,,,,,,,,,,,,,,,,,,,,,,,,,,,,,,,,,,,,,,,,,,,Y2EEUW,train_x,red_square,top_left,2025-07-10_17h11.20.215,HideSeek_v1,2022.2.5,59.9732519266946,
,3,5,8,5,5,0,66,,train_dim1_1,7,30,,,,2,0,2,0,,,,,,,,,0,0,0,0,0,6,6,6,7,0,7,0,,,,,,,,,,,,,,,,,,,,,,,,,,,,,,,,,,,,,,,,,,,,,,,,,,,,,,,,,,,,,,,,30,,,,,,,,1694.247756200013,1694.247756200013,1694.247756200013,1694.247756200013,1694.247756200013,,,,,right,0.5758984999993118,0,0,0,99,0.24,0.0,right,0.5040630999865243,,,,,,,,,,,,,,,,,,,,,,,,,,,,,,,,,,,,,,,,,,,,,,,,,,,,,,,,Y2EEUW,train_x,red_square,top_left,2025-07-10_17h11.20.215,HideSeek_v1,2022.2.5,59.9732519266946,
,3,5,8,5,5,0,66,,train_dim1_1,7,30,,,,2,0,2,0,,,,,,,,,0,0,0,0,0,6,6,6,8,0,8,0,,,,,,,,,,,,,,,,,,,,,,,,,,,,,,,,,,,,,,,,,,,,,,,,,,,,,,,,,,,,,,,,30,,,,,,,,1694.8360874000064,1694.8360874000064,1694.8360874000064,1694.8360874000064,1694.8360874000064,,,,,right,0.4903137999936007,0,0,0,99,0.32,0.0,right,0.4092421999957878,,,,,,,,,,,,,,,,,,,,,,,,,,,,,,,,,,,,,,,,,,,,,,,,,,,,,,,,Y2EEUW,train_x,red_square,top_left,2025-07-10_17h11.20.215,HideSeek_v1,2022.2.5,59.9732519266946,
,3,5,8,5,5,0,66,,train_dim1_1,7,30,,,,2,0,2,0,,,,,,,,,0,0,0,0,0,6,6,6,9,0,9,0,,,,,,,,,,,,,,,,,,,,,,,,,,,,,,,,,,,,,,,,,,,,,,,,,,,,,,,,,,,,,,,,30,,,,,,,,1695.3312645000115,1695.3312645000115,1695.3312645000115,1695.3312645000115,1695.3312645000115,,,,,right,0.4769325000088429,0,0,0,99,0.4,0.0,right,0.38951079999969807,,,,,,,,,,,,,,,,,,,,,,,,,,,,,,,,,,,,,,,,,,,,,,,,,,,,,,,,Y2EEUW,train_x,red_square,top_left,2025-07-10_17h11.20.215,HideSeek_v1,2022.2.5,59.9732519266946,
,3,5,8,5,5,0,66,,train_dim1_1,7,30,,,,2,0,2,0,,,,,,,,,0,0,0,0,0,6,6,6,10,0,10,0,,,,,,,,,,,,,,,,,,,,,,,,,,,,,,,,,,,,,,,,,,,,,,,,,,,,,,,,,,,,,,,,30,,,,,,,,1695.816239000007,1695.816239000007,1695.816239000007,1695.816239000007,1695.816239000007,-2,10,0.4,0.0,return,1.4109224999992875,0,1,0,0,0.4,0.0,return,1.3322592000040459,,,,,,,,,,,,,,,,,,,,,,,,,,,,,,,,,,,,,,,,,,,,,,,,,,,,,,,,Y2EEUW,train_x,red_square,top_left,2025-07-10_17h11.20.215,HideSeek_v1,2022.2.5,59.9732519266946,
,0,9,3,9,3,0,46,,train_dim1_1,8,30,,,,2,0,2,0,,,,,,,,,0,0,0,0,0,7,7,7,0,0,0,0,,,,,,,,,,,,,,,,,,,,,,,,,stimuli/alien_stimuli/46.png,,,,,,,,,,,,,,,,,,,,,,,,,,,,,stimuli/alien_stimuli/66.png,66,3,9,,,,,,,30,,,,,,,,1710.9955333000107,1710.9955333000107,1710.9955333000107,1710.9955333000107,1710.9955333000107,,,,,down,4.706116799992742,0,1,0,99,-0.16,0.24,down,4.61490899999626,1709.4295079000003,1710.9955333000107,0.48,0,0.0,0.4,0.0,0.48,0.27999999999999997,0.48,0,1698.8168096000009,1698.8168096000009,1698.8168096000009,1698.8168096000009,1698.8168096000009,1698.8168096000009,1698.8168096000009,1698.8168096000009,1698.8041857000062,10.744383999990532,return,10.590266700004577,,,,,,,,,,,,,,,,,,,,,,,,,,,,,,,,,Y2EEUW,train_x,red_square,top_left,2025-07-10_17h11.20.215,HideSeek_v1,2022.2.5,59.9732519266946,
,0,9,3,9,3,0,46,,train_dim1_1,8,30,,,,2,0,2,0,,,,,,,,,0,0,0,0,0,7,7,7,1,0,1,0,,,,,,,,,,,,,,,,,,,,,,,,,,,,,,,,,,,,,,,,,,,,,,,,,,,,,,,,,,,,,,,,30,,,,,,,,1715.7024791000003,1715.7024791000003,1715.7024791000003,1715.7024791000003,1715.7024791000003,,,,,right,1.3747569999977713,0,1,0,99,-0.08,0.24,right,1.298337599990191,,,,,,,,,,,,,,,,,,,,,,,,,,,,,,,,,,,,,,,,,,,,,,,,,,,,,,,,Y2EEUW,train_x,red_square,top_left,2025-07-10_17h11.20.215,HideSeek_v1,2022.2.5,59.9732519266946,
,0,9,3,9,3,0,46,,train_dim1_1,8,30,,,,2,0,2,0,,,,,,,,,0,0,0,0,0,7,7,7,2,0,2,0,,,,,,,,,,,,,,,,,,,,,,,,,,,,,,,,,,,,,,,,,,,,,,,,,,,,,,,,,,,,,,,,30,,,,,,,,1717.0831444000069,1717.0831444000069,1717.0831444000069,1717.0831444000069,1717.0831444000069,,,,,right,0.49337899999227375,0,1,0,99,0.0,0.24,right,0.4049589000060223,,,,,,,,,,,,,,,,,,,,,,,,,,,,,,,,,,,,,,,,,,,,,,,,,,,,,,,,Y2EEUW,train_x,red_square,top_left,2025-07-10_17h11.20.215,HideSeek_v1,2022.2.5,59.9732519266946,
,0,9,3,9,3,0,46,,train_dim1_1,8,30,,,,2,0,2,0,,,,,,,,,0,0,0,0,0,7,7,7,3,0,3,0,,,,,,,,,,,,,,,,,,,,,,,,,,,,,,,,,,,,,,,,,,,,,,,,,,,,,,,,,,,,,,,,30,,,,,,,,1717.582532600005,1717.582532600005,1717.582532600005,1717.582532600005,1717.582532600005,-3,12,0.0,0.24,return,1.043930999992881,0,0,0,0,0.0,0.24,return,0.9711955999955535,,,,,,,,,,,,,,,,,,,,,,,,,,,,,,,,,,,,,,,,,,,,,,,,,,,,,,,,Y2EEUW,train_x,red_square,top_left,2025-07-10_17h11.20.215,HideSeek_v1,2022.2.5,59.9732519266946,
,1,5,5,5,4,0,56,,train_dim1_1,9,30,,,,2,0,2,0,,,,,,,,,0,0,0,0,0,8,8,8,0,0,0,0,,,,,,,,,,,,,,,,,,,,,,,,,stimuli/alien_stimuli/56.png,,,,,,,,,,,,,,,,,,,,,,,,,,,,,stimuli/alien_stimuli/46.png,46,0,10,,,,,,,30,,,,,,,,1726.3518227000022,1726.3518227000022,1726.3518227000022,1726.3518227000022,1726.3518227000022,,,,,down,3.609096000000136,0,0,0,99,-0.08,-0.08,down,3.5129736999952,1724.7919467000029,1726.3518227000022,0.08,0.32,0.0,0.24,0.32,0.08,-0.04,0.08,0.32,1720.1972758000047,1720.1972758000047,1720.1972758000047,1720.1972758000047,1720.1972758000047,1720.1972758000047,1720.1972758000047,1720.1972758000047,1720.1885557500063,4.706000499994843,return,4.576994899995043,,,,,,,,,,,,,,,,,,,,,,,,,,,,,,,,,Y2EEUW,train_x,red_square,top_left,2025-07-10_17h11.20.215,HideSeek_v1,2022.2.5,59.9732519266946,
,1,5,5,5,4,0,56,,train_dim1_1,9,30,,,,2,0,2,0,,,,,,,,,0,0,0,0,0,8,8,8,1,0,1,0,,,,,,,,,,,,,,,,,,,,,,,,,,,,,,,,,,,,,,,,,,,,,,,,,,,,,,,,,,,,,,,,30,,,,,,,,1729.9660693000042,1729.9660693000042,1729.9660693000042,1729.9660693000042,1729.9660693000042,,,,,down,0.4756840000045486,0,0,0,99,-0.08,-0.16,down,0.3913559999928111,,,,,,,,,,,,,,,,,,,,,,,,,,,,,,,,,,,,,,,,,,,,,,,,,,,,,,,,Y2EEUW,train_x,red_square,top_left,2025-07-10_17h11.20.215,HideSeek_v1,2022.2.5,59.9732519266946,
,1,5,5,5,4,0,56,,train_dim1_1,9,30,,,,2,0,2,0,,,,,,,,,0,0,0,0,0,8,8,8,2,0,2,0,,,,,,,,,,,,,,,,,,,,,,,,,,,,,,,,,,,,,,,,,,,,,,,,,,,,,,,,,,,,,,,,30,,,,,,,,1730.4494217000029,1730.4494217000029,1730.4494217000029,1730.4494217000029,1730.4494217000029,-5,12,-0.08,-0.16,return,0.8426517999905627,0,0,0,0,-0.08,-0.16,return,0.7655800000065938,,,,,,,,,,,,,,,,,,,,,,,,,,,,,,,,,,,,,,,,,,,,,,,,,,,,,,,,Y2EEUW,train_x,red_square,top_left,2025-07-10_17h11.20.215,HideSeek_v1,2022.2.5,59.9732519266946,
,0,8,0,8,0,0,16,,train_dim1_1,10,30,,,,2,0,2,0,,,,,,,,,0,0,0,0,0,9,9,9,0,0,0,0,,,,,,,,,,,,,,,,,,,,,,,,,stimuli/alien_stimuli/16.png,,,,,,,,,,,,,,,,,,,,,,,,,,,,,stimuli/alien_stimuli/56.png,56,1,11,,,,,,,30,,,,,,,,1738.0076513000095,1738.0076513000095,1738.0076513000095,1738.0076513000095,1738.0076513000095,,,,,right,6.721049700005096,0,0,0,99,-0.08,0.24,right,6.6229905999935,1736.4208596000099,1732.8666711000114,0.24,0,0.0,0.32,0.0,0.24,0.07999999999999999,0.24,0,1732.8666711000114,1732.8666711000114,1732.8666711000114,1732.8666711000114,1732.8666711000114,1732.8666711000114,1732.8666711000114,1732.8666711000114,1732.8490715500084,3.674847900008899,return,3.524126999996952,,,,,,,,,,,,,,,,,,,,,,,,,,,,,,,,,Y2EEUW,train_x,red_square,top_left,2025-07-10_17h11.20.215,HideSeek_v1,2022.2.5,59.9732519266946,
,0,8,0,8,0,0,16,,train_dim1_1,10,30,,,,2,0,2,0,,,,,,,,,0,0,0,0,0,9,9,9,1,0,1,0,,,,,,,,,,,,,,,,,,,,,,,,,,,,,,,,,,,,,,,,,,,,,,,,,,,,,,,,,,,,,,,,30,,,,,,,,1744.7289589000138,1744.7289589000138,1744.7289589000138,1744.7289589000138,1744.7289589000138,-5,13,-0.08,0.24,return,1.610844700000598,0,1,0,0,-0.08,0.24,return,1.524801400009892,,,,,,,,,,,,,,,,,,,,,,,,,,,,,,,,,,,,,,,,,,,,,,,,,,,,,,,,Y2EEUW,train_x,red_square,top_left,2025-07-10_17h11.20.215,HideSeek_v1,2022.2.5,59.9732519266946,
,2,7,5,7,3,0,46,,train_dim1_1,11,30,,,,2,0,2,0,,,,,,,,,0,0,0,0,0,10,10,10,0,0,0,0,,,,,,,,,,,,,,,,,,,,,,,,,stimuli/alien_stimuli/46.png,,,,,,,,,,,,,,,,,,,,,,,,,,,,,stimuli/alien_stimuli/16.png,16,0,12,,,,,,,30,,,,,,,,1753.7132430000056,1753.7132430000056,1753.7132430000056,1753.7132430000056,1753.7132430000056,,,,,right,9.528470899997046,0,1,0,99,0.08,0.16,right,9.435044999991078,1752.1482584000041,1753.7132430000056,-0.16,0.24,0.0,0.0,0.24,-0.16,-0.16,-0.16,0.24,1747.9200502000022,1747.9200502000022,1747.9200502000022,1747.9200502000022,1747.9200502000022,1747.9200502000022,1747.9200502000022,1747.9200502000022,1747.9116340000037,4.3556563000020105,return,4.196716899998137,,,,,,,,,,,,,,,,,,,,,,,,,,,,,,,,,Y2EEUW,train_x,red_square,top_left,2025-07-10_17h11.20.215,HideSeek_v1,2022.2.5,59.9732519266946,
,2,7,5,7,3,0,46,,train_dim1_1,11,30,,,,2,0,2,0,,,,,,,,,0,0,0,0,0,10,10,10,1,0,1,0,,,,,,,,,,,,,,,,,,,,,,,,,,,,,,,,,,,,,,,,,,,,,,,,,,,,,,,,,,,,,,,,30,,,,,,,,1763.2415031000128,1763.2415031000128,1763.2415031000128,1763.2415031000128,1763.2415031000128,,,,,right,0.3743267000099877,0,1,0,99,0.16,0.16,right,0.29577749999589287,,,,,,,,,,,,,,,,,,,,,,,,,,,,,,,,,,,,,,,,,,,,,,,,,,,,,,,,Y2EEUW,train_x,red_square,top_left,2025-07-10_17h11.20.215,HideSeek_v1,2022.2.5,59.9732519266946,
,2,7,5,7,3,0,46,,train_dim1_1,11,30,,,,2,0,2,0,,,,,,,,,0,0,0,0,0,10,10,10,2,0,2,0,,,,,,,,,,,,,,,,,,,,,,,,,,,,,,,,,,,,,,,,,,,,,,,,,,,,,,,,,,,,,,,,30,,,,,,,,1763.6216381000122,1763.6216381000122,1763.6216381000122,1763.6216381000122,1763.6216381000122,,,,,right,0.3266747000016039,0,1,0,99,0.24,0.16,right,0.23930109999491833,,,,,,,,,,,,,,,,,,,,,,,,,,,,,,,,,,,,,,,,,,,,,,,,,,,,,,,,Y2EEUW,train_x,red_square,top_left,2025-07-10_17h11.20.215,HideSeek_v1,2022.2.5,59.9732519266946,
,2,7,5,7,3,0,46,,train_dim1_1,11,30,,,,2,0,2,0,,,,,,,,,0,0,0,0,0,10,10,10,3,0,3,0,,,,,,,,,,,,,,,,,,,,,,,,,,,,,,,,,,,,,,,,,,,,,,,,,,,,,,,,,,,,,,,,30,,,,,,,,1763.9626335000066,1763.9626335000066,1763.9626335000066,1763.9626335000066,1763.9626335000066,,,,,right,0.31052279999130405,0,1,0,99,0.32,0.16,right,0.2186602000001585,,,,,,,,,,,,,,,,,,,,,,,,,,,,,,,,,,,,,,,,,,,,,,,,,,,,,,,,Y2EEUW,train_x,red_square,top_left,2025-07-10_17h11.20.215,HideSeek_v1,2022.2.5,59.9732519266946,
,2,7,5,7,3,0,46,,train_dim1_1,11,30,,,,2,0,2,0,,,,,,,,,0,0,0,0,0,10,10,10,4,0,4,0,,,,,,,,,,,,,,,,,,,,,,,,,,,,,,,,,,,,,,,,,,,,,,,,,,,,,,,,,,,,,,,,30,,,,,,,,1764.2769512000086,1764.2769512000086,1764.2769512000086,1764.2769512000086,1764.2769512000086,,,,,right,0.3092994000035105,0,1,0,99,0.4,0.16,right,0.2298263999982737,,,,,,,,,,,,,,,,,,,,,,,,,,,,,,,,,,,,,,,,,,,,,,,,,,,,,,,,Y2EEUW,train_x,red_square,top_left,2025-07-10_17h11.20.215,HideSeek_v1,2022.2.5,59.9732519266946,
,2,7,5,7,3,0,46,,train_dim1_1,11,30,,,,2,0,2,0,,,,,,,,,0,0,0,0,0,10,10,10,5,0,5,0,,,,,,,,,,,,,,,,,,,,,,,,,,,,,,,,,,,,,,,,,,,,,,,,,,,,,,,,,,,,,,,,30,,,,,,,,1764.5896257000131,1764.5896257000131,1764.5896257000131,1764.5896257000131,1764.5896257000131,-5,18,0.4,0.16,return,0.610056399993482,0,0,0,0,0.4,0.16,return,0.5240864000079455,,,,,,,,,,,,,,,,,,,,,,,,,,,,,,,,,,,,,,,,,,,,,,,,,,,,,,,,Y2EEUW,train_x,red_square,top_left,2025-07-10_17h11.20.215,HideSeek_v1,2022.2.5,59.9732519266946,
,0,5,1,5,1,0,26,,train_dim1_1,12,30,,,,2,0,2,0,,,,,,,,,0,0,0,0,0,11,11,11,0,0,0,0,,,,,,,,,,,,,,,,,,,,,,,,,stimuli/alien_stimuli/26.png,,,,,,,,,,,,,,,,,,,,,,,,,,,,,stimuli/alien_stimuli/46.png,46,2,13,,,,,,,30,,,,,,,,1773.0508184000064,1773.0508184000064,1773.0508184000064,1773.0508184000064,1773.0508184000064,-5,18,-0.16,0,return,3.018294000008609,0,1,0,0,-0.16,0,return,2.925319200003287,1771.481228500008,1773.0508184000064,0.24,0.16,0.0,0.24,0.16,0.24,0.12,0.24,0.16,1766.7841479000053,1766.7841479000053,1766.7841479000053,1766.7841479000053,1766.7841479000053,1766.7841479000053,1766.7841479000053,1766.7841479000053,1766.7775327999989,4.822852500001318,return,4.680195900000399,,,,,,,,,,,,,,,,,,,,,,,,,,,,,,,,,Y2EEUW,train_x,red_square,top_left,2025-07-10_17h11.20.215,HideSeek_v1,2022.2.5,59.9732519266946,
,0,9,4,9,4,0,45,,train_dim1_1,13,30,,,,2,0,2,0,,,,,,,,,0,0,0,0,0,12,12,12,0,0,0,0,,,,,,,,,,,,,,,,,,,,,,,,,stimuli/alien_stimuli/45.png,,,,,,,,,,,,,,,,,,,,,,,,,,,,,stimuli/alien_stimuli/26.png,26,0,14,,,,,,,30,,,,,,,,1782.847521600008,1782.847521600008,1782.847521600008,1782.847521600008,1782.847521600008,,,,,right,2.9733723000099417,0,1,0,99,-0.08,0.32,right,2.8841165999911027,1781.2892276000057,1782.847521600008,-0.08,0,0.0,0.08,0.0,-0.08,-0.12,-0.08,0,1777.6474994000018,1777.6474994000018,1777.6474994000018,1777.6474994000018,1777.6474994000018,1777.6474994000018,1777.6474994000018,1777.6474994000018,1777.6363833000069,3.7717862999998033,return,3.612257100001443,,,,,,,,,,,,,,,,,,,,,,,,,,,,,,,,,Y2EEUW,train_x,red_square,top_left,2025-07-10_17h11.20.215,HideSeek_v1,2022.2.5,59.9732519266946,
,0,9,4,9,4,0,45,,train_dim1_1,13,30,,,,2,0,2,0,,,,,,,,,0,0,0,0,0,12,12,12,1,0,1,0,,,,,,,,,,,,,,,,,,,,,,,,,,,,,,,,,,,,,,,,,,,,,,,,,,,,,,,,,,,,,,,,30,,,,,,,,1785.82144900001,1785.82144900001,1785.82144900001,1785.82144900001,1785.82144900001,,,,,right,1.0933613999950467,0,1,0,99,0.0,0.32,right,1.007526899993536,,,,,,,,,,,,,,,,,,,,,,,,,,,,,,,,,,,,,,,,,,,,,,,,,,,,,,,,Y2EEUW,train_x,red_square,top_left,2025-07-10_17h11.20.215,HideSeek_v1,2022.2.5,59.9732519266946,
,0,9,4,9,4,0,45,,train_dim1_1,13,30,,,,2,0,2,0,,,,,,,,,0,0,0,0,0,12,12,12,2,0,2,0,,,,,,,,,,,,,,,,,,,,,,,,,,,,,,,,,,,,,,,,,,,,,,,,,,,,,,,,,,,,,,,,30,,,,,,,,1786.922219900007,1786.922219900007,1786.922219900007,1786.922219900007,1786.922219900007,,,,,right,1.1107835000002524,0,1,0,99,0.08,0.32,right,1.0372548000013921,,,,,,,,,,,,,,,,,,,,,,,,,,,,,,,,,,,,,,,,,,,,,,,,,,,,,,,,Y2EEUW,train_x,red_square,top_left,2025-07-10_17h11.20.215,HideSeek_v1,2022.2.5,59.9732519266946,
,0,9,4,9,4,0,45,,train_dim1_1,13,30,,,,2,0,2,0,,,,,,,,,0,0,0,0,0,12,12,12,3,0,3,0,,,,,,,,,,,,,,,,,,,,,,,,,,,,,,,,,,,,,,,,,,,,,,,,,,,,,,,,,,,,,,,,30,,,,,,,,1788.042007000011,1788.042007000011,1788.042007000011,1788.042007000011,1788.042007000011,-5,21,0.08,0.32,return,0.6255405999982031,0,1,0,0,0.08,0.32,return,0.5490027999912854,,,,,,,,,,,,,,,,,,,,,,,,,,,,,,,,,,,,,,,,,,,,,,,,,,,,,,,,Y2EEUW,train_x,red_square,top_left,2025-07-10_17h11.20.215,HideSeek_v1,2022.2.5,59.9732519266946,
,4,8,4,8,0,0,16,,train_dim1_1,14,30,,,,2,0,2,0,,,,,,,,,0,0,0,0,0,13,13,13,0,0,0,0,,,,,,,,,,,,,,,,,,,,,,,,,stimuli/alien_stimuli/16.png,,,,,,,,,,,,,,,,,,,,,,,,,,,,,stimuli/alien_stimuli/45.png,45,0,15,,,,,,,30,,,,,,,,1794.0814658000018,1794.0814658000018,1794.0814658000018,1794.0814658000018,1794.0814658000018,-5,21,0.16,0.24,return,2.304348999998183,1,0,0,1,0.16,0.24,return,2.1883835999906296,1792.4987222000054,1794.0814658000018,0.16,0.32,0.0,0.32,0.32,0.16,0.0,0.16,0.32,1790.2450220000028,1790.2450220000028,1790.2450220000028,1790.2450220000028,1790.2450220000028,1790.2450220000028,1790.2450220000028,1790.2450220000028,1790.230257150004,2.370906300013303,return,2.227241000000504,,,,,,,,,,,,,,,,,,,,,,,,,,,,,,,,,Y2EEUW,train_x,red_square,top_left,2025-07-10_17h11.20.215,HideSeek_v1,2022.2.5,59.9732519266946,
,4,7,9,7,5,0,66,,train_dim1_1,15,30,,,,2,0,2,0,,,,,,,,,0,0,0,0,0,14,14,14,0,0,0,0,,,,,,,,,,,,,,,,,,,,,,,,,stimuli/alien_stimuli/66.png,,,,,,,,,,,,,,,,,,,,,,,,,,,,,stimuli/alien_stimuli/16.png,16,4,16,,,,,,,30,,,,,,,,1806.3039929000079,1806.3039929000079,1806.3039929000079,1806.3039929000079,1806.3039929000079,,,,,right,3.789692799997283,1,0,0,99,0.24,0.16,right,3.7020925999968313,1804.7421421000035,1806.3039929000079,0.16,0.24,0.0,0.0,0.24,0.16,0.16,0.16,0.24,1797.932347400012,1797.932347400012,1797.932347400012,1797.932347400012,1797.932347400012,1797.932347400012,1797.932347400012,1797.932347400012,1797.9198097500048,6.924493099999381,return,6.786937600001693,,,,,,,,,,,,,,,,,,,,,,,,,,,,,,,,,Y2EEUW,train_x,red_square,top_left,2025-07-10_17h11.20.215,HideSeek_v1,2022.2.5,59.9732519266946,
,4,7,9,7,5,0,66,,train_dim1_1,15,30,,,,2,0,2,0,,,,,,,,,0,0,0,0,0,14,14,14,1,0,1,0,,,,,,,,,,,,,,,,,,,,,,,,,,,,,,,,,,,,,,,,,,,,,,,,,,,,,,,,,,,,,,,,30,,,,,,,,1810.093825200005,1810.093825200005,1810.093825200005,1810.093825200005,1810.093825200005,,,,,right,0.37644670000008773,1,0,0,99,0.32,0.16,right,0.28878699999768287,,,,,,,,,,,,,,,,,,,,,,,,,,,,,,,,,,,,,,,,,,,,,,,,,,,,,,,,Y2EEUW,train_x,red_square,top_left,2025-07-10_17h11.20.215,HideSeek_v1,2022.2.5,59.9732519266946,
,4,7,9,7,5,0,66,,train_dim1_1,15,30,,,,2,0,2,0,,,,,,,,,0,0,0,0,0,14,14,14,2,0,2,0,,,,,,,,,,,,,,,,,,,,,,,,,,,,,,,,,,,,,,,,,,,,,,,,,,,,,,,,,,,,,,,,30,,,,,,,,1810.478983500012,1810.478983500012,1810.478983500012,1810.478983500012,1810.478983500012,,,,,right,0.30898039999010507,1,0,0,99,0.4,0.16,right,0.22072120000666473,,,,,,,,,,,,,,,,,,,,,,,,,,,,,,,,,,,,,,,,,,,,,,,,,,,,,,,,Y2EEUW,train_x,red_square,top_left,2025-07-10_17h11.20.215,HideSeek_v1,2022.2.5,59.9732519266946,
,4,7,9,7,5,0,66,,train_dim1_1,15,30,,,,2,0,2,0,,,,,,,,,0,0,0,0,0,14,14,14,3,0,3,0,,,,,,,,,,,,,,,,,,,,,,,,,,,,,,,,,,,,,,,,,,,,,,,,,,,,,,,,,,,,,,,,30,,,,,,,,1810.7947753000044,1810.7947753000044,1810.7947753000044,1810.7947753000044,1810.7947753000044,,,,,right,0.3099476999923354,1,0,0,99,0.48000000000000004,0.16,right,0.22735719999764115,,,,,,,,,,,,,,,,,,,,,,,,,,,,,,,,,,,,,,,,,,,,,,,,,,,,,,,,Y2EEUW,train_x,red_square,top_left,2025-07-10_17h11.20.215,HideSeek_v1,2022.2.5,59.9732519266946,
,4,7,9,7,5,0,66,,train_dim1_1,15,30,,,,2,0,2,0,,,,,,,,,0,0,0,0,0,14,14,14,4,0,4,0,,,,,,,,,,,,,,,,,,,,,,,,,,,,,,,,,,,,,,,,,,,,,,,,,,,,,,,,,,,,,,,,30,,,,,,,,1811.1107126999996,1811.1107126999996,1811.1107126999996,1811.1107126999996,1811.1107126999996,,,,,right,1.2773737000097753,1,0,0,99,0.56,0.16,right,1.1996220000000903,,,,,,,,,,,,,,,,,,,,,,,,,,,,,,,,,,,,,,,,,,,,,,,,,,,,,,,,Y2EEUW,train_x,red_square,top_left,2025-07-10_17h11.20.215,HideSeek_v1,2022.2.5,59.9732519266946,
,4,7,9,7,5,0,66,,train_dim1_1,15,30,,,,2,0,2,0,,,,,,,,,0,0,0,0,0,14,14,14,5,0,5,0,,,,,,,,,,,,,,,,,,,,,,,,,,,,,,,,,,,,,,,,,,,,,,,,,,,,,,,,,,,,,,,,30,,,,,,,,1812.395694100007,1812.395694100007,1812.395694100007,1812.395694100007,1812.395694100007,-5,26,0.56,0.16,return,0.6096255000011297,2,0,0,1,0.56,0.16,return,0.5286017000034917,,,,,,,,,,,,,,,,,,,,,,,,,,,,,,,,,,,,,,,,,,,,,,,,,,,,,,,,Y2EEUW,train_x,red_square,top_left,2025-07-10_17h11.20.215,HideSeek_v1,2022.2.5,59.9732519266946,
,3,8,7,8,4,0,56,,train_dim1_1,16,30,,,,2,0,2,0,,,,,,,,,0,0,0,0,0,15,15,15,0,0,0,0,,,,,,,,,,,,,,,,,,,,,,,,,stimuli/alien_stimuli/56.png,,,,,,,,,,,,,,,,,,,,,,,,,,,,,stimuli/alien_stimuli/66.png,66,4,17,,,,,,,30,,,,,,,,1819.5519106000138,1819.5519106000138,1819.5519106000138,1819.5519106000138,1819.5519106000138,,,,,right,3.4215328999998746,2,0,0,99,0.16,0.24,right,3.3344158999971114,1817.9866586000135,1819.5519106000138,0.56,0.16,0.0,0.4,0.16,0.56,0.36000000000000004,0.56,0.16,1814.5870324999996,1814.5870324999996,1814.5870324999996,1814.5870324999996,1814.5870324999996,1814.5870324999996,1814.5870324999996,1814.5870324999996,1814.5670576500124,3.5220830000034766,return,3.3787675999919884,,,,,,,,,,,,,,,,,,,,,,,,,,,,,,,,,Y2EEUW,train_x,red_square,top_left,2025-07-10_17h11.20.215,HideSeek_v1,2022.2.5,59.9732519266946,
,3,8,7,8,4,0,56,,train_dim1_1,16,30,,,,2,0,2,0,,,,,,,,,0,0,0,0,0,15,15,15,1,0,1,0,,,,,,,,,,,,,,,,,,,,,,,,,,,,,,,,,,,,,,,,,,,,,,,,,,,,,,,,,,,,,,,,30,,,,,,,,1822.9727969000087,1822.9727969000087,1822.9727969000087,1822.9727969000087,1822.9727969000087,,,,,right,0.6431292999914149,2,0,0,99,0.24,0.24,right,0.5530572999996366,,,,,,,,,,,,,,,,,,,,,,,,,,,,,,,,,,,,,,,,,,,,,,,,,,,,,,,,Y2EEUW,train_x,red_square,top_left,2025-07-10_17h11.20.215,HideSeek_v1,2022.2.5,59.9732519266946,
,3,8,7,8,4,0,56,,train_dim1_1,16,30,,,,2,0,2,0,,,,,,,,,0,0,0,0,0,15,15,15,2,0,2,0,,,,,,,,,,,,,,,,,,,,,,,,,,,,,,,,,,,,,,,,,,,,,,,,,,,,,,,,,,,,,,,,30,,,,,,,,1823.6239182000136,1823.6239182000136,1823.6239182000136,1823.6239182000136,1823.6239182000136,,,,,right,0.9102781999972649,2,0,0,99,0.32,0.24,right,0.8295634999958565,,,,,,,,,,,,,,,,,,,,,,,,,,,,,,,,,,,,,,,,,,,,,,,,,,,,,,,,Y2EEUW,train_x,red_square,top_left,2025-07-10_17h11.20.215,HideSeek_v1,2022.2.5,59.9732519266946,
,3,8,7,8,4,0,56,,train_dim1_1,16,30,,,,2,0,2,0,,,,,,,,,0,0,0,0,0,15,15,15,3,0,3,0,,,,,,,,,,,,,,,,,,,,,,,,,,,,,,,,,,,,,,,,,,,,,,,,,,,,,,,,,,,,,,,,30,,,,,,,,1824.5411788000056,1824.5411788000056,1824.5411788000056,1824.5411788000056,1824.5411788000056,-5,29,0.32,0.24,return,0.5101376999955392,2,1,0,0,0.32,0.24,return,0.4296440999896731,,,,,,,,,,,,,,,,,,,,,,,,,,,,,,,,,,,,,,,,,,,,,,,,,,,,,,,,Y2EEUW,train_x,red_square,top_left,2025-07-10_17h11.20.215,HideSeek_v1,2022.2.5,59.9732519266946,
,2,9,3,9,1,0,26,,train_dim1_1,17,30,,,,2,0,2,0,,,,,,,,,0,0,0,0,0,16,16,16,0,0,0,0,,,,,,,,,,,,,,,,,,,,,,,,,stimuli/alien_stimuli/26.png,,,,,,,,,,,,,,,,,,,,,,,,,,,,,stimuli/alien_stimuli/56.png,56,3,18,,,,,,,30,,,,,,,,1830.4134610000037,1830.4134610000037,1830.4134610000037,1830.4134610000037,1830.4134610000037,-5,29,0,0.32,return,2.4574652000010246,2,1,0,0,0,0.32,return,2.3518809999950463,1828.8288716000097,1830.4134610000037,0.4,0.24,0.0,0.32,0.24,0.4,0.24000000000000002,0.4,0.24,1826.6315593000036,1826.6315593000036,1826.6315593000036,1826.6315593000036,1826.6315593000036,1826.6315593000036,1826.6315593000036,1826.6315593000036,1826.6104962500103,2.320324000000255,return,2.1743220999924233,,,,,,,,,,,,,,,,,,,,,,,,,,,,,,,,,Y2EEUW,train_x,red_square,top_left,2025-07-10_17h11.20.215,HideSeek_v1,2022.2.5,59.9732519266946,
,2,6,7,6,5,0,66,,train_dim1_1,18,30,,,,2,0,2,0,,,,,,,,,0,0,0,0,0,17,17,17,0,0,0,0,,,,,,,,,,,,,,,,,,,,,,,,,stimuli/alien_stimuli/66.png,,,,,,,,,,,,,,,,,,,,,,,,,,,,,stimuli/alien_stimuli/26.png,26,2,19,,,,,,,30,,,,,,,,1838.5640300000086,1838.5640300000086,1838.5640300000086,1838.5640300000086,1838.5640300000086,,,,,right,1.8050861999945482,2,1,0,99,0.08,0.08,right,1.700911099993391,1836.9855940000125,1838.5640300000086,0.08,0.32,0.0,0.08,0.32,0.08,0.04,0.08,0.32,1834.4107027000136,1834.4107027000136,1834.4107027000136,1834.4107027000136,1834.4107027000136,1834.4107027000136,1834.4107027000136,1834.4107027000136,1834.400405450011,2.687399699992966,return,2.548179600009462,,,,,,,,,,,,,,,,,,,,,,,,,,,,,,,,,Y2EEUW,train_x,red_square,top_left,2025-07-10_17h11.20.215,HideSeek_v1,2022.2.5,59.9732519266946,
,2,6,7,6,5,0,66,,train_dim1_1,18,30,,,,2,0,2,0,,,,,,,,,0,0,0,0,0,17,17,17,1,0,1,0,,,,,,,,,,,,,,,,,,,,,,,,,,,,,,,,,,,,,,,,,,,,,,,,,,,,,,,,,,,,,,,,30,,,,,,,,1840.3529284000106,1840.3529284000106,1840.3529284000106,1840.3529284000106,1840.3529284000106,,,,,right,0.3594382000010228,2,1,0,99,0.16,0.08,right,0.28164899999683257,,,,,,,,,,,,,,,,,,,,,,,,,,,,,,,,,,,,,,,,,,,,,,,,,,,,,,,,Y2EEUW,train_x,red_square,top_left,2025-07-10_17h11.20.215,HideSeek_v1,2022.2.5,59.9732519266946,
,2,6,7,6,5,0,66,,train_dim1_1,18,30,,,,2,0,2,0,,,,,,,,,0,0,0,0,0,17,17,17,2,0,2,0,,,,,,,,,,,,,,,,,,,,,,,,,,,,,,,,,,,,,,,,,,,,,,,,,,,,,,,,,,,,,,,,30,,,,,,,,1840.7198566000006,1840.7198566000006,1840.7198566000006,1840.7198566000006,1840.7198566000006,,,,,right,0.32660040000337176,2,1,0,99,0.24,0.08,right,0.251388799995766,,,,,,,,,,,,,,,,,,,,,,,,,,,,,,,,,,,,,,,,,,,,,,,,,,,,,,,,Y2EEUW,train_x,red_square,top_left,2025-07-10_17h11.20.215,HideSeek_v1,2022.2.5,59.9732519266946,
,2,6,7,6,5,0,66,,train_dim1_1,18,30,,,,2,0,2,0,,,,,,,,,0,0,0,0,0,17,17,17,3,0,3,0,,,,,,,,,,,,,,,,,,,,,,,,,,,,,,,,,,,,,,,,,,,,,,,,,,,,,,,,,,,,,,,,30,,,,,,,,1841.053465600009,1841.053465600009,1841.053465600009,1841.053465600009,1841.053465600009,,,,,right,0.39359110000077635,2,1,0,99,0.32,0.08,right,0.30890509999881033,,,,,,,,,,,,,,,,,,,,,,,,,,,,,,,,,,,,,,,,,,,,,,,,,,,,,,,,Y2EEUW,train_x,red_square,top_left,2025-07-10_17h11.20.215,HideSeek_v1,2022.2.5,59.9732519266946,
,2,6,7,6,5,0,66,,train_dim1_1,18,30,,,,2,0,2,0,,,,,,,,,0,0,0,0,0,17,17,17,4,0,4,0,,,,,,,,,,,,,,,,,,,,,,,,,,,,,,,,,,,,,,,,,,,,,,,,,,,,,,,,,,,,,,,,30,,,,,,,,1841.452160700006,1841.452160700006,1841.452160700006,1841.452160700006,1841.452160700006,,,,,right,0.5437676000001375,2,1,0,99,0.4,0.08,right,0.4665363999956753,,,,,,,,,,,,,,,,,,,,,,,,,,,,,,,,,,,,,,,,,,,,,,,,,,,,,,,,Y2EEUW,train_x,red_square,top_left,2025-07-10_17h11.20.215,HideSeek_v1,2022.2.5,59.9732519266946,
,2,6,7,6,5,0,66,,train_dim1_1,18,30,,,,2,0,2,0,,,,,,,,,0,0,0,0,0,17,17,17,5,0,5,0,,,,,,,,,,,,,,,,,,,,,,,,,,,,,,,,,,,,,,,,,,,,,,,,,,,,,,,,,,,,,,,,30,,,,,,,,1842.0042390000017,1842.0042390000017,1842.0042390000017,1842.0042390000017,1842.0042390000017,-5,34,0.4,0.08,return,0.5432233000028646,3,0,0,1,0.4,0.08,return,0.4544973000010941,,,,,,,,,,,,,,,,,,,,,,,,,,,,,,,,,,,,,,,,,,,,,,,,,,,,,,,,Y2EEUW,train_x,red_square,top_left,2025-07-10_17h11.20.215,HideSeek_v1,2022.2.5,59.9732519266946,
,0,8,3,8,3,0,46,,train_dim1_1,19,30,,,,2,0,2,0,,,,,,,,,0,0,0,0,0,18,18,18,0,0,0,0,,,,,,,,,,,,,,,,,,,,,,,,,stimuli/alien_stimuli/46.png,,,,,,,,,,,,,,,,,,,,,,,,,,,,,stimuli/alien_stimuli/66.png,66,2,20,,,,,,,30,,,,,,,,1851.5340515999997,1851.5340515999997,1851.5340515999997,1851.5340515999997,1851.5340515999997,,,,,right,5.431935100001283,3,0,0,99,-0.08,0.24,right,5.351494899994577,1849.9631765000086,1851.5340515999997,0.4,0.08,0.0,0.4,0.08,0.4,0.2,0.4,0.08,1844.1159440000047,1844.1159440000047,1844.1159440000047,1844.1159440000047,1844.1159440000047,1844.1159440000047,1844.1159440000047,1844.1159440000047,1844.1083457500063,5.956972400002996,return,5.822112599998945,,,,,,,,,,,,,,,,,,,,,,,,,,,,,,,,,Y2EEUW,train_x,red_square,top_left,2025-07-10_17h11.20.215,HideSeek_v1,2022.2.5,59.9732519266946,
,0,8,3,8,3,0,46,,train_dim1_1,19,30,,,,2,0,2,0,,,,,,,,,0,0,0,0,0,18,18,18,1,0,1,0,,,,,,,,,,,,,,,,,,,,,,,,,,,,,,,,,,,,,,,,,,,,,,,,,,,,,,,,,,,,,,,,30,,,,,,,,1856.9692513000045,1856.9692513000045,1856.9692513000045,1856.9692513000045,1856.9692513000045,,,,,right,0.40715820000332315,3,0,0,99,0.0,0.24,right,0.3287314999906812,,,,,,,,,,,,,,,,,,,,,,,,,,,,,,,,,,,,,,,,,,,,,,,,,,,,,,,,Y2EEUW,train_x,red_square,top_left,2025-07-10_17h11.20.215,HideSeek_v1,2022.2.5,59.9732519266946,
,0,8,3,8,3,0,46,,train_dim1_1,19,30,,,,2,0,2,0,,,,,,,,,0,0,0,0,0,18,18,18,2,0,2,0,,,,,,,,,,,,,,,,,,,,,,,,,,,,,,,,,,,,,,,,,,,,,,,,,,,,,,,,,,,,,,,,30,,,,,,,,1857.3862100000115,1857.3862100000115,1857.3862100000115,1857.3862100000115,1857.3862100000115,-5,36,0.0,0.24,return,0.607614199994714,3,1,0,0,0.0,0.24,return,0.5215861999895424,,,,,,,,,,,,,,,,,,,,,,,,,,,,,,,,,,,,,,,,,,,,,,,,,,,,,,,,Y2EEUW,train_x,red_square,top_left,2025-07-10_17h11.20.215,HideSeek_v1,2022.2.5,59.9732519266946,
,0,6,0,6,0,0,16,,train_dim1_1,20,30,,,,2,0,2,0,,,,,,,,,0,0,0,0,0,19,19,19,0,0,0,0,,,,,,,,,,,,,,,,,,,,,,,,,stimuli/alien_stimuli/16.png,,,,,,,,,,,,,,,,,,,,,,,,,,,,,stimuli/alien_stimuli/46.png,46,0,21,,,,,,,30,,,,,,,,1863.1226185000123,1863.1226185000123,1863.1226185000123,1863.1226185000123,1863.1226185000123,-5,36,-0.16,0.08,return,3.3882397999987006,4,0,0,1,-0.16,0.08,return,3.2753582000004826,1861.5393179000093,1863.1226185000123,0.08,0.24,0.0,0.24,0.24,0.08,-0.04,0.08,0.24,1859.561096800011,1859.561096800011,1859.561096800011,1859.561096800011,1859.561096800011,1859.561096800011,1859.561096800011,1859.561096800011,1859.55455565,2.086961799999699,return,1.958668299994315,,,,,,,,,,,,,,,,,,,,,,,,,,,,,,,,,Y2EEUW,train_x,red_square,top_left,2025-07-10_17h11.20.215,HideSeek_v1,2022.2.5,59.9732519266946,
,4,7,7,7,3,0,46,,train_dim1_1,21,30,,,,2,0,2,0,,,,,,,,,0,0,0,0,0,20,20,20,0,0,0,0,,,,,,,,,,,,,,,,,,,,,,,,,stimuli/alien_stimuli/46.png,,,,,,,,,,,,,,,,,,,,,,,,,,,,,stimuli/alien_stimuli/16.png,16,0,22,,,,,,,30,,,,,,,,1872.3437693000014,1872.3437693000014,1872.3437693000014,1872.3437693000014,1872.3437693000014,,,,,right,3.1378934000094887,4,0,0,99,0.24,0.16,right,3.0536651000002166,1870.780603200008,1872.3437693000014,-0.16,0.08,0.0,0.0,0.08,-0.16,-0.16,-0.16,0.08,1868.0554349000013,1868.0554349000013,1868.0554349000013,1868.0554349000013,1868.0554349000013,1868.0554349000013,1868.0554349000013,1868.0554349000013,1868.0450395500084,2.8377703000005567,return,2.7035807999927783,,,,,,,,,,,,,,,,,,,,,,,,,,,,,,,,,Y2EEUW,train_x,red_square,top_left,2025-07-10_17h11.20.215,HideSeek_v1,2022.2.5,59.9732519266946,
,4,7,7,7,3,0,46,,train_dim1_1,21,30,,,,2,0,2,0,,,,,,,,,0,0,0,0,0,20,20,20,1,0,1,0,,,,,,,,,,,,,,,,,,,,,,,,,,,,,,,,,,,,,,,,,,,,,,,,,,,,,,,,,,,,,,,,30,,,,,,,,1875.4826011000114,1875.4826011000114,1875.4826011000114,1875.4826011000114,1875.4826011000114,,,,,right,0.6251920000067912,4,0,0,99,0.32,0.16,right,0.5523711999994703,,,,,,,,,,,,,,,,,,,,,,,,,,,,,,,,,,,,,,,,,,,,,,,,,,,,,,,,Y2EEUW,train_x,red_square,top_left,2025-07-10_17h11.20.215,HideSeek_v1,2022.2.5,59.9732519266946,
,4,7,7,7,3,0,46,,train_dim1_1,21,30,,,,2,0,2,0,,,,,,,,,0,0,0,0,0,20,20,20,2,0,2,0,,,,,,,,,,,,,,,,,,,,,,,,,,,,,,,,,,,,,,,,,,,,,,,,,,,,,,,,,,,,,,,,30,,,,,,,,1876.1147056000045,1876.1147056000045,1876.1147056000045,1876.1147056000045,1876.1147056000045,-5,38,0.32,0.16,return,0.5602413000015076,4,1,0,0,0.32,0.16,return,0.48677640000823885,,,,,,,,,,,,,,,,,,,,,,,,,,,,,,,,,,,,,,,,,,,,,,,,,,,,,,,,Y2EEUW,train_x,red_square,top_left,2025-07-10_17h11.20.215,HideSeek_v1,2022.2.5,59.9732519266946,
,1,5,2,5,1,0,26,,train_dim1_1,22,30,,,,2,0,2,0,,,,,,,,,0,0,0,0,0,21,21,21,0,0,0,0,,,,,,,,,,,,,,,,,,,,,,,,,stimuli/alien_stimuli/26.png,,,,,,,,,,,,,,,,,,,,,,,,,,,,,stimuli/alien_stimuli/46.png,46,4,23,,,,,,,30,,,,,,,,1882.2559968000132,1882.2559968000132,1882.2559968000132,1882.2559968000132,1882.2559968000132,,,,,right,2.7415038000035565,4,1,0,99,0.0,0,right,2.6219348999875365,1880.6720155000075,1882.2559968000132,0.4,0.16,0.0,0.24,0.16,0.4,0.28,0.4,0.16,1878.2397068999999,1878.2397068999999,1878.2397068999999,1878.2397068999999,1878.2397068999999,1878.2397068999999,1878.2397068999999,1878.2397068999999,1878.2200313000067,2.5374477000004845,return,2.4001967999938643,,,,,,,,,,,,,,,,,,,,,,,,,,,,,,,,,Y2EEUW,train_x,red_square,top_left,2025-07-10_17h11.20.215,HideSeek_v1,2022.2.5,59.9732519266946,
,1,5,2,5,1,0,26,,train_dim1_1,22,30,,,,2,0,2,0,,,,,,,,,0,0,0,0,0,21,21,21,1,0,1,0,,,,,,,,,,,,,,,,,,,,,,,,,,,,,,,,,,,,,,,,,,,,,,,,,,,,,,,,,,,,,,,,30,,,,,,,,1884.9774809000082,1884.9774809000082,1884.9774809000082,1884.9774809000082,1884.9774809000082,-5,39,0.0,0,return,0.5598895000002813,5,0,0,1,0.0,0,return,0.47231560001091566,,,,,,,,,,,,,,,,,,,,,,,,,,,,,,,,,,,,,,,,,,,,,,,,,,,,,,,,Y2EEUW,train_x,red_square,top_left,2025-07-10_17h11.20.215,HideSeek_v1,2022.2.5,59.9732519266946,
,2,6,7,6,5,0,66,,train_dim1_1,23,30,,,,2,0,2,0,,,,,,,,,0,0,0,0,0,22,22,22,0,0,0,0,,,,,,,,,,,,,,,,,,,,,,,,,stimuli/alien_stimuli/66.png,,,,,,,,,,,,,,,,,,,,,,,,,,,,,stimuli/alien_stimuli/26.png,26,1,24,,,,,,,30,,,,,,,,1892.5783640000009,1892.5783640000009,1892.5783640000009,1892.5783640000009,1892.5783640000009,,,,,right,2.1687070000043605,5,0,0,99,0.08,0.08,right,2.078245500000776,1891.0139745000051,1892.5783640000009,0,0,0.0,0.08,0.0,0,-0.04,0,0,1887.1037396000029,1887.1037396000029,1887.1037396000029,1887.1037396000029,1887.1037396000029,1887.1037396000029,1887.1037396000029,1887.1037396000029,1887.0941872500116,4.021602100008749,return,3.8898312999954214,,,,,,,,,,,,,,,,,,,,,,,,,,,,,,,,,Y2EEUW,train_x,red_square,top_left,2025-07-10_17h11.20.215,HideSeek_v1,2022.2.5,59.9732519266946,
,2,6,7,6,5,0,66,,train_dim1_1,23,30,,,,2,0,2,0,,,,,,,,,0,0,0,0,0,22,22,22,1,0,1,0,,,,,,,,,,,,,,,,,,,,,,,,,,,,,,,,,,,,,,,,,,,,,,,,,,,,,,,,,,,,,,,,30,,,,,,,,1894.7481058000121,1894.7481058000121,1894.7481058000121,1894.7481058000121,1894.7481058000121,,,,,right,0.34287349999067374,5,0,0,99,0.16,0.08,right,0.26635649999661837,,,,,,,,,,,,,,,,,,,,,,,,,,,,,,,,,,,,,,,,,,,,,,,,,,,,,,,,Y2EEUW,train_x,red_square,top_left,2025-07-10_17h11.20.215,HideSeek_v1,2022.2.5,59.9732519266946,
,2,6,7,6,5,0,66,,train_dim1_1,23,30,,,,2,0,2,0,,,,,,,,,0,0,0,0,0,22,22,22,2,0,2,0,,,,,,,,,,,,,,,,,,,,,,,,,,,,,,,,,,,,,,,,,,,,,,,,,,,,,,,,,,,,,,,,30,,,,,,,,1895.0983456000104,1895.0983456000104,1895.0983456000104,1895.0983456000104,1895.0983456000104,,,,,right,0.31014780000259634,5,0,0,99,0.24,0.08,right,0.22529349999967963,,,,,,,,,,,,,,,,,,,,,,,,,,,,,,,,,,,,,,,,,,,,,,,,,,,,,,,,Y2EEUW,train_x,red_square,top_left,2025-07-10_17h11.20.215,HideSeek_v1,2022.2.5,59.9732519266946,
,2,6,7,6,5,0,66,,train_dim1_1,23,30,,,,2,0,2,0,,,,,,,,,0,0,0,0,0,22,22,22,3,0,3,0,,,,,,,,,,,,,,,,,,,,,,,,,,,,,,,,,,,,,,,,,,,,,,,,,,,,,,,,,,,,,,,,30,,,,,,,,1895.4147489000025,1895.4147489000025,1895.4147489000025,1895.4147489000025,1895.4147489000025,,,,,right,0.3767809999990277,5,0,0,99,0.32,0.08,right,0.287428199997521,,,,,,,,,,,,,,,,,,,,,,,,,,,,,,,,,,,,,,,,,,,,,,,,,,,,,,,,Y2EEUW,train_x,red_square,top_left,2025-07-10_17h11.20.215,HideSeek_v1,2022.2.5,59.9732519266946,
,2,6,7,6,5,0,66,,train_dim1_1,23,30,,,,2,0,2,0,,,,,,,,,0,0,0,0,0,22,22,22,4,0,4,0,,,,,,,,,,,,,,,,,,,,,,,,,,,,,,,,,,,,,,,,,,,,,,,,,,,,,,,,,,,,,,,,30,,,,,,,,1895.7983708000102,1895.7983708000102,1895.7983708000102,1895.7983708000102,1895.7983708000102,-5,43,0.32,0.08,return,1.0103668999945512,5,1,0,0,0.32,0.08,return,0.9323468999937177,,,,,,,,,,,,,,,,,,,,,,,,,,,,,,,,,,,,,,,,,,,,,,,,,,,,,,,,Y2EEUW,train_x,red_square,top_left,2025-07-10_17h11.20.215,HideSeek_v1,2022.2.5,59.9732519266946,
,4,9,8,9,4,0,56,,train_dim1_1,24,30,,,,2,0,2,0,,,,,,,,,0,0,0,0,0,23,23,23,0,0,0,0,,,,,,,,,,,,,,,,,,,,,,,,,stimuli/alien_stimuli/56.png,,,,,,,,,,,,,,,,,,,,,,,,,,,,,stimuli/alien_stimuli/66.png,66,2,25,,,,,,,30,,,,,,,,1902.4544249000028,1902.4544249000028,1902.4544249000028,1902.4544249000028,1902.4544249000028,,,,,down,3.2377090999943903,5,1,0,99,0.16,0.24,down,3.1348816999961855,1900.8721378000046,1902.4544249000028,0.4,0.08,0.0,0.4,0.08,0.4,0.2,0.4,0.08,1898.3912513000105,1898.3912513000105,1898.3912513000105,1898.3912513000105,1898.3912513000105,1898.3912513000105,1898.3912513000105,1898.3912513000105,1898.3702524500113,2.603849600011017,return,2.457855800006655,,,,,,,,,,,,,,,,,,,,,,,,,,,,,,,,,Y2EEUW,train_x,red_square,top_left,2025-07-10_17h11.20.215,HideSeek_v1,2022.2.5,59.9732519266946,
,4,9,8,9,4,0,56,,train_dim1_1,24,30,,,,2,0,2,0,,,,,,,,,0,0,0,0,0,23,23,23,1,0,1,0,,,,,,,,,,,,,,,,,,,,,,,,,,,,,,,,,,,,,,,,,,,,,,,,,,,,,,,,,,,,,,,,30,,,,,,,,1905.674996700007,1905.674996700007,1905.674996700007,1905.674996700007,1905.674996700007,,,,,down,0.5267214000050444,5,1,0,99,0.16,0.15999999999999998,down,0.44870009999431204,,,,,,,,,,,,,,,,,,,,,,,,,,,,,,,,,,,,,,,,,,,,,,,,,,,,,,,,Y2EEUW,train_x,red_square,top_left,2025-07-10_17h11.20.215,HideSeek_v1,2022.2.5,59.9732519266946,
,4,9,8,9,4,0,56,,train_dim1_1,24,30,,,,2,0,2,0,,,,,,,,,0,0,0,0,0,23,23,23,2,0,2,0,,,,,,,,,,,,,,,,,,,,,,,,,,,,,,,,,,,,,,,,,,,,,,,,,,,,,,,,,,,,,,,,30,,,,,,,,1906.2094613000081,1906.2094613000081,1906.2094613000081,1906.2094613000081,1906.2094613000081,-7,43,0.16,0.15999999999999998,return,0.5430272999947192,5,0,0,0,0.16,0.15999999999999998,return,0.46705009999277536,,,,,,,,,,,,,,,,,,,,,,,,,,,,,,,,,,,,,,,,,,,,,,,,,,,,,,,,Y2EEUW,train_x,red_square,top_left,2025-07-10_17h11.20.215,HideSeek_v1,2022.2.5,59.9732519266946,
,3,5,3,5,0,0,16,,train_dim1_1,25,30,,,,2,0,2,0,,,,,,,,,0,0,0,0,0,24,24,24,0,0,0,0,,,,,,,,,,,,,,,,,,,,,,,,,stimuli/alien_stimuli/16.png,,,,,,,,,,,,,,,,,,,,,,,,,,,,,stimuli/alien_stimuli/56.png,56,4,26,,,,,,,30,,,,,,,,1912.448463000008,1912.448463000008,1912.448463000008,1912.448463000008,1912.448463000008,-7,43,0.08,0,return,2.1891825000056997,6,0,0,1,0.08,0,return,2.081420899994555,1910.8638324000058,1912.448463000008,0.48,0.32,0.0,0.32,0.32,0.48,0.32,0.48,0.32,1908.322184900011,1908.322184900011,1908.322184900011,1908.322184900011,1908.322184900011,1908.322184900011,1908.322184900011,1908.322184900011,1908.311883250004,2.654020699992543,return,2.5111914000008255,,,,,,,,,,,,,,,,,,,,,,,,,,,,,,,,,Y2EEUW,train_x,red_square,top_left,2025-07-10_17h11.20.215,HideSeek_v1,2022.2.5,59.9732519266946,
,1,6,6,6,5,0,66,,train_dim1_1,26,30,,,,2,0,2,0,,,,,,,,,0,0,0,0,0,25,25,25,0,0,0,0,,,,,,,,,,,,,,,,,,,,,,,,,stimuli/alien_stimuli/66.png,,,,,,,,,,,,,,,,,,,,,,,,,,,,,stimuli/alien_stimuli/16.png,16,3,27,,,,,,,30,,,,,,,,1919.9308867000072,1919.9308867000072,1919.9308867000072,1919.9308867000072,1919.9308867000072,,,,,right,1.3557651000010082,6,0,0,99,0.0,0.08,right,1.2593442000070354,1918.3699063000095,1919.9308867000072,0.08,0,0.0,0.0,0.0,0.08,0.08,0.08,0,1916.1816471000056,1916.1816471000056,1916.1816471000056,1916.1816471000056,1916.1816471000056,1916.1816471000056,1916.1816471000056,1916.1816471000056,1916.1684030500037,2.3038396000047214,return,2.1611441999848466,,,,,,,,,,,,,,,,,,,,,,,,,,,,,,,,,Y2EEUW,train_x,red_square,top_left,2025-07-10_17h11.20.215,HideSeek_v1,2022.2.5,59.9732519266946,
,1,6,6,6,5,0,66,,train_dim1_1,26,30,,,,2,0,2,0,,,,,,,,,0,0,0,0,0,25,25,25,1,0,1,0,,,,,,,,,,,,,,,,,,,,,,,,,,,,,,,,,,,,,,,,,,,,,,,,,,,,,,,,,,,,,,,,30,,,,,,,,1921.2860547000018,1921.2860547000018,1921.2860547000018,1921.2860547000018,1921.2860547000018,,,,,right,0.37605780000740197,6,0,0,99,0.08,0.08,right,0.3008801999967545,,,,,,,,,,,,,,,,,,,,,,,,,,,,,,,,,,,,,,,,,,,,,,,,,,,,,,,,Y2EEUW,train_x,red_square,top_left,2025-07-10_17h11.20.215,HideSeek_v1,2022.2.5,59.9732519266946,
,1,6,6,6,5,0,66,,train_dim1_1,26,30,,,,2,0,2,0,,,,,,,,,0,0,0,0,0,25,25,25,2,0,2,0,,,,,,,,,,,,,,,,,,,,,,,,,,,,,,,,,,,,,,,,,,,,,,,,,,,,,,,,,,,,,,,,30,,,,,,,,1921.6705975000077,1921.6705975000077,1921.6705975000077,1921.6705975000077,1921.6705975000077,,,,,right,0.3268829000007827,6,0,0,99,0.16,0.08,right,0.2444243999925675,,,,,,,,,,,,,,,,,,,,,,,,,,,,,,,,,,,,,,,,,,,,,,,,,,,,,,,,Y2EEUW,train_x,red_square,top_left,2025-07-10_17h11.20.215,HideSeek_v1,2022.2.5,59.9732519266946,
,1,6,6,6,5,0,66,,train_dim1_1,26,30,,,,2,0,2,0,,,,,,,,,0,0,0,0,0,25,25,25,3,0,3,0,,,,,,,,,,,,,,,,,,,,,,,,,,,,,,,,,,,,,,,,,,,,,,,,,,,,,,,,,,,,,,,,30,,,,,,,,1922.0064510000084,1922.0064510000084,1922.0064510000084,1922.0064510000084,1922.0064510000084,,,,,right,0.3431702999951085,6,0,0,99,0.24,0.08,right,0.25832369999261573,,,,,,,,,,,,,,,,,,,,,,,,,,,,,,,,,,,,,,,,,,,,,,,,,,,,,,,,Y2EEUW,train_x,red_square,top_left,2025-07-10_17h11.20.215,HideSeek_v1,2022.2.5,59.9732519266946,
,1,6,6,6,5,0,66,,train_dim1_1,26,30,,,,2,0,2,0,,,,,,,,,0,0,0,0,0,25,25,25,4,0,4,0,,,,,,,,,,,,,,,,,,,,,,,,,,,,,,,,,,,,,,,,,,,,,,,,,,,,,,,,,,,,,,,,30,,,,,,,,1922.3533140000072,1922.3533140000072,1922.3533140000072,1922.3533140000072,1922.3533140000072,,,,,right,0.5269706999970367,6,0,0,99,0.32,0.08,right,0.4537084000039613,,,,,,,,,,,,,,,,,,,,,,,,,,,,,,,,,,,,,,,,,,,,,,,,,,,,,,,,Y2EEUW,train_x,red_square,top_left,2025-07-10_17h11.20.215,HideSeek_v1,2022.2.5,59.9732519266946,
,1,6,6,6,5,0,66,,train_dim1_1,26,30,,,,2,0,2,0,,,,,,,,,0,0,0,0,0,25,25,25,5,0,5,0,,,,,,,,,,,,,,,,,,,,,,,,,,,,,,,,,,,,,,,,,,,,,,,,,,,,,,,,,,,,,,,,30,,,,,,,,1922.8879240000097,1922.8879240000097,1922.8879240000097,1922.8879240000097,1922.8879240000097,-7,48,0.32,0.08,return,0.5101960000029067,7,0,0,1,0.32,0.08,return,0.4378283999976702,,,,,,,,,,,,,,,,,,,,,,,,,,,,,,,,,,,,,,,,,,,,,,,,,,,,,,,,Y2EEUW,train_x,red_square,top_left,2025-07-10_17h11.20.215,HideSeek_v1,2022.2.5,59.9732519266946,
,0,6,3,6,3,0,46,,train_dim1_1,27,30,,,,2,0,2,0,,,,,,,,,0,0,0,0,0,26,26,26,0,0,0,0,,,,,,,,,,,,,,,,,,,,,,,,,stimuli/alien_stimuli/46.png,,,,,,,,,,,,,,,,,,,,,,,,,,,,,stimuli/alien_stimuli/66.png,66,1,28,,,,,,,30,,,,,,,,1929.35537450001,1929.35537450001,1929.35537450001,1929.35537450001,1929.35537450001,,,,,right,2.522719100001268,7,0,0,99,-0.08,0.08,right,2.4325597999995807,1927.794604300012,1929.35537450001,0.32,0.08,0.0,0.4,0.08,0.32,0.12,0.32,0.08,1924.9644868000032,1924.9644868000032,1924.9644868000032,1924.9644868000032,1924.9644868000032,1924.9644868000032,1924.9644868000032,1924.9644868000032,1924.9423648000084,2.937527600006433,return,2.800605099997483,,,,,,,,,,,,,,,,,,,,,,,,,,,,,,,,,Y2EEUW,train_x,red_square,top_left,2025-07-10_17h11.20.215,HideSeek_v1,2022.2.5,59.9732519266946,
,0,6,3,6,3,0,46,,train_dim1_1,27,30,,,,2,0,2,0,,,,,,,,,0,0,0,0,0,26,26,26,1,0,1,0,,,,,,,,,,,,,,,,,,,,,,,,,,,,,,,,,,,,,,,,,,,,,,,,,,,,,,,,,,,,,,,,30,,,,,,,,1931.8780996000132,1931.8780996000132,1931.8780996000132,1931.8780996000132,1931.8780996000132,,,,,right,0.4431315999972867,7,0,0,99,0.0,0.08,right,0.3596244999935152,,,,,,,,,,,,,,,,,,,,,,,,,,,,,,,,,,,,,,,,,,,,,,,,,,,,,,,,Y2EEUW,train_x,red_square,top_left,2025-07-10_17h11.20.215,HideSeek_v1,2022.2.5,59.9732519266946,
,0,6,3,6,3,0,46,,train_dim1_1,27,30,,,,2,0,2,0,,,,,,,,,0,0,0,0,0,26,26,26,2,0,2,0,,,,,,,,,,,,,,,,,,,,,,,,,,,,,,,,,,,,,,,,,,,,,,,,,,,,,,,,,,,,,,,,30,,,,,,,,1932.3279200000106,1932.3279200000106,1932.3279200000106,1932.3279200000106,1932.3279200000106,-7,50,0.0,0.08,return,0.5102350000088336,7,1,0,0,0.0,0.08,return,0.4245872000028612,,,,,,,,,,,,,,,,,,,,,,,,,,,,,,,,,,,,,,,,,,,,,,,,,,,,,,,,Y2EEUW,train_x,red_square,top_left,2025-07-10_17h11.20.215,HideSeek_v1,2022.2.5,59.9732519266946,
,3,6,4,6,1,0,26,,train_dim1_1,28,30,,,,2,0,2,0,,,,,,,,,0,0,0,0,0,27,27,27,0,0,0,0,,,,,,,,,,,,,,,,,,,,,,,,,stimuli/alien_stimuli/26.png,,,,,,,,,,,,,,,,,,,,,,,,,,,,,stimuli/alien_stimuli/46.png,46,0,29,,,,,,,30,,,,,,,,1939.3503935000044,1939.3503935000044,1939.3503935000044,1939.3503935000044,1939.3503935000044,,,,,right,2.0225647000042954,7,1,0,99,0.16,0.08,right,1.9253115000028629,1937.7859978000051,1939.3503935000044,0.08,0.08,0.0,0.24,0.08,0.08,-0.04,0.08,0.08,1934.4037406999996,1934.4037406999996,1934.4037406999996,1934.4037406999996,1934.4037406999996,1934.4037406999996,1934.4037406999996,1934.4037406999996,1934.3835075000097,3.4882002000085777,return,3.36526409999351,,,,,,,,,,,,,,,,,,,,,,,,,,,,,,,,,Y2EEUW,train_x,red_square,top_left,2025-07-10_17h11.20.215,HideSeek_v1,2022.2.5,59.9732519266946,
,3,6,4,6,1,0,26,,train_dim1_1,28,30,,,,2,0,2,0,,,,,,,,,0,0,0,0,0,27,27,27,1,0,1,0,,,,,,,,,,,,,,,,,,,,,,,,,,,,,,,,,,,,,,,,,,,,,,,,,,,,,,,,,,,,,,,,30,,,,,,,,1941.3741944000067,1941.3741944000067,1941.3741944000067,1941.3741944000067,1941.3741944000067,-7,51,0.16,0.08,return,0.40932589999283664,8,0,0,1,0.16,0.08,return,0.3328023999929428,,,,,,,,,,,,,,,,,,,,,,,,,,,,,,,,,,,,,,,,,,,,,,,,,,,,,,,,Y2EEUW,train_x,red_square,top_left,2025-07-10_17h11.20.215,HideSeek_v1,2022.2.5,59.9732519266946,
,4,5,8,5,4,0,56,,train_dim1_1,29,30,,,,2,0,2,0,,,,,,,,,0,0,0,0,0,28,28,28,0,0,0,0,,,,,,,,,,,,,,,,,,,,,,,,,stimuli/alien_stimuli/56.png,,,,,,,,,,,,,,,,,,,,,,,,,,,,,stimuli/alien_stimuli/26.png,26,3,30,,,,,,,30,,,,,,,,1947.252240700007,1947.252240700007,1947.252240700007,1947.252240700007,1947.252240700007,,,,,right,3.089475800006767,8,0,0,99,0.24,0,right,2.9926120000018273,1945.676371900001,1943.3731479000126,0.16,0.08,0.0,0.08,0.08,0.16,0.12,0.16,0.08,1943.3731479000126,1943.3731479000126,1943.3731479000126,1943.3731479000126,1943.3731479000126,1943.3731479000126,1943.3731479000126,1943.3731479000126,1943.3579517000035,2.4337566000031075,return,2.260752100002719,,,,,,,,,,,,,,,,,,,,,,,,,,,,,,,,,Y2EEUW,train_x,red_square,top_left,2025-07-10_17h11.20.215,HideSeek_v1,2022.2.5,59.9732519266946,
,4,5,8,5,4,0,56,,train_dim1_1,29,30,,,,2,0,2,0,,,,,,,,,0,0,0,0,0,28,28,28,1,0,1,0,,,,,,,,,,,,,,,,,,,,,,,,,,,,,,,,,,,,,,,,,,,,,,,,,,,,,,,,,,,,,,,,30,,,,,,,,1950.3305537000124,1950.3305537000124,1950.3305537000124,1950.3305537000124,1950.3305537000124,-7,52,0.24,0,return,1.3926287000067532,8,0,0,0,0.24,0,return,1.3082122999912826,,,,,,,,,,,,,,,,,,,,,,,,,,,,,,,,,,,,,,,,,,,,,,,,,,,,,,,,Y2EEUW,train_x,red_square,top_left,2025-07-10_17h11.20.215,HideSeek_v1,2022.2.5,59.9732519266946,
,2,7,2,7,0,0,16,,train_dim1_1,30,30,,,,2,0,2,0,,,,,,,,,0,0,0,0,0,29,29,29,0,0,0,0,,,,,,,,,,,,,,,,,,,,,,,,,stimuli/alien_stimuli/16.png,,,,,,,,,,,,,,,,,,,,,,,,,,,,,stimuli/alien_stimuli/56.png,56,4,31,,,,,,,30,,,,,,,,1960.5378354999993,1960.5378354999993,1960.5378354999993,1960.5378354999993,1960.5378354999993,,,,,right,2.170636499999091,8,0,0,99,0.08,0.16,right,2.0811678000027314,1958.9705593000108,1960.5378354999993,0.48,0,0.0,0.32,0.0,0.48,0.32,0.48,0,1953.2888832000026,1953.2888832000026,1953.2888832000026,1953.2888832000026,1953.2888832000026,1953.2888832000026,1953.2888832000026,1953.2888832000026,1953.2825943500065,5.790546500007622,return,5.658864099998027,,,,,,,,,,,,,,,,,,,,,,,,,,,,,,,,,Y2EEUW,train_x,red_square,top_left,2025-07-10_17h11.20.215,HideSeek_v1,2022.2.5,59.9732519266946,
,2,7,2,7,0,0,16,,train_dim1_1,30,30,,,,2,0,2,0,,,,,,,,,0,0,0,0,0,29,29,29,1,0,1,0,,,,,,,,,,,,,,,,,,,,,,,,,,,,,,,,,,,,,,,,,,,,,,,,,,,,,,,,,,,,,,,,30,,,,,,,,1962.7081278000114,1962.7081278000114,1962.7081278000114,1962.7081278000114,1962.7081278000114,-7,53,0.08,0.16,return,0.4263760000030743,8,1,0,0,0.08,0.16,return,0.3473033000045689,,,,,,,,,,,,,,,,,,,,,,,,,,,,,,,,,,,,,,,,,,,,,,,,,,,,,,,,Y2EEUW,train_x,red_square,top_left,2025-07-10_17h11.20.215,HideSeek_v1,2022.2.5,59.9732519266946,
,,,,,,,,,,,30,,,,2,0,2,0,,,,,,,,,,,,,,,,,,,,,,,,,,,,,,,,,,,,,,,,,,,,,,,,,,,,,,,,,,,,,,,,,,,,,,,,,,stimuli/alien_stimuli/16.png,16,2,32,21,0.7,0.33333333333333337,1,1,1,30,0,conditions/schedules/train_x_first/red_square_00/top_left/inputTrain_2.1.xlsx,99,1,2,1,0,,,,,,,,,,,,,,,0,,,,,1967.3773624000023,1968.9220277000131,0,0.16,0.0,0.0,0.16,0,0.0,0,0.16,1964.7197455999994,1964.7197455999994,1964.7197455999994,1964.7197455999994,1964.7197455999994,1964.7197455999994,1964.7197455999994,1964.7197455999994,1964.708603200008,2.7876707000104943,return,2.6318198000080884,0,0.9,0,1,8,,,,,,,,,,,,,,,,,,,,,,,,,,,,Y2EEUW,train_x,red_square,top_left,2025-07-10_17h11.20.215,HideSeek_v1,2022.2.5,59.9732519266946,
,,,,,,,,,,,,,,,3,0,3,0,0,0,0,0,,,,,,,,,,,,,,,,,,,,,,,,,,,,,,,conditions/schedules/train_x_first/red_square_00/top_left/instructions/Slide17.png,conditions/schedules/train_x_first/red_square_00/top_left/instructions/Audio17.wav,1968.9220277000131,1968.9120459500118,17,"[3.925518700008979, 18.379872400008026, 16.24541339999996, 19.418223299988313, 4.553512899990892, 4.837437900001532, 5.403459699999075, 11.955670099996496, 5.582708500005538, 6.649253099996713, 10.220389499998419, 12.55881319999753, 17.21422399999574, 12.878168600000208, 29.392333099996904, 21.857631199993193, 39.05360030000156]","[3.925534099995275, 0.014419400002225302, 0.0002023999986704439, 0.0664595999987796, 0.05026720000023488, 0.06616159999975935, 0.06363309999869671, 11.955676900004619, 0.06419929998810403, 0.04704960000526626, 0.03149319998919964, 12.558820099991863, 0.05125259999476839, 12.87817619999987, 0.2064760000066599, 21.857638000001316, 39.053607999987435]",0,,,,,,,,,,,,,,,,,,,,,,,,,,,,,,,,,,,,,,,,,,,,,,,,,,,,,,,,,,,,,,,,,,,,,,,,,,,,,,,,,,,,,,,,,,,,,,,,,,,,,,,,,,,,,,,,,,,,,,,,,,,,Y2EEUW,train_x,red_square,top_left,2025-07-10_17h11.20.215,HideSeek_v1,2022.2.5,59.9732519266946,
,,,,,,,,,,,,,,,3,0,3,0,1,0,1,0,,,,,,,,,,,,,,,,,,,,,,,,,,,,,,,conditions/schedules/train_x_first/red_square_00/top_left/instructions/Slide18.png,conditions/schedules/train_x_first/red_square_00/top_left/instructions/Audio18.wav,2008.0326150000037,2008.0284077000106,18,"[3.925518700008979, 18.379872400008026, 16.24541339999996, 19.418223299988313, 4.553512899990892, 4.837437900001532, 5.403459699999075, 11.955670099996496, 5.582708500005538, 6.649253099996713, 10.220389499998419, 12.55881319999753, 17.21422399999574, 12.878168600000208, 29.392333099996904, 21.857631199993193, 39.05360030000156, 6.76571390000754]","[3.925534099995275, 0.014419400002225302, 0.0002023999986704439, 0.0664595999987796, 0.05026720000023488, 0.06616159999975935, 0.06363309999869671, 11.955676900004619, 0.06419929998810403, 0.04704960000526626, 0.03149319998919964, 12.558820099991863, 0.05125259999476839, 12.87817619999987, 0.2064760000066599, 21.857638000001316, 0.014259300005505793, 6.765721000003396]",0,,,,,,,,,,,,,,,,,,,,,,,,,,,,,,,,,,,,,,,,,,,,,,,,,,,,,,,,,,,,,,,,,,,,,,,,,,,,,,,,,,,,,,,,,,,,,,,,,,,,,,,,,,,,,,,,,,,,,,,,,,,,Y2EEUW,train_x,red_square,top_left,2025-07-10_17h11.20.215,HideSeek_v1,2022.2.5,59.9732519266946,
,,,,,,,,,,,,,,,3,0,3,0,2,0,2,0,,,,,,,,,,,,,,,,,,,,,,,,,,,,,,,conditions/schedules/train_x_first/red_square_00/top_left/instructions/Slide19.png,conditions/schedules/train_x_first/red_square_00/top_left/instructions/Audio19.wav,2014.83769700001,2014.8339889500057,19,"[3.925518700008979, 18.379872400008026, 16.24541339999996, 19.418223299988313, 4.553512899990892, 4.837437900001532, 5.403459699999075, 11.955670099996496, 5.582708500005538, 6.649253099996713, 10.220389499998419, 12.55881319999753, 17.21422399999574, 12.878168600000208, 29.392333099996904, 21.857631199993193, 39.05360030000156, 6.76571390000754, 10.386211400007596]","[3.925534099995275, 0.014419400002225302, 0.0002023999986704439, 0.0664595999987796, 0.05026720000023488, 0.06616159999975935, 0.06363309999869671, 11.955676900004619, 0.06419929998810403, 0.04704960000526626, 0.03149319998919964, 12.558820099991863, 0.05125259999476839, 12.87817619999987, 0.2064760000066599, 21.857638000001316, 0.014259300005505793, 0.06459540000651032, 10.386218800005736]",0,,,,,,,,,,,,,,,,,,,,,,,,,,,,,,,,,,,,,,,,,,,,,,,,,,,,,,,,,,,,,,,,,,,,,,,,,,,,,,,,,,,,,,,,,,,,,,,,,,,,,,,,,,,,,,,,,,,,,,,,,,,,Y2EEUW,train_x,red_square,top_left,2025-07-10_17h11.20.215,HideSeek_v1,2022.2.5,59.9732519266946,
,,,,,,,,,,,,,,,3,0,3,0,3,0,3,0,,,,,,,,,,,,,,,,,,,,,,,,,,,,,,,conditions/schedules/train_x_first/red_square_00/top_left/instructions/Slide20.png,conditions/schedules/train_x_first/red_square_00/top_left/instructions/Audio20.wav,2025.2923174000025,2025.2927409500116,20,"[3.925518700008979, 18.379872400008026, 16.24541339999996, 19.418223299988313, 4.553512899990892, 4.837437900001532, 5.403459699999075, 11.955670099996496, 5.582708500005538, 6.649253099996713, 10.220389499998419, 12.55881319999753, 17.21422399999574, 12.878168600000208, 29.392333099996904, 21.857631199993193, 39.05360030000156, 6.76571390000754, 10.386211400007596, 13.659379500008072]","[3.925534099995275, 0.014419400002225302, 0.0002023999986704439, 0.0664595999987796, 0.05026720000023488, 0.06616159999975935, 0.06363309999869671, 11.955676900004619, 0.06419929998810403, 0.04704960000526626, 0.03149319998919964, 12.558820099991863, 0.05125259999476839, 12.87817619999987, 0.2064760000066599, 21.857638000001316, 0.014259300005505793, 0.06459540000651032, 0.03166870000131894, 13.659387100007734]",0,,,,,,,,,,,,,,,,,,,,,,,,,,,,,,,,,,,,,,,,,,,,,,,,,,,,,,,,,,,,,,,,,,,,,,,,,,,,,,,,,,,,,,,,,,,,,,,,,,,,,,,,,,,,,,,,,,,,,,,,,,,,Y2EEUW,train_x,red_square,top_left,2025-07-10_17h11.20.215,HideSeek_v1,2022.2.5,59.9732519266946,
1,2,8,2,3,0,-5,11,2,instr_dim1_2,,,,,,3,0,3,0,,,,,0,0,0,0,,,,,,,,,,,,,,,,,,,,,,,,,,,,,,,,,,,,,stimuli/alien_stimuli/11.png,conditions/schedules/train_x_first/red_square_00/top_left/inputInstr_2.xlsx,stimuli/alien_stimuli/11.png,2039.0516212000075,2039.0516212000075,2039.0516212000075,2039.0516212000075,2039.0539985500072,return,11.215613499996834,"[-0.16, -0.08, 0, 0.08, 0.16, 0.24, 0.32, 0.4, 0.48, 0.56]","[-0.4, -0.32, -0.24, -0.16, -0.08, 0, 0.08, 0.16, 0.24, 0.32]",3,8,2,2,0.4,0.0,2050.4423634000123,2050.4423634000123,2050.4423634000123,2050.4423634000123,2050.4423634000123,2050.4423634000123,2050.4423634000123,2050.429997650004,8.774849300010828,return,8.611098800000036,stimuli/alien_stimuli/11.png,11,2,1,,,,,,,,,,,,,,,,,,,,,,,,,,,,,,,,,,,,,,,,,,,,,,,,,,,,,,,,,,,,,,,,,,,,,,,,,,,,,,,,,,,,,,,,,Y2EEUW,train_x,red_square,top_left,2025-07-10_17h11.20.215,HideSeek_v1,2022.2.5,59.9732519266946,
,,,,,,,,,,,30,,,,3,0,3,0,,,,,,,,,,,,,,,,,,,,,,,,,,,,,,,,,,,,,,,,,,,,,,,,,,,,,,,,,,,,,,,,,,,,,,,,,,,,,,21,0.7,0.33333333333333337,1,99,2,30,0,conditions/schedules/train_x_first/red_square_00/top_left/inputTrain_2.1.xlsx,99,1,2,1,0,,,,,,,,,,,,,,,,,,,,,,,,,,,,,,,,,,,,,,,,,,,,,,,,,,,,,,,,,,,,,,,,,,,,,,,,,,,Y2EEUW,train_x,red_square,top_left,2025-07-10_17h11.20.215,HideSeek_v1,2022.2.5,59.9732519266946,
,,,,,,,,,,,,,,,4,0,4,0,0,0,0,0,,,,,,,,,,,,,,,,,,,,,,,,,,,,,,,conditions/schedules/train_x_first/red_square_00/top_left/instructions/Slide21.png,conditions/schedules/train_x_first/red_square_00/top_left/instructions/Audio21.wav,2059.204866400003,2059.203937350001,21,"[3.925518700008979, 18.379872400008026, 16.24541339999996, 19.418223299988313, 4.553512899990892, 4.837437900001532, 5.403459699999075, 11.955670099996496, 5.582708500005538, 6.649253099996713, 10.220389499998419, 12.55881319999753, 17.21422399999574, 12.878168600000208, 29.392333099996904, 21.857631199993193, 39.05360030000156, 6.76571390000754, 10.386211400007596, 13.659379500008072, 16.543517800004338]","[3.925534099995275, 0.014419400002225302, 0.0002023999986704439, 0.0664595999987796, 0.05026720000023488, 0.06616159999975935, 0.06363309999869671, 11.955676900004619, 0.06419929998810403, 0.04704960000526626, 0.03149319998919964, 12.558820099991863, 0.05125259999476839, 12.87817619999987, 0.2064760000066599, 21.857638000001316, 0.014259300005505793, 0.06459540000651032, 0.03166870000131894, 13.659387100007734, 16.543525700006285]",0,,,,,,,,,,,,,,,,,,,,,,,,,,,,,,,,,,,,,,,,,,,,,,,,,,,,,,,,,,,,,,,,,,,,,,,,,,,,,,,,,,,,,,,,,,,,,,,,,,,,,,,,,,,,,,,,,,,,,,,,,,,,Y2EEUW,train_x,red_square,top_left,2025-07-10_17h11.20.215,HideSeek_v1,2022.2.5,59.9732519266946,
2,0,8,0,8,0,0,16,2,instr_dim1_2,,,,,,4,0,4,0,,,,,0,0,0,0,,,,,,,,,,,,,,,,,,,,,,,,,,,,,,,,,,,,,stimuli/alien_stimuli/16.png,conditions/schedules/train_x_first/red_square_00/top_left/inputInstr_2.xlsx,stimuli/alien_stimuli/16.png,2075.8503431999998,2075.8503431999998,2075.8503431999998,2075.8503431999998,2075.851388250012,return,3.017145799996797,"[-0.16, -0.08, 0, 0.08, 0.16, 0.24, 0.32, 0.4, 0.48, 0.56]","[-0.4, -0.32, -0.24, -0.16, -0.08, 0, 0.08, 0.16, 0.24, 0.32]",8,8,0,0,0.0,0.0,2079.016288800005,2079.016288800005,2079.016288800005,2079.016288800005,2079.016288800005,2079.016288800005,2079.016288800005,2079.00398590001,8.124282500008121,return,7.97297270000854,stimuli/alien_stimuli/16.png,16,0,2,,,,,,,,,,,,,,,,,,,,,,,,,,,,,,,,,,,,,,,,,,,,,,,,,,,,,,,,,,,,,,,,,,,,,,,,,,,,,,,,,,,,,,,,,Y2EEUW,train_x,red_square,top_left,2025-07-10_17h11.20.215,HideSeek_v1,2022.2.5,59.9732519266946,
,,,,,,,,,,,30,,,,4,0,4,0,,,,,,,,,,,,,,,,,,,,,,,,,,,,,,,,,,,,,,,,,,,,,,,,,,,,,,,,,,,,,,,,,,,,,,,,,,,,,,21,0.7,0.33333333333333337,1,99,2,30,0,conditions/schedules/train_x_first/red_square_00/top_left/inputTrain_2.1.xlsx,99,1,2,1,0,,,,,,,,,,,,,,,,,,,,,,,,,,,,,,,,,,,,,,,,,,,,,,,,,,,,,,,,,,,,,,,,,,,,,,,,,,,Y2EEUW,train_x,red_square,top_left,2025-07-10_17h11.20.215,HideSeek_v1,2022.2.5,59.9732519266946,
,,,,,,,,,,,,,,,5,0,5,0,0,0,0,0,,,,,,,,,,,,,,,,,,,,,,,,,,,,,,,conditions/schedules/train_x_first/red_square_00/top_left/instructions/Slide22.png,conditions/schedules/train_x_first/red_square_00/top_left/instructions/Audio22.wav,2087.1639571000123,2087.1604899000085,22,"[3.925518700008979, 18.379872400008026, 16.24541339999996, 19.418223299988313, 4.553512899990892, 4.837437900001532, 5.403459699999075, 11.955670099996496, 5.582708500005538, 6.649253099996713, 10.220389499998419, 12.55881319999753, 17.21422399999574, 12.878168600000208, 29.392333099996904, 21.857631199993193, 39.05360030000156, 6.76571390000754, 10.386211400007596, 13.659379500008072, 16.543517800004338, 43.9640689999942]","[3.925534099995275, 0.014419400002225302, 0.0002023999986704439, 0.0664595999987796, 0.05026720000023488, 0.06616159999975935, 0.06363309999869671, 11.955676900004619, 0.06419929998810403, 0.04704960000526626, 0.03149319998919964, 12.558820099991863, 0.05125259999476839, 12.87817619999987, 0.2064760000066599, 21.857638000001316, 0.014259300005505793, 0.06459540000651032, 0.03166870000131894, 13.659387100007734, 16.543525700006285, 43.96407679999538]",0,,,,,,,,,,,,,,,,,,,,,,,,,,,,,,,,,,,,,,,,,,,,,,,,,,,,,,,,,,,,,,,,,,,,,,,,,,,,,,,,,,,,,,,,,,,,,,,,,,,,,,,,,,,,,,,,,,,,,,,,,,,,Y2EEUW,train_x,red_square,top_left,2025-07-10_17h11.20.215,HideSeek_v1,2022.2.5,59.9732519266946,
,0,5,0,4,0,-1,15,,train_dim1_2,1,30,,,,5,0,5,0,,,,,,,,,0,0,0,0,0,0,0,0,0,0,0,0,,,,,,,,,,,,,,,,,,,,,,,,,stimuli/alien_stimuli/15.png,,,,,,,,,,,,,,,,,,,,,,,,,,,,,,,,,,,,,,,30,,,,,,,,2131.2310246000125,2131.2310246000125,2131.2310246000125,2131.2310246000125,2131.2310246000125,-7,53,-0.16,0,return,5.547977700000047,0,1,0,0,-0.16,0,return,5.449010099997395,,,,,,,,,,,,,,,,,,,,,,,,,,,,,,,,,,,,,,,,,,,,,,,,,,,,,,,,Y2EEUW,train_x,red_square,top_left,2025-07-10_17h11.20.215,HideSeek_v1,2022.2.5,59.9732519266946,
,3,7,3,7,0,0,16,,train_dim1_2,2,30,,,,5,0,5,0,,,,,,,,,0,0,0,0,0,1,1,1,0,0,0,0,,,,,,,,,,,,,,,,,,,,,,,,,stimuli/alien_stimuli/16.png,,,,,,,,,,,,,,,,,,,,,,,,,,,,,stimuli/alien_stimuli/15.png,15,0,3,,,,,,,30,,,,,,,,2142.5497445000074,2142.5497445000074,2142.5497445000074,2142.5497445000074,2142.5497445000074,-7,53,0.08,0.16,return,2.237725400002091,1,0,0,1,0.08,0.16,return,2.151241799991112,2140.988668500009,2142.5497445000074,-0.16,-0.08,0.08,0.0,-0.04,-0.16,-0.16,-0.16,-0.08,2138.3424699000025,2138.3424699000025,2138.3424699000025,2138.3424699000025,2138.3424699000025,2138.3424699000025,2138.3424699000025,2138.3424699000025,2138.3372327000106,2.770019299990963,return,2.62840519999736,,,,,,,,,,,,,,,,,,,,,,,,,,,,,,,,,Y2EEUW,train_x,red_square,top_left,2025-07-10_17h11.20.215,HideSeek_v1,2022.2.5,59.9732519266946,
,2,8,2,5,0,-3,13,,train_dim1_2,3,30,,,,5,0,5,0,,,,,,,,,0,0,0,0,0,2,2,2,0,0,0,0,,,,,,,,,,,,,,,,,,,,,,,,,stimuli/alien_stimuli/13.png,,,,,,,,,,,,,,,,,,,,,,,,,,,,,stimuli/alien_stimuli/16.png,16,3,4,,,,,,,30,,,,,,,,2150.541356200003,2150.541356200003,2150.541356200003,2150.541356200003,2150.541356200003,,,,,down,4.154019000008702,1,0,0,99,0,0.15999999999999998,down,4.066891499998746,2148.9784832000005,2150.541356200003,0.08,0.16,0.0,0.0,0.16,0.08,0.08,0.08,0.16,2146.3449757000053,2146.3449757000053,2146.3449757000053,2146.3449757000053,2146.3449757000053,2146.3449757000053,2146.3449757000053,2146.3449757000053,2146.3431143500056,2.737786400000914,return,2.601790099986829,,,,,,,,,,,,,,,,,,,,,,,,,,,,,,,,,Y2EEUW,train_x,red_square,top_left,2025-07-10_17h11.20.215,HideSeek_v1,2022.2.5,59.9732519266946,
,2,8,2,5,0,-3,13,,train_dim1_2,3,30,,,,5,0,5,0,,,,,,,,,0,0,0,0,0,2,2,2,1,0,1,0,,,,,,,,,,,,,,,,,,,,,,,,,,,,,,,,,,,,,,,,,,,,,,,,,,,,,,,,,,,,,,,,30,,,,,,,,2154.7013858000137,2154.7013858000137,2154.7013858000137,2154.7013858000137,2154.7013858000137,,,,,down,0.6931954999890877,1,0,0,99,0,0.07999999999999997,down,0.6043819999904372,,,,,,,,,,,,,,,,,,,,,,,,,,,,,,,,,,,,,,,,,,,,,,,,,,,,,,,,Y2EEUW,train_x,red_square,top_left,2025-07-10_17h11.20.215,HideSeek_v1,2022.2.5,59.9732519266946,
,2,8,2,5,0,-3,13,,train_dim1_2,3,30,,,,5,0,5,0,,,,,,,,,0,0,0,0,0,2,2,2,2,0,2,0,,,,,,,,,,,,,,,,,,,,,,,,,,,,,,,,,,,,,,,,,,,,,,,,,,,,,,,,,,,,,,,,30,,,,,,,,2155.4012734000135,2155.4012734000135,2155.4012734000135,2155.4012734000135,2155.4012734000135,,,,,down,0.3932247000047937,1,0,0,99,0,-2.7755575615628914e-17,down,0.3087142999866046,,,,,,,,,,,,,,,,,,,,,,,,,,,,,,,,,,,,,,,,,,,,,,,,,,,,,,,,Y2EEUW,train_x,red_square,top_left,2025-07-10_17h11.20.215,HideSeek_v1,2022.2.5,59.9732519266946,
,2,8,2,5,0,-3,13,,train_dim1_2,3,30,,,,5,0,5,0,,,,,,,,,0,0,0,0,0,2,2,2,3,0,3,0,,,,,,,,,,,,,,,,,,,,,,,,,,,,,,,,,,,,,,,,,,,,,,,,,,,,,,,,,,,,,,,,30,,,,,,,,2155.801118400006,2155.801118400006,2155.801118400006,2155.801118400006,2155.801118400006,,,,,down,0.3767362999933539,1,0,0,99,0,-0.08000000000000003,down,0.2927773999981582,,,,,,,,,,,,,,,,,,,,,,,,,,,,,,,,,,,,,,,,,,,,,,,,,,,,,,,,Y2EEUW,train_x,red_square,top_left,2025-07-10_17h11.20.215,HideSeek_v1,2022.2.5,59.9732519266946,
,2,8,2,5,0,-3,13,,train_dim1_2,3,30,,,,5,0,5,0,,,,,,,,,0,0,0,0,0,2,2,2,4,0,4,0,,,,,,,,,,,,,,,,,,,,,,,,,,,,,,,,,,,,,,,,,,,,,,,,,,,,,,,,,,,,,,,,30,,,,,,,,2156.1845036000013,2156.1845036000013,2156.1845036000013,2156.1845036000013,2156.1845036000013,,,,,down,0.3264911000005668,1,0,0,99,0,-0.16000000000000003,down,0.23646080000617076,,,,,,,,,,,,,,,,,,,,,,,,,,,,,,,,,,,,,,,,,,,,,,,,,,,,,,,,Y2EEUW,train_x,red_square,top_left,2025-07-10_17h11.20.215,HideSeek_v1,2022.2.5,59.9732519266946,
,2,8,2,5,0,-3,13,,train_dim1_2,3,30,,,,5,0,5,0,,,,,,,,,0,0,0,0,0,2,2,2,5,0,5,0,,,,,,,,,,,,,,,,,,,,,,,,,,,,,,,,,,,,,,,,,,,,,,,,,,,,,,,,,,,,,,,,30,,,,,,,,2156.5192271000124,2156.5192271000124,2156.5192271000124,2156.5192271000124,2156.5192271000124,-12,53,0,-0.16000000000000003,return,0.7269285999936983,1,0,0,0,0,-0.16000000000000003,return,0.6490648000035435,,,,,,,,,,,,,,,,,,,,,,,,,,,,,,,,,,,,,,,,,,,,,,,,,,,,,,,,Y2EEUW,train_x,red_square,top_left,2025-07-10_17h11.20.215,HideSeek_v1,2022.2.5,59.9732519266946,
,0,6,0,2,0,-4,12,,train_dim1_2,4,30,,,,5,0,5,0,,,,,,,,,0,0,0,0,0,3,3,3,0,0,0,0,,,,,,,,,,,,,,,,,,,,,,,,,stimuli/alien_stimuli/12.png,,,,,,,,,,,,,,,,,,,,,,,,,,,,,stimuli/alien_stimuli/13.png,13,2,5,,,,,,,30,,,,,,,,2165.334790500012,2165.334790500012,2165.334790500012,2165.334790500012,2165.334790500012,,,,,down,2.738441800000146,1,0,0,99,-0.16,0.0,down,2.6576057999918703,2163.7744347000116,2165.334790500012,0,0,0.24,0.0,0.12,0,0.0,0,0,2158.818016800011,2158.818016800011,2158.818016800011,2158.818016800011,2158.818016800011,2158.818016800011,2158.818016800011,2158.818016800011,2158.803578750012,5.072936899989145,return,4.933349600003567,,,,,,,,,,,,,,,,,,,,,,,,,,,,,,,,,Y2EEUW,train_x,red_square,top_left,2025-07-10_17h11.20.215,HideSeek_v1,2022.2.5,59.9732519266946,
,0,6,0,2,0,-4,12,,train_dim1_2,4,30,,,,5,0,5,0,,,,,,,,,0,0,0,0,0,3,3,3,1,0,1,0,,,,,,,,,,,,,,,,,,,,,,,,,,,,,,,,,,,,,,,,,,,,,,,,,,,,,,,,,,,,,,,,30,,,,,,,,2168.0796300000075,2168.0796300000075,2168.0796300000075,2168.0796300000075,2168.0796300000075,,,,,down,0.42632339999545366,1,0,0,99,-0.16,-0.08,down,0.34883679999620654,,,,,,,,,,,,,,,,,,,,,,,,,,,,,,,,,,,,,,,,,,,,,,,,,,,,,,,,Y2EEUW,train_x,red_square,top_left,2025-07-10_17h11.20.215,HideSeek_v1,2022.2.5,59.9732519266946,
,0,6,0,2,0,-4,12,,train_dim1_2,4,30,,,,5,0,5,0,,,,,,,,,0,0,0,0,0,3,3,3,2,0,2,0,,,,,,,,,,,,,,,,,,,,,,,,,,,,,,,,,,,,,,,,,,,,,,,,,,,,,,,,,,,,,,,,30,,,,,,,,2168.513237700012,2168.513237700012,2168.513237700012,2168.513237700012,2168.513237700012,,,,,down,0.44357839999429416,1,0,0,99,-0.16,-0.16,down,0.35045610000088345,,,,,,,,,,,,,,,,,,,,,,,,,,,,,,,,,,,,,,,,,,,,,,,,,,,,,,,,Y2EEUW,train_x,red_square,top_left,2025-07-10_17h11.20.215,HideSeek_v1,2022.2.5,59.9732519266946,
,0,6,0,2,0,-4,12,,train_dim1_2,4,30,,,,5,0,5,0,,,,,,,,,0,0,0,0,0,3,3,3,3,0,3,0,,,,,,,,,,,,,,,,,,,,,,,,,,,,,,,,,,,,,,,,,,,,,,,,,,,,,,,,,,,,,,,,30,,,,,,,,2168.964502200004,2168.964502200004,2168.964502200004,2168.964502200004,2168.964502200004,-15,53,-0.16,-0.16,return,0.5935320999997202,1,1,0,0,-0.16,-0.16,return,0.5062265000015032,,,,,,,,,,,,,,,,,,,,,,,,,,,,,,,,,,,,,,,,,,,,,,,,,,,,,,,,Y2EEUW,train_x,red_square,top_left,2025-07-10_17h11.20.215,HideSeek_v1,2022.2.5,59.9732519266946,
,3,8,3,3,0,-5,11,,train_dim1_2,5,30,,,,5,0,5,0,,,,,,,,,0,0,0,0,0,4,4,4,0,0,0,0,,,,,,,,,,,,,,,,,,,,,,,,,stimuli/alien_stimuli/11.png,,,,,,,,,,,,,,,,,,,,,,,,,,,,,stimuli/alien_stimuli/12.png,12,0,6,,,,,,,30,,,,,,,,2175.4250727000035,2175.4250727000035,2175.4250727000035,2175.4250727000035,2175.4250727000035,,,,,down,1.7059633000026224,1,1,0,99,0.08,0.15999999999999998,down,1.6226048999960767,2173.866090200012,2175.4250727000035,-0.16,-0.24,0.32,0.0,-0.07999999999999999,-0.16,-0.16,-0.16,-0.24,2171.129685000007,2171.129685000007,2171.129685000007,2171.129685000007,2171.129685000007,2171.129685000007,2171.129685000007,2171.129685000007,2171.130444800001,2.8546023999952013,return,2.718574400001671,,,,,,,,,,,,,,,,,,,,,,,,,,,,,,,,,Y2EEUW,train_x,red_square,top_left,2025-07-10_17h11.20.215,HideSeek_v1,2022.2.5,59.9732519266946,
,3,8,3,3,0,-5,11,,train_dim1_2,5,30,,,,5,0,5,0,,,,,,,,,0,0,0,0,0,4,4,4,1,0,1,0,,,,,,,,,,,,,,,,,,,,,,,,,,,,,,,,,,,,,,,,,,,,,,,,,,,,,,,,,,,,,,,,30,,,,,,,,2177.136165200005,2177.136165200005,2177.136165200005,2177.136165200005,2177.136165200005,,,,,down,0.42665280000073835,1,1,0,99,0.08,0.07999999999999997,down,0.33849730000656564,,,,,,,,,,,,,,,,,,,,,,,,,,,,,,,,,,,,,,,,,,,,,,,,,,,,,,,,Y2EEUW,train_x,red_square,top_left,2025-07-10_17h11.20.215,HideSeek_v1,2022.2.5,59.9732519266946,
,3,8,3,3,0,-5,11,,train_dim1_2,5,30,,,,5,0,5,0,,,,,,,,,0,0,0,0,0,4,4,4,2,0,2,0,,,,,,,,,,,,,,,,,,,,,,,,,,,,,,,,,,,,,,,,,,,,,,,,,,,,,,,,,,,,,,,,30,,,,,,,,2177.571492400006,2177.571492400006,2177.571492400006,2177.571492400006,2177.571492400006,,,,,down,0.4097503999946639,1,1,0,99,0.08,-2.7755575615628914e-17,down,0.32885910000186414,,,,,,,,,,,,,,,,,,,,,,,,,,,,,,,,,,,,,,,,,,,,,,,,,,,,,,,,Y2EEUW,train_x,red_square,top_left,2025-07-10_17h11.20.215,HideSeek_v1,2022.2.5,59.9732519266946,
,3,8,3,3,0,-5,11,,train_dim1_2,5,30,,,,5,0,5,0,,,,,,,,,0,0,0,0,0,4,4,4,3,0,3,0,,,,,,,,,,,,,,,,,,,,,,,,,,,,,,,,,,,,,,,,,,,,,,,,,,,,,,,,,,,,,,,,30,,,,,,,,2177.9871291000018,2177.9871291000018,2177.9871291000018,2177.9871291000018,2177.9871291000018,,,,,down,0.393379899993306,1,1,0,99,0.08,-0.08000000000000003,down,0.3048485999897821,,,,,,,,,,,,,,,,,,,,,,,,,,,,,,,,,,,,,,,,,,,,,,,,,,,,,,,,Y2EEUW,train_x,red_square,top_left,2025-07-10_17h11.20.215,HideSeek_v1,2022.2.5,59.9732519266946,
,3,8,3,3,0,-5,11,,train_dim1_2,5,30,,,,5,0,5,0,,,,,,,,,0,0,0,0,0,4,4,4,4,0,4,0,,,,,,,,,,,,,,,,,,,,,,,,,,,,,,,,,,,,,,,,,,,,,,,,,,,,,,,,,,,,,,,,30,,,,,,,,2178.3898258000117,2178.3898258000117,2178.3898258000117,2178.3898258000117,2178.3898258000117,-19,53,0.08,-0.08000000000000003,return,0.6077250999951502,1,1,0,0,0.08,-0.08000000000000003,return,0.5225200999993831,,,,,,,,,,,,,,,,,,,,,,,,,,,,,,,,,,,,,,,,,,,,,,,,,,,,,,,,Y2EEUW,train_x,red_square,top_left,2025-07-10_17h11.20.215,HideSeek_v1,2022.2.5,59.9732519266946,
,1,9,1,5,0,-4,12,,train_dim1_2,6,30,,,,5,0,5,0,,,,,,,,,0,0,0,0,0,5,5,5,0,0,0,0,,,,,,,,,,,,,,,,,,,,,,,,,stimuli/alien_stimuli/12.png,,,,,,,,,,,,,,,,,,,,,,,,,,,,,stimuli/alien_stimuli/11.png,11,3,7,,,,,,,30,,,,,,,,2184.000496000008,2184.000496000008,2184.000496000008,2184.000496000008,2184.000496000008,,,,,down,1.2698287999955937,1,1,0,99,-0.08,0.24,down,1.1879888999974355,2182.4398621,2184.000496000008,0.08,-0.16,0.4,0.0,0.039999999999999994,0.08,0.08,0.08,-0.16,2180.5527838000125,2180.5527838000125,2180.5527838000125,2180.5527838000125,2180.5527838000125,2180.5527838000125,2180.5527838000125,2180.5527838000125,2180.5383165000094,1.9868877999979304,return,1.8585505999944871,,,,,,,,,,,,,,,,,,,,,,,,,,,,,,,,,Y2EEUW,train_x,red_square,top_left,2025-07-10_17h11.20.215,HideSeek_v1,2022.2.5,59.9732519266946,
,1,9,1,5,0,-4,12,,train_dim1_2,6,30,,,,5,0,5,0,,,,,,,,,0,0,0,0,0,5,5,5,1,0,1,0,,,,,,,,,,,,,,,,,,,,,,,,,,,,,,,,,,,,,,,,,,,,,,,,,,,,,,,,,,,,,,,,30,,,,,,,,2185.2779262000113,2185.2779262000113,2185.2779262000113,2185.2779262000113,2185.2779262000113,,,,,down,0.49308829999063164,1,1,0,99,-0.08,0.15999999999999998,down,0.40841079999518115,,,,,,,,,,,,,,,,,,,,,,,,,,,,,,,,,,,,,,,,,,,,,,,,,,,,,,,,Y2EEUW,train_x,red_square,top_left,2025-07-10_17h11.20.215,HideSeek_v1,2022.2.5,59.9732519266946,
,1,9,1,5,0,-4,12,,train_dim1_2,6,30,,,,5,0,5,0,,,,,,,,,0,0,0,0,0,5,5,5,2,0,2,0,,,,,,,,,,,,,,,,,,,,,,,,,,,,,,,,,,,,,,,,,,,,,,,,,,,,,,,,,,,,,,,,30,,,,,,,,2185.778275100005,2185.778275100005,2185.778275100005,2185.778275100005,2185.778275100005,,,,,down,0.49314120000053663,1,1,0,99,-0.08,0.07999999999999997,down,0.4106873999990057,,,,,,,,,,,,,,,,,,,,,,,,,,,,,,,,,,,,,,,,,,,,,,,,,,,,,,,,Y2EEUW,train_x,red_square,top_left,2025-07-10_17h11.20.215,HideSeek_v1,2022.2.5,59.9732519266946,
,1,9,1,5,0,-4,12,,train_dim1_2,6,30,,,,5,0,5,0,,,,,,,,,0,0,0,0,0,5,5,5,3,0,3,0,,,,,,,,,,,,,,,,,,,,,,,,,,,,,,,,,,,,,,,,,,,,,,,,,,,,,,,,,,,,,,,,30,,,,,,,,2186.277200100012,2186.277200100012,2186.277200100012,2186.277200100012,2186.277200100012,,,,,down,0.6434439000004204,1,1,0,99,-0.08,-2.7755575615628914e-17,down,0.5514125999907264,,,,,,,,,,,,,,,,,,,,,,,,,,,,,,,,,,,,,,,,,,,,,,,,,,,,,,,,Y2EEUW,train_x,red_square,top_left,2025-07-10_17h11.20.215,HideSeek_v1,2022.2.5,59.9732519266946,
,1,9,1,5,0,-4,12,,train_dim1_2,6,30,,,,5,0,5,0,,,,,,,,,0,0,0,0,0,5,5,5,4,0,4,0,,,,,,,,,,,,,,,,,,,,,,,,,,,,,,,,,,,,,,,,,,,,,,,,,,,,,,,,,,,,,,,,30,,,,,,,,2186.92832240001,2186.92832240001,2186.92832240001,2186.92832240001,2186.92832240001,,,,,down,0.7772335999907227,1,1,0,99,-0.08,-0.08000000000000003,down,0.6944318000023486,,,,,,,,,,,,,,,,,,,,,,,,,,,,,,,,,,,,,,,,,,,,,,,,,,,,,,,,Y2EEUW,train_x,red_square,top_left,2025-07-10_17h11.20.215,HideSeek_v1,2022.2.5,59.9732519266946,
,1,9,1,5,0,-4,12,,train_dim1_2,6,30,,,,5,0,5,0,,,,,,,,,0,0,0,0,0,5,5,5,5,0,5,0,,,,,,,,,,,,,,,,,,,,,,,,,,,,,,,,,,,,,,,,,,,,,,,,,,,,,,,,,,,,,,,,30,,,,,,,,2187.7128762000066,2187.7128762000066,2187.7128762000066,2187.7128762000066,2187.7128762000066,-24,53,-0.08,-0.08000000000000003,return,0.7097298000007868,1,1,0,0,-0.08,-0.08000000000000003,return,0.6193197999964468,,,,,,,,,,,,,,,,,,,,,,,,,,,,,,,,,,,,,,,,,,,,,,,,,,,,,,,,Y2EEUW,train_x,red_square,top_left,2025-07-10_17h11.20.215,HideSeek_v1,2022.2.5,59.9732519266946,
,1,8,1,5,0,-3,13,,train_dim1_2,7,30,,,,5,0,5,0,,,,,,,,,0,0,0,0,0,6,6,6,0,0,0,0,,,,,,,,,,,,,,,,,,,,,,,,,stimuli/alien_stimuli/13.png,,,,,,,,,,,,,,,,,,,,,,,,,,,,,stimuli/alien_stimuli/12.png,12,1,8,,,,,,,30,,,,,,,,2197.5625600000058,2197.5625600000058,2197.5625600000058,2197.5625600000058,2197.5625600000058,,,,,down,1.0694098999956623,1,1,0,99,-0.08,0.15999999999999998,down,0.9762144999986049,2196.0009130000108,2197.5625600000058,-0.08,0,0.32,0.0,0.16,-0.08,-0.08,-0.08,0,2189.9783217000077,2189.9783217000077,2189.9783217000077,2189.9783217000077,2189.9783217000077,2189.9783217000077,2189.9783217000077,2189.9783217000077,2189.9794288500125,6.124239999990095,return,6.0045611999958055,,,,,,,,,,,,,,,,,,,,,,,,,,,,,,,,,Y2EEUW,train_x,red_square,top_left,2025-07-10_17h11.20.215,HideSeek_v1,2022.2.5,59.9732519266946,
,1,8,1,5,0,-3,13,,train_dim1_2,7,30,,,,5,0,5,0,,,,,,,,,0,0,0,0,0,6,6,6,1,0,1,0,,,,,,,,,,,,,,,,,,,,,,,,,,,,,,,,,,,,,,,,,,,,,,,,,,,,,,,,,,,,,,,,30,,,,,,,,2198.639593300002,2198.639593300002,2198.639593300002,2198.639593300002,2198.639593300002,,,,,down,0.6404019999899901,1,1,0,99,-0.08,0.07999999999999997,down,0.5532746000098996,,,,,,,,,,,,,,,,,,,,,,,,,,,,,,,,,,,,,,,,,,,,,,,,,,,,,,,,Y2EEUW,train_x,red_square,top_left,2025-07-10_17h11.20.215,HideSeek_v1,2022.2.5,59.9732519266946,
