trialInstr,x_fixStart,y_fixStart,x_corrSteps,y_corrSteps,x_nrSteps,y_nrSteps,alienID,trialLength,version,trialTrain,praclen,testlen,trial_label,break_on_off,beforeExpLoop.thisRepN,beforeExpLoop.thisTrialN,beforeExpLoop.thisN,beforeExpLoop.thisIndex,mini_instr_trials.thisRepN,mini_instr_trials.thisTrialN,mini_instr_trials.thisN,mini_instr_trials.thisIndex,instrLoop.thisRepN,instrLoop.thisTrialN,instrLoop.thisN,instrLoop.thisIndex,repeat_prac.thisRepN,repeat_prac.thisTrialN,repeat_prac.thisN,repeat_prac.thisIndex,trainLoop.thisRepN,trainLoop.thisTrialN,trainLoop.thisN,trainLoop.thisIndex,moveLoop_train.thisRepN,moveLoop_train.thisTrialN,moveLoop_train.thisN,moveLoop_train.thisIndex,experiment.thisRepN,experiment.thisTrialN,experiment.thisN,experiment.thisIndex,moveLoop_test.thisRepN,moveLoop_test.thisTrialN,moveLoop_test.thisN,moveLoop_test.thisIndex,mini_instr2_trials.thisRepN,mini_instr2_trials.thisTrialN,mini_instr2_trials.thisN,mini_instr2_trials.thisIndex,start_all_time,url,slideStim,audioStim,slides.started,sounds.started,nextButton.numClicks,nextButton.timesOn,nextButton.timesOff,prev_but.numClicks,prev_but.timesOn,prev_but.timesOff,alienStim,instrFile,alienStim_instr,gridImage_instr.started,startPos_3.started,key_instr.started,alienImage_3.started,sounds_1.started,key_instr.keys,key_instr.rt,all_x,all_y,FBy_corrSteps,FBy_fixStart,FBx_corrSteps,FBx_fixStart,FBy_pathSize_check,FBx_pathSize_check,gridImage_9.started,alienImageFB_3.started,startPosFB_3.started,keyFB_3.started,pathLine_ydir_2.started,pathLine_xdir_2.started,alienFace_3.started,sounds_2.started,RTFB_instr,keyFB_3.keys,keyFB_3.rt,draw_alienStim,draw_alienID,test_x,nrepcount,perfthres,percthres,earlierperf,earlystop,nextPrac,fileidx,praclen,saveACC_train,pracFile,nextPrac_train,addNrep,fileidx_endr,repExp,showearly,gridImage_4.started,startPos.started,movePos.started,key_resp.started,alienImage.started,buttonPress_train,RTchoice_train,cumAcctrain,aCorr,saveACC_choice,corrAns,x_movePos_end,y_movePos_end,key_resp.keys,key_resp.rt,wLy_dir,wLx_dir,x_movePos,y_movePos,text_2.started,text_2.stopped,aft_x_corrPos,aft_y_corrPos,y_pathSize_check,x_pathSize_check,y_pathdirY,x_pathdirY,x_pathdirX,x_corrPos,y_corrPos,gridImage_6.started,alienImageFB_2.started,startPosFB_2.started,movePosFB_2.started,keyFB_2.started,pathLine_xdir.started,pathLine_ydir.started,alienFace.started,sounds_4.started,RT_FBtrain,keyFB_2.keys,keyFB_2.rt,saveACC_pre,ACC,within_saveACC_train,earlystop_wloop,cumAcctrain_check,gridImage_3.started,alienImage_test.started,startPos_test.started,movePos_test.started,key_resp_test.started,wLy_dir_test,wLx_dir_test,buttonPress_test,RTchoice_test,cumAcctest,corrAns_test,key_resp_test.keys,key_resp_test.rt,text_3.started,text_3.stopped,total_time,end_all_time,key_resp_3.keys,slides_2.started,sounds_3.started,nextButton_2.numClicks,nextButton_2.timesOn,nextButton_2.timesOff,prev_but_2.numClicks,prev_but_2.timesOn,prev_but_2.timesOff,bye.started,participant,train_first,00_coordinate,starting corner,date,expName,psychopyVersion,frameRate,
,,,,,,,,,,,,,,,0,0,0,0,0,0,0,0,,,,,,,,,,,,,,,,,,,,,,,,,,,,,start_all_time,testround,conditions/schedules/train_x_first/red_square_00/top_left/instructions/Slide1.png,conditions/schedules/train_x_first/red_square_00/top_left/instructions/Audio1.wav,604.9662647000005,604.9144217000351,1,[8.351909000000887],[8.351916899999196],0,,,,,,,,,,,,,,,,,,,,,,,,,,,,,,,,,,,,,,,,,,,,,,,,,,,,,,,,,,,,,,,,,,,,,,,,,,,,,,,,,,,,,,,,,,,,,,,,,,,,,,,,,,,,,,,,,,,,,,,,,,,,Y41LPD,train_x,red_square,top_left,2025-08-29_14h52.28.731,HideSeek_v1,2022.2.5,59.81097339947374,
,,,,,,,,,,,,,,,0,0,0,0,1,0,1,0,,,,,,,,,,,,,,,,,,,,,,,,,,,,,,,conditions/schedules/train_x_first/red_square_00/top_left/instructions/Slide2.png,conditions/schedules/train_x_first/red_square_00/top_left/instructions/Audio2.wav,613.3418192999998,613.341883799998,2,"[8.351909000000887, 18.14672849999988]","[0.0312928000021202, 18.146735100002843]",0,,,,,,,,,,,,,,,,,,,,,,,,,,,,,,,,,,,,,,,,,,,,,,,,,,,,,,,,,,,,,,,,,,,,,,,,,,,,,,,,,,,,,,,,,,,,,,,,,,,,,,,,,,,,,,,,,,,,,,,,,,,,Y41LPD,train_x,red_square,top_left,2025-08-29_14h52.28.731,HideSeek_v1,2022.2.5,59.81097339947374,
,,,,,,,,,,,,,,,0,0,0,0,2,0,2,0,,,,,,,,,,,,,,,,,,,,,,,,,,,,,,,conditions/schedules/train_x_first/red_square_00/top_left/instructions/Slide3.png,conditions/schedules/train_x_first/red_square_00/top_left/instructions/Audio3.wav,631.5626499999998,631.5572024000012,3,"[8.351909000000887, 18.14672849999988, 16.889866800000163]","[0.0312928000021202, 0.00023430000146618113, 16.88987310000084]",0,,,,,,,,,,,,,,,,,,,,,,,,,,,,,,,,,,,,,,,,,,,,,,,,,,,,,,,,,,,,,,,,,,,,,,,,,,,,,,,,,,,,,,,,,,,,,,,,,,,,,,,,,,,,,,,,,,,,,,,,,,,,Y41LPD,train_x,red_square,top_left,2025-08-29_14h52.28.731,HideSeek_v1,2022.2.5,59.81097339947374,
,,,,,,,,,,,,,,,0,0,0,0,3,0,3,0,,,,,,,,,,,,,,,,,,,,,,,,,,,,,,,conditions/schedules/train_x_first/red_square_00/top_left/instructions/Slide4.png,conditions/schedules/train_x_first/red_square_00/top_left/instructions/Audio4.wav,648.5363313999987,648.5374503000014,4,"[8.351909000000887, 18.14672849999988, 16.889866800000163, 19.498724500001117]","[0.0312928000021202, 0.00023430000146618113, 0.032325100000889506, 19.498734100001457]",0,,,,,,,,,,,,,,,,,,,,,,,,,,,,,,,,,,,,,,,,,,,,,,,,,,,,,,,,,,,,,,,,,,,,,,,,,,,,,,,,,,,,,,,,,,,,,,,,,,,,,,,,,,,,,,,,,,,,,,,,,,,,Y41LPD,train_x,red_square,top_left,2025-08-29_14h52.28.731,HideSeek_v1,2022.2.5,59.81097339947374,
,,,,,,,,,,,,,,,0,0,0,0,4,0,4,0,,,,,,,,,,,,,,,,,,,,,,,,,,,,,,,conditions/schedules/train_x_first/red_square_00/top_left/instructions/Slide5.png,conditions/schedules/train_x_first/red_square_00/top_left/instructions/Audio5.wav,668.1017361999984,668.1041574999999,5,"[8.351909000000887, 18.14672849999988, 16.889866800000163, 19.498724500001117, 5.738076900001033]","[0.0312928000021202, 0.00023430000146618113, 0.032325100000889506, 0.033343999999488005, 5.738083600001119]",0,,,,,,,,,,,,,,,,,,,,,,,,,,,,,,,,,,,,,,,,,,,,,,,,,,,,,,,,,,,,,,,,,,,,,,,,,,,,,,,,,,,,,,,,,,,,,,,,,,,,,,,,,,,,,,,,,,,,,,,,,,,,Y41LPD,train_x,red_square,top_left,2025-08-29_14h52.28.731,HideSeek_v1,2022.2.5,59.81097339947374,
,,,,,,,,,,,,,,,0,0,0,0,5,0,5,0,,,,,,,,,,,,,,,,,,,,,,,,,,,,,,,conditions/schedules/train_x_first/red_square_00/top_left/instructions/Slide6.png,conditions/schedules/train_x_first/red_square_00/top_left/instructions/Audio6.wav,673.8968609000003,673.8921595,6,"[8.351909000000887, 18.14672849999988, 16.889866800000163, 19.498724500001117, 5.738076900001033, 5.44820719999916]","[0.0312928000021202, 0.00023430000146618113, 0.032325100000889506, 0.033343999999488005, 0.031483599999774015, 5.448213499999838]",0,,,,,,,,,,,,,,,,,,,,,,,,,,,,,,,,,,,,,,,,,,,,,,,,,,,,,,,,,,,,,,,,,,,,,,,,,,,,,,,,,,,,,,,,,,,,,,,,,,,,,,,,,,,,,,,,,,,,,,,,,,,,Y41LPD,train_x,red_square,top_left,2025-08-29_14h52.28.731,HideSeek_v1,2022.2.5,59.81097339947374,
,,,,,,,,,,,,,,,0,0,0,0,6,0,6,0,,,,,,,,,,,,,,,,,,,,,,,,,,,,,,,conditions/schedules/train_x_first/red_square_00/top_left/instructions/Slide7.png,conditions/schedules/train_x_first/red_square_00/top_left/instructions/Audio7.wav,679.4214892999989,679.4136070000004,7,"[8.351909000000887, 18.14672849999988, 16.889866800000163, 19.498724500001117, 5.738076900001033, 5.44820719999916, 6.761628100000962]","[0.0312928000021202, 0.00023430000146618113, 0.032325100000889506, 0.033343999999488005, 0.031483599999774015, 0.03584279999995488, 6.761634700000286]",0,,,,,,,,,,,,,,,,,,,,,,,,,,,,,,,,,,,,,,,,,,,,,,,,,,,,,,,,,,,,,,,,,,,,,,,,,,,,,,,,,,,,,,,,,,,,,,,,,,,,,,,,,,,,,,,,,,,,,,,,,,,,Y41LPD,train_x,red_square,top_left,2025-08-29_14h52.28.731,HideSeek_v1,2022.2.5,59.81097339947374,
,,,,,,,,,,,,,,,0,0,0,0,7,0,7,0,,,,,,,,,,,,,,,,,,,,,,,,,,,,,,,conditions/schedules/train_x_first/red_square_00/top_left/instructions/Slide8.png,conditions/schedules/train_x_first/red_square_00/top_left/instructions/Audio8.wav,686.2367761999994,686.2356603999987,8,"[8.351909000000887, 18.14672849999988, 16.889866800000163, 19.498724500001117, 5.738076900001033, 5.44820719999916, 6.761628100000962, 12.306634200002009]","[0.0312928000021202, 0.00023430000146618113, 0.032325100000889506, 0.033343999999488005, 0.031483599999774015, 0.03584279999995488, 0.0471319999996922, 12.306641099999979]",0,,,,,,,,,,,,,,,,,,,,,,,,,,,,,,,,,,,,,,,,,,,,,,,,,,,,,,,,,,,,,,,,,,,,,,,,,,,,,,,,,,,,,,,,,,,,,,,,,,,,,,,,,,,,,,,,,,,,,,,,,,,,Y41LPD,train_x,red_square,top_left,2025-08-29_14h52.28.731,HideSeek_v1,2022.2.5,59.81097339947374,
,,,,,,,,,,,,,,,0,0,0,0,8,0,8,0,,,,,,,,,,,,,,,,,,,,,,,,,,,,,,,conditions/schedules/train_x_first/red_square_00/top_left/instructions/Slide9.png,conditions/schedules/train_x_first/red_square_00/top_left/instructions/Audio9.wav,698.6134665999998,698.6125435999984,9,"[8.351909000000887, 18.14672849999988, 16.889866800000163, 19.498724500001117, 5.738076900001033, 5.44820719999916, 6.761628100000962, 12.306634200002009, 6.134902699999657]","[0.0312928000021202, 0.00023430000146618113, 0.032325100000889506, 0.033343999999488005, 0.031483599999774015, 0.03584279999995488, 0.0471319999996922, 0.04782859999977518, 6.134909100001096]",0,,,,,,,,,,,,,,,,,,,,,,,,,,,,,,,,,,,,,,,,,,,,,,,,,,,,,,,,,,,,,,,,,,,,,,,,,,,,,,,,,,,,,,,,,,,,,,,,,,,,,,,,,,,,,,,,,,,,,,,,,,,,Y41LPD,train_x,red_square,top_left,2025-08-29_14h52.28.731,HideSeek_v1,2022.2.5,59.81097339947374,
,,,,,,,,,,,,,,,0,0,0,0,9,0,9,0,,,,,,,,,,,,,,,,,,,,,,,,,,,,,,,conditions/schedules/train_x_first/red_square_00/top_left/instructions/Slide10.png,conditions/schedules/train_x_first/red_square_00/top_left/instructions/Audio10.wav,704.8009347000007,704.800980500001,10,"[8.351909000000887, 18.14672849999988, 16.889866800000163, 19.498724500001117, 5.738076900001033, 5.44820719999916, 6.761628100000962, 12.306634200002009, 6.134902699999657, 7.503956299999118]","[0.0312928000021202, 0.00023430000146618113, 0.032325100000889506, 0.033343999999488005, 0.031483599999774015, 0.03584279999995488, 0.0471319999996922, 0.04782859999977518, 0.04781540000112727, 7.5039630999999645]",0,,,,,,,,,,,,,,,,,,,,,,,,,,,,,,,,,,,,,,,,,,,,,,,,,,,,,,,,,,,,,,,,,,,,,,,,,,,,,,,,,,,,,,,,,,,,,,,,,,,,,,,,,,,,,,,,,,,,,,,,,,,,Y41LPD,train_x,red_square,top_left,2025-08-29_14h52.28.731,HideSeek_v1,2022.2.5,59.81097339947374,
,,,,,,,,,,,,,,,0,0,0,0,10,0,10,0,,,,,,,,,,,,,,,,,,,,,,,,,,,,,,,conditions/schedules/train_x_first/red_square_00/top_left/instructions/Slide11.png,conditions/schedules/train_x_first/red_square_00/top_left/instructions/Audio11.wav,712.3613234000004,712.3574037999978,11,"[8.351909000000887, 18.14672849999988, 16.889866800000163, 19.498724500001117, 5.738076900001033, 5.44820719999916, 6.761628100000962, 12.306634200002009, 6.134902699999657, 7.503956299999118, 9.851972799999203]","[0.0312928000021202, 0.00023430000146618113, 0.032325100000889506, 0.033343999999488005, 0.031483599999774015, 0.03584279999995488, 0.0471319999996922, 0.04782859999977518, 0.04781540000112727, 0.03195209999830695, 9.851980199997342]",0,,,,,,,,,,,,,,,,,,,,,,,,,,,,,,,,,,,,,,,,,,,,,,,,,,,,,,,,,,,,,,,,,,,,,,,,,,,,,,,,,,,,,,,,,,,,,,,,,,,,,,,,,,,,,,,,,,,,,,,,,,,,Y41LPD,train_x,red_square,top_left,2025-08-29_14h52.28.731,HideSeek_v1,2022.2.5,59.81097339947374,
,,,,,,,,,,,,,,,0,0,0,0,11,0,11,0,,,,,,,,,,,,,,,,,,,,,,,,,,,,,,,conditions/schedules/train_x_first/red_square_00/top_left/instructions/Slide12.png,conditions/schedules/train_x_first/red_square_00/top_left/instructions/Audio12.wav,722.2827590999987,722.2820824999999,12,"[8.351909000000887, 18.14672849999988, 16.889866800000163, 19.498724500001117, 5.738076900001033, 5.44820719999916, 6.761628100000962, 12.306634200002009, 6.134902699999657, 7.503956299999118, 9.851972799999203, 12.690836499998113]","[0.0312928000021202, 0.00023430000146618113, 0.032325100000889506, 0.033343999999488005, 0.031483599999774015, 0.03584279999995488, 0.0471319999996922, 0.04782859999977518, 0.04781540000112727, 0.03195209999830695, 0.03074930000002496, 12.690843699998368]",0,,,,,,,,,,,,,,,,,,,,,,,,,,,,,,,,,,,,,,,,,,,,,,,,,,,,,,,,,,,,,,,,,,,,,,,,,,,,,,,,,,,,,,,,,,,,,,,,,,,,,,,,,,,,,,,,,,,,,,,,,,,,Y41LPD,train_x,red_square,top_left,2025-08-29_14h52.28.731,HideSeek_v1,2022.2.5,59.81097339947374,
1,3,7,8,7,5,0,66,2,instr_dim1_1,,,,,,0,0,0,0,,,,,0,0,0,0,,,,,,,,,,,,,,,,,,,,,,,,,,,,,,,,,,,,,stimuli/alien_stimuli/66.png,conditions/schedules/train_x_first/red_square_00/top_left/inputInstr_1.xlsx,stimuli/alien_stimuli/66.png,735.0746843999987,735.0746843999987,735.0746843999987,735.0746843999987,735.0762029000002,return,8.730380300003162,"[-0.16, -0.08, 0, 0.08, 0.16, 0.24, 0.32, 0.4, 0.48, 0.56]","[-0.4, -0.32, -0.24, -0.16, -0.08, 0, 0.08, 0.16, 0.24, 0.32]",7,7,8,3,0.0,0.4,743.950388199999,743.950388199999,743.950388199999,743.950388199999,743.950388199999,743.950388199999,743.950388199999,743.9332882999993,7.274004300001252,return,7.137394800003676,stimuli/alien_stimuli/66.png,66,3,1,,,,,,,,,,,,,,,,,,,,,,,,,,,,,,,,,,,,,,,,,,,,,,,,,,,,,,,,,,,,,,,,,,,,,,,,,,,,,,,,,,,,,,,,,Y41LPD,train_x,red_square,top_left,2025-08-29_14h52.28.731,HideSeek_v1,2022.2.5,59.81097339947374,
,,,,,,,,,,,30,,,,0,0,0,0,,,,,,,,,,,,,,,,,,,,,,,,,,,,,,,,,,,,,,,,,,,,,,,,,,,,,,,,,,,,,,,,,,,,,,,,,,,,,,21,0.7,0,0,99,1,30,0,conditions/schedules/train_x_first/red_square_00/top_left/inputTrain_1.1.xlsx,99,1,1,1,0,,,,,,,,,,,,,,,,,,,,,,,,,,,,,,,,,,,,,,,,,,,,,,,,,,,,,,,,,,,,,,,,,,,,,,,,,,,Y41LPD,train_x,red_square,top_left,2025-08-29_14h52.28.731,HideSeek_v1,2022.2.5,59.81097339947374,
,,,,,,,,,,,,,,,1,0,1,0,0,0,0,0,,,,,,,,,,,,,,,,,,,,,,,,,,,,,,,conditions/schedules/train_x_first/red_square_00/top_left/instructions/Slide13.png,conditions/schedules/train_x_first/red_square_00/top_left/instructions/Audio13.wav,751.2829553999982,751.2728867000017,13,"[8.351909000000887, 18.14672849999988, 16.889866800000163, 19.498724500001117, 5.738076900001033, 5.44820719999916, 6.761628100000962, 12.306634200002009, 6.134902699999657, 7.503956299999118, 9.851972799999203, 12.690836499998113, 17.051844800000254]","[0.0312928000021202, 0.00023430000146618113, 0.032325100000889506, 0.033343999999488005, 0.031483599999774015, 0.03584279999995488, 0.0471319999996922, 0.04782859999977518, 0.04781540000112727, 0.03195209999830695, 0.03074930000002496, 12.690843699998368, 17.05185540000093]",0,,,,,,,,,,,,,,,,,,,,,,,,,,,,,,,,,,,,,,,,,,,,,,,,,,,,,,,,,,,,,,,,,,,,,,,,,,,,,,,,,,,,,,,,,,,,,,,,,,,,,,,,,,,,,,,,,,,,,,,,,,,,Y41LPD,train_x,red_square,top_left,2025-08-29_14h52.28.731,HideSeek_v1,2022.2.5,59.81097339947374,
,,,,,,,,,,,,,,,1,0,1,0,1,0,1,0,,,,,,,,,,,,,,,,,,,,,,,,,,,,,,,conditions/schedules/train_x_first/red_square_00/top_left/instructions/Slide14.png,conditions/schedules/train_x_first/red_square_00/top_left/instructions/Audio14.wav,768.4097746999978,768.4039171999993,14,"[8.351909000000887, 18.14672849999988, 16.889866800000163, 19.498724500001117, 5.738076900001033, 5.44820719999916, 6.761628100000962, 12.306634200002009, 6.134902699999657, 7.503956299999118, 9.851972799999203, 12.690836499998113, 17.051844800000254, 13.436958799997228]","[0.0312928000021202, 0.00023430000146618113, 0.032325100000889506, 0.033343999999488005, 0.031483599999774015, 0.03584279999995488, 0.0471319999996922, 0.04782859999977518, 0.04781540000112727, 0.03195209999830695, 0.03074930000002496, 12.690843699998368, 0.0314708999976574, 13.436965799999598]",0,,,,,,,,,,,,,,,,,,,,,,,,,,,,,,,,,,,,,,,,,,,,,,,,,,,,,,,,,,,,,,,,,,,,,,,,,,,,,,,,,,,,,,,,,,,,,,,,,,,,,,,,,,,,,,,,,,,,,,,,,,,,Y41LPD,train_x,red_square,top_left,2025-08-29_14h52.28.731,HideSeek_v1,2022.2.5,59.81097339947374,
2,4,5,4,5,0,0,16,2,instr_dim1_1,,,,,,1,0,1,0,,,,,0,0,0,0,,,,,,,,,,,,,,,,,,,,,,,,,,,,,,,,,,,,,stimuli/alien_stimuli/16.png,conditions/schedules/train_x_first/red_square_00/top_left/inputInstr_1.xlsx,stimuli/alien_stimuli/16.png,781.9563797999981,781.9563797999981,781.9563797999981,781.9563797999981,781.9484952999996,return,6.400638600000093,"[-0.16, -0.08, 0, 0.08, 0.16, 0.24, 0.32, 0.4, 0.48, 0.56]","[-0.4, -0.32, -0.24, -0.16, -0.08, 0, 0.08, 0.16, 0.24, 0.32]",5,5,4,4,0.0,0.0,788.5268484000007,788.5268484000007,788.5268484000007,788.5268484000007,788.5268484000007,788.5268484000007,788.5268484000007,788.5203147000019,7.640717300000688,return,7.478714200002287,stimuli/alien_stimuli/16.png,16,4,2,,,,,,,,,,,,,,,,,,,,,,,,,,,,,,,,,,,,,,,,,,,,,,,,,,,,,,,,,,,,,,,,,,,,,,,,,,,,,,,,,,,,,,,,,Y41LPD,train_x,red_square,top_left,2025-08-29_14h52.28.731,HideSeek_v1,2022.2.5,59.81097339947374,
,,,,,,,,,,,30,,,,1,0,1,0,,,,,,,,,,,,,,,,,,,,,,,,,,,,,,,,,,,,,,,,,,,,,,,,,,,,,,,,,,,,,,,,,,,,,,,,,,,,,,21,0.7,0,0,99,1,30,0,conditions/schedules/train_x_first/red_square_00/top_left/inputTrain_1.1.xlsx,99,1,1,1,0,,,,,,,,,,,,,,,,,,,,,,,,,,,,,,,,,,,,,,,,,,,,,,,,,,,,,,,,,,,,,,,,,,,,,,,,,,,Y41LPD,train_x,red_square,top_left,2025-08-29_14h52.28.731,HideSeek_v1,2022.2.5,59.81097339947374,
,,,,,,,,,,,,,,,2,0,2,0,0,0,0,0,,,,,,,,,,,,,,,,,,,,,,,,,,,,,,,conditions/schedules/train_x_first/red_square_00/top_left/instructions/Slide15.png,conditions/schedules/train_x_first/red_square_00/top_left/instructions/Audio15.wav,796.2178320999992,796.2098911999988,15,"[8.351909000000887, 18.14672849999988, 16.889866800000163, 19.498724500001117, 5.738076900001033, 5.44820719999916, 6.761628100000962, 12.306634200002009, 6.134902699999657, 7.503956299999118, 9.851972799999203, 12.690836499998113, 17.051844800000254, 13.436958799997228, 30.047907200001646]","[0.0312928000021202, 0.00023430000146618113, 0.032325100000889506, 0.033343999999488005, 0.031483599999774015, 0.03584279999995488, 0.0471319999996922, 0.04782859999977518, 0.04781540000112727, 0.03195209999830695, 0.03074930000002496, 12.690843699998368, 0.0314708999976574, 13.436965799999598, 30.0479133000008]",0,,,,,,,,,,,,,,,,,,,,,,,,,,,,,,,,,,,,,,,,,,,,,,,,,,,,,,,,,,,,,,,,,,,,,,,,,,,,,,,,,,,,,,,,,,,,,,,,,,,,,,,,,,,,,,,,,,,,,,,,,,,,Y41LPD,train_x,red_square,top_left,2025-08-29_14h52.28.731,HideSeek_v1,2022.2.5,59.81097339947374,
,,,,,,,,,,,,,,,2,0,2,0,1,0,1,0,,,,,,,,,,,,,,,,,,,,,,,,,,,,,,,conditions/schedules/train_x_first/red_square_00/top_left/instructions/Slide16.png,conditions/schedules/train_x_first/red_square_00/top_left/instructions/Audio16.wav,826.3467019999989,826.3346442999991,16,"[8.351909000000887, 18.14672849999988, 16.889866800000163, 19.498724500001117, 5.738076900001033, 5.44820719999916, 6.761628100000962, 12.306634200002009, 6.134902699999657, 7.503956299999118, 9.851972799999203, 12.690836499998113, 17.051844800000254, 13.436958799997228, 30.047907200001646, 21.536984999998822]","[0.0312928000021202, 0.00023430000146618113, 0.032325100000889506, 0.033343999999488005, 0.031483599999774015, 0.03584279999995488, 0.0471319999996922, 0.04782859999977518, 0.04781540000112727, 0.03195209999830695, 0.03074930000002496, 12.690843699998368, 0.0314708999976574, 13.436965799999598, 0.013605100000859238, 21.536991000000853]",0,,,,,,,,,,,,,,,,,,,,,,,,,,,,,,,,,,,,,,,,,,,,,,,,,,,,,,,,,,,,,,,,,,,,,,,,,,,,,,,,,,,,,,,,,,,,,,,,,,,,,,,,,,,,,,,,,,,,,,,,,,,,Y41LPD,train_x,red_square,top_left,2025-08-29_14h52.28.731,HideSeek_v1,2022.2.5,59.81097339947374,
,2,6,5,6,3,0,46,,train_dim1_1,1,30,,,,2,0,2,0,,,,,,,,,0,0,0,0,0,0,0,0,0,0,0,0,,,,,,,,,,,,,,,,,,,,,,,,,stimuli/alien_stimuli/46.png,,,,,,,,,,,,,,,,,,,,,,,,,,,,,,,,,,,,,,,30,,,,,,,,847.9916983999974,847.9916983999974,847.9916983999974,847.9916983999974,847.9916983999974,right,8.482330400001956,0,0,0,99,0.08,0.08,right,8.374789400000736,,,,,,,,,,,,,,,,,,,,,,,,,,,,,,,,,,,,,,,,,,,,,,,,,,,,,,,,,,,,Y41LPD,train_x,red_square,top_left,2025-08-29_14h52.28.731,HideSeek_v1,2022.2.5,59.81097339947374,
,2,6,5,6,3,0,46,,train_dim1_1,1,30,,,,2,0,2,0,,,,,,,,,0,0,0,0,0,0,0,0,1,0,1,0,,,,,,,,,,,,,,,,,,,,,,,,,,,,,,,,,,,,,,,,,,,,,,,,,,,,,,,,,,,,,,,,30,,,,,,,,856.4582773999973,856.4582773999973,856.4582773999973,856.4582773999973,856.4582773999973,right,2.7116519000010157,0,0,0,99,0.16,0.08,right,2.6259451000005356,,,,,,,,,,,,,,,,,,,,,,,,,,,,,,,,,,,,,,,,,,,,,,,,,,,,,,,,,,,,Y41LPD,train_x,red_square,top_left,2025-08-29_14h52.28.731,HideSeek_v1,2022.2.5,59.81097339947374,
,2,6,5,6,3,0,46,,train_dim1_1,1,30,,,,2,0,2,0,,,,,,,,,0,0,0,0,0,0,0,0,2,0,2,0,,,,,,,,,,,,,,,,,,,,,,,,,,,,,,,,,,,,,,,,,,,,,,,,,,,,,,,,,,,,,,,,30,,,,,,,,859.1821792999981,859.1821792999981,859.1821792999981,859.1821792999981,859.1821792999981,right,1.123158099999273,0,0,0,99,0.24,0.08,right,1.041502699998091,,,,,,,,,,,,,,,,,,,,,,,,,,,,,,,,,,,,,,,,,,,,,,,,,,,,,,,,,,,,Y41LPD,train_x,red_square,top_left,2025-08-29_14h52.28.731,HideSeek_v1,2022.2.5,59.81097339947374,
,2,6,5,6,3,0,46,,train_dim1_1,1,30,,,,2,0,2,0,,,,,,,,,0,0,0,0,0,0,0,0,3,0,3,0,,,,,,,,,,,,,,,,,,,,,,,,,,,,,,,,,,,,,,,,,,,,,,,,,,,,,,,,,,,,,,,,30,,,,,,,,860.3105952000005,860.3105952000005,860.3105952000005,860.3105952000005,860.3105952000005,return,1.6943584000000556,1,0,0,1,0.24,0.08,return,1.6125112000008812,0,3,0.24,0.08,,,,,,,,,,,,,,,,,,,,,,,,,,,,,,,,,,,,,,,,,,,,,,,,,,,,,,,,Y41LPD,train_x,red_square,top_left,2025-08-29_14h52.28.731,HideSeek_v1,2022.2.5,59.81097339947374,
,2,9,2,9,0,0,16,,train_dim1_1,2,30,,,,2,0,2,0,,,,,,,,,0,0,0,0,0,1,1,1,0,0,0,0,,,,,,,,,,,,,,,,,,,,,,,,,stimuli/alien_stimuli/16.png,,,,,,,,,,,,,,,,,,,,,,,,,,,,,stimuli/alien_stimuli/46.png,46,2,3,,,,,,,30,,,,,,,,878.5438570999977,878.5438570999977,878.5438570999977,878.5438570999977,878.5438570999977,return,6.775893400001223,2,0,0,1,0,0.32,return,6.663766300003772,0,3,0,0.32,876.9605630999977,878.5438570999977,0.24,0.08,0.0,0.24,0.08,0.24,0.12,0.24,0.08,863.5806016999995,863.5806016999995,863.5806016999995,863.5806016999995,863.5806016999995,863.5806016999995,863.5806016999995,863.5806016999995,863.5659692000013,13.496603200001118,return,13.359851799999888,,,,,,,,,,,,,,,,,,,,,,,,,,,,,,,,,Y41LPD,train_x,red_square,top_left,2025-08-29_14h52.28.731,HideSeek_v1,2022.2.5,59.81097339947374,
,4,9,5,9,1,0,26,,train_dim1_1,3,30,,,,2,0,2,0,,,,,,,,,0,0,0,0,0,2,2,2,0,0,0,0,,,,,,,,,,,,,,,,,,,,,,,,,stimuli/alien_stimuli/26.png,,,,,,,,,,,,,,,,,,,,,,,,,,,,,stimuli/alien_stimuli/16.png,16,2,4,,,,,,,30,,,,,,,,898.0918233999982,898.0918233999982,898.0918233999982,898.0918233999982,898.0918233999982,right,8.424713899999915,2,0,0,99,0.24,0.32,right,8.32721500000116,,,,,896.5101383000001,898.0918233999982,0,0.32,0.0,0.0,0.32,0,0.0,0,0.32,886.8848738999986,886.8848738999986,886.8848738999986,886.8848738999986,886.8848738999986,886.8848738999986,886.8848738999986,886.8848738999986,886.8685681000003,9.761282400002528,return,9.604053800001566,,,,,,,,,,,,,,,,,,,,,,,,,,,,,,,,,Y41LPD,train_x,red_square,top_left,2025-08-29_14h52.28.731,HideSeek_v1,2022.2.5,59.81097339947374,
,4,9,5,9,1,0,26,,train_dim1_1,3,30,,,,2,0,2,0,,,,,,,,,0,0,0,0,0,2,2,2,1,0,1,0,,,,,,,,,,,,,,,,,,,,,,,,,,,,,,,,,,,,,,,,,,,,,,,,,,,,,,,,,,,,,,,,30,,,,,,,,906.5068429999992,906.5068429999992,906.5068429999992,906.5068429999992,906.5068429999992,right,0.9070698999967135,2,0,0,99,0.32,0.32,right,0.8155788000040047,,,,,,,,,,,,,,,,,,,,,,,,,,,,,,,,,,,,,,,,,,,,,,,,,,,,,,,,,,,,Y41LPD,train_x,red_square,top_left,2025-08-29_14h52.28.731,HideSeek_v1,2022.2.5,59.81097339947374,
,4,9,5,9,1,0,26,,train_dim1_1,3,30,,,,2,0,2,0,,,,,,,,,0,0,0,0,0,2,2,2,2,0,2,0,,,,,,,,,,,,,,,,,,,,,,,,,,,,,,,,,,,,,,,,,,,,,,,,,,,,,,,,,,,,,,,,30,,,,,,,,907.4198824999985,907.4198824999985,907.4198824999985,907.4198824999985,907.4198824999985,right,0.7266576000001805,2,0,0,99,0.4,0.32,right,0.6345198000017263,,,,,,,,,,,,,,,,,,,,,,,,,,,,,,,,,,,,,,,,,,,,,,,,,,,,,,,,,,,,Y41LPD,train_x,red_square,top_left,2025-08-29_14h52.28.731,HideSeek_v1,2022.2.5,59.81097339947374,
,4,9,5,9,1,0,26,,train_dim1_1,3,30,,,,2,0,2,0,,,,,,,,,0,0,0,0,0,2,2,2,3,0,3,0,,,,,,,,,,,,,,,,,,,,,,,,,,,,,,,,,,,,,,,,,,,,,,,,,,,,,,,,,,,,,,,,30,,,,,,,,908.1555861999987,908.1555861999987,908.1555861999987,908.1555861999987,908.1555861999987,right,3.3124610999984725,2,0,0,99,0.48000000000000004,0.32,right,3.2259441999995033,,,,,,,,,,,,,,,,,,,,,,,,,,,,,,,,,,,,,,,,,,,,,,,,,,,,,,,,,,,,Y41LPD,train_x,red_square,top_left,2025-08-29_14h52.28.731,HideSeek_v1,2022.2.5,59.81097339947374,
,4,9,5,9,1,0,26,,train_dim1_1,3,30,,,,2,0,2,0,,,,,,,,,0,0,0,0,0,2,2,2,4,0,4,0,,,,,,,,,,,,,,,,,,,,,,,,,,,,,,,,,,,,,,,,,,,,,,,,,,,,,,,,,,,,,,,,30,,,,,,,,911.4742947999985,911.4742947999985,911.4742947999985,911.4742947999985,911.4742947999985,return,0.6759895000031975,2,0,0,0,0.48000000000000004,0.32,return,0.5981926000022213,0,7,0.48000000000000004,0.32,,,,,,,,,,,,,,,,,,,,,,,,,,,,,,,,,,,,,,,,,,,,,,,,,,,,,,,,Y41LPD,train_x,red_square,top_left,2025-08-29_14h52.28.731,HideSeek_v1,2022.2.5,59.81097339947374,
,2,8,6,8,4,0,56,,train_dim1_1,4,30,,,,2,0,2,0,,,,,,,,,0,0,0,0,0,3,3,3,0,0,0,0,,,,,,,,,,,,,,,,,,,,,,,,,stimuli/alien_stimuli/56.png,,,,,,,,,,,,,,,,,,,,,,,,,,,,,stimuli/alien_stimuli/26.png,26,4,5,,,,,,,30,,,,,,,,924.8126913999986,924.8126913999986,924.8126913999986,924.8126913999986,924.8126913999986,right,4.609719699998095,2,0,0,99,0.08,0.24,right,4.513713700001972,,,,,923.2488392999985,924.8126913999986,0.24,0.32,0.0,0.08,0.32,0.24,0.2,0.24,0.32,913.7457520999997,913.7457520999997,913.7457520999997,913.7457520999997,913.7457520999997,913.7457520999997,913.7457520999997,913.7457520999997,913.7242396000016,9.643728700000793,return,9.480466000000888,,,,,,,,,,,,,,,,,,,,,,,,,,,,,,,,,Y41LPD,train_x,red_square,top_left,2025-08-29_14h52.28.731,HideSeek_v1,2022.2.5,59.81097339947374,
,2,8,6,8,4,0,56,,train_dim1_1,4,30,,,,2,0,2,0,,,,,,,,,0,0,0,0,0,3,3,3,1,0,1,0,,,,,,,,,,,,,,,,,,,,,,,,,,,,,,,,,,,,,,,,,,,,,,,,,,,,,,,,,,,,,,,,30,,,,,,,,929.4212969,929.4212969,929.4212969,929.4212969,929.4212969,right,0.626285900001676,2,0,0,99,0.16,0.24,right,0.5456532000025618,,,,,,,,,,,,,,,,,,,,,,,,,,,,,,,,,,,,,,,,,,,,,,,,,,,,,,,,,,,,Y41LPD,train_x,red_square,top_left,2025-08-29_14h52.28.731,HideSeek_v1,2022.2.5,59.81097339947374,
,2,8,6,8,4,0,56,,train_dim1_1,4,30,,,,2,0,2,0,,,,,,,,,0,0,0,0,0,3,3,3,2,0,2,0,,,,,,,,,,,,,,,,,,,,,,,,,,,,,,,,,,,,,,,,,,,,,,,,,,,,,,,,,,,,,,,,30,,,,,,,,930.0600195999978,930.0600195999978,930.0600195999978,930.0600195999978,930.0600195999978,right,0.7248818999978539,2,0,0,99,0.24,0.24,right,0.6348899000004167,,,,,,,,,,,,,,,,,,,,,,,,,,,,,,,,,,,,,,,,,,,,,,,,,,,,,,,,,,,,Y41LPD,train_x,red_square,top_left,2025-08-29_14h52.28.731,HideSeek_v1,2022.2.5,59.81097339947374,
,2,8,6,8,4,0,56,,train_dim1_1,4,30,,,,2,0,2,0,,,,,,,,,0,0,0,0,0,3,3,3,3,0,3,0,,,,,,,,,,,,,,,,,,,,,,,,,,,,,,,,,,,,,,,,,,,,,,,,,,,,,,,,,,,,,,,,30,,,,,,,,930.7881226999998,930.7881226999998,930.7881226999998,930.7881226999998,930.7881226999998,right,0.8263759000001301,2,0,0,99,0.32,0.24,right,0.7403979999980947,,,,,,,,,,,,,,,,,,,,,,,,,,,,,,,,,,,,,,,,,,,,,,,,,,,,,,,,,,,,Y41LPD,train_x,red_square,top_left,2025-08-29_14h52.28.731,HideSeek_v1,2022.2.5,59.81097339947374,
,2,8,6,8,4,0,56,,train_dim1_1,4,30,,,,2,0,2,0,,,,,,,,,0,0,0,0,0,3,3,3,4,0,4,0,,,,,,,,,,,,,,,,,,,,,,,,,,,,,,,,,,,,,,,,,,,,,,,,,,,,,,,,,,,,,,,,30,,,,,,,,931.6229203000003,931.6229203000003,931.6229203000003,931.6229203000003,931.6229203000003,right,4.429496599997947,2,0,0,99,0.4,0.24,right,4.343472800002928,,,,,,,,,,,,,,,,,,,,,,,,,,,,,,,,,,,,,,,,,,,,,,,,,,,,,,,,,,,,Y41LPD,train_x,red_square,top_left,2025-08-29_14h52.28.731,HideSeek_v1,2022.2.5,59.81097339947374,
,2,8,6,8,4,0,56,,train_dim1_1,4,30,,,,2,0,2,0,,,,,,,,,0,0,0,0,0,3,3,3,5,0,5,0,,,,,,,,,,,,,,,,,,,,,,,,,,,,,,,,,,,,,,,,,,,,,,,,,,,,,,,,,,,,,,,,30,,,,,,,,936.0609642999989,936.0609642999989,936.0609642999989,936.0609642999989,936.0609642999989,return,0.6084430999981123,2,1,0,0,0.4,0.24,return,0.5181884999983595,0,12,0.4,0.24,,,,,,,,,,,,,,,,,,,,,,,,,,,,,,,,,,,,,,,,,,,,,,,,,,,,,,,,Y41LPD,train_x,red_square,top_left,2025-08-29_14h52.28.731,HideSeek_v1,2022.2.5,59.81097339947374,
,0,7,5,7,5,0,66,,train_dim1_1,5,30,,,,2,0,2,0,,,,,,,,,0,0,0,0,0,4,4,4,0,0,0,0,,,,,,,,,,,,,,,,,,,,,,,,,stimuli/alien_stimuli/66.png,,,,,,,,,,,,,,,,,,,,,,,,,,,,,stimuli/alien_stimuli/56.png,56,2,6,,,,,,,30,,,,,,,,951.5520471999989,951.5520471999989,951.5520471999989,951.5520471999989,951.5520471999989,right,5.5754610000003595,2,1,0,99,-0.08,0.16,right,5.474900799999887,,,,,949.9711841999997,951.5520471999989,0.32,0.24,0.0,0.32,0.24,0.32,0.16,0.32,0.24,938.2576339999978,938.2576339999978,938.2576339999978,938.2576339999978,938.2576339999978,938.2576339999978,938.2576339999978,938.2576339999978,938.244833800001,11.845012400000996,return,11.691840100000263,,,,,,,,,,,,,,,,,,,,,,,,,,,,,,,,,Y41LPD,train_x,red_square,top_left,2025-08-29_14h52.28.731,HideSeek_v1,2022.2.5,59.81097339947374,
,0,7,5,7,5,0,66,,train_dim1_1,5,30,,,,2,0,2,0,,,,,,,,,0,0,0,0,0,4,4,4,1,0,1,0,,,,,,,,,,,,,,,,,,,,,,,,,,,,,,,,,,,,,,,,,,,,,,,,,,,,,,,,,,,,,,,,30,,,,,,,,957.1143248000008,957.1143248000008,957.1143248000008,957.1143248000008,957.1143248000008,right,1.0748862000000372,2,1,0,99,0.0,0.16,right,0.98768900000141,,,,,,,,,,,,,,,,,,,,,,,,,,,,,,,,,,,,,,,,,,,,,,,,,,,,,,,,,,,,Y41LPD,train_x,red_square,top_left,2025-08-29_14h52.28.731,HideSeek_v1,2022.2.5,59.81097339947374,
,0,7,5,7,5,0,66,,train_dim1_1,5,30,,,,2,0,2,0,,,,,,,,,0,0,0,0,0,4,4,4,2,0,2,0,,,,,,,,,,,,,,,,,,,,,,,,,,,,,,,,,,,,,,,,,,,,,,,,,,,,,,,,,,,,,,,,30,,,,,,,,958.1921927000003,958.1921927000003,958.1921927000003,958.1921927000003,958.1921927000003,right,1.1269759999995586,2,1,0,99,0.08,0.16,right,1.0516257000017504,,,,,,,,,,,,,,,,,,,,,,,,,,,,,,,,,,,,,,,,,,,,,,,,,,,,,,,,,,,,Y41LPD,train_x,red_square,top_left,2025-08-29_14h52.28.731,HideSeek_v1,2022.2.5,59.81097339947374,
,0,7,5,7,5,0,66,,train_dim1_1,5,30,,,,2,0,2,0,,,,,,,,,0,0,0,0,0,4,4,4,3,0,3,0,,,,,,,,,,,,,,,,,,,,,,,,,,,,,,,,,,,,,,,,,,,,,,,,,,,,,,,,,,,,,,,,30,,,,,,,,959.3290787000005,959.3290787000005,959.3290787000005,959.3290787000005,959.3290787000005,right,0.6741087000009429,2,1,0,99,0.16,0.16,right,0.5935725000017555,,,,,,,,,,,,,,,,,,,,,,,,,,,,,,,,,,,,,,,,,,,,,,,,,,,,,,,,,,,,Y41LPD,train_x,red_square,top_left,2025-08-29_14h52.28.731,HideSeek_v1,2022.2.5,59.81097339947374,
,0,7,5,7,5,0,66,,train_dim1_1,5,30,,,,2,0,2,0,,,,,,,,,0,0,0,0,0,4,4,4,4,0,4,0,,,,,,,,,,,,,,,,,,,,,,,,,,,,,,,,,,,,,,,,,,,,,,,,,,,,,,,,,,,,,,,,30,,,,,,,,960.0106483999989,960.0106483999989,960.0106483999989,960.0106483999989,960.0106483999989,return,0.726982100000896,2,1,0,0,0.16,0.16,return,0.6455969999988156,0,16,0.16,0.16,,,,,,,,,,,,,,,,,,,,,,,,,,,,,,,,,,,,,,,,,,,,,,,,,,,,,,,,Y41LPD,train_x,red_square,top_left,2025-08-29_14h52.28.731,HideSeek_v1,2022.2.5,59.81097339947374,
,0,5,1,5,1,0,26,,train_dim1_1,6,30,,,,2,0,2,0,,,,,,,,,0,0,0,0,0,5,5,5,0,0,0,0,,,,,,,,,,,,,,,,,,,,,,,,,stimuli/alien_stimuli/26.png,,,,,,,,,,,,,,,,,,,,,,,,,,,,,stimuli/alien_stimuli/66.png,66,0,7,,,,,,,30,,,,,,,,985.0928774999993,985.0928774999993,985.0928774999993,985.0928774999993,985.0928774999993,return,3.1708375999987766,2,1,0,0,-0.16,0,return,3.0720366000023205,0,16,-0.16,0,983.5156338999986,985.0928774999993,0.24,0.16,0.0,0.4,0.16,0.24,0.039999999999999994,0.24,0.16,962.3190135000004,962.3190135000004,962.3190135000004,962.3190135000004,962.3190135000004,962.3190135000004,962.3190135000004,962.3190135000004,962.2977978999993,21.32012190000023,return,21.16616260000228,,,,,,,,,,,,,,,,,,,,,,,,,,,,,,,,,Y41LPD,train_x,red_square,top_left,2025-08-29_14h52.28.731,HideSeek_v1,2022.2.5,59.81097339947374,
,3,5,8,5,5,0,66,,train_dim1_1,7,30,,,,2,0,2,0,,,,,,,,,0,0,0,0,0,6,6,6,0,0,0,0,,,,,,,,,,,,,,,,,,,,,,,,,stimuli/alien_stimuli/66.png,,,,,,,,,,,,,,,,,,,,,,,,,,,,,stimuli/alien_stimuli/26.png,26,0,8,,,,,,,30,,,,,,,,1011.7093886000002,1011.7093886000002,1011.7093886000002,1011.7093886000002,1011.7093886000002,right,7.041547400000127,2,1,0,99,0.16,0,right,6.939968800001225,,,,,1010.1377687999993,1011.7093886000002,-0.08,0,0.0,0.08,0.0,-0.08,-0.12,-0.08,0,989.8372885999997,989.8372885999997,989.8372885999997,989.8372885999997,989.8372885999997,989.8372885999997,989.8372885999997,989.8372885999997,989.8204802000015,20.4364757000003,return,20.284736900001008,,,,,,,,,,,,,,,,,,,,,,,,,,,,,,,,,Y41LPD,train_x,red_square,top_left,2025-08-29_14h52.28.731,HideSeek_v1,2022.2.5,59.81097339947374,
,3,5,8,5,5,0,66,,train_dim1_1,7,30,,,,2,0,2,0,,,,,,,,,0,0,0,0,0,6,6,6,1,0,1,0,,,,,,,,,,,,,,,,,,,,,,,,,,,,,,,,,,,,,,,,,,,,,,,,,,,,,,,,,,,,,,,,30,,,,,,,,1018.7434054999976,1018.7434054999976,1018.7434054999976,1018.7434054999976,1018.7434054999976,right,0.5598925000012969,2,1,0,99,0.24,0,right,0.47729270000127144,,,,,,,,,,,,,,,,,,,,,,,,,,,,,,,,,,,,,,,,,,,,,,,,,,,,,,,,,,,,Y41LPD,train_x,red_square,top_left,2025-08-29_14h52.28.731,HideSeek_v1,2022.2.5,59.81097339947374,
,3,5,8,5,5,0,66,,train_dim1_1,7,30,,,,2,0,2,0,,,,,,,,,0,0,0,0,0,6,6,6,2,0,2,0,,,,,,,,,,,,,,,,,,,,,,,,,,,,,,,,,,,,,,,,,,,,,,,,,,,,,,,,,,,,,,,,30,,,,,,,,1019.3127625999987,1019.3127625999987,1019.3127625999987,1019.3127625999987,1019.3127625999987,right,1.5567902000002505,2,1,0,99,0.32,0,right,1.4823613000007754,,,,,,,,,,,,,,,,,,,,,,,,,,,,,,,,,,,,,,,,,,,,,,,,,,,,,,,,,,,,Y41LPD,train_x,red_square,top_left,2025-08-29_14h52.28.731,HideSeek_v1,2022.2.5,59.81097339947374,
,3,5,8,5,5,0,66,,train_dim1_1,7,30,,,,2,0,2,0,,,,,,,,,0,0,0,0,0,6,6,6,3,0,3,0,,,,,,,,,,,,,,,,,,,,,,,,,,,,,,,,,,,,,,,,,,,,,,,,,,,,,,,,,,,,,,,,30,,,,,,,,1020.8780836999977,1020.8780836999977,1020.8780836999977,1020.8780836999977,1020.8780836999977,right,0.6429917999994359,2,1,0,99,0.4,0,right,0.5625132000022859,,,,,,,,,,,,,,,,,,,,,,,,,,,,,,,,,,,,,,,,,,,,,,,,,,,,,,,,,,,,Y41LPD,train_x,red_square,top_left,2025-08-29_14h52.28.731,HideSeek_v1,2022.2.5,59.81097339947374,
,3,5,8,5,5,0,66,,train_dim1_1,7,30,,,,2,0,2,0,,,,,,,,,0,0,0,0,0,6,6,6,4,0,4,0,,,,,,,,,,,,,,,,,,,,,,,,,,,,,,,,,,,,,,,,,,,,,,,,,,,,,,,,,,,,,,,,30,,,,,,,,1021.5299672999972,1021.5299672999972,1021.5299672999972,1021.5299672999972,1021.5299672999972,right,0.407886500001041,2,1,0,99,0.48000000000000004,0,right,0.3240293999988353,,,,,,,,,,,,,,,,,,,,,,,,,,,,,,,,,,,,,,,,,,,,,,,,,,,,,,,,,,,,Y41LPD,train_x,red_square,top_left,2025-08-29_14h52.28.731,HideSeek_v1,2022.2.5,59.81097339947374,
,3,5,8,5,5,0,66,,train_dim1_1,7,30,,,,2,0,2,0,,,,,,,,,0,0,0,0,0,6,6,6,5,0,5,0,,,,,,,,,,,,,,,,,,,,,,,,,,,,,,,,,,,,,,,,,,,,,,,,,,,,,,,,,,,,,,,,30,,,,,,,,1021.9492193000005,1021.9492193000005,1021.9492193000005,1021.9492193000005,1021.9492193000005,return,0.6269118000018352,3,0,0,1,0.48000000000000004,0,return,0.5387254000015673,0,21,0.48000000000000004,0,,,,,,,,,,,,,,,,,,,,,,,,,,,,,,,,,,,,,,,,,,,,,,,,,,,,,,,,Y41LPD,train_x,red_square,top_left,2025-08-29_14h52.28.731,HideSeek_v1,2022.2.5,59.81097339947374,
,0,9,3,9,3,0,46,,train_dim1_1,8,30,,,,2,0,2,0,,,,,,,,,0,0,0,0,0,7,7,7,0,0,0,0,,,,,,,,,,,,,,,,,,,,,,,,,stimuli/alien_stimuli/46.png,,,,,,,,,,,,,,,,,,,,,,,,,,,,,stimuli/alien_stimuli/66.png,66,3,9,,,,,,,30,,,,,,,,1031.5957724,1031.5957724,1031.5957724,1031.5957724,1031.5957724,right,7.195067199998448,3,0,0,99,-0.08,0.32,right,7.11242940000011,,,,,1030.0376419999993,1031.5957724,0.48,0,0.0,0.4,0.0,0.48,0.27999999999999997,0.48,0,1024.1553525999989,1024.1553525999989,1024.1553525999989,1024.1553525999989,1024.1553525999989,1024.1553525999989,1024.1553525999989,1024.1553525999989,1024.1325846000004,6.006849299999885,return,5.859926199998881,,,,,,,,,,,,,,,,,,,,,,,,,,,,,,,,,Y41LPD,train_x,red_square,top_left,2025-08-29_14h52.28.731,HideSeek_v1,2022.2.5,59.81097339947374,
,0,9,3,9,3,0,46,,train_dim1_1,8,30,,,,2,0,2,0,,,,,,,,,0,0,0,0,0,7,7,7,1,0,1,0,,,,,,,,,,,,,,,,,,,,,,,,,,,,,,,,,,,,,,,,,,,,,,,,,,,,,,,,,,,,,,,,30,,,,,,,,1038.7996602999992,1038.7996602999992,1038.7996602999992,1038.7996602999992,1038.7996602999992,right,0.4885571999984677,3,0,0,99,0.0,0.32,right,0.40296440000020084,,,,,,,,,,,,,,,,,,,,,,,,,,,,,,,,,,,,,,,,,,,,,,,,,,,,,,,,,,,,Y41LPD,train_x,red_square,top_left,2025-08-29_14h52.28.731,HideSeek_v1,2022.2.5,59.81097339947374,
,0,9,3,9,3,0,46,,train_dim1_1,8,30,,,,2,0,2,0,,,,,,,,,0,0,0,0,0,7,7,7,2,0,2,0,,,,,,,,,,,,,,,,,,,,,,,,,,,,,,,,,,,,,,,,,,,,,,,,,,,,,,,,,,,,,,,,30,,,,,,,,1039.2938885000003,1039.2938885000003,1039.2938885000003,1039.2938885000003,1039.2938885000003,right,0.8603991000018141,3,0,0,99,0.08,0.32,right,0.7810124999996333,,,,,,,,,,,,,,,,,,,,,,,,,,,,,,,,,,,,,,,,,,,,,,,,,,,,,,,,,,,,Y41LPD,train_x,red_square,top_left,2025-08-29_14h52.28.731,HideSeek_v1,2022.2.5,59.81097339947374,
,0,9,3,9,3,0,46,,train_dim1_1,8,30,,,,2,0,2,0,,,,,,,,,0,0,0,0,0,7,7,7,3,0,3,0,,,,,,,,,,,,,,,,,,,,,,,,,,,,,,,,,,,,,,,,,,,,,,,,,,,,,,,,,,,,,,,,30,,,,,,,,1040.1595146,1040.1595146,1040.1595146,1040.1595146,1040.1595146,return,0.9936831000013626,4,0,0,1,0.08,0.32,return,0.9178369000001112,0,24,0.08,0.32,,,,,,,,,,,,,,,,,,,,,,,,,,,,,,,,,,,,,,,,,,,,,,,,,,,,,,,,Y41LPD,train_x,red_square,top_left,2025-08-29_14h52.28.731,HideSeek_v1,2022.2.5,59.81097339947374,
,1,5,5,5,4,0,56,,train_dim1_1,9,30,,,,2,0,2,0,,,,,,,,,0,0,0,0,0,8,8,8,0,0,0,0,,,,,,,,,,,,,,,,,,,,,,,,,stimuli/alien_stimuli/56.png,,,,,,,,,,,,,,,,,,,,,,,,,,,,,stimuli/alien_stimuli/46.png,46,0,10,,,,,,,30,,,,,,,,1045.9809404999978,1045.9809404999978,1045.9809404999978,1045.9809404999978,1045.9809404999978,right,2.5069938999986334,4,0,0,99,0.0,0,right,2.3923160000013013,,,,,1044.3994740999988,1045.9809404999978,0.08,0.32,0.0,0.24,0.32,0.08,-0.04,0.08,0.32,1042.7374146999973,1042.7374146999973,1042.7374146999973,1042.7374146999973,1042.7374146999973,1042.7374146999973,1042.7374146999973,1042.7374146999973,1042.7144851000016,1.7870617999979004,return,1.6407015000004321,,,,,,,,,,,,,,,,,,,,,,,,,,,,,,,,,Y41LPD,train_x,red_square,top_left,2025-08-29_14h52.28.731,HideSeek_v1,2022.2.5,59.81097339947374,
,1,5,5,5,4,0,56,,train_dim1_1,9,30,,,,2,0,2,0,,,,,,,,,0,0,0,0,0,8,8,8,1,0,1,0,,,,,,,,,,,,,,,,,,,,,,,,,,,,,,,,,,,,,,,,,,,,,,,,,,,,,,,,,,,,,,,,30,,,,,,,,1048.475443899999,1048.475443899999,1048.475443899999,1048.475443899999,1048.475443899999,right,0.42161639999903855,4,0,0,99,0.08,0,right,0.34452519999831566,,,,,,,,,,,,,,,,,,,,,,,,,,,,,,,,,,,,,,,,,,,,,,,,,,,,,,,,,,,,Y41LPD,train_x,red_square,top_left,2025-08-29_14h52.28.731,HideSeek_v1,2022.2.5,59.81097339947374,
,1,5,5,5,4,0,56,,train_dim1_1,9,30,,,,2,0,2,0,,,,,,,,,0,0,0,0,0,8,8,8,2,0,2,0,,,,,,,,,,,,,,,,,,,,,,,,,,,,,,,,,,,,,,,,,,,,,,,,,,,,,,,,,,,,,,,,30,,,,,,,,1048.9035545999977,1048.9035545999977,1048.9035545999977,1048.9035545999977,1048.9035545999977,right,0.4100241999985883,4,0,0,99,0.16,0,right,0.3259756000043126,,,,,,,,,,,,,,,,,,,,,,,,,,,,,,,,,,,,,,,,,,,,,,,,,,,,,,,,,,,,Y41LPD,train_x,red_square,top_left,2025-08-29_14h52.28.731,HideSeek_v1,2022.2.5,59.81097339947374,
,1,5,5,5,4,0,56,,train_dim1_1,9,30,,,,2,0,2,0,,,,,,,,,0,0,0,0,0,8,8,8,3,0,3,0,,,,,,,,,,,,,,,,,,,,,,,,,,,,,,,,,,,,,,,,,,,,,,,,,,,,,,,,,,,,,,,,30,,,,,,,,1049.3211496999975,1049.3211496999975,1049.3211496999975,1049.3211496999975,1049.3211496999975,right,0.3599142999992182,4,0,0,99,0.24,0,right,0.27822160000141594,,,,,,,,,,,,,,,,,,,,,,,,,,,,,,,,,,,,,,,,,,,,,,,,,,,,,,,,,,,,Y41LPD,train_x,red_square,top_left,2025-08-29_14h52.28.731,HideSeek_v1,2022.2.5,59.81097339947374,
,1,5,5,5,4,0,56,,train_dim1_1,9,30,,,,2,0,2,0,,,,,,,,,0,0,0,0,0,8,8,8,4,0,4,0,,,,,,,,,,,,,,,,,,,,,,,,,,,,,,,,,,,,,,,,,,,,,,,,,,,,,,,,,,,,,,,,30,,,,,,,,1049.6886830999974,1049.6886830999974,1049.6886830999974,1049.6886830999974,1049.6886830999974,return,1.6765774999985297,5,0,0,1,0.24,0,return,1.5956824999993842,0,28,0.24,0,,,,,,,,,,,,,,,,,,,,,,,,,,,,,,,,,,,,,,,,,,,,,,,,,,,,,,,,Y41LPD,train_x,red_square,top_left,2025-08-29_14h52.28.731,HideSeek_v1,2022.2.5,59.81097339947374,
,0,8,0,8,0,0,16,,train_dim1_1,10,30,,,,2,0,2,0,,,,,,,,,0,0,0,0,0,9,9,9,0,0,0,0,,,,,,,,,,,,,,,,,,,,,,,,,stimuli/alien_stimuli/16.png,,,,,,,,,,,,,,,,,,,,,,,,,,,,,stimuli/alien_stimuli/56.png,56,1,11,,,,,,,30,,,,,,,,1056.910055799999,1056.910055799999,1056.910055799999,1056.910055799999,1056.910055799999,return,3.2559486999998626,6,0,0,1,-0.16,0.24,return,3.1529264000018884,0,28,-0.16,0.24,1055.3252059000006,1056.910055799999,0.24,0,0.0,0.32,0.0,0.24,0.07999999999999999,0.24,0,1052.9422771999998,1052.9422771999998,1052.9422771999998,1052.9422771999998,1052.9422771999998,1052.9422771999998,1052.9422771999998,1052.9422771999998,1052.9231256999997,2.503965900003095,return,2.3522521999984747,,,,,,,,,,,,,,,,,,,,,,,,,,,,,,,,,Y41LPD,train_x,red_square,top_left,2025-08-29_14h52.28.731,HideSeek_v1,2022.2.5,59.81097339947374,
,2,7,5,7,3,0,46,,train_dim1_1,11,30,,,,2,0,2,0,,,,,,,,,0,0,0,0,0,10,10,10,0,0,0,0,,,,,,,,,,,,,,,,,,,,,,,,,stimuli/alien_stimuli/46.png,,,,,,,,,,,,,,,,,,,,,,,,,,,,,stimuli/alien_stimuli/16.png,16,0,12,,,,,,,30,,,,,,,,1065.3755801999978,1065.3755801999978,1065.3755801999978,1065.3755801999978,1065.3755801999978,right,12.398128000000725,6,0,0,99,0.08,0.16,right,12.300729900001897,,,,,1063.7988164999988,1065.3755801999978,-0.16,0.24,0.0,0.0,0.24,-0.16,-0.16,-0.16,0.24,1061.713867999999,1061.713867999999,1061.713867999999,1061.713867999999,1061.713867999999,1061.713867999999,1061.713867999999,1061.713867999999,1061.6969681999985,2.2038915999983146,return,2.0599206000006234,,,,,,,,,,,,,,,,,,,,,,,,,,,,,,,,,Y41LPD,train_x,red_square,top_left,2025-08-29_14h52.28.731,HideSeek_v1,2022.2.5,59.81097339947374,
,2,7,5,7,3,0,46,,train_dim1_1,11,30,,,,2,0,2,0,,,,,,,,,0,0,0,0,0,10,10,10,1,0,1,0,,,,,,,,,,,,,,,,,,,,,,,,,,,,,,,,,,,,,,,,,,,,,,,,,,,,,,,,,,,,,,,,30,,,,,,,,1077.7620461999977,1077.7620461999977,1077.7620461999977,1077.7620461999977,1077.7620461999977,right,0.3250698999981978,6,0,0,99,0.16,0.16,right,0.2451604000016232,,,,,,,,,,,,,,,,,,,,,,,,,,,,,,,,,,,,,,,,,,,,,,,,,,,,,,,,,,,,Y41LPD,train_x,red_square,top_left,2025-08-29_14h52.28.731,HideSeek_v1,2022.2.5,59.81097339947374,
,2,7,5,7,3,0,46,,train_dim1_1,11,30,,,,2,0,2,0,,,,,,,,,0,0,0,0,0,10,10,10,2,0,2,0,,,,,,,,,,,,,,,,,,,,,,,,,,,,,,,,,,,,,,,,,,,,,,,,,,,,,,,,,,,,,,,,30,,,,,,,,1078.0911768999977,1078.0911768999977,1078.0911768999977,1078.0911768999977,1078.0911768999977,right,0.27673540000250796,6,0,0,99,0.24,0.16,right,0.18820500000219909,,,,,,,,,,,,,,,,,,,,,,,,,,,,,,,,,,,,,,,,,,,,,,,,,,,,,,,,,,,,Y41LPD,train_x,red_square,top_left,2025-08-29_14h52.28.731,HideSeek_v1,2022.2.5,59.81097339947374,
,2,7,5,7,3,0,46,,train_dim1_1,11,30,,,,2,0,2,0,,,,,,,,,0,0,0,0,0,10,10,10,3,0,3,0,,,,,,,,,,,,,,,,,,,,,,,,,,,,,,,,,,,,,,,,,,,,,,,,,,,,,,,,,,,,,,,,30,,,,,,,,1078.3878344000004,1078.3878344000004,1078.3878344000004,1078.3878344000004,1078.3878344000004,return,0.309132900001714,7,0,0,1,0.24,0.16,return,0.2135054999998829,0,31,0.24,0.16,,,,,,,,,,,,,,,,,,,,,,,,,,,,,,,,,,,,,,,,,,,,,,,,,,,,,,,,Y41LPD,train_x,red_square,top_left,2025-08-29_14h52.28.731,HideSeek_v1,2022.2.5,59.81097339947374,
,0,5,1,5,1,0,26,,train_dim1_1,12,30,,,,2,0,2,0,,,,,,,,,0,0,0,0,0,11,11,11,0,0,0,0,,,,,,,,,,,,,,,,,,,,,,,,,stimuli/alien_stimuli/26.png,,,,,,,,,,,,,,,,,,,,,,,,,,,,,stimuli/alien_stimuli/46.png,46,2,13,,,,,,,30,,,,,,,,1083.3493272999985,1083.3493272999985,1083.3493272999985,1083.3493272999985,1083.3493272999985,right,2.5557245000018156,7,0,0,99,-0.08,0,right,2.4429687000010745,,,,,1081.7638607000008,1083.3493272999985,0.24,0.16,0.0,0.24,0.16,0.24,0.12,0.24,0.16,1080.2692781000005,1080.2692781000005,1080.2692781000005,1080.2692781000005,1080.2692781000005,1080.2692781000005,1080.2692781000005,1080.2692781000005,1080.2623371999996,1.6204945000026783,return,1.4740374000029988,,,,,,,,,,,,,,,,,,,,,,,,,,,,,,,,,Y41LPD,train_x,red_square,top_left,2025-08-29_14h52.28.731,HideSeek_v1,2022.2.5,59.81097339947374,
,0,5,1,5,1,0,26,,train_dim1_1,12,30,,,,2,0,2,0,,,,,,,,,0,0,0,0,0,11,11,11,1,0,1,0,,,,,,,,,,,,,,,,,,,,,,,,,,,,,,,,,,,,,,,,,,,,,,,,,,,,,,,,,,,,,,,,30,,,,,,,,1085.8877360000006,1085.8877360000006,1085.8877360000006,1085.8877360000006,1085.8877360000006,return,1.293725200001063,8,0,0,1,-0.08,0,return,1.2014595000000554,0,32,-0.08,0,,,,,,,,,,,,,,,,,,,,,,,,,,,,,,,,,,,,,,,,,,,,,,,,,,,,,,,,Y41LPD,train_x,red_square,top_left,2025-08-29_14h52.28.731,HideSeek_v1,2022.2.5,59.81097339947374,
,0,9,4,9,4,0,45,,train_dim1_1,13,30,,,,2,0,2,0,,,,,,,,,0,0,0,0,0,12,12,12,0,0,0,0,,,,,,,,,,,,,,,,,,,,,,,,,stimuli/alien_stimuli/45.png,,,,,,,,,,,,,,,,,,,,,,,,,,,,,stimuli/alien_stimuli/26.png,26,0,14,,,,,,,30,,,,,,,,1091.6933752999976,1091.6933752999976,1091.6933752999976,1091.6933752999976,1091.6933752999976,right,37.202168699997856,8,0,0,99,-0.08,0.32,right,37.10625490000166,,,,,1090.1207813999972,1091.6933752999976,-0.08,0,0.0,0.08,0.0,-0.08,-0.12,-0.08,0,1088.7538098000005,1088.7538098000005,1088.7538098000005,1088.7538098000005,1088.7538098000005,1088.7538098000005,1088.7538098000005,1088.7538098000005,1088.735898899999,1.4871218000007502,return,1.3415680000034627,,,,,,,,,,,,,,,,,,,,,,,,,,,,,,,,,Y41LPD,train_x,red_square,top_left,2025-08-29_14h52.28.731,HideSeek_v1,2022.2.5,59.81097339947374,
,0,9,4,9,4,0,45,,train_dim1_1,13,30,,,,2,0,2,0,,,,,,,,,0,0,0,0,0,12,12,12,1,0,1,0,,,,,,,,,,,,,,,,,,,,,,,,,,,,,,,,,,,,,,,,,,,,,,,,,,,,,,,,,,,,,,,,30,,,,,,,,1128.8860812999992,1128.8860812999992,1128.8860812999992,1128.8860812999992,1128.8860812999992,right,0.8928829999968002,8,0,0,99,0.0,0.32,right,0.8070080000034068,,,,,,,,,,,,,,,,,,,,,,,,,,,,,,,,,,,,,,,,,,,,,,,,,,,,,,,,,,,,Y41LPD,train_x,red_square,top_left,2025-08-29_14h52.28.731,HideSeek_v1,2022.2.5,59.81097339947374,
,0,9,4,9,4,0,45,,train_dim1_1,13,30,,,,2,0,2,0,,,,,,,,,0,0,0,0,0,12,12,12,2,0,2,0,,,,,,,,,,,,,,,,,,,,,,,,,,,,,,,,,,,,,,,,,,,,,,,,,,,,,,,,,,,,,,,,30,,,,,,,,1129.7841511999977,1129.7841511999977,1129.7841511999977,1129.7841511999977,1129.7841511999977,return,1.0768934000006993,8,0,0,0,0.0,0.32,return,0.9888016000004427,0,34,0.0,0.32,,,,,,,,,,,,,,,,,,,,,,,,,,,,,,,,,,,,,,,,,,,,,,,,,,,,,,,,Y41LPD,train_x,red_square,top_left,2025-08-29_14h52.28.731,HideSeek_v1,2022.2.5,59.81097339947374,
,4,8,4,8,0,0,16,,train_dim1_1,14,30,,,,2,0,2,0,,,,,,,,,0,0,0,0,0,13,13,13,0,0,0,0,,,,,,,,,,,,,,,,,,,,,,,,,stimuli/alien_stimuli/16.png,,,,,,,,,,,,,,,,,,,,,,,,,,,,,stimuli/alien_stimuli/45.png,45,0,15,,,,,,,30,,,,,,,,1149.4894851999998,1149.4894851999998,1149.4894851999998,1149.4894851999998,1149.4894851999998,return,2.4735828999982914,9,0,0,1,0.16,0.24,return,2.377632399999129,0,34,0.16,0.24,1147.9186413999996,1149.4894851999998,0.16,0.32,0.0,0.32,0.32,0.16,0.0,0.16,0.32,1132.4408590999992,1132.4408590999992,1132.4408590999992,1132.4408590999992,1132.4408590999992,1132.4408590999992,1132.4408590999992,1132.4408590999992,1132.4222118000002,15.598520300001837,return,15.453870400000596,,,,,,,,,,,,,,,,,,,,,,,,,,,,,,,,,Y41LPD,train_x,red_square,top_left,2025-08-29_14h52.28.731,HideSeek_v1,2022.2.5,59.81097339947374,
,4,7,9,7,5,0,66,,train_dim1_1,15,30,,,,2,0,2,0,,,,,,,,,0,0,0,0,0,14,14,14,0,0,0,0,,,,,,,,,,,,,,,,,,,,,,,,,stimuli/alien_stimuli/66.png,,,,,,,,,,,,,,,,,,,,,,,,,,,,,stimuli/alien_stimuli/16.png,16,4,16,,,,,,,30,,,,,,,,1156.6356474999993,1156.6356474999993,1156.6356474999993,1156.6356474999993,1156.6356474999993,right,2.1409172999992734,9,0,0,99,0.24,0.16,right,2.0438646000002336,,,,,1155.0745699,1156.6356474999993,0.16,0.24,0.0,0.0,0.24,0.16,0.16,0.16,0.24,1153.5363810999988,1153.5363810999988,1153.5363810999988,1153.5363810999988,1153.5363810999988,1153.5363810999988,1153.5363810999988,1153.5363810999988,1153.5233988000016,1.6700594000030833,return,1.5085810000018682,,,,,,,,,,,,,,,,,,,,,,,,,,,,,,,,,Y41LPD,train_x,red_square,top_left,2025-08-29_14h52.28.731,HideSeek_v1,2022.2.5,59.81097339947374,
,4,7,9,7,5,0,66,,train_dim1_1,15,30,,,,2,0,2,0,,,,,,,,,0,0,0,0,0,14,14,14,1,0,1,0,,,,,,,,,,,,,,,,,,,,,,,,,,,,,,,,,,,,,,,,,,,,,,,,,,,,,,,,,,,,,,,,30,,,,,,,,1158.7787319999989,1158.7787319999989,1158.7787319999989,1158.7787319999989,1158.7787319999989,right,0.3426276999998663,9,0,0,99,0.32,0.16,right,0.2618880000009085,,,,,,,,,,,,,,,,,,,,,,,,,,,,,,,,,,,,,,,,,,,,,,,,,,,,,,,,,,,,Y41LPD,train_x,red_square,top_left,2025-08-29_14h52.28.731,HideSeek_v1,2022.2.5,59.81097339947374,
,4,7,9,7,5,0,66,,train_dim1_1,15,30,,,,2,0,2,0,,,,,,,,,0,0,0,0,0,14,14,14,2,0,2,0,,,,,,,,,,,,,,,,,,,,,,,,,,,,,,,,,,,,,,,,,,,,,,,,,,,,,,,,,,,,,,,,30,,,,,,,,1159.1321590999978,1159.1321590999978,1159.1321590999978,1159.1321590999978,1159.1321590999978,right,0.34309469999789144,9,0,0,99,0.4,0.16,right,0.25799969999934547,,,,,,,,,,,,,,,,,,,,,,,,,,,,,,,,,,,,,,,,,,,,,,,,,,,,,,,,,,,,Y41LPD,train_x,red_square,top_left,2025-08-29_14h52.28.731,HideSeek_v1,2022.2.5,59.81097339947374,
,4,7,9,7,5,0,66,,train_dim1_1,15,30,,,,2,0,2,0,,,,,,,,,0,0,0,0,0,14,14,14,3,0,3,0,,,,,,,,,,,,,,,,,,,,,,,,,,,,,,,,,,,,,,,,,,,,,,,,,,,,,,,,,,,,,,,,30,,,,,,,,1159.4778043999977,1159.4778043999977,1159.4778043999977,1159.4778043999977,1159.4778043999977,right,0.3599830000021029,9,0,0,99,0.48000000000000004,0.16,right,0.2752152000030037,,,,,,,,,,,,,,,,,,,,,,,,,,,,,,,,,,,,,,,,,,,,,,,,,,,,,,,,,,,,Y41LPD,train_x,red_square,top_left,2025-08-29_14h52.28.731,HideSeek_v1,2022.2.5,59.81097339947374,
,4,7,9,7,5,0,66,,train_dim1_1,15,30,,,,2,0,2,0,,,,,,,,,0,0,0,0,0,14,14,14,4,0,4,0,,,,,,,,,,,,,,,,,,,,,,,,,,,,,,,,,,,,,,,,,,,,,,,,,,,,,,,,,,,,,,,,30,,,,,,,,1159.8558685999997,1159.8558685999997,1159.8558685999997,1159.8558685999997,1159.8558685999997,right,0.34330010000121547,9,0,0,99,0.56,0.16,right,0.25686010000208626,,,,,,,,,,,,,,,,,,,,,,,,,,,,,,,,,,,,,,,,,,,,,,,,,,,,,,,,,,,,Y41LPD,train_x,red_square,top_left,2025-08-29_14h52.28.731,HideSeek_v1,2022.2.5,59.81097339947374,
,4,7,9,7,5,0,66,,train_dim1_1,15,30,,,,2,0,2,0,,,,,,,,,0,0,0,0,0,14,14,14,5,0,5,0,,,,,,,,,,,,,,,,,,,,,,,,,,,,,,,,,,,,,,,,,,,,,,,,,,,,,,,,,,,,,,,,30,,,,,,,,1160.1960049000008,1160.1960049000008,1160.1960049000008,1160.1960049000008,1160.1960049000008,return,3.3122508999986167,10,0,0,1,0.56,0.16,return,3.231204700001399,0,39,0.56,0.16,,,,,,,,,,,,,,,,,,,,,,,,,,,,,,,,,,,,,,,,,,,,,,,,,,,,,,,,Y41LPD,train_x,red_square,top_left,2025-08-29_14h52.28.731,HideSeek_v1,2022.2.5,59.81097339947374,
,3,8,7,8,4,0,56,,train_dim1_1,16,30,,,,2,0,2,0,,,,,,,,,0,0,0,0,0,15,15,15,0,0,0,0,,,,,,,,,,,,,,,,,,,,,,,,,stimuli/alien_stimuli/56.png,,,,,,,,,,,,,,,,,,,,,,,,,,,,,stimuli/alien_stimuli/66.png,66,4,17,,,,,,,30,,,,,,,,1168.9954777999992,1168.9954777999992,1168.9954777999992,1168.9954777999992,1168.9954777999992,right,5.475639500000398,10,0,0,99,0.16,0.24,right,5.369026799999119,,,,,1167.4180763999975,1168.9954777999992,0.56,0.16,0.0,0.4,0.16,0.56,0.36000000000000004,0.56,0.16,1165.0938367999988,1165.0938367999988,1165.0938367999988,1165.0938367999988,1165.0938367999988,1165.0938367999988,1165.0938367999988,1165.0938367999988,1165.0828885999997,2.4538427000006777,return,2.293272800001432,,,,,,,,,,,,,,,,,,,,,,,,,,,,,,,,,Y41LPD,train_x,red_square,top_left,2025-08-29_14h52.28.731,HideSeek_v1,2022.2.5,59.81097339947374,
,3,8,7,8,4,0,56,,train_dim1_1,16,30,,,,2,0,2,0,,,,,,,,,0,0,0,0,0,15,15,15,1,0,1,0,,,,,,,,,,,,,,,,,,,,,,,,,,,,,,,,,,,,,,,,,,,,,,,,,,,,,,,,,,,,,,,,30,,,,,,,,1174.4599213000001,1174.4599213000001,1174.4599213000001,1174.4599213000001,1174.4599213000001,right,0.29286900000079186,10,0,0,99,0.24,0.24,right,0.21404140000231564,,,,,,,,,,,,,,,,,,,,,,,,,,,,,,,,,,,,,,,,,,,,,,,,,,,,,,,,,,,,Y41LPD,train_x,red_square,top_left,2025-08-29_14h52.28.731,HideSeek_v1,2022.2.5,59.81097339947374,
,3,8,7,8,4,0,56,,train_dim1_1,16,30,,,,2,0,2,0,,,,,,,,,0,0,0,0,0,15,15,15,2,0,2,0,,,,,,,,,,,,,,,,,,,,,,,,,,,,,,,,,,,,,,,,,,,,,,,,,,,,,,,,,,,,,,,,30,,,,,,,,1174.7597223999983,1174.7597223999983,1174.7597223999983,1174.7597223999983,1174.7597223999983,right,0.32661319999897387,10,0,0,99,0.32,0.24,right,0.24021210000137216,,,,,,,,,,,,,,,,,,,,,,,,,,,,,,,,,,,,,,,,,,,,,,,,,,,,,,,,,,,,Y41LPD,train_x,red_square,top_left,2025-08-29_14h52.28.731,HideSeek_v1,2022.2.5,59.81097339947374,
,3,8,7,8,4,0,56,,train_dim1_1,16,30,,,,2,0,2,0,,,,,,,,,0,0,0,0,0,15,15,15,3,0,3,0,,,,,,,,,,,,,,,,,,,,,,,,,,,,,,,,,,,,,,,,,,,,,,,,,,,,,,,,,,,,,,,,30,,,,,,,,1175.1005038000003,1175.1005038000003,1175.1005038000003,1175.1005038000003,1175.1005038000003,right,0.31972509999832255,10,0,0,99,0.4,0.24,right,0.22923050000099465,,,,,,,,,,,,,,,,,,,,,,,,,,,,,,,,,,,,,,,,,,,,,,,,,,,,,,,,,,,,Y41LPD,train_x,red_square,top_left,2025-08-29_14h52.28.731,HideSeek_v1,2022.2.5,59.81097339947374,
,3,8,7,8,4,0,56,,train_dim1_1,16,30,,,,2,0,2,0,,,,,,,,,0,0,0,0,0,15,15,15,4,0,4,0,,,,,,,,,,,,,,,,,,,,,,,,,,,,,,,,,,,,,,,,,,,,,,,,,,,,,,,,,,,,,,,,30,,,,,,,,1175.4305940999984,1175.4305940999984,1175.4305940999984,1175.4305940999984,1175.4305940999984,return,2.511580000002141,11,0,0,1,0.4,0.24,return,2.4160046000033617,0,43,0.4,0.24,,,,,,,,,,,,,,,,,,,,,,,,,,,,,,,,,,,,,,,,,,,,,,,,,,,,,,,,Y41LPD,train_x,red_square,top_left,2025-08-29_14h52.28.731,HideSeek_v1,2022.2.5,59.81097339947374,
,2,9,3,9,1,0,26,,train_dim1_1,17,30,,,,2,0,2,0,,,,,,,,,0,0,0,0,0,16,16,16,0,0,0,0,,,,,,,,,,,,,,,,,,,,,,,,,stimuli/alien_stimuli/26.png,,,,,,,,,,,,,,,,,,,,,,,,,,,,,stimuli/alien_stimuli/56.png,56,3,18,,,,,,,30,,,,,,,,1188.715573999998,1188.715573999998,1188.715573999998,1188.715573999998,1188.715573999998,right,9.346585199997207,11,0,0,99,0.08,0.32,right,9.25061899999855,,,,,1187.1510409000002,1188.715573999998,0.4,0.24,0.0,0.32,0.24,0.4,0.24000000000000002,0.4,0.24,1179.5169509999978,1179.5169509999978,1179.5169509999978,1179.5169509999978,1179.5169509999978,1179.5169509999978,1179.5169509999978,1179.5169509999978,1179.494697499999,7.758684099997481,return,7.610067000001436,,,,,,,,,,,,,,,,,,,,,,,,,,,,,,,,,Y41LPD,train_x,red_square,top_left,2025-08-29_14h52.28.731,HideSeek_v1,2022.2.5,59.81097339947374,
,2,9,3,9,1,0,26,,train_dim1_1,17,30,,,,2,0,2,0,,,,,,,,,0,0,0,0,0,16,16,16,1,0,1,0,,,,,,,,,,,,,,,,,,,,,,,,,,,,,,,,,,,,,,,,,,,,,,,,,,,,,,,,,,,,,,,,30,,,,,,,,1198.0628137999993,1198.0628137999993,1198.0628137999993,1198.0628137999993,1198.0628137999993,return,1.1765708000020823,12,0,0,1,0.08,0.32,return,1.0891054999992775,0,44,0.08,0.32,,,,,,,,,,,,,,,,,,,,,,,,,,,,,,,,,,,,,,,,,,,,,,,,,,,,,,,,Y41LPD,train_x,red_square,top_left,2025-08-29_14h52.28.731,HideSeek_v1,2022.2.5,59.81097339947374,
,2,6,7,6,5,0,66,,train_dim1_1,18,30,,,,2,0,2,0,,,,,,,,,0,0,0,0,0,17,17,17,0,0,0,0,,,,,,,,,,,,,,,,,,,,,,,,,stimuli/alien_stimuli/66.png,,,,,,,,,,,,,,,,,,,,,,,,,,,,,stimuli/alien_stimuli/26.png,26,2,19,,,,,,,30,,,,,,,,1204.1868355999977,1204.1868355999977,1204.1868355999977,1204.1868355999977,1204.1868355999977,right,1.784041499999148,12,0,0,99,0.08,0.08,right,1.6781637000021874,,,,,1202.5973215999984,1204.1868355999977,0.08,0.32,0.0,0.08,0.32,0.08,0.04,0.08,0.32,1200.8271289000004,1200.8271289000004,1200.8271289000004,1200.8271289000004,1200.8271289000004,1200.8271289000004,1200.8271289000004,1200.8271289000004,1200.8123226000005,1.9035820999997668,return,1.73899540000275,,,,,,,,,,,,,,,,,,,,,,,,,,,,,,,,,Y41LPD,train_x,red_square,top_left,2025-08-29_14h52.28.731,HideSeek_v1,2022.2.5,59.81097339947374,
,2,6,7,6,5,0,66,,train_dim1_1,18,30,,,,2,0,2,0,,,,,,,,,0,0,0,0,0,17,17,17,1,0,1,0,,,,,,,,,,,,,,,,,,,,,,,,,,,,,,,,,,,,,,,,,,,,,,,,,,,,,,,,,,,,,,,,30,,,,,,,,1205.9498673999988,1205.9498673999988,1205.9498673999988,1205.9498673999988,1205.9498673999988,right,0.32598069999949075,12,0,0,99,0.16,0.08,right,0.24336810000022524,,,,,,,,,,,,,,,,,,,,,,,,,,,,,,,,,,,,,,,,,,,,,,,,,,,,,,,,,,,,Y41LPD,train_x,red_square,top_left,2025-08-29_14h52.28.731,HideSeek_v1,2022.2.5,59.81097339947374,
,2,6,7,6,5,0,66,,train_dim1_1,18,30,,,,2,0,2,0,,,,,,,,,0,0,0,0,0,17,17,17,2,0,2,0,,,,,,,,,,,,,,,,,,,,,,,,,,,,,,,,,,,,,,,,,,,,,,,,,,,,,,,,,,,,,,,,30,,,,,,,,1206.3012407999995,1206.3012407999995,1206.3012407999995,1206.3012407999995,1206.3012407999995,right,0.293427900000097,12,0,0,99,0.24,0.08,right,0.19106470000042464,,,,,,,,,,,,,,,,,,,,,,,,,,,,,,,,,,,,,,,,,,,,,,,,,,,,,,,,,,,,Y41LPD,train_x,red_square,top_left,2025-08-29_14h52.28.731,HideSeek_v1,2022.2.5,59.81097339947374,
,2,6,7,6,5,0,66,,train_dim1_1,18,30,,,,2,0,2,0,,,,,,,,,0,0,0,0,0,17,17,17,3,0,3,0,,,,,,,,,,,,,,,,,,,,,,,,,,,,,,,,,,,,,,,,,,,,,,,,,,,,,,,,,,,,,,,,30,,,,,,,,1206.5845107999994,1206.5845107999994,1206.5845107999994,1206.5845107999994,1206.5845107999994,right,0.3098472000019683,12,0,0,99,0.32,0.08,right,0.23121570000148495,,,,,,,,,,,,,,,,,,,,,,,,,,,,,,,,,,,,,,,,,,,,,,,,,,,,,,,,,,,,Y41LPD,train_x,red_square,top_left,2025-08-29_14h52.28.731,HideSeek_v1,2022.2.5,59.81097339947374,
,2,6,7,6,5,0,66,,train_dim1_1,18,30,,,,2,0,2,0,,,,,,,,,0,0,0,0,0,17,17,17,4,0,4,0,,,,,,,,,,,,,,,,,,,,,,,,,,,,,,,,,,,,,,,,,,,,,,,,,,,,,,,,,,,,,,,,30,,,,,,,,1206.8988887999985,1206.8988887999985,1206.8988887999985,1206.8988887999985,1206.8988887999985,right,0.3263827000009769,12,0,0,99,0.4,0.08,right,0.2455614999998943,,,,,,,,,,,,,,,,,,,,,,,,,,,,,,,,,,,,,,,,,,,,,,,,,,,,,,,,,,,,Y41LPD,train_x,red_square,top_left,2025-08-29_14h52.28.731,HideSeek_v1,2022.2.5,59.81097339947374,
,2,6,7,6,5,0,66,,train_dim1_1,18,30,,,,2,0,2,0,,,,,,,,,0,0,0,0,0,17,17,17,5,0,5,0,,,,,,,,,,,,,,,,,,,,,,,,,,,,,,,,,,,,,,,,,,,,,,,,,,,,,,,,,,,,,,,,30,,,,,,,,1207.2349394999983,1207.2349394999983,1207.2349394999983,1207.2349394999983,1207.2349394999983,return,0.5603005999982997,13,0,0,1,0.4,0.08,return,0.4720229000013205,0,49,0.4,0.08,,,,,,,,,,,,,,,,,,,,,,,,,,,,,,,,,,,,,,,,,,,,,,,,,,,,,,,,Y41LPD,train_x,red_square,top_left,2025-08-29_14h52.28.731,HideSeek_v1,2022.2.5,59.81097339947374,
,0,8,3,8,3,0,46,,train_dim1_1,19,30,,,,2,0,2,0,,,,,,,,,0,0,0,0,0,18,18,18,0,0,0,0,,,,,,,,,,,,,,,,,,,,,,,,,stimuli/alien_stimuli/46.png,,,,,,,,,,,,,,,,,,,,,,,,,,,,,stimuli/alien_stimuli/66.png,66,2,20,,,,,,,30,,,,,,,,1218.9071764,1218.9071764,1218.9071764,1218.9071764,1218.9071764,right,18.050228299998707,13,0,0,99,-0.08,0.24,right,17.965409700002056,,,,,1217.3430236999993,1218.9071764,0.4,0.08,0.0,0.4,0.08,0.4,0.2,0.4,0.08,1209.3645125000003,1209.3645125000003,1209.3645125000003,1209.3645125000003,1209.3645125000003,1209.3645125000003,1209.3645125000003,1209.3645125000003,1209.352870700001,8.092009400003008,return,7.960542000000714,,,,,,,,,,,,,,,,,,,,,,,,,,,,,,,,,Y41LPD,train_x,red_square,top_left,2025-08-29_14h52.28.731,HideSeek_v1,2022.2.5,59.81097339947374,
,0,8,3,8,3,0,46,,train_dim1_1,19,30,,,,2,0,2,0,,,,,,,,,0,0,0,0,0,18,18,18,1,0,1,0,,,,,,,,,,,,,,,,,,,,,,,,,,,,,,,,,,,,,,,,,,,,,,,,,,,,,,,,,,,,,,,,30,,,,,,,,1236.9617623999984,1236.9617623999984,1236.9617623999984,1236.9617623999984,1236.9617623999984,right,0.4415556000021752,13,0,0,99,0.0,0.24,right,0.3628965000025346,,,,,,,,,,,,,,,,,,,,,,,,,,,,,,,,,,,,,,,,,,,,,,,,,,,,,,,,,,,,Y41LPD,train_x,red_square,top_left,2025-08-29_14h52.28.731,HideSeek_v1,2022.2.5,59.81097339947374,
,0,8,3,8,3,0,46,,train_dim1_1,19,30,,,,2,0,2,0,,,,,,,,,0,0,0,0,0,18,18,18,2,0,2,0,,,,,,,,,,,,,,,,,,,,,,,,,,,,,,,,,,,,,,,,,,,,,,,,,,,,,,,,,,,,,,,,30,,,,,,,,1237.4061614999991,1237.4061614999991,1237.4061614999991,1237.4061614999991,1237.4061614999991,right,0.44331509999756236,13,0,0,99,0.08,0.24,right,0.36803360000340035,,,,,,,,,,,,,,,,,,,,,,,,,,,,,,,,,,,,,,,,,,,,,,,,,,,,,,,,,,,,Y41LPD,train_x,red_square,top_left,2025-08-29_14h52.28.731,HideSeek_v1,2022.2.5,59.81097339947374,
,0,8,3,8,3,0,46,,train_dim1_1,19,30,,,,2,0,2,0,,,,,,,,,0,0,0,0,0,18,18,18,3,0,3,0,,,,,,,,,,,,,,,,,,,,,,,,,,,,,,,,,,,,,,,,,,,,,,,,,,,,,,,,,,,,,,,,30,,,,,,,,1237.8576788999999,1237.8576788999999,1237.8576788999999,1237.8576788999999,1237.8576788999999,return,0.9771796999993967,14,0,0,1,0.08,0.24,return,0.8988449000025867,0,52,0.08,0.24,,,,,,,,,,,,,,,,,,,,,,,,,,,,,,,,,,,,,,,,,,,,,,,,,,,,,,,,Y41LPD,train_x,red_square,top_left,2025-08-29_14h52.28.731,HideSeek_v1,2022.2.5,59.81097339947374,
,0,6,0,6,0,0,16,,train_dim1_1,20,30,,,,2,0,2,0,,,,,,,,,0,0,0,0,0,19,19,19,0,0,0,0,,,,,,,,,,,,,,,,,,,,,,,,,stimuli/alien_stimuli/16.png,,,,,,,,,,,,,,,,,,,,,,,,,,,,,stimuli/alien_stimuli/46.png,46,0,21,,,,,,,30,,,,,,,,1246.332789699998,1246.332789699998,1246.332789699998,1246.332789699998,1246.332789699998,return,1.5686064000001352,15,0,0,1,-0.16,0.08,return,1.4722396000033768,0,52,-0.16,0.08,1244.7657140999981,1246.332789699998,0.08,0.24,0.0,0.24,0.24,0.08,-0.04,0.08,0.24,1240.4177574999994,1240.4177574999994,1240.4177574999994,1240.4177574999994,1240.4177574999994,1240.4177574999994,1240.4177574999994,1240.4177574999994,1240.3953928000014,4.4724609999975655,return,4.331061400003819,,,,,,,,,,,,,,,,,,,,,,,,,,,,,,,,,Y41LPD,train_x,red_square,top_left,2025-08-29_14h52.28.731,HideSeek_v1,2022.2.5,59.81097339947374,
,4,7,7,7,3,0,46,,train_dim1_1,21,30,,,,2,0,2,0,,,,,,,,,0,0,0,0,0,20,20,20,0,0,0,0,,,,,,,,,,,,,,,,,,,,,,,,,stimuli/alien_stimuli/46.png,,,,,,,,,,,,,,,,,,,,,,,,,,,,,stimuli/alien_stimuli/16.png,16,0,22,,,,,,,30,,,,,,,,1252.704705799999,1252.704705799999,1252.704705799999,1252.704705799999,1252.704705799999,right,25.889673000001494,15,0,0,99,0.24,0.16,right,25.797182300000713,,,,,1251.1376152999983,1252.704705799999,-0.16,0.08,0.0,0.0,0.08,-0.16,-0.16,-0.16,0.08,1249.4828376000005,1249.4828376000005,1249.4828376000005,1249.4828376000005,1249.4828376000005,1249.4828376000005,1249.4828376000005,1249.4828376000005,1249.4692900999985,1.7710756000014953,return,1.6329872000023897,,,,,,,,,,,,,,,,,,,,,,,,,,,,,,,,,Y41LPD,train_x,red_square,top_left,2025-08-29_14h52.28.731,HideSeek_v1,2022.2.5,59.81097339947374,
,4,7,7,7,3,0,46,,train_dim1_1,21,30,,,,2,0,2,0,,,,,,,,,0,0,0,0,0,20,20,20,1,0,1,0,,,,,,,,,,,,,,,,,,,,,,,,,,,,,,,,,,,,,,,,,,,,,,,,,,,,,,,,,,,,,,,,30,,,,,,,,1278.597439699999,1278.597439699999,1278.597439699999,1278.597439699999,1278.597439699999,right,4.043706600001315,15,0,0,99,0.32,0.16,right,3.964973900001496,,,,,,,,,,,,,,,,,,,,,,,,,,,,,,,,,,,,,,,,,,,,,,,,,,,,,,,,,,,,Y41LPD,train_x,red_square,top_left,2025-08-29_14h52.28.731,HideSeek_v1,2022.2.5,59.81097339947374,
,4,7,7,7,3,0,46,,train_dim1_1,21,30,,,,2,0,2,0,,,,,,,,,0,0,0,0,0,20,20,20,2,0,2,0,,,,,,,,,,,,,,,,,,,,,,,,,,,,,,,,,,,,,,,,,,,,,,,,,,,,,,,,,,,,,,,,30,,,,,,,,1282.6446469999973,1282.6446469999973,1282.6446469999973,1282.6446469999973,1282.6446469999973,return,2.6780737999979465,15,1,0,0,0.32,0.16,return,2.5967444000016258,0,54,0.32,0.16,,,,,,,,,,,,,,,,,,,,,,,,,,,,,,,,,,,,,,,,,,,,,,,,,,,,,,,,Y41LPD,train_x,red_square,top_left,2025-08-29_14h52.28.731,HideSeek_v1,2022.2.5,59.81097339947374,
,1,5,2,5,1,0,26,,train_dim1_1,22,30,,,,2,0,2,0,,,,,,,,,0,0,0,0,0,21,21,21,0,0,0,0,,,,,,,,,,,,,,,,,,,,,,,,,stimuli/alien_stimuli/26.png,,,,,,,,,,,,,,,,,,,,,,,,,,,,,stimuli/alien_stimuli/46.png,46,4,23,,,,,,,30,,,,,,,,1297.7109025999998,1297.7109025999998,1297.7109025999998,1297.7109025999998,1297.7109025999998,right,1.5566391000029398,15,1,0,99,0.0,0,right,1.4547889000023133,,,,,1296.141571799999,1297.7109025999998,0.4,0.16,0.0,0.24,0.16,0.4,0.28,0.4,0.16,1286.9042797000002,1286.9042797000002,1286.9042797000002,1286.9042797000002,1286.9042797000002,1286.9042797000002,1286.9042797000002,1286.9042797000002,1286.8836691000001,9.360219900001539,return,9.210028400004376,,,,,,,,,,,,,,,,,,,,,,,,,,,,,,,,,Y41LPD,train_x,red_square,top_left,2025-08-29_14h52.28.731,HideSeek_v1,2022.2.5,59.81097339947374,
,1,5,2,5,1,0,26,,train_dim1_1,22,30,,,,2,0,2,0,,,,,,,,,0,0,0,0,0,21,21,21,1,0,1,0,,,,,,,,,,,,,,,,,,,,,,,,,,,,,,,,,,,,,,,,,,,,,,,,,,,,,,,,,,,,,,,,30,,,,,,,,1299.268950499998,1299.268950499998,1299.268950499998,1299.268950499998,1299.268950499998,return,0.604705699999613,16,0,0,1,0.0,0,return,0.5183868999993138,0,55,0.0,0,,,,,,,,,,,,,,,,,,,,,,,,,,,,,,,,,,,,,,,,,,,,,,,,,,,,,,,,Y41LPD,train_x,red_square,top_left,2025-08-29_14h52.28.731,HideSeek_v1,2022.2.5,59.81097339947374,
,2,6,7,6,5,0,66,,train_dim1_1,23,30,,,,2,0,2,0,,,,,,,,,0,0,0,0,0,22,22,22,0,0,0,0,,,,,,,,,,,,,,,,,,,,,,,,,stimuli/alien_stimuli/66.png,,,,,,,,,,,,,,,,,,,,,,,,,,,,,stimuli/alien_stimuli/26.png,26,1,24,,,,,,,30,,,,,,,,1305.7421407000002,1305.7421407000002,1305.7421407000002,1305.7421407000002,1305.7421407000002,right,1.4558090999998967,16,0,0,99,0.08,0.08,right,1.3715353000006871,,,,,1304.1815731999995,1305.7421407000002,0,0,0.0,0.08,0.0,0,-0.04,0,0,1301.4604809999983,1301.4604809999983,1301.4604809999983,1301.4604809999983,1301.4604809999983,1301.4604809999983,1301.4604809999983,1301.4604809999983,1301.4458309000017,2.8545407000019623,return,2.689570400001685,,,,,,,,,,,,,,,,,,,,,,,,,,,,,,,,,Y41LPD,train_x,red_square,top_left,2025-08-29_14h52.28.731,HideSeek_v1,2022.2.5,59.81097339947374,
,2,6,7,6,5,0,66,,train_dim1_1,23,30,,,,2,0,2,0,,,,,,,,,0,0,0,0,0,22,22,22,1,0,1,0,,,,,,,,,,,,,,,,,,,,,,,,,,,,,,,,,,,,,,,,,,,,,,,,,,,,,,,,,,,,,,,,30,,,,,,,,1307.2024342000004,1307.2024342000004,1307.2024342000004,1307.2024342000004,1307.2024342000004,right,0.3236475999983668,16,0,0,99,0.16,0.08,right,0.23572430000422173,,,,,,,,,,,,,,,,,,,,,,,,,,,,,,,,,,,,,,,,,,,,,,,,,,,,,,,,,,,,Y41LPD,train_x,red_square,top_left,2025-08-29_14h52.28.731,HideSeek_v1,2022.2.5,59.81097339947374,
,2,6,7,6,5,0,66,,train_dim1_1,23,30,,,,2,0,2,0,,,,,,,,,0,0,0,0,0,22,22,22,2,0,2,0,,,,,,,,,,,,,,,,,,,,,,,,,,,,,,,,,,,,,,,,,,,,,,,,,,,,,,,,,,,,,,,,30,,,,,,,,1307.5317838999981,1307.5317838999981,1307.5317838999981,1307.5317838999981,1307.5317838999981,right,0.2932665000007546,16,0,0,99,0.24,0.08,right,0.2190282000010484,,,,,,,,,,,,,,,,,,,,,,,,,,,,,,,,,,,,,,,,,,,,,,,,,,,,,,,,,,,,Y41LPD,train_x,red_square,top_left,2025-08-29_14h52.28.731,HideSeek_v1,2022.2.5,59.81097339947374,
,2,6,7,6,5,0,66,,train_dim1_1,23,30,,,,2,0,2,0,,,,,,,,,0,0,0,0,0,22,22,22,3,0,3,0,,,,,,,,,,,,,,,,,,,,,,,,,,,,,,,,,,,,,,,,,,,,,,,,,,,,,,,,,,,,,,,,30,,,,,,,,1307.8338245999985,1307.8338245999985,1307.8338245999985,1307.8338245999985,1307.8338245999985,right,0.29343669999798294,16,0,0,99,0.32,0.08,right,0.20630920000257902,,,,,,,,,,,,,,,,,,,,,,,,,,,,,,,,,,,,,,,,,,,,,,,,,,,,,,,,,,,,Y41LPD,train_x,red_square,top_left,2025-08-29_14h52.28.731,HideSeek_v1,2022.2.5,59.81097339947374,
,2,6,7,6,5,0,66,,train_dim1_1,23,30,,,,2,0,2,0,,,,,,,,,0,0,0,0,0,22,22,22,4,0,4,0,,,,,,,,,,,,,,,,,,,,,,,,,,,,,,,,,,,,,,,,,,,,,,,,,,,,,,,,,,,,,,,,30,,,,,,,,1308.1398272000006,1308.1398272000006,1308.1398272000006,1308.1398272000006,1308.1398272000006,right,0.30991870000070776,16,0,0,99,0.4,0.08,right,0.228219500000705,,,,,,,,,,,,,,,,,,,,,,,,,,,,,,,,,,,,,,,,,,,,,,,,,,,,,,,,,,,,Y41LPD,train_x,red_square,top_left,2025-08-29_14h52.28.731,HideSeek_v1,2022.2.5,59.81097339947374,
,2,6,7,6,5,0,66,,train_dim1_1,23,30,,,,2,0,2,0,,,,,,,,,0,0,0,0,0,22,22,22,5,0,5,0,,,,,,,,,,,,,,,,,,,,,,,,,,,,,,,,,,,,,,,,,,,,,,,,,,,,,,,,,,,,,,,,30,,,,,,,,1308.4655198,1308.4655198,1308.4655198,1308.4655198,1308.4655198,return,0.9598476999999548,17,0,0,1,0.4,0.08,return,0.8583119000031729,0,60,0.4,0.08,,,,,,,,,,,,,,,,,,,,,,,,,,,,,,,,,,,,,,,,,,,,,,,,,,,,,,,,Y41LPD,train_x,red_square,top_left,2025-08-29_14h52.28.731,HideSeek_v1,2022.2.5,59.81097339947374,
,4,9,8,9,4,0,56,,train_dim1_1,24,30,,,,2,0,2,0,,,,,,,,,0,0,0,0,0,23,23,23,0,0,0,0,,,,,,,,,,,,,,,,,,,,,,,,,stimuli/alien_stimuli/56.png,,,,,,,,,,,,,,,,,,,,,,,,,,,,,stimuli/alien_stimuli/66.png,66,2,25,,,,,,,30,,,,,,,,1313.6736238999983,1313.6736238999983,1313.6736238999983,1313.6736238999983,1313.6736238999983,right,1.673311599999579,17,0,0,99,0.24,0.32,right,1.5672565999993822,,,,,1312.0879260000002,1313.6736238999983,0.4,0.08,0.0,0.4,0.08,0.4,0.2,0.4,0.08,1310.981261599998,1310.981261599998,1310.981261599998,1310.981261599998,1310.981261599998,1310.981261599998,1310.981261599998,1310.981261599998,1310.9705254000005,1.2198729999981879,return,1.0881379000020388,,,,,,,,,,,,,,,,,,,,,,,,,,,,,,,,,Y41LPD,train_x,red_square,top_left,2025-08-29_14h52.28.731,HideSeek_v1,2022.2.5,59.81097339947374,
,4,9,8,9,4,0,56,,train_dim1_1,24,30,,,,2,0,2,0,,,,,,,,,0,0,0,0,0,23,23,23,1,0,1,0,,,,,,,,,,,,,,,,,,,,,,,,,,,,,,,,,,,,,,,,,,,,,,,,,,,,,,,,,,,,,,,,30,,,,,,,,1315.3382047999985,1315.3382047999985,1315.3382047999985,1315.3382047999985,1315.3382047999985,right,0.9079186999988451,17,0,0,99,0.32,0.32,right,0.8152169000022695,,,,,,,,,,,,,,,,,,,,,,,,,,,,,,,,,,,,,,,,,,,,,,,,,,,,,,,,,,,,Y41LPD,train_x,red_square,top_left,2025-08-29_14h52.28.731,HideSeek_v1,2022.2.5,59.81097339947374,
,4,9,8,9,4,0,56,,train_dim1_1,24,30,,,,2,0,2,0,,,,,,,,,0,0,0,0,0,23,23,23,2,0,2,0,,,,,,,,,,,,,,,,,,,,,,,,,,,,,,,,,,,,,,,,,,,,,,,,,,,,,,,,,,,,,,,,30,,,,,,,,1316.2480412999976,1316.2480412999976,1316.2480412999976,1316.2480412999976,1316.2480412999976,right,0.5239598999978625,17,0,0,99,0.4,0.32,right,0.4338761000035447,,,,,,,,,,,,,,,,,,,,,,,,,,,,,,,,,,,,,,,,,,,,,,,,,,,,,,,,,,,,Y41LPD,train_x,red_square,top_left,2025-08-29_14h52.28.731,HideSeek_v1,2022.2.5,59.81097339947374,
,4,9,8,9,4,0,56,,train_dim1_1,24,30,,,,2,0,2,0,,,,,,,,,0,0,0,0,0,23,23,23,3,0,3,0,,,,,,,,,,,,,,,,,,,,,,,,,,,,,,,,,,,,,,,,,,,,,,,,,,,,,,,,,,,,,,,,30,,,,,,,,1316.7823635999994,1316.7823635999994,1316.7823635999994,1316.7823635999994,1316.7823635999994,right,0.5735678999990341,17,0,0,99,0.48000000000000004,0.32,right,0.49346800000421354,,,,,,,,,,,,,,,,,,,,,,,,,,,,,,,,,,,,,,,,,,,,,,,,,,,,,,,,,,,,Y41LPD,train_x,red_square,top_left,2025-08-29_14h52.28.731,HideSeek_v1,2022.2.5,59.81097339947374,
,4,9,8,9,4,0,56,,train_dim1_1,24,30,,,,2,0,2,0,,,,,,,,,0,0,0,0,0,23,23,23,4,0,4,0,,,,,,,,,,,,,,,,,,,,,,,,,,,,,,,,,,,,,,,,,,,,,,,,,,,,,,,,,,,,,,,,30,,,,,,,,1317.3603914999985,1317.3603914999985,1317.3603914999985,1317.3603914999985,1317.3603914999985,return,0.7606589999995776,18,0,0,1,0.48000000000000004,0.32,return,0.6680763000040315,0,64,0.48000000000000004,0.32,,,,,,,,,,,,,,,,,,,,,,,,,,,,,,,,,,,,,,,,,,,,,,,,,,,,,,,,Y41LPD,train_x,red_square,top_left,2025-08-29_14h52.28.731,HideSeek_v1,2022.2.5,59.81097339947374,
,3,5,3,5,0,0,16,,train_dim1_1,25,30,,,,2,0,2,0,,,,,,,,,0,0,0,0,0,24,24,24,0,0,0,0,,,,,,,,,,,,,,,,,,,,,,,,,stimuli/alien_stimuli/16.png,,,,,,,,,,,,,,,,,,,,,,,,,,,,,stimuli/alien_stimuli/56.png,56,4,26,,,,,,,30,,,,,,,,1322.4997454999975,1322.4997454999975,1322.4997454999975,1322.4997454999975,1322.4997454999975,return,2.1542327999995905,19,0,0,1,0.08,0,return,2.044151600002806,0,64,0.08,0,1320.912292699999,1322.4997454999975,0.48,0.32,0.0,0.32,0.32,0.48,0.32,0.48,0.32,1319.6911618999984,1319.6911618999984,1319.6911618999984,1319.6911618999984,1319.6911618999984,1319.6911618999984,1319.6911618999984,1319.6911618999984,1319.6776528000014,1.3363822999999684,return,1.1946088000040618,,,,,,,,,,,,,,,,,,,,,,,,,,,,,,,,,Y41LPD,train_x,red_square,top_left,2025-08-29_14h52.28.731,HideSeek_v1,2022.2.5,59.81097339947374,
,1,6,6,6,5,0,66,,train_dim1_1,26,30,,,,2,0,2,0,,,,,,,,,0,0,0,0,0,25,25,25,0,0,0,0,,,,,,,,,,,,,,,,,,,,,,,,,stimuli/alien_stimuli/66.png,,,,,,,,,,,,,,,,,,,,,,,,,,,,,stimuli/alien_stimuli/16.png,16,3,27,,,,,,,30,,,,,,,,1334.001980099998,1334.001980099998,1334.001980099998,1334.001980099998,1334.001980099998,right,2.7700509000023885,19,0,0,99,0.0,0.08,right,2.680498500001704,,,,,1332.4384447999983,1334.001980099998,0.08,0,0.0,0.0,0.0,0.08,0.08,0.08,0,1326.2086759999984,1326.2086759999984,1326.2086759999984,1326.2086759999984,1326.2086759999984,1326.2086759999984,1326.2086759999984,1326.2086759999984,1326.1995464000008,6.3574139999982435,return,6.205904800001008,,,,,,,,,,,,,,,,,,,,,,,,,,,,,,,,,Y41LPD,train_x,red_square,top_left,2025-08-29_14h52.28.731,HideSeek_v1,2022.2.5,59.81097339947374,
,1,6,6,6,5,0,66,,train_dim1_1,26,30,,,,2,0,2,0,,,,,,,,,0,0,0,0,0,25,25,25,1,0,1,0,,,,,,,,,,,,,,,,,,,,,,,,,,,,,,,,,,,,,,,,,,,,,,,,,,,,,,,,,,,,,,,,30,,,,,,,,1336.7726795999988,1336.7726795999988,1336.7726795999988,1336.7726795999988,1336.7726795999988,right,0.34287720000065747,19,0,0,99,0.08,0.08,right,0.2604099000018323,,,,,,,,,,,,,,,,,,,,,,,,,,,,,,,,,,,,,,,,,,,,,,,,,,,,,,,,,,,,Y41LPD,train_x,red_square,top_left,2025-08-29_14h52.28.731,HideSeek_v1,2022.2.5,59.81097339947374,
,1,6,6,6,5,0,66,,train_dim1_1,26,30,,,,2,0,2,0,,,,,,,,,0,0,0,0,0,25,25,25,2,0,2,0,,,,,,,,,,,,,,,,,,,,,,,,,,,,,,,,,,,,,,,,,,,,,,,,,,,,,,,,,,,,,,,,30,,,,,,,,1337.1269872999983,1337.1269872999983,1337.1269872999983,1337.1269872999983,1337.1269872999983,right,0.3260547000027145,19,0,0,99,0.16,0.08,right,0.248434900000575,,,,,,,,,,,,,,,,,,,,,,,,,,,,,,,,,,,,,,,,,,,,,,,,,,,,,,,,,,,,Y41LPD,train_x,red_square,top_left,2025-08-29_14h52.28.731,HideSeek_v1,2022.2.5,59.81097339947374,
,1,6,6,6,5,0,66,,train_dim1_1,26,30,,,,2,0,2,0,,,,,,,,,0,0,0,0,0,25,25,25,3,0,3,0,,,,,,,,,,,,,,,,,,,,,,,,,,,,,,,,,,,,,,,,,,,,,,,,,,,,,,,,,,,,,,,,30,,,,,,,,1337.4579544999979,1337.4579544999979,1337.4579544999979,1337.4579544999979,1337.4579544999979,right,0.36075290000007953,19,0,0,99,0.24,0.08,right,0.2755122999988089,,,,,,,,,,,,,,,,,,,,,,,,,,,,,,,,,,,,,,,,,,,,,,,,,,,,,,,,,,,,Y41LPD,train_x,red_square,top_left,2025-08-29_14h52.28.731,HideSeek_v1,2022.2.5,59.81097339947374,
,1,6,6,6,5,0,66,,train_dim1_1,26,30,,,,2,0,2,0,,,,,,,,,0,0,0,0,0,25,25,25,4,0,4,0,,,,,,,,,,,,,,,,,,,,,,,,,,,,,,,,,,,,,,,,,,,,,,,,,,,,,,,,,,,,,,,,30,,,,,,,,1337.8235972999973,1337.8235972999973,1337.8235972999973,1337.8235972999973,1337.8235972999973,right,0.40947830000004615,19,0,0,99,0.32,0.08,right,0.33202130000063335,,,,,,,,,,,,,,,,,,,,,,,,,,,,,,,,,,,,,,,,,,,,,,,,,,,,,,,,,,,,Y41LPD,train_x,red_square,top_left,2025-08-29_14h52.28.731,HideSeek_v1,2022.2.5,59.81097339947374,
,1,6,6,6,5,0,66,,train_dim1_1,26,30,,,,2,0,2,0,,,,,,,,,0,0,0,0,0,25,25,25,5,0,5,0,,,,,,,,,,,,,,,,,,,,,,,,,,,,,,,,,,,,,,,,,,,,,,,,,,,,,,,,,,,,,,,,30,,,,,,,,1338.2415490999992,1338.2415490999992,1338.2415490999992,1338.2415490999992,1338.2415490999992,return,0.7761702000025252,20,0,0,1,0.32,0.08,return,0.688468100001046,0,69,0.32,0.08,,,,,,,,,,,,,,,,,,,,,,,,,,,,,,,,,,,,,,,,,,,,,,,,,,,,,,,,Y41LPD,train_x,red_square,top_left,2025-08-29_14h52.28.731,HideSeek_v1,2022.2.5,59.81097339947374,
,0,6,3,6,3,0,46,,train_dim1_1,27,30,,,,2,0,2,0,,,,,,,,,0,0,0,0,0,26,26,26,0,0,0,0,,,,,,,,,,,,,,,,,,,,,,,,,stimuli/alien_stimuli/46.png,,,,,,,,,,,,,,,,,,,,,,,,,,,,,stimuli/alien_stimuli/66.png,66,1,28,,,,,,,30,,,,,,,,1344.8595572999984,1344.8595572999984,1344.8595572999984,1344.8595572999984,1344.8595572999984,right,20.80321929999991,20,0,0,99,-0.08,0.08,right,20.71043709999867,,,,,1343.2974166999993,1344.8595572999984,0.32,0.08,0.0,0.4,0.08,0.32,0.12,0.32,0.08,1340.6003205999987,1340.6003205999987,1340.6003205999987,1340.6003205999987,1340.6003205999987,1340.6003205999987,1340.6003205999987,1340.6003205999987,1340.5784716999992,2.821001799999067,return,2.677218600001652,,,,,,,,,,,,,,,,,,,,,,,,,,,,,,,,,Y41LPD,train_x,red_square,top_left,2025-08-29_14h52.28.731,HideSeek_v1,2022.2.5,59.81097339947374,
,0,6,3,6,3,0,46,,train_dim1_1,27,30,,,,2,0,2,0,,,,,,,,,0,0,0,0,0,26,26,26,1,0,1,0,,,,,,,,,,,,,,,,,,,,,,,,,,,,,,,,,,,,,,,,,,,,,,,,,,,,,,,,,,,,,,,,30,,,,,,,,1365.6686244999983,1365.6686244999983,1365.6686244999983,1365.6686244999983,1365.6686244999983,right,0.826333799999702,20,0,0,99,0.0,0.08,right,0.7335707000020193,,,,,,,,,,,,,,,,,,,,,,,,,,,,,,,,,,,,,,,,,,,,,,,,,,,,,,,,,,,,Y41LPD,train_x,red_square,top_left,2025-08-29_14h52.28.731,HideSeek_v1,2022.2.5,59.81097339947374,
,0,6,3,6,3,0,46,,train_dim1_1,27,30,,,,2,0,2,0,,,,,,,,,0,0,0,0,0,26,26,26,2,0,2,0,,,,,,,,,,,,,,,,,,,,,,,,,,,,,,,,,,,,,,,,,,,,,,,,,,,,,,,,,,,,,,,,30,,,,,,,,1366.4979791999976,1366.4979791999976,1366.4979791999976,1366.4979791999976,1366.4979791999976,right,0.7593631999989157,20,0,0,99,0.08,0.08,right,0.6774316000046383,,,,,,,,,,,,,,,,,,,,,,,,,,,,,,,,,,,,,,,,,,,,,,,,,,,,,,,,,,,,Y41LPD,train_x,red_square,top_left,2025-08-29_14h52.28.731,HideSeek_v1,2022.2.5,59.81097339947374,
,0,6,3,6,3,0,46,,train_dim1_1,27,30,,,,2,0,2,0,,,,,,,,,0,0,0,0,0,26,26,26,3,0,3,0,,,,,,,,,,,,,,,,,,,,,,,,,,,,,,,,,,,,,,,,,,,,,,,,,,,,,,,,,,,,,,,,30,,,,,,,,1367.2643328999984,1367.2643328999984,1367.2643328999984,1367.2643328999984,1367.2643328999984,return,0.7435296000003291,21,0,0,1,0.08,0.08,return,0.6663283000016236,0,72,0.08,0.08,,,,,,,,,,,,,,,,,,,,,,,,,,,,,,,,,,,,,,,,,,,,,,,,,,,,,,,,Y41LPD,train_x,red_square,top_left,2025-08-29_14h52.28.731,HideSeek_v1,2022.2.5,59.81097339947374,
,3,6,4,6,1,0,26,,train_dim1_1,28,30,,,,2,0,2,0,,,,,,,,,0,0,0,0,0,27,27,27,0,0,0,0,,,,,,,,,,,,,,,,,,,,,,,,,stimuli/alien_stimuli/26.png,,,,,,,,,,,,,,,,,,,,,,,,,,,,,stimuli/alien_stimuli/46.png,46,0,29,,,,,,,30,,,,,,,,1378.074432999998,1378.074432999998,1378.074432999998,1378.074432999998,1378.074432999998,right,1.553009999999631,21,0,0,99,0.16,0.08,right,1.4606795000036072,,,,,1376.5081982999982,1378.074432999998,0.08,0.08,0.0,0.24,0.08,0.08,-0.04,0.08,0.08,1369.5918399000002,1369.5918399000002,1369.5918399000002,1369.5918399000002,1369.5918399000002,1369.5918399000002,1369.5918399000002,1369.5918399000002,1369.5859242999993,7.041697000000568,return,6.890155300003244,,,,,,,,,,,,,,,,,,,,,,,,,,,,,,,,,Y41LPD,train_x,red_square,top_left,2025-08-29_14h52.28.731,HideSeek_v1,2022.2.5,59.81097339947374,
,3,6,4,6,1,0,26,,train_dim1_1,28,30,,,,2,0,2,0,,,,,,,,,0,0,0,0,0,27,27,27,1,0,1,0,,,,,,,,,,,,,,,,,,,,,,,,,,,,,,,,,,,,,,,,,,,,,,,,,,,,,,,,,,,,,,,,30,,,,,,,,1379.6302050999984,1379.6302050999984,1379.6302050999984,1379.6302050999984,1379.6302050999984,return,0.5431948000004923,22,0,0,1,0.16,0.08,return,0.4506128000030003,0,73,0.16,0.08,,,,,,,,,,,,,,,,,,,,,,,,,,,,,,,,,,,,,,,,,,,,,,,,,,,,,,,,Y41LPD,train_x,red_square,top_left,2025-08-29_14h52.28.731,HideSeek_v1,2022.2.5,59.81097339947374,
,4,5,8,5,4,0,56,,train_dim1_1,29,30,,,,2,0,2,0,,,,,,,,,0,0,0,0,0,28,28,28,0,0,0,0,,,,,,,,,,,,,,,,,,,,,,,,,stimuli/alien_stimuli/56.png,,,,,,,,,,,,,,,,,,,,,,,,,,,,,stimuli/alien_stimuli/26.png,26,3,30,,,,,,,30,,,,,,,,1385.2044357999985,1385.2044357999985,1385.2044357999985,1385.2044357999985,1385.2044357999985,right,2.406539599996904,22,0,0,99,0.24,0,right,2.3087191000013263,,,,,1383.6308237999983,1385.2044357999985,0.16,0.08,0.0,0.08,0.08,0.16,0.12,0.16,0.08,1381.7625845000002,1381.7625845000002,1381.7625845000002,1381.7625845000002,1381.7625845000002,1381.7625845000002,1381.7625845000002,1381.7625845000002,1381.7456581999993,2.00388699999894,return,1.8451542000002519,,,,,,,,,,,,,,,,,,,,,,,,,,,,,,,,,Y41LPD,train_x,red_square,top_left,2025-08-29_14h52.28.731,HideSeek_v1,2022.2.5,59.81097339947374,
,4,5,8,5,4,0,56,,train_dim1_1,29,30,,,,2,0,2,0,,,,,,,,,0,0,0,0,0,28,28,28,1,0,1,0,,,,,,,,,,,,,,,,,,,,,,,,,,,,,,,,,,,,,,,,,,,,,,,,,,,,,,,,,,,,,,,,30,,,,,,,,1387.6031543999998,1387.6031543999998,1387.6031543999998,1387.6031543999998,1387.6031543999998,right,1.093520800000988,22,0,0,99,0.32,0,right,1.0068600000013248,,,,,,,,,,,,,,,,,,,,,,,,,,,,,,,,,,,,,,,,,,,,,,,,,,,,,,,,,,,,Y41LPD,train_x,red_square,top_left,2025-08-29_14h52.28.731,HideSeek_v1,2022.2.5,59.81097339947374,
,4,5,8,5,4,0,56,,train_dim1_1,29,30,,,,2,0,2,0,,,,,,,,,0,0,0,0,0,28,28,28,2,0,2,0,,,,,,,,,,,,,,,,,,,,,,,,,,,,,,,,,,,,,,,,,,,,,,,,,,,,,,,,,,,,,,,,30,,,,,,,,1388.7026683999975,1388.7026683999975,1388.7026683999975,1388.7026683999975,1388.7026683999975,right,0.5928510000012466,22,0,0,99,0.4,0,right,0.5137407000001986,,,,,,,,,,,,,,,,,,,,,,,,,,,,,,,,,,,,,,,,,,,,,,,,,,,,,,,,,,,,Y41LPD,train_x,red_square,top_left,2025-08-29_14h52.28.731,HideSeek_v1,2022.2.5,59.81097339947374,
,4,5,8,5,4,0,56,,train_dim1_1,29,30,,,,2,0,2,0,,,,,,,,,0,0,0,0,0,28,28,28,3,0,3,0,,,,,,,,,,,,,,,,,,,,,,,,,,,,,,,,,,,,,,,,,,,,,,,,,,,,,,,,,,,,,,,,30,,,,,,,,1389.307069399998,1389.307069399998,1389.307069399998,1389.307069399998,1389.307069399998,right,1.007490300002246,22,0,0,99,0.48000000000000004,0,right,0.9136337000018102,,,,,,,,,,,,,,,,,,,,,,,,,,,,,,,,,,,,,,,,,,,,,,,,,,,,,,,,,,,,Y41LPD,train_x,red_square,top_left,2025-08-29_14h52.28.731,HideSeek_v1,2022.2.5,59.81097339947374,
,4,5,8,5,4,0,56,,train_dim1_1,29,30,,,,2,0,2,0,,,,,,,,,0,0,0,0,0,28,28,28,4,0,4,0,,,,,,,,,,,,,,,,,,,,,,,,,,,,,,,,,,,,,,,,,,,,,,,,,,,,,,,,,,,,,,,,30,,,,,,,,1390.3194640999973,1390.3194640999973,1390.3194640999973,1390.3194640999973,1390.3194640999973,return,0.8097707000015362,23,0,0,1,0.48000000000000004,0,return,0.721768700001121,0,77,0.48000000000000004,0,,,,,,,,,,,,,,,,,,,,,,,,,,,,,,,,,,,,,,,,,,,,,,,,,,,,,,,,Y41LPD,train_x,red_square,top_left,2025-08-29_14h52.28.731,HideSeek_v1,2022.2.5,59.81097339947374,
,2,7,2,7,0,0,16,,train_dim1_1,30,30,,,,2,0,2,0,,,,,,,,,0,0,0,0,0,29,29,29,0,0,0,0,,,,,,,,,,,,,,,,,,,,,,,,,stimuli/alien_stimuli/16.png,,,,,,,,,,,,,,,,,,,,,,,,,,,,,stimuli/alien_stimuli/56.png,56,4,31,,,,,,,30,,,,,,,,1395.6586419999985,1395.6586419999985,1395.6586419999985,1395.6586419999985,1395.6586419999985,return,1.6880252999981167,24,0,0,1,0,0.16,return,1.5703598000000056,0,77,0,0.16,1394.0728053999992,1395.6586419999985,0.48,0,0.0,0.32,0.0,0.48,0.32,0.48,0,1392.7168351,1392.7168351,1392.7168351,1392.7168351,1392.7168351,1392.7168351,1392.7168351,1392.7168351,1392.7048254000017,1.4864645000016026,return,1.3330600000008417,,,,,,,,,,,,,,,,,,,,,,,,,,,,,,,,,Y41LPD,train_x,red_square,top_left,2025-08-29_14h52.28.731,HideSeek_v1,2022.2.5,59.81097339947374,
,,,,,,,,,,,30,,,,2,0,2,0,,,,,,,,,,,,,,,,,,,,,,,,,,,,,,,,,,,,,,,,,,,,,,,,,,,,,,,,,,,,,,,,,,,,,,,,,,stimuli/alien_stimuli/16.png,16,2,32,21,0.7,1.0,1,1,1,30,0,conditions/schedules/train_x_first/red_square_00/top_left/inputTrain_2.1.xlsx,99,1,2,1,0,,,,,,,,,,,1,,,,,,,,,1400.6115675999972,1402.1578463000005,0,0.16,0.0,0.0,0.16,0,0.0,0,0.16,1398.8874013999994,1398.8874013999994,1398.8874013999994,1398.8874013999994,1398.8874013999994,1398.8874013999994,1398.8874013999994,1398.8874013999994,1398.876690900001,1.8372124999987136,return,1.7001142000008258,0,0.9,0,1,24,,,,,,,,,,,,,,,,,,,,,,,,,,,,Y41LPD,train_x,red_square,top_left,2025-08-29_14h52.28.731,HideSeek_v1,2022.2.5,59.81097339947374,
,,,,,,,,,,,,,,,3,0,3,0,0,0,0,0,,,,,,,,,,,,,,,,,,,,,,,,,,,,,,,conditions/schedules/train_x_first/red_square_00/top_left/instructions/Slide17.png,conditions/schedules/train_x_first/red_square_00/top_left/instructions/Audio17.wav,1402.1578463000005,1402.1459562999987,17,"[8.351909000000887, 18.14672849999988, 16.889866800000163, 19.498724500001117, 5.738076900001033, 5.44820719999916, 6.761628100000962, 12.306634200002009, 6.134902699999657, 7.503956299999118, 9.851972799999203, 12.690836499998113, 17.051844800000254, 13.436958799997228, 30.047907200001646, 21.536984999998822, 217.08320949999688]","[0.0312928000021202, 0.00023430000146618113, 0.032325100000889506, 0.033343999999488005, 0.031483599999774015, 0.03584279999995488, 0.0471319999996922, 0.04782859999977518, 0.04781540000112727, 0.03195209999830695, 0.03074930000002496, 12.690843699998368, 0.0314708999976574, 13.436965799999598, 0.013605100000859238, 21.536991000000853, 217.08321669999714]",0,,,,,,,,,,,,,,,,,,,,,,,,,,,,,,,,,,,,,,,,,,,,,,,,,,,,,,,,,,,,,,,,,,,,,,,,,,,,,,,,,,,,,,,,,,,,,,,,,,,,,,,,,,,,,,,,,,,,,,,,,,,,Y41LPD,train_x,red_square,top_left,2025-08-29_14h52.28.731,HideSeek_v1,2022.2.5,59.81097339947374,
,,,,,,,,,,,,,,,3,0,3,0,1,0,1,0,,,,,,,,,,,,,,,,,,,,,,,,,,,,,,,conditions/schedules/train_x_first/red_square_00/top_left/instructions/Slide18.png,conditions/schedules/train_x_first/red_square_00/top_left/instructions/Audio18.wav,1619.310566799999,1619.3095563000006,18,"[8.351909000000887, 18.14672849999988, 16.889866800000163, 19.498724500001117, 5.738076900001033, 5.44820719999916, 6.761628100000962, 12.306634200002009, 6.134902699999657, 7.503956299999118, 9.851972799999203, 12.690836499998113, 17.051844800000254, 13.436958799997228, 30.047907200001646, 21.536984999998822, 217.08320949999688, 7.169479000000138]","[0.0312928000021202, 0.00023430000146618113, 0.032325100000889506, 0.033343999999488005, 0.031483599999774015, 0.03584279999995488, 0.0471319999996922, 0.04782859999977518, 0.04781540000112727, 0.03195209999830695, 0.03074930000002496, 12.690843699998368, 0.0314708999976574, 13.436965799999598, 0.013605100000859238, 21.536991000000853, 0.00026059999800054356, 7.1694858000009845]",0,,,,,,,,,,,,,,,,,,,,,,,,,,,,,,,,,,,,,,,,,,,,,,,,,,,,,,,,,,,,,,,,,,,,,,,,,,,,,,,,,,,,,,,,,,,,,,,,,,,,,,,,,,,,,,,,,,,,,,,,,,,,Y41LPD,train_x,red_square,top_left,2025-08-29_14h52.28.731,HideSeek_v1,2022.2.5,59.81097339947374,
,,,,,,,,,,,,,,,3,0,3,0,2,0,2,0,,,,,,,,,,,,,,,,,,,,,,,,,,,,,,,conditions/schedules/train_x_first/red_square_00/top_left/instructions/Slide19.png,conditions/schedules/train_x_first/red_square_00/top_left/instructions/Audio19.wav,1626.5188420999984,1626.5156787999983,19,"[8.351909000000887, 18.14672849999988, 16.889866800000163, 19.498724500001117, 5.738076900001033, 5.44820719999916, 6.761628100000962, 12.306634200002009, 6.134902699999657, 7.503956299999118, 9.851972799999203, 12.690836499998113, 17.051844800000254, 13.436958799997228, 30.047907200001646, 21.536984999998822, 217.08320949999688, 7.169479000000138, 11.403605000003154]","[0.0312928000021202, 0.00023430000146618113, 0.032325100000889506, 0.033343999999488005, 0.031483599999774015, 0.03584279999995488, 0.0471319999996922, 0.04782859999977518, 0.04781540000112727, 0.03195209999830695, 0.03074930000002496, 12.690843699998368, 0.0314708999976574, 13.436965799999598, 0.013605100000859238, 21.536991000000853, 0.00026059999800054356, 0.0474281000024348, 11.403612100002647]",0,,,,,,,,,,,,,,,,,,,,,,,,,,,,,,,,,,,,,,,,,,,,,,,,,,,,,,,,,,,,,,,,,,,,,,,,,,,,,,,,,,,,,,,,,,,,,,,,,,,,,,,,,,,,,,,,,,,,,,,,,,,,Y41LPD,train_x,red_square,top_left,2025-08-29_14h52.28.731,HideSeek_v1,2022.2.5,59.81097339947374,
,,,,,,,,,,,,,,,3,0,3,0,3,0,3,0,,,,,,,,,,,,,,,,,,,,,,,,,,,,,,,conditions/schedules/train_x_first/red_square_00/top_left/instructions/Slide20.png,conditions/schedules/train_x_first/red_square_00/top_left/instructions/Audio20.wav,1637.9921757999982,1637.9918691000003,20,"[8.351909000000887, 18.14672849999988, 16.889866800000163, 19.498724500001117, 5.738076900001033, 5.44820719999916, 6.761628100000962, 12.306634200002009, 6.134902699999657, 7.503956299999118, 9.851972799999203, 12.690836499998113, 17.051844800000254, 13.436958799997228, 30.047907200001646, 21.536984999998822, 217.08320949999688, 7.169479000000138, 11.403605000003154, 14.19370649999837]","[0.0312928000021202, 0.00023430000146618113, 0.032325100000889506, 0.033343999999488005, 0.031483599999774015, 0.03584279999995488, 0.0471319999996922, 0.04782859999977518, 0.04781540000112727, 0.03195209999830695, 0.03074930000002496, 12.690843699998368, 0.0314708999976574, 13.436965799999598, 0.013605100000859238, 21.536991000000853, 0.00026059999800054356, 0.0474281000024348, 0.014025099997525103, 14.193712599997525]",0,,,,,,,,,,,,,,,,,,,,,,,,,,,,,,,,,,,,,,,,,,,,,,,,,,,,,,,,,,,,,,,,,,,,,,,,,,,,,,,,,,,,,,,,,,,,,,,,,,,,,,,,,,,,,,,,,,,,,,,,,,,,Y41LPD,train_x,red_square,top_left,2025-08-29_14h52.28.731,HideSeek_v1,2022.2.5,59.81097339947374,
1,2,8,2,3,0,-5,11,2,instr_dim1_2,,,,,,3,0,3,0,,,,,0,0,0,0,,,,,,,,,,,,,,,,,,,,,,,,,,,,,,,,,,,,,stimuli/alien_stimuli/11.png,conditions/schedules/train_x_first/red_square_00/top_left/inputInstr_2.xlsx,stimuli/alien_stimuli/11.png,1652.2926956999981,1652.2926956999981,1652.2926956999981,1652.2926956999981,1652.2885801999987,return,10.452752100001817,"[-0.16, -0.08, 0, 0.08, 0.16, 0.24, 0.32, 0.4, 0.48, 0.56]","[-0.4, -0.32, -0.24, -0.16, -0.08, 0, 0.08, 0.16, 0.24, 0.32]",3,8,2,2,0.4,0.0,1662.9173186000007,1662.9173186000007,1662.9173186000007,1662.9173186000007,1662.9173186000007,1662.9173186000007,1662.9173186000007,1662.9121043000014,14.847185999999056,return,14.660406099999818,stimuli/alien_stimuli/11.png,11,2,1,,,,,,,,,,,,,,,,,,,,,,,,,,,,,,,,,,,,,,,,,,,,,,,,,,,,,,,,,,,,,,,,,,,,,,,,,,,,,,,,,,,,,,,,,Y41LPD,train_x,red_square,top_left,2025-08-29_14h52.28.731,HideSeek_v1,2022.2.5,59.81097339947374,
,,,,,,,,,,,30,,,,3,0,3,0,,,,,,,,,,,,,,,,,,,,,,,,,,,,,,,,,,,,,,,,,,,,,,,,,,,,,,,,,,,,,,,,,,,,,,,,,,,,,,21,0.7,1.0,1,99,2,30,0,conditions/schedules/train_x_first/red_square_00/top_left/inputTrain_2.1.xlsx,99,1,2,1,0,,,,,,,,,,,,,,,,,,,,,,,,,,,,,,,,,,,,,,,,,,,,,,,,,,,,,,,,,,,,,,,,,,,,,,,,,,,Y41LPD,train_x,red_square,top_left,2025-08-29_14h52.28.731,HideSeek_v1,2022.2.5,59.81097339947374,
,,,,,,,,,,,,,,,4,0,4,0,0,0,0,0,,,,,,,,,,,,,,,,,,,,,,,,,,,,,,,conditions/schedules/train_x_first/red_square_00/top_left/instructions/Slide21.png,conditions/schedules/train_x_first/red_square_00/top_left/instructions/Audio21.wav,1677.813624899998,1677.8080086000007,21,"[8.351909000000887, 18.14672849999988, 16.889866800000163, 19.498724500001117, 5.738076900001033, 5.44820719999916, 6.761628100000962, 12.306634200002009, 6.134902699999657, 7.503956299999118, 9.851972799999203, 12.690836499998113, 17.051844800000254, 13.436958799997228, 30.047907200001646, 21.536984999998822, 217.08320949999688, 7.169479000000138, 11.403605000003154, 14.19370649999837, 17.20607800000289]","[0.0312928000021202, 0.00023430000146618113, 0.032325100000889506, 0.033343999999488005, 0.031483599999774015, 0.03584279999995488, 0.0471319999996922, 0.04782859999977518, 0.04781540000112727, 0.03195209999830695, 0.03074930000002496, 12.690843699998368, 0.0314708999976574, 13.436965799999598, 0.013605100000859238, 21.536991000000853, 0.00026059999800054356, 0.0474281000024348, 0.014025099997525103, 14.193712599997525, 17.206085800000437]",0,,,,,,,,,,,,,,,,,,,,,,,,,,,,,,,,,,,,,,,,,,,,,,,,,,,,,,,,,,,,,,,,,,,,,,,,,,,,,,,,,,,,,,,,,,,,,,,,,,,,,,,,,,,,,,,,,,,,,,,,,,,,Y41LPD,train_x,red_square,top_left,2025-08-29_14h52.28.731,HideSeek_v1,2022.2.5,59.81097339947374,
2,0,8,0,8,0,0,16,2,instr_dim1_2,,,,,,4,0,4,0,,,,,0,0,0,0,,,,,,,,,,,,,,,,,,,,,,,,,,,,,,,,,,,,,stimuli/alien_stimuli/16.png,conditions/schedules/train_x_first/red_square_00/top_left/inputInstr_2.xlsx,stimuli/alien_stimuli/16.png,1695.1241716000004,1695.1241716000004,1695.1241716000004,1695.1241716000004,1695.1222698999995,return,6.830973400003131,"[-0.16, -0.08, 0, 0.08, 0.16, 0.24, 0.32, 0.4, 0.48, 0.56]","[-0.4, -0.32, -0.24, -0.16, -0.08, 0, 0.08, 0.16, 0.24, 0.32]",8,8,0,0,0.0,0.0,1702.1057923000008,1702.1057923000008,1702.1057923000008,1702.1057923000008,1702.1057923000008,1702.1057923000008,1702.1057923000008,1702.0946603999998,7.273940399998537,return,7.113436200001161,stimuli/alien_stimuli/16.png,16,0,2,,,,,,,,,,,,,,,,,,,,,,,,,,,,,,,,,,,,,,,,,,,,,,,,,,,,,,,,,,,,,,,,,,,,,,,,,,,,,,,,,,,,,,,,,Y41LPD,train_x,red_square,top_left,2025-08-29_14h52.28.731,HideSeek_v1,2022.2.5,59.81097339947374,
,,,,,,,,,,,30,,,,4,0,4,0,,,,,,,,,,,,,,,,,,,,,,,,,,,,,,,,,,,,,,,,,,,,,,,,,,,,,,,,,,,,,,,,,,,,,,,,,,,,,,21,0.7,1.0,1,99,2,30,0,conditions/schedules/train_x_first/red_square_00/top_left/inputTrain_2.1.xlsx,99,1,2,1,0,,,,,,,,,,,,,,,,,,,,,,,,,,,,,,,,,,,,,,,,,,,,,,,,,,,,,,,,,,,,,,,,,,,,,,,,,,,Y41LPD,train_x,red_square,top_left,2025-08-29_14h52.28.731,HideSeek_v1,2022.2.5,59.81097339947374,
,,,,,,,,,,,,,,,5,0,5,0,0,0,0,0,,,,,,,,,,,,,,,,,,,,,,,,,,,,,,,conditions/schedules/train_x_first/red_square_00/top_left/instructions/Slide22.png,conditions/schedules/train_x_first/red_square_00/top_left/instructions/Audio22.wav,1709.421833299999,1709.4176949000005,22,"[8.351909000000887, 18.14672849999988, 16.889866800000163, 19.498724500001117, 5.738076900001033, 5.44820719999916, 6.761628100000962, 12.306634200002009, 6.134902699999657, 7.503956299999118, 9.851972799999203, 12.690836499998113, 17.051844800000254, 13.436958799997228, 30.047907200001646, 21.536984999998822, 217.08320949999688, 7.169479000000138, 11.403605000003154, 14.19370649999837, 17.20607800000289, 29.15142950000154]","[0.0312928000021202, 0.00023430000146618113, 0.032325100000889506, 0.033343999999488005, 0.031483599999774015, 0.03584279999995488, 0.0471319999996922, 0.04782859999977518, 0.04781540000112727, 0.03195209999830695, 0.03074930000002496, 12.690843699998368, 0.0314708999976574, 13.436965799999598, 0.013605100000859238, 21.536991000000853, 0.00026059999800054356, 0.0474281000024348, 0.014025099997525103, 14.193712599997525, 17.206085800000437, 29.15143679999892]",0,,,,,,,,,,,,,,,,,,,,,,,,,,,,,,,,,,,,,,,,,,,,,,,,,,,,,,,,,,,,,,,,,,,,,,,,,,,,,,,,,,,,,,,,,,,,,,,,,,,,,,,,,,,,,,,,,,,,,,,,,,,,Y41LPD,train_x,red_square,top_left,2025-08-29_14h52.28.731,HideSeek_v1,2022.2.5,59.81097339947374,
,0,5,0,4,0,-1,15,,train_dim1_2,1,30,,,,5,0,5,0,,,,,,,,,0,0,0,0,0,0,0,0,0,0,0,0,,,,,,,,,,,,,,,,,,,,,,,,,stimuli/alien_stimuli/15.png,,,,,,,,,,,,,,,,,,,,,,,,,,,,,,,,,,,,,,,30,,,,,,,,1738.6810086999976,1738.6810086999976,1738.6810086999976,1738.6810086999976,1738.6810086999976,return,17.88909870000134,0,1,0,0,-0.16,0,return,17.782577300000412,0,77,-0.16,0,,,,,,,,,,,,,,,,,,,,,,,,,,,,,,,,,,,,,,,,,,,,,,,,,,,,,,,,Y41LPD,train_x,red_square,top_left,2025-08-29_14h52.28.731,HideSeek_v1,2022.2.5,59.81097339947374,
,3,7,3,7,0,0,16,,train_dim1_2,2,30,,,,5,0,5,0,,,,,,,,,0,0,0,0,0,1,1,1,0,0,0,0,,,,,,,,,,,,,,,,,,,,,,,,,stimuli/alien_stimuli/16.png,,,,,,,,,,,,,,,,,,,,,,,,,,,,,stimuli/alien_stimuli/15.png,15,0,3,,,,,,,30,,,,,,,,1789.9823670999976,1789.9823670999976,1789.9823670999976,1789.9823670999976,1789.9823670999976,return,2.020540900000924,1,0,0,1,0.08,0.16,return,1.9109076999993704,0,77,0.08,0.16,1788.399686599998,1789.9823670999976,-0.16,-0.08,0.08,0.0,-0.04,-0.16,-0.16,-0.16,-0.08,1758.1408477000004,1758.1408477000004,1758.1408477000004,1758.1408477000004,1758.1408477000004,1758.1408477000004,1758.1408477000004,1758.1408477000004,1758.1413314000008,30.394168200000422,return,30.23378710000179,,,,,,,,,,,,,,,,,,,,,,,,,,,,,,,,,Y41LPD,train_x,red_square,top_left,2025-08-29_14h52.28.731,HideSeek_v1,2022.2.5,59.81097339947374,
,2,8,2,5,0,-3,13,,train_dim1_2,3,30,,,,5,0,5,0,,,,,,,,,0,0,0,0,0,2,2,2,0,0,0,0,,,,,,,,,,,,,,,,,,,,,,,,,stimuli/alien_stimuli/13.png,,,,,,,,,,,,,,,,,,,,,,,,,,,,,stimuli/alien_stimuli/16.png,16,3,4,,,,,,,30,,,,,,,,1796.195306499998,1796.195306499998,1796.195306499998,1796.195306499998,1796.195306499998,down,2.3730562000018836,1,0,0,99,0,0.15999999999999998,down,2.2931048999998893,,,,,1794.638207,1796.195306499998,0.08,0.16,0.0,0.0,0.16,0.08,0.08,0.08,0.16,1793.5562729999983,1793.5562729999983,1793.5562729999983,1793.5562729999983,1793.5562729999983,1793.5562729999983,1793.5562729999983,1793.5562729999983,1793.5541799,1.2025794000001042,return,1.0622531000008166,,,,,,,,,,,,,,,,,,,,,,,,,,,,,,,,,Y41LPD,train_x,red_square,top_left,2025-08-29_14h52.28.731,HideSeek_v1,2022.2.5,59.81097339947374,
,2,8,2,5,0,-3,13,,train_dim1_2,3,30,,,,5,0,5,0,,,,,,,,,0,0,0,0,0,2,2,2,1,0,1,0,,,,,,,,,,,,,,,,,,,,,,,,,,,,,,,,,,,,,,,,,,,,,,,,,,,,,,,,,,,,,,,,30,,,,,,,,1798.5941492999991,1798.5941492999991,1798.5941492999991,1798.5941492999991,1798.5941492999991,down,0.7907699999996112,1,0,0,99,0,0.07999999999999997,down,0.6961014000007708,,,,,,,,,,,,,,,,,,,,,,,,,,,,,,,,,,,,,,,,,,,,,,,,,,,,,,,,,,,,Y41LPD,train_x,red_square,top_left,2025-08-29_14h52.28.731,HideSeek_v1,2022.2.5,59.81097339947374,
,2,8,2,5,0,-3,13,,train_dim1_2,3,30,,,,5,0,5,0,,,,,,,,,0,0,0,0,0,2,2,2,2,0,2,0,,,,,,,,,,,,,,,,,,,,,,,,,,,,,,,,,,,,,,,,,,,,,,,,,,,,,,,,,,,,,,,,30,,,,,,,,1799.3773094999997,1799.3773094999997,1799.3773094999997,1799.3773094999997,1799.3773094999997,down,0.7599814999994123,1,0,0,99,0,-2.7755575615628914e-17,down,0.6667995000025257,,,,,,,,,,,,,,,,,,,,,,,,,,,,,,,,,,,,,,,,,,,,,,,,,,,,,,,,,,,,Y41LPD,train_x,red_square,top_left,2025-08-29_14h52.28.731,HideSeek_v1,2022.2.5,59.81097339947374,
,2,8,2,5,0,-3,13,,train_dim1_2,3,30,,,,5,0,5,0,,,,,,,,,0,0,0,0,0,2,2,2,3,0,3,0,,,,,,,,,,,,,,,,,,,,,,,,,,,,,,,,,,,,,,,,,,,,,,,,,,,,,,,,,,,,,,,,30,,,,,,,,1800.144065299999,1800.144065299999,1800.144065299999,1800.144065299999,1800.144065299999,down,0.7770466000001761,1,0,0,99,0,-0.08000000000000003,down,0.6839465000011842,,,,,,,,,,,,,,,,,,,,,,,,,,,,,,,,,,,,,,,,,,,,,,,,,,,,,,,,,,,,Y41LPD,train_x,red_square,top_left,2025-08-29_14h52.28.731,HideSeek_v1,2022.2.5,59.81097339947374,
,2,8,2,5,0,-3,13,,train_dim1_2,3,30,,,,5,0,5,0,,,,,,,,,0,0,0,0,0,2,2,2,4,0,4,0,,,,,,,,,,,,,,,,,,,,,,,,,,,,,,,,,,,,,,,,,,,,,,,,,,,,,,,,,,,,,,,,30,,,,,,,,1800.9420898999997,1800.9420898999997,1800.9420898999997,1800.9420898999997,1800.9420898999997,down,0.6768104000002495,1,0,0,99,0,-0.16000000000000003,down,0.5835700000025099,,,,,,,,,,,,,,,,,,,,,,,,,,,,,,,,,,,,,,,,,,,,,,,,,,,,,,,,,,,,Y41LPD,train_x,red_square,top_left,2025-08-29_14h52.28.731,HideSeek_v1,2022.2.5,59.81097339947374,
,2,8,2,5,0,-3,13,,train_dim1_2,3,30,,,,5,0,5,0,,,,,,,,,0,0,0,0,0,2,2,2,5,0,5,0,,,,,,,,,,,,,,,,,,,,,,,,,,,,,,,,,,,,,,,,,,,,,,,,,,,,,,,,,,,,,,,,30,,,,,,,,1801.6122135000005,1801.6122135000005,1801.6122135000005,1801.6122135000005,1801.6122135000005,return,1.0935429999990447,1,0,0,0,0,-0.16000000000000003,return,1.0130731000026572,-5,77,0,-0.16000000000000003,,,,,,,,,,,,,,,,,,,,,,,,,,,,,,,,,,,,,,,,,,,,,,,,,,,,,,,,Y41LPD,train_x,red_square,top_left,2025-08-29_14h52.28.731,HideSeek_v1,2022.2.5,59.81097339947374,
,0,6,0,2,0,-4,12,,train_dim1_2,4,30,,,,5,0,5,0,,,,,,,,,0,0,0,0,0,3,3,3,0,0,0,0,,,,,,,,,,,,,,,,,,,,,,,,,stimuli/alien_stimuli/12.png,,,,,,,,,,,,,,,,,,,,,,,,,,,,,stimuli/alien_stimuli/13.png,13,2,5,,,,,,,30,,,,,,,,1879.3200711999998,1879.3200711999998,1879.3200711999998,1879.3200711999998,1879.3200711999998,down,11.311459399999876,1,0,0,99,-0.16,0.0,down,11.204203500001313,,,,,1877.7404513999973,1879.3200711999998,0,0,0.24,0.0,0.12,0,0.0,0,0,1804.2812572999974,1804.2812572999974,1804.2812572999974,1804.2812572999974,1804.2812572999974,1804.2812572999974,1804.2812572999974,1804.2812572999974,1804.2796342999989,73.57976880000206,return,73.44072130000131,,,,,,,,,,,,,,,,,,,,,,,,,,,,,,,,,Y41LPD,train_x,red_square,top_left,2025-08-29_14h52.28.731,HideSeek_v1,2022.2.5,59.81097339947374,
,0,6,0,2,0,-4,12,,train_dim1_2,4,30,,,,5,0,5,0,,,,,,,,,0,0,0,0,0,3,3,3,1,0,1,0,,,,,,,,,,,,,,,,,,,,,,,,,,,,,,,,,,,,,,,,,,,,,,,,,,,,,,,,,,,,,,,,30,,,,,,,,1890.6416873999988,1890.6416873999988,1890.6416873999988,1890.6416873999988,1890.6416873999988,down,2.242316600000777,1,0,0,99,-0.16,-0.08,down,2.137828400002036,,,,,,,,,,,,,,,,,,,,,,,,,,,,,,,,,,,,,,,,,,,,,,,,,,,,,,,,,,,,Y41LPD,train_x,red_square,top_left,2025-08-29_14h52.28.731,HideSeek_v1,2022.2.5,59.81097339947374,
,0,6,0,2,0,-4,12,,train_dim1_2,4,30,,,,5,0,5,0,,,,,,,,,0,0,0,0,0,3,3,3,2,0,2,0,,,,,,,,,,,,,,,,,,,,,,,,,,,,,,,,,,,,,,,,,,,,,,,,,,,,,,,,,,,,,,,,30,,,,,,,,1892.875170899999,1892.875170899999,1892.875170899999,1892.875170899999,1892.875170899999,down,1.707678599999781,1,0,0,99,-0.16,-0.16,down,1.620963600002142,,,,,,,,,,,,,,,,,,,,,,,,,,,,,,,,,,,,,,,,,,,,,,,,,,,,,,,,,,,,Y41LPD,train_x,red_square,top_left,2025-08-29_14h52.28.731,HideSeek_v1,2022.2.5,59.81097339947374,
,0,6,0,2,0,-4,12,,train_dim1_2,4,30,,,,5,0,5,0,,,,,,,,,0,0,0,0,0,3,3,3,3,0,3,0,,,,,,,,,,,,,,,,,,,,,,,,,,,,,,,,,,,,,,,,,,,,,,,,,,,,,,,,,,,,,,,,30,,,,,,,,1894.5895251000002,1894.5895251000002,1894.5895251000002,1894.5895251000002,1894.5895251000002,down,3.445918299999903,1,0,0,99,-0.16,-0.24,down,3.3686588000018673,,,,,,,,,,,,,,,,,,,,,,,,,,,,,,,,,,,,,,,,,,,,,,,,,,,,,,,,,,,,Y41LPD,train_x,red_square,top_left,2025-08-29_14h52.28.731,HideSeek_v1,2022.2.5,59.81097339947374,
,0,6,0,2,0,-4,12,,train_dim1_2,4,30,,,,5,0,5,0,,,,,,,,,0,0,0,0,0,3,3,3,4,0,4,0,,,,,,,,,,,,,,,,,,,,,,,,,,,,,,,,,,,,,,,,,,,,,,,,,,,,,,,,,,,,,,,,30,,,,,,,,1898.0424770999998,1898.0424770999998,1898.0424770999998,1898.0424770999998,1898.0424770999998,down,0.4766113999976369,1,0,0,99,-0.16,-0.32,down,0.38676200000190875,,,,,,,,,,,,,,,,,,,,,,,,,,,,,,,,,,,,,,,,,,,,,,,,,,,,,,,,,,,,Y41LPD,train_x,red_square,top_left,2025-08-29_14h52.28.731,HideSeek_v1,2022.2.5,59.81097339947374,
,0,6,0,2,0,-4,12,,train_dim1_2,4,30,,,,5,0,5,0,,,,,,,,,0,0,0,0,0,3,3,3,5,0,5,0,,,,,,,,,,,,,,,,,,,,,,,,,,,,,,,,,,,,,,,,,,,,,,,,,,,,,,,,,,,,,,,,30,,,,,,,,1898.5270506999987,1898.5270506999987,1898.5270506999987,1898.5270506999987,1898.5270506999987,return,0.6267769000005501,1,1,0,0,-0.16,-0.32,return,0.5354351999994833,-10,77,-0.16,-0.32,,,,,,,,,,,,,,,,,,,,,,,,,,,,,,,,,,,,,,,,,,,,,,,,,,,,,,,,Y41LPD,train_x,red_square,top_left,2025-08-29_14h52.28.731,HideSeek_v1,2022.2.5,59.81097339947374,
,3,8,3,3,0,-5,11,,train_dim1_2,5,30,,,,5,0,5,0,,,,,,,,,0,0,0,0,0,4,4,4,0,0,0,0,,,,,,,,,,,,,,,,,,,,,,,,,stimuli/alien_stimuli/11.png,,,,,,,,,,,,,,,,,,,,,,,,,,,,,stimuli/alien_stimuli/12.png,12,0,6,,,,,,,30,,,,,,,,1913.1130670999992,1913.1130670999992,1913.1130670999992,1913.1130670999992,1913.1130670999992,down,3.29008039999826,1,1,0,99,0.08,0.15999999999999998,down,3.1825863999983994,,,,,1911.5351719999999,1913.1130670999992,-0.16,-0.24,0.32,0.0,-0.07999999999999999,-0.16,-0.16,-0.16,-0.24,1900.725215999999,1900.725215999999,1900.725215999999,1900.725215999999,1900.725215999999,1900.725215999999,1900.725215999999,1900.725215999999,1900.7261487999983,10.9278215000013,return,10.784643400002096,,,,,,,,,,,,,,,,,,,,,,,,,,,,,,,,,Y41LPD,train_x,red_square,top_left,2025-08-29_14h52.28.731,HideSeek_v1,2022.2.5,59.81097339947374,
,3,8,3,3,0,-5,11,,train_dim1_2,5,30,,,,5,0,5,0,,,,,,,,,0,0,0,0,0,4,4,4,1,0,1,0,,,,,,,,,,,,,,,,,,,,,,,,,,,,,,,,,,,,,,,,,,,,,,,,,,,,,,,,,,,,,,,,30,,,,,,,,1916.3918625000006,1916.3918625000006,1916.3918625000006,1916.3918625000006,1916.3918625000006,down,0.45954879999771947,1,1,0,99,0.08,0.07999999999999997,down,0.3764798000011069,,,,,,,,,,,,,,,,,,,,,,,,,,,,,,,,,,,,,,,,,,,,,,,,,,,,,,,,,,,,Y41LPD,train_x,red_square,top_left,2025-08-29_14h52.28.731,HideSeek_v1,2022.2.5,59.81097339947374,
