trialInstr,x_fixStart,y_fixStart,x_corrSteps,y_corrSteps,x_nrSteps,y_nrSteps,alienID,trialLength,version,trialTrain,praclen,testlen,trial_label,break_on_off,beforeExpLoop.thisRepN,beforeExpLoop.thisTrialN,beforeExpLoop.thisN,beforeExpLoop.thisIndex,mini_instr_trials.thisRepN,mini_instr_trials.thisTrialN,mini_instr_trials.thisN,mini_instr_trials.thisIndex,instrLoop.thisRepN,instrLoop.thisTrialN,instrLoop.thisN,instrLoop.thisIndex,repeat_prac.thisRepN,repeat_prac.thisTrialN,repeat_prac.thisN,repeat_prac.thisIndex,trainLoop.thisRepN,trainLoop.thisTrialN,trainLoop.thisN,trainLoop.thisIndex,moveLoop_train.thisRepN,moveLoop_train.thisTrialN,moveLoop_train.thisN,moveLoop_train.thisIndex,experiment.thisRepN,experiment.thisTrialN,experiment.thisN,experiment.thisIndex,moveLoop_test.thisRepN,moveLoop_test.thisTrialN,moveLoop_test.thisN,moveLoop_test.thisIndex,mini_instr2_trials.thisRepN,mini_instr2_trials.thisTrialN,mini_instr2_trials.thisN,mini_instr2_trials.thisIndex,start_all_time,url,slideStim,audioStim,slides.started,sounds.started,nextButton.numClicks,nextButton.timesOn,nextButton.timesOff,prev_but.numClicks,prev_but.timesOn,prev_but.timesOff,alienStim,instrFile,alienStim_instr,gridImage_instr.started,startPos_3.started,key_instr.started,alienImage_3.started,sounds_1.started,key_instr.keys,key_instr.rt,all_x,all_y,FBy_corrSteps,FBy_fixStart,FBx_corrSteps,FBx_fixStart,FBy_pathSize_check,FBx_pathSize_check,gridImage_9.started,alienImageFB_3.started,startPosFB_3.started,keyFB_3.started,pathLine_ydir_2.started,pathLine_xdir_2.started,alienFace_3.started,sounds_2.started,RTFB_instr,keyFB_3.keys,keyFB_3.rt,draw_alienStim,draw_alienID,test_x,nrepcount,perfthres,percthres,earlierperf,earlystop,nextPrac,fileidx,praclen,saveACC_train,pracFile,nextPrac_train,addNrep,fileidx_endr,repExp,showearly,gridImage_4.started,startPos.started,movePos.started,key_resp.started,alienImage.started,buttonPress_train,RTchoice_train,cumAcctrain,aCorr,saveACC_choice,corrAns,x_movePos_end,y_movePos_end,key_resp.keys,key_resp.rt,wLy_dir,wLx_dir,x_movePos,y_movePos,text_2.started,text_2.stopped,aft_x_corrPos,aft_y_corrPos,y_pathSize_check,x_pathSize_check,y_pathdirY,x_pathdirY,x_pathdirX,x_corrPos,y_corrPos,gridImage_6.started,alienImageFB_2.started,startPosFB_2.started,movePosFB_2.started,keyFB_2.started,pathLine_xdir.started,pathLine_ydir.started,alienFace.started,sounds_4.started,RT_FBtrain,keyFB_2.keys,keyFB_2.rt,saveACC_pre,ACC,within_saveACC_train,earlystop_wloop,cumAcctrain_check,gridImage_3.started,alienImage_test.started,startPos_test.started,movePos_test.started,key_resp_test.started,wLy_dir_test,wLx_dir_test,buttonPress_test,RTchoice_test,cumAcctest,corrAns_test,key_resp_test.keys,key_resp_test.rt,text_3.started,text_3.stopped,total_time,end_all_time,key_resp_3.keys,slides_2.started,sounds_3.started,nextButton_2.numClicks,nextButton_2.timesOn,nextButton_2.timesOff,prev_but_2.numClicks,prev_but_2.timesOn,prev_but_2.timesOff,bye.started,participant,train_first,00_coordinate,starting corner,date,expName,psychopyVersion,frameRate,
,,,,,,,,,,,,,,,0,0,0,0,0,0,0,0,,,,,,,,,,,,,,,,,,,,,,,,,,,,,start_all_time,testround,conditions/schedules/train_x_first/red_square_00/top_right/instructions/Slide1.png,conditions/schedules/train_x_first/red_square_00/top_right/instructions/Audio1.wav,1565.8908457001671,1565.8366394147279,1,[5.750701299868524],[5.750715899746865],0,,,,,,,,,,,,,,,,,,,,,,,,,,,,,,,,,,,,,,,,,,,,,,,,,,,,,,,,,,,,,,,,,,,,,,,,,,,,,,,,,,,,,,,,,,,,,,,,,,,,,,,,,,,,,,,,,,,,,,,,,,,,Y6G5R4,train_x,red_square,top_right,2025-05-02_09h15.09.161,HideSeek_v1,2022.2.5,59.92548873570686,
,,,,,,,,,,,,,,,0,0,0,0,1,0,1,0,,,,,,,,,,,,,,,,,,,,,,,,,,,,,,,conditions/schedules/train_x_first/red_square_00/top_right/instructions/Slide2.png,conditions/schedules/train_x_first/red_square_00/top_right/instructions/Audio2.wav,1571.659769400023,1571.6596895002294,2,"[5.750701299868524, 18.128769100178033]","[5.750715899746865, 18.128776399884373]",0,,,,,,,,,,,,,,,,,,,,,,,,,,,,,,,,,,,,,,,,,,,,,,,,,,,,,,,,,,,,,,,,,,,,,,,,,,,,,,,,,,,,,,,,,,,,,,,,,,,,,,,,,,,,,,,,,,,,,,,,,,,,Y6G5R4,train_x,red_square,top_right,2025-05-02_09h15.09.161,HideSeek_v1,2022.2.5,59.92548873570686,
,,,,,,,,,,,,,,,0,0,0,0,2,0,2,0,,,,,,,,,,,,,,,,,,,,,,,,,,,,,,,conditions/schedules/train_x_first/red_square_00/top_right/instructions/Slide3.png,conditions/schedules/train_x_first/red_square_00/top_right/instructions/Audio3.wav,1589.8670121002942,1589.8576765998732,3,"[5.750701299868524, 18.128769100178033, 16.402587899938226]","[5.750715899746865, 18.128776399884373, 16.40259480010718]",0,,,,,,,,,,,,,,,,,,,,,,,,,,,,,,,,,,,,,,,,,,,,,,,,,,,,,,,,,,,,,,,,,,,,,,,,,,,,,,,,,,,,,,,,,,,,,,,,,,,,,,,,,,,,,,,,,,,,,,,,,,,,Y6G5R4,train_x,red_square,top_right,2025-05-02_09h15.09.161,HideSeek_v1,2022.2.5,59.92548873570686,
,,,,,,,,,,,,,,,0,0,0,0,3,0,3,0,,,,,,,,,,,,,,,,,,,,,,,,,,,,,,,conditions/schedules/train_x_first/red_square_00/top_right/instructions/Slide4.png,conditions/schedules/train_x_first/red_square_00/top_right/instructions/Audio4.wav,1606.3465212001465,1606.338439400075,4,"[5.750701299868524, 18.128769100178033, 16.402587899938226, 19.372774899937212]","[5.750715899746865, 18.128776399884373, 0.05687570013105869, 19.372782099992037]",0,,,,,,,,,,,,,,,,,,,,,,,,,,,,,,,,,,,,,,,,,,,,,,,,,,,,,,,,,,,,,,,,,,,,,,,,,,,,,,,,,,,,,,,,,,,,,,,,,,,,,,,,,,,,,,,,,,,,,,,,,,,,Y6G5R4,train_x,red_square,top_right,2025-05-02_09h15.09.161,HideSeek_v1,2022.2.5,59.92548873570686,
,,,,,,,,,,,,,,,0,0,0,0,4,0,4,0,,,,,,,,,,,,,,,,,,,,,,,,,,,,,,,conditions/schedules/train_x_first/red_square_00/top_right/instructions/Slide5.png,conditions/schedules/train_x_first/red_square_00/top_right/instructions/Audio5.wav,1625.781285900157,1625.7710710399786,5,"[5.750701299868524, 18.128769100178033, 16.402587899938226, 19.372774899937212, 4.507939700037241]","[5.750715899746865, 18.128776399884373, 0.05687570013105869, 0.033784300088882446, 4.507947400212288]",0,,,,,,,,,,,,,,,,,,,,,,,,,,,,,,,,,,,,,,,,,,,,,,,,,,,,,,,,,,,,,,,,,,,,,,,,,,,,,,,,,,,,,,,,,,,,,,,,,,,,,,,,,,,,,,,,,,,,,,,,,,,,Y6G5R4,train_x,red_square,top_right,2025-05-02_09h15.09.161,HideSeek_v1,2022.2.5,59.92548873570686,
,,,,,,,,,,,,,,,0,0,0,0,5,0,5,0,,,,,,,,,,,,,,,,,,,,,,,,,,,,,,,conditions/schedules/train_x_first/red_square_00/top_right/instructions/Slide6.png,conditions/schedules/train_x_first/red_square_00/top_right/instructions/Audio6.wav,1630.3406692999415,1630.3415759400466,6,"[5.750701299868524, 18.128769100178033, 16.402587899938226, 19.372774899937212, 4.507939700037241, 5.052579099778086]","[5.750715899746865, 18.128776399884373, 0.05687570013105869, 0.033784300088882446, 0.04929800005629659, 5.0525893997401]",0,,,,,,,,,,,,,,,,,,,,,,,,,,,,,,,,,,,,,,,,,,,,,,,,,,,,,,,,,,,,,,,,,,,,,,,,,,,,,,,,,,,,,,,,,,,,,,,,,,,,,,,,,,,,,,,,,,,,,,,,,,,,Y6G5R4,train_x,red_square,top_right,2025-05-02_09h15.09.161,HideSeek_v1,2022.2.5,59.92548873570686,
,,,,,,,,,,,,,,,0,0,0,0,6,0,6,0,,,,,,,,,,,,,,,,,,,,,,,,,,,,,,,conditions/schedules/train_x_first/red_square_00/top_right/instructions/Slide7.png,conditions/schedules/train_x_first/red_square_00/top_right/instructions/Audio7.wav,1635.4465596000664,1635.4456861400047,7,"[5.750701299868524, 18.128769100178033, 16.402587899938226, 19.372774899937212, 4.507939700037241, 5.052579099778086, 5.585125800222158]","[5.750715899746865, 18.128776399884373, 0.05687570013105869, 0.033784300088882446, 0.04929800005629659, 0.04693259997293353, 5.5851324000395834]",0,,,,,,,,,,,,,,,,,,,,,,,,,,,,,,,,,,,,,,,,,,,,,,,,,,,,,,,,,,,,,,,,,,,,,,,,,,,,,,,,,,,,,,,,,,,,,,,,,,,,,,,,,,,,,,,,,,,,,,,,,,,,Y6G5R4,train_x,red_square,top_right,2025-05-02_09h15.09.161,HideSeek_v1,2022.2.5,59.92548873570686,
,,,,,,,,,,,,,,,0,0,0,0,7,0,7,0,,,,,,,,,,,,,,,,,,,,,,,,,,,,,,,conditions/schedules/train_x_first/red_square_00/top_right/instructions/Slide8.png,conditions/schedules/train_x_first/red_square_00/top_right/instructions/Audio8.wav,1641.085260800086,1641.0842465398835,8,"[5.750701299868524, 18.128769100178033, 16.402587899938226, 19.372774899937212, 4.507939700037241, 5.052579099778086, 5.585125800222158, 11.78938139975071]","[5.750715899746865, 18.128776399884373, 0.05687570013105869, 0.033784300088882446, 0.04929800005629659, 0.04693259997293353, 0.08081339998170733, 11.789388299919665]",0,,,,,,,,,,,,,,,,,,,,,,,,,,,,,,,,,,,,,,,,,,,,,,,,,,,,,,,,,,,,,,,,,,,,,,,,,,,,,,,,,,,,,,,,,,,,,,,,,,,,,,,,,,,,,,,,,,,,,,,,,,,,Y6G5R4,train_x,red_square,top_right,2025-05-02_09h15.09.161,HideSeek_v1,2022.2.5,59.92548873570686,
,,,,,,,,,,,,,,,0,0,0,0,8,0,8,0,,,,,,,,,,,,,,,,,,,,,,,,,,,,,,,conditions/schedules/train_x_first/red_square_00/top_right/instructions/Slide9.png,conditions/schedules/train_x_first/red_square_00/top_right/instructions/Audio9.wav,1652.9418538999744,1652.943654900184,9,"[5.750701299868524, 18.128769100178033, 16.402587899938226, 19.372774899937212, 4.507939700037241, 5.052579099778086, 5.585125800222158, 11.78938139975071, 6.504267499782145]","[5.750715899746865, 18.128776399884373, 0.05687570013105869, 0.033784300088882446, 0.04929800005629659, 0.04693259997293353, 0.08081339998170733, 0.04891889961436391, 6.504273899830878]",0,,,,,,,,,,,,,,,,,,,,,,,,,,,,,,,,,,,,,,,,,,,,,,,,,,,,,,,,,,,,,,,,,,,,,,,,,,,,,,,,,,,,,,,,,,,,,,,,,,,,,,,,,,,,,,,,,,,,,,,,,,,,Y6G5R4,train_x,red_square,top_right,2025-05-02_09h15.09.161,HideSeek_v1,2022.2.5,59.92548873570686,
,,,,,,,,,,,,,,,0,0,0,0,9,0,9,0,,,,,,,,,,,,,,,,,,,,,,,,,,,,,,,conditions/schedules/train_x_first/red_square_00/top_right/instructions/Slide10.png,conditions/schedules/train_x_first/red_square_00/top_right/instructions/Audio10.wav,1659.503799600061,1659.4992167399266,10,"[5.750701299868524, 18.128769100178033, 16.402587899938226, 19.372774899937212, 4.507939700037241, 5.052579099778086, 5.585125800222158, 11.78938139975071, 6.504267499782145, 6.981704999692738]","[5.750715899746865, 18.128776399884373, 0.05687570013105869, 0.033784300088882446, 0.04929800005629659, 0.04693259997293353, 0.08081339998170733, 0.04891889961436391, 0.06229089992120862, 6.981712299864739]",0,,,,,,,,,,,,,,,,,,,,,,,,,,,,,,,,,,,,,,,,,,,,,,,,,,,,,,,,,,,,,,,,,,,,,,,,,,,,,,,,,,,,,,,,,,,,,,,,,,,,,,,,,,,,,,,,,,,,,,,,,,,,Y6G5R4,train_x,red_square,top_right,2025-05-02_09h15.09.161,HideSeek_v1,2022.2.5,59.92548873570686,
,,,,,,,,,,,,,,,0,0,0,0,10,0,10,0,,,,,,,,,,,,,,,,,,,,,,,,,,,,,,,conditions/schedules/train_x_first/red_square_00/top_right/instructions/Slide11.png,conditions/schedules/train_x_first/red_square_00/top_right/instructions/Audio11.wav,1666.55637150025,1666.5549613998737,11,"[5.750701299868524, 18.128769100178033, 16.402587899938226, 19.372774899937212, 4.507939700037241, 5.052579099778086, 5.585125800222158, 11.78938139975071, 6.504267499782145, 6.981704999692738, 9.654482000041753]","[5.750715899746865, 18.128776399884373, 0.05687570013105869, 0.033784300088882446, 0.04929800005629659, 0.04693259997293353, 0.08081339998170733, 0.04891889961436391, 0.06229089992120862, 0.07985030021518469, 9.654489000327885]",0,,,,,,,,,,,,,,,,,,,,,,,,,,,,,,,,,,,,,,,,,,,,,,,,,,,,,,,,,,,,,,,,,,,,,,,,,,,,,,,,,,,,,,,,,,,,,,,,,,,,,,,,,,,,,,,,,,,,,,,,,,,,Y6G5R4,train_x,red_square,top_right,2025-05-02_09h15.09.161,HideSeek_v1,2022.2.5,59.92548873570686,
,,,,,,,,,,,,,,,0,0,0,0,11,0,11,0,,,,,,,,,,,,,,,,,,,,,,,,,,,,,,,conditions/schedules/train_x_first/red_square_00/top_right/instructions/Slide12.png,conditions/schedules/train_x_first/red_square_00/top_right/instructions/Audio12.wav,1676.2658667000942,1676.263087340072,12,"[5.750701299868524, 18.128769100178033, 16.402587899938226, 19.372774899937212, 4.507939700037241, 5.052579099778086, 5.585125800222158, 11.78938139975071, 6.504267499782145, 6.981704999692738, 9.654482000041753, 12.771859900094569]","[5.750715899746865, 18.128776399884373, 0.05687570013105869, 0.033784300088882446, 0.04929800005629659, 0.04693259997293353, 0.08081339998170733, 0.04891889961436391, 0.06229089992120862, 0.07985030021518469, 0.09500649990513921, 12.771867000032216]",0,,,,,,,,,,,,,,,,,,,,,,,,,,,,,,,,,,,,,,,,,,,,,,,,,,,,,,,,,,,,,,,,,,,,,,,,,,,,,,,,,,,,,,,,,,,,,,,,,,,,,,,,,,,,,,,,,,,,,,,,,,,,Y6G5R4,train_x,red_square,top_right,2025-05-02_09h15.09.161,HideSeek_v1,2022.2.5,59.92548873570686,
1,8,7,3,7,-5,0,66,2,instr_dim1_1,,,,,,0,0,0,0,,,,,0,0,0,0,,,,,,,,,,,,,,,,,,,,,,,,,,,,,,,,,,,,,stimuli/alien_stimuli/66.png,conditions/schedules/train_x_first/red_square_00/top_right/inputInstr_1.xlsx,stimuli/alien_stimuli/66.png,1689.1394628002308,1689.1394628002308,1689.1394628002308,1689.1394628002308,1689.1403980198784,return,9.329600499942899,"[-0.16, -0.08, 0, 0.08, 0.16, 0.24, 0.32, 0.4, 0.48, 0.56]","[-0.4, -0.32, -0.24, -0.16, -0.08, 0, 0.08, 0.16, 0.24, 0.32]",7,7,3,8,0.0,0.4,1698.624412199948,1698.624412199948,1698.624412199948,1698.624412199948,1698.624412199948,1698.624412199948,1698.624412199948,1698.6148233798333,8.240979100111872,return,8.085829999763519,stimuli/alien_stimuli/66.png,66,8,1,,,,,,,,,,,,,,,,,,,,,,,,,,,,,,,,,,,,,,,,,,,,,,,,,,,,,,,,,,,,,,,,,,,,,,,,,,,,,,,,,,,,,,,,,Y6G5R4,train_x,red_square,top_right,2025-05-02_09h15.09.161,HideSeek_v1,2022.2.5,59.92548873570686,
,,,,,,,,,,,30,,,,0,0,0,0,,,,,,,,,,,,,,,,,,,,,,,,,,,,,,,,,,,,,,,,,,,,,,,,,,,,,,,,,,,,,,,,,,,,,,,,,,,,,,21,0.7,0,0,99,1,30,0,conditions/schedules/train_x_first/red_square_00/top_right/inputTrain_1.1.xlsx,99,1,1,1,0,,,,,,,,,,,,,,,,,,,,,,,,,,,,,,,,,,,,,,,,,,,,,,,,,,,,,,,,,,,,,,,,,,,,,,,,,,,Y6G5R4,train_x,red_square,top_right,2025-05-02_09h15.09.161,HideSeek_v1,2022.2.5,59.92548873570686,
,,,,,,,,,,,,,,,1,0,1,0,0,0,0,0,,,,,,,,,,,,,,,,,,,,,,,,,,,,,,,conditions/schedules/train_x_first/red_square_00/top_right/instructions/Slide13.png,conditions/schedules/train_x_first/red_square_00/top_right/instructions/Audio13.wav,1706.8674333002418,1706.854959680047,13,"[5.750701299868524, 18.128769100178033, 16.402587899938226, 19.372774899937212, 4.507939700037241, 5.052579099778086, 5.585125800222158, 11.78938139975071, 6.504267499782145, 6.981704999692738, 9.654482000041753, 12.771859900094569, 16.615657600108534]","[5.750715899746865, 18.128776399884373, 0.05687570013105869, 0.033784300088882446, 0.04929800005629659, 0.04693259997293353, 0.08081339998170733, 0.04891889961436391, 0.06229089992120862, 0.07985030021518469, 0.09500649990513921, 12.771867000032216, 16.615664499811828]",0,,,,,,,,,,,,,,,,,,,,,,,,,,,,,,,,,,,,,,,,,,,,,,,,,,,,,,,,,,,,,,,,,,,,,,,,,,,,,,,,,,,,,,,,,,,,,,,,,,,,,,,,,,,,,,,,,,,,,,,,,,,,Y6G5R4,train_x,red_square,top_right,2025-05-02_09h15.09.161,HideSeek_v1,2022.2.5,59.92548873570686,
,,,,,,,,,,,,,,,1,0,1,0,1,0,1,0,,,,,,,,,,,,,,,,,,,,,,,,,,,,,,,conditions/schedules/train_x_first/red_square_00/top_right/instructions/Slide14.png,conditions/schedules/train_x_first/red_square_00/top_right/instructions/Audio14.wav,1723.5527468002401,1723.5523568999488,14,"[5.750701299868524, 18.128769100178033, 16.402587899938226, 19.372774899937212, 4.507939700037241, 5.052579099778086, 5.585125800222158, 11.78938139975071, 6.504267499782145, 6.981704999692738, 9.654482000041753, 12.771859900094569, 16.615657600108534, 12.624117700383067]","[5.750715899746865, 18.128776399884373, 0.05687570013105869, 0.033784300088882446, 0.04929800005629659, 0.04693259997293353, 0.08081339998170733, 0.04891889961436391, 0.06229089992120862, 0.07985030021518469, 0.09500649990513921, 12.771867000032216, 0.08050570031628013, 12.62412489997223]",0,,,,,,,,,,,,,,,,,,,,,,,,,,,,,,,,,,,,,,,,,,,,,,,,,,,,,,,,,,,,,,,,,,,,,,,,,,,,,,,,,,,,,,,,,,,,,,,,,,,,,,,,,,,,,,,,,,,,,,,,,,,,Y6G5R4,train_x,red_square,top_right,2025-05-02_09h15.09.161,HideSeek_v1,2022.2.5,59.92548873570686,
2,9,5,9,5,0,0,16,2,instr_dim1_1,,,,,,1,0,1,0,,,,,0,0,0,0,,,,,,,,,,,,,,,,,,,,,,,,,,,,,,,,,,,,,stimuli/alien_stimuli/16.png,conditions/schedules/train_x_first/red_square_00/top_right/inputInstr_1.xlsx,stimuli/alien_stimuli/16.png,1736.2775957002304,1736.2775957002304,1736.2775957002304,1736.2775957002304,1736.262895059865,return,7.2215119996108115,"[-0.16, -0.08, 0, 0.08, 0.16, 0.24, 0.32, 0.4, 0.48, 0.56]","[-0.4, -0.32, -0.24, -0.16, -0.08, 0, 0.08, 0.16, 0.24, 0.32]",5,5,9,9,0.0,0.0,1743.6552162002772,1743.6552162002772,1743.6552162002772,1743.6552162002772,1743.6552162002772,1743.6552162002772,1743.6552162002772,1743.635774280224,10.92694430006668,return,10.769047900103033,stimuli/alien_stimuli/16.png,16,9,2,,,,,,,,,,,,,,,,,,,,,,,,,,,,,,,,,,,,,,,,,,,,,,,,,,,,,,,,,,,,,,,,,,,,,,,,,,,,,,,,,,,,,,,,,Y6G5R4,train_x,red_square,top_right,2025-05-02_09h15.09.161,HideSeek_v1,2022.2.5,59.92548873570686,
,,,,,,,,,,,30,,,,1,0,1,0,,,,,,,,,,,,,,,,,,,,,,,,,,,,,,,,,,,,,,,,,,,,,,,,,,,,,,,,,,,,,,,,,,,,,,,,,,,,,,21,0.7,0,0,99,1,30,0,conditions/schedules/train_x_first/red_square_00/top_right/inputTrain_1.1.xlsx,99,1,1,1,0,,,,,,,,,,,,,,,,,,,,,,,,,,,,,,,,,,,,,,,,,,,,,,,,,,,,,,,,,,,,,,,,,,,,,,,,,,,Y6G5R4,train_x,red_square,top_right,2025-05-02_09h15.09.161,HideSeek_v1,2022.2.5,59.92548873570686,
,,,,,,,,,,,,,,,2,0,2,0,0,0,0,0,,,,,,,,,,,,,,,,,,,,,,,,,,,,,,,conditions/schedules/train_x_first/red_square_00/top_right/instructions/Slide15.png,conditions/schedules/train_x_first/red_square_00/top_right/instructions/Audio15.wav,1754.5824621999636,1754.578325039847,15,"[5.750701299868524, 18.128769100178033, 16.402587899938226, 19.372774899937212, 4.507939700037241, 5.052579099778086, 5.585125800222158, 11.78938139975071, 6.504267499782145, 6.981704999692738, 9.654482000041753, 12.771859900094569, 16.615657600108534, 12.624117700383067, 30.251277999952435]","[5.750715899746865, 18.128776399884373, 0.05687570013105869, 0.033784300088882446, 0.04929800005629659, 0.04693259997293353, 0.08081339998170733, 0.04891889961436391, 0.06229089992120862, 0.07985030021518469, 0.09500649990513921, 12.771867000032216, 0.08050570031628013, 12.62412489997223, 30.25128520000726]",0,,,,,,,,,,,,,,,,,,,,,,,,,,,,,,,,,,,,,,,,,,,,,,,,,,,,,,,,,,,,,,,,,,,,,,,,,,,,,,,,,,,,,,,,,,,,,,,,,,,,,,,,,,,,,,,,,,,,,,,,,,,,Y6G5R4,train_x,red_square,top_right,2025-05-02_09h15.09.161,HideSeek_v1,2022.2.5,59.92548873570686,
,,,,,,,,,,,,,,,2,0,2,0,1,0,1,0,,,,,,,,,,,,,,,,,,,,,,,,,,,,,,,conditions/schedules/train_x_first/red_square_00/top_right/instructions/Slide16.png,conditions/schedules/train_x_first/red_square_00/top_right/instructions/Audio16.wav,1784.909601600375,1784.903367600171,16,"[5.750701299868524, 18.128769100178033, 16.402587899938226, 19.372774899937212, 4.507939700037241, 5.052579099778086, 5.585125800222158, 11.78938139975071, 6.504267499782145, 6.981704999692738, 9.654482000041753, 12.771859900094569, 16.615657600108534, 12.624117700383067, 30.251277999952435, 21.025159999728203]","[5.750715899746865, 18.128776399884373, 0.05687570013105869, 0.033784300088882446, 0.04929800005629659, 0.04693259997293353, 0.08081339998170733, 0.04891889961436391, 0.06229089992120862, 0.07985030021518469, 0.09500649990513921, 12.771867000032216, 0.08050570031628013, 12.62412489997223, 0.09233839996159077, 21.025167000014335]",0,,,,,,,,,,,,,,,,,,,,,,,,,,,,,,,,,,,,,,,,,,,,,,,,,,,,,,,,,,,,,,,,,,,,,,,,,,,,,,,,,,,,,,,,,,,,,,,,,,,,,,,,,,,,,,,,,,,,,,,,,,,,Y6G5R4,train_x,red_square,top_right,2025-05-02_09h15.09.161,HideSeek_v1,2022.2.5,59.92548873570686,
,7,6,4,6,-3,0,46,,train_dim1_1,1,30,,,,2,0,2,0,,,,,,,,,0,0,0,0,0,0,0,0,0,0,0,0,,,,,,,,,,,,,,,,,,,,,,,,,stimuli/alien_stimuli/46.png,,,,,,,,,,,,,,,,,,,,,,,,,,,,,,,,,,,,,,,30,,,,,,,,1806.039438500069,1806.039438500069,1806.039438500069,1806.039438500069,1806.039438500069,left,2.427062200382352,0,0,0,99,0.32,0.08,left,2.3234402001835406,,,,,,,,,,,,,,,,,,,,,,,,,,,,,,,,,,,,,,,,,,,,,,,,,,,,,,,,,,,,Y6G5R4,train_x,red_square,top_right,2025-05-02_09h15.09.161,HideSeek_v1,2022.2.5,59.92548873570686,
,7,6,4,6,-3,0,46,,train_dim1_1,1,30,,,,2,0,2,0,,,,,,,,,0,0,0,0,0,0,0,0,1,0,1,0,,,,,,,,,,,,,,,,,,,,,,,,,,,,,,,,,,,,,,,,,,,,,,,,,,,,,,,,,,,,,,,,30,,,,,,,,1808.453053000383,1808.453053000383,1808.453053000383,1808.453053000383,1808.453053000383,left,0.7930460004135966,0,0,0,99,0.24,0.08,left,0.7092515998519957,,,,,,,,,,,,,,,,,,,,,,,,,,,,,,,,,,,,,,,,,,,,,,,,,,,,,,,,,,,,Y6G5R4,train_x,red_square,top_right,2025-05-02_09h15.09.161,HideSeek_v1,2022.2.5,59.92548873570686,
,7,6,4,6,-3,0,46,,train_dim1_1,1,30,,,,2,0,2,0,,,,,,,,,0,0,0,0,0,0,0,0,2,0,2,0,,,,,,,,,,,,,,,,,,,,,,,,,,,,,,,,,,,,,,,,,,,,,,,,,,,,,,,,,,,,,,,,30,,,,,,,,1809.2521308003925,1809.2521308003925,1809.2521308003925,1809.2521308003925,1809.2521308003925,left,0.5436185002326965,0,0,0,99,0.15999999999999998,0.08,left,0.4675573999993503,,,,,,,,,,,,,,,,,,,,,,,,,,,,,,,,,,,,,,,,,,,,,,,,,,,,,,,,,,,,Y6G5R4,train_x,red_square,top_right,2025-05-02_09h15.09.161,HideSeek_v1,2022.2.5,59.92548873570686,
,7,6,4,6,-3,0,46,,train_dim1_1,1,30,,,,2,0,2,0,,,,,,,,,0,0,0,0,0,0,0,0,3,0,3,0,,,,,,,,,,,,,,,,,,,,,,,,,,,,,,,,,,,,,,,,,,,,,,,,,,,,,,,,,,,,,,,,30,,,,,,,,1809.8034074003808,1809.8034074003808,1809.8034074003808,1809.8034074003808,1809.8034074003808,right,3.128833099734038,0,0,0,99,0.24,0.08,right,3.0516407997347414,,,,,,,,,,,,,,,,,,,,,,,,,,,,,,,,,,,,,,,,,,,,,,,,,,,,,,,,,,,,Y6G5R4,train_x,red_square,top_right,2025-05-02_09h15.09.161,HideSeek_v1,2022.2.5,59.92548873570686,
,7,6,4,6,-3,0,46,,train_dim1_1,1,30,,,,2,0,2,0,,,,,,,,,0,0,0,0,0,0,0,0,4,0,4,0,,,,,,,,,,,,,,,,,,,,,,,,,,,,,,,,,,,,,,,,,,,,,,,,,,,,,,,,,,,,,,,,30,,,,,,,,1812.9399369000457,1812.9399369000457,1812.9399369000457,1812.9399369000457,1812.9399369000457,return,1.9608797999098897,0,1,0,0,0.24,0.08,return,1.8863890999928117,0,-2,0.24,0.08,,,,,,,,,,,,,,,,,,,,,,,,,,,,,,,,,,,,,,,,,,,,,,,,,,,,,,,,Y6G5R4,train_x,red_square,top_right,2025-05-02_09h15.09.161,HideSeek_v1,2022.2.5,59.92548873570686,
,7,9,7,9,0,0,16,,train_dim1_1,2,30,,,,2,0,2,0,,,,,,,,,0,0,0,0,0,1,1,1,0,0,0,0,,,,,,,,,,,,,,,,,,,,,,,,,stimuli/alien_stimuli/16.png,,,,,,,,,,,,,,,,,,,,,,,,,,,,,stimuli/alien_stimuli/46.png,46,7,3,,,,,,,30,,,,,,,,1845.514889600221,1845.514889600221,1845.514889600221,1845.514889600221,1845.514889600221,down,2.8585612000897527,0,1,0,99,0.4,0.24,down,2.7432209998369217,,,,,1843.9357614000328,1845.514889600221,0.16,0.08,0.0,0.24,0.08,0.16,0.28,0.16,0.08,1816.4698189999908,1816.4698189999908,1816.4698189999908,1816.4698189999908,1816.4698189999908,1816.4698189999908,1816.4698189999908,1816.4698189999908,1816.462767720176,27.575073400046676,return,27.43585280003026,,,,,,,,,,,,,,,,,,,,,,,,,,,,,,,,,Y6G5R4,train_x,red_square,top_right,2025-05-02_09h15.09.161,HideSeek_v1,2022.2.5,59.92548873570686,
,7,9,7,9,0,0,16,,train_dim1_1,2,30,,,,2,0,2,0,,,,,,,,,0,0,0,0,0,1,1,1,1,0,1,0,,,,,,,,,,,,,,,,,,,,,,,,,,,,,,,,,,,,,,,,,,,,,,,,,,,,,,,,,,,,,,,,30,,,,,,,,1848.3581116003916,1848.3581116003916,1848.3581116003916,1848.3581116003916,1848.3581116003916,up,0.7262414996512234,0,1,0,99,0.4,0.32,up,0.64930530032143,,,,,,,,,,,,,,,,,,,,,,,,,,,,,,,,,,,,,,,,,,,,,,,,,,,,,,,,,,,,Y6G5R4,train_x,red_square,top_right,2025-05-02_09h15.09.161,HideSeek_v1,2022.2.5,59.92548873570686,
,7,9,7,9,0,0,16,,train_dim1_1,2,30,,,,2,0,2,0,,,,,,,,,0,0,0,0,0,1,1,1,2,0,2,0,,,,,,,,,,,,,,,,,,,,,,,,,,,,,,,,,,,,,,,,,,,,,,,,,,,,,,,,,,,,,,,,30,,,,,,,,1849.0906052002683,1849.0906052002683,1849.0906052002683,1849.0906052002683,1849.0906052002683,return,0.8432245999574661,1,0,0,1,0.4,0.32,return,0.7612405000254512,0,-2,0.4,0.32,,,,,,,,,,,,,,,,,,,,,,,,,,,,,,,,,,,,,,,,,,,,,,,,,,,,,,,,Y6G5R4,train_x,red_square,top_right,2025-05-02_09h15.09.161,HideSeek_v1,2022.2.5,59.92548873570686,
,9,9,8,9,-1,0,26,,train_dim1_1,3,30,,,,2,0,2,0,,,,,,,,,0,0,0,0,0,2,2,2,0,0,0,0,,,,,,,,,,,,,,,,,,,,,,,,,stimuli/alien_stimuli/26.png,,,,,,,,,,,,,,,,,,,,,,,,,,,,,stimuli/alien_stimuli/16.png,16,7,4,,,,,,,30,,,,,,,,1859.364117400255,1859.364117400255,1859.364117400255,1859.364117400255,1859.364117400255,left,2.6413027001544833,1,0,0,99,0.48000000000000004,0.32,left,2.5527043002657592,,,,,1857.7971821003594,1859.364117400255,0.4,0.32,0.0,0.0,0.32,0.4,0.4,0.4,0.32,1851.523800200317,1851.523800200317,1851.523800200317,1851.523800200317,1851.523800200317,1851.523800200317,1851.523800200317,1851.523800200317,1851.508511279989,6.407429799903184,return,6.248621300328523,,,,,,,,,,,,,,,,,,,,,,,,,,,,,,,,,Y6G5R4,train_x,red_square,top_right,2025-05-02_09h15.09.161,HideSeek_v1,2022.2.5,59.92548873570686,
,9,9,8,9,-1,0,26,,train_dim1_1,3,30,,,,2,0,2,0,,,,,,,,,0,0,0,0,0,2,2,2,1,0,1,0,,,,,,,,,,,,,,,,,,,,,,,,,,,,,,,,,,,,,,,,,,,,,,,,,,,,,,,,,,,,,,,,30,,,,,,,,1862.0019805999473,1862.0019805999473,1862.0019805999473,1862.0019805999473,1862.0019805999473,down,3.3956126999109983,1,0,0,99,0.48000000000000004,0.24,down,3.3031566999852657,,,,,,,,,,,,,,,,,,,,,,,,,,,,,,,,,,,,,,,,,,,,,,,,,,,,,,,,,,,,Y6G5R4,train_x,red_square,top_right,2025-05-02_09h15.09.161,HideSeek_v1,2022.2.5,59.92548873570686,
,9,9,8,9,-1,0,26,,train_dim1_1,3,30,,,,2,0,2,0,,,,,,,,,0,0,0,0,0,2,2,2,2,0,2,0,,,,,,,,,,,,,,,,,,,,,,,,,,,,,,,,,,,,,,,,,,,,,,,,,,,,,,,,,,,,,,,,30,,,,,,,,1865.404752700124,1865.404752700124,1865.404752700124,1865.404752700124,1865.404752700124,right,0.6430059000849724,1,0,0,99,0.56,0.24,right,0.5597988003864884,,,,,,,,,,,,,,,,,,,,,,,,,,,,,,,,,,,,,,,,,,,,,,,,,,,,,,,,,,,,Y6G5R4,train_x,red_square,top_right,2025-05-02_09h15.09.161,HideSeek_v1,2022.2.5,59.92548873570686,
,9,9,8,9,-1,0,26,,train_dim1_1,3,30,,,,2,0,2,0,,,,,,,,,0,0,0,0,0,2,2,2,3,0,3,0,,,,,,,,,,,,,,,,,,,,,,,,,,,,,,,,,,,,,,,,,,,,,,,,,,,,,,,,,,,,,,,,30,,,,,,,,1866.0546988002025,1866.0546988002025,1866.0546988002025,1866.0546988002025,1866.0546988002025,return,0.7767698001116514,1,0,0,0,0.56,0.24,return,0.6999187003821135,-1,-2,0.56,0.24,,,,,,,,,,,,,,,,,,,,,,,,,,,,,,,,,,,,,,,,,,,,,,,,,,,,,,,,Y6G5R4,train_x,red_square,top_right,2025-05-02_09h15.09.161,HideSeek_v1,2022.2.5,59.92548873570686,
,7,8,3,8,-4,0,56,,train_dim1_1,4,30,,,,2,0,2,0,,,,,,,,,0,0,0,0,0,3,3,3,0,0,0,0,,,,,,,,,,,,,,,,,,,,,,,,,stimuli/alien_stimuli/56.png,,,,,,,,,,,,,,,,,,,,,,,,,,,,,stimuli/alien_stimuli/26.png,26,9,5,,,,,,,30,,,,,,,,1880.125335100107,1880.125335100107,1880.125335100107,1880.125335100107,1880.125335100107,left,3.2249153000302613,1,0,0,99,0.32,0.24,left,3.120931899640709,,,,,1878.5478682001121,1880.125335100107,0.48,0.32,0.0,0.08,0.32,0.48,0.52,0.48,0.32,1868.414012500085,1868.414012500085,1868.414012500085,1868.414012500085,1868.414012500085,1868.414012500085,1868.414012500085,1868.414012500085,1868.4059091799893,10.260762199759483,return,10.101908700075,,,,,,,,,,,,,,,,,,,,,,,,,,,,,,,,,Y6G5R4,train_x,red_square,top_right,2025-05-02_09h15.09.161,HideSeek_v1,2022.2.5,59.92548873570686,
,7,8,3,8,-4,0,56,,train_dim1_1,4,30,,,,2,0,2,0,,,,,,,,,0,0,0,0,0,3,3,3,1,0,1,0,,,,,,,,,,,,,,,,,,,,,,,,,,,,,,,,,,,,,,,,,,,,,,,,,,,,,,,,,,,,,,,,30,,,,,,,,1883.3358502001502,1883.3358502001502,1883.3358502001502,1883.3358502001502,1883.3358502001502,left,0.8931435998529196,1,0,0,99,0.24,0.24,left,0.8122799997217953,,,,,,,,,,,,,,,,,,,,,,,,,,,,,,,,,,,,,,,,,,,,,,,,,,,,,,,,,,,,Y6G5R4,train_x,red_square,top_right,2025-05-02_09h15.09.161,HideSeek_v1,2022.2.5,59.92548873570686,
,7,8,3,8,-4,0,56,,train_dim1_1,4,30,,,,2,0,2,0,,,,,,,,,0,0,0,0,0,3,3,3,2,0,2,0,,,,,,,,,,,,,,,,,,,,,,,,,,,,,,,,,,,,,,,,,,,,,,,,,,,,,,,,,,,,,,,,30,,,,,,,,1884.233920500148,1884.233920500148,1884.233920500148,1884.233920500148,1884.233920500148,left,0.6101103997789323,1,0,0,99,0.15999999999999998,0.24,left,0.5256330999545753,,,,,,,,,,,,,,,,,,,,,,,,,,,,,,,,,,,,,,,,,,,,,,,,,,,,,,,,,,,,Y6G5R4,train_x,red_square,top_right,2025-05-02_09h15.09.161,HideSeek_v1,2022.2.5,59.92548873570686,
,7,8,3,8,-4,0,56,,train_dim1_1,4,30,,,,2,0,2,0,,,,,,,,,0,0,0,0,0,3,3,3,3,0,3,0,,,,,,,,,,,,,,,,,,,,,,,,,,,,,,,,,,,,,,,,,,,,,,,,,,,,,,,,,,,,,,,,30,,,,,,,,1884.8515845001675,1884.8515845001675,1884.8515845001675,1884.8515845001675,1884.8515845001675,left,0.41031809989362955,1,0,0,99,0.07999999999999997,0.24,left,0.32212839974090457,,,,,,,,,,,,,,,,,,,,,,,,,,,,,,,,,,,,,,,,,,,,,,,,,,,,,,,,,,,,Y6G5R4,train_x,red_square,top_right,2025-05-02_09h15.09.161,HideSeek_v1,2022.2.5,59.92548873570686,
,7,8,3,8,-4,0,56,,train_dim1_1,4,30,,,,2,0,2,0,,,,,,,,,0,0,0,0,0,3,3,3,4,0,4,0,,,,,,,,,,,,,,,,,,,,,,,,,,,,,,,,,,,,,,,,,,,,,,,,,,,,,,,,,,,,,,,,30,,,,,,,,1885.2692710002884,1885.2692710002884,1885.2692710002884,1885.2692710002884,1885.2692710002884,return,0.5434933998622,2,0,0,1,0.07999999999999997,0.24,return,0.46274199988693,-1,-6,0.07999999999999997,0.24,,,,,,,,,,,,,,,,,,,,,,,,,,,,,,,,,,,,,,,,,,,,,,,,,,,,,,,,Y6G5R4,train_x,red_square,top_right,2025-05-02_09h15.09.161,HideSeek_v1,2022.2.5,59.92548873570686,
,5,7,0,7,-5,0,66,,train_dim1_1,5,30,,,,2,0,2,0,,,,,,,,,0,0,0,0,0,4,4,4,0,0,0,0,,,,,,,,,,,,,,,,,,,,,,,,,stimuli/alien_stimuli/66.png,,,,,,,,,,,,,,,,,,,,,,,,,,,,,stimuli/alien_stimuli/56.png,56,7,6,,,,,,,30,,,,,,,,1892.0322734001093,1892.0322734001093,1892.0322734001093,1892.0322734001093,1892.0322734001093,left,1.507042100187391,2,0,0,99,0.15999999999999998,0.16,left,1.4124390999786556,,,,,1890.4744808999822,1892.0322734001093,0.08,0.24,0.0,0.32,0.24,0.08,0.24000000000000002,0.08,0.24,1887.3908697003499,1887.3908697003499,1887.3908697003499,1887.3908697003499,1887.3908697003499,1887.3908697003499,1887.3908697003499,1887.3908697003499,1887.3715597199744,3.2051760000176728,return,3.051449599675834,,,,,,,,,,,,,,,,,,,,,,,,,,,,,,,,,Y6G5R4,train_x,red_square,top_right,2025-05-02_09h15.09.161,HideSeek_v1,2022.2.5,59.92548873570686,
,5,7,0,7,-5,0,66,,train_dim1_1,5,30,,,,2,0,2,0,,,,,,,,,0,0,0,0,0,4,4,4,1,0,1,0,,,,,,,,,,,,,,,,,,,,,,,,,,,,,,,,,,,,,,,,,,,,,,,,,,,,,,,,,,,,,,,,30,,,,,,,,1893.5411924002692,1893.5411924002692,1893.5411924002692,1893.5411924002692,1893.5411924002692,left,0.3596180002205074,2,0,0,99,0.07999999999999997,0.16,left,0.28433569986373186,,,,,,,,,,,,,,,,,,,,,,,,,,,,,,,,,,,,,,,,,,,,,,,,,,,,,,,,,,,,Y6G5R4,train_x,red_square,top_right,2025-05-02_09h15.09.161,HideSeek_v1,2022.2.5,59.92548873570686,
,5,7,0,7,-5,0,66,,train_dim1_1,5,30,,,,2,0,2,0,,,,,,,,,0,0,0,0,0,4,4,4,2,0,2,0,,,,,,,,,,,,,,,,,,,,,,,,,,,,,,,,,,,,,,,,,,,,,,,,,,,,,,,,,,,,,,,,30,,,,,,,,1893.907143200282,1893.907143200282,1893.907143200282,1893.907143200282,1893.907143200282,left,0.36032370012253523,2,0,0,99,-2.7755575615628914e-17,0.16,left,0.27808200009167194,,,,,,,,,,,,,,,,,,,,,,,,,,,,,,,,,,,,,,,,,,,,,,,,,,,,,,,,,,,,Y6G5R4,train_x,red_square,top_right,2025-05-02_09h15.09.161,HideSeek_v1,2022.2.5,59.92548873570686,
,5,7,0,7,-5,0,66,,train_dim1_1,5,30,,,,2,0,2,0,,,,,,,,,0,0,0,0,0,4,4,4,3,0,3,0,,,,,,,,,,,,,,,,,,,,,,,,,,,,,,,,,,,,,,,,,,,,,,,,,,,,,,,,,,,,,,,,30,,,,,,,,1894.2737869000994,1894.2737869000994,1894.2737869000994,1894.2737869000994,1894.2737869000994,left,0.32599980011582375,2,0,0,99,-0.08000000000000003,0.16,left,0.24380180006846786,,,,,,,,,,,,,,,,,,,,,,,,,,,,,,,,,,,,,,,,,,,,,,,,,,,,,,,,,,,,Y6G5R4,train_x,red_square,top_right,2025-05-02_09h15.09.161,HideSeek_v1,2022.2.5,59.92548873570686,
,5,7,0,7,-5,0,66,,train_dim1_1,5,30,,,,2,0,2,0,,,,,,,,,0,0,0,0,0,4,4,4,4,0,4,0,,,,,,,,,,,,,,,,,,,,,,,,,,,,,,,,,,,,,,,,,,,,,,,,,,,,,,,,,,,,,,,,30,,,,,,,,1894.6073789000511,1894.6073789000511,1894.6073789000511,1894.6073789000511,1894.6073789000511,left,0.24285720009356737,2,0,0,99,-0.16000000000000003,0.16,left,0.15541979996487498,,,,,,,,,,,,,,,,,,,,,,,,,,,,,,,,,,,,,,,,,,,,,,,,,,,,,,,,,,,,Y6G5R4,train_x,red_square,top_right,2025-05-02_09h15.09.161,HideSeek_v1,2022.2.5,59.92548873570686,
,5,7,0,7,-5,0,66,,train_dim1_1,5,30,,,,2,0,2,0,,,,,,,,,0,0,0,0,0,4,4,4,5,0,5,0,,,,,,,,,,,,,,,,,,,,,,,,,,,,,,,,,,,,,,,,,,,,,,,,,,,,,,,,,,,,,,,,30,,,,,,,,1894.8577439002693,1894.8577439002693,1894.8577439002693,1894.8577439002693,1894.8577439002693,return,0.8270763996988535,3,0,0,1,-0.16000000000000003,0.16,return,0.7494512000121176,-1,-11,-0.16000000000000003,0.16,,,,,,,,,,,,,,,,,,,,,,,,,,,,,,,,,,,,,,,,,,,,,,,,,,,,,,,,Y6G5R4,train_x,red_square,top_right,2025-05-02_09h15.09.161,HideSeek_v1,2022.2.5,59.92548873570686,
,5,5,4,5,-1,0,26,,train_dim1_1,6,30,,,,2,0,2,0,,,,,,,,,0,0,0,0,0,5,5,5,0,0,0,0,,,,,,,,,,,,,,,,,,,,,,,,,stimuli/alien_stimuli/26.png,,,,,,,,,,,,,,,,,,,,,,,,,,,,,stimuli/alien_stimuli/66.png,66,5,7,,,,,,,30,,,,,,,,1900.273928300012,1900.273928300012,1900.273928300012,1900.273928300012,1900.273928300012,return,2.6573767997324467,3,1,0,0,0.24,0,return,2.5463259001262486,-1,-11,0.24,0,1898.6979367001913,1900.273928300012,-0.16,0.16,0.0,0.4,0.16,-0.16,0.039999999999999994,-0.16,0.16,1897.2469036001712,1897.2469036001712,1897.2469036001712,1897.2469036001712,1897.2469036001712,1897.2469036001712,1897.2469036001712,1897.2469036001712,1897.229845560249,1.5536239999346435,return,1.4286148003302515,,,,,,,,,,,,,,,,,,,,,,,,,,,,,,,,,Y6G5R4,train_x,red_square,top_right,2025-05-02_09h15.09.161,HideSeek_v1,2022.2.5,59.92548873570686,
,8,5,3,5,-5,0,66,,train_dim1_1,7,30,,,,2,0,2,0,,,,,,,,,0,0,0,0,0,6,6,6,0,0,0,0,,,,,,,,,,,,,,,,,,,,,,,,,stimuli/alien_stimuli/66.png,,,,,,,,,,,,,,,,,,,,,,,,,,,,,stimuli/alien_stimuli/26.png,26,5,8,,,,,,,30,,,,,,,,1910.2808004999533,1910.2808004999533,1910.2808004999533,1910.2808004999533,1910.2808004999533,left,1.4064960000105202,3,1,0,99,0.39999999999999997,0,left,1.3279788997024298,,,,,1908.7226766003296,1910.2808004999533,0.16,0,0.0,0.08,0.0,0.16,0.2,0.16,0,1904.4810691000894,1904.4810691000894,1904.4810691000894,1904.4810691000894,1904.4810691000894,1904.4810691000894,1904.4810691000894,1904.4810691000894,1904.4693204201294,4.355755900032818,return,4.217600699979812,,,,,,,,,,,,,,,,,,,,,,,,,,,,,,,,,Y6G5R4,train_x,red_square,top_right,2025-05-02_09h15.09.161,HideSeek_v1,2022.2.5,59.92548873570686,
,8,5,3,5,-5,0,66,,train_dim1_1,7,30,,,,2,0,2,0,,,,,,,,,0,0,0,0,0,6,6,6,1,0,1,0,,,,,,,,,,,,,,,,,,,,,,,,,,,,,,,,,,,,,,,,,,,,,,,,,,,,,,,,,,,,,,,,30,,,,,,,,1911.688396499958,1911.688396499958,1911.688396499958,1911.688396499958,1911.688396499958,left,0.443028399720788,3,1,0,99,0.31999999999999995,0,left,0.35855540027841926,,,,,,,,,,,,,,,,,,,,,,,,,,,,,,,,,,,,,,,,,,,,,,,,,,,,,,,,,,,,Y6G5R4,train_x,red_square,top_right,2025-05-02_09h15.09.161,HideSeek_v1,2022.2.5,59.92548873570686,
,8,5,3,5,-5,0,66,,train_dim1_1,7,30,,,,2,0,2,0,,,,,,,,,0,0,0,0,0,6,6,6,2,0,2,0,,,,,,,,,,,,,,,,,,,,,,,,,,,,,,,,,,,,,,,,,,,,,,,,,,,,,,,,,,,,,,,,30,,,,,,,,1912.138945300132,1912.138945300132,1912.138945300132,1912.138945300132,1912.138945300132,left,0.39326060004532337,3,1,0,99,0.23999999999999994,0,left,0.31719599990174174,,,,,,,,,,,,,,,,,,,,,,,,,,,,,,,,,,,,,,,,,,,,,,,,,,,,,,,,,,,,Y6G5R4,train_x,red_square,top_right,2025-05-02_09h15.09.161,HideSeek_v1,2022.2.5,59.92548873570686,
,8,5,3,5,-5,0,66,,train_dim1_1,7,30,,,,2,0,2,0,,,,,,,,,0,0,0,0,0,6,6,6,3,0,3,0,,,,,,,,,,,,,,,,,,,,,,,,,,,,,,,,,,,,,,,,,,,,,,,,,,,,,,,,,,,,,,,,30,,,,,,,,1912.539089200087,1912.539089200087,1912.539089200087,1912.539089200087,1912.539089200087,left,0.4268145998939872,3,1,0,99,0.15999999999999992,0,left,0.35383869986981153,,,,,,,,,,,,,,,,,,,,,,,,,,,,,,,,,,,,,,,,,,,,,,,,,,,,,,,,,,,,Y6G5R4,train_x,red_square,top_right,2025-05-02_09h15.09.161,HideSeek_v1,2022.2.5,59.92548873570686,
,8,5,3,5,-5,0,66,,train_dim1_1,7,30,,,,2,0,2,0,,,,,,,,,0,0,0,0,0,6,6,6,4,0,4,0,,,,,,,,,,,,,,,,,,,,,,,,,,,,,,,,,,,,,,,,,,,,,,,,,,,,,,,,,,,,,,,,30,,,,,,,,1912.9721563002095,1912.9721563002095,1912.9721563002095,1912.9721563002095,1912.9721563002095,left,0.36026560002937913,3,1,0,99,0.07999999999999992,0,left,0.2888793000020087,,,,,,,,,,,,,,,,,,,,,,,,,,,,,,,,,,,,,,,,,,,,,,,,,,,,,,,,,,,,Y6G5R4,train_x,red_square,top_right,2025-05-02_09h15.09.161,HideSeek_v1,2022.2.5,59.92548873570686,
,8,5,3,5,-5,0,66,,train_dim1_1,7,30,,,,2,0,2,0,,,,,,,,,0,0,0,0,0,6,6,6,5,0,5,0,,,,,,,,,,,,,,,,,,,,,,,,,,,,,,,,,,,,,,,,,,,,,,,,,,,,,,,,,,,,,,,,30,,,,,,,,1913.3407936999574,1913.3407936999574,1913.3407936999574,1913.3407936999574,1913.3407936999574,return,0.5596590000204742,4,0,0,1,0.07999999999999992,0,return,0.47134510008618236,-1,-16,0.07999999999999992,0,,,,,,,,,,,,,,,,,,,,,,,,,,,,,,,,,,,,,,,,,,,,,,,,,,,,,,,,Y6G5R4,train_x,red_square,top_right,2025-05-02_09h15.09.161,HideSeek_v1,2022.2.5,59.92548873570686,
,5,9,2,9,-3,0,46,,train_dim1_1,8,30,,,,2,0,2,0,,,,,,,,,0,0,0,0,0,7,7,7,0,0,0,0,,,,,,,,,,,,,,,,,,,,,,,,,stimuli/alien_stimuli/46.png,,,,,,,,,,,,,,,,,,,,,,,,,,,,,stimuli/alien_stimuli/66.png,66,8,9,,,,,,,30,,,,,,,,1918.5636970000342,1918.5636970000342,1918.5636970000342,1918.5636970000342,1918.5636970000342,left,4.026116800028831,4,0,0,99,0.15999999999999998,0.32,left,3.923930899705738,,,,,1916.9963804003783,1918.5636970000342,0.08,0,0.0,0.4,0.0,0.08,0.27999999999999997,0.08,0,1915.483410899993,1915.483410899993,1915.483410899993,1915.483410899993,1915.483410899993,1915.483410899993,1915.483410899993,1915.483410899993,1915.4617145200727,1.6369917001575232,return,1.4905445999465883,,,,,,,,,,,,,,,,,,,,,,,,,,,,,,,,,Y6G5R4,train_x,red_square,top_right,2025-05-02_09h15.09.161,HideSeek_v1,2022.2.5,59.92548873570686,
,5,9,2,9,-3,0,46,,train_dim1_1,8,30,,,,2,0,2,0,,,,,,,,,0,0,0,0,0,7,7,7,1,0,1,0,,,,,,,,,,,,,,,,,,,,,,,,,,,,,,,,,,,,,,,,,,,,,,,,,,,,,,,,,,,,,,,,30,,,,,,,,1922.581028399989,1922.581028399989,1922.581028399989,1922.581028399989,1922.581028399989,left,1.9107944001443684,4,0,0,99,0.07999999999999997,0.32,left,1.8381818998605013,,,,,,,,,,,,,,,,,,,,,,,,,,,,,,,,,,,,,,,,,,,,,,,,,,,,,,,,,,,,Y6G5R4,train_x,red_square,top_right,2025-05-02_09h15.09.161,HideSeek_v1,2022.2.5,59.92548873570686,
,5,9,2,9,-3,0,46,,train_dim1_1,8,30,,,,2,0,2,0,,,,,,,,,0,0,0,0,0,7,7,7,2,0,2,0,,,,,,,,,,,,,,,,,,,,,,,,,,,,,,,,,,,,,,,,,,,,,,,,,,,,,,,,,,,,,,,,30,,,,,,,,1924.4986934000626,1924.4986934000626,1924.4986934000626,1924.4986934000626,1924.4986934000626,left,4.813624300062656,4,0,0,99,-2.7755575615628914e-17,0.32,left,4.7312771999277174,,,,,,,,,,,,,,,,,,,,,,,,,,,,,,,,,,,,,,,,,,,,,,,,,,,,,,,,,,,,Y6G5R4,train_x,red_square,top_right,2025-05-02_09h15.09.161,HideSeek_v1,2022.2.5,59.92548873570686,
,5,9,2,9,-3,0,46,,train_dim1_1,8,30,,,,2,0,2,0,,,,,,,,,0,0,0,0,0,7,7,7,3,0,3,0,,,,,,,,,,,,,,,,,,,,,,,,,,,,,,,,,,,,,,,,,,,,,,,,,,,,,,,,,,,,,,,,30,,,,,,,,1929.3202002001926,1929.3202002001926,1929.3202002001926,1929.3202002001926,1929.3202002001926,return,0.37654499989002943,5,0,0,1,-2.7755575615628914e-17,0.32,return,0.294824399985373,-1,-19,-2.7755575615628914e-17,0.32,,,,,,,,,,,,,,,,,,,,,,,,,,,,,,,,,,,,,,,,,,,,,,,,,,,,,,,,Y6G5R4,train_x,red_square,top_right,2025-05-02_09h15.09.161,HideSeek_v1,2022.2.5,59.92548873570686,
,6,5,2,5,-4,0,56,,train_dim1_1,9,30,,,,2,0,2,0,,,,,,,,,0,0,0,0,0,8,8,8,0,0,0,0,,,,,,,,,,,,,,,,,,,,,,,,,stimuli/alien_stimuli/56.png,,,,,,,,,,,,,,,,,,,,,,,,,,,,,stimuli/alien_stimuli/46.png,46,5,10,,,,,,,30,,,,,,,,1934.732327800244,1934.732327800244,1934.732327800244,1934.732327800244,1934.732327800244,left,1.3565944996662438,5,0,0,99,0.24,0,left,1.2525851000100374,,,,,1933.1598264002241,1934.732327800244,0,0.32,0.0,0.24,0.32,0,0.12,0,0.32,1931.2756441002712,1931.2756441002712,1931.2756441002712,1931.2756441002712,1931.2756441002712,1931.2756441002712,1931.2756441002712,1931.2756441002712,1931.2581478198526,2.0040051001124084,return,1.8551636999472976,,,,,,,,,,,,,,,,,,,,,,,,,,,,,,,,,Y6G5R4,train_x,red_square,top_right,2025-05-02_09h15.09.161,HideSeek_v1,2022.2.5,59.92548873570686,
,6,5,2,5,-4,0,56,,train_dim1_1,9,30,,,,2,0,2,0,,,,,,,,,0,0,0,0,0,8,8,8,1,0,1,0,,,,,,,,,,,,,,,,,,,,,,,,,,,,,,,,,,,,,,,,,,,,,,,,,,,,,,,,,,,,,,,,30,,,,,,,,1936.0782451000996,1936.0782451000996,1936.0782451000996,1936.0782451000996,1936.0782451000996,left,0.35960679966956377,5,0,0,99,0.15999999999999998,0,left,0.28266849974170327,,,,,,,,,,,,,,,,,,,,,,,,,,,,,,,,,,,,,,,,,,,,,,,,,,,,,,,,,,,,Y6G5R4,train_x,red_square,top_right,2025-05-02_09h15.09.161,HideSeek_v1,2022.2.5,59.92548873570686,
,6,5,2,5,-4,0,56,,train_dim1_1,9,30,,,,2,0,2,0,,,,,,,,,0,0,0,0,0,8,8,8,2,0,2,0,,,,,,,,,,,,,,,,,,,,,,,,,,,,,,,,,,,,,,,,,,,,,,,,,,,,,,,,,,,,,,,,30,,,,,,,,1936.4477300001308,1936.4477300001308,1936.4477300001308,1936.4477300001308,1936.4477300001308,left,0.343123700004071,5,0,0,99,0.07999999999999997,0,left,0.25705889984965324,,,,,,,,,,,,,,,,,,,,,,,,,,,,,,,,,,,,,,,,,,,,,,,,,,,,,,,,,,,,Y6G5R4,train_x,red_square,top_right,2025-05-02_09h15.09.161,HideSeek_v1,2022.2.5,59.92548873570686,
,6,5,2,5,-4,0,56,,train_dim1_1,9,30,,,,2,0,2,0,,,,,,,,,0,0,0,0,0,8,8,8,3,0,3,0,,,,,,,,,,,,,,,,,,,,,,,,,,,,,,,,,,,,,,,,,,,,,,,,,,,,,,,,,,,,,,,,30,,,,,,,,1936.794323600363,1936.794323600363,1936.794323600363,1936.794323600363,1936.794323600363,left,0.31001750007271767,5,0,0,99,-2.7755575615628914e-17,0,left,0.22819940000772476,,,,,,,,,,,,,,,,,,,,,,,,,,,,,,,,,,,,,,,,,,,,,,,,,,,,,,,,,,,,Y6G5R4,train_x,red_square,top_right,2025-05-02_09h15.09.161,HideSeek_v1,2022.2.5,59.92548873570686,
,6,5,2,5,-4,0,56,,train_dim1_1,9,30,,,,2,0,2,0,,,,,,,,,0,0,0,0,0,8,8,8,4,0,4,0,,,,,,,,,,,,,,,,,,,,,,,,,,,,,,,,,,,,,,,,,,,,,,,,,,,,,,,,,,,,,,,,30,,,,,,,,1937.1115588000976,1937.1115588000976,1937.1115588000976,1937.1115588000976,1937.1115588000976,return,0.4267654996365309,6,0,0,1,-2.7755575615628914e-17,0,return,0.34204240003600717,-1,-23,-2.7755575615628914e-17,0,,,,,,,,,,,,,,,,,,,,,,,,,,,,,,,,,,,,,,,,,,,,,,,,,,,,,,,,Y6G5R4,train_x,red_square,top_right,2025-05-02_09h15.09.161,HideSeek_v1,2022.2.5,59.92548873570686,
,5,8,5,8,0,0,16,,train_dim1_1,10,30,,,,2,0,2,0,,,,,,,,,0,0,0,0,0,9,9,9,0,0,0,0,,,,,,,,,,,,,,,,,,,,,,,,,stimuli/alien_stimuli/16.png,,,,,,,,,,,,,,,,,,,,,,,,,,,,,stimuli/alien_stimuli/56.png,56,6,11,,,,,,,30,,,,,,,,1941.5144417001866,1941.5144417001866,1941.5144417001866,1941.5144417001866,1941.5144417001866,return,2.2081561000086367,7,0,0,1,0.24,0.24,return,2.0943376002833247,-1,-23,0.24,0.24,1939.9318714002147,1941.5144417001866,0,0,0.0,0.32,0.0,0,0.16,0,0,1939.1014665002003,1939.1014665002003,1939.1014665002003,1939.1014665002003,1939.1014665002003,1939.1014665002003,1939.1014665002003,1939.1014665002003,1939.0812155600638,0.9363119001500309,return,0.8062668000347912,,,,,,,,,,,,,,,,,,,,,,,,,,,,,,,,,Y6G5R4,train_x,red_square,top_right,2025-05-02_09h15.09.161,HideSeek_v1,2022.2.5,59.92548873570686,
,7,7,4,7,-3,0,46,,train_dim1_1,11,30,,,,2,0,2,0,,,,,,,,,0,0,0,0,0,10,10,10,0,0,0,0,,,,,,,,,,,,,,,,,,,,,,,,,stimuli/alien_stimuli/46.png,,,,,,,,,,,,,,,,,,,,,,,,,,,,,stimuli/alien_stimuli/16.png,16,5,12,,,,,,,30,,,,,,,,1948.5632796999998,1948.5632796999998,1948.5632796999998,1948.5632796999998,1948.5632796999998,left,1.2401983002200723,7,0,0,99,0.32,0.16,left,1.1602143999189138,,,,,1947.0044199000113,1948.5632796999998,0.24,0.24,0.0,0.0,0.24,0.24,0.24,0.24,0.24,1945.2699751001783,1945.2699751001783,1945.2699751001783,1945.2699751001783,1945.2699751001783,1945.2699751001783,1945.2699751001783,1945.2699751001783,1945.254153820174,1.8524396996945143,return,1.7040219996124506,,,,,,,,,,,,,,,,,,,,,,,,,,,,,,,,,Y6G5R4,train_x,red_square,top_right,2025-05-02_09h15.09.161,HideSeek_v1,2022.2.5,59.92548873570686,
,7,7,4,7,-3,0,46,,train_dim1_1,11,30,,,,2,0,2,0,,,,,,,,,0,0,0,0,0,10,10,10,1,0,1,0,,,,,,,,,,,,,,,,,,,,,,,,,,,,,,,,,,,,,,,,,,,,,,,,,,,,,,,,,,,,,,,,30,,,,,,,,1949.8038378003985,1949.8038378003985,1949.8038378003985,1949.8038378003985,1949.8038378003985,left,0.5265716998837888,7,0,0,99,0.24,0.16,left,0.44581229984760284,,,,,,,,,,,,,,,,,,,,,,,,,,,,,,,,,,,,,,,,,,,,,,,,,,,,,,,,,,,,Y6G5R4,train_x,red_square,top_right,2025-05-02_09h15.09.161,HideSeek_v1,2022.2.5,59.92548873570686,
,7,7,4,7,-3,0,46,,train_dim1_1,11,30,,,,2,0,2,0,,,,,,,,,0,0,0,0,0,10,10,10,2,0,2,0,,,,,,,,,,,,,,,,,,,,,,,,,,,,,,,,,,,,,,,,,,,,,,,,,,,,,,,,,,,,,,,,30,,,,,,,,1950.3374633002095,1950.3374633002095,1950.3374633002095,1950.3374633002095,1950.3374633002095,left,0.5434949998743832,7,0,0,99,0.15999999999999998,0.16,left,0.4700127998366952,,,,,,,,,,,,,,,,,,,,,,,,,,,,,,,,,,,,,,,,,,,,,,,,,,,,,,,,,,,,Y6G5R4,train_x,red_square,top_right,2025-05-02_09h15.09.161,HideSeek_v1,2022.2.5,59.92548873570686,
,7,7,4,7,-3,0,46,,train_dim1_1,11,30,,,,2,0,2,0,,,,,,,,,0,0,0,0,0,10,10,10,3,0,3,0,,,,,,,,,,,,,,,,,,,,,,,,,,,,,,,,,,,,,,,,,,,,,,,,,,,,,,,,,,,,,,,,30,,,,,,,,1950.8881597002037,1950.8881597002037,1950.8881597002037,1950.8881597002037,1950.8881597002037,return,0.9941809996962547,8,0,0,1,0.15999999999999998,0.16,return,0.9142873999662697,-1,-26,0.15999999999999998,0.16,,,,,,,,,,,,,,,,,,,,,,,,,,,,,,,,,,,,,,,,,,,,,,,,,,,,,,,,Y6G5R4,train_x,red_square,top_right,2025-05-02_09h15.09.161,HideSeek_v1,2022.2.5,59.92548873570686,
,5,5,4,5,-1,0,26,,train_dim1_1,12,30,,,,2,0,2,0,,,,,,,,,0,0,0,0,0,11,11,11,0,0,0,0,,,,,,,,,,,,,,,,,,,,,,,,,stimuli/alien_stimuli/26.png,,,,,,,,,,,,,,,,,,,,,,,,,,,,,stimuli/alien_stimuli/46.png,46,7,13,,,,,,,30,,,,,,,,1956.2378045003861,1956.2378045003861,1956.2378045003861,1956.2378045003861,1956.2378045003861,left,1.2043910999782383,8,0,0,99,0.15999999999999998,0,left,1.0994675001129508,,,,,1954.6611534999683,1956.2378045003861,0.16,0.16,0.0,0.24,0.16,0.16,0.28,0.16,0.16,1953.443034300115,1953.443034300115,1953.443034300115,1953.443034300115,1953.443034300115,1953.443034300115,1953.443034300115,1953.443034300115,1953.426549260132,1.3201924003660679,return,1.199393399991095,,,,,,,,,,,,,,,,,,,,,,,,,,,,,,,,,Y6G5R4,train_x,red_square,top_right,2025-05-02_09h15.09.161,HideSeek_v1,2022.2.5,59.92548873570686,
,5,5,4,5,-1,0,26,,train_dim1_1,12,30,,,,2,0,2,0,,,,,,,,,0,0,0,0,0,11,11,11,1,0,1,0,,,,,,,,,,,,,,,,,,,,,,,,,,,,,,,,,,,,,,,,,,,,,,,,,,,,,,,,,,,,,,,,30,,,,,,,,1957.4306249003857,1957.4306249003857,1957.4306249003857,1957.4306249003857,1957.4306249003857,return,0.5767561001703143,9,0,0,1,0.15999999999999998,0,return,0.49591310042887926,-1,-27,0.15999999999999998,0,,,,,,,,,,,,,,,,,,,,,,,,,,,,,,,,,,,,,,,,,,,,,,,,,,,,,,,,Y6G5R4,train_x,red_square,top_right,2025-05-02_09h15.09.161,HideSeek_v1,2022.2.5,59.92548873570686,
,5,9,1,9,-4,0,56,,train_dim1_1,13,30,,,,2,0,2,0,,,,,,,,,0,0,0,0,0,12,12,12,0,0,0,0,,,,,,,,,,,,,,,,,,,,,,,,,stimuli/alien_stimuli/56.png,,,,,,,,,,,,,,,,,,,,,,,,,,,,,stimuli/alien_stimuli/26.png,26,5,14,,,,,,,30,,,,,,,,1964.127632400021,1964.127632400021,1964.127632400021,1964.127632400021,1964.127632400021,left,1.3731882995925844,9,0,0,99,0.15999999999999998,0.32,left,1.2913490999490023,,,,,1962.5677300002426,1964.127632400021,0.16,0,0.0,0.08,0.0,0.16,0.2,0.16,0,1959.5719947000034,1959.5719947000034,1959.5719947000034,1959.5719947000034,1959.5719947000034,1959.5719947000034,1959.5719947000034,1959.5719947000034,1959.5650750202594,3.10499389981851,return,2.9729563002474606,,,,,,,,,,,,,,,,,,,,,,,,,,,,,,,,,Y6G5R4,train_x,red_square,top_right,2025-05-02_09h15.09.161,HideSeek_v1,2022.2.5,59.92548873570686,
,5,9,1,9,-4,0,56,,train_dim1_1,13,30,,,,2,0,2,0,,,,,,,,,0,0,0,0,0,12,12,12,1,0,1,0,,,,,,,,,,,,,,,,,,,,,,,,,,,,,,,,,,,,,,,,,,,,,,,,,,,,,,,,,,,,,,,,30,,,,,,,,1965.5019225003198,1965.5019225003198,1965.5019225003198,1965.5019225003198,1965.5019225003198,left,0.4096920997835696,9,0,0,99,0.07999999999999997,0.32,left,0.3262281003408134,,,,,,,,,,,,,,,,,,,,,,,,,,,,,,,,,,,,,,,,,,,,,,,,,,,,,,,,,,,,Y6G5R4,train_x,red_square,top_right,2025-05-02_09h15.09.161,HideSeek_v1,2022.2.5,59.92548873570686,
,5,9,1,9,-4,0,56,,train_dim1_1,13,30,,,,2,0,2,0,,,,,,,,,0,0,0,0,0,12,12,12,2,0,2,0,,,,,,,,,,,,,,,,,,,,,,,,,,,,,,,,,,,,,,,,,,,,,,,,,,,,,,,,,,,,,,,,30,,,,,,,,1965.9193969001062,1965.9193969001062,1965.9193969001062,1965.9193969001062,1965.9193969001062,left,0.41060480009764433,9,0,0,99,-2.7755575615628914e-17,0.32,left,0.32018590020015836,,,,,,,,,,,,,,,,,,,,,,,,,,,,,,,,,,,,,,,,,,,,,,,,,,,,,,,,,,,,Y6G5R4,train_x,red_square,top_right,2025-05-02_09h15.09.161,HideSeek_v1,2022.2.5,59.92548873570686,
,5,9,1,9,-4,0,56,,train_dim1_1,13,30,,,,2,0,2,0,,,,,,,,,0,0,0,0,0,12,12,12,3,0,3,0,,,,,,,,,,,,,,,,,,,,,,,,,,,,,,,,,,,,,,,,,,,,,,,,,,,,,,,,,,,,,,,,30,,,,,,,,1966.3369893003255,1966.3369893003255,1966.3369893003255,1966.3369893003255,1966.3369893003255,left,0.4261623998172581,9,0,0,99,-0.08000000000000003,0.32,left,0.3460368001833558,,,,,,,,,,,,,,,,,,,,,,,,,,,,,,,,,,,,,,,,,,,,,,,,,,,,,,,,,,,,Y6G5R4,train_x,red_square,top_right,2025-05-02_09h15.09.161,HideSeek_v1,2022.2.5,59.92548873570686,
,5,9,1,9,-4,0,56,,train_dim1_1,13,30,,,,2,0,2,0,,,,,,,,,0,0,0,0,0,12,12,12,4,0,4,0,,,,,,,,,,,,,,,,,,,,,,,,,,,,,,,,,,,,,,,,,,,,,,,,,,,,,,,,,,,,,,,,30,,,,,,,,1966.7693412001245,1966.7693412001245,1966.7693412001245,1966.7693412001245,1966.7693412001245,return,4.213189300149679,10,0,0,1,-0.08000000000000003,0.32,return,4.129566099960357,-1,-31,-0.08000000000000003,0.32,,,,,,,,,,,,,,,,,,,,,,,,,,,,,,,,,,,,,,,,,,,,,,,,,,,,,,,,Y6G5R4,train_x,red_square,top_right,2025-05-02_09h15.09.161,HideSeek_v1,2022.2.5,59.92548873570686,
,9,8,9,8,0,0,16,,train_dim1_1,14,30,,,,2,0,2,0,,,,,,,,,0,0,0,0,0,13,13,13,0,0,0,0,,,,,,,,,,,,,,,,,,,,,,,,,stimuli/alien_stimuli/16.png,,,,,,,,,,,,,,,,,,,,,,,,,,,,,stimuli/alien_stimuli/56.png,56,5,15,,,,,,,30,,,,,,,,1975.6476094000973,1975.6476094000973,1975.6476094000973,1975.6476094000973,1975.6476094000973,return,1.5571383000351489,11,0,0,1,0.56,0.24,return,1.459048599936068,-1,-31,0.56,0.24,1974.0774891003966,1975.6476094000973,-0.08,0.32,0.0,0.32,0.32,-0.08,0.07999999999999999,-0.08,0.32,1972.5661866003647,1972.5661866003647,1972.5661866003647,1972.5661866003647,1972.5661866003647,1972.5661866003647,1972.5661866003647,1972.5661866003647,1972.5590665799566,1.6367536000907421,return,1.4901769999414682,,,,,,,,,,,,,,,,,,,,,,,,,,,,,,,,,Y6G5R4,train_x,red_square,top_right,2025-05-02_09h15.09.161,HideSeek_v1,2022.2.5,59.92548873570686,
,9,7,4,7,-5,0,66,,train_dim1_1,15,30,,,,2,0,2,0,,,,,,,,,0,0,0,0,0,14,14,14,0,0,0,0,,,,,,,,,,,,,,,,,,,,,,,,,stimuli/alien_stimuli/66.png,,,,,,,,,,,,,,,,,,,,,,,,,,,,,stimuli/alien_stimuli/16.png,16,9,16,,,,,,,30,,,,,,,,1980.8403218002059,1980.8403218002059,1980.8403218002059,1980.8403218002059,1980.8403218002059,left,1.3223668998107314,11,0,0,99,0.48000000000000004,0.16,left,1.2392799998633564,,,,,1979.2812119000591,1980.8403218002059,0.56,0.24,0.0,0.0,0.24,0.56,0.56,0.56,0.24,1978.7541791000403,1978.7541791000403,1978.7541791000403,1978.7541791000403,1978.7541791000403,1978.7541791000403,1978.7541791000403,1978.7541791000403,1978.747394320043,0.6360736000351608,return,0.4956783000379801,,,,,,,,,,,,,,,,,,,,,,,,,,,,,,,,,Y6G5R4,train_x,red_square,top_right,2025-05-02_09h15.09.161,HideSeek_v1,2022.2.5,59.92548873570686,
,9,7,4,7,-5,0,66,,train_dim1_1,15,30,,,,2,0,2,0,,,,,,,,,0,0,0,0,0,14,14,14,1,0,1,0,,,,,,,,,,,,,,,,,,,,,,,,,,,,,,,,,,,,,,,,,,,,,,,,,,,,,,,,,,,,,,,,30,,,,,,,,1982.1638358002529,1982.1638358002529,1982.1638358002529,1982.1638358002529,1982.1638358002529,left,0.39300369983538985,11,0,0,99,0.4,0.16,left,0.30575319984927773,,,,,,,,,,,,,,,,,,,,,,,,,,,,,,,,,,,,,,,,,,,,,,,,,,,,,,,,,,,,Y6G5R4,train_x,red_square,top_right,2025-05-02_09h15.09.161,HideSeek_v1,2022.2.5,59.92548873570686,
,9,7,4,7,-5,0,66,,train_dim1_1,15,30,,,,2,0,2,0,,,,,,,,,0,0,0,0,0,14,14,14,2,0,2,0,,,,,,,,,,,,,,,,,,,,,,,,,,,,,,,,,,,,,,,,,,,,,,,,,,,,,,,,,,,,,,,,30,,,,,,,,1982.5632128999569,1982.5632128999569,1982.5632128999569,1982.5632128999569,1982.5632128999569,left,0.34324980014935136,11,0,0,99,0.32,0.16,left,0.25673640007153153,,,,,,,,,,,,,,,,,,,,,,,,,,,,,,,,,,,,,,,,,,,,,,,,,,,,,,,,,,,,Y6G5R4,train_x,red_square,top_right,2025-05-02_09h15.09.161,HideSeek_v1,2022.2.5,59.92548873570686,
,9,7,4,7,-5,0,66,,train_dim1_1,15,30,,,,2,0,2,0,,,,,,,,,0,0,0,0,0,14,14,14,3,0,3,0,,,,,,,,,,,,,,,,,,,,,,,,,,,,,,,,,,,,,,,,,,,,,,,,,,,,,,,,,,,,,,,,30,,,,,,,,1982.9143390003592,1982.9143390003592,1982.9143390003592,1982.9143390003592,1982.9143390003592,left,0.3598768999800086,11,0,0,99,0.24,0.16,left,0.27943640016019344,,,,,,,,,,,,,,,,,,,,,,,,,,,,,,,,,,,,,,,,,,,,,,,,,,,,,,,,,,,,Y6G5R4,train_x,red_square,top_right,2025-05-02_09h15.09.161,HideSeek_v1,2022.2.5,59.92548873570686,
,9,7,4,7,-5,0,66,,train_dim1_1,15,30,,,,2,0,2,0,,,,,,,,,0,0,0,0,0,14,14,14,4,0,4,0,,,,,,,,,,,,,,,,,,,,,,,,,,,,,,,,,,,,,,,,,,,,,,,,,,,,,,,,,,,,,,,,30,,,,,,,,1983.2818395001814,1983.2818395001814,1983.2818395001814,1983.2818395001814,1983.2818395001814,left,0.3266410999931395,11,0,0,99,0.15999999999999998,0.16,left,0.2539427001029253,,,,,,,,,,,,,,,,,,,,,,,,,,,,,,,,,,,,,,,,,,,,,,,,,,,,,,,,,,,,Y6G5R4,train_x,red_square,top_right,2025-05-02_09h15.09.161,HideSeek_v1,2022.2.5,59.92548873570686,
,9,7,4,7,-5,0,66,,train_dim1_1,15,30,,,,2,0,2,0,,,,,,,,,0,0,0,0,0,14,14,14,5,0,5,0,,,,,,,,,,,,,,,,,,,,,,,,,,,,,,,,,,,,,,,,,,,,,,,,,,,,,,,,,,,,,,,,30,,,,,,,,1983.6157806999981,1983.6157806999981,1983.6157806999981,1983.6157806999981,1983.6157806999981,return,0.42656979989260435,12,0,0,1,0.15999999999999998,0.16,return,0.34302829997614026,-1,-36,0.15999999999999998,0.16,,,,,,,,,,,,,,,,,,,,,,,,,,,,,,,,,,,,,,,,,,,,,,,,,,,,,,,,Y6G5R4,train_x,red_square,top_right,2025-05-02_09h15.09.161,HideSeek_v1,2022.2.5,59.92548873570686,
,8,8,4,8,-4,0,56,,train_dim1_1,16,30,,,,2,0,2,0,,,,,,,,,0,0,0,0,0,15,15,15,0,0,0,0,,,,,,,,,,,,,,,,,,,,,,,,,stimuli/alien_stimuli/56.png,,,,,,,,,,,,,,,,,,,,,,,,,,,,,stimuli/alien_stimuli/66.png,66,9,17,,,,,,,30,,,,,,,,1987.9837227002718,1987.9837227002718,1987.9837227002718,1987.9837227002718,1987.9837227002718,left,1.1045335996896029,12,0,0,99,0.39999999999999997,0.24,left,1.0080352001823485,,,,,1986.42085330002,1987.9837227002718,0.16,0.16,0.0,0.4,0.16,0.16,0.36000000000000004,0.16,0.16,1985.6062966003083,1985.6062966003083,1985.6062966003083,1985.6062966003083,1985.6062966003083,1985.6062966003083,1985.6062966003083,1985.6062966003083,1985.5865973598325,0.9197647999972105,return,0.7846814999356866,,,,,,,,,,,,,,,,,,,,,,,,,,,,,,,,,Y6G5R4,train_x,red_square,top_right,2025-05-02_09h15.09.161,HideSeek_v1,2022.2.5,59.92548873570686,
,8,8,4,8,-4,0,56,,train_dim1_1,16,30,,,,2,0,2,0,,,,,,,,,0,0,0,0,0,15,15,15,1,0,1,0,,,,,,,,,,,,,,,,,,,,,,,,,,,,,,,,,,,,,,,,,,,,,,,,,,,,,,,,,,,,,,,,30,,,,,,,,1989.0880892002024,1989.0880892002024,1989.0880892002024,1989.0880892002024,1989.0880892002024,left,0.32656720001250505,12,0,0,99,0.31999999999999995,0.24,left,0.24687759997323155,,,,,,,,,,,,,,,,,,,,,,,,,,,,,,,,,,,,,,,,,,,,,,,,,,,,,,,,,,,,Y6G5R4,train_x,red_square,top_right,2025-05-02_09h15.09.161,HideSeek_v1,2022.2.5,59.92548873570686,
,8,8,4,8,-4,0,56,,train_dim1_1,16,30,,,,2,0,2,0,,,,,,,,,0,0,0,0,0,15,15,15,2,0,2,0,,,,,,,,,,,,,,,,,,,,,,,,,,,,,,,,,,,,,,,,,,,,,,,,,,,,,,,,,,,,,,,,30,,,,,,,,1989.4220418999903,1989.4220418999903,1989.4220418999903,1989.4220418999903,1989.4220418999903,left,0.32648529997095466,12,0,0,99,0.23999999999999994,0.24,left,0.24712829990312457,,,,,,,,,,,,,,,,,,,,,,,,,,,,,,,,,,,,,,,,,,,,,,,,,,,,,,,,,,,,Y6G5R4,train_x,red_square,top_right,2025-05-02_09h15.09.161,HideSeek_v1,2022.2.5,59.92548873570686,
,8,8,4,8,-4,0,56,,train_dim1_1,16,30,,,,2,0,2,0,,,,,,,,,0,0,0,0,0,15,15,15,3,0,3,0,,,,,,,,,,,,,,,,,,,,,,,,,,,,,,,,,,,,,,,,,,,,,,,,,,,,,,,,,,,,,,,,30,,,,,,,,1989.755782500375,1989.755782500375,1989.755782500375,1989.755782500375,1989.755782500375,left,0.3429910996928811,12,0,0,99,0.15999999999999992,0.24,left,0.263285799883306,,,,,,,,,,,,,,,,,,,,,,,,,,,,,,,,,,,,,,,,,,,,,,,,,,,,,,,,,,,,Y6G5R4,train_x,red_square,top_right,2025-05-02_09h15.09.161,HideSeek_v1,2022.2.5,59.92548873570686,
,8,8,4,8,-4,0,56,,train_dim1_1,16,30,,,,2,0,2,0,,,,,,,,,0,0,0,0,0,15,15,15,4,0,4,0,,,,,,,,,,,,,,,,,,,,,,,,,,,,,,,,,,,,,,,,,,,,,,,,,,,,,,,,,,,,,,,,30,,,,,,,,1990.1053794999607,1990.1053794999607,1990.1053794999607,1990.1053794999607,1990.1053794999607,return,0.39322829991579056,13,0,0,1,0.15999999999999992,0.24,return,0.30937880044803023,-1,-40,0.15999999999999992,0.24,,,,,,,,,,,,,,,,,,,,,,,,,,,,,,,,,,,,,,,,,,,,,,,,,,,,,,,,Y6G5R4,train_x,red_square,top_right,2025-05-02_09h15.09.161,HideSeek_v1,2022.2.5,59.92548873570686,
,7,9,6,9,-1,0,26,,train_dim1_1,17,30,,,,2,0,2,0,,,,,,,,,0,0,0,0,0,16,16,16,0,0,0,0,,,,,,,,,,,,,,,,,,,,,,,,,stimuli/alien_stimuli/26.png,,,,,,,,,,,,,,,,,,,,,,,,,,,,,stimuli/alien_stimuli/56.png,56,8,18,,,,,,,30,,,,,,,,1994.5050478000194,1994.5050478000194,1994.5050478000194,1994.5050478000194,1994.5050478000194,left,1.1895539001561701,13,0,0,99,0.32,0.32,left,1.0981372999958694,,,,,1992.9428391000256,1994.5050478000194,0.16,0.24,0.0,0.32,0.24,0.16,0.32,0.16,0.24,1992.0629491000436,1992.0629491000436,1992.0629491000436,1992.0629491000436,1992.0629491000436,1992.0629491000436,1992.0629491000436,1992.0629491000436,1992.0419078600594,0.9863978000357747,return,0.8504157001152635,,,,,,,,,,,,,,,,,,,,,,,,,,,,,,,,,Y6G5R4,train_x,red_square,top_right,2025-05-02_09h15.09.161,HideSeek_v1,2022.2.5,59.92548873570686,
,7,9,6,9,-1,0,26,,train_dim1_1,17,30,,,,2,0,2,0,,,,,,,,,0,0,0,0,0,16,16,16,1,0,1,0,,,,,,,,,,,,,,,,,,,,,,,,,,,,,,,,,,,,,,,,,,,,,,,,,,,,,,,,,,,,,,,,30,,,,,,,,1995.695722500328,1995.695722500328,1995.695722500328,1995.695722500328,1995.695722500328,return,0.47652410017326474,14,0,0,1,0.32,0.32,return,0.3967292997986078,-1,-41,0.32,0.32,,,,,,,,,,,,,,,,,,,,,,,,,,,,,,,,,,,,,,,,,,,,,,,,,,,,,,,,Y6G5R4,train_x,red_square,top_right,2025-05-02_09h15.09.161,HideSeek_v1,2022.2.5,59.92548873570686,
,7,6,2,6,-5,0,66,,train_dim1_1,18,30,,,,2,0,2,0,,,,,,,,,0,0,0,0,0,17,17,17,0,0,0,0,,,,,,,,,,,,,,,,,,,,,,,,,stimuli/alien_stimuli/66.png,,,,,,,,,,,,,,,,,,,,,,,,,,,,,stimuli/alien_stimuli/26.png,26,7,19,,,,,,,30,,,,,,,,2000.2224967000075,2000.2224967000075,2000.2224967000075,2000.2224967000075,2000.2224967000075,left,1.5236765001900494,14,0,0,99,0.32,0.08,left,1.4367945999838412,,,,,1998.6640338003635,2000.2224967000075,0.32,0.32,0.0,0.08,0.32,0.32,0.36,0.32,0.32,1997.73689070018,1997.73689070018,1997.73689070018,1997.73689070018,1997.73689070018,1997.73689070018,1997.73689070018,1997.73689070018,1997.729915220244,1.0368272997438908,return,0.9028688003309071,,,,,,,,,,,,,,,,,,,,,,,,,,,,,,,,,Y6G5R4,train_x,red_square,top_right,2025-05-02_09h15.09.161,HideSeek_v1,2022.2.5,59.92548873570686,
,7,6,2,6,-5,0,66,,train_dim1_1,18,30,,,,2,0,2,0,,,,,,,,,0,0,0,0,0,17,17,17,1,0,1,0,,,,,,,,,,,,,,,,,,,,,,,,,,,,,,,,,,,,,,,,,,,,,,,,,,,,,,,,,,,,,,,,30,,,,,,,,2001.7463809000328,2001.7463809000328,2001.7463809000328,2001.7463809000328,2001.7463809000328,left,0.3928650999441743,14,0,0,99,0.24,0.08,left,0.3134608003310859,,,,,,,,,,,,,,,,,,,,,,,,,,,,,,,,,,,,,,,,,,,,,,,,,,,,,,,,,,,,Y6G5R4,train_x,red_square,top_right,2025-05-02_09h15.09.161,HideSeek_v1,2022.2.5,59.92548873570686,
,7,6,2,6,-5,0,66,,train_dim1_1,18,30,,,,2,0,2,0,,,,,,,,,0,0,0,0,0,17,17,17,2,0,2,0,,,,,,,,,,,,,,,,,,,,,,,,,,,,,,,,,,,,,,,,,,,,,,,,,,,,,,,,,,,,,,,,30,,,,,,,,2002.1466173999943,2002.1466173999943,2002.1466173999943,2002.1466173999943,2002.1466173999943,left,0.426840600091964,14,0,0,99,0.15999999999999998,0.08,left,0.34373999992385507,,,,,,,,,,,,,,,,,,,,,,,,,,,,,,,,,,,,,,,,,,,,,,,,,,,,,,,,,,,,Y6G5R4,train_x,red_square,top_right,2025-05-02_09h15.09.161,HideSeek_v1,2022.2.5,59.92548873570686,
,7,6,2,6,-5,0,66,,train_dim1_1,18,30,,,,2,0,2,0,,,,,,,,,0,0,0,0,0,17,17,17,3,0,3,0,,,,,,,,,,,,,,,,,,,,,,,,,,,,,,,,,,,,,,,,,,,,,,,,,,,,,,,,,,,,,,,,30,,,,,,,,2002.5809933999553,2002.5809933999553,2002.5809933999553,2002.5809933999553,2002.5809933999553,left,3.395400899928063,14,0,0,99,0.07999999999999997,0.08,left,3.3167857001535594,,,,,,,,,,,,,,,,,,,,,,,,,,,,,,,,,,,,,,,,,,,,,,,,,,,,,,,,,,,,Y6G5R4,train_x,red_square,top_right,2025-05-02_09h15.09.161,HideSeek_v1,2022.2.5,59.92548873570686,
,7,6,2,6,-5,0,66,,train_dim1_1,18,30,,,,2,0,2,0,,,,,,,,,0,0,0,0,0,17,17,17,4,0,4,0,,,,,,,,,,,,,,,,,,,,,,,,,,,,,,,,,,,,,,,,,,,,,,,,,,,,,,,,,,,,,,,,30,,,,,,,,2005.98320180038,2005.98320180038,2005.98320180038,2005.98320180038,2005.98320180038,left,0.3099279999732971,14,0,0,99,-2.7755575615628914e-17,0.08,left,0.23055909993126988,,,,,,,,,,,,,,,,,,,,,,,,,,,,,,,,,,,,,,,,,,,,,,,,,,,,,,,,,,,,Y6G5R4,train_x,red_square,top_right,2025-05-02_09h15.09.161,HideSeek_v1,2022.2.5,59.92548873570686,
,7,6,2,6,-5,0,66,,train_dim1_1,18,30,,,,2,0,2,0,,,,,,,,,0,0,0,0,0,17,17,17,5,0,5,0,,,,,,,,,,,,,,,,,,,,,,,,,,,,,,,,,,,,,,,,,,,,,,,,,,,,,,,,,,,,,,,,30,,,,,,,,2006.300776600372,2006.300776600372,2006.300776600372,2006.300776600372,2006.300776600372,return,0.3599768001586199,15,0,0,1,-2.7755575615628914e-17,0.08,return,0.2858665999956429,-1,-46,-2.7755575615628914e-17,0.08,,,,,,,,,,,,,,,,,,,,,,,,,,,,,,,,,,,,,,,,,,,,,,,,,,,,,,,,Y6G5R4,train_x,red_square,top_right,2025-05-02_09h15.09.161,HideSeek_v1,2022.2.5,59.92548873570686,
,5,8,2,8,-3,0,46,,train_dim1_1,19,30,,,,2,0,2,0,,,,,,,,,0,0,0,0,0,18,18,18,0,0,0,0,,,,,,,,,,,,,,,,,,,,,,,,,stimuli/alien_stimuli/46.png,,,,,,,,,,,,,,,,,,,,,,,,,,,,,stimuli/alien_stimuli/66.png,66,7,20,,,,,,,30,,,,,,,,2010.4584961002693,2010.4584961002693,2010.4584961002693,2010.4584961002693,2010.4584961002693,left,2.240738300140947,15,0,0,99,0.15999999999999998,0.24,left,2.1382909999229014,,,,,2008.8893707003444,2010.4584961002693,0,0.08,0.0,0.4,0.08,0,0.2,0,0.08,2008.2449861001223,2008.2449861001223,2008.2449861001223,2008.2449861001223,2008.2449861001223,2008.2449861001223,2008.2449861001223,2008.2449861001223,2008.2222905200442,0.7691593999043107,return,0.6157537000253797,,,,,,,,,,,,,,,,,,,,,,,,,,,,,,,,,Y6G5R4,train_x,red_square,top_right,2025-05-02_09h15.09.161,HideSeek_v1,2022.2.5,59.92548873570686,
,5,8,2,8,-3,0,46,,train_dim1_1,19,30,,,,2,0,2,0,,,,,,,,,0,0,0,0,0,18,18,18,1,0,1,0,,,,,,,,,,,,,,,,,,,,,,,,,,,,,,,,,,,,,,,,,,,,,,,,,,,,,,,,,,,,,,,,30,,,,,,,,2012.6895201001316,2012.6895201001316,2012.6895201001316,2012.6895201001316,2012.6895201001316,left,0.37680889992043376,15,0,0,99,0.07999999999999997,0.24,left,0.2968809003941715,,,,,,,,,,,,,,,,,,,,,,,,,,,,,,,,,,,,,,,,,,,,,,,,,,,,,,,,,,,,Y6G5R4,train_x,red_square,top_right,2025-05-02_09h15.09.161,HideSeek_v1,2022.2.5,59.92548873570686,
,5,8,2,8,-3,0,46,,train_dim1_1,19,30,,,,2,0,2,0,,,,,,,,,0,0,0,0,0,18,18,18,2,0,2,0,,,,,,,,,,,,,,,,,,,,,,,,,,,,,,,,,,,,,,,,,,,,,,,,,,,,,,,,,,,,,,,,30,,,,,,,,2013.0730715002865,2013.0730715002865,2013.0730715002865,2013.0730715002865,2013.0730715002865,left,0.3264113999903202,15,0,0,99,-2.7755575615628914e-17,0.24,left,0.23842549975961447,,,,,,,,,,,,,,,,,,,,,,,,,,,,,,,,,,,,,,,,,,,,,,,,,,,,,,,,,,,,Y6G5R4,train_x,red_square,top_right,2025-05-02_09h15.09.161,HideSeek_v1,2022.2.5,59.92548873570686,
,5,8,2,8,-3,0,46,,train_dim1_1,19,30,,,,2,0,2,0,,,,,,,,,0,0,0,0,0,18,18,18,3,0,3,0,,,,,,,,,,,,,,,,,,,,,,,,,,,,,,,,,,,,,,,,,,,,,,,,,,,,,,,,,,,,,,,,30,,,,,,,,2013.4098718999885,2013.4098718999885,2013.4098718999885,2013.4098718999885,2013.4098718999885,return,0.3402799000032246,16,0,0,1,-2.7755575615628914e-17,0.24,return,0.2658128999173641,-1,-49,-2.7755575615628914e-17,0.24,,,,,,,,,,,,,,,,,,,,,,,,,,,,,,,,,,,,,,,,,,,,,,,,,,,,,,,,Y6G5R4,train_x,red_square,top_right,2025-05-02_09h15.09.161,HideSeek_v1,2022.2.5,59.92548873570686,
,5,6,5,6,0,0,16,,train_dim1_1,20,30,,,,2,0,2,0,,,,,,,,,0,0,0,0,0,19,19,19,0,0,0,0,,,,,,,,,,,,,,,,,,,,,,,,,stimuli/alien_stimuli/16.png,,,,,,,,,,,,,,,,,,,,,,,,,,,,,stimuli/alien_stimuli/46.png,46,5,21,,,,,,,30,,,,,,,,2017.490283400286,2017.490283400286,2017.490283400286,2017.490283400286,2017.490283400286,return,1.3734943997114897,17,0,0,1,0.24,0.08,return,1.2891698996536434,-1,-49,0.24,0.08,2015.9284980003722,2017.490283400286,0,0.24,0.0,0.24,0.24,0,0.12,0,0.24,2015.3127685002983,2015.3127685002983,2015.3127685002983,2015.3127685002983,2015.3127685002983,2015.3127685002983,2015.3127685002983,2015.3127685002983,2015.2946154601873,0.7193897999823093,return,0.5887259999290109,,,,,,,,,,,,,,,,,,,,,,,,,,,,,,,,,Y6G5R4,train_x,red_square,top_right,2025-05-02_09h15.09.161,HideSeek_v1,2022.2.5,59.92548873570686,
,9,7,6,7,-3,0,46,,train_dim1_1,21,30,,,,2,0,2,0,,,,,,,,,0,0,0,0,0,20,20,20,0,0,0,0,,,,,,,,,,,,,,,,,,,,,,,,,stimuli/alien_stimuli/46.png,,,,,,,,,,,,,,,,,,,,,,,,,,,,,stimuli/alien_stimuli/16.png,16,5,22,,,,,,,30,,,,,,,,2023.2913311002776,2023.2913311002776,2023.2913311002776,2023.2913311002776,2023.2913311002776,left,1.1558559997938573,17,0,0,99,0.48000000000000004,0.16,left,1.0653776000253856,,,,,2021.7333364002407,2023.2913311002776,0.24,0.08,0.0,0.0,0.08,0.24,0.24,0.24,0.08,2020.422844500281,2020.422844500281,2020.422844500281,2020.422844500281,2020.422844500281,2020.422844500281,2020.422844500281,2020.422844500281,2020.4157075201629,1.4198649995960295,return,1.2808252000249922,,,,,,,,,,,,,,,,,,,,,,,,,,,,,,,,,Y6G5R4,train_x,red_square,top_right,2025-05-02_09h15.09.161,HideSeek_v1,2022.2.5,59.92548873570686,
,9,7,6,7,-3,0,46,,train_dim1_1,21,30,,,,2,0,2,0,,,,,,,,,0,0,0,0,0,20,20,20,1,0,1,0,,,,,,,,,,,,,,,,,,,,,,,,,,,,,,,,,,,,,,,,,,,,,,,,,,,,,,,,,,,,,,,,30,,,,,,,,2024.4493501000106,2024.4493501000106,2024.4493501000106,2024.4493501000106,2024.4493501000106,left,0.30944709992036223,17,0,0,99,0.4,0.16,left,0.232455899938941,,,,,,,,,,,,,,,,,,,,,,,,,,,,,,,,,,,,,,,,,,,,,,,,,,,,,,,,,,,,Y6G5R4,train_x,red_square,top_right,2025-05-02_09h15.09.161,HideSeek_v1,2022.2.5,59.92548873570686,
,9,7,6,7,-3,0,46,,train_dim1_1,21,30,,,,2,0,2,0,,,,,,,,,0,0,0,0,0,20,20,20,2,0,2,0,,,,,,,,,,,,,,,,,,,,,,,,,,,,,,,,,,,,,,,,,,,,,,,,,,,,,,,,,,,,,,,,30,,,,,,,,2024.766394100152,2024.766394100152,2024.766394100152,2024.766394100152,2024.766394100152,left,0.25986400013789535,17,0,0,99,0.32,0.16,left,0.17618050007149577,,,,,,,,,,,,,,,,,,,,,,,,,,,,,,,,,,,,,,,,,,,,,,,,,,,,,,,,,,,,Y6G5R4,train_x,red_square,top_right,2025-05-02_09h15.09.161,HideSeek_v1,2022.2.5,59.92548873570686,
,9,7,6,7,-3,0,46,,train_dim1_1,21,30,,,,2,0,2,0,,,,,,,,,0,0,0,0,0,20,20,20,3,0,3,0,,,,,,,,,,,,,,,,,,,,,,,,,,,,,,,,,,,,,,,,,,,,,,,,,,,,,,,,,,,,,,,,30,,,,,,,,2025.0316763999872,2025.0316763999872,2025.0316763999872,2025.0316763999872,2025.0316763999872,return,0.41014340007677674,18,0,0,1,0.32,0.16,return,0.3315789997577667,-1,-52,0.32,0.16,,,,,,,,,,,,,,,,,,,,,,,,,,,,,,,,,,,,,,,,,,,,,,,,,,,,,,,,Y6G5R4,train_x,red_square,top_right,2025-05-02_09h15.09.161,HideSeek_v1,2022.2.5,59.92548873570686,
,6,5,5,5,-1,0,26,,train_dim1_1,22,30,,,,2,0,2,0,,,,,,,,,0,0,0,0,0,21,21,21,0,0,0,0,,,,,,,,,,,,,,,,,,,,,,,,,stimuli/alien_stimuli/26.png,,,,,,,,,,,,,,,,,,,,,,,,,,,,,stimuli/alien_stimuli/46.png,46,9,23,,,,,,,30,,,,,,,,2029.214583999943,2029.214583999943,2029.214583999943,2029.214583999943,2029.214583999943,left,1.1061567002907395,18,0,0,99,0.24,0,left,1.0001455000601709,,,,,2027.6383406003006,2029.214583999943,0.32,0.16,0.0,0.24,0.16,0.32,0.44000000000000006,0.32,0.16,2027.0059593003243,2027.0059593003243,2027.0059593003243,2027.0059593003243,2027.0059593003243,2027.0059593003243,2027.0059593003243,2027.0059593003243,2026.9879314602354,0.7360790995880961,return,0.6139646000228822,,,,,,,,,,,,,,,,,,,,,,,,,,,,,,,,,Y6G5R4,train_x,red_square,top_right,2025-05-02_09h15.09.161,HideSeek_v1,2022.2.5,59.92548873570686,
,6,5,5,5,-1,0,26,,train_dim1_1,22,30,,,,2,0,2,0,,,,,,,,,0,0,0,0,0,21,21,21,1,0,1,0,,,,,,,,,,,,,,,,,,,,,,,,,,,,,,,,,,,,,,,,,,,,,,,,,,,,,,,,,,,,,,,,30,,,,,,,,2030.3078980003484,2030.3078980003484,2030.3078980003484,2030.3078980003484,2030.3078980003484,return,0.6932169999927282,19,0,0,1,0.24,0,return,0.6147867003455758,-1,-53,0.24,0,,,,,,,,,,,,,,,,,,,,,,,,,,,,,,,,,,,,,,,,,,,,,,,,,,,,,,,,Y6G5R4,train_x,red_square,top_right,2025-05-02_09h15.09.161,HideSeek_v1,2022.2.5,59.92548873570686,
,7,6,2,6,-5,0,66,,train_dim1_1,23,30,,,,2,0,2,0,,,,,,,,,0,0,0,0,0,22,22,22,0,0,0,0,,,,,,,,,,,,,,,,,,,,,,,,,stimuli/alien_stimuli/66.png,,,,,,,,,,,,,,,,,,,,,,,,,,,,,stimuli/alien_stimuli/26.png,26,6,24,,,,,,,30,,,,,,,,2035.53803159995,2035.53803159995,2035.53803159995,2035.53803159995,2035.53803159995,left,0.7568197003565729,19,0,0,99,0.32,0.08,left,0.650751399807632,,,,,2033.960039500147,2035.53803159995,0.24,0,0.0,0.08,0.0,0.24,0.28,0.24,0,2032.5657124002464,2032.5657124002464,2032.5657124002464,2032.5657124002464,2032.5657124002464,2032.5657124002464,2032.5657124002464,2032.5657124002464,2032.558932819823,1.5036586998030543,return,1.3736316002905369,,,,,,,,,,,,,,,,,,,,,,,,,,,,,,,,,Y6G5R4,train_x,red_square,top_right,2025-05-02_09h15.09.161,HideSeek_v1,2022.2.5,59.92548873570686,
,7,6,2,6,-5,0,66,,train_dim1_1,23,30,,,,2,0,2,0,,,,,,,,,0,0,0,0,0,22,22,22,1,0,1,0,,,,,,,,,,,,,,,,,,,,,,,,,,,,,,,,,,,,,,,,,,,,,,,,,,,,,,,,,,,,,,,,30,,,,,,,,2036.276027300395,2036.276027300395,2036.276027300395,2036.276027300395,2036.276027300395,left,0.3760865000076592,19,0,0,99,0.24,0.08,left,0.2885683998465538,,,,,,,,,,,,,,,,,,,,,,,,,,,,,,,,,,,,,,,,,,,,,,,,,,,,,,,,,,,,Y6G5R4,train_x,red_square,top_right,2025-05-02_09h15.09.161,HideSeek_v1,2022.2.5,59.92548873570686,
,7,6,2,6,-5,0,66,,train_dim1_1,23,30,,,,2,0,2,0,,,,,,,,,0,0,0,0,0,22,22,22,2,0,2,0,,,,,,,,,,,,,,,,,,,,,,,,,,,,,,,,,,,,,,,,,,,,,,,,,,,,,,,,,,,,,,,,30,,,,,,,,2036.659584400244,2036.659584400244,2036.659584400244,2036.659584400244,2036.659584400244,left,0.376369200181216,19,0,0,99,0.15999999999999998,0.08,left,0.2892903001047671,,,,,,,,,,,,,,,,,,,,,,,,,,,,,,,,,,,,,,,,,,,,,,,,,,,,,,,,,,,,Y6G5R4,train_x,red_square,top_right,2025-05-02_09h15.09.161,HideSeek_v1,2022.2.5,59.92548873570686,
,7,6,2,6,-5,0,66,,train_dim1_1,23,30,,,,2,0,2,0,,,,,,,,,0,0,0,0,0,22,22,22,3,0,3,0,,,,,,,,,,,,,,,,,,,,,,,,,,,,,,,,,,,,,,,,,,,,,,,,,,,,,,,,,,,,,,,,30,,,,,,,,2037.0418173000216,2037.0418173000216,2037.0418173000216,2037.0418173000216,2037.0418173000216,left,0.39375209994614124,19,0,0,99,0.07999999999999997,0.08,left,0.3058877997100353,,,,,,,,,,,,,,,,,,,,,,,,,,,,,,,,,,,,,,,,,,,,,,,,,,,,,,,,,,,,Y6G5R4,train_x,red_square,top_right,2025-05-02_09h15.09.161,HideSeek_v1,2022.2.5,59.92548873570686,
,7,6,2,6,-5,0,66,,train_dim1_1,23,30,,,,2,0,2,0,,,,,,,,,0,0,0,0,0,22,22,22,4,0,4,0,,,,,,,,,,,,,,,,,,,,,,,,,,,,,,,,,,,,,,,,,,,,,,,,,,,,,,,,,,,,,,,,30,,,,,,,,2037.4426636002026,2037.4426636002026,2037.4426636002026,2037.4426636002026,2037.4426636002026,left,0.39312390005216,19,0,0,99,-2.7755575615628914e-17,0.08,left,0.30855120019987226,,,,,,,,,,,,,,,,,,,,,,,,,,,,,,,,,,,,,,,,,,,,,,,,,,,,,,,,,,,,Y6G5R4,train_x,red_square,top_right,2025-05-02_09h15.09.161,HideSeek_v1,2022.2.5,59.92548873570686,
,7,6,2,6,-5,0,66,,train_dim1_1,23,30,,,,2,0,2,0,,,,,,,,,0,0,0,0,0,22,22,22,5,0,5,0,,,,,,,,,,,,,,,,,,,,,,,,,,,,,,,,,,,,,,,,,,,,,,,,,,,,,,,,,,,,,,,,30,,,,,,,,2037.8425659001805,2037.8425659001805,2037.8425659001805,2037.8425659001805,2037.8425659001805,return,0.4606047999113798,20,0,0,1,-2.7755575615628914e-17,0.08,return,0.37962300004437566,-1,-58,-2.7755575615628914e-17,0.08,,,,,,,,,,,,,,,,,,,,,,,,,,,,,,,,,,,,,,,,,,,,,,,,,,,,,,,,Y6G5R4,train_x,red_square,top_right,2025-05-02_09h15.09.161,HideSeek_v1,2022.2.5,59.92548873570686,
,9,9,5,9,-4,0,56,,train_dim1_1,24,30,,,,2,0,2,0,,,,,,,,,0,0,0,0,0,23,23,23,0,0,0,0,,,,,,,,,,,,,,,,,,,,,,,,,stimuli/alien_stimuli/56.png,,,,,,,,,,,,,,,,,,,,,,,,,,,,,stimuli/alien_stimuli/66.png,66,7,25,,,,,,,30,,,,,,,,2042.342415300198,2042.342415300198,2042.342415300198,2042.342415300198,2042.342415300198,left,1.456966099794954,20,0,0,99,0.48000000000000004,0.32,left,1.3710590000264347,,,,,2040.782445100136,2042.342415300198,0,0.08,0.0,0.4,0.08,0,0.2,0,0.08,2039.8644123002887,2039.8644123002887,2039.8644123002887,2039.8644123002887,2039.8644123002887,2039.8644123002887,2039.8644123002887,2039.8644123002887,2039.8485239600764,1.0198266999796033,return,0.899528699927032,,,,,,,,,,,,,,,,,,,,,,,,,,,,,,,,,Y6G5R4,train_x,red_square,top_right,2025-05-02_09h15.09.161,HideSeek_v1,2022.2.5,59.92548873570686,
,9,9,5,9,-4,0,56,,train_dim1_1,24,30,,,,2,0,2,0,,,,,,,,,0,0,0,0,0,23,23,23,1,0,1,0,,,,,,,,,,,,,,,,,,,,,,,,,,,,,,,,,,,,,,,,,,,,,,,,,,,,,,,,,,,,,,,,30,,,,,,,,2043.8001955002546,2043.8001955002546,2043.8001955002546,2043.8001955002546,2043.8001955002546,left,0.35980959981679916,20,0,0,99,0.4,0.32,left,0.27390370005741715,,,,,,,,,,,,,,,,,,,,,,,,,,,,,,,,,,,,,,,,,,,,,,,,,,,,,,,,,,,,Y6G5R4,train_x,red_square,top_right,2025-05-02_09h15.09.161,HideSeek_v1,2022.2.5,59.92548873570686,
,9,9,5,9,-4,0,56,,train_dim1_1,24,30,,,,2,0,2,0,,,,,,,,,0,0,0,0,0,23,23,23,2,0,2,0,,,,,,,,,,,,,,,,,,,,,,,,,,,,,,,,,,,,,,,,,,,,,,,,,,,,,,,,,,,,,,,,30,,,,,,,,2044.1683257003315,2044.1683257003315,2044.1683257003315,2044.1683257003315,2044.1683257003315,left,0.3268130999058485,20,0,0,99,0.32,0.32,left,0.24926079995930195,,,,,,,,,,,,,,,,,,,,,,,,,,,,,,,,,,,,,,,,,,,,,,,,,,,,,,,,,,,,Y6G5R4,train_x,red_square,top_right,2025-05-02_09h15.09.161,HideSeek_v1,2022.2.5,59.92548873570686,
,9,9,5,9,-4,0,56,,train_dim1_1,24,30,,,,2,0,2,0,,,,,,,,,0,0,0,0,0,23,23,23,3,0,3,0,,,,,,,,,,,,,,,,,,,,,,,,,,,,,,,,,,,,,,,,,,,,,,,,,,,,,,,,,,,,,,,,30,,,,,,,,2044.501513400115,2044.501513400115,2044.501513400115,2044.501513400115,2044.501513400115,left,0.40969170024618506,20,0,0,99,0.24,0.32,left,0.31930500036105514,,,,,,,,,,,,,,,,,,,,,,,,,,,,,,,,,,,,,,,,,,,,,,,,,,,,,,,,,,,,Y6G5R4,train_x,red_square,top_right,2025-05-02_09h15.09.161,HideSeek_v1,2022.2.5,59.92548873570686,
,9,9,5,9,-4,0,56,,train_dim1_1,24,30,,,,2,0,2,0,,,,,,,,,0,0,0,0,0,23,23,23,4,0,4,0,,,,,,,,,,,,,,,,,,,,,,,,,,,,,,,,,,,,,,,,,,,,,,,,,,,,,,,,,,,,,,,,30,,,,,,,,2044.9181058001705,2044.9181058001705,2044.9181058001705,2044.9181058001705,2044.9181058001705,return,0.5432465001940727,21,0,0,1,0.24,0.32,return,0.4573045000433922,-1,-62,0.24,0.32,,,,,,,,,,,,,,,,,,,,,,,,,,,,,,,,,,,,,,,,,,,,,,,,,,,,,,,,Y6G5R4,train_x,red_square,top_right,2025-05-02_09h15.09.161,HideSeek_v1,2022.2.5,59.92548873570686,
,8,5,8,5,0,0,16,,train_dim1_1,25,30,,,,2,0,2,0,,,,,,,,,0,0,0,0,0,24,24,24,0,0,0,0,,,,,,,,,,,,,,,,,,,,,,,,,stimuli/alien_stimuli/16.png,,,,,,,,,,,,,,,,,,,,,,,,,,,,,stimuli/alien_stimuli/56.png,56,9,26,,,,,,,30,,,,,,,,2049.3499791002832,2049.3499791002832,2049.3499791002832,2049.3499791002832,2049.3499791002832,return,1.5072864997200668,22,0,0,1,0.48,0,return,1.4237204999662936,-1,-62,0.48,0,2047.7885070000775,2047.0250409999862,0.24,0.32,0.0,0.32,0.32,0.24,0.4,0.24,0.32,2047.0250409999862,2047.0250409999862,2047.0250409999862,2047.0250409999862,2047.0250409999862,2047.0250409999862,2047.0250409999862,2047.0250409999862,2047.004337960016,0.8661166997626424,return,0.7204341003671288,,,,,,,,,,,,,,,,,,,,,,,,,,,,,,,,,Y6G5R4,train_x,red_square,top_right,2025-05-02_09h15.09.161,HideSeek_v1,2022.2.5,59.92548873570686,
,6,6,1,6,-5,0,66,,train_dim1_1,26,30,,,,2,0,2,0,,,,,,,,,0,0,0,0,0,25,25,25,0,0,0,0,,,,,,,,,,,,,,,,,,,,,,,,,stimuli/alien_stimuli/66.png,,,,,,,,,,,,,,,,,,,,,,,,,,,,,stimuli/alien_stimuli/16.png,16,8,27,,,,,,,30,,,,,,,,2055.107056100387,2055.107056100387,2055.107056100387,2055.107056100387,2055.107056100387,left,0.7699750000610948,22,0,0,99,0.24,0.08,left,0.6791177000850439,,,,,2053.5429230001755,2055.107056100387,0.48,0,0.0,0.0,0.0,0.48,0.48,0.48,0,2052.4141135001555,2052.4141135001555,2052.4141135001555,2052.4141135001555,2052.4141135001555,2052.4141135001555,2052.4141135001555,2052.4141135001555,2052.3919088599273,1.2367938999086618,return,1.0995103996247053,,,,,,,,,,,,,,,,,,,,,,,,,,,,,,,,,Y6G5R4,train_x,red_square,top_right,2025-05-02_09h15.09.161,HideSeek_v1,2022.2.5,59.92548873570686,
,6,6,1,6,-5,0,66,,train_dim1_1,26,30,,,,2,0,2,0,,,,,,,,,0,0,0,0,0,25,25,25,1,0,1,0,,,,,,,,,,,,,,,,,,,,,,,,,,,,,,,,,,,,,,,,,,,,,,,,,,,,,,,,,,,,,,,,30,,,,,,,,2055.8758391002193,2055.8758391002193,2055.8758391002193,2055.8758391002193,2055.8758391002193,left,0.32634150004014373,22,0,0,99,0.15999999999999998,0.08,left,0.25257090013474226,,,,,,,,,,,,,,,,,,,,,,,,,,,,,,,,,,,,,,,,,,,,,,,,,,,,,,,,,,,,Y6G5R4,train_x,red_square,top_right,2025-05-02_09h15.09.161,HideSeek_v1,2022.2.5,59.92548873570686,
,6,6,1,6,-5,0,66,,train_dim1_1,26,30,,,,2,0,2,0,,,,,,,,,0,0,0,0,0,25,25,25,2,0,2,0,,,,,,,,,,,,,,,,,,,,,,,,,,,,,,,,,,,,,,,,,,,,,,,,,,,,,,,,,,,,,,,,30,,,,,,,,2056.208616600372,2056.208616600372,2056.208616600372,2056.208616600372,2056.208616600372,left,0.34325069980695844,22,0,0,99,0.07999999999999997,0.08,left,0.2573600001633167,,,,,,,,,,,,,,,,,,,,,,,,,,,,,,,,,,,,,,,,,,,,,,,,,,,,,,,,,,,,Y6G5R4,train_x,red_square,top_right,2025-05-02_09h15.09.161,HideSeek_v1,2022.2.5,59.92548873570686,
,6,6,1,6,-5,0,66,,train_dim1_1,26,30,,,,2,0,2,0,,,,,,,,,0,0,0,0,0,25,25,25,3,0,3,0,,,,,,,,,,,,,,,,,,,,,,,,,,,,,,,,,,,,,,,,,,,,,,,,,,,,,,,,,,,,,,,,30,,,,,,,,2056.5589636000805,2056.5589636000805,2056.5589636000805,2056.5589636000805,2056.5589636000805,left,0.3436424001120031,22,0,0,99,-2.7755575615628914e-17,0.08,left,0.2649098001420498,,,,,,,,,,,,,,,,,,,,,,,,,,,,,,,,,,,,,,,,,,,,,,,,,,,,,,,,,,,,Y6G5R4,train_x,red_square,top_right,2025-05-02_09h15.09.161,HideSeek_v1,2022.2.5,59.92548873570686,
,6,6,1,6,-5,0,66,,train_dim1_1,26,30,,,,2,0,2,0,,,,,,,,,0,0,0,0,0,25,25,25,4,0,4,0,,,,,,,,,,,,,,,,,,,,,,,,,,,,,,,,,,,,,,,,,,,,,,,,,,,,,,,,,,,,,,,,30,,,,,,,,2056.9093063003384,2056.9093063003384,2056.9093063003384,2056.9093063003384,2056.9093063003384,left,0.3266882998868823,22,0,0,99,-0.08000000000000003,0.08,left,0.24011369980871677,,,,,,,,,,,,,,,,,,,,,,,,,,,,,,,,,,,,,,,,,,,,,,,,,,,,,,,,,,,,Y6G5R4,train_x,red_square,top_right,2025-05-02_09h15.09.161,HideSeek_v1,2022.2.5,59.92548873570686,
,6,6,1,6,-5,0,66,,train_dim1_1,26,30,,,,2,0,2,0,,,,,,,,,0,0,0,0,0,25,25,25,5,0,5,0,,,,,,,,,,,,,,,,,,,,,,,,,,,,,,,,,,,,,,,,,,,,,,,,,,,,,,,,,,,,,,,,30,,,,,,,,2057.2457370003685,2057.2457370003685,2057.2457370003685,2057.2457370003685,2057.2457370003685,return,0.4598876000382006,23,0,0,1,-0.08000000000000003,0.08,return,0.3686257000081241,-1,-67,-0.08000000000000003,0.08,,,,,,,,,,,,,,,,,,,,,,,,,,,,,,,,,,,,,,,,,,,,,,,,,,,,,,,,Y6G5R4,train_x,red_square,top_right,2025-05-02_09h15.09.161,HideSeek_v1,2022.2.5,59.92548873570686,
,5,6,2,6,-3,0,46,,train_dim1_1,27,30,,,,2,0,2,0,,,,,,,,,0,0,0,0,0,26,26,26,0,0,0,0,,,,,,,,,,,,,,,,,,,,,,,,,stimuli/alien_stimuli/46.png,,,,,,,,,,,,,,,,,,,,,,,,,,,,,stimuli/alien_stimuli/66.png,66,6,28,,,,,,,30,,,,,,,,2061.723435400054,2061.723435400054,2061.723435400054,2061.723435400054,2061.723435400054,left,1.0061784996651113,23,0,0,99,0.15999999999999998,0.08,left,0.9181886999867857,,,,,2060.165324400179,2061.723435400054,-0.08,0.08,0.0,0.4,0.08,-0.08,0.12,-0.08,0.08,2059.2635802002624,2059.2635802002624,2059.2635802002624,2059.2635802002624,2059.2635802002624,2059.2635802002624,2059.2635802002624,2059.2635802002624,2059.2479786599056,1.0026565003208816,return,0.8828689996153116,,,,,,,,,,,,,,,,,,,,,,,,,,,,,,,,,Y6G5R4,train_x,red_square,top_right,2025-05-02_09h15.09.161,HideSeek_v1,2022.2.5,59.92548873570686,
,5,6,2,6,-3,0,46,,train_dim1_1,27,30,,,,2,0,2,0,,,,,,,,,0,0,0,0,0,26,26,26,1,0,1,0,,,,,,,,,,,,,,,,,,,,,,,,,,,,,,,,,,,,,,,,,,,,,,,,,,,,,,,,,,,,,,,,30,,,,,,,,2062.7308183000423,2062.7308183000423,2062.7308183000423,2062.7308183000423,2062.7308183000423,left,0.45986489998176694,23,0,0,99,0.07999999999999997,0.08,left,0.3781093000434339,,,,,,,,,,,,,,,,,,,,,,,,,,,,,,,,,,,,,,,,,,,,,,,,,,,,,,,,,,,,Y6G5R4,train_x,red_square,top_right,2025-05-02_09h15.09.161,HideSeek_v1,2022.2.5,59.92548873570686,
,5,6,2,6,-3,0,46,,train_dim1_1,27,30,,,,2,0,2,0,,,,,,,,,0,0,0,0,0,26,26,26,2,0,2,0,,,,,,,,,,,,,,,,,,,,,,,,,,,,,,,,,,,,,,,,,,,,,,,,,,,,,,,,,,,,,,,,30,,,,,,,,2063.198119699955,2063.198119699955,2063.198119699955,2063.198119699955,2063.198119699955,left,0.4267657999880612,23,0,0,99,-2.7755575615628914e-17,0.08,left,0.3405498997308314,,,,,,,,,,,,,,,,,,,,,,,,,,,,,,,,,,,,,,,,,,,,,,,,,,,,,,,,,,,,Y6G5R4,train_x,red_square,top_right,2025-05-02_09h15.09.161,HideSeek_v1,2022.2.5,59.92548873570686,
,5,6,2,6,-3,0,46,,train_dim1_1,27,30,,,,2,0,2,0,,,,,,,,,0,0,0,0,0,26,26,26,3,0,3,0,,,,,,,,,,,,,,,,,,,,,,,,,,,,,,,,,,,,,,,,,,,,,,,,,,,,,,,,,,,,,,,,30,,,,,,,,2063.6321253003553,2063.6321253003553,2063.6321253003553,2063.6321253003553,2063.6321253003553,return,0.35961000015959144,24,0,0,1,-2.7755575615628914e-17,0.08,return,0.2847742000594735,-1,-70,-2.7755575615628914e-17,0.08,,,,,,,,,,,,,,,,,,,,,,,,,,,,,,,,,,,,,,,,,,,,,,,,,,,,,,,,Y6G5R4,train_x,red_square,top_right,2025-05-02_09h15.09.161,HideSeek_v1,2022.2.5,59.92548873570686,
,8,6,7,6,-1,0,26,,train_dim1_1,28,30,,,,2,0,2,0,,,,,,,,,0,0,0,0,0,27,27,27,0,0,0,0,,,,,,,,,,,,,,,,,,,,,,,,,stimuli/alien_stimuli/26.png,,,,,,,,,,,,,,,,,,,,,,,,,,,,,stimuli/alien_stimuli/46.png,46,5,29,,,,,,,30,,,,,,,,2067.648915900383,2067.648915900383,2067.648915900383,2067.648915900383,2067.648915900383,left,1.0062564997933805,24,0,0,99,0.39999999999999997,0.08,left,0.9108746000565588,,,,,2066.086820300203,2067.648915900383,0,0.08,0.0,0.24,0.08,0,0.12,0,0.08,2065.553726500366,2065.553726500366,2065.553726500366,2065.553726500366,2065.553726500366,2065.553726500366,2065.553726500366,2065.553726500366,2065.5363961598837,0.6361819999292493,return,0.5104686999693513,,,,,,,,,,,,,,,,,,,,,,,,,,,,,,,,,Y6G5R4,train_x,red_square,top_right,2025-05-02_09h15.09.161,HideSeek_v1,2022.2.5,59.92548873570686,
,8,6,7,6,-1,0,26,,train_dim1_1,28,30,,,,2,0,2,0,,,,,,,,,0,0,0,0,0,27,27,27,1,0,1,0,,,,,,,,,,,,,,,,,,,,,,,,,,,,,,,,,,,,,,,,,,,,,,,,,,,,,,,,,,,,,,,,30,,,,,,,,2068.6565634999424,2068.6565634999424,2068.6565634999424,2068.6565634999424,2068.6565634999424,return,0.40963409980759025,25,0,0,1,0.39999999999999997,0.08,return,0.3235317999497056,-1,-71,0.39999999999999997,0.08,,,,,,,,,,,,,,,,,,,,,,,,,,,,,,,,,,,,,,,,,,,,,,,,,,,,,,,,Y6G5R4,train_x,red_square,top_right,2025-05-02_09h15.09.161,HideSeek_v1,2022.2.5,59.92548873570686,
,9,5,5,5,-4,0,56,,train_dim1_1,29,30,,,,2,0,2,0,,,,,,,,,0,0,0,0,0,28,28,28,0,0,0,0,,,,,,,,,,,,,,,,,,,,,,,,,stimuli/alien_stimuli/56.png,,,,,,,,,,,,,,,,,,,,,,,,,,,,,stimuli/alien_stimuli/26.png,26,8,30,,,,,,,30,,,,,,,,2072.934006300289,2072.934006300289,2072.934006300289,2072.934006300289,2072.934006300289,left,0.9064049003645778,25,0,0,99,0.48000000000000004,0,left,0.8269090000540018,,,,,2071.374118900392,2072.934006300289,0.4,0.08,0.0,0.08,0.08,0.4,0.44,0.4,0.08,2070.632994899992,2070.632994899992,2070.632994899992,2070.632994899992,2070.632994899992,2070.632994899992,2070.632994899992,2070.632994899992,2070.6239716200625,0.8527612998150289,return,0.7199483998119831,,,,,,,,,,,,,,,,,,,,,,,,,,,,,,,,,Y6G5R4,train_x,red_square,top_right,2025-05-02_09h15.09.161,HideSeek_v1,2022.2.5,59.92548873570686,
,9,5,5,5,-4,0,56,,train_dim1_1,29,30,,,,2,0,2,0,,,,,,,,,0,0,0,0,0,28,28,28,1,0,1,0,,,,,,,,,,,,,,,,,,,,,,,,,,,,,,,,,,,,,,,,,,,,,,,,,,,,,,,,,,,,,,,,30,,,,,,,,2073.8417364000343,2073.8417364000343,2073.8417364000343,2073.8417364000343,2073.8417364000343,left,0.5098771001212299,25,0,0,99,0.4,0,left,0.4338962002657354,,,,,,,,,,,,,,,,,,,,,,,,,,,,,,,,,,,,,,,,,,,,,,,,,,,,,,,,,,,,Y6G5R4,train_x,red_square,top_right,2025-05-02_09h15.09.161,HideSeek_v1,2022.2.5,59.92548873570686,
,9,5,5,5,-4,0,56,,train_dim1_1,29,30,,,,2,0,2,0,,,,,,,,,0,0,0,0,0,28,28,28,2,0,2,0,,,,,,,,,,,,,,,,,,,,,,,,,,,,,,,,,,,,,,,,,,,,,,,,,,,,,,,,,,,,,,,,30,,,,,,,,2074.358907200396,2074.358907200396,2074.358907200396,2074.358907200396,2074.358907200396,left,0.49340209970250726,25,0,0,99,0.32,0,left,0.40651659993454814,,,,,,,,,,,,,,,,,,,,,,,,,,,,,,,,,,,,,,,,,,,,,,,,,,,,,,,,,,,,Y6G5R4,train_x,red_square,top_right,2025-05-02_09h15.09.161,HideSeek_v1,2022.2.5,59.92548873570686,
,9,5,5,5,-4,0,56,,train_dim1_1,29,30,,,,2,0,2,0,,,,,,,,,0,0,0,0,0,28,28,28,3,0,3,0,,,,,,,,,,,,,,,,,,,,,,,,,,,,,,,,,,,,,,,,,,,,,,,,,,,,,,,,,,,,,,,,30,,,,,,,,2074.859297499992,2074.859297499992,2074.859297499992,2074.859297499992,2074.859297499992,left,0.360103199724108,25,0,0,99,0.24,0,left,0.28000509971752763,,,,,,,,,,,,,,,,,,,,,,,,,,,,,,,,,,,,,,,,,,,,,,,,,,,,,,,,,,,,Y6G5R4,train_x,red_square,top_right,2025-05-02_09h15.09.161,HideSeek_v1,2022.2.5,59.92548873570686,
,9,5,5,5,-4,0,56,,train_dim1_1,29,30,,,,2,0,2,0,,,,,,,,,0,0,0,0,0,28,28,28,4,0,4,0,,,,,,,,,,,,,,,,,,,,,,,,,,,,,,,,,,,,,,,,,,,,,,,,,,,,,,,,,,,,,,,,30,,,,,,,,2075.2253676000983,2075.2253676000983,2075.2253676000983,2075.2253676000983,2075.2253676000983,return,0.4598702001385391,26,0,0,1,0.24,0,return,0.3795737000182271,-1,-75,0.24,0,,,,,,,,,,,,,,,,,,,,,,,,,,,,,,,,,,,,,,,,,,,,,,,,,,,,,,,,Y6G5R4,train_x,red_square,top_right,2025-05-02_09h15.09.161,HideSeek_v1,2022.2.5,59.92548873570686,
,7,7,7,7,0,0,16,,train_dim1_1,30,30,,,,2,0,2,0,,,,,,,,,0,0,0,0,0,29,29,29,0,0,0,0,,,,,,,,,,,,,,,,,,,,,,,,,stimuli/alien_stimuli/16.png,,,,,,,,,,,,,,,,,,,,,,,,,,,,,stimuli/alien_stimuli/56.png,56,9,31,,,,,,,30,,,,,,,,2079.7265155003406,2079.7265155003406,2079.7265155003406,2079.7265155003406,2079.7265155003406,return,2.140750900376588,27,0,0,1,0.4,0.16,return,2.0347468997351825,-1,-75,0.4,0.16,2078.1470258999616,2079.7265155003406,0.24,0,0.0,0.32,0.0,0.24,0.4,0.24,0,2077.2500346000306,2077.2500346000306,2077.2500346000306,2077.2500346000306,2077.2500346000306,2077.2500346000306,2077.2500346000306,2077.2500346000306,2077.2292659600266,1.0031948001123965,return,0.8721523000858724,,,,,,,,,,,,,,,,,,,,,,,,,,,,,,,,,Y6G5R4,train_x,red_square,top_right,2025-05-02_09h15.09.161,HideSeek_v1,2022.2.5,59.92548873570686,
,,,,,,,,,,,30,,,,2,0,2,0,,,,,,,,,,,,,,,,,,,,,,,,,,,,,,,,,,,,,,,,,,,,,,,,,,,,,,,,,,,,,,,,,,,,,,,,,,stimuli/alien_stimuli/16.png,16,7,32,21,0.7,1.125,1,1,1,30,0,conditions/schedules/train_x_first/red_square_00/top_right/inputTrain_2.1.xlsx,99,1,2,1,0,,,,,,,,,,,1,,,,,,,,,2084.3686740002595,2085.9097711001523,0.4,0.16,0.0,0.0,0.16,0.4,0.4,0.4,0.16,2083.4075219002552,2083.4075219002552,2083.4075219002552,2083.4075219002552,2083.4075219002552,2083.4075219002552,2083.4075219002552,2083.4075219002552,2083.4010865198916,1.0698953000828624,return,0.9435072001069784,0,0.9,0,1,27,,,,,,,,,,,,,,,,,,,,,,,,,,,,Y6G5R4,train_x,red_square,top_right,2025-05-02_09h15.09.161,HideSeek_v1,2022.2.5,59.92548873570686,
,,,,,,,,,,,,,,,3,0,3,0,0,0,0,0,,,,,,,,,,,,,,,,,,,,,,,,,,,,,,,conditions/schedules/train_x_first/red_square_00/top_right/instructions/Slide17.png,conditions/schedules/train_x_first/red_square_00/top_right/instructions/Audio17.wav,2085.9097711001523,2085.9033085802107,17,"[5.750701299868524, 18.128769100178033, 16.402587899938226, 19.372774899937212, 4.507939700037241, 5.052579099778086, 5.585125800222158, 11.78938139975071, 6.504267499782145, 6.981704999692738, 9.654482000041753, 12.771859900094569, 16.615657600108534, 12.624117700383067, 30.251277999952435, 21.025159999728203, 51.116888999938965]","[5.750715899746865, 18.128776399884373, 0.05687570013105869, 0.033784300088882446, 0.04929800005629659, 0.04693259997293353, 0.08081339998170733, 0.04891889961436391, 0.06229089992120862, 0.07985030021518469, 0.09500649990513921, 12.771867000032216, 0.08050570031628013, 12.62412489997223, 0.09233839996159077, 21.025167000014335, 51.11689619999379]",0,,,,,,,,,,,,,,,,,,,,,,,,,,,,,,,,,,,,,,,,,,,,,,,,,,,,,,,,,,,,,,,,,,,,,,,,,,,,,,,,,,,,,,,,,,,,,,,,,,,,,,,,,,,,,,,,,,,,,,,,,,,,Y6G5R4,train_x,red_square,top_right,2025-05-02_09h15.09.161,HideSeek_v1,2022.2.5,59.92548873570686,
,,,,,,,,,,,,,,,3,0,3,0,1,0,1,0,,,,,,,,,,,,,,,,,,,,,,,,,,,,,,,conditions/schedules/train_x_first/red_square_00/top_right/instructions/Slide18.png,conditions/schedules/train_x_first/red_square_00/top_right/instructions/Audio18.wav,2137.0911820000038,2137.0796443399972,18,"[5.750701299868524, 18.128769100178033, 16.402587899938226, 19.372774899937212, 4.507939700037241, 5.052579099778086, 5.585125800222158, 11.78938139975071, 6.504267499782145, 6.981704999692738, 9.654482000041753, 12.771859900094569, 16.615657600108534, 12.624117700383067, 30.251277999952435, 21.025159999728203, 51.116888999938965, 6.124278400093317]","[5.750715899746865, 18.128776399884373, 0.05687570013105869, 0.033784300088882446, 0.04929800005629659, 0.04693259997293353, 0.08081339998170733, 0.04891889961436391, 0.06229089992120862, 0.07985030021518469, 0.09500649990513921, 12.771867000032216, 0.08050570031628013, 12.62412489997223, 0.09233839996159077, 21.025167000014335, 51.11689619999379, 6.124285600148141]",0,,,,,,,,,,,,,,,,,,,,,,,,,,,,,,,,,,,,,,,,,,,,,,,,,,,,,,,,,,,,,,,,,,,,,,,,,,,,,,,,,,,,,,,,,,,,,,,,,,,,,,,,,,,,,,,,,,,,,,,,,,,,Y6G5R4,train_x,red_square,top_right,2025-05-02_09h15.09.161,HideSeek_v1,2022.2.5,59.92548873570686,
,,,,,,,,,,,,,,,3,0,3,0,2,0,2,0,,,,,,,,,,,,,,,,,,,,,,,,,,,,,,,conditions/schedules/train_x_first/red_square_00/top_right/instructions/Slide19.png,conditions/schedules/train_x_first/red_square_00/top_right/instructions/Audio19.wav,2143.2535339002497,2143.2509019799068,19,"[5.750701299868524, 18.128769100178033, 16.402587899938226, 19.372774899937212, 4.507939700037241, 5.052579099778086, 5.585125800222158, 11.78938139975071, 6.504267499782145, 6.981704999692738, 9.654482000041753, 12.771859900094569, 16.615657600108534, 12.624117700383067, 30.251277999952435, 21.025159999728203, 51.116888999938965, 6.124278400093317, 9.969829099718481]","[5.750715899746865, 18.128776399884373, 0.05687570013105869, 0.033784300088882446, 0.04929800005629659, 0.04693259997293353, 0.08081339998170733, 0.04891889961436391, 0.06229089992120862, 0.07985030021518469, 0.09500649990513921, 12.771867000032216, 0.08050570031628013, 12.62412489997223, 0.09233839996159077, 21.025167000014335, 51.11689619999379, 0.07879449985921383, 9.969836299773306]",0,,,,,,,,,,,,,,,,,,,,,,,,,,,,,,,,,,,,,,,,,,,,,,,,,,,,,,,,,,,,,,,,,,,,,,,,,,,,,,,,,,,,,,,,,,,,,,,,,,,,,,,,,,,,,,,,,,,,,,,,,,,,Y6G5R4,train_x,red_square,top_right,2025-05-02_09h15.09.161,HideSeek_v1,2022.2.5,59.92548873570686,
,,,,,,,,,,,,,,,3,0,3,0,3,0,3,0,,,,,,,,,,,,,,,,,,,,,,,,,,,,,,,conditions/schedules/train_x_first/red_square_00/top_right/instructions/Slide20.png,conditions/schedules/train_x_first/red_square_00/top_right/instructions/Audio20.wav,2153.2964203003794,2153.292472299887,20,"[5.750701299868524, 18.128769100178033, 16.402587899938226, 19.372774899937212, 4.507939700037241, 5.052579099778086, 5.585125800222158, 11.78938139975071, 6.504267499782145, 6.981704999692738, 9.654482000041753, 12.771859900094569, 16.615657600108534, 12.624117700383067, 30.251277999952435, 21.025159999728203, 51.116888999938965, 6.124278400093317, 9.969829099718481, 14.005546399857849]","[5.750715899746865, 18.128776399884373, 0.05687570013105869, 0.033784300088882446, 0.04929800005629659, 0.04693259997293353, 0.08081339998170733, 0.04891889961436391, 0.06229089992120862, 0.07985030021518469, 0.09500649990513921, 12.771867000032216, 0.08050570031628013, 12.62412489997223, 0.09233839996159077, 21.025167000014335, 51.11689619999379, 0.07879449985921383, 0.047505599912256, 14.005553599912673]",0,,,,,,,,,,,,,,,,,,,,,,,,,,,,,,,,,,,,,,,,,,,,,,,,,,,,,,,,,,,,,,,,,,,,,,,,,,,,,,,,,,,,,,,,,,,,,,,,,,,,,,,,,,,,,,,,,,,,,,,,,,,,Y6G5R4,train_x,red_square,top_right,2025-05-02_09h15.09.161,HideSeek_v1,2022.2.5,59.92548873570686,
1,7,8,7,3,0,-5,11,2,instr_dim1_2,,,,,,3,0,3,0,,,,,0,0,0,0,,,,,,,,,,,,,,,,,,,,,,,,,,,,,,,,,,,,,stimuli/alien_stimuli/11.png,conditions/schedules/train_x_first/red_square_00/top_right/inputInstr_2.xlsx,stimuli/alien_stimuli/11.png,2167.4066399000585,2167.4066399000585,2167.4066399000585,2167.4066399000585,2167.404458819842,return,6.68872409965843,"[-0.16, -0.08, 0, 0.08, 0.16, 0.24, 0.32, 0.4, 0.48, 0.56]","[-0.4, -0.32, -0.24, -0.16, -0.08, 0, 0.08, 0.16, 0.24, 0.32]",3,8,7,7,0.4,0.0,2174.271464300342,2174.271464300342,2174.271464300342,2174.271464300342,2174.271464300342,2174.271464300342,2174.271464300342,2174.260052739782,7.256862900219858,return,7.087631500326097,stimuli/alien_stimuli/11.png,11,7,1,,,,,,,,,,,,,,,,,,,,,,,,,,,,,,,,,,,,,,,,,,,,,,,,,,,,,,,,,,,,,,,,,,,,,,,,,,,,,,,,,,,,,,,,,Y6G5R4,train_x,red_square,top_right,2025-05-02_09h15.09.161,HideSeek_v1,2022.2.5,59.92548873570686,
,,,,,,,,,,,30,,,,3,0,3,0,,,,,,,,,,,,,,,,,,,,,,,,,,,,,,,,,,,,,,,,,,,,,,,,,,,,,,,,,,,,,,,,,,,,,,,,,,,,,,21,0.7,1.125,1,99,2,30,0,conditions/schedules/train_x_first/red_square_00/top_right/inputTrain_2.1.xlsx,99,1,2,1,0,,,,,,,,,,,,,,,,,,,,,,,,,,,,,,,,,,,,,,,,,,,,,,,,,,,,,,,,,,,,,,,,,,,,,,,,,,,Y6G5R4,train_x,red_square,top_right,2025-05-02_09h15.09.161,HideSeek_v1,2022.2.5,59.92548873570686,
,,,,,,,,,,,,,,,4,0,4,0,0,0,0,0,,,,,,,,,,,,,,,,,,,,,,,,,,,,,,,conditions/schedules/train_x_first/red_square_00/top_right/instructions/Slide21.png,conditions/schedules/train_x_first/red_square_00/top_right/instructions/Audio21.wav,2181.5322350002825,2181.5326276998967,21,"[5.750701299868524, 18.128769100178033, 16.402587899938226, 19.372774899937212, 4.507939700037241, 5.052579099778086, 5.585125800222158, 11.78938139975071, 6.504267499782145, 6.981704999692738, 9.654482000041753, 12.771859900094569, 16.615657600108534, 12.624117700383067, 30.251277999952435, 21.025159999728203, 51.116888999938965, 6.124278400093317, 9.969829099718481, 14.005546399857849, 17.278568299952894]","[5.750715899746865, 18.128776399884373, 0.05687570013105869, 0.033784300088882446, 0.04929800005629659, 0.04693259997293353, 0.08081339998170733, 0.04891889961436391, 0.06229089992120862, 0.07985030021518469, 0.09500649990513921, 12.771867000032216, 0.08050570031628013, 12.62412489997223, 0.09233839996159077, 21.025167000014335, 51.11689619999379, 0.07879449985921383, 0.047505599912256, 14.005553599912673, 17.27857569977641]",0,,,,,,,,,,,,,,,,,,,,,,,,,,,,,,,,,,,,,,,,,,,,,,,,,,,,,,,,,,,,,,,,,,,,,,,,,,,,,,,,,,,,,,,,,,,,,,,,,,,,,,,,,,,,,,,,,,,,,,,,,,,,Y6G5R4,train_x,red_square,top_right,2025-05-02_09h15.09.161,HideSeek_v1,2022.2.5,59.92548873570686,
2,5,8,5,8,0,0,16,2,instr_dim1_2,,,,,,4,0,4,0,,,,,0,0,0,0,,,,,,,,,,,,,,,,,,,,,,,,,,,,,,,,,,,,,stimuli/alien_stimuli/16.png,conditions/schedules/train_x_first/red_square_00/top_right/inputInstr_2.xlsx,stimuli/alien_stimuli/16.png,2198.913345800247,2198.913345800247,2198.913345800247,2198.913345800247,2198.9139283201193,return,2.720391399692744,"[-0.16, -0.08, 0, 0.08, 0.16, 0.24, 0.32, 0.4, 0.48, 0.56]","[-0.4, -0.32, -0.24, -0.16, -0.08, 0, 0.08, 0.16, 0.24, 0.32]",8,8,5,5,0.0,0.0,2201.7954997001216,2201.7954997001216,2201.7954997001216,2201.7954997001216,2201.7954997001216,2201.7954997001216,2201.7954997001216,2201.7827321801337,7.140351800248027,return,6.978422900196165,stimuli/alien_stimuli/16.png,16,5,2,,,,,,,,,,,,,,,,,,,,,,,,,,,,,,,,,,,,,,,,,,,,,,,,,,,,,,,,,,,,,,,,,,,,,,,,,,,,,,,,,,,,,,,,,Y6G5R4,train_x,red_square,top_right,2025-05-02_09h15.09.161,HideSeek_v1,2022.2.5,59.92548873570686,
,,,,,,,,,,,30,,,,4,0,4,0,,,,,,,,,,,,,,,,,,,,,,,,,,,,,,,,,,,,,,,,,,,,,,,,,,,,,,,,,,,,,,,,,,,,,,,,,,,,,,21,0.7,1.125,1,99,2,30,0,conditions/schedules/train_x_first/red_square_00/top_right/inputTrain_2.1.xlsx,99,1,2,1,0,,,,,,,,,,,,,,,,,,,,,,,,,,,,,,,,,,,,,,,,,,,,,,,,,,,,,,,,,,,,,,,,,,,,,,,,,,,Y6G5R4,train_x,red_square,top_right,2025-05-02_09h15.09.161,HideSeek_v1,2022.2.5,59.92548873570686,
,,,,,,,,,,,,,,,5,0,5,0,0,0,0,0,,,,,,,,,,,,,,,,,,,,,,,,,,,,,,,conditions/schedules/train_x_first/red_square_00/top_right/instructions/Slide22.png,conditions/schedules/train_x_first/red_square_00/top_right/instructions/Audio22.wav,2208.957287600264,2208.9553776998073,22,"[5.750701299868524, 18.128769100178033, 16.402587899938226, 19.372774899937212, 4.507939700037241, 5.052579099778086, 5.585125800222158, 11.78938139975071, 6.504267499782145, 6.981704999692738, 9.654482000041753, 12.771859900094569, 16.615657600108534, 12.624117700383067, 30.251277999952435, 21.025159999728203, 51.116888999938965, 6.124278400093317, 9.969829099718481, 14.005546399857849, 17.278568299952894, 43.04867389984429]","[5.750715899746865, 18.128776399884373, 0.05687570013105869, 0.033784300088882446, 0.04929800005629659, 0.04693259997293353, 0.08081339998170733, 0.04891889961436391, 0.06229089992120862, 0.07985030021518469, 0.09500649990513921, 12.771867000032216, 0.08050570031628013, 12.62412489997223, 0.09233839996159077, 21.025167000014335, 51.11689619999379, 0.07879449985921383, 0.047505599912256, 14.005553599912673, 17.27857569977641, 43.048680499661714]",0,,,,,,,,,,,,,,,,,,,,,,,,,,,,,,,,,,,,,,,,,,,,,,,,,,,,,,,,,,,,,,,,,,,,,,,,,,,,,,,,,,,,,,,,,,,,,,,,,,,,,,,,,,,,,,,,,,,,,,,,,,,,Y6G5R4,train_x,red_square,top_right,2025-05-02_09h15.09.161,HideSeek_v1,2022.2.5,59.92548873570686,
,5,5,5,4,0,-1,15,,train_dim1_2,1,30,,,,5,0,5,0,,,,,,,,,0,0,0,0,0,0,0,0,0,0,0,0,,,,,,,,,,,,,,,,,,,,,,,,,stimuli/alien_stimuli/15.png,,,,,,,,,,,,,,,,,,,,,,,,,,,,,,,,,,,,,,,30,,,,,,,,2252.1068135001697,2252.1068135001697,2252.1068135001697,2252.1068135001697,2252.1068135001697,return,2.5464555001817644,0,1,0,0,0.24,0,return,2.4495709999464452,-1,-75,0.24,0,,,,,,,,,,,,,,,,,,,,,,,,,,,,,,,,,,,,,,,,,,,,,,,,,,,,,,,,Y6G5R4,train_x,red_square,top_right,2025-05-02_09h15.09.161,HideSeek_v1,2022.2.5,59.92548873570686,
,8,7,8,7,0,0,16,,train_dim1_2,2,30,,,,5,0,5,0,,,,,,,,,0,0,0,0,0,1,1,1,0,0,0,0,,,,,,,,,,,,,,,,,,,,,,,,,stimuli/alien_stimuli/16.png,,,,,,,,,,,,,,,,,,,,,,,,,,,,,stimuli/alien_stimuli/15.png,15,5,3,,,,,,,30,,,,,,,,2268.759114400018,2268.759114400018,2268.759114400018,2268.759114400018,2268.759114400018,down,2.3243728997185826,0,1,0,99,0.48,0.08,down,2.2238708999939263,,,,,2267.1872942000628,2268.759114400018,0.24,-0.08,0.08,0.0,-0.04,0.24,0.24,0.24,-0.08,2256.2154259001836,2256.2154259001836,2256.2154259001836,2256.2154259001836,2256.2154259001836,2256.2154259001836,2256.2154259001836,2256.2154259001836,2256.211327779852,11.094602599740028,return,10.947324600070715,,,,,,,,,,,,,,,,,,,,,,,,,,,,,,,,,Y6G5R4,train_x,red_square,top_right,2025-05-02_09h15.09.161,HideSeek_v1,2022.2.5,59.92548873570686,
,8,7,8,7,0,0,16,,train_dim1_2,2,30,,,,5,0,5,0,,,,,,,,,0,0,0,0,0,1,1,1,1,0,1,0,,,,,,,,,,,,,,,,,,,,,,,,,,,,,,,,,,,,,,,,,,,,,,,,,,,,,,,,,,,,,,,,30,,,,,,,,2271.0774199003354,2271.0774199003354,2271.0774199003354,2271.0774199003354,2271.0774199003354,return,0.5906429998576641,0,1,0,0,0.48,0.08,return,0.5035480000078678,-2,-75,0.48,0.08,,,,,,,,,,,,,,,,,,,,,,,,,,,,,,,,,,,,,,,,,,,,,,,,,,,,,,,,Y6G5R4,train_x,red_square,top_right,2025-05-02_09h15.09.161,HideSeek_v1,2022.2.5,59.92548873570686,
,7,8,7,5,0,-3,13,,train_dim1_2,3,30,,,,5,0,5,0,,,,,,,,,0,0,0,0,0,2,2,2,0,0,0,0,,,,,,,,,,,,,,,,,,,,,,,,,stimuli/alien_stimuli/13.png,,,,,,,,,,,,,,,,,,,,,,,,,,,,,stimuli/alien_stimuli/16.png,16,8,4,,,,,,,30,,,,,,,,2280.171727100387,2280.171727100387,2280.171727100387,2280.171727100387,2280.171727100387,right,4.042187800165266,0,1,0,99,0.48000000000000004,0.24,right,3.9541992000304163,,,,,2278.613453899976,2280.171727100387,0.48,0.16,0.0,0.0,0.16,0.48,0.48,0.48,0.16,2273.240336100105,2273.240336100105,2273.240336100105,2273.240336100105,2273.240336100105,2273.240336100105,2273.240336100105,2273.240336100105,2273.225479820231,5.490916900336742,return,5.3442938001826406,,,,,,,,,,,,,,,,,,,,,,,,,,,,,,,,,Y6G5R4,train_x,red_square,top_right,2025-05-02_09h15.09.161,HideSeek_v1,2022.2.5,59.92548873570686,
,7,8,7,5,0,-3,13,,train_dim1_2,3,30,,,,5,0,5,0,,,,,,,,,0,0,0,0,0,2,2,2,1,0,1,0,,,,,,,,,,,,,,,,,,,,,,,,,,,,,,,,,,,,,,,,,,,,,,,,,,,,,,,,,,,,,,,,30,,,,,,,,2284.2176702003926,2284.2176702003926,2284.2176702003926,2284.2176702003926,2284.2176702003926,return,2.87846070015803,0,0,0,0,0.48000000000000004,0.24,return,2.789360399823636,-2,-74,0.48000000000000004,0.24,,,,,,,,,,,,,,,,,,,,,,,,,,,,,,,,,,,,,,,,,,,,,,,,,,,,,,,,Y6G5R4,train_x,red_square,top_right,2025-05-02_09h15.09.161,HideSeek_v1,2022.2.5,59.92548873570686,
,5,6,5,2,0,-4,12,,train_dim1_2,4,30,,,,5,0,5,0,,,,,,,,,0,0,0,0,0,3,3,3,0,0,0,0,,,,,,,,,,,,,,,,,,,,,,,,,stimuli/alien_stimuli/12.png,,,,,,,,,,,,,,,,,,,,,,,,,,,,,stimuli/alien_stimuli/13.png,13,7,5,,,,,,,30,,,,,,,,2294.6841449001804,2294.6841449001804,2294.6841449001804,2294.6841449001804,2294.6841449001804,down,3.2899623000994325,0,0,0,99,0.24,0.0,down,3.2026110999286175,,,,,2293.12539619999,2294.6841449001804,0.4,0,0.24,0.0,0.12,0.4,0.4,0.4,0,2288.666899200063,2288.666899200063,2288.666899200063,2288.666899200063,2288.666899200063,2288.666899200063,2288.666899200063,2288.666899200063,2288.6551972198768,4.572554000187665,return,4.437753099948168,,,,,,,,,,,,,,,,,,,,,,,,,,,,,,,,,Y6G5R4,train_x,red_square,top_right,2025-05-02_09h15.09.161,HideSeek_v1,2022.2.5,59.92548873570686,
,5,6,5,2,0,-4,12,,train_dim1_2,4,30,,,,5,0,5,0,,,,,,,,,0,0,0,0,0,3,3,3,1,0,1,0,,,,,,,,,,,,,,,,,,,,,,,,,,,,,,,,,,,,,,,,,,,,,,,,,,,,,,,,,,,,,,,,30,,,,,,,,2297.980389500037,2297.980389500037,2297.980389500037,2297.980389500037,2297.980389500037,down,2.7283413000404835,0,0,0,99,0.24,-0.08,down,2.6470809997990727,,,,,,,,,,,,,,,,,,,,,,,,,,,,,,,,,,,,,,,,,,,,,,,,,,,,,,,,,,,,Y6G5R4,train_x,red_square,top_right,2025-05-02_09h15.09.161,HideSeek_v1,2022.2.5,59.92548873570686,
,5,6,5,2,0,-4,12,,train_dim1_2,4,30,,,,5,0,5,0,,,,,,,,,0,0,0,0,0,3,3,3,2,0,2,0,,,,,,,,,,,,,,,,,,,,,,,,,,,,,,,,,,,,,,,,,,,,,,,,,,,,,,,,,,,,,,,,30,,,,,,,,2300.7170534003526,2300.7170534003526,2300.7170534003526,2300.7170534003526,2300.7170534003526,down,1.8440686999820173,0,0,0,99,0.24,-0.16,down,1.754290099721402,,,,,,,,,,,,,,,,,,,,,,,,,,,,,,,,,,,,,,,,,,,,,,,,,,,,,,,,,,,,Y6G5R4,train_x,red_square,top_right,2025-05-02_09h15.09.161,HideSeek_v1,2022.2.5,59.92548873570686,
,5,6,5,2,0,-4,12,,train_dim1_2,4,30,,,,5,0,5,0,,,,,,,,,0,0,0,0,0,3,3,3,3,0,3,0,,,,,,,,,,,,,,,,,,,,,,,,,,,,,,,,,,,,,,,,,,,,,,,,,,,,,,,,,,,,,,,,30,,,,,,,,2302.5668456000276,2302.5668456000276,2302.5668456000276,2302.5668456000276,2302.5668456000276,down,1.3273647003807127,0,0,0,99,0.24,-0.24,down,1.2410082998685539,,,,,,,,,,,,,,,,,,,,,,,,,,,,,,,,,,,,,,,,,,,,,,,,,,,,,,,,,,,,Y6G5R4,train_x,red_square,top_right,2025-05-02_09h15.09.161,HideSeek_v1,2022.2.5,59.92548873570686,
