trialInstr,x_fixStart,y_fixStart,x_corrSteps,y_corrSteps,x_nrSteps,y_nrSteps,alienID,trialLength,version,trialTrain,praclen,testlen,trial_label,break_on_off,beforeExpLoop.thisRepN,beforeExpLoop.thisTrialN,beforeExpLoop.thisN,beforeExpLoop.thisIndex,mini_instr_trials.thisRepN,mini_instr_trials.thisTrialN,mini_instr_trials.thisN,mini_instr_trials.thisIndex,instrLoop.thisRepN,instrLoop.thisTrialN,instrLoop.thisN,instrLoop.thisIndex,repeat_prac.thisRepN,repeat_prac.thisTrialN,repeat_prac.thisN,repeat_prac.thisIndex,trainLoop.thisRepN,trainLoop.thisTrialN,trainLoop.thisN,trainLoop.thisIndex,moveLoop_train.thisRepN,moveLoop_train.thisTrialN,moveLoop_train.thisN,moveLoop_train.thisIndex,experiment.thisRepN,experiment.thisTrialN,experiment.thisN,experiment.thisIndex,moveLoop_test.thisRepN,moveLoop_test.thisTrialN,moveLoop_test.thisN,moveLoop_test.thisIndex,mini_instr2_trials.thisRepN,mini_instr2_trials.thisTrialN,mini_instr2_trials.thisN,mini_instr2_trials.thisIndex,start_all_time,url,slideStim,audioStim,slides.started,sounds.started,nextButton.numClicks,nextButton.timesOn,nextButton.timesOff,prev_but.numClicks,prev_but.timesOn,prev_but.timesOff,alienStim,instrFile,alienStim_instr,gridImage_instr.started,startPos_3.started,key_instr.started,alienImage_3.started,sounds_1.started,key_instr.keys,key_instr.rt,all_x,all_y,FBy_corrSteps,FBy_fixStart,FBx_corrSteps,FBx_fixStart,FBy_pathSize_check,FBx_pathSize_check,gridImage_9.started,alienImageFB_3.started,startPosFB_3.started,keyFB_3.started,pathLine_ydir_2.started,pathLine_xdir_2.started,alienFace_3.started,sounds_2.started,RTFB_instr,keyFB_3.keys,keyFB_3.rt,draw_alienStim,draw_alienID,test_x,nrepcount,perfthres,percthres,earlierperf,earlystop,nextPrac,fileidx,praclen,saveACC_train,pracFile,nextPrac_train,addNrep,fileidx_endr,repExp,showearly,gridImage_4.started,startPos.started,movePos.started,key_resp.started,alienImage.started,buttonPress_train,RTchoice_train,cumAcctrain,aCorr,saveACC_choice,corrAns,x_movePos_end,y_movePos_end,key_resp.keys,key_resp.rt,wLy_dir,wLx_dir,x_movePos,y_movePos,text_2.started,text_2.stopped,aft_x_corrPos,aft_y_corrPos,y_pathSize_check,x_pathSize_check,y_pathdirY,x_pathdirY,x_pathdirX,x_corrPos,y_corrPos,gridImage_6.started,alienImageFB_2.started,startPosFB_2.started,movePosFB_2.started,keyFB_2.started,pathLine_xdir.started,pathLine_ydir.started,alienFace.started,sounds_4.started,RT_FBtrain,keyFB_2.keys,keyFB_2.rt,saveACC_pre,ACC,within_saveACC_train,earlystop_wloop,cumAcctrain_check,gridImage_3.started,alienImage_test.started,startPos_test.started,movePos_test.started,key_resp_test.started,wLy_dir_test,wLx_dir_test,buttonPress_test,RTchoice_test,cumAcctest,corrAns_test,key_resp_test.keys,key_resp_test.rt,text_3.started,text_3.stopped,total_time,end_all_time,key_resp_3.keys,slides_2.started,sounds_3.started,nextButton_2.numClicks,nextButton_2.timesOn,nextButton_2.timesOff,prev_but_2.numClicks,prev_but_2.timesOn,prev_but_2.timesOff,bye.started,participant,train_first,00_coordinate,starting corner,date,expName,psychopyVersion,frameRate,
,,,,,,,,,,,,,,,0,0,0,0,0,0,0,0,,,,,,,,,,,,,,,,,,,,,,,,,,,,,start_all_time,testround,conditions/schedules/train_y_first/blue_star_00/top_left/instructions/Slide1.png,conditions/schedules/train_y_first/blue_star_00/top_left/instructions/Audio1.wav,69.32686070003547,69.27828069962561,1,[6.919863799819723],[6.919870899990201],0,,,,,,,,,,,,,,,,,,,,,,,,,,,,,,,,,,,,,,,,,,,,,,,,,,,,,,,,,,,,,,,,,,,,,,,,,,,,,,,,,,,,,,,,,,,,,,,,,,,,,,,,,,,,,,,,,,,,,,,,,,,,YEL750,train_y,blue_star,top_left,2025-04-03_17h10.01.834,HideSeek_v1,2022.2.5,59.97947502097618,
,,,,,,,,,,,,,,,0,0,0,0,1,0,1,0,,,,,,,,,,,,,,,,,,,,,,,,,,,,,,,conditions/schedules/train_y_first/blue_star_00/top_left/instructions/Slide2.png,conditions/schedules/train_y_first/blue_star_00/top_left/instructions/Audio2.wav,76.26697470014915,76.2532841200009,2,"[6.919863799819723, 18.382990200072527]","[6.919870899990201, 18.382996999891475]",0,,,,,,,,,,,,,,,,,,,,,,,,,,,,,,,,,,,,,,,,,,,,,,,,,,,,,,,,,,,,,,,,,,,,,,,,,,,,,,,,,,,,,,,,,,,,,,,,,,,,,,,,,,,,,,,,,,,,,,,,,,,,YEL750,train_y,blue_star,top_left,2025-04-03_17h10.01.834,HideSeek_v1,2022.2.5,59.97947502097618,
,,,,,,,,,,,,,,,0,0,0,0,2,0,2,0,,,,,,,,,,,,,,,,,,,,,,,,,,,,,,,conditions/schedules/train_y_first/blue_star_00/top_left/instructions/Slide3.png,conditions/schedules/train_y_first/blue_star_00/top_left/instructions/Audio3.wav,94.72870149998926,94.71877160004806,3,"[6.919863799819723, 18.382990200072527, 16.56796500016935]","[6.919870899990201, 0.00022060004994273186, 16.567971700103953]",0,,,,,,,,,,,,,,,,,,,,,,,,,,,,,,,,,,,,,,,,,,,,,,,,,,,,,,,,,,,,,,,,,,,,,,,,,,,,,,,,,,,,,,,,,,,,,,,,,,,,,,,,,,,,,,,,,,,,,,,,,,,,YEL750,train_y,blue_star,top_left,2025-04-03_17h10.01.834,HideSeek_v1,2022.2.5,59.97947502097618,
,,,,,,,,,,,,,,,0,0,0,0,3,0,3,0,,,,,,,,,,,,,,,,,,,,,,,,,,,,,,,conditions/schedules/train_y_first/blue_star_00/top_left/instructions/Slide4.png,conditions/schedules/train_y_first/blue_star_00/top_left/instructions/Audio4.wav,111.37082020007074,111.36572410014924,4,"[6.919863799819723, 18.382990200072527, 16.56796500016935, 19.27536499989219]","[6.919870899990201, 0.00022060004994273186, 0.01409299997612834, 19.27537090005353]",0,,,,,,,,,,,,,,,,,,,,,,,,,,,,,,,,,,,,,,,,,,,,,,,,,,,,,,,,,,,,,,,,,,,,,,,,,,,,,,,,,,,,,,,,,,,,,,,,,,,,,,,,,,,,,,,,,,,,,,,,,,,,YEL750,train_y,blue_star,top_left,2025-04-03_17h10.01.834,HideSeek_v1,2022.2.5,59.97947502097618,
,,,,,,,,,,,,,,,0,0,0,0,4,0,4,0,,,,,,,,,,,,,,,,,,,,,,,,,,,,,,,conditions/schedules/train_y_first/blue_star_00/top_left/instructions/Slide5.png,conditions/schedules/train_y_first/blue_star_00/top_left/instructions/Audio5.wav,130.71211750013754,130.69875542004593,5,"[6.919863799819723, 18.382990200072527, 16.56796500016935, 19.27536499989219, 4.137701499974355]","[6.919870899990201, 0.00022060004994273186, 0.01409299997612834, 0.03386930003762245, 4.137709100032225]",0,,,,,,,,,,,,,,,,,,,,,,,,,,,,,,,,,,,,,,,,,,,,,,,,,,,,,,,,,,,,,,,,,,,,,,,,,,,,,,,,,,,,,,,,,,,,,,,,,,,,,,,,,,,,,,,,,,,,,,,,,,,,YEL750,train_y,blue_star,top_left,2025-04-03_17h10.01.834,HideSeek_v1,2022.2.5,59.97947502097618,
,,,,,,,,,,,,,,,0,0,0,0,5,0,5,0,,,,,,,,,,,,,,,,,,,,,,,,,,,,,,,conditions/schedules/train_y_first/blue_star_00/top_left/instructions/Slide6.png,conditions/schedules/train_y_first/blue_star_00/top_left/instructions/Audio6.wav,134.90142600005493,134.90206252015196,6,"[6.919863799819723, 18.382990200072527, 16.56796500016935, 19.27536499989219, 4.137701499974355, 5.002426400082186]","[6.919870899990201, 0.00022060004994273186, 0.01409299997612834, 0.03386930003762245, 0.0315894999075681, 5.002433199901134]",0,,,,,,,,,,,,,,,,,,,,,,,,,,,,,,,,,,,,,,,,,,,,,,,,,,,,,,,,,,,,,,,,,,,,,,,,,,,,,,,,,,,,,,,,,,,,,,,,,,,,,,,,,,,,,,,,,,,,,,,,,,,,YEL750,train_y,blue_star,top_left,2025-04-03_17h10.01.834,HideSeek_v1,2022.2.5,59.97947502097618,
,,,,,,,,,,,,,,,0,0,0,0,6,0,6,0,,,,,,,,,,,,,,,,,,,,,,,,,,,,,,,conditions/schedules/train_y_first/blue_star_00/top_left/instructions/Slide7.png,conditions/schedules/train_y_first/blue_star_00/top_left/instructions/Audio7.wav,139.95492120017298,139.95620052004233,7,"[6.919863799819723, 18.382990200072527, 16.56796500016935, 19.27536499989219, 4.137701499974355, 5.002426400082186, 5.8372577000409365]","[6.919870899990201, 0.00022060004994273186, 0.01409299997612834, 0.03386930003762245, 0.0315894999075681, 0.06542080012150109, 5.837264900095761]",0,,,,,,,,,,,,,,,,,,,,,,,,,,,,,,,,,,,,,,,,,,,,,,,,,,,,,,,,,,,,,,,,,,,,,,,,,,,,,,,,,,,,,,,,,,,,,,,,,,,,,,,,,,,,,,,,,,,,,,,,,,,,YEL750,train_y,blue_star,top_left,2025-04-03_17h10.01.834,HideSeek_v1,2022.2.5,59.97947502097618,
,,,,,,,,,,,,,,,0,0,0,0,7,0,7,0,,,,,,,,,,,,,,,,,,,,,,,,,,,,,,,conditions/schedules/train_y_first/blue_star_00/top_left/instructions/Slide8.png,conditions/schedules/train_y_first/blue_star_00/top_left/instructions/Audio8.wav,145.8448364001233,145.8442663201131,8,"[6.919863799819723, 18.382990200072527, 16.56796500016935, 19.27536499989219, 4.137701499974355, 5.002426400082186, 5.8372577000409365, 12.157292100135237]","[6.919870899990201, 0.00022060004994273186, 0.01409299997612834, 0.03386930003762245, 0.0315894999075681, 0.06542080012150109, 0.04708450008183718, 12.157298699952662]",0,,,,,,,,,,,,,,,,,,,,,,,,,,,,,,,,,,,,,,,,,,,,,,,,,,,,,,,,,,,,,,,,,,,,,,,,,,,,,,,,,,,,,,,,,,,,,,,,,,,,,,,,,,,,,,,,,,,,,,,,,,,,YEL750,train_y,blue_star,top_left,2025-04-03_17h10.01.834,HideSeek_v1,2022.2.5,59.97947502097618,
,,,,,,,,,,,,,,,0,0,0,0,8,0,8,0,,,,,,,,,,,,,,,,,,,,,,,,,,,,,,,conditions/schedules/train_y_first/blue_star_00/top_left/instructions/Slide9.png,conditions/schedules/train_y_first/blue_star_00/top_left/instructions/Audio9.wav,158.06600880017504,158.05452352017164,9,"[6.919863799819723, 18.382990200072527, 16.56796500016935, 19.27536499989219, 4.137701499974355, 5.002426400082186, 5.8372577000409365, 12.157292100135237, 5.874551799846813]","[6.919870899990201, 0.00022060004994273186, 0.01409299997612834, 0.03386930003762245, 0.0315894999075681, 0.06542080012150109, 0.04708450008183718, 0.03613129979930818, 5.874558499781415]",0,,,,,,,,,,,,,,,,,,,,,,,,,,,,,,,,,,,,,,,,,,,,,,,,,,,,,,,,,,,,,,,,,,,,,,,,,,,,,,,,,,,,,,,,,,,,,,,,,,,,,,,,,,,,,,,,,,,,,,,,,,,,YEL750,train_y,blue_star,top_left,2025-04-03_17h10.01.834,HideSeek_v1,2022.2.5,59.97947502097618,
,,,,,,,,,,,,,,,0,0,0,0,9,0,9,0,,,,,,,,,,,,,,,,,,,,,,,,,,,,,,,conditions/schedules/train_y_first/blue_star_00/top_left/instructions/Slide10.png,conditions/schedules/train_y_first/blue_star_00/top_left/instructions/Audio10.wav,163.9778125002049,163.9761247400893,10,"[6.919863799819723, 18.382990200072527, 16.56796500016935, 19.27536499989219, 4.137701499974355, 5.002426400082186, 5.8372577000409365, 12.157292100135237, 5.874551799846813, 6.901849000016227]","[6.919870899990201, 0.00022060004994273186, 0.01409299997612834, 0.03386930003762245, 0.0315894999075681, 0.06542080012150109, 0.04708450008183718, 0.03613129979930818, 0.046463900012895465, 6.901856699958444]",0,,,,,,,,,,,,,,,,,,,,,,,,,,,,,,,,,,,,,,,,,,,,,,,,,,,,,,,,,,,,,,,,,,,,,,,,,,,,,,,,,,,,,,,,,,,,,,,,,,,,,,,,,,,,,,,,,,,,,,,,,,,,YEL750,train_y,blue_star,top_left,2025-04-03_17h10.01.834,HideSeek_v1,2022.2.5,59.97947502097618,
,,,,,,,,,,,,,,,0,0,0,0,10,0,10,0,,,,,,,,,,,,,,,,,,,,,,,,,,,,,,,conditions/schedules/train_y_first/blue_star_00/top_left/instructions/Slide11.png,conditions/schedules/train_y_first/blue_star_00/top_left/instructions/Audio11.wav,170.9180844000075,170.91529084008653,11,"[6.919863799819723, 18.382990200072527, 16.56796500016935, 19.27536499989219, 4.137701499974355, 5.002426400082186, 5.8372577000409365, 12.157292100135237, 5.874551799846813, 6.901849000016227, 10.153596699936315]","[6.919870899990201, 0.00022060004994273186, 0.01409299997612834, 0.03386930003762245, 0.0315894999075681, 0.06542080012150109, 0.04708450008183718, 0.03613129979930818, 0.046463900012895465, 0.09481470007449389, 10.15360359987244]",0,,,,,,,,,,,,,,,,,,,,,,,,,,,,,,,,,,,,,,,,,,,,,,,,,,,,,,,,,,,,,,,,,,,,,,,,,,,,,,,,,,,,,,,,,,,,,,,,,,,,,,,,,,,,,,,,,,,,,,,,,,,,YEL750,train_y,blue_star,top_left,2025-04-03_17h10.01.834,HideSeek_v1,2022.2.5,59.97947502097618,
,,,,,,,,,,,,,,,0,0,0,0,11,0,11,0,,,,,,,,,,,,,,,,,,,,,,,,,,,,,,,conditions/schedules/train_y_first/blue_star_00/top_left/instructions/Slide12.png,conditions/schedules/train_y_first/blue_star_00/top_left/instructions/Audio12.wav,181.1420152001083,181.14061450015288,12,"[6.919863799819723, 18.382990200072527, 16.56796500016935, 19.27536499989219, 4.137701499974355, 5.002426400082186, 5.8372577000409365, 12.157292100135237, 5.874551799846813, 6.901849000016227, 10.153596699936315, 13.540121299913153]","[6.919870899990201, 0.00022060004994273186, 0.01409299997612834, 0.03386930003762245, 0.0315894999075681, 0.06542080012150109, 0.04708450008183718, 0.03613129979930818, 0.046463900012895465, 0.09481470007449389, 0.04630789998918772, 13.540127899963409]",0,,,,,,,,,,,,,,,,,,,,,,,,,,,,,,,,,,,,,,,,,,,,,,,,,,,,,,,,,,,,,,,,,,,,,,,,,,,,,,,,,,,,,,,,,,,,,,,,,,,,,,,,,,,,,,,,,,,,,,,,,,,,YEL750,train_y,blue_star,top_left,2025-04-03_17h10.01.834,HideSeek_v1,2022.2.5,59.97947502097618,
1,0,8,0,3,0,-5,66,2,instr_dim1_1,,,,,,0,0,0,0,,,,,0,0,0,0,,,,,,,,,,,,,,,,,,,,,,,,,,,,,,,,,,,,,stimuli/alien_stimuli/66.png,conditions/schedules/train_y_first/blue_star_00/top_left/inputInstr_1.xlsx,stimuli/alien_stimuli/66.png,194.78270160011016,194.78270160011016,194.78270160011016,194.78270160011016,194.78479836008046,return,8.259926199913025,"[-0.16, -0.08, 0, 0.08, 0.16, 0.24, 0.32, 0.4, 0.48, 0.56]","[-0.4, -0.32, -0.24, -0.16, -0.08, 0, 0.08, 0.16, 0.24, 0.32]",3,8,0,0,0.4,0.0,203.22221920010634,203.22221920010634,203.22221920010634,203.22221920010634,203.22221920010634,203.22221920010634,203.22221920010634,203.20862162008416,9.091741600073874,return,8.916032899869606,stimuli/alien_stimuli/66.png,66,0,1,,,,,,,,,,,,,,,,,,,,,,,,,,,,,,,,,,,,,,,,,,,,,,,,,,,,,,,,,,,,,,,,,,,,,,,,,,,,,,,,,,,,,,,,,YEL750,train_y,blue_star,top_left,2025-04-03_17h10.01.834,HideSeek_v1,2022.2.5,59.97947502097618,
,,,,,,,,,,,30,,,,0,0,0,0,,,,,,,,,,,,,,,,,,,,,,,,,,,,,,,,,,,,,,,,,,,,,,,,,,,,,,,,,,,,,,,,,,,,,,,,,,,,,,21,0.7,0,0,99,1,30,0,conditions/schedules/train_y_first/blue_star_00/top_left/inputTrain_1.1.xlsx,99,1,1,1,0,,,,,,,,,,,,,,,,,,,,,,,,,,,,,,,,,,,,,,,,,,,,,,,,,,,,,,,,,,,,,,,,,,,,,,,,,,,YEL750,train_y,blue_star,top_left,2025-04-03_17h10.01.834,HideSeek_v1,2022.2.5,59.97947502097618,
,,,,,,,,,,,,,,,1,0,1,0,0,0,0,0,,,,,,,,,,,,,,,,,,,,,,,,,,,,,,,conditions/schedules/train_y_first/blue_star_00/top_left/instructions/Slide13.png,conditions/schedules/train_y_first/blue_star_00/top_left/instructions/Audio13.wav,212.2953020001296,212.28293004003353,13,"[6.919863799819723, 18.382990200072527, 16.56796500016935, 19.27536499989219, 4.137701499974355, 5.002426400082186, 5.8372577000409365, 12.157292100135237, 5.874551799846813, 6.901849000016227, 10.153596699936315, 13.540121299913153, 18.200466000009328]","[6.919870899990201, 0.00022060004994273186, 0.01409299997612834, 0.03386930003762245, 0.0315894999075681, 0.06542080012150109, 0.04708450008183718, 0.03613129979930818, 0.046463900012895465, 0.09481470007449389, 0.04630789998918772, 13.540127899963409, 18.200472800061107]",0,,,,,,,,,,,,,,,,,,,,,,,,,,,,,,,,,,,,,,,,,,,,,,,,,,,,,,,,,,,,,,,,,,,,,,,,,,,,,,,,,,,,,,,,,,,,,,,,,,,,,,,,,,,,,,,,,,,,,,,,,,,,YEL750,train_y,blue_star,top_left,2025-04-03_17h10.01.834,HideSeek_v1,2022.2.5,59.97947502097618,
,,,,,,,,,,,,,,,1,0,1,0,1,0,1,0,,,,,,,,,,,,,,,,,,,,,,,,,,,,,,,conditions/schedules/train_y_first/blue_star_00/top_left/instructions/Slide14.png,conditions/schedules/train_y_first/blue_star_00/top_left/instructions/Audio14.wav,230.56995090004057,230.56475860008504,14,"[6.919863799819723, 18.382990200072527, 16.56796500016935, 19.27536499989219, 4.137701499974355, 5.002426400082186, 5.8372577000409365, 12.157292100135237, 5.874551799846813, 6.901849000016227, 10.153596699936315, 13.540121299913153, 18.200466000009328, 16.705991700058803]","[6.919870899990201, 0.00022060004994273186, 0.01409299997612834, 0.03386930003762245, 0.0315894999075681, 0.06542080012150109, 0.04708450008183718, 0.03613129979930818, 0.046463900012895465, 0.09481470007449389, 0.04630789998918772, 13.540127899963409, 18.200472800061107, 16.70599799999036]",0,,,,,,,,,,,,,,,,,,,,,,,,,,,,,,,,,,,,,,,,,,,,,,,,,,,,,,,,,,,,,,,,,,,,,,,,,,,,,,,,,,,,,,,,,,,,,,,,,,,,,,,,,,,,,,,,,,,,,,,,,,,,YEL750,train_y,blue_star,top_left,2025-04-03_17h10.01.834,HideSeek_v1,2022.2.5,59.97947502097618,
2,2,8,2,8,0,0,61,2,instr_dim1_1,,,,,,1,0,1,0,,,,,0,0,0,0,,,,,,,,,,,,,,,,,,,,,,,,,,,,,,,,,,,,,stimuli/alien_stimuli/61.png,conditions/schedules/train_y_first/blue_star_00/top_left/inputInstr_1.xlsx,stimuli/alien_stimuli/61.png,247.36622079997323,247.36622079997323,247.36622079997323,247.36622079997323,247.36200888012536,return,7.434681699844077,"[-0.16, -0.08, 0, 0.08, 0.16, 0.24, 0.32, 0.4, 0.48, 0.56]","[-0.4, -0.32, -0.24, -0.16, -0.08, 0, 0.08, 0.16, 0.24, 0.32]",8,8,2,2,0.0,0.0,254.94182640011422,254.94182640011422,254.94182640011422,254.94182640011422,254.94182640011422,254.94182640011422,254.94182640011422,254.93486294010654,19.684039799962193,return,19.542472400004044,stimuli/alien_stimuli/61.png,61,2,2,,,,,,,,,,,,,,,,,,,,,,,,,,,,,,,,,,,,,,,,,,,,,,,,,,,,,,,,,,,,,,,,,,,,,,,,,,,,,,,,,,,,,,,,,YEL750,train_y,blue_star,top_left,2025-04-03_17h10.01.834,HideSeek_v1,2022.2.5,59.97947502097618,
,,,,,,,,,,,30,,,,1,0,1,0,,,,,,,,,,,,,,,,,,,,,,,,,,,,,,,,,,,,,,,,,,,,,,,,,,,,,,,,,,,,,,,,,,,,,,,,,,,,,,21,0.7,0,0,99,1,30,0,conditions/schedules/train_y_first/blue_star_00/top_left/inputTrain_1.1.xlsx,99,1,1,1,0,,,,,,,,,,,,,,,,,,,,,,,,,,,,,,,,,,,,,,,,,,,,,,,,,,,,,,,,,,,,,,,,,,,,,,,,,,,YEL750,train_y,blue_star,top_left,2025-04-03_17h10.01.834,HideSeek_v1,2022.2.5,59.97947502097618,
,,,,,,,,,,,,,,,2,0,2,0,0,0,0,0,,,,,,,,,,,,,,,,,,,,,,,,,,,,,,,conditions/schedules/train_y_first/blue_star_00/top_left/instructions/Slide15.png,conditions/schedules/train_y_first/blue_star_00/top_left/instructions/Audio15.wav,274.6529570000712,274.65122360014357,15,"[6.919863799819723, 18.382990200072527, 16.56796500016935, 19.27536499989219, 4.137701499974355, 5.002426400082186, 5.8372577000409365, 12.157292100135237, 5.874551799846813, 6.901849000016227, 10.153596699936315, 13.540121299913153, 18.200466000009328, 16.705991700058803, 43.149607399944216]","[6.919870899990201, 0.00022060004994273186, 0.01409299997612834, 0.03386930003762245, 0.0315894999075681, 0.06542080012150109, 0.04708450008183718, 0.03613129979930818, 0.046463900012895465, 0.09481470007449389, 0.04630789998918772, 13.540127899963409, 18.200472800061107, 16.70599799999036, 43.149615000002086]",0,,,,,,,,,,,,,,,,,,,,,,,,,,,,,,,,,,,,,,,,,,,,,,,,,,,,,,,,,,,,,,,,,,,,,,,,,,,,,,,,,,,,,,,,,,,,,,,,,,,,,,,,,,,,,,,,,,,,,,,,,,,,YEL750,train_y,blue_star,top_left,2025-04-03_17h10.01.834,HideSeek_v1,2022.2.5,59.97947502097618,
,,,,,,,,,,,,,,,2,0,2,0,1,0,1,0,,,,,,,,,,,,,,,,,,,,,,,,,,,,,,,conditions/schedules/train_y_first/blue_star_00/top_left/instructions/Slide16.png,conditions/schedules/train_y_first/blue_star_00/top_left/instructions/Audio16.wav,317.8782877000049,317.8706886001164,16,"[6.919863799819723, 18.382990200072527, 16.56796500016935, 19.27536499989219, 4.137701499974355, 5.002426400082186, 5.8372577000409365, 12.157292100135237, 5.874551799846813, 6.901849000016227, 10.153596699936315, 13.540121299913153, 18.200466000009328, 16.705991700058803, 43.149607399944216, 22.2582617001608]","[6.919870899990201, 0.00022060004994273186, 0.01409299997612834, 0.03386930003762245, 0.0315894999075681, 0.06542080012150109, 0.04708450008183718, 0.03613129979930818, 0.046463900012895465, 0.09481470007449389, 0.04630789998918772, 13.540127899963409, 18.200472800061107, 16.70599799999036, 0.0002217001747339964, 22.25826880009845]",0,,,,,,,,,,,,,,,,,,,,,,,,,,,,,,,,,,,,,,,,,,,,,,,,,,,,,,,,,,,,,,,,,,,,,,,,,,,,,,,,,,,,,,,,,,,,,,,,,,,,,,,,,,,,,,,,,,,,,,,,,,,,YEL750,train_y,blue_star,top_left,2025-04-03_17h10.01.834,HideSeek_v1,2022.2.5,59.97947502097618,
,0,5,0,1,0,-4,65,,train_dim1_1,1,30,,,,2,0,2,0,,,,,,,,,0,0,0,0,0,0,0,0,0,0,0,0,,,,,,,,,,,,,,,,,,,,,,,,,stimuli/alien_stimuli/65.png,,,,,,,,,,,,,,,,,,,,,,,,,,,,,,,,,,,,,,,30,,,,,,,,340.2343352001626,340.2343352001626,340.2343352001626,340.2343352001626,340.2343352001626,right,13.957578799920157,0,0,0,99,-0.08,0,right,13.854235199978575,,,,,,,,,,,,,,,,,,,,,,,,,,,,,,,,,,,,,,,,,,,,,,,,,,,,,,,,,,,,YEL750,train_y,blue_star,top_left,2025-04-03_17h10.01.834,HideSeek_v1,2022.2.5,59.97947502097618,
,0,5,0,1,0,-4,65,,train_dim1_1,1,30,,,,2,0,2,0,,,,,,,,,0,0,0,0,0,0,0,0,1,0,1,0,,,,,,,,,,,,,,,,,,,,,,,,,,,,,,,,,,,,,,,,,,,,,,,,,,,,,,,,,,,,,,,,30,,,,,,,,354.20087420009077,354.20087420009077,354.20087420009077,354.20087420009077,354.20087420009077,right,1.24354699999094,0,0,0,99,0.0,0,right,1.1372147998772562,,,,,,,,,,,,,,,,,,,,,,,,,,,,,,,,,,,,,,,,,,,,,,,,,,,,,,,,,,,,YEL750,train_y,blue_star,top_left,2025-04-03_17h10.01.834,HideSeek_v1,2022.2.5,59.97947502097618,
,0,5,0,1,0,-4,65,,train_dim1_1,1,30,,,,2,0,2,0,,,,,,,,,0,0,0,0,0,0,0,0,2,0,2,0,,,,,,,,,,,,,,,,,,,,,,,,,,,,,,,,,,,,,,,,,,,,,,,,,,,,,,,,,,,,,,,,30,,,,,,,,355.4310228000395,355.4310228000395,355.4310228000395,355.4310228000395,355.4310228000395,right,0.9438398000784218,0,0,0,99,0.08,0,right,0.8616863000206649,,,,,,,,,,,,,,,,,,,,,,,,,,,,,,,,,,,,,,,,,,,,,,,,,,,,,,,,,,,,YEL750,train_y,blue_star,top_left,2025-04-03_17h10.01.834,HideSeek_v1,2022.2.5,59.97947502097618,
,0,5,0,1,0,-4,65,,train_dim1_1,1,30,,,,2,0,2,0,,,,,,,,,0,0,0,0,0,0,0,0,3,0,3,0,,,,,,,,,,,,,,,,,,,,,,,,,,,,,,,,,,,,,,,,,,,,,,,,,,,,,,,,,,,,,,,,30,,,,,,,,356.3816858001519,356.3816858001519,356.3816858001519,356.3816858001519,356.3816858001519,down,1.077280699973926,0,0,0,99,0.08,-0.08,down,0.9932433001231402,,,,,,,,,,,,,,,,,,,,,,,,,,,,,,,,,,,,,,,,,,,,,,,,,,,,,,,,,,,,YEL750,train_y,blue_star,top_left,2025-04-03_17h10.01.834,HideSeek_v1,2022.2.5,59.97947502097618,
,0,5,0,1,0,-4,65,,train_dim1_1,1,30,,,,2,0,2,0,,,,,,,,,0,0,0,0,0,0,0,0,4,0,4,0,,,,,,,,,,,,,,,,,,,,,,,,,,,,,,,,,,,,,,,,,,,,,,,,,,,,,,,,,,,,,,,,30,,,,,,,,357.4662225001957,357.4662225001957,357.4662225001957,357.4662225001957,357.4662225001957,down,0.7097915001213551,0,0,0,99,0.08,-0.16,down,0.636495300102979,,,,,,,,,,,,,,,,,,,,,,,,,,,,,,,,,,,,,,,,,,,,,,,,,,,,,,,,,,,,YEL750,train_y,blue_star,top_left,2025-04-03_17h10.01.834,HideSeek_v1,2022.2.5,59.97947502097618,
,0,5,0,1,0,-4,65,,train_dim1_1,1,30,,,,2,0,2,0,,,,,,,,,0,0,0,0,0,0,0,0,5,0,5,0,,,,,,,,,,,,,,,,,,,,,,,,,,,,,,,,,,,,,,,,,,,,,,,,,,,,,,,,,,,,,,,,30,,,,,,,,358.1830003000796,358.1830003000796,358.1830003000796,358.1830003000796,358.1830003000796,right,0.5431669999379665,0,0,0,99,0.16,-0.16,right,0.4697740999981761,,,,,,,,,,,,,,,,,,,,,,,,,,,,,,,,,,,,,,,,,,,,,,,,,,,,,,,,,,,,YEL750,train_y,blue_star,top_left,2025-04-03_17h10.01.834,HideSeek_v1,2022.2.5,59.97947502097618,
,0,5,0,1,0,-4,65,,train_dim1_1,1,30,,,,2,0,2,0,,,,,,,,,0,0,0,0,0,0,0,0,6,0,6,0,,,,,,,,,,,,,,,,,,,,,,,,,,,,,,,,,,,,,,,,,,,,,,,,,,,,,,,,,,,,,,,,30,,,,,,,,358.7365675000474,358.7365675000474,358.7365675000474,358.7365675000474,358.7365675000474,right,0.7100996000226587,0,0,0,99,0.24,-0.16,right,0.622371600009501,,,,,,,,,,,,,,,,,,,,,,,,,,,,,,,,,,,,,,,,,,,,,,,,,,,,,,,,,,,,YEL750,train_y,blue_star,top_left,2025-04-03_17h10.01.834,HideSeek_v1,2022.2.5,59.97947502097618,
,0,5,0,1,0,-4,65,,train_dim1_1,1,30,,,,2,0,2,0,,,,,,,,,0,0,0,0,0,0,0,0,7,0,7,0,,,,,,,,,,,,,,,,,,,,,,,,,,,,,,,,,,,,,,,,,,,,,,,,,,,,,,,,,,,,,,,,30,,,,,,,,359.45404440001585,359.45404440001585,359.45404440001585,359.45404440001585,359.45404440001585,up,2.3928969998378307,0,0,0,99,0.24,-0.08,up,2.3053912001196295,,,,,,,,,,,,,,,,,,,,,,,,,,,,,,,,,,,,,,,,,,,,,,,,,,,,,,,,,,,,YEL750,train_y,blue_star,top_left,2025-04-03_17h10.01.834,HideSeek_v1,2022.2.5,59.97947502097618,
,0,5,0,1,0,-4,65,,train_dim1_1,1,30,,,,2,0,2,0,,,,,,,,,0,0,0,0,0,0,0,0,8,0,8,0,,,,,,,,,,,,,,,,,,,,,,,,,,,,,,,,,,,,,,,,,,,,,,,,,,,,,,,,,,,,,,,,30,,,,,,,,361.8534947000444,361.8534947000444,361.8534947000444,361.8534947000444,361.8534947000444,up,0.7100410000421107,0,0,0,99,0.24,0.0,up,0.6290526001248509,,,,,,,,,,,,,,,,,,,,,,,,,,,,,,,,,,,,,,,,,,,,,,,,,,,,,,,,,,,,YEL750,train_y,blue_star,top_left,2025-04-03_17h10.01.834,HideSeek_v1,2022.2.5,59.97947502097618,
,0,5,0,1,0,-4,65,,train_dim1_1,1,30,,,,2,0,2,0,,,,,,,,,0,0,0,0,0,0,0,0,9,0,9,0,,,,,,,,,,,,,,,,,,,,,,,,,,,,,,,,,,,,,,,,,,,,,,,,,,,,,,,,,,,,,,,,30,,,,,,,,362.57003990001976,362.57003990001976,362.57003990001976,362.57003990001976,362.57003990001976,right,1.7274704999290407,0,0,0,99,0.32,0.0,right,1.6567055999767035,,,,,,,,,,,,,,,,,,,,,,,,,,,,,,,,,,,,,,,,,,,,,,,,,,,,,,,,,,,,YEL750,train_y,blue_star,top_left,2025-04-03_17h10.01.834,HideSeek_v1,2022.2.5,59.97947502097618,
,0,5,0,1,0,-4,65,,train_dim1_1,1,30,,,,2,0,2,0,,,,,,,,,0,0,0,0,0,0,0,0,10,0,10,0,,,,,,,,,,,,,,,,,,,,,,,,,,,,,,,,,,,,,,,,,,,,,,,,,,,,,,,,,,,,,,,,30,,,,,,,,364.3058293000795,364.3058293000795,364.3058293000795,364.3058293000795,364.3058293000795,return,1.0603316999040544,0,0,0,0,0.32,0.0,return,0.9799864999949932,0,6,0.32,0.0,,,,,,,,,,,,,,,,,,,,,,,,,,,,,,,,,,,,,,,,,,,,,,,,,,,,,,,,YEL750,train_y,blue_star,top_left,2025-04-03_17h10.01.834,HideSeek_v1,2022.2.5,59.97947502097618,
,3,7,3,2,0,-5,66,,train_dim1_1,2,30,,,,2,0,2,0,,,,,,,,,0,0,0,0,0,1,1,1,0,0,0,0,,,,,,,,,,,,,,,,,,,,,,,,,stimuli/alien_stimuli/66.png,,,,,,,,,,,,,,,,,,,,,,,,,,,,,stimuli/alien_stimuli/65.png,65,0,3,,,,,,,30,,,,,,,,403.1959945000708,403.1959945000708,403.1959945000708,403.1959945000708,403.1959945000708,right,1.855307999998331,0,0,0,99,0.16,0.16,right,1.7607459998689592,,,,,401.6235929999966,403.1959945000708,-0.16,-0.32,0.32,0.0,-0.16,-0.16,-0.16,-0.16,-0.32,366.940435500117,366.940435500117,366.940435500117,366.940435500117,366.940435500117,366.940435500117,366.940435500117,366.940435500117,366.9279851600295,34.79802650003694,return,34.665378800127655,,,,,,,,,,,,,,,,,,,,,,,,,,,,,,,,,YEL750,train_y,blue_star,top_left,2025-04-03_17h10.01.834,HideSeek_v1,2022.2.5,59.97947502097618,
,3,7,3,2,0,-5,66,,train_dim1_1,2,30,,,,2,0,2,0,,,,,,,,,0,0,0,0,0,1,1,1,1,0,1,0,,,,,,,,,,,,,,,,,,,,,,,,,,,,,,,,,,,,,,,,,,,,,,,,,,,,,,,,,,,,,,,,30,,,,,,,,405.0399505000096,405.0399505000096,405.0399505000096,405.0399505000096,405.0399505000096,right,0.7767757000401616,0,0,0,99,0.24,0.16,right,0.6884119000751525,,,,,,,,,,,,,,,,,,,,,,,,,,,,,,,,,,,,,,,,,,,,,,,,,,,,,,,,,,,,YEL750,train_y,blue_star,top_left,2025-04-03_17h10.01.834,HideSeek_v1,2022.2.5,59.97947502097618,
,3,7,3,2,0,-5,66,,train_dim1_1,2,30,,,,2,0,2,0,,,,,,,,,0,0,0,0,0,1,1,1,2,0,2,0,,,,,,,,,,,,,,,,,,,,,,,,,,,,,,,,,,,,,,,,,,,,,,,,,,,,,,,,,,,,,,,,30,,,,,,,,405.8245238000527,405.8245238000527,405.8245238000527,405.8245238000527,405.8245238000527,down,1.126887499820441,0,0,0,99,0.24,0.08,down,1.0502398000098765,,,,,,,,,,,,,,,,,,,,,,,,,,,,,,,,,,,,,,,,,,,,,,,,,,,,,,,,,,,,YEL750,train_y,blue_star,top_left,2025-04-03_17h10.01.834,HideSeek_v1,2022.2.5,59.97947502097618,
,3,7,3,2,0,-5,66,,train_dim1_1,2,30,,,,2,0,2,0,,,,,,,,,0,0,0,0,0,1,1,1,3,0,3,0,,,,,,,,,,,,,,,,,,,,,,,,,,,,,,,,,,,,,,,,,,,,,,,,,,,,,,,,,,,,,,,,30,,,,,,,,406.9585361001082,406.9585361001082,406.9585361001082,406.9585361001082,406.9585361001082,down,0.4594202998559922,0,0,0,99,0.24,0.0,down,0.3750000998843461,,,,,,,,,,,,,,,,,,,,,,,,,,,,,,,,,,,,,,,,,,,,,,,,,,,,,,,,,,,,YEL750,train_y,blue_star,top_left,2025-04-03_17h10.01.834,HideSeek_v1,2022.2.5,59.97947502097618,
,3,7,3,2,0,-5,66,,train_dim1_1,2,30,,,,2,0,2,0,,,,,,,,,0,0,0,0,0,1,1,1,4,0,4,0,,,,,,,,,,,,,,,,,,,,,,,,,,,,,,,,,,,,,,,,,,,,,,,,,,,,,,,,,,,,,,,,30,,,,,,,,407.42785710003227,407.42785710003227,407.42785710003227,407.42785710003227,407.42785710003227,down,0.4241504999808967,0,0,0,99,0.24,-0.08,down,0.33818849991075695,,,,,,,,,,,,,,,,,,,,,,,,,,,,,,,,,,,,,,,,,,,,,,,,,,,,,,,,,,,,YEL750,train_y,blue_star,top_left,2025-04-03_17h10.01.834,HideSeek_v1,2022.2.5,59.97947502097618,
,3,7,3,2,0,-5,66,,train_dim1_1,2,30,,,,2,0,2,0,,,,,,,,,0,0,0,0,0,1,1,1,5,0,5,0,,,,,,,,,,,,,,,,,,,,,,,,,,,,,,,,,,,,,,,,,,,,,,,,,,,,,,,,,,,,,,,,30,,,,,,,,407.8584110001102,407.8584110001102,407.8584110001102,407.8584110001102,407.8584110001102,up,2.728317400207743,0,0,0,99,0.24,0.0,up,2.6481873001903296,,,,,,,,,,,,,,,,,,,,,,,,,,,,,,,,,,,,,,,,,,,,,,,,,,,,,,,,,,,,YEL750,train_y,blue_star,top_left,2025-04-03_17h10.01.834,HideSeek_v1,2022.2.5,59.97947502097618,
,3,7,3,2,0,-5,66,,train_dim1_1,2,30,,,,2,0,2,0,,,,,,,,,0,0,0,0,0,1,1,1,6,0,6,0,,,,,,,,,,,,,,,,,,,,,,,,,,,,,,,,,,,,,,,,,,,,,,,,,,,,,,,,,,,,,,,,30,,,,,,,,410.59479820006527,410.59479820006527,410.59479820006527,410.59479820006527,410.59479820006527,up,0.29283170006237924,0,0,0,99,0.24,0.08,up,0.2155551000032574,,,,,,,,,,,,,,,,,,,,,,,,,,,,,,,,,,,,,,,,,,,,,,,,,,,,,,,,,,,,YEL750,train_y,blue_star,top_left,2025-04-03_17h10.01.834,HideSeek_v1,2022.2.5,59.97947502097618,
,3,7,3,2,0,-5,66,,train_dim1_1,2,30,,,,2,0,2,0,,,,,,,,,0,0,0,0,0,1,1,1,7,0,7,0,,,,,,,,,,,,,,,,,,,,,,,,,,,,,,,,,,,,,,,,,,,,,,,,,,,,,,,,,,,,,,,,30,,,,,,,,410.89419560017996,410.89419560017996,410.89419560017996,410.89419560017996,410.89419560017996,up,0.3432674999348819,0,0,0,99,0.24,0.16,up,0.27029909985139966,,,,,,,,,,,,,,,,,,,,,,,,,,,,,,,,,,,,,,,,,,,,,,,,,,,,,,,,,,,,YEL750,train_y,blue_star,top_left,2025-04-03_17h10.01.834,HideSeek_v1,2022.2.5,59.97947502097618,
,3,7,3,2,0,-5,66,,train_dim1_1,2,30,,,,2,0,2,0,,,,,,,,,0,0,0,0,0,1,1,1,8,0,8,0,,,,,,,,,,,,,,,,,,,,,,,,,,,,,,,,,,,,,,,,,,,,,,,,,,,,,,,,,,,,,,,,30,,,,,,,,411.2440115001518,411.2440115001518,411.2440115001518,411.2440115001518,411.2440115001518,right,0.8437028999906033,0,0,0,99,0.32,0.16,right,0.7693832998629659,,,,,,,,,,,,,,,,,,,,,,,,,,,,,,,,,,,,,,,,,,,,,,,,,,,,,,,,,,,,YEL750,train_y,blue_star,top_left,2025-04-03_17h10.01.834,HideSeek_v1,2022.2.5,59.97947502097618,
,3,7,3,2,0,-5,66,,train_dim1_1,2,30,,,,2,0,2,0,,,,,,,,,0,0,0,0,0,1,1,1,9,0,9,0,,,,,,,,,,,,,,,,,,,,,,,,,,,,,,,,,,,,,,,,,,,,,,,,,,,,,,,,,,,,,,,,30,,,,,,,,412.09724590019323,412.09724590019323,412.09724590019323,412.09724590019323,412.09724590019323,right,0.5595570001751184,0,0,0,99,0.4,0.16,right,0.47844330011866987,,,,,,,,,,,,,,,,,,,,,,,,,,,,,,,,,,,,,,,,,,,,,,,,,,,,,,,,,,,,YEL750,train_y,blue_star,top_left,2025-04-03_17h10.01.834,HideSeek_v1,2022.2.5,59.97947502097618,
,3,7,3,2,0,-5,66,,train_dim1_1,2,30,,,,2,0,2,0,,,,,,,,,0,0,0,0,0,1,1,1,10,0,10,0,,,,,,,,,,,,,,,,,,,,,,,,,,,,,,,,,,,,,,,,,,,,,,,,,,,,,,,,,,,,,,,,30,,,,,,,,412.6626643000636,412.6626643000636,412.6626643000636,412.6626643000636,412.6626643000636,return,0.976881799986586,0,0,0,0,0.4,0.16,return,0.9018484998960048,0,10,0.4,0.16,,,,,,,,,,,,,,,,,,,,,,,,,,,,,,,,,,,,,,,,,,,,,,,,,,,,,,,,YEL750,train_y,blue_star,top_left,2025-04-03_17h10.01.834,HideSeek_v1,2022.2.5,59.97947502097618,
,2,8,2,5,0,-3,64,,train_dim1_1,3,30,,,,2,0,2,0,,,,,,,,,0,0,0,0,0,2,2,2,0,0,0,0,,,,,,,,,,,,,,,,,,,,,,,,,stimuli/alien_stimuli/64.png,,,,,,,,,,,,,,,,,,,,,,,,,,,,,stimuli/alien_stimuli/66.png,66,3,4,,,,,,,30,,,,,,,,436.08807080006227,436.08807080006227,436.08807080006227,436.08807080006227,436.08807080006227,right,4.440877800108865,0,0,0,99,0.08,0.24,right,4.342017600079998,,,,,434.51777749997564,436.08807080006227,0.08,-0.24,0.4,0.0,-0.039999999999999994,0.08,0.08,0.08,-0.24,415.21121550002135,415.21121550002135,415.21121550002135,415.21121550002135,415.21121550002135,415.21121550002135,415.21121550002135,415.21121550002135,415.2015613600379,19.418466000119224,return,19.285024899989367,,,,,,,,,,,,,,,,,,,,,,,,,,,,,,,,,YEL750,train_y,blue_star,top_left,2025-04-03_17h10.01.834,HideSeek_v1,2022.2.5,59.97947502097618,
,2,8,2,5,0,-3,64,,train_dim1_1,3,30,,,,2,0,2,0,,,,,,,,,0,0,0,0,0,2,2,2,1,0,1,0,,,,,,,,,,,,,,,,,,,,,,,,,,,,,,,,,,,,,,,,,,,,,,,,,,,,,,,,,,,,,,,,30,,,,,,,,440.5198953000363,440.5198953000363,440.5198953000363,440.5198953000363,440.5198953000363,right,0.7593515999615192,0,0,0,99,0.16,0.24,right,0.68249940010719,,,,,,,,,,,,,,,,,,,,,,,,,,,,,,,,,,,,,,,,,,,,,,,,,,,,,,,,,,,,YEL750,train_y,blue_star,top_left,2025-04-03_17h10.01.834,HideSeek_v1,2022.2.5,59.97947502097618,
,2,8,2,5,0,-3,64,,train_dim1_1,3,30,,,,2,0,2,0,,,,,,,,,0,0,0,0,0,2,2,2,2,0,2,0,,,,,,,,,,,,,,,,,,,,,,,,,,,,,,,,,,,,,,,,,,,,,,,,,,,,,,,,,,,,,,,,30,,,,,,,,441.2861658001784,441.2861658001784,441.2861658001784,441.2861658001784,441.2861658001784,right,1.1769669000059366,0,0,0,99,0.24,0.24,right,1.0897067000623792,,,,,,,,,,,,,,,,,,,,,,,,,,,,,,,,,,,,,,,,,,,,,,,,,,,,,,,,,,,,YEL750,train_y,blue_star,top_left,2025-04-03_17h10.01.834,HideSeek_v1,2022.2.5,59.97947502097618,
,2,8,2,5,0,-3,64,,train_dim1_1,3,30,,,,2,0,2,0,,,,,,,,,0,0,0,0,0,2,2,2,3,0,3,0,,,,,,,,,,,,,,,,,,,,,,,,,,,,,,,,,,,,,,,,,,,,,,,,,,,,,,,,,,,,,,,,30,,,,,,,,442.47103320015594,442.47103320015594,442.47103320015594,442.47103320015594,442.47103320015594,right,0.5757595999166369,0,0,0,99,0.32,0.24,right,0.5018420999404043,,,,,,,,,,,,,,,,,,,,,,,,,,,,,,,,,,,,,,,,,,,,,,,,,,,,,,,,,,,,YEL750,train_y,blue_star,top_left,2025-04-03_17h10.01.834,HideSeek_v1,2022.2.5,59.97947502097618,
,2,8,2,5,0,-3,64,,train_dim1_1,3,30,,,,2,0,2,0,,,,,,,,,0,0,0,0,0,2,2,2,4,0,4,0,,,,,,,,,,,,,,,,,,,,,,,,,,,,,,,,,,,,,,,,,,,,,,,,,,,,,,,,,,,,,,,,30,,,,,,,,443.0568458000198,443.0568458000198,443.0568458000198,443.0568458000198,443.0568458000198,return,1.87840580008924,0,0,0,0,0.32,0.24,return,1.7945285001769662,0,14,0.32,0.24,,,,,,,,,,,,,,,,,,,,,,,,,,,,,,,,,,,,,,,,,,,,,,,,,,,,,,,,YEL750,train_y,blue_star,top_left,2025-04-03_17h10.01.834,HideSeek_v1,2022.2.5,59.97947502097618,
,0,6,0,5,0,-1,62,,train_dim1_1,4,30,,,,2,0,2,0,,,,,,,,,0,0,0,0,0,3,3,3,0,0,0,0,,,,,,,,,,,,,,,,,,,,,,,,,stimuli/alien_stimuli/62.png,,,,,,,,,,,,,,,,,,,,,,,,,,,,,stimuli/alien_stimuli/64.png,64,2,5,,,,,,,30,,,,,,,,459.6802580000367,459.6802580000367,459.6802580000367,459.6802580000367,459.6802580000367,right,2.952771899988875,0,0,0,99,-0.08,0.08,right,2.8581292000599205,,,,,458.10357300005853,459.6802580000367,0,0,0.24,0.0,0.12,0,0.0,0,0,446.5091268001124,446.5091268001124,446.5091268001124,446.5091268001124,446.5091268001124,446.5091268001124,446.5091268001124,446.5091268001124,446.510884340154,11.711597699904814,return,11.569279100047424,,,,,,,,,,,,,,,,,,,,,,,,,,,,,,,,,YEL750,train_y,blue_star,top_left,2025-04-03_17h10.01.834,HideSeek_v1,2022.2.5,59.97947502097618,
,0,6,0,5,0,-1,62,,train_dim1_1,4,30,,,,2,0,2,0,,,,,,,,,0,0,0,0,0,3,3,3,1,0,1,0,,,,,,,,,,,,,,,,,,,,,,,,,,,,,,,,,,,,,,,,,,,,,,,,,,,,,,,,,,,,,,,,30,,,,,,,,462.6212025000714,462.6212025000714,462.6212025000714,462.6212025000714,462.6212025000714,right,0.3930238999892026,0,0,0,99,0.0,0.08,right,0.30456540011800826,,,,,,,,,,,,,,,,,,,,,,,,,,,,,,,,,,,,,,,,,,,,,,,,,,,,,,,,,,,,YEL750,train_y,blue_star,top_left,2025-04-03_17h10.01.834,HideSeek_v1,2022.2.5,59.97947502097618,
,0,6,0,5,0,-1,62,,train_dim1_1,4,30,,,,2,0,2,0,,,,,,,,,0,0,0,0,0,3,3,3,2,0,2,0,,,,,,,,,,,,,,,,,,,,,,,,,,,,,,,,,,,,,,,,,,,,,,,,,,,,,,,,,,,,,,,,30,,,,,,,,463.02179370005615,463.02179370005615,463.02179370005615,463.02179370005615,463.02179370005615,right,0.42671629996038973,0,0,0,99,0.08,0.08,right,0.3513895000796765,,,,,,,,,,,,,,,,,,,,,,,,,,,,,,,,,,,,,,,,,,,,,,,,,,,,,,,,,,,,YEL750,train_y,blue_star,top_left,2025-04-03_17h10.01.834,HideSeek_v1,2022.2.5,59.97947502097618,
,0,6,0,5,0,-1,62,,train_dim1_1,4,30,,,,2,0,2,0,,,,,,,,,0,0,0,0,0,3,3,3,3,0,3,0,,,,,,,,,,,,,,,,,,,,,,,,,,,,,,,,,,,,,,,,,,,,,,,,,,,,,,,,,,,,,,,,30,,,,,,,,463.455987600144,463.455987600144,463.455987600144,463.455987600144,463.455987600144,right,0.5600212998688221,0,0,0,99,0.16,0.08,right,0.47673660004511476,,,,,,,,,,,,,,,,,,,,,,,,,,,,,,,,,,,,,,,,,,,,,,,,,,,,,,,,,,,,YEL750,train_y,blue_star,top_left,2025-04-03_17h10.01.834,HideSeek_v1,2022.2.5,59.97947502097618,
,0,6,0,5,0,-1,62,,train_dim1_1,4,30,,,,2,0,2,0,,,,,,,,,0,0,0,0,0,3,3,3,4,0,4,0,,,,,,,,,,,,,,,,,,,,,,,,,,,,,,,,,,,,,,,,,,,,,,,,,,,,,,,,,,,,,,,,30,,,,,,,,464.02266949997284,464.02266949997284,464.02266949997284,464.02266949997284,464.02266949997284,down,2.6116691001225263,0,0,0,99,0.16,0.0,down,2.530281800078228,,,,,,,,,,,,,,,,,,,,,,,,,,,,,,,,,,,,,,,,,,,,,,,,,,,,,,,,,,,,YEL750,train_y,blue_star,top_left,2025-04-03_17h10.01.834,HideSeek_v1,2022.2.5,59.97947502097618,
,0,6,0,5,0,-1,62,,train_dim1_1,4,30,,,,2,0,2,0,,,,,,,,,0,0,0,0,0,3,3,3,5,0,5,0,,,,,,,,,,,,,,,,,,,,,,,,,,,,,,,,,,,,,,,,,,,,,,,,,,,,,,,,,,,,,,,,30,,,,,,,,466.64058170001954,466.64058170001954,466.64058170001954,466.64058170001954,466.64058170001954,down,0.3431669999845326,0,0,0,99,0.16,-0.08,down,0.26030630012974143,,,,,,,,,,,,,,,,,,,,,,,,,,,,,,,,,,,,,,,,,,,,,,,,,,,,,,,,,,,,YEL750,train_y,blue_star,top_left,2025-04-03_17h10.01.834,HideSeek_v1,2022.2.5,59.97947502097618,
,0,6,0,5,0,-1,62,,train_dim1_1,4,30,,,,2,0,2,0,,,,,,,,,0,0,0,0,0,3,3,3,6,0,6,0,,,,,,,,,,,,,,,,,,,,,,,,,,,,,,,,,,,,,,,,,,,,,,,,,,,,,,,,,,,,,,,,30,,,,,,,,466.9910087999888,466.9910087999888,466.9910087999888,466.9910087999888,466.9910087999888,down,0.29300189996138215,0,0,0,99,0.16,-0.16,down,0.21978059993125498,,,,,,,,,,,,,,,,,,,,,,,,,,,,,,,,,,,,,,,,,,,,,,,,,,,,,,,,,,,,YEL750,train_y,blue_star,top_left,2025-04-03_17h10.01.834,HideSeek_v1,2022.2.5,59.97947502097618,
,0,6,0,5,0,-1,62,,train_dim1_1,4,30,,,,2,0,2,0,,,,,,,,,0,0,0,0,0,3,3,3,7,0,7,0,,,,,,,,,,,,,,,,,,,,,,,,,,,,,,,,,,,,,,,,,,,,,,,,,,,,,,,,,,,,,,,,30,,,,,,,,467.2899645001162,467.2899645001162,467.2899645001162,467.2899645001162,467.2899645001162,down,0.36026729992590845,0,0,0,99,0.16,-0.24,down,0.2879178000148386,,,,,,,,,,,,,,,,,,,,,,,,,,,,,,,,,,,,,,,,,,,,,,,,,,,,,,,,,,,,YEL750,train_y,blue_star,top_left,2025-04-03_17h10.01.834,HideSeek_v1,2022.2.5,59.97947502097618,
,0,6,0,5,0,-1,62,,train_dim1_1,4,30,,,,2,0,2,0,,,,,,,,,0,0,0,0,0,3,3,3,8,0,8,0,,,,,,,,,,,,,,,,,,,,,,,,,,,,,,,,,,,,,,,,,,,,,,,,,,,,,,,,,,,,,,,,30,,,,,,,,467.6580352000892,467.6580352000892,467.6580352000892,467.6580352000892,467.6580352000892,down,1.394023000029847,0,0,0,99,0.16,-0.32,down,1.3093962999992073,,,,,,,,,,,,,,,,,,,,,,,,,,,,,,,,,,,,,,,,,,,,,,,,,,,,,,,,,,,,YEL750,train_y,blue_star,top_left,2025-04-03_17h10.01.834,HideSeek_v1,2022.2.5,59.97947502097618,
,0,6,0,5,0,-1,62,,train_dim1_1,4,30,,,,2,0,2,0,,,,,,,,,0,0,0,0,0,3,3,3,9,0,9,0,,,,,,,,,,,,,,,,,,,,,,,,,,,,,,,,,,,,,,,,,,,,,,,,,,,,,,,,,,,,,,,,30,,,,,,,,469.05856440006755,469.05856440006755,469.05856440006755,469.05856440006755,469.05856440006755,left,1.244066399987787,0,0,0,99,0.08,-0.32,left,1.164066200144589,,,,,,,,,,,,,,,,,,,,,,,,,,,,,,,,,,,,,,,,,,,,,,,,,,,,,,,,,,,,YEL750,train_y,blue_star,top_left,2025-04-03_17h10.01.834,HideSeek_v1,2022.2.5,59.97947502097618,
,0,6,0,5,0,-1,62,,train_dim1_1,4,30,,,,2,0,2,0,,,,,,,,,0,0,0,0,0,3,3,3,10,0,10,0,,,,,,,,,,,,,,,,,,,,,,,,,,,,,,,,,,,,,,,,,,,,,,,,,,,,,,,,,,,,,,,,30,,,,,,,,470.3124087001197,470.3124087001197,470.3124087001197,470.3124087001197,470.3124087001197,left,0.44232509983703494,0,0,0,99,0.0,-0.32,left,0.35485000000335276,,,,,,,,,,,,,,,,,,,,,,,,,,,,,,,,,,,,,,,,,,,,,,,,,,,,,,,,,,,,YEL750,train_y,blue_star,top_left,2025-04-03_17h10.01.834,HideSeek_v1,2022.2.5,59.97947502097618,
,0,6,0,5,0,-1,62,,train_dim1_1,4,30,,,,2,0,2,0,,,,,,,,,0,0,0,0,0,3,3,3,11,0,11,0,,,,,,,,,,,,,,,,,,,,,,,,,,,,,,,,,,,,,,,,,,,,,,,,,,,,,,,,,,,,,,,,30,,,,,,,,470.7598613000009,470.7598613000009,470.7598613000009,470.7598613000009,470.7598613000009,left,0.3767211998347193,0,0,0,99,-0.08,-0.32,left,0.30335760000161827,,,,,,,,,,,,,,,,,,,,,,,,,,,,,,,,,,,,,,,,,,,,,,,,,,,,,,,,,,,,YEL750,train_y,blue_star,top_left,2025-04-03_17h10.01.834,HideSeek_v1,2022.2.5,59.97947502097618,
,0,6,0,5,0,-1,62,,train_dim1_1,4,30,,,,2,0,2,0,,,,,,,,,0,0,0,0,0,3,3,3,12,0,12,0,,,,,,,,,,,,,,,,,,,,,,,,,,,,,,,,,,,,,,,,,,,,,,,,,,,,,,,,,,,,,,,,30,,,,,,,,471.14404939999804,471.14404939999804,471.14404939999804,471.14404939999804,471.14404939999804,left,0.6268563000485301,0,0,0,99,-0.16,-0.32,left,0.5528775001876056,,,,,,,,,,,,,,,,,,,,,,,,,,,,,,,,,,,,,,,,,,,,,,,,,,,,,,,,,,,,YEL750,train_y,blue_star,top_left,2025-04-03_17h10.01.834,HideSeek_v1,2022.2.5,59.97947502097618,
,0,6,0,5,0,-1,62,,train_dim1_1,4,30,,,,2,0,2,0,,,,,,,,,0,0,0,0,0,3,3,3,13,0,13,0,,,,,,,,,,,,,,,,,,,,,,,,,,,,,,,,,,,,,,,,,,,,,,,,,,,,,,,,,,,,,,,,30,,,,,,,,471.7778879001271,471.7778879001271,471.7778879001271,471.7778879001271,471.7778879001271,up,1.6778881000354886,0,0,0,99,-0.16,-0.24,up,1.599881799891591,,,,,,,,,,,,,,,,,,,,,,,,,,,,,,,,,,,,,,,,,,,,,,,,,,,,,,,,,,,,YEL750,train_y,blue_star,top_left,2025-04-03_17h10.01.834,HideSeek_v1,2022.2.5,59.97947502097618,
,0,6,0,5,0,-1,62,,train_dim1_1,4,30,,,,2,0,2,0,,,,,,,,,0,0,0,0,0,3,3,3,14,0,14,0,,,,,,,,,,,,,,,,,,,,,,,,,,,,,,,,,,,,,,,,,,,,,,,,,,,,,,,,,,,,,,,,30,,,,,,,,473.4638531000819,473.4638531000819,473.4638531000819,473.4638531000819,473.4638531000819,return,1.6943785999901593,0,0,0,0,-0.16,-0.24,return,1.6157058000098914,-4,14,-0.16,-0.24,,,,,,,,,,,,,,,,,,,,,,,,,,,,,,,,,,,,,,,,,,,,,,,,,,,,,,,,YEL750,train_y,blue_star,top_left,2025-04-03_17h10.01.834,HideSeek_v1,2022.2.5,59.97947502097618,
,3,8,3,8,0,0,61,,train_dim1_1,5,30,,,,2,0,2,0,,,,,,,,,0,0,0,0,0,4,4,4,0,0,0,0,,,,,,,,,,,,,,,,,,,,,,,,,stimuli/alien_stimuli/61.png,,,,,,,,,,,,,,,,,,,,,,,,,,,,,stimuli/alien_stimuli/62.png,62,0,6,,,,,,,30,,,,,,,,488.1853316000197,488.1853316000197,488.1853316000197,488.1853316000197,488.1853316000197,return,2.037906799931079,1,0,0,1,0.08,0.24,return,1.9373218000400811,-4,14,0.08,0.24,486.6107634000946,488.1853316000197,-0.16,0,0.08,0.0,0.04,-0.16,-0.16,-0.16,0,476.7302504000254,476.7302504000254,476.7302504000254,476.7302504000254,476.7302504000254,476.7302504000254,476.7302504000254,476.7302504000254,476.71926046011504,9.993582899915054,return,9.85942370002158,,,,,,,,,,,,,,,,,,,,,,,,,,,,,,,,,YEL750,train_y,blue_star,top_left,2025-04-03_17h10.01.834,HideSeek_v1,2022.2.5,59.97947502097618,
,1,9,1,8,0,-1,62,,train_dim1_1,6,30,,,,2,0,2,0,,,,,,,,,0,0,0,0,0,5,5,5,0,0,0,0,,,,,,,,,,,,,,,,,,,,,,,,,stimuli/alien_stimuli/62.png,,,,,,,,,,,,,,,,,,,,,,,,,,,,,stimuli/alien_stimuli/61.png,61,3,7,,,,,,,30,,,,,,,,511.123209200101,511.123209200101,511.123209200101,511.123209200101,511.123209200101,right,4.203769499901682,1,0,0,99,0.0,0.32,right,4.096317100105807,,,,,509.5465359000955,511.123209200101,0.08,0.24,0.0,0.0,0.24,0.08,0.08,0.08,0.24,491.7716975000221,491.7716975000221,491.7716975000221,491.7716975000221,491.7716975000221,491.7716975000221,491.7716975000221,491.7716975000221,491.7649402600946,17.883631500182673,return,17.743363099871203,,,,,,,,,,,,,,,,,,,,,,,,,,,,,,,,,YEL750,train_y,blue_star,top_left,2025-04-03_17h10.01.834,HideSeek_v1,2022.2.5,59.97947502097618,
,1,9,1,8,0,-1,62,,train_dim1_1,6,30,,,,2,0,2,0,,,,,,,,,0,0,0,0,0,5,5,5,1,0,1,0,,,,,,,,,,,,,,,,,,,,,,,,,,,,,,,,,,,,,,,,,,,,,,,,,,,,,,,,,,,,,,,,30,,,,,,,,515.31534810015,515.31534810015,515.31534810015,515.31534810015,515.31534810015,right,0.8268148000352085,1,0,0,99,0.08,0.32,right,0.7387846000492573,,,,,,,,,,,,,,,,,,,,,,,,,,,,,,,,,,,,,,,,,,,,,,,,,,,,,,,,,,,,YEL750,train_y,blue_star,top_left,2025-04-03_17h10.01.834,HideSeek_v1,2022.2.5,59.97947502097618,
,1,9,1,8,0,-1,62,,train_dim1_1,6,30,,,,2,0,2,0,,,,,,,,,0,0,0,0,0,5,5,5,2,0,2,0,,,,,,,,,,,,,,,,,,,,,,,,,,,,,,,,,,,,,,,,,,,,,,,,,,,,,,,,,,,,,,,,30,,,,,,,,516.1490164001007,516.1490164001007,516.1490164001007,516.1490164001007,516.1490164001007,right,0.3926888001151383,1,0,0,99,0.16,0.32,right,0.31044929986819625,,,,,,,,,,,,,,,,,,,,,,,,,,,,,,,,,,,,,,,,,,,,,,,,,,,,,,,,,,,,YEL750,train_y,blue_star,top_left,2025-04-03_17h10.01.834,HideSeek_v1,2022.2.5,59.97947502097618,
,1,9,1,8,0,-1,62,,train_dim1_1,6,30,,,,2,0,2,0,,,,,,,,,0,0,0,0,0,5,5,5,3,0,3,0,,,,,,,,,,,,,,,,,,,,,,,,,,,,,,,,,,,,,,,,,,,,,,,,,,,,,,,,,,,,,,,,30,,,,,,,,516.5487383001018,516.5487383001018,516.5487383001018,516.5487383001018,516.5487383001018,return,0.8606338000390679,1,0,0,0,0.16,0.32,return,0.7777243000455201,-4,17,0.16,0.32,,,,,,,,,,,,,,,,,,,,,,,,,,,,,,,,,,,,,,,,,,,,,,,,,,,,,,,,YEL750,train_y,blue_star,top_left,2025-04-03_17h10.01.834,HideSeek_v1,2022.2.5,59.97947502097618,
,1,8,1,5,0,-3,64,,train_dim1_1,7,30,,,,2,0,2,0,,,,,,,,,0,0,0,0,0,6,6,6,0,0,0,0,,,,,,,,,,,,,,,,,,,,,,,,,stimuli/alien_stimuli/64.png,,,,,,,,,,,,,,,,,,,,,,,,,,,,,stimuli/alien_stimuli/62.png,62,1,8,,,,,,,30,,,,,,,,533.2304174001329,533.2304174001329,533.2304174001329,533.2304174001329,533.2304174001329,right,4.139373200014234,1,0,0,99,0.0,0.24,right,4.042630200041458,,,,,531.6650632000528,533.2304174001329,-0.08,0.24,0.08,0.0,0.28,-0.08,-0.08,-0.08,0.24,518.9836325000506,518.9836325000506,518.9836325000506,518.9836325000506,518.9836325000506,518.9836325000506,518.9836325000506,518.9836325000506,518.9709824601887,12.796126799890772,return,12.658110199961811,,,,,,,,,,,,,,,,,,,,,,,,,,,,,,,,,YEL750,train_y,blue_star,top_left,2025-04-03_17h10.01.834,HideSeek_v1,2022.2.5,59.97947502097618,
,1,8,1,5,0,-3,64,,train_dim1_1,7,30,,,,2,0,2,0,,,,,,,,,0,0,0,0,0,6,6,6,1,0,1,0,,,,,,,,,,,,,,,,,,,,,,,,,,,,,,,,,,,,,,,,,,,,,,,,,,,,,,,,,,,,,,,,30,,,,,,,,537.3889709999785,537.3889709999785,537.3889709999785,537.3889709999785,537.3889709999785,right,0.7425966998562217,1,0,0,99,0.08,0.24,right,0.6456934998277575,,,,,,,,,,,,,,,,,,,,,,,,,,,,,,,,,,,,,,,,,,,,,,,,,,,,,,,,,,,,YEL750,train_y,blue_star,top_left,2025-04-03_17h10.01.834,HideSeek_v1,2022.2.5,59.97947502097618,
,1,8,1,5,0,-3,64,,train_dim1_1,7,30,,,,2,0,2,0,,,,,,,,,0,0,0,0,0,6,6,6,2,0,2,0,,,,,,,,,,,,,,,,,,,,,,,,,,,,,,,,,,,,,,,,,,,,,,,,,,,,,,,,,,,,,,,,30,,,,,,,,538.1170718001667,538.1170718001667,538.1170718001667,538.1170718001667,538.1170718001667,right,0.6262079000007361,1,0,0,99,0.16,0.24,right,0.5392129998654127,,,,,,,,,,,,,,,,,,,,,,,,,,,,,,,,,,,,,,,,,,,,,,,,,,,,,,,,,,,,YEL750,train_y,blue_star,top_left,2025-04-03_17h10.01.834,HideSeek_v1,2022.2.5,59.97947502097618,
,1,8,1,5,0,-3,64,,train_dim1_1,7,30,,,,2,0,2,0,,,,,,,,,0,0,0,0,0,6,6,6,3,0,3,0,,,,,,,,,,,,,,,,,,,,,,,,,,,,,,,,,,,,,,,,,,,,,,,,,,,,,,,,,,,,,,,,30,,,,,,,,538.7507627001032,538.7507627001032,538.7507627001032,538.7507627001032,538.7507627001032,down,0.9426879999227822,1,0,0,99,0.16,0.15999999999999998,down,0.8613324998877943,,,,,,,,,,,,,,,,,,,,,,,,,,,,,,,,,,,,,,,,,,,,,,,,,,,,,,,,,,,,YEL750,train_y,blue_star,top_left,2025-04-03_17h10.01.834,HideSeek_v1,2022.2.5,59.97947502097618,
,1,8,1,5,0,-3,64,,train_dim1_1,7,30,,,,2,0,2,0,,,,,,,,,0,0,0,0,0,6,6,6,4,0,4,0,,,,,,,,,,,,,,,,,,,,,,,,,,,,,,,,,,,,,,,,,,,,,,,,,,,,,,,,,,,,,,,,30,,,,,,,,539.7010900001042,539.7010900001042,539.7010900001042,539.7010900001042,539.7010900001042,down,0.39349599997512996,1,0,0,99,0.16,0.07999999999999997,down,0.31424239999614656,,,,,,,,,,,,,,,,,,,,,,,,,,,,,,,,,,,,,,,,,,,,,,,,,,,,,,,,,,,,YEL750,train_y,blue_star,top_left,2025-04-03_17h10.01.834,HideSeek_v1,2022.2.5,59.97947502097618,
,1,8,1,5,0,-3,64,,train_dim1_1,7,30,,,,2,0,2,0,,,,,,,,,0,0,0,0,0,6,6,6,5,0,5,0,,,,,,,,,,,,,,,,,,,,,,,,,,,,,,,,,,,,,,,,,,,,,,,,,,,,,,,,,,,,,,,,30,,,,,,,,540.1016183001921,540.1016183001921,540.1016183001921,540.1016183001921,540.1016183001921,down,0.3755628999788314,1,0,0,99,0.16,-2.7755575615628914e-17,down,0.2918047998100519,,,,,,,,,,,,,,,,,,,,,,,,,,,,,,,,,,,,,,,,,,,,,,,,,,,,,,,,,,,,YEL750,train_y,blue_star,top_left,2025-04-03_17h10.01.834,HideSeek_v1,2022.2.5,59.97947502097618,
,1,8,1,5,0,-3,64,,train_dim1_1,7,30,,,,2,0,2,0,,,,,,,,,0,0,0,0,0,6,6,6,6,0,6,0,,,,,,,,,,,,,,,,,,,,,,,,,,,,,,,,,,,,,,,,,,,,,,,,,,,,,,,,,,,,,,,,30,,,,,,,,540.4842305001803,540.4842305001803,540.4842305001803,540.4842305001803,540.4842305001803,left,1.4777033000718802,1,0,0,99,0.08,-2.7755575615628914e-17,left,1.4051831001415849,,,,,,,,,,,,,,,,,,,,,,,,,,,,,,,,,,,,,,,,,,,,,,,,,,,,,,,,,,,,YEL750,train_y,blue_star,top_left,2025-04-03_17h10.01.834,HideSeek_v1,2022.2.5,59.97947502097618,
,1,8,1,5,0,-3,64,,train_dim1_1,7,30,,,,2,0,2,0,,,,,,,,,0,0,0,0,0,6,6,6,7,0,7,0,,,,,,,,,,,,,,,,,,,,,,,,,,,,,,,,,,,,,,,,,,,,,,,,,,,,,,,,,,,,,,,,30,,,,,,,,541.9691478000022,541.9691478000022,541.9691478000022,541.9691478000022,541.9691478000022,left,0.3264740000013262,1,0,0,99,0.0,-2.7755575615628914e-17,left,0.24162190011702478,,,,,,,,,,,,,,,,,,,,,,,,,,,,,,,,,,,,,,,,,,,,,,,,,,,,,,,,,,,,YEL750,train_y,blue_star,top_left,2025-04-03_17h10.01.834,HideSeek_v1,2022.2.5,59.97947502097618,
,1,8,1,5,0,-3,64,,train_dim1_1,7,30,,,,2,0,2,0,,,,,,,,,0,0,0,0,0,6,6,6,8,0,8,0,,,,,,,,,,,,,,,,,,,,,,,,,,,,,,,,,,,,,,,,,,,,,,,,,,,,,,,,,,,,,,,,30,,,,,,,,542.3026146001648,542.3026146001648,542.3026146001648,542.3026146001648,542.3026146001648,left,0.2766551999375224,1,0,0,99,-0.08,-2.7755575615628914e-17,left,0.18993719993159175,,,,,,,,,,,,,,,,,,,,,,,,,,,,,,,,,,,,,,,,,,,,,,,,,,,,,,,,,,,,YEL750,train_y,blue_star,top_left,2025-04-03_17h10.01.834,HideSeek_v1,2022.2.5,59.97947502097618,
,1,8,1,5,0,-3,64,,train_dim1_1,7,30,,,,2,0,2,0,,,,,,,,,0,0,0,0,0,6,6,6,9,0,9,0,,,,,,,,,,,,,,,,,,,,,,,,,,,,,,,,,,,,,,,,,,,,,,,,,,,,,,,,,,,,,,,,30,,,,,,,,542.5870144001674,542.5870144001674,542.5870144001674,542.5870144001674,542.5870144001674,up,1.327650099992752,1,0,0,99,-0.08,0.07999999999999997,up,1.2496832001488656,,,,,,,,,,,,,,,,,,,,,,,,,,,,,,,,,,,,,,,,,,,,,,,,,,,,,,,,,,,,YEL750,train_y,blue_star,top_left,2025-04-03_17h10.01.834,HideSeek_v1,2022.2.5,59.97947502097618,
,1,8,1,5,0,-3,64,,train_dim1_1,7,30,,,,2,0,2,0,,,,,,,,,0,0,0,0,0,6,6,6,10,0,10,0,,,,,,,,,,,,,,,,,,,,,,,,,,,,,,,,,,,,,,,,,,,,,,,,,,,,,,,,,,,,,,,,30,,,,,,,,543.9234261000529,543.9234261000529,543.9234261000529,543.9234261000529,543.9234261000529,return,0.3919536001048982,1,1,0,0,-0.08,0.07999999999999997,return,0.31211689999327064,-6,17,-0.08,0.07999999999999997,,,,,,,,,,,,,,,,,,,,,,,,,,,,,,,,,,,,,,,,,,,,,,,,,,,,,,,,YEL750,train_y,blue_star,top_left,2025-04-03_17h10.01.834,HideSeek_v1,2022.2.5,59.97947502097618,
,4,7,4,7,0,0,61,,train_dim1_1,8,30,,,,2,0,2,0,,,,,,,,,0,0,0,0,0,7,7,7,0,0,0,0,,,,,,,,,,,,,,,,,,,,,,,,,stimuli/alien_stimuli/61.png,,,,,,,,,,,,,,,,,,,,,,,,,,,,,stimuli/alien_stimuli/64.png,64,1,9,,,,,,,30,,,,,,,,578.390907100169,578.390907100169,578.390907100169,578.390907100169,578.390907100169,down,1.88889169995673,1,1,0,99,0.16,0.08,down,1.7894576000981033,,,,,576.8189779000822,578.390907100169,-0.08,0,0.24,0.0,0.12,-0.08,-0.08,-0.08,0,545.8825876000337,545.8825876000337,545.8825876000337,545.8825876000337,545.8825876000337,545.8825876000337,545.8825876000337,545.8825876000337,545.8767986601451,31.044504899997264,return,30.904723100131378,,,,,,,,,,,,,,,,,,,,,,,,,,,,,,,,,YEL750,train_y,blue_star,top_left,2025-04-03_17h10.01.834,HideSeek_v1,2022.2.5,59.97947502097618,
,4,7,4,7,0,0,61,,train_dim1_1,8,30,,,,2,0,2,0,,,,,,,,,0,0,0,0,0,7,7,7,1,0,1,0,,,,,,,,,,,,,,,,,,,,,,,,,,,,,,,,,,,,,,,,,,,,,,,,,,,,,,,,,,,,,,,,30,,,,,,,,580.2700197000522,580.2700197000522,580.2700197000522,580.2700197000522,580.2700197000522,down,0.4750145999714732,1,1,0,99,0.16,0.0,down,0.4024550998583436,,,,,,,,,,,,,,,,,,,,,,,,,,,,,,,,,,,,,,,,,,,,,,,,,,,,,,,,,,,,YEL750,train_y,blue_star,top_left,2025-04-03_17h10.01.834,HideSeek_v1,2022.2.5,59.97947502097618,
,4,7,4,7,0,0,61,,train_dim1_1,8,30,,,,2,0,2,0,,,,,,,,,0,0,0,0,0,7,7,7,2,0,2,0,,,,,,,,,,,,,,,,,,,,,,,,,,,,,,,,,,,,,,,,,,,,,,,,,,,,,,,,,,,,,,,,30,,,,,,,,580.7512023001909,580.7512023001909,580.7512023001909,580.7512023001909,580.7512023001909,down,0.47686769999563694,1,1,0,99,0.16,-0.08,down,0.39145039999857545,,,,,,,,,,,,,,,,,,,,,,,,,,,,,,,,,,,,,,,,,,,,,,,,,,,,,,,,,,,,YEL750,train_y,blue_star,top_left,2025-04-03_17h10.01.834,HideSeek_v1,2022.2.5,59.97947502097618,
,4,7,4,7,0,0,61,,train_dim1_1,8,30,,,,2,0,2,0,,,,,,,,,0,0,0,0,0,7,7,7,3,0,3,0,,,,,,,,,,,,,,,,,,,,,,,,,,,,,,,,,,,,,,,,,,,,,,,,,,,,,,,,,,,,,,,,30,,,,,,,,581.2359370000195,581.2359370000195,581.2359370000195,581.2359370000195,581.2359370000195,down,1.2774913001339883,1,1,0,99,0.16,-0.16,down,1.1983214998617768,,,,,,,,,,,,,,,,,,,,,,,,,,,,,,,,,,,,,,,,,,,,,,,,,,,,,,,,,,,,YEL750,train_y,blue_star,top_left,2025-04-03_17h10.01.834,HideSeek_v1,2022.2.5,59.97947502097618,
,4,7,4,7,0,0,61,,train_dim1_1,8,30,,,,2,0,2,0,,,,,,,,,0,0,0,0,0,7,7,7,4,0,4,0,,,,,,,,,,,,,,,,,,,,,,,,,,,,,,,,,,,,,,,,,,,,,,,,,,,,,,,,,,,,,,,,30,,,,,,,,582.5209841001779,582.5209841001779,582.5209841001779,582.5209841001779,582.5209841001779,down,0.30935200001113117,1,1,0,99,0.16,-0.24,down,0.23314040014520288,,,,,,,,,,,,,,,,,,,,,,,,,,,,,,,,,,,,,,,,,,,,,,,,,,,,,,,,,,,,YEL750,train_y,blue_star,top_left,2025-04-03_17h10.01.834,HideSeek_v1,2022.2.5,59.97947502097618,
,4,7,4,7,0,0,61,,train_dim1_1,8,30,,,,2,0,2,0,,,,,,,,,0,0,0,0,0,7,7,7,5,0,5,0,,,,,,,,,,,,,,,,,,,,,,,,,,,,,,,,,,,,,,,,,,,,,,,,,,,,,,,,,,,,,,,,30,,,,,,,,582.8391065001488,582.8391065001488,582.8391065001488,582.8391065001488,582.8391065001488,return,1.0770729000214487,1,0,0,0,0.16,-0.24,return,1.0019773999229074,-11,17,0.16,-0.24,,,,,,,,,,,,,,,,,,,,,,,,,,,,,,,,,,,,,,,,,,,,,,,,,,,,,,,,YEL750,train_y,blue_star,top_left,2025-04-03_17h10.01.834,HideSeek_v1,2022.2.5,59.97947502097618,
,4,8,4,4,0,-4,65,,train_dim1_1,9,30,,,,2,0,2,0,,,,,,,,,0,0,0,0,0,8,8,8,0,0,0,0,,,,,,,,,,,,,,,,,,,,,,,,,stimuli/alien_stimuli/65.png,,,,,,,,,,,,,,,,,,,,,,,,,,,,,stimuli/alien_stimuli/61.png,61,4,10,,,,,,,30,,,,,,,,596.406674799975,596.406674799975,596.406674799975,596.406674799975,596.406674799975,down,10.928485000040382,1,0,0,99,0.16,0.15999999999999998,down,10.822943800128996,,,,,594.8340488001704,596.406674799975,0.16,0.16,0.0,0.0,0.16,0.16,0.16,0.16,0.16,585.4892594001722,585.4892594001722,585.4892594001722,585.4892594001722,585.4892594001722,585.4892594001722,585.4892594001722,585.4892594001722,585.4764075601706,9.46013869997114,return,9.32335690013133,,,,,,,,,,,,,,,,,,,,,,,,,,,,,,,,,YEL750,train_y,blue_star,top_left,2025-04-03_17h10.01.834,HideSeek_v1,2022.2.5,59.97947502097618,
,4,8,4,4,0,-4,65,,train_dim1_1,9,30,,,,2,0,2,0,,,,,,,,,0,0,0,0,0,8,8,8,1,0,1,0,,,,,,,,,,,,,,,,,,,,,,,,,,,,,,,,,,,,,,,,,,,,,,,,,,,,,,,,,,,,,,,,30,,,,,,,,607.3451830002014,607.3451830002014,607.3451830002014,607.3451830002014,607.3451830002014,down,0.3264136998914182,1,0,0,99,0.16,0.07999999999999997,down,0.233647899935022,,,,,,,,,,,,,,,,,,,,,,,,,,,,,,,,,,,,,,,,,,,,,,,,,,,,,,,,,,,,YEL750,train_y,blue_star,top_left,2025-04-03_17h10.01.834,HideSeek_v1,2022.2.5,59.97947502097618,
,4,8,4,4,0,-4,65,,train_dim1_1,9,30,,,,2,0,2,0,,,,,,,,,0,0,0,0,0,8,8,8,2,0,2,0,,,,,,,,,,,,,,,,,,,,,,,,,,,,,,,,,,,,,,,,,,,,,,,,,,,,,,,,,,,,,,,,30,,,,,,,,607.657713800203,607.657713800203,607.657713800203,607.657713800203,607.657713800203,down,0.5099625000730157,1,0,0,99,0.16,-2.7755575615628914e-17,down,0.42492199991829693,,,,,,,,,,,,,,,,,,,,,,,,,,,,,,,,,,,,,,,,,,,,,,,,,,,,,,,,,,,,YEL750,train_y,blue_star,top_left,2025-04-03_17h10.01.834,HideSeek_v1,2022.2.5,59.97947502097618,
,4,8,4,4,0,-4,65,,train_dim1_1,9,30,,,,2,0,2,0,,,,,,,,,0,0,0,0,0,8,8,8,3,0,3,0,,,,,,,,,,,,,,,,,,,,,,,,,,,,,,,,,,,,,,,,,,,,,,,,,,,,,,,,,,,,,,,,30,,,,,,,,608.1752687001135,608.1752687001135,608.1752687001135,608.1752687001135,608.1752687001135,down,0.49379419977776706,1,0,0,99,0.16,-0.08000000000000003,down,0.4114438001997769,,,,,,,,,,,,,,,,,,,,,,,,,,,,,,,,,,,,,,,,,,,,,,,,,,,,,,,,,,,,YEL750,train_y,blue_star,top_left,2025-04-03_17h10.01.834,HideSeek_v1,2022.2.5,59.97947502097618,
,4,8,4,4,0,-4,65,,train_dim1_1,9,30,,,,2,0,2,0,,,,,,,,,0,0,0,0,0,8,8,8,4,0,4,0,,,,,,,,,,,,,,,,,,,,,,,,,,,,,,,,,,,,,,,,,,,,,,,,,,,,,,,,,,,,,,,,30,,,,,,,,608.6783577001188,608.6783577001188,608.6783577001188,608.6783577001188,608.6783577001188,down,0.5579473001416773,1,0,0,99,0.16,-0.16000000000000003,down,0.4827063998673111,,,,,,,,,,,,,,,,,,,,,,,,,,,,,,,,,,,,,,,,,,,,,,,,,,,,,,,,,,,,YEL750,train_y,blue_star,top_left,2025-04-03_17h10.01.834,HideSeek_v1,2022.2.5,59.97947502097618,
,4,8,4,4,0,-4,65,,train_dim1_1,9,30,,,,2,0,2,0,,,,,,,,,0,0,0,0,0,8,8,8,5,0,5,0,,,,,,,,,,,,,,,,,,,,,,,,,,,,,,,,,,,,,,,,,,,,,,,,,,,,,,,,,,,,,,,,30,,,,,,,,609.2416642000899,609.2416642000899,609.2416642000899,609.2416642000899,609.2416642000899,down,1.0272872000932693,1,0,0,99,0.16,-0.24000000000000005,down,0.9501286000013351,,,,,,,,,,,,,,,,,,,,,,,,,,,,,,,,,,,,,,,,,,,,,,,,,,,,,,,,,,,,YEL750,train_y,blue_star,top_left,2025-04-03_17h10.01.834,HideSeek_v1,2022.2.5,59.97947502097618,
,4,8,4,4,0,-4,65,,train_dim1_1,9,30,,,,2,0,2,0,,,,,,,,,0,0,0,0,0,8,8,8,6,0,6,0,,,,,,,,,,,,,,,,,,,,,,,,,,,,,,,,,,,,,,,,,,,,,,,,,,,,,,,,,,,,,,,,30,,,,,,,,610.2760537001304,610.2760537001304,610.2760537001304,610.2760537001304,610.2760537001304,return,0.7104793000034988,1,0,0,0,0.16,-0.24000000000000005,return,0.6280302000232041,-17,17,0.16,-0.24000000000000005,,,,,,,,,,,,,,,,,,,,,,,,,,,,,,,,,,,,,,,,,,,,,,,,,,,,,,,,YEL750,train_y,blue_star,top_left,2025-04-03_17h10.01.834,HideSeek_v1,2022.2.5,59.97947502097618,
,2,7,2,2,0,-5,66,,train_dim1_1,10,30,,,,2,0,2,0,,,,,,,,,0,0,0,0,0,9,9,9,0,0,0,0,,,,,,,,,,,,,,,,,,,,,,,,,stimuli/alien_stimuli/66.png,,,,,,,,,,,,,,,,,,,,,,,,,,,,,stimuli/alien_stimuli/65.png,65,4,11,,,,,,,30,,,,,,,,618.5105642001145,618.5105642001145,618.5105642001145,618.5105642001145,618.5105642001145,down,2.70257980003953,1,0,0,99,0,0.08,down,2.6237480000127107,,,,,616.9523957001511,618.5105642001145,0.16,-0.08,0.32,0.0,0.07999999999999999,0.16,0.16,0.16,-0.08,612.5636193000246,612.5636193000246,612.5636193000246,612.5636193000246,612.5636193000246,612.5636193000246,612.5636193000246,612.5636193000246,612.5654119399842,4.505912099964917,return,4.367155599873513,,,,,,,,,,,,,,,,,,,,,,,,,,,,,,,,,YEL750,train_y,blue_star,top_left,2025-04-03_17h10.01.834,HideSeek_v1,2022.2.5,59.97947502097618,
,2,7,2,2,0,-5,66,,train_dim1_1,10,30,,,,2,0,2,0,,,,,,,,,0,0,0,0,0,9,9,9,1,0,1,0,,,,,,,,,,,,,,,,,,,,,,,,,,,,,,,,,,,,,,,,,,,,,,,,,,,,,,,,,,,,,,,,30,,,,,,,,621.2217965000309,621.2217965000309,621.2217965000309,621.2217965000309,621.2217965000309,down,0.44102509994991124,1,0,0,99,0,0.0,down,0.36634010006673634,,,,,,,,,,,,,,,,,,,,,,,,,,,,,,,,,,,,,,,,,,,,,,,,,,,,,,,,,,,,YEL750,train_y,blue_star,top_left,2025-04-03_17h10.01.834,HideSeek_v1,2022.2.5,59.97947502097618,
,2,7,2,2,0,-5,66,,train_dim1_1,10,30,,,,2,0,2,0,,,,,,,,,0,0,0,0,0,9,9,9,2,0,2,0,,,,,,,,,,,,,,,,,,,,,,,,,,,,,,,,,,,,,,,,,,,,,,,,,,,,,,,,,,,,,,,,30,,,,,,,,621.6730961999856,621.6730961999856,621.6730961999856,621.6730961999856,621.6730961999856,down,0.30773009988479316,1,0,0,99,0,-0.08,down,0.22919149999506772,,,,,,,,,,,,,,,,,,,,,,,,,,,,,,,,,,,,,,,,,,,,,,,,,,,,,,,,,,,,YEL750,train_y,blue_star,top_left,2025-04-03_17h10.01.834,HideSeek_v1,2022.2.5,59.97947502097618,
,2,7,2,2,0,-5,66,,train_dim1_1,10,30,,,,2,0,2,0,,,,,,,,,0,0,0,0,0,9,9,9,3,0,3,0,,,,,,,,,,,,,,,,,,,,,,,,,,,,,,,,,,,,,,,,,,,,,,,,,,,,,,,,,,,,,,,,30,,,,,,,,621.9880220000632,621.9880220000632,621.9880220000632,621.9880220000632,621.9880220000632,down,0.5750842001289129,1,0,0,99,0,-0.16,down,0.48796349996700883,,,,,,,,,,,,,,,,,,,,,,,,,,,,,,,,,,,,,,,,,,,,,,,,,,,,,,,,,,,,YEL750,train_y,blue_star,top_left,2025-04-03_17h10.01.834,HideSeek_v1,2022.2.5,59.97947502097618,
,2,7,2,2,0,-5,66,,train_dim1_1,10,30,,,,2,0,2,0,,,,,,,,,0,0,0,0,0,9,9,9,4,0,4,0,,,,,,,,,,,,,,,,,,,,,,,,,,,,,,,,,,,,,,,,,,,,,,,,,,,,,,,,,,,,,,,,30,,,,,,,,622.5694441001397,622.5694441001397,622.5694441001397,622.5694441001397,622.5694441001397,down,0.5934735999908298,1,0,0,99,0,-0.24,down,0.5122458001133054,,,,,,,,,,,,,,,,,,,,,,,,,,,,,,,,,,,,,,,,,,,,,,,,,,,,,,,,,,,,YEL750,train_y,blue_star,top_left,2025-04-03_17h10.01.834,HideSeek_v1,2022.2.5,59.97947502097618,
,2,7,2,2,0,-5,66,,train_dim1_1,10,30,,,,2,0,2,0,,,,,,,,,0,0,0,0,0,9,9,9,5,0,5,0,,,,,,,,,,,,,,,,,,,,,,,,,,,,,,,,,,,,,,,,,,,,,,,,,,,,,,,,,,,,,,,,30,,,,,,,,623.1709237999748,623.1709237999748,623.1709237999748,623.1709237999748,623.1709237999748,down,4.362715000053868,1,0,0,99,0,-0.32,down,4.28158579999581,,,,,,,,,,,,,,,,,,,,,,,,,,,,,,,,,,,,,,,,,,,,,,,,,,,,,,,,,,,,YEL750,train_y,blue_star,top_left,2025-04-03_17h10.01.834,HideSeek_v1,2022.2.5,59.97947502097618,
,2,7,2,2,0,-5,66,,train_dim1_1,10,30,,,,2,0,2,0,,,,,,,,,0,0,0,0,0,9,9,9,6,0,6,0,,,,,,,,,,,,,,,,,,,,,,,,,,,,,,,,,,,,,,,,,,,,,,,,,,,,,,,,,,,,,,,,30,,,,,,,,627.5407405002043,627.5407405002043,627.5407405002043,627.5407405002043,627.5407405002043,up,5.530982800060883,1,0,0,99,0,-0.24,up,5.4510049999225885,,,,,,,,,,,,,,,,,,,,,,,,,,,,,,,,,,,,,,,,,,,,,,,,,,,,,,,,,,,,YEL750,train_y,blue_star,top_left,2025-04-03_17h10.01.834,HideSeek_v1,2022.2.5,59.97947502097618,
,2,7,2,2,0,-5,66,,train_dim1_1,10,30,,,,2,0,2,0,,,,,,,,,0,0,0,0,0,9,9,9,7,0,7,0,,,,,,,,,,,,,,,,,,,,,,,,,,,,,,,,,,,,,,,,,,,,,,,,,,,,,,,,,,,,,,,,30,,,,,,,,633.0793004001025,633.0793004001025,633.0793004001025,633.0793004001025,633.0793004001025,return,1.5277179998811334,2,0,0,1,0,-0.24,return,1.452478300081566,-22,17,0,-0.24,,,,,,,,,,,,,,,,,,,,,,,,,,,,,,,,,,,,,,,,,,,,,,,,,,,,,,,,YEL750,train_y,blue_star,top_left,2025-04-03_17h10.01.834,HideSeek_v1,2022.2.5,59.97947502097618,
,4,6,4,2,0,-4,65,,train_dim1_1,11,30,,,,2,0,2,0,,,,,,,,,0,0,0,0,0,10,10,10,0,0,0,0,,,,,,,,,,,,,,,,,,,,,,,,,stimuli/alien_stimuli/65.png,,,,,,,,,,,,,,,,,,,,,,,,,,,,,stimuli/alien_stimuli/66.png,66,2,12,,,,,,,30,,,,,,,,643.848705700133,643.848705700133,643.848705700133,643.848705700133,643.848705700133,down,2.602011499926448,2,0,0,99,0.16,0.0,down,2.5256564000155777,,,,,642.2901763000991,643.848705700133,0,-0.24,0.4,0.0,-0.039999999999999994,0,0.0,0,-0.24,636.1800695999991,636.1800695999991,636.1800695999991,636.1800695999991,636.1800695999991,636.1800695999991,636.1800695999991,636.1800695999991,636.1682930601528,6.223911699838936,return,6.082245600176975,,,,,,,,,,,,,,,,,,,,,,,,,,,,,,,,,YEL750,train_y,blue_star,top_left,2025-04-03_17h10.01.834,HideSeek_v1,2022.2.5,59.97947502097618,
,4,6,4,2,0,-4,65,,train_dim1_1,11,30,,,,2,0,2,0,,,,,,,,,0,0,0,0,0,10,10,10,1,0,1,0,,,,,,,,,,,,,,,,,,,,,,,,,,,,,,,,,,,,,,,,,,,,,,,,,,,,,,,,,,,,,,,,30,,,,,,,,646.4607733001467,646.4607733001467,646.4607733001467,646.4607733001467,646.4607733001467,down,0.3904347000643611,2,0,0,99,0.16,-0.08,down,0.3021187998820096,,,,,,,,,,,,,,,,,,,,,,,,,,,,,,,,,,,,,,,,,,,,,,,,,,,,,,,,,,,,YEL750,train_y,blue_star,top_left,2025-04-03_17h10.01.834,HideSeek_v1,2022.2.5,59.97947502097618,
,4,6,4,2,0,-4,65,,train_dim1_1,11,30,,,,2,0,2,0,,,,,,,,,0,0,0,0,0,10,10,10,2,0,2,0,,,,,,,,,,,,,,,,,,,,,,,,,,,,,,,,,,,,,,,,,,,,,,,,,,,,,,,,,,,,,,,,30,,,,,,,,646.8569380000699,646.8569380000699,646.8569380000699,646.8569380000699,646.8569380000699,down,0.5601572000887245,2,0,0,99,0.16,-0.16,down,0.47755499999038875,,,,,,,,,,,,,,,,,,,,,,,,,,,,,,,,,,,,,,,,,,,,,,,,,,,,,,,,,,,,YEL750,train_y,blue_star,top_left,2025-04-03_17h10.01.834,HideSeek_v1,2022.2.5,59.97947502097618,
,4,6,4,2,0,-4,65,,train_dim1_1,11,30,,,,2,0,2,0,,,,,,,,,0,0,0,0,0,10,10,10,3,0,3,0,,,,,,,,,,,,,,,,,,,,,,,,,,,,,,,,,,,,,,,,,,,,,,,,,,,,,,,,,,,,,,,,30,,,,,,,,647.4240007000044,647.4240007000044,647.4240007000044,647.4240007000044,647.4240007000044,down,0.5438099999446422,2,0,0,99,0.16,-0.24,down,0.45635110000148416,,,,,,,,,,,,,,,,,,,,,,,,,,,,,,,,,,,,,,,,,,,,,,,,,,,,,,,,,,,,YEL750,train_y,blue_star,top_left,2025-04-03_17h10.01.834,HideSeek_v1,2022.2.5,59.97947502097618,
,4,6,4,2,0,-4,65,,train_dim1_1,11,30,,,,2,0,2,0,,,,,,,,,0,0,0,0,0,10,10,10,4,0,4,0,,,,,,,,,,,,,,,,,,,,,,,,,,,,,,,,,,,,,,,,,,,,,,,,,,,,,,,,,,,,,,,,30,,,,,,,,647.9787453999743,647.9787453999743,647.9787453999743,647.9787453999743,647.9787453999743,return,0.740532600088045,3,0,0,1,0.16,-0.24,return,0.659141100011766,-26,17,0.16,-0.24,,,,,,,,,,,,,,,,,,,,,,,,,,,,,,,,,,,,,,,,,,,,,,,,,,,,,,,,YEL750,train_y,blue_star,top_left,2025-04-03_17h10.01.834,HideSeek_v1,2022.2.5,59.97947502097618,
,0,5,0,5,0,0,61,,train_dim1_1,12,30,,,,2,0,2,0,,,,,,,,,0,0,0,0,0,11,11,11,0,0,0,0,,,,,,,,,,,,,,,,,,,,,,,,,stimuli/alien_stimuli/61.png,,,,,,,,,,,,,,,,,,,,,,,,,,,,,stimuli/alien_stimuli/65.png,65,4,13,,,,,,,30,,,,,,,,656.6854890000541,656.6854890000541,656.6854890000541,656.6854890000541,656.6854890000541,down,2.5114559000357985,3,0,0,99,-0.16,-0.08,down,2.428561400156468,,,,,655.1174109000713,656.6854890000541,0.16,-0.24,0.32,0.0,-0.07999999999999999,0.16,0.16,0.16,-0.24,650.2931125999894,650.2931125999894,650.2931125999894,650.2931125999894,650.2931125999894,650.2931125999894,650.2931125999894,650.2931125999894,650.2801184601849,4.939354100031778,return,4.800125800073147,,,,,,,,,,,,,,,,,,,,,,,,,,,,,,,,,YEL750,train_y,blue_star,top_left,2025-04-03_17h10.01.834,HideSeek_v1,2022.2.5,59.97947502097618,
,0,5,0,5,0,0,61,,train_dim1_1,12,30,,,,2,0,2,0,,,,,,,,,0,0,0,0,0,11,11,11,1,0,1,0,,,,,,,,,,,,,,,,,,,,,,,,,,,,,,,,,,,,,,,,,,,,,,,,,,,,,,,,,,,,,,,,30,,,,,,,,659.2040769001469,659.2040769001469,659.2040769001469,659.2040769001469,659.2040769001469,down,0.6911144000478089,3,0,0,99,-0.16,-0.16,down,0.6157979001291096,,,,,,,,,,,,,,,,,,,,,,,,,,,,,,,,,,,,,,,,,,,,,,,,,,,,,,,,,,,,YEL750,train_y,blue_star,top_left,2025-04-03_17h10.01.834,HideSeek_v1,2022.2.5,59.97947502097618,
,0,5,0,5,0,0,61,,train_dim1_1,12,30,,,,2,0,2,0,,,,,,,,,0,0,0,0,0,11,11,11,2,0,2,0,,,,,,,,,,,,,,,,,,,,,,,,,,,,,,,,,,,,,,,,,,,,,,,,,,,,,,,,,,,,,,,,30,,,,,,,,659.9013757000212,659.9013757000212,659.9013757000212,659.9013757000212,659.9013757000212,up,1.8278697999194264,3,0,0,99,-0.16,-0.08,up,1.7527158001903445,,,,,,,,,,,,,,,,,,,,,,,,,,,,,,,,,,,,,,,,,,,,,,,,,,,,,,,,,,,,YEL750,train_y,blue_star,top_left,2025-04-03_17h10.01.834,HideSeek_v1,2022.2.5,59.97947502097618,
,0,5,0,5,0,0,61,,train_dim1_1,12,30,,,,2,0,2,0,,,,,,,,,0,0,0,0,0,11,11,11,3,0,3,0,,,,,,,,,,,,,,,,,,,,,,,,,,,,,,,,,,,,,,,,,,,,,,,,,,,,,,,,,,,,,,,,30,,,,,,,,661.7372423000634,661.7372423000634,661.7372423000634,661.7372423000634,661.7372423000634,return,1.0263946000486612,3,1,0,0,-0.16,-0.08,return,0.940397199941799,-27,17,-0.16,-0.08,,,,,,,,,,,,,,,,,,,,,,,,,,,,,,,,,,,,,,,,,,,,,,,,,,,,,,,,YEL750,train_y,blue_star,top_left,2025-04-03_17h10.01.834,HideSeek_v1,2022.2.5,59.97947502097618,
,4,8,4,7,0,-1,62,,train_dim1_1,13,30,,,,2,0,2,0,,,,,,,,,0,0,0,0,0,12,12,12,0,0,0,0,,,,,,,,,,,,,,,,,,,,,,,,,stimuli/alien_stimuli/62.png,,,,,,,,,,,,,,,,,,,,,,,,,,,,,stimuli/alien_stimuli/61.png,61,0,14,,,,,,,30,,,,,,,,670.2195455001201,670.2195455001201,670.2195455001201,670.2195455001201,670.2195455001201,down,3.6710292000789195,3,1,0,99,0.16,0.15999999999999998,down,3.595901600085199,,,,,668.6619818999898,670.2195455001201,-0.16,0,0.0,0.0,0.0,-0.16,-0.16,-0.16,0,664.3398502001073,664.3398502001073,664.3398502001073,664.3398502001073,664.3398502001073,664.3398502001073,664.3398502001073,664.3398502001073,664.3252162601566,4.438917899969965,return,4.294854500098154,,,,,,,,,,,,,,,,,,,,,,,,,,,,,,,,,YEL750,train_y,blue_star,top_left,2025-04-03_17h10.01.834,HideSeek_v1,2022.2.5,59.97947502097618,
,4,8,4,7,0,-1,62,,train_dim1_1,13,30,,,,2,0,2,0,,,,,,,,,0,0,0,0,0,12,12,12,1,0,1,0,,,,,,,,,,,,,,,,,,,,,,,,,,,,,,,,,,,,,,,,,,,,,,,,,,,,,,,,,,,,,,,,30,,,,,,,,673.8976218001917,673.8976218001917,673.8976218001917,673.8976218001917,673.8976218001917,down,0.5591059001162648,3,1,0,99,0.16,0.07999999999999997,down,0.473952499916777,,,,,,,,,,,,,,,,,,,,,,,,,,,,,,,,,,,,,,,,,,,,,,,,,,,,,,,,,,,,YEL750,train_y,blue_star,top_left,2025-04-03_17h10.01.834,HideSeek_v1,2022.2.5,59.97947502097618,
,4,8,4,7,0,-1,62,,train_dim1_1,13,30,,,,2,0,2,0,,,,,,,,,0,0,0,0,0,12,12,12,2,0,2,0,,,,,,,,,,,,,,,,,,,,,,,,,,,,,,,,,,,,,,,,,,,,,,,,,,,,,,,,,,,,,,,,30,,,,,,,,674.4659148000646,674.4659148000646,674.4659148000646,674.4659148000646,674.4659148000646,return,0.7242831999901682,3,1,0,0,0.16,0.07999999999999997,return,0.6405914998613298,-29,17,0.16,0.07999999999999997,,,,,,,,,,,,,,,,,,,,,,,,,,,,,,,,,,,,,,,,,,,,,,,,,,,,,,,,YEL750,train_y,blue_star,top_left,2025-04-03_17h10.01.834,HideSeek_v1,2022.2.5,59.97947502097618,
,2,7,2,2,0,-5,66,,train_dim1_1,14,30,,,,2,0,2,0,,,,,,,,,0,0,0,0,0,13,13,13,0,0,0,0,,,,,,,,,,,,,,,,,,,,,,,,,stimuli/alien_stimuli/66.png,,,,,,,,,,,,,,,,,,,,,,,,,,,,,stimuli/alien_stimuli/62.png,62,4,15,,,,,,,30,,,,,,,,681.4267844001297,681.4267844001297,681.4267844001297,681.4267844001297,681.4267844001297,down,2.5545669000130147,3,1,0,99,0,0.08,down,2.4777843998745084,,,,,679.8712345000822,681.4267844001297,0.16,0.16,0.08,0.0,0.2,0.16,0.16,0.16,0.16,676.7602989000734,676.7602989000734,676.7602989000734,676.7602989000734,676.7602989000734,676.7602989000734,676.7602989000734,676.7602989000734,676.7524659599876,3.22084470000118,return,3.084821900120005,,,,,,,,,,,,,,,,,,,,,,,,,,,,,,,,,YEL750,train_y,blue_star,top_left,2025-04-03_17h10.01.834,HideSeek_v1,2022.2.5,59.97947502097618,
,2,7,2,2,0,-5,66,,train_dim1_1,14,30,,,,2,0,2,0,,,,,,,,,0,0,0,0,0,13,13,13,1,0,1,0,,,,,,,,,,,,,,,,,,,,,,,,,,,,,,,,,,,,,,,,,,,,,,,,,,,,,,,,,,,,,,,,30,,,,,,,,683.9874450999778,683.9874450999778,683.9874450999778,683.9874450999778,683.9874450999778,down,0.4931950999889523,3,1,0,99,0,0.0,down,0.41311969980597496,,,,,,,,,,,,,,,,,,,,,,,,,,,,,,,,,,,,,,,,,,,,,,,,,,,,,,,,,,,,YEL750,train_y,blue_star,top_left,2025-04-03_17h10.01.834,HideSeek_v1,2022.2.5,59.97947502097618,
,2,7,2,2,0,-5,66,,train_dim1_1,14,30,,,,2,0,2,0,,,,,,,,,0,0,0,0,0,13,13,13,2,0,2,0,,,,,,,,,,,,,,,,,,,,,,,,,,,,,,,,,,,,,,,,,,,,,,,,,,,,,,,,,,,,,,,,30,,,,,,,,684.487961600069,684.487961600069,684.487961600069,684.487961600069,684.487961600069,down,0.4602250000461936,3,1,0,99,0,-0.08,down,0.3836310999467969,,,,,,,,,,,,,,,,,,,,,,,,,,,,,,,,,,,,,,,,,,,,,,,,,,,,,,,,,,,,YEL750,train_y,blue_star,top_left,2025-04-03_17h10.01.834,HideSeek_v1,2022.2.5,59.97947502097618,
,2,7,2,2,0,-5,66,,train_dim1_1,14,30,,,,2,0,2,0,,,,,,,,,0,0,0,0,0,13,13,13,3,0,3,0,,,,,,,,,,,,,,,,,,,,,,,,,,,,,,,,,,,,,,,,,,,,,,,,,,,,,,,,,,,,,,,,30,,,,,,,,684.9550886000507,684.9550886000507,684.9550886000507,684.9550886000507,684.9550886000507,down,0.4930965998210013,3,1,0,99,0,-0.16,down,0.41712519992142916,,,,,,,,,,,,,,,,,,,,,,,,,,,,,,,,,,,,,,,,,,,,,,,,,,,,,,,,,,,,YEL750,train_y,blue_star,top_left,2025-04-03_17h10.01.834,HideSeek_v1,2022.2.5,59.97947502097618,
,2,7,2,2,0,-5,66,,train_dim1_1,14,30,,,,2,0,2,0,,,,,,,,,0,0,0,0,0,13,13,13,4,0,4,0,,,,,,,,,,,,,,,,,,,,,,,,,,,,,,,,,,,,,,,,,,,,,,,,,,,,,,,,,,,,,,,,30,,,,,,,,685.4556408000644,685.4556408000644,685.4556408000644,685.4556408000644,685.4556408000644,down,0.4602829001378268,3,1,0,99,0,-0.24,down,0.377949999878183,,,,,,,,,,,,,,,,,,,,,,,,,,,,,,,,,,,,,,,,,,,,,,,,,,,,,,,,,,,,YEL750,train_y,blue_star,top_left,2025-04-03_17h10.01.834,HideSeek_v1,2022.2.5,59.97947502097618,
,2,7,2,2,0,-5,66,,train_dim1_1,14,30,,,,2,0,2,0,,,,,,,,,0,0,0,0,0,13,13,13,5,0,5,0,,,,,,,,,,,,,,,,,,,,,,,,,,,,,,,,,,,,,,,,,,,,,,,,,,,,,,,,,,,,,,,,30,,,,,,,,685.9231690000743,685.9231690000743,685.9231690000743,685.9231690000743,685.9231690000743,down,0.5099166999571025,3,1,0,99,0,-0.32,down,0.42275080014951527,,,,,,,,,,,,,,,,,,,,,,,,,,,,,,,,,,,,,,,,,,,,,,,,,,,,,,,,,,,,YEL750,train_y,blue_star,top_left,2025-04-03_17h10.01.834,HideSeek_v1,2022.2.5,59.97947502097618,
,2,7,2,2,0,-5,66,,train_dim1_1,14,30,,,,2,0,2,0,,,,,,,,,0,0,0,0,0,13,13,13,6,0,6,0,,,,,,,,,,,,,,,,,,,,,,,,,,,,,,,,,,,,,,,,,,,,,,,,,,,,,,,,,,,,,,,,30,,,,,,,,686.4409357002005,686.4409357002005,686.4409357002005,686.4409357002005,686.4409357002005,return,0.7434113000053912,3,1,0,0,0,-0.32,return,0.6675581999588758,-35,17,0,-0.32,,,,,,,,,,,,,,,,,,,,,,,,,,,,,,,,,,,,,,,,,,,,,,,,,,,,,,,,YEL750,train_y,blue_star,top_left,2025-04-03_17h10.01.834,HideSeek_v1,2022.2.5,59.97947502097618,
,1,9,1,6,0,-3,64,,train_dim1_1,15,30,,,,2,0,2,0,,,,,,,,,0,0,0,0,0,14,14,14,0,0,0,0,,,,,,,,,,,,,,,,,,,,,,,,,stimuli/alien_stimuli/64.png,,,,,,,,,,,,,,,,,,,,,,,,,,,,,stimuli/alien_stimuli/66.png,66,2,16,,,,,,,30,,,,,,,,693.1686829000246,693.1686829000246,693.1686829000246,693.1686829000246,693.1686829000246,down,2.5549488000106066,3,1,0,99,-0.08,0.24,down,2.4822805000003427,,,,,691.6143732001074,693.1686829000246,0,-0.24,0.4,0.0,-0.039999999999999994,0,0.0,0,-0.24,688.7507085001562,688.7507085001562,688.7507085001562,688.7507085001562,688.7507085001562,688.7507085001562,688.7507085001562,688.7507085001562,688.7450466601877,2.971703799907118,return,2.83179820002988,,,,,,,,,,,,,,,,,,,,,,,,,,,,,,,,,YEL750,train_y,blue_star,top_left,2025-04-03_17h10.01.834,HideSeek_v1,2022.2.5,59.97947502097618,
,1,9,1,6,0,-3,64,,train_dim1_1,15,30,,,,2,0,2,0,,,,,,,,,0,0,0,0,0,14,14,14,1,0,1,0,,,,,,,,,,,,,,,,,,,,,,,,,,,,,,,,,,,,,,,,,,,,,,,,,,,,,,,,,,,,,,,,30,,,,,,,,695.7311132000759,695.7311132000759,695.7311132000759,695.7311132000759,695.7311132000759,down,0.6263259998522699,3,1,0,99,-0.08,0.15999999999999998,down,0.5421859000343829,,,,,,,,,,,,,,,,,,,,,,,,,,,,,,,,,,,,,,,,,,,,,,,,,,,,,,,,,,,,YEL750,train_y,blue_star,top_left,2025-04-03_17h10.01.834,HideSeek_v1,2022.2.5,59.97947502097618,
,1,9,1,6,0,-3,64,,train_dim1_1,15,30,,,,2,0,2,0,,,,,,,,,0,0,0,0,0,14,14,14,2,0,2,0,,,,,,,,,,,,,,,,,,,,,,,,,,,,,,,,,,,,,,,,,,,,,,,,,,,,,,,,,,,,,,,,30,,,,,,,,696.3638953000773,696.3638953000773,696.3638953000773,696.3638953000773,696.3638953000773,return,1.561073899967596,3,1,0,0,-0.08,0.15999999999999998,return,1.4840894998051226,-37,17,-0.08,0.15999999999999998,,,,,,,,,,,,,,,,,,,,,,,,,,,,,,,,,,,,,,,,,,,,,,,,,,,,,,,,YEL750,train_y,blue_star,top_left,2025-04-03_17h10.01.834,HideSeek_v1,2022.2.5,59.97947502097618,
,4,5,4,1,0,-4,65,,train_dim1_1,16,30,,,,2,0,2,0,,,,,,,,,0,0,0,0,0,15,15,15,0,0,0,0,,,,,,,,,,,,,,,,,,,,,,,,,stimuli/alien_stimuli/65.png,,,,,,,,,,,,,,,,,,,,,,,,,,,,,stimuli/alien_stimuli/64.png,64,1,17,,,,,,,30,,,,,,,,704.1118038001005,704.1118038001005,704.1118038001005,704.1118038001005,704.1118038001005,down,2.1551280999556184,3,1,0,99,0.16,-0.08,down,2.0683872997760773,,,,,702.5567332999781,704.1118038001005,-0.08,0.08,0.24,0.0,0.2,-0.08,-0.08,-0.08,0.08,699.4958804000635,699.4958804000635,699.4958804000635,699.4958804000635,699.4958804000635,699.4958804000635,699.4958804000635,699.4958804000635,699.4876567601459,3.171292900107801,return,3.0411720001138747,,,,,,,,,,,,,,,,,,,,,,,,,,,,,,,,,YEL750,train_y,blue_star,top_left,2025-04-03_17h10.01.834,HideSeek_v1,2022.2.5,59.97947502097618,
,4,5,4,1,0,-4,65,,train_dim1_1,16,30,,,,2,0,2,0,,,,,,,,,0,0,0,0,0,15,15,15,1,0,1,0,,,,,,,,,,,,,,,,,,,,,,,,,,,,,,,,,,,,,,,,,,,,,,,,,,,,,,,,,,,,,,,,30,,,,,,,,706.2757365000434,706.2757365000434,706.2757365000434,706.2757365000434,706.2757365000434,down,0.8086177001241595,3,1,0,99,0.16,-0.16,down,0.7316423999145627,,,,,,,,,,,,,,,,,,,,,,,,,,,,,,,,,,,,,,,,,,,,,,,,,,,,,,,,,,,,YEL750,train_y,blue_star,top_left,2025-04-03_17h10.01.834,HideSeek_v1,2022.2.5,59.97947502097618,
,4,5,4,1,0,-4,65,,train_dim1_1,16,30,,,,2,0,2,0,,,,,,,,,0,0,0,0,0,15,15,15,2,0,2,0,,,,,,,,,,,,,,,,,,,,,,,,,,,,,,,,,,,,,,,,,,,,,,,,,,,,,,,,,,,,,,,,30,,,,,,,,707.0893388001714,707.0893388001714,707.0893388001714,707.0893388001714,707.0893388001714,down,0.5935291000641882,3,1,0,99,0.16,-0.24,down,0.5197228000033647,,,,,,,,,,,,,,,,,,,,,,,,,,,,,,,,,,,,,,,,,,,,,,,,,,,,,,,,,,,,YEL750,train_y,blue_star,top_left,2025-04-03_17h10.01.834,HideSeek_v1,2022.2.5,59.97947502097618,
,4,5,4,1,0,-4,65,,train_dim1_1,16,30,,,,2,0,2,0,,,,,,,,,0,0,0,0,0,15,15,15,3,0,3,0,,,,,,,,,,,,,,,,,,,,,,,,,,,,,,,,,,,,,,,,,,,,,,,,,,,,,,,,,,,,,,,,30,,,,,,,,707.6913459000643,707.6913459000643,707.6913459000643,707.6913459000643,707.6913459000643,down,0.7599951999727637,3,1,0,99,0.16,-0.32,down,0.6790077998302877,,,,,,,,,,,,,,,,,,,,,,,,,,,,,,,,,,,,,,,,,,,,,,,,,,,,,,,,,,,,YEL750,train_y,blue_star,top_left,2025-04-03_17h10.01.834,HideSeek_v1,2022.2.5,59.97947502097618,
,4,5,4,1,0,-4,65,,train_dim1_1,16,30,,,,2,0,2,0,,,,,,,,,0,0,0,0,0,15,15,15,4,0,4,0,,,,,,,,,,,,,,,,,,,,,,,,,,,,,,,,,,,,,,,,,,,,,,,,,,,,,,,,,,,,,,,,30,,,,,,,,708.4601126001216,708.4601126001216,708.4601126001216,708.4601126001216,708.4601126001216,up,1.8599314000457525,3,1,0,99,0.16,-0.24,up,1.777324500028044,,,,,,,,,,,,,,,,,,,,,,,,,,,,,,,,,,,,,,,,,,,,,,,,,,,,,,,,,,,,YEL750,train_y,blue_star,top_left,2025-04-03_17h10.01.834,HideSeek_v1,2022.2.5,59.97947502097618,
,4,5,4,1,0,-4,65,,train_dim1_1,16,30,,,,2,0,2,0,,,,,,,,,0,0,0,0,0,15,15,15,5,0,5,0,,,,,,,,,,,,,,,,,,,,,,,,,,,,,,,,,,,,,,,,,,,,,,,,,,,,,,,,,,,,,,,,30,,,,,,,,710.3255499000661,710.3255499000661,710.3255499000661,710.3255499000661,710.3255499000661,return,0.5769031001254916,3,1,0,0,0.16,-0.24,return,0.5040478000883013,-40,17,0.16,-0.24,,,,,,,,,,,,,,,,,,,,,,,,,,,,,,,,,,,,,,,,,,,,,,,,,,,,,,,,YEL750,train_y,blue_star,top_left,2025-04-03_17h10.01.834,HideSeek_v1,2022.2.5,59.97947502097618,
,3,8,3,5,0,-3,64,,train_dim1_1,17,30,,,,2,0,2,0,,,,,,,,,0,0,0,0,0,16,16,16,0,0,0,0,,,,,,,,,,,,,,,,,,,,,,,,,stimuli/alien_stimuli/64.png,,,,,,,,,,,,,,,,,,,,,,,,,,,,,stimuli/alien_stimuli/65.png,65,4,18,,,,,,,30,,,,,,,,731.118347800104,731.118347800104,731.118347800104,731.118347800104,731.118347800104,down,1.9350248000118881,3,1,0,99,0.08,0.15999999999999998,down,1.8463808000087738,,,,,729.5459453000221,731.118347800104,0.16,-0.32,0.32,0.0,-0.16,0.16,0.16,0.16,-0.32,712.4746233001351,712.4746233001351,712.4746233001351,712.4746233001351,712.4746233001351,712.4746233001351,712.4746233001351,712.4746233001351,712.4651148599805,17.18289709999226,return,17.044366399990395,,,,,,,,,,,,,,,,,,,,,,,,,,,,,,,,,YEL750,train_y,blue_star,top_left,2025-04-03_17h10.01.834,HideSeek_v1,2022.2.5,59.97947502097618,
,3,8,3,5,0,-3,64,,train_dim1_1,17,30,,,,2,0,2,0,,,,,,,,,0,0,0,0,0,16,16,16,1,0,1,0,,,,,,,,,,,,,,,,,,,,,,,,,,,,,,,,,,,,,,,,,,,,,,,,,,,,,,,,,,,,,,,,30,,,,,,,,733.0452513000928,733.0452513000928,733.0452513000928,733.0452513000928,733.0452513000928,down,0.6099441000260413,3,1,0,99,0.08,0.07999999999999997,down,0.5254065000917763,,,,,,,,,,,,,,,,,,,,,,,,,,,,,,,,,,,,,,,,,,,,,,,,,,,,,,,,,,,,YEL750,train_y,blue_star,top_left,2025-04-03_17h10.01.834,HideSeek_v1,2022.2.5,59.97947502097618,
,3,8,3,5,0,-3,64,,train_dim1_1,17,30,,,,2,0,2,0,,,,,,,,,0,0,0,0,0,16,16,16,2,0,2,0,,,,,,,,,,,,,,,,,,,,,,,,,,,,,,,,,,,,,,,,,,,,,,,,,,,,,,,,,,,,,,,,30,,,,,,,,733.6645347999875,733.6645347999875,733.6645347999875,733.6645347999875,733.6645347999875,return,4.812556700082496,3,1,0,0,0.08,0.07999999999999997,return,4.7359335999935865,-42,17,0.08,0.07999999999999997,,,,,,,,,,,,,,,,,,,,,,,,,,,,,,,,,,,,,,,,,,,,,,,,,,,,,,,,YEL750,train_y,blue_star,top_left,2025-04-03_17h10.01.834,HideSeek_v1,2022.2.5,59.97947502097618,
,2,6,2,6,0,0,61,,train_dim1_1,18,30,,,,2,0,2,0,,,,,,,,,0,0,0,0,0,17,17,17,0,0,0,0,,,,,,,,,,,,,,,,,,,,,,,,,stimuli/alien_stimuli/61.png,,,,,,,,,,,,,,,,,,,,,,,,,,,,,stimuli/alien_stimuli/64.png,64,3,19,,,,,,,30,,,,,,,,744.3836603001691,744.3836603001691,744.3836603001691,744.3836603001691,744.3836603001691,down,1.4833450999576598,3,1,0,99,0,0.0,down,1.3943296999204904,,,,,742.8236036000308,744.3836603001691,0.08,0,0.24,0.0,0.12,0.08,0.08,0.08,0,740.0500767000485,740.0500767000485,740.0500767000485,740.0500767000485,740.0500767000485,740.0500767000485,740.0500767000485,740.0500767000485,740.038074459997,2.8881081000436097,return,2.757796899881214,,,,,,,,,,,,,,,,,,,,,,,,,,,,,,,,,YEL750,train_y,blue_star,top_left,2025-04-03_17h10.01.834,HideSeek_v1,2022.2.5,59.97947502097618,
,2,6,2,6,0,0,61,,train_dim1_1,18,30,,,,2,0,2,0,,,,,,,,,0,0,0,0,0,17,17,17,1,0,1,0,,,,,,,,,,,,,,,,,,,,,,,,,,,,,,,,,,,,,,,,,,,,,,,,,,,,,,,,,,,,,,,,30,,,,,,,,745.872668400174,745.872668400174,745.872668400174,745.872668400174,745.872668400174,down,0.5763688997831196,3,1,0,99,0,-0.08,down,0.4889796001370996,,,,,,,,,,,,,,,,,,,,,,,,,,,,,,,,,,,,,,,,,,,,,,,,,,,,,,,,,,,,YEL750,train_y,blue_star,top_left,2025-04-03_17h10.01.834,HideSeek_v1,2022.2.5,59.97947502097618,
,2,6,2,6,0,0,61,,train_dim1_1,18,30,,,,2,0,2,0,,,,,,,,,0,0,0,0,0,17,17,17,2,0,2,0,,,,,,,,,,,,,,,,,,,,,,,,,,,,,,,,,,,,,,,,,,,,,,,,,,,,,,,,,,,,,,,,30,,,,,,,,746.4573773001321,746.4573773001321,746.4573773001321,746.4573773001321,746.4573773001321,down,0.559792400104925,3,1,0,99,0,-0.16,down,0.48284279997460544,,,,,,,,,,,,,,,,,,,,,,,,,,,,,,,,,,,,,,,,,,,,,,,,,,,,,,,,,,,,YEL750,train_y,blue_star,top_left,2025-04-03_17h10.01.834,HideSeek_v1,2022.2.5,59.97947502097618,
,2,6,2,6,0,0,61,,train_dim1_1,18,30,,,,2,0,2,0,,,,,,,,,0,0,0,0,0,17,17,17,3,0,3,0,,,,,,,,,,,,,,,,,,,,,,,,,,,,,,,,,,,,,,,,,,,,,,,,,,,,,,,,,,,,,,,,30,,,,,,,,747.0248618000187,747.0248618000187,747.0248618000187,747.0248618000187,747.0248618000187,up,1.410957199987024,3,1,0,99,0,-0.08,up,1.3308404001872987,,,,,,,,,,,,,,,,,,,,,,,,,,,,,,,,,,,,,,,,,,,,,,,,,,,,,,,,,,,,YEL750,train_y,blue_star,top_left,2025-04-03_17h10.01.834,HideSeek_v1,2022.2.5,59.97947502097618,
,2,6,2,6,0,0,61,,train_dim1_1,18,30,,,,2,0,2,0,,,,,,,,,0,0,0,0,0,17,17,17,4,0,4,0,,,,,,,,,,,,,,,,,,,,,,,,,,,,,,,,,,,,,,,,,,,,,,,,,,,,,,,,,,,,,,,,30,,,,,,,,748.4429285000078,748.4429285000078,748.4429285000078,748.4429285000078,748.4429285000078,up,3.07725610001944,3,1,0,99,0,0.0,up,2.994371000211686,,,,,,,,,,,,,,,,,,,,,,,,,,,,,,,,,,,,,,,,,,,,,,,,,,,,,,,,,,,,YEL750,train_y,blue_star,top_left,2025-04-03_17h10.01.834,HideSeek_v1,2022.2.5,59.97947502097618,
,2,6,2,6,0,0,61,,train_dim1_1,18,30,,,,2,0,2,0,,,,,,,,,0,0,0,0,0,17,17,17,5,0,5,0,,,,,,,,,,,,,,,,,,,,,,,,,,,,,,,,,,,,,,,,,,,,,,,,,,,,,,,,,,,,,,,,30,,,,,,,,751.5268517001532,751.5268517001532,751.5268517001532,751.5268517001532,751.5268517001532,return,1.2772727000992745,3,1,0,0,0,0.0,return,1.198286599945277,-43,17,0,0.0,,,,,,,,,,,,,,,,,,,,,,,,,,,,,,,,,,,,,,,,,,,,,,,,,,,,,,,,YEL750,train_y,blue_star,top_left,2025-04-03_17h10.01.834,HideSeek_v1,2022.2.5,59.97947502097618,
,0,9,0,8,0,-1,62,,train_dim1_1,19,30,,,,2,0,2,0,,,,,,,,,0,0,0,0,0,18,18,18,0,0,0,0,,,,,,,,,,,,,,,,,,,,,,,,,stimuli/alien_stimuli/62.png,,,,,,,,,,,,,,,,,,,,,,,,,,,,,stimuli/alien_stimuli/61.png,61,2,20,,,,,,,30,,,,,,,,759.5090036001056,759.5090036001056,759.5090036001056,759.5090036001056,759.5090036001056,down,9.143348099896684,3,1,0,99,-0.16,0.24,down,9.059455500217155,,,,,757.9529314001556,759.5090036001056,0,0.08,0.0,0.0,0.08,0,0.0,0,0.08,754.3825323001947,754.3825323001947,754.3825323001947,754.3825323001947,754.3825323001947,754.3825323001947,754.3825323001947,754.3825323001947,754.3832632401027,3.6880987000185996,return,3.553173700114712,,,,,,,,,,,,,,,,,,,,,,,,,,,,,,,,,YEL750,train_y,blue_star,top_left,2025-04-03_17h10.01.834,HideSeek_v1,2022.2.5,59.97947502097618,
,0,9,0,8,0,-1,62,,train_dim1_1,19,30,,,,2,0,2,0,,,,,,,,,0,0,0,0,0,18,18,18,1,0,1,0,,,,,,,,,,,,,,,,,,,,,,,,,,,,,,,,,,,,,,,,,,,,,,,,,,,,,,,,,,,,,,,,30,,,,,,,,768.6602121000178,768.6602121000178,768.6602121000178,768.6602121000178,768.6602121000178,down,0.24218369997106493,3,1,0,99,-0.16,0.15999999999999998,down,0.16345890006050467,,,,,,,,,,,,,,,,,,,,,,,,,,,,,,,,,,,,,,,,,,,,,,,,,,,,,,,,,,,,YEL750,train_y,blue_star,top_left,2025-04-03_17h10.01.834,HideSeek_v1,2022.2.5,59.97947502097618,
,0,9,0,8,0,-1,62,,train_dim1_1,19,30,,,,2,0,2,0,,,,,,,,,0,0,0,0,0,18,18,18,2,0,2,0,,,,,,,,,,,,,,,,,,,,,,,,,,,,,,,,,,,,,,,,,,,,,,,,,,,,,,,,,,,,,,,,30,,,,,,,,768.9103516000323,768.9103516000323,768.9103516000323,768.9103516000323,768.9103516000323,down,0.24181129992939532,3,1,0,99,-0.16,0.07999999999999997,down,0.15505659999325871,,,,,,,,,,,,,,,,,,,,,,,,,,,,,,,,,,,,,,,,,,,,,,,,,,,,,,,,,,,,YEL750,train_y,blue_star,top_left,2025-04-03_17h10.01.834,HideSeek_v1,2022.2.5,59.97947502097618,
,0,9,0,8,0,-1,62,,train_dim1_1,19,30,,,,2,0,2,0,,,,,,,,,0,0,0,0,0,18,18,18,3,0,3,0,,,,,,,,,,,,,,,,,,,,,,,,,,,,,,,,,,,,,,,,,,,,,,,,,,,,,,,,,,,,,,,,30,,,,,,,,769.1589562001172,769.1589562001172,769.1589562001172,769.1589562001172,769.1589562001172,down,0.19385490007698536,3,1,0,99,-0.16,-2.7755575615628914e-17,down,0.11502630007453263,,,,,,,,,,,,,,,,,,,,,,,,,,,,,,,,,,,,,,,,,,,,,,,,,,,,,,,,,,,,YEL750,train_y,blue_star,top_left,2025-04-03_17h10.01.834,HideSeek_v1,2022.2.5,59.97947502097618,
,0,9,0,8,0,-1,62,,train_dim1_1,19,30,,,,2,0,2,0,,,,,,,,,0,0,0,0,0,18,18,18,4,0,4,0,,,,,,,,,,,,,,,,,,,,,,,,,,,,,,,,,,,,,,,,,,,,,,,,,,,,,,,,,,,,,,,,30,,,,,,,,769.3598586001899,769.3598586001899,769.3598586001899,769.3598586001899,769.3598586001899,down,0.45958740008063614,3,1,0,99,-0.16,-0.08000000000000003,down,0.37703859992325306,,,,,,,,,,,,,,,,,,,,,,,,,,,,,,,,,,,,,,,,,,,,,,,,,,,,,,,,,,,,YEL750,train_y,blue_star,top_left,2025-04-03_17h10.01.834,HideSeek_v1,2022.2.5,59.97947502097618,
,0,9,0,8,0,-1,62,,train_dim1_1,19,30,,,,2,0,2,0,,,,,,,,,0,0,0,0,0,18,18,18,5,0,5,0,,,,,,,,,,,,,,,,,,,,,,,,,,,,,,,,,,,,,,,,,,,,,,,,,,,,,,,,,,,,,,,,30,,,,,,,,769.8263448001817,769.8263448001817,769.8263448001817,769.8263448001817,769.8263448001817,down,0.2936898001935333,3,1,0,99,-0.16,-0.16000000000000003,down,0.21377060003578663,,,,,,,,,,,,,,,,,,,,,,,,,,,,,,,,,,,,,,,,,,,,,,,,,,,,,,,,,,,,YEL750,train_y,blue_star,top_left,2025-04-03_17h10.01.834,HideSeek_v1,2022.2.5,59.97947502097618,
,0,9,0,8,0,-1,62,,train_dim1_1,19,30,,,,2,0,2,0,,,,,,,,,0,0,0,0,0,18,18,18,6,0,6,0,,,,,,,,,,,,,,,,,,,,,,,,,,,,,,,,,,,,,,,,,,,,,,,,,,,,,,,,,,,,,,,,30,,,,,,,,770.1263466000091,770.1263466000091,770.1263466000091,770.1263466000091,770.1263466000091,down,1.1436334000900388,3,1,0,99,-0.16,-0.24000000000000005,down,1.0645159999839962,,,,,,,,,,,,,,,,,,,,,,,,,,,,,,,,,,,,,,,,,,,,,,,,,,,,,,,,,,,,YEL750,train_y,blue_star,top_left,2025-04-03_17h10.01.834,HideSeek_v1,2022.2.5,59.97947502097618,
,0,9,0,8,0,-1,62,,train_dim1_1,19,30,,,,2,0,2,0,,,,,,,,,0,0,0,0,0,18,18,18,7,0,7,0,,,,,,,,,,,,,,,,,,,,,,,,,,,,,,,,,,,,,,,,,,,,,,,,,,,,,,,,,,,,,,,,30,,,,,,,,771.2784639000893,771.2784639000893,771.2784639000893,771.2784639000893,771.2784639000893,return,0.5093660999555141,3,0,0,0,-0.16,-0.24000000000000005,return,0.42102600005455315,-50,17,-0.16,-0.24000000000000005,,,,,,,,,,,,,,,,,,,,,,,,,,,,,,,,,,,,,,,,,,,,,,,,,,,,,,,,YEL750,train_y,blue_star,top_left,2025-04-03_17h10.01.834,HideSeek_v1,2022.2.5,59.97947502097618,
,2,5,2,0,0,-5,66,,train_dim1_1,20,30,,,,2,0,2,0,,,,,,,,,0,0,0,0,0,19,19,19,0,0,0,0,,,,,,,,,,,,,,,,,,,,,,,,,stimuli/alien_stimuli/66.png,,,,,,,,,,,,,,,,,,,,,,,,,,,,,stimuli/alien_stimuli/62.png,62,0,21,,,,,,,30,,,,,,,,779.1639162001666,779.1639162001666,779.1639162001666,779.1639162001666,779.1639162001666,down,1.5850196999963373,3,0,0,99,0,-0.08,down,1.5045171999372542,,,,,777.6025243999902,779.1639162001666,-0.16,0.24,0.08,0.0,0.28,-0.16,-0.16,-0.16,0.24,773.3631369001232,773.3631369001232,773.3631369001232,773.3631369001232,773.3631369001232,773.3631369001232,773.3631369001232,773.3631369001232,773.3489303601673,4.3556692998390645,return,4.209267699858174,,,,,,,,,,,,,,,,,,,,,,,,,,,,,,,,,YEL750,train_y,blue_star,top_left,2025-04-03_17h10.01.834,HideSeek_v1,2022.2.5,59.97947502097618,
,2,5,2,0,0,-5,66,,train_dim1_1,20,30,,,,2,0,2,0,,,,,,,,,0,0,0,0,0,19,19,19,1,0,1,0,,,,,,,,,,,,,,,,,,,,,,,,,,,,,,,,,,,,,,,,,,,,,,,,,,,,,,,,,,,,,,,,30,,,,,,,,780.753253800096,780.753253800096,780.753253800096,780.753253800096,780.753253800096,down,0.5086157000623643,3,0,0,99,0,-0.16,down,0.4236259001772851,,,,,,,,,,,,,,,,,,,,,,,,,,,,,,,,,,,,,,,,,,,,,,,,,,,,,,,,,,,,YEL750,train_y,blue_star,top_left,2025-04-03_17h10.01.834,HideSeek_v1,2022.2.5,59.97947502097618,
,2,5,2,0,0,-5,66,,train_dim1_1,20,30,,,,2,0,2,0,,,,,,,,,0,0,0,0,0,19,19,19,2,0,2,0,,,,,,,,,,,,,,,,,,,,,,,,,,,,,,,,,,,,,,,,,,,,,,,,,,,,,,,,,,,,,,,,30,,,,,,,,781.2687886001077,781.2687886001077,781.2687886001077,781.2687886001077,781.2687886001077,down,0.51022640010342,3,0,0,99,0,-0.24,down,0.4364026999101043,,,,,,,,,,,,,,,,,,,,,,,,,,,,,,,,,,,,,,,,,,,,,,,,,,,,,,,,,,,,YEL750,train_y,blue_star,top_left,2025-04-03_17h10.01.834,HideSeek_v1,2022.2.5,59.97947502097618,
,2,5,2,0,0,-5,66,,train_dim1_1,20,30,,,,2,0,2,0,,,,,,,,,0,0,0,0,0,19,19,19,3,0,3,0,,,,,,,,,,,,,,,,,,,,,,,,,,,,,,,,,,,,,,,,,,,,,,,,,,,,,,,,,,,,,,,,30,,,,,,,,781.7874159000348,781.7874159000348,781.7874159000348,781.7874159000348,781.7874159000348,return,2.8778532999567688,3,0,0,0,0,-0.24,return,2.7998722000047565,-53,17,0,-0.24,,,,,,,,,,,,,,,,,,,,,,,,,,,,,,,,,,,,,,,,,,,,,,,,,,,,,,,,YEL750,train_y,blue_star,top_left,2025-04-03_17h10.01.834,HideSeek_v1,2022.2.5,59.97947502097618,
,2,9,2,5,0,-4,65,,train_dim1_1,21,30,,,,2,0,2,0,,,,,,,,,0,0,0,0,0,20,20,20,0,0,0,0,,,,,,,,,,,,,,,,,,,,,,,,,stimuli/alien_stimuli/65.png,,,,,,,,,,,,,,,,,,,,,,,,,,,,,stimuli/alien_stimuli/66.png,66,2,22,,,,,,,30,,,,,,,,799.2799470999744,799.2799470999744,799.2799470999744,799.2799470999744,799.2799470999744,down,1.6689971999730915,3,0,0,99,0,0.24,down,1.5679645999334753,,,,,797.7025737001095,799.2799470999744,0,-0.4,0.4,0.0,-0.2,0,0.0,0,-0.4,786.2351640001871,786.2351640001871,786.2351640001871,786.2351640001871,786.2351640001871,786.2351640001871,786.2351640001871,786.2351640001871,786.2264814601513,11.578373400028795,return,11.440225899918005,,,,,,,,,,,,,,,,,,,,,,,,,,,,,,,,,YEL750,train_y,blue_star,top_left,2025-04-03_17h10.01.834,HideSeek_v1,2022.2.5,59.97947502097618,
,2,9,2,5,0,-4,65,,train_dim1_1,21,30,,,,2,0,2,0,,,,,,,,,0,0,0,0,0,20,20,20,1,0,1,0,,,,,,,,,,,,,,,,,,,,,,,,,,,,,,,,,,,,,,,,,,,,,,,,,,,,,,,,,,,,,,,,30,,,,,,,,800.935561100021,800.935561100021,800.935561100021,800.935561100021,800.935561100021,down,1.293670800048858,3,0,0,99,0,0.15999999999999998,down,1.2201304999180138,,,,,,,,,,,,,,,,,,,,,,,,,,,,,,,,,,,,,,,,,,,,,,,,,,,,,,,,,,,,YEL750,train_y,blue_star,top_left,2025-04-03_17h10.01.834,HideSeek_v1,2022.2.5,59.97947502097618,
,2,9,2,5,0,-4,65,,train_dim1_1,21,30,,,,2,0,2,0,,,,,,,,,0,0,0,0,0,20,20,20,2,0,2,0,,,,,,,,,,,,,,,,,,,,,,,,,,,,,,,,,,,,,,,,,,,,,,,,,,,,,,,,,,,,,,,,30,,,,,,,,802.2362546999939,802.2362546999939,802.2362546999939,802.2362546999939,802.2362546999939,down,0.7602890999987721,3,0,0,99,0,0.07999999999999997,down,0.6824446001555771,,,,,,,,,,,,,,,,,,,,,,,,,,,,,,,,,,,,,,,,,,,,,,,,,,,,,,,,,,,,YEL750,train_y,blue_star,top_left,2025-04-03_17h10.01.834,HideSeek_v1,2022.2.5,59.97947502097618,
,2,9,2,5,0,-4,65,,train_dim1_1,21,30,,,,2,0,2,0,,,,,,,,,0,0,0,0,0,20,20,20,3,0,3,0,,,,,,,,,,,,,,,,,,,,,,,,,,,,,,,,,,,,,,,,,,,,,,,,,,,,,,,,,,,,,,,,30,,,,,,,,803.0022879000753,803.0022879000753,803.0022879000753,803.0022879000753,803.0022879000753,up,1.2776146999094635,3,0,0,99,0,0.15999999999999998,up,1.2066597000230104,,,,,,,,,,,,,,,,,,,,,,,,,,,,,,,,,,,,,,,,,,,,,,,,,,,,,,,,,,,,YEL750,train_y,blue_star,top_left,2025-04-03_17h10.01.834,HideSeek_v1,2022.2.5,59.97947502097618,
,2,9,2,5,0,-4,65,,train_dim1_1,21,30,,,,2,0,2,0,,,,,,,,,0,0,0,0,0,20,20,20,4,0,4,0,,,,,,,,,,,,,,,,,,,,,,,,,,,,,,,,,,,,,,,,,,,,,,,,,,,,,,,,,,,,,,,,30,,,,,,,,804.2888116000686,804.2888116000686,804.2888116000686,804.2888116000686,804.2888116000686,down,1.5939074999187142,3,0,0,99,0,0.07999999999999997,down,1.5104034999385476,,,,,,,,,,,,,,,,,,,,,,,,,,,,,,,,,,,,,,,,,,,,,,,,,,,,,,,,,,,,YEL750,train_y,blue_star,top_left,2025-04-03_17h10.01.834,HideSeek_v1,2022.2.5,59.97947502097618,
,2,9,2,5,0,-4,65,,train_dim1_1,21,30,,,,2,0,2,0,,,,,,,,,0,0,0,0,0,20,20,20,5,0,5,0,,,,,,,,,,,,,,,,,,,,,,,,,,,,,,,,,,,,,,,,,,,,,,,,,,,,,,,,,,,,,,,,30,,,,,,,,805.8918848000467,805.8918848000467,805.8918848000467,805.8918848000467,805.8918848000467,return,0.6578456999268383,3,1,0,0,0,0.07999999999999997,return,0.5698919999413192,-56,17,0,0.07999999999999997,,,,,,,,,,,,,,,,,,,,,,,,,,,,,,,,,,,,,,,,,,,,,,,,,,,,,,,,YEL750,train_y,blue_star,top_left,2025-04-03_17h10.01.834,HideSeek_v1,2022.2.5,59.97947502097618,
,0,7,0,4,0,-3,64,,train_dim1_1,22,30,,,,2,0,2,0,,,,,,,,,0,0,0,0,0,21,21,21,0,0,0,0,,,,,,,,,,,,,,,,,,,,,,,,,stimuli/alien_stimuli/64.png,,,,,,,,,,,,,,,,,,,,,,,,,,,,,stimuli/alien_stimuli/65.png,65,2,23,,,,,,,30,,,,,,,,813.1579781000037,813.1579781000037,813.1579781000037,813.1579781000037,813.1579781000037,down,4.835572799900547,3,1,0,99,-0.16,0.08,down,4.753832300193608,,,,,811.5975291000213,813.1579781000037,0,0,0.32,0.0,0.16,0,0.0,0,0,808.1215127999894,808.1215127999894,808.1215127999894,808.1215127999894,808.1215127999894,808.1215127999894,808.1215127999894,808.1215127999894,808.1113360599848,3.588198199868202,return,3.458066900027916,,,,,,,,,,,,,,,,,,,,,,,,,,,,,,,,,YEL750,train_y,blue_star,top_left,2025-04-03_17h10.01.834,HideSeek_v1,2022.2.5,59.97947502097618,
,0,7,0,4,0,-3,64,,train_dim1_1,22,30,,,,2,0,2,0,,,,,,,,,0,0,0,0,0,21,21,21,1,0,1,0,,,,,,,,,,,,,,,,,,,,,,,,,,,,,,,,,,,,,,,,,,,,,,,,,,,,,,,,,,,,,,,,30,,,,,,,,817.9996247000527,817.9996247000527,817.9996247000527,817.9996247000527,817.9996247000527,return,2.628327399957925,3,0,0,0,-0.16,0.08,return,2.5407952000387013,-57,17,-0.16,0.08,,,,,,,,,,,,,,,,,,,,,,,,,,,,,,,,,,,,,,,,,,,,,,,,,,,,,,,,YEL750,train_y,blue_star,top_left,2025-04-03_17h10.01.834,HideSeek_v1,2022.2.5,59.97947502097618,
,0,8,0,8,0,0,61,,train_dim1_1,23,30,,,,2,0,2,0,,,,,,,,,0,0,0,0,0,22,22,22,0,0,0,0,,,,,,,,,,,,,,,,,,,,,,,,,stimuli/alien_stimuli/61.png,,,,,,,,,,,,,,,,,,,,,,,,,,,,,stimuli/alien_stimuli/64.png,64,0,24,,,,,,,30,,,,,,,,826.0435542999767,826.0435542999767,826.0435542999767,826.0435542999767,826.0435542999767,down,1.8233350000809878,3,0,0,99,-0.16,0.15999999999999998,down,1.7457405999302864,,,,,824.4916854000185,826.0435542999767,-0.16,-0.08,0.24,0.0,0.04,-0.16,-0.16,-0.16,-0.08,822.2022645000834,822.2022645000834,822.2022645000834,822.2022645000834,822.2022645000834,822.2022645000834,822.2022645000834,822.2022645000834,822.1897351600928,2.4039397998712957,return,2.2648202998097986,,,,,,,,,,,,,,,,,,,,,,,,,,,,,,,,,YEL750,train_y,blue_star,top_left,2025-04-03_17h10.01.834,HideSeek_v1,2022.2.5,59.97947502097618,
,0,8,0,8,0,0,61,,train_dim1_1,23,30,,,,2,0,2,0,,,,,,,,,0,0,0,0,0,22,22,22,1,0,1,0,,,,,,,,,,,,,,,,,,,,,,,,,,,,,,,,,,,,,,,,,,,,,,,,,,,,,,,,,,,,,,,,30,,,,,,,,827.8739463000093,827.8739463000093,827.8739463000093,827.8739463000093,827.8739463000093,down,0.543246200075373,3,0,0,99,-0.16,0.07999999999999997,down,0.46675330004654825,,,,,,,,,,,,,,,,,,,,,,,,,,,,,,,,,,,,,,,,,,,,,,,,,,,,,,,,,,,,YEL750,train_y,blue_star,top_left,2025-04-03_17h10.01.834,HideSeek_v1,2022.2.5,59.97947502097618,
,0,8,0,8,0,0,61,,train_dim1_1,23,30,,,,2,0,2,0,,,,,,,,,0,0,0,0,0,22,22,22,2,0,2,0,,,,,,,,,,,,,,,,,,,,,,,,,,,,,,,,,,,,,,,,,,,,,,,,,,,,,,,,,,,,,,,,30,,,,,,,,828.4249738000799,828.4249738000799,828.4249738000799,828.4249738000799,828.4249738000799,down,0.7765414000023156,3,0,0,99,-0.16,-2.7755575615628914e-17,down,0.6956882998347282,,,,,,,,,,,,,,,,,,,,,,,,,,,,,,,,,,,,,,,,,,,,,,,,,,,,,,,,,,,,YEL750,train_y,blue_star,top_left,2025-04-03_17h10.01.834,HideSeek_v1,2022.2.5,59.97947502097618,
,0,8,0,8,0,0,61,,train_dim1_1,23,30,,,,2,0,2,0,,,,,,,,,0,0,0,0,0,22,22,22,3,0,3,0,,,,,,,,,,,,,,,,,,,,,,,,,,,,,,,,,,,,,,,,,,,,,,,,,,,,,,,,,,,,,,,,30,,,,,,,,829.2080962001346,829.2080962001346,829.2080962001346,829.2080962001346,829.2080962001346,down,0.643376300111413,3,0,0,99,-0.16,-0.08000000000000003,down,0.5583495001774281,,,,,,,,,,,,,,,,,,,,,,,,,,,,,,,,,,,,,,,,,,,,,,,,,,,,,,,,,,,,YEL750,train_y,blue_star,top_left,2025-04-03_17h10.01.834,HideSeek_v1,2022.2.5,59.97947502097618,
,0,8,0,8,0,0,61,,train_dim1_1,23,30,,,,2,0,2,0,,,,,,,,,0,0,0,0,0,22,22,22,4,0,4,0,,,,,,,,,,,,,,,,,,,,,,,,,,,,,,,,,,,,,,,,,,,,,,,,,,,,,,,,,,,,,,,,30,,,,,,,,829.8600490000099,829.8600490000099,829.8600490000099,829.8600490000099,829.8600490000099,return,2.3784554000012577,3,0,0,0,-0.16,-0.08000000000000003,return,2.30303919990547,-61,17,-0.16,-0.08000000000000003,,,,,,,,,,,,,,,,,,,,,,,,,,,,,,,,,,,,,,,,,,,,,,,,,,,,,,,,YEL750,train_y,blue_star,top_left,2025-04-03_17h10.01.834,HideSeek_v1,2022.2.5,59.97947502097618,
,3,7,3,2,0,-5,66,,train_dim1_1,24,30,,,,2,0,2,0,,,,,,,,,0,0,0,0,0,23,23,23,0,0,0,0,,,,,,,,,,,,,,,,,,,,,,,,,stimuli/alien_stimuli/66.png,,,,,,,,,,,,,,,,,,,,,,,,,,,,,stimuli/alien_stimuli/61.png,61,0,25,,,,,,,30,,,,,,,,841.2433325001039,841.2433325001039,841.2433325001039,841.2433325001039,841.2433325001039,down,2.52108439989388,3,0,0,99,0.08,0.08,down,2.442536700051278,,,,,839.6875945001375,841.2433325001039,-0.16,0.24,0.0,0.0,0.24,-0.16,-0.16,-0.16,0.24,833.801701700082,833.801701700082,833.801701700082,833.801701700082,833.801701700082,833.801701700082,833.801701700082,833.801701700082,833.7991762600141,5.990593899972737,return,5.860953100025654,,,,,,,,,,,,,,,,,,,,,,,,,,,,,,,,,YEL750,train_y,blue_star,top_left,2025-04-03_17h10.01.834,HideSeek_v1,2022.2.5,59.97947502097618,
,3,7,3,2,0,-5,66,,train_dim1_1,24,30,,,,2,0,2,0,,,,,,,,,0,0,0,0,0,23,23,23,1,0,1,0,,,,,,,,,,,,,,,,,,,,,,,,,,,,,,,,,,,,,,,,,,,,,,,,,,,,,,,,,,,,,,,,30,,,,,,,,843.7700693001971,843.7700693001971,843.7700693001971,843.7700693001971,843.7700693001971,down,0.5765043999999762,3,0,0,99,0.08,0.0,down,0.5054147997871041,,,,,,,,,,,,,,,,,,,,,,,,,,,,,,,,,,,,,,,,,,,,,,,,,,,,,,,,,,,,YEL750,train_y,blue_star,top_left,2025-04-03_17h10.01.834,HideSeek_v1,2022.2.5,59.97947502097618,
,3,7,3,2,0,-5,66,,train_dim1_1,24,30,,,,2,0,2,0,,,,,,,,,0,0,0,0,0,23,23,23,2,0,2,0,,,,,,,,,,,,,,,,,,,,,,,,,,,,,,,,,,,,,,,,,,,,,,,,,,,,,,,,,,,,,,,,30,,,,,,,,844.3551953001879,844.3551953001879,844.3551953001879,844.3551953001879,844.3551953001879,down,0.6603316001128405,3,0,0,99,0.08,-0.08,down,0.5853349999524653,,,,,,,,,,,,,,,,,,,,,,,,,,,,,,,,,,,,,,,,,,,,,,,,,,,,,,,,,,,,YEL750,train_y,blue_star,top_left,2025-04-03_17h10.01.834,HideSeek_v1,2022.2.5,59.97947502097618,
,3,7,3,2,0,-5,66,,train_dim1_1,24,30,,,,2,0,2,0,,,,,,,,,0,0,0,0,0,23,23,23,3,0,3,0,,,,,,,,,,,,,,,,,,,,,,,,,,,,,,,,,,,,,,,,,,,,,,,,,,,,,,,,,,,,,,,,30,,,,,,,,845.0210395001341,845.0210395001341,845.0210395001341,845.0210395001341,845.0210395001341,down,0.6269863001070917,3,0,0,99,0.08,-0.16,down,0.5556993999052793,,,,,,,,,,,,,,,,,,,,,,,,,,,,,,,,,,,,,,,,,,,,,,,,,,,,,,,,,,,,YEL750,train_y,blue_star,top_left,2025-04-03_17h10.01.834,HideSeek_v1,2022.2.5,59.97947502097618,
,3,7,3,2,0,-5,66,,train_dim1_1,24,30,,,,2,0,2,0,,,,,,,,,0,0,0,0,0,23,23,23,4,0,4,0,,,,,,,,,,,,,,,,,,,,,,,,,,,,,,,,,,,,,,,,,,,,,,,,,,,,,,,,,,,,,,,,30,,,,,,,,845.6552486000583,845.6552486000583,845.6552486000583,845.6552486000583,845.6552486000583,up,3.1956744000781327,3,0,0,99,0.08,-0.08,up,3.114082199987024,,,,,,,,,,,,,,,,,,,,,,,,,,,,,,,,,,,,,,,,,,,,,,,,,,,,,,,,,,,,YEL750,train_y,blue_star,top_left,2025-04-03_17h10.01.834,HideSeek_v1,2022.2.5,59.97947502097618,
,3,7,3,2,0,-5,66,,train_dim1_1,24,30,,,,2,0,2,0,,,,,,,,,0,0,0,0,0,23,23,23,5,0,5,0,,,,,,,,,,,,,,,,,,,,,,,,,,,,,,,,,,,,,,,,,,,,,,,,,,,,,,,,,,,,,,,,30,,,,,,,,848.8592117000371,848.8592117000371,848.8592117000371,848.8592117000371,848.8592117000371,return,0.6093142000027001,3,0,0,0,0.08,-0.08,return,0.5263201000634581,-64,17,0.08,-0.08,,,,,,,,,,,,,,,,,,,,,,,,,,,,,,,,,,,,,,,,,,,,,,,,,,,,,,,,YEL750,train_y,blue_star,top_left,2025-04-03_17h10.01.834,HideSeek_v1,2022.2.5,59.97947502097618,
,3,8,3,7,0,-1,62,,train_dim1_1,25,30,,,,2,0,2,0,,,,,,,,,0,0,0,0,0,24,24,24,0,0,0,0,,,,,,,,,,,,,,,,,,,,,,,,,stimuli/alien_stimuli/62.png,,,,,,,,,,,,,,,,,,,,,,,,,,,,,stimuli/alien_stimuli/66.png,66,3,26,,,,,,,30,,,,,,,,857.5260362001136,857.5260362001136,857.5260362001136,857.5260362001136,857.5260362001136,return,4.103763299994171,3,1,0,0,0.08,0.24,return,4.02115760021843,-64,17,0.08,0.24,855.9670589000452,857.5260362001136,0.08,-0.24,0.4,0.0,-0.039999999999999994,0.08,0.08,0.08,-0.24,851.041249900125,851.041249900125,851.041249900125,851.041249900125,851.041249900125,851.041249900125,851.041249900125,851.041249900125,851.0302213601535,5.04048279998824,return,4.898211099905893,,,,,,,,,,,,,,,,,,,,,,,,,,,,,,,,,YEL750,train_y,blue_star,top_left,2025-04-03_17h10.01.834,HideSeek_v1,2022.2.5,59.97947502097618,
,4,9,4,6,0,-3,64,,train_dim1_1,26,30,,,,2,0,2,0,,,,,,,,,0,0,0,0,0,25,25,25,0,0,0,0,,,,,,,,,,,,,,,,,,,,,,,,,stimuli/alien_stimuli/64.png,,,,,,,,,,,,,,,,,,,,,,,,,,,,,stimuli/alien_stimuli/62.png,62,3,27,,,,,,,30,,,,,,,,869.2658137001563,869.2658137001563,869.2658137001563,869.2658137001563,869.2658137001563,down,2.705315599916503,3,1,0,99,0.16,0.24,down,2.62723460001871,,,,,867.71077720006,869.2658137001563,0.08,0.16,0.08,0.0,0.2,0.08,0.08,0.08,0.16,863.2008305999916,863.2008305999916,863.2008305999916,863.2008305999916,863.2008305999916,863.2008305999916,863.2008305999916,863.2008305999916,863.1902393599739,4.622764100087807,return,4.4782588998787105,,,,,,,,,,,,,,,,,,,,,,,,,,,,,,,,,YEL750,train_y,blue_star,top_left,2025-04-03_17h10.01.834,HideSeek_v1,2022.2.5,59.97947502097618,
,4,9,4,6,0,-3,64,,train_dim1_1,26,30,,,,2,0,2,0,,,,,,,,,0,0,0,0,0,25,25,25,1,0,1,0,,,,,,,,,,,,,,,,,,,,,,,,,,,,,,,,,,,,,,,,,,,,,,,,,,,,,,,,,,,,,,,,30,,,,,,,,871.979964800179,871.979964800179,871.979964800179,871.979964800179,871.979964800179,down,0.6913974999915808,3,1,0,99,0.16,0.15999999999999998,down,0.6049971000757068,,,,,,,,,,,,,,,,,,,,,,,,,,,,,,,,,,,,,,,,,,,,,,,,,,,,,,,,,,,,YEL750,train_y,blue_star,top_left,2025-04-03_17h10.01.834,HideSeek_v1,2022.2.5,59.97947502097618,
,4,9,4,6,0,-3,64,,train_dim1_1,26,30,,,,2,0,2,0,,,,,,,,,0,0,0,0,0,25,25,25,2,0,2,0,,,,,,,,,,,,,,,,,,,,,,,,,,,,,,,,,,,,,,,,,,,,,,,,,,,,,,,,,,,,,,,,30,,,,,,,,872.6773103000596,872.6773103000596,872.6773103000596,872.6773103000596,872.6773103000596,down,0.7102307002060115,3,1,0,99,0.16,0.07999999999999997,down,0.6378325999248773,,,,,,,,,,,,,,,,,,,,,,,,,,,,,,,,,,,,,,,,,,,,,,,,,,,,,,,,,,,,YEL750,train_y,blue_star,top_left,2025-04-03_17h10.01.834,HideSeek_v1,2022.2.5,59.97947502097618,
,4,9,4,6,0,-3,64,,train_dim1_1,26,30,,,,2,0,2,0,,,,,,,,,0,0,0,0,0,25,25,25,3,0,3,0,,,,,,,,,,,,,,,,,,,,,,,,,,,,,,,,,,,,,,,,,,,,,,,,,,,,,,,,,,,,,,,,30,,,,,,,,873.3942034000065,873.3942034000065,873.3942034000065,873.3942034000065,873.3942034000065,down,0.5435250999871641,3,1,0,99,0.16,-2.7755575615628914e-17,down,0.46934759989380836,,,,,,,,,,,,,,,,,,,,,,,,,,,,,,,,,,,,,,,,,,,,,,,,,,,,,,,,,,,,YEL750,train_y,blue_star,top_left,2025-04-03_17h10.01.834,HideSeek_v1,2022.2.5,59.97947502097618,
,4,9,4,6,0,-3,64,,train_dim1_1,26,30,,,,2,0,2,0,,,,,,,,,0,0,0,0,0,25,25,25,4,0,4,0,,,,,,,,,,,,,,,,,,,,,,,,,,,,,,,,,,,,,,,,,,,,,,,,,,,,,,,,,,,,,,,,30,,,,,,,,873.9443636001088,873.9443636001088,873.9443636001088,873.9443636001088,873.9443636001088,return,0.7435655000153929,3,1,0,0,0.16,-2.7755575615628914e-17,return,0.6722643000539392,-68,17,0.16,-2.7755575615628914e-17,,,,,,,,,,,,,,,,,,,,,,,,,,,,,,,,,,,,,,,,,,,,,,,,,,,,,,,,YEL750,train_y,blue_star,top_left,2025-04-03_17h10.01.834,HideSeek_v1,2022.2.5,59.97947502097618,
