trialInstr,x_fixStart,y_fixStart,x_corrSteps,y_corrSteps,x_nrSteps,y_nrSteps,alienID,trialLength,version,trialTrain,praclen,testlen,trial_label,break_on_off,beforeExpLoop.thisRepN,beforeExpLoop.thisTrialN,beforeExpLoop.thisN,beforeExpLoop.thisIndex,mini_instr_trials.thisRepN,mini_instr_trials.thisTrialN,mini_instr_trials.thisN,mini_instr_trials.thisIndex,instrLoop.thisRepN,instrLoop.thisTrialN,instrLoop.thisN,instrLoop.thisIndex,repeat_prac.thisRepN,repeat_prac.thisTrialN,repeat_prac.thisN,repeat_prac.thisIndex,trainLoop.thisRepN,trainLoop.thisTrialN,trainLoop.thisN,trainLoop.thisIndex,moveLoop_train.thisRepN,moveLoop_train.thisTrialN,moveLoop_train.thisN,moveLoop_train.thisIndex,experiment.thisRepN,experiment.thisTrialN,experiment.thisN,experiment.thisIndex,moveLoop_test.thisRepN,moveLoop_test.thisTrialN,moveLoop_test.thisN,moveLoop_test.thisIndex,mini_instr2_trials.thisRepN,mini_instr2_trials.thisTrialN,mini_instr2_trials.thisN,mini_instr2_trials.thisIndex,start_all_time,url,slideStim,audioStim,slides.started,sounds.started,nextButton.numClicks,nextButton.timesOn,nextButton.timesOff,prev_but.numClicks,prev_but.timesOn,prev_but.timesOff,alienStim,instrFile,alienStim_instr,gridImage_instr.started,startPos_3.started,key_instr.started,alienImage_3.started,sounds_1.started,key_instr.keys,key_instr.rt,all_x,all_y,FBy_corrSteps,FBy_fixStart,FBx_corrSteps,FBx_fixStart,FBy_pathSize_check,FBx_pathSize_check,gridImage_9.started,alienImageFB_3.started,startPosFB_3.started,keyFB_3.started,pathLine_ydir_2.started,pathLine_xdir_2.started,alienFace_3.started,sounds_2.started,RTFB_instr,keyFB_3.keys,keyFB_3.rt,draw_alienStim,draw_alienID,test_x,nrepcount,perfthres,percthres,earlierperf,earlystop,nextPrac,fileidx,praclen,saveACC_train,pracFile,nextPrac_train,addNrep,fileidx_endr,repExp,showearly,gridImage_4.started,startPos.started,movePos.started,key_resp.started,alienImage.started,wLy_dir,wLx_dir,x_movePos,y_movePos,buttonPress_train,RTchoice_train,cumAcctrain,aCorr,saveACC_choice,corrAns,x_movePos_end,y_movePos_end,key_resp.keys,key_resp.rt,text_2.started,aft_x_corrPos,aft_y_corrPos,y_pathSize_check,x_pathSize_check,y_pathdirY,x_pathdirY,x_pathdirX,x_corrPos,y_corrPos,gridImage_6.started,alienImageFB_2.started,startPosFB_2.started,movePosFB_2.started,keyFB_2.started,pathLine_xdir.started,pathLine_ydir.started,alienFace.started,sounds_4.started,RT_FBtrain,keyFB_2.keys,keyFB_2.rt,text_2.stopped,saveACC_pre,ACC,within_saveACC_train,earlystop_wloop,cumAcctrain_check,gridImage_3.started,alienImage_test.started,startPos_test.started,movePos_test.started,key_resp_test.started,wLy_dir_test,wLx_dir_test,buttonPress_test,RTchoice_test,cumAcctest,corrAns_test,key_resp_test.keys,key_resp_test.rt,text_3.started,text_3.stopped,total_time,end_all_time,key_resp_3.keys,slides_2.started,sounds_3.started,nextButton_2.numClicks,nextButton_2.timesOn,nextButton_2.timesOff,prev_but_2.numClicks,prev_but_2.timesOn,prev_but_2.timesOff,bye.started,participant,train_first,00_coordinate,starting corner,date,expName,psychopyVersion,frameRate,
,,,,,,,,,,,,,,,0,0,0,0,0,0,0,0,,,,,,,,,,,,,,,,,,,,,,,,,,,,,start_all_time,testround,conditions/schedules/train_x_first/blue_star_00/top_left/instructions/Slide1.png,conditions/schedules/train_x_first/blue_star_00/top_left/instructions/Audio1.wav,45.48651369998697,45.42405200216454,1,[10.554140100022778],[10.554156900034286],0,,,,,,,,,,,,,,,,,,,,,,,,,,,,,,,,,,,,,,,,,,,,,,,,,,,,,,,,,,,,,,,,,,,,,,,,,,,,,,,,,,,,,,,,,,,,,,,,,,,,,,,,,,,,,,,,,,,,,,,,,,,,Z02122,train_x,blue_star,top_left,2025-06-21_10h19.10.803,HideSeek_v1,2022.2.5,59.93831150851034,
,,,,,,,,,,,,,,,0,0,0,0,1,0,1,0,,,,,,,,,,,,,,,,,,,,,,,,,,,,,,,conditions/schedules/train_x_first/blue_star_00/top_left/instructions/Slide2.png,conditions/schedules/train_x_first/blue_star_00/top_left/instructions/Audio2.wav,56.07407610001974,56.073395900055765,2,"[10.554140100022778, 18.61246510001365]","[10.554156900034286, 18.61247320007533]",0,,,,,,,,,,,,,,,,,,,,,,,,,,,,,,,,,,,,,,,,,,,,,,,,,,,,,,,,,,,,,,,,,,,,,,,,,,,,,,,,,,,,,,,,,,,,,,,,,,,,,,,,,,,,,,,,,,,,,,,,,,,,Z02122,train_x,blue_star,top_left,2025-06-21_10h19.10.803,HideSeek_v1,2022.2.5,59.93831150851034,
,,,,,,,,,,,,,,,0,0,0,0,2,0,2,0,,,,,,,,,,,,,,,,,,,,,,,,,,,,,,,conditions/schedules/train_x_first/blue_star_00/top_left/instructions/Slide3.png,conditions/schedules/train_x_first/blue_star_00/top_left/instructions/Audio3.wav,74.76814509998076,74.75581660005264,3,"[10.554140100022778, 18.61246510001365, 16.382099200040102]","[10.554156900034286, 18.61247320007533, 16.38210779998917]",0,,,,,,,,,,,,,,,,,,,,,,,,,,,,,,,,,,,,,,,,,,,,,,,,,,,,,,,,,,,,,,,,,,,,,,,,,,,,,,,,,,,,,,,,,,,,,,,,,,,,,,,,,,,,,,,,,,,,,,,,,,,,Z02122,train_x,blue_star,top_left,2025-06-21_10h19.10.803,HideSeek_v1,2022.2.5,59.93831150851034,
,,,,,,,,,,,,,,,0,0,0,0,3,0,3,0,,,,,,,,,,,,,,,,,,,,,,,,,,,,,,,conditions/schedules/train_x_first/blue_star_00/top_left/instructions/Slide4.png,conditions/schedules/train_x_first/blue_star_00/top_left/instructions/Audio4.wav,91.23292179999407,91.2193147999933,4,"[10.554140100022778, 18.61246510001365, 16.382099200040102, 19.900671100011095]","[10.554156900034286, 18.61247320007533, 0.034365099971182644, 19.900679599959403]",0,,,,,,,,,,,,,,,,,,,,,,,,,,,,,,,,,,,,,,,,,,,,,,,,,,,,,,,,,,,,,,,,,,,,,,,,,,,,,,,,,,,,,,,,,,,,,,,,,,,,,,,,,,,,,,,,,,,,,,,,,,,,Z02122,train_x,blue_star,top_left,2025-06-21_10h19.10.803,HideSeek_v1,2022.2.5,59.93831150851034,
,,,,,,,,,,,,,,,0,0,0,0,4,0,4,0,,,,,,,,,,,,,,,,,,,,,,,,,,,,,,,conditions/schedules/train_x_first/blue_star_00/top_left/instructions/Slide5.png,conditions/schedules/train_x_first/blue_star_00/top_left/instructions/Audio5.wav,111.19941429991741,111.18581109996886,5,"[10.554140100022778, 18.61246510001365, 16.382099200040102, 19.900671100011095, 4.287526699947193]","[10.554156900034286, 18.61247320007533, 0.034365099971182644, 0.034382999991066754, 4.287535500014201]",0,,,,,,,,,,,,,,,,,,,,,,,,,,,,,,,,,,,,,,,,,,,,,,,,,,,,,,,,,,,,,,,,,,,,,,,,,,,,,,,,,,,,,,,,,,,,,,,,,,,,,,,,,,,,,,,,,,,,,,,,,,,,Z02122,train_x,blue_star,top_left,2025-06-21_10h19.10.803,HideSeek_v1,2022.2.5,59.93831150851034,
,,,,,,,,,,,,,,,0,0,0,0,5,0,5,0,,,,,,,,,,,,,,,,,,,,,,,,,,,,,,,conditions/schedules/train_x_first/blue_star_00/top_left/instructions/Slide6.png,conditions/schedules/train_x_first/blue_star_00/top_left/instructions/Audio6.wav,115.5375060000224,115.53947910005228,6,"[10.554140100022778, 18.61246510001365, 16.382099200040102, 19.900671100011095, 4.287526699947193, 4.920142199960537]","[10.554156900034286, 18.61247320007533, 0.034365099971182644, 0.034382999991066754, 0.0495917999651283, 4.920150400022976]",0,,,,,,,,,,,,,,,,,,,,,,,,,,,,,,,,,,,,,,,,,,,,,,,,,,,,,,,,,,,,,,,,,,,,,,,,,,,,,,,,,,,,,,,,,,,,,,,,,,,,,,,,,,,,,,,,,,,,,,,,,,,,Z02122,train_x,blue_star,top_left,2025-06-21_10h19.10.803,HideSeek_v1,2022.2.5,59.93831150851034,
,,,,,,,,,,,,,,,0,0,0,0,6,0,6,0,,,,,,,,,,,,,,,,,,,,,,,,,,,,,,,conditions/schedules/train_x_first/blue_star_00/top_left/instructions/Slide7.png,conditions/schedules/train_x_first/blue_star_00/top_left/instructions/Audio7.wav,120.50987079995684,120.51027039999609,7,"[10.554140100022778, 18.61246510001365, 16.382099200040102, 19.900671100011095, 4.287526699947193, 4.920142199960537, 5.752625599969178]","[10.554156900034286, 18.61247320007533, 0.034365099971182644, 0.034382999991066754, 0.0495917999651283, 0.06491899990942329, 5.752633999916725]",0,,,,,,,,,,,,,,,,,,,,,,,,,,,,,,,,,,,,,,,,,,,,,,,,,,,,,,,,,,,,,,,,,,,,,,,,,,,,,,,,,,,,,,,,,,,,,,,,,,,,,,,,,,,,,,,,,,,,,,,,,,,,Z02122,train_x,blue_star,top_left,2025-06-21_10h19.10.803,HideSeek_v1,2022.2.5,59.93831150851034,
,,,,,,,,,,,,,,,0,0,0,0,7,0,7,0,,,,,,,,,,,,,,,,,,,,,,,,,,,,,,,conditions/schedules/train_x_first/blue_star_00/top_left/instructions/Slide8.png,conditions/schedules/train_x_first/blue_star_00/top_left/instructions/Audio8.wav,126.31480649998412,126.31496300003492,8,"[10.554140100022778, 18.61246510001365, 16.382099200040102, 19.900671100011095, 4.287526699947193, 4.920142199960537, 5.752625599969178, 0.14767900004517287]","[10.554156900034286, 18.61247320007533, 0.034365099971182644, 0.034382999991066754, 0.0495917999651283, 0.06491899990942329, 0.048197500058449805, 0.1476877999957651]",0,,,,,,,,,,,,,,,,,,,,,,,,,,,,,,,,,,,,,,,,,,,,,,,,,,,,,,,,,,,,,,,,,,,,,,,,,,,,,,,,,,,,,,,,,,,,,,,,,,,,,,,,,,,,,,,,,,,,,,,,,,,,Z02122,train_x,blue_star,top_left,2025-06-21_10h19.10.803,HideSeek_v1,2022.2.5,59.93831150851034,
,,,,,,,,,,,,,,,0,0,0,0,8,0,8,0,,,,,,,,,,,,,,,,,,,,,,,,,,,,,,,conditions/schedules/train_x_first/blue_star_00/top_left/instructions/Slide9.png,conditions/schedules/train_x_first/blue_star_00/top_left/instructions/Audio9.wav,126.51397959992755,126.5151091000531,9,"[10.554140100022778, 18.61246510001365, 16.382099200040102, 19.900671100011095, 4.287526699947193, 4.920142199960537, 5.752625599969178, 0.14767900004517287, 5.603499099961482]","[10.554156900034286, 18.61247320007533, 0.034365099971182644, 0.034382999991066754, 0.0495917999651283, 0.06491899990942329, 0.048197500058449805, 0.04894649994093925, 5.603507499909028]",0,,,,,,,,,,,,,,,,,,,,,,,,,,,,,,,,,,,,,,,,,,,,,,,,,,,,,,,,,,,,,,,,,,,,,,,,,,,,,,,,,,,,,,,,,,,,,,,,,,,,,,,,,,,,,,,,,,,,,,,,,,,,Z02122,train_x,blue_star,top_left,2025-06-21_10h19.10.803,HideSeek_v1,2022.2.5,59.93831150851034,
,,,,,,,,,,,,,,,0,0,0,0,9,0,9,0,,,,,,,,,,,,,,,,,,,,,,,,,,,,,,,conditions/schedules/train_x_first/blue_star_00/top_left/instructions/Slide10.png,conditions/schedules/train_x_first/blue_star_00/top_left/instructions/Audio10.wav,132.15479379997123,132.15329780003523,10,"[10.554140100022778, 18.61246510001365, 16.382099200040102, 19.900671100011095, 4.287526699947193, 4.920142199960537, 5.752625599969178, 0.14767900004517287, 5.603499099961482, 6.751783499959856]","[10.554156900034286, 18.61247320007533, 0.034365099971182644, 0.034382999991066754, 0.0495917999651283, 0.06491899990942329, 0.048197500058449805, 0.04894649994093925, 0.07965420000255108, 6.751791800023057]",0,,,,,,,,,,,,,,,,,,,,,,,,,,,,,,,,,,,,,,,,,,,,,,,,,,,,,,,,,,,,,,,,,,,,,,,,,,,,,,,,,,,,,,,,,,,,,,,,,,,,,,,,,,,,,,,,,,,,,,,,,,,,Z02122,train_x,blue_star,top_left,2025-06-21_10h19.10.803,HideSeek_v1,2022.2.5,59.93831150851034,
,,,,,,,,,,,,,,,0,0,0,0,10,0,10,0,,,,,,,,,,,,,,,,,,,,,,,,,,,,,,,conditions/schedules/train_x_first/blue_star_00/top_left/instructions/Slide11.png,conditions/schedules/train_x_first/blue_star_00/top_left/instructions/Audio11.wav,138.9765673999209,138.97563330002595,11,"[10.554140100022778, 18.61246510001365, 16.382099200040102, 19.900671100011095, 4.287526699947193, 4.920142199960537, 5.752625599969178, 0.14767900004517287, 5.603499099961482, 6.751783499959856, 9.40422090003267]","[10.554156900034286, 18.61247320007533, 0.034365099971182644, 0.034382999991066754, 0.0495917999651283, 0.06491899990942329, 0.048197500058449805, 0.04894649994093925, 0.07965420000255108, 0.047666799975559115, 9.404229399980977]",0,,,,,,,,,,,,,,,,,,,,,,,,,,,,,,,,,,,,,,,,,,,,,,,,,,,,,,,,,,,,,,,,,,,,,,,,,,,,,,,,,,,,,,,,,,,,,,,,,,,,,,,,,,,,,,,,,,,,,,,,,,,,Z02122,train_x,blue_star,top_left,2025-06-21_10h19.10.803,HideSeek_v1,2022.2.5,59.93831150851034,
,,,,,,,,,,,,,,,0,0,0,0,11,0,11,0,,,,,,,,,,,,,,,,,,,,,,,,,,,,,,,conditions/schedules/train_x_first/blue_star_00/top_left/instructions/Slide12.png,conditions/schedules/train_x_first/blue_star_00/top_left/instructions/Audio12.wav,148.455085100024,148.44989859999623,12,"[10.554140100022778, 18.61246510001365, 16.382099200040102, 19.900671100011095, 4.287526699947193, 4.920142199960537, 5.752625599969178, 0.14767900004517287, 5.603499099961482, 6.751783499959856, 9.40422090003267, 12.75315290002618]","[10.554156900034286, 18.61247320007533, 0.034365099971182644, 0.034382999991066754, 0.0495917999651283, 0.06491899990942329, 0.048197500058449805, 0.04894649994093925, 0.07965420000255108, 0.047666799975559115, 0.013757799984887242, 12.753162399982102]",0,,,,,,,,,,,,,,,,,,,,,,,,,,,,,,,,,,,,,,,,,,,,,,,,,,,,,,,,,,,,,,,,,,,,,,,,,,,,,,,,,,,,,,,,,,,,,,,,,,,,,,,,,,,,,,,,,,,,,,,,,,,,Z02122,train_x,blue_star,top_left,2025-06-21_10h19.10.803,HideSeek_v1,2022.2.5,59.93831150851034,
1,4,5,9,5,5,0,11,2,instr_dim1_1,,,,,,0,0,0,0,,,,,0,0,0,0,,,,,,,,,,,,,,,,,,,,,,,,,,,,,,,,,,,,,stimuli/alien_stimuli/11.png,conditions/schedules/train_x_first/blue_star_00/top_left/inputInstr_1.xlsx,stimuli/alien_stimuli/11.png,161.31290889997035,161.31290889997035,161.31290889997035,161.31290889997035,161.3105759999715,return,9.209374400088564,"[-0.16, -0.08, 0, 0.08, 0.16, 0.24, 0.32, 0.4, 0.48, 0.56]","[-0.4, -0.32, -0.24, -0.16, -0.08, 0, 0.08, 0.16, 0.24, 0.32]",5,5,9,4,0.0,0.4,170.68643799994607,170.68643799994607,170.68643799994607,170.68643799994607,170.68643799994607,170.68643799994607,170.68643799994607,170.6849655000493,9.292041600099765,return,9.125461700023152,stimuli/alien_stimuli/11.png,11,4,1,,,,,,,,,,,,,,,,,,,,,,,,,,,,,,,,,,,,,,,,,,,,,,,,,,,,,,,,,,,,,,,,,,,,,,,,,,,,,,,,,,,,,,,,,Z02122,train_x,blue_star,top_left,2025-06-21_10h19.10.803,HideSeek_v1,2022.2.5,59.93831150851034,
,,,,,,,,,,,30,,,,0,0,0,0,,,,,,,,,,,,,,,,,,,,,,,,,,,,,,,,,,,,,,,,,,,,,,,,,,,,,,,,,,,,,,,,,,,,,,,,,,,,,,21,0.7,0,0,99,1,30,0,conditions/schedules/train_x_first/blue_star_00/top_left/inputTrain_1.1.xlsx,99,1,1,1,0,,,,,,,,,,,,,,,,,,,,,,,,,,,,,,,,,,,,,,,,,,,,,,,,,,,,,,,,,,,,,,,,,,,,,,,,,,,Z02122,train_x,blue_star,top_left,2025-06-21_10h19.10.803,HideSeek_v1,2022.2.5,59.93831150851034,
,,,,,,,,,,,,,,,1,0,1,0,0,0,0,0,,,,,,,,,,,,,,,,,,,,,,,,,,,,,,,conditions/schedules/train_x_first/blue_star_00/top_left/instructions/Slide13.png,conditions/schedules/train_x_first/blue_star_00/top_left/instructions/Audio13.wav,179.9711400999222,179.95956410006622,13,"[10.554140100022778, 18.61246510001365, 16.382099200040102, 19.900671100011095, 4.287526699947193, 4.920142199960537, 5.752625599969178, 0.14767900004517287, 5.603499099961482, 6.751783499959856, 9.40422090003267, 12.75315290002618, 16.84938290005084]","[10.554156900034286, 18.61247320007533, 0.034365099971182644, 0.034382999991066754, 0.0495917999651283, 0.06491899990942329, 0.048197500058449805, 0.04894649994093925, 0.07965420000255108, 0.047666799975559115, 0.013757799984887242, 12.753162399982102, 16.84939079999458]",0,,,,,,,,,,,,,,,,,,,,,,,,,,,,,,,,,,,,,,,,,,,,,,,,,,,,,,,,,,,,,,,,,,,,,,,,,,,,,,,,,,,,,,,,,,,,,,,,,,,,,,,,,,,,,,,,,,,,,,,,,,,,Z02122,train_x,blue_star,top_left,2025-06-21_10h19.10.803,HideSeek_v1,2022.2.5,59.93831150851034,
,,,,,,,,,,,,,,,1,0,1,0,1,0,1,0,,,,,,,,,,,,,,,,,,,,,,,,,,,,,,,conditions/schedules/train_x_first/blue_star_00/top_left/instructions/Slide14.png,conditions/schedules/train_x_first/blue_star_00/top_left/instructions/Audio14.wav,196.9138575999532,196.9069911000319,14,"[10.554140100022778, 18.61246510001365, 16.382099200040102, 19.900671100011095, 4.287526699947193, 4.920142199960537, 5.752625599969178, 0.14767900004517287, 5.603499099961482, 6.751783499959856, 9.40422090003267, 12.75315290002618, 16.84938290005084, 12.668976200046018]","[10.554156900034286, 18.61247320007533, 0.034365099971182644, 0.034382999991066754, 0.0495917999651283, 0.06491899990942329, 0.048197500058449805, 0.04894649994093925, 0.07965420000255108, 0.047666799975559115, 0.013757799984887242, 12.753162399982102, 16.84939079999458, 12.668985600001179]",0,,,,,,,,,,,,,,,,,,,,,,,,,,,,,,,,,,,,,,,,,,,,,,,,,,,,,,,,,,,,,,,,,,,,,,,,,,,,,,,,,,,,,,,,,,,,,,,,,,,,,,,,,,,,,,,,,,,,,,,,,,,,Z02122,train_x,blue_star,top_left,2025-06-21_10h19.10.803,HideSeek_v1,2022.2.5,59.93831150851034,
2,3,7,3,7,0,0,61,2,instr_dim1_1,,,,,,1,0,1,0,,,,,0,0,0,0,,,,,,,,,,,,,,,,,,,,,,,,,,,,,,,,,,,,,stimuli/alien_stimuli/61.png,conditions/schedules/train_x_first/blue_star_00/top_left/inputInstr_1.xlsx,stimuli/alien_stimuli/61.png,209.68583580001723,209.68583580001723,209.68583580001723,209.68583580001723,209.68406870001928,return,6.608183900010772,"[-0.16, -0.08, 0, 0.08, 0.16, 0.24, 0.32, 0.4, 0.48, 0.56]","[-0.4, -0.32, -0.24, -0.16, -0.08, 0, 0.08, 0.16, 0.24, 0.32]",7,7,3,3,0.0,0.0,216.45909909997135,216.45909909997135,216.45909909997135,216.45909909997135,216.45909909997135,216.45909909997135,216.45909909997135,216.439580100053,7.240273099974729,return,7.070610599941574,stimuli/alien_stimuli/61.png,61,3,2,,,,,,,,,,,,,,,,,,,,,,,,,,,,,,,,,,,,,,,,,,,,,,,,,,,,,,,,,,,,,,,,,,,,,,,,,,,,,,,,,,,,,,,,,Z02122,train_x,blue_star,top_left,2025-06-21_10h19.10.803,HideSeek_v1,2022.2.5,59.93831150851034,
,,,,,,,,,,,30,,,,1,0,1,0,,,,,,,,,,,,,,,,,,,,,,,,,,,,,,,,,,,,,,,,,,,,,,,,,,,,,,,,,,,,,,,,,,,,,,,,,,,,,,21,0.7,0,0,99,1,30,0,conditions/schedules/train_x_first/blue_star_00/top_left/inputTrain_1.1.xlsx,99,1,1,1,0,,,,,,,,,,,,,,,,,,,,,,,,,,,,,,,,,,,,,,,,,,,,,,,,,,,,,,,,,,,,,,,,,,,,,,,,,,,Z02122,train_x,blue_star,top_left,2025-06-21_10h19.10.803,HideSeek_v1,2022.2.5,59.93831150851034,
,,,,,,,,,,,,,,,2,0,2,0,0,0,0,0,,,,,,,,,,,,,,,,,,,,,,,,,,,,,,,conditions/schedules/train_x_first/blue_star_00/top_left/instructions/Slide15.png,conditions/schedules/train_x_first/blue_star_00/top_left/instructions/Audio15.wav,223.70216440001968,223.69567070007324,15,"[10.554140100022778, 18.61246510001365, 16.382099200040102, 19.900671100011095, 4.287526699947193, 4.920142199960537, 5.752625599969178, 0.14767900004517287, 5.603499099961482, 6.751783499959856, 9.40422090003267, 12.75315290002618, 16.84938290005084, 12.668976200046018, 29.832482300000265]","[10.554156900034286, 18.61247320007533, 0.034365099971182644, 0.034382999991066754, 0.0495917999651283, 0.06491899990942329, 0.048197500058449805, 0.04894649994093925, 0.07965420000255108, 0.047666799975559115, 0.013757799984887242, 12.753162399982102, 16.84939079999458, 12.668985600001179, 29.832491499953903]",0,,,,,,,,,,,,,,,,,,,,,,,,,,,,,,,,,,,,,,,,,,,,,,,,,,,,,,,,,,,,,,,,,,,,,,,,,,,,,,,,,,,,,,,,,,,,,,,,,,,,,,,,,,,,,,,,,,,,,,,,,,,,Z02122,train_x,blue_star,top_left,2025-06-21_10h19.10.803,HideSeek_v1,2022.2.5,59.93831150851034,
,,,,,,,,,,,,,,,2,0,2,0,1,0,1,0,,,,,,,,,,,,,,,,,,,,,,,,,,,,,,,conditions/schedules/train_x_first/blue_star_00/top_left/instructions/Slide16.png,conditions/schedules/train_x_first/blue_star_00/top_left/instructions/Audio16.wav,253.62673649995122,253.62062609996647,16,"[10.554140100022778, 18.61246510001365, 16.382099200040102, 19.900671100011095, 4.287526699947193, 4.920142199960537, 5.752625599969178, 0.14767900004517287, 5.603499099961482, 6.751783499959856, 9.40422090003267, 12.75315290002618, 16.84938290005084, 12.668976200046018, 29.832482300000265, 21.425851300009526]","[10.554156900034286, 18.61247320007533, 0.034365099971182644, 0.034382999991066754, 0.0495917999651283, 0.06491899990942329, 0.048197500058449805, 0.04894649994093925, 0.07965420000255108, 0.047666799975559115, 0.013757799984887242, 12.753162399982102, 16.84939079999458, 12.668985600001179, 0.1951143000042066, 21.42585949995555]",0,,,,,,,,,,,,,,,,,,,,,,,,,,,,,,,,,,,,,,,,,,,,,,,,,,,,,,,,,,,,,,,,,,,,,,,,,,,,,,,,,,,,,,,,,,,,,,,,,,,,,,,,,,,,,,,,,,,,,,,,,,,,Z02122,train_x,blue_star,top_left,2025-06-21_10h19.10.803,HideSeek_v1,2022.2.5,59.93831150851034,
,2,6,5,6,3,0,31,,train_dim1_1,1,30,,,,2,0,2,0,,,,,,,,,0,0,0,0,0,0,0,0,0,0,0,0,,,,,,,,,,,,,,,,,,,,,,,,,stimuli/alien_stimuli/31.png,,,,,,,,,,,,,,,,,,,,,,,,,,,,,,,,,,,,,,,30,,,,,,,,275.15539919992443,275.15539919992443,275.15539919992443,275.15539919992443,275.15539919992443,0,0,0,0.08,return,3.7473135999171063,0,0,0,0,0,0.08,return,3.640937800053507,,,,,,,,,,,,,,,,,,,,,,,,,,,,,,,,,,,,,,,,,,,,,,,,,,,,,,,,Z02122,train_x,blue_star,top_left,2025-06-21_10h19.10.803,HideSeek_v1,2022.2.5,59.93831150851034,
,2,9,7,9,5,0,11,,train_dim1_1,2,30,,,,2,0,2,0,,,,,,,,,0,0,0,0,0,1,1,1,0,0,0,0,,,,,,,,,,,,,,,,,,,,,,,,,stimuli/alien_stimuli/11.png,,,,,,,,,,,,,,,,,,,,,,,,,,,,,stimuli/alien_stimuli/31.png,31,2,3,,,,,,,30,,,,,,,,309.901579999947,309.901579999947,309.901579999947,309.901579999947,309.901579999947,,,,,down,2.202550799935125,0,0,0,99,0,0.24,down,2.086084399954416,308.31597839994356,0.24,0.08,0.0,0.24,0.08,0.24,0.12,0.24,0.08,280.4712813999504,280.4712813999504,280.4712813999504,280.4712813999504,280.4712813999504,280.4712813999504,280.4712813999504,280.4712813999504,280.4592869000742,27.959108700044453,return,27.82060159998946,309.901579999947,,,,,,,,,,,,,,,,,,,,,,,,,,,,,,,,,Z02122,train_x,blue_star,top_left,2025-06-21_10h19.10.803,HideSeek_v1,2022.2.5,59.93831150851034,
,2,9,7,9,5,0,11,,train_dim1_1,2,30,,,,2,0,2,0,,,,,,,,,0,0,0,0,0,1,1,1,1,0,1,0,,,,,,,,,,,,,,,,,,,,,,,,,,,,,,,,,,,,,,,,,,,,,,,,,,,,,,,,,,,,,,,,30,,,,,,,,312.0930448999861,312.0930448999861,312.0930448999861,312.0930448999861,312.0930448999861,,,,,down,1.2550717000849545,0,0,0,99,0,0.15999999999999998,down,1.163742300006561,,,,,,,,,,,,,,,,,,,,,,,,,,,,,,,,,,,,,,,,,,,,,,,,,,,,,,,,Z02122,train_x,blue_star,top_left,2025-06-21_10h19.10.803,HideSeek_v1,2022.2.5,59.93831150851034,
,2,9,7,9,5,0,11,,train_dim1_1,2,30,,,,2,0,2,0,,,,,,,,,0,0,0,0,0,1,1,1,2,0,2,0,,,,,,,,,,,,,,,,,,,,,,,,,,,,,,,,,,,,,,,,,,,,,,,,,,,,,,,,,,,,,,,,30,,,,,,,,313.35421739995945,313.35421739995945,313.35421739995945,313.35421739995945,313.35421739995945,,,,,down,1.560665400000289,0,0,0,99,0,0.07999999999999997,down,1.4821753000142053,,,,,,,,,,,,,,,,,,,,,,,,,,,,,,,,,,,,,,,,,,,,,,,,,,,,,,,,Z02122,train_x,blue_star,top_left,2025-06-21_10h19.10.803,HideSeek_v1,2022.2.5,59.93831150851034,
,2,9,7,9,5,0,11,,train_dim1_1,2,30,,,,2,0,2,0,,,,,,,,,0,0,0,0,0,1,1,1,3,0,3,0,,,,,,,,,,,,,,,,,,,,,,,,,,,,,,,,,,,,,,,,,,,,,,,,,,,,,,,,,,,,,,,,30,,,,,,,,314.92299539991654,314.92299539991654,314.92299539991654,314.92299539991654,314.92299539991654,,,,,right,2.7288249999983236,0,0,0,99,0.08,0.07999999999999997,right,2.645765000022948,,,,,,,,,,,,,,,,,,,,,,,,,,,,,,,,,,,,,,,,,,,,,,,,,,,,,,,,Z02122,train_x,blue_star,top_left,2025-06-21_10h19.10.803,HideSeek_v1,2022.2.5,59.93831150851034,
,2,9,7,9,5,0,11,,train_dim1_1,2,30,,,,2,0,2,0,,,,,,,,,0,0,0,0,0,1,1,1,4,0,4,0,,,,,,,,,,,,,,,,,,,,,,,,,,,,,,,,,,,,,,,,,,,,,,,,,,,,,,,,,,,,,,,,30,,,,,,,,317.6594687999459,317.6594687999459,317.6594687999459,317.6594687999459,317.6594687999459,-3,1,0.08,0.07999999999999997,return,1.1093424999853596,0,0,0,0,0.08,0.07999999999999997,return,1.028070000000298,,,,,,,,,,,,,,,,,,,,,,,,,,,,,,,,,,,,,,,,,,,,,,,,,,,,,,,,Z02122,train_x,blue_star,top_left,2025-06-21_10h19.10.803,HideSeek_v1,2022.2.5,59.93831150851034,
,4,9,8,9,4,0,21,,train_dim1_1,3,30,,,,2,0,2,0,,,,,,,,,0,0,0,0,0,2,2,2,0,0,0,0,,,,,,,,,,,,,,,,,,,,,,,,,stimuli/alien_stimuli/21.png,,,,,,,,,,,,,,,,,,,,,,,,,,,,,stimuli/alien_stimuli/11.png,11,2,4,,,,,,,30,,,,,,,,331.35415949998423,331.35415949998423,331.35415949998423,331.35415949998423,331.35415949998423,,,,,down,12.412713499972597,0,0,0,99,0.16,0.24,down,12.307507000048645,329.7671276999172,0.4,0.32,0.0,0.4,0.32,0.4,0.2,0.4,0.32,320.3591158000054,320.3591158000054,320.3591158000054,320.3591158000054,320.3591158000054,320.3591158000054,320.3591158000054,320.3591158000054,320.3426896000048,9.543331900029443,return,9.383871900034137,331.35415949998423,,,,,,,,,,,,,,,,,,,,,,,,,,,,,,,,,Z02122,train_x,blue_star,top_left,2025-06-21_10h19.10.803,HideSeek_v1,2022.2.5,59.93831150851034,
,4,9,8,9,4,0,21,,train_dim1_1,3,30,,,,2,0,2,0,,,,,,,,,0,0,0,0,0,2,2,2,1,0,1,0,,,,,,,,,,,,,,,,,,,,,,,,,,,,,,,,,,,,,,,,,,,,,,,,,,,,,,,,,,,,,,,,30,,,,,,,,343.7655058000237,343.7655058000237,343.7655058000237,343.7655058000237,343.7655058000237,,,,,down,0.6549120999407023,0,0,0,99,0.16,0.15999999999999998,down,0.5631054000696167,,,,,,,,,,,,,,,,,,,,,,,,,,,,,,,,,,,,,,,,,,,,,,,,,,,,,,,,Z02122,train_x,blue_star,top_left,2025-06-21_10h19.10.803,HideSeek_v1,2022.2.5,59.93831150851034,
,4,9,8,9,4,0,21,,train_dim1_1,3,30,,,,2,0,2,0,,,,,,,,,0,0,0,0,0,2,2,2,2,0,2,0,,,,,,,,,,,,,,,,,,,,,,,,,,,,,,,,,,,,,,,,,,,,,,,,,,,,,,,,,,,,,,,,30,,,,,,,,344.4137012999272,344.4137012999272,344.4137012999272,344.4137012999272,344.4137012999272,,,,,down,0.5434612999670208,0,0,0,99,0.16,0.07999999999999997,down,0.45972039992921054,,,,,,,,,,,,,,,,,,,,,,,,,,,,,,,,,,,,,,,,,,,,,,,,,,,,,,,,Z02122,train_x,blue_star,top_left,2025-06-21_10h19.10.803,HideSeek_v1,2022.2.5,59.93831150851034,
,4,9,8,9,4,0,21,,train_dim1_1,3,30,,,,2,0,2,0,,,,,,,,,0,0,0,0,0,2,2,2,3,0,3,0,,,,,,,,,,,,,,,,,,,,,,,,,,,,,,,,,,,,,,,,,,,,,,,,,,,,,,,,,,,,,,,,30,,,,,,,,344.96376029995736,344.96376029995736,344.96376029995736,344.96376029995736,344.96376029995736,-6,1,0.16,0.07999999999999997,return,1.9614155000308529,0,0,0,0,0.16,0.07999999999999997,return,1.8796426000772044,,,,,,,,,,,,,,,,,,,,,,,,,,,,,,,,,,,,,,,,,,,,,,,,,,,,,,,,Z02122,train_x,blue_star,top_left,2025-06-21_10h19.10.803,HideSeek_v1,2022.2.5,59.93831150851034,
,2,8,3,8,1,0,51,,train_dim1_1,4,30,,,,2,0,2,0,,,,,,,,,0,0,0,0,0,3,3,3,0,0,0,0,,,,,,,,,,,,,,,,,,,,,,,,,stimuli/alien_stimuli/51.png,,,,,,,,,,,,,,,,,,,,,,,,,,,,,stimuli/alien_stimuli/21.png,21,4,5,,,,,,,30,,,,,,,,358.63659469992854,358.63659469992854,358.63659469992854,358.63659469992854,358.63659469992854,,,,,right,5.5421887000557035,0,0,0,99,0.08,0.24,right,5.458789900061674,357.07332079997286,0.48,0.32,0.0,0.32,0.32,0.48,0.32,0.48,0.32,348.5146885999711,348.5146885999711,348.5146885999711,348.5146885999711,348.5146885999711,348.5146885999711,348.5146885999711,348.5146885999711,348.49928280005696,8.692667499999516,return,8.531811900087632,358.63659469992854,,,,,,,,,,,,,,,,,,,,,,,,,,,,,,,,,Z02122,train_x,blue_star,top_left,2025-06-21_10h19.10.803,HideSeek_v1,2022.2.5,59.93831150851034,
,2,8,3,8,1,0,51,,train_dim1_1,4,30,,,,2,0,2,0,,,,,,,,,0,0,0,0,0,3,3,3,1,0,1,0,,,,,,,,,,,,,,,,,,,,,,,,,,,,,,,,,,,,,,,,,,,,,,,,,,,,,,,,,,,,,,,,30,,,,,,,,364.183907300001,364.183907300001,364.183907300001,364.183907300001,364.183907300001,,,,,right,0.48779860010836273,0,0,0,99,0.16,0.24,right,0.4095294999424368,,,,,,,,,,,,,,,,,,,,,,,,,,,,,,,,,,,,,,,,,,,,,,,,,,,,,,,,Z02122,train_x,blue_star,top_left,2025-06-21_10h19.10.803,HideSeek_v1,2022.2.5,59.93831150851034,
,2,8,3,8,1,0,51,,train_dim1_1,4,30,,,,2,0,2,0,,,,,,,,,0,0,0,0,0,3,3,3,2,0,2,0,,,,,,,,,,,,,,,,,,,,,,,,,,,,,,,,,,,,,,,,,,,,,,,,,,,,,,,,,,,,,,,,30,,,,,,,,364.67792699998245,364.67792699998245,364.67792699998245,364.67792699998245,364.67792699998245,,,,,right,0.4435809999704361,0,0,0,99,0.24,0.24,right,0.36119339999277145,,,,,,,,,,,,,,,,,,,,,,,,,,,,,,,,,,,,,,,,,,,,,,,,,,,,,,,,Z02122,train_x,blue_star,top_left,2025-06-21_10h19.10.803,HideSeek_v1,2022.2.5,59.93831150851034,
,2,8,3,8,1,0,51,,train_dim1_1,4,30,,,,2,0,2,0,,,,,,,,,0,0,0,0,0,3,3,3,3,0,3,0,,,,,,,,,,,,,,,,,,,,,,,,,,,,,,,,,,,,,,,,,,,,,,,,,,,,,,,,,,,,,,,,30,,,,,,,,365.128286399995,365.128286399995,365.128286399995,365.128286399995,365.128286399995,,,,,right,0.44327639997936785,0,0,0,99,0.32,0.24,right,0.3591493999119848,,,,,,,,,,,,,,,,,,,,,,,,,,,,,,,,,,,,,,,,,,,,,,,,,,,,,,,,Z02122,train_x,blue_star,top_left,2025-06-21_10h19.10.803,HideSeek_v1,2022.2.5,59.93831150851034,
,2,8,3,8,1,0,51,,train_dim1_1,4,30,,,,2,0,2,0,,,,,,,,,0,0,0,0,0,3,3,3,4,0,4,0,,,,,,,,,,,,,,,,,,,,,,,,,,,,,,,,,,,,,,,,,,,,,,,,,,,,,,,,,,,,,,,,30,,,,,,,,365.5791130999569,365.5791130999569,365.5791130999569,365.5791130999569,365.5791130999569,,,,,right,0.4265091000124812,0,0,0,99,0.4,0.24,right,0.35051699995528907,,,,,,,,,,,,,,,,,,,,,,,,,,,,,,,,,,,,,,,,,,,,,,,,,,,,,,,,Z02122,train_x,blue_star,top_left,2025-06-21_10h19.10.803,HideSeek_v1,2022.2.5,59.93831150851034,
,2,8,3,8,1,0,51,,train_dim1_1,4,30,,,,2,0,2,0,,,,,,,,,0,0,0,0,0,3,3,3,5,0,5,0,,,,,,,,,,,,,,,,,,,,,,,,,,,,,,,,,,,,,,,,,,,,,,,,,,,,,,,,,,,,,,,,30,,,,,,,,366.0137256999733,366.0137256999733,366.0137256999733,366.0137256999733,366.0137256999733,-6,6,0.4,0.24,return,1.377209100057371,0,0,0,0,0.4,0.24,return,1.2922702999785542,,,,,,,,,,,,,,,,,,,,,,,,,,,,,,,,,,,,,,,,,,,,,,,,,,,,,,,,Z02122,train_x,blue_star,top_left,2025-06-21_10h19.10.803,HideSeek_v1,2022.2.5,59.93831150851034,
,0,7,0,7,0,0,61,,train_dim1_1,5,30,,,,2,0,2,0,,,,,,,,,0,0,0,0,0,4,4,4,0,0,0,0,,,,,,,,,,,,,,,,,,,,,,,,,stimuli/alien_stimuli/61.png,,,,,,,,,,,,,,,,,,,,,,,,,,,,,stimuli/alien_stimuli/51.png,51,2,6,,,,,,,30,,,,,,,,393.15962159994524,393.15962159994524,393.15962159994524,393.15962159994524,393.15962159994524,,,,,down,3.0895306000020355,0,0,0,99,-0.16,0.08,down,2.9914003000594676,391.5851646999363,0.08,0.24,0.0,0.08,0.24,0.08,0.04,0.08,0.24,368.9595239999471,368.9595239999471,368.9595239999471,368.9595239999471,368.9595239999471,368.9595239999471,368.9595239999471,368.9595239999471,368.9494330000132,22.737565099960193,return,22.603313499945216,393.15962159994524,,,,,,,,,,,,,,,,,,,,,,,,,,,,,,,,,Z02122,train_x,blue_star,top_left,2025-06-21_10h19.10.803,HideSeek_v1,2022.2.5,59.93831150851034,
,0,7,0,7,0,0,61,,train_dim1_1,5,30,,,,2,0,2,0,,,,,,,,,0,0,0,0,0,4,4,4,1,0,1,0,,,,,,,,,,,,,,,,,,,,,,,,,,,,,,,,,,,,,,,,,,,,,,,,,,,,,,,,,,,,,,,,30,,,,,,,,396.2408516999567,396.2408516999567,396.2408516999567,396.2408516999567,396.2408516999567,,,,,down,0.5554231000132859,0,0,0,99,-0.16,0.0,down,0.4795823999447748,,,,,,,,,,,,,,,,,,,,,,,,,,,,,,,,,,,,,,,,,,,,,,,,,,,,,,,,Z02122,train_x,blue_star,top_left,2025-06-21_10h19.10.803,HideSeek_v1,2022.2.5,59.93831150851034,
,0,7,0,7,0,0,61,,train_dim1_1,5,30,,,,2,0,2,0,,,,,,,,,0,0,0,0,0,4,4,4,2,0,2,0,,,,,,,,,,,,,,,,,,,,,,,,,,,,,,,,,,,,,,,,,,,,,,,,,,,,,,,,,,,,,,,,30,,,,,,,,396.8031753000105,396.8031753000105,396.8031753000105,396.8031753000105,396.8031753000105,,,,,down,0.5766135000158101,0,0,0,99,-0.16,-0.08,down,0.4944415999343619,,,,,,,,,,,,,,,,,,,,,,,,,,,,,,,,,,,,,,,,,,,,,,,,,,,,,,,,Z02122,train_x,blue_star,top_left,2025-06-21_10h19.10.803,HideSeek_v1,2022.2.5,59.93831150851034,
,0,7,0,7,0,0,61,,train_dim1_1,5,30,,,,2,0,2,0,,,,,,,,,0,0,0,0,0,4,4,4,3,0,3,0,,,,,,,,,,,,,,,,,,,,,,,,,,,,,,,,,,,,,,,,,,,,,,,,,,,,,,,,,,,,,,,,30,,,,,,,,397.38700909994077,397.38700909994077,397.38700909994077,397.38700909994077,397.38700909994077,,,,,down,0.46052069996949285,0,0,0,99,-0.16,-0.16,down,0.3872918999986723,,,,,,,,,,,,,,,,,,,,,,,,,,,,,,,,,,,,,,,,,,,,,,,,,,,,,,,,Z02122,train_x,blue_star,top_left,2025-06-21_10h19.10.803,HideSeek_v1,2022.2.5,59.93831150851034,
,0,7,0,7,0,0,61,,train_dim1_1,5,30,,,,2,0,2,0,,,,,,,,,0,0,0,0,0,4,4,4,4,0,4,0,,,,,,,,,,,,,,,,,,,,,,,,,,,,,,,,,,,,,,,,,,,,,,,,,,,,,,,,,,,,,,,,30,,,,,,,,397.8549680999713,397.8549680999713,397.8549680999713,397.8549680999713,397.8549680999713,-10,6,-0.16,-0.16,return,1.277190100052394,0,0,0,0,-0.16,-0.16,return,1.1889318999601528,,,,,,,,,,,,,,,,,,,,,,,,,,,,,,,,,,,,,,,,,,,,,,,,,,,,,,,,Z02122,train_x,blue_star,top_left,2025-06-21_10h19.10.803,HideSeek_v1,2022.2.5,59.93831150851034,
,0,5,4,5,4,0,21,,train_dim1_1,6,30,,,,2,0,2,0,,,,,,,,,0,0,0,0,0,5,5,5,0,0,0,0,,,,,,,,,,,,,,,,,,,,,,,,,stimuli/alien_stimuli/21.png,,,,,,,,,,,,,,,,,,,,,,,,,,,,,stimuli/alien_stimuli/61.png,61,0,7,,,,,,,30,,,,,,,,405.6086657999549,405.6086657999549,405.6086657999549,405.6086657999549,405.6086657999549,,,,,right,1.7393252000911161,0,0,0,99,-0.08,0,right,1.6412848000181839,404.0455077999504,-0.16,0.16,0.0,0.0,0.16,-0.16,-0.16,-0.16,0.16,400.70891829999164,400.70891829999164,400.70891829999164,400.70891829999164,400.70891829999164,400.70891829999164,400.70891829999164,400.70891829999164,400.692595399986,3.4548018000787124,return,3.30718570004683,405.6086657999549,,,,,,,,,,,,,,,,,,,,,,,,,,,,,,,,,Z02122,train_x,blue_star,top_left,2025-06-21_10h19.10.803,HideSeek_v1,2022.2.5,59.93831150851034,
,0,5,4,5,4,0,21,,train_dim1_1,6,30,,,,2,0,2,0,,,,,,,,,0,0,0,0,0,5,5,5,1,0,1,0,,,,,,,,,,,,,,,,,,,,,,,,,,,,,,,,,,,,,,,,,,,,,,,,,,,,,,,,,,,,,,,,30,,,,,,,,407.35260430001654,407.35260430001654,407.35260430001654,407.35260430001654,407.35260430001654,,,,,right,0.5051821999950334,0,0,0,99,0.0,0,right,0.42711719998624176,,,,,,,,,,,,,,,,,,,,,,,,,,,,,,,,,,,,,,,,,,,,,,,,,,,,,,,,Z02122,train_x,blue_star,top_left,2025-06-21_10h19.10.803,HideSeek_v1,2022.2.5,59.93831150851034,
,0,5,4,5,4,0,21,,train_dim1_1,6,30,,,,2,0,2,0,,,,,,,,,0,0,0,0,0,5,5,5,2,0,2,0,,,,,,,,,,,,,,,,,,,,,,,,,,,,,,,,,,,,,,,,,,,,,,,,,,,,,,,,,,,,,,,,30,,,,,,,,407.86563339992426,407.86563339992426,407.86563339992426,407.86563339992426,407.86563339992426,,,,,right,0.6102766999974847,0,0,0,99,0.08,0,right,0.5258332000812516,,,,,,,,,,,,,,,,,,,,,,,,,,,,,,,,,,,,,,,,,,,,,,,,,,,,,,,,Z02122,train_x,blue_star,top_left,2025-06-21_10h19.10.803,HideSeek_v1,2022.2.5,59.93831150851034,
,0,5,4,5,4,0,21,,train_dim1_1,6,30,,,,2,0,2,0,,,,,,,,,0,0,0,0,0,5,5,5,3,0,3,0,,,,,,,,,,,,,,,,,,,,,,,,,,,,,,,,,,,,,,,,,,,,,,,,,,,,,,,,,,,,,,,,30,,,,,,,,408.48180439998396,408.48180439998396,408.48180439998396,408.48180439998396,408.48180439998396,-10,9,0.08,0,return,0.7438155999407172,0,1,0,0,0.08,0,return,0.6623753999592736,,,,,,,,,,,,,,,,,,,,,,,,,,,,,,,,,,,,,,,,,,,,,,,,,,,,,,,,Z02122,train_x,blue_star,top_left,2025-06-21_10h19.10.803,HideSeek_v1,2022.2.5,59.93831150851034,
,3,5,3,5,0,0,61,,train_dim1_1,7,30,,,,2,0,2,0,,,,,,,,,0,0,0,0,0,6,6,6,0,0,0,0,,,,,,,,,,,,,,,,,,,,,,,,,stimuli/alien_stimuli/61.png,,,,,,,,,,,,,,,,,,,,,,,,,,,,,stimuli/alien_stimuli/21.png,21,0,8,,,,,,,30,,,,,,,,426.6421551000094,426.6421551000094,426.6421551000094,426.6421551000094,426.6421551000094,-10,9,0.08,0,return,2.5392266999697313,1,0,0,1,0.08,0,return,2.431688200100325,425.0626324999612,0.16,0,0.0,0.32,0.0,0.16,0.0,0.16,0,410.7955965999281,410.7955965999281,410.7955965999281,410.7955965999281,410.7955965999281,410.7955965999281,410.7955965999281,410.7955965999281,410.7840372999897,14.380693000042811,return,14.234897700021975,426.6421551000094,,,,,,,,,,,,,,,,,,,,,,,,,,,,,,,,,Z02122,train_x,blue_star,top_left,2025-06-21_10h19.10.803,HideSeek_v1,2022.2.5,59.93831150851034,
,0,9,3,9,3,0,31,,train_dim1_1,8,30,,,,2,0,2,0,,,,,,,,,0,0,0,0,0,7,7,7,0,0,0,0,,,,,,,,,,,,,,,,,,,,,,,,,stimuli/alien_stimuli/31.png,,,,,,,,,,,,,,,,,,,,,,,,,,,,,stimuli/alien_stimuli/61.png,61,3,9,,,,,,,30,,,,,,,,436.2643447999144,436.2643447999144,436.2643447999144,436.2643447999144,436.2643447999144,,,,,right,3.0227199000073597,1,0,0,99,-0.08,0.32,right,2.9420379999792203,434.7041445999639,0.08,0,0.0,0.0,0.0,0.08,0.08,0.08,0,430.7502283999929,430.7502283999929,430.7502283999929,430.7502283999929,430.7502283999929,430.7502283999929,430.7502283999929,430.7502283999929,430.733947600075,4.072867900016718,return,3.9323042000178248,436.2643447999144,,,,,,,,,,,,,,,,,,,,,,,,,,,,,,,,,Z02122,train_x,blue_star,top_left,2025-06-21_10h19.10.803,HideSeek_v1,2022.2.5,59.93831150851034,
,0,9,3,9,3,0,31,,train_dim1_1,8,30,,,,2,0,2,0,,,,,,,,,0,0,0,0,0,7,7,7,1,0,1,0,,,,,,,,,,,,,,,,,,,,,,,,,,,,,,,,,,,,,,,,,,,,,,,,,,,,,,,,,,,,,,,,30,,,,,,,,439.29364719998557,439.29364719998557,439.29364719998557,439.29364719998557,439.29364719998557,,,,,right,0.4711523000150919,1,0,0,99,0.0,0.32,right,0.39586110005620867,,,,,,,,,,,,,,,,,,,,,,,,,,,,,,,,,,,,,,,,,,,,,,,,,,,,,,,,Z02122,train_x,blue_star,top_left,2025-06-21_10h19.10.803,HideSeek_v1,2022.2.5,59.93831150851034,
,0,9,3,9,3,0,31,,train_dim1_1,8,30,,,,2,0,2,0,,,,,,,,,0,0,0,0,0,7,7,7,2,0,2,0,,,,,,,,,,,,,,,,,,,,,,,,,,,,,,,,,,,,,,,,,,,,,,,,,,,,,,,,,,,,,,,,30,,,,,,,,439.7712159999646,439.7712159999646,439.7712159999646,439.7712159999646,439.7712159999646,,,,,right,0.4600855999160558,1,0,0,99,0.08,0.32,right,0.3812277000397444,,,,,,,,,,,,,,,,,,,,,,,,,,,,,,,,,,,,,,,,,,,,,,,,,,,,,,,,Z02122,train_x,blue_star,top_left,2025-06-21_10h19.10.803,HideSeek_v1,2022.2.5,59.93831150851034,
,0,9,3,9,3,0,31,,train_dim1_1,8,30,,,,2,0,2,0,,,,,,,,,0,0,0,0,0,7,7,7,3,0,3,0,,,,,,,,,,,,,,,,,,,,,,,,,,,,,,,,,,,,,,,,,,,,,,,,,,,,,,,,,,,,,,,,30,,,,,,,,440.23920810001437,440.23920810001437,440.23920810001437,440.23920810001437,440.23920810001437,-10,12,0.08,0.32,return,1.260429900023155,2,0,0,1,0.08,0.32,return,1.1826949999667704,,,,,,,,,,,,,,,,,,,,,,,,,,,,,,,,,,,,,,,,,,,,,,,,,,,,,,,,Z02122,train_x,blue_star,top_left,2025-06-21_10h19.10.803,HideSeek_v1,2022.2.5,59.93831150851034,
,1,5,2,5,1,0,51,,train_dim1_1,9,30,,,,2,0,2,0,,,,,,,,,0,0,0,0,0,8,8,8,0,0,0,0,,,,,,,,,,,,,,,,,,,,,,,,,stimuli/alien_stimuli/51.png,,,,,,,,,,,,,,,,,,,,,,,,,,,,,stimuli/alien_stimuli/31.png,31,0,10,,,,,,,30,,,,,,,,446.7306112999795,446.7306112999795,446.7306112999795,446.7306112999795,446.7306112999795,,,,,right,3.5072185999015346,2,0,0,99,0.0,0,right,3.4187908999156207,445.1629235999426,0.08,0.32,0.0,0.24,0.32,0.08,-0.04,0.08,0.32,443.0827132000122,443.0827132000122,443.0827132000122,443.0827132000122,443.0827132000122,443.0827132000122,443.0827132000122,443.0827132000122,443.0609831000445,2.203963699983433,return,2.062552300048992,446.7306112999795,,,,,,,,,,,,,,,,,,,,,,,,,,,,,,,,,Z02122,train_x,blue_star,top_left,2025-06-21_10h19.10.803,HideSeek_v1,2022.2.5,59.93831150851034,
,1,5,2,5,1,0,51,,train_dim1_1,9,30,,,,2,0,2,0,,,,,,,,,0,0,0,0,0,8,8,8,1,0,1,0,,,,,,,,,,,,,,,,,,,,,,,,,,,,,,,,,,,,,,,,,,,,,,,,,,,,,,,,,,,,,,,,30,,,,,,,,450.2380335999187,450.2380335999187,450.2380335999187,450.2380335999187,450.2380335999187,,,,,right,0.6385441001038998,2,0,0,99,0.08,0,right,0.5519412000430748,,,,,,,,,,,,,,,,,,,,,,,,,,,,,,,,,,,,,,,,,,,,,,,,,,,,,,,,Z02122,train_x,blue_star,top_left,2025-06-21_10h19.10.803,HideSeek_v1,2022.2.5,59.93831150851034,
,1,5,2,5,1,0,51,,train_dim1_1,9,30,,,,2,0,2,0,,,,,,,,,0,0,0,0,0,8,8,8,2,0,2,0,,,,,,,,,,,,,,,,,,,,,,,,,,,,,,,,,,,,,,,,,,,,,,,,,,,,,,,,,,,,,,,,30,,,,,,,,450.8830222999677,450.8830222999677,450.8830222999677,450.8830222999677,450.8830222999677,,,,,right,0.6769530000165105,2,0,0,99,0.16,0,right,0.6012094001052901,,,,,,,,,,,,,,,,,,,,,,,,,,,,,,,,,,,,,,,,,,,,,,,,,,,,,,,,Z02122,train_x,blue_star,top_left,2025-06-21_10h19.10.803,HideSeek_v1,2022.2.5,59.93831150851034,
,1,5,2,5,1,0,51,,train_dim1_1,9,30,,,,2,0,2,0,,,,,,,,,0,0,0,0,0,8,8,8,3,0,3,0,,,,,,,,,,,,,,,,,,,,,,,,,,,,,,,,,,,,,,,,,,,,,,,,,,,,,,,,,,,,,,,,30,,,,,,,,451.5689092000248,451.5689092000248,451.5689092000248,451.5689092000248,451.5689092000248,,,,,right,0.7101996000856161,2,0,0,99,0.24,0,right,0.6210811999626458,,,,,,,,,,,,,,,,,,,,,,,,,,,,,,,,,,,,,,,,,,,,,,,,,,,,,,,,Z02122,train_x,blue_star,top_left,2025-06-21_10h19.10.803,HideSeek_v1,2022.2.5,59.93831150851034,
,1,5,2,5,1,0,51,,train_dim1_1,9,30,,,,2,0,2,0,,,,,,,,,0,0,0,0,0,8,8,8,4,0,4,0,,,,,,,,,,,,,,,,,,,,,,,,,,,,,,,,,,,,,,,,,,,,,,,,,,,,,,,,,,,,,,,,30,,,,,,,,452.2840759999817,452.2840759999817,452.2840759999817,452.2840759999817,452.2840759999817,-10,16,0.24,0,return,1.4608363999286667,2,0,0,0,0.24,0,return,1.3752389999572188,,,,,,,,,,,,,,,,,,,,,,,,,,,,,,,,,,,,,,,,,,,,,,,,,,,,,,,,Z02122,train_x,blue_star,top_left,2025-06-21_10h19.10.803,HideSeek_v1,2022.2.5,59.93831150851034,
,0,8,5,8,5,0,11,,train_dim1_1,10,30,,,,2,0,2,0,,,,,,,,,0,0,0,0,0,9,9,9,0,0,0,0,,,,,,,,,,,,,,,,,,,,,,,,,stimuli/alien_stimuli/11.png,,,,,,,,,,,,,,,,,,,,,,,,,,,,,stimuli/alien_stimuli/51.png,51,1,11,,,,,,,30,,,,,,,,461.14031619997695,461.14031619997695,461.14031619997695,461.14031619997695,461.14031619997695,,,,,down,5.440046799951233,2,0,0,99,-0.16,0.15999999999999998,down,5.352942600031383,459.57486389996484,0,0,0.0,0.08,0.0,0,-0.04,0,0,455.324723299942,455.324723299942,455.324723299942,455.324723299942,455.324723299942,455.324723299942,455.324723299942,455.324723299942,455.3043147000251,4.372564199962653,return,4.2236279000062495,461.14031619997695,,,,,,,,,,,,,,,,,,,,,,,,,,,,,,,,,Z02122,train_x,blue_star,top_left,2025-06-21_10h19.10.803,HideSeek_v1,2022.2.5,59.93831150851034,
,0,8,5,8,5,0,11,,train_dim1_1,10,30,,,,2,0,2,0,,,,,,,,,0,0,0,0,0,9,9,9,1,0,1,0,,,,,,,,,,,,,,,,,,,,,,,,,,,,,,,,,,,,,,,,,,,,,,,,,,,,,,,,,,,,,,,,30,,,,,,,,466.586658300017,466.586658300017,466.586658300017,466.586658300017,466.586658300017,,,,,down,4.2412429000250995,2,0,0,99,-0.16,0.07999999999999997,down,4.158998299972154,,,,,,,,,,,,,,,,,,,,,,,,,,,,,,,,,,,,,,,,,,,,,,,,,,,,,,,,Z02122,train_x,blue_star,top_left,2025-06-21_10h19.10.803,HideSeek_v1,2022.2.5,59.93831150851034,
,0,8,5,8,5,0,11,,train_dim1_1,10,30,,,,2,0,2,0,,,,,,,,,0,0,0,0,0,9,9,9,2,0,2,0,,,,,,,,,,,,,,,,,,,,,,,,,,,,,,,,,,,,,,,,,,,,,,,,,,,,,,,,,,,,,,,,30,,,,,,,,470.83519609994255,470.83519609994255,470.83519609994255,470.83519609994255,470.83519609994255,,,,,down,0.5929090999998152,2,0,0,99,-0.16,-2.7755575615628914e-17,down,0.5139030000427738,,,,,,,,,,,,,,,,,,,,,,,,,,,,,,,,,,,,,,,,,,,,,,,,,,,,,,,,Z02122,train_x,blue_star,top_left,2025-06-21_10h19.10.803,HideSeek_v1,2022.2.5,59.93831150851034,
,0,8,5,8,5,0,11,,train_dim1_1,10,30,,,,2,0,2,0,,,,,,,,,0,0,0,0,0,9,9,9,3,0,3,0,,,,,,,,,,,,,,,,,,,,,,,,,,,,,,,,,,,,,,,,,,,,,,,,,,,,,,,,,,,,,,,,30,,,,,,,,471.43571589991916,471.43571589991916,471.43571589991916,471.43571589991916,471.43571589991916,-13,16,-0.16,-2.7755575615628914e-17,return,2.4285543999867514,2,0,0,0,-0.16,-2.7755575615628914e-17,return,2.3384475000202656,,,,,,,,,,,,,,,,,,,,,,,,,,,,,,,,,,,,,,,,,,,,,,,,,,,,,,,,Z02122,train_x,blue_star,top_left,2025-06-21_10h19.10.803,HideSeek_v1,2022.2.5,59.93831150851034,
,2,7,5,7,3,0,31,,train_dim1_1,11,30,,,,2,0,2,0,,,,,,,,,0,0,0,0,0,10,10,10,0,0,0,0,,,,,,,,,,,,,,,,,,,,,,,,,stimuli/alien_stimuli/31.png,,,,,,,,,,,,,,,,,,,,,,,,,,,,,stimuli/alien_stimuli/11.png,11,0,12,,,,,,,30,,,,,,,,481.2513454,481.2513454,481.2513454,481.2513454,481.2513454,,,,,right,3.3732808999484405,2,0,0,99,0.08,0.16,right,3.2904193999711424,479.6916173999198,0.24,0.24,0.0,0.4,0.24,0.24,0.039999999999999994,0.24,0.24,475.4497835999355,475.4497835999355,475.4497835999355,475.4497835999355,475.4497835999355,475.4497835999355,475.4497835999355,475.4497835999355,475.43786300001665,4.372446800000034,return,4.211738399928436,481.2513454,,,,,,,,,,,,,,,,,,,,,,,,,,,,,,,,,Z02122,train_x,blue_star,top_left,2025-06-21_10h19.10.803,HideSeek_v1,2022.2.5,59.93831150851034,
,2,7,5,7,3,0,31,,train_dim1_1,11,30,,,,2,0,2,0,,,,,,,,,0,0,0,0,0,10,10,10,1,0,1,0,,,,,,,,,,,,,,,,,,,,,,,,,,,,,,,,,,,,,,,,,,,,,,,,,,,,,,,,,,,,,,,,30,,,,,,,,484.6302810999332,484.6302810999332,484.6302810999332,484.6302810999332,484.6302810999332,,,,,left,1.7398427000734955,2,0,0,99,0.0,0.16,left,1.6596487000351772,,,,,,,,,,,,,,,,,,,,,,,,,,,,,,,,,,,,,,,,,,,,,,,,,,,,,,,,Z02122,train_x,blue_star,top_left,2025-06-21_10h19.10.803,HideSeek_v1,2022.2.5,59.93831150851034,
,2,7,5,7,3,0,31,,train_dim1_1,11,30,,,,2,0,2,0,,,,,,,,,0,0,0,0,0,10,10,10,2,0,2,0,,,,,,,,,,,,,,,,,,,,,,,,,,,,,,,,,,,,,,,,,,,,,,,,,,,,,,,,,,,,,,,,30,,,,,,,,486.3794151999755,486.3794151999755,486.3794151999755,486.3794151999755,486.3794151999755,,,,,right,0.6752529001096264,2,0,0,99,0.08,0.16,right,0.6009946999838576,,,,,,,,,,,,,,,,,,,,,,,,,,,,,,,,,,,,,,,,,,,,,,,,,,,,,,,,Z02122,train_x,blue_star,top_left,2025-06-21_10h19.10.803,HideSeek_v1,2022.2.5,59.93831150851034,
,2,7,5,7,3,0,31,,train_dim1_1,11,30,,,,2,0,2,0,,,,,,,,,0,0,0,0,0,10,10,10,3,0,3,0,,,,,,,,,,,,,,,,,,,,,,,,,,,,,,,,,,,,,,,,,,,,,,,,,,,,,,,,,,,,,,,,30,,,,,,,,487.06122409994714,487.06122409994714,487.06122409994714,487.06122409994714,487.06122409994714,,,,,right,1.4776580999605358,2,0,0,99,0.16,0.16,right,1.3947046999819577,,,,,,,,,,,,,,,,,,,,,,,,,,,,,,,,,,,,,,,,,,,,,,,,,,,,,,,,Z02122,train_x,blue_star,top_left,2025-06-21_10h19.10.803,HideSeek_v1,2022.2.5,59.93831150851034,
,2,7,5,7,3,0,31,,train_dim1_1,11,30,,,,2,0,2,0,,,,,,,,,0,0,0,0,0,10,10,10,4,0,4,0,,,,,,,,,,,,,,,,,,,,,,,,,,,,,,,,,,,,,,,,,,,,,,,,,,,,,,,,,,,,,,,,30,,,,,,,,488.5454562000232,488.5454562000232,488.5454562000232,488.5454562000232,488.5454562000232,,,,,right,0.7103057999629527,2,0,0,99,0.24,0.16,right,0.6372416999656707,,,,,,,,,,,,,,,,,,,,,,,,,,,,,,,,,,,,,,,,,,,,,,,,,,,,,,,,Z02122,train_x,blue_star,top_left,2025-06-21_10h19.10.803,HideSeek_v1,2022.2.5,59.93831150851034,
,2,7,5,7,3,0,31,,train_dim1_1,11,30,,,,2,0,2,0,,,,,,,,,0,0,0,0,0,10,10,10,5,0,5,0,,,,,,,,,,,,,,,,,,,,,,,,,,,,,,,,,,,,,,,,,,,,,,,,,,,,,,,,,,,,,,,,30,,,,,,,,489.26229139999487,489.26229139999487,489.26229139999487,489.26229139999487,489.26229139999487,,,,,right,2.2448403999442235,2,0,0,99,0.32,0.16,right,2.1572594000026584,,,,,,,,,,,,,,,,,,,,,,,,,,,,,,,,,,,,,,,,,,,,,,,,,,,,,,,,Z02122,train_x,blue_star,top_left,2025-06-21_10h19.10.803,HideSeek_v1,2022.2.5,59.93831150851034,
,2,7,5,7,3,0,31,,train_dim1_1,11,30,,,,2,0,2,0,,,,,,,,,0,0,0,0,0,10,10,10,6,0,6,0,,,,,,,,,,,,,,,,,,,,,,,,,,,,,,,,,,,,,,,,,,,,,,,,,,,,,,,,,,,,,,,,30,,,,,,,,491.5144326000009,491.5144326000009,491.5144326000009,491.5144326000009,491.5144326000009,-13,20,0.32,0.16,return,0.8439285999629647,2,1,0,0,0.32,0.16,return,0.7686607000650838,,,,,,,,,,,,,,,,,,,,,,,,,,,,,,,,,,,,,,,,,,,,,,,,,,,,,,,,Z02122,train_x,blue_star,top_left,2025-06-21_10h19.10.803,HideSeek_v1,2022.2.5,59.93831150851034,
,0,5,4,5,4,0,21,,train_dim1_1,12,30,,,,2,0,2,0,,,,,,,,,0,0,0,0,0,11,11,11,0,0,0,0,,,,,,,,,,,,,,,,,,,,,,,,,stimuli/alien_stimuli/21.png,,,,,,,,,,,,,,,,,,,,,,,,,,,,,stimuli/alien_stimuli/31.png,31,2,13,,,,,,,30,,,,,,,,500.357460899977,500.357460899977,500.357460899977,500.357460899977,500.357460899977,,,,,right,6.440537100075744,2,1,0,99,-0.08,0,right,6.3475824999623,498.7906732999254,0.24,0.16,0.0,0.24,0.16,0.24,0.12,0.24,0.16,493.94166100001894,493.94166100001894,493.94166100001894,493.94166100001894,493.94166100001894,493.94166100001894,493.94166100001894,493.94166100001894,493.92001640000376,4.972700200043619,return,4.828103299951181,500.357460899977,,,,,,,,,,,,,,,,,,,,,,,,,,,,,,,,,Z02122,train_x,blue_star,top_left,2025-06-21_10h19.10.803,HideSeek_v1,2022.2.5,59.93831150851034,
,0,5,4,5,4,0,21,,train_dim1_1,12,30,,,,2,0,2,0,,,,,,,,,0,0,0,0,0,11,11,11,1,0,1,0,,,,,,,,,,,,,,,,,,,,,,,,,,,,,,,,,,,,,,,,,,,,,,,,,,,,,,,,,,,,,,,,30,,,,,,,,506.805454300018,506.805454300018,506.805454300018,506.805454300018,506.805454300018,,,,,right,0.5195764999371022,2,1,0,99,0.0,0,right,0.433827199973166,,,,,,,,,,,,,,,,,,,,,,,,,,,,,,,,,,,,,,,,,,,,,,,,,,,,,,,,Z02122,train_x,blue_star,top_left,2025-06-21_10h19.10.803,HideSeek_v1,2022.2.5,59.93831150851034,
,0,5,4,5,4,0,21,,train_dim1_1,12,30,,,,2,0,2,0,,,,,,,,,0,0,0,0,0,11,11,11,2,0,2,0,,,,,,,,,,,,,,,,,,,,,,,,,,,,,,,,,,,,,,,,,,,,,,,,,,,,,,,,,,,,,,,,30,,,,,,,,507.3312589999987,507.3312589999987,507.3312589999987,507.3312589999987,507.3312589999987,,,,,right,0.5771038000239059,2,1,0,99,0.08,0,right,0.49045449995901436,,,,,,,,,,,,,,,,,,,,,,,,,,,,,,,,,,,,,,,,,,,,,,,,,,,,,,,,Z02122,train_x,blue_star,top_left,2025-06-21_10h19.10.803,HideSeek_v1,2022.2.5,59.93831150851034,
,0,5,4,5,4,0,21,,train_dim1_1,12,30,,,,2,0,2,0,,,,,,,,,0,0,0,0,0,11,11,11,3,0,3,0,,,,,,,,,,,,,,,,,,,,,,,,,,,,,,,,,,,,,,,,,,,,,,,,,,,,,,,,,,,,,,,,30,,,,,,,,507.9154179999605,507.9154179999605,507.9154179999605,507.9154179999605,507.9154179999605,-13,23,0.08,0,return,1.5443381000077352,2,1,0,0,0.08,0,return,1.4617510000243783,,,,,,,,,,,,,,,,,,,,,,,,,,,,,,,,,,,,,,,,,,,,,,,,,,,,,,,,Z02122,train_x,blue_star,top_left,2025-06-21_10h19.10.803,HideSeek_v1,2022.2.5,59.93831150851034,
,0,9,1,9,1,0,51,,train_dim1_1,13,30,,,,2,0,2,0,,,,,,,,,0,0,0,0,0,12,12,12,0,0,0,0,,,,,,,,,,,,,,,,,,,,,,,,,stimuli/alien_stimuli/51.png,,,,,,,,,,,,,,,,,,,,,,,,,,,,,stimuli/alien_stimuli/21.png,21,0,14,,,,,,,30,,,,,,,,518.0526725000236,518.0526725000236,518.0526725000236,518.0526725000236,518.0526725000236,,,,,right,3.9385085999965668,2,1,0,99,-0.08,0.32,right,3.8543766000075266,516.4886790999444,0.16,0,0.0,0.32,0.0,0.16,0.0,0.16,0,511.0432180999778,511.0432180999778,511.0432180999778,511.0432180999778,511.0432180999778,511.0432180999778,511.0432180999778,511.0432180999778,511.034042500006,5.573426300077699,return,5.42379869997967,518.0526725000236,,,,,,,,,,,,,,,,,,,,,,,,,,,,,,,,,Z02122,train_x,blue_star,top_left,2025-06-21_10h19.10.803,HideSeek_v1,2022.2.5,59.93831150851034,
,0,9,1,9,1,0,51,,train_dim1_1,13,30,,,,2,0,2,0,,,,,,,,,0,0,0,0,0,12,12,12,1,0,1,0,,,,,,,,,,,,,,,,,,,,,,,,,,,,,,,,,,,,,,,,,,,,,,,,,,,,,,,,,,,,,,,,30,,,,,,,,521.9997136999154,521.9997136999154,521.9997136999154,521.9997136999154,521.9997136999154,,,,,right,1.6696062999544665,2,1,0,99,0.0,0.32,right,1.5956455999985337,,,,,,,,,,,,,,,,,,,,,,,,,,,,,,,,,,,,,,,,,,,,,,,,,,,,,,,,Z02122,train_x,blue_star,top_left,2025-06-21_10h19.10.803,HideSeek_v1,2022.2.5,59.93831150851034,
,0,9,1,9,1,0,51,,train_dim1_1,13,30,,,,2,0,2,0,,,,,,,,,0,0,0,0,0,12,12,12,2,0,2,0,,,,,,,,,,,,,,,,,,,,,,,,,,,,,,,,,,,,,,,,,,,,,,,,,,,,,,,,,,,,,,,,30,,,,,,,,523.6765649999725,523.6765649999725,523.6765649999725,523.6765649999725,523.6765649999725,,,,,left,1.5442514000460505,2,1,0,99,-0.08,0.32,left,1.4588212999515235,,,,,,,,,,,,,,,,,,,,,,,,,,,,,,,,,,,,,,,,,,,,,,,,,,,,,,,,Z02122,train_x,blue_star,top_left,2025-06-21_10h19.10.803,HideSeek_v1,2022.2.5,59.93831150851034,
,0,9,1,9,1,0,51,,train_dim1_1,13,30,,,,2,0,2,0,,,,,,,,,0,0,0,0,0,12,12,12,3,0,3,0,,,,,,,,,,,,,,,,,,,,,,,,,,,,,,,,,,,,,,,,,,,,,,,,,,,,,,,,,,,,,,,,30,,,,,,,,525.2284998999676,525.2284998999676,525.2284998999676,525.2284998999676,525.2284998999676,-13,24,-0.08,0.32,return,0.7770853000693023,3,0,0,1,-0.08,0.32,return,0.697808500030078,,,,,,,,,,,,,,,,,,,,,,,,,,,,,,,,,,,,,,,,,,,,,,,,,,,,,,,,Z02122,train_x,blue_star,top_left,2025-06-21_10h19.10.803,HideSeek_v1,2022.2.5,59.93831150851034,
,4,8,9,8,5,0,11,,train_dim1_1,14,30,,,,2,0,2,0,,,,,,,,,0,0,0,0,0,13,13,13,0,0,0,0,,,,,,,,,,,,,,,,,,,,,,,,,stimuli/alien_stimuli/11.png,,,,,,,,,,,,,,,,,,,,,,,,,,,,,stimuli/alien_stimuli/51.png,51,0,15,,,,,,,30,,,,,,,,532.8020999999717,532.8020999999717,532.8020999999717,532.8020999999717,532.8020999999717,,,,,right,2.468756000045687,3,0,0,99,0.24,0.24,right,2.375367100001313,531.2340723000234,-0.08,0.32,0.0,0.08,0.32,-0.08,-0.12,-0.08,0.32,527.5854999999283,527.5854999999283,527.5854999999283,527.5854999999283,527.5854999999283,527.5854999999283,527.5854999999283,527.5854999999283,527.5643445000285,3.771711500012316,return,3.6193180999252945,532.8020999999717,,,,,,,,,,,,,,,,,,,,,,,,,,,,,,,,,Z02122,train_x,blue_star,top_left,2025-06-21_10h19.10.803,HideSeek_v1,2022.2.5,59.93831150851034,
,4,8,9,8,5,0,11,,train_dim1_1,14,30,,,,2,0,2,0,,,,,,,,,0,0,0,0,0,13,13,13,1,0,1,0,,,,,,,,,,,,,,,,,,,,,,,,,,,,,,,,,,,,,,,,,,,,,,,,,,,,,,,,,,,,,,,,30,,,,,,,,535.2766705999384,535.2766705999384,535.2766705999384,535.2766705999384,535.2766705999384,,,,,right,0.4709610000718385,3,0,0,99,0.32,0.24,right,0.38841690006665885,,,,,,,,,,,,,,,,,,,,,,,,,,,,,,,,,,,,,,,,,,,,,,,,,,,,,,,,Z02122,train_x,blue_star,top_left,2025-06-21_10h19.10.803,HideSeek_v1,2022.2.5,59.93831150851034,
,4,8,9,8,5,0,11,,train_dim1_1,14,30,,,,2,0,2,0,,,,,,,,,0,0,0,0,0,13,13,13,2,0,2,0,,,,,,,,,,,,,,,,,,,,,,,,,,,,,,,,,,,,,,,,,,,,,,,,,,,,,,,,,,,,,,,,30,,,,,,,,535.7544433999574,535.7544433999574,535.7544433999574,535.7544433999574,535.7544433999574,,,,,right,0.4270923000294715,3,0,0,99,0.4,0.24,right,0.3404843000462279,,,,,,,,,,,,,,,,,,,,,,,,,,,,,,,,,,,,,,,,,,,,,,,,,,,,,,,,Z02122,train_x,blue_star,top_left,2025-06-21_10h19.10.803,HideSeek_v1,2022.2.5,59.93831150851034,
,4,8,9,8,5,0,11,,train_dim1_1,14,30,,,,2,0,2,0,,,,,,,,,0,0,0,0,0,13,13,13,3,0,3,0,,,,,,,,,,,,,,,,,,,,,,,,,,,,,,,,,,,,,,,,,,,,,,,,,,,,,,,,,,,,,,,,30,,,,,,,,536.1893588999519,536.1893588999519,536.1893588999519,536.1893588999519,536.1893588999519,,,,,right,0.4432707999367267,3,0,0,99,0.48000000000000004,0.24,right,0.3610988000873476,,,,,,,,,,,,,,,,,,,,,,,,,,,,,,,,,,,,,,,,,,,,,,,,,,,,,,,,Z02122,train_x,blue_star,top_left,2025-06-21_10h19.10.803,HideSeek_v1,2022.2.5,59.93831150851034,
,4,8,9,8,5,0,11,,train_dim1_1,14,30,,,,2,0,2,0,,,,,,,,,0,0,0,0,0,13,13,13,4,0,4,0,,,,,,,,,,,,,,,,,,,,,,,,,,,,,,,,,,,,,,,,,,,,,,,,,,,,,,,,,,,,,,,,30,,,,,,,,536.6386491999729,536.6386491999729,536.6386491999729,536.6386491999729,536.6386491999729,-13,28,0.48000000000000004,0.24,return,3.212524500093423,3,1,0,0,0.48000000000000004,0.24,return,3.1223572000162676,,,,,,,,,,,,,,,,,,,,,,,,,,,,,,,,,,,,,,,,,,,,,,,,,,,,,,,,Z02122,train_x,blue_star,top_left,2025-06-21_10h19.10.803,HideSeek_v1,2022.2.5,59.93831150851034,
,4,7,4,7,0,0,61,,train_dim1_1,15,30,,,,2,0,2,0,,,,,,,,,0,0,0,0,0,14,14,14,0,0,0,0,,,,,,,,,,,,,,,,,,,,,,,,,stimuli/alien_stimuli/61.png,,,,,,,,,,,,,,,,,,,,,,,,,,,,,stimuli/alien_stimuli/11.png,11,4,16,,,,,,,30,,,,,,,,544.8634364999598,544.8634364999598,544.8634364999598,544.8634364999598,544.8634364999598,-13,28,0.16,0.16,return,1.5715525000123307,4,0,0,1,0.16,0.16,return,1.466129899956286,543.2774927000282,0.56,0.24,0.0,0.4,0.24,0.56,0.36000000000000004,0.56,0.24,541.4187409000006,541.4187409000006,541.4187409000006,541.4187409000006,541.4187409000006,541.4187409000006,541.4187409000006,541.4187409000006,541.4090490000788,1.9705905999289826,return,1.83021899999585,544.8634364999598,,,,,,,,,,,,,,,,,,,,,,,,,,,,,,,,,Z02122,train_x,blue_star,top_left,2025-06-21_10h19.10.803,HideSeek_v1,2022.2.5,59.93831150851034,
,3,8,4,8,1,0,51,,train_dim1_1,16,30,,,,2,0,2,0,,,,,,,,,0,0,0,0,0,15,15,15,0,0,0,0,,,,,,,,,,,,,,,,,,,,,,,,,stimuli/alien_stimuli/51.png,,,,,,,,,,,,,,,,,,,,,,,,,,,,,stimuli/alien_stimuli/61.png,61,4,17,,,,,,,30,,,,,,,,554.0990677999798,554.0990677999798,554.0990677999798,554.0990677999798,554.0990677999798,,,,,right,1.8204465000890195,4,0,0,99,0.16,0.24,right,1.7247580999974161,552.5352045999607,0.16,0.16,0.0,0.0,0.16,0.16,0.16,0.16,0.16,547.9958715999965,547.9958715999965,547.9958715999965,547.9958715999965,547.9958715999965,547.9958715999965,547.9958715999965,547.9958715999965,547.9813581000315,4.656228499952704,return,4.509915399947204,554.0990677999798,,,,,,,,,,,,,,,,,,,,,,,,,,,,,,,,,Z02122,train_x,blue_star,top_left,2025-06-21_10h19.10.803,HideSeek_v1,2022.2.5,59.93831150851034,
,3,8,4,8,1,0,51,,train_dim1_1,16,30,,,,2,0,2,0,,,,,,,,,0,0,0,0,0,15,15,15,1,0,1,0,,,,,,,,,,,,,,,,,,,,,,,,,,,,,,,,,,,,,,,,,,,,,,,,,,,,,,,,,,,,,,,,30,,,,,,,,555.9257484999252,555.9257484999252,555.9257484999252,555.9257484999252,555.9257484999252,-13,29,0.16,0.24,return,1.1555320000043139,5,0,0,1,0.16,0.24,return,1.0763306999579072,,,,,,,,,,,,,,,,,,,,,,,,,,,,,,,,,,,,,,,,,,,,,,,,,,,,,,,,Z02122,train_x,blue_star,top_left,2025-06-21_10h19.10.803,HideSeek_v1,2022.2.5,59.93831150851034,
,2,9,6,9,4,0,21,,train_dim1_1,17,30,,,,2,0,2,0,,,,,,,,,0,0,0,0,0,16,16,16,0,0,0,0,,,,,,,,,,,,,,,,,,,,,,,,,stimuli/alien_stimuli/21.png,,,,,,,,,,,,,,,,,,,,,,,,,,,,,stimuli/alien_stimuli/51.png,51,3,18,,,,,,,30,,,,,,,,563.6394925999921,563.6394925999921,563.6394925999921,563.6394925999921,563.6394925999921,,,,,right,3.207526999991387,5,0,0,99,0.08,0.32,right,3.1112412000074983,562.0764819999458,0.16,0.24,0.0,0.08,0.24,0.16,0.12,0.16,0.24,558.6621316999663,558.6621316999663,558.6621316999663,558.6621316999663,558.6621316999663,558.6621316999663,558.6621316999663,558.6621316999663,558.6401507000671,3.538740099989809,return,3.3919890000252053,563.6394925999921,,,,,,,,,,,,,,,,,,,,,,,,,,,,,,,,,Z02122,train_x,blue_star,top_left,2025-06-21_10h19.10.803,HideSeek_v1,2022.2.5,59.93831150851034,
,2,9,6,9,4,0,21,,train_dim1_1,17,30,,,,2,0,2,0,,,,,,,,,0,0,0,0,0,16,16,16,1,0,1,0,,,,,,,,,,,,,,,,,,,,,,,,,,,,,,,,,,,,,,,,,,,,,,,,,,,,,,,,,,,,,,,,30,,,,,,,,566.8517726999708,566.8517726999708,566.8517726999708,566.8517726999708,566.8517726999708,,,,,right,0.7552391000790522,5,0,0,99,0.16,0.32,right,0.6641505999723449,,,,,,,,,,,,,,,,,,,,,,,,,,,,,,,,,,,,,,,,,,,,,,,,,,,,,,,,Z02122,train_x,blue_star,top_left,2025-06-21_10h19.10.803,HideSeek_v1,2022.2.5,59.93831150851034,
,2,9,6,9,4,0,21,,train_dim1_1,17,30,,,,2,0,2,0,,,,,,,,,0,0,0,0,0,16,16,16,2,0,2,0,,,,,,,,,,,,,,,,,,,,,,,,,,,,,,,,,,,,,,,,,,,,,,,,,,,,,,,,,,,,,,,,30,,,,,,,,567.614234299981,567.614234299981,567.614234299981,567.614234299981,567.614234299981,,,,,right,1.0438038000138476,5,0,0,99,0.24,0.32,right,0.9672467999625951,,,,,,,,,,,,,,,,,,,,,,,,,,,,,,,,,,,,,,,,,,,,,,,,,,,,,,,,Z02122,train_x,blue_star,top_left,2025-06-21_10h19.10.803,HideSeek_v1,2022.2.5,59.93831150851034,
,2,9,6,9,4,0,21,,train_dim1_1,17,30,,,,2,0,2,0,,,,,,,,,0,0,0,0,0,16,16,16,3,0,3,0,,,,,,,,,,,,,,,,,,,,,,,,,,,,,,,,,,,,,,,,,,,,,,,,,,,,,,,,,,,,,,,,30,,,,,,,,568.6649317999836,568.6649317999836,568.6649317999836,568.6649317999836,568.6649317999836,-13,32,0.24,0.32,return,2.328442299971357,5,1,0,0,0.24,0.32,return,2.2488344999728724,,,,,,,,,,,,,,,,,,,,,,,,,,,,,,,,,,,,,,,,,,,,,,,,,,,,,,,,Z02122,train_x,blue_star,top_left,2025-06-21_10h19.10.803,HideSeek_v1,2022.2.5,59.93831150851034,
,2,6,2,6,0,0,61,,train_dim1_1,18,30,,,,2,0,2,0,,,,,,,,,0,0,0,0,0,17,17,17,0,0,0,0,,,,,,,,,,,,,,,,,,,,,,,,,stimuli/alien_stimuli/61.png,,,,,,,,,,,,,,,,,,,,,,,,,,,,,stimuli/alien_stimuli/21.png,21,2,19,,,,,,,30,,,,,,,,578.06685069995,578.06685069995,578.06685069995,578.06685069995,578.06685069995,-13,32,0,0.08,return,2.5039168999064714,6,0,0,1,0,0.08,return,2.419918500003405,576.5051244000206,0.32,0.32,0.0,0.32,0.32,0.32,0.16,0.32,0.32,572.5621511000209,572.5621511000209,572.5621511000209,572.5621511000209,572.5621511000209,572.5621511000209,572.5621511000209,572.5621511000209,572.5517389999702,4.055473700049333,return,3.9221048000035807,578.06685069995,,,,,,,,,,,,,,,,,,,,,,,,,,,,,,,,,Z02122,train_x,blue_star,top_left,2025-06-21_10h19.10.803,HideSeek_v1,2022.2.5,59.93831150851034,
,0,8,3,8,3,0,31,,train_dim1_1,19,30,,,,2,0,2,0,,,,,,,,,0,0,0,0,0,18,18,18,0,0,0,0,,,,,,,,,,,,,,,,,,,,,,,,,stimuli/alien_stimuli/31.png,,,,,,,,,,,,,,,,,,,,,,,,,,,,,stimuli/alien_stimuli/61.png,61,2,20,,,,,,,30,,,,,,,,585.5938960999483,585.5938960999483,585.5938960999483,585.5938960999483,585.5938960999483,,,,,right,3.522800700040534,6,0,0,99,-0.08,0.24,right,3.4196474000345916,584.0114194999915,0,0.08,0.0,0.0,0.08,0,0.0,0,0.08,582.1496868999675,582.1496868999675,582.1496868999675,582.1496868999675,582.1496868999675,582.1496868999675,582.1496868999675,582.1496868999675,582.1267971000401,1.97052580001764,return,1.8409099999116734,585.5938960999483,,,,,,,,,,,,,,,,,,,,,,,,,,,,,,,,,Z02122,train_x,blue_star,top_left,2025-06-21_10h19.10.803,HideSeek_v1,2022.2.5,59.93831150851034,
,0,8,3,8,3,0,31,,train_dim1_1,19,30,,,,2,0,2,0,,,,,,,,,0,0,0,0,0,18,18,18,1,0,1,0,,,,,,,,,,,,,,,,,,,,,,,,,,,,,,,,,,,,,,,,,,,,,,,,,,,,,,,,,,,,,,,,30,,,,,,,,589.1021277999971,589.1021277999971,589.1021277999971,589.1021277999971,589.1021277999971,,,,,right,0.7550060000503436,6,0,0,99,0.0,0.24,right,0.6762352000223473,,,,,,,,,,,,,,,,,,,,,,,,,,,,,,,,,,,,,,,,,,,,,,,,,,,,,,,,Z02122,train_x,blue_star,top_left,2025-06-21_10h19.10.803,HideSeek_v1,2022.2.5,59.93831150851034,
,0,8,3,8,3,0,31,,train_dim1_1,19,30,,,,2,0,2,0,,,,,,,,,0,0,0,0,0,18,18,18,2,0,2,0,,,,,,,,,,,,,,,,,,,,,,,,,,,,,,,,,,,,,,,,,,,,,,,,,,,,,,,,,,,,,,,,30,,,,,,,,589.8633013999788,589.8633013999788,589.8633013999788,589.8633013999788,589.8633013999788,,,,,right,0.5934287999989465,6,0,0,99,0.08,0.24,right,0.5057807000121102,,,,,,,,,,,,,,,,,,,,,,,,,,,,,,,,,,,,,,,,,,,,,,,,,,,,,,,,Z02122,train_x,blue_star,top_left,2025-06-21_10h19.10.803,HideSeek_v1,2022.2.5,59.93831150851034,
,0,8,3,8,3,0,31,,train_dim1_1,19,30,,,,2,0,2,0,,,,,,,,,0,0,0,0,0,18,18,18,3,0,3,0,,,,,,,,,,,,,,,,,,,,,,,,,,,,,,,,,,,,,,,,,,,,,,,,,,,,,,,,,,,,,,,,30,,,,,,,,590.463393199956,590.463393199956,590.463393199956,590.463393199956,590.463393199956,,,,,right,0.5266573000699282,6,0,0,99,0.16,0.24,right,0.44130110007245094,,,,,,,,,,,,,,,,,,,,,,,,,,,,,,,,,,,,,,,,,,,,,,,,,,,,,,,,Z02122,train_x,blue_star,top_left,2025-06-21_10h19.10.803,HideSeek_v1,2022.2.5,59.93831150851034,
,0,8,3,8,3,0,31,,train_dim1_1,19,30,,,,2,0,2,0,,,,,,,,,0,0,0,0,0,18,18,18,4,0,4,0,,,,,,,,,,,,,,,,,,,,,,,,,,,,,,,,,,,,,,,,,,,,,,,,,,,,,,,,,,,,,,,,30,,,,,,,,590.9967194999335,590.9967194999335,590.9967194999335,590.9967194999335,590.9967194999335,,,,,right,3.395839300006628,6,0,0,99,0.24,0.24,right,3.311102900072001,,,,,,,,,,,,,,,,,,,,,,,,,,,,,,,,,,,,,,,,,,,,,,,,,,,,,,,,Z02122,train_x,blue_star,top_left,2025-06-21_10h19.10.803,HideSeek_v1,2022.2.5,59.93831150851034,
,0,8,3,8,3,0,31,,train_dim1_1,19,30,,,,2,0,2,0,,,,,,,,,0,0,0,0,0,18,18,18,5,0,5,0,,,,,,,,,,,,,,,,,,,,,,,,,,,,,,,,,,,,,,,,,,,,,,,,,,,,,,,,,,,,,,,,30,,,,,,,,594.4036015999736,594.4036015999736,594.4036015999736,594.4036015999736,594.4036015999736,-13,37,0.24,0.24,return,3.7623429999221116,6,0,0,0,0.24,0.24,return,3.6725255999481305,,,,,,,,,,,,,,,,,,,,,,,,,,,,,,,,,,,,,,,,,,,,,,,,,,,,,,,,Z02122,train_x,blue_star,top_left,2025-06-21_10h19.10.803,HideSeek_v1,2022.2.5,59.93831150851034,
,0,6,5,6,5,0,11,,train_dim1_1,20,30,,,,2,0,2,0,,,,,,,,,0,0,0,0,0,19,19,19,0,0,0,0,,,,,,,,,,,,,,,,,,,,,,,,,stimuli/alien_stimuli/11.png,,,,,,,,,,,,,,,,,,,,,,,,,,,,,stimuli/alien_stimuli/31.png,31,0,21,,,,,,,30,,,,,,,,607.6449335999787,607.6449335999787,607.6449335999787,607.6449335999787,607.6449335999787,,,,,right,2.4733600999461487,6,0,0,99,-0.08,0.08,right,2.3890069000190124,606.0801760000177,0.08,0.24,0.0,0.24,0.24,0.08,-0.04,0.08,0.24,599.7449719000142,599.7449719000142,599.7449719000142,599.7449719000142,599.7449719000142,599.7449719000142,599.7449719000142,599.7449719000142,599.7242053000489,6.458343000034802,return,6.31681029999163,607.6449335999787,,,,,,,,,,,,,,,,,,,,,,,,,,,,,,,,,Z02122,train_x,blue_star,top_left,2025-06-21_10h19.10.803,HideSeek_v1,2022.2.5,59.93831150851034,
,0,6,5,6,5,0,11,,train_dim1_1,20,30,,,,2,0,2,0,,,,,,,,,0,0,0,0,0,19,19,19,1,0,1,0,,,,,,,,,,,,,,,,,,,,,,,,,,,,,,,,,,,,,,,,,,,,,,,,,,,,,,,,,,,,,,,,30,,,,,,,,610.1230037999339,610.1230037999339,610.1230037999339,610.1230037999339,610.1230037999339,,,,,right,0.3712525999872014,6,0,0,99,0.0,0.08,right,0.28826820000540465,,,,,,,,,,,,,,,,,,,,,,,,,,,,,,,,,,,,,,,,,,,,,,,,,,,,,,,,Z02122,train_x,blue_star,top_left,2025-06-21_10h19.10.803,HideSeek_v1,2022.2.5,59.93831150851034,
,0,6,5,6,5,0,11,,train_dim1_1,20,30,,,,2,0,2,0,,,,,,,,,0,0,0,0,0,19,19,19,2,0,2,0,,,,,,,,,,,,,,,,,,,,,,,,,,,,,,,,,,,,,,,,,,,,,,,,,,,,,,,,,,,,,,,,30,,,,,,,,610.499727700022,610.499727700022,610.499727700022,610.499727700022,610.499727700022,,,,,right,0.6768427999923006,6,0,0,99,0.08,0.08,right,0.5900645999936387,,,,,,,,,,,,,,,,,,,,,,,,,,,,,,,,,,,,,,,,,,,,,,,,,,,,,,,,Z02122,train_x,blue_star,top_left,2025-06-21_10h19.10.803,HideSeek_v1,2022.2.5,59.93831150851034,
,0,6,5,6,5,0,11,,train_dim1_1,20,30,,,,2,0,2,0,,,,,,,,,0,0,0,0,0,19,19,19,3,0,3,0,,,,,,,,,,,,,,,,,,,,,,,,,,,,,,,,,,,,,,,,,,,,,,,,,,,,,,,,,,,,,,,,30,,,,,,,,611.1836694999365,611.1836694999365,611.1836694999365,611.1836694999365,611.1836694999365,,,,,right,0.5268851999426261,6,0,0,99,0.16,0.08,right,0.4434499000199139,,,,,,,,,,,,,,,,,,,,,,,,,,,,,,,,,,,,,,,,,,,,,,,,,,,,,,,,Z02122,train_x,blue_star,top_left,2025-06-21_10h19.10.803,HideSeek_v1,2022.2.5,59.93831150851034,
,0,6,5,6,5,0,11,,train_dim1_1,20,30,,,,2,0,2,0,,,,,,,,,0,0,0,0,0,19,19,19,4,0,4,0,,,,,,,,,,,,,,,,,,,,,,,,,,,,,,,,,,,,,,,,,,,,,,,,,,,,,,,,,,,,,,,,30,,,,,,,,611.7182621000102,611.7182621000102,611.7182621000102,611.7182621000102,611.7182621000102,,,,,right,0.6100604999810457,6,0,0,99,0.24,0.08,right,0.5242302999831736,,,,,,,,,,,,,,,,,,,,,,,,,,,,,,,,,,,,,,,,,,,,,,,,,,,,,,,,Z02122,train_x,blue_star,top_left,2025-06-21_10h19.10.803,HideSeek_v1,2022.2.5,59.93831150851034,
,0,6,5,6,5,0,11,,train_dim1_1,20,30,,,,2,0,2,0,,,,,,,,,0,0,0,0,0,19,19,19,5,0,5,0,,,,,,,,,,,,,,,,,,,,,,,,,,,,,,,,,,,,,,,,,,,,,,,,,,,,,,,,,,,,,,,,30,,,,,,,,612.3364497999428,612.3364497999428,612.3364497999428,612.3364497999428,612.3364497999428,-13,42,0.24,0.08,return,0.4595460999989882,7,0,0,1,0.24,0.08,return,0.36856029997579753,,,,,,,,,,,,,,,,,,,,,,,,,,,,,,,,,,,,,,,,,,,,,,,,,,,,,,,,Z02122,train_x,blue_star,top_left,2025-06-21_10h19.10.803,HideSeek_v1,2022.2.5,59.93831150851034,
,4,7,7,7,3,0,31,,train_dim1_1,21,30,,,,2,0,2,0,,,,,,,,,0,0,0,0,0,20,20,20,0,0,0,0,,,,,,,,,,,,,,,,,,,,,,,,,stimuli/alien_stimuli/31.png,,,,,,,,,,,,,,,,,,,,,,,,,,,,,stimuli/alien_stimuli/11.png,11,0,22,,,,,,,30,,,,,,,,618.9811826000223,618.9811826000223,618.9811826000223,618.9811826000223,618.9811826000223,,,,,right,2.473455300088972,7,0,0,99,0.24,0.16,right,2.394499200046994,617.4223573999479,0.24,0.08,0.0,0.4,0.08,0.24,0.039999999999999994,0.24,0.08,614.3765586999943,614.3765586999943,614.3765586999943,614.3765586999943,614.3765586999943,614.3765586999943,614.3765586999943,614.3765586999943,614.3695986000122,3.171628199983388,return,3.0246993999462575,618.9811826000223,,,,,,,,,,,,,,,,,,,,,,,,,,,,,,,,,Z02122,train_x,blue_star,top_left,2025-06-21_10h19.10.803,HideSeek_v1,2022.2.5,59.93831150851034,
,4,7,7,7,3,0,31,,train_dim1_1,21,30,,,,2,0,2,0,,,,,,,,,0,0,0,0,0,20,20,20,1,0,1,0,,,,,,,,,,,,,,,,,,,,,,,,,,,,,,,,,,,,,,,,,,,,,,,,,,,,,,,,,,,,,,,,30,,,,,,,,621.4608467000071,621.4608467000071,621.4608467000071,621.4608467000071,621.4608467000071,,,,,right,1.038387600099668,7,0,0,99,0.32,0.16,right,0.9559027999639511,,,,,,,,,,,,,,,,,,,,,,,,,,,,,,,,,,,,,,,,,,,,,,,,,,,,,,,,Z02122,train_x,blue_star,top_left,2025-06-21_10h19.10.803,HideSeek_v1,2022.2.5,59.93831150851034,
,4,7,7,7,3,0,31,,train_dim1_1,21,30,,,,2,0,2,0,,,,,,,,,0,0,0,0,0,20,20,20,2,0,2,0,,,,,,,,,,,,,,,,,,,,,,,,,,,,,,,,,,,,,,,,,,,,,,,,,,,,,,,,,,,,,,,,30,,,,,,,,622.5065179999219,622.5065179999219,622.5065179999219,622.5065179999219,622.5065179999219,,,,,right,1.3770655000116676,7,0,0,99,0.4,0.16,right,1.3026038000825793,,,,,,,,,,,,,,,,,,,,,,,,,,,,,,,,,,,,,,,,,,,,,,,,,,,,,,,,Z02122,train_x,blue_star,top_left,2025-06-21_10h19.10.803,HideSeek_v1,2022.2.5,59.93831150851034,
,4,7,7,7,3,0,31,,train_dim1_1,21,30,,,,2,0,2,0,,,,,,,,,0,0,0,0,0,20,20,20,3,0,3,0,,,,,,,,,,,,,,,,,,,,,,,,,,,,,,,,,,,,,,,,,,,,,,,,,,,,,,,,,,,,,,,,30,,,,,,,,623.8909879999701,623.8909879999701,623.8909879999701,623.8909879999701,623.8909879999701,-13,45,0.4,0.16,return,5.197638200013898,8,0,0,1,0.4,0.16,return,5.109635800006799,,,,,,,,,,,,,,,,,,,,,,,,,,,,,,,,,,,,,,,,,,,,,,,,,,,,,,,,Z02122,train_x,blue_star,top_left,2025-06-21_10h19.10.803,HideSeek_v1,2022.2.5,59.93831150851034,
,1,5,5,5,4,0,21,,train_dim1_1,22,30,,,,2,0,2,0,,,,,,,,,0,0,0,0,0,21,21,21,0,0,0,0,,,,,,,,,,,,,,,,,,,,,,,,,stimuli/alien_stimuli/21.png,,,,,,,,,,,,,,,,,,,,,,,,,,,,,stimuli/alien_stimuli/31.png,31,4,23,,,,,,,30,,,,,,,,634.7527835000074,634.7527835000074,634.7527835000074,634.7527835000074,634.7527835000074,,,,,right,3.2570857000537217,8,0,0,99,0.0,0,right,3.146813499974087,633.1687910999171,0.4,0.16,0.0,0.24,0.16,0.4,0.28,0.4,0.16,630.6878329999745,630.6878329999745,630.6878329999745,630.6878329999745,630.6878329999745,630.6878329999745,630.6878329999745,630.6878329999745,630.6665313999866,2.6210381999844685,return,2.464108199928887,634.7527835000074,,,,,,,,,,,,,,,,,,,,,,,,,,,,,,,,,Z02122,train_x,blue_star,top_left,2025-06-21_10h19.10.803,HideSeek_v1,2022.2.5,59.93831150851034,
,1,5,5,5,4,0,21,,train_dim1_1,22,30,,,,2,0,2,0,,,,,,,,,0,0,0,0,0,21,21,21,1,0,1,0,,,,,,,,,,,,,,,,,,,,,,,,,,,,,,,,,,,,,,,,,,,,,,,,,,,,,,,,,,,,,,,,30,,,,,,,,637.9961691999342,637.9961691999342,637.9961691999342,637.9961691999342,637.9961691999342,,,,,right,0.8380663999123499,8,0,0,99,0.08,0,right,0.7456533000804484,,,,,,,,,,,,,,,,,,,,,,,,,,,,,,,,,,,,,,,,,,,,,,,,,,,,,,,,Z02122,train_x,blue_star,top_left,2025-06-21_10h19.10.803,HideSeek_v1,2022.2.5,59.93831150851034,
,1,5,5,5,4,0,21,,train_dim1_1,22,30,,,,2,0,2,0,,,,,,,,,0,0,0,0,0,21,21,21,2,0,2,0,,,,,,,,,,,,,,,,,,,,,,,,,,,,,,,,,,,,,,,,,,,,,,,,,,,,,,,,,,,,,,,,30,,,,,,,,638.8424312999705,638.8424312999705,638.8424312999705,638.8424312999705,638.8424312999705,,,,,right,0.40952810004819185,8,0,0,99,0.16,0,right,0.32978889998048544,,,,,,,,,,,,,,,,,,,,,,,,,,,,,,,,,,,,,,,,,,,,,,,,,,,,,,,,Z02122,train_x,blue_star,top_left,2025-06-21_10h19.10.803,HideSeek_v1,2022.2.5,59.93831150851034,
,1,5,5,5,4,0,21,,train_dim1_1,22,30,,,,2,0,2,0,,,,,,,,,0,0,0,0,0,21,21,21,3,0,3,0,,,,,,,,,,,,,,,,,,,,,,,,,,,,,,,,,,,,,,,,,,,,,,,,,,,,,,,,,,,,,,,,30,,,,,,,,639.2565546999685,639.2565546999685,639.2565546999685,639.2565546999685,639.2565546999685,,,,,right,0.40986030001658946,8,0,0,99,0.24,0,right,0.32360120001249015,,,,,,,,,,,,,,,,,,,,,,,,,,,,,,,,,,,,,,,,,,,,,,,,,,,,,,,,Z02122,train_x,blue_star,top_left,2025-06-21_10h19.10.803,HideSeek_v1,2022.2.5,59.93831150851034,
,1,5,5,5,4,0,21,,train_dim1_1,22,30,,,,2,0,2,0,,,,,,,,,0,0,0,0,0,21,21,21,4,0,4,0,,,,,,,,,,,,,,,,,,,,,,,,,,,,,,,,,,,,,,,,,,,,,,,,,,,,,,,,,,,,,,,,30,,,,,,,,639.6743944999762,639.6743944999762,639.6743944999762,639.6743944999762,639.6743944999762,,,,,right,0.5270273999776691,8,0,0,99,0.32,0,right,0.44993850006721914,,,,,,,,,,,,,,,,,,,,,,,,,,,,,,,,,,,,,,,,,,,,,,,,,,,,,,,,Z02122,train_x,blue_star,top_left,2025-06-21_10h19.10.803,HideSeek_v1,2022.2.5,59.93831150851034,
,1,5,5,5,4,0,21,,train_dim1_1,22,30,,,,2,0,2,0,,,,,,,,,0,0,0,0,0,21,21,21,5,0,5,0,,,,,,,,,,,,,,,,,,,,,,,,,,,,,,,,,,,,,,,,,,,,,,,,,,,,,,,,,,,,,,,,30,,,,,,,,640.2080131999683,640.2080131999683,640.2080131999683,640.2080131999683,640.2080131999683,-13,50,0.32,0,return,0.959996800054796,8,1,0,0,0.32,0,return,0.8816836000187322,,,,,,,,,,,,,,,,,,,,,,,,,,,,,,,,,,,,,,,,,,,,,,,,,,,,,,,,Z02122,train_x,blue_star,top_left,2025-06-21_10h19.10.803,HideSeek_v1,2022.2.5,59.93831150851034,
,2,6,2,6,0,0,61,,train_dim1_1,23,30,,,,2,0,2,0,,,,,,,,,0,0,0,0,0,22,22,22,0,0,0,0,,,,,,,,,,,,,,,,,,,,,,,,,stimuli/alien_stimuli/61.png,,,,,,,,,,,,,,,,,,,,,,,,,,,,,stimuli/alien_stimuli/21.png,21,1,24,,,,,,,30,,,,,,,,651.5933148999466,651.5933148999466,651.5933148999466,651.5933148999466,651.5933148999466,-13,50,0,0.08,return,2.205297700013034,9,0,0,1,0,0.08,return,2.1188517999835312,650.032687400002,0.24,0,0.0,0.32,0.0,0.24,0.07999999999999999,0.24,0,642.7582469999325,642.7582469999325,642.7582469999325,642.7582469999325,642.7582469999325,642.7582469999325,642.7582469999325,642.7582469999325,642.7432114000432,7.408294000080787,return,7.257821499952115,651.5933148999466,,,,,,,,,,,,,,,,,,,,,,,,,,,,,,,,,Z02122,train_x,blue_star,top_left,2025-06-21_10h19.10.803,HideSeek_v1,2022.2.5,59.93831150851034,
,4,9,5,9,1,0,51,,train_dim1_1,24,30,,,,2,0,2,0,,,,,,,,,0,0,0,0,0,23,23,23,0,0,0,0,,,,,,,,,,,,,,,,,,,,,,,,,stimuli/alien_stimuli/51.png,,,,,,,,,,,,,,,,,,,,,,,,,,,,,stimuli/alien_stimuli/61.png,61,2,25,,,,,,,30,,,,,,,,659.1619365999941,659.1619365999941,659.1619365999941,659.1619365999941,659.1619365999941,,,,,right,1.6215084999566898,9,0,0,99,0.24,0.32,right,1.5254519000882283,657.5889353000093,0,0.08,0.0,0.0,0.08,0,0.0,0,0.08,655.3969713000115,655.3969713000115,655.3969713000115,655.3969713000115,655.3969713000115,655.3969713000115,655.3969713000115,655.3969713000115,655.3869664000114,2.321421399945393,return,2.1716108999680728,659.1619365999941,,,,,,,,,,,,,,,,,,,,,,,,,,,,,,,,,Z02122,train_x,blue_star,top_left,2025-06-21_10h19.10.803,HideSeek_v1,2022.2.5,59.93831150851034,
,4,9,5,9,1,0,51,,train_dim1_1,24,30,,,,2,0,2,0,,,,,,,,,0,0,0,0,0,23,23,23,1,0,1,0,,,,,,,,,,,,,,,,,,,,,,,,,,,,,,,,,,,,,,,,,,,,,,,,,,,,,,,,,,,,,,,,30,,,,,,,,660.778702499927,660.778702499927,660.778702499927,660.778702499927,660.778702499927,-13,51,0.24,0.32,return,0.9054462000494823,10,0,0,1,0.24,0.32,return,0.830187699990347,,,,,,,,,,,,,,,,,,,,,,,,,,,,,,,,,,,,,,,,,,,,,,,,,,,,,,,,Z02122,train_x,blue_star,top_left,2025-06-21_10h19.10.803,HideSeek_v1,2022.2.5,59.93831150851034,
,3,5,8,5,5,0,11,,train_dim1_1,25,30,,,,2,0,2,0,,,,,,,,,0,0,0,0,0,24,24,24,0,0,0,0,,,,,,,,,,,,,,,,,,,,,,,,,stimuli/alien_stimuli/11.png,,,,,,,,,,,,,,,,,,,,,,,,,,,,,stimuli/alien_stimuli/51.png,51,4,26,,,,,,,30,,,,,,,,666.3658711999888,666.3658711999888,666.3658711999888,666.3658711999888,666.3658711999888,,,,,right,1.3881373000331223,10,0,0,99,0.16,0,right,1.2748936999123544,664.7783428999828,0.24,0.32,0.0,0.08,0.32,0.24,0.2,0.24,0.32,663.2491359999403,663.2491359999403,663.2491359999403,663.2491359999403,663.2491359999403,663.2491359999403,663.2491359999403,663.2491359999403,663.22677220006,1.6370647000148892,return,1.5048490000190213,666.3658711999888,,,,,,,,,,,,,,,,,,,,,,,,,,,,,,,,,Z02122,train_x,blue_star,top_left,2025-06-21_10h19.10.803,HideSeek_v1,2022.2.5,59.93831150851034,
,3,5,8,5,5,0,11,,train_dim1_1,25,30,,,,2,0,2,0,,,,,,,,,0,0,0,0,0,24,24,24,1,0,1,0,,,,,,,,,,,,,,,,,,,,,,,,,,,,,,,,,,,,,,,,,,,,,,,,,,,,,,,,,,,,,,,,30,,,,,,,,667.7361040000105,667.7361040000105,667.7361040000105,667.7361040000105,667.7361040000105,,,,,right,0.48849040002096444,10,0,0,99,0.24,0,right,0.4053167999954894,,,,,,,,,,,,,,,,,,,,,,,,,,,,,,,,,,,,,,,,,,,,,,,,,,,,,,,,Z02122,train_x,blue_star,top_left,2025-06-21_10h19.10.803,HideSeek_v1,2022.2.5,59.93831150851034,
,3,5,8,5,5,0,11,,train_dim1_1,25,30,,,,2,0,2,0,,,,,,,,,0,0,0,0,0,24,24,24,2,0,2,0,,,,,,,,,,,,,,,,,,,,,,,,,,,,,,,,,,,,,,,,,,,,,,,,,,,,,,,,,,,,,,,,30,,,,,,,,668.2320822000038,668.2320822000038,668.2320822000038,668.2320822000038,668.2320822000038,,,,,right,0.5767647000029683,10,0,0,99,0.32,0,right,0.4894613999640569,,,,,,,,,,,,,,,,,,,,,,,,,,,,,,,,,,,,,,,,,,,,,,,,,,,,,,,,Z02122,train_x,blue_star,top_left,2025-06-21_10h19.10.803,HideSeek_v1,2022.2.5,59.93831150851034,
,3,5,8,5,5,0,11,,train_dim1_1,25,30,,,,2,0,2,0,,,,,,,,,0,0,0,0,0,24,24,24,3,0,3,0,,,,,,,,,,,,,,,,,,,,,,,,,,,,,,,,,,,,,,,,,,,,,,,,,,,,,,,,,,,,,,,,30,,,,,,,,668.8155766000273,668.8155766000273,668.8155766000273,668.8155766000273,668.8155766000273,,,,,right,0.49332819995470345,10,0,0,99,0.4,0,right,0.4042319000000134,,,,,,,,,,,,,,,,,,,,,,,,,,,,,,,,,,,,,,,,,,,,,,,,,,,,,,,,Z02122,train_x,blue_star,top_left,2025-06-21_10h19.10.803,HideSeek_v1,2022.2.5,59.93831150851034,
,3,5,8,5,5,0,11,,train_dim1_1,25,30,,,,2,0,2,0,,,,,,,,,0,0,0,0,0,24,24,24,4,0,4,0,,,,,,,,,,,,,,,,,,,,,,,,,,,,,,,,,,,,,,,,,,,,,,,,,,,,,,,,,,,,,,,,30,,,,,,,,669.3168797999388,669.3168797999388,669.3168797999388,669.3168797999388,669.3168797999388,,,,,right,0.9604219999164343,10,0,0,99,0.48000000000000004,0,right,0.8671351000666618,,,,,,,,,,,,,,,,,,,,,,,,,,,,,,,,,,,,,,,,,,,,,,,,,,,,,,,,Z02122,train_x,blue_star,top_left,2025-06-21_10h19.10.803,HideSeek_v1,2022.2.5,59.93831150851034,
,3,5,8,5,5,0,11,,train_dim1_1,25,30,,,,2,0,2,0,,,,,,,,,0,0,0,0,0,24,24,24,5,0,5,0,,,,,,,,,,,,,,,,,,,,,,,,,,,,,,,,,,,,,,,,,,,,,,,,,,,,,,,,,,,,,,,,30,,,,,,,,670.2835557999788,670.2835557999788,670.2835557999788,670.2835557999788,670.2835557999788,-13,56,0.48000000000000004,0,return,1.3931226999266073,11,0,0,1,0.48000000000000004,0,return,1.309125200030394,,,,,,,,,,,,,,,,,,,,,,,,,,,,,,,,,,,,,,,,,,,,,,,,,,,,,,,,Z02122,train_x,blue_star,top_left,2025-06-21_10h19.10.803,HideSeek_v1,2022.2.5,59.93831150851034,
,1,6,1,6,0,0,61,,train_dim1_1,26,30,,,,2,0,2,0,,,,,,,,,0,0,0,0,0,25,25,25,0,0,0,0,,,,,,,,,,,,,,,,,,,,,,,,,stimuli/alien_stimuli/61.png,,,,,,,,,,,,,,,,,,,,,,,,,,,,,stimuli/alien_stimuli/11.png,11,3,27,,,,,,,30,,,,,,,,676.6196271999506,676.6196271999506,676.6196271999506,676.6196271999506,676.6196271999506,-13,56,-0.08,0.08,return,1.4865024000173435,12,0,0,1,-0.08,0.08,return,1.3800161000108346,675.0367701000068,0.48,0,0.0,0.4,0.0,0.48,0.27999999999999997,0.48,0,673.2414518999867,673.2414518999867,673.2414518999867,673.2414518999867,673.2414518999867,673.2414518999867,673.2414518999867,673.2414518999867,673.235057500028,1.9037161999149248,return,1.7665136000141501,676.6196271999506,,,,,,,,,,,,,,,,,,,,,,,,,,,,,,,,,Z02122,train_x,blue_star,top_left,2025-06-21_10h19.10.803,HideSeek_v1,2022.2.5,59.93831150851034,
,0,6,3,6,3,0,31,,train_dim1_1,27,30,,,,2,0,2,0,,,,,,,,,0,0,0,0,0,26,26,26,0,0,0,0,,,,,,,,,,,,,,,,,,,,,,,,,stimuli/alien_stimuli/31.png,,,,,,,,,,,,,,,,,,,,,,,,,,,,,stimuli/alien_stimuli/61.png,61,1,28,,,,,,,30,,,,,,,,682.4847532999702,682.4847532999702,682.4847532999702,682.4847532999702,682.4847532999702,,,,,right,3.85930280003231,12,0,0,99,-0.08,0.08,right,3.7639034999301657,680.9249379999237,-0.08,0.08,0.0,0.0,0.08,-0.08,-0.08,-0.08,0.08,679.6623329999857,679.6623329999857,679.6623329999857,679.6623329999857,679.6623329999857,679.6623329999857,679.6623329999857,679.6623329999857,679.6405965999933,1.370655900100246,return,1.2464243000140414,682.4847532999702,,,,,,,,,,,,,,,,,,,,,,,,,,,,,,,,,Z02122,train_x,blue_star,top_left,2025-06-21_10h19.10.803,HideSeek_v1,2022.2.5,59.93831150851034,
,0,6,3,6,3,0,31,,train_dim1_1,27,30,,,,2,0,2,0,,,,,,,,,0,0,0,0,0,26,26,26,1,0,1,0,,,,,,,,,,,,,,,,,,,,,,,,,,,,,,,,,,,,,,,,,,,,,,,,,,,,,,,,,,,,,,,,30,,,,,,,,686.3567787000211,686.3567787000211,686.3567787000211,686.3567787000211,686.3567787000211,,,,,right,0.517680500051938,12,0,0,99,0.0,0.08,right,0.42621319997124374,,,,,,,,,,,,,,,,,,,,,,,,,,,,,,,,,,,,,,,,,,,,,,,,,,,,,,,,Z02122,train_x,blue_star,top_left,2025-06-21_10h19.10.803,HideSeek_v1,2022.2.5,59.93831150851034,
,0,6,3,6,3,0,31,,train_dim1_1,27,30,,,,2,0,2,0,,,,,,,,,0,0,0,0,0,26,26,26,2,0,2,0,,,,,,,,,,,,,,,,,,,,,,,,,,,,,,,,,,,,,,,,,,,,,,,,,,,,,,,,,,,,,,,,30,,,,,,,,686.8776093999622,686.8776093999622,686.8776093999622,686.8776093999622,686.8776093999622,,,,,right,0.6606462999479845,12,0,0,99,0.08,0.08,right,0.5811718000331894,,,,,,,,,,,,,,,,,,,,,,,,,,,,,,,,,,,,,,,,,,,,,,,,,,,,,,,,Z02122,train_x,blue_star,top_left,2025-06-21_10h19.10.803,HideSeek_v1,2022.2.5,59.93831150851034,
,0,6,3,6,3,0,31,,train_dim1_1,27,30,,,,2,0,2,0,,,,,,,,,0,0,0,0,0,26,26,26,3,0,3,0,,,,,,,,,,,,,,,,,,,,,,,,,,,,,,,,,,,,,,,,,,,,,,,,,,,,,,,,,,,,,,,,30,,,,,,,,687.5457922000205,687.5457922000205,687.5457922000205,687.5457922000205,687.5457922000205,,,,,right,0.5600893000373617,12,0,0,99,0.16,0.08,right,0.4732182000298053,,,,,,,,,,,,,,,,,,,,,,,,,,,,,,,,,,,,,,,,,,,,,,,,,,,,,,,,Z02122,train_x,blue_star,top_left,2025-06-21_10h19.10.803,HideSeek_v1,2022.2.5,59.93831150851034,
,0,6,3,6,3,0,31,,train_dim1_1,27,30,,,,2,0,2,0,,,,,,,,,0,0,0,0,0,26,26,26,4,0,4,0,,,,,,,,,,,,,,,,,,,,,,,,,,,,,,,,,,,,,,,,,,,,,,,,,,,,,,,,,,,,,,,,30,,,,,,,,688.1111558999401,688.1111558999401,688.1111558999401,688.1111558999401,688.1111558999401,,,,,right,0.7935782000422478,12,0,0,99,0.24,0.08,right,0.7112084000837058,,,,,,,,,,,,,,,,,,,,,,,,,,,,,,,,,,,,,,,,,,,,,,,,,,,,,,,,Z02122,train_x,blue_star,top_left,2025-06-21_10h19.10.803,HideSeek_v1,2022.2.5,59.93831150851034,
,0,6,3,6,3,0,31,,train_dim1_1,27,30,,,,2,0,2,0,,,,,,,,,0,0,0,0,0,26,26,26,5,0,5,0,,,,,,,,,,,,,,,,,,,,,,,,,,,,,,,,,,,,,,,,,,,,,,,,,,,,,,,,,,,,,,,,30,,,,,,,,688.912127599935,688.912127599935,688.912127599935,688.912127599935,688.912127599935,-13,61,0.24,0.08,return,1.1600720999995247,12,0,0,0,0.24,0.08,return,1.0802463999716565,,,,,,,,,,,,,,,,,,,,,,,,,,,,,,,,,,,,,,,,,,,,,,,,,,,,,,,,Z02122,train_x,blue_star,top_left,2025-06-21_10h19.10.803,HideSeek_v1,2022.2.5,59.93831150851034,
,3,6,7,6,4,0,21,,train_dim1_1,28,30,,,,2,0,2,0,,,,,,,,,0,0,0,0,0,27,27,27,0,0,0,0,,,,,,,,,,,,,,,,,,,,,,,,,stimuli/alien_stimuli/21.png,,,,,,,,,,,,,,,,,,,,,,,,,,,,,stimuli/alien_stimuli/31.png,31,0,29,,,,,,,30,,,,,,,,699.5881480999524,699.5881480999524,699.5881480999524,699.5881480999524,699.5881480999524,,,,,right,3.6567965999711305,12,0,0,99,0.16,0.08,right,3.5728193999966606,698.0223655999871,0.08,0.08,0.0,0.24,0.08,0.08,-0.04,0.08,0.08,691.6562777999789,691.6562777999789,691.6562777999789,691.6562777999789,691.6562777999789,691.6562777999789,691.6562777999789,691.6562777999789,691.6336920000147,6.490813700016588,return,6.339520099922083,699.5881480999524,,,,,,,,,,,,,,,,,,,,,,,,,,,,,,,,,Z02122,train_x,blue_star,top_left,2025-06-21_10h19.10.803,HideSeek_v1,2022.2.5,59.93831150851034,
,3,6,7,6,4,0,21,,train_dim1_1,28,30,,,,2,0,2,0,,,,,,,,,0,0,0,0,0,27,27,27,1,0,1,0,,,,,,,,,,,,,,,,,,,,,,,,,,,,,,,,,,,,,,,,,,,,,,,,,,,,,,,,,,,,,,,,30,,,,,,,,703.2496236999286,703.2496236999286,703.2496236999286,703.2496236999286,703.2496236999286,,,,,right,0.47121340001467615,12,0,0,99,0.24,0.08,right,0.37905300001148134,,,,,,,,,,,,,,,,,,,,,,,,,,,,,,,,,,,,,,,,,,,,,,,,,,,,,,,,Z02122,train_x,blue_star,top_left,2025-06-21_10h19.10.803,HideSeek_v1,2022.2.5,59.93831150851034,
,3,6,7,6,4,0,21,,train_dim1_1,28,30,,,,2,0,2,0,,,,,,,,,0,0,0,0,0,27,27,27,2,0,2,0,,,,,,,,,,,,,,,,,,,,,,,,,,,,,,,,,,,,,,,,,,,,,,,,,,,,,,,,,,,,,,,,30,,,,,,,,703.7282177000307,703.7282177000307,703.7282177000307,703.7282177000307,703.7282177000307,,,,,right,0.3926883999956772,12,0,0,99,0.32,0.08,right,0.3088840999407694,,,,,,,,,,,,,,,,,,,,,,,,,,,,,,,,,,,,,,,,,,,,,,,,,,,,,,,,Z02122,train_x,blue_star,top_left,2025-06-21_10h19.10.803,HideSeek_v1,2022.2.5,59.93831150851034,
,3,6,7,6,4,0,21,,train_dim1_1,28,30,,,,2,0,2,0,,,,,,,,,0,0,0,0,0,27,27,27,3,0,3,0,,,,,,,,,,,,,,,,,,,,,,,,,,,,,,,,,,,,,,,,,,,,,,,,,,,,,,,,,,,,,,,,30,,,,,,,,704.1281477999873,704.1281477999873,704.1281477999873,704.1281477999873,704.1281477999873,,,,,right,0.39342789992224425,12,0,0,99,0.4,0.08,right,0.30785059998743236,,,,,,,,,,,,,,,,,,,,,,,,,,,,,,,,,,,,,,,,,,,,,,,,,,,,,,,,Z02122,train_x,blue_star,top_left,2025-06-21_10h19.10.803,HideSeek_v1,2022.2.5,59.93831150851034,
,3,6,7,6,4,0,21,,train_dim1_1,28,30,,,,2,0,2,0,,,,,,,,,0,0,0,0,0,27,27,27,4,0,4,0,,,,,,,,,,,,,,,,,,,,,,,,,,,,,,,,,,,,,,,,,,,,,,,,,,,,,,,,,,,,,,,,30,,,,,,,,704.5281512999209,704.5281512999209,704.5281512999209,704.5281512999209,704.5281512999209,,,,,right,0.4764964000787586,12,0,0,99,0.48000000000000004,0.08,right,0.3936265999218449,,,,,,,,,,,,,,,,,,,,,,,,,,,,,,,,,,,,,,,,,,,,,,,,,,,,,,,,Z02122,train_x,blue_star,top_left,2025-06-21_10h19.10.803,HideSeek_v1,2022.2.5,59.93831150851034,
,3,6,7,6,4,0,21,,train_dim1_1,28,30,,,,2,0,2,0,,,,,,,,,0,0,0,0,0,27,27,27,5,0,5,0,,,,,,,,,,,,,,,,,,,,,,,,,,,,,,,,,,,,,,,,,,,,,,,,,,,,,,,,,,,,,,,,30,,,,,,,,705.011559800012,705.011559800012,705.011559800012,705.011559800012,705.011559800012,-13,66,0.48000000000000004,0.08,return,0.6935664999764413,12,1,0,0,0.48000000000000004,0.08,return,0.6127381999976933,,,,,,,,,,,,,,,,,,,,,,,,,,,,,,,,,,,,,,,,,,,,,,,,,,,,,,,,Z02122,train_x,blue_star,top_left,2025-06-21_10h19.10.803,HideSeek_v1,2022.2.5,59.93831150851034,
,4,5,5,5,1,0,51,,train_dim1_1,29,30,,,,2,0,2,0,,,,,,,,,0,0,0,0,0,28,28,28,0,0,0,0,,,,,,,,,,,,,,,,,,,,,,,,,stimuli/alien_stimuli/51.png,,,,,,,,,,,,,,,,,,,,,,,,,,,,,stimuli/alien_stimuli/21.png,21,3,30,,,,,,,30,,,,,,,,716.718587399926,716.718587399926,716.718587399926,716.718587399926,716.718587399926,,,,,right,1.2029448999091983,12,1,0,99,0.24,0,right,1.1161843000445515,715.1532827999908,0.4,0.08,0.0,0.32,0.08,0.4,0.24000000000000002,0.4,0.08,707.2886285999557,707.2886285999557,707.2886285999557,707.2886285999557,707.2886285999557,707.2886285999557,707.2886285999557,707.2886285999557,707.279993900028,7.992200899985619,return,7.8427669000811875,716.718587399926,,,,,,,,,,,,,,,,,,,,,,,,,,,,,,,,,Z02122,train_x,blue_star,top_left,2025-06-21_10h19.10.803,HideSeek_v1,2022.2.5,59.93831150851034,
,4,5,5,5,1,0,51,,train_dim1_1,29,30,,,,2,0,2,0,,,,,,,,,0,0,0,0,0,28,28,28,1,0,1,0,,,,,,,,,,,,,,,,,,,,,,,,,,,,,,,,,,,,,,,,,,,,,,,,,,,,,,,,,,,,,,,,30,,,,,,,,717.9273739999626,717.9273739999626,717.9273739999626,717.9273739999626,717.9273739999626,-13,67,0.24,0,return,0.4709004000760615,13,0,0,1,0.24,0,return,0.3841837999643758,,,,,,,,,,,,,,,,,,,,,,,,,,,,,,,,,,,,,,,,,,,,,,,,,,,,,,,,Z02122,train_x,blue_star,top_left,2025-06-21_10h19.10.803,HideSeek_v1,2022.2.5,59.93831150851034,
,2,7,7,7,5,0,11,,train_dim1_1,30,30,,,,2,0,2,0,,,,,,,,,0,0,0,0,0,29,29,29,0,0,0,0,,,,,,,,,,,,,,,,,,,,,,,,,stimuli/alien_stimuli/11.png,,,,,,,,,,,,,,,,,,,,,,,,,,,,,stimuli/alien_stimuli/51.png,51,4,31,,,,,,,30,,,,,,,,724.6556534999982,724.6556534999982,724.6556534999982,724.6556534999982,724.6556534999982,,,,,right,1.1891309000784531,13,0,0,99,0.08,0.16,right,1.098447399912402,723.0933963999851,0.24,0,0.0,0.08,0.0,0.24,0.2,0.24,0,719.9801694999915,719.9801694999915,719.9801694999915,719.9801694999915,719.9801694999915,719.9801694999915,719.9801694999915,719.9801694999915,719.9739197000628,3.238333799992688,return,3.094308799947612,724.6556534999982,,,,,,,,,,,,,,,,,,,,,,,,,,,,,,,,,Z02122,train_x,blue_star,top_left,2025-06-21_10h19.10.803,HideSeek_v1,2022.2.5,59.93831150851034,
,2,7,7,7,5,0,11,,train_dim1_1,30,30,,,,2,0,2,0,,,,,,,,,0,0,0,0,0,29,29,29,1,0,1,0,,,,,,,,,,,,,,,,,,,,,,,,,,,,,,,,,,,,,,,,,,,,,,,,,,,,,,,,,,,,,,,,30,,,,,,,,725.8505479999585,725.8505479999585,725.8505479999585,725.8505479999585,725.8505479999585,,,,,right,0.6390397999202833,13,0,0,99,0.16,0.16,right,0.5502053999807686,,,,,,,,,,,,,,,,,,,,,,,,,,,,,,,,,,,,,,,,,,,,,,,,,,,,,,,,Z02122,train_x,blue_star,top_left,2025-06-21_10h19.10.803,HideSeek_v1,2022.2.5,59.93831150851034,
,2,7,7,7,5,0,11,,train_dim1_1,30,30,,,,2,0,2,0,,,,,,,,,0,0,0,0,0,29,29,29,2,0,2,0,,,,,,,,,,,,,,,,,,,,,,,,,,,,,,,,,,,,,,,,,,,,,,,,,,,,,,,,,,,,,,,,30,,,,,,,,726.4960016999394,726.4960016999394,726.4960016999394,726.4960016999394,726.4960016999394,,,,,right,0.4933104000519961,13,0,0,99,0.24,0.16,right,0.40635399997700006,,,,,,,,,,,,,,,,,,,,,,,,,,,,,,,,,,,,,,,,,,,,,,,,,,,,,,,,Z02122,train_x,blue_star,top_left,2025-06-21_10h19.10.803,HideSeek_v1,2022.2.5,59.93831150851034,
,2,7,7,7,5,0,11,,train_dim1_1,30,30,,,,2,0,2,0,,,,,,,,,0,0,0,0,0,29,29,29,3,0,3,0,,,,,,,,,,,,,,,,,,,,,,,,,,,,,,,,,,,,,,,,,,,,,,,,,,,,,,,,,,,,,,,,30,,,,,,,,726.9970079999184,726.9970079999184,726.9970079999184,726.9970079999184,726.9970079999184,,,,,right,0.4596841000020504,13,0,0,99,0.32,0.16,right,0.3807572000660002,,,,,,,,,,,,,,,,,,,,,,,,,,,,,,,,,,,,,,,,,,,,,,,,,,,,,,,,Z02122,train_x,blue_star,top_left,2025-06-21_10h19.10.803,HideSeek_v1,2022.2.5,59.93831150851034,
,2,7,7,7,5,0,11,,train_dim1_1,30,30,,,,2,0,2,0,,,,,,,,,0,0,0,0,0,29,29,29,4,0,4,0,,,,,,,,,,,,,,,,,,,,,,,,,,,,,,,,,,,,,,,,,,,,,,,,,,,,,,,,,,,,,,,,30,,,,,,,,727.463442599983,727.463442599983,727.463442599983,727.463442599983,727.463442599983,,,,,right,0.49339590000454336,13,0,0,99,0.4,0.16,right,0.416849400033243,,,,,,,,,,,,,,,,,,,,,,,,,,,,,,,,,,,,,,,,,,,,,,,,,,,,,,,,Z02122,train_x,blue_star,top_left,2025-06-21_10h19.10.803,HideSeek_v1,2022.2.5,59.93831150851034,
,2,7,7,7,5,0,11,,train_dim1_1,30,30,,,,2,0,2,0,,,,,,,,,0,0,0,0,0,29,29,29,5,0,5,0,,,,,,,,,,,,,,,,,,,,,,,,,,,,,,,,,,,,,,,,,,,,,,,,,,,,,,,,,,,,,,,,30,,,,,,,,727.9657523999922,727.9657523999922,727.9657523999922,727.9657523999922,727.9657523999922,-13,72,0.4,0.16,return,0.8437334999907762,14,0,0,1,0.4,0.16,return,0.7639237999683246,,,,,,,,,,,,,,,,,,,,,,,,,,,,,,,,,,,,,,,,,,,,,,,,,,,,,,,,Z02122,train_x,blue_star,top_left,2025-06-21_10h19.10.803,HideSeek_v1,2022.2.5,59.93831150851034,
,,,,,,,,,,,30,,,,2,0,2,0,,,,,,,,,,,,,,,,,,,,,,,,,,,,,,,,,,,,,,,,,,,,,,,,,,,,,,,,,,,,,,,,,,,,,,,,,,stimuli/alien_stimuli/11.png,11,2,32,21,0.7,0.5833333333333334,1,1,1,30,0,conditions/schedules/train_x_first/blue_star_00/top_left/inputTrain_2.1.xlsx,99,1,2,1,0,,,,,,,,,,,,,,,1,,,,,732.0339036999503,0.4,0.16,0.0,0.4,0.16,0.4,0.2,0.4,0.16,730.4004594000289,730.4004594000289,730.4004594000289,730.4004594000289,730.4004594000289,730.4004594000289,730.4004594000289,730.4004594000289,730.3825738999759,1.7700295000104234,return,1.6092564999125898,733.6015729999635,0,0.9,0,1,14,,,,,,,,,,,,,,,,,,,,,,,,,,,,Z02122,train_x,blue_star,top_left,2025-06-21_10h19.10.803,HideSeek_v1,2022.2.5,59.93831150851034,
,,,,,,,,,,,,,,,3,0,3,0,0,0,0,0,,,,,,,,,,,,,,,,,,,,,,,,,,,,,,,conditions/schedules/train_x_first/blue_star_00/top_left/instructions/Slide17.png,conditions/schedules/train_x_first/blue_star_00/top_left/instructions/Audio17.wav,733.6015729999635,733.6021766000194,17,"[10.554140100022778, 18.61246510001365, 16.382099200040102, 19.900671100011095, 4.287526699947193, 4.920142199960537, 5.752625599969178, 0.14767900004517287, 5.603499099961482, 6.751783499959856, 9.40422090003267, 12.75315290002618, 16.84938290005084, 12.668976200046018, 29.832482300000265, 21.425851300009526, 94.12619679991622]","[10.554156900034286, 18.61247320007533, 0.034365099971182644, 0.034382999991066754, 0.0495917999651283, 0.06491899990942329, 0.048197500058449805, 0.04894649994093925, 0.07965420000255108, 0.047666799975559115, 0.013757799984887242, 12.753162399982102, 16.84939079999458, 12.668985600001179, 0.1951143000042066, 21.42585949995555, 94.1262053999817]",0,,,,,,,,,,,,,,,,,,,,,,,,,,,,,,,,,,,,,,,,,,,,,,,,,,,,,,,,,,,,,,,,,,,,,,,,,,,,,,,,,,,,,,,,,,,,,,,,,,,,,,,,,,,,,,,,,,,,,,,,,,,,Z02122,train_x,blue_star,top_left,2025-06-21_10h19.10.803,HideSeek_v1,2022.2.5,59.93831150851034,
,,,,,,,,,,,,,,,3,0,3,0,1,0,1,0,,,,,,,,,,,,,,,,,,,,,,,,,,,,,,,conditions/schedules/train_x_first/blue_star_00/top_left/instructions/Slide18.png,conditions/schedules/train_x_first/blue_star_00/top_left/instructions/Audio18.wav,827.8201292000012,827.8134744000621,18,"[10.554140100022778, 18.61246510001365, 16.382099200040102, 19.900671100011095, 4.287526699947193, 4.920142199960537, 5.752625599969178, 0.14767900004517287, 5.603499099961482, 6.751783499959856, 9.40422090003267, 12.75315290002618, 16.84938290005084, 12.668976200046018, 29.832482300000265, 21.425851300009526, 94.12619679991622, 6.32951630000025]","[10.554156900034286, 18.61247320007533, 0.034365099971182644, 0.034382999991066754, 0.0495917999651283, 0.06491899990942329, 0.048197500058449805, 0.04894649994093925, 0.07965420000255108, 0.047666799975559115, 0.013757799984887242, 12.753162399982102, 16.84939079999458, 12.668985600001179, 0.1951143000042066, 21.42585949995555, 94.1262053999817, 6.329524399945512]",0,,,,,,,,,,,,,,,,,,,,,,,,,,,,,,,,,,,,,,,,,,,,,,,,,,,,,,,,,,,,,,,,,,,,,,,,,,,,,,,,,,,,,,,,,,,,,,,,,,,,,,,,,,,,,,,,,,,,,,,,,,,,Z02122,train_x,blue_star,top_left,2025-06-21_10h19.10.803,HideSeek_v1,2022.2.5,59.93831150851034,
,,,,,,,,,,,,,,,3,0,3,0,2,0,2,0,,,,,,,,,,,,,,,,,,,,,,,,,,,,,,,conditions/schedules/train_x_first/blue_star_00/top_left/instructions/Slide19.png,conditions/schedules/train_x_first/blue_star_00/top_left/instructions/Audio19.wav,834.1893839000259,834.1854388999519,19,"[10.554140100022778, 18.61246510001365, 16.382099200040102, 19.900671100011095, 4.287526699947193, 4.920142199960537, 5.752625599969178, 0.14767900004517287, 5.603499099961482, 6.751783499959856, 9.40422090003267, 12.75315290002618, 16.84938290005084, 12.668976200046018, 29.832482300000265, 21.425851300009526, 94.12619679991622, 6.32951630000025, 10.18538839998655]","[10.554156900034286, 18.61247320007533, 0.034365099971182644, 0.034382999991066754, 0.0495917999651283, 0.06491899990942329, 0.048197500058449805, 0.04894649994093925, 0.07965420000255108, 0.047666799975559115, 0.013757799984887242, 12.753162399982102, 16.84939079999458, 12.668985600001179, 0.1951143000042066, 21.42585949995555, 94.1262053999817, 0.04703040001913905, 10.185397099936381]",0,,,,,,,,,,,,,,,,,,,,,,,,,,,,,,,,,,,,,,,,,,,,,,,,,,,,,,,,,,,,,,,,,,,,,,,,,,,,,,,,,,,,,,,,,,,,,,,,,,,,,,,,,,,,,,,,,,,,,,,,,,,,Z02122,train_x,blue_star,top_left,2025-06-21_10h19.10.803,HideSeek_v1,2022.2.5,59.93831150851034,
,,,,,,,,,,,,,,,3,0,3,0,3,0,3,0,,,,,,,,,,,,,,,,,,,,,,,,,,,,,,,conditions/schedules/train_x_first/blue_star_00/top_left/instructions/Slide20.png,conditions/schedules/train_x_first/blue_star_00/top_left/instructions/Audio20.wav,844.4480197000084,844.4439288000576,20,"[10.554140100022778, 18.61246510001365, 16.382099200040102, 19.900671100011095, 4.287526699947193, 4.920142199960537, 5.752625599969178, 0.14767900004517287, 5.603499099961482, 6.751783499959856, 9.40422090003267, 12.75315290002618, 16.84938290005084, 12.668976200046018, 29.832482300000265, 21.425851300009526, 94.12619679991622, 6.32951630000025, 10.18538839998655, 21.794620499946177]","[10.554156900034286, 18.61247320007533, 0.034365099971182644, 0.034382999991066754, 0.0495917999651283, 0.06491899990942329, 0.048197500058449805, 0.04894649994093925, 0.07965420000255108, 0.047666799975559115, 0.013757799984887242, 12.753162399982102, 16.84939079999458, 12.668985600001179, 0.1951143000042066, 21.42585949995555, 94.1262053999817, 0.04703040001913905, 0.06299400003626943, 21.794629800016992]",0,,,,,,,,,,,,,,,,,,,,,,,,,,,,,,,,,,,,,,,,,,,,,,,,,,,,,,,,,,,,,,,,,,,,,,,,,,,,,,,,,,,,,,,,,,,,,,,,,,,,,,,,,,,,,,,,,,,,,,,,,,,,Z02122,train_x,blue_star,top_left,2025-06-21_10h19.10.803,HideSeek_v1,2022.2.5,59.93831150851034,
1,0,8,0,3,0,-5,66,2,instr_dim1_2,,,,,,3,0,3,0,,,,,0,0,0,0,,,,,,,,,,,,,,,,,,,,,,,,,,,,,,,,,,,,,stimuli/alien_stimuli/66.png,conditions/schedules/train_x_first/blue_star_00/top_left/inputInstr_2.xlsx,stimuli/alien_stimuli/66.png,866.3422205999959,866.3422205999959,866.3422205999959,866.3422205999959,866.3452678999863,return,7.530197100015357,"[-0.16, -0.08, 0, 0.08, 0.16, 0.24, 0.32, 0.4, 0.48, 0.56]","[-0.4, -0.32, -0.24, -0.16, -0.08, 0, 0.08, 0.16, 0.24, 0.32]",3,8,0,0,0.4,0.0,874.0267895000288,874.0267895000288,874.0267895000288,874.0267895000288,874.0267895000288,874.0267895000288,874.0267895000288,874.0182234000414,9.692209900007583,return,9.542122700018808,stimuli/alien_stimuli/66.png,66,0,1,,,,,,,,,,,,,,,,,,,,,,,,,,,,,,,,,,,,,,,,,,,,,,,,,,,,,,,,,,,,,,,,,,,,,,,,,,,,,,,,,,,,,,,,,Z02122,train_x,blue_star,top_left,2025-06-21_10h19.10.803,HideSeek_v1,2022.2.5,59.93831150851034,
,,,,,,,,,,,30,,,,3,0,3,0,,,,,,,,,,,,,,,,,,,,,,,,,,,,,,,,,,,,,,,,,,,,,,,,,,,,,,,,,,,,,,,,,,,,,,,,,,,,,,21,0.7,0.5833333333333334,1,99,2,30,0,conditions/schedules/train_x_first/blue_star_00/top_left/inputTrain_2.1.xlsx,99,1,2,1,0,,,,,,,,,,,,,,,,,,,,,,,,,,,,,,,,,,,,,,,,,,,,,,,,,,,,,,,,,,,,,,,,,,,,,,,,,,,Z02122,train_x,blue_star,top_left,2025-06-21_10h19.10.803,HideSeek_v1,2022.2.5,59.93831150851034,
,,,,,,,,,,,,,,,4,0,4,0,0,0,0,0,,,,,,,,,,,,,,,,,,,,,,,,,,,,,,,conditions/schedules/train_x_first/blue_star_00/top_left/instructions/Slide21.png,conditions/schedules/train_x_first/blue_star_00/top_left/instructions/Audio21.wav,883.7486335999565,883.742825100082,21,"[10.554140100022778, 18.61246510001365, 16.382099200040102, 19.900671100011095, 4.287526699947193, 4.920142199960537, 5.752625599969178, 0.14767900004517287, 5.603499099961482, 6.751783499959856, 9.40422090003267, 12.75315290002618, 16.84938290005084, 12.668976200046018, 29.832482300000265, 21.425851300009526, 94.12619679991622, 6.32951630000025, 10.18538839998655, 21.794620499946177, 16.989516700035892]","[10.554156900034286, 18.61247320007533, 0.034365099971182644, 0.034382999991066754, 0.0495917999651283, 0.06491899990942329, 0.048197500058449805, 0.04894649994093925, 0.07965420000255108, 0.047666799975559115, 0.013757799984887242, 12.753162399982102, 16.84939079999458, 12.668985600001179, 0.1951143000042066, 21.42585949995555, 94.1262053999817, 0.04703040001913905, 0.06299400003626943, 21.794629800016992, 16.98952589998953]",0,,,,,,,,,,,,,,,,,,,,,,,,,,,,,,,,,,,,,,,,,,,,,,,,,,,,,,,,,,,,,,,,,,,,,,,,,,,,,,,,,,,,,,,,,,,,,,,,,,,,,,,,,,,,,,,,,,,,,,,,,,,,Z02122,train_x,blue_star,top_left,2025-06-21_10h19.10.803,HideSeek_v1,2022.2.5,59.93831150851034,
2,2,8,2,8,0,0,61,2,instr_dim1_2,,,,,,4,0,4,0,,,,,0,0,0,0,,,,,,,,,,,,,,,,,,,,,,,,,,,,,,,,,,,,,stimuli/alien_stimuli/61.png,conditions/schedules/train_x_first/blue_star_00/top_left/inputInstr_2.xlsx,stimuli/alien_stimuli/61.png,900.8496604999527,900.8496604999527,900.8496604999527,900.8496604999527,900.8404598000459,return,5.572211200022139,"[-0.16, -0.08, 0, 0.08, 0.16, 0.24, 0.32, 0.4, 0.48, 0.56]","[-0.4, -0.32, -0.24, -0.16, -0.08, 0, 0.08, 0.16, 0.24, 0.32]",8,8,2,2,0.0,0.0,906.564581100014,906.564581100014,906.564581100014,906.564581100014,906.564581100014,906.564581100014,906.564581100014,906.5618106000358,7.607014800072648,return,7.470224100048654,stimuli/alien_stimuli/61.png,61,2,2,,,,,,,,,,,,,,,,,,,,,,,,,,,,,,,,,,,,,,,,,,,,,,,,,,,,,,,,,,,,,,,,,,,,,,,,,,,,,,,,,,,,,,,,,Z02122,train_x,blue_star,top_left,2025-06-21_10h19.10.803,HideSeek_v1,2022.2.5,59.93831150851034,
,,,,,,,,,,,30,,,,4,0,4,0,,,,,,,,,,,,,,,,,,,,,,,,,,,,,,,,,,,,,,,,,,,,,,,,,,,,,,,,,,,,,,,,,,,,,,,,,,,,,,21,0.7,0.5833333333333334,1,99,2,30,0,conditions/schedules/train_x_first/blue_star_00/top_left/inputTrain_2.1.xlsx,99,1,2,1,0,,,,,,,,,,,,,,,,,,,,,,,,,,,,,,,,,,,,,,,,,,,,,,,,,,,,,,,,,,,,,,,,,,,,,,,,,,,Z02122,train_x,blue_star,top_left,2025-06-21_10h19.10.803,HideSeek_v1,2022.2.5,59.93831150851034,
,,,,,,,,,,,,,,,5,0,5,0,0,0,0,0,,,,,,,,,,,,,,,,,,,,,,,,,,,,,,,conditions/schedules/train_x_first/blue_star_00/top_left/instructions/Slide22.png,conditions/schedules/train_x_first/blue_star_00/top_left/instructions/Audio22.wav,914.2750510999467,914.2680630000774,22,"[10.554140100022778, 18.61246510001365, 16.382099200040102, 19.900671100011095, 4.287526699947193, 4.920142199960537, 5.752625599969178, 0.14767900004517287, 5.603499099961482, 6.751783499959856, 9.40422090003267, 12.75315290002618, 16.84938290005084, 12.668976200046018, 29.832482300000265, 21.425851300009526, 94.12619679991622, 6.32951630000025, 10.18538839998655, 21.794620499946177, 16.989516700035892, 42.52592450007796]","[10.554156900034286, 18.61247320007533, 0.034365099971182644, 0.034382999991066754, 0.0495917999651283, 0.06491899990942329, 0.048197500058449805, 0.04894649994093925, 0.07965420000255108, 0.047666799975559115, 0.013757799984887242, 12.753162399982102, 16.84939079999458, 12.668985600001179, 0.1951143000042066, 21.42585949995555, 94.1262053999817, 0.04703040001913905, 0.06299400003626943, 21.794629800016992, 16.98952589998953, 42.52593300002627]",0,,,,,,,,,,,,,,,,,,,,,,,,,,,,,,,,,,,,,,,,,,,,,,,,,,,,,,,,,,,,,,,,,,,,,,,,,,,,,,,,,,,,,,,,,,,,,,,,,,,,,,,,,,,,,,,,,,,,,,,,,,,,Z02122,train_x,blue_star,top_left,2025-06-21_10h19.10.803,HideSeek_v1,2022.2.5,59.93831150851034,
,0,5,0,1,0,-4,65,,train_dim1_2,1,30,,,,5,0,5,0,,,,,,,,,0,0,0,0,0,0,0,0,0,0,0,0,,,,,,,,,,,,,,,,,,,,,,,,,stimuli/alien_stimuli/65.png,,,,,,,,,,,,,,,,,,,,,,,,,,,,,,,,,,,,,,,30,,,,,,,,956.9308909999672,956.9308909999672,956.9308909999672,956.9308909999672,956.9308909999672,,,,,down,7.164821099955589,0,0,0,99,-0.16,-0.08,down,7.057383600040339,,,,,,,,,,,,,,,,,,,,,,,,,,,,,,,,,,,,,,,,,,,,,,,,,,,,,,,,Z02122,train_x,blue_star,top_left,2025-06-21_10h19.10.803,HideSeek_v1,2022.2.5,59.93831150851034,
,0,5,0,1,0,-4,65,,train_dim1_2,1,30,,,,5,0,5,0,,,,,,,,,0,0,0,0,0,0,0,0,1,0,1,0,,,,,,,,,,,,,,,,,,,,,,,,,,,,,,,,,,,,,,,,,,,,,,,,,,,,,,,,,,,,,,,,30,,,,,,,,964.0778999999166,964.0778999999166,964.0778999999166,964.0778999999166,964.0778999999166,,,,,down,0.42180560005363077,0,0,0,99,-0.16,-0.16,down,0.3344597000395879,,,,,,,,,,,,,,,,,,,,,,,,,,,,,,,,,,,,,,,,,,,,,,,,,,,,,,,,Z02122,train_x,blue_star,top_left,2025-06-21_10h19.10.803,HideSeek_v1,2022.2.5,59.93831150851034,
,0,5,0,1,0,-4,65,,train_dim1_2,1,30,,,,5,0,5,0,,,,,,,,,0,0,0,0,0,0,0,0,2,0,2,0,,,,,,,,,,,,,,,,,,,,,,,,,,,,,,,,,,,,,,,,,,,,,,,,,,,,,,,,,,,,,,,,30,,,,,,,,964.5062847000081,964.5062847000081,964.5062847000081,964.5062847000081,964.5062847000081,,,,,down,0.4430695000337437,0,0,0,99,-0.16,-0.24,down,0.35713139991275966,,,,,,,,,,,,,,,,,,,,,,,,,,,,,,,,,,,,,,,,,,,,,,,,,,,,,,,,Z02122,train_x,blue_star,top_left,2025-06-21_10h19.10.803,HideSeek_v1,2022.2.5,59.93831150851034,
,0,5,0,1,0,-4,65,,train_dim1_2,1,30,,,,5,0,5,0,,,,,,,,,0,0,0,0,0,0,0,0,3,0,3,0,,,,,,,,,,,,,,,,,,,,,,,,,,,,,,,,,,,,,,,,,,,,,,,,,,,,,,,,,,,,,,,,30,,,,,,,,964.955401299987,964.955401299987,964.955401299987,964.955401299987,964.955401299987,,,,,down,0.44350140006281435,0,0,0,99,-0.16,-0.32,down,0.37196239992044866,,,,,,,,,,,,,,,,,,,,,,,,,,,,,,,,,,,,,,,,,,,,,,,,,,,,,,,,Z02122,train_x,blue_star,top_left,2025-06-21_10h19.10.803,HideSeek_v1,2022.2.5,59.93831150851034,
,0,5,0,1,0,-4,65,,train_dim1_2,1,30,,,,5,0,5,0,,,,,,,,,0,0,0,0,0,0,0,0,4,0,4,0,,,,,,,,,,,,,,,,,,,,,,,,,,,,,,,,,,,,,,,,,,,,,,,,,,,,,,,,,,,,,,,,30,,,,,,,,965.4069512999849,965.4069512999849,965.4069512999849,965.4069512999849,965.4069512999849,,,,,down,0.41030890005640686,0,0,0,99,-0.16,-0.4,down,0.3351955999387428,,,,,,,,,,,,,,,,,,,,,,,,,,,,,,,,,,,,,,,,,,,,,,,,,,,,,,,,Z02122,train_x,blue_star,top_left,2025-06-21_10h19.10.803,HideSeek_v1,2022.2.5,59.93831150851034,
,0,5,0,1,0,-4,65,,train_dim1_2,1,30,,,,5,0,5,0,,,,,,,,,0,0,0,0,0,0,0,0,5,0,5,0,,,,,,,,,,,,,,,,,,,,,,,,,,,,,,,,,,,,,,,,,,,,,,,,,,,,,,,,,,,,,,,,30,,,,,,,,965.8232960000169,965.8232960000169,965.8232960000169,965.8232960000169,965.8232960000169,-18,72,-0.16,-0.4,return,1.1437653000466526,0,1,0,0,-0.16,-0.4,return,1.0579354000510648,,,,,,,,,,,,,,,,,,,,,,,,,,,,,,,,,,,,,,,,,,,,,,,,,,,,,,,,Z02122,train_x,blue_star,top_left,2025-06-21_10h19.10.803,HideSeek_v1,2022.2.5,59.93831150851034,
,3,7,3,2,0,-5,66,,train_dim1_2,2,30,,,,5,0,5,0,,,,,,,,,0,0,0,0,0,1,1,1,0,0,0,0,,,,,,,,,,,,,,,,,,,,,,,,,stimuli/alien_stimuli/66.png,,,,,,,,,,,,,,,,,,,,,,,,,,,,,stimuli/alien_stimuli/65.png,65,0,3,,,,,,,30,,,,,,,,983.379792099935,983.379792099935,983.379792099935,983.379792099935,983.379792099935,,,,,right,15.532058199984021,0,1,0,99,0.16,0.16,right,15.433894300018437,981.8078636999708,-0.16,-0.32,0.32,0.0,-0.16,-0.16,-0.16,-0.16,-0.32,968.557043400011,968.557043400011,968.557043400011,968.557043400011,968.557043400011,968.557043400011,968.557043400011,968.557043400011,968.5468374999938,13.38008420006372,return,13.22786979994271,983.379792099935,,,,,,,,,,,,,,,,,,,,,,,,,,,,,,,,,Z02122,train_x,blue_star,top_left,2025-06-21_10h19.10.803,HideSeek_v1,2022.2.5,59.93831150851034,
,3,7,3,2,0,-5,66,,train_dim1_2,2,30,,,,5,0,5,0,,,,,,,,,0,0,0,0,0,1,1,1,1,0,1,0,,,,,,,,,,,,,,,,,,,,,,,,,,,,,,,,,,,,,,,,,,,,,,,,,,,,,,,,,,,,,,,,30,,,,,,,,998.9251168000046,998.9251168000046,998.9251168000046,998.9251168000046,998.9251168000046,,,,,left,0.5541711999103427,0,1,0,99,0.08,0.16,left,0.46507289994042367,,,,,,,,,,,,,,,,,,,,,,,,,,,,,,,,,,,,,,,,,,,,,,,,,,,,,,,,Z02122,train_x,blue_star,top_left,2025-06-21_10h19.10.803,HideSeek_v1,2022.2.5,59.93831150851034,
