trialInstr,x_fixStart,y_fixStart,x_corrSteps,y_corrSteps,x_nrSteps,y_nrSteps,alienID,trialLength,version,trialTrain,praclen,testlen,trial_label,break_on_off,beforeExpLoop.thisRepN,beforeExpLoop.thisTrialN,beforeExpLoop.thisN,beforeExpLoop.thisIndex,mini_instr_trials.thisRepN,mini_instr_trials.thisTrialN,mini_instr_trials.thisN,mini_instr_trials.thisIndex,instrLoop.thisRepN,instrLoop.thisTrialN,instrLoop.thisN,instrLoop.thisIndex,repeat_prac.thisRepN,repeat_prac.thisTrialN,repeat_prac.thisN,repeat_prac.thisIndex,trainLoop.thisRepN,trainLoop.thisTrialN,trainLoop.thisN,trainLoop.thisIndex,moveLoop_train.thisRepN,moveLoop_train.thisTrialN,moveLoop_train.thisN,moveLoop_train.thisIndex,experiment.thisRepN,experiment.thisTrialN,experiment.thisN,experiment.thisIndex,moveLoop_test.thisRepN,moveLoop_test.thisTrialN,moveLoop_test.thisN,moveLoop_test.thisIndex,mini_instr2_trials.thisRepN,mini_instr2_trials.thisTrialN,mini_instr2_trials.thisN,mini_instr2_trials.thisIndex,start_all_time,url,slideStim,audioStim,slides.started,sounds.started,nextButton.numClicks,nextButton.timesOn,nextButton.timesOff,prev_but.numClicks,prev_but.timesOn,prev_but.timesOff,alienStim,instrFile,alienStim_instr,gridImage_instr.started,startPos_3.started,key_instr.started,alienImage_3.started,sounds_1.started,key_instr.keys,key_instr.rt,all_x,all_y,FBy_corrSteps,FBy_fixStart,FBx_corrSteps,FBx_fixStart,FBy_pathSize_check,FBx_pathSize_check,gridImage_9.started,alienImageFB_3.started,startPosFB_3.started,keyFB_3.started,pathLine_ydir_2.started,pathLine_xdir_2.started,alienFace_3.started,sounds_2.started,RTFB_instr,keyFB_3.keys,keyFB_3.rt,draw_alienStim,draw_alienID,test_x,nrepcount,perfthres,percthres,earlierperf,earlystop,nextPrac,fileidx,praclen,saveACC_train,pracFile,nextPrac_train,addNrep,fileidx_endr,repExp,showearly,gridImage_4.started,startPos.started,movePos.started,key_resp.started,alienImage.started,wLy_dir,wLx_dir,x_movePos,y_movePos,buttonPress_train,RTchoice_train,cumAcctrain,aCorr,saveACC_choice,corrAns,x_movePos_end,y_movePos_end,key_resp.keys,key_resp.rt,text_2.started,aft_x_corrPos,aft_y_corrPos,y_pathSize_check,x_pathSize_check,y_pathdirY,x_pathdirY,x_pathdirX,x_corrPos,y_corrPos,gridImage_6.started,alienImageFB_2.started,startPosFB_2.started,movePosFB_2.started,keyFB_2.started,pathLine_xdir.started,pathLine_ydir.started,alienFace.started,sounds_4.started,RT_FBtrain,keyFB_2.keys,keyFB_2.rt,text_2.stopped,saveACC_pre,ACC,within_saveACC_train,earlystop_wloop,cumAcctrain_check,gridImage_3.started,alienImage_test.started,startPos_test.started,movePos_test.started,key_resp_test.started,wLy_dir_test,wLx_dir_test,buttonPress_test,RTchoice_test,cumAcctest,corrAns_test,key_resp_test.keys,key_resp_test.rt,text_3.started,text_3.stopped,total_time,end_all_time,key_resp_3.keys,slides_2.started,sounds_3.started,nextButton_2.numClicks,nextButton_2.timesOn,nextButton_2.timesOff,prev_but_2.numClicks,prev_but_2.timesOn,prev_but_2.timesOff,bye.started,participant,train_first,00_coordinate,starting corner,date,expName,psychopyVersion,frameRate,
,,,,,,,,,,,,,,,0,0,0,0,0,0,0,0,,,,,,,,,,,,,,,,,,,,,,,,,,,,,start_all_time,testround,conditions/schedules/train_y_first/red_square_00/top_left/instructions/Slide1.png,conditions/schedules/train_y_first/red_square_00/top_left/instructions/Audio1.wav,1389.7379552000202,1389.6825048694618,1,[6.360839299857616],[6.360846499912441],0,,,,,,,,,,,,,,,,,,,,,,,,,,,,,,,,,,,,,,,,,,,,,,,,,,,,,,,,,,,,,,,,,,,,,,,,,,,,,,,,,,,,,,,,,,,,,,,,,,,,,,,,,,,,,,,,,,,,,,,,,,,,Z5MTJN,train_y,red_square,top_left,2025-07-24_17h36.14.515,HideSeek_v1,2022.2.5,60.36223381086932,
,,,,,,,,,,,,,,,0,0,0,0,1,0,1,0,,,,,,,,,,,,,,,,,,,,,,,,,,,,,,,conditions/schedules/train_y_first/red_square_00/top_left/instructions/Slide2.png,conditions/schedules/train_y_first/red_square_00/top_left/instructions/Audio2.wav,1396.1225750001613,1396.1211889501428,2,"[6.360839299857616, 17.699039400089532]","[0.014515000162646174, 17.699046300025657]",0,,,,,,,,,,,,,,,,,,,,,,,,,,,,,,,,,,,,,,,,,,,,,,,,,,,,,,,,,,,,,,,,,,,,,,,,,,,,,,,,,,,,,,,,,,,,,,,,,,,,,,,,,,,,,,,,,,,,,,,,,,,,Z5MTJN,train_y,red_square,top_left,2025-07-24_17h36.14.515,HideSeek_v1,2022.2.5,60.36223381086932,
,,,,,,,,,,,,,,,0,0,0,0,2,0,2,0,,,,,,,,,,,,,,,,,,,,,,,,,,,,,,,conditions/schedules/train_y_first/red_square_00/top_left/instructions/Slide3.png,conditions/schedules/train_y_first/red_square_00/top_left/instructions/Audio3.wav,1413.8856921000406,1413.8734870400278,3,"[6.360839299857616, 17.699039400089532, 16.004241399932653]","[0.014515000162646174, 0.01431649993173778, 16.0042484998703]",0,,,,,,,,,,,,,,,,,,,,,,,,,,,,,,,,,,,,,,,,,,,,,,,,,,,,,,,,,,,,,,,,,,,,,,,,,,,,,,,,,,,,,,,,,,,,,,,,,,,,,,,,,,,,,,,,,,,,,,,,,,,,Z5MTJN,train_y,red_square,top_left,2025-07-24_17h36.14.515,HideSeek_v1,2022.2.5,60.36223381086932,
,,,,,,,,,,,,,,,0,0,0,0,3,0,3,0,,,,,,,,,,,,,,,,,,,,,,,,,,,,,,,conditions/schedules/train_y_first/red_square_00/top_left/instructions/Slide4.png,conditions/schedules/train_y_first/red_square_00/top_left/instructions/Audio4.wav,1429.9665736001916,1429.9585685500642,4,"[6.360839299857616, 17.699039400089532, 16.004241399932653, 19.14737350004725]","[0.014515000162646174, 0.01431649993173778, 0.052656699903309345, 19.147380100097507]",0,,,,,,,,,,,,,,,,,,,,,,,,,,,,,,,,,,,,,,,,,,,,,,,,,,,,,,,,,,,,,,,,,,,,,,,,,,,,,,,,,,,,,,,,,,,,,,,,,,,,,,,,,,,,,,,,,,,,,,,,,,,,Z5MTJN,train_y,red_square,top_left,2025-07-24_17h36.14.515,HideSeek_v1,2022.2.5,60.36223381086932,
,,,,,,,,,,,,,,,0,0,0,0,4,0,4,0,,,,,,,,,,,,,,,,,,,,,,,,,,,,,,,conditions/schedules/train_y_first/red_square_00/top_left/instructions/Slide5.png,conditions/schedules/train_y_first/red_square_00/top_left/instructions/Audio5.wav,1449.1831678000744,1449.1822412501788,5,"[6.360839299857616, 17.699039400089532, 16.004241399932653, 19.14737350004725, 4.165281600086018]","[0.014515000162646174, 0.01431649993173778, 0.052656699903309345, 0.00023280014283955097, 4.16528860013932]",0,,,,,,,,,,,,,,,,,,,,,,,,,,,,,,,,,,,,,,,,,,,,,,,,,,,,,,,,,,,,,,,,,,,,,,,,,,,,,,,,,,,,,,,,,,,,,,,,,,,,,,,,,,,,,,,,,,,,,,,,,,,,Z5MTJN,train_y,red_square,top_left,2025-07-24_17h36.14.515,HideSeek_v1,2022.2.5,60.36223381086932,
,,,,,,,,,,,,,,,0,0,0,0,5,0,5,0,,,,,,,,,,,,,,,,,,,,,,,,,,,,,,,conditions/schedules/train_y_first/red_square_00/top_left/instructions/Slide6.png,conditions/schedules/train_y_first/red_square_00/top_left/instructions/Audio6.wav,1453.3975831000134,1453.3842619301984,6,"[6.360839299857616, 17.699039400089532, 16.004241399932653, 19.14737350004725, 4.165281600086018, 4.907242499990389]","[0.014515000162646174, 0.01431649993173778, 0.052656699903309345, 0.00023280014283955097, 0.07322899997234344, 4.90724950004369]",0,,,,,,,,,,,,,,,,,,,,,,,,,,,,,,,,,,,,,,,,,,,,,,,,,,,,,,,,,,,,,,,,,,,,,,,,,,,,,,,,,,,,,,,,,,,,,,,,,,,,,,,,,,,,,,,,,,,,,,,,,,,,Z5MTJN,train_y,red_square,top_left,2025-07-24_17h36.14.515,HideSeek_v1,2022.2.5,60.36223381086932,
,,,,,,,,,,,,,,,0,0,0,0,6,0,6,0,,,,,,,,,,,,,,,,,,,,,,,,,,,,,,,conditions/schedules/train_y_first/red_square_00/top_left/instructions/Slide7.png,conditions/schedules/train_y_first/red_square_00/top_left/instructions/Audio7.wav,1458.3533280000556,1458.3400545300217,7,"[6.360839299857616, 17.699039400089532, 16.004241399932653, 19.14737350004725, 4.165281600086018, 4.907242499990389, 5.406047499971464]","[0.014515000162646174, 0.01431649993173778, 0.052656699903309345, 0.00023280014283955097, 0.07322899997234344, 0.08840829995460808, 5.4060533998999745]",0,,,,,,,,,,,,,,,,,,,,,,,,,,,,,,,,,,,,,,,,,,,,,,,,,,,,,,,,,,,,,,,,,,,,,,,,,,,,,,,,,,,,,,,,,,,,,,,,,,,,,,,,,,,,,,,,,,,,,,,,,,,,Z5MTJN,train_y,red_square,top_left,2025-07-24_17h36.14.515,HideSeek_v1,2022.2.5,60.36223381086932,
,,,,,,,,,,,,,,,0,0,0,0,7,0,7,0,,,,,,,,,,,,,,,,,,,,,,,,,,,,,,,conditions/schedules/train_y_first/red_square_00/top_left/instructions/Slide8.png,conditions/schedules/train_y_first/red_square_00/top_left/instructions/Audio8.wav,1463.810602400219,1463.8117639400064,8,"[6.360839299857616, 17.699039400089532, 16.004241399932653, 19.14737350004725, 4.165281600086018, 4.907242499990389, 5.406047499971464, 11.095366599969566]","[0.014515000162646174, 0.01431649993173778, 0.052656699903309345, 0.00023280014283955097, 0.07322899997234344, 0.08840829995460808, 0.06971209985204041, 11.095378899946809]",0,,,,,,,,,,,,,,,,,,,,,,,,,,,,,,,,,,,,,,,,,,,,,,,,,,,,,,,,,,,,,,,,,,,,,,,,,,,,,,,,,,,,,,,,,,,,,,,,,,,,,,,,,,,,,,,,,,,,,,,,,,,,Z5MTJN,train_y,red_square,top_left,2025-07-24_17h36.14.515,HideSeek_v1,2022.2.5,60.36223381086932,
,,,,,,,,,,,,,,,0,0,0,0,8,0,8,0,,,,,,,,,,,,,,,,,,,,,,,,,,,,,,,conditions/schedules/train_y_first/red_square_00/top_left/instructions/Slide9.png,conditions/schedules/train_y_first/red_square_00/top_left/instructions/Audio9.wav,1474.9703865000047,1474.957794440072,9,"[6.360839299857616, 17.699039400089532, 16.004241399932653, 19.14737350004725, 4.165281600086018, 4.907242499990389, 5.406047499971464, 11.095366599969566, 6.406678100116551]","[0.014515000162646174, 0.01431649993173778, 0.052656699903309345, 0.00023280014283955097, 0.07322899997234344, 0.08840829995460808, 0.06971209985204041, 0.014246399980038404, 6.4066849001683295]",0,,,,,,,,,,,,,,,,,,,,,,,,,,,,,,,,,,,,,,,,,,,,,,,,,,,,,,,,,,,,,,,,,,,,,,,,,,,,,,,,,,,,,,,,,,,,,,,,,,,,,,,,,,,,,,,,,,,,,,,,,,,,Z5MTJN,train_y,red_square,top_left,2025-07-24_17h36.14.515,HideSeek_v1,2022.2.5,60.36223381086932,
,,,,,,,,,,,,,,,0,0,0,0,9,0,9,0,,,,,,,,,,,,,,,,,,,,,,,,,,,,,,,conditions/schedules/train_y_first/red_square_00/top_left/instructions/Slide10.png,conditions/schedules/train_y_first/red_square_00/top_left/instructions/Audio10.wav,1481.412492700154,1481.4127479301067,10,"[6.360839299857616, 17.699039400089532, 16.004241399932653, 19.14737350004725, 4.165281600086018, 4.907242499990389, 5.406047499971464, 11.095366599969566, 6.406678100116551, 6.585834000026807]","[0.014515000162646174, 0.01431649993173778, 0.052656699903309345, 0.00023280014283955097, 0.07322899997234344, 0.08840829995460808, 0.06971209985204041, 0.014246399980038404, 0.03616190003231168, 6.585840300191194]",0,,,,,,,,,,,,,,,,,,,,,,,,,,,,,,,,,,,,,,,,,,,,,,,,,,,,,,,,,,,,,,,,,,,,,,,,,,,,,,,,,,,,,,,,,,,,,,,,,,,,,,,,,,,,,,,,,,,,,,,,,,,,Z5MTJN,train_y,red_square,top_left,2025-07-24_17h36.14.515,HideSeek_v1,2022.2.5,60.36223381086932,
,,,,,,,,,,,,,,,0,0,0,0,10,0,10,0,,,,,,,,,,,,,,,,,,,,,,,,,,,,,,,conditions/schedules/train_y_first/red_square_00/top_left/instructions/Slide11.png,conditions/schedules/train_y_first/red_square_00/top_left/instructions/Audio11.wav,1488.0359270002227,1488.0345787301892,11,"[6.360839299857616, 17.699039400089532, 16.004241399932653, 19.14737350004725, 4.165281600086018, 4.907242499990389, 5.406047499971464, 11.095366599969566, 6.406678100116551, 6.585834000026807, 10.150853999890387]","[0.014515000162646174, 0.01431649993173778, 0.052656699903309345, 0.00023280014283955097, 0.07322899997234344, 0.08840829995460808, 0.06971209985204041, 0.014246399980038404, 0.03616190003231168, 0.01392679987475276, 10.150860500056297]",0,,,,,,,,,,,,,,,,,,,,,,,,,,,,,,,,,,,,,,,,,,,,,,,,,,,,,,,,,,,,,,,,,,,,,,,,,,,,,,,,,,,,,,,,,,,,,,,,,,,,,,,,,,,,,,,,,,,,,,,,,,,,Z5MTJN,train_y,red_square,top_left,2025-07-24_17h36.14.515,HideSeek_v1,2022.2.5,60.36223381086932,
,,,,,,,,,,,,,,,0,0,0,0,11,0,11,0,,,,,,,,,,,,,,,,,,,,,,,,,,,,,,,conditions/schedules/train_y_first/red_square_00/top_left/instructions/Slide12.png,conditions/schedules/train_y_first/red_square_00/top_left/instructions/Audio12.wav,1498.2568877001759,1498.2557974500814,12,"[6.360839299857616, 17.699039400089532, 16.004241399932653, 19.14737350004725, 4.165281600086018, 4.907242499990389, 5.406047499971464, 11.095366599969566, 6.406678100116551, 6.585834000026807, 10.150853999890387, 13.762754499912262]","[0.014515000162646174, 0.01431649993173778, 0.052656699903309345, 0.00023280014283955097, 0.07322899997234344, 0.08840829995460808, 0.06971209985204041, 0.014246399980038404, 0.03616190003231168, 0.01392679987475276, 0.00020750006660819054, 13.762761400081217]",0,,,,,,,,,,,,,,,,,,,,,,,,,,,,,,,,,,,,,,,,,,,,,,,,,,,,,,,,,,,,,,,,,,,,,,,,,,,,,,,,,,,,,,,,,,,,,,,,,,,,,,,,,,,,,,,,,,,,,,,,,,,,Z5MTJN,train_y,red_square,top_left,2025-07-24_17h36.14.515,HideSeek_v1,2022.2.5,60.36223381086932,
1,2,8,2,3,0,-5,11,2,instr_dim1_1,,,,,,0,0,0,0,,,,,0,0,0,0,,,,,,,,,,,,,,,,,,,,,,,,,,,,,,,,,,,,,stimuli/alien_stimuli/11.png,conditions/schedules/train_y_first/red_square_00/top_left/inputInstr_1.xlsx,stimuli/alien_stimuli/11.png,1512.1170235001482,1512.1170235001482,1512.1170235001482,1512.1170235001482,1512.104951860057,return,7.319037799956277,"[-0.16, -0.08, 0, 0.08, 0.16, 0.24, 0.32, 0.4, 0.48, 0.56]","[-0.4, -0.32, -0.24, -0.16, -0.08, 0, 0.08, 0.16, 0.24, 0.32]",3,8,2,2,0.4,0.0,1519.5912731001154,1519.5912731001154,1519.5912731001154,1519.5912731001154,1519.5912731001154,1519.5912731001154,1519.5912731001154,1519.588896690146,9.547173600178212,return,9.391331999795511,stimuli/alien_stimuli/11.png,11,2,1,,,,,,,,,,,,,,,,,,,,,,,,,,,,,,,,,,,,,,,,,,,,,,,,,,,,,,,,,,,,,,,,,,,,,,,,,,,,,,,,,,,,,,,,,Z5MTJN,train_y,red_square,top_left,2025-07-24_17h36.14.515,HideSeek_v1,2022.2.5,60.36223381086932,
,,,,,,,,,,,30,,,,0,0,0,0,,,,,,,,,,,,,,,,,,,,,,,,,,,,,,,,,,,,,,,,,,,,,,,,,,,,,,,,,,,,,,,,,,,,,,,,,,,,,,21,0.7,0,0,99,1,30,0,conditions/schedules/train_y_first/red_square_00/top_left/inputTrain_1.1.xlsx,99,1,1,1,0,,,,,,,,,,,,,,,,,,,,,,,,,,,,,,,,,,,,,,,,,,,,,,,,,,,,,,,,,,,,,,,,,,,,,,,,,,,Z5MTJN,train_y,red_square,top_left,2025-07-24_17h36.14.515,HideSeek_v1,2022.2.5,60.36223381086932,
,,,,,,,,,,,,,,,1,0,1,0,0,0,0,0,,,,,,,,,,,,,,,,,,,,,,,,,,,,,,,conditions/schedules/train_y_first/red_square_00/top_left/instructions/Slide13.png,conditions/schedules/train_y_first/red_square_00/top_left/instructions/Audio13.wav,1529.1340807001106,1529.1346525901229,13,"[6.360839299857616, 17.699039400089532, 16.004241399932653, 19.14737350004725, 4.165281600086018, 4.907242499990389, 5.406047499971464, 11.095366599969566, 6.406678100116551, 6.585834000026807, 10.150853999890387, 13.762754499912262, 17.313454600051045]","[0.014515000162646174, 0.01431649993173778, 0.052656699903309345, 0.00023280014283955097, 0.07322899997234344, 0.08840829995460808, 0.06971209985204041, 0.014246399980038404, 0.03616190003231168, 0.01392679987475276, 0.00020750006660819054, 13.762761400081217, 17.313461599871516]",0,,,,,,,,,,,,,,,,,,,,,,,,,,,,,,,,,,,,,,,,,,,,,,,,,,,,,,,,,,,,,,,,,,,,,,,,,,,,,,,,,,,,,,,,,,,,,,,,,,,,,,,,,,,,,,,,,,,,,,,,,,,,Z5MTJN,train_y,red_square,top_left,2025-07-24_17h36.14.515,HideSeek_v1,2022.2.5,60.36223381086932,
,,,,,,,,,,,,,,,1,0,1,0,1,0,1,0,,,,,,,,,,,,,,,,,,,,,,,,,,,,,,,conditions/schedules/train_y_first/red_square_00/top_left/instructions/Slide14.png,conditions/schedules/train_y_first/red_square_00/top_left/instructions/Audio14.wav,1546.511804800015,1546.5003194400108,14,"[6.360839299857616, 17.699039400089532, 16.004241399932653, 19.14737350004725, 4.165281600086018, 4.907242499990389, 5.406047499971464, 11.095366599969566, 6.406678100116551, 6.585834000026807, 10.150853999890387, 13.762754499912262, 17.313454600051045, 16.315365500049666]","[0.014515000162646174, 0.01431649993173778, 0.052656699903309345, 0.00023280014283955097, 0.07322899997234344, 0.08840829995460808, 0.06971209985204041, 0.014246399980038404, 0.03616190003231168, 0.01392679987475276, 0.00020750006660819054, 13.762761400081217, 0.03306609997525811, 16.315372300101444]",0,,,,,,,,,,,,,,,,,,,,,,,,,,,,,,,,,,,,,,,,,,,,,,,,,,,,,,,,,,,,,,,,,,,,,,,,,,,,,,,,,,,,,,,,,,,,,,,,,,,,,,,,,,,,,,,,,,,,,,,,,,,,Z5MTJN,train_y,red_square,top_left,2025-07-24_17h36.14.515,HideSeek_v1,2022.2.5,60.36223381086932,
2,0,8,0,8,0,0,16,2,instr_dim1_1,,,,,,1,0,1,0,,,,,0,0,0,0,,,,,,,,,,,,,,,,,,,,,,,,,,,,,,,,,,,,,stimuli/alien_stimuli/16.png,conditions/schedules/train_y_first/red_square_00/top_left/inputInstr_1.xlsx,stimuli/alien_stimuli/16.png,1562.9241515002213,1562.9241515002213,1562.9241515002213,1562.9241515002213,1562.9293836701427,return,6.780370899708942,"[-0.16, -0.08, 0, 0.08, 0.16, 0.24, 0.32, 0.4, 0.48, 0.56]","[-0.4, -0.32, -0.24, -0.16, -0.08, 0, 0.08, 0.16, 0.24, 0.32]",8,8,0,0,0.0,0.0,1569.865002000006,1569.865002000006,1569.865002000006,1569.865002000006,1569.865002000006,1569.865002000006,1569.865002000006,1569.8640144900185,9.647909800056368,return,9.48643729975447,stimuli/alien_stimuli/16.png,16,0,2,,,,,,,,,,,,,,,,,,,,,,,,,,,,,,,,,,,,,,,,,,,,,,,,,,,,,,,,,,,,,,,,,,,,,,,,,,,,,,,,,,,,,,,,,Z5MTJN,train_y,red_square,top_left,2025-07-24_17h36.14.515,HideSeek_v1,2022.2.5,60.36223381086932,
,,,,,,,,,,,30,,,,1,0,1,0,,,,,,,,,,,,,,,,,,,,,,,,,,,,,,,,,,,,,,,,,,,,,,,,,,,,,,,,,,,,,,,,,,,,,,,,,,,,,,21,0.7,0,0,99,1,30,0,conditions/schedules/train_y_first/red_square_00/top_left/inputTrain_1.1.xlsx,99,1,1,1,0,,,,,,,,,,,,,,,,,,,,,,,,,,,,,,,,,,,,,,,,,,,,,,,,,,,,,,,,,,,,,,,,,,,,,,,,,,,Z5MTJN,train_y,red_square,top_left,2025-07-24_17h36.14.515,HideSeek_v1,2022.2.5,60.36223381086932,
,,,,,,,,,,,,,,,2,0,2,0,0,0,0,0,,,,,,,,,,,,,,,,,,,,,,,,,,,,,,,conditions/schedules/train_y_first/red_square_00/top_left/instructions/Slide15.png,conditions/schedules/train_y_first/red_square_00/top_left/instructions/Audio15.wav,1579.5306931000669,1579.5274391002022,15,"[6.360839299857616, 17.699039400089532, 16.004241399932653, 19.14737350004725, 4.165281600086018, 4.907242499990389, 5.406047499971464, 11.095366599969566, 6.406678100116551, 6.585834000026807, 10.150853999890387, 13.762754499912262, 17.313454600051045, 16.315365500049666, 43.919786900049075]","[0.014515000162646174, 0.01431649993173778, 0.052656699903309345, 0.00023280014283955097, 0.07322899997234344, 0.08840829995460808, 0.06971209985204041, 0.014246399980038404, 0.03616190003231168, 0.01392679987475276, 0.00020750006660819054, 13.762761400081217, 0.03306609997525811, 16.315372300101444, 43.9197941001039]",0,,,,,,,,,,,,,,,,,,,,,,,,,,,,,,,,,,,,,,,,,,,,,,,,,,,,,,,,,,,,,,,,,,,,,,,,,,,,,,,,,,,,,,,,,,,,,,,,,,,,,,,,,,,,,,,,,,,,,,,,,,,,Z5MTJN,train_y,red_square,top_left,2025-07-24_17h36.14.515,HideSeek_v1,2022.2.5,60.36223381086932,
,,,,,,,,,,,,,,,2,0,2,0,1,0,1,0,,,,,,,,,,,,,,,,,,,,,,,,,,,,,,,conditions/schedules/train_y_first/red_square_00/top_left/instructions/Slide16.png,conditions/schedules/train_y_first/red_square_00/top_left/instructions/Audio16.wav,1623.5200331001543,1623.5193438500864,16,"[6.360839299857616, 17.699039400089532, 16.004241399932653, 19.14737350004725, 4.165281600086018, 4.907242499990389, 5.406047499971464, 11.095366599969566, 6.406678100116551, 6.585834000026807, 10.150853999890387, 13.762754499912262, 17.313454600051045, 16.315365500049666, 43.919786900049075, 22.777461899910122]","[0.014515000162646174, 0.01431649993173778, 0.052656699903309345, 0.00023280014283955097, 0.07322899997234344, 0.08840829995460808, 0.06971209985204041, 0.014246399980038404, 0.03616190003231168, 0.01392679987475276, 0.00020750006660819054, 13.762761400081217, 0.03306609997525811, 16.315372300101444, 0.07507529994472861, 22.7774686999619]",0,,,,,,,,,,,,,,,,,,,,,,,,,,,,,,,,,,,,,,,,,,,,,,,,,,,,,,,,,,,,,,,,,,,,,,,,,,,,,,,,,,,,,,,,,,,,,,,,,,,,,,,,,,,,,,,,,,,,,,,,,,,,Z5MTJN,train_y,red_square,top_left,2025-07-24_17h36.14.515,HideSeek_v1,2022.2.5,60.36223381086932,
,0,5,0,4,0,-1,15,,train_dim1_1,1,30,,,,2,0,2,0,,,,,,,,,0,0,0,0,0,0,0,0,0,0,0,0,,,,,,,,,,,,,,,,,,,,,,,,,stimuli/alien_stimuli/15.png,,,,,,,,,,,,,,,,,,,,,,,,,,,,,,,,,,,,,,,30,,,,,,,,1646.401218000101,1646.401218000101,1646.401218000101,1646.401218000101,1646.401218000101,0,0,-0.16,0,return,7.246722200186923,0,1,0,0,-0.16,0,return,7.142614800017327,,,,,,,,,,,,,,,,,,,,,,,,,,,,,,,,,,,,,,,,,,,,,,,,,,,,,,,,Z5MTJN,train_y,red_square,top_left,2025-07-24_17h36.14.515,HideSeek_v1,2022.2.5,60.36223381086932,
,3,7,3,7,0,0,16,,train_dim1_1,2,30,,,,2,0,2,0,,,,,,,,,0,0,0,0,0,1,1,1,0,0,0,0,,,,,,,,,,,,,,,,,,,,,,,,,stimuli/alien_stimuli/16.png,,,,,,,,,,,,,,,,,,,,,,,,,,,,,stimuli/alien_stimuli/15.png,15,0,3,,,,,,,30,,,,,,,,1690.2446718001738,1690.2446718001738,1690.2446718001738,1690.2446718001738,1690.2446718001738,,,,,down,8.410539200063795,0,1,0,99,0.08,0.08,down,8.313545000040904,1688.680018100189,-0.16,-0.08,0.08,0.0,-0.04,-0.16,-0.16,-0.16,-0.08,1655.23032660014,1655.23032660014,1655.23032660014,1655.23032660014,1655.23032660014,1655.23032660014,1655.23032660014,1655.23032660014,1655.218417980196,33.574765500146896,return,33.41414219979197,,,,,,,,,,,,,,,,,,,,,,,,,,,,,,,,,,Z5MTJN,train_y,red_square,top_left,2025-07-24_17h36.14.515,HideSeek_v1,2022.2.5,60.36223381086932,
,3,7,3,7,0,0,16,,train_dim1_1,2,30,,,,2,0,2,0,,,,,,,,,0,0,0,0,0,1,1,1,1,0,1,0,,,,,,,,,,,,,,,,,,,,,,,,,,,,,,,,,,,,,,,,,,,,,,,,,,,,,,,,,,,,,,,,30,,,,,,,,1698.6568498001434,1698.6568498001434,1698.6568498001434,1698.6568498001434,1698.6568498001434,-1,0,0.08,0.08,return,1.0765901999548078,0,1,0,0,0.08,0.08,return,0.9971604999154806,,,,,,,,,,,,,,,,,,,,,,,,,,,,,,,,,,,,,,,,,,,,,,,,,,,,,,,,Z5MTJN,train_y,red_square,top_left,2025-07-24_17h36.14.515,HideSeek_v1,2022.2.5,60.36223381086932,
,2,8,2,5,0,-3,13,,train_dim1_1,3,30,,,,2,0,2,0,,,,,,,,,0,0,0,0,0,2,2,2,0,0,0,0,,,,,,,,,,,,,,,,,,,,,,,,,stimuli/alien_stimuli/13.png,,,,,,,,,,,,,,,,,,,,,,,,,,,,,stimuli/alien_stimuli/16.png,16,3,4,,,,,,,30,,,,,,,,1713.6458946000785,1713.6458946000785,1713.6458946000785,1713.6458946000785,1713.6458946000785,,,,,down,4.123528799973428,0,1,0,99,0,0.15999999999999998,down,4.0157431999687105,1712.0661610001698,0.08,0.16,0.0,0.0,0.16,0.08,0.08,0.08,0.16,1701.3054978,1701.3054978,1701.3054978,1701.3054978,1701.3054978,1701.3054978,1701.3054978,1701.3054978,1701.3069934800267,10.871543099870905,return,10.723843699786812,1701.3054978,,,,,,,,,,,,,,,,,,,,,,,,,,,,,,,,,Z5MTJN,train_y,red_square,top_left,2025-07-24_17h36.14.515,HideSeek_v1,2022.2.5,60.36223381086932,
,2,8,2,5,0,-3,13,,train_dim1_1,3,30,,,,2,0,2,0,,,,,,,,,0,0,0,0,0,2,2,2,1,0,1,0,,,,,,,,,,,,,,,,,,,,,,,,,,,,,,,,,,,,,,,,,,,,,,,,,,,,,,,,,,,,,,,,30,,,,,,,,1717.7564769000746,1717.7564769000746,1717.7564769000746,1717.7564769000746,1717.7564769000746,,,,,down,0.9432272000703961,0,1,0,99,0,0.07999999999999997,down,0.8626077997032553,,,,,,,,,,,,,,,,,,,,,,,,,,,,,,,,,,,,,,,,,,,,,,,,,,,,,,,,Z5MTJN,train_y,red_square,top_left,2025-07-24_17h36.14.515,HideSeek_v1,2022.2.5,60.36223381086932,
,2,8,2,5,0,-3,13,,train_dim1_1,3,30,,,,2,0,2,0,,,,,,,,,0,0,0,0,0,2,2,2,2,0,2,0,,,,,,,,,,,,,,,,,,,,,,,,,,,,,,,,,,,,,,,,,,,,,,,,,,,,,,,,,,,,,,,,30,,,,,,,,1718.705592500046,1718.705592500046,1718.705592500046,1718.705592500046,1718.705592500046,,,,,down,4.898657699814066,0,1,0,99,0,-2.7755575615628914e-17,down,4.81376829999499,,,,,,,,,,,,,,,,,,,,,,,,,,,,,,,,,,,,,,,,,,,,,,,,,,,,,,,,Z5MTJN,train_y,red_square,top_left,2025-07-24_17h36.14.515,HideSeek_v1,2022.2.5,60.36223381086932,
,2,8,2,5,0,-3,13,,train_dim1_1,3,30,,,,2,0,2,0,,,,,,,,,0,0,0,0,0,2,2,2,3,0,3,0,,,,,,,,,,,,,,,,,,,,,,,,,,,,,,,,,,,,,,,,,,,,,,,,,,,,,,,,,,,,,,,,30,,,,,,,,1723.614475700073,1723.614475700073,1723.614475700073,1723.614475700073,1723.614475700073,-4,0,0,-2.7755575615628914e-17,return,0.7893320999573916,1,0,0,1,0,-2.7755575615628914e-17,return,0.7048176997341216,,,,,,,,,,,,,,,,,,,,,,,,,,,,,,,,,,,,,,,,,,,,,,,,,,,,,,,,Z5MTJN,train_y,red_square,top_left,2025-07-24_17h36.14.515,HideSeek_v1,2022.2.5,60.36223381086932,
,0,6,0,2,0,-4,12,,train_dim1_1,4,30,,,,2,0,2,0,,,,,,,,,0,0,0,0,0,3,3,3,0,0,0,0,,,,,,,,,,,,,,,,,,,,,,,,,stimuli/alien_stimuli/12.png,,,,,,,,,,,,,,,,,,,,,,,,,,,,,stimuli/alien_stimuli/13.png,13,2,5,,,,,,,30,,,,,,,,1732.178664600011,1732.178664600011,1732.178664600011,1732.178664600011,1732.178664600011,,,,,right,3.7693818998523057,1,0,0,99,-0.08,0.08,right,3.679483499843627,1730.6087393001653,0,0,0.24,0.0,0.12,0,0.0,0,0,1725.9750487001147,1725.9750487001147,1725.9750487001147,1725.9750487001147,1725.9750487001147,1725.9750487001147,1725.9750487001147,1725.9750487001147,1725.9607828701146,4.744429799960926,return,4.601669799769297,1725.9750487001147,,,,,,,,,,,,,,,,,,,,,,,,,,,,,,,,,Z5MTJN,train_y,red_square,top_left,2025-07-24_17h36.14.515,HideSeek_v1,2022.2.5,60.36223381086932,
,0,6,0,2,0,-4,12,,train_dim1_1,4,30,,,,2,0,2,0,,,,,,,,,0,0,0,0,0,3,3,3,1,0,1,0,,,,,,,,,,,,,,,,,,,,,,,,,,,,,,,,,,,,,,,,,,,,,,,,,,,,,,,,,,,,,,,,30,,,,,,,,1735.9547612001188,1735.9547612001188,1735.9547612001188,1735.9547612001188,1735.9547612001188,,,,,right,0.5770666000898927,1,0,0,99,0.0,0.08,right,0.49472100008279085,,,,,,,,,,,,,,,,,,,,,,,,,,,,,,,,,,,,,,,,,,,,,,,,,,,,,,,,Z5MTJN,train_y,red_square,top_left,2025-07-24_17h36.14.515,HideSeek_v1,2022.2.5,60.36223381086932,
,0,6,0,2,0,-4,12,,train_dim1_1,4,30,,,,2,0,2,0,,,,,,,,,0,0,0,0,0,3,3,3,2,0,2,0,,,,,,,,,,,,,,,,,,,,,,,,,,,,,,,,,,,,,,,,,,,,,,,,,,,,,,,,,,,,,,,,30,,,,,,,,1736.540608700132,1736.540608700132,1736.540608700132,1736.540608700132,1736.540608700132,,,,,right,0.7917384000029415,1,0,0,99,0.08,0.08,right,0.7085903000552207,,,,,,,,,,,,,,,,,,,,,,,,,,,,,,,,,,,,,,,,,,,,,,,,,,,,,,,,Z5MTJN,train_y,red_square,top_left,2025-07-24_17h36.14.515,HideSeek_v1,2022.2.5,60.36223381086932,
,0,6,0,2,0,-4,12,,train_dim1_1,4,30,,,,2,0,2,0,,,,,,,,,0,0,0,0,0,3,3,3,3,0,3,0,,,,,,,,,,,,,,,,,,,,,,,,,,,,,,,,,,,,,,,,,,,,,,,,,,,,,,,,,,,,,,,,30,,,,,,,,1737.3385706001427,1737.3385706001427,1737.3385706001427,1737.3385706001427,1737.3385706001427,,,,,right,1.7281512999907136,1,0,0,99,0.16,0.08,right,1.6478450999129564,,,,,,,,,,,,,,,,,,,,,,,,,,,,,,,,,,,,,,,,,,,,,,,,,,,,,,,,Z5MTJN,train_y,red_square,top_left,2025-07-24_17h36.14.515,HideSeek_v1,2022.2.5,60.36223381086932,
,0,6,0,2,0,-4,12,,train_dim1_1,4,30,,,,2,0,2,0,,,,,,,,,0,0,0,0,0,3,3,3,4,0,4,0,,,,,,,,,,,,,,,,,,,,,,,,,,,,,,,,,,,,,,,,,,,,,,,,,,,,,,,,,,,,,,,,30,,,,,,,,1739.0743021001108,1739.0743021001108,1739.0743021001108,1739.0743021001108,1739.0743021001108,,,,,right,4.529350500088185,1,0,0,99,0.24,0.08,right,4.439192499732599,,,,,,,,,,,,,,,,,,,,,,,,,,,,,,,,,,,,,,,,,,,,,,,,,,,,,,,,Z5MTJN,train_y,red_square,top_left,2025-07-24_17h36.14.515,HideSeek_v1,2022.2.5,60.36223381086932,
,0,6,0,2,0,-4,12,,train_dim1_1,4,30,,,,2,0,2,0,,,,,,,,,0,0,0,0,0,3,3,3,5,0,5,0,,,,,,,,,,,,,,,,,,,,,,,,,,,,,,,,,,,,,,,,,,,,,,,,,,,,,,,,,,,,,,,,30,,,,,,,,1743.6115153001156,1743.6115153001156,1743.6115153001156,1743.6115153001156,1743.6115153001156,-4,5,0.24,0.08,return,1.8438195001799613,1,0,0,0,0.24,0.08,return,1.7618774997536093,,,,,,,,,,,,,,,,,,,,,,,,,,,,,,,,,,,,,,,,,,,,,,,,,,,,,,,,Z5MTJN,train_y,red_square,top_left,2025-07-24_17h36.14.515,HideSeek_v1,2022.2.5,60.36223381086932,
,3,8,3,3,0,-5,11,,train_dim1_1,5,30,,,,2,0,2,0,,,,,,,,,0,0,0,0,0,4,4,4,0,0,0,0,,,,,,,,,,,,,,,,,,,,,,,,,stimuli/alien_stimuli/11.png,,,,,,,,,,,,,,,,,,,,,,,,,,,,,stimuli/alien_stimuli/12.png,12,0,6,,,,,,,30,,,,,,,,1756.9645117002074,1756.9645117002074,1756.9645117002074,1756.9645117002074,1756.9645117002074,,,,,down,2.8023438998498023,1,0,0,99,0.08,0.15999999999999998,down,2.7144200999755412,1755.4026632001624,-0.16,-0.24,0.32,0.0,-0.07999999999999999,-0.16,-0.16,-0.16,-0.24,1747.0316459001042,1747.0316459001042,1747.0316459001042,1747.0316459001042,1747.0316459001042,1747.0316459001042,1747.0316459001042,1747.0316459001042,1747.0281480801757,8.492360500153154,return,8.338913799962029,1756.9645117002074,,,,,,,,,,,,,,,,,,,,,,,,,,,,,,,,,Z5MTJN,train_y,red_square,top_left,2025-07-24_17h36.14.515,HideSeek_v1,2022.2.5,60.36223381086932,
,3,8,3,3,0,-5,11,,train_dim1_1,5,30,,,,2,0,2,0,,,,,,,,,0,0,0,0,0,4,4,4,1,0,1,0,,,,,,,,,,,,,,,,,,,,,,,,,,,,,,,,,,,,,,,,,,,,,,,,,,,,,,,,,,,,,,,,30,,,,,,,,1759.7794509001542,1759.7794509001542,1759.7794509001542,1759.7794509001542,1759.7794509001542,,,,,down,1.7601389999035746,1,0,0,99,0.08,0.07999999999999997,down,1.6684690997935832,,,,,,,,,,,,,,,,,,,,,,,,,,,,,,,,,,,,,,,,,,,,,,,,,,,,,,,,Z5MTJN,train_y,red_square,top_left,2025-07-24_17h36.14.515,HideSeek_v1,2022.2.5,60.36223381086932,
,3,8,3,3,0,-5,11,,train_dim1_1,5,30,,,,2,0,2,0,,,,,,,,,0,0,0,0,0,4,4,4,2,0,2,0,,,,,,,,,,,,,,,,,,,,,,,,,,,,,,,,,,,,,,,,,,,,,,,,,,,,,,,,,,,,,,,,30,,,,,,,,1761.5514706000686,1761.5514706000686,1761.5514706000686,1761.5514706000686,1761.5514706000686,,,,,down,0.843460800126195,1,0,0,99,0.08,-2.7755575615628914e-17,down,0.7544445998501033,,,,,,,,,,,,,,,,,,,,,,,,,,,,,,,,,,,,,,,,,,,,,,,,,,,,,,,,Z5MTJN,train_y,red_square,top_left,2025-07-24_17h36.14.515,HideSeek_v1,2022.2.5,60.36223381086932,
,3,8,3,3,0,-5,11,,train_dim1_1,5,30,,,,2,0,2,0,,,,,,,,,0,0,0,0,0,4,4,4,3,0,3,0,,,,,,,,,,,,,,,,,,,,,,,,,,,,,,,,,,,,,,,,,,,,,,,,,,,,,,,,,,,,,,,,30,,,,,,,,1762.392223500181,1762.392223500181,1762.392223500181,1762.392223500181,1762.392223500181,-7,5,0.08,-2.7755575615628914e-17,return,1.9781420999206603,1,0,0,0,0.08,-2.7755575615628914e-17,return,1.8870852997060865,,,,,,,,,,,,,,,,,,,,,,,,,,,,,,,,,,,,,,,,,,,,,,,,,,,,,,,,Z5MTJN,train_y,red_square,top_left,2025-07-24_17h36.14.515,HideSeek_v1,2022.2.5,60.36223381086932,
,1,9,1,5,0,-4,12,,train_dim1_1,6,30,,,,2,0,2,0,,,,,,,,,0,0,0,0,0,5,5,5,0,0,0,0,,,,,,,,,,,,,,,,,,,,,,,,,stimuli/alien_stimuli/12.png,,,,,,,,,,,,,,,,,,,,,,,,,,,,,stimuli/alien_stimuli/11.png,11,3,7,,,,,,,30,,,,,,,,1774.6618545001838,1774.6618545001838,1774.6618545001838,1774.6618545001838,1774.6618545001838,,,,,down,5.239422800019383,1,0,0,99,-0.08,0.24,down,5.159153999993578,1773.101102200104,0.08,-0.16,0.4,0.0,0.039999999999999994,0.08,0.08,0.08,-0.16,1765.9410285002086,1765.9410285002086,1765.9410285002086,1765.9410285002086,1765.9410285002086,1765.9410285002086,1765.9410285002086,1765.9410285002086,1765.9272634700637,7.275330699980259,return,7.141972800018266,1774.6618545001838,,,,,,,,,,,,,,,,,,,,,,,,,,,,,,,,,Z5MTJN,train_y,red_square,top_left,2025-07-24_17h36.14.515,HideSeek_v1,2022.2.5,60.36223381086932,
,1,9,1,5,0,-4,12,,train_dim1_1,6,30,,,,2,0,2,0,,,,,,,,,0,0,0,0,0,5,5,5,1,0,1,0,,,,,,,,,,,,,,,,,,,,,,,,,,,,,,,,,,,,,,,,,,,,,,,,,,,,,,,,,,,,,,,,30,,,,,,,,1779.9089847002178,1779.9089847002178,1779.9089847002178,1779.9089847002178,1779.9089847002178,,,,,down,0.5922139999456704,1,0,0,99,-0.08,0.15999999999999998,down,0.5085568998474628,,,,,,,,,,,,,,,,,,,,,,,,,,,,,,,,,,,,,,,,,,,,,,,,,,,,,,,,Z5MTJN,train_y,red_square,top_left,2025-07-24_17h36.14.515,HideSeek_v1,2022.2.5,60.36223381086932,
,1,9,1,5,0,-4,12,,train_dim1_1,6,30,,,,2,0,2,0,,,,,,,,,0,0,0,0,0,5,5,5,2,0,2,0,,,,,,,,,,,,,,,,,,,,,,,,,,,,,,,,,,,,,,,,,,,,,,,,,,,,,,,,,,,,,,,,30,,,,,,,,1780.5072612001095,1780.5072612001095,1780.5072612001095,1780.5072612001095,1780.5072612001095,,,,,down,0.5935009999666363,1,0,0,99,-0.08,0.07999999999999997,down,0.5136003999505192,,,,,,,,,,,,,,,,,,,,,,,,,,,,,,,,,,,,,,,,,,,,,,,,,,,,,,,,Z5MTJN,train_y,red_square,top_left,2025-07-24_17h36.14.515,HideSeek_v1,2022.2.5,60.36223381086932,
,1,9,1,5,0,-4,12,,train_dim1_1,6,30,,,,2,0,2,0,,,,,,,,,0,0,0,0,0,5,5,5,3,0,3,0,,,,,,,,,,,,,,,,,,,,,,,,,,,,,,,,,,,,,,,,,,,,,,,,,,,,,,,,,,,,,,,,30,,,,,,,,1781.1127015000675,1781.1127015000675,1781.1127015000675,1781.1127015000675,1781.1127015000675,,,,,down,1.5611310000531375,1,0,0,99,-0.08,-2.7755575615628914e-17,down,1.47526969993487,,,,,,,,,,,,,,,,,,,,,,,,,,,,,,,,,,,,,,,,,,,,,,,,,,,,,,,,Z5MTJN,train_y,red_square,top_left,2025-07-24_17h36.14.515,HideSeek_v1,2022.2.5,60.36223381086932,
,1,9,1,5,0,-4,12,,train_dim1_1,6,30,,,,2,0,2,0,,,,,,,,,0,0,0,0,0,5,5,5,4,0,4,0,,,,,,,,,,,,,,,,,,,,,,,,,,,,,,,,,,,,,,,,,,,,,,,,,,,,,,,,,,,,,,,,30,,,,,,,,1782.6766846000683,1782.6766846000683,1782.6766846000683,1782.6766846000683,1782.6766846000683,-11,5,-0.08,-2.7755575615628914e-17,return,0.37608439987525344,2,0,0,1,-0.08,-2.7755575615628914e-17,return,0.2943682998884469,,,,,,,,,,,,,,,,,,,,,,,,,,,,,,,,,,,,,,,,,,,,,,,,,,,,,,,,Z5MTJN,train_y,red_square,top_left,2025-07-24_17h36.14.515,HideSeek_v1,2022.2.5,60.36223381086932,
,1,8,1,5,0,-3,13,,train_dim1_1,7,30,,,,2,0,2,0,,,,,,,,,0,0,0,0,0,6,6,6,0,0,0,0,,,,,,,,,,,,,,,,,,,,,,,,,stimuli/alien_stimuli/13.png,,,,,,,,,,,,,,,,,,,,,,,,,,,,,stimuli/alien_stimuli/12.png,12,1,8,,,,,,,30,,,,,,,,1788.3208833001554,1788.3208833001554,1788.3208833001554,1788.3208833001554,1788.3208833001554,,,,,right,3.4391171999741346,2,0,0,99,0.0,0.24,right,3.348681499948725,1786.7498833001591,-0.08,0,0.32,0.0,0.16,-0.08,-0.08,-0.08,0,1784.6249717001338,1784.6249717001338,1784.6249717001338,1784.6249717001338,1784.6249717001338,1784.6249717001338,1784.6249717001338,1784.6249717001338,1784.6259886801242,2.2438469000626355,return,2.1052021000068635,1784.6249717001338,,,,,,,,,,,,,,,,,,,,,,,,,,,,,,,,,Z5MTJN,train_y,red_square,top_left,2025-07-24_17h36.14.515,HideSeek_v1,2022.2.5,60.36223381086932,
,1,8,1,5,0,-3,13,,train_dim1_1,7,30,,,,2,0,2,0,,,,,,,,,0,0,0,0,0,6,6,6,1,0,1,0,,,,,,,,,,,,,,,,,,,,,,,,,,,,,,,,,,,,,,,,,,,,,,,,,,,,,,,,,,,,,,,,30,,,,,,,,1791.7697650000919,1791.7697650000919,1791.7697650000919,1791.7697650000919,1791.7697650000919,,,,,right,1.5771065999288112,2,0,0,99,0.08,0.24,right,1.4959901997353882,,,,,,,,,,,,,,,,,,,,,,,,,,,,,,,,,,,,,,,,,,,,,,,,,,,,,,,,Z5MTJN,train_y,red_square,top_left,2025-07-24_17h36.14.515,HideSeek_v1,2022.2.5,60.36223381086932,
,1,8,1,5,0,-3,13,,train_dim1_1,7,30,,,,2,0,2,0,,,,,,,,,0,0,0,0,0,6,6,6,2,0,2,0,,,,,,,,,,,,,,,,,,,,,,,,,,,,,,,,,,,,,,,,,,,,,,,,,,,,,,,,,,,,,,,,30,,,,,,,,1793.3554466001224,1793.3554466001224,1793.3554466001224,1793.3554466001224,1793.3554466001224,,,,,right,0.8601188999600708,2,0,0,99,0.16,0.24,right,0.7685084999538958,,,,,,,,,,,,,,,,,,,,,,,,,,,,,,,,,,,,,,,,,,,,,,,,,,,,,,,,Z5MTJN,train_y,red_square,top_left,2025-07-24_17h36.14.515,HideSeek_v1,2022.2.5,60.36223381086932,
,1,8,1,5,0,-3,13,,train_dim1_1,7,30,,,,2,0,2,0,,,,,,,,,0,0,0,0,0,6,6,6,3,0,3,0,,,,,,,,,,,,,,,,,,,,,,,,,,,,,,,,,,,,,,,,,,,,,,,,,,,,,,,,,,,,,,,,30,,,,,,,,1794.2184828000609,1794.2184828000609,1794.2184828000609,1794.2184828000609,1794.2184828000609,-11,8,0.16,0.24,return,0.6270151999779046,2,0,0,0,0.16,0.24,return,0.5498448999132961,,,,,,,,,,,,,,,,,,,,,,,,,,,,,,,,,,,,,,,,,,,,,,,,,,,,,,,,Z5MTJN,train_y,red_square,top_left,2025-07-24_17h36.14.515,HideSeek_v1,2022.2.5,60.36223381086932,
,4,7,4,2,0,-5,11,,train_dim1_1,8,30,,,,2,0,2,0,,,,,,,,,0,0,0,0,0,7,7,7,0,0,0,0,,,,,,,,,,,,,,,,,,,,,,,,,stimuli/alien_stimuli/11.png,,,,,,,,,,,,,,,,,,,,,,,,,,,,,stimuli/alien_stimuli/13.png,13,1,9,,,,,,,30,,,,,,,,1801.150226800004,1801.150226800004,1801.150226800004,1801.150226800004,1801.150226800004,,,,,right,3.5378093000035733,2,0,0,99,0.24,0.16,right,3.450442199828103,1799.5759408001322,-0.08,0,0.24,0.0,0.12,-0.08,-0.08,-0.08,0,1796.4184894000646,1796.4184894000646,1796.4184894000646,1796.4184894000646,1796.4184894000646,1796.4184894000646,1796.4184894000646,1796.4184894000646,1796.419206780102,3.2744891999755055,return,3.1330728998873383,1796.4184894000646,,,,,,,,,,,,,,,,,,,,,,,,,,,,,,,,,Z5MTJN,train_y,red_square,top_left,2025-07-24_17h36.14.515,HideSeek_v1,2022.2.5,60.36223381086932,
,4,7,4,2,0,-5,11,,train_dim1_1,8,30,,,,2,0,2,0,,,,,,,,,0,0,0,0,0,7,7,7,1,0,1,0,,,,,,,,,,,,,,,,,,,,,,,,,,,,,,,,,,,,,,,,,,,,,,,,,,,,,,,,,,,,,,,,30,,,,,,,,1804.698224000167,1804.698224000167,1804.698224000167,1804.698224000167,1804.698224000167,,,,,right,0.5424550999887288,2,0,0,99,0.32,0.16,right,0.45473089977167547,,,,,,,,,,,,,,,,,,,,,,,,,,,,,,,,,,,,,,,,,,,,,,,,,,,,,,,,Z5MTJN,train_y,red_square,top_left,2025-07-24_17h36.14.515,HideSeek_v1,2022.2.5,60.36223381086932,
,4,7,4,2,0,-5,11,,train_dim1_1,8,30,,,,2,0,2,0,,,,,,,,,0,0,0,0,0,7,7,7,2,0,2,0,,,,,,,,,,,,,,,,,,,,,,,,,,,,,,,,,,,,,,,,,,,,,,,,,,,,,,,,,,,,,,,,30,,,,,,,,1805.2448658000212,1805.2448658000212,1805.2448658000212,1805.2448658000212,1805.2448658000212,,,,,right,0.493391300085932,2,0,0,99,0.4,0.16,right,0.40851929993368685,,,,,,,,,,,,,,,,,,,,,,,,,,,,,,,,,,,,,,,,,,,,,,,,,,,,,,,,Z5MTJN,train_y,red_square,top_left,2025-07-24_17h36.14.515,HideSeek_v1,2022.2.5,60.36223381086932,
,4,7,4,2,0,-5,11,,train_dim1_1,8,30,,,,2,0,2,0,,,,,,,,,0,0,0,0,0,7,7,7,3,0,3,0,,,,,,,,,,,,,,,,,,,,,,,,,,,,,,,,,,,,,,,,,,,,,,,,,,,,,,,,,,,,,,,,30,,,,,,,,1805.7444773002062,1805.7444773002062,1805.7444773002062,1805.7444773002062,1805.7444773002062,,,,,right,0.7602246999740601,2,0,0,99,0.48000000000000004,0.16,right,0.6817848000209779,,,,,,,,,,,,,,,,,,,,,,,,,,,,,,,,,,,,,,,,,,,,,,,,,,,,,,,,Z5MTJN,train_y,red_square,top_left,2025-07-24_17h36.14.515,HideSeek_v1,2022.2.5,60.36223381086932,
,4,7,4,2,0,-5,11,,train_dim1_1,8,30,,,,2,0,2,0,,,,,,,,,0,0,0,0,0,7,7,7,4,0,4,0,,,,,,,,,,,,,,,,,,,,,,,,,,,,,,,,,,,,,,,,,,,,,,,,,,,,,,,,,,,,,,,,30,,,,,,,,1806.5127780002076,1806.5127780002076,1806.5127780002076,1806.5127780002076,1806.5127780002076,,,,,left,0.9932736000046134,2,0,0,99,0.4,0.16,left,0.9132027998566628,,,,,,,,,,,,,,,,,,,,,,,,,,,,,,,,,,,,,,,,,,,,,,,,,,,,,,,,Z5MTJN,train_y,red_square,top_left,2025-07-24_17h36.14.515,HideSeek_v1,2022.2.5,60.36223381086932,
,4,7,4,2,0,-5,11,,train_dim1_1,8,30,,,,2,0,2,0,,,,,,,,,0,0,0,0,0,7,7,7,5,0,5,0,,,,,,,,,,,,,,,,,,,,,,,,,,,,,,,,,,,,,,,,,,,,,,,,,,,,,,,,,,,,,,,,30,,,,,,,,1807.5133539000526,1807.5133539000526,1807.5133539000526,1807.5133539000526,1807.5133539000526,-11,11,0.4,0.16,return,0.5269217998720706,2,0,0,0,0.4,0.16,return,0.43644959991797805,,,,,,,,,,,,,,,,,,,,,,,,,,,,,,,,,,,,,,,,,,,,,,,,,,,,,,,,Z5MTJN,train_y,red_square,top_left,2025-07-24_17h36.14.515,HideSeek_v1,2022.2.5,60.36223381086932,
,4,8,4,7,0,-1,15,,train_dim1_1,9,30,,,,2,0,2,0,,,,,,,,,0,0,0,0,0,8,8,8,0,0,0,0,,,,,,,,,,,,,,,,,,,,,,,,,stimuli/alien_stimuli/15.png,,,,,,,,,,,,,,,,,,,,,,,,,,,,,stimuli/alien_stimuli/11.png,11,4,10,,,,,,,30,,,,,,,,1814.028182500042,1814.028182500042,1814.028182500042,1814.028182500042,1814.028182500042,,,,,down,3.0041505000554025,2,0,0,99,0.16,0.15999999999999998,down,2.91678429977037,1812.4545713001862,0.16,-0.24,0.4,0.0,-0.039999999999999994,0.16,0.16,0.16,-0.24,1809.630342700053,1809.630342700053,1809.630342700053,1809.630342700053,1809.630342700053,1809.630342700053,1809.630342700053,1809.630342700053,1809.6303501801565,2.942882599774748,return,2.7897403999231756,,,,,,,,,,,,,,,,,,,,,,,,,,,,,,,,,,Z5MTJN,train_y,red_square,top_left,2025-07-24_17h36.14.515,HideSeek_v1,2022.2.5,60.36223381086932,
,4,8,4,7,0,-1,15,,train_dim1_1,9,30,,,,2,0,2,0,,,,,,,,,0,0,0,0,0,8,8,8,1,0,1,0,,,,,,,,,,,,,,,,,,,,,,,,,,,,,,,,,,,,,,,,,,,,,,,,,,,,,,,,,,,,,,,,30,,,,,,,,1817.0392356000375,1817.0392356000375,1817.0392356000375,1817.0392356000375,1817.0392356000375,-12,11,0.16,0.15999999999999998,return,2.6277421000413597,3,0,0,1,0.16,0.15999999999999998,return,2.5381463998928666,,,,,,,,,,,,,,,,,,,,,,,,,,,,,,,,,,,,,,,,,,,,,,,,,,,,,,,,Z5MTJN,train_y,red_square,top_left,2025-07-24_17h36.14.515,HideSeek_v1,2022.2.5,60.36223381086932,
,2,7,2,7,0,0,16,,train_dim1_1,10,30,,,,2,0,2,0,,,,,,,,,0,0,0,0,0,9,9,9,0,0,0,0,,,,,,,,,,,,,,,,,,,,,,,,,stimuli/alien_stimuli/16.png,,,,,,,,,,,,,,,,,,,,,,,,,,,,,stimuli/alien_stimuli/15.png,15,4,11,,,,,,,30,,,,,,,,1824.2376476000063,1824.2376476000063,1824.2376476000063,1824.2376476000063,1824.2376476000063,,,,,up,2.3020945999305695,3,0,0,99,0,0.24,up,2.22332219989039,1822.6749927999917,0.16,0.16,0.08,0.0,0.2,0.16,0.16,0.16,0.16,1821.2395415999927,1821.2395415999927,1821.2395415999927,1821.2395415999927,1821.2395415999927,1821.2395415999927,1821.2395415999927,1821.2395415999927,1821.2399658800102,1.5470795999281108,return,1.4044801997952163,1821.2395415999927,,,,,,,,,,,,,,,,,,,,,,,,,,,,,,,,,Z5MTJN,train_y,red_square,top_left,2025-07-24_17h36.14.515,HideSeek_v1,2022.2.5,60.36223381086932,
,2,7,2,7,0,0,16,,train_dim1_1,10,30,,,,2,0,2,0,,,,,,,,,0,0,0,0,0,9,9,9,1,0,1,0,,,,,,,,,,,,,,,,,,,,,,,,,,,,,,,,,,,,,,,,,,,,,,,,,,,,,,,,,,,,,,,,30,,,,,,,,1826.5468599000014,1826.5468599000014,1826.5468599000014,1826.5468599000014,1826.5468599000014,-11,11,0,0.24,return,0.6257430000696331,3,1,0,0,0,0.24,return,0.5490454998798668,,,,,,,,,,,,,,,,,,,,,,,,,,,,,,,,,,,,,,,,,,,,,,,,,,,,,,,,Z5MTJN,train_y,red_square,top_left,2025-07-24_17h36.14.515,HideSeek_v1,2022.2.5,60.36223381086932,
,4,6,4,5,0,-1,15,,train_dim1_1,11,30,,,,2,0,2,0,,,,,,,,,0,0,0,0,0,10,10,10,0,0,0,0,,,,,,,,,,,,,,,,,,,,,,,,,stimuli/alien_stimuli/15.png,,,,,,,,,,,,,,,,,,,,,,,,,,,,,stimuli/alien_stimuli/16.png,16,2,12,,,,,,,30,,,,,,,,1832.0133030000143,1832.0133030000143,1832.0133030000143,1832.0133030000143,1832.0133030000143,,,,,down,4.385006899945438,3,1,0,99,0.16,0.0,down,4.290945099899545,1830.448290400207,0,0.16,0.0,0.0,0.16,0,0.0,0,0.16,1828.7285462000873,1828.7285462000873,1828.7285462000873,1828.7285462000873,1828.7285462000873,1828.7285462000873,1828.7285462000873,1828.7285462000873,1828.729494169983,1.8203377998434007,return,1.696126899914816,1832.0133030000143,,,,,,,,,,,,,,,,,,,,,,,,,,,,,,,,,Z5MTJN,train_y,red_square,top_left,2025-07-24_17h36.14.515,HideSeek_v1,2022.2.5,60.36223381086932,
,4,6,4,5,0,-1,15,,train_dim1_1,11,30,,,,2,0,2,0,,,,,,,,,0,0,0,0,0,10,10,10,1,0,1,0,,,,,,,,,,,,,,,,,,,,,,,,,,,,,,,,,,,,,,,,,,,,,,,,,,,,,,,,,,,,,,,,30,,,,,,,,1836.404700000072,1836.404700000072,1836.404700000072,1836.404700000072,1836.404700000072,,,,,up,1.2435800998937339,3,1,0,99,0.16,0.08,up,1.1538649997673929,,,,,,,,,,,,,,,,,,,,,,,,,,,,,,,,,,,,,,,,,,,,,,,,,,,,,,,,Z5MTJN,train_y,red_square,top_left,2025-07-24_17h36.14.515,HideSeek_v1,2022.2.5,60.36223381086932,
,4,6,4,5,0,-1,15,,train_dim1_1,11,30,,,,2,0,2,0,,,,,,,,,0,0,0,0,0,10,10,10,2,0,2,0,,,,,,,,,,,,,,,,,,,,,,,,,,,,,,,,,,,,,,,,,,,,,,,,,,,,,,,,,,,,,,,,30,,,,,,,,1837.6558967002202,1837.6558967002202,1837.6558967002202,1837.6558967002202,1837.6558967002202,,,,,left,1.4776708998251706,3,1,0,99,0.08,0.08,left,1.3960767998360097,,,,,,,,,,,,,,,,,,,,,,,,,,,,,,,,,,,,,,,,,,,,,,,,,,,,,,,,Z5MTJN,train_y,red_square,top_left,2025-07-24_17h36.14.515,HideSeek_v1,2022.2.5,60.36223381086932,
,4,6,4,5,0,-1,15,,train_dim1_1,11,30,,,,2,0,2,0,,,,,,,,,0,0,0,0,0,10,10,10,3,0,3,0,,,,,,,,,,,,,,,,,,,,,,,,,,,,,,,,,,,,,,,,,,,,,,,,,,,,,,,,,,,,,,,,30,,,,,,,,1839.140442200005,1839.140442200005,1839.140442200005,1839.140442200005,1839.140442200005,,,,,right,1.111080499831587,3,1,0,99,0.16,0.08,right,1.0324281996581703,,,,,,,,,,,,,,,,,,,,,,,,,,,,,,,,,,,,,,,,,,,,,,,,,,,,,,,,Z5MTJN,train_y,red_square,top_left,2025-07-24_17h36.14.515,HideSeek_v1,2022.2.5,60.36223381086932,
,4,6,4,5,0,-1,15,,train_dim1_1,11,30,,,,2,0,2,0,,,,,,,,,0,0,0,0,0,10,10,10,4,0,4,0,,,,,,,,,,,,,,,,,,,,,,,,,,,,,,,,,,,,,,,,,,,,,,,,,,,,,,,,,,,,,,,,30,,,,,,,,1840.2580987000838,1840.2580987000838,1840.2580987000838,1840.2580987000838,1840.2580987000838,-11,11,0.16,0.08,return,0.4428736998233944,3,1,0,0,0.16,0.08,return,0.3564390998799354,,,,,,,,,,,,,,,,,,,,,,,,,,,,,,,,,,,,,,,,,,,,,,,,,,,,,,,,Z5MTJN,train_y,red_square,top_left,2025-07-24_17h36.14.515,HideSeek_v1,2022.2.5,60.36223381086932,
,0,5,0,0,0,-5,11,,train_dim1_1,12,30,,,,2,0,2,0,,,,,,,,,0,0,0,0,0,11,11,11,0,0,0,0,,,,,,,,,,,,,,,,,,,,,,,,,stimuli/alien_stimuli/11.png,,,,,,,,,,,,,,,,,,,,,,,,,,,,,stimuli/alien_stimuli/15.png,15,4,13,,,,,,,30,,,,,,,,1845.253696200205,1845.253696200205,1845.253696200205,1845.253696200205,1845.253696200205,,,,,right,1.2851664999034256,3,1,0,99,-0.08,0,right,1.207351699937135,1843.693633200135,0.16,0,0.08,0.0,0.04,0.16,0.16,0.16,0,1842.295614000177,1842.295614000177,1842.295614000177,1842.295614000177,1842.295614000177,1842.295614000177,1842.295614000177,1842.295614000177,1842.2907738801557,1.5209434998687357,return,1.3731521998997778,1845.253696200205,,,,,,,,,,,,,,,,,,,,,,,,,,,,,,,,,Z5MTJN,train_y,red_square,top_left,2025-07-24_17h36.14.515,HideSeek_v1,2022.2.5,60.36223381086932,
,0,5,0,0,0,-5,11,,train_dim1_1,12,30,,,,2,0,2,0,,,,,,,,,0,0,0,0,0,11,11,11,1,0,1,0,,,,,,,,,,,,,,,,,,,,,,,,,,,,,,,,,,,,,,,,,,,,,,,,,,,,,,,,,,,,,,,,30,,,,,,,,1846.546052900143,1846.546052900143,1846.546052900143,1846.546052900143,1846.546052900143,,,,,right,1.3937923000194132,3,1,0,99,0.0,0,right,1.3098085997626185,,,,,,,,,,,,,,,,,,,,,,,,,,,,,,,,,,,,,,,,,,,,,,,,,,,,,,,,Z5MTJN,train_y,red_square,top_left,2025-07-24_17h36.14.515,HideSeek_v1,2022.2.5,60.36223381086932,
,0,5,0,0,0,-5,11,,train_dim1_1,12,30,,,,2,0,2,0,,,,,,,,,0,0,0,0,0,11,11,11,2,0,2,0,,,,,,,,,,,,,,,,,,,,,,,,,,,,,,,,,,,,,,,,,,,,,,,,,,,,,,,,,,,,,,,,30,,,,,,,,1847.9485842001159,1847.9485842001159,1847.9485842001159,1847.9485842001159,1847.9485842001159,,,,,right,0.592929600039497,3,1,0,99,0.08,0,right,0.49983039987273514,,,,,,,,,,,,,,,,,,,,,,,,,,,,,,,,,,,,,,,,,,,,,,,,,,,,,,,,Z5MTJN,train_y,red_square,top_left,2025-07-24_17h36.14.515,HideSeek_v1,2022.2.5,60.36223381086932,
,0,5,0,0,0,-5,11,,train_dim1_1,12,30,,,,2,0,2,0,,,,,,,,,0,0,0,0,0,11,11,11,3,0,3,0,,,,,,,,,,,,,,,,,,,,,,,,,,,,,,,,,,,,,,,,,,,,,,,,,,,,,,,,,,,,,,,,30,,,,,,,,1848.5493017002009,1848.5493017002009,1848.5493017002009,1848.5493017002009,1848.5493017002009,,,,,right,1.56020909990184,3,1,0,99,0.16,0,right,1.4744466999545693,,,,,,,,,,,,,,,,,,,,,,,,,,,,,,,,,,,,,,,,,,,,,,,,,,,,,,,,Z5MTJN,train_y,red_square,top_left,2025-07-24_17h36.14.515,HideSeek_v1,2022.2.5,60.36223381086932,
,0,5,0,0,0,-5,11,,train_dim1_1,12,30,,,,2,0,2,0,,,,,,,,,0,0,0,0,0,11,11,11,4,0,4,0,,,,,,,,,,,,,,,,,,,,,,,,,,,,,,,,,,,,,,,,,,,,,,,,,,,,,,,,,,,,,,,,30,,,,,,,,1850.1147281001322,1850.1147281001322,1850.1147281001322,1850.1147281001322,1850.1147281001322,-11,15,0.16,0,return,0.5269466999452561,3,0,0,0,0.16,0,return,0.44153359974734485,,,,,,,,,,,,,,,,,,,,,,,,,,,,,,,,,,,,,,,,,,,,,,,,,,,,,,,,Z5MTJN,train_y,red_square,top_left,2025-07-24_17h36.14.515,HideSeek_v1,2022.2.5,60.36223381086932,
,4,8,4,4,0,-4,12,,train_dim1_1,13,30,,,,2,0,2,0,,,,,,,,,0,0,0,0,0,12,12,12,0,0,0,0,,,,,,,,,,,,,,,,,,,,,,,,,stimuli/alien_stimuli/12.png,,,,,,,,,,,,,,,,,,,,,,,,,,,,,stimuli/alien_stimuli/11.png,11,0,14,,,,,,,30,,,,,,,,1855.092602299992,1855.092602299992,1855.092602299992,1855.092602299992,1855.092602299992,,,,,down,2.156844799872488,3,0,0,99,0.16,0.15999999999999998,down,2.069298399845138,1853.5224655000493,-0.16,-0.4,0.4,0.0,-0.2,-0.16,-0.16,-0.16,-0.4,1852.2019194001332,1852.2019194001332,1852.2019194001332,1852.2019194001332,1852.2019194001332,1852.2019194001332,1852.2019194001332,1852.2019194001332,1852.1992440700296,1.425785900093615,return,1.3011878998950124,1852.2019194001332,,,,,,,,,,,,,,,,,,,,,,,,,,,,,,,,,Z5MTJN,train_y,red_square,top_left,2025-07-24_17h36.14.515,HideSeek_v1,2022.2.5,60.36223381086932,
,4,8,4,4,0,-4,12,,train_dim1_1,13,30,,,,2,0,2,0,,,,,,,,,0,0,0,0,0,12,12,12,1,0,1,0,,,,,,,,,,,,,,,,,,,,,,,,,,,,,,,,,,,,,,,,,,,,,,,,,,,,,,,,,,,,,,,,30,,,,,,,,1857.2611379001755,1857.2611379001755,1857.2611379001755,1857.2611379001755,1857.2611379001755,,,,,down,0.43904069997370243,3,0,0,99,0.16,0.07999999999999997,down,0.34750849986448884,,,,,,,,,,,,,,,,,,,,,,,,,,,,,,,,,,,,,,,,,,,,,,,,,,,,,,,,Z5MTJN,train_y,red_square,top_left,2025-07-24_17h36.14.515,HideSeek_v1,2022.2.5,60.36223381086932,
,4,8,4,4,0,-4,12,,train_dim1_1,13,30,,,,2,0,2,0,,,,,,,,,0,0,0,0,0,12,12,12,2,0,2,0,,,,,,,,,,,,,,,,,,,,,,,,,,,,,,,,,,,,,,,,,,,,,,,,,,,,,,,,,,,,,,,,30,,,,,,,,1857.7051695000846,1857.7051695000846,1857.7051695000846,1857.7051695000846,1857.7051695000846,,,,,down,0.5100523999426514,3,0,0,99,0.16,-2.7755575615628914e-17,down,0.41779479989781976,,,,,,,,,,,,,,,,,,,,,,,,,,,,,,,,,,,,,,,,,,,,,,,,,,,,,,,,Z5MTJN,train_y,red_square,top_left,2025-07-24_17h36.14.515,HideSeek_v1,2022.2.5,60.36223381086932,
,4,8,4,4,0,-4,12,,train_dim1_1,13,30,,,,2,0,2,0,,,,,,,,,0,0,0,0,0,12,12,12,3,0,3,0,,,,,,,,,,,,,,,,,,,,,,,,,,,,,,,,,,,,,,,,,,,,,,,,,,,,,,,,,,,,,,,,30,,,,,,,,1858.2233799002133,1858.2233799002133,1858.2233799002133,1858.2233799002133,1858.2233799002133,,,,,down,0.5143791998270899,3,0,0,99,0.16,-0.08000000000000003,down,0.43053149967454374,,,,,,,,,,,,,,,,,,,,,,,,,,,,,,,,,,,,,,,,,,,,,,,,,,,,,,,,Z5MTJN,train_y,red_square,top_left,2025-07-24_17h36.14.515,HideSeek_v1,2022.2.5,60.36223381086932,
,4,8,4,4,0,-4,12,,train_dim1_1,13,30,,,,2,0,2,0,,,,,,,,,0,0,0,0,0,12,12,12,4,0,4,0,,,,,,,,,,,,,,,,,,,,,,,,,,,,,,,,,,,,,,,,,,,,,,,,,,,,,,,,,,,,,,,,30,,,,,,,,1858.746053500101,1858.746053500101,1858.746053500101,1858.746053500101,1858.746053500101,,,,,down,0.9390114000998437,3,0,0,99,0.16,-0.16000000000000003,down,0.8508272999897599,,,,,,,,,,,,,,,,,,,,,,,,,,,,,,,,,,,,,,,,,,,,,,,,,,,,,,,,Z5MTJN,train_y,red_square,top_left,2025-07-24_17h36.14.515,HideSeek_v1,2022.2.5,60.36223381086932,
,4,8,4,4,0,-4,12,,train_dim1_1,13,30,,,,2,0,2,0,,,,,,,,,0,0,0,0,0,12,12,12,5,0,5,0,,,,,,,,,,,,,,,,,,,,,,,,,,,,,,,,,,,,,,,,,,,,,,,,,,,,,,,,,,,,,,,,30,,,,,,,,1859.6899314001203,1859.6899314001203,1859.6899314001203,1859.6899314001203,1859.6899314001203,-16,15,0.16,-0.16000000000000003,return,0.46018089982680976,3,1,0,0,0.16,-0.16000000000000003,return,0.3810041998513043,,,,,,,,,,,,,,,,,,,,,,,,,,,,,,,,,,,,,,,,,,,,,,,,,,,,,,,,Z5MTJN,train_y,red_square,top_left,2025-07-24_17h36.14.515,HideSeek_v1,2022.2.5,60.36223381086932,
,2,7,2,7,0,0,16,,train_dim1_1,14,30,,,,2,0,2,0,,,,,,,,,0,0,0,0,0,13,13,13,0,0,0,0,,,,,,,,,,,,,,,,,,,,,,,,,stimuli/alien_stimuli/16.png,,,,,,,,,,,,,,,,,,,,,,,,,,,,,stimuli/alien_stimuli/12.png,12,4,15,,,,,,,30,,,,,,,,1865.1027416000143,1865.1027416000143,1865.1027416000143,1865.1027416000143,1865.1027416000143,,,,,down,1.8867748999036849,3,1,0,99,0,0.08,down,1.7961384998634458,1863.5287744000088,0.16,-0.08,0.32,0.0,0.07999999999999999,0.16,0.16,0.16,-0.08,1861.7086034000386,1861.7086034000386,1861.7086034000386,1861.7086034000386,1861.7086034000386,1861.7086034000386,1861.7086034000386,1861.7086034000386,1861.7069153701186,1.9230857000220567,return,1.7966155998874456,1861.7086034000386,,,,,,,,,,,,,,,,,,,,,,,,,,,,,,,,,Z5MTJN,train_y,red_square,top_left,2025-07-24_17h36.14.515,HideSeek_v1,2022.2.5,60.36223381086932,
,2,7,2,7,0,0,16,,train_dim1_1,14,30,,,,2,0,2,0,,,,,,,,,0,0,0,0,0,13,13,13,1,0,1,0,,,,,,,,,,,,,,,,,,,,,,,,,,,,,,,,,,,,,,,,,,,,,,,,,,,,,,,,,,,,,,,,30,,,,,,,,1866.9969781001564,1866.9969781001564,1866.9969781001564,1866.9969781001564,1866.9969781001564,,,,,down,1.4601898998953402,3,1,0,99,0,0.0,down,1.3723843998741359,,,,,,,,,,,,,,,,,,,,,,,,,,,,,,,,,,,,,,,,,,,,,,,,,,,,,,,,Z5MTJN,train_y,red_square,top_left,2025-07-24_17h36.14.515,HideSeek_v1,2022.2.5,60.36223381086932,
,2,7,2,7,0,0,16,,train_dim1_1,14,30,,,,2,0,2,0,,,,,,,,,0,0,0,0,0,13,13,13,2,0,2,0,,,,,,,,,,,,,,,,,,,,,,,,,,,,,,,,,,,,,,,,,,,,,,,,,,,,,,,,,,,,,,,,30,,,,,,,,1868.4641991001554,1868.4641991001554,1868.4641991001554,1868.4641991001554,1868.4641991001554,,,,,up,1.2936808001250029,3,1,0,99,0,0.08,up,1.2162811998277903,,,,,,,,,,,,,,,,,,,,,,,,,,,,,,,,,,,,,,,,,,,,,,,,,,,,,,,,Z5MTJN,train_y,red_square,top_left,2025-07-24_17h36.14.515,HideSeek_v1,2022.2.5,60.36223381086932,
,2,7,2,7,0,0,16,,train_dim1_1,14,30,,,,2,0,2,0,,,,,,,,,0,0,0,0,0,13,13,13,3,0,3,0,,,,,,,,,,,,,,,,,,,,,,,,,,,,,,,,,,,,,,,,,,,,,,,,,,,,,,,,,,,,,,,,30,,,,,,,,1869.7648974000476,1869.7648974000476,1869.7648974000476,1869.7648974000476,1869.7648974000476,,,,,up,0.4100354998372495,3,1,0,99,0,0.16,up,0.3264032998122275,,,,,,,,,,,,,,,,,,,,,,,,,,,,,,,,,,,,,,,,,,,,,,,,,,,,,,,,Z5MTJN,train_y,red_square,top_left,2025-07-24_17h36.14.515,HideSeek_v1,2022.2.5,60.36223381086932,
,2,7,2,7,0,0,16,,train_dim1_1,14,30,,,,2,0,2,0,,,,,,,,,0,0,0,0,0,13,13,13,4,0,4,0,,,,,,,,,,,,,,,,,,,,,,,,,,,,,,,,,,,,,,,,,,,,,,,,,,,,,,,,,,,,,,,,30,,,,,,,,1870.1822999001015,1870.1822999001015,1870.1822999001015,1870.1822999001015,1870.1822999001015,,,,,right,0.6106434999965131,3,1,0,99,0.08,0.16,right,0.5183562997262925,,,,,,,,,,,,,,,,,,,,,,,,,,,,,,,,,,,,,,,,,,,,,,,,,,,,,,,,Z5MTJN,train_y,red_square,top_left,2025-07-24_17h36.14.515,HideSeek_v1,2022.2.5,60.36223381086932,
,2,7,2,7,0,0,16,,train_dim1_1,14,30,,,,2,0,2,0,,,,,,,,,0,0,0,0,0,13,13,13,5,0,5,0,,,,,,,,,,,,,,,,,,,,,,,,,,,,,,,,,,,,,,,,,,,,,,,,,,,,,,,,,,,,,,,,30,,,,,,,,1870.7999066000339,1870.7999066000339,1870.7999066000339,1870.7999066000339,1870.7999066000339,-16,16,0.08,0.16,return,1.7773293999489397,3,1,0,0,0.08,0.16,return,1.6984331998974085,,,,,,,,,,,,,,,,,,,,,,,,,,,,,,,,,,,,,,,,,,,,,,,,,,,,,,,,Z5MTJN,train_y,red_square,top_left,2025-07-24_17h36.14.515,HideSeek_v1,2022.2.5,60.36223381086932,
,1,9,1,6,0,-3,13,,train_dim1_1,15,30,,,,2,0,2,0,,,,,,,,,0,0,0,0,0,14,14,14,0,0,0,0,,,,,,,,,,,,,,,,,,,,,,,,,stimuli/alien_stimuli/13.png,,,,,,,,,,,,,,,,,,,,,,,,,,,,,stimuli/alien_stimuli/16.png,16,2,16,,,,,,,30,,,,,,,,1876.9444298001472,1876.9444298001472,1876.9444298001472,1876.9444298001472,1876.9444298001472,,,,,down,1.7035052999854088,3,1,0,99,-0.08,0.24,down,1.6130833998322487,1875.385909800185,0,0.16,0.0,0.0,0.16,0,0.0,0,0.16,1874.1474276999943,1874.1474276999943,1874.1474276999943,1874.1474276999943,1874.1474276999943,1874.1474276999943,1874.1474276999943,1874.1474276999943,1874.13394237,1.353341800160706,return,1.2105976999737322,1876.9444298001472,,,,,,,,,,,,,,,,,,,,,,,,,,,,,,,,,Z5MTJN,train_y,red_square,top_left,2025-07-24_17h36.14.515,HideSeek_v1,2022.2.5,60.36223381086932,
,1,9,1,6,0,-3,13,,train_dim1_1,15,30,,,,2,0,2,0,,,,,,,,,0,0,0,0,0,14,14,14,1,0,1,0,,,,,,,,,,,,,,,,,,,,,,,,,,,,,,,,,,,,,,,,,,,,,,,,,,,,,,,,,,,,,,,,30,,,,,,,,1878.6629998001736,1878.6629998001736,1878.6629998001736,1878.6629998001736,1878.6629998001736,,,,,down,0.5771905998699367,3,1,0,99,-0.08,0.15999999999999998,down,0.49314399994909763,,,,,,,,,,,,,,,,,,,,,,,,,,,,,,,,,,,,,,,,,,,,,,,,,,,,,,,,Z5MTJN,train_y,red_square,top_left,2025-07-24_17h36.14.515,HideSeek_v1,2022.2.5,60.36223381086932,
,1,9,1,6,0,-3,13,,train_dim1_1,15,30,,,,2,0,2,0,,,,,,,,,0,0,0,0,0,14,14,14,2,0,2,0,,,,,,,,,,,,,,,,,,,,,,,,,,,,,,,,,,,,,,,,,,,,,,,,,,,,,,,,,,,,,,,,30,,,,,,,,1879.2405709000304,1879.2405709000304,1879.2405709000304,1879.2405709000304,1879.2405709000304,,,,,down,0.8763538000639528,3,1,0,99,-0.08,0.07999999999999997,down,0.7925231999251992,,,,,,,,,,,,,,,,,,,,,,,,,,,,,,,,,,,,,,,,,,,,,,,,,,,,,,,,Z5MTJN,train_y,red_square,top_left,2025-07-24_17h36.14.515,HideSeek_v1,2022.2.5,60.36223381086932,
,1,9,1,6,0,-3,13,,train_dim1_1,15,30,,,,2,0,2,0,,,,,,,,,0,0,0,0,0,14,14,14,3,0,3,0,,,,,,,,,,,,,,,,,,,,,,,,,,,,,,,,,,,,,,,,,,,,,,,,,,,,,,,,,,,,,,,,30,,,,,,,,1880.1225680999923,1880.1225680999923,1880.1225680999923,1880.1225680999923,1880.1225680999923,,,,,down,0.877515000058338,3,1,0,99,-0.08,-2.7755575615628914e-17,down,0.8018282998818904,,,,,,,,,,,,,,,,,,,,,,,,,,,,,,,,,,,,,,,,,,,,,,,,,,,,,,,,Z5MTJN,train_y,red_square,top_left,2025-07-24_17h36.14.515,HideSeek_v1,2022.2.5,60.36223381086932,
,1,9,1,6,0,-3,13,,train_dim1_1,15,30,,,,2,0,2,0,,,,,,,,,0,0,0,0,0,14,14,14,4,0,4,0,,,,,,,,,,,,,,,,,,,,,,,,,,,,,,,,,,,,,,,,,,,,,,,,,,,,,,,,,,,,,,,,30,,,,,,,,1881.008002200164,1881.008002200164,1881.008002200164,1881.008002200164,1881.008002200164,-20,16,-0.08,-2.7755575615628914e-17,return,0.5097211000975221,3,1,0,0,-0.08,-2.7755575615628914e-17,return,0.4193726999219507,,,,,,,,,,,,,,,,,,,,,,,,,,,,,,,,,,,,,,,,,,,,,,,,,,,,,,,,Z5MTJN,train_y,red_square,top_left,2025-07-24_17h36.14.515,HideSeek_v1,2022.2.5,60.36223381086932,
,4,5,4,4,0,-1,15,,train_dim1_1,16,30,,,,2,0,2,0,,,,,,,,,0,0,0,0,0,15,15,15,0,0,0,0,,,,,,,,,,,,,,,,,,,,,,,,,stimuli/alien_stimuli/15.png,,,,,,,,,,,,,,,,,,,,,,,,,,,,,stimuli/alien_stimuli/13.png,13,1,17,,,,,,,30,,,,,,,,1886.184846600052,1886.184846600052,1886.184846600052,1886.184846600052,1886.184846600052,-20,16,0.16,0,return,2.0561173998285085,3,1,0,0,0.16,0,return,1.9680746998637915,1884.6202568002045,-0.08,0.08,0.24,0.0,0.2,-0.08,-0.08,-0.08,0.08,1883.0744038000703,1883.0744038000703,1883.0744038000703,1883.0744038000703,1883.0744038000703,1883.0744038000703,1883.0744038000703,1883.0744038000703,1883.074978170148,1.641810999950394,return,1.5139949000440538,1883.0744038000703,,,,,,,,,,,,,,,,,,,,,,,,,,,,,,,,,Z5MTJN,train_y,red_square,top_left,2025-07-24_17h36.14.515,HideSeek_v1,2022.2.5,60.36223381086932,
,3,8,3,5,0,-3,13,,train_dim1_1,17,30,,,,2,0,2,0,,,,,,,,,0,0,0,0,0,16,16,16,0,0,0,0,,,,,,,,,,,,,,,,,,,,,,,,,stimuli/alien_stimuli/13.png,,,,,,,,,,,,,,,,,,,,,,,,,,,,,stimuli/alien_stimuli/15.png,15,4,18,,,,,,,30,,,,,,,,1893.0387413999997,1893.0387413999997,1893.0387413999997,1893.0387413999997,1893.0387413999997,,,,,down,3.2899491998832673,3,1,0,99,0.08,0.15999999999999998,down,3.2076938999816775,1891.475983100012,0.16,-0.08,0.08,0.0,-0.04,0.16,0.16,0.16,-0.08,1889.8136346000247,1889.8136346000247,1889.8136346000247,1889.8136346000247,1889.8136346000247,1889.8136346000247,1889.8136346000247,1889.8136346000247,1889.813837870187,1.7594401000533253,return,1.6256300997920334,,,,,,,,,,,,,,,,,,,,,,,,,,,,,,,,,,Z5MTJN,train_y,red_square,top_left,2025-07-24_17h36.14.515,HideSeek_v1,2022.2.5,60.36223381086932,
,3,8,3,5,0,-3,13,,train_dim1_1,17,30,,,,2,0,2,0,,,,,,,,,0,0,0,0,0,16,16,16,1,0,1,0,,,,,,,,,,,,,,,,,,,,,,,,,,,,,,,,,,,,,,,,,,,,,,,,,,,,,,,,,,,,,,,,30,,,,,,,,1896.3367667000275,1896.3367667000275,1896.3367667000275,1896.3367667000275,1896.3367667000275,,,,,down,0.5096619001124054,3,1,0,99,0.08,0.07999999999999997,down,0.43218360003083944,,,,,,,,,,,,,,,,,,,,,,,,,,,,,,,,,,,,,,,,,,,,,,,,,,,,,,,,Z5MTJN,train_y,red_square,top_left,2025-07-24_17h36.14.515,HideSeek_v1,2022.2.5,60.36223381086932,
,3,8,3,5,0,-3,13,,train_dim1_1,17,30,,,,2,0,2,0,,,,,,,,,0,0,0,0,0,16,16,16,2,0,2,0,,,,,,,,,,,,,,,,,,,,,,,,,,,,,,,,,,,,,,,,,,,,,,,,,,,,,,,,,,,,,,,,30,,,,,,,,1896.8533643002156,1896.8533643002156,1896.8533643002156,1896.8533643002156,1896.8533643002156,,,,,down,0.8604353999253362,3,1,0,99,0.08,-2.7755575615628914e-17,down,0.7810549000278115,,,,,,,,,,,,,,,,,,,,,,,,,,,,,,,,,,,,,,,,,,,,,,,,,,,,,,,,Z5MTJN,train_y,red_square,top_left,2025-07-24_17h36.14.515,HideSeek_v1,2022.2.5,60.36223381086932,
,3,8,3,5,0,-3,13,,train_dim1_1,17,30,,,,2,0,2,0,,,,,,,,,0,0,0,0,0,16,16,16,3,0,3,0,,,,,,,,,,,,,,,,,,,,,,,,,,,,,,,,,,,,,,,,,,,,,,,,,,,,,,,,,,,,,,,,30,,,,,,,,1897.722159900004,1897.722159900004,1897.722159900004,1897.722159900004,1897.722159900004,-23,16,0.08,-2.7755575615628914e-17,return,0.5261413999833167,4,0,0,1,0.08,-2.7755575615628914e-17,return,0.44167479989118874,,,,,,,,,,,,,,,,,,,,,,,,,,,,,,,,,,,,,,,,,,,,,,,,,,,,,,,,Z5MTJN,train_y,red_square,top_left,2025-07-24_17h36.14.515,HideSeek_v1,2022.2.5,60.36223381086932,
,2,6,2,1,0,-5,11,,train_dim1_1,18,30,,,,2,0,2,0,,,,,,,,,0,0,0,0,0,17,17,17,0,0,0,0,,,,,,,,,,,,,,,,,,,,,,,,,stimuli/alien_stimuli/11.png,,,,,,,,,,,,,,,,,,,,,,,,,,,,,stimuli/alien_stimuli/13.png,13,3,19,,,,,,,30,,,,,,,,1902.847158000106,1902.847158000106,1902.847158000106,1902.847158000106,1902.847158000106,,,,,right,1.339148199884221,4,0,0,99,0.08,0.08,right,1.2554523998405784,1901.278648500098,0.08,0,0.24,0.0,0.12,0.08,0.08,0.08,0,1899.8100309001748,1899.8100309001748,1899.8100309001748,1899.8100309001748,1899.8100309001748,1899.8100309001748,1899.8100309001748,1899.8100309001748,1899.805405170121,1.5757927999366075,return,1.448929299833253,1899.8100309001748,,,,,,,,,,,,,,,,,,,,,,,,,,,,,,,,,Z5MTJN,train_y,red_square,top_left,2025-07-24_17h36.14.515,HideSeek_v1,2022.2.5,60.36223381086932,
,2,6,2,1,0,-5,11,,train_dim1_1,18,30,,,,2,0,2,0,,,,,,,,,0,0,0,0,0,17,17,17,1,0,1,0,,,,,,,,,,,,,,,,,,,,,,,,,,,,,,,,,,,,,,,,,,,,,,,,,,,,,,,,,,,,,,,,30,,,,,,,,1904.1944181001745,1904.1944181001745,1904.1944181001745,1904.1944181001745,1904.1944181001745,,,,,right,0.5952135999687016,4,0,0,99,0.16,0.08,right,0.5009999999310821,,,,,,,,,,,,,,,,,,,,,,,,,,,,,,,,,,,,,,,,,,,,,,,,,,,,,,,,Z5MTJN,train_y,red_square,top_left,2025-07-24_17h36.14.515,HideSeek_v1,2022.2.5,60.36223381086932,
,2,6,2,1,0,-5,11,,train_dim1_1,18,30,,,,2,0,2,0,,,,,,,,,0,0,0,0,0,17,17,17,2,0,2,0,,,,,,,,,,,,,,,,,,,,,,,,,,,,,,,,,,,,,,,,,,,,,,,,,,,,,,,,,,,,,,,,30,,,,,,,,1904.8009990002029,1904.8009990002029,1904.8009990002029,1904.8009990002029,1904.8009990002029,,,,,right,0.6048646999988705,4,0,0,99,0.24,0.08,right,0.5139903998933733,,,,,,,,,,,,,,,,,,,,,,,,,,,,,,,,,,,,,,,,,,,,,,,,,,,,,,,,Z5MTJN,train_y,red_square,top_left,2025-07-24_17h36.14.515,HideSeek_v1,2022.2.5,60.36223381086932,
,2,6,2,1,0,-5,11,,train_dim1_1,18,30,,,,2,0,2,0,,,,,,,,,0,0,0,0,0,17,17,17,3,0,3,0,,,,,,,,,,,,,,,,,,,,,,,,,,,,,,,,,,,,,,,,,,,,,,,,,,,,,,,,,,,,,,,,30,,,,,,,,1905.4110662001185,1905.4110662001185,1905.4110662001185,1905.4110662001185,1905.4110662001185,,,,,right,0.6600923999212682,4,0,0,99,0.32,0.08,right,0.5681292000226676,,,,,,,,,,,,,,,,,,,,,,,,,,,,,,,,,,,,,,,,,,,,,,,,,,,,,,,,Z5MTJN,train_y,red_square,top_left,2025-07-24_17h36.14.515,HideSeek_v1,2022.2.5,60.36223381086932,
,2,6,2,1,0,-5,11,,train_dim1_1,18,30,,,,2,0,2,0,,,,,,,,,0,0,0,0,0,17,17,17,4,0,4,0,,,,,,,,,,,,,,,,,,,,,,,,,,,,,,,,,,,,,,,,,,,,,,,,,,,,,,,,,,,,,,,,30,,,,,,,,1906.0793742001988,1906.0793742001988,1906.0793742001988,1906.0793742001988,1906.0793742001988,,,,,right,0.7605111000593752,4,0,0,99,0.4,0.08,right,0.6739894999191165,,,,,,,,,,,,,,,,,,,,,,,,,,,,,,,,,,,,,,,,,,,,,,,,,,,,,,,,Z5MTJN,train_y,red_square,top_left,2025-07-24_17h36.14.515,HideSeek_v1,2022.2.5,60.36223381086932,
,2,6,2,1,0,-5,11,,train_dim1_1,18,30,,,,2,0,2,0,,,,,,,,,0,0,0,0,0,17,17,17,5,0,5,0,,,,,,,,,,,,,,,,,,,,,,,,,,,,,,,,,,,,,,,,,,,,,,,,,,,,,,,,,,,,,,,,30,,,,,,,,1906.84657970001,1906.84657970001,1906.84657970001,1906.84657970001,1906.84657970001,-23,21,0.4,0.08,return,0.4932894001249224,4,0,0,0,0.4,0.08,return,0.40492759994231164,,,,,,,,,,,,,,,,,,,,,,,,,,,,,,,,,,,,,,,,,,,,,,,,,,,,,,,,Z5MTJN,train_y,red_square,top_left,2025-07-24_17h36.14.515,HideSeek_v1,2022.2.5,60.36223381086932,
,0,9,0,5,0,-4,12,,train_dim1_1,19,30,,,,2,0,2,0,,,,,,,,,0,0,0,0,0,18,18,18,0,0,0,0,,,,,,,,,,,,,,,,,,,,,,,,,stimuli/alien_stimuli/12.png,,,,,,,,,,,,,,,,,,,,,,,,,,,,,stimuli/alien_stimuli/11.png,11,2,20,,,,,,,30,,,,,,,,1912.8255966000725,1912.8255966000725,1912.8255966000725,1912.8255966000725,1912.8255966000725,,,,,down,2.5209518999326974,4,0,0,99,-0.16,0.24,down,2.4376038999762386,1911.252521400107,0,-0.32,0.4,0.0,-0.12,0,0.0,0,-0.32,1908.8989448000211,1908.8989448000211,1908.8989448000211,1908.8989448000211,1908.8989448000211,1908.8989448000211,1908.8989448000211,1908.8989448000211,1908.8963083700974,2.4572328000795096,return,2.3262976000551134,1908.8989448000211,,,,,,,,,,,,,,,,,,,,,,,,,,,,,,,,,Z5MTJN,train_y,red_square,top_left,2025-07-24_17h36.14.515,HideSeek_v1,2022.2.5,60.36223381086932,
,0,9,0,5,0,-4,12,,train_dim1_1,19,30,,,,2,0,2,0,,,,,,,,,0,0,0,0,0,18,18,18,1,0,1,0,,,,,,,,,,,,,,,,,,,,,,,,,,,,,,,,,,,,,,,,,,,,,,,,,,,,,,,,,,,,,,,,30,,,,,,,,1915.3554974000435,1915.3554974000435,1915.3554974000435,1915.3554974000435,1915.3554974000435,,,,,down,1.1600468000397086,4,0,0,99,-0.16,0.15999999999999998,down,1.081640899879858,,,,,,,,,,,,,,,,,,,,,,,,,,,,,,,,,,,,,,,,,,,,,,,,,,,,,,,,Z5MTJN,train_y,red_square,top_left,2025-07-24_17h36.14.515,HideSeek_v1,2022.2.5,60.36223381086932,
,0,9,0,5,0,-4,12,,train_dim1_1,19,30,,,,2,0,2,0,,,,,,,,,0,0,0,0,0,18,18,18,2,0,2,0,,,,,,,,,,,,,,,,,,,,,,,,,,,,,,,,,,,,,,,,,,,,,,,,,,,,,,,,,,,,,,,,30,,,,,,,,1916.522756600054,1916.522756600054,1916.522756600054,1916.522756600054,1916.522756600054,,,,,down,0.910389699973166,4,0,0,99,-0.16,0.07999999999999997,down,0.8159692999906838,,,,,,,,,,,,,,,,,,,,,,,,,,,,,,,,,,,,,,,,,,,,,,,,,,,,,,,,Z5MTJN,train_y,red_square,top_left,2025-07-24_17h36.14.515,HideSeek_v1,2022.2.5,60.36223381086932,
,0,9,0,5,0,-4,12,,train_dim1_1,19,30,,,,2,0,2,0,,,,,,,,,0,0,0,0,0,18,18,18,3,0,3,0,,,,,,,,,,,,,,,,,,,,,,,,,,,,,,,,,,,,,,,,,,,,,,,,,,,,,,,,,,,,,,,,30,,,,,,,,1917.4482951001264,1917.4482951001264,1917.4482951001264,1917.4482951001264,1917.4482951001264,,,,,down,0.9937942000105977,4,0,0,99,-0.16,-2.7755575615628914e-17,down,0.8908571000210941,,,,,,,,,,,,,,,,,,,,,,,,,,,,,,,,,,,,,,,,,,,,,,,,,,,,,,,,Z5MTJN,train_y,red_square,top_left,2025-07-24_17h36.14.515,HideSeek_v1,2022.2.5,60.36223381086932,
,0,9,0,5,0,-4,12,,train_dim1_1,19,30,,,,2,0,2,0,,,,,,,,,0,0,0,0,0,18,18,18,4,0,4,0,,,,,,,,,,,,,,,,,,,,,,,,,,,,,,,,,,,,,,,,,,,,,,,,,,,,,,,,,,,,,,,,30,,,,,,,,1918.4388602001127,1918.4388602001127,1918.4388602001127,1918.4388602001127,1918.4388602001127,,,,,down,2.061405099928379,4,0,0,99,-0.16,-0.08000000000000003,down,1.9771992999594659,,,,,,,,,,,,,,,,,,,,,,,,,,,,,,,,,,,,,,,,,,,,,,,,,,,,,,,,Z5MTJN,train_y,red_square,top_left,2025-07-24_17h36.14.515,HideSeek_v1,2022.2.5,60.36223381086932,
,0,9,0,5,0,-4,12,,train_dim1_1,19,30,,,,2,0,2,0,,,,,,,,,0,0,0,0,0,18,18,18,5,0,5,0,,,,,,,,,,,,,,,,,,,,,,,,,,,,,,,,,,,,,,,,,,,,,,,,,,,,,,,,,,,,,,,,30,,,,,,,,1920.5086331001949,1920.5086331001949,1920.5086331001949,1920.5086331001949,1920.5086331001949,-28,21,-0.16,-0.08000000000000003,return,0.5428483998402953,4,1,0,0,-0.16,-0.08000000000000003,return,0.4522336998488754,,,,,,,,,,,,,,,,,,,,,,,,,,,,,,,,,,,,,,,,,,,,,,,,,,,,,,,,Z5MTJN,train_y,red_square,top_left,2025-07-24_17h36.14.515,HideSeek_v1,2022.2.5,60.36223381086932,
,2,5,2,5,0,0,16,,train_dim1_1,20,30,,,,2,0,2,0,,,,,,,,,0,0,0,0,0,19,19,19,0,0,0,0,,,,,,,,,,,,,,,,,,,,,,,,,stimuli/alien_stimuli/16.png,,,,,,,,,,,,,,,,,,,,,,,,,,,,,stimuli/alien_stimuli/12.png,12,0,21,,,,,,,30,,,,,,,,1925.769746300066,1925.769746300066,1925.769746300066,1925.769746300066,1925.769746300066,,,,,up,2.554034800035879,4,1,0,99,0,0.08,up,2.4708814998157322,1924.1976581001654,-0.16,0,0.32,0.0,0.16,-0.16,-0.16,-0.16,0,1922.643560800003,1922.643560800003,1922.643560800003,1922.643560800003,1922.643560800003,1922.643560800003,1922.643560800003,1922.643560800003,1922.6409090801142,1.6762971999123693,return,1.5275908999610692,,,,,,,,,,,,,,,,,,,,,,,,,,,,,,,,,,Z5MTJN,train_y,red_square,top_left,2025-07-24_17h36.14.515,HideSeek_v1,2022.2.5,60.36223381086932,
,2,5,2,5,0,0,16,,train_dim1_1,20,30,,,,2,0,2,0,,,,,,,,,0,0,0,0,0,19,19,19,1,0,1,0,,,,,,,,,,,,,,,,,,,,,,,,,,,,,,,,,,,,,,,,,,,,,,,,,,,,,,,,,,,,,,,,30,,,,,,,,1928.3312507001683,1928.3312507001683,1928.3312507001683,1928.3312507001683,1928.3312507001683,-27,21,0,0.08,return,0.3951627998612821,4,1,0,0,0,0.08,return,0.31320749991573393,,,,,,,,,,,,,,,,,,,,,,,,,,,,,,,,,,,,,,,,,,,,,,,,,,,,,,,,Z5MTJN,train_y,red_square,top_left,2025-07-24_17h36.14.515,HideSeek_v1,2022.2.5,60.36223381086932,
,2,9,2,8,0,-1,15,,train_dim1_1,21,30,,,,2,0,2,0,,,,,,,,,0,0,0,0,0,20,20,20,0,0,0,0,,,,,,,,,,,,,,,,,,,,,,,,,stimuli/alien_stimuli/15.png,,,,,,,,,,,,,,,,,,,,,,,,,,,,,stimuli/alien_stimuli/16.png,16,2,22,,,,,,,30,,,,,,,,1933.1481489001308,1933.1481489001308,1933.1481489001308,1933.1481489001308,1933.1481489001308,-27,21,0,0.32,return,1.5032346998341382,4,1,0,0,0,0.32,return,1.4181545998435467,1931.5704810000025,0,0,0.0,0.0,0.0,0,0.0,0,0,1930.2965385999996,1930.2965385999996,1930.2965385999996,1930.2965385999996,1930.2965385999996,1930.2965385999996,1930.2965385999996,1930.2965385999996,1930.2971713700563,1.375107100000605,return,1.2516119999345392,,,,,,,,,,,,,,,,,,,,,,,,,,,,,,,,,,Z5MTJN,train_y,red_square,top_left,2025-07-24_17h36.14.515,HideSeek_v1,2022.2.5,60.36223381086932,
,0,7,0,4,0,-3,13,,train_dim1_1,22,30,,,,2,0,2,0,,,,,,,,,0,0,0,0,0,21,21,21,0,0,0,0,,,,,,,,,,,,,,,,,,,,,,,,,stimuli/alien_stimuli/13.png,,,,,,,,,,,,,,,,,,,,,,,,,,,,,stimuli/alien_stimuli/15.png,15,2,23,,,,,,,30,,,,,,,,1938.8790264001582,1938.8790264001582,1938.8790264001582,1938.8790264001582,1938.8790264001582,,,,,right,1.237284200033173,4,1,0,99,-0.08,0.16,right,1.1542112999595702,1937.320421700133,0,0.24,0.08,0.0,0.28,0,0.0,0,0.24,1936.2210383000784,1936.2210383000784,1936.2210383000784,1936.2210383000784,1936.2210383000784,1936.2210383000784,1936.2210383000784,1936.2210383000784,1936.2188578701343,1.2034892002120614,return,1.064722300041467,1938.8790264001582,,,,,,,,,,,,,,,,,,,,,,,,,,,,,,,,,Z5MTJN,train_y,red_square,top_left,2025-07-24_17h36.14.515,HideSeek_v1,2022.2.5,60.36223381086932,
,0,7,0,4,0,-3,13,,train_dim1_1,22,30,,,,2,0,2,0,,,,,,,,,0,0,0,0,0,21,21,21,1,0,1,0,,,,,,,,,,,,,,,,,,,,,,,,,,,,,,,,,,,,,,,,,,,,,,,,,,,,,,,,,,,,,,,,30,,,,,,,,1940.1235864001792,1940.1235864001792,1940.1235864001792,1940.1235864001792,1940.1235864001792,,,,,right,0.44308360014110804,4,1,0,99,0.0,0.16,right,0.3566958997398615,,,,,,,,,,,,,,,,,,,,,,,,,,,,,,,,,,,,,,,,,,,,,,,,,,,,,,,,Z5MTJN,train_y,red_square,top_left,2025-07-24_17h36.14.515,HideSeek_v1,2022.2.5,60.36223381086932,
,0,7,0,4,0,-3,13,,train_dim1_1,22,30,,,,2,0,2,0,,,,,,,,,0,0,0,0,0,21,21,21,2,0,2,0,,,,,,,,,,,,,,,,,,,,,,,,,,,,,,,,,,,,,,,,,,,,,,,,,,,,,,,,,,,,,,,,30,,,,,,,,1940.5743287000805,1940.5743287000805,1940.5743287000805,1940.5743287000805,1940.5743287000805,,,,,right,0.4597926998976618,4,1,0,99,0.08,0.16,right,0.3741325999144465,,,,,,,,,,,,,,,,,,,,,,,,,,,,,,,,,,,,,,,,,,,,,,,,,,,,,,,,Z5MTJN,train_y,red_square,top_left,2025-07-24_17h36.14.515,HideSeek_v1,2022.2.5,60.36223381086932,
,0,7,0,4,0,-3,13,,train_dim1_1,22,30,,,,2,0,2,0,,,,,,,,,0,0,0,0,0,21,21,21,3,0,3,0,,,,,,,,,,,,,,,,,,,,,,,,,,,,,,,,,,,,,,,,,,,,,,,,,,,,,,,,,,,,,,,,30,,,,,,,,1941.0409498000517,1941.0409498000517,1941.0409498000517,1941.0409498000517,1941.0409498000517,-27,24,0.08,0.16,return,2.2613727999851108,4,0,0,0,0.08,0.16,return,2.1840181997977197,,,,,,,,,,,,,,,,,,,,,,,,,,,,,,,,,,,,,,,,,,,,,,,,,,,,,,,,Z5MTJN,train_y,red_square,top_left,2025-07-24_17h36.14.515,HideSeek_v1,2022.2.5,60.36223381086932,
,0,8,0,3,0,-5,11,,train_dim1_1,23,30,,,,2,0,2,0,,,,,,,,,0,0,0,0,0,22,22,22,0,0,0,0,,,,,,,,,,,,,,,,,,,,,,,,,stimuli/alien_stimuli/11.png,,,,,,,,,,,,,,,,,,,,,,,,,,,,,stimuli/alien_stimuli/13.png,13,0,24,,,,,,,30,,,,,,,,1948.1389611000195,1948.1389611000195,1948.1389611000195,1948.1389611000195,1948.1389611000195,,,,,down,3.2216119000222534,4,0,0,99,-0.16,0.15999999999999998,down,3.1349428999237716,1946.5717105001677,-0.16,-0.08,0.24,0.0,0.04,-0.16,-0.16,-0.16,-0.08,1944.8599262000062,1944.8599262000062,1944.8599262000062,1944.8599262000062,1944.8599262000062,1944.8599262000062,1944.8599262000062,1944.8599262000062,1944.859465970122,1.8092990999575704,return,1.6804666998796165,1944.8599262000062,,,,,,,,,,,,,,,,,,,,,,,,,,,,,,,,,Z5MTJN,train_y,red_square,top_left,2025-07-24_17h36.14.515,HideSeek_v1,2022.2.5,60.36223381086932,
,0,8,0,3,0,-5,11,,train_dim1_1,23,30,,,,2,0,2,0,,,,,,,,,0,0,0,0,0,22,22,22,1,0,1,0,,,,,,,,,,,,,,,,,,,,,,,,,,,,,,,,,,,,,,,,,,,,,,,,,,,,,,,,,,,,,,,,30,,,,,,,,1951.368104299996,1951.368104299996,1951.368104299996,1951.368104299996,1951.368104299996,,,,,down,0.4477299000136554,4,0,0,99,-0.16,0.07999999999999997,down,0.366597400046885,,,,,,,,,,,,,,,,,,,,,,,,,,,,,,,,,,,,,,,,,,,,,,,,,,,,,,,,Z5MTJN,train_y,red_square,top_left,2025-07-24_17h36.14.515,HideSeek_v1,2022.2.5,60.36223381086932,
,0,8,0,3,0,-5,11,,train_dim1_1,23,30,,,,2,0,2,0,,,,,,,,,0,0,0,0,0,22,22,22,2,0,2,0,,,,,,,,,,,,,,,,,,,,,,,,,,,,,,,,,,,,,,,,,,,,,,,,,,,,,,,,,,,,,,,,30,,,,,,,,1951.8232117001899,1951.8232117001899,1951.8232117001899,1951.8232117001899,1951.8232117001899,,,,,down,0.5214303000830114,4,0,0,99,-0.16,-2.7755575615628914e-17,down,0.43467499990947545,,,,,,,,,,,,,,,,,,,,,,,,,,,,,,,,,,,,,,,,,,,,,,,,,,,,,,,,Z5MTJN,train_y,red_square,top_left,2025-07-24_17h36.14.515,HideSeek_v1,2022.2.5,60.36223381086932,
,0,8,0,3,0,-5,11,,train_dim1_1,23,30,,,,2,0,2,0,,,,,,,,,0,0,0,0,0,22,22,22,3,0,3,0,,,,,,,,,,,,,,,,,,,,,,,,,,,,,,,,,,,,,,,,,,,,,,,,,,,,,,,,,,,,,,,,30,,,,,,,,1952.3530052001588,1952.3530052001588,1952.3530052001588,1952.3530052001588,1952.3530052001588,,,,,down,0.44316620007157326,4,0,0,99,-0.16,-0.08000000000000003,down,0.3573048999533057,,,,,,,,,,,,,,,,,,,,,,,,,,,,,,,,,,,,,,,,,,,,,,,,,,,,,,,,Z5MTJN,train_y,red_square,top_left,2025-07-24_17h36.14.515,HideSeek_v1,2022.2.5,60.36223381086932,
,0,8,0,3,0,-5,11,,train_dim1_1,23,30,,,,2,0,2,0,,,,,,,,,0,0,0,0,0,22,22,22,4,0,4,0,,,,,,,,,,,,,,,,,,,,,,,,,,,,,,,,,,,,,,,,,,,,,,,,,,,,,,,,,,,,,,,,30,,,,,,,,1952.8011390001047,1952.8011390001047,1952.8011390001047,1952.8011390001047,1952.8011390001047,-31,24,-0.16,-0.08000000000000003,return,0.5098049000371248,4,1,0,0,-0.16,-0.08000000000000003,return,0.4175120999570936,,,,,,,,,,,,,,,,,,,,,,,,,,,,,,,,,,,,,,,,,,,,,,,,,,,,,,,,Z5MTJN,train_y,red_square,top_left,2025-07-24_17h36.14.515,HideSeek_v1,2022.2.5,60.36223381086932,
,3,7,3,7,0,0,16,,train_dim1_1,24,30,,,,2,0,2,0,,,,,,,,,0,0,0,0,0,23,23,23,0,0,0,0,,,,,,,,,,,,,,,,,,,,,,,,,stimuli/alien_stimuli/16.png,,,,,,,,,,,,,,,,,,,,,,,,,,,,,stimuli/alien_stimuli/11.png,11,0,25,,,,,,,30,,,,,,,,1957.8949932001997,1957.8949932001997,1957.8949932001997,1957.8949932001997,1957.8949932001997,,,,,up,2.475252900039777,4,1,0,99,0.08,0.24,up,2.3932512998580933,1956.3246929000597,-0.16,-0.16,0.4,0.0,0.039999999999999994,-0.16,-0.16,-0.16,-0.16,1954.8696965000127,1954.8696965000127,1954.8696965000127,1954.8696965000127,1954.8696965000127,1954.8696965000127,1954.8696965000127,1954.8696965000127,1954.8678515701786,1.5589050999842584,return,1.4390582998748869,1954.8696965000127,,,,,,,,,,,,,,,,,,,,,,,,,,,,,,,,,Z5MTJN,train_y,red_square,top_left,2025-07-24_17h36.14.515,HideSeek_v1,2022.2.5,60.36223381086932,
,3,7,3,7,0,0,16,,train_dim1_1,24,30,,,,2,0,2,0,,,,,,,,,0,0,0,0,0,23,23,23,1,0,1,0,,,,,,,,,,,,,,,,,,,,,,,,,,,,,,,,,,,,,,,,,,,,,,,,,,,,,,,,,,,,,,,,30,,,,,,,,1960.3836066001095,1960.3836066001095,1960.3836066001095,1960.3836066001095,1960.3836066001095,-30,24,0.08,0.24,return,0.7024634999688715,4,1,0,0,0.08,0.24,return,0.6093777997884899,,,,,,,,,,,,,,,,,,,,,,,,,,,,,,,,,,,,,,,,,,,,,,,,,,,,,,,,Z5MTJN,train_y,red_square,top_left,2025-07-24_17h36.14.515,HideSeek_v1,2022.2.5,60.36223381086932,
,3,8,3,4,0,-4,12,,train_dim1_1,25,30,,,,2,0,2,0,,,,,,,,,0,0,0,0,0,24,24,24,0,0,0,0,,,,,,,,,,,,,,,,,,,,,,,,,stimuli/alien_stimuli/12.png,,,,,,,,,,,,,,,,,,,,,,,,,,,,,stimuli/alien_stimuli/16.png,16,3,26,,,,,,,30,,,,,,,,1965.2190980000887,1965.2190980000887,1965.2190980000887,1965.2190980000887,1965.2190980000887,,,,,down,1.1537878999952227,4,1,0,99,0.08,0.15999999999999998,down,1.0630588997155428,1963.652724100044,0.08,0.16,0.0,0.0,0.16,0.08,0.08,0.08,0.16,1962.6405454000924,1962.6405454000924,1962.6405454000924,1962.6405454000924,1962.6405454000924,1962.6405454000924,1962.6405454000924,1962.6405454000924,1962.6408545700133,1.1083817000035197,return,0.9750641998834908,1962.6405454000924,,,,,,,,,,,,,,,,,,,,,,,,,,,,,,,,,Z5MTJN,train_y,red_square,top_left,2025-07-24_17h36.14.515,HideSeek_v1,2022.2.5,60.36223381086932,
,3,8,3,4,0,-4,12,,train_dim1_1,25,30,,,,2,0,2,0,,,,,,,,,0,0,0,0,0,24,24,24,1,0,1,0,,,,,,,,,,,,,,,,,,,,,,,,,,,,,,,,,,,,,,,,,,,,,,,,,,,,,,,,,,,,,,,,30,,,,,,,,1966.3794425001834,1966.3794425001834,1966.3794425001834,1966.3794425001834,1966.3794425001834,,,,,down,0.4201464999932796,4,1,0,99,0.08,0.07999999999999997,down,0.32299240003339946,,,,,,,,,,,,,,,,,,,,,,,,,,,,,,,,,,,,,,,,,,,,,,,,,,,,,,,,Z5MTJN,train_y,red_square,top_left,2025-07-24_17h36.14.515,HideSeek_v1,2022.2.5,60.36223381086932,
,3,8,3,4,0,-4,12,,train_dim1_1,25,30,,,,2,0,2,0,,,,,,,,,0,0,0,0,0,24,24,24,2,0,2,0,,,,,,,,,,,,,,,,,,,,,,,,,,,,,,,,,,,,,,,,,,,,,,,,,,,,,,,,,,,,,,,,30,,,,,,,,1966.8109827002045,1966.8109827002045,1966.8109827002045,1966.8109827002045,1966.8109827002045,,,,,down,0.4504305999726057,4,1,0,99,0.08,-2.7755575615628914e-17,down,0.36526359990239143,,,,,,,,,,,,,,,,,,,,,,,,,,,,,,,,,,,,,,,,,,,,,,,,,,,,,,,,Z5MTJN,train_y,red_square,top_left,2025-07-24_17h36.14.515,HideSeek_v1,2022.2.5,60.36223381086932,
,3,8,3,4,0,-4,12,,train_dim1_1,25,30,,,,2,0,2,0,,,,,,,,,0,0,0,0,0,24,24,24,3,0,3,0,,,,,,,,,,,,,,,,,,,,,,,,,,,,,,,,,,,,,,,,,,,,,,,,,,,,,,,,,,,,,,,,30,,,,,,,,1967.2645181000698,1967.2645181000698,1967.2645181000698,1967.2645181000698,1967.2645181000698,,,,,down,0.3925699999090284,4,1,0,99,0.08,-0.08000000000000003,down,0.3149850997142494,,,,,,,,,,,,,,,,,,,,,,,,,,,,,,,,,,,,,,,,,,,,,,,,,,,,,,,,Z5MTJN,train_y,red_square,top_left,2025-07-24_17h36.14.515,HideSeek_v1,2022.2.5,60.36223381086932,
,3,8,3,4,0,-4,12,,train_dim1_1,25,30,,,,2,0,2,0,,,,,,,,,0,0,0,0,0,24,24,24,4,0,4,0,,,,,,,,,,,,,,,,,,,,,,,,,,,,,,,,,,,,,,,,,,,,,,,,,,,,,,,,,,,,,,,,30,,,,,,,,1967.663318300154,1967.663318300154,1967.663318300154,1967.663318300154,1967.663318300154,,,,,down,0.6933165001682937,4,1,0,99,0.08,-0.16000000000000003,down,0.6076088000554591,,,,,,,,,,,,,,,,,,,,,,,,,,,,,,,,,,,,,,,,,,,,,,,,,,,,,,,,Z5MTJN,train_y,red_square,top_left,2025-07-24_17h36.14.515,HideSeek_v1,2022.2.5,60.36223381086932,
,3,8,3,4,0,-4,12,,train_dim1_1,25,30,,,,2,0,2,0,,,,,,,,,0,0,0,0,0,24,24,24,5,0,5,0,,,,,,,,,,,,,,,,,,,,,,,,,,,,,,,,,,,,,,,,,,,,,,,,,,,,,,,,,,,,,,,,30,,,,,,,,1968.369284400018,1968.369284400018,1968.369284400018,1968.369284400018,1968.369284400018,-35,24,0.08,-0.16000000000000003,return,0.37749100010842085,4,1,0,0,0.08,-0.16000000000000003,return,0.29107649996876717,,,,,,,,,,,,,,,,,,,,,,,,,,,,,,,,,,,,,,,,,,,,,,,,,,,,,,,,Z5MTJN,train_y,red_square,top_left,2025-07-24_17h36.14.515,HideSeek_v1,2022.2.5,60.36223381086932,
,4,9,4,6,0,-3,13,,train_dim1_1,26,30,,,,2,0,2,0,,,,,,,,,0,0,0,0,0,25,25,25,0,0,0,0,,,,,,,,,,,,,,,,,,,,,,,,,stimuli/alien_stimuli/13.png,,,,,,,,,,,,,,,,,,,,,,,,,,,,,stimuli/alien_stimuli/12.png,12,3,27,,,,,,,30,,,,,,,,1973.0420632001478,1973.0420632001478,1973.0420632001478,1973.0420632001478,1973.0420632001478,,,,,down,1.373689099913463,4,1,0,99,0.16,0.24,down,1.2926034999545664,1971.475949899992,0.08,-0.08,0.32,0.0,0.07999999999999999,0.08,0.08,0.08,-0.08,1970.3169167002197,1970.3169167002197,1970.3169167002197,1970.3169167002197,1970.3169167002197,1970.3169167002197,1970.3169167002197,1970.3169167002197,1970.3140331701607,1.2590805999934673,return,1.1258590996731073,,,,,,,,,,,,,,,,,,,,,,,,,,,,,,,,,,Z5MTJN,train_y,red_square,top_left,2025-07-24_17h36.14.515,HideSeek_v1,2022.2.5,60.36223381086932,
,4,9,4,6,0,-3,13,,train_dim1_1,26,30,,,,2,0,2,0,,,,,,,,,0,0,0,0,0,25,25,25,1,0,1,0,,,,,,,,,,,,,,,,,,,,,,,,,,,,,,,,,,,,,,,,,,,,,,,,,,,,,,,,,,,,,,,,30,,,,,,,,1974.4226999999955,1974.4226999999955,1974.4226999999955,1974.4226999999955,1974.4226999999955,,,,,down,0.5223437000531703,4,1,0,99,0.16,0.15999999999999998,down,0.4333776996936649,,,,,,,,,,,,,,,,,,,,,,,,,,,,,,,,,,,,,,,,,,,,,,,,,,,,,,,,Z5MTJN,train_y,red_square,top_left,2025-07-24_17h36.14.515,HideSeek_v1,2022.2.5,60.36223381086932,
,4,9,4,6,0,-3,13,,train_dim1_1,26,30,,,,2,0,2,0,,,,,,,,,0,0,0,0,0,25,25,25,2,0,2,0,,,,,,,,,,,,,,,,,,,,,,,,,,,,,,,,,,,,,,,,,,,,,,,,,,,,,,,,,,,,,,,,30,,,,,,,,1974.9540431001224,1974.9540431001224,1974.9540431001224,1974.9540431001224,1974.9540431001224,,,,,down,0.6437073000706732,4,1,0,99,0.16,0.07999999999999997,down,0.550677299965173,,,,,,,,,,,,,,,,,,,,,,,,,,,,,,,,,,,,,,,,,,,,,,,,,,,,,,,,Z5MTJN,train_y,red_square,top_left,2025-07-24_17h36.14.515,HideSeek_v1,2022.2.5,60.36223381086932,
,4,9,4,6,0,-3,13,,train_dim1_1,26,30,,,,2,0,2,0,,,,,,,,,0,0,0,0,0,25,25,25,3,0,3,0,,,,,,,,,,,,,,,,,,,,,,,,,,,,,,,,,,,,,,,,,,,,,,,,,,,,,,,,,,,,,,,,30,,,,,,,,1975.602565600071,1975.602565600071,1975.602565600071,1975.602565600071,1975.602565600071,,,,,down,1.4441965001169592,4,1,0,99,0.16,-2.7755575615628914e-17,down,1.3681719000451267,,,,,,,,,,,,,,,,,,,,,,,,,,,,,,,,,,,,,,,,,,,,,,,,,,,,,,,,Z5MTJN,train_y,red_square,top_left,2025-07-24_17h36.14.515,HideSeek_v1,2022.2.5,60.36223381086932,
,4,9,4,6,0,-3,13,,train_dim1_1,26,30,,,,2,0,2,0,,,,,,,,,0,0,0,0,0,25,25,25,4,0,4,0,,,,,,,,,,,,,,,,,,,,,,,,,,,,,,,,,,,,,,,,,,,,,,,,,,,,,,,,,,,,,,,,30,,,,,,,,1977.0609491001815,1977.0609491001815,1977.0609491001815,1977.0609491001815,1977.0609491001815,-39,24,0.16,-2.7755575615628914e-17,return,0.9439355998765677,4,1,0,0,0.16,-2.7755575615628914e-17,return,0.8607417999301106,,,,,,,,,,,,,,,,,,,,,,,,,,,,,,,,,,,,,,,,,,,,,,,,,,,,,,,,Z5MTJN,train_y,red_square,top_left,2025-07-24_17h36.14.515,HideSeek_v1,2022.2.5,60.36223381086932,
,3,9,3,9,0,0,16,,train_dim1_1,27,30,,,,2,0,2,0,,,,,,,,,0,0,0,0,0,26,26,26,0,0,0,0,,,,,,,,,,,,,,,,,,,,,,,,,stimuli/alien_stimuli/16.png,,,,,,,,,,,,,,,,,,,,,,,,,,,,,stimuli/alien_stimuli/13.png,13,4,28,,,,,,,30,,,,,,,,1982.6319134000223,1982.6319134000223,1982.6319134000223,1982.6319134000223,1982.6319134000223,,,,,down,2.4055157999973744,4,1,0,99,0.08,0.24,down,2.3209141998086125,1981.073212500196,0.16,0.08,0.24,0.0,0.2,0.16,0.16,0.16,0.08,1979.5648482001852,1979.5648482001852,1979.5648482001852,1979.5648482001852,1979.5648482001852,1979.5648482001852,1979.5648482001852,1979.5648482001852,1979.5556641699977,1.612954700132832,return,1.472485699923709,1979.5648482001852,,,,,,,,,,,,,,,,,,,,,,,,,,,,,,,,,Z5MTJN,train_y,red_square,top_left,2025-07-24_17h36.14.515,HideSeek_v1,2022.2.5,60.36223381086932,
,3,9,3,9,0,0,16,,train_dim1_1,27,30,,,,2,0,2,0,,,,,,,,,0,0,0,0,0,26,26,26,1,0,1,0,,,,,,,,,,,,,,,,,,,,,,,,,,,,,,,,,,,,,,,,,,,,,,,,,,,,,,,,,,,,,,,,30,,,,,,,,1985.0442139001098,1985.0442139001098,1985.0442139001098,1985.0442139001098,1985.0442139001098,-40,24,0.08,0.24,return,0.45968039985746145,4,1,0,0,0.08,0.24,return,0.3722886999603361,,,,,,,,,,,,,,,,,,,,,,,,,,,,,,,,,,,,,,,,,,,,,,,,,,,,,,,,Z5MTJN,train_y,red_square,top_left,2025-07-24_17h36.14.515,HideSeek_v1,2022.2.5,60.36223381086932,
,4,6,4,1,0,-5,11,,train_dim1_1,28,30,,,,2,0,2,0,,,,,,,,,0,0,0,0,0,27,27,27,0,0,0,0,,,,,,,,,,,,,,,,,,,,,,,,,stimuli/alien_stimuli/11.png,,,,,,,,,,,,,,,,,,,,,,,,,,,,,stimuli/alien_stimuli/16.png,16,3,29,,,,,,,30,,,,,,,,1990.0236123001669,1990.0236123001669,1990.0236123001669,1990.0236123001669,1990.0236123001669,,,,,left,1.2359885999467224,4,1,0,99,0.08,0.08,left,1.14528839988634,1988.456520000007,0.08,0.32,0.0,0.0,0.32,0.08,0.08,0.08,0.32,1987.0609124000184,1987.0609124000184,1987.0609124000184,1987.0609124000184,1987.0609124000184,1987.0609124000184,1987.0609124000184,1987.0609124000184,1987.0613528701242,1.4917925999034196,return,1.3711492996662855,1987.0609124000184,,,,,,,,,,,,,,,,,,,,,,,,,,,,,,,,,Z5MTJN,train_y,red_square,top_left,2025-07-24_17h36.14.515,HideSeek_v1,2022.2.5,60.36223381086932,
,4,6,4,1,0,-5,11,,train_dim1_1,28,30,,,,2,0,2,0,,,,,,,,,0,0,0,0,0,27,27,27,1,0,1,0,,,,,,,,,,,,,,,,,,,,,,,,,,,,,,,,,,,,,,,,,,,,,,,,,,,,,,,,,,,,,,,,30,,,,,,,,1991.267355900025,1991.267355900025,1991.267355900025,1991.267355900025,1991.267355900025,,,,,left,0.45889910007826984,4,1,0,99,0.0,0.08,left,0.3703273998107761,,,,,,,,,,,,,,,,,,,,,,,,,,,,,,,,,,,,,,,,,,,,,,,,,,,,,,,,Z5MTJN,train_y,red_square,top_left,2025-07-24_17h36.14.515,HideSeek_v1,2022.2.5,60.36223381086932,
,4,6,4,1,0,-5,11,,train_dim1_1,28,30,,,,2,0,2,0,,,,,,,,,0,0,0,0,0,27,27,27,2,0,2,0,,,,,,,,,,,,,,,,,,,,,,,,,,,,,,,,,,,,,,,,,,,,,,,,,,,,,,,,,,,,,,,,30,,,,,,,,1991.733220500173,1991.733220500173,1991.733220500173,1991.733220500173,1991.733220500173,,,,,left,1.1439648000523448,4,1,0,99,-0.08,0.08,left,1.0514332996681333,,,,,,,,,,,,,,,,,,,,,,,,,,,,,,,,,,,,,,,,,,,,,,,,,,,,,,,,Z5MTJN,train_y,red_square,top_left,2025-07-24_17h36.14.515,HideSeek_v1,2022.2.5,60.36223381086932,
,4,6,4,1,0,-5,11,,train_dim1_1,28,30,,,,2,0,2,0,,,,,,,,,0,0,0,0,0,27,27,27,3,0,3,0,,,,,,,,,,,,,,,,,,,,,,,,,,,,,,,,,,,,,,,,,,,,,,,,,,,,,,,,,,,,,,,,30,,,,,,,,1992.884650300024,1992.884650300024,1992.884650300024,1992.884650300024,1992.884650300024,,,,,right,2.2280729999765754,4,1,0,99,0.0,0.08,right,2.1459937000181526,,,,,,,,,,,,,,,,,,,,,,,,,,,,,,,,,,,,,,,,,,,,,,,,,,,,,,,,Z5MTJN,train_y,red_square,top_left,2025-07-24_17h36.14.515,HideSeek_v1,2022.2.5,60.36223381086932,
,4,6,4,1,0,-5,11,,train_dim1_1,28,30,,,,2,0,2,0,,,,,,,,,0,0,0,0,0,27,27,27,4,0,4,0,,,,,,,,,,,,,,,,,,,,,,,,,,,,,,,,,,,,,,,,,,,,,,,,,,,,,,,,,,,,,,,,30,,,,,,,,1995.119831000222,1995.119831000222,1995.119831000222,1995.119831000222,1995.119831000222,,,,,right,0.2969645999837667,4,1,0,99,0.08,0.08,right,0.2093186997808516,,,,,,,,,,,,,,,,,,,,,,,,,,,,,,,,,,,,,,,,,,,,,,,,,,,,,,,,Z5MTJN,train_y,red_square,top_left,2025-07-24_17h36.14.515,HideSeek_v1,2022.2.5,60.36223381086932,
,4,6,4,1,0,-5,11,,train_dim1_1,28,30,,,,2,0,2,0,,,,,,,,,0,0,0,0,0,27,27,27,5,0,5,0,,,,,,,,,,,,,,,,,,,,,,,,,,,,,,,,,,,,,,,,,,,,,,,,,,,,,,,,,,,,,,,,30,,,,,,,,1995.4239688001107,1995.4239688001107,1995.4239688001107,1995.4239688001107,1995.4239688001107,,,,,right,0.30607010005041957,4,1,0,99,0.16,0.08,right,0.2224502998869866,,,,,,,,,,,,,,,,,,,,,,,,,,,,,,,,,,,,,,,,,,,,,,,,,,,,,,,,Z5MTJN,train_y,red_square,top_left,2025-07-24_17h36.14.515,HideSeek_v1,2022.2.5,60.36223381086932,
,4,6,4,1,0,-5,11,,train_dim1_1,28,30,,,,2,0,2,0,,,,,,,,,0,0,0,0,0,27,27,27,6,0,6,0,,,,,,,,,,,,,,,,,,,,,,,,,,,,,,,,,,,,,,,,,,,,,,,,,,,,,,,,,,,,,,,,30,,,,,,,,1995.7365623000078,1995.7365623000078,1995.7365623000078,1995.7365623000078,1995.7365623000078,,,,,down,0.6597233999054879,4,1,0,99,0.16,0.0,down,0.5707910999190062,,,,,,,,,,,,,,,,,,,,,,,,,,,,,,,,,,,,,,,,,,,,,,,,,,,,,,,,Z5MTJN,train_y,red_square,top_left,2025-07-24_17h36.14.515,HideSeek_v1,2022.2.5,60.36223381086932,
,4,6,4,1,0,-5,11,,train_dim1_1,28,30,,,,2,0,2,0,,,,,,,,,0,0,0,0,0,27,27,27,7,0,7,0,,,,,,,,,,,,,,,,,,,,,,,,,,,,,,,,,,,,,,,,,,,,,,,,,,,,,,,,,,,,,,,,30,,,,,,,,1996.403741300106,1996.403741300106,1996.403741300106,1996.403741300106,1996.403741300106,,,,,down,0.32709599984809756,4,1,0,99,0.16,-0.08,down,0.24367079976946115,,,,,,,,,,,,,,,,,,,,,,,,,,,,,,,,,,,,,,,,,,,,,,,,,,,,,,,,Z5MTJN,train_y,red_square,top_left,2025-07-24_17h36.14.515,HideSeek_v1,2022.2.5,60.36223381086932,
,4,6,4,1,0,-5,11,,train_dim1_1,28,30,,,,2,0,2,0,,,,,,,,,0,0,0,0,0,27,27,27,8,0,8,0,,,,,,,,,,,,,,,,,,,,,,,,,,,,,,,,,,,,,,,,,,,,,,,,,,,,,,,,,,,,,,,,30,,,,,,,,1996.7372159000952,1996.7372159000952,1996.7372159000952,1996.7372159000952,1996.7372159000952,,,,,down,0.6596291998866946,4,1,0,99,0.16,-0.16,down,0.56724669970572,,,,,,,,,,,,,,,,,,,,,,,,,,,,,,,,,,,,,,,,,,,,,,,,,,,,,,,,Z5MTJN,train_y,red_square,top_left,2025-07-24_17h36.14.515,HideSeek_v1,2022.2.5,60.36223381086932,
,4,6,4,1,0,-5,11,,train_dim1_1,28,30,,,,2,0,2,0,,,,,,,,,0,0,0,0,0,27,27,27,9,0,9,0,,,,,,,,,,,,,,,,,,,,,,,,,,,,,,,,,,,,,,,,,,,,,,,,,,,,,,,,,,,,,,,,30,,,,,,,,1997.404290200211,1997.404290200211,1997.404290200211,1997.404290200211,1997.404290200211,,,,,down,0.5596650999505073,4,1,0,99,0.16,-0.24,down,0.47577859996818006,,,,,,,,,,,,,,,,,,,,,,,,,,,,,,,,,,,,,,,,,,,,,,,,,,,,,,,,Z5MTJN,train_y,red_square,top_left,2025-07-24_17h36.14.515,HideSeek_v1,2022.2.5,60.36223381086932,
,4,6,4,1,0,-5,11,,train_dim1_1,28,30,,,,2,0,2,0,,,,,,,,,0,0,0,0,0,27,27,27,10,0,10,0,,,,,,,,,,,,,,,,,,,,,,,,,,,,,,,,,,,,,,,,,,,,,,,,,,,,,,,,,,,,,,,,30,,,,,,,,1997.9712815000676,1997.9712815000676,1997.9712815000676,1997.9712815000676,1997.9712815000676,-44,24,0.16,-0.24,return,0.6774501998443156,4,1,0,0,0.16,-0.24,return,0.5870746998116374,,,,,,,,,,,,,,,,,,,,,,,,,,,,,,,,,,,,,,,,,,,,,,,,,,,,,,,,Z5MTJN,train_y,red_square,top_left,2025-07-24_17h36.14.515,HideSeek_v1,2022.2.5,60.36223381086932,
,2,7,2,3,0,-4,12,,train_dim1_1,29,30,,,,2,0,2,0,,,,,,,,,0,0,0,0,0,28,28,28,0,0,0,0,,,,,,,,,,,,,,,,,,,,,,,,,stimuli/alien_stimuli/12.png,,,,,,,,,,,,,,,,,,,,,,,,,,,,,stimuli/alien_stimuli/11.png,11,4,30,,,,,,,30,,,,,,,,2003.468008800177,2003.468008800177,2003.468008800177,2003.468008800177,2003.468008800177,,,,,down,1.1199720001313835,4,1,0,99,0,0.08,down,1.034737499896437,2001.8934629000723,0.16,-0.32,0.4,0.0,-0.12,0.16,0.16,0.16,-0.32,2000.2218917000573,2000.2218917000573,2000.2218917000573,2000.2218917000573,2000.2218917000573,2000.2218917000573,2000.2218917000573,2000.2218917000573,2000.2222730800975,1.7893626999575645,return,1.64474909985438,2000.2218917000573,,,,,,,,,,,,,,,,,,,,,,,,,,,,,,,,,Z5MTJN,train_y,red_square,top_left,2025-07-24_17h36.14.515,HideSeek_v1,2022.2.5,60.36223381086932,
,2,7,2,3,0,-4,12,,train_dim1_1,29,30,,,,2,0,2,0,,,,,,,,,0,0,0,0,0,28,28,28,1,0,1,0,,,,,,,,,,,,,,,,,,,,,,,,,,,,,,,,,,,,,,,,,,,,,,,,,,,,,,,,,,,,,,,,30,,,,,,,,2004.5968479001895,2004.5968479001895,2004.5968479001895,2004.5968479001895,2004.5968479001895,,,,,down,0.474410800030455,4,1,0,99,0,0.0,down,0.39567489991895854,,,,,,,,,,,,,,,,,,,,,,,,,,,,,,,,,,,,,,,,,,,,,,,,,,,,,,,,Z5MTJN,train_y,red_square,top_left,2025-07-24_17h36.14.515,HideSeek_v1,2022.2.5,60.36223381086932,
,2,7,2,3,0,-4,12,,train_dim1_1,29,30,,,,2,0,2,0,,,,,,,,,0,0,0,0,0,28,28,28,2,0,2,0,,,,,,,,,,,,,,,,,,,,,,,,,,,,,,,,,,,,,,,,,,,,,,,,,,,,,,,,,,,,,,,,30,,,,,,,,2005.0785507000983,2005.0785507000983,2005.0785507000983,2005.0785507000983,2005.0785507000983,,,,,down,0.5433768997900188,4,1,0,99,0,-0.08,down,0.45218069991096854,,,,,,,,,,,,,,,,,,,,,,,,,,,,,,,,,,,,,,,,,,,,,,,,,,,,,,,,Z5MTJN,train_y,red_square,top_left,2025-07-24_17h36.14.515,HideSeek_v1,2022.2.5,60.36223381086932,
,2,7,2,3,0,-4,12,,train_dim1_1,29,30,,,,2,0,2,0,,,,,,,,,0,0,0,0,0,28,28,28,3,0,3,0,,,,,,,,,,,,,,,,,,,,,,,,,,,,,,,,,,,,,,,,,,,,,,,,,,,,,,,,,,,,,,,,30,,,,,,,,2005.6284163000528,2005.6284163000528,2005.6284163000528,2005.6284163000528,2005.6284163000528,,,,,down,0.4291907998267561,4,1,0,99,0,-0.16,down,0.3357317999470979,,,,,,,,,,,,,,,,,,,,,,,,,,,,,,,,,,,,,,,,,,,,,,,,,,,,,,,,Z5MTJN,train_y,red_square,top_left,2025-07-24_17h36.14.515,HideSeek_v1,2022.2.5,60.36223381086932,
,2,7,2,3,0,-4,12,,train_dim1_1,29,30,,,,2,0,2,0,,,,,,,,,0,0,0,0,0,28,28,28,4,0,4,0,,,,,,,,,,,,,,,,,,,,,,,,,,,,,,,,,,,,,,,,,,,,,,,,,,,,,,,,,,,,,,,,30,,,,,,,,2006.0644361001905,2006.0644361001905,2006.0644361001905,2006.0644361001905,2006.0644361001905,,,,,down,0.524255100172013,4,1,0,99,0,-0.24,down,0.4395296999718994,,,,,,,,,,,,,,,,,,,,,,,,,,,,,,,,,,,,,,,,,,,,,,,,,,,,,,,,Z5MTJN,train_y,red_square,top_left,2025-07-24_17h36.14.515,HideSeek_v1,2022.2.5,60.36223381086932,
,2,7,2,3,0,-4,12,,train_dim1_1,29,30,,,,2,0,2,0,,,,,,,,,0,0,0,0,0,28,28,28,5,0,5,0,,,,,,,,,,,,,,,,,,,,,,,,,,,,,,,,,,,,,,,,,,,,,,,,,,,,,,,,,,,,,,,,30,,,,,,,,2006.596797300037,2006.596797300037,2006.596797300037,2006.596797300037,2006.596797300037,,,,,up,1.5607996999751776,4,1,0,99,0,-0.15999999999999998,up,1.4745718997437507,,,,,,,,,,,,,,,,,,,,,,,,,,,,,,,,,,,,,,,,,,,,,,,,,,,,,,,,Z5MTJN,train_y,red_square,top_left,2025-07-24_17h36.14.515,HideSeek_v1,2022.2.5,60.36223381086932,
,2,7,2,3,0,-4,12,,train_dim1_1,29,30,,,,2,0,2,0,,,,,,,,,0,0,0,0,0,28,28,28,6,0,6,0,,,,,,,,,,,,,,,,,,,,,,,,,,,,,,,,,,,,,,,,,,,,,,,,,,,,,,,,,,,,,,,,30,,,,,,,,2008.1661903001368,2008.1661903001368,2008.1661903001368,2008.1661903001368,2008.1661903001368,-48,24,0,-0.15999999999999998,return,0.4919092000927776,5,0,0,1,0,-0.15999999999999998,return,0.4092867998406291,,,,,,,,,,,,,,,,,,,,,,,,,,,,,,,,,,,,,,,,,,,,,,,,,,,,,,,,Z5MTJN,train_y,red_square,top_left,2025-07-24_17h36.14.515,HideSeek_v1,2022.2.5,60.36223381086932,
,0,6,0,5,0,-1,15,,train_dim1_1,30,30,,,,2,0,2,0,,,,,,,,,0,0,0,0,0,29,29,29,0,0,0,0,,,,,,,,,,,,,,,,,,,,,,,,,stimuli/alien_stimuli/15.png,,,,,,,,,,,,,,,,,,,,,,,,,,,,,stimuli/alien_stimuli/12.png,12,2,31,,,,,,,30,,,,,,,,2013.4585148000624,2013.4585148000624,2013.4585148000624,2013.4585148000624,2013.4585148000624,-48,24,-0.16,0.08,return,1.0707485999446362,5,1,0,0,-0.16,0.08,return,0.9882871999870986,2011.8988881001715,0,-0.16,0.32,0.0,0.0,0,0.0,0,-0.16,2010.215761500178,2010.215761500178,2010.215761500178,2010.215761500178,2010.215761500178,2010.215761500178,2010.215761500178,2010.215761500178,2010.2139195701338,1.7809641000349075,return,1.6571182997431606,2010.215761500178,,,,,,,,,,,,,,,,,,,,,,,,,,,,,,,,,Z5MTJN,train_y,red_square,top_left,2025-07-24_17h36.14.515,HideSeek_v1,2022.2.5,60.36223381086932,
,,,,,,,,,,,30,,,,2,0,2,0,,,,,,,,,,,,,,,,,,,,,,,,,,,,,,,,,,,,,,,,,,,,,,,,,,,,,,,,,,,,,,,,,,,,,,,,,,stimuli/alien_stimuli/15.png,15,0,32,21,0.7,0.20833333333333337,1,1,1,30,0,conditions/schedules/train_y_first/red_square_00/top_left/inputTrain_2.1.xlsx,99,1,2,1,0,,,,,,,,,,,,,,,0,,,,,2017.2308947001584,-0.16,0,0.08,0.0,0.04,-0.16,-0.16,-0.16,0,2016.0902910002042,2016.0902910002042,2016.0902910002042,2016.0902910002042,2016.0902910002042,2016.0902910002042,2016.0902910002042,2016.0902910002042,2016.0854569700778,1.2417187998071313,return,1.1033945998642594,2016.0902910002042,0,0.9,0,1,5,,,,,,,,,,,,,,,,,,,,,,,,,,,,Z5MTJN,train_y,red_square,top_left,2025-07-24_17h36.14.515,HideSeek_v1,2022.2.5,60.36223381086932,
,,,,,,,,,,,,,,,3,0,3,0,0,0,0,0,,,,,,,,,,,,,,,,,,,,,,,,,,,,,,,conditions/schedules/train_y_first/red_square_00/top_left/instructions/Slide17.png,conditions/schedules/train_y_first/red_square_00/top_left/instructions/Audio17.wav,2018.800477300072,2018.7876857401336,17,"[6.360839299857616, 17.699039400089532, 16.004241399932653, 19.14737350004725, 4.165281600086018, 4.907242499990389, 5.406047499971464, 11.095366599969566, 6.406678100116551, 6.585834000026807, 10.150853999890387, 13.762754499912262, 17.313454600051045, 16.315365500049666, 43.919786900049075, 22.777461899910122, 50.649643199983984]","[0.014515000162646174, 0.01431649993173778, 0.052656699903309345, 0.00023280014283955097, 0.07322899997234344, 0.08840829995460808, 0.06971209985204041, 0.014246399980038404, 0.03616190003231168, 0.01392679987475276, 0.00020750006660819054, 13.762761400081217, 0.03306609997525811, 16.315372300101444, 0.07507529994472861, 22.7774686999619, 50.64965179981664]",0,,,,,,,,,,,,,,,,,,,,,,,,,,,,,,,,,,,,,,,,,,,,,,,,,,,,,,,,,,,,,,,,,,,,,,,,,,,,,,,,,,,,,,,,,,,,,,,,,,,,,,,,,,,,,,,,,,,,,,,,,,,,Z5MTJN,train_y,red_square,top_left,2025-07-24_17h36.14.515,HideSeek_v1,2022.2.5,60.36223381086932,
,,,,,,,,,,,,,,,3,0,3,0,1,0,1,0,,,,,,,,,,,,,,,,,,,,,,,,,,,,,,,conditions/schedules/train_y_first/red_square_00/top_left/instructions/Slide18.png,conditions/schedules/train_y_first/red_square_00/top_left/instructions/Audio18.wav,2069.519364200067,2069.5188114499906,18,"[6.360839299857616, 17.699039400089532, 16.004241399932653, 19.14737350004725, 4.165281600086018, 4.907242499990389, 5.406047499971464, 11.095366599969566, 6.406678100116551, 6.585834000026807, 10.150853999890387, 13.762754499912262, 17.313454600051045, 16.315365500049666, 43.919786900049075, 22.777461899910122, 50.649643199983984, 5.65743950009346]","[0.014515000162646174, 0.01431649993173778, 0.052656699903309345, 0.00023280014283955097, 0.07322899997234344, 0.08840829995460808, 0.06971209985204041, 0.014246399980038404, 0.03616190003231168, 0.01392679987475276, 0.00020750006660819054, 13.762761400081217, 0.03306609997525811, 16.315372300101444, 0.07507529994472861, 22.7774686999619, 0.00020079989917576313, 5.657446000026539]",0,,,,,,,,,,,,,,,,,,,,,,,,,,,,,,,,,,,,,,,,,,,,,,,,,,,,,,,,,,,,,,,,,,,,,,,,,,,,,,,,,,,,,,,,,,,,,,,,,,,,,,,,,,,,,,,,,,,,,,,,,,,,Z5MTJN,train_y,red_square,top_left,2025-07-24_17h36.14.515,HideSeek_v1,2022.2.5,60.36223381086932,
,,,,,,,,,,,,,,,3,0,3,0,2,0,2,0,,,,,,,,,,,,,,,,,,,,,,,,,,,,,,,conditions/schedules/train_y_first/red_square_00/top_left/instructions/Slide19.png,conditions/schedules/train_y_first/red_square_00/top_left/instructions/Audio19.wav,2075.228247300023,2075.228731440008,19,"[6.360839299857616, 17.699039400089532, 16.004241399932653, 19.14737350004725, 4.165281600086018, 4.907242499990389, 5.406047499971464, 11.095366599969566, 6.406678100116551, 6.585834000026807, 10.150853999890387, 13.762754499912262, 17.313454600051045, 16.315365500049666, 43.919786900049075, 22.777461899910122, 50.649643199983984, 5.65743950009346, 9.733135499991477]","[0.014515000162646174, 0.01431649993173778, 0.052656699903309345, 0.00023280014283955097, 0.07322899997234344, 0.08840829995460808, 0.06971209985204041, 0.014246399980038404, 0.03616190003231168, 0.01392679987475276, 0.00020750006660819054, 13.762761400081217, 0.03306609997525811, 16.315372300101444, 0.07507529994472861, 22.7774686999619, 0.00020079989917576313, 0.055434200214222074, 9.733142800163478]",0,,,,,,,,,,,,,,,,,,,,,,,,,,,,,,,,,,,,,,,,,,,,,,,,,,,,,,,,,,,,,,,,,,,,,,,,,,,,,,,,,,,,,,,,,,,,,,,,,,,,,,,,,,,,,,,,,,,,,,,,,,,,Z5MTJN,train_y,red_square,top_left,2025-07-24_17h36.14.515,HideSeek_v1,2022.2.5,60.36223381086932,
,,,,,,,,,,,,,,,3,0,3,0,3,0,3,0,,,,,,,,,,,,,,,,,,,,,,,,,,,,,,,conditions/schedules/train_y_first/red_square_00/top_left/instructions/Slide20.png,conditions/schedules/train_y_first/red_square_00/top_left/instructions/Audio20.wav,2085.013224299997,2085.0139607401566,20,"[6.360839299857616, 17.699039400089532, 16.004241399932653, 19.14737350004725, 4.165281600086018, 4.907242499990389, 5.406047499971464, 11.095366599969566, 6.406678100116551, 6.585834000026807, 10.150853999890387, 13.762754499912262, 17.313454600051045, 16.315365500049666, 43.919786900049075, 22.777461899910122, 50.649643199983984, 5.65743950009346, 9.733135499991477, 12.089187300065532]","[0.014515000162646174, 0.01431649993173778, 0.052656699903309345, 0.00023280014283955097, 0.07322899997234344, 0.08840829995460808, 0.06971209985204041, 0.014246399980038404, 0.03616190003231168, 0.01392679987475276, 0.00020750006660819054, 13.762761400081217, 0.03306609997525811, 16.315372300101444, 0.07507529994472861, 22.7774686999619, 0.00020079989917576313, 0.055434200214222074, 0.04929800005629659, 12.089194699889049]",0,,,,,,,,,,,,,,,,,,,,,,,,,,,,,,,,,,,,,,,,,,,,,,,,,,,,,,,,,,,,,,,,,,,,,,,,,,,,,,,,,,,,,,,,,,,,,,,,,,,,,,,,,,,,,,,,,,,,,,,,,,,,Z5MTJN,train_y,red_square,top_left,2025-07-24_17h36.14.515,HideSeek_v1,2022.2.5,60.36223381086932,
1,3,7,8,7,5,0,66,2,instr_dim1_2,,,,,,3,0,3,0,,,,,0,0,0,0,,,,,,,,,,,,,,,,,,,,,,,,,,,,,,,,,,,,,stimuli/alien_stimuli/66.png,conditions/schedules/train_y_first/red_square_00/top_left/inputInstr_2.xlsx,stimuli/alien_stimuli/66.png,2097.191867600195,2097.191867600195,2097.191867600195,2097.191867600195,2097.1880075599997,return,9.634291799971834,"[-0.16, -0.08, 0, 0.08, 0.16, 0.24, 0.32, 0.4, 0.48, 0.56]","[-0.4, -0.32, -0.24, -0.16, -0.08, 0, 0.08, 0.16, 0.24, 0.32]",7,7,8,3,0.0,0.4,2106.9667824001517,2106.9667824001517,2106.9667824001517,2106.9667824001517,2106.9667824001517,2106.9667824001517,2106.9667824001517,2106.9444047700845,6.411623300053179,return,6.255286700092256,stimuli/alien_stimuli/66.png,66,3,1,,,,,,,,,,,,,,,,,,,,,,,,,,,,,,,,,,,,,,,,,,,,,,,,,,,,,,,,,,,,,,,,,,,,,,,,,,,,,,,,,,,,,,,,,Z5MTJN,train_y,red_square,top_left,2025-07-24_17h36.14.515,HideSeek_v1,2022.2.5,60.36223381086932,
,,,,,,,,,,,30,,,,3,0,3,0,,,,,,,,,,,,,,,,,,,,,,,,,,,,,,,,,,,,,,,,,,,,,,,,,,,,,,,,,,,,,,,,,,,,,,,,,,,,,,21,0.7,0.20833333333333337,1,99,2,30,0,conditions/schedules/train_y_first/red_square_00/top_left/inputTrain_2.1.xlsx,99,1,2,1,0,,,,,,,,,,,,,,,,,,,,,,,,,,,,,,,,,,,,,,,,,,,,,,,,,,,,,,,,,,,,,,,,,,,,,,,,,,,Z5MTJN,train_y,red_square,top_left,2025-07-24_17h36.14.515,HideSeek_v1,2022.2.5,60.36223381086932,
,,,,,,,,,,,,,,,4,0,4,0,0,0,0,0,,,,,,,,,,,,,,,,,,,,,,,,,,,,,,,conditions/schedules/train_y_first/red_square_00/top_left/instructions/Slide21.png,conditions/schedules/train_y_first/red_square_00/top_left/instructions/Audio21.wav,2113.384623900056,2113.372093280032,21,"[6.360839299857616, 17.699039400089532, 16.004241399932653, 19.14737350004725, 4.165281600086018, 4.907242499990389, 5.406047499971464, 11.095366599969566, 6.406678100116551, 6.585834000026807, 10.150853999890387, 13.762754499912262, 17.313454600051045, 16.315365500049666, 43.919786900049075, 22.777461899910122, 50.649643199983984, 5.65743950009346, 9.733135499991477, 12.089187300065532, 14.78003769996576]","[0.014515000162646174, 0.01431649993173778, 0.052656699903309345, 0.00023280014283955097, 0.07322899997234344, 0.08840829995460808, 0.06971209985204041, 0.014246399980038404, 0.03616190003231168, 0.01392679987475276, 0.00020750006660819054, 13.762761400081217, 0.03306609997525811, 16.315372300101444, 0.07507529994472861, 22.7774686999619, 0.00020079989917576313, 0.055434200214222074, 0.04929800005629659, 12.089194699889049, 14.780044500017539]",0,,,,,,,,,,,,,,,,,,,,,,,,,,,,,,,,,,,,,,,,,,,,,,,,,,,,,,,,,,,,,,,,,,,,,,,,,,,,,,,,,,,,,,,,,,,,,,,,,,,,,,,,,,,,,,,,,,,,,,,,,,,,Z5MTJN,train_y,red_square,top_left,2025-07-24_17h36.14.515,HideSeek_v1,2022.2.5,60.36223381086932,
2,4,5,4,5,0,0,16,2,instr_dim1_2,,,,,,4,0,4,0,,,,,0,0,0,0,,,,,,,,,,,,,,,,,,,,,,,,,,,,,,,,,,,,,stimuli/alien_stimuli/16.png,conditions/schedules/train_y_first/red_square_00/top_left/inputInstr_2.xlsx,stimuli/alien_stimuli/16.png,2128.2582154001575,2128.2582154001575,2128.2582154001575,2128.2582154001575,2128.250583960116,return,6.431610200088471,"[-0.16, -0.08, 0, 0.08, 0.16, 0.24, 0.32, 0.4, 0.48, 0.56]","[-0.4, -0.32, -0.24, -0.16, -0.08, 0, 0.08, 0.16, 0.24, 0.32]",5,5,4,4,0.0,0.0,2134.863171200035,2134.863171200035,2134.863171200035,2134.863171200035,2134.863171200035,2134.863171200035,2134.863171200035,2134.850599990203,6.424228399991989,return,6.248147199861705,stimuli/alien_stimuli/16.png,16,4,2,,,,,,,,,,,,,,,,,,,,,,,,,,,,,,,,,,,,,,,,,,,,,,,,,,,,,,,,,,,,,,,,,,,,,,,,,,,,,,,,,,,,,,,,,Z5MTJN,train_y,red_square,top_left,2025-07-24_17h36.14.515,HideSeek_v1,2022.2.5,60.36223381086932,
,,,,,,,,,,,30,,,,4,0,4,0,,,,,,,,,,,,,,,,,,,,,,,,,,,,,,,,,,,,,,,,,,,,,,,,,,,,,,,,,,,,,,,,,,,,,,,,,,,,,,21,0.7,0.20833333333333337,1,99,2,30,0,conditions/schedules/train_y_first/red_square_00/top_left/inputTrain_2.1.xlsx,99,1,2,1,0,,,,,,,,,,,,,,,,,,,,,,,,,,,,,,,,,,,,,,,,,,,,,,,,,,,,,,,,,,,,,,,,,,,,,,,,,,,Z5MTJN,train_y,red_square,top_left,2025-07-24_17h36.14.515,HideSeek_v1,2022.2.5,60.36223381086932,
