trialInstr,x_fixStart,y_fixStart,x_corrSteps,y_corrSteps,x_nrSteps,y_nrSteps,alienID,trialLength,version,trialTrain,praclen,testlen,trial_label,break_on_off,beforeExpLoop.thisRepN,beforeExpLoop.thisTrialN,beforeExpLoop.thisN,beforeExpLoop.thisIndex,mini_instr_trials.thisRepN,mini_instr_trials.thisTrialN,mini_instr_trials.thisN,mini_instr_trials.thisIndex,instrLoop.thisRepN,instrLoop.thisTrialN,instrLoop.thisN,instrLoop.thisIndex,repeat_prac.thisRepN,repeat_prac.thisTrialN,repeat_prac.thisN,repeat_prac.thisIndex,trainLoop.thisRepN,trainLoop.thisTrialN,trainLoop.thisN,trainLoop.thisIndex,moveLoop_train.thisRepN,moveLoop_train.thisTrialN,moveLoop_train.thisN,moveLoop_train.thisIndex,experiment.thisRepN,experiment.thisTrialN,experiment.thisN,experiment.thisIndex,moveLoop_test.thisRepN,moveLoop_test.thisTrialN,moveLoop_test.thisN,moveLoop_test.thisIndex,mini_instr2_trials.thisRepN,mini_instr2_trials.thisTrialN,mini_instr2_trials.thisN,mini_instr2_trials.thisIndex,start_all_time,url,slideStim,audioStim,slides.started,sounds.started,nextButton.numClicks,nextButton.timesOn,nextButton.timesOff,prev_but.numClicks,prev_but.timesOn,prev_but.timesOff,alienStim,instrFile,alienStim_instr,gridImage_instr.started,startPos_3.started,key_instr.started,alienImage_3.started,sounds_1.started,key_instr.keys,key_instr.rt,all_x,all_y,FBy_corrSteps,FBy_fixStart,FBx_corrSteps,FBx_fixStart,FBy_pathSize_check,FBx_pathSize_check,gridImage_9.started,alienImageFB_3.started,startPosFB_3.started,keyFB_3.started,pathLine_ydir_2.started,pathLine_xdir_2.started,alienFace_3.started,sounds_2.started,RTFB_instr,keyFB_3.keys,keyFB_3.rt,draw_alienStim,draw_alienID,test_x,nrepcount,perfthres,percthres,earlierperf,earlystop,nextPrac,fileidx,praclen,saveACC_train,pracFile,nextPrac_train,addNrep,fileidx_endr,repExp,showearly,gridImage_4.started,startPos.started,movePos.started,key_resp.started,alienImage.started,buttonPress_train,RTchoice_train,cumAcctrain,aCorr,saveACC_choice,corrAns,x_movePos_end,y_movePos_end,key_resp.keys,key_resp.rt,wLy_dir,wLx_dir,x_movePos,y_movePos,text_2.started,text_2.stopped,aft_x_corrPos,aft_y_corrPos,y_pathSize_check,x_pathSize_check,y_pathdirY,x_pathdirY,x_pathdirX,x_corrPos,y_corrPos,gridImage_6.started,alienImageFB_2.started,startPosFB_2.started,movePosFB_2.started,keyFB_2.started,pathLine_xdir.started,pathLine_ydir.started,alienFace.started,sounds_4.started,RT_FBtrain,keyFB_2.keys,keyFB_2.rt,saveACC_pre,ACC,within_saveACC_train,earlystop_wloop,cumAcctrain_check,gridImage_3.started,alienImage_test.started,startPos_test.started,movePos_test.started,key_resp_test.started,wLy_dir_test,wLx_dir_test,buttonPress_test,RTchoice_test,cumAcctest,corrAns_test,key_resp_test.keys,key_resp_test.rt,text_3.started,text_3.stopped,total_time,end_all_time,key_resp_3.keys,slides_2.started,sounds_3.started,nextButton_2.numClicks,nextButton_2.timesOn,nextButton_2.timesOff,prev_but_2.numClicks,prev_but_2.timesOn,prev_but_2.timesOff,bye.started,participant,train_first,00_coordinate,starting corner,date,expName,psychopyVersion,frameRate,
,,,,,,,,,,,,,,,0,0,0,0,0,0,0,0,,,,,,,,,,,,,,,,,,,,,,,,,,,,,start_all_time,testround,conditions/schedules/train_y_first/blue_star_00/top_right/instructions/Slide1.png,conditions/schedules/train_y_first/blue_star_00/top_right/instructions/Audio1.wav,2011.1780660999939,2011.1263018003199,1,[7.964150600135326],[7.9641605000942945],0,,,,,,,,,,,,,,,,,,,,,,,,,,,,,,,,,,,,,,,,,,,,,,,,,,,,,,,,,,,,,,,,,,,,,,,,,,,,,,,,,,,,,,,,,,,,,,,,,,,,,,,,,,,,,,,,,,,,,,,,,,,,Z7NTMK,train_y,blue_star,top_right,2025-04-04_14h27.13.572,HideSeek_v1,2022.2.5,59.93443176265626,
,,,,,,,,,,,,,,,0,0,0,0,1,0,1,0,,,,,,,,,,,,,,,,,,,,,,,,,,,,,,,conditions/schedules/train_y_first/blue_star_00/top_right/instructions/Slide2.png,conditions/schedules/train_y_first/blue_star_00/top_right/instructions/Audio2.wav,2019.1587153000291,2019.1611877500545,2,"[7.964150600135326, 18.048436200013384]","[7.9641605000942945, 18.048443800071254]",0,,,,,,,,,,,,,,,,,,,,,,,,,,,,,,,,,,,,,,,,,,,,,,,,,,,,,,,,,,,,,,,,,,,,,,,,,,,,,,,,,,,,,,,,,,,,,,,,,,,,,,,,,,,,,,,,,,,,,,,,,,,,Z7NTMK,train_y,blue_star,top_right,2025-04-04_14h27.13.572,HideSeek_v1,2022.2.5,59.93443176265626,
,,,,,,,,,,,,,,,0,0,0,0,2,0,2,0,,,,,,,,,,,,,,,,,,,,,,,,,,,,,,,conditions/schedules/train_y_first/blue_star_00/top_right/instructions/Slide3.png,conditions/schedules/train_y_first/blue_star_00/top_right/instructions/Audio3.wav,2037.2870934000239,2037.2762526499573,3,"[7.964150600135326, 18.048436200013384, 16.51712660002522]","[7.9641605000942945, 0.014177799923345447, 16.517133299959823]",0,,,,,,,,,,,,,,,,,,,,,,,,,,,,,,,,,,,,,,,,,,,,,,,,,,,,,,,,,,,,,,,,,,,,,,,,,,,,,,,,,,,,,,,,,,,,,,,,,,,,,,,,,,,,,,,,,,,,,,,,,,,,Z7NTMK,train_y,blue_star,top_right,2025-04-04_14h27.13.572,HideSeek_v1,2022.2.5,59.93443176265626,
,,,,,,,,,,,,,,,0,0,0,0,3,0,3,0,,,,,,,,,,,,,,,,,,,,,,,,,,,,,,,conditions/schedules/train_y_first/blue_star_00/top_right/instructions/Slide4.png,conditions/schedules/train_y_first/blue_star_00/top_right/instructions/Audio4.wav,2053.886249499861,2053.8734827500302,4,"[7.964150600135326, 18.048436200013384, 16.51712660002522, 18.9671269999817]","[7.9641605000942945, 0.014177799923345447, 0.00020890007726848125, 18.96713380003348]",0,,,,,,,,,,,,,,,,,,,,,,,,,,,,,,,,,,,,,,,,,,,,,,,,,,,,,,,,,,,,,,,,,,,,,,,,,,,,,,,,,,,,,,,,,,,,,,,,,,,,,,,,,,,,,,,,,,,,,,,,,,,,Z7NTMK,train_y,blue_star,top_right,2025-04-04_14h27.13.572,HideSeek_v1,2022.2.5,59.93443176265626,
,,,,,,,,,,,,,,,0,0,0,0,4,0,4,0,,,,,,,,,,,,,,,,,,,,,,,,,,,,,,,conditions/schedules/train_y_first/blue_star_00/top_right/instructions/Slide5.png,conditions/schedules/train_y_first/blue_star_00/top_right/instructions/Audio5.wav,2072.922372299945,2072.922633549897,5,"[7.964150600135326, 18.048436200013384, 16.51712660002522, 18.9671269999817, 4.734600200084969]","[7.9641605000942945, 0.014177799923345447, 0.00020890007726848125, 0.0636525999289006, 4.734607300022617]",0,,,,,,,,,,,,,,,,,,,,,,,,,,,,,,,,,,,,,,,,,,,,,,,,,,,,,,,,,,,,,,,,,,,,,,,,,,,,,,,,,,,,,,,,,,,,,,,,,,,,,,,,,,,,,,,,,,,,,,,,,,,,Z7NTMK,train_y,blue_star,top_right,2025-04-04_14h27.13.572,HideSeek_v1,2022.2.5,59.93443176265626,
,,,,,,,,,,,,,,,0,0,0,0,5,0,5,0,,,,,,,,,,,,,,,,,,,,,,,,,,,,,,,conditions/schedules/train_y_first/blue_star_00/top_right/instructions/Slide6.png,conditions/schedules/train_y_first/blue_star_00/top_right/instructions/Audio6.wav,2077.7091570999473,2077.710136799887,6,"[7.964150600135326, 18.048436200013384, 16.51712660002522, 18.9671269999817, 4.734600200084969, 4.602391900029033]","[7.9641605000942945, 0.014177799923345447, 0.00020890007726848125, 0.0636525999289006, 0.048381400061771274, 4.602398599963635]",0,,,,,,,,,,,,,,,,,,,,,,,,,,,,,,,,,,,,,,,,,,,,,,,,,,,,,,,,,,,,,,,,,,,,,,,,,,,,,,,,,,,,,,,,,,,,,,,,,,,,,,,,,,,,,,,,,,,,,,,,,,,,Z7NTMK,train_y,blue_star,top_right,2025-04-04_14h27.13.572,HideSeek_v1,2022.2.5,59.93443176265626,
,,,,,,,,,,,,,,,0,0,0,0,6,0,6,0,,,,,,,,,,,,,,,,,,,,,,,,,,,,,,,conditions/schedules/train_y_first/blue_star_00/top_right/instructions/Slide7.png,conditions/schedules/train_y_first/blue_star_00/top_right/instructions/Audio7.wav,2082.361393699888,2082.364093700005,7,"[7.964150600135326, 18.048436200013384, 16.51712660002522, 18.9671269999817, 4.734600200084969, 4.602391900029033, 5.821179299848154]","[7.9641605000942945, 0.014177799923345447, 0.00020890007726848125, 0.0636525999289006, 0.048381400061771274, 0.032381400000303984, 5.821186299901456]",0,,,,,,,,,,,,,,,,,,,,,,,,,,,,,,,,,,,,,,,,,,,,,,,,,,,,,,,,,,,,,,,,,,,,,,,,,,,,,,,,,,,,,,,,,,,,,,,,,,,,,,,,,,,,,,,,,,,,,,,,,,,,Z7NTMK,train_y,blue_star,top_right,2025-04-04_14h27.13.572,HideSeek_v1,2022.2.5,59.93443176265626,
,,,,,,,,,,,,,,,0,0,0,0,7,0,7,0,,,,,,,,,,,,,,,,,,,,,,,,,,,,,,,conditions/schedules/train_y_first/blue_star_00/top_right/instructions/Slide8.png,conditions/schedules/train_y_first/blue_star_00/top_right/instructions/Audio8.wav,2088.2371924000327,2088.2355042999147,8,"[7.964150600135326, 18.048436200013384, 16.51712660002522, 18.9671269999817, 4.734600200084969, 4.602391900029033, 5.821179299848154, 12.039101100061089]","[7.9641605000942945, 0.014177799923345447, 0.00020890007726848125, 0.0636525999289006, 0.048381400061771274, 0.032381400000303984, 0.047030000016093254, 12.039108199998736]",0,,,,,,,,,,,,,,,,,,,,,,,,,,,,,,,,,,,,,,,,,,,,,,,,,,,,,,,,,,,,,,,,,,,,,,,,,,,,,,,,,,,,,,,,,,,,,,,,,,,,,,,,,,,,,,,,,,,,,,,,,,,,Z7NTMK,train_y,blue_star,top_right,2025-04-04_14h27.13.572,HideSeek_v1,2022.2.5,59.93443176265626,
,,,,,,,,,,,,,,,0,0,0,0,8,0,8,0,,,,,,,,,,,,,,,,,,,,,,,,,,,,,,,conditions/schedules/train_y_first/blue_star_00/top_right/instructions/Slide9.png,conditions/schedules/train_y_first/blue_star_00/top_right/instructions/Audio9.wav,2100.3447515999433,2100.3453373499215,9,"[7.964150600135326, 18.048436200013384, 16.51712660002522, 18.9671269999817, 4.734600200084969, 4.602391900029033, 5.821179299848154, 12.039101100061089, 6.373262299923226]","[7.9641605000942945, 0.014177799923345447, 0.00020890007726848125, 0.0636525999289006, 0.048381400061771274, 0.032381400000303984, 0.047030000016093254, 0.04800270008854568, 6.373270899988711]",0,,,,,,,,,,,,,,,,,,,,,,,,,,,,,,,,,,,,,,,,,,,,,,,,,,,,,,,,,,,,,,,,,,,,,,,,,,,,,,,,,,,,,,,,,,,,,,,,,,,,,,,,,,,,,,,,,,,,,,,,,,,,Z7NTMK,train_y,blue_star,top_right,2025-04-04_14h27.13.572,HideSeek_v1,2022.2.5,59.93443176265626,
,,,,,,,,,,,,,,,0,0,0,0,9,0,9,0,,,,,,,,,,,,,,,,,,,,,,,,,,,,,,,conditions/schedules/train_y_first/blue_star_00/top_right/instructions/Slide10.png,conditions/schedules/train_y_first/blue_star_00/top_right/instructions/Audio10.wav,2106.7569385999814,2106.7519547500183,10,"[7.964150600135326, 18.048436200013384, 16.51712660002522, 18.9671269999817, 4.734600200084969, 4.602391900029033, 5.821179299848154, 12.039101100061089, 6.373262299923226, 6.7794445001054555]","[7.9641605000942945, 0.014177799923345447, 0.00020890007726848125, 0.0636525999289006, 0.048381400061771274, 0.032381400000303984, 0.047030000016093254, 0.04800270008854568, 0.06289519998244941, 6.779450700152665]",0,,,,,,,,,,,,,,,,,,,,,,,,,,,,,,,,,,,,,,,,,,,,,,,,,,,,,,,,,,,,,,,,,,,,,,,,,,,,,,,,,,,,,,,,,,,,,,,,,,,,,,,,,,,,,,,,,,,,,,,,,,,,Z7NTMK,train_y,blue_star,top_right,2025-04-04_14h27.13.572,HideSeek_v1,2022.2.5,59.93443176265626,
,,,,,,,,,,,,,,,0,0,0,0,10,0,10,0,,,,,,,,,,,,,,,,,,,,,,,,,,,,,,,conditions/schedules/train_y_first/blue_star_00/top_right/instructions/Slide11.png,conditions/schedules/train_y_first/blue_star_00/top_right/instructions/Audio11.wav,2113.5761065999977,2113.5726970500314,11,"[7.964150600135326, 18.048436200013384, 16.51712660002522, 18.9671269999817, 4.734600200084969, 4.602391900029033, 5.821179299848154, 12.039101100061089, 6.373262299923226, 6.7794445001054555, 10.468642400112003]","[7.9641605000942945, 0.014177799923345447, 0.00020890007726848125, 0.0636525999289006, 0.048381400061771274, 0.032381400000303984, 0.047030000016093254, 0.04800270008854568, 0.06289519998244941, 0.0785846000071615, 10.468649600166827]",0,,,,,,,,,,,,,,,,,,,,,,,,,,,,,,,,,,,,,,,,,,,,,,,,,,,,,,,,,,,,,,,,,,,,,,,,,,,,,,,,,,,,,,,,,,,,,,,,,,,,,,,,,,,,,,,,,,,,,,,,,,,,Z7NTMK,train_y,blue_star,top_right,2025-04-04_14h27.13.572,HideSeek_v1,2022.2.5,59.93443176265626,
,,,,,,,,,,,,,,,0,0,0,0,11,0,11,0,,,,,,,,,,,,,,,,,,,,,,,,,,,,,,,conditions/schedules/train_y_first/blue_star_00/top_right/instructions/Slide12.png,conditions/schedules/train_y_first/blue_star_00/top_right/instructions/Audio12.wav,2124.1171676998492,2124.114991949871,12,"[7.964150600135326, 18.048436200013384, 16.51712660002522, 18.9671269999817, 4.734600200084969, 4.602391900029033, 5.821179299848154, 12.039101100061089, 6.373262299923226, 6.7794445001054555, 10.468642400112003, 13.890629600035027]","[7.9641605000942945, 0.014177799923345447, 0.00020890007726848125, 0.0636525999289006, 0.048381400061771274, 0.032381400000303984, 0.047030000016093254, 0.04800270008854568, 0.06289519998244941, 0.0785846000071615, 0.0303356999065727, 13.890636099968106]",0,,,,,,,,,,,,,,,,,,,,,,,,,,,,,,,,,,,,,,,,,,,,,,,,,,,,,,,,,,,,,,,,,,,,,,,,,,,,,,,,,,,,,,,,,,,,,,,,,,,,,,,,,,,,,,,,,,,,,,,,,,,,Z7NTMK,train_y,blue_star,top_right,2025-04-04_14h27.13.572,HideSeek_v1,2022.2.5,59.93443176265626,
1,5,8,5,3,0,-5,66,2,instr_dim1_1,,,,,,0,0,0,0,,,,,0,0,0,0,,,,,,,,,,,,,,,,,,,,,,,,,,,,,,,,,,,,,stimuli/alien_stimuli/66.png,conditions/schedules/train_y_first/blue_star_00/top_right/inputInstr_1.xlsx,stimuli/alien_stimuli/66.png,2138.105688399868,2138.105688399868,2138.105688399868,2138.105688399868,2138.0936368999073,return,8.141728299902752,"[-0.16, -0.08, 0, 0.08, 0.16, 0.24, 0.32, 0.4, 0.48, 0.56]","[-0.4, -0.32, -0.24, -0.16, -0.08, 0, 0.08, 0.16, 0.24, 0.32]",3,8,5,5,0.4,0.0,2146.394167699851,2146.394167699851,2146.394167699851,2146.394167699851,2146.394167699851,2146.394167699851,2146.394167699851,2146.383854799997,10.292477599810809,return,10.146284100133926,stimuli/alien_stimuli/66.png,66,5,1,,,,,,,,,,,,,,,,,,,,,,,,,,,,,,,,,,,,,,,,,,,,,,,,,,,,,,,,,,,,,,,,,,,,,,,,,,,,,,,,,,,,,,,,,Z7NTMK,train_y,blue_star,top_right,2025-04-04_14h27.13.572,HideSeek_v1,2022.2.5,59.93443176265626,
,,,,,,,,,,,30,,,,0,0,0,0,,,,,,,,,,,,,,,,,,,,,,,,,,,,,,,,,,,,,,,,,,,,,,,,,,,,,,,,,,,,,,,,,,,,,,,,,,,,,,21,0.7,0,0,99,1,30,0,conditions/schedules/train_y_first/blue_star_00/top_right/inputTrain_1.1.xlsx,99,1,1,1,0,,,,,,,,,,,,,,,,,,,,,,,,,,,,,,,,,,,,,,,,,,,,,,,,,,,,,,,,,,,,,,,,,,,,,,,,,,,Z7NTMK,train_y,blue_star,top_right,2025-04-04_14h27.13.572,HideSeek_v1,2022.2.5,59.93443176265626,
,,,,,,,,,,,,,,,1,0,1,0,0,0,0,0,,,,,,,,,,,,,,,,,,,,,,,,,,,,,,,conditions/schedules/train_y_first/blue_star_00/top_right/instructions/Slide13.png,conditions/schedules/train_y_first/blue_star_00/top_right/instructions/Audio13.wav,2156.70168609987,2156.692118849885,13,"[7.964150600135326, 18.048436200013384, 16.51712660002522, 18.9671269999817, 4.734600200084969, 4.602391900029033, 5.821179299848154, 12.039101100061089, 6.373262299923226, 6.7794445001054555, 10.468642400112003, 13.890629600035027, 17.58611339982599]","[7.9641605000942945, 0.014177799923345447, 0.00020890007726848125, 0.0636525999289006, 0.048381400061771274, 0.032381400000303984, 0.047030000016093254, 0.04800270008854568, 0.06289519998244941, 0.0785846000071615, 0.0303356999065727, 13.890636099968106, 17.586121500004083]",0,,,,,,,,,,,,,,,,,,,,,,,,,,,,,,,,,,,,,,,,,,,,,,,,,,,,,,,,,,,,,,,,,,,,,,,,,,,,,,,,,,,,,,,,,,,,,,,,,,,,,,,,,,,,,,,,,,,,,,,,,,,,Z7NTMK,train_y,blue_star,top_right,2025-04-04_14h27.13.572,HideSeek_v1,2022.2.5,59.93443176265626,
,,,,,,,,,,,,,,,1,0,1,0,1,0,1,0,,,,,,,,,,,,,,,,,,,,,,,,,,,,,,,conditions/schedules/train_y_first/blue_star_00/top_right/instructions/Slide14.png,conditions/schedules/train_y_first/blue_star_00/top_right/instructions/Audio14.wav,2174.355472399853,2174.3569266500417,14,"[7.964150600135326, 18.048436200013384, 16.51712660002522, 18.9671269999817, 4.734600200084969, 4.602391900029033, 5.821179299848154, 12.039101100061089, 6.373262299923226, 6.7794445001054555, 10.468642400112003, 13.890629600035027, 17.58611339982599, 16.329563200008124]","[7.9641605000942945, 0.014177799923345447, 0.00020890007726848125, 0.0636525999289006, 0.048381400061771274, 0.032381400000303984, 0.047030000016093254, 0.04800270008854568, 0.06289519998244941, 0.0785846000071615, 0.0303356999065727, 13.890636099968106, 0.014062299858778715, 16.32957089995034]",0,,,,,,,,,,,,,,,,,,,,,,,,,,,,,,,,,,,,,,,,,,,,,,,,,,,,,,,,,,,,,,,,,,,,,,,,,,,,,,,,,,,,,,,,,,,,,,,,,,,,,,,,,,,,,,,,,,,,,,,,,,,,Z7NTMK,train_y,blue_star,top_right,2025-04-04_14h27.13.572,HideSeek_v1,2022.2.5,59.93443176265626,
2,7,8,7,8,0,0,61,2,instr_dim1_1,,,,,,1,0,1,0,,,,,0,0,0,0,,,,,,,,,,,,,,,,,,,,,,,,,,,,,,,,,,,,,stimuli/alien_stimuli/61.png,conditions/schedules/train_y_first/blue_star_00/top_right/inputInstr_1.xlsx,stimuli/alien_stimuli/61.png,2190.780719799921,2190.780719799921,2190.780719799921,2190.780719799921,2190.770885399962,return,4.082542600110173,"[-0.16, -0.08, 0, 0.08, 0.16, 0.24, 0.32, 0.4, 0.48, 0.56]","[-0.4, -0.32, -0.24, -0.16, -0.08, 0, 0.08, 0.16, 0.24, 0.32]",8,8,7,7,0.0,0.0,2195.01083569997,2195.01083569997,2195.01083569997,2195.01083569997,2195.01083569997,2195.01083569997,2195.01083569997,2195.007459599851,9.275334500009194,return,9.129474699962884,stimuli/alien_stimuli/61.png,61,7,2,,,,,,,,,,,,,,,,,,,,,,,,,,,,,,,,,,,,,,,,,,,,,,,,,,,,,,,,,,,,,,,,,,,,,,,,,,,,,,,,,,,,,,,,,Z7NTMK,train_y,blue_star,top_right,2025-04-04_14h27.13.572,HideSeek_v1,2022.2.5,59.93443176265626,
,,,,,,,,,,,30,,,,1,0,1,0,,,,,,,,,,,,,,,,,,,,,,,,,,,,,,,,,,,,,,,,,,,,,,,,,,,,,,,,,,,,,,,,,,,,,,,,,,,,,,21,0.7,0,0,99,1,30,0,conditions/schedules/train_y_first/blue_star_00/top_right/inputTrain_1.1.xlsx,99,1,1,1,0,,,,,,,,,,,,,,,,,,,,,,,,,,,,,,,,,,,,,,,,,,,,,,,,,,,,,,,,,,,,,,,,,,,,,,,,,,,Z7NTMK,train_y,blue_star,top_right,2025-04-04_14h27.13.572,HideSeek_v1,2022.2.5,59.93443176265626,
,,,,,,,,,,,,,,,2,0,2,0,0,0,0,0,,,,,,,,,,,,,,,,,,,,,,,,,,,,,,,conditions/schedules/train_y_first/blue_star_00/top_right/instructions/Slide15.png,conditions/schedules/train_y_first/blue_star_00/top_right/instructions/Audio15.wav,2204.30123179988,2204.2984556500337,15,"[7.964150600135326, 18.048436200013384, 16.51712660002522, 18.9671269999817, 4.734600200084969, 4.602391900029033, 5.821179299848154, 12.039101100061089, 6.373262299923226, 6.7794445001054555, 10.468642400112003, 13.890629600035027, 17.58611339982599, 16.329563200008124, 43.46372019988485]","[7.9641605000942945, 0.014177799923345447, 0.00020890007726848125, 0.0636525999289006, 0.048381400061771274, 0.032381400000303984, 0.047030000016093254, 0.04800270008854568, 0.06289519998244941, 0.0785846000071615, 0.0303356999065727, 13.890636099968106, 0.014062299858778715, 16.32957089995034, 43.46372799994424]",0,,,,,,,,,,,,,,,,,,,,,,,,,,,,,,,,,,,,,,,,,,,,,,,,,,,,,,,,,,,,,,,,,,,,,,,,,,,,,,,,,,,,,,,,,,,,,,,,,,,,,,,,,,,,,,,,,,,,,,,,,,,,Z7NTMK,train_y,blue_star,top_right,2025-04-04_14h27.13.572,HideSeek_v1,2022.2.5,59.93443176265626,
,,,,,,,,,,,,,,,2,0,2,0,1,0,1,0,,,,,,,,,,,,,,,,,,,,,,,,,,,,,,,conditions/schedules/train_y_first/blue_star_00/top_right/instructions/Slide16.png,conditions/schedules/train_y_first/blue_star_00/top_right/instructions/Audio16.wav,2247.8439111998305,2247.834614049876,16,"[7.964150600135326, 18.048436200013384, 16.51712660002522, 18.9671269999817, 4.734600200084969, 4.602391900029033, 5.821179299848154, 12.039101100061089, 6.373262299923226, 6.7794445001054555, 10.468642400112003, 13.890629600035027, 17.58611339982599, 16.329563200008124, 43.46372019988485, 22.00816770014353]","[7.9641605000942945, 0.014177799923345447, 0.00020890007726848125, 0.0636525999289006, 0.048381400061771274, 0.032381400000303984, 0.047030000016093254, 0.04800270008854568, 0.06289519998244941, 0.0785846000071615, 0.0303356999065727, 13.890636099968106, 0.014062299858778715, 16.32957089995034, 43.46372799994424, 22.00819590012543]",0,,,,,,,,,,,,,,,,,,,,,,,,,,,,,,,,,,,,,,,,,,,,,,,,,,,,,,,,,,,,,,,,,,,,,,,,,,,,,,,,,,,,,,,,,,,,,,,,,,,,,,,,,,,,,,,,,,,,,,,,,,,,Z7NTMK,train_y,blue_star,top_right,2025-04-04_14h27.13.572,HideSeek_v1,2022.2.5,59.93443176265626,
,5,5,5,1,0,-4,65,,train_dim1_1,1,30,,,,2,0,2,0,,,,,,,,,0,0,0,0,0,0,0,0,0,0,0,0,,,,,,,,,,,,,,,,,,,,,,,,,stimuli/alien_stimuli/65.png,,,,,,,,,,,,,,,,,,,,,,,,,,,,,,,,,,,,,,,30,,,,,,,,2269.9624212000053,2269.9624212000053,2269.9624212000053,2269.9624212000053,2269.9624212000053,right,2.9847277000080794,0,0,0,99,0.32,0,right,2.8938222001306713,,,,,,,,,,,,,,,,,,,,,,,,,,,,,,,,,,,,,,,,,,,,,,,,,,,,,,,,,,,,Z7NTMK,train_y,blue_star,top_right,2025-04-04_14h27.13.572,HideSeek_v1,2022.2.5,59.93443176265626,
,5,5,5,1,0,-4,65,,train_dim1_1,1,30,,,,2,0,2,0,,,,,,,,,0,0,0,0,0,0,0,0,1,0,1,0,,,,,,,,,,,,,,,,,,,,,,,,,,,,,,,,,,,,,,,,,,,,,,,,,,,,,,,,,,,,,,,,30,,,,,,,,2272.943801499903,2272.943801499903,2272.943801499903,2272.943801499903,2272.943801499903,left,1.1430513998493552,0,0,0,99,0.24,0,left,1.0618990999646485,,,,,,,,,,,,,,,,,,,,,,,,,,,,,,,,,,,,,,,,,,,,,,,,,,,,,,,,,,,,Z7NTMK,train_y,blue_star,top_right,2025-04-04_14h27.13.572,HideSeek_v1,2022.2.5,59.93443176265626,
,5,5,5,1,0,-4,65,,train_dim1_1,1,30,,,,2,0,2,0,,,,,,,,,0,0,0,0,0,0,0,0,2,0,2,0,,,,,,,,,,,,,,,,,,,,,,,,,,,,,,,,,,,,,,,,,,,,,,,,,,,,,,,,,,,,,,,,30,,,,,,,,2274.0863184998743,2274.0863184998743,2274.0863184998743,2274.0863184998743,2274.0863184998743,return,1.1107863001525402,0,0,0,0,0.24,0,return,1.0365500999614596,0,0,0.24,0,,,,,,,,,,,,,,,,,,,,,,,,,,,,,,,,,,,,,,,,,,,,,,,,,,,,,,,,Z7NTMK,train_y,blue_star,top_right,2025-04-04_14h27.13.572,HideSeek_v1,2022.2.5,59.93443176265626,
,8,7,8,2,0,-5,66,,train_dim1_1,2,30,,,,2,0,2,0,,,,,,,,,0,0,0,0,0,1,1,1,0,0,0,0,,,,,,,,,,,,,,,,,,,,,,,,,stimuli/alien_stimuli/66.png,,,,,,,,,,,,,,,,,,,,,,,,,,,,,stimuli/alien_stimuli/65.png,65,5,3,,,,,,,30,,,,,,,,2299.9777760999277,2299.9777760999277,2299.9777760999277,2299.9777760999277,2299.9777760999277,right,2.2240151001606137,0,0,0,99,0.5599999999999999,0.16,right,2.133464500075206,,,,,2298.4098924999125,2299.9777760999277,0.24,-0.32,0.32,0.0,-0.16,0.24,0.24,0.24,-0.32,2276.7807837999426,2276.7807837999426,2276.7807837999426,2276.7807837999426,2276.7807837999426,2276.7807837999426,2276.7807837999426,2276.7807837999426,2276.7755175999832,21.753016599919647,return,21.607500900048763,,,,,,,,,,,,,,,,,,,,,,,,,,,,,,,,,Z7NTMK,train_y,blue_star,top_right,2025-04-04_14h27.13.572,HideSeek_v1,2022.2.5,59.93443176265626,
,8,7,8,2,0,-5,66,,train_dim1_1,2,30,,,,2,0,2,0,,,,,,,,,0,0,0,0,0,1,1,1,1,0,1,0,,,,,,,,,,,,,,,,,,,,,,,,,,,,,,,,,,,,,,,,,,,,,,,,,,,,,,,,,,,,,,,,30,,,,,,,,2302.1944869,2302.1944869,2302.1944869,2302.1944869,2302.1944869,left,1.1431710999459028,0,0,0,99,0.4799999999999999,0.16,left,1.0618521999567747,,,,,,,,,,,,,,,,,,,,,,,,,,,,,,,,,,,,,,,,,,,,,,,,,,,,,,,,,,,,Z7NTMK,train_y,blue_star,top_right,2025-04-04_14h27.13.572,HideSeek_v1,2022.2.5,59.93443176265626,
,8,7,8,2,0,-5,66,,train_dim1_1,2,30,,,,2,0,2,0,,,,,,,,,0,0,0,0,0,1,1,1,2,0,2,0,,,,,,,,,,,,,,,,,,,,,,,,,,,,,,,,,,,,,,,,,,,,,,,,,,,,,,,,,,,,,,,,30,,,,,,,,2303.343997800024,2303.343997800024,2303.343997800024,2303.343997800024,2303.343997800024,down,1.6443870000075549,0,0,0,99,0.4799999999999999,0.08,down,1.5699571000877768,,,,,,,,,,,,,,,,,,,,,,,,,,,,,,,,,,,,,,,,,,,,,,,,,,,,,,,,,,,,Z7NTMK,train_y,blue_star,top_right,2025-04-04_14h27.13.572,HideSeek_v1,2022.2.5,59.93443176265626,
,8,7,8,2,0,-5,66,,train_dim1_1,2,30,,,,2,0,2,0,,,,,,,,,0,0,0,0,0,1,1,1,3,0,3,0,,,,,,,,,,,,,,,,,,,,,,,,,,,,,,,,,,,,,,,,,,,,,,,,,,,,,,,,,,,,,,,,30,,,,,,,,2304.9950180999003,2304.9950180999003,2304.9950180999003,2304.9950180999003,2304.9950180999003,down,0.36009530001319945,0,0,0,99,0.4799999999999999,0.0,down,0.2723662001080811,,,,,,,,,,,,,,,,,,,,,,,,,,,,,,,,,,,,,,,,,,,,,,,,,,,,,,,,,,,,Z7NTMK,train_y,blue_star,top_right,2025-04-04_14h27.13.572,HideSeek_v1,2022.2.5,59.93443176265626,
,8,7,8,2,0,-5,66,,train_dim1_1,2,30,,,,2,0,2,0,,,,,,,,,0,0,0,0,0,1,1,1,4,0,4,0,,,,,,,,,,,,,,,,,,,,,,,,,,,,,,,,,,,,,,,,,,,,,,,,,,,,,,,,,,,,,,,,30,,,,,,,,2305.3613902998623,2305.3613902998623,2305.3613902998623,2305.3613902998623,2305.3613902998623,down,0.3767872001044452,0,0,0,99,0.4799999999999999,-0.08,down,0.29718369990587234,,,,,,,,,,,,,,,,,,,,,,,,,,,,,,,,,,,,,,,,,,,,,,,,,,,,,,,,,,,,Z7NTMK,train_y,blue_star,top_right,2025-04-04_14h27.13.572,HideSeek_v1,2022.2.5,59.93443176265626,
,8,7,8,2,0,-5,66,,train_dim1_1,2,30,,,,2,0,2,0,,,,,,,,,0,0,0,0,0,1,1,1,5,0,5,0,,,,,,,,,,,,,,,,,,,,,,,,,,,,,,,,,,,,,,,,,,,,,,,,,,,,,,,,,,,,,,,,30,,,,,,,,2305.745890100021,2305.745890100021,2305.745890100021,2305.745890100021,2305.745890100021,down,4.713403600035235,0,0,0,99,0.4799999999999999,-0.16,down,4.626115899998695,,,,,,,,,,,,,,,,,,,,,,,,,,,,,,,,,,,,,,,,,,,,,,,,,,,,,,,,,,,,Z7NTMK,train_y,blue_star,top_right,2025-04-04_14h27.13.572,HideSeek_v1,2022.2.5,59.93443176265626,
,8,7,8,2,0,-5,66,,train_dim1_1,2,30,,,,2,0,2,0,,,,,,,,,0,0,0,0,0,1,1,1,6,0,6,0,,,,,,,,,,,,,,,,,,,,,,,,,,,,,,,,,,,,,,,,,,,,,,,,,,,,,,,,,,,,,,,,30,,,,,,,,2310.4662941000424,2310.4662941000424,2310.4662941000424,2310.4662941000424,2310.4662941000424,down,1.5779746000189334,0,0,0,99,0.4799999999999999,-0.24,down,1.5007561000529677,,,,,,,,,,,,,,,,,,,,,,,,,,,,,,,,,,,,,,,,,,,,,,,,,,,,,,,,,,,,Z7NTMK,train_y,blue_star,top_right,2025-04-04_14h27.13.572,HideSeek_v1,2022.2.5,59.93443176265626,
,8,7,8,2,0,-5,66,,train_dim1_1,2,30,,,,2,0,2,0,,,,,,,,,0,0,0,0,0,1,1,1,7,0,7,0,,,,,,,,,,,,,,,,,,,,,,,,,,,,,,,,,,,,,,,,,,,,,,,,,,,,,,,,,,,,,,,,30,,,,,,,,2312.050660399953,2312.050660399953,2312.050660399953,2312.050660399953,2312.050660399953,return,0.5935989001300186,1,0,0,1,0.4799999999999999,-0.24,return,0.5207973001524806,-5,0,0.4799999999999999,-0.24,,,,,,,,,,,,,,,,,,,,,,,,,,,,,,,,,,,,,,,,,,,,,,,,,,,,,,,,Z7NTMK,train_y,blue_star,top_right,2025-04-04_14h27.13.572,HideSeek_v1,2022.2.5,59.93443176265626,
,7,8,7,5,0,-3,64,,train_dim1_1,3,30,,,,2,0,2,0,,,,,,,,,0,0,0,0,0,2,2,2,0,0,0,0,,,,,,,,,,,,,,,,,,,,,,,,,stimuli/alien_stimuli/64.png,,,,,,,,,,,,,,,,,,,,,,,,,,,,,stimuli/alien_stimuli/66.png,66,8,4,,,,,,,30,,,,,,,,2323.458620399935,2323.458620399935,2323.458620399935,2323.458620399935,2323.458620399935,right,1.8562891001347452,1,0,0,99,0.48000000000000004,0.24,right,1.7713653999380767,,,,,2321.895955799846,2323.458620399935,0.48,-0.24,0.4,0.0,-0.039999999999999994,0.48,0.48,0.48,-0.24,2314.2103285999037,2314.2103285999037,2314.2103285999037,2314.2103285999037,2314.2103285999037,2314.2103285999037,2314.2103285999037,2314.2103285999037,2314.2064757499847,7.7917831998784095,return,7.664354899898171,,,,,,,,,,,,,,,,,,,,,,,,,,,,,,,,,Z7NTMK,train_y,blue_star,top_right,2025-04-04_14h27.13.572,HideSeek_v1,2022.2.5,59.93443176265626,
,7,8,7,5,0,-3,64,,train_dim1_1,3,30,,,,2,0,2,0,,,,,,,,,0,0,0,0,0,2,2,2,1,0,1,0,,,,,,,,,,,,,,,,,,,,,,,,,,,,,,,,,,,,,,,,,,,,,,,,,,,,,,,,,,,,,,,,30,,,,,,,,2325.312910599867,2325.312910599867,2325.312910599867,2325.312910599867,2325.312910599867,left,0.9767879999708384,1,0,0,99,0.4,0.24,left,0.8902761999052018,,,,,,,,,,,,,,,,,,,,,,,,,,,,,,,,,,,,,,,,,,,,,,,,,,,,,,,,,,,,Z7NTMK,train_y,blue_star,top_right,2025-04-04_14h27.13.572,HideSeek_v1,2022.2.5,59.93443176265626,
,7,8,7,5,0,-3,64,,train_dim1_1,3,30,,,,2,0,2,0,,,,,,,,,0,0,0,0,0,2,2,2,2,0,2,0,,,,,,,,,,,,,,,,,,,,,,,,,,,,,,,,,,,,,,,,,,,,,,,,,,,,,,,,,,,,,,,,30,,,,,,,,2326.3013350998517,2326.3013350998517,2326.3013350998517,2326.3013350998517,2326.3013350998517,down,0.7578976000659168,1,0,0,99,0.4,0.15999999999999998,down,0.6739505999721587,,,,,,,,,,,,,,,,,,,,,,,,,,,,,,,,,,,,,,,,,,,,,,,,,,,,,,,,,,,,Z7NTMK,train_y,blue_star,top_right,2025-04-04_14h27.13.572,HideSeek_v1,2022.2.5,59.93443176265626,
,7,8,7,5,0,-3,64,,train_dim1_1,3,30,,,,2,0,2,0,,,,,,,,,0,0,0,0,0,2,2,2,3,0,3,0,,,,,,,,,,,,,,,,,,,,,,,,,,,,,,,,,,,,,,,,,,,,,,,,,,,,,,,,,,,,,,,,30,,,,,,,,2327.0628635999747,2327.0628635999747,2327.0628635999747,2327.0628635999747,2327.0628635999747,down,0.36018479987978935,1,0,0,99,0.4,0.07999999999999997,down,0.27303609997034073,,,,,,,,,,,,,,,,,,,,,,,,,,,,,,,,,,,,,,,,,,,,,,,,,,,,,,,,,,,,Z7NTMK,train_y,blue_star,top_right,2025-04-04_14h27.13.572,HideSeek_v1,2022.2.5,59.93443176265626,
,7,8,7,5,0,-3,64,,train_dim1_1,3,30,,,,2,0,2,0,,,,,,,,,0,0,0,0,0,2,2,2,4,0,4,0,,,,,,,,,,,,,,,,,,,,,,,,,,,,,,,,,,,,,,,,,,,,,,,,,,,,,,,,,,,,,,,,30,,,,,,,,2327.430161099881,2327.430161099881,2327.430161099881,2327.430161099881,2327.430161099881,down,0.87690159981139,1,0,0,99,0.4,-2.7755575615628914e-17,down,0.8006538001354784,,,,,,,,,,,,,,,,,,,,,,,,,,,,,,,,,,,,,,,,,,,,,,,,,,,,,,,,,,,,Z7NTMK,train_y,blue_star,top_right,2025-04-04_14h27.13.572,HideSeek_v1,2022.2.5,59.93443176265626,
,7,8,7,5,0,-3,64,,train_dim1_1,3,30,,,,2,0,2,0,,,,,,,,,0,0,0,0,0,2,2,2,5,0,5,0,,,,,,,,,,,,,,,,,,,,,,,,,,,,,,,,,,,,,,,,,,,,,,,,,,,,,,,,,,,,,,,,30,,,,,,,,2328.3152516998816,2328.3152516998816,2328.3152516998816,2328.3152516998816,2328.3152516998816,down,0.4769661999307573,1,0,0,99,0.4,-0.08000000000000003,down,0.3969487000722438,,,,,,,,,,,,,,,,,,,,,,,,,,,,,,,,,,,,,,,,,,,,,,,,,,,,,,,,,,,,Z7NTMK,train_y,blue_star,top_right,2025-04-04_14h27.13.572,HideSeek_v1,2022.2.5,59.93443176265626,
,7,8,7,5,0,-3,64,,train_dim1_1,3,30,,,,2,0,2,0,,,,,,,,,0,0,0,0,0,2,2,2,6,0,6,0,,,,,,,,,,,,,,,,,,,,,,,,,,,,,,,,,,,,,,,,,,,,,,,,,,,,,,,,,,,,,,,,30,,,,,,,,2328.7977708999533,2328.7977708999533,2328.7977708999533,2328.7977708999533,2328.7977708999533,down,0.6436444998253137,1,0,0,99,0.4,-0.16000000000000003,down,0.5646926001645625,,,,,,,,,,,,,,,,,,,,,,,,,,,,,,,,,,,,,,,,,,,,,,,,,,,,,,,,,,,,Z7NTMK,train_y,blue_star,top_right,2025-04-04_14h27.13.572,HideSeek_v1,2022.2.5,59.93443176265626,
,7,8,7,5,0,-3,64,,train_dim1_1,3,30,,,,2,0,2,0,,,,,,,,,0,0,0,0,0,2,2,2,7,0,7,0,,,,,,,,,,,,,,,,,,,,,,,,,,,,,,,,,,,,,,,,,,,,,,,,,,,,,,,,,,,,,,,,30,,,,,,,,2329.4486382999457,2329.4486382999457,2329.4486382999457,2329.4486382999457,2329.4486382999457,down,0.19338759989477694,1,0,0,99,0.4,-0.24000000000000005,down,0.11643239995464683,,,,,,,,,,,,,,,,,,,,,,,,,,,,,,,,,,,,,,,,,,,,,,,,,,,,,,,,,,,,Z7NTMK,train_y,blue_star,top_right,2025-04-04_14h27.13.572,HideSeek_v1,2022.2.5,59.93443176265626,
,7,8,7,5,0,-3,64,,train_dim1_1,3,30,,,,2,0,2,0,,,,,,,,,0,0,0,0,0,2,2,2,8,0,8,0,,,,,,,,,,,,,,,,,,,,,,,,,,,,,,,,,,,,,,,,,,,,,,,,,,,,,,,,,,,,,,,,30,,,,,,,,2329.6489994998556,2329.6489994998556,2329.6489994998556,2329.6489994998556,2329.6489994998556,up,0.9769267998635769,1,0,0,99,0.4,-0.16000000000000003,right,0.9211285000201315,,,,,,,,,,,,,,,,,,,,,,,,,,,,,,,,,,,,,,,,,,,,,,,,,,,,,,,,,,,,Z7NTMK,train_y,blue_star,top_right,2025-04-04_14h27.13.572,HideSeek_v1,2022.2.5,59.93443176265626,
,7,8,7,5,0,-3,64,,train_dim1_1,3,30,,,,2,0,2,0,,,,,,,,,0,0,0,0,0,2,2,2,9,0,9,0,,,,,,,,,,,,,,,,,,,,,,,,,,,,,,,,,,,,,,,,,,,,,,,,,,,,,,,,,,,,,,,,30,,,,,,,,2330.633598699933,2330.633598699933,2330.633598699933,2330.633598699933,2330.633598699933,return,0.3763554999604821,1,0,0,0,0.4,-0.16000000000000003,return,0.28990580001845956,-10,0,0.4,-0.16000000000000003,,,,,,,,,,,,,,,,,,,,,,,,,,,,,,,,,,,,,,,,,,,,,,,,,,,,,,,,Z7NTMK,train_y,blue_star,top_right,2025-04-04_14h27.13.572,HideSeek_v1,2022.2.5,59.93443176265626,
,5,6,5,5,0,-1,62,,train_dim1_1,4,30,,,,2,0,2,0,,,,,,,,,0,0,0,0,0,3,3,3,0,0,0,0,,,,,,,,,,,,,,,,,,,,,,,,,stimuli/alien_stimuli/62.png,,,,,,,,,,,,,,,,,,,,,,,,,,,,,stimuli/alien_stimuli/64.png,64,7,5,,,,,,,30,,,,,,,,2338.7625382000115,2338.7625382000115,2338.7625382000115,2338.7625382000115,2338.7625382000115,left,1.8907501001376659,1,0,0,99,0.15999999999999998,0.08,left,1.8062326000072062,,,,,2337.2087204998825,2338.7625382000115,0.4,0,0.24,0.0,0.12,0.4,0.4,0.4,0,2332.578171199886,2332.578171199886,2332.578171199886,2332.578171199886,2332.578171199886,2332.578171199886,2332.578171199886,2332.578171199886,2332.571840149956,4.739142199978232,return,4.607410300057381,,,,,,,,,,,,,,,,,,,,,,,,,,,,,,,,,Z7NTMK,train_y,blue_star,top_right,2025-04-04_14h27.13.572,HideSeek_v1,2022.2.5,59.93443176265626,
,5,6,5,5,0,-1,62,,train_dim1_1,4,30,,,,2,0,2,0,,,,,,,,,0,0,0,0,0,3,3,3,1,0,1,0,,,,,,,,,,,,,,,,,,,,,,,,,,,,,,,,,,,,,,,,,,,,,,,,,,,,,,,,,,,,,,,,30,,,,,,,,2340.659042699961,2340.659042699961,2340.659042699961,2340.659042699961,2340.659042699961,right,0.8599523000884801,1,0,0,99,0.24,0.08,right,0.7791915000416338,,,,,,,,,,,,,,,,,,,,,,,,,,,,,,,,,,,,,,,,,,,,,,,,,,,,,,,,,,,,Z7NTMK,train_y,blue_star,top_right,2025-04-04_14h27.13.572,HideSeek_v1,2022.2.5,59.93443176265626,
,5,6,5,5,0,-1,62,,train_dim1_1,4,30,,,,2,0,2,0,,,,,,,,,0,0,0,0,0,3,3,3,2,0,2,0,,,,,,,,,,,,,,,,,,,,,,,,,,,,,,,,,,,,,,,,,,,,,,,,,,,,,,,,,,,,,,,,30,,,,,,,,2341.525759199867,2341.525759199867,2341.525759199867,2341.525759199867,2341.525759199867,down,0.4768532000016421,1,0,0,99,0.24,0.0,down,0.3941758000291884,,,,,,,,,,,,,,,,,,,,,,,,,,,,,,,,,,,,,,,,,,,,,,,,,,,,,,,,,,,,Z7NTMK,train_y,blue_star,top_right,2025-04-04_14h27.13.572,HideSeek_v1,2022.2.5,59.93443176265626,
,5,6,5,5,0,-1,62,,train_dim1_1,4,30,,,,2,0,2,0,,,,,,,,,0,0,0,0,0,3,3,3,3,0,3,0,,,,,,,,,,,,,,,,,,,,,,,,,,,,,,,,,,,,,,,,,,,,,,,,,,,,,,,,,,,,,,,,30,,,,,,,,2342.009696099907,2342.009696099907,2342.009696099907,2342.009696099907,2342.009696099907,down,0.5768132000230253,1,0,0,99,0.24,-0.08,down,0.4973504999652505,,,,,,,,,,,,,,,,,,,,,,,,,,,,,,,,,,,,,,,,,,,,,,,,,,,,,,,,,,,,Z7NTMK,train_y,blue_star,top_right,2025-04-04_14h27.13.572,HideSeek_v1,2022.2.5,59.93443176265626,
,5,6,5,5,0,-1,62,,train_dim1_1,4,30,,,,2,0,2,0,,,,,,,,,0,0,0,0,0,3,3,3,4,0,4,0,,,,,,,,,,,,,,,,,,,,,,,,,,,,,,,,,,,,,,,,,,,,,,,,,,,,,,,,,,,,,,,,30,,,,,,,,2342.5929425999057,2342.5929425999057,2342.5929425999057,2342.5929425999057,2342.5929425999057,down,0.6269642000552267,1,0,0,99,0.24,-0.16,down,0.5446390998549759,,,,,,,,,,,,,,,,,,,,,,,,,,,,,,,,,,,,,,,,,,,,,,,,,,,,,,,,,,,,Z7NTMK,train_y,blue_star,top_right,2025-04-04_14h27.13.572,HideSeek_v1,2022.2.5,59.93443176265626,
,5,6,5,5,0,-1,62,,train_dim1_1,4,30,,,,2,0,2,0,,,,,,,,,0,0,0,0,0,3,3,3,5,0,5,0,,,,,,,,,,,,,,,,,,,,,,,,,,,,,,,,,,,,,,,,,,,,,,,,,,,,,,,,,,,,,,,,30,,,,,,,,2343.2270225998946,2343.2270225998946,2343.2270225998946,2343.2270225998946,2343.2270225998946,down,0.5936164001468569,1,0,0,99,0.24,-0.24,down,0.5080446999054402,,,,,,,,,,,,,,,,,,,,,,,,,,,,,,,,,,,,,,,,,,,,,,,,,,,,,,,,,,,,Z7NTMK,train_y,blue_star,top_right,2025-04-04_14h27.13.572,HideSeek_v1,2022.2.5,59.93443176265626,
,5,6,5,5,0,-1,62,,train_dim1_1,4,30,,,,2,0,2,0,,,,,,,,,0,0,0,0,0,3,3,3,6,0,6,0,,,,,,,,,,,,,,,,,,,,,,,,,,,,,,,,,,,,,,,,,,,,,,,,,,,,,,,,,,,,,,,,30,,,,,,,,2343.827869999921,2343.827869999921,2343.827869999921,2343.827869999921,2343.827869999921,down,0.6100245001725852,1,0,0,99,0.24,-0.32,down,0.5350512000732124,,,,,,,,,,,,,,,,,,,,,,,,,,,,,,,,,,,,,,,,,,,,,,,,,,,,,,,,,,,,Z7NTMK,train_y,blue_star,top_right,2025-04-04_14h27.13.572,HideSeek_v1,2022.2.5,59.93443176265626,
,5,6,5,5,0,-1,62,,train_dim1_1,4,30,,,,2,0,2,0,,,,,,,,,0,0,0,0,0,3,3,3,7,0,7,0,,,,,,,,,,,,,,,,,,,,,,,,,,,,,,,,,,,,,,,,,,,,,,,,,,,,,,,,,,,,,,,,30,,,,,,,,2344.4446058999747,2344.4446058999747,2344.4446058999747,2344.4446058999747,2344.4446058999747,return,0.543589900014922,1,0,0,0,0.24,-0.32,return,0.4657029998488724,-15,0,0.24,-0.32,,,,,,,,,,,,,,,,,,,,,,,,,,,,,,,,,,,,,,,,,,,,,,,,,,,,,,,,Z7NTMK,train_y,blue_star,top_right,2025-04-04_14h27.13.572,HideSeek_v1,2022.2.5,59.93443176265626,
,8,8,8,8,0,0,61,,train_dim1_1,5,30,,,,2,0,2,0,,,,,,,,,0,0,0,0,0,4,4,4,0,0,0,0,,,,,,,,,,,,,,,,,,,,,,,,,stimuli/alien_stimuli/61.png,,,,,,,,,,,,,,,,,,,,,,,,,,,,,stimuli/alien_stimuli/62.png,62,5,6,,,,,,,30,,,,,,,,2352.13945519994,2352.13945519994,2352.13945519994,2352.13945519994,2352.13945519994,right,1.4234912998508662,1,0,0,99,0.5599999999999999,0.24,right,1.3348749000579119,,,,,2350.5865960000083,2352.13945519994,0.24,0,0.08,0.0,0.04,0.24,0.24,0.24,0,2346.5581398999784,2346.5581398999784,2346.5581398999784,2346.5581398999784,2346.5581398999784,2346.5581398999784,2346.5581398999784,2346.5581398999784,2346.5498839499433,4.1392560000531375,return,4.012544399825856,,,,,,,,,,,,,,,,,,,,,,,,,,,,,,,,,Z7NTMK,train_y,blue_star,top_right,2025-04-04_14h27.13.572,HideSeek_v1,2022.2.5,59.93443176265626,
,8,8,8,8,0,0,61,,train_dim1_1,5,30,,,,2,0,2,0,,,,,,,,,0,0,0,0,0,4,4,4,1,0,1,0,,,,,,,,,,,,,,,,,,,,,,,,,,,,,,,,,,,,,,,,,,,,,,,,,,,,,,,,,,,,,,,,30,,,,,,,,2353.5698495998513,2353.5698495998513,2353.5698495998513,2353.5698495998513,2353.5698495998513,left,0.5092563000507653,1,0,0,99,0.4799999999999999,0.24,left,0.42483119992539287,,,,,,,,,,,,,,,,,,,,,,,,,,,,,,,,,,,,,,,,,,,,,,,,,,,,,,,,,,,,Z7NTMK,train_y,blue_star,top_right,2025-04-04_14h27.13.572,HideSeek_v1,2022.2.5,59.93443176265626,
,8,8,8,8,0,0,61,,train_dim1_1,5,30,,,,2,0,2,0,,,,,,,,,0,0,0,0,0,4,4,4,2,0,2,0,,,,,,,,,,,,,,,,,,,,,,,,,,,,,,,,,,,,,,,,,,,,,,,,,,,,,,,,,,,,,,,,30,,,,,,,,2354.0861388999037,2354.0861388999037,2354.0861388999037,2354.0861388999037,2354.0861388999037,down,0.9603671999648213,1,0,0,99,0.4799999999999999,0.15999999999999998,down,0.8883002998773009,,,,,,,,,,,,,,,,,,,,,,,,,,,,,,,,,,,,,,,,,,,,,,,,,,,,,,,,,,,,Z7NTMK,train_y,blue_star,top_right,2025-04-04_14h27.13.572,HideSeek_v1,2022.2.5,59.93443176265626,
,8,8,8,8,0,0,61,,train_dim1_1,5,30,,,,2,0,2,0,,,,,,,,,0,0,0,0,0,4,4,4,3,0,3,0,,,,,,,,,,,,,,,,,,,,,,,,,,,,,,,,,,,,,,,,,,,,,,,,,,,,,,,,,,,,,,,,30,,,,,,,,2355.0560941998847,2355.0560941998847,2355.0560941998847,2355.0560941998847,2355.0560941998847,return,0.5244366999249905,1,1,0,0,0.4799999999999999,0.15999999999999998,return,0.4368031998164952,-16,0,0.4799999999999999,0.15999999999999998,,,,,,,,,,,,,,,,,,,,,,,,,,,,,,,,,,,,,,,,,,,,,,,,,,,,,,,,Z7NTMK,train_y,blue_star,top_right,2025-04-04_14h27.13.572,HideSeek_v1,2022.2.5,59.93443176265626,
,6,9,6,8,0,-1,62,,train_dim1_1,6,30,,,,2,0,2,0,,,,,,,,,0,0,0,0,0,5,5,5,0,0,0,0,,,,,,,,,,,,,,,,,,,,,,,,,stimuli/alien_stimuli/62.png,,,,,,,,,,,,,,,,,,,,,,,,,,,,,stimuli/alien_stimuli/61.png,61,8,7,,,,,,,30,,,,,,,,2373.000399499899,2373.000399499899,2373.000399499899,2373.000399499899,2373.000399499899,down,1.7578592000063509,1,1,0,99,0.32,0.24,down,1.6680677998811007,,,,,2371.437426300021,2373.000399499899,0.48,0.24,0.0,0.0,0.24,0.48,0.48,0.48,0.24,2357.150108899921,2357.150108899921,2357.150108899921,2357.150108899921,2357.150108899921,2357.150108899921,2357.150108899921,2357.150108899921,2357.1421570499897,14.397560599958524,return,14.265625500120223,,,,,,,,,,,,,,,,,,,,,,,,,,,,,,,,,Z7NTMK,train_y,blue_star,top_right,2025-04-04_14h27.13.572,HideSeek_v1,2022.2.5,59.93443176265626,
,6,9,6,8,0,-1,62,,train_dim1_1,6,30,,,,2,0,2,0,,,,,,,,,0,0,0,0,0,5,5,5,1,0,1,0,,,,,,,,,,,,,,,,,,,,,,,,,,,,,,,,,,,,,,,,,,,,,,,,,,,,,,,,,,,,,,,,30,,,,,,,,2374.7539009000175,2374.7539009000175,2374.7539009000175,2374.7539009000175,2374.7539009000175,up,2.061029000207782,1,1,0,99,0.32,0.32,up,1.9783174998592585,,,,,,,,,,,,,,,,,,,,,,,,,,,,,,,,,,,,,,,,,,,,,,,,,,,,,,,,,,,,Z7NTMK,train_y,blue_star,top_right,2025-04-04_14h27.13.572,HideSeek_v1,2022.2.5,59.93443176265626,
,6,9,6,8,0,-1,62,,train_dim1_1,6,30,,,,2,0,2,0,,,,,,,,,0,0,0,0,0,5,5,5,2,0,2,0,,,,,,,,,,,,,,,,,,,,,,,,,,,,,,,,,,,,,,,,,,,,,,,,,,,,,,,,,,,,,,,,30,,,,,,,,2376.821193699958,2376.821193699958,2376.821193699958,2376.821193699958,2376.821193699958,down,0.5099839998874813,1,1,0,99,0.32,0.24,down,0.43006409984081984,,,,,,,,,,,,,,,,,,,,,,,,,,,,,,,,,,,,,,,,,,,,,,,,,,,,,,,,,,,,Z7NTMK,train_y,blue_star,top_right,2025-04-04_14h27.13.572,HideSeek_v1,2022.2.5,59.93443176265626,
,6,9,6,8,0,-1,62,,train_dim1_1,6,30,,,,2,0,2,0,,,,,,,,,0,0,0,0,0,5,5,5,3,0,3,0,,,,,,,,,,,,,,,,,,,,,,,,,,,,,,,,,,,,,,,,,,,,,,,,,,,,,,,,,,,,,,,,30,,,,,,,,2377.3383833998814,2377.3383833998814,2377.3383833998814,2377.3383833998814,2377.3383833998814,down,0.9942397000268102,1,1,0,99,0.32,0.15999999999999998,down,0.92127939988859,,,,,,,,,,,,,,,,,,,,,,,,,,,,,,,,,,,,,,,,,,,,,,,,,,,,,,,,,,,,Z7NTMK,train_y,blue_star,top_right,2025-04-04_14h27.13.572,HideSeek_v1,2022.2.5,59.93443176265626,
,6,9,6,8,0,-1,62,,train_dim1_1,6,30,,,,2,0,2,0,,,,,,,,,0,0,0,0,0,5,5,5,4,0,4,0,,,,,,,,,,,,,,,,,,,,,,,,,,,,,,,,,,,,,,,,,,,,,,,,,,,,,,,,,,,,,,,,30,,,,,,,,2378.3397349000443,2378.3397349000443,2378.3397349000443,2378.3397349000443,2378.3397349000443,up,0.6436549001373351,1,1,0,99,0.32,0.24,up,0.5699442001059651,,,,,,,,,,,,,,,,,,,,,,,,,,,,,,,,,,,,,,,,,,,,,,,,,,,,,,,,,,,,Z7NTMK,train_y,blue_star,top_right,2025-04-04_14h27.13.572,HideSeek_v1,2022.2.5,59.93443176265626,
,6,9,6,8,0,-1,62,,train_dim1_1,6,30,,,,2,0,2,0,,,,,,,,,0,0,0,0,0,5,5,5,5,0,5,0,,,,,,,,,,,,,,,,,,,,,,,,,,,,,,,,,,,,,,,,,,,,,,,,,,,,,,,,,,,,,,,,30,,,,,,,,2378.992778399959,2378.992778399959,2378.992778399959,2378.992778399959,2378.992778399959,return,0.7598115000873804,2,0,0,1,0.32,0.24,return,0.6819202001206577,-17,0,0.32,0.24,,,,,,,,,,,,,,,,,,,,,,,,,,,,,,,,,,,,,,,,,,,,,,,,,,,,,,,,Z7NTMK,train_y,blue_star,top_right,2025-04-04_14h27.13.572,HideSeek_v1,2022.2.5,59.93443176265626,
,6,8,6,5,0,-3,64,,train_dim1_1,7,30,,,,2,0,2,0,,,,,,,,,0,0,0,0,0,6,6,6,0,0,0,0,,,,,,,,,,,,,,,,,,,,,,,,,stimuli/alien_stimuli/64.png,,,,,,,,,,,,,,,,,,,,,,,,,,,,,stimuli/alien_stimuli/62.png,62,6,8,,,,,,,30,,,,,,,,2388.0860560999718,2388.0860560999718,2388.0860560999718,2388.0860560999718,2388.0860560999718,down,1.4735669000074267,2,0,0,99,0.32,0.15999999999999998,down,1.3840743999462575,,,,,2386.533398799831,2388.0860560999718,0.32,0.24,0.08,0.0,0.28,0.32,0.32,0.32,0.24,2381.3168641999364,2381.3168641999364,2381.3168641999364,2381.3168641999364,2381.3168641999364,2381.3168641999364,2381.3168641999364,2381.3168641999364,2381.312156950031,5.323009700048715,return,5.189259700011462,,,,,,,,,,,,,,,,,,,,,,,,,,,,,,,,,Z7NTMK,train_y,blue_star,top_right,2025-04-04_14h27.13.572,HideSeek_v1,2022.2.5,59.93443176265626,
,6,8,6,5,0,-3,64,,train_dim1_1,7,30,,,,2,0,2,0,,,,,,,,,0,0,0,0,0,6,6,6,1,0,1,0,,,,,,,,,,,,,,,,,,,,,,,,,,,,,,,,,,,,,,,,,,,,,,,,,,,,,,,,,,,,,,,,30,,,,,,,,2389.564894199837,2389.564894199837,2389.564894199837,2389.564894199837,2389.564894199837,down,4.646439199801534,2,0,0,99,0.32,0.07999999999999997,down,4.572847400093451,,,,,,,,,,,,,,,,,,,,,,,,,,,,,,,,,,,,,,,,,,,,,,,,,,,,,,,,,,,,Z7NTMK,train_y,blue_star,top_right,2025-04-04_14h27.13.572,HideSeek_v1,2022.2.5,59.93443176265626,
,6,8,6,5,0,-3,64,,train_dim1_1,7,30,,,,2,0,2,0,,,,,,,,,0,0,0,0,0,6,6,6,2,0,2,0,,,,,,,,,,,,,,,,,,,,,,,,,,,,,,,,,,,,,,,,,,,,,,,,,,,,,,,,,,,,,,,,30,,,,,,,,2394.2189976000227,2394.2189976000227,2394.2189976000227,2394.2189976000227,2394.2189976000227,down,0.5103533999063075,2,0,0,99,0.32,-2.7755575615628914e-17,down,0.4233900001272559,,,,,,,,,,,,,,,,,,,,,,,,,,,,,,,,,,,,,,,,,,,,,,,,,,,,,,,,,,,,Z7NTMK,train_y,blue_star,top_right,2025-04-04_14h27.13.572,HideSeek_v1,2022.2.5,59.93443176265626,
,6,8,6,5,0,-3,64,,train_dim1_1,7,30,,,,2,0,2,0,,,,,,,,,0,0,0,0,0,6,6,6,3,0,3,0,,,,,,,,,,,,,,,,,,,,,,,,,,,,,,,,,,,,,,,,,,,,,,,,,,,,,,,,,,,,,,,,30,,,,,,,,2394.7358806000557,2394.7358806000557,2394.7358806000557,2394.7358806000557,2394.7358806000557,down,0.7940432000905275,2,0,0,99,0.32,-0.08000000000000003,down,0.7170942001976073,,,,,,,,,,,,,,,,,,,,,,,,,,,,,,,,,,,,,,,,,,,,,,,,,,,,,,,,,,,,Z7NTMK,train_y,blue_star,top_right,2025-04-04_14h27.13.572,HideSeek_v1,2022.2.5,59.93443176265626,
,6,8,6,5,0,-3,64,,train_dim1_1,7,30,,,,2,0,2,0,,,,,,,,,0,0,0,0,0,6,6,6,4,0,4,0,,,,,,,,,,,,,,,,,,,,,,,,,,,,,,,,,,,,,,,,,,,,,,,,,,,,,,,,,,,,,,,,30,,,,,,,,2395.5382083998993,2395.5382083998993,2395.5382083998993,2395.5382083998993,2395.5382083998993,up,1.7777293999679387,2,0,0,99,0.32,-2.7755575615628914e-17,up,1.6938602000009269,,,,,,,,,,,,,,,,,,,,,,,,,,,,,,,,,,,,,,,,,,,,,,,,,,,,,,,,,,,,Z7NTMK,train_y,blue_star,top_right,2025-04-04_14h27.13.572,HideSeek_v1,2022.2.5,59.93443176265626,
,6,8,6,5,0,-3,64,,train_dim1_1,7,30,,,,2,0,2,0,,,,,,,,,0,0,0,0,0,6,6,6,5,0,5,0,,,,,,,,,,,,,,,,,,,,,,,,,,,,,,,,,,,,,,,,,,,,,,,,,,,,,,,,,,,,,,,,30,,,,,,,,2397.3211168998387,2397.3211168998387,2397.3211168998387,2397.3211168998387,2397.3211168998387,up,0.24317270005121827,2,0,0,99,0.32,0.07999999999999997,up,0.16099620005115867,,,,,,,,,,,,,,,,,,,,,,,,,,,,,,,,,,,,,,,,,,,,,,,,,,,,,,,,,,,,Z7NTMK,train_y,blue_star,top_right,2025-04-04_14h27.13.572,HideSeek_v1,2022.2.5,59.93443176265626,
,6,8,6,5,0,-3,64,,train_dim1_1,7,30,,,,2,0,2,0,,,,,,,,,0,0,0,0,0,6,6,6,6,0,6,0,,,,,,,,,,,,,,,,,,,,,,,,,,,,,,,,,,,,,,,,,,,,,,,,,,,,,,,,,,,,,,,,30,,,,,,,,2397.5714424999896,2397.5714424999896,2397.5714424999896,2397.5714424999896,2397.5714424999896,up,0.2274013999849558,2,0,0,99,0.32,0.15999999999999998,up,0.1408979999832809,,,,,,,,,,,,,,,,,,,,,,,,,,,,,,,,,,,,,,,,,,,,,,,,,,,,,,,,,,,,Z7NTMK,train_y,blue_star,top_right,2025-04-04_14h27.13.572,HideSeek_v1,2022.2.5,59.93443176265626,
,6,8,6,5,0,-3,64,,train_dim1_1,7,30,,,,2,0,2,0,,,,,,,,,0,0,0,0,0,6,6,6,7,0,7,0,,,,,,,,,,,,,,,,,,,,,,,,,,,,,,,,,,,,,,,,,,,,,,,,,,,,,,,,,,,,,,,,30,,,,,,,,2397.806514200056,2397.806514200056,2397.806514200056,2397.806514200056,2397.806514200056,down,1.5770602999255061,2,0,0,99,0.32,0.07999999999999997,down,1.5039061999414116,,,,,,,,,,,,,,,,,,,,,,,,,,,,,,,,,,,,,,,,,,,,,,,,,,,,,,,,,,,,Z7NTMK,train_y,blue_star,top_right,2025-04-04_14h27.13.572,HideSeek_v1,2022.2.5,59.93443176265626,
,6,8,6,5,0,-3,64,,train_dim1_1,7,30,,,,2,0,2,0,,,,,,,,,0,0,0,0,0,6,6,6,8,0,8,0,,,,,,,,,,,,,,,,,,,,,,,,,,,,,,,,,,,,,,,,,,,,,,,,,,,,,,,,,,,,,,,,30,,,,,,,,2399.3901831998955,2399.3901831998955,2399.3901831998955,2399.3901831998955,2399.3901831998955,down,0.46009079995565116,2,0,0,99,0.32,-2.7755575615628914e-17,down,0.3806482998188585,,,,,,,,,,,,,,,,,,,,,,,,,,,,,,,,,,,,,,,,,,,,,,,,,,,,,,,,,,,,Z7NTMK,train_y,blue_star,top_right,2025-04-04_14h27.13.572,HideSeek_v1,2022.2.5,59.93443176265626,
,6,8,6,5,0,-3,64,,train_dim1_1,7,30,,,,2,0,2,0,,,,,,,,,0,0,0,0,0,6,6,6,9,0,9,0,,,,,,,,,,,,,,,,,,,,,,,,,,,,,,,,,,,,,,,,,,,,,,,,,,,,,,,,,,,,,,,,30,,,,,,,,2399.8569102999754,2399.8569102999754,2399.8569102999754,2399.8569102999754,2399.8569102999754,down,0.45981440017931163,2,0,0,99,0.32,-0.08000000000000003,down,0.3803030999843031,,,,,,,,,,,,,,,,,,,,,,,,,,,,,,,,,,,,,,,,,,,,,,,,,,,,,,,,,,,,Z7NTMK,train_y,blue_star,top_right,2025-04-04_14h27.13.572,HideSeek_v1,2022.2.5,59.93443176265626,
,6,8,6,5,0,-3,64,,train_dim1_1,7,30,,,,2,0,2,0,,,,,,,,,0,0,0,0,0,6,6,6,10,0,10,0,,,,,,,,,,,,,,,,,,,,,,,,,,,,,,,,,,,,,,,,,,,,,,,,,,,,,,,,,,,,,,,,30,,,,,,,,2400.3234716998413,2400.3234716998413,2400.3234716998413,2400.3234716998413,2400.3234716998413,down,0.44345850008539855,2,0,0,99,0.32,-0.16000000000000003,down,0.36137489997781813,,,,,,,,,,,,,,,,,,,,,,,,,,,,,,,,,,,,,,,,,,,,,,,,,,,,,,,,,,,,Z7NTMK,train_y,blue_star,top_right,2025-04-04_14h27.13.572,HideSeek_v1,2022.2.5,59.93443176265626,
,6,8,6,5,0,-3,64,,train_dim1_1,7,30,,,,2,0,2,0,,,,,,,,,0,0,0,0,0,6,6,6,11,0,11,0,,,,,,,,,,,,,,,,,,,,,,,,,,,,,,,,,,,,,,,,,,,,,,,,,,,,,,,,,,,,,,,,30,,,,,,,,2400.774173700018,2400.774173700018,2400.774173700018,2400.774173700018,2400.774173700018,down,0.4933285000734031,2,0,0,99,0.32,-0.24000000000000005,down,0.41612259997054935,,,,,,,,,,,,,,,,,,,,,,,,,,,,,,,,,,,,,,,,,,,,,,,,,,,,,,,,,,,,Z7NTMK,train_y,blue_star,top_right,2025-04-04_14h27.13.572,HideSeek_v1,2022.2.5,59.93443176265626,
,6,8,6,5,0,-3,64,,train_dim1_1,7,30,,,,2,0,2,0,,,,,,,,,0,0,0,0,0,6,6,6,12,0,12,0,,,,,,,,,,,,,,,,,,,,,,,,,,,,,,,,,,,,,,,,,,,,,,,,,,,,,,,,,,,,,,,,30,,,,,,,,2401.274452399928,2401.274452399928,2401.274452399928,2401.274452399928,2401.274452399928,return,1.0107281000819057,2,0,0,0,0.32,-0.24000000000000005,return,0.9377715000882745,-23,0,0.32,-0.24000000000000005,,,,,,,,,,,,,,,,,,,,,,,,,,,,,,,,,,,,,,,,,,,,,,,,,,,,,,,,Z7NTMK,train_y,blue_star,top_right,2025-04-04_14h27.13.572,HideSeek_v1,2022.2.5,59.93443176265626,
,9,7,9,7,0,0,61,,train_dim1_1,8,30,,,,2,0,2,0,,,,,,,,,0,0,0,0,0,7,7,7,0,0,0,0,,,,,,,,,,,,,,,,,,,,,,,,,stimuli/alien_stimuli/61.png,,,,,,,,,,,,,,,,,,,,,,,,,,,,,stimuli/alien_stimuli/64.png,64,6,9,,,,,,,30,,,,,,,,2407.8552878999617,2407.8552878999617,2407.8552878999617,2407.8552878999617,2407.8552878999617,left,1.687140799826011,2,0,0,99,0.48000000000000004,0.16,left,1.6071419999934733,,,,,2406.2995582998265,2407.8552878999617,0.32,0,0.24,0.0,0.12,0.32,0.32,0.32,0,2403.8578790999018,2403.8578790999018,2403.8578790999018,2403.8578790999018,2403.8578790999018,2403.8578790999018,2403.8578790999018,2403.8578790999018,2403.8474182499576,2.554553700145334,return,2.424191900063306,,,,,,,,,,,,,,,,,,,,,,,,,,,,,,,,,Z7NTMK,train_y,blue_star,top_right,2025-04-04_14h27.13.572,HideSeek_v1,2022.2.5,59.93443176265626,
,9,7,9,7,0,0,61,,train_dim1_1,8,30,,,,2,0,2,0,,,,,,,,,0,0,0,0,0,7,7,7,1,0,1,0,,,,,,,,,,,,,,,,,,,,,,,,,,,,,,,,,,,,,,,,,,,,,,,,,,,,,,,,,,,,,,,,30,,,,,,,,2409.5526623998303,2409.5526623998303,2409.5526623998303,2409.5526623998303,2409.5526623998303,right,2.294240399962291,2,0,0,99,0.56,0.16,right,2.2033669999800622,,,,,,,,,,,,,,,,,,,,,,,,,,,,,,,,,,,,,,,,,,,,,,,,,,,,,,,,,,,,Z7NTMK,train_y,blue_star,top_right,2025-04-04_14h27.13.572,HideSeek_v1,2022.2.5,59.93443176265626,
,9,7,9,7,0,0,61,,train_dim1_1,8,30,,,,2,0,2,0,,,,,,,,,0,0,0,0,0,7,7,7,2,0,2,0,,,,,,,,,,,,,,,,,,,,,,,,,,,,,,,,,,,,,,,,,,,,,,,,,,,,,,,,,,,,,,,,30,,,,,,,,2411.850976199843,2411.850976199843,2411.850976199843,2411.850976199843,2411.850976199843,return,0.3763346001505852,3,0,0,1,0.56,0.16,return,0.2959080000873655,-23,0,0.56,0.16,,,,,,,,,,,,,,,,,,,,,,,,,,,,,,,,,,,,,,,,,,,,,,,,,,,,,,,,Z7NTMK,train_y,blue_star,top_right,2025-04-04_14h27.13.572,HideSeek_v1,2022.2.5,59.93443176265626,
,9,8,9,4,0,-4,65,,train_dim1_1,9,30,,,,2,0,2,0,,,,,,,,,0,0,0,0,0,8,8,8,0,0,0,0,,,,,,,,,,,,,,,,,,,,,,,,,stimuli/alien_stimuli/65.png,,,,,,,,,,,,,,,,,,,,,,,,,,,,,stimuli/alien_stimuli/61.png,61,9,10,,,,,,,30,,,,,,,,2419.1105820999946,2419.1105820999946,2419.1105820999946,2419.1105820999946,2419.1105820999946,right,1.2234944000374526,3,0,0,99,0.64,0.24,right,1.1513355998322368,,,,,2417.5588360999245,2419.1105820999946,0.56,0.16,0.0,0.0,0.16,0.56,0.56,0.56,0.16,2413.7798907000106,2413.7798907000106,2413.7798907000106,2413.7798907000106,2413.7798907000106,2413.7798907000106,2413.7798907000106,2413.7798907000106,2413.7721092998518,3.8722413999494165,return,3.753626700025052,,,,,,,,,,,,,,,,,,,,,,,,,,,,,,,,,Z7NTMK,train_y,blue_star,top_right,2025-04-04_14h27.13.572,HideSeek_v1,2022.2.5,59.93443176265626,
,9,8,9,4,0,-4,65,,train_dim1_1,9,30,,,,2,0,2,0,,,,,,,,,0,0,0,0,0,8,8,8,1,0,1,0,,,,,,,,,,,,,,,,,,,,,,,,,,,,,,,,,,,,,,,,,,,,,,,,,,,,,,,,,,,,,,,,30,,,,,,,,2420.340564999962,2420.340564999962,2420.340564999962,2420.340564999962,2420.340564999962,left,0.6603882999625057,3,0,0,99,0.56,0.24,left,0.5807785999495536,,,,,,,,,,,,,,,,,,,,,,,,,,,,,,,,,,,,,,,,,,,,,,,,,,,,,,,,,,,,Z7NTMK,train_y,blue_star,top_right,2025-04-04_14h27.13.572,HideSeek_v1,2022.2.5,59.93443176265626,
,9,8,9,4,0,-4,65,,train_dim1_1,9,30,,,,2,0,2,0,,,,,,,,,0,0,0,0,0,8,8,8,2,0,2,0,,,,,,,,,,,,,,,,,,,,,,,,,,,,,,,,,,,,,,,,,,,,,,,,,,,,,,,,,,,,,,,,30,,,,,,,,2421.0079562000465,2421.0079562000465,2421.0079562000465,2421.0079562000465,2421.0079562000465,right,2.661767899990082,3,0,0,99,0.64,0.24,right,2.587756499880925,,,,,,,,,,,,,,,,,,,,,,,,,,,,,,,,,,,,,,,,,,,,,,,,,,,,,,,,,,,,Z7NTMK,train_y,blue_star,top_right,2025-04-04_14h27.13.572,HideSeek_v1,2022.2.5,59.93443176265626,
,9,8,9,4,0,-4,65,,train_dim1_1,9,30,,,,2,0,2,0,,,,,,,,,0,0,0,0,0,8,8,8,3,0,3,0,,,,,,,,,,,,,,,,,,,,,,,,,,,,,,,,,,,,,,,,,,,,,,,,,,,,,,,,,,,,,,,,30,,,,,,,,2423.6771921999753,2423.6771921999753,2423.6771921999753,2423.6771921999753,2423.6771921999753,right,0.3598523000255227,3,0,0,99,0.72,0.24,right,0.28298099990934134,,,,,,,,,,,,,,,,,,,,,,,,,,,,,,,,,,,,,,,,,,,,,,,,,,,,,,,,,,,,Z7NTMK,train_y,blue_star,top_right,2025-04-04_14h27.13.572,HideSeek_v1,2022.2.5,59.93443176265626,
,9,8,9,4,0,-4,65,,train_dim1_1,9,30,,,,2,0,2,0,,,,,,,,,0,0,0,0,0,8,8,8,4,0,4,0,,,,,,,,,,,,,,,,,,,,,,,,,,,,,,,,,,,,,,,,,,,,,,,,,,,,,,,,,,,,,,,,30,,,,,,,,2424.0437771999277,2424.0437771999277,2424.0437771999277,2424.0437771999277,2424.0437771999277,right,0.626972199883312,3,0,0,99,0.7999999999999999,0.24,right,0.539805700071156,,,,,,,,,,,,,,,,,,,,,,,,,,,,,,,,,,,,,,,,,,,,,,,,,,,,,,,,,,,,Z7NTMK,train_y,blue_star,top_right,2025-04-04_14h27.13.572,HideSeek_v1,2022.2.5,59.93443176265626,
,9,8,9,4,0,-4,65,,train_dim1_1,9,30,,,,2,0,2,0,,,,,,,,,0,0,0,0,0,8,8,8,5,0,5,0,,,,,,,,,,,,,,,,,,,,,,,,,,,,,,,,,,,,,,,,,,,,,,,,,,,,,,,,,,,,,,,,30,,,,,,,,2424.6804143998306,2424.6804143998306,2424.6804143998306,2424.6804143998306,2424.6804143998306,right,0.5102938998024911,3,0,0,99,0.8799999999999999,0.24,right,0.42700759996660054,,,,,,,,,,,,,,,,,,,,,,,,,,,,,,,,,,,,,,,,,,,,,,,,,,,,,,,,,,,,Z7NTMK,train_y,blue_star,top_right,2025-04-04_14h27.13.572,HideSeek_v1,2022.2.5,59.93443176265626,
,9,8,9,4,0,-4,65,,train_dim1_1,9,30,,,,2,0,2,0,,,,,,,,,0,0,0,0,0,8,8,8,6,0,6,0,,,,,,,,,,,,,,,,,,,,,,,,,,,,,,,,,,,,,,,,,,,,,,,,,,,,,,,,,,,,,,,,30,,,,,,,,2425.1954450998455,2425.1954450998455,2425.1954450998455,2425.1954450998455,2425.1954450998455,left,0.5429996999446303,3,0,0,99,0.7999999999999999,0.24,left,0.4598369998857379,,,,,,,,,,,,,,,,,,,,,,,,,,,,,,,,,,,,,,,,,,,,,,,,,,,,,,,,,,,,Z7NTMK,train_y,blue_star,top_right,2025-04-04_14h27.13.572,HideSeek_v1,2022.2.5,59.93443176265626,
,9,8,9,4,0,-4,65,,train_dim1_1,9,30,,,,2,0,2,0,,,,,,,,,0,0,0,0,0,8,8,8,7,0,7,0,,,,,,,,,,,,,,,,,,,,,,,,,,,,,,,,,,,,,,,,,,,,,,,,,,,,,,,,,,,,,,,,30,,,,,,,,2425.7450053000357,2425.7450053000357,2425.7450053000357,2425.7450053000357,2425.7450053000357,left,0.9440807001665235,3,0,0,99,0.72,0.24,left,0.8683984999079257,,,,,,,,,,,,,,,,,,,,,,,,,,,,,,,,,,,,,,,,,,,,,,,,,,,,,,,,,,,,Z7NTMK,train_y,blue_star,top_right,2025-04-04_14h27.13.572,HideSeek_v1,2022.2.5,59.93443176265626,
,9,8,9,4,0,-4,65,,train_dim1_1,9,30,,,,2,0,2,0,,,,,,,,,0,0,0,0,0,8,8,8,8,0,8,0,,,,,,,,,,,,,,,,,,,,,,,,,,,,,,,,,,,,,,,,,,,,,,,,,,,,,,,,,,,,,,,,30,,,,,,,,2426.6971313999966,2426.6971313999966,2426.6971313999966,2426.6971313999966,2426.6971313999966,left,0.30991650000214577,3,0,0,99,0.64,0.24,left,0.23308450006879866,,,,,,,,,,,,,,,,,,,,,,,,,,,,,,,,,,,,,,,,,,,,,,,,,,,,,,,,,,,,Z7NTMK,train_y,blue_star,top_right,2025-04-04_14h27.13.572,HideSeek_v1,2022.2.5,59.93443176265626,
,9,8,9,4,0,-4,65,,train_dim1_1,9,30,,,,2,0,2,0,,,,,,,,,0,0,0,0,0,8,8,8,9,0,9,0,,,,,,,,,,,,,,,,,,,,,,,,,,,,,,,,,,,,,,,,,,,,,,,,,,,,,,,,,,,,,,,,30,,,,,,,,2427.0126427998766,2427.0126427998766,2427.0126427998766,2427.0126427998766,2427.0126427998766,left,0.20992699987255037,3,0,0,99,0.56,0.24,left,0.1370993999298662,,,,,,,,,,,,,,,,,,,,,,,,,,,,,,,,,,,,,,,,,,,,,,,,,,,,,,,,,,,,Z7NTMK,train_y,blue_star,top_right,2025-04-04_14h27.13.572,HideSeek_v1,2022.2.5,59.93443176265626,
,9,8,9,4,0,-4,65,,train_dim1_1,9,30,,,,2,0,2,0,,,,,,,,,0,0,0,0,0,8,8,8,10,0,10,0,,,,,,,,,,,,,,,,,,,,,,,,,,,,,,,,,,,,,,,,,,,,,,,,,,,,,,,,,,,,,,,,30,,,,,,,,2427.230602100026,2427.230602100026,2427.230602100026,2427.230602100026,2427.230602100026,down,1.9780560999643058,3,0,0,99,0.56,0.15999999999999998,down,1.9021753000561148,,,,,,,,,,,,,,,,,,,,,,,,,,,,,,,,,,,,,,,,,,,,,,,,,,,,,,,,,,,,Z7NTMK,train_y,blue_star,top_right,2025-04-04_14h27.13.572,HideSeek_v1,2022.2.5,59.93443176265626,
,9,8,9,4,0,-4,65,,train_dim1_1,9,30,,,,2,0,2,0,,,,,,,,,0,0,0,0,0,8,8,8,11,0,11,0,,,,,,,,,,,,,,,,,,,,,,,,,,,,,,,,,,,,,,,,,,,,,,,,,,,,,,,,,,,,,,,,30,,,,,,,,2429.215082499897,2429.215082499897,2429.215082499897,2429.215082499897,2429.215082499897,down,0.3931112000718713,3,0,0,99,0.56,0.07999999999999997,down,0.30918410001322627,,,,,,,,,,,,,,,,,,,,,,,,,,,,,,,,,,,,,,,,,,,,,,,,,,,,,,,,,,,,Z7NTMK,train_y,blue_star,top_right,2025-04-04_14h27.13.572,HideSeek_v1,2022.2.5,59.93443176265626,
,9,8,9,4,0,-4,65,,train_dim1_1,9,30,,,,2,0,2,0,,,,,,,,,0,0,0,0,0,8,8,8,12,0,12,0,,,,,,,,,,,,,,,,,,,,,,,,,,,,,,,,,,,,,,,,,,,,,,,,,,,,,,,,,,,,,,,,30,,,,,,,,2429.6151162998285,2429.6151162998285,2429.6151162998285,2429.6151162998285,2429.6151162998285,down,0.34336340008303523,3,0,0,99,0.56,-2.7755575615628914e-17,down,0.2604805000592023,,,,,,,,,,,,,,,,,,,,,,,,,,,,,,,,,,,,,,,,,,,,,,,,,,,,,,,,,,,,Z7NTMK,train_y,blue_star,top_right,2025-04-04_14h27.13.572,HideSeek_v1,2022.2.5,59.93443176265626,
,9,8,9,4,0,-4,65,,train_dim1_1,9,30,,,,2,0,2,0,,,,,,,,,0,0,0,0,0,8,8,8,13,0,13,0,,,,,,,,,,,,,,,,,,,,,,,,,,,,,,,,,,,,,,,,,,,,,,,,,,,,,,,,,,,,,,,,30,,,,,,,,2429.9661121000536,2429.9661121000536,2429.9661121000536,2429.9661121000536,2429.9661121000536,down,0.4435175999533385,3,0,0,99,0.56,-0.08000000000000003,down,0.35474750003777444,,,,,,,,,,,,,,,,,,,,,,,,,,,,,,,,,,,,,,,,,,,,,,,,,,,,,,,,,,,,Z7NTMK,train_y,blue_star,top_right,2025-04-04_14h27.13.572,HideSeek_v1,2022.2.5,59.93443176265626,
,9,8,9,4,0,-4,65,,train_dim1_1,9,30,,,,2,0,2,0,,,,,,,,,0,0,0,0,0,8,8,8,14,0,14,0,,,,,,,,,,,,,,,,,,,,,,,,,,,,,,,,,,,,,,,,,,,,,,,,,,,,,,,,,,,,,,,,30,,,,,,,,2430.4161473999266,2430.4161473999266,2430.4161473999266,2430.4161473999266,2430.4161473999266,down,0.4935244000516832,3,0,0,99,0.56,-0.16000000000000003,down,0.4101299000903964,,,,,,,,,,,,,,,,,,,,,,,,,,,,,,,,,,,,,,,,,,,,,,,,,,,,,,,,,,,,Z7NTMK,train_y,blue_star,top_right,2025-04-04_14h27.13.572,HideSeek_v1,2022.2.5,59.93443176265626,
,9,8,9,4,0,-4,65,,train_dim1_1,9,30,,,,2,0,2,0,,,,,,,,,0,0,0,0,0,8,8,8,15,0,15,0,,,,,,,,,,,,,,,,,,,,,,,,,,,,,,,,,,,,,,,,,,,,,,,,,,,,,,,,,,,,,,,,30,,,,,,,,2430.9168427998666,2430.9168427998666,2430.9168427998666,2430.9168427998666,2430.9168427998666,return,0.8102488000877202,3,1,0,0,0.56,-0.16000000000000003,return,0.7261437999550253,-28,0,0.56,-0.16000000000000003,,,,,,,,,,,,,,,,,,,,,,,,,,,,,,,,,,,,,,,,,,,,,,,,,,,,,,,,Z7NTMK,train_y,blue_star,top_right,2025-04-04_14h27.13.572,HideSeek_v1,2022.2.5,59.93443176265626,
,7,7,7,2,0,-5,66,,train_dim1_1,10,30,,,,2,0,2,0,,,,,,,,,0,0,0,0,0,9,9,9,0,0,0,0,,,,,,,,,,,,,,,,,,,,,,,,,stimuli/alien_stimuli/66.png,,,,,,,,,,,,,,,,,,,,,,,,,,,,,stimuli/alien_stimuli/65.png,65,9,11,,,,,,,30,,,,,,,,2437.5096286998596,2437.5096286998596,2437.5096286998596,2437.5096286998596,2437.5096286998596,down,1.8072104000020772,3,1,0,99,0.4,0.08,down,1.7268507000990212,,,,,2435.9573407999706,2437.5096286998596,0.56,-0.08,0.32,0.0,0.07999999999999999,0.56,0.56,0.56,-0.08,2433.294974199962,2433.294974199962,2433.294974199962,2433.294974199962,2433.294974199962,2433.294974199962,2433.294974199962,2433.294974199962,2433.2887463498864,2.771034999983385,return,2.6426717001013458,,,,,,,,,,,,,,,,,,,,,,,,,,,,,,,,,Z7NTMK,train_y,blue_star,top_right,2025-04-04_14h27.13.572,HideSeek_v1,2022.2.5,59.93443176265626,
,7,7,7,2,0,-5,66,,train_dim1_1,10,30,,,,2,0,2,0,,,,,,,,,0,0,0,0,0,9,9,9,1,0,1,0,,,,,,,,,,,,,,,,,,,,,,,,,,,,,,,,,,,,,,,,,,,,,,,,,,,,,,,,,,,,,,,,30,,,,,,,,2439.324568900047,2439.324568900047,2439.324568900047,2439.324568900047,2439.324568900047,down,1.5266430000774562,3,1,0,99,0.4,0.0,down,1.4498493999708444,,,,,,,,,,,,,,,,,,,,,,,,,,,,,,,,,,,,,,,,,,,,,,,,,,,,,,,,,,,,Z7NTMK,train_y,blue_star,top_right,2025-04-04_14h27.13.572,HideSeek_v1,2022.2.5,59.93443176265626,
,7,7,7,2,0,-5,66,,train_dim1_1,10,30,,,,2,0,2,0,,,,,,,,,0,0,0,0,0,9,9,9,2,0,2,0,,,,,,,,,,,,,,,,,,,,,,,,,,,,,,,,,,,,,,,,,,,,,,,,,,,,,,,,,,,,,,,,30,,,,,,,,2440.857880299911,2440.857880299911,2440.857880299911,2440.857880299911,2440.857880299911,down,0.42683849995955825,3,1,0,99,0.4,-0.08,down,0.35407939995639026,,,,,,,,,,,,,,,,,,,,,,,,,,,,,,,,,,,,,,,,,,,,,,,,,,,,,,,,,,,,Z7NTMK,train_y,blue_star,top_right,2025-04-04_14h27.13.572,HideSeek_v1,2022.2.5,59.93443176265626,
,7,7,7,2,0,-5,66,,train_dim1_1,10,30,,,,2,0,2,0,,,,,,,,,0,0,0,0,0,9,9,9,3,0,3,0,,,,,,,,,,,,,,,,,,,,,,,,,,,,,,,,,,,,,,,,,,,,,,,,,,,,,,,,,,,,,,,,30,,,,,,,,2441.2912580999546,2441.2912580999546,2441.2912580999546,2441.2912580999546,2441.2912580999546,down,0.9605753999203444,3,1,0,99,0.4,-0.16,down,0.8882122000213712,,,,,,,,,,,,,,,,,,,,,,,,,,,,,,,,,,,,,,,,,,,,,,,,,,,,,,,,,,,,Z7NTMK,train_y,blue_star,top_right,2025-04-04_14h27.13.572,HideSeek_v1,2022.2.5,59.93443176265626,
,7,7,7,2,0,-5,66,,train_dim1_1,10,30,,,,2,0,2,0,,,,,,,,,0,0,0,0,0,9,9,9,4,0,4,0,,,,,,,,,,,,,,,,,,,,,,,,,,,,,,,,,,,,,,,,,,,,,,,,,,,,,,,,,,,,,,,,30,,,,,,,,2442.258995299926,2442.258995299926,2442.258995299926,2442.258995299926,2442.258995299926,return,0.5268712001852691,3,1,0,0,0.4,-0.16,return,0.4387849001213908,-32,0,0.4,-0.16,,,,,,,,,,,,,,,,,,,,,,,,,,,,,,,,,,,,,,,,,,,,,,,,,,,,,,,,Z7NTMK,train_y,blue_star,top_right,2025-04-04_14h27.13.572,HideSeek_v1,2022.2.5,59.93443176265626,
,9,6,9,2,0,-4,65,,train_dim1_1,11,30,,,,2,0,2,0,,,,,,,,,0,0,0,0,0,10,10,10,0,0,0,0,,,,,,,,,,,,,,,,,,,,,,,,,stimuli/alien_stimuli/65.png,,,,,,,,,,,,,,,,,,,,,,,,,,,,,stimuli/alien_stimuli/66.png,66,7,12,,,,,,,30,,,,,,,,2447.567250599852,2447.567250599852,2447.567250599852,2447.567250599852,2447.567250599852,down,1.3239816999994218,3,1,0,99,0.56,0.0,down,1.2505245001520962,,,,,2446.015720800031,2447.567250599852,0.4,-0.24,0.4,0.0,-0.039999999999999994,0.4,0.4,0.4,-0.24,2444.350628899876,2444.350628899876,2444.350628899876,2444.350628899876,2444.350628899876,2444.350628899876,2444.350628899876,2444.350628899876,2444.34779554992,1.7699567000381649,return,1.643031100044027,,,,,,,,,,,,,,,,,,,,,,,,,,,,,,,,,Z7NTMK,train_y,blue_star,top_right,2025-04-04_14h27.13.572,HideSeek_v1,2022.2.5,59.93443176265626,
,9,6,9,2,0,-4,65,,train_dim1_1,11,30,,,,2,0,2,0,,,,,,,,,0,0,0,0,0,10,10,10,1,0,1,0,,,,,,,,,,,,,,,,,,,,,,,,,,,,,,,,,,,,,,,,,,,,,,,,,,,,,,,,,,,,,,,,30,,,,,,,,2448.8994142999873,2448.8994142999873,2448.8994142999873,2448.8994142999873,2448.8994142999873,down,1.7938515001442283,3,1,0,99,0.56,-0.08,down,1.7191327000036836,,,,,,,,,,,,,,,,,,,,,,,,,,,,,,,,,,,,,,,,,,,,,,,,,,,,,,,,,,,,Z7NTMK,train_y,blue_star,top_right,2025-04-04_14h27.13.572,HideSeek_v1,2022.2.5,59.93443176265626,
,9,6,9,2,0,-4,65,,train_dim1_1,11,30,,,,2,0,2,0,,,,,,,,,0,0,0,0,0,10,10,10,2,0,2,0,,,,,,,,,,,,,,,,,,,,,,,,,,,,,,,,,,,,,,,,,,,,,,,,,,,,,,,,,,,,,,,,30,,,,,,,,2450.7017323998734,2450.7017323998734,2450.7017323998734,2450.7017323998734,2450.7017323998734,down,0.5428760000504553,3,1,0,99,0.56,-0.16,down,0.46811220003291965,,,,,,,,,,,,,,,,,,,,,,,,,,,,,,,,,,,,,,,,,,,,,,,,,,,,,,,,,,,,Z7NTMK,train_y,blue_star,top_right,2025-04-04_14h27.13.572,HideSeek_v1,2022.2.5,59.93443176265626,
,9,6,9,2,0,-4,65,,train_dim1_1,11,30,,,,2,0,2,0,,,,,,,,,0,0,0,0,0,10,10,10,3,0,3,0,,,,,,,,,,,,,,,,,,,,,,,,,,,,,,,,,,,,,,,,,,,,,,,,,,,,,,,,,,,,,,,,30,,,,,,,,2451.2501482998487,2451.2501482998487,2451.2501482998487,2451.2501482998487,2451.2501482998487,down,0.4937324000056833,3,1,0,99,0.56,-0.24,down,0.4205853999592364,,,,,,,,,,,,,,,,,,,,,,,,,,,,,,,,,,,,,,,,,,,,,,,,,,,,,,,,,,,,Z7NTMK,train_y,blue_star,top_right,2025-04-04_14h27.13.572,HideSeek_v1,2022.2.5,59.93443176265626,
,9,6,9,2,0,-4,65,,train_dim1_1,11,30,,,,2,0,2,0,,,,,,,,,0,0,0,0,0,10,10,10,4,0,4,0,,,,,,,,,,,,,,,,,,,,,,,,,,,,,,,,,,,,,,,,,,,,,,,,,,,,,,,,,,,,,,,,30,,,,,,,,2451.7513287998736,2451.7513287998736,2451.7513287998736,2451.7513287998736,2451.7513287998736,return,0.45965089998207986,4,0,0,1,0.56,-0.24,return,0.38404199993237853,-36,0,0.56,-0.24,,,,,,,,,,,,,,,,,,,,,,,,,,,,,,,,,,,,,,,,,,,,,,,,,,,,,,,,Z7NTMK,train_y,blue_star,top_right,2025-04-04_14h27.13.572,HideSeek_v1,2022.2.5,59.93443176265626,
,5,5,5,5,0,0,61,,train_dim1_1,12,30,,,,2,0,2,0,,,,,,,,,0,0,0,0,0,11,11,11,0,0,0,0,,,,,,,,,,,,,,,,,,,,,,,,,stimuli/alien_stimuli/61.png,,,,,,,,,,,,,,,,,,,,,,,,,,,,,stimuli/alien_stimuli/65.png,65,9,13,,,,,,,30,,,,,,,,2456.2084663000423,2456.2084663000423,2456.2084663000423,2456.2084663000423,2456.2084663000423,left,1.4730857000686228,4,0,0,99,0.15999999999999998,0,left,1.398765099933371,,,,,2454.6563253998756,2456.2084663000423,0.56,-0.24,0.32,0.0,-0.07999999999999999,0.56,0.56,0.56,-0.24,2453.76044610003,2453.76044610003,2453.76044610003,2453.76044610003,2453.76044610003,2453.76044610003,2453.76044610003,2453.76044610003,2453.755899300054,0.986076699802652,return,0.87553930003196,,,,,,,,,,,,,,,,,,,,,,,,,,,,,,,,,Z7NTMK,train_y,blue_star,top_right,2025-04-04_14h27.13.572,HideSeek_v1,2022.2.5,59.93443176265626,
,5,5,5,5,0,0,61,,train_dim1_1,12,30,,,,2,0,2,0,,,,,,,,,0,0,0,0,0,11,11,11,1,0,1,0,,,,,,,,,,,,,,,,,,,,,,,,,,,,,,,,,,,,,,,,,,,,,,,,,,,,,,,,,,,,,,,,30,,,,,,,,2457.689276699908,2457.689276699908,2457.689276699908,2457.689276699908,2457.689276699908,right,1.527255800087005,4,0,0,99,0.24,0,right,1.4388725999742746,,,,,,,,,,,,,,,,,,,,,,,,,,,,,,,,,,,,,,,,,,,,,,,,,,,,,,,,,,,,Z7NTMK,train_y,blue_star,top_right,2025-04-04_14h27.13.572,HideSeek_v1,2022.2.5,59.93443176265626,
,5,5,5,5,0,0,61,,train_dim1_1,12,30,,,,2,0,2,0,,,,,,,,,0,0,0,0,0,11,11,11,2,0,2,0,,,,,,,,,,,,,,,,,,,,,,,,,,,,,,,,,,,,,,,,,,,,,,,,,,,,,,,,,,,,,,,,30,,,,,,,,2459.223702499876,2459.223702499876,2459.223702499876,2459.223702499876,2459.223702499876,down,1.0271564000286162,4,0,0,99,0.24,-0.08,down,0.9533101001288742,,,,,,,,,,,,,,,,,,,,,,,,,,,,,,,,,,,,,,,,,,,,,,,,,,,,,,,,,,,,Z7NTMK,train_y,blue_star,top_right,2025-04-04_14h27.13.572,HideSeek_v1,2022.2.5,59.93443176265626,
,5,5,5,5,0,0,61,,train_dim1_1,12,30,,,,2,0,2,0,,,,,,,,,0,0,0,0,0,11,11,11,3,0,3,0,,,,,,,,,,,,,,,,,,,,,,,,,,,,,,,,,,,,,,,,,,,,,,,,,,,,,,,,,,,,,,,,30,,,,,,,,2460.2579122998286,2460.2579122998286,2460.2579122998286,2460.2579122998286,2460.2579122998286,down,0.29312420007772744,4,0,0,99,0.24,-0.16,down,0.2050419000443071,,,,,,,,,,,,,,,,,,,,,,,,,,,,,,,,,,,,,,,,,,,,,,,,,,,,,,,,,,,,Z7NTMK,train_y,blue_star,top_right,2025-04-04_14h27.13.572,HideSeek_v1,2022.2.5,59.93443176265626,
,5,5,5,5,0,0,61,,train_dim1_1,12,30,,,,2,0,2,0,,,,,,,,,0,0,0,0,0,11,11,11,4,0,4,0,,,,,,,,,,,,,,,,,,,,,,,,,,,,,,,,,,,,,,,,,,,,,,,,,,,,,,,,,,,,,,,,30,,,,,,,,2460.5583971999586,2460.5583971999586,2460.5583971999586,2460.5583971999586,2460.5583971999586,up,2.0612280000932515,4,0,0,99,0.24,-0.08,up,1.9738805999513716,,,,,,,,,,,,,,,,,,,,,,,,,,,,,,,,,,,,,,,,,,,,,,,,,,,,,,,,,,,,Z7NTMK,train_y,blue_star,top_right,2025-04-04_14h27.13.572,HideSeek_v1,2022.2.5,59.93443176265626,
,5,5,5,5,0,0,61,,train_dim1_1,12,30,,,,2,0,2,0,,,,,,,,,0,0,0,0,0,11,11,11,5,0,5,0,,,,,,,,,,,,,,,,,,,,,,,,,,,,,,,,,,,,,,,,,,,,,,,,,,,,,,,,,,,,,,,,30,,,,,,,,2462.6279351999983,2462.6279351999983,2462.6279351999983,2462.6279351999983,2462.6279351999983,return,0.8264993000775576,4,1,0,0,0.24,-0.08,return,0.7394894999451935,-37,0,0.24,-0.08,,,,,,,,,,,,,,,,,,,,,,,,,,,,,,,,,,,,,,,,,,,,,,,,,,,,,,,,Z7NTMK,train_y,blue_star,top_right,2025-04-04_14h27.13.572,HideSeek_v1,2022.2.5,59.93443176265626,
,9,8,9,7,0,-1,62,,train_dim1_1,13,30,,,,2,0,2,0,,,,,,,,,0,0,0,0,0,12,12,12,0,0,0,0,,,,,,,,,,,,,,,,,,,,,,,,,stimuli/alien_stimuli/62.png,,,,,,,,,,,,,,,,,,,,,,,,,,,,,stimuli/alien_stimuli/61.png,61,5,14,,,,,,,30,,,,,,,,2468.418288500048,2468.418288500048,2468.418288500048,2468.418288500048,2468.418288500048,down,1.4739925998728722,4,1,0,99,0.56,0.15999999999999998,down,1.3920667001511902,,,,,2466.8663655999117,2468.418288500048,0.24,0,0.0,0.0,0.0,0.24,0.24,0.24,0,2465.0040638998616,2465.0040638998616,2465.0040638998616,2465.0040638998616,2465.0040638998616,2465.0040638998616,2465.0040638998616,2465.0040638998616,2464.9981498999523,1.9539061000104994,return,1.8328067001421005,,,,,,,,,,,,,,,,,,,,,,,,,,,,,,,,,Z7NTMK,train_y,blue_star,top_right,2025-04-04_14h27.13.572,HideSeek_v1,2022.2.5,59.93443176265626,
,9,8,9,7,0,-1,62,,train_dim1_1,13,30,,,,2,0,2,0,,,,,,,,,0,0,0,0,0,12,12,12,1,0,1,0,,,,,,,,,,,,,,,,,,,,,,,,,,,,,,,,,,,,,,,,,,,,,,,,,,,,,,,,,,,,,,,,30,,,,,,,,2469.900362699991,2469.900362699991,2469.900362699991,2469.900362699991,2469.900362699991,return,1.177160399965942,5,0,0,1,0.56,0.15999999999999998,return,1.090408599935472,-38,0,0.56,0.15999999999999998,,,,,,,,,,,,,,,,,,,,,,,,,,,,,,,,,,,,,,,,,,,,,,,,,,,,,,,,Z7NTMK,train_y,blue_star,top_right,2025-04-04_14h27.13.572,HideSeek_v1,2022.2.5,59.93443176265626,
,7,7,7,2,0,-5,66,,train_dim1_1,14,30,,,,2,0,2,0,,,,,,,,,0,0,0,0,0,13,13,13,0,0,0,0,,,,,,,,,,,,,,,,,,,,,,,,,stimuli/alien_stimuli/66.png,,,,,,,,,,,,,,,,,,,,,,,,,,,,,stimuli/alien_stimuli/62.png,62,9,15,,,,,,,30,,,,,,,,2475.457388999872,2475.457388999872,2475.457388999872,2475.457388999872,2475.457388999872,down,1.456490500131622,5,0,0,99,0.4,0.08,down,1.377808100078255,,,,,2473.9055447999854,2475.457388999872,0.56,0.16,0.08,0.0,0.2,0.56,0.56,0.56,0.16,2472.6272819000296,2472.6272819000296,2472.6272819000296,2472.6272819000296,2472.6272819000296,2472.6272819000296,2472.6272819000296,2472.6272819000296,2472.621166199865,1.369999899994582,return,1.2533283999655396,,,,,,,,,,,,,,,,,,,,,,,,,,,,,,,,,Z7NTMK,train_y,blue_star,top_right,2025-04-04_14h27.13.572,HideSeek_v1,2022.2.5,59.93443176265626,
,7,7,7,2,0,-5,66,,train_dim1_1,14,30,,,,2,0,2,0,,,,,,,,,0,0,0,0,0,13,13,13,1,0,1,0,,,,,,,,,,,,,,,,,,,,,,,,,,,,,,,,,,,,,,,,,,,,,,,,,,,,,,,,,,,,,,,,30,,,,,,,,2476.9229224999435,2476.9229224999435,2476.9229224999435,2476.9229224999435,2476.9229224999435,down,3.1118749000597745,5,0,0,99,0.4,0.0,down,3.036082800012082,,,,,,,,,,,,,,,,,,,,,,,,,,,,,,,,,,,,,,,,,,,,,,,,,,,,,,,,,,,,Z7NTMK,train_y,blue_star,top_right,2025-04-04_14h27.13.572,HideSeek_v1,2022.2.5,59.93443176265626,
,7,7,7,2,0,-5,66,,train_dim1_1,14,30,,,,2,0,2,0,,,,,,,,,0,0,0,0,0,13,13,13,2,0,2,0,,,,,,,,,,,,,,,,,,,,,,,,,,,,,,,,,,,,,,,,,,,,,,,,,,,,,,,,,,,,,,,,30,,,,,,,,2480.040041500004,2480.040041500004,2480.040041500004,2480.040041500004,2480.040041500004,down,0.4770223998930305,5,0,0,99,0.4,-0.08,down,0.38961439998820424,,,,,,,,,,,,,,,,,,,,,,,,,,,,,,,,,,,,,,,,,,,,,,,,,,,,,,,,,,,,Z7NTMK,train_y,blue_star,top_right,2025-04-04_14h27.13.572,HideSeek_v1,2022.2.5,59.93443176265626,
,7,7,7,2,0,-5,66,,train_dim1_1,14,30,,,,2,0,2,0,,,,,,,,,0,0,0,0,0,13,13,13,3,0,3,0,,,,,,,,,,,,,,,,,,,,,,,,,,,,,,,,,,,,,,,,,,,,,,,,,,,,,,,,,,,,,,,,30,,,,,,,,2480.5247643999755,2480.5247643999755,2480.5247643999755,2480.5247643999755,2480.5247643999755,down,0.5266821999102831,5,0,0,99,0.4,-0.16,down,0.4441021999809891,,,,,,,,,,,,,,,,,,,,,,,,,,,,,,,,,,,,,,,,,,,,,,,,,,,,,,,,,,,,Z7NTMK,train_y,blue_star,top_right,2025-04-04_14h27.13.572,HideSeek_v1,2022.2.5,59.93443176265626,
,7,7,7,2,0,-5,66,,train_dim1_1,14,30,,,,2,0,2,0,,,,,,,,,0,0,0,0,0,13,13,13,4,0,4,0,,,,,,,,,,,,,,,,,,,,,,,,,,,,,,,,,,,,,,,,,,,,,,,,,,,,,,,,,,,,,,,,30,,,,,,,,2481.0589123999234,2481.0589123999234,2481.0589123999234,2481.0589123999234,2481.0589123999234,up,1.5106252999976277,5,0,0,99,0.4,-0.08,up,1.4217628000769764,,,,,,,,,,,,,,,,,,,,,,,,,,,,,,,,,,,,,,,,,,,,,,,,,,,,,,,,,,,,Z7NTMK,train_y,blue_star,top_right,2025-04-04_14h27.13.572,HideSeek_v1,2022.2.5,59.93443176265626,
,7,7,7,2,0,-5,66,,train_dim1_1,14,30,,,,2,0,2,0,,,,,,,,,0,0,0,0,0,13,13,13,5,0,5,0,,,,,,,,,,,,,,,,,,,,,,,,,,,,,,,,,,,,,,,,,,,,,,,,,,,,,,,,,,,,,,,,30,,,,,,,,2482.5762755998876,2482.5762755998876,2482.5762755998876,2482.5762755998876,2482.5762755998876,up,0.22602310008369386,5,0,0,99,0.4,0.0,up,0.138428800040856,,,,,,,,,,,,,,,,,,,,,,,,,,,,,,,,,,,,,,,,,,,,,,,,,,,,,,,,,,,,Z7NTMK,train_y,blue_star,top_right,2025-04-04_14h27.13.572,HideSeek_v1,2022.2.5,59.93443176265626,
,7,7,7,2,0,-5,66,,train_dim1_1,14,30,,,,2,0,2,0,,,,,,,,,0,0,0,0,0,13,13,13,6,0,6,0,,,,,,,,,,,,,,,,,,,,,,,,,,,,,,,,,,,,,,,,,,,,,,,,,,,,,,,,,,,,,,,,30,,,,,,,,2482.809311100049,2482.809311100049,2482.809311100049,2482.809311100049,2482.809311100049,up,0.21011889982037246,5,0,0,99,0.4,0.08,up,0.13685030001215637,,,,,,,,,,,,,,,,,,,,,,,,,,,,,,,,,,,,,,,,,,,,,,,,,,,,,,,,,,,,Z7NTMK,train_y,blue_star,top_right,2025-04-04_14h27.13.572,HideSeek_v1,2022.2.5,59.93443176265626,
,7,7,7,2,0,-5,66,,train_dim1_1,14,30,,,,2,0,2,0,,,,,,,,,0,0,0,0,0,13,13,13,7,0,7,0,,,,,,,,,,,,,,,,,,,,,,,,,,,,,,,,,,,,,,,,,,,,,,,,,,,,,,,,,,,,,,,,30,,,,,,,,2483.026242799824,2483.026242799824,2483.026242799824,2483.026242799824,2483.026242799824,up,0.4598659002222121,5,0,0,99,0.4,0.16,up,0.37976039992645383,,,,,,,,,,,,,,,,,,,,,,,,,,,,,,,,,,,,,,,,,,,,,,,,,,,,,,,,,,,,Z7NTMK,train_y,blue_star,top_right,2025-04-04_14h27.13.572,HideSeek_v1,2022.2.5,59.93443176265626,
,7,7,7,2,0,-5,66,,train_dim1_1,14,30,,,,2,0,2,0,,,,,,,,,0,0,0,0,0,13,13,13,8,0,8,0,,,,,,,,,,,,,,,,,,,,,,,,,,,,,,,,,,,,,,,,,,,,,,,,,,,,,,,,,,,,,,,,30,,,,,,,,2483.493248899933,2483.493248899933,2483.493248899933,2483.493248899933,2483.493248899933,down,0.7106558000668883,5,0,0,99,0.4,0.08,down,0.6225085000041872,,,,,,,,,,,,,,,,,,,,,,,,,,,,,,,,,,,,,,,,,,,,,,,,,,,,,,,,,,,,Z7NTMK,train_y,blue_star,top_right,2025-04-04_14h27.13.572,HideSeek_v1,2022.2.5,59.93443176265626,
,7,7,7,2,0,-5,66,,train_dim1_1,14,30,,,,2,0,2,0,,,,,,,,,0,0,0,0,0,13,13,13,9,0,9,0,,,,,,,,,,,,,,,,,,,,,,,,,,,,,,,,,,,,,,,,,,,,,,,,,,,,,,,,,,,,,,,,30,,,,,,,,2484.210590200033,2484.210590200033,2484.210590200033,2484.210590200033,2484.210590200033,down,0.4099048001226038,5,0,0,99,0.4,0.0,down,0.3316758999135345,,,,,,,,,,,,,,,,,,,,,,,,,,,,,,,,,,,,,,,,,,,,,,,,,,,,,,,,,,,,Z7NTMK,train_y,blue_star,top_right,2025-04-04_14h27.13.572,HideSeek_v1,2022.2.5,59.93443176265626,
,7,7,7,2,0,-5,66,,train_dim1_1,14,30,,,,2,0,2,0,,,,,,,,,0,0,0,0,0,13,13,13,10,0,10,0,,,,,,,,,,,,,,,,,,,,,,,,,,,,,,,,,,,,,,,,,,,,,,,,,,,,,,,,,,,,,,,,30,,,,,,,,2484.6286388000008,2484.6286388000008,2484.6286388000008,2484.6286388000008,2484.6286388000008,down,0.526538799982518,5,0,0,99,0.4,-0.08,down,0.4435466998256743,,,,,,,,,,,,,,,,,,,,,,,,,,,,,,,,,,,,,,,,,,,,,,,,,,,,,,,,,,,,Z7NTMK,train_y,blue_star,top_right,2025-04-04_14h27.13.572,HideSeek_v1,2022.2.5,59.93443176265626,
,7,7,7,2,0,-5,66,,train_dim1_1,14,30,,,,2,0,2,0,,,,,,,,,0,0,0,0,0,13,13,13,11,0,11,0,,,,,,,,,,,,,,,,,,,,,,,,,,,,,,,,,,,,,,,,,,,,,,,,,,,,,,,,,,,,,,,,30,,,,,,,,2485.1613045998383,2485.1613045998383,2485.1613045998383,2485.1613045998383,2485.1613045998383,down,0.5103660998865962,5,0,0,99,0.4,-0.16,down,0.435364400036633,,,,,,,,,,,,,,,,,,,,,,,,,,,,,,,,,,,,,,,,,,,,,,,,,,,,,,,,,,,,Z7NTMK,train_y,blue_star,top_right,2025-04-04_14h27.13.572,HideSeek_v1,2022.2.5,59.93443176265626,
,7,7,7,2,0,-5,66,,train_dim1_1,14,30,,,,2,0,2,0,,,,,,,,,0,0,0,0,0,13,13,13,12,0,12,0,,,,,,,,,,,,,,,,,,,,,,,,,,,,,,,,,,,,,,,,,,,,,,,,,,,,,,,,,,,,,,,,30,,,,,,,,2485.678505099844,2485.678505099844,2485.678505099844,2485.678505099844,2485.678505099844,return,0.47661689994856715,5,1,0,0,0.4,-0.16,return,0.3955087000504136,-42,0,0.4,-0.16,,,,,,,,,,,,,,,,,,,,,,,,,,,,,,,,,,,,,,,,,,,,,,,,,,,,,,,,Z7NTMK,train_y,blue_star,top_right,2025-04-04_14h27.13.572,HideSeek_v1,2022.2.5,59.93443176265626,
,6,9,6,6,0,-3,64,,train_dim1_1,15,30,,,,2,0,2,0,,,,,,,,,0,0,0,0,0,14,14,14,0,0,0,0,,,,,,,,,,,,,,,,,,,,,,,,,stimuli/alien_stimuli/64.png,,,,,,,,,,,,,,,,,,,,,,,,,,,,,stimuli/alien_stimuli/66.png,66,7,16,,,,,,,30,,,,,,,,2490.7862688000314,2490.7862688000314,2490.7862688000314,2490.7862688000314,2490.7862688000314,down,1.07376250019297,5,1,0,99,0.32,0.24,down,0.9947194999549538,,,,,2489.235066599911,2490.7862688000314,0.4,-0.24,0.4,0.0,-0.039999999999999994,0.4,0.4,0.4,-0.24,2487.7265408998355,2487.7265408998355,2487.7265408998355,2487.7265408998355,2487.7265408998355,2487.7265408998355,2487.7265408998355,2487.7265408998355,2487.716898649838,1.6206288000103086,return,1.4844169998541474,,,,,,,,,,,,,,,,,,,,,,,,,,,,,,,,,Z7NTMK,train_y,blue_star,top_right,2025-04-04_14h27.13.572,HideSeek_v1,2022.2.5,59.93443176265626,
,6,9,6,6,0,-3,64,,train_dim1_1,15,30,,,,2,0,2,0,,,,,,,,,0,0,0,0,0,14,14,14,1,0,1,0,,,,,,,,,,,,,,,,,,,,,,,,,,,,,,,,,,,,,,,,,,,,,,,,,,,,,,,,,,,,,,,,30,,,,,,,,2491.867443899857,2491.867443899857,2491.867443899857,2491.867443899857,2491.867443899857,down,1.3933662998024374,5,1,0,99,0.32,0.15999999999999998,down,1.3178200998809189,,,,,,,,,,,,,,,,,,,,,,,,,,,,,,,,,,,,,,,,,,,,,,,,,,,,,,,,,,,,Z7NTMK,train_y,blue_star,top_right,2025-04-04_14h27.13.572,HideSeek_v1,2022.2.5,59.93443176265626,
,6,9,6,6,0,-3,64,,train_dim1_1,15,30,,,,2,0,2,0,,,,,,,,,0,0,0,0,0,14,14,14,2,0,2,0,,,,,,,,,,,,,,,,,,,,,,,,,,,,,,,,,,,,,,,,,,,,,,,,,,,,,,,,,,,,,,,,30,,,,,,,,2493.268190899864,2493.268190899864,2493.268190899864,2493.268190899864,2493.268190899864,down,0.31009269994683564,5,1,0,99,0.32,0.07999999999999997,down,0.23632779996842146,,,,,,,,,,,,,,,,,,,,,,,,,,,,,,,,,,,,,,,,,,,,,,,,,,,,,,,,,,,,Z7NTMK,train_y,blue_star,top_right,2025-04-04_14h27.13.572,HideSeek_v1,2022.2.5,59.93443176265626,
,6,9,6,6,0,-3,64,,train_dim1_1,15,30,,,,2,0,2,0,,,,,,,,,0,0,0,0,0,14,14,14,3,0,3,0,,,,,,,,,,,,,,,,,,,,,,,,,,,,,,,,,,,,,,,,,,,,,,,,,,,,,,,,,,,,,,,,30,,,,,,,,2493.585343200015,2493.585343200015,2493.585343200015,2493.585343200015,2493.585343200015,return,0.34338869992643595,6,0,0,1,0.32,0.07999999999999997,return,0.26477869995869696,-45,0,0.32,0.07999999999999997,,,,,,,,,,,,,,,,,,,,,,,,,,,,,,,,,,,,,,,,,,,,,,,,,,,,,,,,Z7NTMK,train_y,blue_star,top_right,2025-04-04_14h27.13.572,HideSeek_v1,2022.2.5,59.93443176265626,
,9,5,9,1,0,-4,65,,train_dim1_1,16,30,,,,2,0,2,0,,,,,,,,,0,0,0,0,0,15,15,15,0,0,0,0,,,,,,,,,,,,,,,,,,,,,,,,,stimuli/alien_stimuli/65.png,,,,,,,,,,,,,,,,,,,,,,,,,,,,,stimuli/alien_stimuli/64.png,64,6,17,,,,,,,30,,,,,,,,2498.009929999942,2498.009929999942,2498.009929999942,2498.009929999942,2498.009929999942,down,1.1055479999631643,6,0,0,99,0.56,-0.08,down,1.0260413999203593,,,,,2496.457436299883,2498.009929999942,0.32,0.08,0.24,0.0,0.2,0.32,0.32,0.32,0.08,2495.4774040000048,2495.4774040000048,2495.4774040000048,2495.4774040000048,2495.4774040000048,2495.4774040000048,2495.4774040000048,2495.4774040000048,2495.4737148000395,1.0698063999880105,return,0.9600079997908324,,,,,,,,,,,,,,,,,,,,,,,,,,,,,,,,,Z7NTMK,train_y,blue_star,top_right,2025-04-04_14h27.13.572,HideSeek_v1,2022.2.5,59.93443176265626,
,9,5,9,1,0,-4,65,,train_dim1_1,16,30,,,,2,0,2,0,,,,,,,,,0,0,0,0,0,15,15,15,1,0,1,0,,,,,,,,,,,,,,,,,,,,,,,,,,,,,,,,,,,,,,,,,,,,,,,,,,,,,,,,,,,,,,,,30,,,,,,,,2499.1261008,2499.1261008,2499.1261008,2499.1261008,2499.1261008,down,3.259392499923706,6,0,0,99,0.56,-0.16,down,3.1819454999640584,,,,,,,,,,,,,,,,,,,,,,,,,,,,,,,,,,,,,,,,,,,,,,,,,,,,,,,,,,,,Z7NTMK,train_y,blue_star,top_right,2025-04-04_14h27.13.572,HideSeek_v1,2022.2.5,59.93443176265626,
,9,5,9,1,0,-4,65,,train_dim1_1,16,30,,,,2,0,2,0,,,,,,,,,0,0,0,0,0,15,15,15,2,0,2,0,,,,,,,,,,,,,,,,,,,,,,,,,,,,,,,,,,,,,,,,,,,,,,,,,,,,,,,,,,,,,,,,30,,,,,,,,2502.392748699989,2502.392748699989,2502.392748699989,2502.392748699989,2502.392748699989,down,0.3932110001333058,6,0,0,99,0.56,-0.24,down,0.3125620000064373,,,,,,,,,,,,,,,,,,,,,,,,,,,,,,,,,,,,,,,,,,,,,,,,,,,,,,,,,,,,Z7NTMK,train_y,blue_star,top_right,2025-04-04_14h27.13.572,HideSeek_v1,2022.2.5,59.93443176265626,
,9,5,9,1,0,-4,65,,train_dim1_1,16,30,,,,2,0,2,0,,,,,,,,,0,0,0,0,0,15,15,15,3,0,3,0,,,,,,,,,,,,,,,,,,,,,,,,,,,,,,,,,,,,,,,,,,,,,,,,,,,,,,,,,,,,,,,,30,,,,,,,,2502.7928903999273,2502.7928903999273,2502.7928903999273,2502.7928903999273,2502.7928903999273,return,0.44383210013620555,6,1,0,0,0.56,-0.24,return,0.3639883000869304,-48,0,0.56,-0.24,,,,,,,,,,,,,,,,,,,,,,,,,,,,,,,,,,,,,,,,,,,,,,,,,,,,,,,,Z7NTMK,train_y,blue_star,top_right,2025-04-04_14h27.13.572,HideSeek_v1,2022.2.5,59.93443176265626,
,8,8,8,5,0,-3,64,,train_dim1_1,17,30,,,,2,0,2,0,,,,,,,,,0,0,0,0,0,16,16,16,0,0,0,0,,,,,,,,,,,,,,,,,,,,,,,,,stimuli/alien_stimuli/64.png,,,,,,,,,,,,,,,,,,,,,,,,,,,,,stimuli/alien_stimuli/65.png,65,9,18,,,,,,,30,,,,,,,,2507.6667909000535,2507.6667909000535,2507.6667909000535,2507.6667909000535,2507.6667909000535,down,1.0898297999519855,6,1,0,99,0.48,0.15999999999999998,down,1.0100640999153256,,,,,2506.1158731000032,2507.6667909000535,0.56,-0.32,0.32,0.0,-0.16,0.56,0.56,0.56,-0.32,2504.8042472999077,2504.8042472999077,2504.8042472999077,2504.8042472999077,2504.8042472999077,2504.8042472999077,2504.8042472999077,2504.8042472999077,2504.798030849919,1.4197732999455184,return,1.2881585999857634,,,,,,,,,,,,,,,,,,,,,,,,,,,,,,,,,Z7NTMK,train_y,blue_star,top_right,2025-04-04_14h27.13.572,HideSeek_v1,2022.2.5,59.93443176265626,
,8,8,8,5,0,-3,64,,train_dim1_1,17,30,,,,2,0,2,0,,,,,,,,,0,0,0,0,0,16,16,16,1,0,1,0,,,,,,,,,,,,,,,,,,,,,,,,,,,,,,,,,,,,,,,,,,,,,,,,,,,,,,,,,,,,,,,,30,,,,,,,,2508.76477839984,2508.76477839984,2508.76477839984,2508.76477839984,2508.76477839984,down,0.39276259997859597,6,1,0,99,0.48,0.07999999999999997,down,0.308463100111112,,,,,,,,,,,,,,,,,,,,,,,,,,,,,,,,,,,,,,,,,,,,,,,,,,,,,,,,,,,,Z7NTMK,train_y,blue_star,top_right,2025-04-04_14h27.13.572,HideSeek_v1,2022.2.5,59.93443176265626,
,8,8,8,5,0,-3,64,,train_dim1_1,17,30,,,,2,0,2,0,,,,,,,,,0,0,0,0,0,16,16,16,2,0,2,0,,,,,,,,,,,,,,,,,,,,,,,,,,,,,,,,,,,,,,,,,,,,,,,,,,,,,,,,,,,,,,,,30,,,,,,,,2509.164044199977,2509.164044199977,2509.164044199977,2509.164044199977,2509.164044199977,down,0.4102413000073284,6,1,0,99,0.48,-2.7755575615628914e-17,down,0.3318288999143988,,,,,,,,,,,,,,,,,,,,,,,,,,,,,,,,,,,,,,,,,,,,,,,,,,,,,,,,,,,,Z7NTMK,train_y,blue_star,top_right,2025-04-04_14h27.13.572,HideSeek_v1,2022.2.5,59.93443176265626,
,8,8,8,5,0,-3,64,,train_dim1_1,17,30,,,,2,0,2,0,,,,,,,,,0,0,0,0,0,16,16,16,3,0,3,0,,,,,,,,,,,,,,,,,,,,,,,,,,,,,,,,,,,,,,,,,,,,,,,,,,,,,,,,,,,,,,,,30,,,,,,,,2509.5812595000025,2509.5812595000025,2509.5812595000025,2509.5812595000025,2509.5812595000025,return,0.41044009989127517,7,0,0,1,0.48,-2.7755575615628914e-17,return,0.3308147001080215,-51,0,0.48,-2.7755575615628914e-17,,,,,,,,,,,,,,,,,,,,,,,,,,,,,,,,,,,,,,,,,,,,,,,,,,,,,,,,Z7NTMK,train_y,blue_star,top_right,2025-04-04_14h27.13.572,HideSeek_v1,2022.2.5,59.93443176265626,
,7,6,7,6,0,0,61,,train_dim1_1,18,30,,,,2,0,2,0,,,,,,,,,0,0,0,0,0,17,17,17,0,0,0,0,,,,,,,,,,,,,,,,,,,,,,,,,stimuli/alien_stimuli/61.png,,,,,,,,,,,,,,,,,,,,,,,,,,,,,stimuli/alien_stimuli/64.png,64,8,19,,,,,,,30,,,,,,,,2513.789181499975,2513.789181499975,2513.789181499975,2513.789181499975,2513.789181499975,down,1.0237933997996151,7,0,0,99,0.4,0.0,down,0.9395855001639575,,,,,2512.2371839999687,2513.789181499975,0.48,0,0.24,0.0,0.12,0.48,0.48,0.48,0,2511.5404447000474,2511.5404447000474,2511.5404447000474,2511.5404447000474,2511.5404447000474,2511.5404447000474,2511.5404447000474,2511.5404447000474,2511.5369372998366,0.7861130000092089,return,0.6656172000803053,,,,,,,,,,,,,,,,,,,,,,,,,,,,,,,,,Z7NTMK,train_y,blue_star,top_right,2025-04-04_14h27.13.572,HideSeek_v1,2022.2.5,59.93443176265626,
,7,6,7,6,0,0,61,,train_dim1_1,18,30,,,,2,0,2,0,,,,,,,,,0,0,0,0,0,17,17,17,1,0,1,0,,,,,,,,,,,,,,,,,,,,,,,,,,,,,,,,,,,,,,,,,,,,,,,,,,,,,,,,,,,,,,,,30,,,,,,,,2514.820299099898,2514.820299099898,2514.820299099898,2514.820299099898,2514.820299099898,up,2.7449643001891673,7,0,0,99,0.4,0.08,up,2.662593699991703,,,,,,,,,,,,,,,,,,,,,,,,,,,,,,,,,,,,,,,,,,,,,,,,,,,,,,,,,,,,Z7NTMK,train_y,blue_star,top_right,2025-04-04_14h27.13.572,HideSeek_v1,2022.2.5,59.93443176265626,
,7,6,7,6,0,0,61,,train_dim1_1,18,30,,,,2,0,2,0,,,,,,,,,0,0,0,0,0,17,17,17,2,0,2,0,,,,,,,,,,,,,,,,,,,,,,,,,,,,,,,,,,,,,,,,,,,,,,,,,,,,,,,,,,,,,,,,30,,,,,,,,2517.5716115999967,2517.5716115999967,2517.5716115999967,2517.5716115999967,2517.5716115999967,return,0.3435001000761986,8,0,0,1,0.4,0.08,return,0.25700860004872084,-51,0,0.4,0.08,,,,,,,,,,,,,,,,,,,,,,,,,,,,,,,,,,,,,,,,,,,,,,,,,,,,,,,,Z7NTMK,train_y,blue_star,top_right,2025-04-04_14h27.13.572,HideSeek_v1,2022.2.5,59.93443176265626,
,5,9,5,8,0,-1,62,,train_dim1_1,19,30,,,,2,0,2,0,,,,,,,,,0,0,0,0,0,18,18,18,0,0,0,0,,,,,,,,,,,,,,,,,,,,,,,,,stimuli/alien_stimuli/62.png,,,,,,,,,,,,,,,,,,,,,,,,,,,,,stimuli/alien_stimuli/61.png,61,7,20,,,,,,,30,,,,,,,,2521.762656299863,2521.762656299863,2521.762656299863,2521.762656299863,2521.762656299863,down,1.0399949999991804,8,0,0,99,0.24,0.24,down,0.9541805000044405,,,,,2520.210696599912,2521.762656299863,0.4,0.08,0.0,0.0,0.08,0.4,0.4,0.4,0.08,2519.466488899896,2519.466488899896,2519.466488899896,2519.466488899896,2519.466488899896,2519.466488899896,2519.466488899896,2519.466488899896,2519.4603145999836,0.8363193001132458,return,0.7148889000527561,,,,,,,,,,,,,,,,,,,,,,,,,,,,,,,,,Z7NTMK,train_y,blue_star,top_right,2025-04-04_14h27.13.572,HideSeek_v1,2022.2.5,59.93443176265626,
,5,9,5,8,0,-1,62,,train_dim1_1,19,30,,,,2,0,2,0,,,,,,,,,0,0,0,0,0,18,18,18,1,0,1,0,,,,,,,,,,,,,,,,,,,,,,,,,,,,,,,,,,,,,,,,,,,,,,,,,,,,,,,,,,,,,,,,30,,,,,,,,2522.8093371998984,2522.8093371998984,2522.8093371998984,2522.8093371998984,2522.8093371998984,return,0.7435401000548154,9,0,0,1,0.24,0.24,return,0.6664940000046045,-52,0,0.24,0.24,,,,,,,,,,,,,,,,,,,,,,,,,,,,,,,,,,,,,,,,,,,,,,,,,,,,,,,,Z7NTMK,train_y,blue_star,top_right,2025-04-04_14h27.13.572,HideSeek_v1,2022.2.5,59.93443176265626,
,7,5,7,0,0,-5,66,,train_dim1_1,20,30,,,,2,0,2,0,,,,,,,,,0,0,0,0,0,19,19,19,0,0,0,0,,,,,,,,,,,,,,,,,,,,,,,,,stimuli/alien_stimuli/66.png,,,,,,,,,,,,,,,,,,,,,,,,,,,,,stimuli/alien_stimuli/62.png,62,5,21,,,,,,,30,,,,,,,,2527.217232099967,2527.217232099967,2527.217232099967,2527.217232099967,2527.217232099967,down,0.9899263000115752,9,0,0,99,0.4,-0.08,down,0.904148600064218,,,,,2525.6653958000243,2527.217232099967,0.24,0.24,0.08,0.0,0.28,0.24,0.24,0.24,0.24,2525.105564399855,2525.105564399855,2525.105564399855,2525.105564399855,2525.105564399855,2525.105564399855,2525.105564399855,2525.105564399855,2525.0982204,0.6533266000915319,return,0.5389140001498163,,,,,,,,,,,,,,,,,,,,,,,,,,,,,,,,,Z7NTMK,train_y,blue_star,top_right,2025-04-04_14h27.13.572,HideSeek_v1,2022.2.5,59.93443176265626,
,7,5,7,0,0,-5,66,,train_dim1_1,20,30,,,,2,0,2,0,,,,,,,,,0,0,0,0,0,19,19,19,1,0,1,0,,,,,,,,,,,,,,,,,,,,,,,,,,,,,,,,,,,,,,,,,,,,,,,,,,,,,,,,,,,,,,,,30,,,,,,,,2528.2141569999512,2528.2141569999512,2528.2141569999512,2528.2141569999512,2528.2141569999512,down,0.893434900091961,9,0,0,99,0.4,-0.16,down,0.8057032998185605,,,,,,,,,,,,,,,,,,,,,,,,,,,,,,,,,,,,,,,,,,,,,,,,,,,,,,,,,,,,Z7NTMK,train_y,blue_star,top_right,2025-04-04_14h27.13.572,HideSeek_v1,2022.2.5,59.93443176265626,
,7,5,7,0,0,-5,66,,train_dim1_1,20,30,,,,2,0,2,0,,,,,,,,,0,0,0,0,0,19,19,19,2,0,2,0,,,,,,,,,,,,,,,,,,,,,,,,,,,,,,,,,,,,,,,,,,,,,,,,,,,,,,,,,,,,,,,,30,,,,,,,,2529.1148206000216,2529.1148206000216,2529.1148206000216,2529.1148206000216,2529.1148206000216,down,0.3934269999153912,9,0,0,99,0.4,-0.24,down,0.3106035999953747,,,,,,,,,,,,,,,,,,,,,,,,,,,,,,,,,,,,,,,,,,,,,,,,,,,,,,,,,,,,Z7NTMK,train_y,blue_star,top_right,2025-04-04_14h27.13.572,HideSeek_v1,2022.2.5,59.93443176265626,
,7,5,7,0,0,-5,66,,train_dim1_1,20,30,,,,2,0,2,0,,,,,,,,,0,0,0,0,0,19,19,19,3,0,3,0,,,,,,,,,,,,,,,,,,,,,,,,,,,,,,,,,,,,,,,,,,,,,,,,,,,,,,,,,,,,,,,,30,,,,,,,,2529.514864299912,2529.514864299912,2529.514864299912,2529.514864299912,2529.514864299912,down,0.49366589984856546,9,0,0,99,0.4,-0.32,down,0.415717100026086,,,,,,,,,,,,,,,,,,,,,,,,,,,,,,,,,,,,,,,,,,,,,,,,,,,,,,,,,,,,Z7NTMK,train_y,blue_star,top_right,2025-04-04_14h27.13.572,HideSeek_v1,2022.2.5,59.93443176265626,
,7,5,7,0,0,-5,66,,train_dim1_1,20,30,,,,2,0,2,0,,,,,,,,,0,0,0,0,0,19,19,19,4,0,4,0,,,,,,,,,,,,,,,,,,,,,,,,,,,,,,,,,,,,,,,,,,,,,,,,,,,,,,,,,,,,,,,,30,,,,,,,,2530.015514999861,2530.015514999861,2530.015514999861,2530.015514999861,2530.015514999861,down,0.543549100169912,9,0,0,99,0.4,-0.4,down,0.4625266999937594,,,,,,,,,,,,,,,,,,,,,,,,,,,,,,,,,,,,,,,,,,,,,,,,,,,,,,,,,,,,Z7NTMK,train_y,blue_star,top_right,2025-04-04_14h27.13.572,HideSeek_v1,2022.2.5,59.93443176265626,
,7,5,7,0,0,-5,66,,train_dim1_1,20,30,,,,2,0,2,0,,,,,,,,,0,0,0,0,0,19,19,19,5,0,5,0,,,,,,,,,,,,,,,,,,,,,,,,,,,,,,,,,,,,,,,,,,,,,,,,,,,,,,,,,,,,,,,,30,,,,,,,,2530.567863299977,2530.567863299977,2530.567863299977,2530.567863299977,2530.567863299977,return,0.47611399996094406,10,0,0,1,0.4,-0.4,return,0.3944945000112057,-57,0,0.4,-0.4,,,,,,,,,,,,,,,,,,,,,,,,,,,,,,,,,,,,,,,,,,,,,,,,,,,,,,,,Z7NTMK,train_y,blue_star,top_right,2025-04-04_14h27.13.572,HideSeek_v1,2022.2.5,59.93443176265626,
,7,9,7,5,0,-4,65,,train_dim1_1,21,30,,,,2,0,2,0,,,,,,,,,0,0,0,0,0,20,20,20,0,0,0,0,,,,,,,,,,,,,,,,,,,,,,,,,stimuli/alien_stimuli/65.png,,,,,,,,,,,,,,,,,,,,,,,,,,,,,stimuli/alien_stimuli/66.png,66,7,22,,,,,,,30,,,,,,,,2534.956668399973,2534.956668399973,2534.956668399973,2534.956668399973,2534.956668399973,down,1.2738695000298321,10,0,0,99,0.4,0.24,down,1.1962425999809057,,,,,2533.405237399973,2534.956668399973,0.4,-0.4,0.4,0.0,-0.2,0.4,0.4,0.4,-0.4,2532.592469800031,2532.592469800031,2532.592469800031,2532.592469800031,2532.592469800031,2532.592469800031,2532.592469800031,2532.592469800031,2532.587666899851,0.9031659001484513,return,0.7962673001457006,,,,,,,,,,,,,,,,,,,,,,,,,,,,,,,,,Z7NTMK,train_y,blue_star,top_right,2025-04-04_14h27.13.572,HideSeek_v1,2022.2.5,59.93443176265626,
,7,9,7,5,0,-4,65,,train_dim1_1,21,30,,,,2,0,2,0,,,,,,,,,0,0,0,0,0,20,20,20,1,0,1,0,,,,,,,,,,,,,,,,,,,,,,,,,,,,,,,,,,,,,,,,,,,,,,,,,,,,,,,,,,,,,,,,30,,,,,,,,2536.237426799955,2536.237426799955,2536.237426799955,2536.237426799955,2536.237426799955,down,0.3096634999383241,10,0,0,99,0.4,0.15999999999999998,down,0.22555490001104772,,,,,,,,,,,,,,,,,,,,,,,,,,,,,,,,,,,,,,,,,,,,,,,,,,,,,,,,,,,,Z7NTMK,train_y,blue_star,top_right,2025-04-04_14h27.13.572,HideSeek_v1,2022.2.5,59.93443176265626,
,7,9,7,5,0,-4,65,,train_dim1_1,21,30,,,,2,0,2,0,,,,,,,,,0,0,0,0,0,20,20,20,2,0,2,0,,,,,,,,,,,,,,,,,,,,,,,,,,,,,,,,,,,,,,,,,,,,,,,,,,,,,,,,,,,,,,,,30,,,,,,,,2536.554118399974,2536.554118399974,2536.554118399974,2536.554118399974,2536.554118399974,down,0.32664340012706816,10,0,0,99,0.4,0.07999999999999997,down,0.24522340018302202,,,,,,,,,,,,,,,,,,,,,,,,,,,,,,,,,,,,,,,,,,,,,,,,,,,,,,,,,,,,Z7NTMK,train_y,blue_star,top_right,2025-04-04_14h27.13.572,HideSeek_v1,2022.2.5,59.93443176265626,
,7,9,7,5,0,-4,65,,train_dim1_1,21,30,,,,2,0,2,0,,,,,,,,,0,0,0,0,0,20,20,20,3,0,3,0,,,,,,,,,,,,,,,,,,,,,,,,,,,,,,,,,,,,,,,,,,,,,,,,,,,,,,,,,,,,,,,,30,,,,,,,,2536.88762529986,2536.88762529986,2536.88762529986,2536.88762529986,2536.88762529986,down,0.7770949001424015,10,0,0,99,0.4,-2.7755575615628914e-17,down,0.699541199952364,,,,,,,,,,,,,,,,,,,,,,,,,,,,,,,,,,,,,,,,,,,,,,,,,,,,,,,,,,,,Z7NTMK,train_y,blue_star,top_right,2025-04-04_14h27.13.572,HideSeek_v1,2022.2.5,59.93443176265626,
,7,9,7,5,0,-4,65,,train_dim1_1,21,30,,,,2,0,2,0,,,,,,,,,0,0,0,0,0,20,20,20,4,0,4,0,,,,,,,,,,,,,,,,,,,,,,,,,,,,,,,,,,,,,,,,,,,,,,,,,,,,,,,,,,,,,,,,30,,,,,,,,2537.6708110999316,2537.6708110999316,2537.6708110999316,2537.6708110999316,2537.6708110999316,return,0.2769019999541342,11,0,0,1,0.4,-2.7755575615628914e-17,return,0.19459359999746084,-61,0,0.4,-2.7755575615628914e-17,,,,,,,,,,,,,,,,,,,,,,,,,,,,,,,,,,,,,,,,,,,,,,,,,,,,,,,,Z7NTMK,train_y,blue_star,top_right,2025-04-04_14h27.13.572,HideSeek_v1,2022.2.5,59.93443176265626,
,5,7,5,4,0,-3,64,,train_dim1_1,22,30,,,,2,0,2,0,,,,,,,,,0,0,0,0,0,21,21,21,0,0,0,0,,,,,,,,,,,,,,,,,,,,,,,,,stimuli/alien_stimuli/64.png,,,,,,,,,,,,,,,,,,,,,,,,,,,,,stimuli/alien_stimuli/65.png,65,7,23,,,,,,,30,,,,,,,,2541.6779966000468,2541.6779966000468,2541.6779966000468,2541.6779966000468,2541.6779966000468,down,0.940229999832809,11,0,0,99,0.24,0.08,down,0.8630635999143124,,,,,2540.127863599919,2541.6779966000468,0.4,0,0.32,0.0,0.16,0.4,0.4,0.4,0,2539.497601900017,2539.497601900017,2539.497601900017,2539.497601900017,2539.497601900017,2539.497601900017,2539.497601900017,2539.497601900017,2539.4933377999814,0.7201842002104968,return,0.6050578998401761,,,,,,,,,,,,,,,,,,,,,,,,,,,,,,,,,Z7NTMK,train_y,blue_star,top_right,2025-04-04_14h27.13.572,HideSeek_v1,2022.2.5,59.93443176265626,
,5,7,5,4,0,-3,64,,train_dim1_1,22,30,,,,2,0,2,0,,,,,,,,,0,0,0,0,0,21,21,21,1,0,1,0,,,,,,,,,,,,,,,,,,,,,,,,,,,,,,,,,,,,,,,,,,,,,,,,,,,,,,,,,,,,,,,,30,,,,,,,,2542.6254032000434,2542.6254032000434,2542.6254032000434,2542.6254032000434,2542.6254032000434,down,0.3429827999789268,11,0,0,99,0.24,0.0,down,0.26475889980793,,,,,,,,,,,,,,,,,,,,,,,,,,,,,,,,,,,,,,,,,,,,,,,,,,,,,,,,,,,,Z7NTMK,train_y,blue_star,top_right,2025-04-04_14h27.13.572,HideSeek_v1,2022.2.5,59.93443176265626,
,5,7,5,4,0,-3,64,,train_dim1_1,22,30,,,,2,0,2,0,,,,,,,,,0,0,0,0,0,21,21,21,2,0,2,0,,,,,,,,,,,,,,,,,,,,,,,,,,,,,,,,,,,,,,,,,,,,,,,,,,,,,,,,,,,,,,,,30,,,,,,,,2542.975668599829,2542.975668599829,2542.975668599829,2542.975668599829,2542.975668599829,down,0.4600933000911027,11,0,0,99,0.24,-0.08,down,0.37684360006824136,,,,,,,,,,,,,,,,,,,,,,,,,,,,,,,,,,,,,,,,,,,,,,,,,,,,,,,,,,,,Z7NTMK,train_y,blue_star,top_right,2025-04-04_14h27.13.572,HideSeek_v1,2022.2.5,59.93443176265626,
,5,7,5,4,0,-3,64,,train_dim1_1,22,30,,,,2,0,2,0,,,,,,,,,0,0,0,0,0,21,21,21,3,0,3,0,,,,,,,,,,,,,,,,,,,,,,,,,,,,,,,,,,,,,,,,,,,,,,,,,,,,,,,,,,,,,,,,30,,,,,,,,2543.4421916999854,2543.4421916999854,2543.4421916999854,2543.4421916999854,2543.4421916999854,return,0.39352139993570745,12,0,0,1,0.24,-0.08,return,0.30973490001633763,-64,0,0.24,-0.08,,,,,,,,,,,,,,,,,,,,,,,,,,,,,,,,,,,,,,,,,,,,,,,,,,,,,,,,Z7NTMK,train_y,blue_star,top_right,2025-04-04_14h27.13.572,HideSeek_v1,2022.2.5,59.93443176265626,
,5,8,5,8,0,0,61,,train_dim1_1,23,30,,,,2,0,2,0,,,,,,,,,0,0,0,0,0,22,22,22,0,0,0,0,,,,,,,,,,,,,,,,,,,,,,,,,stimuli/alien_stimuli/61.png,,,,,,,,,,,,,,,,,,,,,,,,,,,,,stimuli/alien_stimuli/64.png,64,5,24,,,,,,,30,,,,,,,,2547.400558099849,2547.400558099849,2547.400558099849,2547.400558099849,2547.400558099849,down,1.3901468000840396,12,0,0,99,0.24,0.15999999999999998,down,1.3037580999080092,,,,,2545.8487863000482,2547.400558099849,0.24,-0.08,0.24,0.0,0.04,0.24,0.24,0.24,-0.08,2545.385056299856,2545.385056299856,2545.385056299856,2545.385056299856,2545.385056299856,2545.385056299856,2545.385056299856,2545.385056299856,2545.381771800062,0.5525348000228405,return,0.43805100000463426,,,,,,,,,,,,,,,,,,,,,,,,,,,,,,,,,Z7NTMK,train_y,blue_star,top_right,2025-04-04_14h27.13.572,HideSeek_v1,2022.2.5,59.93443176265626,
,5,8,5,8,0,0,61,,train_dim1_1,23,30,,,,2,0,2,0,,,,,,,,,0,0,0,0,0,22,22,22,1,0,1,0,,,,,,,,,,,,,,,,,,,,,,,,,,,,,,,,,,,,,,,,,,,,,,,,,,,,,,,,,,,,,,,,30,,,,,,,,2548.799277599901,2548.799277599901,2548.799277599901,2548.799277599901,2548.799277599901,return,0.8596979000139982,12,1,0,0,0.24,0.15999999999999998,return,0.7761540999636054,-65,0,0.24,0.15999999999999998,,,,,,,,,,,,,,,,,,,,,,,,,,,,,,,,,,,,,,,,,,,,,,,,,,,,,,,,Z7NTMK,train_y,blue_star,top_right,2025-04-04_14h27.13.572,HideSeek_v1,2022.2.5,59.93443176265626,
,8,7,8,2,0,-5,66,,train_dim1_1,24,30,,,,2,0,2,0,,,,,,,,,0,0,0,0,0,23,23,23,0,0,0,0,,,,,,,,,,,,,,,,,,,,,,,,,stimuli/alien_stimuli/66.png,,,,,,,,,,,,,,,,,,,,,,,,,,,,,stimuli/alien_stimuli/61.png,61,5,25,,,,,,,30,,,,,,,,2553.8063678999897,2553.8063678999897,2553.8063678999897,2553.8063678999897,2553.8063678999897,down,0.9401832001749426,12,1,0,99,0.48,0.08,down,0.865565299987793,,,,,2552.2540954998694,2553.8063678999897,0.24,0.24,0.0,0.0,0.24,0.24,0.24,0.24,0.24,2551.207862299867,2551.207862299867,2551.207862299867,2551.207862299867,2551.207862299867,2551.207862299867,2551.207862299867,2551.207862299867,2551.2031733998565,1.1367285000160336,return,1.0265209001954645,,,,,,,,,,,,,,,,,,,,,,,,,,,,,,,,,Z7NTMK,train_y,blue_star,top_right,2025-04-04_14h27.13.572,HideSeek_v1,2022.2.5,59.93443176265626,
,8,7,8,2,0,-5,66,,train_dim1_1,24,30,,,,2,0,2,0,,,,,,,,,0,0,0,0,0,23,23,23,1,0,1,0,,,,,,,,,,,,,,,,,,,,,,,,,,,,,,,,,,,,,,,,,,,,,,,,,,,,,,,,,,,,,,,,30,,,,,,,,2554.753309600055,2554.753309600055,2554.753309600055,2554.753309600055,2554.753309600055,down,0.6435071001760662,12,1,0,99,0.48,0.0,down,0.5592607001308352,,,,,,,,,,,,,,,,,,,,,,,,,,,,,,,,,,,,,,,,,,,,,,,,,,,,,,,,,,,,Z7NTMK,train_y,blue_star,top_right,2025-04-04_14h27.13.572,HideSeek_v1,2022.2.5,59.93443176265626,
,8,7,8,2,0,-5,66,,train_dim1_1,24,30,,,,2,0,2,0,,,,,,,,,0,0,0,0,0,23,23,23,2,0,2,0,,,,,,,,,,,,,,,,,,,,,,,,,,,,,,,,,,,,,,,,,,,,,,,,,,,,,,,,,,,,,,,,30,,,,,,,,2555.4037283998914,2555.4037283998914,2555.4037283998914,2555.4037283998914,2555.4037283998914,down,0.36002590018324554,12,1,0,99,0.48,-0.08,down,0.2784596998244524,,,,,,,,,,,,,,,,,,,,,,,,,,,,,,,,,,,,,,,,,,,,,,,,,,,,,,,,,,,,Z7NTMK,train_y,blue_star,top_right,2025-04-04_14h27.13.572,HideSeek_v1,2022.2.5,59.93443176265626,
,8,7,8,2,0,-5,66,,train_dim1_1,24,30,,,,2,0,2,0,,,,,,,,,0,0,0,0,0,23,23,23,3,0,3,0,,,,,,,,,,,,,,,,,,,,,,,,,,,,,,,,,,,,,,,,,,,,,,,,,,,,,,,,,,,,,,,,30,,,,,,,,2555.7695310998242,2555.7695310998242,2555.7695310998242,2555.7695310998242,2555.7695310998242,down,0.3936304999515414,12,1,0,99,0.48,-0.16,down,0.30618639988824725,,,,,,,,,,,,,,,,,,,,,,,,,,,,,,,,,,,,,,,,,,,,,,,,,,,,,,,,,,,,Z7NTMK,train_y,blue_star,top_right,2025-04-04_14h27.13.572,HideSeek_v1,2022.2.5,59.93443176265626,
,8,7,8,2,0,-5,66,,train_dim1_1,24,30,,,,2,0,2,0,,,,,,,,,0,0,0,0,0,23,23,23,4,0,4,0,,,,,,,,,,,,,,,,,,,,,,,,,,,,,,,,,,,,,,,,,,,,,,,,,,,,,,,,,,,,,,,,30,,,,,,,,2556.1712340000086,2556.1712340000086,2556.1712340000086,2556.1712340000086,2556.1712340000086,down,0.4597123998682946,12,1,0,99,0.48,-0.24,down,0.37416119989939034,,,,,,,,,,,,,,,,,,,,,,,,,,,,,,,,,,,,,,,,,,,,,,,,,,,,,,,,,,,,Z7NTMK,train_y,blue_star,top_right,2025-04-04_14h27.13.572,HideSeek_v1,2022.2.5,59.93443176265626,
,8,7,8,2,0,-5,66,,train_dim1_1,24,30,,,,2,0,2,0,,,,,,,,,0,0,0,0,0,23,23,23,5,0,5,0,,,,,,,,,,,,,,,,,,,,,,,,,,,,,,,,,,,,,,,,,,,,,,,,,,,,,,,,,,,,,,,,30,,,,,,,,2556.6382758999243,2556.6382758999243,2556.6382758999243,2556.6382758999243,2556.6382758999243,return,0.3765048000495881,13,0,0,1,0.48,-0.24,return,0.301337500102818,-70,0,0.48,-0.24,,,,,,,,,,,,,,,,,,,,,,,,,,,,,,,,,,,,,,,,,,,,,,,,,,,,,,,,Z7NTMK,train_y,blue_star,top_right,2025-04-04_14h27.13.572,HideSeek_v1,2022.2.5,59.93443176265626,
,8,8,8,7,0,-1,62,,train_dim1_1,25,30,,,,2,0,2,0,,,,,,,,,0,0,0,0,0,24,24,24,0,0,0,0,,,,,,,,,,,,,,,,,,,,,,,,,stimuli/alien_stimuli/62.png,,,,,,,,,,,,,,,,,,,,,,,,,,,,,stimuli/alien_stimuli/66.png,66,8,26,,,,,,,30,,,,,,,,2560.6110475999303,2560.6110475999303,2560.6110475999303,2560.6110475999303,2560.6110475999303,down,1.237848199903965,13,0,0,99,0.48,0.15999999999999998,down,1.1467588997911662,,,,,2559.059877499938,2560.6110475999303,0.48,-0.24,0.4,0.0,-0.039999999999999994,0.48,0.48,0.48,-0.24,2558.5633137999102,2558.5633137999102,2558.5633137999102,2558.5633137999102,2558.5633137999102,2558.5633137999102,2558.5633137999102,2558.5633137999102,2558.559379900061,0.5861231000162661,return,0.46704749995842576,,,,,,,,,,,,,,,,,,,,,,,,,,,,,,,,,Z7NTMK,train_y,blue_star,top_right,2025-04-04_14h27.13.572,HideSeek_v1,2022.2.5,59.93443176265626,
,8,8,8,7,0,-1,62,,train_dim1_1,25,30,,,,2,0,2,0,,,,,,,,,0,0,0,0,0,24,24,24,1,0,1,0,,,,,,,,,,,,,,,,,,,,,,,,,,,,,,,,,,,,,,,,,,,,,,,,,,,,,,,,,,,,,,,,30,,,,,,,,2561.887628899887,2561.887628899887,2561.887628899887,2561.887628899887,2561.887628899887,return,0.4728553998284042,14,0,0,1,0.48,0.15999999999999998,return,0.3834818999748677,-71,0,0.48,0.15999999999999998,,,,,,,,,,,,,,,,,,,,,,,,,,,,,,,,,,,,,,,,,,,,,,,,,,,,,,,,Z7NTMK,train_y,blue_star,top_right,2025-04-04_14h27.13.572,HideSeek_v1,2022.2.5,59.93443176265626,
,9,9,9,6,0,-3,64,,train_dim1_1,26,30,,,,2,0,2,0,,,,,,,,,0,0,0,0,0,25,25,25,0,0,0,0,,,,,,,,,,,,,,,,,,,,,,,,,stimuli/alien_stimuli/64.png,,,,,,,,,,,,,,,,,,,,,,,,,,,,,stimuli/alien_stimuli/62.png,62,8,27,,,,,,,30,,,,,,,,2566.0161329000257,2566.0161329000257,2566.0161329000257,2566.0161329000257,2566.0161329000257,down,0.8728292000014335,14,0,0,99,0.56,0.24,down,0.7956656999886036,,,,,2564.4639463999774,2566.0161329000257,0.48,0.16,0.08,0.0,0.2,0.48,0.48,0.48,0.16,2563.9017872000113,2563.9017872000113,2563.9017872000113,2563.9017872000113,2563.9017872000113,2563.9017872000113,2563.9017872000113,2563.9017872000113,2563.897377700033,0.6524734999984503,return,0.5464069000445306,,,,,,,,,,,,,,,,,,,,,,,,,,,,,,,,,Z7NTMK,train_y,blue_star,top_right,2025-04-04_14h27.13.572,HideSeek_v1,2022.2.5,59.93443176265626,
,9,9,9,6,0,-3,64,,train_dim1_1,26,30,,,,2,0,2,0,,,,,,,,,0,0,0,0,0,25,25,25,1,0,1,0,,,,,,,,,,,,,,,,,,,,,,,,,,,,,,,,,,,,,,,,,,,,,,,,,,,,,,,,,,,,,,,,30,,,,,,,,2566.8961765998974,2566.8961765998974,2566.8961765998974,2566.8961765998974,2566.8961765998974,down,0.30961820017546415,14,0,0,99,0.56,0.15999999999999998,down,0.23066439991816878,,,,,,,,,,,,,,,,,,,,,,,,,,,,,,,,,,,,,,,,,,,,,,,,,,,,,,,,,,,,Z7NTMK,train_y,blue_star,top_right,2025-04-04_14h27.13.572,HideSeek_v1,2022.2.5,59.93443176265626,
,9,9,9,6,0,-3,64,,train_dim1_1,26,30,,,,2,0,2,0,,,,,,,,,0,0,0,0,0,25,25,25,2,0,2,0,,,,,,,,,,,,,,,,,,,,,,,,,,,,,,,,,,,,,,,,,,,,,,,,,,,,,,,,,,,,,,,,30,,,,,,,,2567.2128375999164,2567.2128375999164,2567.2128375999164,2567.2128375999164,2567.2128375999164,down,0.6769308000802994,14,0,0,99,0.56,0.07999999999999997,down,0.5930076998192817,,,,,,,,,,,,,,,,,,,,,,,,,,,,,,,,,,,,,,,,,,,,,,,,,,,,,,,,,,,,Z7NTMK,train_y,blue_star,top_right,2025-04-04_14h27.13.572,HideSeek_v1,2022.2.5,59.93443176265626,
,9,9,9,6,0,-3,64,,train_dim1_1,26,30,,,,2,0,2,0,,,,,,,,,0,0,0,0,0,25,25,25,3,0,3,0,,,,,,,,,,,,,,,,,,,,,,,,,,,,,,,,,,,,,,,,,,,,,,,,,,,,,,,,,,,,,,,,30,,,,,,,,2567.8972217000555,2567.8972217000555,2567.8972217000555,2567.8972217000555,2567.8972217000555,return,0.360164999961853,15,0,0,1,0.56,0.07999999999999997,return,0.2826942000538111,-74,0,0.56,0.07999999999999997,,,,,,,,,,,,,,,,,,,,,,,,,,,,,,,,,,,,,,,,,,,,,,,,,,,,,,,,Z7NTMK,train_y,blue_star,top_right,2025-04-04_14h27.13.572,HideSeek_v1,2022.2.5,59.93443176265626,
,8,9,8,4,0,-5,66,,train_dim1_1,27,30,,,,2,0,2,0,,,,,,,,,0,0,0,0,0,26,26,26,0,0,0,0,,,,,,,,,,,,,,,,,,,,,,,,,stimuli/alien_stimuli/66.png,,,,,,,,,,,,,,,,,,,,,,,,,,,,,stimuli/alien_stimuli/64.png,64,9,28,,,,,,,30,,,,,,,,2571.6878009999637,2571.6878009999637,2571.6878009999637,2571.6878009999637,2571.6878009999637,down,1.156808900181204,15,0,0,99,0.48,0.24,down,1.0822447000537068,,,,,2570.135420099832,2571.6878009999637,0.56,0.08,0.24,0.0,0.2,0.56,0.56,0.56,0.08,2569.806820699945,2569.806820699945,2569.806820699945,2569.806820699945,2569.806820699945,2569.806820699945,2569.806820699945,2569.806820699945,2569.8017752000133,0.41923299990594387,return,0.30273049999959767,,,,,,,,,,,,,,,,,,,,,,,,,,,,,,,,,Z7NTMK,train_y,blue_star,top_right,2025-04-04_14h27.13.572,HideSeek_v1,2022.2.5,59.93443176265626,
