trialInstr,x_fixStart,y_fixStart,x_corrSteps,y_corrSteps,x_nrSteps,y_nrSteps,alienID,trialLength,version,trialTrain,praclen,testlen,trial_label,break_on_off,beforeExpLoop.thisRepN,beforeExpLoop.thisTrialN,beforeExpLoop.thisN,beforeExpLoop.thisIndex,mini_instr_trials.thisRepN,mini_instr_trials.thisTrialN,mini_instr_trials.thisN,mini_instr_trials.thisIndex,instrLoop.thisRepN,instrLoop.thisTrialN,instrLoop.thisN,instrLoop.thisIndex,repeat_prac.thisRepN,repeat_prac.thisTrialN,repeat_prac.thisN,repeat_prac.thisIndex,trainLoop.thisRepN,trainLoop.thisTrialN,trainLoop.thisN,trainLoop.thisIndex,moveLoop_train.thisRepN,moveLoop_train.thisTrialN,moveLoop_train.thisN,moveLoop_train.thisIndex,experiment.thisRepN,experiment.thisTrialN,experiment.thisN,experiment.thisIndex,moveLoop_test.thisRepN,moveLoop_test.thisTrialN,moveLoop_test.thisN,moveLoop_test.thisIndex,mini_instr2_trials.thisRepN,mini_instr2_trials.thisTrialN,mini_instr2_trials.thisN,mini_instr2_trials.thisIndex,start_all_time,url,slideStim,audioStim,slides.started,sounds.started,nextButton.numClicks,nextButton.timesOn,nextButton.timesOff,prev_but.numClicks,prev_but.timesOn,prev_but.timesOff,alienStim,instrFile,alienStim_instr,gridImage_instr.started,startPos_3.started,key_instr.started,alienImage_3.started,sounds_1.started,key_instr.keys,key_instr.rt,all_x,all_y,FBy_corrSteps,FBy_fixStart,FBx_corrSteps,FBx_fixStart,FBy_pathSize_check,FBx_pathSize_check,gridImage_9.started,alienImageFB_3.started,startPosFB_3.started,keyFB_3.started,pathLine_ydir_2.started,pathLine_xdir_2.started,alienFace_3.started,sounds_2.started,RTFB_instr,keyFB_3.keys,keyFB_3.rt,draw_alienStim,draw_alienID,test_x,nrepcount,perfthres,percthres,earlierperf,earlystop,nextPrac,fileidx,praclen,saveACC_train,pracFile,nextPrac_train,addNrep,fileidx_endr,repExp,showearly,gridImage_4.started,startPos.started,movePos.started,key_resp.started,alienImage.started,buttonPress_train,RTchoice_train,cumAcctrain,aCorr,saveACC_choice,corrAns,x_movePos_end,y_movePos_end,key_resp.keys,key_resp.rt,wLy_dir,wLx_dir,x_movePos,y_movePos,text_2.started,text_2.stopped,aft_x_corrPos,aft_y_corrPos,y_pathSize_check,x_pathSize_check,y_pathdirY,x_pathdirY,x_pathdirX,x_corrPos,y_corrPos,gridImage_6.started,alienImageFB_2.started,startPosFB_2.started,movePosFB_2.started,keyFB_2.started,pathLine_xdir.started,pathLine_ydir.started,alienFace.started,sounds_4.started,RT_FBtrain,keyFB_2.keys,keyFB_2.rt,saveACC_pre,ACC,within_saveACC_train,earlystop_wloop,cumAcctrain_check,gridImage_3.started,alienImage_test.started,startPos_test.started,movePos_test.started,key_resp_test.started,wLy_dir_test,wLx_dir_test,buttonPress_test,RTchoice_test,cumAcctest,corrAns_test,key_resp_test.keys,key_resp_test.rt,text_3.started,text_3.stopped,total_time,end_all_time,key_resp_3.keys,slides_2.started,sounds_3.started,nextButton_2.numClicks,nextButton_2.timesOn,nextButton_2.timesOff,prev_but_2.numClicks,prev_but_2.timesOn,prev_but_2.timesOff,bye.started,participant,train_first,00_coordinate,starting corner,date,expName,psychopyVersion,frameRate,
,,,,,,,,,,,,,,,0,0,0,0,0,0,0,0,,,,,,,,,,,,,,,,,,,,,,,,,,,,,start_all_time,testround,conditions/schedules/train_y_first/red_square_00/top_left/instructions/Slide1.png,conditions/schedules/train_y_first/red_square_00/top_left/instructions/Audio1.wav,109.04437249992043,108.98516625971534,1,[4.058971100021154],[4.058984300121665],0,,,,,,,,,,,,,,,,,,,,,,,,,,,,,,,,,,,,,,,,,,,,,,,,,,,,,,,,,,,,,,,,,,,,,,,,,,,,,,,,,,,,,,,,,,,,,,,,,,,,,,,,,,,,,,,,,,,,,,,,,,,,ZFHRNK,train_y,red_square,top_left,2025-04-24_15h06.38.596,HideSeek_v1,2022.2.5,59.943341485075756,
,,,,,,,,,,,,,,,0,0,0,0,1,0,1,0,,,,,,,,,,,,,,,,,,,,,,,,,,,,,,,conditions/schedules/train_y_first/red_square_00/top_left/instructions/Slide2.png,conditions/schedules/train_y_first/red_square_00/top_left/instructions/Audio2.wav,113.12293579988182,113.12332914979197,2,"[4.058971100021154, 11.173682999797165]","[4.058984300121665, 11.173689699731767]",0,,,,,,,,,,,,,,,,,,,,,,,,,,,,,,,,,,,,,,,,,,,,,,,,,,,,,,,,,,,,,,,,,,,,,,,,,,,,,,,,,,,,,,,,,,,,,,,,,,,,,,,,,,,,,,,,,,,,,,,,,,,,ZFHRNK,train_y,red_square,top_left,2025-04-24_15h06.38.596,HideSeek_v1,2022.2.5,59.943341485075756,
,,,,,,,,,,,,,,,0,0,0,0,2,0,2,0,,,,,,,,,,,,,,,,,,,,,,,,,,,,,,,conditions/schedules/train_y_first/red_square_00/top_left/instructions/Slide3.png,conditions/schedules/train_y_first/red_square_00/top_left/instructions/Audio3.wav,124.37981730001047,124.38266173964367,3,"[4.058971100021154, 11.173682999797165, 16.88087259978056]","[4.058984300121665, 0.00022509973496198654, 16.8808788000606]",0,,,,,,,,,,,,,,,,,,,,,,,,,,,,,,,,,,,,,,,,,,,,,,,,,,,,,,,,,,,,,,,,,,,,,,,,,,,,,,,,,,,,,,,,,,,,,,,,,,,,,,,,,,,,,,,,,,,,,,,,,,,,ZFHRNK,train_y,red_square,top_left,2025-04-24_15h06.38.596,HideSeek_v1,2022.2.5,59.943341485075756,
,,,,,,,,,,,,,,,0,0,0,0,3,0,3,0,,,,,,,,,,,,,,,,,,,,,,,,,,,,,,,conditions/schedules/train_y_first/red_square_00/top_left/instructions/Slide4.png,conditions/schedules/train_y_first/red_square_00/top_left/instructions/Audio4.wav,141.34527410008013,141.34675863971933,4,"[4.058971100021154, 11.173682999797165, 16.88087259978056, 29.106414700392634]","[4.058984300121665, 0.00022509973496198654, 0.08226280007511377, 29.10642100032419]",0,,,,,,,,,,,,,,,,,,,,,,,,,,,,,,,,,,,,,,,,,,,,,,,,,,,,,,,,,,,,,,,,,,,,,,,,,,,,,,,,,,,,,,,,,,,,,,,,,,,,,,,,,,,,,,,,,,,,,,,,,,,,ZFHRNK,train_y,red_square,top_left,2025-04-24_15h06.38.596,HideSeek_v1,2022.2.5,59.943341485075756,
,,,,,,,,,,,,,,,0,0,0,0,4,0,4,0,,,,,,,,,,,,,,,,,,,,,,,,,,,,,,,conditions/schedules/train_y_first/red_square_00/top_left/instructions/Slide5.png,conditions/schedules/train_y_first/red_square_00/top_left/instructions/Audio5.wav,170.5155694000423,170.50421005971728,5,"[4.058971100021154, 11.173682999797165, 16.88087259978056, 29.106414700392634, 4.65696860011667]","[4.058984300121665, 0.00022509973496198654, 0.08226280007511377, 0.01419349992647767, 4.656974799931049]",0,,,,,,,,,,,,,,,,,,,,,,,,,,,,,,,,,,,,,,,,,,,,,,,,,,,,,,,,,,,,,,,,,,,,,,,,,,,,,,,,,,,,,,,,,,,,,,,,,,,,,,,,,,,,,,,,,,,,,,,,,,,,ZFHRNK,train_y,red_square,top_left,2025-04-24_15h06.38.596,HideSeek_v1,2022.2.5,59.943341485075756,
,,,,,,,,,,,,,,,0,0,0,0,5,0,5,0,,,,,,,,,,,,,,,,,,,,,,,,,,,,,,,conditions/schedules/train_y_first/red_square_00/top_left/instructions/Slide6.png,conditions/schedules/train_y_first/red_square_00/top_left/instructions/Audio6.wav,175.22308789985254,175.2251203597523,6,"[4.058971100021154, 11.173682999797165, 16.88087259978056, 29.106414700392634, 4.65696860011667, 4.770114899612963]","[4.058984300121665, 0.00022509973496198654, 0.08226280007511377, 0.01419349992647767, 0.032583499792963266, 4.770121899899095]",0,,,,,,,,,,,,,,,,,,,,,,,,,,,,,,,,,,,,,,,,,,,,,,,,,,,,,,,,,,,,,,,,,,,,,,,,,,,,,,,,,,,,,,,,,,,,,,,,,,,,,,,,,,,,,,,,,,,,,,,,,,,,ZFHRNK,train_y,red_square,top_left,2025-04-24_15h06.38.596,HideSeek_v1,2022.2.5,59.943341485075756,
,,,,,,,,,,,,,,,0,0,0,0,6,0,6,0,,,,,,,,,,,,,,,,,,,,,,,,,,,,,,,conditions/schedules/train_y_first/red_square_00/top_left/instructions/Slide7.png,conditions/schedules/train_y_first/red_square_00/top_left/instructions/Audio7.wav,180.04412119975314,180.04549415986983,7,"[4.058971100021154, 11.173682999797165, 16.88087259978056, 29.106414700392634, 4.65696860011667, 4.770114899612963, 5.403469499666244]","[4.058984300121665, 0.00022509973496198654, 0.08226280007511377, 0.01419349992647767, 0.032583499792963266, 0.048723199870437384, 5.403475999832153]",0,,,,,,,,,,,,,,,,,,,,,,,,,,,,,,,,,,,,,,,,,,,,,,,,,,,,,,,,,,,,,,,,,,,,,,,,,,,,,,,,,,,,,,,,,,,,,,,,,,,,,,,,,,,,,,,,,,,,,,,,,,,,ZFHRNK,train_y,red_square,top_left,2025-04-24_15h06.38.596,HideSeek_v1,2022.2.5,59.943341485075756,
,,,,,,,,,,,,,,,0,0,0,0,7,0,7,0,,,,,,,,,,,,,,,,,,,,,,,,,,,,,,,conditions/schedules/train_y_first/red_square_00/top_left/instructions/Slide8.png,conditions/schedules/train_y_first/red_square_00/top_left/instructions/Audio8.wav,185.50043429993093,185.50023695984854,8,"[4.058971100021154, 11.173682999797165, 16.88087259978056, 29.106414700392634, 4.65696860011667, 4.770114899612963, 5.403469499666244, 11.656763699837029]","[4.058984300121665, 0.00022509973496198654, 0.08226280007511377, 0.01419349992647767, 0.032583499792963266, 0.048723199870437384, 0.08028639992699027, 11.656769799999893]",0,,,,,,,,,,,,,,,,,,,,,,,,,,,,,,,,,,,,,,,,,,,,,,,,,,,,,,,,,,,,,,,,,,,,,,,,,,,,,,,,,,,,,,,,,,,,,,,,,,,,,,,,,,,,,,,,,,,,,,,,,,,,ZFHRNK,train_y,red_square,top_left,2025-04-24_15h06.38.596,HideSeek_v1,2022.2.5,59.943341485075756,
,,,,,,,,,,,,,,,0,0,0,0,8,0,8,0,,,,,,,,,,,,,,,,,,,,,,,,,,,,,,,conditions/schedules/train_y_first/red_square_00/top_left/instructions/Slide9.png,conditions/schedules/train_y_first/red_square_00/top_left/instructions/Audio9.wav,197.22523440001532,197.22650794987567,9,"[4.058971100021154, 11.173682999797165, 16.88087259978056, 29.106414700392634, 4.65696860011667, 4.770114899612963, 5.403469499666244, 11.656763699837029, 5.786858999636024]","[4.058984300121665, 0.00022509973496198654, 0.08226280007511377, 0.01419349992647767, 0.032583499792963266, 0.048723199870437384, 0.08028639992699027, 0.04880440002307296, 5.7868655999191105]",0,,,,,,,,,,,,,,,,,,,,,,,,,,,,,,,,,,,,,,,,,,,,,,,,,,,,,,,,,,,,,,,,,,,,,,,,,,,,,,,,,,,,,,,,,,,,,,,,,,,,,,,,,,,,,,,,,,,,,,,,,,,,ZFHRNK,train_y,red_square,top_left,2025-04-24_15h06.38.596,HideSeek_v1,2022.2.5,59.943341485075756,
,,,,,,,,,,,,,,,0,0,0,0,9,0,9,0,,,,,,,,,,,,,,,,,,,,,,,,,,,,,,,conditions/schedules/train_y_first/red_square_00/top_left/instructions/Slide10.png,conditions/schedules/train_y_first/red_square_00/top_left/instructions/Audio10.wav,203.05100279999897,203.04802326965145,10,"[4.058971100021154, 11.173682999797165, 16.88087259978056, 29.106414700392634, 4.65696860011667, 4.770114899612963, 5.403469499666244, 11.656763699837029, 5.786858999636024, 6.5997449001297355]","[4.058984300121665, 0.00022509973496198654, 0.08226280007511377, 0.01419349992647767, 0.032583499792963266, 0.048723199870437384, 0.08028639992699027, 0.04880440002307296, 0.061743699945509434, 6.599751600064337]",0,,,,,,,,,,,,,,,,,,,,,,,,,,,,,,,,,,,,,,,,,,,,,,,,,,,,,,,,,,,,,,,,,,,,,,,,,,,,,,,,,,,,,,,,,,,,,,,,,,,,,,,,,,,,,,,,,,,,,,,,,,,,ZFHRNK,train_y,red_square,top_left,2025-04-24_15h06.38.596,HideSeek_v1,2022.2.5,59.943341485075756,
,,,,,,,,,,,,,,,0,0,0,0,10,0,10,0,,,,,,,,,,,,,,,,,,,,,,,,,,,,,,,conditions/schedules/train_y_first/red_square_00/top_left/instructions/Slide11.png,conditions/schedules/train_y_first/red_square_00/top_left/instructions/Audio11.wav,209.68965670000762,209.68694386971183,11,"[4.058971100021154, 11.173682999797165, 16.88087259978056, 29.106414700392634, 4.65696860011667, 4.770114899612963, 5.403469499666244, 11.656763699837029, 5.786858999636024, 6.5997449001297355, 12.255143499933183]","[4.058984300121665, 0.00022509973496198654, 0.08226280007511377, 0.01419349992647767, 0.032583499792963266, 0.048723199870437384, 0.08028639992699027, 0.04880440002307296, 0.061743699945509434, 0.07810339983552694, 12.25515120010823]",0,,,,,,,,,,,,,,,,,,,,,,,,,,,,,,,,,,,,,,,,,,,,,,,,,,,,,,,,,,,,,,,,,,,,,,,,,,,,,,,,,,,,,,,,,,,,,,,,,,,,,,,,,,,,,,,,,,,,,,,,,,,,ZFHRNK,train_y,red_square,top_left,2025-04-24_15h06.38.596,HideSeek_v1,2022.2.5,59.943341485075756,
,,,,,,,,,,,,,,,0,0,0,0,11,0,11,0,,,,,,,,,,,,,,,,,,,,,,,,,,,,,,,conditions/schedules/train_y_first/red_square_00/top_left/instructions/Slide12.png,conditions/schedules/train_y_first/red_square_00/top_left/instructions/Audio12.wav,222.01844359980896,222.01382814976387,12,"[4.058971100021154, 11.173682999797165, 16.88087259978056, 29.106414700392634, 4.65696860011667, 4.770114899612963, 5.403469499666244, 11.656763699837029, 5.786858999636024, 6.5997449001297355, 12.255143499933183, 16.508337300270796]","[4.058984300121665, 0.00022509973496198654, 0.08226280007511377, 0.01419349992647767, 0.032583499792963266, 0.048723199870437384, 0.08028639992699027, 0.04880440002307296, 0.061743699945509434, 0.07810339983552694, 0.0624255002476275, 16.508344100322574]",0,,,,,,,,,,,,,,,,,,,,,,,,,,,,,,,,,,,,,,,,,,,,,,,,,,,,,,,,,,,,,,,,,,,,,,,,,,,,,,,,,,,,,,,,,,,,,,,,,,,,,,,,,,,,,,,,,,,,,,,,,,,,ZFHRNK,train_y,red_square,top_left,2025-04-24_15h06.38.596,HideSeek_v1,2022.2.5,59.943341485075756,
1,2,8,2,3,0,-5,11,2,instr_dim1_1,,,,,,0,0,0,0,,,,,0,0,0,0,,,,,,,,,,,,,,,,,,,,,,,,,,,,,,,,,,,,,stimuli/alien_stimuli/11.png,conditions/schedules/train_y_first/red_square_00/top_left/inputInstr_1.xlsx,stimuli/alien_stimuli/11.png,238.62835770007223,238.62835770007223,238.62835770007223,238.62835770007223,238.62765612951478,return,6.463425100315362,"[-0.16, -0.08, 0, 0.08, 0.16, 0.24, 0.32, 0.4, 0.48, 0.56]","[-0.4, -0.32, -0.24, -0.16, -0.08, 0, 0.08, 0.16, 0.24, 0.32]",3,8,2,2,0.4,0.0,245.24551869975403,245.24551869975403,245.24551869975403,245.24551869975403,245.24551869975403,245.24551869975403,245.24551869975403,245.23321601971983,6.289293099660426,return,6.1286320998333395,stimuli/alien_stimuli/11.png,11,2,1,,,,,,,,,,,,,,,,,,,,,,,,,,,,,,,,,,,,,,,,,,,,,,,,,,,,,,,,,,,,,,,,,,,,,,,,,,,,,,,,,,,,,,,,,ZFHRNK,train_y,red_square,top_left,2025-04-24_15h06.38.596,HideSeek_v1,2022.2.5,59.943341485075756,
,,,,,,,,,,,30,,,,0,0,0,0,,,,,,,,,,,,,,,,,,,,,,,,,,,,,,,,,,,,,,,,,,,,,,,,,,,,,,,,,,,,,,,,,,,,,,,,,,,,,,21,0.7,0,0,99,1,30,0,conditions/schedules/train_y_first/red_square_00/top_left/inputTrain_1.1.xlsx,99,1,1,1,0,,,,,,,,,,,,,,,,,,,,,,,,,,,,,,,,,,,,,,,,,,,,,,,,,,,,,,,,,,,,,,,,,,,,,,,,,,,ZFHRNK,train_y,red_square,top_left,2025-04-24_15h06.38.596,HideSeek_v1,2022.2.5,59.943341485075756,
,,,,,,,,,,,,,,,1,0,1,0,0,0,0,0,,,,,,,,,,,,,,,,,,,,,,,,,,,,,,,conditions/schedules/train_y_first/red_square_00/top_left/instructions/Slide13.png,conditions/schedules/train_y_first/red_square_00/top_left/instructions/Audio13.wav,251.5496843997389,251.5381883098278,13,"[4.058971100021154, 11.173682999797165, 16.88087259978056, 29.106414700392634, 4.65696860011667, 4.770114899612963, 5.403469499666244, 11.656763699837029, 5.786858999636024, 6.5997449001297355, 12.255143499933183, 16.508337300270796, 16.983460099902004]","[4.058984300121665, 0.00022509973496198654, 0.08226280007511377, 0.01419349992647767, 0.032583499792963266, 0.048723199870437384, 0.08028639992699027, 0.04880440002307296, 0.061743699945509434, 0.07810339983552694, 0.0624255002476275, 16.508344100322574, 16.983466600067914]",0,,,,,,,,,,,,,,,,,,,,,,,,,,,,,,,,,,,,,,,,,,,,,,,,,,,,,,,,,,,,,,,,,,,,,,,,,,,,,,,,,,,,,,,,,,,,,,,,,,,,,,,,,,,,,,,,,,,,,,,,,,,,ZFHRNK,train_y,red_square,top_left,2025-04-24_15h06.38.596,HideSeek_v1,2022.2.5,59.943341485075756,
,,,,,,,,,,,,,,,1,0,1,0,1,0,1,0,,,,,,,,,,,,,,,,,,,,,,,,,,,,,,,conditions/schedules/train_y_first/red_square_00/top_left/instructions/Slide14.png,conditions/schedules/train_y_first/red_square_00/top_left/instructions/Audio14.wav,268.6042192997411,268.60262544988655,14,"[4.058971100021154, 11.173682999797165, 16.88087259978056, 29.106414700392634, 4.65696860011667, 4.770114899612963, 5.403469499666244, 11.656763699837029, 5.786858999636024, 6.5997449001297355, 12.255143499933183, 16.508337300270796, 16.983460099902004, 16.359317100141197]","[4.058984300121665, 0.00022509973496198654, 0.08226280007511377, 0.01419349992647767, 0.032583499792963266, 0.048723199870437384, 0.08028639992699027, 0.04880440002307296, 0.061743699945509434, 0.07810339983552694, 0.0624255002476275, 16.508344100322574, 0.013820600230246782, 16.359323600307107]",0,,,,,,,,,,,,,,,,,,,,,,,,,,,,,,,,,,,,,,,,,,,,,,,,,,,,,,,,,,,,,,,,,,,,,,,,,,,,,,,,,,,,,,,,,,,,,,,,,,,,,,,,,,,,,,,,,,,,,,,,,,,,ZFHRNK,train_y,red_square,top_left,2025-04-24_15h06.38.596,HideSeek_v1,2022.2.5,59.943341485075756,
2,0,8,0,8,0,0,16,2,instr_dim1_1,,,,,,1,0,1,0,,,,,0,0,0,0,,,,,,,,,,,,,,,,,,,,,,,,,,,,,,,,,,,,,stimuli/alien_stimuli/16.png,conditions/schedules/train_y_first/red_square_00/top_left/inputInstr_1.xlsx,stimuli/alien_stimuli/16.png,285.05940409982577,285.05940409982577,285.05940409982577,285.05940409982577,285.0495391397737,return,6.6307701002806425,"[-0.16, -0.08, 0, 0.08, 0.16, 0.24, 0.32, 0.4, 0.48, 0.56]","[-0.4, -0.32, -0.24, -0.16, -0.08, 0, 0.08, 0.16, 0.24, 0.32]",8,8,0,0,0.0,0.0,291.8511665998958,291.8511665998958,291.8511665998958,291.8511665998958,291.8511665998958,291.8511665998958,291.8511665998958,291.8386053195223,5.605320500209928,return,5.442902099806815,stimuli/alien_stimuli/16.png,16,0,2,,,,,,,,,,,,,,,,,,,,,,,,,,,,,,,,,,,,,,,,,,,,,,,,,,,,,,,,,,,,,,,,,,,,,,,,,,,,,,,,,,,,,,,,,ZFHRNK,train_y,red_square,top_left,2025-04-24_15h06.38.596,HideSeek_v1,2022.2.5,59.943341485075756,
,,,,,,,,,,,30,,,,1,0,1,0,,,,,,,,,,,,,,,,,,,,,,,,,,,,,,,,,,,,,,,,,,,,,,,,,,,,,,,,,,,,,,,,,,,,,,,,,,,,,,21,0.7,0,0,99,1,30,0,conditions/schedules/train_y_first/red_square_00/top_left/inputTrain_1.1.xlsx,99,1,1,1,0,,,,,,,,,,,,,,,,,,,,,,,,,,,,,,,,,,,,,,,,,,,,,,,,,,,,,,,,,,,,,,,,,,,,,,,,,,,ZFHRNK,train_y,red_square,top_left,2025-04-24_15h06.38.596,HideSeek_v1,2022.2.5,59.943341485075756,
,,,,,,,,,,,,,,,2,0,2,0,0,0,0,0,,,,,,,,,,,,,,,,,,,,,,,,,,,,,,,conditions/schedules/train_y_first/red_square_00/top_left/instructions/Slide15.png,conditions/schedules/train_y_first/red_square_00/top_left/instructions/Audio15.wav,297.4780684998259,297.47637799941003,15,"[4.058971100021154, 11.173682999797165, 16.88087259978056, 29.106414700392634, 4.65696860011667, 4.770114899612963, 5.403469499666244, 11.656763699837029, 5.786858999636024, 6.5997449001297355, 12.255143499933183, 16.508337300270796, 16.983460099902004, 16.359317100141197, 43.0818634997122]","[4.058984300121665, 0.00022509973496198654, 0.08226280007511377, 0.01419349992647767, 0.032583499792963266, 0.048723199870437384, 0.08028639992699027, 0.04880440002307296, 0.061743699945509434, 0.07810339983552694, 0.0624255002476275, 16.508344100322574, 0.013820600230246782, 16.359323600307107, 43.08187049999833]",0,,,,,,,,,,,,,,,,,,,,,,,,,,,,,,,,,,,,,,,,,,,,,,,,,,,,,,,,,,,,,,,,,,,,,,,,,,,,,,,,,,,,,,,,,,,,,,,,,,,,,,,,,,,,,,,,,,,,,,,,,,,,ZFHRNK,train_y,red_square,top_left,2025-04-24_15h06.38.596,HideSeek_v1,2022.2.5,59.943341485075756,
,,,,,,,,,,,,,,,2,0,2,0,1,0,1,0,,,,,,,,,,,,,,,,,,,,,,,,,,,,,,,conditions/schedules/train_y_first/red_square_00/top_left/instructions/Slide16.png,conditions/schedules/train_y_first/red_square_00/top_left/instructions/Audio16.wav,340.63085999991745,340.62886544992216,16,"[4.058971100021154, 11.173682999797165, 16.88087259978056, 29.106414700392634, 4.65696860011667, 4.770114899612963, 5.403469499666244, 11.656763699837029, 5.786858999636024, 6.5997449001297355, 12.255143499933183, 16.508337300270796, 16.983460099902004, 16.359317100141197, 43.0818634997122, 10.554679099936038]","[4.058984300121665, 0.00022509973496198654, 0.08226280007511377, 0.01419349992647767, 0.032583499792963266, 0.048723199870437384, 0.08028639992699027, 0.04880440002307296, 0.061743699945509434, 0.07810339983552694, 0.0624255002476275, 16.508344100322574, 0.013820600230246782, 16.359323600307107, 0.013918700162321329, 10.554686599876732]",0,,,,,,,,,,,,,,,,,,,,,,,,,,,,,,,,,,,,,,,,,,,,,,,,,,,,,,,,,,,,,,,,,,,,,,,,,,,,,,,,,,,,,,,,,,,,,,,,,,,,,,,,,,,,,,,,,,,,,,,,,,,,ZFHRNK,train_y,red_square,top_left,2025-04-24_15h06.38.596,HideSeek_v1,2022.2.5,59.943341485075756,
,0,5,0,4,0,-1,15,,train_dim1_1,1,30,,,,2,0,2,0,,,,,,,,,0,0,0,0,0,0,0,0,0,0,0,0,,,,,,,,,,,,,,,,,,,,,,,,,stimuli/alien_stimuli/15.png,,,,,,,,,,,,,,,,,,,,,,,,,,,,,,,,,,,,,,,30,,,,,,,,351.29372560000047,351.29372560000047,351.29372560000047,351.29372560000047,351.29372560000047,right,1.5079717002809048,0,0,0,99,-0.08,0,right,1.41186450002715,,,,,,,,,,,,,,,,,,,,,,,,,,,,,,,,,,,,,,,,,,,,,,,,,,,,,,,,,,,,ZFHRNK,train_y,red_square,top_left,2025-04-24_15h06.38.596,HideSeek_v1,2022.2.5,59.943341485075756,
,0,5,0,4,0,-1,15,,train_dim1_1,1,30,,,,2,0,2,0,,,,,,,,,0,0,0,0,0,0,0,0,1,0,1,0,,,,,,,,,,,,,,,,,,,,,,,,,,,,,,,,,,,,,,,,,,,,,,,,,,,,,,,,,,,,,,,,30,,,,,,,,352.79082529991865,352.79082529991865,352.79082529991865,352.79082529991865,352.79082529991865,right,1.04296680027619,0,0,0,99,0.0,0,right,0.9607683001086116,,,,,,,,,,,,,,,,,,,,,,,,,,,,,,,,,,,,,,,,,,,,,,,,,,,,,,,,,,,,ZFHRNK,train_y,red_square,top_left,2025-04-24_15h06.38.596,HideSeek_v1,2022.2.5,59.943341485075756,
,0,5,0,4,0,-1,15,,train_dim1_1,1,30,,,,2,0,2,0,,,,,,,,,0,0,0,0,0,0,0,0,2,0,2,0,,,,,,,,,,,,,,,,,,,,,,,,,,,,,,,,,,,,,,,,,,,,,,,,,,,,,,,,,,,,,,,,30,,,,,,,,353.8405041000806,353.8405041000806,353.8405041000806,353.8405041000806,353.8405041000806,down,0.8601657003164291,0,0,0,99,0.0,-0.08,down,0.7717050998471677,,,,,,,,,,,,,,,,,,,,,,,,,,,,,,,,,,,,,,,,,,,,,,,,,,,,,,,,,,,,ZFHRNK,train_y,red_square,top_left,2025-04-24_15h06.38.596,HideSeek_v1,2022.2.5,59.943341485075756,
,0,5,0,4,0,-1,15,,train_dim1_1,1,30,,,,2,0,2,0,,,,,,,,,0,0,0,0,0,0,0,0,3,0,3,0,,,,,,,,,,,,,,,,,,,,,,,,,,,,,,,,,,,,,,,,,,,,,,,,,,,,,,,,,,,,,,,,30,,,,,,,,354.7070859000087,354.7070859000087,354.7070859000087,354.7070859000087,354.7070859000087,right,0.7770914998836815,0,0,0,99,0.08,-0.08,right,0.6854500998742878,,,,,,,,,,,,,,,,,,,,,,,,,,,,,,,,,,,,,,,,,,,,,,,,,,,,,,,,,,,,ZFHRNK,train_y,red_square,top_left,2025-04-24_15h06.38.596,HideSeek_v1,2022.2.5,59.943341485075756,
,0,5,0,4,0,-1,15,,train_dim1_1,1,30,,,,2,0,2,0,,,,,,,,,0,0,0,0,0,0,0,0,4,0,4,0,,,,,,,,,,,,,,,,,,,,,,,,,,,,,,,,,,,,,,,,,,,,,,,,,,,,,,,,,,,,,,,,30,,,,,,,,355.49101739982143,355.49101739982143,355.49101739982143,355.49101739982143,355.49101739982143,right,0.6095938999205828,0,0,0,99,0.16,-0.08,right,0.5340259000658989,,,,,,,,,,,,,,,,,,,,,,,,,,,,,,,,,,,,,,,,,,,,,,,,,,,,,,,,,,,,ZFHRNK,train_y,red_square,top_left,2025-04-24_15h06.38.596,HideSeek_v1,2022.2.5,59.943341485075756,
,0,5,0,4,0,-1,15,,train_dim1_1,1,30,,,,2,0,2,0,,,,,,,,,0,0,0,0,0,0,0,0,5,0,5,0,,,,,,,,,,,,,,,,,,,,,,,,,,,,,,,,,,,,,,,,,,,,,,,,,,,,,,,,,,,,,,,,30,,,,,,,,356.1092201997526,356.1092201997526,356.1092201997526,356.1092201997526,356.1092201997526,right,1.1770306997932494,0,0,0,99,0.24,-0.08,right,1.0894988998770714,,,,,,,,,,,,,,,,,,,,,,,,,,,,,,,,,,,,,,,,,,,,,,,,,,,,,,,,,,,,ZFHRNK,train_y,red_square,top_left,2025-04-24_15h06.38.596,HideSeek_v1,2022.2.5,59.943341485075756,
,0,5,0,4,0,-1,15,,train_dim1_1,1,30,,,,2,0,2,0,,,,,,,,,0,0,0,0,0,0,0,0,6,0,6,0,,,,,,,,,,,,,,,,,,,,,,,,,,,,,,,,,,,,,,,,,,,,,,,,,,,,,,,,,,,,,,,,30,,,,,,,,357.29383629979566,357.29383629979566,357.29383629979566,357.29383629979566,357.29383629979566,up,0.4767072000540793,0,0,0,99,0.24,0.0,up,0.3914435002952814,,,,,,,,,,,,,,,,,,,,,,,,,,,,,,,,,,,,,,,,,,,,,,,,,,,,,,,,,,,,ZFHRNK,train_y,red_square,top_left,2025-04-24_15h06.38.596,HideSeek_v1,2022.2.5,59.943341485075756,
,0,5,0,4,0,-1,15,,train_dim1_1,1,30,,,,2,0,2,0,,,,,,,,,0,0,0,0,0,0,0,0,7,0,7,0,,,,,,,,,,,,,,,,,,,,,,,,,,,,,,,,,,,,,,,,,,,,,,,,,,,,,,,,,,,,,,,,30,,,,,,,,357.77725329995155,357.77725329995155,357.77725329995155,357.77725329995155,357.77725329995155,left,0.7434225003235042,0,0,0,99,0.15999999999999998,0.0,left,0.6618731999769807,,,,,,,,,,,,,,,,,,,,,,,,,,,,,,,,,,,,,,,,,,,,,,,,,,,,,,,,,,,,ZFHRNK,train_y,red_square,top_left,2025-04-24_15h06.38.596,HideSeek_v1,2022.2.5,59.943341485075756,
,0,5,0,4,0,-1,15,,train_dim1_1,1,30,,,,2,0,2,0,,,,,,,,,0,0,0,0,0,0,0,0,8,0,8,0,,,,,,,,,,,,,,,,,,,,,,,,,,,,,,,,,,,,,,,,,,,,,,,,,,,,,,,,,,,,,,,,30,,,,,,,,358.528152000159,358.528152000159,358.528152000159,358.528152000159,358.528152000159,left,0.32685269974172115,0,0,0,99,0.07999999999999997,0.0,left,0.2486167000606656,,,,,,,,,,,,,,,,,,,,,,,,,,,,,,,,,,,,,,,,,,,,,,,,,,,,,,,,,,,,ZFHRNK,train_y,red_square,top_left,2025-04-24_15h06.38.596,HideSeek_v1,2022.2.5,59.943341485075756,
,0,5,0,4,0,-1,15,,train_dim1_1,1,30,,,,2,0,2,0,,,,,,,,,0,0,0,0,0,0,0,0,9,0,9,0,,,,,,,,,,,,,,,,,,,,,,,,,,,,,,,,,,,,,,,,,,,,,,,,,,,,,,,,,,,,,,,,30,,,,,,,,358.86279710009694,358.86279710009694,358.86279710009694,358.86279710009694,358.86279710009694,left,0.29324649972841144,0,0,0,99,-2.7755575615628914e-17,0.0,left,0.21567359985783696,,,,,,,,,,,,,,,,,,,,,,,,,,,,,,,,,,,,,,,,,,,,,,,,,,,,,,,,,,,,ZFHRNK,train_y,red_square,top_left,2025-04-24_15h06.38.596,HideSeek_v1,2022.2.5,59.943341485075756,
,0,5,0,4,0,-1,15,,train_dim1_1,1,30,,,,2,0,2,0,,,,,,,,,0,0,0,0,0,0,0,0,10,0,10,0,,,,,,,,,,,,,,,,,,,,,,,,,,,,,,,,,,,,,,,,,,,,,,,,,,,,,,,,,,,,,,,,30,,,,,,,,359.16182509995997,359.16182509995997,359.16182509995997,359.16182509995997,359.16182509995997,left,0.2758678002282977,0,0,0,99,-0.08000000000000003,0.0,left,0.1927955998107791,,,,,,,,,,,,,,,,,,,,,,,,,,,,,,,,,,,,,,,,,,,,,,,,,,,,,,,,,,,,ZFHRNK,train_y,red_square,top_left,2025-04-24_15h06.38.596,HideSeek_v1,2022.2.5,59.943341485075756,
,0,5,0,4,0,-1,15,,train_dim1_1,1,30,,,,2,0,2,0,,,,,,,,,0,0,0,0,0,0,0,0,11,0,11,0,,,,,,,,,,,,,,,,,,,,,,,,,,,,,,,,,,,,,,,,,,,,,,,,,,,,,,,,,,,,,,,,30,,,,,,,,359.4462222000584,359.4462222000584,359.4462222000584,359.4462222000584,359.4462222000584,left,3.2962536001577973,0,0,0,99,-0.16000000000000003,0.0,left,3.2038770001381636,,,,,,,,,,,,,,,,,,,,,,,,,,,,,,,,,,,,,,,,,,,,,,,,,,,,,,,,,,,,ZFHRNK,train_y,red_square,top_left,2025-04-24_15h06.38.596,HideSeek_v1,2022.2.5,59.943341485075756,
,0,5,0,4,0,-1,15,,train_dim1_1,1,30,,,,2,0,2,0,,,,,,,,,0,0,0,0,0,0,0,0,12,0,12,0,,,,,,,,,,,,,,,,,,,,,,,,,,,,,,,,,,,,,,,,,,,,,,,,,,,,,,,,,,,,,,,,30,,,,,,,,362.7501083998941,362.7501083998941,362.7501083998941,362.7501083998941,362.7501083998941,right,0.641752399969846,0,0,0,99,-0.08000000000000003,0.0,right,0.5496841999702156,,,,,,,,,,,,,,,,,,,,,,,,,,,,,,,,,,,,,,,,,,,,,,,,,,,,,,,,,,,,ZFHRNK,train_y,red_square,top_left,2025-04-24_15h06.38.596,HideSeek_v1,2022.2.5,59.943341485075756,
,0,5,0,4,0,-1,15,,train_dim1_1,1,30,,,,2,0,2,0,,,,,,,,,0,0,0,0,0,0,0,0,13,0,13,0,,,,,,,,,,,,,,,,,,,,,,,,,,,,,,,,,,,,,,,,,,,,,,,,,,,,,,,,,,,,,,,,30,,,,,,,,363.3986696000211,363.3986696000211,363.3986696000211,363.3986696000211,363.3986696000211,return,0.9604612998664379,0,0,0,0,-0.08000000000000003,0.0,return,0.8765056002885103,0,1,-0.08000000000000003,0.0,,,,,,,,,,,,,,,,,,,,,,,,,,,,,,,,,,,,,,,,,,,,,,,,,,,,,,,,ZFHRNK,train_y,red_square,top_left,2025-04-24_15h06.38.596,HideSeek_v1,2022.2.5,59.943341485075756,
,3,7,3,7,0,0,16,,train_dim1_1,2,30,,,,2,0,2,0,,,,,,,,,0,0,0,0,0,1,1,1,0,0,0,0,,,,,,,,,,,,,,,,,,,,,,,,,stimuli/alien_stimuli/16.png,,,,,,,,,,,,,,,,,,,,,,,,,,,,,stimuli/alien_stimuli/15.png,15,0,3,,,,,,,30,,,,,,,,378.535183200147,378.535183200147,378.535183200147,378.535183200147,378.535183200147,left,3.1569187003187835,0,0,0,99,0.0,0.16,left,3.052862100303173,,,,,376.9591692001559,378.535183200147,-0.16,-0.08,0.08,0.0,-0.04,-0.16,-0.16,-0.16,-0.08,365.93756840005517,365.93756840005517,365.93756840005517,365.93756840005517,365.93756840005517,365.93756840005517,365.93756840005517,365.93756840005517,365.93344901958477,11.144419400021434,return,11.000430200248957,,,,,,,,,,,,,,,,,,,,,,,,,,,,,,,,,ZFHRNK,train_y,red_square,top_left,2025-04-24_15h06.38.596,HideSeek_v1,2022.2.5,59.943341485075756,
,3,7,3,7,0,0,16,,train_dim1_1,2,30,,,,2,0,2,0,,,,,,,,,0,0,0,0,0,1,1,1,1,0,1,0,,,,,,,,,,,,,,,,,,,,,,,,,,,,,,,,,,,,,,,,,,,,,,,,,,,,,,,,,,,,,,,,30,,,,,,,,381.6814270000905,381.6814270000905,381.6814270000905,381.6814270000905,381.6814270000905,down,2.19374050013721,0,0,0,99,0.0,0.08,down,2.1029143002815545,,,,,,,,,,,,,,,,,,,,,,,,,,,,,,,,,,,,,,,,,,,,,,,,,,,,,,,,,,,,ZFHRNK,train_y,red_square,top_left,2025-04-24_15h06.38.596,HideSeek_v1,2022.2.5,59.943341485075756,
,3,7,3,7,0,0,16,,train_dim1_1,2,30,,,,2,0,2,0,,,,,,,,,0,0,0,0,0,1,1,1,2,0,2,0,,,,,,,,,,,,,,,,,,,,,,,,,,,,,,,,,,,,,,,,,,,,,,,,,,,,,,,,,,,,,,,,30,,,,,,,,383.8817656999454,383.8817656999454,383.8817656999454,383.8817656999454,383.8817656999454,right,1.2442312999628484,0,0,0,99,0.08,0.08,right,1.1632044999860227,,,,,,,,,,,,,,,,,,,,,,,,,,,,,,,,,,,,,,,,,,,,,,,,,,,,,,,,,,,,ZFHRNK,train_y,red_square,top_left,2025-04-24_15h06.38.596,HideSeek_v1,2022.2.5,59.943341485075756,
,3,7,3,7,0,0,16,,train_dim1_1,2,30,,,,2,0,2,0,,,,,,,,,0,0,0,0,0,1,1,1,3,0,3,0,,,,,,,,,,,,,,,,,,,,,,,,,,,,,,,,,,,,,,,,,,,,,,,,,,,,,,,,,,,,,,,,30,,,,,,,,385.13459970010445,385.13459970010445,385.13459970010445,385.13459970010445,385.13459970010445,left,0.9091968000866473,0,0,0,99,0.0,0.08,left,0.8246687999926507,,,,,,,,,,,,,,,,,,,,,,,,,,,,,,,,,,,,,,,,,,,,,,,,,,,,,,,,,,,,ZFHRNK,train_y,red_square,top_left,2025-04-24_15h06.38.596,HideSeek_v1,2022.2.5,59.943341485075756,
,3,7,3,7,0,0,16,,train_dim1_1,2,30,,,,2,0,2,0,,,,,,,,,0,0,0,0,0,1,1,1,4,0,4,0,,,,,,,,,,,,,,,,,,,,,,,,,,,,,,,,,,,,,,,,,,,,,,,,,,,,,,,,,,,,,,,,30,,,,,,,,386.05056779971346,386.05056779971346,386.05056779971346,386.05056779971346,386.05056779971346,return,0.3430128996260464,0,0,0,0,0.0,0.08,return,0.25315670017153025,-1,0,0.0,0.08,,,,,,,,,,,,,,,,,,,,,,,,,,,,,,,,,,,,,,,,,,,,,,,,,,,,,,,,ZFHRNK,train_y,red_square,top_left,2025-04-24_15h06.38.596,HideSeek_v1,2022.2.5,59.943341485075756,
,2,8,2,5,0,-3,13,,train_dim1_1,3,30,,,,2,0,2,0,,,,,,,,,0,0,0,0,0,2,2,2,0,0,0,0,,,,,,,,,,,,,,,,,,,,,,,,,stimuli/alien_stimuli/13.png,,,,,,,,,,,,,,,,,,,,,,,,,,,,,stimuli/alien_stimuli/16.png,16,3,4,,,,,,,30,,,,,,,,393.9136199001223,393.9136199001223,393.9136199001223,393.9136199001223,393.9136199001223,right,0.9383014002814889,0,0,0,99,0.08,0.24,right,0.853558000177145,,,,,392.3555227997713,393.9136199001223,0.08,0.16,0.0,0.0,0.16,0.08,0.08,0.08,0.16,387.9682334000245,387.9682334000245,387.9682334000245,387.9682334000245,387.9682334000245,387.9682334000245,387.9682334000245,387.9682334000245,387.96843361984935,4.505969199817628,return,4.370708100032061,,,,,,,,,,,,,,,,,,,,,,,,,,,,,,,,,ZFHRNK,train_y,red_square,top_left,2025-04-24_15h06.38.596,HideSeek_v1,2022.2.5,59.943341485075756,
,2,8,2,5,0,-3,13,,train_dim1_1,3,30,,,,2,0,2,0,,,,,,,,,0,0,0,0,0,2,2,2,1,0,1,0,,,,,,,,,,,,,,,,,,,,,,,,,,,,,,,,,,,,,,,,,,,,,,,,,,,,,,,,,,,,,,,,30,,,,,,,,394.85750770010054,394.85750770010054,394.85750770010054,394.85750770010054,394.85750770010054,right,0.5935627999715507,0,0,0,99,0.16,0.24,right,0.5128724002279341,,,,,,,,,,,,,,,,,,,,,,,,,,,,,,,,,,,,,,,,,,,,,,,,,,,,,,,,,,,,ZFHRNK,train_y,red_square,top_left,2025-04-24_15h06.38.596,HideSeek_v1,2022.2.5,59.943341485075756,
,2,8,2,5,0,-3,13,,train_dim1_1,3,30,,,,2,0,2,0,,,,,,,,,0,0,0,0,0,2,2,2,2,0,2,0,,,,,,,,,,,,,,,,,,,,,,,,,,,,,,,,,,,,,,,,,,,,,,,,,,,,,,,,,,,,,,,,30,,,,,,,,395.4588413001038,395.4588413001038,395.4588413001038,395.4588413001038,395.4588413001038,right,0.42600829992443323,0,0,0,99,0.24,0.24,right,0.34637989988550544,,,,,,,,,,,,,,,,,,,,,,,,,,,,,,,,,,,,,,,,,,,,,,,,,,,,,,,,,,,,ZFHRNK,train_y,red_square,top_left,2025-04-24_15h06.38.596,HideSeek_v1,2022.2.5,59.943341485075756,
,2,8,2,5,0,-3,13,,train_dim1_1,3,30,,,,2,0,2,0,,,,,,,,,0,0,0,0,0,2,2,2,3,0,3,0,,,,,,,,,,,,,,,,,,,,,,,,,,,,,,,,,,,,,,,,,,,,,,,,,,,,,,,,,,,,,,,,30,,,,,,,,395.89893979998305,395.89893979998305,395.89893979998305,395.89893979998305,395.89893979998305,right,0.5715064001269639,0,0,0,99,0.32,0.24,right,0.4793400000780821,,,,,,,,,,,,,,,,,,,,,,,,,,,,,,,,,,,,,,,,,,,,,,,,,,,,,,,,,,,,ZFHRNK,train_y,red_square,top_left,2025-04-24_15h06.38.596,HideSeek_v1,2022.2.5,59.943341485075756,
,2,8,2,5,0,-3,13,,train_dim1_1,3,30,,,,2,0,2,0,,,,,,,,,0,0,0,0,0,2,2,2,4,0,4,0,,,,,,,,,,,,,,,,,,,,,,,,,,,,,,,,,,,,,,,,,,,,,,,,,,,,,,,,,,,,,,,,30,,,,,,,,396.47540380014107,396.47540380014107,396.47540380014107,396.47540380014107,396.47540380014107,right,0.6768122003413737,0,0,0,99,0.4,0.24,right,0.5902161002159119,,,,,,,,,,,,,,,,,,,,,,,,,,,,,,,,,,,,,,,,,,,,,,,,,,,,,,,,,,,,ZFHRNK,train_y,red_square,top_left,2025-04-24_15h06.38.596,HideSeek_v1,2022.2.5,59.943341485075756,
,2,8,2,5,0,-3,13,,train_dim1_1,3,30,,,,2,0,2,0,,,,,,,,,0,0,0,0,0,2,2,2,5,0,5,0,,,,,,,,,,,,,,,,,,,,,,,,,,,,,,,,,,,,,,,,,,,,,,,,,,,,,,,,,,,,,,,,30,,,,,,,,397.1583758997731,397.1583758997731,397.1583758997731,397.1583758997731,397.1583758997731,down,1.5613176003098488,0,0,0,99,0.4,0.15999999999999998,down,1.4727024999447167,,,,,,,,,,,,,,,,,,,,,,,,,,,,,,,,,,,,,,,,,,,,,,,,,,,,,,,,,,,,ZFHRNK,train_y,red_square,top_left,2025-04-24_15h06.38.596,HideSeek_v1,2022.2.5,59.943341485075756,
,2,8,2,5,0,-3,13,,train_dim1_1,3,30,,,,2,0,2,0,,,,,,,,,0,0,0,0,0,2,2,2,6,0,6,0,,,,,,,,,,,,,,,,,,,,,,,,,,,,,,,,,,,,,,,,,,,,,,,,,,,,,,,,,,,,,,,,30,,,,,,,,398.73074409971014,398.73074409971014,398.73074409971014,398.73074409971014,398.73074409971014,left,0.7575157000683248,0,0,0,99,0.32,0.15999999999999998,left,0.6688818000257015,,,,,,,,,,,,,,,,,,,,,,,,,,,,,,,,,,,,,,,,,,,,,,,,,,,,,,,,,,,,ZFHRNK,train_y,red_square,top_left,2025-04-24_15h06.38.596,HideSeek_v1,2022.2.5,59.943341485075756,
,2,8,2,5,0,-3,13,,train_dim1_1,3,30,,,,2,0,2,0,,,,,,,,,0,0,0,0,0,2,2,2,7,0,7,0,,,,,,,,,,,,,,,,,,,,,,,,,,,,,,,,,,,,,,,,,,,,,,,,,,,,,,,,,,,,,,,,30,,,,,,,,399.49398140003905,399.49398140003905,399.49398140003905,399.49398140003905,399.49398140003905,left,0.29374240012839437,0,0,0,99,0.24,0.15999999999999998,left,0.21742979995906353,,,,,,,,,,,,,,,,,,,,,,,,,,,,,,,,,,,,,,,,,,,,,,,,,,,,,,,,,,,,ZFHRNK,train_y,red_square,top_left,2025-04-24_15h06.38.596,HideSeek_v1,2022.2.5,59.943341485075756,
,2,8,2,5,0,-3,13,,train_dim1_1,3,30,,,,2,0,2,0,,,,,,,,,0,0,0,0,0,2,2,2,8,0,8,0,,,,,,,,,,,,,,,,,,,,,,,,,,,,,,,,,,,,,,,,,,,,,,,,,,,,,,,,,,,,,,,,30,,,,,,,,399.79504700005054,399.79504700005054,399.79504700005054,399.79504700005054,399.79504700005054,left,0.2931279996410012,0,0,0,99,0.15999999999999998,0.15999999999999998,left,0.20261859986931086,,,,,,,,,,,,,,,,,,,,,,,,,,,,,,,,,,,,,,,,,,,,,,,,,,,,,,,,,,,,ZFHRNK,train_y,red_square,top_left,2025-04-24_15h06.38.596,HideSeek_v1,2022.2.5,59.943341485075756,
,2,8,2,5,0,-3,13,,train_dim1_1,3,30,,,,2,0,2,0,,,,,,,,,0,0,0,0,0,2,2,2,9,0,9,0,,,,,,,,,,,,,,,,,,,,,,,,,,,,,,,,,,,,,,,,,,,,,,,,,,,,,,,,,,,,,,,,30,,,,,,,,400.09489369997755,400.09489369997755,400.09489369997755,400.09489369997755,400.09489369997755,right,3.9800441996194422,0,0,0,99,0.24,0.15999999999999998,right,3.8889485001564026,,,,,,,,,,,,,,,,,,,,,,,,,,,,,,,,,,,,,,,,,,,,,,,,,,,,,,,,,,,,ZFHRNK,train_y,red_square,top_left,2025-04-24_15h06.38.596,HideSeek_v1,2022.2.5,59.943341485075756,
,2,8,2,5,0,-3,13,,train_dim1_1,3,30,,,,2,0,2,0,,,,,,,,,0,0,0,0,0,2,2,2,10,0,10,0,,,,,,,,,,,,,,,,,,,,,,,,,,,,,,,,,,,,,,,,,,,,,,,,,,,,,,,,,,,,,,,,30,,,,,,,,404.082763500046,404.082763500046,404.082763500046,404.082763500046,404.082763500046,right,0.32530569983646274,0,0,0,99,0.32,0.15999999999999998,right,0.2381894001737237,,,,,,,,,,,,,,,,,,,,,,,,,,,,,,,,,,,,,,,,,,,,,,,,,,,,,,,,,,,,ZFHRNK,train_y,red_square,top_left,2025-04-24_15h06.38.596,HideSeek_v1,2022.2.5,59.943341485075756,
,2,8,2,5,0,-3,13,,train_dim1_1,3,30,,,,2,0,2,0,,,,,,,,,0,0,0,0,0,2,2,2,11,0,11,0,,,,,,,,,,,,,,,,,,,,,,,,,,,,,,,,,,,,,,,,,,,,,,,,,,,,,,,,,,,,,,,,30,,,,,,,,404.4147832999006,404.4147832999006,404.4147832999006,404.4147832999006,404.4147832999006,return,1.094181700143963,0,0,0,0,0.32,0.15999999999999998,return,1.005957500077784,-2,4,0.32,0.15999999999999998,,,,,,,,,,,,,,,,,,,,,,,,,,,,,,,,,,,,,,,,,,,,,,,,,,,,,,,,ZFHRNK,train_y,red_square,top_left,2025-04-24_15h06.38.596,HideSeek_v1,2022.2.5,59.943341485075756,
,0,6,0,2,0,-4,12,,train_dim1_1,4,30,,,,2,0,2,0,,,,,,,,,0,0,0,0,0,3,3,3,0,0,0,0,,,,,,,,,,,,,,,,,,,,,,,,,stimuli/alien_stimuli/12.png,,,,,,,,,,,,,,,,,,,,,,,,,,,,,stimuli/alien_stimuli/13.png,13,2,5,,,,,,,30,,,,,,,,411.5818690001033,411.5818690001033,411.5818690001033,411.5818690001033,411.5818690001033,right,1.353526100050658,0,0,0,99,-0.08,0.08,right,1.2635005000047386,,,,,410.020031100139,411.5818690001033,0,0,0.24,0.0,0.12,0,0.0,0,0,407.0900178998709,407.0900178998709,407.0900178998709,407.0900178998709,407.0900178998709,407.0900178998709,407.0900178998709,407.0900178998709,407.08465731972825,3.0539425001479685,return,2.8983192001469433,,,,,,,,,,,,,,,,,,,,,,,,,,,,,,,,,ZFHRNK,train_y,red_square,top_left,2025-04-24_15h06.38.596,HideSeek_v1,2022.2.5,59.943341485075756,
,0,6,0,2,0,-4,12,,train_dim1_1,4,30,,,,2,0,2,0,,,,,,,,,0,0,0,0,0,3,3,3,1,0,1,0,,,,,,,,,,,,,,,,,,,,,,,,,,,,,,,,,,,,,,,,,,,,,,,,,,,,,,,,,,,,,,,,30,,,,,,,,412.94166800007224,412.94166800007224,412.94166800007224,412.94166800007224,412.94166800007224,right,0.7927071000449359,0,0,0,99,0.0,0.08,right,0.7060262998566031,,,,,,,,,,,,,,,,,,,,,,,,,,,,,,,,,,,,,,,,,,,,,,,,,,,,,,,,,,,,ZFHRNK,train_y,red_square,top_left,2025-04-24_15h06.38.596,HideSeek_v1,2022.2.5,59.943341485075756,
,0,6,0,2,0,-4,12,,train_dim1_1,4,30,,,,2,0,2,0,,,,,,,,,0,0,0,0,0,3,3,3,2,0,2,0,,,,,,,,,,,,,,,,,,,,,,,,,,,,,,,,,,,,,,,,,,,,,,,,,,,,,,,,,,,,,,,,30,,,,,,,,413.7397928000428,413.7397928000428,413.7397928000428,413.7397928000428,413.7397928000428,right,1.81156719988212,0,0,0,99,0.08,0.08,right,1.7250183001160622,,,,,,,,,,,,,,,,,,,,,,,,,,,,,,,,,,,,,,,,,,,,,,,,,,,,,,,,,,,,ZFHRNK,train_y,red_square,top_left,2025-04-24_15h06.38.596,HideSeek_v1,2022.2.5,59.943341485075756,
,0,6,0,2,0,-4,12,,train_dim1_1,4,30,,,,2,0,2,0,,,,,,,,,0,0,0,0,0,3,3,3,3,0,3,0,,,,,,,,,,,,,,,,,,,,,,,,,,,,,,,,,,,,,,,,,,,,,,,,,,,,,,,,,,,,,,,,30,,,,,,,,415.5580203998834,415.5580203998834,415.5580203998834,415.5580203998834,415.5580203998834,return,0.39351839991286397,0,0,0,0,0.08,0.08,return,0.30979209998622537,-2,7,0.08,0.08,,,,,,,,,,,,,,,,,,,,,,,,,,,,,,,,,,,,,,,,,,,,,,,,,,,,,,,,ZFHRNK,train_y,red_square,top_left,2025-04-24_15h06.38.596,HideSeek_v1,2022.2.5,59.943341485075756,
,3,8,3,3,0,-5,11,,train_dim1_1,5,30,,,,2,0,2,0,,,,,,,,,0,0,0,0,0,4,4,4,0,0,0,0,,,,,,,,,,,,,,,,,,,,,,,,,stimuli/alien_stimuli/11.png,,,,,,,,,,,,,,,,,,,,,,,,,,,,,stimuli/alien_stimuli/12.png,12,0,6,,,,,,,30,,,,,,,,422.31994129996747,422.31994129996747,422.31994129996747,422.31994129996747,422.31994129996747,down,1.2211457001976669,0,0,0,99,0.08,0.15999999999999998,down,1.14384809974581,,,,,420.76202489994466,422.31994129996747,-0.16,-0.24,0.32,0.0,-0.07999999999999999,-0.16,-0.16,-0.16,-0.24,417.52640279987827,417.52640279987827,417.52640279987827,417.52640279987827,417.52640279987827,417.52640279987827,417.52640279987827,417.52640279987827,417.526331219729,3.3547785002738237,return,3.2090281997807324,,,,,,,,,,,,,,,,,,,,,,,,,,,,,,,,,ZFHRNK,train_y,red_square,top_left,2025-04-24_15h06.38.596,HideSeek_v1,2022.2.5,59.943341485075756,
,3,8,3,3,0,-5,11,,train_dim1_1,5,30,,,,2,0,2,0,,,,,,,,,0,0,0,0,0,4,4,4,1,0,1,0,,,,,,,,,,,,,,,,,,,,,,,,,,,,,,,,,,,,,,,,,,,,,,,,,,,,,,,,,,,,,,,,30,,,,,,,,423.5475061000325,423.5475061000325,423.5475061000325,423.5475061000325,423.5475061000325,down,0.44373599998652935,0,0,0,99,0.08,0.07999999999999997,down,0.3570964001119137,,,,,,,,,,,,,,,,,,,,,,,,,,,,,,,,,,,,,,,,,,,,,,,,,,,,,,,,,,,,ZFHRNK,train_y,red_square,top_left,2025-04-24_15h06.38.596,HideSeek_v1,2022.2.5,59.943341485075756,
,3,8,3,3,0,-5,11,,train_dim1_1,5,30,,,,2,0,2,0,,,,,,,,,0,0,0,0,0,4,4,4,2,0,2,0,,,,,,,,,,,,,,,,,,,,,,,,,,,,,,,,,,,,,,,,,,,,,,,,,,,,,,,,,,,,,,,,30,,,,,,,,423.99871850013733,423.99871850013733,423.99871850013733,423.99871850013733,423.99871850013733,left,0.52683399990201,0,0,0,99,0.0,0.07999999999999997,left,0.44250559993088245,,,,,,,,,,,,,,,,,,,,,,,,,,,,,,,,,,,,,,,,,,,,,,,,,,,,,,,,,,,,ZFHRNK,train_y,red_square,top_left,2025-04-24_15h06.38.596,HideSeek_v1,2022.2.5,59.943341485075756,
,3,8,3,3,0,-5,11,,train_dim1_1,5,30,,,,2,0,2,0,,,,,,,,,0,0,0,0,0,4,4,4,3,0,3,0,,,,,,,,,,,,,,,,,,,,,,,,,,,,,,,,,,,,,,,,,,,,,,,,,,,,,,,,,,,,,,,,30,,,,,,,,424.5320144998841,424.5320144998841,424.5320144998841,424.5320144998841,424.5320144998841,return,0.5434667002409697,0,0,0,0,0.0,0.07999999999999997,return,0.4523411002010107,-4,6,0.0,0.07999999999999997,,,,,,,,,,,,,,,,,,,,,,,,,,,,,,,,,,,,,,,,,,,,,,,,,,,,,,,,ZFHRNK,train_y,red_square,top_left,2025-04-24_15h06.38.596,HideSeek_v1,2022.2.5,59.943341485075756,
,1,9,1,5,0,-4,12,,train_dim1_1,6,30,,,,2,0,2,0,,,,,,,,,0,0,0,0,0,5,5,5,0,0,0,0,,,,,,,,,,,,,,,,,,,,,,,,,stimuli/alien_stimuli/12.png,,,,,,,,,,,,,,,,,,,,,,,,,,,,,stimuli/alien_stimuli/11.png,11,3,7,,,,,,,30,,,,,,,,430.42812879988924,430.42812879988924,430.42812879988924,430.42812879988924,430.42812879988924,down,1.4371902998536825,0,0,0,99,-0.08,0.24,down,1.3496565003879368,,,,,428.86900730011985,430.42812879988924,0.08,-0.16,0.4,0.0,0.039999999999999994,0.08,0.08,0.08,-0.16,426.63198539987206,426.63198539987206,426.63198539987206,426.63198539987206,426.63198539987206,426.63198539987206,426.63198539987206,426.63198539987206,426.63369982955044,2.337485400028527,return,2.2207124000415206,,,,,,,,,,,,,,,,,,,,,,,,,,,,,,,,,ZFHRNK,train_y,red_square,top_left,2025-04-24_15h06.38.596,HideSeek_v1,2022.2.5,59.943341485075756,
,1,9,1,5,0,-4,12,,train_dim1_1,6,30,,,,2,0,2,0,,,,,,,,,0,0,0,0,0,5,5,5,1,0,1,0,,,,,,,,,,,,,,,,,,,,,,,,,,,,,,,,,,,,,,,,,,,,,,,,,,,,,,,,,,,,,,,,30,,,,,,,,431.8719453001395,431.8719453001395,431.8719453001395,431.8719453001395,431.8719453001395,down,0.7434479999355972,0,0,0,99,-0.08,0.15999999999999998,down,0.6665922999382019,,,,,,,,,,,,,,,,,,,,,,,,,,,,,,,,,,,,,,,,,,,,,,,,,,,,,,,,,,,,ZFHRNK,train_y,red_square,top_left,2025-04-24_15h06.38.596,HideSeek_v1,2022.2.5,59.943341485075756,
,1,9,1,5,0,-4,12,,train_dim1_1,6,30,,,,2,0,2,0,,,,,,,,,0,0,0,0,0,5,5,5,2,0,2,0,,,,,,,,,,,,,,,,,,,,,,,,,,,,,,,,,,,,,,,,,,,,,,,,,,,,,,,,,,,,,,,,30,,,,,,,,432.62344340002164,432.62344340002164,432.62344340002164,432.62344340002164,432.62344340002164,down,0.3759461999870837,0,0,0,99,-0.08,0.07999999999999997,down,0.2951068002730608,,,,,,,,,,,,,,,,,,,,,,,,,,,,,,,,,,,,,,,,,,,,,,,,,,,,,,,,,,,,ZFHRNK,train_y,red_square,top_left,2025-04-24_15h06.38.596,HideSeek_v1,2022.2.5,59.943341485075756,
,1,9,1,5,0,-4,12,,train_dim1_1,6,30,,,,2,0,2,0,,,,,,,,,0,0,0,0,0,5,5,5,3,0,3,0,,,,,,,,,,,,,,,,,,,,,,,,,,,,,,,,,,,,,,,,,,,,,,,,,,,,,,,,,,,,,,,,30,,,,,,,,433.00647220015526,433.00647220015526,433.00647220015526,433.00647220015526,433.00647220015526,down,0.32669629994779825,0,0,0,99,-0.08,-2.7755575615628914e-17,down,0.23498409986495972,,,,,,,,,,,,,,,,,,,,,,,,,,,,,,,,,,,,,,,,,,,,,,,,,,,,,,,,,,,,ZFHRNK,train_y,red_square,top_left,2025-04-24_15h06.38.596,HideSeek_v1,2022.2.5,59.943341485075756,
,1,9,1,5,0,-4,12,,train_dim1_1,6,30,,,,2,0,2,0,,,,,,,,,0,0,0,0,0,5,5,5,4,0,4,0,,,,,,,,,,,,,,,,,,,,,,,,,,,,,,,,,,,,,,,,,,,,,,,,,,,,,,,,,,,,,,,,30,,,,,,,,433.3393764998764,433.3393764998764,433.3393764998764,433.3393764998764,433.3393764998764,down,0.3600937998853624,0,0,0,99,-0.08,-0.08000000000000003,down,0.2749428995884955,,,,,,,,,,,,,,,,,,,,,,,,,,,,,,,,,,,,,,,,,,,,,,,,,,,,,,,,,,,,ZFHRNK,train_y,red_square,top_left,2025-04-24_15h06.38.596,HideSeek_v1,2022.2.5,59.943341485075756,
,1,9,1,5,0,-4,12,,train_dim1_1,6,30,,,,2,0,2,0,,,,,,,,,0,0,0,0,0,5,5,5,5,0,5,0,,,,,,,,,,,,,,,,,,,,,,,,,,,,,,,,,,,,,,,,,,,,,,,,,,,,,,,,,,,,,,,,30,,,,,,,,433.7069485001266,433.7069485001266,433.7069485001266,433.7069485001266,433.7069485001266,right,0.6442116000689566,0,0,0,99,0.0,-0.08000000000000003,right,0.5625524995848536,,,,,,,,,,,,,,,,,,,,,,,,,,,,,,,,,,,,,,,,,,,,,,,,,,,,,,,,,,,,ZFHRNK,train_y,red_square,top_left,2025-04-24_15h06.38.596,HideSeek_v1,2022.2.5,59.943341485075756,
,1,9,1,5,0,-4,12,,train_dim1_1,6,30,,,,2,0,2,0,,,,,,,,,0,0,0,0,0,5,5,5,6,0,6,0,,,,,,,,,,,,,,,,,,,,,,,,,,,,,,,,,,,,,,,,,,,,,,,,,,,,,,,,,,,,,,,,30,,,,,,,,434.3607608000748,434.3607608000748,434.3607608000748,434.3607608000748,434.3607608000748,left,1.1079716999083757,0,0,0,99,-0.08,-0.08000000000000003,left,1.0189583003520966,,,,,,,,,,,,,,,,,,,,,,,,,,,,,,,,,,,,,,,,,,,,,,,,,,,,,,,,,,,,ZFHRNK,train_y,red_square,top_left,2025-04-24_15h06.38.596,HideSeek_v1,2022.2.5,59.943341485075756,
,1,9,1,5,0,-4,12,,train_dim1_1,6,30,,,,2,0,2,0,,,,,,,,,0,0,0,0,0,5,5,5,7,0,7,0,,,,,,,,,,,,,,,,,,,,,,,,,,,,,,,,,,,,,,,,,,,,,,,,,,,,,,,,,,,,,,,,30,,,,,,,,435.47464830009267,435.47464830009267,435.47464830009267,435.47464830009267,435.47464830009267,return,0.3768715001642704,0,1,0,0,-0.08,-0.08000000000000003,return,0.2896479000337422,-9,6,-0.08,-0.08000000000000003,,,,,,,,,,,,,,,,,,,,,,,,,,,,,,,,,,,,,,,,,,,,,,,,,,,,,,,,ZFHRNK,train_y,red_square,top_left,2025-04-24_15h06.38.596,HideSeek_v1,2022.2.5,59.943341485075756,
,1,8,1,5,0,-3,13,,train_dim1_1,7,30,,,,2,0,2,0,,,,,,,,,0,0,0,0,0,6,6,6,0,0,0,0,,,,,,,,,,,,,,,,,,,,,,,,,stimuli/alien_stimuli/13.png,,,,,,,,,,,,,,,,,,,,,,,,,,,,,stimuli/alien_stimuli/12.png,12,1,8,,,,,,,30,,,,,,,,447.2243190999143,447.2243190999143,447.2243190999143,447.2243190999143,447.2243190999143,down,1.7379010999575257,0,1,0,99,-0.08,0.15999999999999998,down,1.6620499999262393,,,,,445.6663921000436,447.2243190999143,-0.08,0,0.32,0.0,0.16,-0.08,-0.08,-0.08,0,437.43146969983354,437.43146969983354,437.43146969983354,437.43146969983354,437.43146969983354,437.43146969983354,437.43146969983354,437.43146969983354,437.4261136198416,8.359075100161135,return,8.210662399884313,,,,,,,,,,,,,,,,,,,,,,,,,,,,,,,,,ZFHRNK,train_y,red_square,top_left,2025-04-24_15h06.38.596,HideSeek_v1,2022.2.5,59.943341485075756,
,1,8,1,5,0,-3,13,,train_dim1_1,7,30,,,,2,0,2,0,,,,,,,,,0,0,0,0,0,6,6,6,1,0,1,0,,,,,,,,,,,,,,,,,,,,,,,,,,,,,,,,,,,,,,,,,,,,,,,,,,,,,,,,,,,,,,,,30,,,,,,,,448.9685551999137,448.9685551999137,448.9685551999137,448.9685551999137,448.9685551999137,down,0.6932863998226821,0,1,0,99,-0.08,0.07999999999999997,down,0.614296100102365,,,,,,,,,,,,,,,,,,,,,,,,,,,,,,,,,,,,,,,,,,,,,,,,,,,,,,,,,,,,ZFHRNK,train_y,red_square,top_left,2025-04-24_15h06.38.596,HideSeek_v1,2022.2.5,59.943341485075756,
,1,8,1,5,0,-3,13,,train_dim1_1,7,30,,,,2,0,2,0,,,,,,,,,0,0,0,0,0,6,6,6,2,0,2,0,,,,,,,,,,,,,,,,,,,,,,,,,,,,,,,,,,,,,,,,,,,,,,,,,,,,,,,,,,,,,,,,30,,,,,,,,449.6693103997968,449.6693103997968,449.6693103997968,449.6693103997968,449.6693103997968,down,0.6268937001004815,0,1,0,99,-0.08,-2.7755575615628914e-17,down,0.5401880997233093,,,,,,,,,,,,,,,,,,,,,,,,,,,,,,,,,,,,,,,,,,,,,,,,,,,,,,,,,,,,ZFHRNK,train_y,red_square,top_left,2025-04-24_15h06.38.596,HideSeek_v1,2022.2.5,59.943341485075756,
,1,8,1,5,0,-3,13,,train_dim1_1,7,30,,,,2,0,2,0,,,,,,,,,0,0,0,0,0,6,6,6,3,0,3,0,,,,,,,,,,,,,,,,,,,,,,,,,,,,,,,,,,,,,,,,,,,,,,,,,,,,,,,,,,,,,,,,30,,,,,,,,450.30307010002434,450.30307010002434,450.30307010002434,450.30307010002434,450.30307010002434,return,0.4599855998530984,1,0,0,1,-0.08,-2.7755575615628914e-17,return,0.3765978002920747,-12,6,-0.08,-2.7755575615628914e-17,,,,,,,,,,,,,,,,,,,,,,,,,,,,,,,,,,,,,,,,,,,,,,,,,,,,,,,,ZFHRNK,train_y,red_square,top_left,2025-04-24_15h06.38.596,HideSeek_v1,2022.2.5,59.943341485075756,
,4,7,4,2,0,-5,11,,train_dim1_1,8,30,,,,2,0,2,0,,,,,,,,,0,0,0,0,0,7,7,7,0,0,0,0,,,,,,,,,,,,,,,,,,,,,,,,,stimuli/alien_stimuli/11.png,,,,,,,,,,,,,,,,,,,,,,,,,,,,,stimuli/alien_stimuli/13.png,13,1,9,,,,,,,30,,,,,,,,458.58239459991455,458.58239459991455,458.58239459991455,458.58239459991455,458.58239459991455,down,0.9894929998554289,1,0,0,99,0.16,0.08,down,0.9001946002244949,,,,,457.02576969983056,458.58239459991455,-0.08,0,0.24,0.0,0.12,-0.08,-0.08,-0.08,0,452.340866799932,452.340866799932,452.340866799932,452.340866799932,452.340866799932,452.340866799932,452.340866799932,452.340866799932,452.3383554195985,4.8062863000668585,return,4.655340999830514,,,,,,,,,,,,,,,,,,,,,,,,,,,,,,,,,ZFHRNK,train_y,red_square,top_left,2025-04-24_15h06.38.596,HideSeek_v1,2022.2.5,59.943341485075756,
,4,7,4,2,0,-5,11,,train_dim1_1,8,30,,,,2,0,2,0,,,,,,,,,0,0,0,0,0,7,7,7,1,0,1,0,,,,,,,,,,,,,,,,,,,,,,,,,,,,,,,,,,,,,,,,,,,,,,,,,,,,,,,,,,,,,,,,30,,,,,,,,459.57866919972,459.57866919972,459.57866919972,459.57866919972,459.57866919972,down,0.5094392001628876,1,0,0,99,0.16,0.0,down,0.42412419989705086,,,,,,,,,,,,,,,,,,,,,,,,,,,,,,,,,,,,,,,,,,,,,,,,,,,,,,,,,,,,ZFHRNK,train_y,red_square,top_left,2025-04-24_15h06.38.596,HideSeek_v1,2022.2.5,59.943341485075756,
,4,7,4,2,0,-5,11,,train_dim1_1,8,30,,,,2,0,2,0,,,,,,,,,0,0,0,0,0,7,7,7,2,0,2,0,,,,,,,,,,,,,,,,,,,,,,,,,,,,,,,,,,,,,,,,,,,,,,,,,,,,,,,,,,,,,,,,30,,,,,,,,460.09603769984096,460.09603769984096,460.09603769984096,460.09603769984096,460.09603769984096,down,0.3769260998815298,1,0,0,99,0.16,-0.08,down,0.2877993998117745,,,,,,,,,,,,,,,,,,,,,,,,,,,,,,,,,,,,,,,,,,,,,,,,,,,,,,,,,,,,ZFHRNK,train_y,red_square,top_left,2025-04-24_15h06.38.596,HideSeek_v1,2022.2.5,59.943341485075756,
,4,7,4,2,0,-5,11,,train_dim1_1,8,30,,,,2,0,2,0,,,,,,,,,0,0,0,0,0,7,7,7,3,0,3,0,,,,,,,,,,,,,,,,,,,,,,,,,,,,,,,,,,,,,,,,,,,,,,,,,,,,,,,,,,,,,,,,30,,,,,,,,460.4788091001101,460.4788091001101,460.4788091001101,460.4788091001101,460.4788091001101,down,1.2770509999245405,1,0,0,99,0.16,-0.16,down,1.1934018000029027,,,,,,,,,,,,,,,,,,,,,,,,,,,,,,,,,,,,,,,,,,,,,,,,,,,,,,,,,,,,ZFHRNK,train_y,red_square,top_left,2025-04-24_15h06.38.596,HideSeek_v1,2022.2.5,59.943341485075756,
,4,7,4,2,0,-5,11,,train_dim1_1,8,30,,,,2,0,2,0,,,,,,,,,0,0,0,0,0,7,7,7,4,0,4,0,,,,,,,,,,,,,,,,,,,,,,,,,,,,,,,,,,,,,,,,,,,,,,,,,,,,,,,,,,,,,,,,30,,,,,,,,461.76464590011165,461.76464590011165,461.76464590011165,461.76464590011165,461.76464590011165,return,0.30998359993100166,1,1,0,0,0.16,-0.16,return,0.22443269984796643,-16,6,0.16,-0.16,,,,,,,,,,,,,,,,,,,,,,,,,,,,,,,,,,,,,,,,,,,,,,,,,,,,,,,,ZFHRNK,train_y,red_square,top_left,2025-04-24_15h06.38.596,HideSeek_v1,2022.2.5,59.943341485075756,
,4,8,4,7,0,-1,15,,train_dim1_1,9,30,,,,2,0,2,0,,,,,,,,,0,0,0,0,0,8,8,8,0,0,0,0,,,,,,,,,,,,,,,,,,,,,,,,,stimuli/alien_stimuli/15.png,,,,,,,,,,,,,,,,,,,,,,,,,,,,,stimuli/alien_stimuli/11.png,11,4,10,,,,,,,30,,,,,,,,468.2786097000353,468.2786097000353,468.2786097000353,468.2786097000353,468.2786097000353,down,0.9860423998907208,1,1,0,99,0.16,0.15999999999999998,down,0.9081856999546289,,,,,466.71727799996734,468.2786097000353,0.16,-0.24,0.4,0.0,-0.039999999999999994,0.16,0.16,0.16,-0.24,463.6507351999171,463.6507351999171,463.6507351999171,463.6507351999171,463.6507351999171,463.6507351999171,463.6507351999171,463.6507351999171,463.6478517194278,3.1884539001621306,return,3.0493603996001184,,,,,,,,,,,,,,,,,,,,,,,,,,,,,,,,,ZFHRNK,train_y,red_square,top_left,2025-04-24_15h06.38.596,HideSeek_v1,2022.2.5,59.943341485075756,
,4,8,4,7,0,-1,15,,train_dim1_1,9,30,,,,2,0,2,0,,,,,,,,,0,0,0,0,0,8,8,8,1,0,1,0,,,,,,,,,,,,,,,,,,,,,,,,,,,,,,,,,,,,,,,,,,,,,,,,,,,,,,,,,,,,,,,,30,,,,,,,,469.2700752001256,469.2700752001256,469.2700752001256,469.2700752001256,469.2700752001256,return,1.2770565999671817,2,0,0,1,0.16,0.15999999999999998,return,1.1896610003896058,-17,6,0.16,0.15999999999999998,,,,,,,,,,,,,,,,,,,,,,,,,,,,,,,,,,,,,,,,,,,,,,,,,,,,,,,,ZFHRNK,train_y,red_square,top_left,2025-04-24_15h06.38.596,HideSeek_v1,2022.2.5,59.943341485075756,
,2,7,2,7,0,0,16,,train_dim1_1,10,30,,,,2,0,2,0,,,,,,,,,0,0,0,0,0,9,9,9,0,0,0,0,,,,,,,,,,,,,,,,,,,,,,,,,stimuli/alien_stimuli/16.png,,,,,,,,,,,,,,,,,,,,,,,,,,,,,stimuli/alien_stimuli/15.png,15,4,11,,,,,,,30,,,,,,,,477.05318749975413,477.05318749975413,477.05318749975413,477.05318749975413,477.05318749975413,right,1.0513869002461433,2,0,0,99,0.08,0.16,right,0.9729690002277493,,,,,475.49124839995056,477.05318749975413,0.16,0.16,0.08,0.0,0.2,0.16,0.16,0.16,0.16,472.1022570999339,472.1022570999339,472.1022570999339,472.1022570999339,472.1022570999339,472.1022570999339,472.1022570999339,472.1022570999339,472.0883288395591,3.487995899748057,return,3.361625799909234,,,,,,,,,,,,,,,,,,,,,,,,,,,,,,,,,ZFHRNK,train_y,red_square,top_left,2025-04-24_15h06.38.596,HideSeek_v1,2022.2.5,59.943341485075756,
,2,7,2,7,0,0,16,,train_dim1_1,10,30,,,,2,0,2,0,,,,,,,,,0,0,0,0,0,9,9,9,1,0,1,0,,,,,,,,,,,,,,,,,,,,,,,,,,,,,,,,,,,,,,,,,,,,,,,,,,,,,,,,,,,,,,,,30,,,,,,,,478.1119166999124,478.1119166999124,478.1119166999124,478.1119166999124,478.1119166999124,left,0.9086364000104368,2,0,0,99,0.0,0.16,left,0.8209726000204682,,,,,,,,,,,,,,,,,,,,,,,,,,,,,,,,,,,,,,,,,,,,,,,,,,,,,,,,,,,,ZFHRNK,train_y,red_square,top_left,2025-04-24_15h06.38.596,HideSeek_v1,2022.2.5,59.943341485075756,
,2,7,2,7,0,0,16,,train_dim1_1,10,30,,,,2,0,2,0,,,,,,,,,0,0,0,0,0,9,9,9,2,0,2,0,,,,,,,,,,,,,,,,,,,,,,,,,,,,,,,,,,,,,,,,,,,,,,,,,,,,,,,,,,,,,,,,30,,,,,,,,479.02768919989467,479.02768919989467,479.02768919989467,479.02768919989467,479.02768919989467,return,0.4096510000526905,3,0,0,1,0.0,0.16,return,0.33289270009845495,-17,6,0.0,0.16,,,,,,,,,,,,,,,,,,,,,,,,,,,,,,,,,,,,,,,,,,,,,,,,,,,,,,,,ZFHRNK,train_y,red_square,top_left,2025-04-24_15h06.38.596,HideSeek_v1,2022.2.5,59.943341485075756,
,4,6,4,5,0,-1,15,,train_dim1_1,11,30,,,,2,0,2,0,,,,,,,,,0,0,0,0,0,10,10,10,0,0,0,0,,,,,,,,,,,,,,,,,,,,,,,,,stimuli/alien_stimuli/15.png,,,,,,,,,,,,,,,,,,,,,,,,,,,,,stimuli/alien_stimuli/16.png,16,2,12,,,,,,,30,,,,,,,,484.87334119994193,484.87334119994193,484.87334119994193,484.87334119994193,484.87334119994193,down,1.1199492001906037,3,0,0,99,0.16,0.0,down,1.0409443001262844,,,,,483.3140970999375,484.87334119994193,0,0.16,0.0,0.0,0.16,0,0.0,0,0.16,481.02231699973345,481.02231699973345,481.02231699973345,481.02231699973345,481.02231699973345,481.02231699973345,481.02231699973345,481.02231699973345,481.01355361975726,2.4186815000139177,return,2.2692860001698136,,,,,,,,,,,,,,,,,,,,,,,,,,,,,,,,,ZFHRNK,train_y,red_square,top_left,2025-04-24_15h06.38.596,HideSeek_v1,2022.2.5,59.943341485075756,
,4,6,4,5,0,-1,15,,train_dim1_1,11,30,,,,2,0,2,0,,,,,,,,,0,0,0,0,0,10,10,10,1,0,1,0,,,,,,,,,,,,,,,,,,,,,,,,,,,,,,,,,,,,,,,,,,,,,,,,,,,,,,,,,,,,,,,,30,,,,,,,,486.0004992997274,486.0004992997274,486.0004992997274,486.0004992997274,486.0004992997274,left,0.7600628999061882,3,0,0,99,0.08,0.0,left,0.67676360020414,,,,,,,,,,,,,,,,,,,,,,,,,,,,,,,,,,,,,,,,,,,,,,,,,,,,,,,,,,,,ZFHRNK,train_y,red_square,top_left,2025-04-24_15h06.38.596,HideSeek_v1,2022.2.5,59.943341485075756,
,4,6,4,5,0,-1,15,,train_dim1_1,11,30,,,,2,0,2,0,,,,,,,,,0,0,0,0,0,10,10,10,2,0,2,0,,,,,,,,,,,,,,,,,,,,,,,,,,,,,,,,,,,,,,,,,,,,,,,,,,,,,,,,,,,,,,,,30,,,,,,,,486.76947129983455,486.76947129983455,486.76947129983455,486.76947129983455,486.76947129983455,up,0.8930881000123918,3,0,0,99,0.08,0.08,up,0.8030202998779714,,,,,,,,,,,,,,,,,,,,,,,,,,,,,,,,,,,,,,,,,,,,,,,,,,,,,,,,,,,,ZFHRNK,train_y,red_square,top_left,2025-04-24_15h06.38.596,HideSeek_v1,2022.2.5,59.943341485075756,
,4,6,4,5,0,-1,15,,train_dim1_1,11,30,,,,2,0,2,0,,,,,,,,,0,0,0,0,0,10,10,10,3,0,3,0,,,,,,,,,,,,,,,,,,,,,,,,,,,,,,,,,,,,,,,,,,,,,,,,,,,,,,,,,,,,,,,,30,,,,,,,,487.6679748999886,487.6679748999886,487.6679748999886,487.6679748999886,487.6679748999886,down,0.6098593003116548,3,0,0,99,0.08,0.0,down,0.5275574000552297,,,,,,,,,,,,,,,,,,,,,,,,,,,,,,,,,,,,,,,,,,,,,,,,,,,,,,,,,,,,ZFHRNK,train_y,red_square,top_left,2025-04-24_15h06.38.596,HideSeek_v1,2022.2.5,59.943341485075756,
,4,6,4,5,0,-1,15,,train_dim1_1,11,30,,,,2,0,2,0,,,,,,,,,0,0,0,0,0,10,10,10,4,0,4,0,,,,,,,,,,,,,,,,,,,,,,,,,,,,,,,,,,,,,,,,,,,,,,,,,,,,,,,,,,,,,,,,30,,,,,,,,488.28560549998656,488.28560549998656,488.28560549998656,488.28560549998656,488.28560549998656,right,1.2772437003441155,3,0,0,99,0.16,0.0,right,1.1959844999946654,,,,,,,,,,,,,,,,,,,,,,,,,,,,,,,,,,,,,,,,,,,,,,,,,,,,,,,,,,,,ZFHRNK,train_y,red_square,top_left,2025-04-24_15h06.38.596,HideSeek_v1,2022.2.5,59.943341485075756,
,4,6,4,5,0,-1,15,,train_dim1_1,11,30,,,,2,0,2,0,,,,,,,,,0,0,0,0,0,10,10,10,5,0,5,0,,,,,,,,,,,,,,,,,,,,,,,,,,,,,,,,,,,,,,,,,,,,,,,,,,,,,,,,,,,,,,,,30,,,,,,,,489.56996509991586,489.56996509991586,489.56996509991586,489.56996509991586,489.56996509991586,return,0.3267714995890856,4,0,0,1,0.16,0.0,return,0.2393855000846088,-18,6,0.16,0.0,,,,,,,,,,,,,,,,,,,,,,,,,,,,,,,,,,,,,,,,,,,,,,,,,,,,,,,,ZFHRNK,train_y,red_square,top_left,2025-04-24_15h06.38.596,HideSeek_v1,2022.2.5,59.943341485075756,
,0,5,0,0,0,-5,11,,train_dim1_1,12,30,,,,2,0,2,0,,,,,,,,,0,0,0,0,0,11,11,11,0,0,0,0,,,,,,,,,,,,,,,,,,,,,,,,,stimuli/alien_stimuli/11.png,,,,,,,,,,,,,,,,,,,,,,,,,,,,,stimuli/alien_stimuli/15.png,15,4,13,,,,,,,30,,,,,,,,495.13000730006024,495.13000730006024,495.13000730006024,495.13000730006024,495.13000730006024,down,3.373493699822575,4,0,0,99,-0.16,-0.08,down,3.2875203997828066,,,,,493.5728520001285,495.13000730006024,0.16,0,0.08,0.0,0.04,0.16,0.16,0.16,0,491.4738890998997,491.4738890998997,491.4738890998997,491.4738890998997,491.4738890998997,491.4738890998997,491.4738890998997,491.4738890998997,491.4706850195303,2.220646800007671,return,2.0821255003102124,,,,,,,,,,,,,,,,,,,,,,,,,,,,,,,,,ZFHRNK,train_y,red_square,top_left,2025-04-24_15h06.38.596,HideSeek_v1,2022.2.5,59.943341485075756,
,0,5,0,0,0,-5,11,,train_dim1_1,12,30,,,,2,0,2,0,,,,,,,,,0,0,0,0,0,11,11,11,1,0,1,0,,,,,,,,,,,,,,,,,,,,,,,,,,,,,,,,,,,,,,,,,,,,,,,,,,,,,,,,,,,,,,,,30,,,,,,,,498.5098449997604,498.5098449997604,498.5098449997604,498.5098449997604,498.5098449997604,down,0.3932133000344038,4,0,0,99,-0.16,-0.16,down,0.31361169973388314,,,,,,,,,,,,,,,,,,,,,,,,,,,,,,,,,,,,,,,,,,,,,,,,,,,,,,,,,,,,ZFHRNK,train_y,red_square,top_left,2025-04-24_15h06.38.596,HideSeek_v1,2022.2.5,59.943341485075756,
,0,5,0,0,0,-5,11,,train_dim1_1,12,30,,,,2,0,2,0,,,,,,,,,0,0,0,0,0,11,11,11,2,0,2,0,,,,,,,,,,,,,,,,,,,,,,,,,,,,,,,,,,,,,,,,,,,,,,,,,,,,,,,,,,,,,,,,30,,,,,,,,498.9114780998789,498.9114780998789,498.9114780998789,498.9114780998789,498.9114780998789,down,0.7096650004386902,4,0,0,99,-0.16,-0.24,down,0.621151499915868,,,,,,,,,,,,,,,,,,,,,,,,,,,,,,,,,,,,,,,,,,,,,,,,,,,,,,,,,,,,ZFHRNK,train_y,red_square,top_left,2025-04-24_15h06.38.596,HideSeek_v1,2022.2.5,59.943341485075756,
,0,5,0,0,0,-5,11,,train_dim1_1,12,30,,,,2,0,2,0,,,,,,,,,0,0,0,0,0,11,11,11,3,0,3,0,,,,,,,,,,,,,,,,,,,,,,,,,,,,,,,,,,,,,,,,,,,,,,,,,,,,,,,,,,,,,,,,30,,,,,,,,499.6274601998739,499.6274601998739,499.6274601998739,499.6274601998739,499.6274601998739,return,0.6769649996422231,4,0,0,0,-0.16,-0.24,return,0.5863762996159494,-21,6,-0.16,-0.24,,,,,,,,,,,,,,,,,,,,,,,,,,,,,,,,,,,,,,,,,,,,,,,,,,,,,,,,ZFHRNK,train_y,red_square,top_left,2025-04-24_15h06.38.596,HideSeek_v1,2022.2.5,59.943341485075756,
,4,8,4,4,0,-4,12,,train_dim1_1,13,30,,,,2,0,2,0,,,,,,,,,0,0,0,0,0,12,12,12,0,0,0,0,,,,,,,,,,,,,,,,,,,,,,,,,stimuli/alien_stimuli/12.png,,,,,,,,,,,,,,,,,,,,,,,,,,,,,stimuli/alien_stimuli/11.png,11,0,14,,,,,,,30,,,,,,,,505.6767357997596,505.6767357997596,505.6767357997596,505.6767357997596,505.6767357997596,down,1.7019599000923336,4,0,0,99,0.16,0.15999999999999998,down,1.6220730999484658,,,,,504.1148616997525,505.6767357997596,-0.16,-0.4,0.4,0.0,-0.2,-0.16,-0.16,-0.16,-0.4,501.88191039999947,501.88191039999947,501.88191039999947,501.88191039999947,501.88191039999947,501.88191039999947,501.88191039999947,501.88191039999947,501.87999211987477,2.3535621003247797,return,2.2058717999607325,,,,,,,,,,,,,,,,,,,,,,,,,,,,,,,,,ZFHRNK,train_y,red_square,top_left,2025-04-24_15h06.38.596,HideSeek_v1,2022.2.5,59.943341485075756,
,4,8,4,4,0,-4,12,,train_dim1_1,13,30,,,,2,0,2,0,,,,,,,,,0,0,0,0,0,12,12,12,1,0,1,0,,,,,,,,,,,,,,,,,,,,,,,,,,,,,,,,,,,,,,,,,,,,,,,,,,,,,,,,,,,,,,,,30,,,,,,,,507.3851101999171,507.3851101999171,507.3851101999171,507.3851101999171,507.3851101999171,down,0.44282259978353977,4,0,0,99,0.16,0.07999999999999997,down,0.3582659997045994,,,,,,,,,,,,,,,,,,,,,,,,,,,,,,,,,,,,,,,,,,,,,,,,,,,,,,,,,,,,ZFHRNK,train_y,red_square,top_left,2025-04-24_15h06.38.596,HideSeek_v1,2022.2.5,59.943341485075756,
,4,8,4,4,0,-4,12,,train_dim1_1,13,30,,,,2,0,2,0,,,,,,,,,0,0,0,0,0,12,12,12,2,0,2,0,,,,,,,,,,,,,,,,,,,,,,,,,,,,,,,,,,,,,,,,,,,,,,,,,,,,,,,,,,,,,,,,30,,,,,,,,507.83516020001844,507.83516020001844,507.83516020001844,507.83516020001844,507.83516020001844,down,0.41056500002741814,4,0,0,99,0.16,-2.7755575615628914e-17,down,0.3264754000119865,,,,,,,,,,,,,,,,,,,,,,,,,,,,,,,,,,,,,,,,,,,,,,,,,,,,,,,,,,,,ZFHRNK,train_y,red_square,top_left,2025-04-24_15h06.38.596,HideSeek_v1,2022.2.5,59.943341485075756,
,4,8,4,4,0,-4,12,,train_dim1_1,13,30,,,,2,0,2,0,,,,,,,,,0,0,0,0,0,12,12,12,3,0,3,0,,,,,,,,,,,,,,,,,,,,,,,,,,,,,,,,,,,,,,,,,,,,,,,,,,,,,,,,,,,,,,,,30,,,,,,,,508.2547653997317,508.2547653997317,508.2547653997317,508.2547653997317,508.2547653997317,down,0.3586063999682665,4,0,0,99,0.16,-0.08000000000000003,down,0.275603000074625,,,,,,,,,,,,,,,,,,,,,,,,,,,,,,,,,,,,,,,,,,,,,,,,,,,,,,,,,,,,ZFHRNK,train_y,red_square,top_left,2025-04-24_15h06.38.596,HideSeek_v1,2022.2.5,59.943341485075756,
,4,8,4,4,0,-4,12,,train_dim1_1,13,30,,,,2,0,2,0,,,,,,,,,0,0,0,0,0,12,12,12,4,0,4,0,,,,,,,,,,,,,,,,,,,,,,,,,,,,,,,,,,,,,,,,,,,,,,,,,,,,,,,,,,,,,,,,30,,,,,,,,508.61899460013956,508.61899460013956,508.61899460013956,508.61899460013956,508.61899460013956,down,0.4270154000259936,4,0,0,99,0.16,-0.16000000000000003,down,0.34156710002571344,,,,,,,,,,,,,,,,,,,,,,,,,,,,,,,,,,,,,,,,,,,,,,,,,,,,,,,,,,,,ZFHRNK,train_y,red_square,top_left,2025-04-24_15h06.38.596,HideSeek_v1,2022.2.5,59.943341485075756,
,4,8,4,4,0,-4,12,,train_dim1_1,13,30,,,,2,0,2,0,,,,,,,,,0,0,0,0,0,12,12,12,5,0,5,0,,,,,,,,,,,,,,,,,,,,,,,,,,,,,,,,,,,,,,,,,,,,,,,,,,,,,,,,,,,,,,,,30,,,,,,,,509.0544511000626,509.0544511000626,509.0544511000626,509.0544511000626,509.0544511000626,return,0.4757364001125097,4,1,0,0,0.16,-0.16000000000000003,return,0.38532410003244877,-26,6,0.16,-0.16000000000000003,,,,,,,,,,,,,,,,,,,,,,,,,,,,,,,,,,,,,,,,,,,,,,,,,,,,,,,,ZFHRNK,train_y,red_square,top_left,2025-04-24_15h06.38.596,HideSeek_v1,2022.2.5,59.943341485075756,
,2,7,2,7,0,0,16,,train_dim1_1,14,30,,,,2,0,2,0,,,,,,,,,0,0,0,0,0,13,13,13,0,0,0,0,,,,,,,,,,,,,,,,,,,,,,,,,stimuli/alien_stimuli/16.png,,,,,,,,,,,,,,,,,,,,,,,,,,,,,stimuli/alien_stimuli/12.png,12,4,15,,,,,,,30,,,,,,,,515.2509467001073,515.2509467001073,515.2509467001073,515.2509467001073,515.2509467001073,down,1.4182811002247036,4,1,0,99,0,0.08,down,1.3361440999433398,,,,,513.689564500004,515.2509467001073,0.16,-0.08,0.32,0.0,0.07999999999999999,0.16,0.16,0.16,-0.08,511.10313769988716,511.10313769988716,511.10313769988716,511.10313769988716,511.10313769988716,511.10313769988716,511.10313769988716,511.10313769988716,511.10410211971026,2.703979399986565,return,2.5690644001588225,,,,,,,,,,,,,,,,,,,,,,,,,,,,,,,,,ZFHRNK,train_y,red_square,top_left,2025-04-24_15h06.38.596,HideSeek_v1,2022.2.5,59.943341485075756,
,2,7,2,7,0,0,16,,train_dim1_1,14,30,,,,2,0,2,0,,,,,,,,,0,0,0,0,0,13,13,13,1,0,1,0,,,,,,,,,,,,,,,,,,,,,,,,,,,,,,,,,,,,,,,,,,,,,,,,,,,,,,,,,,,,,,,,30,,,,,,,,516.6785345999524,516.6785345999524,516.6785345999524,516.6785345999524,516.6785345999524,down,0.89116430003196,4,1,0,99,0,0.0,down,0.8013193001970649,,,,,,,,,,,,,,,,,,,,,,,,,,,,,,,,,,,,,,,,,,,,,,,,,,,,,,,,,,,,ZFHRNK,train_y,red_square,top_left,2025-04-24_15h06.38.596,HideSeek_v1,2022.2.5,59.943341485075756,
,2,7,2,7,0,0,16,,train_dim1_1,14,30,,,,2,0,2,0,,,,,,,,,0,0,0,0,0,13,13,13,2,0,2,0,,,,,,,,,,,,,,,,,,,,,,,,,,,,,,,,,,,,,,,,,,,,,,,,,,,,,,,,,,,,,,,,30,,,,,,,,517.5761416000314,517.5761416000314,517.5761416000314,517.5761416000314,517.5761416000314,up,0.82707400014624,4,1,0,99,0,0.08,up,0.7371126003563404,,,,,,,,,,,,,,,,,,,,,,,,,,,,,,,,,,,,,,,,,,,,,,,,,,,,,,,,,,,,ZFHRNK,train_y,red_square,top_left,2025-04-24_15h06.38.596,HideSeek_v1,2022.2.5,59.943341485075756,
,2,7,2,7,0,0,16,,train_dim1_1,14,30,,,,2,0,2,0,,,,,,,,,0,0,0,0,0,13,13,13,3,0,3,0,,,,,,,,,,,,,,,,,,,,,,,,,,,,,,,,,,,,,,,,,,,,,,,,,,,,,,,,,,,,,,,,30,,,,,,,,518.4096836997196,518.4096836997196,518.4096836997196,518.4096836997196,518.4096836997196,up,0.31010419968515635,4,1,0,99,0,0.16,up,0.23041309975087643,,,,,,,,,,,,,,,,,,,,,,,,,,,,,,,,,,,,,,,,,,,,,,,,,,,,,,,,,,,,ZFHRNK,train_y,red_square,top_left,2025-04-24_15h06.38.596,HideSeek_v1,2022.2.5,59.943341485075756,
,2,7,2,7,0,0,16,,train_dim1_1,14,30,,,,2,0,2,0,,,,,,,,,0,0,0,0,0,13,13,13,4,0,4,0,,,,,,,,,,,,,,,,,,,,,,,,,,,,,,,,,,,,,,,,,,,,,,,,,,,,,,,,,,,,,,,,30,,,,,,,,518.7265872000717,518.7265872000717,518.7265872000717,518.7265872000717,518.7265872000717,return,0.8935912000015378,5,0,0,1,0,0.16,return,0.8110279003158212,-26,6,0,0.16,,,,,,,,,,,,,,,,,,,,,,,,,,,,,,,,,,,,,,,,,,,,,,,,,,,,,,,,ZFHRNK,train_y,red_square,top_left,2025-04-24_15h06.38.596,HideSeek_v1,2022.2.5,59.943341485075756,
,1,9,1,6,0,-3,13,,train_dim1_1,15,30,,,,2,0,2,0,,,,,,,,,0,0,0,0,0,14,14,14,0,0,0,0,,,,,,,,,,,,,,,,,,,,,,,,,stimuli/alien_stimuli/13.png,,,,,,,,,,,,,,,,,,,,,,,,,,,,,stimuli/alien_stimuli/16.png,16,2,16,,,,,,,30,,,,,,,,523.905027099885,523.905027099885,523.905027099885,523.905027099885,523.905027099885,down,1.2373333000577986,5,0,0,99,-0.08,0.24,down,1.1493807998485863,,,,,522.3467298001051,523.905027099885,0,0.16,0.0,0.0,0.16,0,0.0,0,0.16,521.1907864999957,521.1907864999957,521.1907864999957,521.1907864999957,521.1907864999957,521.1907864999957,521.1907864999957,521.1907864999957,521.1789280295839,1.269908900372684,return,1.124174999538809,,,,,,,,,,,,,,,,,,,,,,,,,,,,,,,,,ZFHRNK,train_y,red_square,top_left,2025-04-24_15h06.38.596,HideSeek_v1,2022.2.5,59.943341485075756,
,1,9,1,6,0,-3,13,,train_dim1_1,15,30,,,,2,0,2,0,,,,,,,,,0,0,0,0,0,14,14,14,1,0,1,0,,,,,,,,,,,,,,,,,,,,,,,,,,,,,,,,,,,,,,,,,,,,,,,,,,,,,,,,,,,,,,,,30,,,,,,,,525.1491286000237,525.1491286000237,525.1491286000237,525.1491286000237,525.1491286000237,down,0.3594124000519514,5,0,0,99,-0.08,0.15999999999999998,down,0.2765126000158489,,,,,,,,,,,,,,,,,,,,,,,,,,,,,,,,,,,,,,,,,,,,,,,,,,,,,,,,,,,,ZFHRNK,train_y,red_square,top_left,2025-04-24_15h06.38.596,HideSeek_v1,2022.2.5,59.943341485075756,
,1,9,1,6,0,-3,13,,train_dim1_1,15,30,,,,2,0,2,0,,,,,,,,,0,0,0,0,0,14,14,14,2,0,2,0,,,,,,,,,,,,,,,,,,,,,,,,,,,,,,,,,,,,,,,,,,,,,,,,,,,,,,,,,,,,,,,,30,,,,,,,,525.5160019998439,525.5160019998439,525.5160019998439,525.5160019998439,525.5160019998439,down,0.3102863999083638,5,0,0,99,-0.08,0.07999999999999997,down,0.22847859980538487,,,,,,,,,,,,,,,,,,,,,,,,,,,,,,,,,,,,,,,,,,,,,,,,,,,,,,,,,,,,ZFHRNK,train_y,red_square,top_left,2025-04-24_15h06.38.596,HideSeek_v1,2022.2.5,59.943341485075756,
,1,9,1,6,0,-3,13,,train_dim1_1,15,30,,,,2,0,2,0,,,,,,,,,0,0,0,0,0,14,14,14,3,0,3,0,,,,,,,,,,,,,,,,,,,,,,,,,,,,,,,,,,,,,,,,,,,,,,,,,,,,,,,,,,,,,,,,30,,,,,,,,525.8358509000391,525.8358509000391,525.8358509000391,525.8358509000391,525.8358509000391,down,0.34139390010386705,5,0,0,99,-0.08,-2.7755575615628914e-17,down,0.2514865999110043,,,,,,,,,,,,,,,,,,,,,,,,,,,,,,,,,,,,,,,,,,,,,,,,,,,,,,,,,,,,ZFHRNK,train_y,red_square,top_left,2025-04-24_15h06.38.596,HideSeek_v1,2022.2.5,59.943341485075756,
,1,9,1,6,0,-3,13,,train_dim1_1,15,30,,,,2,0,2,0,,,,,,,,,0,0,0,0,0,14,14,14,4,0,4,0,,,,,,,,,,,,,,,,,,,,,,,,,,,,,,,,,,,,,,,,,,,,,,,,,,,,,,,,,,,,,,,,30,,,,,,,,526.1826989999972,526.1826989999972,526.1826989999972,526.1826989999972,526.1826989999972,return,0.7436939999461174,5,1,0,0,-0.08,-2.7755575615628914e-17,return,0.6679422999732196,-30,6,-0.08,-2.7755575615628914e-17,,,,,,,,,,,,,,,,,,,,,,,,,,,,,,,,,,,,,,,,,,,,,,,,,,,,,,,,ZFHRNK,train_y,red_square,top_left,2025-04-24_15h06.38.596,HideSeek_v1,2022.2.5,59.943341485075756,
,4,5,4,4,0,-1,15,,train_dim1_1,16,30,,,,2,0,2,0,,,,,,,,,0,0,0,0,0,15,15,15,0,0,0,0,,,,,,,,,,,,,,,,,,,,,,,,,stimuli/alien_stimuli/15.png,,,,,,,,,,,,,,,,,,,,,,,,,,,,,stimuli/alien_stimuli/13.png,13,1,17,,,,,,,30,,,,,,,,531.6954354997724,531.6954354997724,531.6954354997724,531.6954354997724,531.6954354997724,up,1.5870867003686726,5,1,0,99,0.16,0.08,up,1.4948211996816099,,,,,530.1366123999469,531.6954354997724,-0.08,0.08,0.24,0.0,0.2,-0.08,-0.08,-0.08,0.08,528.4805358001031,528.4805358001031,528.4805358001031,528.4805358001031,528.4805358001031,528.4805358001031,528.4805358001031,528.4805358001031,528.4682600398548,1.7534960000775754,return,1.63285840023309,,,,,,,,,,,,,,,,,,,,,,,,,,,,,,,,,ZFHRNK,train_y,red_square,top_left,2025-04-24_15h06.38.596,HideSeek_v1,2022.2.5,59.943341485075756,
,4,5,4,4,0,-1,15,,train_dim1_1,16,30,,,,2,0,2,0,,,,,,,,,0,0,0,0,0,15,15,15,1,0,1,0,,,,,,,,,,,,,,,,,,,,,,,,,,,,,,,,,,,,,,,,,,,,,,,,,,,,,,,,,,,,,,,,30,,,,,,,,533.2934965998866,533.2934965998866,533.2934965998866,533.2934965998866,533.2934965998866,down,0.6920022000558674,5,1,0,99,0.16,0.0,down,0.6043275999836624,,,,,,,,,,,,,,,,,,,,,,,,,,,,,,,,,,,,,,,,,,,,,,,,,,,,,,,,,,,,ZFHRNK,train_y,red_square,top_left,2025-04-24_15h06.38.596,HideSeek_v1,2022.2.5,59.943341485075756,
,4,5,4,4,0,-1,15,,train_dim1_1,16,30,,,,2,0,2,0,,,,,,,,,0,0,0,0,0,15,15,15,2,0,2,0,,,,,,,,,,,,,,,,,,,,,,,,,,,,,,,,,,,,,,,,,,,,,,,,,,,,,,,,,,,,,,,,30,,,,,,,,533.9898391999304,533.9898391999304,533.9898391999304,533.9898391999304,533.9898391999304,down,0.44326019985601306,5,1,0,99,0.16,-0.08,down,0.35214840015396476,,,,,,,,,,,,,,,,,,,,,,,,,,,,,,,,,,,,,,,,,,,,,,,,,,,,,,,,,,,,ZFHRNK,train_y,red_square,top_left,2025-04-24_15h06.38.596,HideSeek_v1,2022.2.5,59.943341485075756,
,4,5,4,4,0,-1,15,,train_dim1_1,16,30,,,,2,0,2,0,,,,,,,,,0,0,0,0,0,15,15,15,3,0,3,0,,,,,,,,,,,,,,,,,,,,,,,,,,,,,,,,,,,,,,,,,,,,,,,,,,,,,,,,,,,,,,,,30,,,,,,,,534.4403256000951,534.4403256000951,534.4403256000951,534.4403256000951,534.4403256000951,return,0.5269293999299407,6,0,0,1,0.16,-0.08,return,0.43838619999587536,-31,6,0.16,-0.08,,,,,,,,,,,,,,,,,,,,,,,,,,,,,,,,,,,,,,,,,,,,,,,,,,,,,,,,ZFHRNK,train_y,red_square,top_left,2025-04-24_15h06.38.596,HideSeek_v1,2022.2.5,59.943341485075756,
,3,8,3,5,0,-3,13,,train_dim1_1,17,30,,,,2,0,2,0,,,,,,,,,0,0,0,0,0,16,16,16,0,0,0,0,,,,,,,,,,,,,,,,,,,,,,,,,stimuli/alien_stimuli/13.png,,,,,,,,,,,,,,,,,,,,,,,,,,,,,stimuli/alien_stimuli/15.png,15,4,18,,,,,,,30,,,,,,,,539.4175195000134,539.4175195000134,539.4175195000134,539.4175195000134,539.4175195000134,down,0.7036955999210477,6,0,0,99,0.08,0.15999999999999998,down,0.6200329996645451,,,,,537.8595441998914,539.4175195000134,0.16,-0.08,0.08,0.0,-0.04,0.16,0.16,0.16,-0.08,536.5254007000476,536.5254007000476,536.5254007000476,536.5254007000476,536.5254007000476,536.5254007000476,536.5254007000476,536.5254007000476,536.5249308295083,1.436519400216639,return,1.308911600150168,,,,,,,,,,,,,,,,,,,,,,,,,,,,,,,,,ZFHRNK,train_y,red_square,top_left,2025-04-24_15h06.38.596,HideSeek_v1,2022.2.5,59.943341485075756,
,3,8,3,5,0,-3,13,,train_dim1_1,17,30,,,,2,0,2,0,,,,,,,,,0,0,0,0,0,16,16,16,1,0,1,0,,,,,,,,,,,,,,,,,,,,,,,,,,,,,,,,,,,,,,,,,,,,,,,,,,,,,,,,,,,,,,,,30,,,,,,,,540.1282075000927,540.1282075000927,540.1282075000927,540.1282075000927,540.1282075000927,down,0.34273930033668876,6,0,0,99,0.08,0.07999999999999997,down,0.26462299982085824,,,,,,,,,,,,,,,,,,,,,,,,,,,,,,,,,,,,,,,,,,,,,,,,,,,,,,,,,,,,ZFHRNK,train_y,red_square,top_left,2025-04-24_15h06.38.596,HideSeek_v1,2022.2.5,59.943341485075756,
,3,8,3,5,0,-3,13,,train_dim1_1,17,30,,,,2,0,2,0,,,,,,,,,0,0,0,0,0,16,16,16,2,0,2,0,,,,,,,,,,,,,,,,,,,,,,,,,,,,,,,,,,,,,,,,,,,,,,,,,,,,,,,,,,,,,,,,30,,,,,,,,540.4780147001147,540.4780147001147,540.4780147001147,540.4780147001147,540.4780147001147,down,0.3267179001122713,6,0,0,99,0.08,-2.7755575615628914e-17,down,0.2501026000827551,,,,,,,,,,,,,,,,,,,,,,,,,,,,,,,,,,,,,,,,,,,,,,,,,,,,,,,,,,,,ZFHRNK,train_y,red_square,top_left,2025-04-24_15h06.38.596,HideSeek_v1,2022.2.5,59.943341485075756,
,3,8,3,5,0,-3,13,,train_dim1_1,17,30,,,,2,0,2,0,,,,,,,,,0,0,0,0,0,16,16,16,3,0,3,0,,,,,,,,,,,,,,,,,,,,,,,,,,,,,,,,,,,,,,,,,,,,,,,,,,,,,,,,,,,,,,,,30,,,,,,,,540.8108541001566,540.8108541001566,540.8108541001566,540.8108541001566,540.8108541001566,return,0.5601645996794105,7,0,0,1,0.08,-2.7755575615628914e-17,return,0.4754983000457287,-34,6,0.08,-2.7755575615628914e-17,,,,,,,,,,,,,,,,,,,,,,,,,,,,,,,,,,,,,,,,,,,,,,,,,,,,,,,,ZFHRNK,train_y,red_square,top_left,2025-04-24_15h06.38.596,HideSeek_v1,2022.2.5,59.943341485075756,
,2,6,2,1,0,-5,11,,train_dim1_1,18,30,,,,2,0,2,0,,,,,,,,,0,0,0,0,0,17,17,17,0,0,0,0,,,,,,,,,,,,,,,,,,,,,,,,,stimuli/alien_stimuli/11.png,,,,,,,,,,,,,,,,,,,,,,,,,,,,,stimuli/alien_stimuli/13.png,13,3,19,,,,,,,30,,,,,,,,545.7082791998982,545.7082791998982,545.7082791998982,545.7082791998982,545.7082791998982,return,1.4026844999752939,7,0,0,0,0,0.08,return,1.325721999630332,-34,6,0,0.08,544.14798410004,545.7082791998982,0.08,0,0.24,0.0,0.12,0.08,0.08,0.08,0,542.9270327999257,542.9270327999257,542.9270327999257,542.9270327999257,542.9270327999257,542.9270327999257,542.9270327999257,542.9270327999257,542.9136548398994,1.3198342001996934,return,1.2008418999612331,,,,,,,,,,,,,,,,,,,,,,,,,,,,,,,,,ZFHRNK,train_y,red_square,top_left,2025-04-24_15h06.38.596,HideSeek_v1,2022.2.5,59.943341485075756,
,0,9,0,5,0,-4,12,,train_dim1_1,19,30,,,,2,0,2,0,,,,,,,,,0,0,0,0,0,18,18,18,0,0,0,0,,,,,,,,,,,,,,,,,,,,,,,,,stimuli/alien_stimuli/12.png,,,,,,,,,,,,,,,,,,,,,,,,,,,,,stimuli/alien_stimuli/11.png,11,2,20,,,,,,,30,,,,,,,,553.6141572999768,553.6141572999768,553.6141572999768,553.6141572999768,553.6141572999768,down,0.9365946999751031,7,0,0,99,-0.16,0.24,down,0.8460348998196423,,,,,552.0547404997051,553.6141572999768,0,-0.32,0.4,0.0,-0.12,0,0.0,0,-0.32,548.6715995999984,548.6715995999984,548.6715995999984,548.6715995999984,548.6715995999984,548.6715995999984,548.6715995999984,548.6715995999984,548.668657229608,3.4877742999233305,return,3.3590694996528327,,,,,,,,,,,,,,,,,,,,,,,,,,,,,,,,,ZFHRNK,train_y,red_square,top_left,2025-04-24_15h06.38.596,HideSeek_v1,2022.2.5,59.943341485075756,
,0,9,0,5,0,-4,12,,train_dim1_1,19,30,,,,2,0,2,0,,,,,,,,,0,0,0,0,0,18,18,18,1,0,1,0,,,,,,,,,,,,,,,,,,,,,,,,,,,,,,,,,,,,,,,,,,,,,,,,,,,,,,,,,,,,,,,,30,,,,,,,,554.5607627998106,554.5607627998106,554.5607627998106,554.5607627998106,554.5607627998106,down,0.32358120009303093,7,0,0,99,-0.16,0.15999999999999998,down,0.2414278001524508,,,,,,,,,,,,,,,,,,,,,,,,,,,,,,,,,,,,,,,,,,,,,,,,,,,,,,,,,,,,ZFHRNK,train_y,red_square,top_left,2025-04-24_15h06.38.596,HideSeek_v1,2022.2.5,59.943341485075756,
,0,9,0,5,0,-4,12,,train_dim1_1,19,30,,,,2,0,2,0,,,,,,,,,0,0,0,0,0,18,18,18,2,0,2,0,,,,,,,,,,,,,,,,,,,,,,,,,,,,,,,,,,,,,,,,,,,,,,,,,,,,,,,,,,,,,,,,30,,,,,,,,554.8905038000084,554.8905038000084,554.8905038000084,554.8905038000084,554.8905038000084,down,0.310238900128752,7,0,0,99,-0.16,0.07999999999999997,down,0.22447909973561764,,,,,,,,,,,,,,,,,,,,,,,,,,,,,,,,,,,,,,,,,,,,,,,,,,,,,,,,,,,,ZFHRNK,train_y,red_square,top_left,2025-04-24_15h06.38.596,HideSeek_v1,2022.2.5,59.943341485075756,
,0,9,0,5,0,-4,12,,train_dim1_1,19,30,,,,2,0,2,0,,,,,,,,,0,0,0,0,0,18,18,18,3,0,3,0,,,,,,,,,,,,,,,,,,,,,,,,,,,,,,,,,,,,,,,,,,,,,,,,,,,,,,,,,,,,,,,,30,,,,,,,,555.2075374997221,555.2075374997221,555.2075374997221,555.2075374997221,555.2075374997221,down,0.27680489979684353,7,0,0,99,-0.16,-2.7755575615628914e-17,down,0.18893919978290796,,,,,,,,,,,,,,,,,,,,,,,,,,,,,,,,,,,,,,,,,,,,,,,,,,,,,,,,,,,,ZFHRNK,train_y,red_square,top_left,2025-04-24_15h06.38.596,HideSeek_v1,2022.2.5,59.943341485075756,
,0,9,0,5,0,-4,12,,train_dim1_1,19,30,,,,2,0,2,0,,,,,,,,,0,0,0,0,0,18,18,18,4,0,4,0,,,,,,,,,,,,,,,,,,,,,,,,,,,,,,,,,,,,,,,,,,,,,,,,,,,,,,,,,,,,,,,,30,,,,,,,,555.4908461999148,555.4908461999148,555.4908461999148,555.4908461999148,555.4908461999148,down,0.2762752999551594,7,0,0,99,-0.16,-0.08000000000000003,down,0.1903652003966272,,,,,,,,,,,,,,,,,,,,,,,,,,,,,,,,,,,,,,,,,,,,,,,,,,,,,,,,,,,,ZFHRNK,train_y,red_square,top_left,2025-04-24_15h06.38.596,HideSeek_v1,2022.2.5,59.943341485075756,
,0,9,0,5,0,-4,12,,train_dim1_1,19,30,,,,2,0,2,0,,,,,,,,,0,0,0,0,0,18,18,18,5,0,5,0,,,,,,,,,,,,,,,,,,,,,,,,,,,,,,,,,,,,,,,,,,,,,,,,,,,,,,,,,,,,,,,,30,,,,,,,,555.7744817999192,555.7744817999192,555.7744817999192,555.7744817999192,555.7744817999192,down,0.793979600071907,7,0,0,99,-0.16,-0.16000000000000003,down,0.7038985998369753,,,,,,,,,,,,,,,,,,,,,,,,,,,,,,,,,,,,,,,,,,,,,,,,,,,,,,,,,,,,ZFHRNK,train_y,red_square,top_left,2025-04-24_15h06.38.596,HideSeek_v1,2022.2.5,59.943341485075756,
,0,9,0,5,0,-4,12,,train_dim1_1,19,30,,,,2,0,2,0,,,,,,,,,0,0,0,0,0,18,18,18,6,0,6,0,,,,,,,,,,,,,,,,,,,,,,,,,,,,,,,,,,,,,,,,,,,,,,,,,,,,,,,,,,,,,,,,30,,,,,,,,556.5764345997013,556.5764345997013,556.5764345997013,556.5764345997013,556.5764345997013,return,0.359878099989146,7,0,0,0,-0.16,-0.16000000000000003,return,0.2679314003325999,-40,6,-0.16,-0.16000000000000003,,,,,,,,,,,,,,,,,,,,,,,,,,,,,,,,,,,,,,,,,,,,,,,,,,,,,,,,ZFHRNK,train_y,red_square,top_left,2025-04-24_15h06.38.596,HideSeek_v1,2022.2.5,59.943341485075756,
,2,5,2,5,0,0,16,,train_dim1_1,20,30,,,,2,0,2,0,,,,,,,,,0,0,0,0,0,19,19,19,0,0,0,0,,,,,,,,,,,,,,,,,,,,,,,,,stimuli/alien_stimuli/16.png,,,,,,,,,,,,,,,,,,,,,,,,,,,,,stimuli/alien_stimuli/12.png,12,0,21,,,,,,,30,,,,,,,,562.4716918999329,562.4716918999329,562.4716918999329,562.4716918999329,562.4716918999329,return,1.9535760004073381,8,0,0,1,0,0,return,1.8694871999323368,-40,6,0,0,560.912065600045,562.4716918999329,-0.16,0,0.32,0.0,0.16,-0.16,-0.16,-0.16,0,558.4947971999645,558.4947971999645,558.4947971999645,558.4947971999645,558.4947971999645,558.4947971999645,558.4947971999645,558.4947971999645,558.4934886296746,2.521100699901581,return,2.401594900060445,,,,,,,,,,,,,,,,,,,,,,,,,,,,,,,,,ZFHRNK,train_y,red_square,top_left,2025-04-24_15h06.38.596,HideSeek_v1,2022.2.5,59.943341485075756,
,2,9,2,8,0,-1,15,,train_dim1_1,21,30,,,,2,0,2,0,,,,,,,,,0,0,0,0,0,20,20,20,0,0,0,0,,,,,,,,,,,,,,,,,,,,,,,,,stimuli/alien_stimuli/15.png,,,,,,,,,,,,,,,,,,,,,,,,,,,,,stimuli/alien_stimuli/16.png,16,2,22,,,,,,,30,,,,,,,,568.8601437998004,568.8601437998004,568.8601437998004,568.8601437998004,568.8601437998004,down,0.8697095001116395,8,0,0,99,0,0.24,down,0.7778766001574695,,,,,567.3010088000447,568.8601437998004,0,0,0.0,0.0,0.0,0,0.0,0,0,565.9830164997838,565.9830164997838,565.9830164997838,565.9830164997838,565.9830164997838,565.9830164997838,565.9830164997838,565.9830164997838,565.983096129587,1.420175800099969,return,1.2863556002266705,,,,,,,,,,,,,,,,,,,,,,,,,,,,,,,,,ZFHRNK,train_y,red_square,top_left,2025-04-24_15h06.38.596,HideSeek_v1,2022.2.5,59.943341485075756,
,2,9,2,8,0,-1,15,,train_dim1_1,21,30,,,,2,0,2,0,,,,,,,,,0,0,0,0,0,20,20,20,1,0,1,0,,,,,,,,,,,,,,,,,,,,,,,,,,,,,,,,,,,,,,,,,,,,,,,,,,,,,,,,,,,,,,,,30,,,,,,,,569.7379569998011,569.7379569998011,569.7379569998011,569.7379569998011,569.7379569998011,return,0.42612669989466667,9,0,0,1,0,0.24,return,0.3443708000704646,-41,6,0,0.24,,,,,,,,,,,,,,,,,,,,,,,,,,,,,,,,,,,,,,,,,,,,,,,,,,,,,,,,ZFHRNK,train_y,red_square,top_left,2025-04-24_15h06.38.596,HideSeek_v1,2022.2.5,59.943341485075756,
,0,7,0,4,0,-3,13,,train_dim1_1,22,30,,,,2,0,2,0,,,,,,,,,0,0,0,0,0,21,21,21,0,0,0,0,,,,,,,,,,,,,,,,,,,,,,,,,stimuli/alien_stimuli/13.png,,,,,,,,,,,,,,,,,,,,,,,,,,,,,stimuli/alien_stimuli/15.png,15,2,23,,,,,,,30,,,,,,,,574.3941477001645,574.3941477001645,574.3941477001645,574.3941477001645,574.3941477001645,down,0.8227126998826861,9,0,0,99,-0.16,0.08,down,0.7419452001340687,,,,,572.838487799745,574.3941477001645,0,0.24,0.08,0.0,0.28,0,0.0,0,0.24,571.7194370999932,571.7194370999932,571.7194370999932,571.7194370999932,571.7194370999932,571.7194370999932,571.7194370999932,571.7194370999932,571.7210552295205,1.2199071999639273,return,1.102922699879855,,,,,,,,,,,,,,,,,,,,,,,,,,,,,,,,,ZFHRNK,train_y,red_square,top_left,2025-04-24_15h06.38.596,HideSeek_v1,2022.2.5,59.943341485075756,
,0,7,0,4,0,-3,13,,train_dim1_1,22,30,,,,2,0,2,0,,,,,,,,,0,0,0,0,0,21,21,21,1,0,1,0,,,,,,,,,,,,,,,,,,,,,,,,,,,,,,,,,,,,,,,,,,,,,,,,,,,,,,,,,,,,,,,,30,,,,,,,,575.223660999909,575.223660999909,575.223660999909,575.223660999909,575.223660999909,down,0.47655020002275705,9,0,0,99,-0.16,0.0,down,0.38614890025928617,,,,,,,,,,,,,,,,,,,,,,,,,,,,,,,,,,,,,,,,,,,,,,,,,,,,,,,,,,,,ZFHRNK,train_y,red_square,top_left,2025-04-24_15h06.38.596,HideSeek_v1,2022.2.5,59.943341485075756,
,0,7,0,4,0,-3,13,,train_dim1_1,22,30,,,,2,0,2,0,,,,,,,,,0,0,0,0,0,21,21,21,2,0,2,0,,,,,,,,,,,,,,,,,,,,,,,,,,,,,,,,,,,,,,,,,,,,,,,,,,,,,,,,,,,,,,,,30,,,,,,,,575.7078851000406,575.7078851000406,575.7078851000406,575.7078851000406,575.7078851000406,down,0.4095906000584364,9,0,0,99,-0.16,-0.08,down,0.3251315001398325,,,,,,,,,,,,,,,,,,,,,,,,,,,,,,,,,,,,,,,,,,,,,,,,,,,,,,,,,,,,ZFHRNK,train_y,red_square,top_left,2025-04-24_15h06.38.596,HideSeek_v1,2022.2.5,59.943341485075756,
,0,7,0,4,0,-3,13,,train_dim1_1,22,30,,,,2,0,2,0,,,,,,,,,0,0,0,0,0,21,21,21,3,0,3,0,,,,,,,,,,,,,,,,,,,,,,,,,,,,,,,,,,,,,,,,,,,,,,,,,,,,,,,,,,,,,,,,30,,,,,,,,576.1251364001073,576.1251364001073,576.1251364001073,576.1251364001073,576.1251364001073,return,0.6935033001936972,10,0,0,1,-0.16,-0.08,return,0.61680159997195,-44,6,-0.16,-0.08,,,,,,,,,,,,,,,,,,,,,,,,,,,,,,,,,,,,,,,,,,,,,,,,,,,,,,,,ZFHRNK,train_y,red_square,top_left,2025-04-24_15h06.38.596,HideSeek_v1,2022.2.5,59.943341485075756,
,0,8,0,3,0,-5,11,,train_dim1_1,23,30,,,,2,0,2,0,,,,,,,,,0,0,0,0,0,22,22,22,0,0,0,0,,,,,,,,,,,,,,,,,,,,,,,,,stimuli/alien_stimuli/11.png,,,,,,,,,,,,,,,,,,,,,,,,,,,,,stimuli/alien_stimuli/13.png,13,0,24,,,,,,,30,,,,,,,,581.1343923998065,581.1343923998065,581.1343923998065,581.1343923998065,581.1343923998065,down,0.8388383002020419,10,0,0,99,-0.16,0.15999999999999998,down,0.7583465999923646,,,,,579.5773197999224,581.1343923998065,-0.16,-0.08,0.24,0.0,0.04,-0.16,-0.16,-0.16,-0.08,578.3715216000564,578.3715216000564,578.3715216000564,578.3715216000564,578.3715216000564,578.3715216000564,578.3715216000564,578.3715216000564,578.3599949398078,1.3030729000456631,return,1.1746551003307104,,,,,,,,,,,,,,,,,,,,,,,,,,,,,,,,,ZFHRNK,train_y,red_square,top_left,2025-04-24_15h06.38.596,HideSeek_v1,2022.2.5,59.943341485075756,
,0,8,0,3,0,-5,11,,train_dim1_1,23,30,,,,2,0,2,0,,,,,,,,,0,0,0,0,0,22,22,22,1,0,1,0,,,,,,,,,,,,,,,,,,,,,,,,,,,,,,,,,,,,,,,,,,,,,,,,,,,,,,,,,,,,,,,,30,,,,,,,,581.9811275000684,581.9811275000684,581.9811275000684,581.9811275000684,581.9811275000684,down,0.37642600014805794,10,0,0,99,-0.16,0.07999999999999997,down,0.28803010005503893,,,,,,,,,,,,,,,,,,,,,,,,,,,,,,,,,,,,,,,,,,,,,,,,,,,,,,,,,,,,ZFHRNK,train_y,red_square,top_left,2025-04-24_15h06.38.596,HideSeek_v1,2022.2.5,59.943341485075756,
,0,8,0,3,0,-5,11,,train_dim1_1,23,30,,,,2,0,2,0,,,,,,,,,0,0,0,0,0,22,22,22,2,0,2,0,,,,,,,,,,,,,,,,,,,,,,,,,,,,,,,,,,,,,,,,,,,,,,,,,,,,,,,,,,,,,,,,30,,,,,,,,582.366448499728,582.366448499728,582.366448499728,582.366448499728,582.366448499728,down,0.3078919998370111,10,0,0,99,-0.16,-2.7755575615628914e-17,down,0.22551049990579486,,,,,,,,,,,,,,,,,,,,,,,,,,,,,,,,,,,,,,,,,,,,,,,,,,,,,,,,,,,,ZFHRNK,train_y,red_square,top_left,2025-04-24_15h06.38.596,HideSeek_v1,2022.2.5,59.943341485075756,
,0,8,0,3,0,-5,11,,train_dim1_1,23,30,,,,2,0,2,0,,,,,,,,,0,0,0,0,0,22,22,22,3,0,3,0,,,,,,,,,,,,,,,,,,,,,,,,,,,,,,,,,,,,,,,,,,,,,,,,,,,,,,,,,,,,,,,,30,,,,,,,,582.6801173998974,582.6801173998974,582.6801173998974,582.6801173998974,582.6801173998974,down,0.3265049001201987,10,0,0,99,-0.16,-0.08000000000000003,down,0.23881189990788698,,,,,,,,,,,,,,,,,,,,,,,,,,,,,,,,,,,,,,,,,,,,,,,,,,,,,,,,,,,,ZFHRNK,train_y,red_square,top_left,2025-04-24_15h06.38.596,HideSeek_v1,2022.2.5,59.943341485075756,
,0,8,0,3,0,-5,11,,train_dim1_1,23,30,,,,2,0,2,0,,,,,,,,,0,0,0,0,0,22,22,22,4,0,4,0,,,,,,,,,,,,,,,,,,,,,,,,,,,,,,,,,,,,,,,,,,,,,,,,,,,,,,,,,,,,,,,,30,,,,,,,,583.0136325000785,583.0136325000785,583.0136325000785,583.0136325000785,583.0136325000785,return,0.3602661001496017,10,1,0,0,-0.16,-0.08000000000000003,return,0.2847365001216531,-48,6,-0.16,-0.08000000000000003,,,,,,,,,,,,,,,,,,,,,,,,,,,,,,,,,,,,,,,,,,,,,,,,,,,,,,,,ZFHRNK,train_y,red_square,top_left,2025-04-24_15h06.38.596,HideSeek_v1,2022.2.5,59.943341485075756,
,3,7,3,7,0,0,16,,train_dim1_1,24,30,,,,2,0,2,0,,,,,,,,,0,0,0,0,0,23,23,23,0,0,0,0,,,,,,,,,,,,,,,,,,,,,,,,,stimuli/alien_stimuli/16.png,,,,,,,,,,,,,,,,,,,,,,,,,,,,,stimuli/alien_stimuli/11.png,11,0,25,,,,,,,30,,,,,,,,588.4078174000606,588.4078174000606,588.4078174000606,588.4078174000606,588.4078174000606,down,0.837841700296849,10,1,0,99,0.08,0.08,down,0.7538131000474095,,,,,586.8500842000358,588.4078174000606,-0.16,-0.16,0.4,0.0,0.039999999999999994,-0.16,-0.16,-0.16,-0.16,584.930327499751,584.930327499751,584.930327499751,584.930327499751,584.930327499751,584.930327499751,584.930327499751,584.930327499751,584.9318390296307,2.0204992997460067,return,1.8965509999543428,,,,,,,,,,,,,,,,,,,,,,,,,,,,,,,,,ZFHRNK,train_y,red_square,top_left,2025-04-24_15h06.38.596,HideSeek_v1,2022.2.5,59.943341485075756,
,3,7,3,7,0,0,16,,train_dim1_1,24,30,,,,2,0,2,0,,,,,,,,,0,0,0,0,0,23,23,23,1,0,1,0,,,,,,,,,,,,,,,,,,,,,,,,,,,,,,,,,,,,,,,,,,,,,,,,,,,,,,,,,,,,,,,,30,,,,,,,,589.2532587000169,589.2532587000169,589.2532587000169,589.2532587000169,589.2532587000169,return,0.8929636999964714,10,1,0,0,0.08,0.08,return,0.8162585999816656,-49,6,0.08,0.08,,,,,,,,,,,,,,,,,,,,,,,,,,,,,,,,,,,,,,,,,,,,,,,,,,,,,,,,ZFHRNK,train_y,red_square,top_left,2025-04-24_15h06.38.596,HideSeek_v1,2022.2.5,59.943341485075756,
,3,8,3,4,0,-4,12,,train_dim1_1,25,30,,,,2,0,2,0,,,,,,,,,0,0,0,0,0,24,24,24,0,0,0,0,,,,,,,,,,,,,,,,,,,,,,,,,stimuli/alien_stimuli/12.png,,,,,,,,,,,,,,,,,,,,,,,,,,,,,stimuli/alien_stimuli/16.png,16,3,26,,,,,,,30,,,,,,,,594.5842432999052,594.5842432999052,594.5842432999052,594.5842432999052,594.5842432999052,down,1.0680919997394085,10,1,0,99,0.08,0.15999999999999998,down,0.9760179999284446,,,,,593.0218056999147,594.5842432999052,0.08,0.16,0.0,0.0,0.16,0.08,0.08,0.08,0.16,591.7055500000715,591.7055500000715,591.7055500000715,591.7055500000715,591.7055500000715,591.7055500000715,591.7055500000715,591.7055500000715,591.704519329453,1.4195040999911726,return,1.2866964000277221,,,,,,,,,,,,,,,,,,,,,,,,,,,,,,,,,ZFHRNK,train_y,red_square,top_left,2025-04-24_15h06.38.596,HideSeek_v1,2022.2.5,59.943341485075756,
,3,8,3,4,0,-4,12,,train_dim1_1,25,30,,,,2,0,2,0,,,,,,,,,0,0,0,0,0,24,24,24,1,0,1,0,,,,,,,,,,,,,,,,,,,,,,,,,,,,,,,,,,,,,,,,,,,,,,,,,,,,,,,,,,,,,,,,30,,,,,,,,595.659012499731,595.659012499731,595.659012499731,595.659012499731,595.659012499731,down,0.4426949000917375,10,1,0,99,0.08,0.07999999999999997,down,0.353808700107038,,,,,,,,,,,,,,,,,,,,,,,,,,,,,,,,,,,,,,,,,,,,,,,,,,,,,,,,,,,,ZFHRNK,train_y,red_square,top_left,2025-04-24_15h06.38.596,HideSeek_v1,2022.2.5,59.943341485075756,
,3,8,3,4,0,-4,12,,train_dim1_1,25,30,,,,2,0,2,0,,,,,,,,,0,0,0,0,0,24,24,24,2,0,2,0,,,,,,,,,,,,,,,,,,,,,,,,,,,,,,,,,,,,,,,,,,,,,,,,,,,,,,,,,,,,,,,,30,,,,,,,,596.1091339001432,596.1091339001432,596.1091339001432,596.1091339001432,596.1091339001432,down,0.42681360011920333,10,1,0,99,0.08,-2.7755575615628914e-17,down,0.3403441999107599,,,,,,,,,,,,,,,,,,,,,,,,,,,,,,,,,,,,,,,,,,,,,,,,,,,,,,,,,,,,ZFHRNK,train_y,red_square,top_left,2025-04-24_15h06.38.596,HideSeek_v1,2022.2.5,59.943341485075756,
,3,8,3,4,0,-4,12,,train_dim1_1,25,30,,,,2,0,2,0,,,,,,,,,0,0,0,0,0,24,24,24,3,0,3,0,,,,,,,,,,,,,,,,,,,,,,,,,,,,,,,,,,,,,,,,,,,,,,,,,,,,,,,,,,,,,,,,30,,,,,,,,596.5413798000664,596.5413798000664,596.5413798000664,596.5413798000664,596.5413798000664,down,0.22664309991523623,10,1,0,99,0.08,-0.08000000000000003,down,0.1351971998810768,,,,,,,,,,,,,,,,,,,,,,,,,,,,,,,,,,,,,,,,,,,,,,,,,,,,,,,,,,,,ZFHRNK,train_y,red_square,top_left,2025-04-24_15h06.38.596,HideSeek_v1,2022.2.5,59.943341485075756,
,3,8,3,4,0,-4,12,,train_dim1_1,25,30,,,,2,0,2,0,,,,,,,,,0,0,0,0,0,24,24,24,4,0,4,0,,,,,,,,,,,,,,,,,,,,,,,,,,,,,,,,,,,,,,,,,,,,,,,,,,,,,,,,,,,,,,,,30,,,,,,,,596.7770863999613,596.7770863999613,596.7770863999613,596.7770863999613,596.7770863999613,up,0.7931987997144461,10,1,0,99,0.08,-2.7755575615628914e-17,up,0.7003254001028836,,,,,,,,,,,,,,,,,,,,,,,,,,,,,,,,,,,,,,,,,,,,,,,,,,,,,,,,,,,,ZFHRNK,train_y,red_square,top_left,2025-04-24_15h06.38.596,HideSeek_v1,2022.2.5,59.943341485075756,
,3,8,3,4,0,-4,12,,train_dim1_1,25,30,,,,2,0,2,0,,,,,,,,,0,0,0,0,0,24,24,24,5,0,5,0,,,,,,,,,,,,,,,,,,,,,,,,,,,,,,,,,,,,,,,,,,,,,,,,,,,,,,,,,,,,,,,,30,,,,,,,,597.5765505000018,597.5765505000018,597.5765505000018,597.5765505000018,597.5765505000018,return,0.5436809998936951,10,1,0,0,0.08,-2.7755575615628914e-17,return,0.45638340013101697,-52,6,0.08,-2.7755575615628914e-17,,,,,,,,,,,,,,,,,,,,,,,,,,,,,,,,,,,,,,,,,,,,,,,,,,,,,,,,ZFHRNK,train_y,red_square,top_left,2025-04-24_15h06.38.596,HideSeek_v1,2022.2.5,59.943341485075756,
,4,9,4,6,0,-3,13,,train_dim1_1,26,30,,,,2,0,2,0,,,,,,,,,0,0,0,0,0,25,25,25,0,0,0,0,,,,,,,,,,,,,,,,,,,,,,,,,stimuli/alien_stimuli/13.png,,,,,,,,,,,,,,,,,,,,,,,,,,,,,stimuli/alien_stimuli/12.png,12,3,27,,,,,,,30,,,,,,,,602.9022217998281,602.9022217998281,602.9022217998281,602.9022217998281,602.9022217998281,down,1.088261999655515,10,1,0,99,0.16,0.24,down,1.0045249997638166,,,,,601.3464494999498,602.9022217998281,0.08,-0.08,0.32,0.0,0.07999999999999999,0.08,0.08,0.08,-0.08,599.6783557999879,599.6783557999879,599.6783557999879,599.6783557999879,599.6783557999879,599.6783557999879,599.6783557999879,599.6783557999879,599.6778561294545,1.7706321999430656,return,1.6409932998940349,,,,,,,,,,,,,,,,,,,,,,,,,,,,,,,,,ZFHRNK,train_y,red_square,top_left,2025-04-24_15h06.38.596,HideSeek_v1,2022.2.5,59.943341485075756,
,4,9,4,6,0,-3,13,,train_dim1_1,26,30,,,,2,0,2,0,,,,,,,,,0,0,0,0,0,25,25,25,1,0,1,0,,,,,,,,,,,,,,,,,,,,,,,,,,,,,,,,,,,,,,,,,,,,,,,,,,,,,,,,,,,,,,,,30,,,,,,,,603.9976071999408,603.9976071999408,603.9976071999408,603.9976071999408,603.9976071999408,down,0.3597037000581622,10,1,0,99,0.16,0.15999999999999998,down,0.2746518002822995,,,,,,,,,,,,,,,,,,,,,,,,,,,,,,,,,,,,,,,,,,,,,,,,,,,,,,,,,,,,ZFHRNK,train_y,red_square,top_left,2025-04-24_15h06.38.596,HideSeek_v1,2022.2.5,59.943341485075756,
,4,9,4,6,0,-3,13,,train_dim1_1,26,30,,,,2,0,2,0,,,,,,,,,0,0,0,0,0,25,25,25,2,0,2,0,,,,,,,,,,,,,,,,,,,,,,,,,,,,,,,,,,,,,,,,,,,,,,,,,,,,,,,,,,,,,,,,30,,,,,,,,604.3693697997369,604.3693697997369,604.3693697997369,604.3693697997369,604.3693697997369,down,0.39022970013320446,10,1,0,99,0.16,0.07999999999999997,down,0.31329299975186586,,,,,,,,,,,,,,,,,,,,,,,,,,,,,,,,,,,,,,,,,,,,,,,,,,,,,,,,,,,,ZFHRNK,train_y,red_square,top_left,2025-04-24_15h06.38.596,HideSeek_v1,2022.2.5,59.943341485075756,
,4,9,4,6,0,-3,13,,train_dim1_1,26,30,,,,2,0,2,0,,,,,,,,,0,0,0,0,0,25,25,25,3,0,3,0,,,,,,,,,,,,,,,,,,,,,,,,,,,,,,,,,,,,,,,,,,,,,,,,,,,,,,,,,,,,,,,,30,,,,,,,,604.7649797997437,604.7649797997437,604.7649797997437,604.7649797997437,604.7649797997437,down,0.4103576997295022,10,1,0,99,0.16,-2.7755575615628914e-17,down,0.32631219970062375,,,,,,,,,,,,,,,,,,,,,,,,,,,,,,,,,,,,,,,,,,,,,,,,,,,,,,,,,,,,ZFHRNK,train_y,red_square,top_left,2025-04-24_15h06.38.596,HideSeek_v1,2022.2.5,59.943341485075756,
,4,9,4,6,0,-3,13,,train_dim1_1,26,30,,,,2,0,2,0,,,,,,,,,0,0,0,0,0,25,25,25,4,0,4,0,,,,,,,,,,,,,,,,,,,,,,,,,,,,,,,,,,,,,,,,,,,,,,,,,,,,,,,,,,,,,,,,30,,,,,,,,605.1816543997265,605.1816543997265,605.1816543997265,605.1816543997265,605.1816543997265,down,0.5435740002430975,10,1,0,99,0.16,-0.08000000000000003,down,0.46590149961411953,,,,,,,,,,,,,,,,,,,,,,,,,,,,,,,,,,,,,,,,,,,,,,,,,,,,,,,,,,,,ZFHRNK,train_y,red_square,top_left,2025-04-24_15h06.38.596,HideSeek_v1,2022.2.5,59.943341485075756,
,4,9,4,6,0,-3,13,,train_dim1_1,26,30,,,,2,0,2,0,,,,,,,,,0,0,0,0,0,25,25,25,5,0,5,0,,,,,,,,,,,,,,,,,,,,,,,,,,,,,,,,,,,,,,,,,,,,,,,,,,,,,,,,,,,,,,,,30,,,,,,,,605.7318208999932,605.7318208999932,605.7318208999932,605.7318208999932,605.7318208999932,return,0.9605161002837121,10,0,0,0,0.16,-0.08000000000000003,return,0.8797694002278149,-57,6,0.16,-0.08000000000000003,,,,,,,,,,,,,,,,,,,,,,,,,,,,,,,,,,,,,,,,,,,,,,,,,,,,,,,,ZFHRNK,train_y,red_square,top_left,2025-04-24_15h06.38.596,HideSeek_v1,2022.2.5,59.943341485075756,
,3,9,3,9,0,0,16,,train_dim1_1,27,30,,,,2,0,2,0,,,,,,,,,0,0,0,0,0,26,26,26,0,0,0,0,,,,,,,,,,,,,,,,,,,,,,,,,stimuli/alien_stimuli/16.png,,,,,,,,,,,,,,,,,,,,,,,,,,,,,stimuli/alien_stimuli/13.png,13,4,28,,,,,,,30,,,,,,,,611.0096729998477,611.0096729998477,611.0096729998477,611.0096729998477,611.0096729998477,return,1.1379229999147356,11,0,0,1,0.08,0.32,return,1.0514101004227996,-57,6,0.08,0.32,609.4524805000983,611.0096729998477,0.16,0.08,0.24,0.0,0.2,0.16,0.16,0.16,0.08,608.2504345998168,608.2504345998168,608.2504345998168,608.2504345998168,608.2504345998168,608.2504345998168,608.2504345998168,608.2504345998168,608.251719929604,1.3028655000962317,return,1.179191800300032,,,,,,,,,,,,,,,,,,,,,,,,,,,,,,,,,ZFHRNK,train_y,red_square,top_left,2025-04-24_15h06.38.596,HideSeek_v1,2022.2.5,59.943341485075756,
,4,6,4,1,0,-5,11,,train_dim1_1,28,30,,,,2,0,2,0,,,,,,,,,0,0,0,0,0,27,27,27,0,0,0,0,,,,,,,,,,,,,,,,,,,,,,,,,stimuli/alien_stimuli/11.png,,,,,,,,,,,,,,,,,,,,,,,,,,,,,stimuli/alien_stimuli/16.png,16,3,29,,,,,,,30,,,,,,,,616.5508328001015,616.5508328001015,616.5508328001015,616.5508328001015,616.5508328001015,down,0.7685778001323342,11,0,0,99,0.16,0.0,down,0.6917555998079479,,,,,614.990124499891,616.5508328001015,0.08,0.32,0.0,0.0,0.32,0.08,0.08,0.08,0.32,613.7038552998565,613.7038552998565,613.7038552998565,613.7038552998565,613.7038552998565,613.7038552998565,613.7038552998565,613.7038552998565,613.6893540395424,1.3863947000354528,return,1.2545054000802338,,,,,,,,,,,,,,,,,,,,,,,,,,,,,,,,,ZFHRNK,train_y,red_square,top_left,2025-04-24_15h06.38.596,HideSeek_v1,2022.2.5,59.943341485075756,
,4,6,4,1,0,-5,11,,train_dim1_1,28,30,,,,2,0,2,0,,,,,,,,,0,0,0,0,0,27,27,27,1,0,1,0,,,,,,,,,,,,,,,,,,,,,,,,,,,,,,,,,,,,,,,,,,,,,,,,,,,,,,,,,,,,,,,,30,,,,,,,,617.3260955000296,617.3260955000296,617.3260955000296,617.3260955000296,617.3260955000296,down,0.4429998002015054,11,0,0,99,0.16,-0.08,down,0.36430930020287633,,,,,,,,,,,,,,,,,,,,,,,,,,,,,,,,,,,,,,,,,,,,,,,,,,,,,,,,,,,,ZFHRNK,train_y,red_square,top_left,2025-04-24_15h06.38.596,HideSeek_v1,2022.2.5,59.943341485075756,
,4,6,4,1,0,-5,11,,train_dim1_1,28,30,,,,2,0,2,0,,,,,,,,,0,0,0,0,0,27,27,27,2,0,2,0,,,,,,,,,,,,,,,,,,,,,,,,,,,,,,,,,,,,,,,,,,,,,,,,,,,,,,,,,,,,,,,,30,,,,,,,,617.7763637001626,617.7763637001626,617.7763637001626,617.7763637001626,617.7763637001626,down,0.8772940998896956,11,0,0,99,0.16,-0.16,down,0.7851354000158608,,,,,,,,,,,,,,,,,,,,,,,,,,,,,,,,,,,,,,,,,,,,,,,,,,,,,,,,,,,,ZFHRNK,train_y,red_square,top_left,2025-04-24_15h06.38.596,HideSeek_v1,2022.2.5,59.943341485075756,
,4,6,4,1,0,-5,11,,train_dim1_1,28,30,,,,2,0,2,0,,,,,,,,,0,0,0,0,0,27,27,27,3,0,3,0,,,,,,,,,,,,,,,,,,,,,,,,,,,,,,,,,,,,,,,,,,,,,,,,,,,,,,,,,,,,,,,,30,,,,,,,,618.659741200041,618.659741200041,618.659741200041,618.659741200041,618.659741200041,down,3.0124376001767814,11,0,0,99,0.16,-0.24,down,2.9229872999712825,,,,,,,,,,,,,,,,,,,,,,,,,,,,,,,,,,,,,,,,,,,,,,,,,,,,,,,,,,,,ZFHRNK,train_y,red_square,top_left,2025-04-24_15h06.38.596,HideSeek_v1,2022.2.5,59.943341485075756,
,4,6,4,1,0,-5,11,,train_dim1_1,28,30,,,,2,0,2,0,,,,,,,,,0,0,0,0,0,27,27,27,4,0,4,0,,,,,,,,,,,,,,,,,,,,,,,,,,,,,,,,,,,,,,,,,,,,,,,,,,,,,,,,,,,,,,,,30,,,,,,,,621.6830727998167,621.6830727998167,621.6830727998167,621.6830727998167,621.6830727998167,return,0.27487820014357567,11,1,0,0,0.16,-0.24,return,0.18771790014579892,-61,6,0.16,-0.24,,,,,,,,,,,,,,,,,,,,,,,,,,,,,,,,,,,,,,,,,,,,,,,,,,,,,,,,ZFHRNK,train_y,red_square,top_left,2025-04-24_15h06.38.596,HideSeek_v1,2022.2.5,59.943341485075756,
,2,7,2,3,0,-4,12,,train_dim1_1,29,30,,,,2,0,2,0,,,,,,,,,0,0,0,0,0,28,28,28,0,0,0,0,,,,,,,,,,,,,,,,,,,,,,,,,stimuli/alien_stimuli/12.png,,,,,,,,,,,,,,,,,,,,,,,,,,,,,stimuli/alien_stimuli/11.png,11,4,30,,,,,,,30,,,,,,,,626.5038720001467,626.5038720001467,626.5038720001467,626.5038720001467,626.5038720001467,down,1.2739210999570787,11,1,0,99,0,0.08,down,1.185163600370288,,,,,624.9484345000237,626.5038720001467,0.16,-0.32,0.4,0.0,-0.12,0.16,0.16,0.16,-0.32,623.5124560999684,623.5124560999684,623.5124560999684,623.5124560999684,623.5124560999684,623.5124560999684,623.5124560999684,623.5124560999684,623.5138155295049,1.5370197999291122,return,1.4196256999857724,,,,,,,,,,,,,,,,,,,,,,,,,,,,,,,,,ZFHRNK,train_y,red_square,top_left,2025-04-24_15h06.38.596,HideSeek_v1,2022.2.5,59.943341485075756,
,2,7,2,3,0,-4,12,,train_dim1_1,29,30,,,,2,0,2,0,,,,,,,,,0,0,0,0,0,28,28,28,1,0,1,0,,,,,,,,,,,,,,,,,,,,,,,,,,,,,,,,,,,,,,,,,,,,,,,,,,,,,,,,,,,,,,,,30,,,,,,,,627.7861167998053,627.7861167998053,627.7861167998053,627.7861167998053,627.7861167998053,down,0.5591807998716831,11,1,0,99,0,0.0,down,0.47112370003014803,,,,,,,,,,,,,,,,,,,,,,,,,,,,,,,,,,,,,,,,,,,,,,,,,,,,,,,,,,,,ZFHRNK,train_y,red_square,top_left,2025-04-24_15h06.38.596,HideSeek_v1,2022.2.5,59.943341485075756,
,2,7,2,3,0,-4,12,,train_dim1_1,29,30,,,,2,0,2,0,,,,,,,,,0,0,0,0,0,28,28,28,2,0,2,0,,,,,,,,,,,,,,,,,,,,,,,,,,,,,,,,,,,,,,,,,,,,,,,,,,,,,,,,,,,,,,,,30,,,,,,,,628.3564319000579,628.3564319000579,628.3564319000579,628.3564319000579,628.3564319000579,down,0.4246890000067651,11,1,0,99,0,-0.08,down,0.34171029971912503,,,,,,,,,,,,,,,,,,,,,,,,,,,,,,,,,,,,,,,,,,,,,,,,,,,,,,,,,,,,ZFHRNK,train_y,red_square,top_left,2025-04-24_15h06.38.596,HideSeek_v1,2022.2.5,59.943341485075756,
,2,7,2,3,0,-4,12,,train_dim1_1,29,30,,,,2,0,2,0,,,,,,,,,0,0,0,0,0,28,28,28,3,0,3,0,,,,,,,,,,,,,,,,,,,,,,,,,,,,,,,,,,,,,,,,,,,,,,,,,,,,,,,,,,,,,,,,30,,,,,,,,628.7853545998223,628.7853545998223,628.7853545998223,628.7853545998223,628.7853545998223,down,0.5265915999189019,11,1,0,99,0,-0.16,down,0.43521729996427894,,,,,,,,,,,,,,,,,,,,,,,,,,,,,,,,,,,,,,,,,,,,,,,,,,,,,,,,,,,,ZFHRNK,train_y,red_square,top_left,2025-04-24_15h06.38.596,HideSeek_v1,2022.2.5,59.943341485075756,
,2,7,2,3,0,-4,12,,train_dim1_1,29,30,,,,2,0,2,0,,,,,,,,,0,0,0,0,0,28,28,28,4,0,4,0,,,,,,,,,,,,,,,,,,,,,,,,,,,,,,,,,,,,,,,,,,,,,,,,,,,,,,,,,,,,,,,,30,,,,,,,,629.3191701001488,629.3191701001488,629.3191701001488,629.3191701001488,629.3191701001488,down,0.4933496997691691,11,1,0,99,0,-0.24,down,0.4087722999975085,,,,,,,,,,,,,,,,,,,,,,,,,,,,,,,,,,,,,,,,,,,,,,,,,,,,,,,,,,,,ZFHRNK,train_y,red_square,top_left,2025-04-24_15h06.38.596,HideSeek_v1,2022.2.5,59.943341485075756,
,2,7,2,3,0,-4,12,,train_dim1_1,29,30,,,,2,0,2,0,,,,,,,,,0,0,0,0,0,28,28,28,5,0,5,0,,,,,,,,,,,,,,,,,,,,,,,,,,,,,,,,,,,,,,,,,,,,,,,,,,,,,,,,,,,,,,,,30,,,,,,,,629.8191696000285,629.8191696000285,629.8191696000285,629.8191696000285,629.8191696000285,up,1.3275365000590682,11,1,0,99,0,-0.15999999999999998,up,1.2512147999368608,,,,,,,,,,,,,,,,,,,,,,,,,,,,,,,,,,,,,,,,,,,,,,,,,,,,,,,,,,,,ZFHRNK,train_y,red_square,top_left,2025-04-24_15h06.38.596,HideSeek_v1,2022.2.5,59.943341485075756,
,2,7,2,3,0,-4,12,,train_dim1_1,29,30,,,,2,0,2,0,,,,,,,,,0,0,0,0,0,28,28,28,6,0,6,0,,,,,,,,,,,,,,,,,,,,,,,,,,,,,,,,,,,,,,,,,,,,,,,,,,,,,,,,,,,,,,,,30,,,,,,,,631.1545584001578,631.1545584001578,631.1545584001578,631.1545584001578,631.1545584001578,return,0.32622279971838,12,0,0,1,0,-0.15999999999999998,return,0.2386765000410378,-65,6,0,-0.15999999999999998,,,,,,,,,,,,,,,,,,,,,,,,,,,,,,,,,,,,,,,,,,,,,,,,,,,,,,,,ZFHRNK,train_y,red_square,top_left,2025-04-24_15h06.38.596,HideSeek_v1,2022.2.5,59.943341485075756,
,0,6,0,5,0,-1,15,,train_dim1_1,30,30,,,,2,0,2,0,,,,,,,,,0,0,0,0,0,29,29,29,0,0,0,0,,,,,,,,,,,,,,,,,,,,,,,,,stimuli/alien_stimuli/15.png,,,,,,,,,,,,,,,,,,,,,,,,,,,,,stimuli/alien_stimuli/12.png,12,2,31,,,,,,,30,,,,,,,,635.4811805998906,635.4811805998906,635.4811805998906,635.4811805998906,635.4811805998906,down,2.2882246002554893,12,0,0,99,-0.16,0.0,down,2.2026594998314977,,,,,633.9227009997703,635.4811805998906,0,-0.16,0.32,0.0,0.0,0,0.0,0,-0.16,633.0509159998037,633.0509159998037,633.0509159998037,633.0509159998037,633.0509159998037,633.0509159998037,633.0509159998037,633.0509159998037,633.0386036297773,0.9861107999458909,return,0.8423315002582967,,,,,,,,,,,,,,,,,,,,,,,,,,,,,,,,,ZFHRNK,train_y,red_square,top_left,2025-04-24_15h06.38.596,HideSeek_v1,2022.2.5,59.943341485075756,
,0,6,0,5,0,-1,15,,train_dim1_1,30,30,,,,2,0,2,0,,,,,,,,,0,0,0,0,0,29,29,29,1,0,1,0,,,,,,,,,,,,,,,,,,,,,,,,,,,,,,,,,,,,,,,,,,,,,,,,,,,,,,,,,,,,,,,,30,,,,,,,,637.7766674999148,637.7766674999148,637.7766674999148,637.7766674999148,637.7766674999148,return,0.5096988999284804,13,0,0,1,-0.16,0.0,return,0.4178972998633981,-66,6,-0.16,0.0,,,,,,,,,,,,,,,,,,,,,,,,,,,,,,,,,,,,,,,,,,,,,,,,,,,,,,,,ZFHRNK,train_y,red_square,top_left,2025-04-24_15h06.38.596,HideSeek_v1,2022.2.5,59.943341485075756,
,,,,,,,,,,,30,,,,2,0,2,0,,,,,,,,,,,,,,,,,,,,,,,,,,,,,,,,,,,,,,,,,,,,,,,,,,,,,,,,,,,,,,,,,,,,,,,,,,stimuli/alien_stimuli/15.png,15,0,32,21,0.7,0.5416666666666667,1,1,1,30,0,conditions/schedules/train_y_first/red_square_00/top_left/inputTrain_2.1.xlsx,99,1,2,1,0,,,,,,,,,,,1,,,,,,,,,641.1786178997718,642.741569200065,-0.16,0,0.08,0.0,0.04,-0.16,-0.16,-0.16,0,639.8463073000312,639.8463073000312,639.8463073000312,639.8463073000312,639.8463073000312,639.8463073000312,639.8463073000312,639.8463073000312,639.843962429883,1.436915099620819,return,1.3030391996726394,0,0.9,0,1,13,,,,,,,,,,,,,,,,,,,,,,,,,,,,ZFHRNK,train_y,red_square,top_left,2025-04-24_15h06.38.596,HideSeek_v1,2022.2.5,59.943341485075756,
