trialInstr,x_fixStart,y_fixStart,x_corrSteps,y_corrSteps,x_nrSteps,y_nrSteps,alienID,trialLength,version,trialTrain,praclen,testlen,trial_label,break_on_off,beforeExpLoop.thisRepN,beforeExpLoop.thisTrialN,beforeExpLoop.thisN,beforeExpLoop.thisIndex,mini_instr_trials.thisRepN,mini_instr_trials.thisTrialN,mini_instr_trials.thisN,mini_instr_trials.thisIndex,instrLoop.thisRepN,instrLoop.thisTrialN,instrLoop.thisN,instrLoop.thisIndex,repeat_prac.thisRepN,repeat_prac.thisTrialN,repeat_prac.thisN,repeat_prac.thisIndex,trainLoop.thisRepN,trainLoop.thisTrialN,trainLoop.thisN,trainLoop.thisIndex,moveLoop_train.thisRepN,moveLoop_train.thisTrialN,moveLoop_train.thisN,moveLoop_train.thisIndex,experiment.thisRepN,experiment.thisTrialN,experiment.thisN,experiment.thisIndex,moveLoop_test.thisRepN,moveLoop_test.thisTrialN,moveLoop_test.thisN,moveLoop_test.thisIndex,mini_instr2_trials.thisRepN,mini_instr2_trials.thisTrialN,mini_instr2_trials.thisN,mini_instr2_trials.thisIndex,start_all_time,url,slideStim,audioStim,slides.started,sounds.started,nextButton.numClicks,nextButton.timesOn,nextButton.timesOff,prev_but.numClicks,prev_but.timesOn,prev_but.timesOff,alienStim,instrFile,alienStim_instr,gridImage_instr.started,startPos_3.started,key_instr.started,alienImage_3.started,sounds_1.started,key_instr.keys,key_instr.rt,all_x,all_y,FBy_corrSteps,FBy_fixStart,FBx_corrSteps,FBx_fixStart,FBy_pathSize_check,FBx_pathSize_check,gridImage_9.started,alienImageFB_3.started,startPosFB_3.started,keyFB_3.started,pathLine_ydir_2.started,pathLine_xdir_2.started,alienFace_3.started,sounds_2.started,RTFB_instr,keyFB_3.keys,keyFB_3.rt,draw_alienStim,draw_alienID,test_x,nrepcount,perfthres,percthres,earlierperf,earlystop,nextPrac,fileidx,praclen,saveACC_train,pracFile,nextPrac_train,addNrep,fileidx_endr,repExp,showearly,gridImage_4.started,startPos.started,movePos.started,key_resp.started,alienImage.started,buttonPress_train,RTchoice_train,cumAcctrain,aCorr,saveACC_choice,corrAns,x_movePos_end,y_movePos_end,key_resp.keys,key_resp.rt,wLy_dir,wLx_dir,x_movePos,y_movePos,text_2.started,text_2.stopped,aft_x_corrPos,aft_y_corrPos,y_pathSize_check,x_pathSize_check,y_pathdirY,x_pathdirY,x_pathdirX,x_corrPos,y_corrPos,gridImage_6.started,alienImageFB_2.started,startPosFB_2.started,movePosFB_2.started,keyFB_2.started,pathLine_xdir.started,pathLine_ydir.started,alienFace.started,sounds_4.started,RT_FBtrain,keyFB_2.keys,keyFB_2.rt,saveACC_pre,ACC,within_saveACC_train,earlystop_wloop,cumAcctrain_check,gridImage_3.started,alienImage_test.started,startPos_test.started,movePos_test.started,key_resp_test.started,wLy_dir_test,wLx_dir_test,buttonPress_test,RTchoice_test,cumAcctest,corrAns_test,key_resp_test.keys,key_resp_test.rt,text_3.started,text_3.stopped,total_time,end_all_time,key_resp_3.keys,slides_2.started,sounds_3.started,nextButton_2.numClicks,nextButton_2.timesOn,nextButton_2.timesOff,prev_but_2.numClicks,prev_but_2.timesOn,prev_but_2.timesOff,bye.started,participant,train_first,00_coordinate,starting corner,date,expName,psychopyVersion,frameRate,
,,,,,,,,,,,,,,,0,0,0,0,0,0,0,0,,,,,,,,,,,,,,,,,,,,,,,,,,,,,start_all_time,testround,conditions/schedules/train_x_first/red_square_00/top_right/instructions/Slide1.png,conditions/schedules/train_x_first/red_square_00/top_right/instructions/Audio1.wav,48.37000470000021,48.32136771001006,1,[7.671462500000416],[7.671470100000079],0,,,,,,,,,,,,,,,,,,,,,,,,,,,,,,,,,,,,,,,,,,,,,,,,,,,,,,,,,,,,,,,,,,,,,,,,,,,,,,,,,,,,,,,,,,,,,,,,,,,,,,,,,,,,,,,,,,,,,,,,,,,,ZLRJVQ,train_x,red_square,top_right,2025-06-14_12h02.38.383,HideSeek_v1,2022.2.5,59.943269689485575,
,,,,,,,,,,,,,,,0,0,0,0,1,0,1,0,,,,,,,,,,,,,,,,,,,,,,,,,,,,,,,conditions/schedules/train_x_first/red_square_00/top_right/instructions/Slide2.png,conditions/schedules/train_x_first/red_square_00/top_right/instructions/Audio2.wav,56.05709470000056,56.04449606000053,2,"[7.671462500000416, 17.666257300000325]","[0.014063600000554288, 17.66626450000058]",0,,,,,,,,,,,,,,,,,,,,,,,,,,,,,,,,,,,,,,,,,,,,,,,,,,,,,,,,,,,,,,,,,,,,,,,,,,,,,,,,,,,,,,,,,,,,,,,,,,,,,,,,,,,,,,,,,,,,,,,,,,,,ZLRJVQ,train_x,red_square,top_right,2025-06-14_12h02.38.383,HideSeek_v1,2022.2.5,59.943269689485575,
,,,,,,,,,,,,,,,0,0,0,0,2,0,2,0,,,,,,,,,,,,,,,,,,,,,,,,,,,,,,,conditions/schedules/train_x_first/red_square_00/top_right/instructions/Slide3.png,conditions/schedules/train_x_first/red_square_00/top_right/instructions/Audio3.wav,73.80786330000046,73.79247195000062,3,"[7.671462500000416, 17.666257300000325, 16.26516360000005]","[0.014063600000554288, 0.05222270000012941, 16.265170700000454]",0,,,,,,,,,,,,,,,,,,,,,,,,,,,,,,,,,,,,,,,,,,,,,,,,,,,,,,,,,,,,,,,,,,,,,,,,,,,,,,,,,,,,,,,,,,,,,,,,,,,,,,,,,,,,,,,,,,,,,,,,,,,,ZLRJVQ,train_x,red_square,top_right,2025-06-14_12h02.38.383,HideSeek_v1,2022.2.5,59.943269689485575,
,,,,,,,,,,,,,,,0,0,0,0,3,0,3,0,,,,,,,,,,,,,,,,,,,,,,,,,,,,,,,conditions/schedules/train_x_first/red_square_00/top_right/instructions/Slide4.png,conditions/schedules/train_x_first/red_square_00/top_right/instructions/Audio4.wav,90.1564828999999,90.15580854000036,4,"[7.671462500000416, 17.666257300000325, 16.26516360000005, 19.131598199999644]","[0.014063600000554288, 0.05222270000012941, 0.18249620000005962, 19.131605099999433]",0,,,,,,,,,,,,,,,,,,,,,,,,,,,,,,,,,,,,,,,,,,,,,,,,,,,,,,,,,,,,,,,,,,,,,,,,,,,,,,,,,,,,,,,,,,,,,,,,,,,,,,,,,,,,,,,,,,,,,,,,,,,,ZLRJVQ,train_x,red_square,top_right,2025-06-14_12h02.38.383,HideSeek_v1,2022.2.5,59.943269689485575,
,,,,,,,,,,,,,,,0,0,0,0,4,0,4,0,,,,,,,,,,,,,,,,,,,,,,,,,,,,,,,conditions/schedules/train_x_first/red_square_00/top_right/instructions/Slide5.png,conditions/schedules/train_x_first/red_square_00/top_right/instructions/Audio5.wav,109.35056870000062,109.33851376000057,5,"[7.671462500000416, 17.666257300000325, 16.26516360000005, 19.131598199999644, 4.289009300000544]","[0.014063600000554288, 0.05222270000012941, 0.18249620000005962, 0.05230750000009721, 4.289016500000798]",0,,,,,,,,,,,,,,,,,,,,,,,,,,,,,,,,,,,,,,,,,,,,,,,,,,,,,,,,,,,,,,,,,,,,,,,,,,,,,,,,,,,,,,,,,,,,,,,,,,,,,,,,,,,,,,,,,,,,,,,,,,,,ZLRJVQ,train_x,red_square,top_right,2025-06-14_12h02.38.383,HideSeek_v1,2022.2.5,59.943269689485575,
,,,,,,,,,,,,,,,0,0,0,0,5,0,5,0,,,,,,,,,,,,,,,,,,,,,,,,,,,,,,,conditions/schedules/train_x_first/red_square_00/top_right/instructions/Slide6.png,conditions/schedules/train_x_first/red_square_00/top_right/instructions/Audio6.wav,113.69089030000032,113.69203586000076,6,"[7.671462500000416, 17.666257300000325, 16.26516360000005, 19.131598199999644, 4.289009300000544, 5.0363585000004605]","[0.014063600000554288, 0.05222270000012941, 0.18249620000005962, 0.05230750000009721, 0.031920200000058685, 5.036365599999954]",0,,,,,,,,,,,,,,,,,,,,,,,,,,,,,,,,,,,,,,,,,,,,,,,,,,,,,,,,,,,,,,,,,,,,,,,,,,,,,,,,,,,,,,,,,,,,,,,,,,,,,,,,,,,,,,,,,,,,,,,,,,,,ZLRJVQ,train_x,red_square,top_right,2025-06-14_12h02.38.383,HideSeek_v1,2022.2.5,59.943269689485575,
,,,,,,,,,,,,,,,0,0,0,0,6,0,6,0,,,,,,,,,,,,,,,,,,,,,,,,,,,,,,,conditions/schedules/train_x_first/red_square_00/top_right/instructions/Slide7.png,conditions/schedules/train_x_first/red_square_00/top_right/instructions/Audio7.wav,118.7784228999999,118.77985236000022,7,"[7.671462500000416, 17.666257300000325, 16.26516360000005, 19.131598199999644, 4.289009300000544, 5.0363585000004605, 5.7031780999996045]","[0.014063600000554288, 0.05222270000012941, 0.18249620000005962, 0.05230750000009721, 0.031920200000058685, 0.08162389999961306, 5.703185099999246]",0,,,,,,,,,,,,,,,,,,,,,,,,,,,,,,,,,,,,,,,,,,,,,,,,,,,,,,,,,,,,,,,,,,,,,,,,,,,,,,,,,,,,,,,,,,,,,,,,,,,,,,,,,,,,,,,,,,,,,,,,,,,,ZLRJVQ,train_x,red_square,top_right,2025-06-14_12h02.38.383,HideSeek_v1,2022.2.5,59.943269689485575,
,,,,,,,,,,,,,,,0,0,0,0,7,0,7,0,,,,,,,,,,,,,,,,,,,,,,,,,,,,,,,conditions/schedules/train_x_first/red_square_00/top_right/instructions/Slide8.png,conditions/schedules/train_x_first/red_square_00/top_right/instructions/Audio8.wav,124.53538759999992,124.53444166000081,8,"[7.671462500000416, 17.666257300000325, 16.26516360000005, 19.131598199999644, 4.289009300000544, 5.0363585000004605, 5.7031780999996045, 11.95655379999971]","[0.014063600000554288, 0.05222270000012941, 0.18249620000005962, 0.05230750000009721, 0.031920200000058685, 0.08162389999961306, 0.07973390000006475, 11.95656070000041]",0,,,,,,,,,,,,,,,,,,,,,,,,,,,,,,,,,,,,,,,,,,,,,,,,,,,,,,,,,,,,,,,,,,,,,,,,,,,,,,,,,,,,,,,,,,,,,,,,,,,,,,,,,,,,,,,,,,,,,,,,,,,,ZLRJVQ,train_x,red_square,top_right,2025-06-14_12h02.38.383,HideSeek_v1,2022.2.5,59.943269689485575,
,,,,,,,,,,,,,,,0,0,0,0,8,0,8,0,,,,,,,,,,,,,,,,,,,,,,,,,,,,,,,conditions/schedules/train_x_first/red_square_00/top_right/instructions/Slide9.png,conditions/schedules/train_x_first/red_square_00/top_right/instructions/Audio9.wav,136.56018550000044,136.5611651500003,9,"[7.671462500000416, 17.666257300000325, 16.26516360000005, 19.131598199999644, 4.289009300000544, 5.0363585000004605, 5.7031780999996045, 11.95655379999971, 6.3701585999997405]","[0.014063600000554288, 0.05222270000012941, 0.18249620000005962, 0.05230750000009721, 0.031920200000058685, 0.08162389999961306, 0.07973390000006475, 0.04829849999987346, 6.370165700000143]",0,,,,,,,,,,,,,,,,,,,,,,,,,,,,,,,,,,,,,,,,,,,,,,,,,,,,,,,,,,,,,,,,,,,,,,,,,,,,,,,,,,,,,,,,,,,,,,,,,,,,,,,,,,,,,,,,,,,,,,,,,,,,ZLRJVQ,train_x,red_square,top_right,2025-06-14_12h02.38.383,HideSeek_v1,2022.2.5,59.943269689485575,
,,,,,,,,,,,,,,,0,0,0,0,9,0,9,0,,,,,,,,,,,,,,,,,,,,,,,,,,,,,,,conditions/schedules/train_x_first/red_square_00/top_right/instructions/Slide10.png,conditions/schedules/train_x_first/red_square_00/top_right/instructions/Audio10.wav,142.96951700000045,142.9665715700008,10,"[7.671462500000416, 17.666257300000325, 16.26516360000005, 19.131598199999644, 4.289009300000544, 5.0363585000004605, 5.7031780999996045, 11.95655379999971, 6.3701585999997405, 6.84963450000032]","[0.014063600000554288, 0.05222270000012941, 0.18249620000005962, 0.05230750000009721, 0.031920200000058685, 0.08162389999961306, 0.07973390000006475, 0.04829849999987346, 0.07765440000002855, 6.8496415999998135]",0,,,,,,,,,,,,,,,,,,,,,,,,,,,,,,,,,,,,,,,,,,,,,,,,,,,,,,,,,,,,,,,,,,,,,,,,,,,,,,,,,,,,,,,,,,,,,,,,,,,,,,,,,,,,,,,,,,,,,,,,,,,,ZLRJVQ,train_x,red_square,top_right,2025-06-14_12h02.38.383,HideSeek_v1,2022.2.5,59.943269689485575,
,,,,,,,,,,,,,,,0,0,0,0,10,0,10,0,,,,,,,,,,,,,,,,,,,,,,,,,,,,,,,conditions/schedules/train_x_first/red_square_00/top_right/instructions/Slide11.png,conditions/schedules/train_x_first/red_square_00/top_right/instructions/Audio11.wav,149.87325730000066,149.8721109600008,11,"[7.671462500000416, 17.666257300000325, 16.26516360000005, 19.131598199999644, 4.289009300000544, 5.0363585000004605, 5.7031780999996045, 11.95655379999971, 6.3701585999997405, 6.84963450000032, 9.754406600000038]","[0.014063600000554288, 0.05222270000012941, 0.18249620000005962, 0.05230750000009721, 0.031920200000058685, 0.08162389999961306, 0.07973390000006475, 0.04829849999987346, 0.07765440000002855, 0.0799168000003192, 9.75441360000059]",0,,,,,,,,,,,,,,,,,,,,,,,,,,,,,,,,,,,,,,,,,,,,,,,,,,,,,,,,,,,,,,,,,,,,,,,,,,,,,,,,,,,,,,,,,,,,,,,,,,,,,,,,,,,,,,,,,,,,,,,,,,,,ZLRJVQ,train_x,red_square,top_right,2025-06-14_12h02.38.383,HideSeek_v1,2022.2.5,59.943269689485575,
,,,,,,,,,,,,,,,0,0,0,0,11,0,11,0,,,,,,,,,,,,,,,,,,,,,,,,,,,,,,,conditions/schedules/train_x_first/red_square_00/top_right/instructions/Slide12.png,conditions/schedules/train_x_first/red_square_00/top_right/instructions/Audio12.wav,159.6815204000004,159.68023706000056,12,"[7.671462500000416, 17.666257300000325, 16.26516360000005, 19.131598199999644, 4.289009300000544, 5.0363585000004605, 5.7031780999996045, 11.95655379999971, 6.3701585999997405, 6.84963450000032, 9.754406600000038, 12.923765999999887]","[0.014063600000554288, 0.05222270000012941, 0.18249620000005962, 0.05230750000009721, 0.031920200000058685, 0.08162389999961306, 0.07973390000006475, 0.04829849999987346, 0.07765440000002855, 0.0799168000003192, 0.046640499999739404, 12.923772799999824]",0,,,,,,,,,,,,,,,,,,,,,,,,,,,,,,,,,,,,,,,,,,,,,,,,,,,,,,,,,,,,,,,,,,,,,,,,,,,,,,,,,,,,,,,,,,,,,,,,,,,,,,,,,,,,,,,,,,,,,,,,,,,,ZLRJVQ,train_x,red_square,top_right,2025-06-14_12h02.38.383,HideSeek_v1,2022.2.5,59.943269689485575,
1,8,7,3,7,-5,0,66,2,instr_dim1_1,,,,,,0,0,0,0,,,,,0,0,0,0,,,,,,,,,,,,,,,,,,,,,,,,,,,,,,,,,,,,,stimuli/alien_stimuli/66.png,conditions/schedules/train_x_first/red_square_00/top_right/inputInstr_1.xlsx,stimuli/alien_stimuli/66.png,172.69955879999998,172.69955879999998,172.69955879999998,172.69955879999998,172.69109254000085,return,7.076503999999659,"[-0.16, -0.08, 0, 0.08, 0.16, 0.24, 0.32, 0.4, 0.48, 0.56]","[-0.4, -0.32, -0.24, -0.16, -0.08, 0, 0.08, 0.16, 0.24, 0.32]",7,7,3,8,0.0,0.4,179.92537230000016,179.92537230000016,179.92537230000016,179.92537230000016,179.92537230000016,179.92537230000016,179.92537230000016,179.91384722000075,9.408345900000313,return,9.255320799999936,stimuli/alien_stimuli/66.png,66,8,1,,,,,,,,,,,,,,,,,,,,,,,,,,,,,,,,,,,,,,,,,,,,,,,,,,,,,,,,,,,,,,,,,,,,,,,,,,,,,,,,,,,,,,,,,ZLRJVQ,train_x,red_square,top_right,2025-06-14_12h02.38.383,HideSeek_v1,2022.2.5,59.943269689485575,
,,,,,,,,,,,30,,,,0,0,0,0,,,,,,,,,,,,,,,,,,,,,,,,,,,,,,,,,,,,,,,,,,,,,,,,,,,,,,,,,,,,,,,,,,,,,,,,,,,,,,21,0.7,0,0,99,1,30,0,conditions/schedules/train_x_first/red_square_00/top_right/inputTrain_1.1.xlsx,99,1,1,1,0,,,,,,,,,,,,,,,,,,,,,,,,,,,,,,,,,,,,,,,,,,,,,,,,,,,,,,,,,,,,,,,,,,,,,,,,,,,ZLRJVQ,train_x,red_square,top_right,2025-06-14_12h02.38.383,HideSeek_v1,2022.2.5,59.943269689485575,
,,,,,,,,,,,,,,,1,0,1,0,0,0,0,0,,,,,,,,,,,,,,,,,,,,,,,,,,,,,,,conditions/schedules/train_x_first/red_square_00/top_right/instructions/Slide13.png,conditions/schedules/train_x_first/red_square_00/top_right/instructions/Audio13.wav,189.3343758000001,189.32138502000052,13,"[7.671462500000416, 17.666257300000325, 16.26516360000005, 19.131598199999644, 4.289009300000544, 5.0363585000004605, 5.7031780999996045, 11.95655379999971, 6.3701585999997405, 6.84963450000032, 9.754406600000038, 12.923765999999887, 17.098145099999783]","[0.014063600000554288, 0.05222270000012941, 0.18249620000005962, 0.05230750000009721, 0.031920200000058685, 0.08162389999961306, 0.07973390000006475, 0.04829849999987346, 0.07765440000002855, 0.0799168000003192, 0.046640499999739404, 12.923772799999824, 17.098152100000334]",0,,,,,,,,,,,,,,,,,,,,,,,,,,,,,,,,,,,,,,,,,,,,,,,,,,,,,,,,,,,,,,,,,,,,,,,,,,,,,,,,,,,,,,,,,,,,,,,,,,,,,,,,,,,,,,,,,,,,,,,,,,,,ZLRJVQ,train_x,red_square,top_right,2025-06-14_12h02.38.383,HideSeek_v1,2022.2.5,59.943269689485575,
,,,,,,,,,,,,,,,1,0,1,0,1,0,1,0,,,,,,,,,,,,,,,,,,,,,,,,,,,,,,,conditions/schedules/train_x_first/red_square_00/top_right/instructions/Slide14.png,conditions/schedules/train_x_first/red_square_00/top_right/instructions/Audio14.wav,206.50197920000028,206.50235815000087,14,"[7.671462500000416, 17.666257300000325, 16.26516360000005, 19.131598199999644, 4.289009300000544, 5.0363585000004605, 5.7031780999996045, 11.95655379999971, 6.3701585999997405, 6.84963450000032, 9.754406600000038, 12.923765999999887, 17.098145099999783, 13.308792000000722]","[0.014063600000554288, 0.05222270000012941, 0.18249620000005962, 0.05230750000009721, 0.031920200000058685, 0.08162389999961306, 0.07973390000006475, 0.04829849999987346, 0.07765440000002855, 0.0799168000003192, 0.046640499999739404, 12.923772799999824, 0.09754120000070543, 13.30879940000068]",0,,,,,,,,,,,,,,,,,,,,,,,,,,,,,,,,,,,,,,,,,,,,,,,,,,,,,,,,,,,,,,,,,,,,,,,,,,,,,,,,,,,,,,,,,,,,,,,,,,,,,,,,,,,,,,,,,,,,,,,,,,,,ZLRJVQ,train_x,red_square,top_right,2025-06-14_12h02.38.383,HideSeek_v1,2022.2.5,59.943269689485575,
2,9,5,9,5,0,0,16,2,instr_dim1_1,,,,,,1,0,1,0,,,,,0,0,0,0,,,,,,,,,,,,,,,,,,,,,,,,,,,,,,,,,,,,,stimuli/alien_stimuli/16.png,conditions/schedules/train_x_first/red_square_00/top_right/inputInstr_1.xlsx,stimuli/alien_stimuli/16.png,219.91449910000028,219.91449910000028,219.91449910000028,219.91449910000028,219.91351283000074,return,6.341538599999694,"[-0.16, -0.08, 0, 0.08, 0.16, 0.24, 0.32, 0.4, 0.48, 0.56]","[-0.4, -0.32, -0.24, -0.16, -0.08, 0, 0.08, 0.16, 0.24, 0.32]",5,5,9,9,0.0,0.0,226.42145170000003,226.42145170000003,226.42145170000003,226.42145170000003,226.42145170000003,226.42145170000003,226.42145170000003,226.4022892200006,7.957430400000703,return,7.801934799999799,stimuli/alien_stimuli/16.png,16,9,2,,,,,,,,,,,,,,,,,,,,,,,,,,,,,,,,,,,,,,,,,,,,,,,,,,,,,,,,,,,,,,,,,,,,,,,,,,,,,,,,,,,,,,,,,ZLRJVQ,train_x,red_square,top_right,2025-06-14_12h02.38.383,HideSeek_v1,2022.2.5,59.943269689485575,
,,,,,,,,,,,30,,,,1,0,1,0,,,,,,,,,,,,,,,,,,,,,,,,,,,,,,,,,,,,,,,,,,,,,,,,,,,,,,,,,,,,,,,,,,,,,,,,,,,,,,21,0.7,0,0,99,1,30,0,conditions/schedules/train_x_first/red_square_00/top_right/inputTrain_1.1.xlsx,99,1,1,1,0,,,,,,,,,,,,,,,,,,,,,,,,,,,,,,,,,,,,,,,,,,,,,,,,,,,,,,,,,,,,,,,,,,,,,,,,,,,ZLRJVQ,train_x,red_square,top_right,2025-06-14_12h02.38.383,HideSeek_v1,2022.2.5,59.943269689485575,
,,,,,,,,,,,,,,,2,0,2,0,0,0,0,0,,,,,,,,,,,,,,,,,,,,,,,,,,,,,,,conditions/schedules/train_x_first/red_square_00/top_right/instructions/Slide15.png,conditions/schedules/train_x_first/red_square_00/top_right/instructions/Audio15.wav,234.3826850000005,234.3754239100006,15,"[7.671462500000416, 17.666257300000325, 16.26516360000005, 19.131598199999644, 4.289009300000544, 5.0363585000004605, 5.7031780999996045, 11.95655379999971, 6.3701585999997405, 6.84963450000032, 9.754406600000038, 12.923765999999887, 17.098145099999783, 13.308792000000722, 30.78196609999941]","[0.014063600000554288, 0.05222270000012941, 0.18249620000005962, 0.05230750000009721, 0.031920200000058685, 0.08162389999961306, 0.07973390000006475, 0.04829849999987346, 0.07765440000002855, 0.0799168000003192, 0.046640499999739404, 12.923772799999824, 0.09754120000070543, 13.30879940000068, 30.78197309999996]",0,,,,,,,,,,,,,,,,,,,,,,,,,,,,,,,,,,,,,,,,,,,,,,,,,,,,,,,,,,,,,,,,,,,,,,,,,,,,,,,,,,,,,,,,,,,,,,,,,,,,,,,,,,,,,,,,,,,,,,,,,,,,ZLRJVQ,train_x,red_square,top_right,2025-06-14_12h02.38.383,HideSeek_v1,2022.2.5,59.943269689485575,
,,,,,,,,,,,,,,,2,0,2,0,1,0,1,0,,,,,,,,,,,,,,,,,,,,,,,,,,,,,,,conditions/schedules/train_x_first/red_square_00/top_right/instructions/Slide16.png,conditions/schedules/train_x_first/red_square_00/top_right/instructions/Audio16.wav,265.2306911000005,265.21802356000063,16,"[7.671462500000416, 17.666257300000325, 16.26516360000005, 19.131598199999644, 4.289009300000544, 5.0363585000004605, 5.7031780999996045, 11.95655379999971, 6.3701585999997405, 6.84963450000032, 9.754406600000038, 12.923765999999887, 17.098145099999783, 13.308792000000722, 30.78196609999941, 21.535858899999766]","[0.014063600000554288, 0.05222270000012941, 0.18249620000005962, 0.05230750000009721, 0.031920200000058685, 0.08162389999961306, 0.07973390000006475, 0.04829849999987346, 0.07765440000002855, 0.0799168000003192, 0.046640499999739404, 12.923772799999824, 0.09754120000070543, 13.30879940000068, 0.01383830000031594, 21.53586600000017]",0,,,,,,,,,,,,,,,,,,,,,,,,,,,,,,,,,,,,,,,,,,,,,,,,,,,,,,,,,,,,,,,,,,,,,,,,,,,,,,,,,,,,,,,,,,,,,,,,,,,,,,,,,,,,,,,,,,,,,,,,,,,,ZLRJVQ,train_x,red_square,top_right,2025-06-14_12h02.38.383,HideSeek_v1,2022.2.5,59.943269689485575,
,7,6,4,6,-3,0,46,,train_dim1_1,1,30,,,,2,0,2,0,,,,,,,,,0,0,0,0,0,0,0,0,0,0,0,0,,,,,,,,,,,,,,,,,,,,,,,,,stimuli/alien_stimuli/46.png,,,,,,,,,,,,,,,,,,,,,,,,,,,,,,,,,,,,,,,30,,,,,,,,286.86100540000007,286.86100540000007,286.86100540000007,286.86100540000007,286.86100540000007,right,12.438885500000652,0,0,0,99,0.48000000000000004,0.08,right,12.345467399999507,,,,,,,,,,,,,,,,,,,,,,,,,,,,,,,,,,,,,,,,,,,,,,,,,,,,,,,,,,,,ZLRJVQ,train_x,red_square,top_right,2025-06-14_12h02.38.383,HideSeek_v1,2022.2.5,59.943269689485575,
,7,6,4,6,-3,0,46,,train_dim1_1,1,30,,,,2,0,2,0,,,,,,,,,0,0,0,0,0,0,0,0,1,0,1,0,,,,,,,,,,,,,,,,,,,,,,,,,,,,,,,,,,,,,,,,,,,,,,,,,,,,,,,,,,,,,,,,30,,,,,,,,299.3082282000005,299.3082282000005,299.3082282000005,299.3082282000005,299.3082282000005,down,2.49452299999939,0,0,0,99,0.48000000000000004,0.0,down,2.39675410000018,,,,,,,,,,,,,,,,,,,,,,,,,,,,,,,,,,,,,,,,,,,,,,,,,,,,,,,,,,,,ZLRJVQ,train_x,red_square,top_right,2025-06-14_12h02.38.383,HideSeek_v1,2022.2.5,59.943269689485575,
,7,6,4,6,-3,0,46,,train_dim1_1,1,30,,,,2,0,2,0,,,,,,,,,0,0,0,0,0,0,0,0,2,0,2,0,,,,,,,,,,,,,,,,,,,,,,,,,,,,,,,,,,,,,,,,,,,,,,,,,,,,,,,,,,,,,,,,30,,,,,,,,301.79515810000066,301.79515810000066,301.79515810000066,301.79515810000066,301.79515810000066,left,1.911164899999676,0,0,0,99,0.4,0.0,left,1.827986599999349,,,,,,,,,,,,,,,,,,,,,,,,,,,,,,,,,,,,,,,,,,,,,,,,,,,,,,,,,,,,ZLRJVQ,train_x,red_square,top_right,2025-06-14_12h02.38.383,HideSeek_v1,2022.2.5,59.943269689485575,
,7,6,4,6,-3,0,46,,train_dim1_1,1,30,,,,2,0,2,0,,,,,,,,,0,0,0,0,0,0,0,0,3,0,3,0,,,,,,,,,,,,,,,,,,,,,,,,,,,,,,,,,,,,,,,,,,,,,,,,,,,,,,,,,,,,,,,,30,,,,,,,,303.7127668000003,303.7127668000003,303.7127668000003,303.7127668000003,303.7127668000003,up,1.0940954000006968,0,0,0,99,0.4,0.08,up,1.0068788999997196,,,,,,,,,,,,,,,,,,,,,,,,,,,,,,,,,,,,,,,,,,,,,,,,,,,,,,,,,,,,ZLRJVQ,train_x,red_square,top_right,2025-06-14_12h02.38.383,HideSeek_v1,2022.2.5,59.943269689485575,
,7,6,4,6,-3,0,46,,train_dim1_1,1,30,,,,2,0,2,0,,,,,,,,,0,0,0,0,0,0,0,0,4,0,4,0,,,,,,,,,,,,,,,,,,,,,,,,,,,,,,,,,,,,,,,,,,,,,,,,,,,,,,,,,,,,,,,,30,,,,,,,,304.8131186999999,304.8131186999999,304.8131186999999,304.8131186999999,304.8131186999999,down,4.6633389999997235,0,0,0,99,0.4,0.0,down,4.587229300000217,,,,,,,,,,,,,,,,,,,,,,,,,,,,,,,,,,,,,,,,,,,,,,,,,,,,,,,,,,,,ZLRJVQ,train_x,red_square,top_right,2025-06-14_12h02.38.383,HideSeek_v1,2022.2.5,59.943269689485575,
,7,6,4,6,-3,0,46,,train_dim1_1,1,30,,,,2,0,2,0,,,,,,,,,0,0,0,0,0,0,0,0,5,0,5,0,,,,,,,,,,,,,,,,,,,,,,,,,,,,,,,,,,,,,,,,,,,,,,,,,,,,,,,,,,,,,,,,30,,,,,,,,309.48380110000016,309.48380110000016,309.48380110000016,309.48380110000016,309.48380110000016,left,1.6944485999993049,0,0,0,99,0.32,0.0,left,1.6095953000003647,,,,,,,,,,,,,,,,,,,,,,,,,,,,,,,,,,,,,,,,,,,,,,,,,,,,,,,,,,,,ZLRJVQ,train_x,red_square,top_right,2025-06-14_12h02.38.383,HideSeek_v1,2022.2.5,59.943269689485575,
,7,6,4,6,-3,0,46,,train_dim1_1,1,30,,,,2,0,2,0,,,,,,,,,0,0,0,0,0,0,0,0,6,0,6,0,,,,,,,,,,,,,,,,,,,,,,,,,,,,,,,,,,,,,,,,,,,,,,,,,,,,,,,,,,,,,,,,30,,,,,,,,311.1849634,311.1849634,311.1849634,311.1849634,311.1849634,up,3.8962289000000965,0,0,0,99,0.32,0.08,up,3.8155902999997124,,,,,,,,,,,,,,,,,,,,,,,,,,,,,,,,,,,,,,,,,,,,,,,,,,,,,,,,,,,,ZLRJVQ,train_x,red_square,top_right,2025-06-14_12h02.38.383,HideSeek_v1,2022.2.5,59.943269689485575,
,7,6,4,6,-3,0,46,,train_dim1_1,1,30,,,,2,0,2,0,,,,,,,,,0,0,0,0,0,0,0,0,7,0,7,0,,,,,,,,,,,,,,,,,,,,,,,,,,,,,,,,,,,,,,,,,,,,,,,,,,,,,,,,,,,,,,,,30,,,,,,,,315.08864970000013,315.08864970000013,315.08864970000013,315.08864970000013,315.08864970000013,right,0.5770097000004171,0,0,0,99,0.4,0.08,right,0.4891545999998925,,,,,,,,,,,,,,,,,,,,,,,,,,,,,,,,,,,,,,,,,,,,,,,,,,,,,,,,,,,,ZLRJVQ,train_x,red_square,top_right,2025-06-14_12h02.38.383,HideSeek_v1,2022.2.5,59.943269689485575,
,7,6,4,6,-3,0,46,,train_dim1_1,1,30,,,,2,0,2,0,,,,,,,,,0,0,0,0,0,0,0,0,8,0,8,0,,,,,,,,,,,,,,,,,,,,,,,,,,,,,,,,,,,,,,,,,,,,,,,,,,,,,,,,,,,,,,,,30,,,,,,,,315.6722071000004,315.6722071000004,315.6722071000004,315.6722071000004,315.6722071000004,left,6.481692099999236,0,0,0,99,0.32,0.08,left,6.405701399999998,,,,,,,,,,,,,,,,,,,,,,,,,,,,,,,,,,,,,,,,,,,,,,,,,,,,,,,,,,,,ZLRJVQ,train_x,red_square,top_right,2025-06-14_12h02.38.383,HideSeek_v1,2022.2.5,59.943269689485575,
,7,6,4,6,-3,0,46,,train_dim1_1,1,30,,,,2,0,2,0,,,,,,,,,0,0,0,0,0,0,0,0,9,0,9,0,,,,,,,,,,,,,,,,,,,,,,,,,,,,,,,,,,,,,,,,,,,,,,,,,,,,,,,,,,,,,,,,30,,,,,,,,322.16204910000033,322.16204910000033,322.16204910000033,322.16204910000033,322.16204910000033,down,0.4432369000005565,0,0,0,99,0.32,0.0,down,0.355829499999345,,,,,,,,,,,,,,,,,,,,,,,,,,,,,,,,,,,,,,,,,,,,,,,,,,,,,,,,,,,,ZLRJVQ,train_x,red_square,top_right,2025-06-14_12h02.38.383,HideSeek_v1,2022.2.5,59.943269689485575,
,7,6,4,6,-3,0,46,,train_dim1_1,1,30,,,,2,0,2,0,,,,,,,,,0,0,0,0,0,0,0,0,10,0,10,0,,,,,,,,,,,,,,,,,,,,,,,,,,,,,,,,,,,,,,,,,,,,,,,,,,,,,,,,,,,,,,,,30,,,,,,,,322.6117844999999,322.6117844999999,322.6117844999999,322.6117844999999,322.6117844999999,right,0.41008249999867985,0,0,0,99,0.4,0.0,right,0.3223704000001817,,,,,,,,,,,,,,,,,,,,,,,,,,,,,,,,,,,,,,,,,,,,,,,,,,,,,,,,,,,,ZLRJVQ,train_x,red_square,top_right,2025-06-14_12h02.38.383,HideSeek_v1,2022.2.5,59.943269689485575,
,7,6,4,6,-3,0,46,,train_dim1_1,1,30,,,,2,0,2,0,,,,,,,,,0,0,0,0,0,0,0,0,11,0,11,0,,,,,,,,,,,,,,,,,,,,,,,,,,,,,,,,,,,,,,,,,,,,,,,,,,,,,,,,,,,,,,,,30,,,,,,,,323.0277493000003,323.0277493000003,323.0277493000003,323.0277493000003,323.0277493000003,up,0.6438701000006404,0,0,0,99,0.4,0.08,up,0.5627640000011525,,,,,,,,,,,,,,,,,,,,,,,,,,,,,,,,,,,,,,,,,,,,,,,,,,,,,,,,,,,,ZLRJVQ,train_x,red_square,top_right,2025-06-14_12h02.38.383,HideSeek_v1,2022.2.5,59.943269689485575,
,7,6,4,6,-3,0,46,,train_dim1_1,1,30,,,,2,0,2,0,,,,,,,,,0,0,0,0,0,0,0,0,12,0,12,0,,,,,,,,,,,,,,,,,,,,,,,,,,,,,,,,,,,,,,,,,,,,,,,,,,,,,,,,,,,,,,,,30,,,,,,,,323.6789773999999,323.6789773999999,323.6789773999999,323.6789773999999,323.6789773999999,left,1.4108162000011362,0,0,0,99,0.32,0.08,left,1.3233701999988625,,,,,,,,,,,,,,,,,,,,,,,,,,,,,,,,,,,,,,,,,,,,,,,,,,,,,,,,,,,,ZLRJVQ,train_x,red_square,top_right,2025-06-14_12h02.38.383,HideSeek_v1,2022.2.5,59.943269689485575,
,7,6,4,6,-3,0,46,,train_dim1_1,1,30,,,,2,0,2,0,,,,,,,,,0,0,0,0,0,0,0,0,13,0,13,0,,,,,,,,,,,,,,,,,,,,,,,,,,,,,,,,,,,,,,,,,,,,,,,,,,,,,,,,,,,,,,,,30,,,,,,,,325.0962150000005,325.0962150000005,325.0962150000005,325.0962150000005,325.0962150000005,left,0.6268568000014056,0,0,0,99,0.24,0.08,left,0.5544393999998647,,,,,,,,,,,,,,,,,,,,,,,,,,,,,,,,,,,,,,,,,,,,,,,,,,,,,,,,,,,,ZLRJVQ,train_x,red_square,top_right,2025-06-14_12h02.38.383,HideSeek_v1,2022.2.5,59.943269689485575,
,7,6,4,6,-3,0,46,,train_dim1_1,1,30,,,,2,0,2,0,,,,,,,,,0,0,0,0,0,0,0,0,14,0,14,0,,,,,,,,,,,,,,,,,,,,,,,,,,,,,,,,,,,,,,,,,,,,,,,,,,,,,,,,,,,,,,,,30,,,,,,,,325.7308000000003,325.7308000000003,325.7308000000003,325.7308000000003,325.7308000000003,left,0.7435994000006758,0,0,0,99,0.15999999999999998,0.08,left,0.6636963000009928,,,,,,,,,,,,,,,,,,,,,,,,,,,,,,,,,,,,,,,,,,,,,,,,,,,,,,,,,,,,ZLRJVQ,train_x,red_square,top_right,2025-06-14_12h02.38.383,HideSeek_v1,2022.2.5,59.943269689485575,
,7,6,4,6,-3,0,46,,train_dim1_1,1,30,,,,2,0,2,0,,,,,,,,,0,0,0,0,0,0,0,0,15,0,15,0,,,,,,,,,,,,,,,,,,,,,,,,,,,,,,,,,,,,,,,,,,,,,,,,,,,,,,,,,,,,,,,,30,,,,,,,,326.48193079999965,326.48193079999965,326.48193079999965,326.48193079999965,326.48193079999965,left,6.231812400001218,0,0,0,99,0.07999999999999997,0.08,left,6.14965519999987,,,,,,,,,,,,,,,,,,,,,,,,,,,,,,,,,,,,,,,,,,,,,,,,,,,,,,,,,,,,ZLRJVQ,train_x,red_square,top_right,2025-06-14_12h02.38.383,HideSeek_v1,2022.2.5,59.943269689485575,
,7,6,4,6,-3,0,46,,train_dim1_1,1,30,,,,2,0,2,0,,,,,,,,,0,0,0,0,0,0,0,0,16,0,16,0,,,,,,,,,,,,,,,,,,,,,,,,,,,,,,,,,,,,,,,,,,,,,,,,,,,,,,,,,,,,,,,,30,,,,,,,,332.71937049999997,332.71937049999997,332.71937049999997,332.71937049999997,332.71937049999997,right,8.16630190000069,0,0,0,99,0.15999999999999998,0.08,right,8.080011999999442,,,,,,,,,,,,,,,,,,,,,,,,,,,,,,,,,,,,,,,,,,,,,,,,,,,,,,,,,,,,ZLRJVQ,train_x,red_square,top_right,2025-06-14_12h02.38.383,HideSeek_v1,2022.2.5,59.943269689485575,
,7,6,4,6,-3,0,46,,train_dim1_1,1,30,,,,2,0,2,0,,,,,,,,,0,0,0,0,0,0,0,0,17,0,17,0,,,,,,,,,,,,,,,,,,,,,,,,,,,,,,,,,,,,,,,,,,,,,,,,,,,,,,,,,,,,,,,,30,,,,,,,,340.8938411000008,340.8938411000008,340.8938411000008,340.8938411000008,340.8938411000008,return,2.094953899999382,1,0,0,1,0.15999999999999998,0.08,return,2.016983299999083,0,-3,0.15999999999999998,0.08,,,,,,,,,,,,,,,,,,,,,,,,,,,,,,,,,,,,,,,,,,,,,,,,,,,,,,,,ZLRJVQ,train_x,red_square,top_right,2025-06-14_12h02.38.383,HideSeek_v1,2022.2.5,59.943269689485575,
,7,9,7,9,0,0,16,,train_dim1_1,2,30,,,,2,0,2,0,,,,,,,,,0,0,0,0,0,1,1,1,0,0,0,0,,,,,,,,,,,,,,,,,,,,,,,,,stimuli/alien_stimuli/16.png,,,,,,,,,,,,,,,,,,,,,,,,,,,,,stimuli/alien_stimuli/46.png,46,7,3,,,,,,,30,,,,,,,,363.6494286999996,363.6494286999996,363.6494286999996,363.6494286999996,363.6494286999996,left,4.493489599999521,1,0,0,99,0.32,0.32,left,4.399161799999092,,,,,362.0813956000011,363.6494286999996,0.16,0.08,0.0,0.24,0.08,0.16,0.28,0.16,0.08,344.56450510000013,344.56450510000013,344.56450510000013,344.56450510000013,344.56450510000013,344.56450510000013,344.56450510000013,344.56450510000013,344.55026723000026,17.633545499998945,return,17.492242100000112,,,,,,,,,,,,,,,,,,,,,,,,,,,,,,,,,ZLRJVQ,train_x,red_square,top_right,2025-06-14_12h02.38.383,HideSeek_v1,2022.2.5,59.943269689485575,
,7,9,7,9,0,0,16,,train_dim1_1,2,30,,,,2,0,2,0,,,,,,,,,0,0,0,0,0,1,1,1,1,0,1,0,,,,,,,,,,,,,,,,,,,,,,,,,,,,,,,,,,,,,,,,,,,,,,,,,,,,,,,,,,,,,,,,30,,,,,,,,368.1396155000011,368.1396155000011,368.1396155000011,368.1396155000011,368.1396155000011,left,1.7254393000002892,1,0,0,99,0.24,0.32,left,1.6489403999994465,,,,,,,,,,,,,,,,,,,,,,,,,,,,,,,,,,,,,,,,,,,,,,,,,,,,,,,,,,,,ZLRJVQ,train_x,red_square,top_right,2025-06-14_12h02.38.383,HideSeek_v1,2022.2.5,59.943269689485575,
,7,9,7,9,0,0,16,,train_dim1_1,2,30,,,,2,0,2,0,,,,,,,,,0,0,0,0,0,1,1,1,2,0,2,0,,,,,,,,,,,,,,,,,,,,,,,,,,,,,,,,,,,,,,,,,,,,,,,,,,,,,,,,,,,,,,,,30,,,,,,,,369.87109450000116,369.87109450000116,369.87109450000116,369.87109450000116,369.87109450000116,left,3.6796624999988126,1,0,0,99,0.15999999999999998,0.32,left,3.589861800000108,,,,,,,,,,,,,,,,,,,,,,,,,,,,,,,,,,,,,,,,,,,,,,,,,,,,,,,,,,,,ZLRJVQ,train_x,red_square,top_right,2025-06-14_12h02.38.383,HideSeek_v1,2022.2.5,59.943269689485575,
,7,9,7,9,0,0,16,,train_dim1_1,2,30,,,,2,0,2,0,,,,,,,,,0,0,0,0,0,1,1,1,3,0,3,0,,,,,,,,,,,,,,,,,,,,,,,,,,,,,,,,,,,,,,,,,,,,,,,,,,,,,,,,,,,,,,,,30,,,,,,,,373.56252399999994,373.56252399999994,373.56252399999994,373.56252399999994,373.56252399999994,left,2.175315700000283,1,0,0,99,0.07999999999999997,0.32,left,2.0896043000002464,,,,,,,,,,,,,,,,,,,,,,,,,,,,,,,,,,,,,,,,,,,,,,,,,,,,,,,,,,,,ZLRJVQ,train_x,red_square,top_right,2025-06-14_12h02.38.383,HideSeek_v1,2022.2.5,59.943269689485575,
,7,9,7,9,0,0,16,,train_dim1_1,2,30,,,,2,0,2,0,,,,,,,,,0,0,0,0,0,1,1,1,4,0,4,0,,,,,,,,,,,,,,,,,,,,,,,,,,,,,,,,,,,,,,,,,,,,,,,,,,,,,,,,,,,,,,,,30,,,,,,,,375.74392999999964,375.74392999999964,375.74392999999964,375.74392999999964,375.74392999999964,left,0.5258486000002449,1,0,0,99,-2.7755575615628914e-17,0.32,left,0.44886049999968236,,,,,,,,,,,,,,,,,,,,,,,,,,,,,,,,,,,,,,,,,,,,,,,,,,,,,,,,,,,,ZLRJVQ,train_x,red_square,top_right,2025-06-14_12h02.38.383,HideSeek_v1,2022.2.5,59.943269689485575,
,7,9,7,9,0,0,16,,train_dim1_1,2,30,,,,2,0,2,0,,,,,,,,,0,0,0,0,0,1,1,1,5,0,5,0,,,,,,,,,,,,,,,,,,,,,,,,,,,,,,,,,,,,,,,,,,,,,,,,,,,,,,,,,,,,,,,,30,,,,,,,,376.2771782000009,376.2771782000009,376.2771782000009,376.2771782000009,376.2771782000009,left,0.41034570000010717,1,0,0,99,-0.08000000000000003,0.32,left,0.3289985000001252,,,,,,,,,,,,,,,,,,,,,,,,,,,,,,,,,,,,,,,,,,,,,,,,,,,,,,,,,,,,ZLRJVQ,train_x,red_square,top_right,2025-06-14_12h02.38.383,HideSeek_v1,2022.2.5,59.943269689485575,
,7,9,7,9,0,0,16,,train_dim1_1,2,30,,,,2,0,2,0,,,,,,,,,0,0,0,0,0,1,1,1,6,0,6,0,,,,,,,,,,,,,,,,,,,,,,,,,,,,,,,,,,,,,,,,,,,,,,,,,,,,,,,,,,,,,,,,30,,,,,,,,376.69376790000115,376.69376790000115,376.69376790000115,376.69376790000115,376.69376790000115,left,0.3594190999992861,1,0,0,99,-0.16000000000000003,0.32,left,0.2764080999995713,,,,,,,,,,,,,,,,,,,,,,,,,,,,,,,,,,,,,,,,,,,,,,,,,,,,,,,,,,,,ZLRJVQ,train_x,red_square,top_right,2025-06-14_12h02.38.383,HideSeek_v1,2022.2.5,59.943269689485575,
,7,9,7,9,0,0,16,,train_dim1_1,2,30,,,,2,0,2,0,,,,,,,,,0,0,0,0,0,1,1,1,7,0,7,0,,,,,,,,,,,,,,,,,,,,,,,,,,,,,,,,,,,,,,,,,,,,,,,,,,,,,,,,,,,,,,,,30,,,,,,,,377.0612494999996,377.0612494999996,377.0612494999996,377.0612494999996,377.0612494999996,return,0.4430668000004516,1,0,0,0,-0.16000000000000003,0.32,return,0.36479269999927055,0,-10,-0.16000000000000003,0.32,,,,,,,,,,,,,,,,,,,,,,,,,,,,,,,,,,,,,,,,,,,,,,,,,,,,,,,,ZLRJVQ,train_x,red_square,top_right,2025-06-14_12h02.38.383,HideSeek_v1,2022.2.5,59.943269689485575,
,9,9,8,9,-1,0,26,,train_dim1_1,3,30,,,,2,0,2,0,,,,,,,,,0,0,0,0,0,2,2,2,0,0,0,0,,,,,,,,,,,,,,,,,,,,,,,,,stimuli/alien_stimuli/26.png,,,,,,,,,,,,,,,,,,,,,,,,,,,,,stimuli/alien_stimuli/16.png,16,7,4,,,,,,,30,,,,,,,,387.59657550000065,387.59657550000065,387.59657550000065,387.59657550000065,387.59657550000065,down,5.393179200000304,1,0,0,99,0.56,0.24,down,5.302944899999602,,,,,386.0346431000007,387.59657550000065,0.4,0.32,0.0,0.0,0.32,0.4,0.4,0.4,0.32,379.08392449999974,379.08392449999974,379.08392449999974,379.08392449999974,379.08392449999974,379.08392449999974,379.08392449999974,379.08392449999974,379.0784609200005,7.075114700000995,return,6.921018800000638,,,,,,,,,,,,,,,,,,,,,,,,,,,,,,,,,ZLRJVQ,train_x,red_square,top_right,2025-06-14_12h02.38.383,HideSeek_v1,2022.2.5,59.943269689485575,
,9,9,8,9,-1,0,26,,train_dim1_1,3,30,,,,2,0,2,0,,,,,,,,,0,0,0,0,0,2,2,2,1,0,1,0,,,,,,,,,,,,,,,,,,,,,,,,,,,,,,,,,,,,,,,,,,,,,,,,,,,,,,,,,,,,,,,,30,,,,,,,,392.9910958999999,392.9910958999999,392.9910958999999,392.9910958999999,392.9910958999999,down,1.4772780999992392,1,0,0,99,0.56,0.15999999999999998,down,1.3959445999998934,,,,,,,,,,,,,,,,,,,,,,,,,,,,,,,,,,,,,,,,,,,,,,,,,,,,,,,,,,,,ZLRJVQ,train_x,red_square,top_right,2025-06-14_12h02.38.383,HideSeek_v1,2022.2.5,59.943269689485575,
,9,9,8,9,-1,0,26,,train_dim1_1,3,30,,,,2,0,2,0,,,,,,,,,0,0,0,0,0,2,2,2,2,0,2,0,,,,,,,,,,,,,,,,,,,,,,,,,,,,,,,,,,,,,,,,,,,,,,,,,,,,,,,,,,,,,,,,30,,,,,,,,394.4748461999998,394.4748461999998,394.4748461999998,394.4748461999998,394.4748461999998,down,1.3110510999995313,1,0,0,99,0.56,0.07999999999999997,down,1.2195909000010943,,,,,,,,,,,,,,,,,,,,,,,,,,,,,,,,,,,,,,,,,,,,,,,,,,,,,,,,,,,,ZLRJVQ,train_x,red_square,top_right,2025-06-14_12h02.38.383,HideSeek_v1,2022.2.5,59.943269689485575,
,9,9,8,9,-1,0,26,,train_dim1_1,3,30,,,,2,0,2,0,,,,,,,,,0,0,0,0,0,2,2,2,3,0,3,0,,,,,,,,,,,,,,,,,,,,,,,,,,,,,,,,,,,,,,,,,,,,,,,,,,,,,,,,,,,,,,,,30,,,,,,,,395.79184369999984,395.79184369999984,395.79184369999984,395.79184369999984,395.79184369999984,down,0.476930299999367,1,0,0,99,0.56,-2.7755575615628914e-17,down,0.38746830000036425,,,,,,,,,,,,,,,,,,,,,,,,,,,,,,,,,,,,,,,,,,,,,,,,,,,,,,,,,,,,ZLRJVQ,train_x,red_square,top_right,2025-06-14_12h02.38.383,HideSeek_v1,2022.2.5,59.943269689485575,
,9,9,8,9,-1,0,26,,train_dim1_1,3,30,,,,2,0,2,0,,,,,,,,,0,0,0,0,0,2,2,2,4,0,4,0,,,,,,,,,,,,,,,,,,,,,,,,,,,,,,,,,,,,,,,,,,,,,,,,,,,,,,,,,,,,,,,,30,,,,,,,,396.27701590000015,396.27701590000015,396.27701590000015,396.27701590000015,396.27701590000015,return,1.6102414000015415,1,0,0,0,0.56,-2.7755575615628914e-17,return,1.5293892999989112,-4,-10,0.56,-2.7755575615628914e-17,,,,,,,,,,,,,,,,,,,,,,,,,,,,,,,,,,,,,,,,,,,,,,,,,,,,,,,,ZLRJVQ,train_x,red_square,top_right,2025-06-14_12h02.38.383,HideSeek_v1,2022.2.5,59.943269689485575,
,7,8,3,8,-4,0,56,,train_dim1_1,4,30,,,,2,0,2,0,,,,,,,,,0,0,0,0,0,3,3,3,0,0,0,0,,,,,,,,,,,,,,,,,,,,,,,,,stimuli/alien_stimuli/56.png,,,,,,,,,,,,,,,,,,,,,,,,,,,,,stimuli/alien_stimuli/26.png,26,9,5,,,,,,,30,,,,,,,,405.2609827999995,405.2609827999995,405.2609827999995,405.2609827999995,405.2609827999995,left,2.2581568000005063,1,0,0,99,0.32,0.24,left,2.165691799999877,,,,,403.6993167999999,405.2609827999995,0.48,0.32,0.0,0.08,0.32,0.48,0.52,0.48,0.32,399.4747680999999,399.4747680999999,399.4747680999999,399.4747680999999,399.4747680999999,399.4747680999999,399.4747680999999,399.4747680999999,399.462423720001,4.356121999999232,return,4.207978999999796,,,,,,,,,,,,,,,,,,,,,,,,,,,,,,,,,ZLRJVQ,train_x,red_square,top_right,2025-06-14_12h02.38.383,HideSeek_v1,2022.2.5,59.943269689485575,
,7,8,3,8,-4,0,56,,train_dim1_1,4,30,,,,2,0,2,0,,,,,,,,,0,0,0,0,0,3,3,3,1,0,1,0,,,,,,,,,,,,,,,,,,,,,,,,,,,,,,,,,,,,,,,,,,,,,,,,,,,,,,,,,,,,,,,,30,,,,,,,,407.518216200001,407.518216200001,407.518216200001,407.518216200001,407.518216200001,left,0.426229599999715,1,0,0,99,0.24,0.24,left,0.3506779999997889,,,,,,,,,,,,,,,,,,,,,,,,,,,,,,,,,,,,,,,,,,,,,,,,,,,,,,,,,,,,ZLRJVQ,train_x,red_square,top_right,2025-06-14_12h02.38.383,HideSeek_v1,2022.2.5,59.943269689485575,
,7,8,3,8,-4,0,56,,train_dim1_1,4,30,,,,2,0,2,0,,,,,,,,,0,0,0,0,0,3,3,3,2,0,2,0,,,,,,,,,,,,,,,,,,,,,,,,,,,,,,,,,,,,,,,,,,,,,,,,,,,,,,,,,,,,,,,,30,,,,,,,,407.9515223999997,407.9515223999997,407.9515223999997,407.9515223999997,407.9515223999997,left,0.4931578999985504,1,0,0,99,0.15999999999999998,0.24,left,0.40835669999887614,,,,,,,,,,,,,,,,,,,,,,,,,,,,,,,,,,,,,,,,,,,,,,,,,,,,,,,,,,,,ZLRJVQ,train_x,red_square,top_right,2025-06-14_12h02.38.383,HideSeek_v1,2022.2.5,59.943269689485575,
,7,8,3,8,-4,0,56,,train_dim1_1,4,30,,,,2,0,2,0,,,,,,,,,0,0,0,0,0,3,3,3,3,0,3,0,,,,,,,,,,,,,,,,,,,,,,,,,,,,,,,,,,,,,,,,,,,,,,,,,,,,,,,,,,,,,,,,30,,,,,,,,408.45112210000025,408.45112210000025,408.45112210000025,408.45112210000025,408.45112210000025,left,0.4106814000006125,1,0,0,99,0.07999999999999997,0.24,left,0.33563609999964683,,,,,,,,,,,,,,,,,,,,,,,,,,,,,,,,,,,,,,,,,,,,,,,,,,,,,,,,,,,,ZLRJVQ,train_x,red_square,top_right,2025-06-14_12h02.38.383,HideSeek_v1,2022.2.5,59.943269689485575,
,7,8,3,8,-4,0,56,,train_dim1_1,4,30,,,,2,0,2,0,,,,,,,,,0,0,0,0,0,3,3,3,4,0,4,0,,,,,,,,,,,,,,,,,,,,,,,,,,,,,,,,,,,,,,,,,,,,,,,,,,,,,,,,,,,,,,,,30,,,,,,,,408.8685348000008,408.8685348000008,408.8685348000008,408.8685348000008,408.8685348000008,left,0.44288030000097933,1,0,0,99,-2.7755575615628914e-17,0.24,left,0.3640609999993103,,,,,,,,,,,,,,,,,,,,,,,,,,,,,,,,,,,,,,,,,,,,,,,,,,,,,,,,,,,,ZLRJVQ,train_x,red_square,top_right,2025-06-14_12h02.38.383,HideSeek_v1,2022.2.5,59.943269689485575,
,7,8,3,8,-4,0,56,,train_dim1_1,4,30,,,,2,0,2,0,,,,,,,,,0,0,0,0,0,3,3,3,5,0,5,0,,,,,,,,,,,,,,,,,,,,,,,,,,,,,,,,,,,,,,,,,,,,,,,,,,,,,,,,,,,,,,,,30,,,,,,,,409.31795760000114,409.31795760000114,409.31795760000114,409.31795760000114,409.31795760000114,return,0.7608808000004501,1,1,0,0,-2.7755575615628914e-17,0.24,return,0.6713941000007253,-4,-15,-2.7755575615628914e-17,0.24,,,,,,,,,,,,,,,,,,,,,,,,,,,,,,,,,,,,,,,,,,,,,,,,,,,,,,,,ZLRJVQ,train_x,red_square,top_right,2025-06-14_12h02.38.383,HideSeek_v1,2022.2.5,59.943269689485575,
,5,7,0,7,-5,0,66,,train_dim1_1,5,30,,,,2,0,2,0,,,,,,,,,0,0,0,0,0,4,4,4,0,0,0,0,,,,,,,,,,,,,,,,,,,,,,,,,stimuli/alien_stimuli/66.png,,,,,,,,,,,,,,,,,,,,,,,,,,,,,stimuli/alien_stimuli/56.png,56,7,6,,,,,,,30,,,,,,,,420.37054530000114,420.37054530000114,420.37054530000114,420.37054530000114,420.37054530000114,left,7.277147000000696,1,1,0,99,0.15999999999999998,0.16,left,7.193645199999992,,,,,418.8120065000012,420.37054530000114,0.08,0.24,0.0,0.32,0.24,0.08,0.24000000000000002,0.08,0.24,411.6571414,411.6571414,411.6571414,411.6571414,411.6571414,411.6571414,411.6571414,411.6571414,411.63948242999993,7.274319699999978,return,7.129048699999657,,,,,,,,,,,,,,,,,,,,,,,,,,,,,,,,,ZLRJVQ,train_x,red_square,top_right,2025-06-14_12h02.38.383,HideSeek_v1,2022.2.5,59.943269689485575,
,5,7,0,7,-5,0,66,,train_dim1_1,5,30,,,,2,0,2,0,,,,,,,,,0,0,0,0,0,4,4,4,1,0,1,0,,,,,,,,,,,,,,,,,,,,,,,,,,,,,,,,,,,,,,,,,,,,,,,,,,,,,,,,,,,,,,,,30,,,,,,,,427.64867069999946,427.64867069999946,427.64867069999946,427.64867069999946,427.64867069999946,left,0.8933331999996881,1,1,0,99,0.07999999999999997,0.16,left,0.8106772000001001,,,,,,,,,,,,,,,,,,,,,,,,,,,,,,,,,,,,,,,,,,,,,,,,,,,,,,,,,,,,ZLRJVQ,train_x,red_square,top_right,2025-06-14_12h02.38.383,HideSeek_v1,2022.2.5,59.943269689485575,
,5,7,0,7,-5,0,66,,train_dim1_1,5,30,,,,2,0,2,0,,,,,,,,,0,0,0,0,0,4,4,4,2,0,2,0,,,,,,,,,,,,,,,,,,,,,,,,,,,,,,,,,,,,,,,,,,,,,,,,,,,,,,,,,,,,,,,,30,,,,,,,,428.54818520000026,428.54818520000026,428.54818520000026,428.54818520000026,428.54818520000026,left,0.8107256000002963,1,1,0,99,-2.7755575615628914e-17,0.16,left,0.7320134000010512,,,,,,,,,,,,,,,,,,,,,,,,,,,,,,,,,,,,,,,,,,,,,,,,,,,,,,,,,,,,ZLRJVQ,train_x,red_square,top_right,2025-06-14_12h02.38.383,HideSeek_v1,2022.2.5,59.943269689485575,
,5,7,0,7,-5,0,66,,train_dim1_1,5,30,,,,2,0,2,0,,,,,,,,,0,0,0,0,0,4,4,4,3,0,3,0,,,,,,,,,,,,,,,,,,,,,,,,,,,,,,,,,,,,,,,,,,,,,,,,,,,,,,,,,,,,,,,,30,,,,,,,,429.36677110000073,429.36677110000073,429.36677110000073,429.36677110000073,429.36677110000073,left,0.5102168999983405,1,1,0,99,-0.08000000000000003,0.16,left,0.438234399999601,,,,,,,,,,,,,,,,,,,,,,,,,,,,,,,,,,,,,,,,,,,,,,,,,,,,,,,,,,,,ZLRJVQ,train_x,red_square,top_right,2025-06-14_12h02.38.383,HideSeek_v1,2022.2.5,59.943269689485575,
,5,7,0,7,-5,0,66,,train_dim1_1,5,30,,,,2,0,2,0,,,,,,,,,0,0,0,0,0,4,4,4,4,0,4,0,,,,,,,,,,,,,,,,,,,,,,,,,,,,,,,,,,,,,,,,,,,,,,,,,,,,,,,,,,,,,,,,30,,,,,,,,429.88453480000044,429.88453480000044,429.88453480000044,429.88453480000044,429.88453480000044,left,0.4268123000001651,1,1,0,99,-0.16000000000000003,0.16,left,0.349226200000885,,,,,,,,,,,,,,,,,,,,,,,,,,,,,,,,,,,,,,,,,,,,,,,,,,,,,,,,,,,,ZLRJVQ,train_x,red_square,top_right,2025-06-14_12h02.38.383,HideSeek_v1,2022.2.5,59.943269689485575,
,5,7,0,7,-5,0,66,,train_dim1_1,5,30,,,,2,0,2,0,,,,,,,,,0,0,0,0,0,4,4,4,5,0,5,0,,,,,,,,,,,,,,,,,,,,,,,,,,,,,,,,,,,,,,,,,,,,,,,,,,,,,,,,,,,,,,,,30,,,,,,,,430.3174502000011,430.3174502000011,430.3174502000011,430.3174502000011,430.3174502000011,return,0.6266395000002376,2,0,0,1,-0.16000000000000003,0.16,return,0.5448063999983788,-4,-20,-0.16000000000000003,0.16,,,,,,,,,,,,,,,,,,,,,,,,,,,,,,,,,,,,,,,,,,,,,,,,,,,,,,,,ZLRJVQ,train_x,red_square,top_right,2025-06-14_12h02.38.383,HideSeek_v1,2022.2.5,59.943269689485575,
,5,5,4,5,-1,0,26,,train_dim1_1,6,30,,,,2,0,2,0,,,,,,,,,0,0,0,0,0,5,5,5,0,0,0,0,,,,,,,,,,,,,,,,,,,,,,,,,stimuli/alien_stimuli/26.png,,,,,,,,,,,,,,,,,,,,,,,,,,,,,stimuli/alien_stimuli/66.png,66,5,7,,,,,,,30,,,,,,,,437.60579600000074,437.60579600000074,437.60579600000074,437.60579600000074,437.60579600000074,left,5.827049399998941,2,0,0,99,0.15999999999999998,0,left,5.728017100001125,,,,,436.0429890000005,437.60579600000074,-0.16,0.16,0.0,0.4,0.16,-0.16,0.039999999999999994,-0.16,0.16,432.5204375000003,432.5204375000003,432.5204375000003,432.5204375000003,432.5204375000003,432.5204375000003,432.5204375000003,432.5204375000003,432.5062536300005,3.6390128000002733,return,3.5017744999995557,,,,,,,,,,,,,,,,,,,,,,,,,,,,,,,,,ZLRJVQ,train_x,red_square,top_right,2025-06-14_12h02.38.383,HideSeek_v1,2022.2.5,59.943269689485575,
,5,5,4,5,-1,0,26,,train_dim1_1,6,30,,,,2,0,2,0,,,,,,,,,0,0,0,0,0,5,5,5,1,0,1,0,,,,,,,,,,,,,,,,,,,,,,,,,,,,,,,,,,,,,,,,,,,,,,,,,,,,,,,,,,,,,,,,30,,,,,,,,443.43526219999967,443.43526219999967,443.43526219999967,443.43526219999967,443.43526219999967,return,1.6776657000009436,3,0,0,1,0.15999999999999998,0,return,1.5943376000004719,-4,-21,0.15999999999999998,0,,,,,,,,,,,,,,,,,,,,,,,,,,,,,,,,,,,,,,,,,,,,,,,,,,,,,,,,ZLRJVQ,train_x,red_square,top_right,2025-06-14_12h02.38.383,HideSeek_v1,2022.2.5,59.943269689485575,
,8,5,3,5,-5,0,66,,train_dim1_1,7,30,,,,2,0,2,0,,,,,,,,,0,0,0,0,0,6,6,6,0,0,0,0,,,,,,,,,,,,,,,,,,,,,,,,,stimuli/alien_stimuli/66.png,,,,,,,,,,,,,,,,,,,,,,,,,,,,,stimuli/alien_stimuli/26.png,26,5,8,,,,,,,30,,,,,,,,451.2167670000008,451.2167670000008,451.2167670000008,451.2167670000008,451.2167670000008,left,1.9365283999995881,3,0,0,99,0.39999999999999997,0,left,1.8465050999993764,,,,,449.6541251999997,451.2167670000008,0.16,0,0.0,0.08,0.0,0.16,0.2,0.16,0,446.6762195000001,446.6762195000001,446.6762195000001,446.6762195000001,446.6762195000001,446.6762195000001,446.6762195000001,446.6762195000001,446.6682638300002,3.087228200000027,return,2.9527453000000605,,,,,,,,,,,,,,,,,,,,,,,,,,,,,,,,,ZLRJVQ,train_x,red_square,top_right,2025-06-14_12h02.38.383,HideSeek_v1,2022.2.5,59.943269689485575,
,8,5,3,5,-5,0,66,,train_dim1_1,7,30,,,,2,0,2,0,,,,,,,,,0,0,0,0,0,6,6,6,1,0,1,0,,,,,,,,,,,,,,,,,,,,,,,,,,,,,,,,,,,,,,,,,,,,,,,,,,,,,,,,,,,,,,,,30,,,,,,,,453.1545128000007,453.1545128000007,453.1545128000007,453.1545128000007,453.1545128000007,left,0.5089013999986491,3,0,0,99,0.31999999999999995,0,left,0.4267437999997128,,,,,,,,,,,,,,,,,,,,,,,,,,,,,,,,,,,,,,,,,,,,,,,,,,,,,,,,,,,,ZLRJVQ,train_x,red_square,top_right,2025-06-14_12h02.38.383,HideSeek_v1,2022.2.5,59.943269689485575,
,8,5,3,5,-5,0,66,,train_dim1_1,7,30,,,,2,0,2,0,,,,,,,,,0,0,0,0,0,6,6,6,2,0,2,0,,,,,,,,,,,,,,,,,,,,,,,,,,,,,,,,,,,,,,,,,,,,,,,,,,,,,,,,,,,,,,,,30,,,,,,,,453.670031300001,453.670031300001,453.670031300001,453.670031300001,453.670031300001,left,0.47703920000094513,3,0,0,99,0.23999999999999994,0,left,0.40518229999997857,,,,,,,,,,,,,,,,,,,,,,,,,,,,,,,,,,,,,,,,,,,,,,,,,,,,,,,,,,,,ZLRJVQ,train_x,red_square,top_right,2025-06-14_12h02.38.383,HideSeek_v1,2022.2.5,59.943269689485575,
,8,5,3,5,-5,0,66,,train_dim1_1,7,30,,,,2,0,2,0,,,,,,,,,0,0,0,0,0,6,6,6,3,0,3,0,,,,,,,,,,,,,,,,,,,,,,,,,,,,,,,,,,,,,,,,,,,,,,,,,,,,,,,,,,,,,,,,30,,,,,,,,454.1543260999997,454.1543260999997,454.1543260999997,454.1543260999997,454.1543260999997,left,0.4765184000007139,3,0,0,99,0.15999999999999992,0,left,0.3914754000006724,,,,,,,,,,,,,,,,,,,,,,,,,,,,,,,,,,,,,,,,,,,,,,,,,,,,,,,,,,,,ZLRJVQ,train_x,red_square,top_right,2025-06-14_12h02.38.383,HideSeek_v1,2022.2.5,59.943269689485575,
,8,5,3,5,-5,0,66,,train_dim1_1,7,30,,,,2,0,2,0,,,,,,,,,0,0,0,0,0,6,6,6,4,0,4,0,,,,,,,,,,,,,,,,,,,,,,,,,,,,,,,,,,,,,,,,,,,,,,,,,,,,,,,,,,,,,,,,30,,,,,,,,454.6374550999999,454.6374550999999,454.6374550999999,454.6374550999999,454.6374550999999,left,0.4434827999994013,3,0,0,99,0.07999999999999992,0,left,0.37171609999950306,,,,,,,,,,,,,,,,,,,,,,,,,,,,,,,,,,,,,,,,,,,,,,,,,,,,,,,,,,,,ZLRJVQ,train_x,red_square,top_right,2025-06-14_12h02.38.383,HideSeek_v1,2022.2.5,59.943269689485575,
,8,5,3,5,-5,0,66,,train_dim1_1,7,30,,,,2,0,2,0,,,,,,,,,0,0,0,0,0,6,6,6,5,0,5,0,,,,,,,,,,,,,,,,,,,,,,,,,,,,,,,,,,,,,,,,,,,,,,,,,,,,,,,,,,,,,,,,30,,,,,,,,455.08824189999996,455.08824189999996,455.08824189999996,455.08824189999996,455.08824189999996,left,1.44454339999902,3,0,0,99,-8.326672684688674e-17,0,left,1.3604255000000194,,,,,,,,,,,,,,,,,,,,,,,,,,,,,,,,,,,,,,,,,,,,,,,,,,,,,,,,,,,,ZLRJVQ,train_x,red_square,top_right,2025-06-14_12h02.38.383,HideSeek_v1,2022.2.5,59.943269689485575,
,8,5,3,5,-5,0,66,,train_dim1_1,7,30,,,,2,0,2,0,,,,,,,,,0,0,0,0,0,6,6,6,6,0,6,0,,,,,,,,,,,,,,,,,,,,,,,,,,,,,,,,,,,,,,,,,,,,,,,,,,,,,,,,,,,,,,,,30,,,,,,,,456.5401724000012,456.5401724000012,456.5401724000012,456.5401724000012,456.5401724000012,return,0.7431393999995635,3,1,0,0,-8.326672684688674e-17,0,return,0.6656852000005529,-4,-27,-8.326672684688674e-17,0,,,,,,,,,,,,,,,,,,,,,,,,,,,,,,,,,,,,,,,,,,,,,,,,,,,,,,,,ZLRJVQ,train_x,red_square,top_right,2025-06-14_12h02.38.383,HideSeek_v1,2022.2.5,59.943269689485575,
,5,9,2,9,-3,0,46,,train_dim1_1,8,30,,,,2,0,2,0,,,,,,,,,0,0,0,0,0,7,7,7,0,0,0,0,,,,,,,,,,,,,,,,,,,,,,,,,stimuli/alien_stimuli/46.png,,,,,,,,,,,,,,,,,,,,,,,,,,,,,stimuli/alien_stimuli/66.png,66,8,9,,,,,,,30,,,,,,,,463.02581310000005,463.02581310000005,463.02581310000005,463.02581310000005,463.02581310000005,down,5.693766699998378,3,1,0,99,0.24,0.24,down,5.6041801000001215,,,,,461.4637449000011,463.02581310000005,0.08,0,0.0,0.4,0.0,0.08,0.27999999999999997,0.08,0,458.86361599999964,458.86361599999964,458.86361599999964,458.86361599999964,458.86361599999964,458.86361599999964,458.86361599999964,458.86361599999964,458.84491063000075,2.721309000000474,return,2.583729199998743,,,,,,,,,,,,,,,,,,,,,,,,,,,,,,,,,ZLRJVQ,train_x,red_square,top_right,2025-06-14_12h02.38.383,HideSeek_v1,2022.2.5,59.943269689485575,
,5,9,2,9,-3,0,46,,train_dim1_1,8,30,,,,2,0,2,0,,,,,,,,,0,0,0,0,0,7,7,7,1,0,1,0,,,,,,,,,,,,,,,,,,,,,,,,,,,,,,,,,,,,,,,,,,,,,,,,,,,,,,,,,,,,,,,,30,,,,,,,,468.71661810000023,468.71661810000023,468.71661810000023,468.71661810000023,468.71661810000023,down,0.7595803000003798,3,1,0,99,0.24,0.15999999999999998,down,0.6827703999997539,,,,,,,,,,,,,,,,,,,,,,,,,,,,,,,,,,,,,,,,,,,,,,,,,,,,,,,,,,,,ZLRJVQ,train_x,red_square,top_right,2025-06-14_12h02.38.383,HideSeek_v1,2022.2.5,59.943269689485575,
,5,9,2,9,-3,0,46,,train_dim1_1,8,30,,,,2,0,2,0,,,,,,,,,0,0,0,0,0,7,7,7,2,0,2,0,,,,,,,,,,,,,,,,,,,,,,,,,,,,,,,,,,,,,,,,,,,,,,,,,,,,,,,,,,,,,,,,30,,,,,,,,469.48494669999945,469.48494669999945,469.48494669999945,469.48494669999945,469.48494669999945,down,0.3100128999994922,3,1,0,99,0.24,0.07999999999999997,down,0.23497179999958462,,,,,,,,,,,,,,,,,,,,,,,,,,,,,,,,,,,,,,,,,,,,,,,,,,,,,,,,,,,,ZLRJVQ,train_x,red_square,top_right,2025-06-14_12h02.38.383,HideSeek_v1,2022.2.5,59.943269689485575,
,5,9,2,9,-3,0,46,,train_dim1_1,8,30,,,,2,0,2,0,,,,,,,,,0,0,0,0,0,7,7,7,3,0,3,0,,,,,,,,,,,,,,,,,,,,,,,,,,,,,,,,,,,,,,,,,,,,,,,,,,,,,,,,,,,,,,,,30,,,,,,,,469.80058329999974,469.80058329999974,469.80058329999974,469.80058329999974,469.80058329999974,return,1.0942427000009047,3,0,0,0,0.24,0.07999999999999997,return,1.0103193999993891,-7,-27,0.24,0.07999999999999997,,,,,,,,,,,,,,,,,,,,,,,,,,,,,,,,,,,,,,,,,,,,,,,,,,,,,,,,ZLRJVQ,train_x,red_square,top_right,2025-06-14_12h02.38.383,HideSeek_v1,2022.2.5,59.943269689485575,
,6,5,2,5,-4,0,56,,train_dim1_1,9,30,,,,2,0,2,0,,,,,,,,,0,0,0,0,0,8,8,8,0,0,0,0,,,,,,,,,,,,,,,,,,,,,,,,,stimuli/alien_stimuli/56.png,,,,,,,,,,,,,,,,,,,,,,,,,,,,,stimuli/alien_stimuli/46.png,46,5,10,,,,,,,30,,,,,,,,476.77084080000077,476.77084080000077,476.77084080000077,476.77084080000077,476.77084080000077,right,5.241290599999047,3,0,0,99,0.4,0,right,5.160557199999857,,,,,475.2086525000004,476.77084080000077,0,0.32,0.0,0.24,0.32,0,0.12,0,0.32,472.472185900001,472.472185900001,472.472185900001,472.472185900001,472.472185900001,472.472185900001,472.472185900001,472.472185900001,472.45622203000073,2.8544610000008106,return,2.7153139000010924,,,,,,,,,,,,,,,,,,,,,,,,,,,,,,,,,ZLRJVQ,train_x,red_square,top_right,2025-06-14_12h02.38.383,HideSeek_v1,2022.2.5,59.943269689485575,
,6,5,2,5,-4,0,56,,train_dim1_1,9,30,,,,2,0,2,0,,,,,,,,,0,0,0,0,0,8,8,8,1,0,1,0,,,,,,,,,,,,,,,,,,,,,,,,,,,,,,,,,,,,,,,,,,,,,,,,,,,,,,,,,,,,,,,,30,,,,,,,,482.0131442000011,482.0131442000011,482.0131442000011,482.0131442000011,482.0131442000011,right,1.3273473999997805,3,0,0,99,0.48000000000000004,0,right,1.2430052999998225,,,,,,,,,,,,,,,,,,,,,,,,,,,,,,,,,,,,,,,,,,,,,,,,,,,,,,,,,,,,ZLRJVQ,train_x,red_square,top_right,2025-06-14_12h02.38.383,HideSeek_v1,2022.2.5,59.943269689485575,
,6,5,2,5,-4,0,56,,train_dim1_1,9,30,,,,2,0,2,0,,,,,,,,,0,0,0,0,0,8,8,8,2,0,2,0,,,,,,,,,,,,,,,,,,,,,,,,,,,,,,,,,,,,,,,,,,,,,,,,,,,,,,,,,,,,,,,,30,,,,,,,,483.34775309999986,483.34775309999986,483.34775309999986,483.34775309999986,483.34775309999986,right,0.4263993999993545,3,0,0,99,0.56,0,right,0.33747590000075434,,,,,,,,,,,,,,,,,,,,,,,,,,,,,,,,,,,,,,,,,,,,,,,,,,,,,,,,,,,,ZLRJVQ,train_x,red_square,top_right,2025-06-14_12h02.38.383,HideSeek_v1,2022.2.5,59.943269689485575,
,6,5,2,5,-4,0,56,,train_dim1_1,9,30,,,,2,0,2,0,,,,,,,,,0,0,0,0,0,8,8,8,3,0,3,0,,,,,,,,,,,,,,,,,,,,,,,,,,,,,,,,,,,,,,,,,,,,,,,,,,,,,,,,,,,,,,,,30,,,,,,,,483.7803534000004,483.7803534000004,483.7803534000004,483.7803534000004,483.7803534000004,return,0.42673829999876034,3,0,0,0,0.56,0,return,0.34031659999982367,-7,-24,0.56,0,,,,,,,,,,,,,,,,,,,,,,,,,,,,,,,,,,,,,,,,,,,,,,,,,,,,,,,,ZLRJVQ,train_x,red_square,top_right,2025-06-14_12h02.38.383,HideSeek_v1,2022.2.5,59.943269689485575,
,5,8,5,8,0,0,16,,train_dim1_1,10,30,,,,2,0,2,0,,,,,,,,,0,0,0,0,0,9,9,9,0,0,0,0,,,,,,,,,,,,,,,,,,,,,,,,,stimuli/alien_stimuli/16.png,,,,,,,,,,,,,,,,,,,,,,,,,,,,,stimuli/alien_stimuli/56.png,56,6,11,,,,,,,30,,,,,,,,489.36270460000105,489.36270460000105,489.36270460000105,489.36270460000105,489.36270460000105,return,2.305737399999998,4,0,0,1,0.24,0.24,return,2.203214100000878,-7,-24,0.24,0.24,487.7854895999999,489.36270460000105,0,0,0.0,0.32,0.0,0,0.16,0,0,485.7728348999999,485.7728348999999,485.7728348999999,485.7728348999999,485.7728348999999,485.7728348999999,485.7728348999999,485.7728348999999,485.76727083000094,2.1205202999990433,return,1.9895898999993733,,,,,,,,,,,,,,,,,,,,,,,,,,,,,,,,,ZLRJVQ,train_x,red_square,top_right,2025-06-14_12h02.38.383,HideSeek_v1,2022.2.5,59.943269689485575,
,7,7,4,7,-3,0,46,,train_dim1_1,11,30,,,,2,0,2,0,,,,,,,,,0,0,0,0,0,10,10,10,0,0,0,0,,,,,,,,,,,,,,,,,,,,,,,,,stimuli/alien_stimuli/46.png,,,,,,,,,,,,,,,,,,,,,,,,,,,,,stimuli/alien_stimuli/16.png,16,5,12,,,,,,,30,,,,,,,,496.4343307000008,496.4343307000008,496.4343307000008,496.4343307000008,496.4343307000008,left,2.0078561999998783,4,0,0,99,0.32,0.16,left,1.922295800000029,,,,,494.87494100000094,496.4343307000008,0.24,0.24,0.0,0.0,0.24,0.24,0.24,0.24,0.24,493.21335550000094,493.21335550000094,493.21335550000094,493.21335550000094,493.21335550000094,493.21335550000094,493.21335550000094,493.21335550000094,493.2070511300002,1.7704190000004019,return,1.641499999998814,,,,,,,,,,,,,,,,,,,,,,,,,,,,,,,,,ZLRJVQ,train_x,red_square,top_right,2025-06-14_12h02.38.383,HideSeek_v1,2022.2.5,59.943269689485575,
,7,7,4,7,-3,0,46,,train_dim1_1,11,30,,,,2,0,2,0,,,,,,,,,0,0,0,0,0,10,10,10,1,0,1,0,,,,,,,,,,,,,,,,,,,,,,,,,,,,,,,,,,,,,,,,,,,,,,,,,,,,,,,,,,,,,,,,30,,,,,,,,498.44016590000047,498.44016590000047,498.44016590000047,498.44016590000047,498.44016590000047,left,0.6102179000008618,4,0,0,99,0.24,0.16,left,0.5234651000000667,,,,,,,,,,,,,,,,,,,,,,,,,,,,,,,,,,,,,,,,,,,,,,,,,,,,,,,,,,,,ZLRJVQ,train_x,red_square,top_right,2025-06-14_12h02.38.383,HideSeek_v1,2022.2.5,59.943269689485575,
,7,7,4,7,-3,0,46,,train_dim1_1,11,30,,,,2,0,2,0,,,,,,,,,0,0,0,0,0,10,10,10,2,0,2,0,,,,,,,,,,,,,,,,,,,,,,,,,,,,,,,,,,,,,,,,,,,,,,,,,,,,,,,,,,,,,,,,30,,,,,,,,499.0573348000007,499.0573348000007,499.0573348000007,499.0573348000007,499.0573348000007,left,0.6265692999986641,4,0,0,99,0.15999999999999998,0.16,left,0.5524168999991161,,,,,,,,,,,,,,,,,,,,,,,,,,,,,,,,,,,,,,,,,,,,,,,,,,,,,,,,,,,,ZLRJVQ,train_x,red_square,top_right,2025-06-14_12h02.38.383,HideSeek_v1,2022.2.5,59.943269689485575,
,7,7,4,7,-3,0,46,,train_dim1_1,11,30,,,,2,0,2,0,,,,,,,,,0,0,0,0,0,10,10,10,3,0,3,0,,,,,,,,,,,,,,,,,,,,,,,,,,,,,,,,,,,,,,,,,,,,,,,,,,,,,,,,,,,,,,,,30,,,,,,,,499.6926856,499.6926856,499.6926856,499.6926856,499.6926856,return,0.5932328999988385,5,0,0,1,0.15999999999999998,0.16,return,0.5141913999987082,-7,-27,0.15999999999999998,0.16,,,,,,,,,,,,,,,,,,,,,,,,,,,,,,,,,,,,,,,,,,,,,,,,,,,,,,,,ZLRJVQ,train_x,red_square,top_right,2025-06-14_12h02.38.383,HideSeek_v1,2022.2.5,59.943269689485575,
,5,5,4,5,-1,0,26,,train_dim1_1,12,30,,,,2,0,2,0,,,,,,,,,0,0,0,0,0,11,11,11,0,0,0,0,,,,,,,,,,,,,,,,,,,,,,,,,stimuli/alien_stimuli/26.png,,,,,,,,,,,,,,,,,,,,,,,,,,,,,stimuli/alien_stimuli/46.png,46,7,13,,,,,,,30,,,,,,,,505.67697450000105,505.67697450000105,505.67697450000105,505.67697450000105,505.67697450000105,left,4.792210499999783,5,0,0,99,0.15999999999999998,0,left,4.678856400000768,,,,,504.099254400001,505.67697450000105,0.16,0.16,0.0,0.24,0.16,0.16,0.28,0.16,0.16,501.84645329999967,501.84645329999967,501.84645329999967,501.84645329999967,501.84645329999967,501.84645329999967,501.84645329999967,501.84645329999967,501.83060574000064,2.3543793999997433,return,2.223515299999235,,,,,,,,,,,,,,,,,,,,,,,,,,,,,,,,,ZLRJVQ,train_x,red_square,top_right,2025-06-14_12h02.38.383,HideSeek_v1,2022.2.5,59.943269689485575,
,5,5,4,5,-1,0,26,,train_dim1_1,12,30,,,,2,0,2,0,,,,,,,,,0,0,0,0,0,11,11,11,1,0,1,0,,,,,,,,,,,,,,,,,,,,,,,,,,,,,,,,,,,,,,,,,,,,,,,,,,,,,,,,,,,,,,,,30,,,,,,,,510.45721440000034,510.45721440000034,510.45721440000034,510.45721440000034,510.45721440000034,return,3.6786205000007612,6,0,0,1,0.15999999999999998,0,return,3.5965175000010277,-7,-28,0.15999999999999998,0,,,,,,,,,,,,,,,,,,,,,,,,,,,,,,,,,,,,,,,,,,,,,,,,,,,,,,,,ZLRJVQ,train_x,red_square,top_right,2025-06-14_12h02.38.383,HideSeek_v1,2022.2.5,59.943269689485575,
,5,9,1,9,-4,0,56,,train_dim1_1,13,30,,,,2,0,2,0,,,,,,,,,0,0,0,0,0,12,12,12,0,0,0,0,,,,,,,,,,,,,,,,,,,,,,,,,stimuli/alien_stimuli/56.png,,,,,,,,,,,,,,,,,,,,,,,,,,,,,stimuli/alien_stimuli/26.png,26,5,14,,,,,,,30,,,,,,,,518.9020150000006,518.9020150000006,518.9020150000006,518.9020150000006,518.9020150000006,left,3.2079047999995964,6,0,0,99,0.15999999999999998,0.32,left,3.0976983999998993,,,,,517.3269888000004,518.9020150000006,0.16,0,0.0,0.08,0.0,0.16,0.2,0.16,0,515.7009323000011,515.7009323000011,515.7009323000011,515.7009323000011,515.7009323000011,515.7009323000011,515.7009323000011,515.7009323000011,515.691920230001,1.7370749000001524,return,1.6022203999991689,,,,,,,,,,,,,,,,,,,,,,,,,,,,,,,,,ZLRJVQ,train_x,red_square,top_right,2025-06-14_12h02.38.383,HideSeek_v1,2022.2.5,59.943269689485575,
,5,9,1,9,-4,0,56,,train_dim1_1,13,30,,,,2,0,2,0,,,,,,,,,0,0,0,0,0,12,12,12,1,0,1,0,,,,,,,,,,,,,,,,,,,,,,,,,,,,,,,,,,,,,,,,,,,,,,,,,,,,,,,,,,,,,,,,30,,,,,,,,522.0997149000004,522.0997149000004,522.0997149000004,522.0997149000004,522.0997149000004,left,0.3566823999990447,6,0,0,99,0.07999999999999997,0.32,left,0.2816952000002857,,,,,,,,,,,,,,,,,,,,,,,,,,,,,,,,,,,,,,,,,,,,,,,,,,,,,,,,,,,,ZLRJVQ,train_x,red_square,top_right,2025-06-14_12h02.38.383,HideSeek_v1,2022.2.5,59.943269689485575,
,5,9,1,9,-4,0,56,,train_dim1_1,13,30,,,,2,0,2,0,,,,,,,,,0,0,0,0,0,12,12,12,2,0,2,0,,,,,,,,,,,,,,,,,,,,,,,,,,,,,,,,,,,,,,,,,,,,,,,,,,,,,,,,,,,,,,,,30,,,,,,,,522.4621943000011,522.4621943000011,522.4621943000011,522.4621943000011,522.4621943000011,left,0.3435053000011976,6,0,0,99,-2.7755575615628914e-17,0.32,left,0.26513210000030085,,,,,,,,,,,,,,,,,,,,,,,,,,,,,,,,,,,,,,,,,,,,,,,,,,,,,,,,,,,,ZLRJVQ,train_x,red_square,top_right,2025-06-14_12h02.38.383,HideSeek_v1,2022.2.5,59.943269689485575,
,5,9,1,9,-4,0,56,,train_dim1_1,13,30,,,,2,0,2,0,,,,,,,,,0,0,0,0,0,12,12,12,3,0,3,0,,,,,,,,,,,,,,,,,,,,,,,,,,,,,,,,,,,,,,,,,,,,,,,,,,,,,,,,,,,,,,,,30,,,,,,,,522.8128844000012,522.8128844000012,522.8128844000012,522.8128844000012,522.8128844000012,left,0.35998250000011467,6,0,0,99,-0.08000000000000003,0.32,left,0.2812759999987975,,,,,,,,,,,,,,,,,,,,,,,,,,,,,,,,,,,,,,,,,,,,,,,,,,,,,,,,,,,,ZLRJVQ,train_x,red_square,top_right,2025-06-14_12h02.38.383,HideSeek_v1,2022.2.5,59.943269689485575,
,5,9,1,9,-4,0,56,,train_dim1_1,13,30,,,,2,0,2,0,,,,,,,,,0,0,0,0,0,12,12,12,4,0,4,0,,,,,,,,,,,,,,,,,,,,,,,,,,,,,,,,,,,,,,,,,,,,,,,,,,,,,,,,,,,,,,,,30,,,,,,,,523.179331100001,523.179331100001,523.179331100001,523.179331100001,523.179331100001,left,0.3601825999994617,6,0,0,99,-0.16000000000000003,0.32,left,0.27393190000020695,,,,,,,,,,,,,,,,,,,,,,,,,,,,,,,,,,,,,,,,,,,,,,,,,,,,,,,,,,,,ZLRJVQ,train_x,red_square,top_right,2025-06-14_12h02.38.383,HideSeek_v1,2022.2.5,59.943269689485575,
,5,9,1,9,-4,0,56,,train_dim1_1,13,30,,,,2,0,2,0,,,,,,,,,0,0,0,0,0,12,12,12,5,0,5,0,,,,,,,,,,,,,,,,,,,,,,,,,,,,,,,,,,,,,,,,,,,,,,,,,,,,,,,,,,,,,,,,30,,,,,,,,523.5469996000002,523.5469996000002,523.5469996000002,523.5469996000002,523.5469996000002,return,0.37677609999991546,6,1,0,0,-0.16000000000000003,0.32,return,0.29361710000102903,-7,-33,-0.16000000000000003,0.32,,,,,,,,,,,,,,,,,,,,,,,,,,,,,,,,,,,,,,,,,,,,,,,,,,,,,,,,ZLRJVQ,train_x,red_square,top_right,2025-06-14_12h02.38.383,HideSeek_v1,2022.2.5,59.943269689485575,
,9,8,9,8,0,0,16,,train_dim1_1,14,30,,,,2,0,2,0,,,,,,,,,0,0,0,0,0,13,13,13,0,0,0,0,,,,,,,,,,,,,,,,,,,,,,,,,stimuli/alien_stimuli/16.png,,,,,,,,,,,,,,,,,,,,,,,,,,,,,stimuli/alien_stimuli/56.png,56,5,15,,,,,,,30,,,,,,,,531.5153744999998,531.5153744999998,531.5153744999998,531.5153744999998,531.5153744999998,return,1.2404401000003418,7,0,0,1,0.56,0.24,return,1.1535024000013436,-7,-33,0.56,0.24,529.9543088,531.5153744999998,-0.08,0.32,0.0,0.32,0.32,-0.08,0.07999999999999999,-0.08,0.32,525.4884181999996,525.4884181999996,525.4884181999996,525.4884181999996,525.4884181999996,525.4884181999996,525.4884181999996,525.4884181999996,525.4669991400008,4.572738900000331,return,4.4394459000004645,,,,,,,,,,,,,,,,,,,,,,,,,,,,,,,,,ZLRJVQ,train_x,red_square,top_right,2025-06-14_12h02.38.383,HideSeek_v1,2022.2.5,59.943269689485575,
,9,7,4,7,-5,0,66,,train_dim1_1,15,30,,,,2,0,2,0,,,,,,,,,0,0,0,0,0,14,14,14,0,0,0,0,,,,,,,,,,,,,,,,,,,,,,,,,stimuli/alien_stimuli/66.png,,,,,,,,,,,,,,,,,,,,,,,,,,,,,stimuli/alien_stimuli/16.png,16,9,16,,,,,,,30,,,,,,,,537.1677590999998,537.1677590999998,537.1677590999998,537.1677590999998,537.1677590999998,left,2.4581656999998813,7,0,0,99,0.48000000000000004,0.16,left,2.3654304999990927,,,,,535.6087969999999,537.1677590999998,0.56,0.24,0.0,0.0,0.24,0.56,0.56,0.56,0.24,534.3314514000003,534.3314514000003,534.3314514000003,534.3314514000003,534.3314514000003,534.3314514000003,534.3314514000003,534.3314514000003,534.32441652,1.4033724000000802,return,1.260613999999805,,,,,,,,,,,,,,,,,,,,,,,,,,,,,,,,,ZLRJVQ,train_x,red_square,top_right,2025-06-14_12h02.38.383,HideSeek_v1,2022.2.5,59.943269689485575,
,9,7,4,7,-5,0,66,,train_dim1_1,15,30,,,,2,0,2,0,,,,,,,,,0,0,0,0,0,14,14,14,1,0,1,0,,,,,,,,,,,,,,,,,,,,,,,,,,,,,,,,,,,,,,,,,,,,,,,,,,,,,,,,,,,,,,,,30,,,,,,,,539.6254634999996,539.6254634999996,539.6254634999996,539.6254634999996,539.6254634999996,left,0.45967449999989185,7,0,0,99,0.4,0.16,left,0.37878100000034465,,,,,,,,,,,,,,,,,,,,,,,,,,,,,,,,,,,,,,,,,,,,,,,,,,,,,,,,,,,,ZLRJVQ,train_x,red_square,top_right,2025-06-14_12h02.38.383,HideSeek_v1,2022.2.5,59.943269689485575,
,9,7,4,7,-5,0,66,,train_dim1_1,15,30,,,,2,0,2,0,,,,,,,,,0,0,0,0,0,14,14,14,2,0,2,0,,,,,,,,,,,,,,,,,,,,,,,,,,,,,,,,,,,,,,,,,,,,,,,,,,,,,,,,,,,,,,,,30,,,,,,,,540.0933745000011,540.0933745000011,540.0933745000011,540.0933745000011,540.0933745000011,left,0.47640969999883964,7,0,0,99,0.32,0.16,left,0.3987688999995953,,,,,,,,,,,,,,,,,,,,,,,,,,,,,,,,,,,,,,,,,,,,,,,,,,,,,,,,,,,,ZLRJVQ,train_x,red_square,top_right,2025-06-14_12h02.38.383,HideSeek_v1,2022.2.5,59.943269689485575,
,9,7,4,7,-5,0,66,,train_dim1_1,15,30,,,,2,0,2,0,,,,,,,,,0,0,0,0,0,14,14,14,3,0,3,0,,,,,,,,,,,,,,,,,,,,,,,,,,,,,,,,,,,,,,,,,,,,,,,,,,,,,,,,,,,,,,,,30,,,,,,,,540.5759929000005,540.5759929000005,540.5759929000005,540.5759929000005,540.5759929000005,left,0.42626579999887326,7,0,0,99,0.24,0.16,left,0.3393015999981799,,,,,,,,,,,,,,,,,,,,,,,,,,,,,,,,,,,,,,,,,,,,,,,,,,,,,,,,,,,,ZLRJVQ,train_x,red_square,top_right,2025-06-14_12h02.38.383,HideSeek_v1,2022.2.5,59.943269689485575,
,9,7,4,7,-5,0,66,,train_dim1_1,15,30,,,,2,0,2,0,,,,,,,,,0,0,0,0,0,14,14,14,4,0,4,0,,,,,,,,,,,,,,,,,,,,,,,,,,,,,,,,,,,,,,,,,,,,,,,,,,,,,,,,,,,,,,,,30,,,,,,,,541.0101268000008,541.0101268000008,541.0101268000008,541.0101268000008,541.0101268000008,left,0.42678540000088105,7,0,0,99,0.15999999999999998,0.16,left,0.35447369999837974,,,,,,,,,,,,,,,,,,,,,,,,,,,,,,,,,,,,,,,,,,,,,,,,,,,,,,,,,,,,ZLRJVQ,train_x,red_square,top_right,2025-06-14_12h02.38.383,HideSeek_v1,2022.2.5,59.943269689485575,
,9,7,4,7,-5,0,66,,train_dim1_1,15,30,,,,2,0,2,0,,,,,,,,,0,0,0,0,0,14,14,14,5,0,5,0,,,,,,,,,,,,,,,,,,,,,,,,,,,,,,,,,,,,,,,,,,,,,,,,,,,,,,,,,,,,,,,,30,,,,,,,,541.4429511999997,541.4429511999997,541.4429511999997,541.4429511999997,541.4429511999997,left,0.4267282000000705,7,0,0,99,0.07999999999999997,0.16,left,0.34929660000034346,,,,,,,,,,,,,,,,,,,,,,,,,,,,,,,,,,,,,,,,,,,,,,,,,,,,,,,,,,,,ZLRJVQ,train_x,red_square,top_right,2025-06-14_12h02.38.383,HideSeek_v1,2022.2.5,59.943269689485575,
,9,7,4,7,-5,0,66,,train_dim1_1,15,30,,,,2,0,2,0,,,,,,,,,0,0,0,0,0,14,14,14,6,0,6,0,,,,,,,,,,,,,,,,,,,,,,,,,,,,,,,,,,,,,,,,,,,,,,,,,,,,,,,,,,,,,,,,30,,,,,,,,541.8758150000003,541.8758150000003,541.8758150000003,541.8758150000003,541.8758150000003,left,0.42728519999946,7,0,0,99,-2.7755575615628914e-17,0.16,left,0.34091630000057194,,,,,,,,,,,,,,,,,,,,,,,,,,,,,,,,,,,,,,,,,,,,,,,,,,,,,,,,,,,,ZLRJVQ,train_x,red_square,top_right,2025-06-14_12h02.38.383,HideSeek_v1,2022.2.5,59.943269689485575,
,9,7,4,7,-5,0,66,,train_dim1_1,15,30,,,,2,0,2,0,,,,,,,,,0,0,0,0,0,14,14,14,7,0,7,0,,,,,,,,,,,,,,,,,,,,,,,,,,,,,,,,,,,,,,,,,,,,,,,,,,,,,,,,,,,,,,,,30,,,,,,,,542.3112611000006,542.3112611000006,542.3112611000006,542.3112611000006,542.3112611000006,return,0.40937060000032943,7,0,0,0,-2.7755575615628914e-17,0.16,return,0.3247013000009247,-7,-40,-2.7755575615628914e-17,0.16,,,,,,,,,,,,,,,,,,,,,,,,,,,,,,,,,,,,,,,,,,,,,,,,,,,,,,,,ZLRJVQ,train_x,red_square,top_right,2025-06-14_12h02.38.383,HideSeek_v1,2022.2.5,59.943269689485575,
,8,8,4,8,-4,0,56,,train_dim1_1,16,30,,,,2,0,2,0,,,,,,,,,0,0,0,0,0,15,15,15,0,0,0,0,,,,,,,,,,,,,,,,,,,,,,,,,stimuli/alien_stimuli/56.png,,,,,,,,,,,,,,,,,,,,,,,,,,,,,stimuli/alien_stimuli/66.png,66,9,17,,,,,,,30,,,,,,,,551.0994074,551.0994074,551.0994074,551.0994074,551.0994074,left,3.072377599999527,7,0,0,99,0.39999999999999997,0.24,left,2.98088750000079,,,,,549.5371205000001,551.0994074,0.16,0.16,0.0,0.4,0.16,0.16,0.36000000000000004,0.16,0.16,544.2822901999998,544.2822901999998,544.2822901999998,544.2822901999998,544.2822901999998,544.2822901999998,544.2822901999998,544.2822901999998,544.2660212400008,5.356438599999819,return,5.229622799998651,,,,,,,,,,,,,,,,,,,,,,,,,,,,,,,,,ZLRJVQ,train_x,red_square,top_right,2025-06-14_12h02.38.383,HideSeek_v1,2022.2.5,59.943269689485575,
,8,8,4,8,-4,0,56,,train_dim1_1,16,30,,,,2,0,2,0,,,,,,,,,0,0,0,0,0,15,15,15,1,0,1,0,,,,,,,,,,,,,,,,,,,,,,,,,,,,,,,,,,,,,,,,,,,,,,,,,,,,,,,,,,,,,,,,30,,,,,,,,554.1734332999995,554.1734332999995,554.1734332999995,554.1734332999995,554.1734332999995,left,0.3924289000005956,7,0,0,99,0.31999999999999995,0.24,left,0.31510380000054283,,,,,,,,,,,,,,,,,,,,,,,,,,,,,,,,,,,,,,,,,,,,,,,,,,,,,,,,,,,,ZLRJVQ,train_x,red_square,top_right,2025-06-14_12h02.38.383,HideSeek_v1,2022.2.5,59.943269689485575,
,8,8,4,8,-4,0,56,,train_dim1_1,16,30,,,,2,0,2,0,,,,,,,,,0,0,0,0,0,15,15,15,2,0,2,0,,,,,,,,,,,,,,,,,,,,,,,,,,,,,,,,,,,,,,,,,,,,,,,,,,,,,,,,,,,,,,,,30,,,,,,,,554.5724115000003,554.5724115000003,554.5724115000003,554.5724115000003,554.5724115000003,left,0.4265341999998782,7,0,0,99,0.23999999999999994,0.24,left,0.35019479999846226,,,,,,,,,,,,,,,,,,,,,,,,,,,,,,,,,,,,,,,,,,,,,,,,,,,,,,,,,,,,ZLRJVQ,train_x,red_square,top_right,2025-06-14_12h02.38.383,HideSeek_v1,2022.2.5,59.943269689485575,
,8,8,4,8,-4,0,56,,train_dim1_1,16,30,,,,2,0,2,0,,,,,,,,,0,0,0,0,0,15,15,15,3,0,3,0,,,,,,,,,,,,,,,,,,,,,,,,,,,,,,,,,,,,,,,,,,,,,,,,,,,,,,,,,,,,,,,,30,,,,,,,,555.0060856000009,555.0060856000009,555.0060856000009,555.0060856000009,555.0060856000009,left,0.5433503000003839,7,0,0,99,0.15999999999999992,0.24,left,0.4633942999998908,,,,,,,,,,,,,,,,,,,,,,,,,,,,,,,,,,,,,,,,,,,,,,,,,,,,,,,,,,,,ZLRJVQ,train_x,red_square,top_right,2025-06-14_12h02.38.383,HideSeek_v1,2022.2.5,59.943269689485575,
,8,8,4,8,-4,0,56,,train_dim1_1,16,30,,,,2,0,2,0,,,,,,,,,0,0,0,0,0,15,15,15,4,0,4,0,,,,,,,,,,,,,,,,,,,,,,,,,,,,,,,,,,,,,,,,,,,,,,,,,,,,,,,,,,,,,,,,30,,,,,,,,555.5567989000001,555.5567989000001,555.5567989000001,555.5567989000001,555.5567989000001,return,0.510488500000065,8,0,0,1,0.15999999999999992,0.24,return,0.43089510000118025,-7,-44,0.15999999999999992,0.24,,,,,,,,,,,,,,,,,,,,,,,,,,,,,,,,,,,,,,,,,,,,,,,,,,,,,,,,ZLRJVQ,train_x,red_square,top_right,2025-06-14_12h02.38.383,HideSeek_v1,2022.2.5,59.943269689485575,
,7,9,6,9,-1,0,26,,train_dim1_1,17,30,,,,2,0,2,0,,,,,,,,,0,0,0,0,0,16,16,16,0,0,0,0,,,,,,,,,,,,,,,,,,,,,,,,,stimuli/alien_stimuli/26.png,,,,,,,,,,,,,,,,,,,,,,,,,,,,,stimuli/alien_stimuli/56.png,56,8,18,,,,,,,30,,,,,,,,560.9540373000009,560.9540373000009,560.9540373000009,560.9540373000009,560.9540373000009,return,1.2222509999992326,8,1,0,0,0.4,0.32,return,1.123163499999464,-7,-44,0.4,0.32,559.3785736,560.9540373000009,0.16,0.24,0.0,0.32,0.24,0.16,0.32,0.16,0.24,557.6486639000004,557.6486639000004,557.6486639000004,557.6486639000004,557.6486639000004,557.6486639000004,557.6486639000004,557.6486639000004,557.6273630299997,1.853415200001109,return,1.6982649999999921,,,,,,,,,,,,,,,,,,,,,,,,,,,,,,,,,ZLRJVQ,train_x,red_square,top_right,2025-06-14_12h02.38.383,HideSeek_v1,2022.2.5,59.943269689485575,
,7,6,2,6,-5,0,66,,train_dim1_1,18,30,,,,2,0,2,0,,,,,,,,,0,0,0,0,0,17,17,17,0,0,0,0,,,,,,,,,,,,,,,,,,,,,,,,,stimuli/alien_stimuli/66.png,,,,,,,,,,,,,,,,,,,,,,,,,,,,,stimuli/alien_stimuli/26.png,26,7,19,,,,,,,30,,,,,,,,567.0755330000002,567.0755330000002,567.0755330000002,567.0755330000002,567.0755330000002,left,2.4567533999997977,8,1,0,99,0.32,0.08,left,2.377484199999344,,,,,565.5162253000008,567.0755330000002,0.32,0.32,0.0,0.08,0.32,0.32,0.36,0.32,0.32,563.7206099000005,563.7206099000005,563.7206099000005,563.7206099000005,563.7206099000005,563.7206099000005,563.7206099000005,563.7206099000005,563.698728040001,1.9035682000012457,return,1.7646233999994365,,,,,,,,,,,,,,,,,,,,,,,,,,,,,,,,,ZLRJVQ,train_x,red_square,top_right,2025-06-14_12h02.38.383,HideSeek_v1,2022.2.5,59.943269689485575,
,7,6,2,6,-5,0,66,,train_dim1_1,18,30,,,,2,0,2,0,,,,,,,,,0,0,0,0,0,17,17,17,1,0,1,0,,,,,,,,,,,,,,,,,,,,,,,,,,,,,,,,,,,,,,,,,,,,,,,,,,,,,,,,,,,,,,,,30,,,,,,,,569.5334911,569.5334911,569.5334911,569.5334911,569.5334911,left,0.47617299999910756,8,1,0,99,0.24,0.08,left,0.40281469999990804,,,,,,,,,,,,,,,,,,,,,,,,,,,,,,,,,,,,,,,,,,,,,,,,,,,,,,,,,,,,ZLRJVQ,train_x,red_square,top_right,2025-06-14_12h02.38.383,HideSeek_v1,2022.2.5,59.943269689485575,
,7,6,2,6,-5,0,66,,train_dim1_1,18,30,,,,2,0,2,0,,,,,,,,,0,0,0,0,0,17,17,17,2,0,2,0,,,,,,,,,,,,,,,,,,,,,,,,,,,,,,,,,,,,,,,,,,,,,,,,,,,,,,,,,,,,,,,,30,,,,,,,,570.0162252,570.0162252,570.0162252,570.0162252,570.0162252,left,0.42652280000038445,8,1,0,99,0.15999999999999998,0.08,left,0.34384570000020176,,,,,,,,,,,,,,,,,,,,,,,,,,,,,,,,,,,,,,,,,,,,,,,,,,,,,,,,,,,,ZLRJVQ,train_x,red_square,top_right,2025-06-14_12h02.38.383,HideSeek_v1,2022.2.5,59.943269689485575,
,7,6,2,6,-5,0,66,,train_dim1_1,18,30,,,,2,0,2,0,,,,,,,,,0,0,0,0,0,17,17,17,3,0,3,0,,,,,,,,,,,,,,,,,,,,,,,,,,,,,,,,,,,,,,,,,,,,,,,,,,,,,,,,,,,,,,,,30,,,,,,,,570.4492724000002,570.4492724000002,570.4492724000002,570.4492724000002,570.4492724000002,left,0.42705260000002454,8,1,0,99,0.07999999999999997,0.08,left,0.3470451999992292,,,,,,,,,,,,,,,,,,,,,,,,,,,,,,,,,,,,,,,,,,,,,,,,,,,,,,,,,,,,ZLRJVQ,train_x,red_square,top_right,2025-06-14_12h02.38.383,HideSeek_v1,2022.2.5,59.943269689485575,
,7,6,2,6,-5,0,66,,train_dim1_1,18,30,,,,2,0,2,0,,,,,,,,,0,0,0,0,0,17,17,17,4,0,4,0,,,,,,,,,,,,,,,,,,,,,,,,,,,,,,,,,,,,,,,,,,,,,,,,,,,,,,,,,,,,,,,,30,,,,,,,,570.8835688000008,570.8835688000008,570.8835688000008,570.8835688000008,570.8835688000008,left,0.36003290000007837,8,1,0,99,-2.7755575615628914e-17,0.08,left,0.27689269999882526,,,,,,,,,,,,,,,,,,,,,,,,,,,,,,,,,,,,,,,,,,,,,,,,,,,,,,,,,,,,ZLRJVQ,train_x,red_square,top_right,2025-06-14_12h02.38.383,HideSeek_v1,2022.2.5,59.943269689485575,
,7,6,2,6,-5,0,66,,train_dim1_1,18,30,,,,2,0,2,0,,,,,,,,,0,0,0,0,0,17,17,17,5,0,5,0,,,,,,,,,,,,,,,,,,,,,,,,,,,,,,,,,,,,,,,,,,,,,,,,,,,,,,,,,,,,,,,,30,,,,,,,,571.2513592000005,571.2513592000005,571.2513592000005,571.2513592000005,571.2513592000005,left,0.3763264999997773,8,1,0,99,-0.08000000000000003,0.08,left,0.28867389999959414,,,,,,,,,,,,,,,,,,,,,,,,,,,,,,,,,,,,,,,,,,,,,,,,,,,,,,,,,,,,ZLRJVQ,train_x,red_square,top_right,2025-06-14_12h02.38.383,HideSeek_v1,2022.2.5,59.943269689485575,
,7,6,2,6,-5,0,66,,train_dim1_1,18,30,,,,2,0,2,0,,,,,,,,,0,0,0,0,0,17,17,17,6,0,6,0,,,,,,,,,,,,,,,,,,,,,,,,,,,,,,,,,,,,,,,,,,,,,,,,,,,,,,,,,,,,,,,,30,,,,,,,,571.6355630000007,571.6355630000007,571.6355630000007,571.6355630000007,571.6355630000007,left,0.29311650000090594,8,1,0,99,-0.16000000000000003,0.08,left,0.21801669999967999,,,,,,,,,,,,,,,,,,,,,,,,,,,,,,,,,,,,,,,,,,,,,,,,,,,,,,,,,,,,ZLRJVQ,train_x,red_square,top_right,2025-06-14_12h02.38.383,HideSeek_v1,2022.2.5,59.943269689485575,
,7,6,2,6,-5,0,66,,train_dim1_1,18,30,,,,2,0,2,0,,,,,,,,,0,0,0,0,0,17,17,17,7,0,7,0,,,,,,,,,,,,,,,,,,,,,,,,,,,,,,,,,,,,,,,,,,,,,,,,,,,,,,,,,,,,,,,,30,,,,,,,,571.9346835000006,571.9346835000006,571.9346835000006,571.9346835000006,571.9346835000006,left,0.4768385000006674,8,1,0,99,-0.24000000000000005,0.08,left,0.389211399998203,,,,,,,,,,,,,,,,,,,,,,,,,,,,,,,,,,,,,,,,,,,,,,,,,,,,,,,,,,,,ZLRJVQ,train_x,red_square,top_right,2025-06-14_12h02.38.383,HideSeek_v1,2022.2.5,59.943269689485575,
,7,6,2,6,-5,0,66,,train_dim1_1,18,30,,,,2,0,2,0,,,,,,,,,0,0,0,0,0,17,17,17,8,0,8,0,,,,,,,,,,,,,,,,,,,,,,,,,,,,,,,,,,,,,,,,,,,,,,,,,,,,,,,,,,,,,,,,30,,,,,,,,572.4182140000003,572.4182140000003,572.4182140000003,572.4182140000003,572.4182140000003,left,0.7935734000002412,8,1,0,99,-0.32000000000000006,0.08,left,0.7143755999995847,,,,,,,,,,,,,,,,,,,,,,,,,,,,,,,,,,,,,,,,,,,,,,,,,,,,,,,,,,,,ZLRJVQ,train_x,red_square,top_right,2025-06-14_12h02.38.383,HideSeek_v1,2022.2.5,59.943269689485575,
,7,6,2,6,-5,0,66,,train_dim1_1,18,30,,,,2,0,2,0,,,,,,,,,0,0,0,0,0,17,17,17,9,0,9,0,,,,,,,,,,,,,,,,,,,,,,,,,,,,,,,,,,,,,,,,,,,,,,,,,,,,,,,,,,,,,,,,30,,,,,,,,573.2192972000003,573.2192972000003,573.2192972000003,573.2192972000003,573.2192972000003,return,1.6944144999997661,8,0,0,0,-0.32000000000000006,0.08,return,1.6174160999989908,-7,-53,-0.32000000000000006,0.08,,,,,,,,,,,,,,,,,,,,,,,,,,,,,,,,,,,,,,,,,,,,,,,,,,,,,,,,ZLRJVQ,train_x,red_square,top_right,2025-06-14_12h02.38.383,HideSeek_v1,2022.2.5,59.943269689485575,
,5,8,2,8,-3,0,46,,train_dim1_1,19,30,,,,2,0,2,0,,,,,,,,,0,0,0,0,0,18,18,18,0,0,0,0,,,,,,,,,,,,,,,,,,,,,,,,,stimuli/alien_stimuli/46.png,,,,,,,,,,,,,,,,,,,,,,,,,,,,,stimuli/alien_stimuli/66.png,66,7,20,,,,,,,30,,,,,,,,600.0357345000002,600.0357345000002,600.0357345000002,600.0357345000002,600.0357345000002,left,4.25829049999993,8,0,0,99,0.15999999999999998,0.24,left,4.160421499999757,,,,,598.4610034999996,600.0357345000002,0,0.08,0.0,0.4,0.08,0,0.2,0,0.08,576.4753977999999,576.4753977999999,576.4753977999999,576.4753977999999,576.4753977999999,576.4753977999999,576.4753977999999,576.4753977999999,576.4590932400008,22.087680999999066,return,21.96881040000062,,,,,,,,,,,,,,,,,,,,,,,,,,,,,,,,,ZLRJVQ,train_x,red_square,top_right,2025-06-14_12h02.38.383,HideSeek_v1,2022.2.5,59.943269689485575,
,5,8,2,8,-3,0,46,,train_dim1_1,19,30,,,,2,0,2,0,,,,,,,,,0,0,0,0,0,18,18,18,1,0,1,0,,,,,,,,,,,,,,,,,,,,,,,,,,,,,,,,,,,,,,,,,,,,,,,,,,,,,,,,,,,,,,,,30,,,,,,,,604.2785547000012,604.2785547000012,604.2785547000012,604.2785547000012,604.2785547000012,left,1.277207900000576,8,0,0,99,0.07999999999999997,0.24,left,1.200410100001136,,,,,,,,,,,,,,,,,,,,,,,,,,,,,,,,,,,,,,,,,,,,,,,,,,,,,,,,,,,,ZLRJVQ,train_x,red_square,top_right,2025-06-14_12h02.38.383,HideSeek_v1,2022.2.5,59.943269689485575,
,5,8,2,8,-3,0,46,,train_dim1_1,19,30,,,,2,0,2,0,,,,,,,,,0,0,0,0,0,18,18,18,2,0,2,0,,,,,,,,,,,,,,,,,,,,,,,,,,,,,,,,,,,,,,,,,,,,,,,,,,,,,,,,,,,,,,,,30,,,,,,,,605.5638354000012,605.5638354000012,605.5638354000012,605.5638354000012,605.5638354000012,left,1.7440839999999298,8,0,0,99,-2.7755575615628914e-17,0.24,left,1.66952990000118,,,,,,,,,,,,,,,,,,,,,,,,,,,,,,,,,,,,,,,,,,,,,,,,,,,,,,,,,,,,ZLRJVQ,train_x,red_square,top_right,2025-06-14_12h02.38.383,HideSeek_v1,2022.2.5,59.943269689485575,
,5,8,2,8,-3,0,46,,train_dim1_1,19,30,,,,2,0,2,0,,,,,,,,,0,0,0,0,0,18,18,18,3,0,3,0,,,,,,,,,,,,,,,,,,,,,,,,,,,,,,,,,,,,,,,,,,,,,,,,,,,,,,,,,,,,,,,,30,,,,,,,,607.3138566000007,607.3138566000007,607.3138566000007,607.3138566000007,607.3138566000007,return,2.6285212000002502,9,0,0,1,-2.7755575615628914e-17,0.24,return,2.551764099999673,-7,-56,-2.7755575615628914e-17,0.24,,,,,,,,,,,,,,,,,,,,,,,,,,,,,,,,,,,,,,,,,,,,,,,,,,,,,,,,ZLRJVQ,train_x,red_square,top_right,2025-06-14_12h02.38.383,HideSeek_v1,2022.2.5,59.943269689485575,
,5,6,5,6,0,0,16,,train_dim1_1,20,30,,,,2,0,2,0,,,,,,,,,0,0,0,0,0,19,19,19,0,0,0,0,,,,,,,,,,,,,,,,,,,,,,,,,stimuli/alien_stimuli/16.png,,,,,,,,,,,,,,,,,,,,,,,,,,,,,stimuli/alien_stimuli/46.png,46,5,21,,,,,,,30,,,,,,,,614.5643881000005,614.5643881000005,614.5643881000005,614.5643881000005,614.5643881000005,return,1.08944960000008,10,0,0,1,0.24,0.08,return,0.9813943999988624,-7,-56,0.24,0.08,612.989635500001,614.5643881000005,0,0.24,0.0,0.24,0.24,0,0.12,0,0.24,611.5193284000006,611.5193284000006,611.5193284000006,611.5193284000006,611.5193284000006,611.5193284000006,611.5193284000006,611.5193284000006,611.5052113300003,1.5865555000000313,return,1.4401038000005428,,,,,,,,,,,,,,,,,,,,,,,,,,,,,,,,,ZLRJVQ,train_x,red_square,top_right,2025-06-14_12h02.38.383,HideSeek_v1,2022.2.5,59.943269689485575,
,9,7,6,7,-3,0,46,,train_dim1_1,21,30,,,,2,0,2,0,,,,,,,,,0,0,0,0,0,20,20,20,0,0,0,0,,,,,,,,,,,,,,,,,,,,,,,,,stimuli/alien_stimuli/46.png,,,,,,,,,,,,,,,,,,,,,,,,,,,,,stimuli/alien_stimuli/16.png,16,5,22,,,,,,,30,,,,,,,,619.8193605000006,619.8193605000006,619.8193605000006,619.8193605000006,619.8193605000006,left,1.6216717999996035,10,0,0,99,0.48000000000000004,0.16,left,1.5368610999985322,,,,,618.2606932999997,619.8193605000006,0.24,0.08,0.0,0.0,0.08,0.24,0.24,0.24,0.08,617.200286100001,617.200286100001,617.200286100001,617.200286100001,617.200286100001,617.200286100001,617.200286100001,617.200286100001,617.1929727300007,1.169621000000916,return,1.0334648999987621,,,,,,,,,,,,,,,,,,,,,,,,,,,,,,,,,ZLRJVQ,train_x,red_square,top_right,2025-06-14_12h02.38.383,HideSeek_v1,2022.2.5,59.943269689485575,
,9,7,6,7,-3,0,46,,train_dim1_1,21,30,,,,2,0,2,0,,,,,,,,,0,0,0,0,0,20,20,20,1,0,1,0,,,,,,,,,,,,,,,,,,,,,,,,,,,,,,,,,,,,,,,,,,,,,,,,,,,,,,,,,,,,,,,,30,,,,,,,,621.4429174000006,621.4429174000006,621.4429174000006,621.4429174000006,621.4429174000006,left,0.9263338000000658,10,0,0,99,0.4,0.16,left,0.846655100001044,,,,,,,,,,,,,,,,,,,,,,,,,,,,,,,,,,,,,,,,,,,,,,,,,,,,,,,,,,,,ZLRJVQ,train_x,red_square,top_right,2025-06-14_12h02.38.383,HideSeek_v1,2022.2.5,59.943269689485575,
,9,7,6,7,-3,0,46,,train_dim1_1,21,30,,,,2,0,2,0,,,,,,,,,0,0,0,0,0,20,20,20,2,0,2,0,,,,,,,,,,,,,,,,,,,,,,,,,,,,,,,,,,,,,,,,,,,,,,,,,,,,,,,,,,,,,,,,30,,,,,,,,622.3764892999998,622.3764892999998,622.3764892999998,622.3764892999998,622.3764892999998,left,0.4431389000001218,10,0,0,99,0.32,0.16,left,0.37212219999946683,,,,,,,,,,,,,,,,,,,,,,,,,,,,,,,,,,,,,,,,,,,,,,,,,,,,,,,,,,,,ZLRJVQ,train_x,red_square,top_right,2025-06-14_12h02.38.383,HideSeek_v1,2022.2.5,59.943269689485575,
,9,7,6,7,-3,0,46,,train_dim1_1,21,30,,,,2,0,2,0,,,,,,,,,0,0,0,0,0,20,20,20,3,0,3,0,,,,,,,,,,,,,,,,,,,,,,,,,,,,,,,,,,,,,,,,,,,,,,,,,,,,,,,,,,,,,,,,30,,,,,,,,622.826393100001,622.826393100001,622.826393100001,622.826393100001,622.826393100001,left,0.4601889999994455,10,0,0,99,0.24,0.16,left,0.3772536999995282,,,,,,,,,,,,,,,,,,,,,,,,,,,,,,,,,,,,,,,,,,,,,,,,,,,,,,,,,,,,ZLRJVQ,train_x,red_square,top_right,2025-06-14_12h02.38.383,HideSeek_v1,2022.2.5,59.943269689485575,
,9,7,6,7,-3,0,46,,train_dim1_1,21,30,,,,2,0,2,0,,,,,,,,,0,0,0,0,0,20,20,20,4,0,4,0,,,,,,,,,,,,,,,,,,,,,,,,,,,,,,,,,,,,,,,,,,,,,,,,,,,,,,,,,,,,,,,,30,,,,,,,,623.2942584000002,623.2942584000002,623.2942584000002,623.2942584000002,623.2942584000002,return,0.4102265000001353,10,1,0,0,0.24,0.16,return,0.33138419999977486,-7,-60,0.24,0.16,,,,,,,,,,,,,,,,,,,,,,,,,,,,,,,,,,,,,,,,,,,,,,,,,,,,,,,,ZLRJVQ,train_x,red_square,top_right,2025-06-14_12h02.38.383,HideSeek_v1,2022.2.5,59.943269689485575,
,6,5,5,5,-1,0,26,,train_dim1_1,22,30,,,,2,0,2,0,,,,,,,,,0,0,0,0,0,21,21,21,0,0,0,0,,,,,,,,,,,,,,,,,,,,,,,,,stimuli/alien_stimuli/26.png,,,,,,,,,,,,,,,,,,,,,,,,,,,,,stimuli/alien_stimuli/46.png,46,9,23,,,,,,,30,,,,,,,,633.6014098000005,633.6014098000005,633.6014098000005,633.6014098000005,633.6014098000005,left,2.723887800000739,10,1,0,99,0.24,0,left,2.6277997999995932,,,,,632.0387302999998,633.6014098000005,0.32,0.16,0.0,0.24,0.16,0.32,0.44000000000000006,0.32,0.16,625.2672181999997,625.2672181999997,625.2672181999997,625.2672181999997,625.2672181999997,625.2672181999997,625.2672181999997,625.2672181999997,625.2496925400012,6.874607199999446,return,6.750120299998343,,,,,,,,,,,,,,,,,,,,,,,,,,,,,,,,,ZLRJVQ,train_x,red_square,top_right,2025-06-14_12h02.38.383,HideSeek_v1,2022.2.5,59.943269689485575,
,6,5,5,5,-1,0,26,,train_dim1_1,22,30,,,,2,0,2,0,,,,,,,,,0,0,0,0,0,21,21,21,1,0,1,0,,,,,,,,,,,,,,,,,,,,,,,,,,,,,,,,,,,,,,,,,,,,,,,,,,,,,,,,,,,,,,,,30,,,,,,,,636.3288068000011,636.3288068000011,636.3288068000011,636.3288068000011,636.3288068000011,return,0.4577189999999973,11,0,0,1,0.24,0,return,0.3746149999997215,-7,-61,0.24,0,,,,,,,,,,,,,,,,,,,,,,,,,,,,,,,,,,,,,,,,,,,,,,,,,,,,,,,,ZLRJVQ,train_x,red_square,top_right,2025-06-14_12h02.38.383,HideSeek_v1,2022.2.5,59.943269689485575,
,7,6,2,6,-5,0,66,,train_dim1_1,23,30,,,,2,0,2,0,,,,,,,,,0,0,0,0,0,22,22,22,0,0,0,0,,,,,,,,,,,,,,,,,,,,,,,,,stimuli/alien_stimuli/66.png,,,,,,,,,,,,,,,,,,,,,,,,,,,,,stimuli/alien_stimuli/26.png,26,6,24,,,,,,,30,,,,,,,,640.8790942000005,640.8790942000005,640.8790942000005,640.8790942000005,640.8790942000005,left,1.2571805000006862,11,0,0,99,0.32,0.08,left,1.158615600000303,,,,,639.3112441000003,640.8790942000005,0.24,0,0.0,0.08,0.0,0.24,0.28,0.24,0,638.3776496,638.3776496,638.3776496,638.3776496,638.3776496,638.3776496,638.3776496,638.3776496,638.36049582,1.0696166999987327,return,0.9066113999988374,,,,,,,,,,,,,,,,,,,,,,,,,,,,,,,,,ZLRJVQ,train_x,red_square,top_right,2025-06-14_12h02.38.383,HideSeek_v1,2022.2.5,59.943269689485575,
,7,6,2,6,-5,0,66,,train_dim1_1,23,30,,,,2,0,2,0,,,,,,,,,0,0,0,0,0,22,22,22,1,0,1,0,,,,,,,,,,,,,,,,,,,,,,,,,,,,,,,,,,,,,,,,,,,,,,,,,,,,,,,,,,,,,,,,30,,,,,,,,642.1269772999995,642.1269772999995,642.1269772999995,642.1269772999995,642.1269772999995,left,0.5928832999998122,11,0,0,99,0.24,0.08,left,0.5062238000000434,,,,,,,,,,,,,,,,,,,,,,,,,,,,,,,,,,,,,,,,,,,,,,,,,,,,,,,,,,,,ZLRJVQ,train_x,red_square,top_right,2025-06-14_12h02.38.383,HideSeek_v1,2022.2.5,59.943269689485575,
,7,6,2,6,-5,0,66,,train_dim1_1,23,30,,,,2,0,2,0,,,,,,,,,0,0,0,0,0,22,22,22,2,0,2,0,,,,,,,,,,,,,,,,,,,,,,,,,,,,,,,,,,,,,,,,,,,,,,,,,,,,,,,,,,,,,,,,30,,,,,,,,642.7259003999998,642.7259003999998,642.7259003999998,642.7259003999998,642.7259003999998,left,0.5769958999990195,11,0,0,99,0.15999999999999998,0.08,left,0.4902267999996184,,,,,,,,,,,,,,,,,,,,,,,,,,,,,,,,,,,,,,,,,,,,,,,,,,,,,,,,,,,,ZLRJVQ,train_x,red_square,top_right,2025-06-14_12h02.38.383,HideSeek_v1,2022.2.5,59.943269689485575,
,7,6,2,6,-5,0,66,,train_dim1_1,23,30,,,,2,0,2,0,,,,,,,,,0,0,0,0,0,22,22,22,3,0,3,0,,,,,,,,,,,,,,,,,,,,,,,,,,,,,,,,,,,,,,,,,,,,,,,,,,,,,,,,,,,,,,,,30,,,,,,,,643.3103495000005,643.3103495000005,643.3103495000005,643.3103495000005,643.3103495000005,left,0.5600006000004214,11,0,0,99,0.07999999999999997,0.08,left,0.4847098999989612,,,,,,,,,,,,,,,,,,,,,,,,,,,,,,,,,,,,,,,,,,,,,,,,,,,,,,,,,,,,ZLRJVQ,train_x,red_square,top_right,2025-06-14_12h02.38.383,HideSeek_v1,2022.2.5,59.943269689485575,
,7,6,2,6,-5,0,66,,train_dim1_1,23,30,,,,2,0,2,0,,,,,,,,,0,0,0,0,0,22,22,22,4,0,4,0,,,,,,,,,,,,,,,,,,,,,,,,,,,,,,,,,,,,,,,,,,,,,,,,,,,,,,,,,,,,,,,,30,,,,,,,,643.8774693999994,643.8774693999994,643.8774693999994,643.8774693999994,643.8774693999994,left,0.5770225000014761,11,0,0,99,-2.7755575615628914e-17,0.08,left,0.5048183999997491,,,,,,,,,,,,,,,,,,,,,,,,,,,,,,,,,,,,,,,,,,,,,,,,,,,,,,,,,,,,ZLRJVQ,train_x,red_square,top_right,2025-06-14_12h02.38.383,HideSeek_v1,2022.2.5,59.943269689485575,
,7,6,2,6,-5,0,66,,train_dim1_1,23,30,,,,2,0,2,0,,,,,,,,,0,0,0,0,0,22,22,22,5,0,5,0,,,,,,,,,,,,,,,,,,,,,,,,,,,,,,,,,,,,,,,,,,,,,,,,,,,,,,,,,,,,,,,,30,,,,,,,,644.4613299000002,644.4613299000002,644.4613299000002,644.4613299000002,644.4613299000002,left,0.593527200000608,11,0,0,99,-0.08000000000000003,0.08,left,0.5070731000005253,,,,,,,,,,,,,,,,,,,,,,,,,,,,,,,,,,,,,,,,,,,,,,,,,,,,,,,,,,,,ZLRJVQ,train_x,red_square,top_right,2025-06-14_12h02.38.383,HideSeek_v1,2022.2.5,59.943269689485575,
,7,6,2,6,-5,0,66,,train_dim1_1,23,30,,,,2,0,2,0,,,,,,,,,0,0,0,0,0,22,22,22,6,0,6,0,,,,,,,,,,,,,,,,,,,,,,,,,,,,,,,,,,,,,,,,,,,,,,,,,,,,,,,,,,,,,,,,30,,,,,,,,645.0623655999998,645.0623655999998,645.0623655999998,645.0623655999998,645.0623655999998,left,0.5102261000010913,11,0,0,99,-0.16000000000000003,0.08,left,0.4281094000007215,,,,,,,,,,,,,,,,,,,,,,,,,,,,,,,,,,,,,,,,,,,,,,,,,,,,,,,,,,,,ZLRJVQ,train_x,red_square,top_right,2025-06-14_12h02.38.383,HideSeek_v1,2022.2.5,59.943269689485575,
,7,6,2,6,-5,0,66,,train_dim1_1,23,30,,,,2,0,2,0,,,,,,,,,0,0,0,0,0,22,22,22,7,0,7,0,,,,,,,,,,,,,,,,,,,,,,,,,,,,,,,,,,,,,,,,,,,,,,,,,,,,,,,,,,,,,,,,30,,,,,,,,645.5786070000004,645.5786070000004,645.5786070000004,645.5786070000004,645.5786070000004,left,0.5268222999984573,11,0,0,99,-0.24000000000000005,0.08,left,0.44588999999996304,,,,,,,,,,,,,,,,,,,,,,,,,,,,,,,,,,,,,,,,,,,,,,,,,,,,,,,,,,,,ZLRJVQ,train_x,red_square,top_right,2025-06-14_12h02.38.383,HideSeek_v1,2022.2.5,59.943269689485575,
,7,6,2,6,-5,0,66,,train_dim1_1,23,30,,,,2,0,2,0,,,,,,,,,0,0,0,0,0,22,22,22,8,0,8,0,,,,,,,,,,,,,,,,,,,,,,,,,,,,,,,,,,,,,,,,,,,,,,,,,,,,,,,,,,,,,,,,30,,,,,,,,646.1131405999995,646.1131405999995,646.1131405999995,646.1131405999995,646.1131405999995,left,0.5602834000001167,11,0,0,99,-0.32000000000000006,0.08,left,0.4872220000006564,,,,,,,,,,,,,,,,,,,,,,,,,,,,,,,,,,,,,,,,,,,,,,,,,,,,,,,,,,,,ZLRJVQ,train_x,red_square,top_right,2025-06-14_12h02.38.383,HideSeek_v1,2022.2.5,59.943269689485575,
,7,6,2,6,-5,0,66,,train_dim1_1,23,30,,,,2,0,2,0,,,,,,,,,0,0,0,0,0,22,22,22,9,0,9,0,,,,,,,,,,,,,,,,,,,,,,,,,,,,,,,,,,,,,,,,,,,,,,,,,,,,,,,,,,,,,,,,30,,,,,,,,646.6807140999999,646.6807140999999,646.6807140999999,646.6807140999999,646.6807140999999,left,0.6768163000015193,11,0,0,99,-0.4000000000000001,0.08,left,0.6032089999998789,,,,,,,,,,,,,,,,,,,,,,,,,,,,,,,,,,,,,,,,,,,,,,,,,,,,,,,,,,,,ZLRJVQ,train_x,red_square,top_right,2025-06-14_12h02.38.383,HideSeek_v1,2022.2.5,59.943269689485575,
,7,6,2,6,-5,0,66,,train_dim1_1,23,30,,,,2,0,2,0,,,,,,,,,0,0,0,0,0,22,22,22,10,0,10,0,,,,,,,,,,,,,,,,,,,,,,,,,,,,,,,,,,,,,,,,,,,,,,,,,,,,,,,,,,,,,,,,30,,,,,,,,647.3635635,647.3635635,647.3635635,647.3635635,647.3635635,return,0.610041199999614,11,0,0,0,-0.4000000000000001,0.08,return,0.5334195999994336,-7,-71,-0.4000000000000001,0.08,,,,,,,,,,,,,,,,,,,,,,,,,,,,,,,,,,,,,,,,,,,,,,,,,,,,,,,,ZLRJVQ,train_x,red_square,top_right,2025-06-14_12h02.38.383,HideSeek_v1,2022.2.5,59.943269689485575,
,9,9,5,9,-4,0,56,,train_dim1_1,24,30,,,,2,0,2,0,,,,,,,,,0,0,0,0,0,23,23,23,0,0,0,0,,,,,,,,,,,,,,,,,,,,,,,,,stimuli/alien_stimuli/56.png,,,,,,,,,,,,,,,,,,,,,,,,,,,,,stimuli/alien_stimuli/66.png,66,7,25,,,,,,,30,,,,,,,,652.8517929,652.8517929,652.8517929,652.8517929,652.8517929,left,6.275553800000125,11,0,0,99,0.48000000000000004,0.32,left,6.164366699999846,,,,,651.2715154999996,652.8517929,0,0.08,0.0,0.4,0.08,0,0.2,0,0.08,649.5358765999999,649.5358765999999,649.5358765999999,649.5358765999999,649.5358765999999,649.5358765999999,649.5358765999999,649.5358765999999,649.5198700399999,1.83685449999939,return,1.7105847000011636,,,,,,,,,,,,,,,,,,,,,,,,,,,,,,,,,ZLRJVQ,train_x,red_square,top_right,2025-06-14_12h02.38.383,HideSeek_v1,2022.2.5,59.943269689485575,
,9,9,5,9,-4,0,56,,train_dim1_1,24,30,,,,2,0,2,0,,,,,,,,,0,0,0,0,0,23,23,23,1,0,1,0,,,,,,,,,,,,,,,,,,,,,,,,,,,,,,,,,,,,,,,,,,,,,,,,,,,,,,,,,,,,,,,,30,,,,,,,,659.1104621000004,659.1104621000004,659.1104621000004,659.1104621000004,659.1104621000004,left,0.4597423000013805,11,0,0,99,0.4,0.32,left,0.3820425999992949,,,,,,,,,,,,,,,,,,,,,,,,,,,,,,,,,,,,,,,,,,,,,,,,,,,,,,,,,,,,ZLRJVQ,train_x,red_square,top_right,2025-06-14_12h02.38.383,HideSeek_v1,2022.2.5,59.943269689485575,
,9,9,5,9,-4,0,56,,train_dim1_1,24,30,,,,2,0,2,0,,,,,,,,,0,0,0,0,0,23,23,23,2,0,2,0,,,,,,,,,,,,,,,,,,,,,,,,,,,,,,,,,,,,,,,,,,,,,,,,,,,,,,,,,,,,,,,,30,,,,,,,,659.5760457000006,659.5760457000006,659.5760457000006,659.5760457000006,659.5760457000006,left,0.3934953999996651,11,0,0,99,0.32,0.32,left,0.31764010000097187,,,,,,,,,,,,,,,,,,,,,,,,,,,,,,,,,,,,,,,,,,,,,,,,,,,,,,,,,,,,ZLRJVQ,train_x,red_square,top_right,2025-06-14_12h02.38.383,HideSeek_v1,2022.2.5,59.943269689485575,
,9,9,5,9,-4,0,56,,train_dim1_1,24,30,,,,2,0,2,0,,,,,,,,,0,0,0,0,0,23,23,23,3,0,3,0,,,,,,,,,,,,,,,,,,,,,,,,,,,,,,,,,,,,,,,,,,,,,,,,,,,,,,,,,,,,,,,,30,,,,,,,,659.9766958999999,659.9766958999999,659.9766958999999,659.9766958999999,659.9766958999999,left,0.40988300000026356,11,0,0,99,0.24,0.32,left,0.3256260999996812,,,,,,,,,,,,,,,,,,,,,,,,,,,,,,,,,,,,,,,,,,,,,,,,,,,,,,,,,,,,ZLRJVQ,train_x,red_square,top_right,2025-06-14_12h02.38.383,HideSeek_v1,2022.2.5,59.943269689485575,
,9,9,5,9,-4,0,56,,train_dim1_1,24,30,,,,2,0,2,0,,,,,,,,,0,0,0,0,0,23,23,23,4,0,4,0,,,,,,,,,,,,,,,,,,,,,,,,,,,,,,,,,,,,,,,,,,,,,,,,,,,,,,,,,,,,,,,,30,,,,,,,,660.3939837999997,660.3939837999997,660.3939837999997,660.3939837999997,660.3939837999997,left,0.4265632000006008,11,0,0,99,0.15999999999999998,0.32,left,0.3394062999987,,,,,,,,,,,,,,,,,,,,,,,,,,,,,,,,,,,,,,,,,,,,,,,,,,,,,,,,,,,,ZLRJVQ,train_x,red_square,top_right,2025-06-14_12h02.38.383,HideSeek_v1,2022.2.5,59.943269689485575,
,9,9,5,9,-4,0,56,,train_dim1_1,24,30,,,,2,0,2,0,,,,,,,,,0,0,0,0,0,23,23,23,5,0,5,0,,,,,,,,,,,,,,,,,,,,,,,,,,,,,,,,,,,,,,,,,,,,,,,,,,,,,,,,,,,,,,,,30,,,,,,,,660.8274388,660.8274388,660.8274388,660.8274388,660.8274388,left,1.2941145000004326,11,0,0,99,0.07999999999999997,0.32,left,1.2178200999996989,,,,,,,,,,,,,,,,,,,,,,,,,,,,,,,,,,,,,,,,,,,,,,,,,,,,,,,,,,,,ZLRJVQ,train_x,red_square,top_right,2025-06-14_12h02.38.383,HideSeek_v1,2022.2.5,59.943269689485575,
,9,9,5,9,-4,0,56,,train_dim1_1,24,30,,,,2,0,2,0,,,,,,,,,0,0,0,0,0,23,23,23,6,0,6,0,,,,,,,,,,,,,,,,,,,,,,,,,,,,,,,,,,,,,,,,,,,,,,,,,,,,,,,,,,,,,,,,30,,,,,,,,662.1288047999997,662.1288047999997,662.1288047999997,662.1288047999997,662.1288047999997,right,1.5935711000001902,11,0,0,99,0.15999999999999998,0.32,right,1.5099750999988828,,,,,,,,,,,,,,,,,,,,,,,,,,,,,,,,,,,,,,,,,,,,,,,,,,,,,,,,,,,,ZLRJVQ,train_x,red_square,top_right,2025-06-14_12h02.38.383,HideSeek_v1,2022.2.5,59.943269689485575,
,9,9,5,9,-4,0,56,,train_dim1_1,24,30,,,,2,0,2,0,,,,,,,,,0,0,0,0,0,23,23,23,7,0,7,0,,,,,,,,,,,,,,,,,,,,,,,,,,,,,,,,,,,,,,,,,,,,,,,,,,,,,,,,,,,,,,,,30,,,,,,,,663.7296432000012,663.7296432000012,663.7296432000012,663.7296432000012,663.7296432000012,return,0.5271157999995921,11,1,0,0,0.15999999999999998,0.32,return,0.437352899999496,-7,-76,0.15999999999999998,0.32,,,,,,,,,,,,,,,,,,,,,,,,,,,,,,,,,,,,,,,,,,,,,,,,,,,,,,,,ZLRJVQ,train_x,red_square,top_right,2025-06-14_12h02.38.383,HideSeek_v1,2022.2.5,59.943269689485575,
,8,5,8,5,0,0,16,,train_dim1_1,25,30,,,,2,0,2,0,,,,,,,,,0,0,0,0,0,24,24,24,0,0,0,0,,,,,,,,,,,,,,,,,,,,,,,,,stimuli/alien_stimuli/16.png,,,,,,,,,,,,,,,,,,,,,,,,,,,,,stimuli/alien_stimuli/56.png,56,9,26,,,,,,,30,,,,,,,,670.2148046000011,670.2148046000011,670.2148046000011,670.2148046000011,670.2148046000011,return,1.5395685999992565,12,0,0,1,0.48,0,return,1.4418191000013394,-7,-76,0.48,0,668.6524754000011,670.2148046000011,0.24,0.32,0.0,0.32,0.32,0.24,0.4,0.24,0.32,665.8352586999999,665.8352586999999,665.8352586999999,665.8352586999999,665.8352586999999,665.8352586999999,665.8352586999999,665.8352586999999,665.8167317300008,2.937990999998874,return,2.8011515999996845,,,,,,,,,,,,,,,,,,,,,,,,,,,,,,,,,ZLRJVQ,train_x,red_square,top_right,2025-06-14_12h02.38.383,HideSeek_v1,2022.2.5,59.943269689485575,
,6,6,1,6,-5,0,66,,train_dim1_1,26,30,,,,2,0,2,0,,,,,,,,,0,0,0,0,0,25,25,25,0,0,0,0,,,,,,,,,,,,,,,,,,,,,,,,,stimuli/alien_stimuli/66.png,,,,,,,,,,,,,,,,,,,,,,,,,,,,,stimuli/alien_stimuli/16.png,16,8,27,,,,,,,30,,,,,,,,675.5842856999998,675.5842856999998,675.5842856999998,675.5842856999998,675.5842856999998,left,2.37273389999973,12,0,0,99,0.24,0.08,left,2.281548899999507,,,,,674.0236166000004,675.5842856999998,0.48,0,0.0,0.0,0.0,0.48,0.48,0.48,0,673.3323852000003,673.3323852000003,673.3323852000003,673.3323852000003,673.3323852000003,673.3323852000003,673.3323852000003,673.3323852000003,673.3226621199998,0.8202050999989297,return,0.6708355000000665,,,,,,,,,,,,,,,,,,,,,,,,,,,,,,,,,ZLRJVQ,train_x,red_square,top_right,2025-06-14_12h02.38.383,HideSeek_v1,2022.2.5,59.943269689485575,
,6,6,1,6,-5,0,66,,train_dim1_1,26,30,,,,2,0,2,0,,,,,,,,,0,0,0,0,0,25,25,25,1,0,1,0,,,,,,,,,,,,,,,,,,,,,,,,,,,,,,,,,,,,,,,,,,,,,,,,,,,,,,,,,,,,,,,,30,,,,,,,,677.9562819000012,677.9562819000012,677.9562819000012,677.9562819000012,677.9562819000012,left,0.44305769999846234,12,0,0,99,0.15999999999999998,0.08,left,0.35529049999877316,,,,,,,,,,,,,,,,,,,,,,,,,,,,,,,,,,,,,,,,,,,,,,,,,,,,,,,,,,,,ZLRJVQ,train_x,red_square,top_right,2025-06-14_12h02.38.383,HideSeek_v1,2022.2.5,59.943269689485575,
,6,6,1,6,-5,0,66,,train_dim1_1,26,30,,,,2,0,2,0,,,,,,,,,0,0,0,0,0,25,25,25,2,0,2,0,,,,,,,,,,,,,,,,,,,,,,,,,,,,,,,,,,,,,,,,,,,,,,,,,,,,,,,,,,,,,,,,30,,,,,,,,678.4055137999994,678.4055137999994,678.4055137999994,678.4055137999994,678.4055137999994,left,0.39342779999969935,12,0,0,99,0.07999999999999997,0.08,left,0.3096840999996857,,,,,,,,,,,,,,,,,,,,,,,,,,,,,,,,,,,,,,,,,,,,,,,,,,,,,,,,,,,,ZLRJVQ,train_x,red_square,top_right,2025-06-14_12h02.38.383,HideSeek_v1,2022.2.5,59.943269689485575,
,6,6,1,6,-5,0,66,,train_dim1_1,26,30,,,,2,0,2,0,,,,,,,,,0,0,0,0,0,25,25,25,3,0,3,0,,,,,,,,,,,,,,,,,,,,,,,,,,,,,,,,,,,,,,,,,,,,,,,,,,,,,,,,,,,,,,,,30,,,,,,,,678.8070169000011,678.8070169000011,678.8070169000011,678.8070169000011,678.8070169000011,left,0.3930739999996149,12,0,0,99,-2.7755575615628914e-17,0.08,left,0.3129786999988937,,,,,,,,,,,,,,,,,,,,,,,,,,,,,,,,,,,,,,,,,,,,,,,,,,,,,,,,,,,,ZLRJVQ,train_x,red_square,top_right,2025-06-14_12h02.38.383,HideSeek_v1,2022.2.5,59.943269689485575,
,6,6,1,6,-5,0,66,,train_dim1_1,26,30,,,,2,0,2,0,,,,,,,,,0,0,0,0,0,25,25,25,4,0,4,0,,,,,,,,,,,,,,,,,,,,,,,,,,,,,,,,,,,,,,,,,,,,,,,,,,,,,,,,,,,,,,,,30,,,,,,,,679.2062842000005,679.2062842000005,679.2062842000005,679.2062842000005,679.2062842000005,left,0.3602209999990009,12,0,0,99,-0.08000000000000003,0.08,left,0.28639730000122654,,,,,,,,,,,,,,,,,,,,,,,,,,,,,,,,,,,,,,,,,,,,,,,,,,,,,,,,,,,,ZLRJVQ,train_x,red_square,top_right,2025-06-14_12h02.38.383,HideSeek_v1,2022.2.5,59.943269689485575,
,6,6,1,6,-5,0,66,,train_dim1_1,26,30,,,,2,0,2,0,,,,,,,,,0,0,0,0,0,25,25,25,5,0,5,0,,,,,,,,,,,,,,,,,,,,,,,,,,,,,,,,,,,,,,,,,,,,,,,,,,,,,,,,,,,,,,,,30,,,,,,,,679.5748260000009,679.5748260000009,679.5748260000009,679.5748260000009,679.5748260000009,left,0.6599068000014086,12,0,0,99,-0.16000000000000003,0.08,left,0.5847939999994196,,,,,,,,,,,,,,,,,,,,,,,,,,,,,,,,,,,,,,,,,,,,,,,,,,,,,,,,,,,,ZLRJVQ,train_x,red_square,top_right,2025-06-14_12h02.38.383,HideSeek_v1,2022.2.5,59.943269689485575,
,6,6,1,6,-5,0,66,,train_dim1_1,26,30,,,,2,0,2,0,,,,,,,,,0,0,0,0,0,25,25,25,6,0,6,0,,,,,,,,,,,,,,,,,,,,,,,,,,,,,,,,,,,,,,,,,,,,,,,,,,,,,,,,,,,,,,,,30,,,,,,,,680.240808900001,680.240808900001,680.240808900001,680.240808900001,680.240808900001,return,0.6606384999995498,12,1,0,0,-0.16000000000000003,0.08,return,0.5728729000011299,-7,-82,-0.16000000000000003,0.08,,,,,,,,,,,,,,,,,,,,,,,,,,,,,,,,,,,,,,,,,,,,,,,,,,,,,,,,ZLRJVQ,train_x,red_square,top_right,2025-06-14_12h02.38.383,HideSeek_v1,2022.2.5,59.943269689485575,
,5,6,2,6,-3,0,46,,train_dim1_1,27,30,,,,2,0,2,0,,,,,,,,,0,0,0,0,0,26,26,26,0,0,0,0,,,,,,,,,,,,,,,,,,,,,,,,,stimuli/alien_stimuli/46.png,,,,,,,,,,,,,,,,,,,,,,,,,,,,,stimuli/alien_stimuli/66.png,66,6,28,,,,,,,30,,,,,,,,690.6444445000006,690.6444445000006,690.6444445000006,690.6444445000006,690.6444445000006,left,1.4887331999998423,12,1,0,99,0.15999999999999998,0.08,left,1.4091068999996423,,,,,689.0861312000006,690.6444445000006,-0.08,0.08,0.0,0.4,0.08,-0.08,0.12,-0.08,0.08,682.4605732000009,682.4605732000009,682.4605732000009,682.4605732000009,682.4605732000009,682.4605732000009,682.4605732000009,682.4605732000009,682.4469339400005,6.724674200000663,return,6.609276700000009,,,,,,,,,,,,,,,,,,,,,,,,,,,,,,,,,ZLRJVQ,train_x,red_square,top_right,2025-06-14_12h02.38.383,HideSeek_v1,2022.2.5,59.943269689485575,
,5,6,2,6,-3,0,46,,train_dim1_1,27,30,,,,2,0,2,0,,,,,,,,,0,0,0,0,0,26,26,26,1,0,1,0,,,,,,,,,,,,,,,,,,,,,,,,,,,,,,,,,,,,,,,,,,,,,,,,,,,,,,,,,,,,,,,,30,,,,,,,,692.1354664,692.1354664,692.1354664,692.1354664,692.1354664,left,0.375579800000196,12,1,0,99,0.07999999999999997,0.08,left,0.29568469999958324,,,,,,,,,,,,,,,,,,,,,,,,,,,,,,,,,,,,,,,,,,,,,,,,,,,,,,,,,,,,ZLRJVQ,train_x,red_square,top_right,2025-06-14_12h02.38.383,HideSeek_v1,2022.2.5,59.943269689485575,
,5,6,2,6,-3,0,46,,train_dim1_1,27,30,,,,2,0,2,0,,,,,,,,,0,0,0,0,0,26,26,26,2,0,2,0,,,,,,,,,,,,,,,,,,,,,,,,,,,,,,,,,,,,,,,,,,,,,,,,,,,,,,,,,,,,,,,,30,,,,,,,,692.5175042000001,692.5175042000001,692.5175042000001,692.5175042000001,692.5175042000001,left,0.4604034000003594,12,1,0,99,-2.7755575615628914e-17,0.08,left,0.3878534999994372,,,,,,,,,,,,,,,,,,,,,,,,,,,,,,,,,,,,,,,,,,,,,,,,,,,,,,,,,,,,ZLRJVQ,train_x,red_square,top_right,2025-06-14_12h02.38.383,HideSeek_v1,2022.2.5,59.943269689485575,
,5,6,2,6,-3,0,46,,train_dim1_1,27,30,,,,2,0,2,0,,,,,,,,,0,0,0,0,0,26,26,26,3,0,3,0,,,,,,,,,,,,,,,,,,,,,,,,,,,,,,,,,,,,,,,,,,,,,,,,,,,,,,,,,,,,,,,,30,,,,,,,,692.9854724000006,692.9854724000006,692.9854724000006,692.9854724000006,692.9854724000006,left,0.8937286000000313,12,1,0,99,-0.08000000000000003,0.08,left,0.8162846999994144,,,,,,,,,,,,,,,,,,,,,,,,,,,,,,,,,,,,,,,,,,,,,,,,,,,,,,,,,,,,ZLRJVQ,train_x,red_square,top_right,2025-06-14_12h02.38.383,HideSeek_v1,2022.2.5,59.943269689485575,
,5,6,2,6,-3,0,46,,train_dim1_1,27,30,,,,2,0,2,0,,,,,,,,,0,0,0,0,0,26,26,26,4,0,4,0,,,,,,,,,,,,,,,,,,,,,,,,,,,,,,,,,,,,,,,,,,,,,,,,,,,,,,,,,,,,,,,,30,,,,,,,,693.8858654000005,693.8858654000005,693.8858654000005,693.8858654000005,693.8858654000005,return,0.40989909999916563,12,1,0,0,-0.08000000000000003,0.08,return,0.33343779999904655,-7,-86,-0.08000000000000003,0.08,,,,,,,,,,,,,,,,,,,,,,,,,,,,,,,,,,,,,,,,,,,,,,,,,,,,,,,,ZLRJVQ,train_x,red_square,top_right,2025-06-14_12h02.38.383,HideSeek_v1,2022.2.5,59.943269689485575,
,8,6,7,6,-1,0,26,,train_dim1_1,28,30,,,,2,0,2,0,,,,,,,,,0,0,0,0,0,27,27,27,0,0,0,0,,,,,,,,,,,,,,,,,,,,,,,,,stimuli/alien_stimuli/26.png,,,,,,,,,,,,,,,,,,,,,,,,,,,,,stimuli/alien_stimuli/46.png,46,5,29,,,,,,,30,,,,,,,,700.2231789000007,700.2231789000007,700.2231789000007,700.2231789000007,700.2231789000007,left,2.1234941000002436,12,1,0,99,0.39999999999999997,0.08,left,2.041507700000693,,,,,698.6605064999994,700.2231789000007,0,0.08,0.0,0.24,0.08,0,0.12,0,0.08,695.8754753000003,695.8754753000003,695.8754753000003,695.8754753000003,695.8754753000003,695.8754753000003,695.8754753000003,695.8754753000003,695.858199830001,2.9046235000005254,return,2.763637999999446,,,,,,,,,,,,,,,,,,,,,,,,,,,,,,,,,ZLRJVQ,train_x,red_square,top_right,2025-06-14_12h02.38.383,HideSeek_v1,2022.2.5,59.943269689485575,
,8,6,7,6,-1,0,26,,train_dim1_1,28,30,,,,2,0,2,0,,,,,,,,,0,0,0,0,0,27,27,27,1,0,1,0,,,,,,,,,,,,,,,,,,,,,,,,,,,,,,,,,,,,,,,,,,,,,,,,,,,,,,,,,,,,,,,,30,,,,,,,,702.3467154,702.3467154,702.3467154,702.3467154,702.3467154,return,0.3099648999996134,13,0,0,1,0.39999999999999997,0.08,return,0.21944680000069638,-7,-87,0.39999999999999997,0.08,,,,,,,,,,,,,,,,,,,,,,,,,,,,,,,,,,,,,,,,,,,,,,,,,,,,,,,,ZLRJVQ,train_x,red_square,top_right,2025-06-14_12h02.38.383,HideSeek_v1,2022.2.5,59.943269689485575,
,9,5,5,5,-4,0,56,,train_dim1_1,29,30,,,,2,0,2,0,,,,,,,,,0,0,0,0,0,28,28,28,0,0,0,0,,,,,,,,,,,,,,,,,,,,,,,,,stimuli/alien_stimuli/56.png,,,,,,,,,,,,,,,,,,,,,,,,,,,,,stimuli/alien_stimuli/26.png,26,8,30,,,,,,,30,,,,,,,,706.3568765000009,706.3568765000009,706.3568765000009,706.3568765000009,706.3568765000009,left,1.4061681000002864,13,0,0,99,0.48000000000000004,0,left,1.296104699999887,,,,,704.7823452000002,706.3568765000009,0.4,0.08,0.0,0.08,0.08,0.4,0.44,0.4,0.08,704.2345300999996,704.2345300999996,704.2345300999996,704.2345300999996,704.2345300999996,704.2345300999996,704.2345300999996,704.2345300999996,704.2152057300004,0.6693420999999944,return,0.5182426000001215,,,,,,,,,,,,,,,,,,,,,,,,,,,,,,,,,ZLRJVQ,train_x,red_square,top_right,2025-06-14_12h02.38.383,HideSeek_v1,2022.2.5,59.943269689485575,
,9,5,5,5,-4,0,56,,train_dim1_1,29,30,,,,2,0,2,0,,,,,,,,,0,0,0,0,0,28,28,28,1,0,1,0,,,,,,,,,,,,,,,,,,,,,,,,,,,,,,,,,,,,,,,,,,,,,,,,,,,,,,,,,,,,,,,,30,,,,,,,,707.7521416000009,707.7521416000009,707.7521416000009,707.7521416000009,707.7521416000009,left,0.3745441999999457,13,0,0,99,0.4,0,left,0.2930877999997392,,,,,,,,,,,,,,,,,,,,,,,,,,,,,,,,,,,,,,,,,,,,,,,,,,,,,,,,,,,,ZLRJVQ,train_x,red_square,top_right,2025-06-14_12h02.38.383,HideSeek_v1,2022.2.5,59.943269689485575,
,9,5,5,5,-4,0,56,,train_dim1_1,29,30,,,,2,0,2,0,,,,,,,,,0,0,0,0,0,28,28,28,2,0,2,0,,,,,,,,,,,,,,,,,,,,,,,,,,,,,,,,,,,,,,,,,,,,,,,,,,,,,,,,,,,,,,,,30,,,,,,,,708.1330458000002,708.1330458000002,708.1330458000002,708.1330458000002,708.1330458000002,left,0.37695800000074087,13,0,0,99,0.32,0,left,0.2919179000009535,,,,,,,,,,,,,,,,,,,,,,,,,,,,,,,,,,,,,,,,,,,,,,,,,,,,,,,,,,,,ZLRJVQ,train_x,red_square,top_right,2025-06-14_12h02.38.383,HideSeek_v1,2022.2.5,59.943269689485575,
