trialInstr,x_fixStart,y_fixStart,x_corrSteps,y_corrSteps,x_nrSteps,y_nrSteps,alienID,trialLength,version,trialTrain,praclen,testlen,trial_label,break_on_off,beforeExpLoop.thisRepN,beforeExpLoop.thisTrialN,beforeExpLoop.thisN,beforeExpLoop.thisIndex,mini_instr_trials.thisRepN,mini_instr_trials.thisTrialN,mini_instr_trials.thisN,mini_instr_trials.thisIndex,instrLoop.thisRepN,instrLoop.thisTrialN,instrLoop.thisN,instrLoop.thisIndex,repeat_prac.thisRepN,repeat_prac.thisTrialN,repeat_prac.thisN,repeat_prac.thisIndex,trainLoop.thisRepN,trainLoop.thisTrialN,trainLoop.thisN,trainLoop.thisIndex,moveLoop_train.thisRepN,moveLoop_train.thisTrialN,moveLoop_train.thisN,moveLoop_train.thisIndex,experiment.thisRepN,experiment.thisTrialN,experiment.thisN,experiment.thisIndex,moveLoop_test.thisRepN,moveLoop_test.thisTrialN,moveLoop_test.thisN,moveLoop_test.thisIndex,mini_instr2_trials.thisRepN,mini_instr2_trials.thisTrialN,mini_instr2_trials.thisN,mini_instr2_trials.thisIndex,start_all_time,url,slideStim,audioStim,slides.started,sounds.started,nextButton.numClicks,nextButton.timesOn,nextButton.timesOff,prev_but.numClicks,prev_but.timesOn,prev_but.timesOff,alienStim,instrFile,alienStim_instr,gridImage_instr.started,startPos_3.started,key_instr.started,alienImage_3.started,sounds_1.started,key_instr.keys,key_instr.rt,all_x,all_y,FBy_corrSteps,FBy_fixStart,FBx_corrSteps,FBx_fixStart,FBy_pathSize_check,FBx_pathSize_check,gridImage_9.started,alienImageFB_3.started,startPosFB_3.started,keyFB_3.started,pathLine_ydir_2.started,pathLine_xdir_2.started,alienFace_3.started,sounds_2.started,RTFB_instr,keyFB_3.keys,keyFB_3.rt,draw_alienStim,draw_alienID,test_x,nrepcount,perfthres,percthres,earlierperf,earlystop,nextPrac,fileidx,praclen,saveACC_train,pracFile,nextPrac_train,addNrep,fileidx_endr,repExp,showearly,gridImage_4.started,startPos.started,movePos.started,key_resp.started,alienImage.started,wLy_dir,wLx_dir,x_movePos,y_movePos,buttonPress_train,RTchoice_train,cumAcctrain,aCorr,saveACC_choice,corrAns,x_movePos_end,y_movePos_end,key_resp.keys,key_resp.rt,text_2.started,text_2.stopped,aft_x_corrPos,aft_y_corrPos,y_pathSize_check,x_pathSize_check,y_pathdirY,x_pathdirY,x_pathdirX,x_corrPos,y_corrPos,gridImage_6.started,alienImageFB_2.started,startPosFB_2.started,movePosFB_2.started,keyFB_2.started,pathLine_xdir.started,pathLine_ydir.started,alienFace.started,sounds_4.started,RT_FBtrain,keyFB_2.keys,keyFB_2.rt,saveACC_pre,ACC,within_saveACC_train,earlystop_wloop,cumAcctrain_check,gridImage_3.started,alienImage_test.started,startPos_test.started,movePos_test.started,key_resp_test.started,wLy_dir_test,wLx_dir_test,buttonPress_test,RTchoice_test,cumAcctest,corrAns_test,key_resp_test.keys,key_resp_test.rt,fixation_text.started,fixation_text.stopped,total_time,end_all_time,key_resp_3.keys,slides_2.started,sounds_3.started,nextButton_2.numClicks,nextButton_2.timesOn,nextButton_2.timesOff,prev_but_2.numClicks,prev_but_2.timesOn,prev_but_2.timesOff,bye.started,participant,train_first,00_coordinate,starting corner,date,expName,psychopyVersion,frameRate,
,,,,,,,,,,,,,,,0,0,0,0,0,0,0,0,,,,,,,,,,,,,,,,,,,,,,,,,,,,,start_all_time,testround,conditions/schedules/train_y_first/blue_star_00/top_right/instructions/Slide1.png,conditions/schedules/train_y_first/blue_star_00/top_right/instructions/Audio1.wav,26.37793660000898,26.326012098928913,1,[1.3878260999917984],[1.3878339999355376],0,,,,,,,,,,,,,,,,,,,,,,,,,,,,,,,,,,,,,,,,,,,,,,,,,,,,,,,,,,,,,,,,,,,,,,,,,,,,,,,,,,,,,,,,,,,,,,,,,,,,,,,,,,,,,,,,,,,,,,,,,,,,zoe,train_y,blue_star,top_right,2024-11-18_14h12.25.454,HideSeek_v1,2022.2.5,59.984368066382295,
,,,,,,,,,,,,,,,0,0,0,0,1,0,1,0,,,,,,,,,,,,,,,,,,,,,,,,,,,,,,,conditions/schedules/train_y_first/blue_star_00/top_right/instructions/Slide2.png,conditions/schedules/train_y_first/blue_star_00/top_right/instructions/Audio2.wav,27.78202190005686,27.771543779969218,2,"[1.3878260999917984, 0.28756199998315424]","[0.014401899999938905, 0.28756890003569424]",0,,,,,,,,,,,,,,,,,,,,,,,,,,,,,,,,,,,,,,,,,,,,,,,,,,,,,,,,,,,,,,,,,,,,,,,,,,,,,,,,,,,,,,,,,,,,,,,,,,,,,,,,,,,,,,,,,,,,,,,,,,,,zoe,train_y,blue_star,top_right,2024-11-18_14h12.25.454,HideSeek_v1,2022.2.5,59.984368066382295,
,,,,,,,,,,,,,,,0,0,0,0,2,0,2,0,,,,,,,,,,,,,,,,,,,,,,,,,,,,,,,conditions/schedules/train_y_first/blue_star_00/top_right/instructions/Slide3.png,conditions/schedules/train_y_first/blue_star_00/top_right/instructions/Audio3.wav,28.13632230006624,28.138563400076237,3,"[1.3878260999917984, 0.28756199998315424, 0.25023020000662655]","[0.014401899999938905, 0.00020760006736963987, 0.2502378000644967]",0,,,,,,,,,,,,,,,,,,,,,,,,,,,,,,,,,,,,,,,,,,,,,,,,,,,,,,,,,,,,,,,,,,,,,,,,,,,,,,,,,,,,,,,,,,,,,,,,,,,,,,,,,,,,,,,,,,,,,,,,,,,,zoe,train_y,blue_star,top_right,2024-11-18_14h12.25.454,HideSeek_v1,2022.2.5,59.984368066382295,
,,,,,,,,,,,,,,,0,0,0,0,3,0,3,0,,,,,,,,,,,,,,,,,,,,,,,,,,,,,,,conditions/schedules/train_y_first/blue_star_00/top_right/instructions/Slide4.png,conditions/schedules/train_y_first/blue_star_00/top_right/instructions/Audio4.wav,28.454932800028473,28.455580000008922,4,"[1.3878260999917984, 0.28756199998315424, 0.25023020000662655, 0.24862660001963377]","[0.014401899999938905, 0.00020760006736963987, 0.2502378000644967, 0.24863340007141232]",0,,,,,,,,,,,,,,,,,,,,,,,,,,,,,,,,,,,,,,,,,,,,,,,,,,,,,,,,,,,,,,,,,,,,,,,,,,,,,,,,,,,,,,,,,,,,,,,,,,,,,,,,,,,,,,,,,,,,,,,,,,,,zoe,train_y,blue_star,top_right,2024-11-18_14h12.25.454,HideSeek_v1,2022.2.5,59.984368066382295,
,,,,,,,,,,,,,,,0,0,0,0,4,0,4,0,,,,,,,,,,,,,,,,,,,,,,,,,,,,,,,conditions/schedules/train_y_first/blue_star_00/top_right/instructions/Slide5.png,conditions/schedules/train_y_first/blue_star_00/top_right/instructions/Audio5.wav,28.76096620003227,28.75579428006895,5,"[1.3878260999917984, 0.28756199998315424, 0.25023020000662655, 0.24862660001963377, 0.3427150999195874]","[0.014401899999938905, 0.00020760006736963987, 0.2502378000644967, 0.014393299934454262, 0.34272169996984303]",0,,,,,,,,,,,,,,,,,,,,,,,,,,,,,,,,,,,,,,,,,,,,,,,,,,,,,,,,,,,,,,,,,,,,,,,,,,,,,,,,,,,,,,,,,,,,,,,,,,,,,,,,,,,,,,,,,,,,,,,,,,,,zoe,train_y,blue_star,top_right,2024-11-18_14h12.25.454,HideSeek_v1,2022.2.5,59.984368066382295,
,,,,,,,,,,,,,,,0,0,0,0,5,0,5,0,,,,,,,,,,,,,,,,,,,,,,,,,,,,,,,conditions/schedules/train_y_first/blue_star_00/top_right/instructions/Slide6.png,conditions/schedules/train_y_first/blue_star_00/top_right/instructions/Audio6.wav,29.153021699981764,29.13921686006943,6,"[1.3878260999917984, 0.28756199998315424, 0.25023020000662655, 0.24862660001963377, 0.3427150999195874, 0.21763639990240335]","[0.014401899999938905, 0.00020760006736963987, 0.2502378000644967, 0.014393299934454262, 0.014431599993258715, 0.21764309995342046]",0,,,,,,,,,,,,,,,,,,,,,,,,,,,,,,,,,,,,,,,,,,,,,,,,,,,,,,,,,,,,,,,,,,,,,,,,,,,,,,,,,,,,,,,,,,,,,,,,,,,,,,,,,,,,,,,,,,,,,,,,,,,,zoe,train_y,blue_star,top_right,2024-11-18_14h12.25.454,HideSeek_v1,2022.2.5,59.984368066382295,
,,,,,,,,,,,,,,,0,0,0,0,6,0,6,0,,,,,,,,,,,,,,,,,,,,,,,,,,,,,,,conditions/schedules/train_y_first/blue_star_00/top_right/instructions/Slide7.png,conditions/schedules/train_y_first/blue_star_00/top_right/instructions/Audio7.wav,29.42426430003252,29.422875080001543,7,"[1.3878260999917984, 0.28756199998315424, 0.25023020000662655, 0.24862660001963377, 0.3427150999195874, 0.21763639990240335, 0.23007849999703467]","[0.014401899999938905, 0.00020760006736963987, 0.2502378000644967, 0.014393299934454262, 0.014431599993258715, 0.0315305000403896, 0.23008490004576743]",0,,,,,,,,,,,,,,,,,,,,,,,,,,,,,,,,,,,,,,,,,,,,,,,,,,,,,,,,,,,,,,,,,,,,,,,,,,,,,,,,,,,,,,,,,,,,,,,,,,,,,,,,,,,,,,,,,,,,,,,,,,,,zoe,train_y,blue_star,top_right,2024-11-18_14h12.25.454,HideSeek_v1,2022.2.5,59.984368066382295,
,,,,,,,,,,,,,,,0,0,0,0,7,0,7,0,,,,,,,,,,,,,,,,,,,,,,,,,,,,,,,conditions/schedules/train_y_first/blue_star_00/top_right/instructions/Slide8.png,conditions/schedules/train_y_first/blue_star_00/top_right/instructions/Audio8.wav,29.709085799986497,29.70625128000975,8,"[1.3878260999917984, 0.28756199998315424, 0.25023020000662655, 0.24862660001963377, 0.3427150999195874, 0.21763639990240335, 0.23007849999703467, 0.29540170007385314]","[0.014401899999938905, 0.00020760006736963987, 0.2502378000644967, 0.014393299934454262, 0.014431599993258715, 0.0315305000403896, 0.031109800096601248, 0.29540790000464767]",0,,,,,,,,,,,,,,,,,,,,,,,,,,,,,,,,,,,,,,,,,,,,,,,,,,,,,,,,,,,,,,,,,,,,,,,,,,,,,,,,,,,,,,,,,,,,,,,,,,,,,,,,,,,,,,,,,,,,,,,,,,,,zoe,train_y,blue_star,top_right,2024-11-18_14h12.25.454,HideSeek_v1,2022.2.5,59.984368066382295,
,,,,,,,,,,,,,,,0,0,0,0,8,0,8,0,,,,,,,,,,,,,,,,,,,,,,,,,,,,,,,conditions/schedules/train_y_first/blue_star_00/top_right/instructions/Slide9.png,conditions/schedules/train_y_first/blue_star_00/top_right/instructions/Audio9.wav,30.055738600087352,30.056934780068698,9,"[1.3878260999917984, 0.28756199998315424, 0.25023020000662655, 0.24862660001963377, 0.3427150999195874, 0.21763639990240335, 0.23007849999703467, 0.29540170007385314, 0.29945769999176264]","[0.014401899999938905, 0.00020760006736963987, 0.2502378000644967, 0.014393299934454262, 0.014431599993258715, 0.0315305000403896, 0.031109800096601248, 0.0002071000635623932, 0.29946460004430264]",0,,,,,,,,,,,,,,,,,,,,,,,,,,,,,,,,,,,,,,,,,,,,,,,,,,,,,,,,,,,,,,,,,,,,,,,,,,,,,,,,,,,,,,,,,,,,,,,,,,,,,,,,,,,,,,,,,,,,,,,,,,,,zoe,train_y,blue_star,top_right,2024-11-18_14h12.25.454,HideSeek_v1,2022.2.5,59.984368066382295,
,,,,,,,,,,,,,,,0,0,0,0,9,0,9,0,,,,,,,,,,,,,,,,,,,,,,,,,,,,,,,conditions/schedules/train_y_first/blue_star_00/top_right/instructions/Slide10.png,conditions/schedules/train_y_first/blue_star_00/top_right/instructions/Audio10.wav,30.394166300073266,30.39038495999994,10,"[1.3878260999917984, 0.28756199998315424, 0.25023020000662655, 0.24862660001963377, 0.3427150999195874, 0.21763639990240335, 0.23007849999703467, 0.29540170007385314, 0.29945769999176264, 0.6445530999917537]","[0.014401899999938905, 0.00020760006736963987, 0.2502378000644967, 0.014393299934454262, 0.014431599993258715, 0.0315305000403896, 0.031109800096601248, 0.0002071000635623932, 0.03147819999139756, 0.6445597000420094]",0,,,,,,,,,,,,,,,,,,,,,,,,,,,,,,,,,,,,,,,,,,,,,,,,,,,,,,,,,,,,,,,,,,,,,,,,,,,,,,,,,,,,,,,,,,,,,,,,,,,,,,,,,,,,,,,,,,,,,,,,,,,,zoe,train_y,blue_star,top_right,2024-11-18_14h12.25.454,HideSeek_v1,2022.2.5,59.984368066382295,
,,,,,,,,,,,,,,,0,0,0,0,10,0,10,0,,,,,,,,,,,,,,,,,,,,,,,,,,,,,,,conditions/schedules/train_y_first/blue_star_00/top_right/instructions/Slide11.png,conditions/schedules/train_y_first/blue_star_00/top_right/instructions/Audio11.wav,31.075116400024854,31.07409916004399,11,"[1.3878260999917984, 0.28756199998315424, 0.25023020000662655, 0.24862660001963377, 0.3427150999195874, 0.21763639990240335, 0.23007849999703467, 0.29540170007385314, 0.29945769999176264, 0.6445530999917537, 2.71556080004666]","[0.014401899999938905, 0.00020760006736963987, 0.2502378000644967, 0.014393299934454262, 0.014431599993258715, 0.0315305000403896, 0.031109800096601248, 0.0002071000635623932, 0.03147819999139756, 0.030793100013397634, 2.7155676999827847]",0,,,,,,,,,,,,,,,,,,,,,,,,,,,,,,,,,,,,,,,,,,,,,,,,,,,,,,,,,,,,,,,,,,,,,,,,,,,,,,,,,,,,,,,,,,,,,,,,,,,,,,,,,,,,,,,,,,,,,,,,,,,,zoe,train_y,blue_star,top_right,2024-11-18_14h12.25.454,HideSeek_v1,2022.2.5,59.984368066382295,
,,,,,,,,,,,,,,,0,0,0,0,11,0,11,0,,,,,,,,,,,,,,,,,,,,,,,,,,,,,,,conditions/schedules/train_y_first/blue_star_00/top_right/instructions/Slide12.png,conditions/schedules/train_y_first/blue_star_00/top_right/instructions/Audio12.wav,33.84706060006283,33.843379680044016,12,"[1.3878260999917984, 0.28756199998315424, 0.25023020000662655, 0.24862660001963377, 0.3427150999195874, 0.21763639990240335, 0.23007849999703467, 0.29540170007385314, 0.29945769999176264, 0.6445530999917537, 2.71556080004666, 0.7107008000602946]","[0.014401899999938905, 0.00020760006736963987, 0.2502378000644967, 0.014393299934454262, 0.014431599993258715, 0.0315305000403896, 0.031109800096601248, 0.0002071000635623932, 0.03147819999139756, 0.030793100013397634, 0.030708300066180527, 0.7107070999918506]",0,,,,,,,,,,,,,,,,,,,,,,,,,,,,,,,,,,,,,,,,,,,,,,,,,,,,,,,,,,,,,,,,,,,,,,,,,,,,,,,,,,,,,,,,,,,,,,,,,,,,,,,,,,,,,,,,,,,,,,,,,,,,zoe,train_y,blue_star,top_right,2024-11-18_14h12.25.454,HideSeek_v1,2022.2.5,59.984368066382295,
1,5,8,5,3,0,-5,66,2,instr_dim1_1,,,,,,0,0,0,0,,,,,0,0,0,0,,,,,,,,,,,,,,,,,,,,,,,,,,,,,,,,,,,,,stimuli/alien_stimuli/66.png,conditions/schedules/train_y_first/blue_star_00/top_right/inputInstr_1.xlsx,stimuli/alien_stimuli/66.png,34.64523840008769,34.64523840008769,34.64523840008769,34.64523840008769,34.64389612004161,return,9.218734599999152,"[-0.16, -0.08, 0, 0.08, 0.16, 0.24, 0.32, 0.4, 0.48, 0.56]","[-0.4, -0.32, -0.24, -0.16, -0.08, 0, 0.08, 0.16, 0.24, 0.32]",3,8,5,5,0.4,0.0,43.999183000065386,43.999183000065386,43.999183000065386,43.999183000065386,43.999183000065386,43.999183000065386,43.999183000065386,43.98473854000913,3.40387959999498,return,3.2689024000428617,stimuli/alien_stimuli/66.png,66,5,1,,,,,,,,,,,,,,,,,,,,,,,,,,,,,,,,,,,,,,,,,,,,,,,,,,,,,,,,,,,,,,,,,,,,,,,,,,,,,,,,,,,,,,,,,zoe,train_y,blue_star,top_right,2024-11-18_14h12.25.454,HideSeek_v1,2022.2.5,59.984368066382295,
,,,,,,,,,,,30,,,,0,0,0,0,,,,,,,,,,,,,,,,,,,,,,,,,,,,,,,,,,,,,,,,,,,,,,,,,,,,,,,,,,,,,,,,,,,,,,,,,,,,,,17,0.7,0,0,99,1,30,0,conditions/schedules/train_y_first/blue_star_00/top_right/inputTrain_1.1.xlsx,99,1,1,1,0,,,,,,,,,,,,,,,,,,,,,,,,,,,,,,,,,,,,,,,,,,,,,,,,,,,,,,,,,,,,,,,,,,,,,,,,,,,zoe,train_y,blue_star,top_right,2024-11-18_14h12.25.454,HideSeek_v1,2022.2.5,59.984368066382295,
,,,,,,,,,,,,,,,1,0,1,0,0,0,0,0,,,,,,,,,,,,,,,,,,,,,,,,,,,,,,,conditions/schedules/train_y_first/blue_star_00/top_right/instructions/Slide13.png,conditions/schedules/train_y_first/blue_star_00/top_right/instructions/Audio13.wav,47.496622500009835,47.48797266000184,13,"[1.3878260999917984, 0.28756199998315424, 0.25023020000662655, 0.24862660001963377, 0.3427150999195874, 0.21763639990240335, 0.23007849999703467, 0.29540170007385314, 0.29945769999176264, 0.6445530999917537, 2.71556080004666, 0.7107008000602946, 3.0579342999262735]","[0.014401899999938905, 0.00020760006736963987, 0.2502378000644967, 0.014393299934454262, 0.014431599993258715, 0.0315305000403896, 0.031109800096601248, 0.0002071000635623932, 0.03147819999139756, 0.030793100013397634, 0.030708300066180527, 0.7107070999918506, 3.057941299979575]",0,,,,,,,,,,,,,,,,,,,,,,,,,,,,,,,,,,,,,,,,,,,,,,,,,,,,,,,,,,,,,,,,,,,,,,,,,,,,,,,,,,,,,,,,,,,,,,,,,,,,,,,,,,,,,,,,,,,,,,,,,,,,zoe,train_y,blue_star,top_right,2024-11-18_14h12.25.454,HideSeek_v1,2022.2.5,59.984368066382295,
,,,,,,,,,,,,,,,1,0,1,0,1,0,1,0,,,,,,,,,,,,,,,,,,,,,,,,,,,,,,,conditions/schedules/train_y_first/blue_star_00/top_right/instructions/Slide14.png,conditions/schedules/train_y_first/blue_star_00/top_right/instructions/Audio14.wav,50.61080790008418,50.60665078004822,14,"[1.3878260999917984, 0.28756199998315424, 0.25023020000662655, 0.24862660001963377, 0.3427150999195874, 0.21763639990240335, 0.23007849999703467, 0.29540170007385314, 0.29945769999176264, 0.6445530999917537, 2.71556080004666, 0.7107008000602946, 3.0579342999262735, 0.9527103999862447]","[0.014401899999938905, 0.00020760006736963987, 0.2502378000644967, 0.014393299934454262, 0.014431599993258715, 0.0315305000403896, 0.031109800096601248, 0.0002071000635623932, 0.03147819999139756, 0.030793100013397634, 0.030708300066180527, 0.7107070999918506, 0.00022000004537403584, 0.9527194000547752]",0,,,,,,,,,,,,,,,,,,,,,,,,,,,,,,,,,,,,,,,,,,,,,,,,,,,,,,,,,,,,,,,,,,,,,,,,,,,,,,,,,,,,,,,,,,,,,,,,,,,,,,,,,,,,,,,,,,,,,,,,,,,,zoe,train_y,blue_star,top_right,2024-11-18_14h12.25.454,HideSeek_v1,2022.2.5,59.984368066382295,
2,7,8,7,8,0,0,61,2,instr_dim1_1,,,,,,1,0,1,0,,,,,0,0,0,0,,,,,,,,,,,,,,,,,,,,,,,,,,,,,,,,,,,,,stimuli/alien_stimuli/61.png,conditions/schedules/train_y_first/blue_star_00/top_right/inputInstr_1.xlsx,stimuli/alien_stimuli/61.png,51.63953980000224,51.63953980000224,51.63953980000224,51.63953980000224,51.63086009997642,return,2.010619700071402,"[-0.16, -0.08, 0, 0.08, 0.16, 0.24, 0.32, 0.4, 0.48, 0.56]","[-0.4, -0.32, -0.24, -0.16, -0.08, 0, 0.08, 0.16, 0.24, 0.32]",8,8,7,7,0.0,0.0,53.78192390000913,53.78192390000913,53.78192390000913,53.78192390000913,53.78192390000913,53.78192390000913,53.78192390000913,53.776079640013634,3.0203943999949843,return,2.883821399998851,stimuli/alien_stimuli/61.png,61,7,2,,,,,,,,,,,,,,,,,,,,,,,,,,,,,,,,,,,,,,,,,,,,,,,,,,,,,,,,,,,,,,,,,,,,,,,,,,,,,,,,,,,,,,,,,zoe,train_y,blue_star,top_right,2024-11-18_14h12.25.454,HideSeek_v1,2022.2.5,59.984368066382295,
,,,,,,,,,,,30,,,,1,0,1,0,,,,,,,,,,,,,,,,,,,,,,,,,,,,,,,,,,,,,,,,,,,,,,,,,,,,,,,,,,,,,,,,,,,,,,,,,,,,,,17,0.7,0,0,99,1,30,0,conditions/schedules/train_y_first/blue_star_00/top_right/inputTrain_1.1.xlsx,99,1,1,1,0,,,,,,,,,,,,,,,,,,,,,,,,,,,,,,,,,,,,,,,,,,,,,,,,,,,,,,,,,,,,,,,,,,,,,,,,,,,zoe,train_y,blue_star,top_right,2024-11-18_14h12.25.454,HideSeek_v1,2022.2.5,59.984368066382295,
,,,,,,,,,,,,,,,2,0,2,0,0,0,0,0,,,,,,,,,,,,,,,,,,,,,,,,,,,,,,,conditions/schedules/train_y_first/blue_star_00/top_right/instructions/Slide15.png,conditions/schedules/train_y_first/blue_star_00/top_right/instructions/Audio15.wav,56.83447950007394,56.82880078003509,15,"[1.3878260999917984, 0.28756199998315424, 0.25023020000662655, 0.24862660001963377, 0.3427150999195874, 0.21763639990240335, 0.23007849999703467, 0.29540170007385314, 0.29945769999176264, 0.6445530999917537, 2.71556080004666, 0.7107008000602946, 3.0579342999262735, 0.9527103999862447, 2.1271263000089675]","[0.014401899999938905, 0.00020760006736963987, 0.2502378000644967, 0.014393299934454262, 0.014431599993258715, 0.0315305000403896, 0.031109800096601248, 0.0002071000635623932, 0.03147819999139756, 0.030793100013397634, 0.030708300066180527, 0.7107070999918506, 0.00022000004537403584, 0.9527194000547752, 2.127132299938239]",0,,,,,,,,,,,,,,,,,,,,,,,,,,,,,,,,,,,,,,,,,,,,,,,,,,,,,,,,,,,,,,,,,,,,,,,,,,,,,,,,,,,,,,,,,,,,,,,,,,,,,,,,,,,,,,,,,,,,,,,,,,,,zoe,train_y,blue_star,top_right,2024-11-18_14h12.25.454,HideSeek_v1,2022.2.5,59.984368066382295,
,,,,,,,,,,,,,,,2,0,2,0,1,0,1,0,,,,,,,,,,,,,,,,,,,,,,,,,,,,,,,conditions/schedules/train_y_first/blue_star_00/top_right/instructions/Slide16.png,conditions/schedules/train_y_first/blue_star_00/top_right/instructions/Audio16.wav,59.01538060000166,59.014230980048886,16,"[1.3878260999917984, 0.28756199998315424, 0.25023020000662655, 0.24862660001963377, 0.3427150999195874, 0.21763639990240335, 0.23007849999703467, 0.29540170007385314, 0.29945769999176264, 0.6445530999917537, 2.71556080004666, 0.7107008000602946, 3.0579342999262735, 0.9527103999862447, 2.1271263000089675, 0.9807326000882313]","[0.014401899999938905, 0.00020760006736963987, 0.2502378000644967, 0.014393299934454262, 0.014431599993258715, 0.0315305000403896, 0.031109800096601248, 0.0002071000635623932, 0.03147819999139756, 0.030793100013397634, 0.030708300066180527, 0.7107070999918506, 0.00022000004537403584, 0.9527194000547752, 0.03130780009087175, 0.9807388000190258]",0,,,,,,,,,,,,,,,,,,,,,,,,,,,,,,,,,,,,,,,,,,,,,,,,,,,,,,,,,,,,,,,,,,,,,,,,,,,,,,,,,,,,,,,,,,,,,,,,,,,,,,,,,,,,,,,,,,,,,,,,,,,,zoe,train_y,blue_star,top_right,2024-11-18_14h12.25.454,HideSeek_v1,2022.2.5,59.984368066382295,
,5,5,5,1,0,-4,65,,train_dim1_1,1,30,,,,2,0,2,0,,,,,,,,,0,0,0,0,0,0,0,0,0,0,0,0,,,,,,,,,,,,,,,,,,,,,,,,,stimuli/alien_stimuli/65.png,,,,,,,,,,,,,,,,,,,,,,,,,,,,,,,,,,,,,,,30,,,,,,,,60.08015819999855,60.08015819999855,60.08015819999855,60.08015819999855,60.08015819999855,0,0,0.24,0,return,2.297458600020036,0,0,0,0,0.24,0,return,2.218897999962792,,,,,,,,,,,,,,,,,,,,,,,,,,,,,,,,,,,,,,,,,,,,,,,,,,,,,,,,zoe,train_y,blue_star,top_right,2024-11-18_14h12.25.454,HideSeek_v1,2022.2.5,59.984368066382295,
,8,7,8,2,0,-5,66,,train_dim1_1,2,30,,,,2,0,2,0,,,,,,,,,0,0,0,0,0,1,1,1,0,0,0,0,,,,,,,,,,,,,,,,,,,,,,,,,stimuli/alien_stimuli/66.png,,,,,,,,,,,,,,,,,,,,,,,,,,,,,stimuli/alien_stimuli/65.png,65,5,3,,,,,,,30,,,,,,,,70.17497649998404,70.17497649998404,70.17497649998404,70.17497649998404,70.17497649998404,,,,,down,3.1747662000125274,0,0,0,99,0.48,0.08,down,3.086019800044596,68.62214320001658,70.17497649998404,0.24,-0.32,0.32,0.0,-0.16,0.24,0.24,0.24,-0.32,63.94780880003236,63.94780880003236,63.94780880003236,63.94780880003236,63.94780880003236,63.94780880003236,63.94780880003236,63.94780880003236,63.934712139994375,4.7900775000452995,return,4.654236299917102,,,,,,,,,,,,,,,,,,,,,,,,,,,,,,,,,zoe,train_y,blue_star,top_right,2024-11-18_14h12.25.454,HideSeek_v1,2022.2.5,59.984368066382295,
,8,7,8,2,0,-5,66,,train_dim1_1,2,30,,,,2,0,2,0,,,,,,,,,0,0,0,0,0,1,1,1,1,0,1,0,,,,,,,,,,,,,,,,,,,,,,,,,,,,,,,,,,,,,,,,,,,,,,,,,,,,,,,,,,,,,,,,30,,,,,,,,73.35673010000028,73.35673010000028,73.35673010000028,73.35673010000028,73.35673010000028,,,,,down,0.34258309996221215,0,0,0,99,0.48,0.0,down,0.26702179992571473,,,,,,,,,,,,,,,,,,,,,,,,,,,,,,,,,,,,,,,,,,,,,,,,,,,,,,,,zoe,train_y,blue_star,top_right,2024-11-18_14h12.25.454,HideSeek_v1,2022.2.5,59.984368066382295,
,8,7,8,2,0,-5,66,,train_dim1_1,2,30,,,,2,0,2,0,,,,,,,,,0,0,0,0,0,1,1,1,2,0,2,0,,,,,,,,,,,,,,,,,,,,,,,,,,,,,,,,,,,,,,,,,,,,,,,,,,,,,,,,,,,,,,,,30,,,,,,,,73.71122300007846,73.71122300007846,73.71122300007846,73.71122300007846,73.71122300007846,,,,,down,0.109717300045304,0,0,0,99,0.48,-0.08,down,0.031158900004811585,,,,,,,,,,,,,,,,,,,,,,,,,,,,,,,,,,,,,,,,,,,,,,,,,,,,,,,,zoe,train_y,blue_star,top_right,2024-11-18_14h12.25.454,HideSeek_v1,2022.2.5,59.984368066382295,
,8,7,8,2,0,-5,66,,train_dim1_1,2,30,,,,2,0,2,0,,,,,,,,,0,0,0,0,0,1,1,1,3,0,3,0,,,,,,,,,,,,,,,,,,,,,,,,,,,,,,,,,,,,,,,,,,,,,,,,,,,,,,,,,,,,,,,,30,,,,,,,,73.83002910006326,73.83002910006326,73.83002910006326,73.83002910006326,73.83002910006326,,,,,down,0.09366750007029623,0,0,0,99,0.48,-0.16,down,0.008389200083911419,,,,,,,,,,,,,,,,,,,,,,,,,,,,,,,,,,,,,,,,,,,,,,,,,,,,,,,,zoe,train_y,blue_star,top_right,2024-11-18_14h12.25.454,HideSeek_v1,2022.2.5,59.984368066382295,
,8,7,8,2,0,-5,66,,train_dim1_1,2,30,,,,2,0,2,0,,,,,,,,,0,0,0,0,0,1,1,1,4,0,4,0,,,,,,,,,,,,,,,,,,,,,,,,,,,,,,,,,,,,,,,,,,,,,,,,,,,,,,,,,,,,,,,,30,,,,,,,,73.92399929999374,73.92399929999374,73.92399929999374,73.92399929999374,73.92399929999374,,,,,down,2.2104136999696493,0,0,0,99,0.48,-0.24,down,2.1256113999988884,,,,,,,,,,,,,,,,,,,,,,,,,,,,,,,,,,,,,,,,,,,,,,,,,,,,,,,,zoe,train_y,blue_star,top_right,2024-11-18_14h12.25.454,HideSeek_v1,2022.2.5,59.984368066382295,
,8,7,8,2,0,-5,66,,train_dim1_1,2,30,,,,2,0,2,0,,,,,,,,,0,0,0,0,0,1,1,1,5,0,5,0,,,,,,,,,,,,,,,,,,,,,,,,,,,,,,,,,,,,,,,,,,,,,,,,,,,,,,,,,,,,,,,,30,,,,,,,,76.14195200009272,76.14195200009272,76.14195200009272,76.14195200009272,76.14195200009272,,,,,down,0.09264160005841404,0,0,0,99,0.48,-0.32,down,0.01947140006814152,,,,,,,,,,,,,,,,,,,,,,,,,,,,,,,,,,,,,,,,,,,,,,,,,,,,,,,,zoe,train_y,blue_star,top_right,2024-11-18_14h12.25.454,HideSeek_v1,2022.2.5,59.984368066382295,
,8,7,8,2,0,-5,66,,train_dim1_1,2,30,,,,2,0,2,0,,,,,,,,,0,0,0,0,0,1,1,1,6,0,6,0,,,,,,,,,,,,,,,,,,,,,,,,,,,,,,,,,,,,,,,,,,,,,,,,,,,,,,,,,,,,,,,,30,,,,,,,,76.2417552000843,76.2417552000843,76.2417552000843,76.2417552000843,76.2417552000843,,,,,up,1.6610571999335662,0,0,0,99,0.48,-0.24,up,1.573287000064738,,,,,,,,,,,,,,,,,,,,,,,,,,,,,,,,,,,,,,,,,,,,,,,,,,,,,,,,zoe,train_y,blue_star,top_right,2024-11-18_14h12.25.454,HideSeek_v1,2022.2.5,59.984368066382295,
,8,7,8,2,0,-5,66,,train_dim1_1,2,30,,,,2,0,2,0,,,,,,,,,0,0,0,0,0,1,1,1,7,0,7,0,,,,,,,,,,,,,,,,,,,,,,,,,,,,,,,,,,,,,,,,,,,,,,,,,,,,,,,,,,,,,,,,30,,,,,,,,77.90995650005061,77.90995650005061,77.90995650005061,77.90995650005061,77.90995650005061,-5,0,0.48,-0.24,return,0.8766872999258339,1,0,0,1,0.48,-0.24,return,0.7915282000321895,,,,,,,,,,,,,,,,,,,,,,,,,,,,,,,,,,,,,,,,,,,,,,,,,,,,,,,,zoe,train_y,blue_star,top_right,2024-11-18_14h12.25.454,HideSeek_v1,2022.2.5,59.984368066382295,
,7,8,7,5,0,-3,64,,train_dim1_1,3,30,,,,2,0,2,0,,,,,,,,,0,0,0,0,0,2,2,2,0,0,0,0,,,,,,,,,,,,,,,,,,,,,,,,,stimuli/alien_stimuli/64.png,,,,,,,,,,,,,,,,,,,,,,,,,,,,,stimuli/alien_stimuli/66.png,66,8,4,,,,,,,30,,,,,,,,85.52042519999668,85.52042519999668,85.52042519999668,85.52042519999668,85.52042519999668,,,,,down,1.9243053999962285,1,0,0,99,0.4,0.15999999999999998,down,1.8502095000585541,83.96810769999865,85.52042519999668,0.48,-0.24,0.4,0.0,-0.039999999999999994,0.48,0.48,0.48,-0.24,80.35890450002626,80.35890450002626,80.35890450002626,80.35890450002626,80.35890450002626,80.35890450002626,80.35890450002626,80.35890450002626,80.34852034003706,3.721904700039886,return,3.5807463999371976,,,,,,,,,,,,,,,,,,,,,,,,,,,,,,,,,zoe,train_y,blue_star,top_right,2024-11-18_14h12.25.454,HideSeek_v1,2022.2.5,59.984368066382295,
,7,8,7,5,0,-3,64,,train_dim1_1,3,30,,,,2,0,2,0,,,,,,,,,0,0,0,0,0,2,2,2,1,0,1,0,,,,,,,,,,,,,,,,,,,,,,,,,,,,,,,,,,,,,,,,,,,,,,,,,,,,,,,,,,,,,,,,30,,,,,,,,87.45155150000937,87.45155150000937,87.45155150000937,87.45155150000937,87.45155150000937,,,,,down,0.12577620008960366,1,0,0,99,0.4,0.07999999999999997,down,0.05070489994250238,,,,,,,,,,,,,,,,,,,,,,,,,,,,,,,,,,,,,,,,,,,,,,,,,,,,,,,,zoe,train_y,blue_star,top_right,2024-11-18_14h12.25.454,HideSeek_v1,2022.2.5,59.984368066382295,
,7,8,7,5,0,-3,64,,train_dim1_1,3,30,,,,2,0,2,0,,,,,,,,,0,0,0,0,0,2,2,2,2,0,2,0,,,,,,,,,,,,,,,,,,,,,,,,,,,,,,,,,,,,,,,,,,,,,,,,,,,,,,,,,,,,,,,,30,,,,,,,,87.58451820001937,87.58451820001937,87.58451820001937,87.58451820001937,87.58451820001937,,,,,down,0.29290730005595833,1,0,0,99,0.4,-2.7755575615628914e-17,down,0.21127620001789182,,,,,,,,,,,,,,,,,,,,,,,,,,,,,,,,,,,,,,,,,,,,,,,,,,,,,,,,zoe,train_y,blue_star,top_right,2024-11-18_14h12.25.454,HideSeek_v1,2022.2.5,59.984368066382295,
,7,8,7,5,0,-3,64,,train_dim1_1,3,30,,,,2,0,2,0,,,,,,,,,0,0,0,0,0,2,2,2,3,0,3,0,,,,,,,,,,,,,,,,,,,,,,,,,,,,,,,,,,,,,,,,,,,,,,,,,,,,,,,,,,,,,,,,30,,,,,,,,87.8858210000908,87.8858210000908,87.8858210000908,87.8858210000908,87.8858210000908,,,,,down,0.09305579995270818,1,0,0,99,0.4,-0.08000000000000003,down,0.008885400020517409,,,,,,,,,,,,,,,,,,,,,,,,,,,,,,,,,,,,,,,,,,,,,,,,,,,,,,,,zoe,train_y,blue_star,top_right,2024-11-18_14h12.25.454,HideSeek_v1,2022.2.5,59.984368066382295,
,7,8,7,5,0,-3,64,,train_dim1_1,3,30,,,,2,0,2,0,,,,,,,,,0,0,0,0,0,2,2,2,4,0,4,0,,,,,,,,,,,,,,,,,,,,,,,,,,,,,,,,,,,,,,,,,,,,,,,,,,,,,,,,,,,,,,,,30,,,,,,,,87.9840819000965,87.9840819000965,87.9840819000965,87.9840819000965,87.9840819000965,,,,,up,1.110748999984935,1,0,0,99,0.4,-2.7755575615628914e-17,up,1.023654899909161,,,,,,,,,,,,,,,,,,,,,,,,,,,,,,,,,,,,,,,,,,,,,,,,,,,,,,,,zoe,train_y,blue_star,top_right,2024-11-18_14h12.25.454,HideSeek_v1,2022.2.5,59.984368066382295,
,7,8,7,5,0,-3,64,,train_dim1_1,3,30,,,,2,0,2,0,,,,,,,,,0,0,0,0,0,2,2,2,5,0,5,0,,,,,,,,,,,,,,,,,,,,,,,,,,,,,,,,,,,,,,,,,,,,,,,,,,,,,,,,,,,,,,,,30,,,,,,,,89.10268530005123,89.10268530005123,89.10268530005123,89.10268530005123,89.10268530005123,,,,,up,0.4433506999630481,1,0,0,99,0.4,0.07999999999999997,up,0.3651579999132082,,,,,,,,,,,,,,,,,,,,,,,,,,,,,,,,,,,,,,,,,,,,,,,,,,,,,,,,zoe,train_y,blue_star,top_right,2024-11-18_14h12.25.454,HideSeek_v1,2022.2.5,59.984368066382295,
,7,8,7,5,0,-3,64,,train_dim1_1,3,30,,,,2,0,2,0,,,,,,,,,0,0,0,0,0,2,2,2,6,0,6,0,,,,,,,,,,,,,,,,,,,,,,,,,,,,,,,,,,,,,,,,,,,,,,,,,,,,,,,,,,,,,,,,30,,,,,,,,89.55340830003843,89.55340830003843,89.55340830003843,89.55340830003843,89.55340830003843,,,,,down,1.7277066999813542,1,0,0,99,0.4,-2.7755575615628914e-17,down,1.638574399985373,,,,,,,,,,,,,,,,,,,,,,,,,,,,,,,,,,,,,,,,,,,,,,,,,,,,,,,,zoe,train_y,blue_star,top_right,2024-11-18_14h12.25.454,HideSeek_v1,2022.2.5,59.984368066382295,
,7,8,7,5,0,-3,64,,train_dim1_1,3,30,,,,2,0,2,0,,,,,,,,,0,0,0,0,0,2,2,2,7,0,7,0,,,,,,,,,,,,,,,,,,,,,,,,,,,,,,,,,,,,,,,,,,,,,,,,,,,,,,,,,,,,,,,,30,,,,,,,,91.28726830007508,91.28726830007508,91.28726830007508,91.28726830007508,91.28726830007508,,,,,down,2.978513199952431,1,0,0,99,0.4,-0.08000000000000003,down,2.9011388000799343,,,,,,,,,,,,,,,,,,,,,,,,,,,,,,,,,,,,,,,,,,,,,,,,,,,,,,,,zoe,train_y,blue_star,top_right,2024-11-18_14h12.25.454,HideSeek_v1,2022.2.5,59.984368066382295,
,7,8,7,5,0,-3,64,,train_dim1_1,3,30,,,,2,0,2,0,,,,,,,,,0,0,0,0,0,2,2,2,8,0,8,0,,,,,,,,,,,,,,,,,,,,,,,,,,,,,,,,,,,,,,,,,,,,,,,,,,,,,,,,,,,,,,,,30,,,,,,,,94.27234090003185,94.27234090003185,94.27234090003185,94.27234090003185,94.27234090003185,,,,,down,0.11009179998654872,1,0,0,99,0.4,-0.16000000000000003,down,0.030758399982005358,,,,,,,,,,,,,,,,,,,,,,,,,,,,,,,,,,,,,,,,,,,,,,,,,,,,,,,,zoe,train_y,blue_star,top_right,2024-11-18_14h12.25.454,HideSeek_v1,2022.2.5,59.984368066382295,
,7,8,7,5,0,-3,64,,train_dim1_1,3,30,,,,2,0,2,0,,,,,,,,,0,0,0,0,0,2,2,2,9,0,9,0,,,,,,,,,,,,,,,,,,,,,,,,,,,,,,,,,,,,,,,,,,,,,,,,,,,,,,,,,,,,,,,,30,,,,,,,,94.39117690001149,94.39117690001149,94.39117690001149,94.39117690001149,94.39117690001149,,,,,up,1.1601771999849007,1,0,0,99,0.4,-0.08000000000000003,up,1.0716354000614956,,,,,,,,,,,,,,,,,,,,,,,,,,,,,,,,,,,,,,,,,,,,,,,,,,,,,,,,zoe,train_y,blue_star,top_right,2024-11-18_14h12.25.454,HideSeek_v1,2022.2.5,59.984368066382295,
,7,8,7,5,0,-3,64,,train_dim1_1,3,30,,,,2,0,2,0,,,,,,,,,0,0,0,0,0,2,2,2,10,0,10,0,,,,,,,,,,,,,,,,,,,,,,,,,,,,,,,,,,,,,,,,,,,,,,,,,,,,,,,,,,,,,,,,30,,,,,,,,95.55764850007836,95.55764850007836,95.55764850007836,95.55764850007836,95.55764850007836,,,,,up,1.7106181000126526,1,0,0,99,0.4,-2.7755575615628914e-17,up,1.6254985000705346,,,,,,,,,,,,,,,,,,,,,,,,,,,,,,,,,,,,,,,,,,,,,,,,,,,,,,,,zoe,train_y,blue_star,top_right,2024-11-18_14h12.25.454,HideSeek_v1,2022.2.5,59.984368066382295,
,7,8,7,5,0,-3,64,,train_dim1_1,3,30,,,,2,0,2,0,,,,,,,,,0,0,0,0,0,2,2,2,11,0,11,0,,,,,,,,,,,,,,,,,,,,,,,,,,,,,,,,,,,,,,,,,,,,,,,,,,,,,,,,,,,,,,,,30,,,,,,,,97.27604790008627,97.27604790008627,97.27604790008627,97.27604790008627,97.27604790008627,,,,,up,0.3604148000013083,1,0,0,99,0.4,0.07999999999999997,up,0.28751709999050945,,,,,,,,,,,,,,,,,,,,,,,,,,,,,,,,,,,,,,,,,,,,,,,,,,,,,,,,zoe,train_y,blue_star,top_right,2024-11-18_14h12.25.454,HideSeek_v1,2022.2.5,59.984368066382295,
,7,8,7,5,0,-3,64,,train_dim1_1,3,30,,,,2,0,2,0,,,,,,,,,0,0,0,0,0,2,2,2,12,0,12,0,,,,,,,,,,,,,,,,,,,,,,,,,,,,,,,,,,,,,,,,,,,,,,,,,,,,,,,,,,,,,,,,30,,,,,,,,97.64331359998323,97.64331359998323,97.64331359998323,97.64331359998323,97.64331359998323,,,,,up,0.24331970000639558,1,0,0,99,0.4,0.15999999999999998,up,0.15856300003360957,,,,,,,,,,,,,,,,,,,,,,,,,,,,,,,,,,,,,,,,,,,,,,,,,,,,,,,,zoe,train_y,blue_star,top_right,2024-11-18_14h12.25.454,HideSeek_v1,2022.2.5,59.984368066382295,
,7,8,7,5,0,-3,64,,train_dim1_1,3,30,,,,2,0,2,0,,,,,,,,,0,0,0,0,0,2,2,2,13,0,13,0,,,,,,,,,,,,,,,,,,,,,,,,,,,,,,,,,,,,,,,,,,,,,,,,,,,,,,,,,,,,,,,,30,,,,,,,,97.8954117000103,97.8954117000103,97.8954117000103,97.8954117000103,97.8954117000103,,,,,up,0.19313819997478276,1,0,0,99,0.4,0.24,up,0.11290700000245124,,,,,,,,,,,,,,,,,,,,,,,,,,,,,,,,,,,,,,,,,,,,,,,,,,,,,,,,zoe,train_y,blue_star,top_right,2024-11-18_14h12.25.454,HideSeek_v1,2022.2.5,59.984368066382295,
,7,8,7,5,0,-3,64,,train_dim1_1,3,30,,,,2,0,2,0,,,,,,,,,0,0,0,0,0,2,2,2,14,0,14,0,,,,,,,,,,,,,,,,,,,,,,,,,,,,,,,,,,,,,,,,,,,,,,,,,,,,,,,,,,,,,,,,30,,,,,,,,98.09380220004823,98.09380220004823,98.09380220004823,98.09380220004823,98.09380220004823,,,,,down,4.046109199989587,1,0,0,99,0.4,0.15999999999999998,down,3.967865400016308,,,,,,,,,,,,,,,,,,,,,,,,,,,,,,,,,,,,,,,,,,,,,,,,,,,,,,,,zoe,train_y,blue_star,top_right,2024-11-18_14h12.25.454,HideSeek_v1,2022.2.5,59.984368066382295,
,7,8,7,5,0,-3,64,,train_dim1_1,3,30,,,,2,0,2,0,,,,,,,,,0,0,0,0,0,2,2,2,15,0,15,0,,,,,,,,,,,,,,,,,,,,,,,,,,,,,,,,,,,,,,,,,,,,,,,,,,,,,,,,,,,,,,,,30,,,,,,,,102.14610670006368,102.14610670006368,102.14610670006368,102.14610670006368,102.14610670006368,,,,,down,0.5933722000336275,1,0,0,99,0.4,0.07999999999999997,down,0.5051097000250593,,,,,,,,,,,,,,,,,,,,,,,,,,,,,,,,,,,,,,,,,,,,,,,,,,,,,,,,zoe,train_y,blue_star,top_right,2024-11-18_14h12.25.454,HideSeek_v1,2022.2.5,59.984368066382295,
,7,8,7,5,0,-3,64,,train_dim1_1,3,30,,,,2,0,2,0,,,,,,,,,0,0,0,0,0,2,2,2,16,0,16,0,,,,,,,,,,,,,,,,,,,,,,,,,,,,,,,,,,,,,,,,,,,,,,,,,,,,,,,,,,,,,,,,30,,,,,,,,102.74701400008053,102.74701400008053,102.74701400008053,102.74701400008053,102.74701400008053,,,,,down,3.2788654000032693,1,0,0,99,0.4,-2.7755575615628914e-17,down,3.1940557000925764,,,,,,,,,,,,,,,,,,,,,,,,,,,,,,,,,,,,,,,,,,,,,,,,,,,,,,,,zoe,train_y,blue_star,top_right,2024-11-18_14h12.25.454,HideSeek_v1,2022.2.5,59.984368066382295,
,7,8,7,5,0,-3,64,,train_dim1_1,3,30,,,,2,0,2,0,,,,,,,,,0,0,0,0,0,2,2,2,17,0,17,0,,,,,,,,,,,,,,,,,,,,,,,,,,,,,,,,,,,,,,,,,,,,,,,,,,,,,,,,,,,,,,,,30,,,,,,,,106.03303809999488,106.03303809999488,106.03303809999488,106.03303809999488,106.03303809999488,-8,0,0.4,-2.7755575615628914e-17,return,2.145013800007291,2,0,0,1,0.4,-2.7755575615628914e-17,return,2.067562200012617,,,,,,,,,,,,,,,,,,,,,,,,,,,,,,,,,,,,,,,,,,,,,,,,,,,,,,,,zoe,train_y,blue_star,top_right,2024-11-18_14h12.25.454,HideSeek_v1,2022.2.5,59.984368066382295,
,5,6,5,5,0,-1,62,,train_dim1_1,4,30,,,,2,0,2,0,,,,,,,,,0,0,0,0,0,3,3,3,0,0,0,0,,,,,,,,,,,,,,,,,,,,,,,,,stimuli/alien_stimuli/62.png,,,,,,,,,,,,,,,,,,,,,,,,,,,,,stimuli/alien_stimuli/64.png,64,7,5,,,,,,,30,,,,,,,,112.59214700001758,112.59214700001758,112.59214700001758,112.59214700001758,112.59214700001758,,,,,down,11.93214499996975,2,0,0,99,0.24,0.0,down,11.857472000061534,111.04052949999459,112.59214700001758,0.4,0,0.24,0.0,0.12,0.4,0.4,0.4,0,109.74335840006825,109.74335840006825,109.74335840006825,109.74335840006825,109.74335840006825,109.74335840006825,109.74335840006825,109.74335840006825,109.73946614003506,1.4034045999869704,return,1.2756837999913841,,,,,,,,,,,,,,,,,,,,,,,,,,,,,,,,,zoe,train_y,blue_star,top_right,2024-11-18_14h12.25.454,HideSeek_v1,2022.2.5,59.984368066382295,
,5,6,5,5,0,-1,62,,train_dim1_1,4,30,,,,2,0,2,0,,,,,,,,,0,0,0,0,0,3,3,3,1,0,1,0,,,,,,,,,,,,,,,,,,,,,,,,,,,,,,,,,,,,,,,,,,,,,,,,,,,,,,,,,,,,,,,,30,,,,,,,,124.55139000003692,124.55139000003692,124.55139000003692,124.55139000003692,124.55139000003692,-9,0,0.24,0.0,return,1.0100931999040768,3,0,0,1,0.24,0.0,return,0.9151553999399766,,,,,,,,,,,,,,,,,,,,,,,,,,,,,,,,,,,,,,,,,,,,,,,,,,,,,,,,zoe,train_y,blue_star,top_right,2024-11-18_14h12.25.454,HideSeek_v1,2022.2.5,59.984368066382295,
,8,8,8,8,0,0,61,,train_dim1_1,5,30,,,,2,0,2,0,,,,,,,,,0,0,0,0,0,4,4,4,0,0,0,0,,,,,,,,,,,,,,,,,,,,,,,,,stimuli/alien_stimuli/61.png,,,,,,,,,,,,,,,,,,,,,,,,,,,,,stimuli/alien_stimuli/62.png,62,5,6,,,,,,,30,,,,,,,,131.0583503000671,131.0583503000671,131.0583503000671,131.0583503000671,131.0583503000671,-9,0,0.48,0.24,return,1.8405462999362499,4,0,0,1,0.48,0.24,return,1.7637023999122903,129.50599710003007,131.0583503000671,0.24,0,0.08,0.0,0.04,0.24,0.24,0.24,0,127.10854829999153,127.10854829999153,127.10854829999153,127.10854829999153,127.10854829999153,127.10854829999153,127.10854829999153,127.10854829999153,127.1038598400657,2.504448400111869,return,2.373730599996634,,,,,,,,,,,,,,,,,,,,,,,,,,,,,,,,,zoe,train_y,blue_star,top_right,2024-11-18_14h12.25.454,HideSeek_v1,2022.2.5,59.984368066382295,
,6,9,6,8,0,-1,62,,train_dim1_1,6,30,,,,2,0,2,0,,,,,,,,,0,0,0,0,0,5,5,5,0,0,0,0,,,,,,,,,,,,,,,,,,,,,,,,,stimuli/alien_stimuli/62.png,,,,,,,,,,,,,,,,,,,,,,,,,,,,,stimuli/alien_stimuli/61.png,61,8,7,,,,,,,30,,,,,,,,136.3457396000158,136.3457396000158,136.3457396000158,136.3457396000158,136.3457396000158,,,,,down,1.3396485999692231,4,0,0,99,0.32,0.24,down,1.2672152000013739,134.7934186999919,136.3457396000158,0.48,0.24,0.0,0.0,0.24,0.48,0.48,0.48,0.24,134.4498291000491,134.4498291000491,134.4498291000491,134.4498291000491,134.4498291000491,134.4498291000491,134.4498291000491,134.4498291000491,134.44320851997472,0.4357286000158638,return,0.31946190004236996,,,,,,,,,,,,,,,,,,,,,,,,,,,,,,,,,zoe,train_y,blue_star,top_right,2024-11-18_14h12.25.454,HideSeek_v1,2022.2.5,59.984368066382295,
,6,9,6,8,0,-1,62,,train_dim1_1,6,30,,,,2,0,2,0,,,,,,,,,0,0,0,0,0,5,5,5,1,0,1,0,,,,,,,,,,,,,,,,,,,,,,,,,,,,,,,,,,,,,,,,,,,,,,,,,,,,,,,,,,,,,,,,30,,,,,,,,137.69346840004437,137.69346840004437,137.69346840004437,137.69346840004437,137.69346840004437,,,,,down,0.1263513999292627,4,0,0,99,0.32,0.15999999999999998,down,0.047989899991080165,,,,,,,,,,,,,,,,,,,,,,,,,,,,,,,,,,,,,,,,,,,,,,,,,,,,,,,,zoe,train_y,blue_star,top_right,2024-11-18_14h12.25.454,HideSeek_v1,2022.2.5,59.984368066382295,
,6,9,6,8,0,-1,62,,train_dim1_1,6,30,,,,2,0,2,0,,,,,,,,,0,0,0,0,0,5,5,5,2,0,2,0,,,,,,,,,,,,,,,,,,,,,,,,,,,,,,,,,,,,,,,,,,,,,,,,,,,,,,,,,,,,,,,,30,,,,,,,,137.82693870004732,137.82693870004732,137.82693870004732,137.82693870004732,137.82693870004732,,,,,up,0.9597817999310791,4,0,0,99,0.32,0.24,up,0.8736359999747947,,,,,,,,,,,,,,,,,,,,,,,,,,,,,,,,,,,,,,,,,,,,,,,,,,,,,,,,zoe,train_y,blue_star,top_right,2024-11-18_14h12.25.454,HideSeek_v1,2022.2.5,59.984368066382295,
,6,9,6,8,0,-1,62,,train_dim1_1,6,30,,,,2,0,2,0,,,,,,,,,0,0,0,0,0,5,5,5,3,0,3,0,,,,,,,,,,,,,,,,,,,,,,,,,,,,,,,,,,,,,,,,,,,,,,,,,,,,,,,,,,,,,,,,30,,,,,,,,138.79449780005962,138.79449780005962,138.79449780005962,138.79449780005962,138.79449780005962,-10,0,0.32,0.24,return,1.6275936000747606,5,0,0,1,0.32,0.24,return,1.5496523999609053,,,,,,,,,,,,,,,,,,,,,,,,,,,,,,,,,,,,,,,,,,,,,,,,,,,,,,,,zoe,train_y,blue_star,top_right,2024-11-18_14h12.25.454,HideSeek_v1,2022.2.5,59.984368066382295,
,6,8,6,5,0,-3,64,,train_dim1_1,7,30,,,,2,0,2,0,,,,,,,,,0,0,0,0,0,6,6,6,0,0,0,0,,,,,,,,,,,,,,,,,,,,,,,,,stimuli/alien_stimuli/64.png,,,,,,,,,,,,,,,,,,,,,,,,,,,,,stimuli/alien_stimuli/62.png,62,6,8,,,,,,,30,,,,,,,,144.25466269999743,144.25466269999743,144.25466269999743,144.25466269999743,144.25466269999743,,,,,down,1.1037519000237808,5,0,0,99,0.32,0.15999999999999998,down,1.0265377999749035,142.6996669000946,144.25466269999743,0.32,0.24,0.08,0.0,0.28,0.32,0.32,0.32,0.24,141.97137210005894,141.97137210005894,141.97137210005894,141.97137210005894,141.97137210005894,141.97137210005894,141.97137210005894,141.97137210005894,141.96635212006512,0.8192140999017283,return,0.6964822999434546,,,,,,,,,,,,,,,,,,,,,,,,,,,,,,,,,zoe,train_y,blue_star,top_right,2024-11-18_14h12.25.454,HideSeek_v1,2022.2.5,59.984368066382295,
,6,8,6,5,0,-3,64,,train_dim1_1,7,30,,,,2,0,2,0,,,,,,,,,0,0,0,0,0,6,6,6,1,0,1,0,,,,,,,,,,,,,,,,,,,,,,,,,,,,,,,,,,,,,,,,,,,,,,,,,,,,,,,,,,,,,,,,30,,,,,,,,145.36536799999885,145.36536799999885,145.36536799999885,145.36536799999885,145.36536799999885,,,,,down,0.1424817000515759,5,0,0,99,0.32,0.07999999999999997,down,0.06594660005066544,,,,,,,,,,,,,,,,,,,,,,,,,,,,,,,,,,,,,,,,,,,,,,,,,,,,,,,,zoe,train_y,blue_star,top_right,2024-11-18_14h12.25.454,HideSeek_v1,2022.2.5,59.984368066382295,
,6,8,6,5,0,-3,64,,train_dim1_1,7,30,,,,2,0,2,0,,,,,,,,,0,0,0,0,0,6,6,6,2,0,2,0,,,,,,,,,,,,,,,,,,,,,,,,,,,,,,,,,,,,,,,,,,,,,,,,,,,,,,,,,,,,,,,,30,,,,,,,,145.51637850003317,145.51637850003317,145.51637850003317,145.51637850003317,145.51637850003317,,,,,down,0.25980389991309494,5,0,0,99,0.32,-2.7755575615628914e-17,down,0.171767899999395,,,,,,,,,,,,,,,,,,,,,,,,,,,,,,,,,,,,,,,,,,,,,,,,,,,,,,,,zoe,train_y,blue_star,top_right,2024-11-18_14h12.25.454,HideSeek_v1,2022.2.5,59.984368066382295,
,6,8,6,5,0,-3,64,,train_dim1_1,7,30,,,,2,0,2,0,,,,,,,,,0,0,0,0,0,6,6,6,3,0,3,0,,,,,,,,,,,,,,,,,,,,,,,,,,,,,,,,,,,,,,,,,,,,,,,,,,,,,,,,,,,,,,,,30,,,,,,,,145.78509950009175,145.78509950009175,145.78509950009175,145.78509950009175,145.78509950009175,,,,,up,0.7267843999434263,5,0,0,99,0.32,0.07999999999999997,up,0.6465154000325128,,,,,,,,,,,,,,,,,,,,,,,,,,,,,,,,,,,,,,,,,,,,,,,,,,,,,,,,zoe,train_y,blue_star,top_right,2024-11-18_14h12.25.454,HideSeek_v1,2022.2.5,59.984368066382295,
,6,8,6,5,0,-3,64,,train_dim1_1,7,30,,,,2,0,2,0,,,,,,,,,0,0,0,0,0,6,6,6,4,0,4,0,,,,,,,,,,,,,,,,,,,,,,,,,,,,,,,,,,,,,,,,,,,,,,,,,,,,,,,,,,,,,,,,30,,,,,,,,146.5179595000809,146.5179595000809,146.5179595000809,146.5179595000809,146.5179595000809,,,,,up,0.35962210001889616,5,0,0,99,0.32,0.15999999999999998,up,0.2857818999327719,,,,,,,,,,,,,,,,,,,,,,,,,,,,,,,,,,,,,,,,,,,,,,,,,,,,,,,,zoe,train_y,blue_star,top_right,2024-11-18_14h12.25.454,HideSeek_v1,2022.2.5,59.984368066382295,
,6,8,6,5,0,-3,64,,train_dim1_1,7,30,,,,2,0,2,0,,,,,,,,,0,0,0,0,0,6,6,6,5,0,5,0,,,,,,,,,,,,,,,,,,,,,,,,,,,,,,,,,,,,,,,,,,,,,,,,,,,,,,,,,,,,,,,,30,,,,,,,,146.88439110002946,146.88439110002946,146.88439110002946,146.88439110002946,146.88439110002946,,,,,down,0.5435716999927536,5,0,0,99,0.32,0.07999999999999997,down,0.45861480000894517,,,,,,,,,,,,,,,,,,,,,,,,,,,,,,,,,,,,,,,,,,,,,,,,,,,,,,,,zoe,train_y,blue_star,top_right,2024-11-18_14h12.25.454,HideSeek_v1,2022.2.5,59.984368066382295,
,6,8,6,5,0,-3,64,,train_dim1_1,7,30,,,,2,0,2,0,,,,,,,,,0,0,0,0,0,6,6,6,6,0,6,0,,,,,,,,,,,,,,,,,,,,,,,,,,,,,,,,,,,,,,,,,,,,,,,,,,,,,,,,,,,,,,,,30,,,,,,,,147.43382680008654,147.43382680008654,147.43382680008654,147.43382680008654,147.43382680008654,,,,,down,0.09285390004515648,5,0,0,99,0.32,-2.7755575615628914e-17,down,0.019892999902367592,,,,,,,,,,,,,,,,,,,,,,,,,,,,,,,,,,,,,,,,,,,,,,,,,,,,,,,,zoe,train_y,blue_star,top_right,2024-11-18_14h12.25.454,HideSeek_v1,2022.2.5,59.984368066382295,
,6,8,6,5,0,-3,64,,train_dim1_1,7,30,,,,2,0,2,0,,,,,,,,,0,0,0,0,0,6,6,6,7,0,7,0,,,,,,,,,,,,,,,,,,,,,,,,,,,,,,,,,,,,,,,,,,,,,,,,,,,,,,,,,,,,,,,,30,,,,,,,,147.53513470001053,147.53513470001053,147.53513470001053,147.53513470001053,147.53513470001053,,,,,down,0.2263507000170648,5,0,0,99,0.32,-0.08000000000000003,down,0.14754400006495416,,,,,,,,,,,,,,,,,,,,,,,,,,,,,,,,,,,,,,,,,,,,,,,,,,,,,,,,zoe,train_y,blue_star,top_right,2024-11-18_14h12.25.454,HideSeek_v1,2022.2.5,59.984368066382295,
,6,8,6,5,0,-3,64,,train_dim1_1,7,30,,,,2,0,2,0,,,,,,,,,0,0,0,0,0,6,6,6,8,0,8,0,,,,,,,,,,,,,,,,,,,,,,,,,,,,,,,,,,,,,,,,,,,,,,,,,,,,,,,,,,,,,,,,30,,,,,,,,147.76836940005887,147.76836940005887,147.76836940005887,147.76836940005887,147.76836940005887,,,,,up,0.7768206000328064,5,0,0,99,0.32,-2.7755575615628914e-17,up,0.6971790000097826,,,,,,,,,,,,,,,,,,,,,,,,,,,,,,,,,,,,,,,,,,,,,,,,,,,,,,,,zoe,train_y,blue_star,top_right,2024-11-18_14h12.25.454,HideSeek_v1,2022.2.5,59.984368066382295,
,6,8,6,5,0,-3,64,,train_dim1_1,7,30,,,,2,0,2,0,,,,,,,,,0,0,0,0,0,6,6,6,9,0,9,0,,,,,,,,,,,,,,,,,,,,,,,,,,,,,,,,,,,,,,,,,,,,,,,,,,,,,,,,,,,,,,,,30,,,,,,,,148.55191620008554,148.55191620008554,148.55191620008554,148.55191620008554,148.55191620008554,,,,,up,0.6766634999075904,5,0,0,99,0.32,0.07999999999999997,up,0.6035823000129312,,,,,,,,,,,,,,,,,,,,,,,,,,,,,,,,,,,,,,,,,,,,,,,,,,,,,,,,zoe,train_y,blue_star,top_right,2024-11-18_14h12.25.454,HideSeek_v1,2022.2.5,59.984368066382295,
,6,8,6,5,0,-3,64,,train_dim1_1,7,30,,,,2,0,2,0,,,,,,,,,0,0,0,0,0,6,6,6,10,0,10,0,,,,,,,,,,,,,,,,,,,,,,,,,,,,,,,,,,,,,,,,,,,,,,,,,,,,,,,,,,,,,,,,30,,,,,,,,149.2353979999898,149.2353979999898,149.2353979999898,149.2353979999898,149.2353979999898,,,,,up,0.47670939995441586,5,0,0,99,0.32,0.15999999999999998,up,0.3905731999548152,,,,,,,,,,,,,,,,,,,,,,,,,,,,,,,,,,,,,,,,,,,,,,,,,,,,,,,,zoe,train_y,blue_star,top_right,2024-11-18_14h12.25.454,HideSeek_v1,2022.2.5,59.984368066382295,
,6,8,6,5,0,-3,64,,train_dim1_1,7,30,,,,2,0,2,0,,,,,,,,,0,0,0,0,0,6,6,6,11,0,11,0,,,,,,,,,,,,,,,,,,,,,,,,,,,,,,,,,,,,,,,,,,,,,,,,,,,,,,,,,,,,,,,,30,,,,,,,,149.72007100004703,149.72007100004703,149.72007100004703,149.72007100004703,149.72007100004703,,,,,up,0.2266141000436619,5,0,0,99,0.32,0.24,up,0.13753139995969832,,,,,,,,,,,,,,,,,,,,,,,,,,,,,,,,,,,,,,,,,,,,,,,,,,,,,,,,zoe,train_y,blue_star,top_right,2024-11-18_14h12.25.454,HideSeek_v1,2022.2.5,59.984368066382295,
,6,8,6,5,0,-3,64,,train_dim1_1,7,30,,,,2,0,2,0,,,,,,,,,0,0,0,0,0,6,6,6,12,0,12,0,,,,,,,,,,,,,,,,,,,,,,,,,,,,,,,,,,,,,,,,,,,,,,,,,,,,,,,,,,,,,,,,30,,,,,,,,149.95926090003923,149.95926090003923,149.95926090003923,149.95926090003923,149.95926090003923,,,,,down,0.7100381000200287,5,0,0,99,0.32,0.15999999999999998,down,0.6167418999830261,,,,,,,,,,,,,,,,,,,,,,,,,,,,,,,,,,,,,,,,,,,,,,,,,,,,,,,,zoe,train_y,blue_star,top_right,2024-11-18_14h12.25.454,HideSeek_v1,2022.2.5,59.984368066382295,
,6,8,6,5,0,-3,64,,train_dim1_1,7,30,,,,2,0,2,0,,,,,,,,,0,0,0,0,0,6,6,6,13,0,13,0,,,,,,,,,,,,,,,,,,,,,,,,,,,,,,,,,,,,,,,,,,,,,,,,,,,,,,,,,,,,,,,,30,,,,,,,,150.67040170007385,150.67040170007385,150.67040170007385,150.67040170007385,150.67040170007385,,,,,down,0.3760697999969125,5,0,0,99,0.32,0.07999999999999997,down,0.288159399991855,,,,,,,,,,,,,,,,,,,,,,,,,,,,,,,,,,,,,,,,,,,,,,,,,,,,,,,,zoe,train_y,blue_star,top_right,2024-11-18_14h12.25.454,HideSeek_v1,2022.2.5,59.984368066382295,
,6,8,6,5,0,-3,64,,train_dim1_1,7,30,,,,2,0,2,0,,,,,,,,,0,0,0,0,0,6,6,6,14,0,14,0,,,,,,,,,,,,,,,,,,,,,,,,,,,,,,,,,,,,,,,,,,,,,,,,,,,,,,,,,,,,,,,,30,,,,,,,,151.05536450003274,151.05536450003274,151.05536450003274,151.05536450003274,151.05536450003274,,,,,down,0.4931166999740526,5,0,0,99,0.32,-2.7755575615628914e-17,down,0.40779580001253635,,,,,,,,,,,,,,,,,,,,,,,,,,,,,,,,,,,,,,,,,,,,,,,,,,,,,,,,zoe,train_y,blue_star,top_right,2024-11-18_14h12.25.454,HideSeek_v1,2022.2.5,59.984368066382295,
,6,8,6,5,0,-3,64,,train_dim1_1,7,30,,,,2,0,2,0,,,,,,,,,0,0,0,0,0,6,6,6,15,0,15,0,,,,,,,,,,,,,,,,,,,,,,,,,,,,,,,,,,,,,,,,,,,,,,,,,,,,,,,,,,,,,,,,30,,,,,,,,151.5546411999967,151.5546411999967,151.5546411999967,151.5546411999967,151.5546411999967,-13,0,0.32,-2.7755575615628914e-17,return,2.011547700036317,6,0,0,1,0.32,-2.7755575615628914e-17,return,1.9286275999620557,,,,,,,,,,,,,,,,,,,,,,,,,,,,,,,,,,,,,,,,,,,,,,,,,,,,,,,,zoe,train_y,blue_star,top_right,2024-11-18_14h12.25.454,HideSeek_v1,2022.2.5,59.984368066382295,
,9,7,9,7,0,0,61,,train_dim1_1,8,30,,,,2,0,2,0,,,,,,,,,0,0,0,0,0,7,7,7,0,0,0,0,,,,,,,,,,,,,,,,,,,,,,,,,stimuli/alien_stimuli/61.png,,,,,,,,,,,,,,,,,,,,,,,,,,,,,stimuli/alien_stimuli/64.png,64,6,9,,,,,,,30,,,,,,,,157.2288028000621,157.2288028000621,157.2288028000621,157.2288028000621,157.2288028000621,-13,0,0.56,0.16,return,3.1917768999701366,7,0,0,1,0.56,0.16,return,3.119056399911642,155.67768229998183,157.2288028000621,0.32,0,0.24,0.0,0.12,0.32,0.32,0.32,0,155.11605890002102,155.11605890002102,155.11605890002102,155.11605890002102,155.11605890002102,155.11605890002102,155.11605890002102,155.11605890002102,155.11035961997695,0.6531727999681607,return,0.5441541000036523,,,,,,,,,,,,,,,,,,,,,,,,,,,,,,,,,zoe,train_y,blue_star,top_right,2024-11-18_14h12.25.454,HideSeek_v1,2022.2.5,59.984368066382295,
,9,8,9,4,0,-4,65,,train_dim1_1,9,30,,,,2,0,2,0,,,,,,,,,0,0,0,0,0,8,8,8,0,0,0,0,,,,,,,,,,,,,,,,,,,,,,,,,stimuli/alien_stimuli/65.png,,,,,,,,,,,,,,,,,,,,,,,,,,,,,stimuli/alien_stimuli/61.png,61,9,10,,,,,,,30,,,,,,,,168.28895220009144,168.28895220009144,168.28895220009144,168.28895220009144,168.28895220009144,,,,,down,1.7072313000680879,7,0,0,99,0.56,0.15999999999999998,down,1.6222264000680298,166.73707780009136,168.28895220009144,0.56,0.16,0.0,0.0,0.16,0.56,0.56,0.56,0.16,161.97301620000508,161.97301620000508,161.97301620000508,161.97301620000508,161.97301620000508,161.97301620000508,161.97301620000508,161.97301620000508,161.96611962004098,4.857207000022754,return,4.748559899977408,,,,,,,,,,,,,,,,,,,,,,,,,,,,,,,,,zoe,train_y,blue_star,top_right,2024-11-18_14h12.25.454,HideSeek_v1,2022.2.5,59.984368066382295,
,9,8,9,4,0,-4,65,,train_dim1_1,9,30,,,,2,0,2,0,,,,,,,,,0,0,0,0,0,8,8,8,1,0,1,0,,,,,,,,,,,,,,,,,,,,,,,,,,,,,,,,,,,,,,,,,,,,,,,,,,,,,,,,,,,,,,,,30,,,,,,,,170.00283960008528,170.00283960008528,170.00283960008528,170.00283960008528,170.00283960008528,,,,,down,1.593995500006713,7,0,0,99,0.56,0.07999999999999997,down,1.5129112000577152,,,,,,,,,,,,,,,,,,,,,,,,,,,,,,,,,,,,,,,,,,,,,,,,,,,,,,,,zoe,train_y,blue_star,top_right,2024-11-18_14h12.25.454,HideSeek_v1,2022.2.5,59.984368066382295,
,9,8,9,4,0,-4,65,,train_dim1_1,9,30,,,,2,0,2,0,,,,,,,,,0,0,0,0,0,8,8,8,2,0,2,0,,,,,,,,,,,,,,,,,,,,,,,,,,,,,,,,,,,,,,,,,,,,,,,,,,,,,,,,,,,,,,,,30,,,,,,,,171.60416640003677,171.60416640003677,171.60416640003677,171.60416640003677,171.60416640003677,,,,,down,0.593356000026688,7,0,0,99,0.56,-2.7755575615628914e-17,down,0.520544599974528,,,,,,,,,,,,,,,,,,,,,,,,,,,,,,,,,,,,,,,,,,,,,,,,,,,,,,,,zoe,train_y,blue_star,top_right,2024-11-18_14h12.25.454,HideSeek_v1,2022.2.5,59.984368066382295,
,9,8,9,4,0,-4,65,,train_dim1_1,9,30,,,,2,0,2,0,,,,,,,,,0,0,0,0,0,8,8,8,3,0,3,0,,,,,,,,,,,,,,,,,,,,,,,,,,,,,,,,,,,,,,,,,,,,,,,,,,,,,,,,,,,,,,,,30,,,,,,,,172.20531610003673,172.20531610003673,172.20531610003673,172.20531610003673,172.20531610003673,,,,,down,0.4930355999385938,7,0,0,99,0.56,-0.08000000000000003,down,0.41616669995710254,,,,,,,,,,,,,,,,,,,,,,,,,,,,,,,,,,,,,,,,,,,,,,,,,,,,,,,,zoe,train_y,blue_star,top_right,2024-11-18_14h12.25.454,HideSeek_v1,2022.2.5,59.984368066382295,
,9,8,9,4,0,-4,65,,train_dim1_1,9,30,,,,2,0,2,0,,,,,,,,,0,0,0,0,0,8,8,8,4,0,4,0,,,,,,,,,,,,,,,,,,,,,,,,,,,,,,,,,,,,,,,,,,,,,,,,,,,,,,,,,,,,,,,,30,,,,,,,,172.70515180006623,172.70515180006623,172.70515180006623,172.70515180006623,172.70515180006623,-17,0,0.56,-0.08000000000000003,return,0.643927099998109,8,0,0,1,0.56,-0.08000000000000003,return,0.5557101999875158,,,,,,,,,,,,,,,,,,,,,,,,,,,,,,,,,,,,,,,,,,,,,,,,,,,,,,,,zoe,train_y,blue_star,top_right,2024-11-18_14h12.25.454,HideSeek_v1,2022.2.5,59.984368066382295,
,7,7,7,2,0,-5,66,,train_dim1_1,10,30,,,,2,0,2,0,,,,,,,,,0,0,0,0,0,9,9,9,0,0,0,0,,,,,,,,,,,,,,,,,,,,,,,,,stimuli/alien_stimuli/66.png,,,,,,,,,,,,,,,,,,,,,,,,,,,,,stimuli/alien_stimuli/65.png,65,9,11,,,,,,,30,,,,,,,,176.89603170007467,176.89603170007467,176.89603170007467,176.89603170007467,176.89603170007467,,,,,down,1.0221588999265805,8,0,0,99,0.4,0.08,down,0.935873500071466,175.343839499983,176.89603170007467,0.56,-0.08,0.32,0.0,0.07999999999999999,0.56,0.56,0.56,-0.08,174.915947600035,174.915947600035,174.915947600035,174.915947600035,174.915947600035,174.915947600035,174.915947600035,174.915947600035,174.9101995399571,0.5362565000541508,return,0.39857339998707175,,,,,,,,,,,,,,,,,,,,,,,,,,,,,,,,,zoe,train_y,blue_star,top_right,2024-11-18_14h12.25.454,HideSeek_v1,2022.2.5,59.984368066382295,
,7,7,7,2,0,-5,66,,train_dim1_1,10,30,,,,2,0,2,0,,,,,,,,,0,0,0,0,0,9,9,9,1,0,1,0,,,,,,,,,,,,,,,,,,,,,,,,,,,,,,,,,,,,,,,,,,,,,,,,,,,,,,,,,,,,,,,,30,,,,,,,,177.92666130000725,177.92666130000725,177.92666130000725,177.92666130000725,177.92666130000725,,,,,down,0.3096141000278294,8,0,0,99,0.4,0.0,down,0.22642139997333288,,,,,,,,,,,,,,,,,,,,,,,,,,,,,,,,,,,,,,,,,,,,,,,,,,,,,,,,zoe,train_y,blue_star,top_right,2024-11-18_14h12.25.454,HideSeek_v1,2022.2.5,59.984368066382295,
,7,7,7,2,0,-5,66,,train_dim1_1,10,30,,,,2,0,2,0,,,,,,,,,0,0,0,0,0,9,9,9,2,0,2,0,,,,,,,,,,,,,,,,,,,,,,,,,,,,,,,,,,,,,,,,,,,,,,,,,,,,,,,,,,,,,,,,30,,,,,,,,178.2436343000736,178.2436343000736,178.2436343000736,178.2436343000736,178.2436343000736,,,,,down,0.3096606000326574,8,0,0,99,0.4,-0.08,down,0.221288500004448,,,,,,,,,,,,,,,,,,,,,,,,,,,,,,,,,,,,,,,,,,,,,,,,,,,,,,,,zoe,train_y,blue_star,top_right,2024-11-18_14h12.25.454,HideSeek_v1,2022.2.5,59.984368066382295,
,7,7,7,2,0,-5,66,,train_dim1_1,10,30,,,,2,0,2,0,,,,,,,,,0,0,0,0,0,9,9,9,3,0,3,0,,,,,,,,,,,,,,,,,,,,,,,,,,,,,,,,,,,,,,,,,,,,,,,,,,,,,,,,,,,,,,,,30,,,,,,,,178.5613606000552,178.5613606000552,178.5613606000552,178.5613606000552,178.5613606000552,,,,,down,0.34305140003561974,8,0,0,99,0.4,-0.16,down,0.2602378000738099,,,,,,,,,,,,,,,,,,,,,,,,,,,,,,,,,,,,,,,,,,,,,,,,,,,,,,,,zoe,train_y,blue_star,top_right,2024-11-18_14h12.25.454,HideSeek_v1,2022.2.5,59.984368066382295,
,7,7,7,2,0,-5,66,,train_dim1_1,10,30,,,,2,0,2,0,,,,,,,,,0,0,0,0,0,9,9,9,4,0,4,0,,,,,,,,,,,,,,,,,,,,,,,,,,,,,,,,,,,,,,,,,,,,,,,,,,,,,,,,,,,,,,,,30,,,,,,,,178.91196500009391,178.91196500009391,178.91196500009391,178.91196500009391,178.91196500009391,,,,,down,0.30991279997397214,8,0,0,99,0.4,-0.24,down,0.22898070001974702,,,,,,,,,,,,,,,,,,,,,,,,,,,,,,,,,,,,,,,,,,,,,,,,,,,,,,,,zoe,train_y,blue_star,top_right,2024-11-18_14h12.25.454,HideSeek_v1,2022.2.5,59.984368066382295,
,7,7,7,2,0,-5,66,,train_dim1_1,10,30,,,,2,0,2,0,,,,,,,,,0,0,0,0,0,9,9,9,5,0,5,0,,,,,,,,,,,,,,,,,,,,,,,,,,,,,,,,,,,,,,,,,,,,,,,,,,,,,,,,,,,,,,,,30,,,,,,,,179.23102280008607,179.23102280008607,179.23102280008607,179.23102280008607,179.23102280008607,-22,0,0.4,-0.24,return,0.4432831999147311,9,0,0,1,0.4,-0.24,return,0.3542784999590367,,,,,,,,,,,,,,,,,,,,,,,,,,,,,,,,,,,,,,,,,,,,,,,,,,,,,,,,zoe,train_y,blue_star,top_right,2024-11-18_14h12.25.454,HideSeek_v1,2022.2.5,59.984368066382295,
,9,6,9,2,0,-4,65,,train_dim1_1,11,30,,,,2,0,2,0,,,,,,,,,0,0,0,0,0,10,10,10,0,0,0,0,,,,,,,,,,,,,,,,,,,,,,,,,stimuli/alien_stimuli/65.png,,,,,,,,,,,,,,,,,,,,,,,,,,,,,stimuli/alien_stimuli/66.png,66,7,12,,,,,,,30,,,,,,,,183.13361620006617,183.13361620006617,183.13361620006617,183.13361620006617,183.13361620006617,,,,,down,1.0399772999808192,9,0,0,99,0.56,0.0,down,0.9589951999951154,181.58266369998455,183.13361620006617,0.4,-0.24,0.4,0.0,-0.039999999999999994,0.4,0.4,0.4,-0.24,181.23051290004514,181.23051290004514,181.23051290004514,181.23051290004514,181.23051290004514,181.23051290004514,181.23051290004514,181.23051290004514,181.2161038200371,0.4515323000960052,return,0.33414390007965267,,,,,,,,,,,,,,,,,,,,,,,,,,,,,,,,,zoe,train_y,blue_star,top_right,2024-11-18_14h12.25.454,HideSeek_v1,2022.2.5,59.984368066382295,
,9,6,9,2,0,-4,65,,train_dim1_1,11,30,,,,2,0,2,0,,,,,,,,,0,0,0,0,0,10,10,10,1,0,1,0,,,,,,,,,,,,,,,,,,,,,,,,,,,,,,,,,,,,,,,,,,,,,,,,,,,,,,,,,,,,,,,,30,,,,,,,,184.18232580006588,184.18232580006588,184.18232580006588,184.18232580006588,184.18232580006588,,,,,down,0.4094285999890417,9,0,0,99,0.56,-0.08,down,0.32141109998337924,,,,,,,,,,,,,,,,,,,,,,,,,,,,,,,,,,,,,,,,,,,,,,,,,,,,,,,,zoe,train_y,blue_star,top_right,2024-11-18_14h12.25.454,HideSeek_v1,2022.2.5,59.984368066382295,
,9,6,9,2,0,-4,65,,train_dim1_1,11,30,,,,2,0,2,0,,,,,,,,,0,0,0,0,0,10,10,10,2,0,2,0,,,,,,,,,,,,,,,,,,,,,,,,,,,,,,,,,,,,,,,,,,,,,,,,,,,,,,,,,,,,,,,,30,,,,,,,,184.5983173000859,184.5983173000859,184.5983173000859,184.5983173000859,184.5983173000859,,,,,down,0.3268777000484988,9,0,0,99,0.56,-0.16,down,0.24463550001382828,,,,,,,,,,,,,,,,,,,,,,,,,,,,,,,,,,,,,,,,,,,,,,,,,,,,,,,,zoe,train_y,blue_star,top_right,2024-11-18_14h12.25.454,HideSeek_v1,2022.2.5,59.984368066382295,
,9,6,9,2,0,-4,65,,train_dim1_1,11,30,,,,2,0,2,0,,,,,,,,,0,0,0,0,0,10,10,10,3,0,3,0,,,,,,,,,,,,,,,,,,,,,,,,,,,,,,,,,,,,,,,,,,,,,,,,,,,,,,,,,,,,,,,,30,,,,,,,,184.93242289999034,184.93242289999034,184.93242289999034,184.93242289999034,184.93242289999034,,,,,down,1.0606851999182254,9,0,0,99,0.56,-0.24,down,0.9773703999817371,,,,,,,,,,,,,,,,,,,,,,,,,,,,,,,,,,,,,,,,,,,,,,,,,,,,,,,,zoe,train_y,blue_star,top_right,2024-11-18_14h12.25.454,HideSeek_v1,2022.2.5,59.984368066382295,
,9,6,9,2,0,-4,65,,train_dim1_1,11,30,,,,2,0,2,0,,,,,,,,,0,0,0,0,0,10,10,10,4,0,4,0,,,,,,,,,,,,,,,,,,,,,,,,,,,,,,,,,,,,,,,,,,,,,,,,,,,,,,,,,,,,,,,,30,,,,,,,,186.00025030004326,186.00025030004326,186.00025030004326,186.00025030004326,186.00025030004326,-26,0,0.56,-0.24,return,1.3268351000733674,10,0,0,1,0.56,-0.24,return,1.2420239000348374,,,,,,,,,,,,,,,,,,,,,,,,,,,,,,,,,,,,,,,,,,,,,,,,,,,,,,,,zoe,train_y,blue_star,top_right,2024-11-18_14h12.25.454,HideSeek_v1,2022.2.5,59.984368066382295,
,5,5,5,5,0,0,61,,train_dim1_1,12,30,,,,2,0,2,0,,,,,,,,,0,0,0,0,0,11,11,11,0,0,0,0,,,,,,,,,,,,,,,,,,,,,,,,,stimuli/alien_stimuli/61.png,,,,,,,,,,,,,,,,,,,,,,,,,,,,,stimuli/alien_stimuli/65.png,65,9,13,,,,,,,30,,,,,,,,190.97487050003838,190.97487050003838,190.97487050003838,190.97487050003838,190.97487050003838,-26,0,0.24,0,return,1.422566199908033,11,0,0,1,0.24,0,return,1.3478975999169052,189.42226730007678,190.97487050003838,0.56,-0.24,0.32,0.0,-0.07999999999999999,0.56,0.56,0.56,-0.24,188.87626590009313,188.87626590009313,188.87626590009313,188.87626590009313,188.87626590009313,188.87626590009313,188.87626590009313,188.87626590009313,188.87190521999727,0.6360543000046164,return,0.5292553999461234,,,,,,,,,,,,,,,,,,,,,,,,,,,,,,,,,zoe,train_y,blue_star,top_right,2024-11-18_14h12.25.454,HideSeek_v1,2022.2.5,59.984368066382295,
,9,8,9,7,0,-1,62,,train_dim1_1,13,30,,,,2,0,2,0,,,,,,,,,0,0,0,0,0,12,12,12,0,0,0,0,,,,,,,,,,,,,,,,,,,,,,,,,stimuli/alien_stimuli/62.png,,,,,,,,,,,,,,,,,,,,,,,,,,,,,stimuli/alien_stimuli/61.png,61,5,14,,,,,,,30,,,,,,,,195.92946560005657,195.92946560005657,195.92946560005657,195.92946560005657,195.92946560005657,,,,,down,0.9548851000145078,11,0,0,99,0.56,0.15999999999999998,down,0.8738301999401301,194.3763358000433,195.92946560005657,0.24,0,0.0,0.0,0.0,0.24,0.24,0.24,0,193.94805380003527,193.94805380003527,193.94805380003527,193.94805380003527,193.94805380003527,193.94805380003527,193.94805380003527,193.94805380003527,193.94256182005628,0.5192213000264019,return,0.39646459999494255,,,,,,,,,,,,,,,,,,,,,,,,,,,,,,,,,zoe,train_y,blue_star,top_right,2024-11-18_14h12.25.454,HideSeek_v1,2022.2.5,59.984368066382295,
,9,8,9,7,0,-1,62,,train_dim1_1,13,30,,,,2,0,2,0,,,,,,,,,0,0,0,0,0,12,12,12,1,0,1,0,,,,,,,,,,,,,,,,,,,,,,,,,,,,,,,,,,,,,,,,,,,,,,,,,,,,,,,,,,,,,,,,30,,,,,,,,196.89318600005936,196.89318600005936,196.89318600005936,196.89318600005936,196.89318600005936,-27,0,0.56,0.15999999999999998,return,0.3095331999938935,12,0,0,1,0.56,0.15999999999999998,return,0.23135259991977364,,,,,,,,,,,,,,,,,,,,,,,,,,,,,,,,,,,,,,,,,,,,,,,,,,,,,,,,zoe,train_y,blue_star,top_right,2024-11-18_14h12.25.454,HideSeek_v1,2022.2.5,59.984368066382295,
,7,7,7,2,0,-5,66,,train_dim1_1,14,30,,,,2,0,2,0,,,,,,,,,0,0,0,0,0,13,13,13,0,0,0,0,,,,,,,,,,,,,,,,,,,,,,,,,stimuli/alien_stimuli/66.png,,,,,,,,,,,,,,,,,,,,,,,,,,,,,stimuli/alien_stimuli/62.png,62,9,15,,,,,,,30,,,,,,,,200.76545190007892,200.76545190007892,200.76545190007892,200.76545190007892,200.76545190007892,,,,,down,0.9735657999990508,12,0,0,99,0.4,0.08,down,0.8918865999439731,199.21373519999906,200.76545190007892,0.56,0.16,0.08,0.0,0.2,0.56,0.56,0.56,0.16,198.75118390005082,198.75118390005082,198.75118390005082,198.75118390005082,198.75118390005082,198.75118390005082,198.75118390005082,198.75118390005082,198.7466358200414,0.5531246999744326,return,0.44230920006521046,,,,,,,,,,,,,,,,,,,,,,,,,,,,,,,,,zoe,train_y,blue_star,top_right,2024-11-18_14h12.25.454,HideSeek_v1,2022.2.5,59.984368066382295,
,7,7,7,2,0,-5,66,,train_dim1_1,14,30,,,,2,0,2,0,,,,,,,,,0,0,0,0,0,13,13,13,1,0,1,0,,,,,,,,,,,,,,,,,,,,,,,,,,,,,,,,,,,,,,,,,,,,,,,,,,,,,,,,,,,,,,,,30,,,,,,,,201.74653130001388,201.74653130001388,201.74653130001388,201.74653130001388,201.74653130001388,,,,,down,0.30932980007492006,12,0,0,99,0.4,0.0,down,0.2205619999440387,,,,,,,,,,,,,,,,,,,,,,,,,,,,,,,,,,,,,,,,,,,,,,,,,,,,,,,,zoe,train_y,blue_star,top_right,2024-11-18_14h12.25.454,HideSeek_v1,2022.2.5,59.984368066382295,
,7,7,7,2,0,-5,66,,train_dim1_1,14,30,,,,2,0,2,0,,,,,,,,,0,0,0,0,0,13,13,13,2,0,2,0,,,,,,,,,,,,,,,,,,,,,,,,,,,,,,,,,,,,,,,,,,,,,,,,,,,,,,,,,,,,,,,,30,,,,,,,,202.0636397000635,202.0636397000635,202.0636397000635,202.0636397000635,202.0636397000635,,,,,down,0.2766018999973312,12,0,0,99,0.4,-0.08,down,0.2020608999300748,,,,,,,,,,,,,,,,,,,,,,,,,,,,,,,,,,,,,,,,,,,,,,,,,,,,,,,,zoe,train_y,blue_star,top_right,2024-11-18_14h12.25.454,HideSeek_v1,2022.2.5,59.984368066382295,
,7,7,7,2,0,-5,66,,train_dim1_1,14,30,,,,2,0,2,0,,,,,,,,,0,0,0,0,0,13,13,13,3,0,3,0,,,,,,,,,,,,,,,,,,,,,,,,,,,,,,,,,,,,,,,,,,,,,,,,,,,,,,,,,,,,,,,,30,,,,,,,,202.34626130003016,202.34626130003016,202.34626130003016,202.34626130003016,202.34626130003016,,,,,down,0.326823600102216,12,0,0,99,0.4,-0.16,down,0.23952180007472634,,,,,,,,,,,,,,,,,,,,,,,,,,,,,,,,,,,,,,,,,,,,,,,,,,,,,,,,zoe,train_y,blue_star,top_right,2024-11-18_14h12.25.454,HideSeek_v1,2022.2.5,59.984368066382295,
,7,7,7,2,0,-5,66,,train_dim1_1,14,30,,,,2,0,2,0,,,,,,,,,0,0,0,0,0,13,13,13,4,0,4,0,,,,,,,,,,,,,,,,,,,,,,,,,,,,,,,,,,,,,,,,,,,,,,,,,,,,,,,,,,,,,,,,30,,,,,,,,202.68146620003972,202.68146620003972,202.68146620003972,202.68146620003972,202.68146620003972,,,,,down,0.29319619992747903,12,0,0,99,0.4,-0.24,down,0.20610020007006824,,,,,,,,,,,,,,,,,,,,,,,,,,,,,,,,,,,,,,,,,,,,,,,,,,,,,,,,zoe,train_y,blue_star,top_right,2024-11-18_14h12.25.454,HideSeek_v1,2022.2.5,59.984368066382295,
,7,7,7,2,0,-5,66,,train_dim1_1,14,30,,,,2,0,2,0,,,,,,,,,0,0,0,0,0,13,13,13,5,0,5,0,,,,,,,,,,,,,,,,,,,,,,,,,,,,,,,,,,,,,,,,,,,,,,,,,,,,,,,,,,,,,,,,30,,,,,,,,202.98151419998612,202.98151419998612,202.98151419998612,202.98151419998612,202.98151419998612,-32,0,0.4,-0.24,return,0.31010529992636293,13,0,0,1,0.4,-0.24,return,0.2343614000128582,,,,,,,,,,,,,,,,,,,,,,,,,,,,,,,,,,,,,,,,,,,,,,,,,,,,,,,,zoe,train_y,blue_star,top_right,2024-11-18_14h12.25.454,HideSeek_v1,2022.2.5,59.984368066382295,
,6,9,6,6,0,-3,64,,train_dim1_1,15,30,,,,2,0,2,0,,,,,,,,,0,0,0,0,0,14,14,14,0,0,0,0,,,,,,,,,,,,,,,,,,,,,,,,,stimuli/alien_stimuli/64.png,,,,,,,,,,,,,,,,,,,,,,,,,,,,,stimuli/alien_stimuli/66.png,66,7,16,,,,,,,30,,,,,,,,206.7878659000853,206.7878659000853,206.7878659000853,206.7878659000853,206.7878659000853,,,,,down,1.2716341000050306,13,0,0,99,0.32,0.24,down,1.1897638000082225,205.2215167999966,204.84034150000662,0.4,-0.24,0.4,0.0,-0.039999999999999994,0.4,0.4,0.4,-0.24,204.84034150000662,204.84034150000662,204.84034150000662,204.84034150000662,204.84034150000662,204.84034150000662,204.84034150000662,204.84034150000662,204.83512432002462,0.4734469000250101,return,0.35449259995948523,,,,,,,,,,,,,,,,,,,,,,,,,,,,,,,,,zoe,train_y,blue_star,top_right,2024-11-18_14h12.25.454,HideSeek_v1,2022.2.5,59.984368066382295,
,6,9,6,6,0,-3,64,,train_dim1_1,15,30,,,,2,0,2,0,,,,,,,,,0,0,0,0,0,14,14,14,1,0,1,0,,,,,,,,,,,,,,,,,,,,,,,,,,,,,,,,,,,,,,,,,,,,,,,,,,,,,,,,,,,,,,,,30,,,,,,,,208.06816310004797,208.06816310004797,208.06816310004797,208.06816310004797,208.06816310004797,,,,,down,0.3265984000172466,13,0,0,99,0.32,0.15999999999999998,down,0.24849079991690814,,,,,,,,,,,,,,,,,,,,,,,,,,,,,,,,,,,,,,,,,,,,,,,,,,,,,,,,zoe,train_y,blue_star,top_right,2024-11-18_14h12.25.454,HideSeek_v1,2022.2.5,59.984368066382295,
,6,9,6,6,0,-3,64,,train_dim1_1,15,30,,,,2,0,2,0,,,,,,,,,0,0,0,0,0,14,14,14,2,0,2,0,,,,,,,,,,,,,,,,,,,,,,,,,,,,,,,,,,,,,,,,,,,,,,,,,,,,,,,,,,,,,,,,30,,,,,,,,208.4019319000654,208.4019319000654,208.4019319000654,208.4019319000654,208.4019319000654,,,,,down,0.30996810004580766,13,0,0,99,0.32,0.07999999999999997,down,0.23593480000272393,,,,,,,,,,,,,,,,,,,,,,,,,,,,,,,,,,,,,,,,,,,,,,,,,,,,,,,,zoe,train_y,blue_star,top_right,2024-11-18_14h12.25.454,HideSeek_v1,2022.2.5,59.984368066382295,
,6,9,6,6,0,-3,64,,train_dim1_1,15,30,,,,2,0,2,0,,,,,,,,,0,0,0,0,0,14,14,14,3,0,3,0,,,,,,,,,,,,,,,,,,,,,,,,,,,,,,,,,,,,,,,,,,,,,,,,,,,,,,,,,,,,,,,,30,,,,,,,,208.71935290005058,208.71935290005058,208.71935290005058,208.71935290005058,208.71935290005058,-35,0,0.32,0.07999999999999997,return,1.2437853999435902,14,0,0,1,0.32,0.07999999999999997,return,1.1545677999965847,,,,,,,,,,,,,,,,,,,,,,,,,,,,,,,,,,,,,,,,,,,,,,,,,,,,,,,,zoe,train_y,blue_star,top_right,2024-11-18_14h12.25.454,HideSeek_v1,2022.2.5,59.984368066382295,
,9,5,9,1,0,-4,65,,train_dim1_1,16,30,,,,2,0,2,0,,,,,,,,,0,0,0,0,0,15,15,15,0,0,0,0,,,,,,,,,,,,,,,,,,,,,,,,,stimuli/alien_stimuli/65.png,,,,,,,,,,,,,,,,,,,,,,,,,,,,,stimuli/alien_stimuli/64.png,64,6,17,,,,,,,30,,,,,,,,215.3108006999828,215.3108006999828,215.3108006999828,215.3108006999828,215.3108006999828,,,,,down,1.1568341999081895,14,0,0,99,0.56,-0.08,down,1.0807282000314444,213.75935150007717,215.3108006999828,0.32,0.08,0.24,0.0,0.2,0.32,0.32,0.32,0.08,211.5118256000569,211.5118256000569,211.5118256000569,211.5118256000569,211.5118256000569,211.5118256000569,211.5118256000569,211.5118256000569,211.5072394199902,2.3376575999427587,return,2.215672599966638,,,,,,,,,,,,,,,,,,,,,,,,,,,,,,,,,zoe,train_y,blue_star,top_right,2024-11-18_14h12.25.454,HideSeek_v1,2022.2.5,59.984368066382295,
,9,5,9,1,0,-4,65,,train_dim1_1,16,30,,,,2,0,2,0,,,,,,,,,0,0,0,0,0,15,15,15,1,0,1,0,,,,,,,,,,,,,,,,,,,,,,,,,,,,,,,,,,,,,,,,,,,,,,,,,,,,,,,,,,,,,,,,30,,,,,,,,216.47559320006985,216.47559320006985,216.47559320006985,216.47559320006985,216.47559320006985,,,,,down,0.09292160009499639,14,0,0,99,0.56,-0.16,down,0.014257500064559281,,,,,,,,,,,,,,,,,,,,,,,,,,,,,,,,,,,,,,,,,,,,,,,,,,,,,,,,zoe,train_y,blue_star,top_right,2024-11-18_14h12.25.454,HideSeek_v1,2022.2.5,59.984368066382295,
,9,5,9,1,0,-4,65,,train_dim1_1,16,30,,,,2,0,2,0,,,,,,,,,0,0,0,0,0,15,15,15,2,0,2,0,,,,,,,,,,,,,,,,,,,,,,,,,,,,,,,,,,,,,,,,,,,,,,,,,,,,,,,,,,,,,,,,30,,,,,,,,216.57583560002968,216.57583560002968,216.57583560002968,216.57583560002968,216.57583560002968,,,,,down,0.27634829992894083,14,0,0,99,0.56,-0.24,down,0.20027680008206517,,,,,,,,,,,,,,,,,,,,,,,,,,,,,,,,,,,,,,,,,,,,,,,,,,,,,,,,zoe,train_y,blue_star,top_right,2024-11-18_14h12.25.454,HideSeek_v1,2022.2.5,59.984368066382295,
,9,5,9,1,0,-4,65,,train_dim1_1,16,30,,,,2,0,2,0,,,,,,,,,0,0,0,0,0,15,15,15,3,0,3,0,,,,,,,,,,,,,,,,,,,,,,,,,,,,,,,,,,,,,,,,,,,,,,,,,,,,,,,,,,,,,,,,30,,,,,,,,216.85952080006246,216.85952080006246,216.85952080006246,216.85952080006246,216.85952080006246,,,,,down,1.043950300081633,14,0,0,99,0.56,-0.32,down,0.9701939999358729,,,,,,,,,,,,,,,,,,,,,,,,,,,,,,,,,,,,,,,,,,,,,,,,,,,,,,,,zoe,train_y,blue_star,top_right,2024-11-18_14h12.25.454,HideSeek_v1,2022.2.5,59.984368066382295,
,9,5,9,1,0,-4,65,,train_dim1_1,16,30,,,,2,0,2,0,,,,,,,,,0,0,0,0,0,15,15,15,4,0,4,0,,,,,,,,,,,,,,,,,,,,,,,,,,,,,,,,,,,,,,,,,,,,,,,,,,,,,,,,,,,,,,,,30,,,,,,,,217.90972580004018,217.90972580004018,217.90972580004018,217.90972580004018,217.90972580004018,-39,0,0.56,-0.32,return,1.0606133000692353,15,0,0,1,0.56,-0.32,return,0.9878866999642923,,,,,,,,,,,,,,,,,,,,,,,,,,,,,,,,,,,,,,,,,,,,,,,,,,,,,,,,zoe,train_y,blue_star,top_right,2024-11-18_14h12.25.454,HideSeek_v1,2022.2.5,59.984368066382295,
,8,8,8,5,0,-3,64,,train_dim1_1,17,30,,,,2,0,2,0,,,,,,,,,0,0,0,0,0,16,16,16,0,0,0,0,,,,,,,,,,,,,,,,,,,,,,,,,stimuli/alien_stimuli/64.png,,,,,,,,,,,,,,,,,,,,,,,,,,,,,stimuli/alien_stimuli/65.png,65,9,18,,,,,,,30,,,,,,,,222.83294670004398,222.83294670004398,222.83294670004398,222.83294670004398,222.83294670004398,,,,,down,0.7394757000729442,15,0,0,99,0.48,0.15999999999999998,down,0.6668241999577731,221.28204240009654,222.83294670004398,0.56,-0.32,0.32,0.0,-0.16,0.56,0.56,0.56,-0.32,220.52084910008125,220.52084910008125,220.52084910008125,220.52084910008125,220.52084910008125,220.52084910008125,220.52084910008125,220.52084910008125,220.51467492002993,0.8529374999925494,return,0.7322864000452682,,,,,,,,,,,,,,,,,,,,,,,,,,,,,,,,,zoe,train_y,blue_star,top_right,2024-11-18_14h12.25.454,HideSeek_v1,2022.2.5,59.984368066382295,
,8,8,8,5,0,-3,64,,train_dim1_1,17,30,,,,2,0,2,0,,,,,,,,,0,0,0,0,0,16,16,16,1,0,1,0,,,,,,,,,,,,,,,,,,,,,,,,,,,,,,,,,,,,,,,,,,,,,,,,,,,,,,,,,,,,,,,,30,,,,,,,,223.58033310004976,223.58033310004976,223.58033310004976,223.58033310004976,223.58033310004976,,,,,down,0.2762354000005871,15,0,0,99,0.48,0.07999999999999997,down,0.20211640000343323,,,,,,,,,,,,,,,,,,,,,,,,,,,,,,,,,,,,,,,,,,,,,,,,,,,,,,,,zoe,train_y,blue_star,top_right,2024-11-18_14h12.25.454,HideSeek_v1,2022.2.5,59.984368066382295,
,8,8,8,5,0,-3,64,,train_dim1_1,17,30,,,,2,0,2,0,,,,,,,,,0,0,0,0,0,16,16,16,2,0,2,0,,,,,,,,,,,,,,,,,,,,,,,,,,,,,,,,,,,,,,,,,,,,,,,,,,,,,,,,,,,,,,,,30,,,,,,,,223.8653146000579,223.8653146000579,223.8653146000579,223.8653146000579,223.8653146000579,,,,,down,0.3598827999085188,15,0,0,99,0.48,-2.7755575615628914e-17,down,0.2827312999870628,,,,,,,,,,,,,,,,,,,,,,,,,,,,,,,,,,,,,,,,,,,,,,,,,,,,,,,,zoe,train_y,blue_star,top_right,2024-11-18_14h12.25.454,HideSeek_v1,2022.2.5,59.984368066382295,
,8,8,8,5,0,-3,64,,train_dim1_1,17,30,,,,2,0,2,0,,,,,,,,,0,0,0,0,0,16,16,16,3,0,3,0,,,,,,,,,,,,,,,,,,,,,,,,,,,,,,,,,,,,,,,,,,,,,,,,,,,,,,,,,,,,,,,,30,,,,,,,,224.23338710004464,224.23338710004464,224.23338710004464,224.23338710004464,224.23338710004464,-42,0,0.48,-2.7755575615628914e-17,return,0.37676270003430545,16,0,0,1,0.48,-2.7755575615628914e-17,return,0.2889600000344217,,,,,,,,,,,,,,,,,,,,,,,,,,,,,,,,,,,,,,,,,,,,,,,,,,,,,,,,zoe,train_y,blue_star,top_right,2024-11-18_14h12.25.454,HideSeek_v1,2022.2.5,59.984368066382295,
,7,6,7,6,0,0,61,,train_dim1_1,18,30,,,,2,0,2,0,,,,,,,,,0,0,0,0,0,17,17,17,0,0,0,0,,,,,,,,,,,,,,,,,,,,,,,,,stimuli/alien_stimuli/61.png,,,,,,,,,,,,,,,,,,,,,,,,,,,,,stimuli/alien_stimuli/64.png,64,8,19,,,,,,,30,,,,,,,,228.27356580004562,228.27356580004562,228.27356580004562,228.27356580004562,228.27356580004562,,,,,down,0.7878805999644101,16,0,0,99,0.4,0.0,down,0.7048062999965623,226.71996050002053,228.27356580004562,0.48,0,0.24,0.0,0.12,0.48,0.48,0.48,0,226.15569819998927,226.15569819998927,226.15569819998927,226.15569819998927,226.15569819998927,226.15569819998927,226.15569819998927,226.15569819998927,226.15272812000475,0.6526319000404328,return,0.5402903000358492,,,,,,,,,,,,,,,,,,,,,,,,,,,,,,,,,zoe,train_y,blue_star,top_right,2024-11-18_14h12.25.454,HideSeek_v1,2022.2.5,59.984368066382295,
,7,6,7,6,0,0,61,,train_dim1_1,18,30,,,,2,0,2,0,,,,,,,,,0,0,0,0,0,17,17,17,1,0,1,0,,,,,,,,,,,,,,,,,,,,,,,,,,,,,,,,,,,,,,,,,,,,,,,,,,,,,,,,,,,,,,,,30,,,,,,,,229.06975220004097,229.06975220004097,229.06975220004097,229.06975220004097,229.06975220004097,,,,,up,1.0435559999896213,16,0,0,99,0.4,0.08,up,0.9605194999603555,,,,,,,,,,,,,,,,,,,,,,,,,,,,,,,,,,,,,,,,,,,,,,,,,,,,,,,,zoe,train_y,blue_star,top_right,2024-11-18_14h12.25.454,HideSeek_v1,2022.2.5,59.984368066382295,
,7,6,7,6,0,0,61,,train_dim1_1,18,30,,,,2,0,2,0,,,,,,,,,0,0,0,0,0,17,17,17,2,0,2,0,,,,,,,,,,,,,,,,,,,,,,,,,,,,,,,,,,,,,,,,,,,,,,,,,,,,,,,,,,,,,,,,30,,,,,,,,230.11984830000438,230.11984830000438,230.11984830000438,230.11984830000438,230.11984830000438,-42,0,0.4,0.08,return,0.24333490000572056,17,0,0,1,0.4,0.08,return,0.15995420003309846,,,,,,,,,,,,,,,,,,,,,,,,,,,,,,,,,,,,,,,,,,,,,,,,,,,,,,,,zoe,train_y,blue_star,top_right,2024-11-18_14h12.25.454,HideSeek_v1,2022.2.5,59.984368066382295,
,5,9,5,8,0,-1,62,,train_dim1_1,19,30,,,,2,0,2,0,,,,,,,,,0,0,0,0,0,18,18,18,0,0,0,0,,,,,,,,,,,,,,,,,,,,,,,,,stimuli/alien_stimuli/62.png,,,,,,,,,,,,,,,,,,,,,,,,,,,,,stimuli/alien_stimuli/61.png,61,7,20,,,,,,,30,,,,,,,,233.8941718999995,233.8941718999995,233.8941718999995,233.8941718999995,233.8941718999995,,,,,down,0.8551401000004262,17,0,0,99,0.24,0.24,down,0.7731471000006422,232.34143010003027,233.8941718999995,0.4,0.08,0.0,0.0,0.08,0.4,0.4,0.4,0.08,231.91339310002513,231.91339310002513,231.91339310002513,231.91339310002513,231.91339310002513,231.91339310002513,231.91339310002513,231.91339310002513,231.90780582001898,0.519345699925907,return,0.4072220999514684,,,,,,,,,,,,,,,,,,,,,,,,,,,,,,,,,zoe,train_y,blue_star,top_right,2024-11-18_14h12.25.454,HideSeek_v1,2022.2.5,59.984368066382295,
,5,9,5,8,0,-1,62,,train_dim1_1,19,30,,,,2,0,2,0,,,,,,,,,0,0,0,0,0,18,18,18,1,0,1,0,,,,,,,,,,,,,,,,,,,,,,,,,,,,,,,,,,,,,,,,,,,,,,,,,,,,,,,,,,,,,,,,30,,,,,,,,234.7564534000121,234.7564534000121,234.7564534000121,234.7564534000121,234.7564534000121,-43,0,0.24,0.24,return,0.4264047999167815,18,0,0,1,0.24,0.24,return,0.34939650003798306,,,,,,,,,,,,,,,,,,,,,,,,,,,,,,,,,,,,,,,,,,,,,,,,,,,,,,,,zoe,train_y,blue_star,top_right,2024-11-18_14h12.25.454,HideSeek_v1,2022.2.5,59.984368066382295,
,7,5,7,0,0,-5,66,,train_dim1_1,20,30,,,,2,0,2,0,,,,,,,,,0,0,0,0,0,19,19,19,0,0,0,0,,,,,,,,,,,,,,,,,,,,,,,,,stimuli/alien_stimuli/66.png,,,,,,,,,,,,,,,,,,,,,,,,,,,,,stimuli/alien_stimuli/62.png,62,5,21,,,,,,,30,,,,,,,,239.09772060008254,239.09772060008254,239.09772060008254,239.09772060008254,239.09772060008254,,,,,down,0.9389302000636235,18,0,0,99,0.4,-0.08,down,0.854493600083515,237.5456364999991,239.09772060008254,0.24,0.24,0.08,0.0,0.28,0.24,0.24,0.24,0.24,236.73420649999753,236.73420649999753,236.73420649999753,236.73420649999753,236.73420649999753,236.73420649999753,236.73420649999753,236.73420649999753,236.728176719998,0.9032142000505701,return,0.7905391999520361,,,,,,,,,,,,,,,,,,,,,,,,,,,,,,,,,zoe,train_y,blue_star,top_right,2024-11-18_14h12.25.454,HideSeek_v1,2022.2.5,59.984368066382295,
,7,5,7,0,0,-5,66,,train_dim1_1,20,30,,,,2,0,2,0,,,,,,,,,0,0,0,0,0,19,19,19,1,0,1,0,,,,,,,,,,,,,,,,,,,,,,,,,,,,,,,,,,,,,,,,,,,,,,,,,,,,,,,,,,,,,,,,30,,,,,,,,240.0459374000784,240.0459374000784,240.0459374000784,240.0459374000784,240.0459374000784,,,,,down,0.2259182999841869,18,0,0,99,0.4,-0.16,down,0.14969629992265254,,,,,,,,,,,,,,,,,,,,,,,,,,,,,,,,,,,,,,,,,,,,,,,,,,,,,,,,zoe,train_y,blue_star,top_right,2024-11-18_14h12.25.454,HideSeek_v1,2022.2.5,59.984368066382295,
,7,5,7,0,0,-5,66,,train_dim1_1,20,30,,,,2,0,2,0,,,,,,,,,0,0,0,0,0,19,19,19,2,0,2,0,,,,,,,,,,,,,,,,,,,,,,,,,,,,,,,,,,,,,,,,,,,,,,,,,,,,,,,,,,,,,,,,30,,,,,,,,240.27956490009092,240.27956490009092,240.27956490009092,240.27956490009092,240.27956490009092,,,,,down,0.24324280000291765,18,0,0,99,0.4,-0.24,down,0.15929400001186877,,,,,,,,,,,,,,,,,,,,,,,,,,,,,,,,,,,,,,,,,,,,,,,,,,,,,,,,zoe,train_y,blue_star,top_right,2024-11-18_14h12.25.454,HideSeek_v1,2022.2.5,59.984368066382295,
,7,5,7,0,0,-5,66,,train_dim1_1,20,30,,,,2,0,2,0,,,,,,,,,0,0,0,0,0,19,19,19,3,0,3,0,,,,,,,,,,,,,,,,,,,,,,,,,,,,,,,,,,,,,,,,,,,,,,,,,,,,,,,,,,,,,,,,30,,,,,,,,240.52826450008433,240.52826450008433,240.52826450008433,240.52826450008433,240.52826450008433,,,,,down,0.22650570003315806,18,0,0,99,0.4,-0.32,down,0.1533370999386534,,,,,,,,,,,,,,,,,,,,,,,,,,,,,,,,,,,,,,,,,,,,,,,,,,,,,,,,zoe,train_y,blue_star,top_right,2024-11-18_14h12.25.454,HideSeek_v1,2022.2.5,59.984368066382295,
,7,5,7,0,0,-5,66,,train_dim1_1,20,30,,,,2,0,2,0,,,,,,,,,0,0,0,0,0,19,19,19,4,0,4,0,,,,,,,,,,,,,,,,,,,,,,,,,,,,,,,,,,,,,,,,,,,,,,,,,,,,,,,,,,,,,,,,30,,,,,,,,240.76252610003576,240.76252610003576,240.76252610003576,240.76252610003576,240.76252610003576,,,,,down,0.2931863999692723,18,0,0,99,0.4,-0.4,down,0.20381340000312775,,,,,,,,,,,,,,,,,,,,,,,,,,,,,,,,,,,,,,,,,,,,,,,,,,,,,,,,zoe,train_y,blue_star,top_right,2024-11-18_14h12.25.454,HideSeek_v1,2022.2.5,59.984368066382295,
,7,5,7,0,0,-5,66,,train_dim1_1,20,30,,,,2,0,2,0,,,,,,,,,0,0,0,0,0,19,19,19,5,0,5,0,,,,,,,,,,,,,,,,,,,,,,,,,,,,,,,,,,,,,,,,,,,,,,,,,,,,,,,,,,,,,,,,30,,,,,,,,241.07570680009667,241.07570680009667,241.07570680009667,241.07570680009667,241.07570680009667,-48,0,0.4,-0.4,return,0.5433387000812218,19,0,0,1,0.4,-0.4,return,0.44722830003593117,,,,,,,,,,,,,,,,,,,,,,,,,,,,,,,,,,,,,,,,,,,,,,,,,,,,,,,,zoe,train_y,blue_star,top_right,2024-11-18_14h12.25.454,HideSeek_v1,2022.2.5,59.984368066382295,
,7,9,7,5,0,-4,65,,train_dim1_1,21,30,,,,2,0,2,0,,,,,,,,,0,0,0,0,0,20,20,20,0,0,0,0,,,,,,,,,,,,,,,,,,,,,,,,,stimuli/alien_stimuli/65.png,,,,,,,,,,,,,,,,,,,,,,,,,,,,,stimuli/alien_stimuli/66.png,66,7,22,,,,,,,30,,,,,,,,245.1856845000293,245.1856845000293,245.1856845000293,245.1856845000293,245.1856845000293,,,,,down,0.8225041000405326,19,0,0,99,0.4,0.24,down,0.7436606000410393,243.63386170007288,245.1856845000293,0.4,-0.4,0.4,0.0,-0.2,0.4,0.4,0.4,-0.4,243.15534830000252,243.15534830000252,243.15534830000252,243.15534830000252,243.15534830000252,243.15534830000252,243.15534830000252,243.15534830000252,243.15022422003094,0.5692446999019012,return,0.44677819998469204,,,,,,,,,,,,,,,,,,,,,,,,,,,,,,,,,zoe,train_y,blue_star,top_right,2024-11-18_14h12.25.454,HideSeek_v1,2022.2.5,59.984368066382295,
,7,9,7,5,0,-4,65,,train_dim1_1,21,30,,,,2,0,2,0,,,,,,,,,0,0,0,0,0,20,20,20,1,0,1,0,,,,,,,,,,,,,,,,,,,,,,,,,,,,,,,,,,,,,,,,,,,,,,,,,,,,,,,,,,,,,,,,30,,,,,,,,246.01660640002228,246.01660640002228,246.01660640002228,246.01660640002228,246.01660640002228,,,,,down,0.3262719999765977,19,0,0,99,0.4,0.15999999999999998,down,0.2525462000630796,,,,,,,,,,,,,,,,,,,,,,,,,,,,,,,,,,,,,,,,,,,,,,,,,,,,,,,,zoe,train_y,blue_star,top_right,2024-11-18_14h12.25.454,HideSeek_v1,2022.2.5,59.984368066382295,
,7,9,7,5,0,-4,65,,train_dim1_1,21,30,,,,2,0,2,0,,,,,,,,,0,0,0,0,0,20,20,20,2,0,2,0,,,,,,,,,,,,,,,,,,,,,,,,,,,,,,,,,,,,,,,,,,,,,,,,,,,,,,,,,,,,,,,,30,,,,,,,,246.35071690008044,246.35071690008044,246.35071690008044,246.35071690008044,246.35071690008044,,,,,down,0.2934146999614313,19,0,0,99,0.4,0.07999999999999997,down,0.21457220008596778,,,,,,,,,,,,,,,,,,,,,,,,,,,,,,,,,,,,,,,,,,,,,,,,,,,,,,,,zoe,train_y,blue_star,top_right,2024-11-18_14h12.25.454,HideSeek_v1,2022.2.5,59.984368066382295,
,7,9,7,5,0,-4,65,,train_dim1_1,21,30,,,,2,0,2,0,,,,,,,,,0,0,0,0,0,20,20,20,3,0,3,0,,,,,,,,,,,,,,,,,,,,,,,,,,,,,,,,,,,,,,,,,,,,,,,,,,,,,,,,,,,,,,,,30,,,,,,,,246.65024530002847,246.65024530002847,246.65024530002847,246.65024530002847,246.65024530002847,,,,,down,0.2433288999600336,19,0,0,99,0.4,-2.7755575615628914e-17,down,0.16592689999379218,,,,,,,,,,,,,,,,,,,,,,,,,,,,,,,,,,,,,,,,,,,,,,,,,,,,,,,,zoe,train_y,blue_star,top_right,2024-11-18_14h12.25.454,HideSeek_v1,2022.2.5,59.984368066382295,
,7,9,7,5,0,-4,65,,train_dim1_1,21,30,,,,2,0,2,0,,,,,,,,,0,0,0,0,0,20,20,20,4,0,4,0,,,,,,,,,,,,,,,,,,,,,,,,,,,,,,,,,,,,,,,,,,,,,,,,,,,,,,,,,,,,,,,,30,,,,,,,,246.90123930003028,246.90123930003028,246.90123930003028,246.90123930003028,246.90123930003028,-52,0,0.4,-2.7755575615628914e-17,return,0.326105400105007,20,0,0,1,0.4,-2.7755575615628914e-17,return,0.25071139994543046,,,,,,,,,,,,,,,,,,,,,,,,,,,,,,,,,,,,,,,,,,,,,,,,,,,,,,,,zoe,train_y,blue_star,top_right,2024-11-18_14h12.25.454,HideSeek_v1,2022.2.5,59.984368066382295,
,5,7,5,4,0,-3,64,,train_dim1_1,22,30,,,,2,0,2,0,,,,,,,,,0,0,0,0,0,21,21,21,0,0,0,0,,,,,,,,,,,,,,,,,,,,,,,,,stimuli/alien_stimuli/64.png,,,,,,,,,,,,,,,,,,,,,,,,,,,,,stimuli/alien_stimuli/65.png,65,7,23,,,,,,,30,,,,,,,,250.67345900007058,250.67345900007058,250.67345900007058,250.67345900007058,250.67345900007058,,,,,down,0.7052556000417098,20,0,0,99,0.24,0.08,down,0.6266245999140665,249.1217965000542,250.67345900007058,0.4,0,0.32,0.0,0.16,0.4,0.4,0.4,0,248.77593620005064,248.77593620005064,248.77593620005064,248.77593620005064,248.77593620005064,248.77593620005064,248.77593620005064,248.77593620005064,248.77161412001587,0.43569910002406687,return,0.32110310008283705,,,,,,,,,,,,,,,,,,,,,,,,,,,,,,,,,zoe,train_y,blue_star,top_right,2024-11-18_14h12.25.454,HideSeek_v1,2022.2.5,59.984368066382295,
,5,7,5,4,0,-3,64,,train_dim1_1,22,30,,,,2,0,2,0,,,,,,,,,0,0,0,0,0,21,21,21,1,0,1,0,,,,,,,,,,,,,,,,,,,,,,,,,,,,,,,,,,,,,,,,,,,,,,,,,,,,,,,,,,,,,,,,30,,,,,,,,251.38746250001714,251.38746250001714,251.38746250001714,251.38746250001714,251.38746250001714,,,,,down,0.2762729999376461,20,0,0,99,0.24,0.0,down,0.19246849999763072,,,,,,,,,,,,,,,,,,,,,,,,,,,,,,,,,,,,,,,,,,,,,,,,,,,,,,,,zoe,train_y,blue_star,top_right,2024-11-18_14h12.25.454,HideSeek_v1,2022.2.5,59.984368066382295,
,5,7,5,4,0,-3,64,,train_dim1_1,22,30,,,,2,0,2,0,,,,,,,,,0,0,0,0,0,21,21,21,2,0,2,0,,,,,,,,,,,,,,,,,,,,,,,,,,,,,,,,,,,,,,,,,,,,,,,,,,,,,,,,,,,,,,,,30,,,,,,,,251.67119060002733,251.67119060002733,251.67119060002733,251.67119060002733,251.67119060002733,,,,,down,0.25942560005933046,20,0,0,99,0.24,-0.08,down,0.18499019998125732,,,,,,,,,,,,,,,,,,,,,,,,,,,,,,,,,,,,,,,,,,,,,,,,,,,,,,,,zoe,train_y,blue_star,top_right,2024-11-18_14h12.25.454,HideSeek_v1,2022.2.5,59.984368066382295,
,5,7,5,4,0,-3,64,,train_dim1_1,22,30,,,,2,0,2,0,,,,,,,,,0,0,0,0,0,21,21,21,3,0,3,0,,,,,,,,,,,,,,,,,,,,,,,,,,,,,,,,,,,,,,,,,,,,,,,,,,,,,,,,,,,,,,,,30,,,,,,,,251.9373130000895,251.9373130000895,251.9373130000895,251.9373130000895,251.9373130000895,-55,0,0.24,-0.08,return,0.4768532000016421,21,0,0,1,0.24,-0.08,return,0.39091049996204674,,,,,,,,,,,,,,,,,,,,,,,,,,,,,,,,,,,,,,,,,,,,,,,,,,,,,,,,zoe,train_y,blue_star,top_right,2024-11-18_14h12.25.454,HideSeek_v1,2022.2.5,59.984368066382295,
,5,8,5,8,0,0,61,,train_dim1_1,23,30,,,,2,0,2,0,,,,,,,,,0,0,0,0,0,22,22,22,0,0,0,0,,,,,,,,,,,,,,,,,,,,,,,,,stimuli/alien_stimuli/61.png,,,,,,,,,,,,,,,,,,,,,,,,,,,,,stimuli/alien_stimuli/64.png,64,5,24,,,,,,,30,,,,,,,,255.88181350007653,255.88181350007653,255.88181350007653,255.88181350007653,255.88181350007653,-55,0,0.24,0.24,return,1.687450399971567,22,0,0,1,0.24,0.24,return,1.5981873999116942,254.32613270008005,255.88181350007653,0.24,-0.08,0.24,0.0,0.04,0.24,0.24,0.24,-0.08,253.96308850008063,253.96308850008063,253.96308850008063,253.96308850008063,253.96308850008063,253.96308850008063,253.96308850008063,253.96308850008063,253.95905332001857,0.4527465000282973,return,0.3390632000518963,,,,,,,,,,,,,,,,,,,,,,,,,,,,,,,,,zoe,train_y,blue_star,top_right,2024-11-18_14h12.25.454,HideSeek_v1,2022.2.5,59.984368066382295,
,8,7,8,2,0,-5,66,,train_dim1_1,24,30,,,,2,0,2,0,,,,,,,,,0,0,0,0,0,23,23,23,0,0,0,0,,,,,,,,,,,,,,,,,,,,,,,,,stimuli/alien_stimuli/66.png,,,,,,,,,,,,,,,,,,,,,,,,,,,,,stimuli/alien_stimuli/61.png,61,5,25,,,,,,,30,,,,,,,,261.16557930002455,261.16557930002455,261.16557930002455,261.16557930002455,261.16557930002455,,,,,down,1.7735634999116883,22,0,0,99,0.48,0.08,down,1.6970717000076547,259.61375430005137,261.16557930002455,0.24,0.24,0.0,0.0,0.24,0.24,0.24,0.24,0.24,259.1194041999988,259.1194041999988,259.1194041999988,259.1194041999988,259.1194041999988,259.1194041999988,259.1194041999988,259.1194041999988,259.1135305200238,0.5859017999609932,return,0.4704520999221131,,,,,,,,,,,,,,,,,,,,,,,,,,,,,,,,,zoe,train_y,blue_star,top_right,2024-11-18_14h12.25.454,HideSeek_v1,2022.2.5,59.984368066382295,
,8,7,8,2,0,-5,66,,train_dim1_1,24,30,,,,2,0,2,0,,,,,,,,,0,0,0,0,0,23,23,23,1,0,1,0,,,,,,,,,,,,,,,,,,,,,,,,,,,,,,,,,,,,,,,,,,,,,,,,,,,,,,,,,,,,,,,,30,,,,,,,,262.9482764999848,262.9482764999848,262.9482764999848,262.9482764999848,262.9482764999848,,,,,down,0.35945920005906373,22,0,0,99,0.48,0.0,down,0.28344569995533675,,,,,,,,,,,,,,,,,,,,,,,,,,,,,,,,,,,,,,,,,,,,,,,,,,,,,,,,zoe,train_y,blue_star,top_right,2024-11-18_14h12.25.454,HideSeek_v1,2022.2.5,59.984368066382295,
,8,7,8,2,0,-5,66,,train_dim1_1,24,30,,,,2,0,2,0,,,,,,,,,0,0,0,0,0,23,23,23,2,0,2,0,,,,,,,,,,,,,,,,,,,,,,,,,,,,,,,,,,,,,,,,,,,,,,,,,,,,,,,,,,,,,,,,30,,,,,,,,263.31423360004555,263.31423360004555,263.31423360004555,263.31423360004555,263.31423360004555,,,,,down,0.20962490001693368,22,0,0,99,0.48,-0.08,down,0.13388400000985712,,,,,,,,,,,,,,,,,,,,,,,,,,,,,,,,,,,,,,,,,,,,,,,,,,,,,,,,zoe,train_y,blue_star,top_right,2024-11-18_14h12.25.454,HideSeek_v1,2022.2.5,59.984368066382295,
,8,7,8,2,0,-5,66,,train_dim1_1,24,30,,,,2,0,2,0,,,,,,,,,0,0,0,0,0,23,23,23,3,0,3,0,,,,,,,,,,,,,,,,,,,,,,,,,,,,,,,,,,,,,,,,,,,,,,,,,,,,,,,,,,,,,,,,30,,,,,,,,263.5307108000852,263.5307108000852,263.5307108000852,263.5307108000852,263.5307108000852,,,,,down,0.32655740005429834,22,0,0,99,0.48,-0.16,down,0.23912929999642074,,,,,,,,,,,,,,,,,,,,,,,,,,,,,,,,,,,,,,,,,,,,,,,,,,,,,,,,zoe,train_y,blue_star,top_right,2024-11-18_14h12.25.454,HideSeek_v1,2022.2.5,59.984368066382295,
,8,7,8,2,0,-5,66,,train_dim1_1,24,30,,,,2,0,2,0,,,,,,,,,0,0,0,0,0,23,23,23,4,0,4,0,,,,,,,,,,,,,,,,,,,,,,,,,,,,,,,,,,,,,,,,,,,,,,,,,,,,,,,,,,,,,,,,30,,,,,,,,263.865684300079,263.865684300079,263.865684300079,263.865684300079,263.865684300079,,,,,down,0.2599104999098927,22,0,0,99,0.48,-0.24,down,0.184390899958089,,,,,,,,,,,,,,,,,,,,,,,,,,,,,,,,,,,,,,,,,,,,,,,,,,,,,,,,zoe,train_y,blue_star,top_right,2024-11-18_14h12.25.454,HideSeek_v1,2022.2.5,59.984368066382295,
,8,7,8,2,0,-5,66,,train_dim1_1,24,30,,,,2,0,2,0,,,,,,,,,0,0,0,0,0,23,23,23,5,0,5,0,,,,,,,,,,,,,,,,,,,,,,,,,,,,,,,,,,,,,,,,,,,,,,,,,,,,,,,,,,,,,,,,30,,,,,,,,264.1402643000474,264.1402643000474,264.1402643000474,264.1402643000474,264.1402643000474,-60,0,0.48,-0.24,return,0.6265217999462038,23,0,0,1,0.48,-0.24,return,0.5297608999535441,,,,,,,,,,,,,,,,,,,,,,,,,,,,,,,,,,,,,,,,,,,,,,,,,,,,,,,,zoe,train_y,blue_star,top_right,2024-11-18_14h12.25.454,HideSeek_v1,2022.2.5,59.984368066382295,
,8,8,8,7,0,-1,62,,train_dim1_1,25,30,,,,2,0,2,0,,,,,,,,,0,0,0,0,0,24,24,24,0,0,0,0,,,,,,,,,,,,,,,,,,,,,,,,,stimuli/alien_stimuli/62.png,,,,,,,,,,,,,,,,,,,,,,,,,,,,,stimuli/alien_stimuli/66.png,66,8,26,,,,,,,30,,,,,,,,268.2887955000624,268.2887955000624,268.2887955000624,268.2887955000624,268.2887955000624,,,,,down,1.1569966999813914,23,0,0,99,0.48,0.15999999999999998,down,1.0828282999573275,266.73701959999744,268.2887955000624,0.48,-0.24,0.4,0.0,-0.039999999999999994,0.48,0.48,0.48,-0.24,266.31347350007854,266.31347350007854,266.31347350007854,266.31347350007854,266.31347350007854,266.31347350007854,266.31347350007854,266.31347350007854,266.3029676199891,0.519541599904187,return,0.40425110002979636,,,,,,,,,,,,,,,,,,,,,,,,,,,,,,,,,zoe,train_y,blue_star,top_right,2024-11-18_14h12.25.454,HideSeek_v1,2022.2.5,59.984368066382295,
,8,8,8,7,0,-1,62,,train_dim1_1,25,30,,,,2,0,2,0,,,,,,,,,0,0,0,0,0,24,24,24,1,0,1,0,,,,,,,,,,,,,,,,,,,,,,,,,,,,,,,,,,,,,,,,,,,,,,,,,,,,,,,,,,,,,,,,30,,,,,,,,269.45274450001307,269.45274450001307,269.45274450001307,269.45274450001307,269.45274450001307,-61,0,0.48,0.15999999999999998,return,0.609587800106965,24,0,0,1,0.48,0.15999999999999998,return,0.5263227999676019,,,,,,,,,,,,,,,,,,,,,,,,,,,,,,,,,,,,,,,,,,,,,,,,,,,,,,,,zoe,train_y,blue_star,top_right,2024-11-18_14h12.25.454,HideSeek_v1,2022.2.5,59.984368066382295,
,9,9,9,6,0,-3,64,,train_dim1_1,26,30,,,,2,0,2,0,,,,,,,,,0,0,0,0,0,25,25,25,0,0,0,0,,,,,,,,,,,,,,,,,,,,,,,,,stimuli/alien_stimuli/64.png,,,,,,,,,,,,,,,,,,,,,,,,,,,,,stimuli/alien_stimuli/62.png,62,8,27,,,,,,,30,,,,,,,,273.65935820003506,273.65935820003506,273.65935820003506,273.65935820003506,273.65935820003506,,,,,down,0.9228210999863222,24,0,0,99,0.56,0.24,down,0.8461667000083253,272.1070623000851,273.65935820003506,0.48,0.16,0.08,0.0,0.2,0.48,0.48,0.48,0.16,271.6132192000514,271.6132192000514,271.6132192000514,271.6132192000514,271.6132192000514,271.6132192000514,271.6132192000514,271.6132192000514,271.60754062004855,0.5858498000307009,return,0.4743272999767214,,,,,,,,,,,,,,,,,,,,,,,,,,,,,,,,,zoe,train_y,blue_star,top_right,2024-11-18_14h12.25.454,HideSeek_v1,2022.2.5,59.984368066382295,
,9,9,9,6,0,-3,64,,train_dim1_1,26,30,,,,2,0,2,0,,,,,,,,,0,0,0,0,0,25,25,25,1,0,1,0,,,,,,,,,,,,,,,,,,,,,,,,,,,,,,,,,,,,,,,,,,,,,,,,,,,,,,,,,,,,,,,,30,,,,,,,,274.58955620008055,274.58955620008055,274.58955620008055,274.58955620008055,274.58955620008055,,,,,down,0.24271049990784377,24,0,0,99,0.56,0.15999999999999998,down,0.1603326000040397,,,,,,,,,,,,,,,,,,,,,,,,,,,,,,,,,,,,,,,,,,,,,,,,,,,,,,,,zoe,train_y,blue_star,top_right,2024-11-18_14h12.25.454,HideSeek_v1,2022.2.5,59.984368066382295,
,9,9,9,6,0,-3,64,,train_dim1_1,26,30,,,,2,0,2,0,,,,,,,,,0,0,0,0,0,25,25,25,2,0,2,0,,,,,,,,,,,,,,,,,,,,,,,,,,,,,,,,,,,,,,,,,,,,,,,,,,,,,,,,,,,,,,,,30,,,,,,,,274.839355800068,274.839355800068,274.839355800068,274.839355800068,274.839355800068,,,,,down,0.27657250000629574,24,0,0,99,0.56,0.07999999999999997,down,0.1965142999542877,,,,,,,,,,,,,,,,,,,,,,,,,,,,,,,,,,,,,,,,,,,,,,,,,,,,,,,,zoe,train_y,blue_star,top_right,2024-11-18_14h12.25.454,HideSeek_v1,2022.2.5,59.984368066382295,
,9,9,9,6,0,-3,64,,train_dim1_1,26,30,,,,2,0,2,0,,,,,,,,,0,0,0,0,0,25,25,25,3,0,3,0,,,,,,,,,,,,,,,,,,,,,,,,,,,,,,,,,,,,,,,,,,,,,,,,,,,,,,,,,,,,,,,,30,,,,,,,,275.12320640007965,275.12320640007965,275.12320640007965,275.12320640007965,275.12320640007965,-64,0,0.56,0.07999999999999997,return,0.4268422999884933,25,0,0,1,0.56,0.07999999999999997,return,0.35430230002384633,,,,,,,,,,,,,,,,,,,,,,,,,,,,,,,,,,,,,,,,,,,,,,,,,,,,,,,,zoe,train_y,blue_star,top_right,2024-11-18_14h12.25.454,HideSeek_v1,2022.2.5,59.984368066382295,
,8,9,8,4,0,-5,66,,train_dim1_1,27,30,,,,2,0,2,0,,,,,,,,,0,0,0,0,0,26,26,26,0,0,0,0,,,,,,,,,,,,,,,,,,,,,,,,,stimuli/alien_stimuli/66.png,,,,,,,,,,,,,,,,,,,,,,,,,,,,,stimuli/alien_stimuli/64.png,64,9,28,,,,,,,30,,,,,,,,279.249237800017,279.249237800017,279.249237800017,279.249237800017,279.249237800017,,,,,down,1.3228658000007272,25,0,0,99,0.48,0.24,down,1.2383527000201866,277.69544230005704,279.249237800017,0.56,0.08,0.24,0.0,0.2,0.56,0.56,0.56,0.08,277.0993251000764,277.0993251000764,277.0993251000764,277.0993251000764,277.0993251000764,277.0993251000764,277.0993251000764,277.0993251000764,277.0952339200536,0.6856580999447033,return,0.5724693000083789,,,,,,,,,,,,,,,,,,,,,,,,,,,,,,,,,zoe,train_y,blue_star,top_right,2024-11-18_14h12.25.454,HideSeek_v1,2022.2.5,59.984368066382295,
,8,9,8,4,0,-5,66,,train_dim1_1,27,30,,,,2,0,2,0,,,,,,,,,0,0,0,0,0,26,26,26,1,0,1,0,,,,,,,,,,,,,,,,,,,,,,,,,,,,,,,,,,,,,,,,,,,,,,,,,,,,,,,,,,,,,,,,30,,,,,,,,280.57823920005467,280.57823920005467,280.57823920005467,280.57823920005467,280.57823920005467,,,,,down,0.3595583999995142,25,0,0,99,0.48,0.15999999999999998,down,0.27950579999014735,,,,,,,,,,,,,,,,,,,,,,,,,,,,,,,,,,,,,,,,,,,,,,,,,,,,,,,,zoe,train_y,blue_star,top_right,2024-11-18_14h12.25.454,HideSeek_v1,2022.2.5,59.984368066382295,
,8,9,8,4,0,-5,66,,train_dim1_1,27,30,,,,2,0,2,0,,,,,,,,,0,0,0,0,0,26,26,26,2,0,2,0,,,,,,,,,,,,,,,,,,,,,,,,,,,,,,,,,,,,,,,,,,,,,,,,,,,,,,,,,,,,,,,,30,,,,,,,,280.9442624000367,280.9442624000367,280.9442624000367,280.9442624000367,280.9442624000367,,,,,down,0.3267910999711603,25,0,0,99,0.48,0.07999999999999997,down,0.2446855999296531,,,,,,,,,,,,,,,,,,,,,,,,,,,,,,,,,,,,,,,,,,,,,,,,,,,,,,,,zoe,train_y,blue_star,top_right,2024-11-18_14h12.25.454,HideSeek_v1,2022.2.5,59.984368066382295,
,8,9,8,4,0,-5,66,,train_dim1_1,27,30,,,,2,0,2,0,,,,,,,,,0,0,0,0,0,26,26,26,3,0,3,0,,,,,,,,,,,,,,,,,,,,,,,,,,,,,,,,,,,,,,,,,,,,,,,,,,,,,,,,,,,,,,,,30,,,,,,,,281.28416650008876,281.28416650008876,281.28416650008876,281.28416650008876,281.28416650008876,,,,,down,0.32573439995758235,25,0,0,99,0.48,-2.7755575615628914e-17,down,0.23871499998494983,,,,,,,,,,,,,,,,,,,,,,,,,,,,,,,,,,,,,,,,,,,,,,,,,,,,,,,,zoe,train_y,blue_star,top_right,2024-11-18_14h12.25.454,HideSeek_v1,2022.2.5,59.984368066382295,
,8,9,8,4,0,-5,66,,train_dim1_1,27,30,,,,2,0,2,0,,,,,,,,,0,0,0,0,0,26,26,26,4,0,4,0,,,,,,,,,,,,,,,,,,,,,,,,,,,,,,,,,,,,,,,,,,,,,,,,,,,,,,,,,,,,,,,,30,,,,,,,,281.6118014000822,281.6118014000822,281.6118014000822,281.6118014000822,281.6118014000822,,,,,down,0.32691909989807755,25,0,0,99,0.48,-0.08000000000000003,down,0.24809480004478246,,,,,,,,,,,,,,,,,,,,,,,,,,,,,,,,,,,,,,,,,,,,,,,,,,,,,,,,zoe,train_y,blue_star,top_right,2024-11-18_14h12.25.454,HideSeek_v1,2022.2.5,59.984368066382295,
,8,9,8,4,0,-5,66,,train_dim1_1,27,30,,,,2,0,2,0,,,,,,,,,0,0,0,0,0,26,26,26,5,0,5,0,,,,,,,,,,,,,,,,,,,,,,,,,,,,,,,,,,,,,,,,,,,,,,,,,,,,,,,,,,,,,,,,30,,,,,,,,281.9463161000749,281.9463161000749,281.9463161000749,281.9463161000749,281.9463161000749,-69,0,0.48,-0.08000000000000003,return,0.4266984999412671,26,0,0,1,0.48,-0.08000000000000003,return,0.34243040008004755,,,,,,,,,,,,,,,,,,,,,,,,,,,,,,,,,,,,,,,,,,,,,,,,,,,,,,,,zoe,train_y,blue_star,top_right,2024-11-18_14h12.25.454,HideSeek_v1,2022.2.5,59.984368066382295,
,9,6,9,6,0,0,61,,train_dim1_1,28,30,,,,2,0,2,0,,,,,,,,,0,0,0,0,0,27,27,27,0,0,0,0,,,,,,,,,,,,,,,,,,,,,,,,,stimuli/alien_stimuli/61.png,,,,,,,,,,,,,,,,,,,,,,,,,,,,,stimuli/alien_stimuli/66.png,66,8,29,,,,,,,30,,,,,,,,285.92057419999037,285.92057419999037,285.92057419999037,285.92057419999037,285.92057419999037,-69,0,0.56,0.08,return,1.5224216000642627,27,0,0,1,0.56,0.08,return,1.449204899952747,284.36777290003374,285.92057419999037,0.48,-0.08,0.4,0.0,0.12,0.48,0.48,0.48,-0.08,283.92284750007093,283.92284750007093,283.92284750007093,283.92284750007093,283.92284750007093,283.92284750007093,283.92284750007093,283.92284750007093,283.917449019989,0.5359599000075832,return,0.42146139999385923,,,,,,,,,,,,,,,,,,,,,,,,,,,,,,,,,zoe,train_y,blue_star,top_right,2024-11-18_14h12.25.454,HideSeek_v1,2022.2.5,59.984368066382295,
,7,7,7,6,0,-1,62,,train_dim1_1,29,30,,,,2,0,2,0,,,,,,,,,0,0,0,0,0,28,28,28,0,0,0,0,,,,,,,,,,,,,,,,,,,,,,,,,stimuli/alien_stimuli/62.png,,,,,,,,,,,,,,,,,,,,,,,,,,,,,stimuli/alien_stimuli/61.png,61,9,30,,,,,,,30,,,,,,,,291.25928220001515,291.25928220001515,291.25928220001515,291.25928220001515,291.25928220001515,,,,,down,1.5551568999653682,27,0,0,99,0.4,0.08,down,1.4804817999247462,289.7054699000437,291.25928220001515,0.56,0.08,0.0,0.0,0.08,0.56,0.56,0.56,0.08,288.99577849998605,288.99577849998605,288.99577849998605,288.99577849998605,288.99577849998605,288.99577849998605,288.99577849998605,288.99577849998605,288.9883034200408,0.8028099000221118,return,0.680396500043571,,,,,,,,,,,,,,,,,,,,,,,,,,,,,,,,,zoe,train_y,blue_star,top_right,2024-11-18_14h12.25.454,HideSeek_v1,2022.2.5,59.984368066382295,
,7,7,7,6,0,-1,62,,train_dim1_1,29,30,,,,2,0,2,0,,,,,,,,,0,0,0,0,0,28,28,28,1,0,1,0,,,,,,,,,,,,,,,,,,,,,,,,,,,,,,,,,,,,,,,,,,,,,,,,,,,,,,,,,,,,,,,,30,,,,,,,,292.8223810000345,292.8223810000345,292.8223810000345,292.8223810000345,292.8223810000345,-70,0,0.4,0.08,return,0.2757959000300616,28,0,0,1,0.4,0.08,return,0.195972100016661,,,,,,,,,,,,,,,,,,,,,,,,,,,,,,,,,,,,,,,,,,,,,,,,,,,,,,,,zoe,train_y,blue_star,top_right,2024-11-18_14h12.25.454,HideSeek_v1,2022.2.5,59.984368066382295,
,5,6,5,2,0,-4,65,,train_dim1_1,30,30,,,,2,0,2,0,,,,,,,,,0,0,0,0,0,29,29,29,0,0,0,0,,,,,,,,,,,,,,,,,,,,,,,,,stimuli/alien_stimuli/65.png,,,,,,,,,,,,,,,,,,,,,,,,,,,,,stimuli/alien_stimuli/62.png,62,7,31,,,,,,,30,,,,,,,,296.72336070006713,296.72336070006713,296.72336070006713,296.72336070006713,296.72336070006713,,,,,down,1.3957234000554308,28,0,0,99,0.24,0.0,down,1.3136835999321193,295.16001620003954,296.72336070006713,0.4,0.08,0.08,0.0,0.12,0.4,0.4,0.4,0.08,294.64783720008563,294.64783720008563,294.64783720008563,294.64783720008563,294.64783720008563,294.64783720008563,294.64783720008563,294.64783720008563,294.64298431996724,0.6026352000189945,return,0.49467789998743683,,,,,,,,,,,,,,,,,,,,,,,,,,,,,,,,,zoe,train_y,blue_star,top_right,2024-11-18_14h12.25.454,HideSeek_v1,2022.2.5,59.984368066382295,
,5,6,5,2,0,-4,65,,train_dim1_1,30,30,,,,2,0,2,0,,,,,,,,,0,0,0,0,0,29,29,29,1,0,1,0,,,,,,,,,,,,,,,,,,,,,,,,,,,,,,,,,,,,,,,,,,,,,,,,,,,,,,,,,,,,,,,,30,,,,,,,,298.12683349999133,298.12683349999133,298.12683349999133,298.12683349999133,298.12683349999133,,,,,down,0.32626409991644323,28,0,0,99,0.24,-0.08,down,0.24276240007020533,,,,,,,,,,,,,,,,,,,,,,,,,,,,,,,,,,,,,,,,,,,,,,,,,,,,,,,,zoe,train_y,blue_star,top_right,2024-11-18_14h12.25.454,HideSeek_v1,2022.2.5,59.984368066382295,
,5,6,5,2,0,-4,65,,train_dim1_1,30,30,,,,2,0,2,0,,,,,,,,,0,0,0,0,0,29,29,29,2,0,2,0,,,,,,,,,,,,,,,,,,,,,,,,,,,,,,,,,,,,,,,,,,,,,,,,,,,,,,,,,,,,,,,,30,,,,,,,,298.4592260000063,298.4592260000063,298.4592260000063,298.4592260000063,298.4592260000063,,,,,down,0.3435647999867797,28,0,0,99,0.24,-0.16,down,0.2643665000796318,,,,,,,,,,,,,,,,,,,,,,,,,,,,,,,,,,,,,,,,,,,,,,,,,,,,,,,,zoe,train_y,blue_star,top_right,2024-11-18_14h12.25.454,HideSeek_v1,2022.2.5,59.984368066382295,
,5,6,5,2,0,-4,65,,train_dim1_1,30,30,,,,2,0,2,0,,,,,,,,,0,0,0,0,0,29,29,29,3,0,3,0,,,,,,,,,,,,,,,,,,,,,,,,,,,,,,,,,,,,,,,,,,,,,,,,,,,,,,,,,,,,,,,,30,,,,,,,,298.813931300072,298.813931300072,298.813931300072,298.813931300072,298.813931300072,,,,,down,0.4400245000142604,28,0,0,99,0.24,-0.24,down,0.36188700003549457,,,,,,,,,,,,,,,,,,,,,,,,,,,,,,,,,,,,,,,,,,,,,,,,,,,,,,,,zoe,train_y,blue_star,top_right,2024-11-18_14h12.25.454,HideSeek_v1,2022.2.5,59.984368066382295,
,5,6,5,2,0,-4,65,,train_dim1_1,30,30,,,,2,0,2,0,,,,,,,,,0,0,0,0,0,29,29,29,4,0,4,0,,,,,,,,,,,,,,,,,,,,,,,,,,,,,,,,,,,,,,,,,,,,,,,,,,,,,,,,,,,,,,,,30,,,,,,,,299.2592311000917,299.2592311000917,299.2592311000917,299.2592311000917,299.2592311000917,-74,0,0.24,-0.24,return,0.5102777000283822,29,0,0,1,0.24,-0.24,return,0.4247204998973757,,,,,,,,,,,,,,,,,,,,,,,,,,,,,,,,,,,,,,,,,,,,,,,,,,,,,,,,zoe,train_y,blue_star,top_right,2024-11-18_14h12.25.454,HideSeek_v1,2022.2.5,59.984368066382295,
,,,,,,,,,,,30,,,,2,0,2,0,,,,,,,,,,,,,,,,,,,,,,,,,,,,,,,,,,,,,,,,,,,,,,,,,,,,,,,,,,,,,,,,,,,,,,,,,,stimuli/alien_stimuli/65.png,65,5,32,17,0.7,1.2083333333333335,1,1,1,30,0,conditions/schedules/train_y_first/blue_star_00/top_right/inputTrain_2.1.xlsx,99,1,2,1,0,,,,,,,,,,,,,,,1,,,,,301.8158084000461,303.37524700001813,0.24,-0.24,0.32,0.0,-0.07999999999999999,0.24,0.24,0.24,-0.24,301.3194165000459,301.3194165000459,301.3194165000459,301.3194165000459,301.3194165000459,301.3194165000459,301.3194165000459,301.3194165000459,301.3150628200034,0.5863205000059679,return,0.4730559999588877,0,0.9,0,1,29,,,,,,,,,,,,,,,,,,,,,,,,,,,,zoe,train_y,blue_star,top_right,2024-11-18_14h12.25.454,HideSeek_v1,2022.2.5,59.984368066382295,
,,,,,,,,,,,,,,,3,0,3,0,0,0,0,0,,,,,,,,,,,,,,,,,,,,,,,,,,,,,,,conditions/schedules/train_y_first/blue_star_00/top_right/instructions/Slide17.png,conditions/schedules/train_y_first/blue_star_00/top_right/instructions/Audio17.wav,303.37524700001813,303.3670120800147,17,"[1.3878260999917984, 0.28756199998315424, 0.25023020000662655, 0.24862660001963377, 0.3427150999195874, 0.21763639990240335, 0.23007849999703467, 0.29540170007385314, 0.29945769999176264, 0.6445530999917537, 2.71556080004666, 0.7107008000602946, 3.0579342999262735, 0.9527103999862447, 2.1271263000089675, 0.9807326000882313, 11.532168800011277]","[0.014401899999938905, 0.00020760006736963987, 0.2502378000644967, 0.014393299934454262, 0.014431599993258715, 0.0315305000403896, 0.031109800096601248, 0.0002071000635623932, 0.03147819999139756, 0.030793100013397634, 0.030708300066180527, 0.7107070999918506, 0.00022000004537403584, 0.9527194000547752, 0.03130780009087175, 0.9807388000190258, 11.532175600063056]",0,,,,,,,,,,,,,,,,,,,,,,,,,,,,,,,,,,,,,,,,,,,,,,,,,,,,,,,,,,,,,,,,,,,,,,,,,,,,,,,,,,,,,,,,,,,,,,,,,,,,,,,,,,,,,,,,,,,,,,,,,,,,zoe,train_y,blue_star,top_right,2024-11-18_14h12.25.454,HideSeek_v1,2022.2.5,59.984368066382295,
,,,,,,,,,,,,,,,3,0,3,0,1,0,1,0,,,,,,,,,,,,,,,,,,,,,,,,,,,,,,,conditions/schedules/train_y_first/blue_star_00/top_right/instructions/Slide18.png,conditions/schedules/train_y_first/blue_star_00/top_right/instructions/Audio18.wav,314.9733522000024,314.9598340800498,18,"[1.3878260999917984, 0.28756199998315424, 0.25023020000662655, 0.24862660001963377, 0.3427150999195874, 0.21763639990240335, 0.23007849999703467, 0.29540170007385314, 0.29945769999176264, 0.6445530999917537, 2.71556080004666, 0.7107008000602946, 3.0579342999262735, 0.9527103999862447, 2.1271263000089675, 0.9807326000882313, 11.532168800011277, 0.7853632000042126]","[0.014401899999938905, 0.00020760006736963987, 0.2502378000644967, 0.014393299934454262, 0.014431599993258715, 0.0315305000403896, 0.031109800096601248, 0.0002071000635623932, 0.03147819999139756, 0.030793100013397634, 0.030708300066180527, 0.7107070999918506, 0.00022000004537403584, 0.9527194000547752, 0.03130780009087175, 0.9807388000190258, 0.03473289997782558, 0.7853698000544682]",0,,,,,,,,,,,,,,,,,,,,,,,,,,,,,,,,,,,,,,,,,,,,,,,,,,,,,,,,,,,,,,,,,,,,,,,,,,,,,,,,,,,,,,,,,,,,,,,,,,,,,,,,,,,,,,,,,,,,,,,,,,,,zoe,train_y,blue_star,top_right,2024-11-18_14h12.25.454,HideSeek_v1,2022.2.5,59.984368066382295,
,,,,,,,,,,,,,,,3,0,3,0,2,0,2,0,,,,,,,,,,,,,,,,,,,,,,,,,,,,,,,conditions/schedules/train_y_first/blue_star_00/top_right/instructions/Slide19.png,conditions/schedules/train_y_first/blue_star_00/top_right/instructions/Audio19.wav,315.81017650000285,315.8109059800394,19,"[1.3878260999917984, 0.28756199998315424, 0.25023020000662655, 0.24862660001963377, 0.3427150999195874, 0.21763639990240335, 0.23007849999703467, 0.29540170007385314, 0.29945769999176264, 0.6445530999917537, 2.71556080004666, 0.7107008000602946, 3.0579342999262735, 0.9527103999862447, 2.1271263000089675, 0.9807326000882313, 11.532168800011277, 0.7853632000042126, 0.3992032000096515]","[0.014401899999938905, 0.00020760006736963987, 0.2502378000644967, 0.014393299934454262, 0.014431599993258715, 0.0315305000403896, 0.031109800096601248, 0.0002071000635623932, 0.03147819999139756, 0.030793100013397634, 0.030708300066180527, 0.7107070999918506, 0.00022000004537403584, 0.9527194000547752, 0.03130780009087175, 0.9807388000190258, 0.03473289997782558, 0.014816800015978515, 0.39920909993816167]",0,,,,,,,,,,,,,,,,,,,,,,,,,,,,,,,,,,,,,,,,,,,,,,,,,,,,,,,,,,,,,,,,,,,,,,,,,,,,,,,,,,,,,,,,,,,,,,,,,,,,,,,,,,,,,,,,,,,,,,,,,,,,zoe,train_y,blue_star,top_right,2024-11-18_14h12.25.454,HideSeek_v1,2022.2.5,59.984368066382295,
